participant,date,expName,psychopyVersion,OS,frameRate,key_resp_instruction1.started,key_resp_instruction1.keys,key_resp_instruction1.rt,key_resp_instruction1.duration,key_resp_instruction2.started,key_resp_instruction2.keys,key_resp_instruction2.rt,key_resp_instruction2.duration,key_resp_instruction3.started,key_resp_instruction3.keys,key_resp_instruction3.rt,key_resp_instruction3.duration,practiceCondition,practice_reward_seqs,key_resp_practice_slots.started,key_resp_practice_slots.keys,key_resp_practice_slots.rt,key_resp_practice_slots.duration,presentationInterval,"practice_reward_seq: 2,1,3",reward_Img,Cuml_rew,currentPracticeTrialReward,practice_trials.thisRepN,practice_trials.thisTrialN,practice_trials.thisN,practice_trials.thisIndex,practice_trials.ran,"practice_reward_seq: 2,3,1",text_block_break.started,practice_block.thisRepN,practice_block.thisTrialN,practice_block.thisN,practice_block.thisIndex,practice_block.ran,"practice_reward_seq: 1,3,2","practice_reward_seq: 3,1,2",key_resp_practice_end.started,key_resp_practice_end.keys,key_resp_practice_end.rt,key_resp_practice_end.duration,text_main_instruction.started,BlockCondition,BlockOrderIndices,key_resp_main_instruction.started,key_resp_main_instruction.keys,key_resp_main_instruction.rt,key_resp_main_instruction.duration,currentCondition,main_reward_seqs,key_resp_slots_presentation.started,key_resp_slots_presentation.keys,key_resp_slots_presentation.rt,key_resp_slots_presentation.duration,Main_presentationInterval,rewardPresentationTime,Main_reward_seq,Random value generated,Main_reward_Img,Main_Cumul_Reward,Main_currentTrialReward,main_trials.thisRepN,main_trials.thisTrialN,main_trials.thisN,main_trials.thisIndex,main_trials.ran,block.thisRepN,block.thisTrialN,block.thisN,block.thisIndex,block.ran
0,2023-10-02_14h14.50.276,slotMachine_updated,2023.1.3,MacIntel,35.71428571,,,,,,,,,,,,,,,,,,,,,,,,,,,,,,,,,,,,,,,,,,,,,,,,,,,,,,,,,,,,,,,,,,,,,,,
0,2023-10-02_14h14.50.276,slotMachine_updated,2023.1.3,MacIntel,35.71428571,125.843,space,6.61,,,,,,,,,,,,,,,,,,,,,,,,,,,,,,,,,,,,,,,,,,,,,,,,,,,,,,,,,,,,,,,,,,,,
0,2023-10-02_14h14.50.276,slotMachine_updated,2023.1.3,MacIntel,35.71428571,,,,,132.516,space,0.205,,,,,,,,,,,,,,,,,,,,,,,,,,,,,,,,,,,,,,,,,,,,,,,,,,,,,,,,,,,,,,,,
0,2023-10-02_14h14.50.276,slotMachine_updated,2023.1.3,MacIntel,35.71428571,,,,,,,,,132.774,space,10.742,,,,,,,,,,,,,,,,,,,,,,,,,,,,,,,,,,,,,,,,,,,,,,,,,,,,,,,,,,,,
0,2023-10-02_14h14.50.276,slotMachine_updated,2023.1.3,MacIntel,35.71428571,,,,,,,,,,,,,"[9,15]","[[2,1,3],[2,3,1]]",143.577,left,3.809,,1.5,,stimuli/card_10_transparent.png,10,10,0,0,0,0,1,,,,,,,,,,,,,,,,,,,,,,,,,,,,,,,,,,,,,,,,,,,
0,2023-10-02_14h14.50.276,slotMachine_updated,2023.1.3,MacIntel,35.71428571,,,,,,,,,,,,,,,149.251,left,1.066,,1,,stimuli/card_10_transparent.png,20,10,1,0,1,0,1,,,,,,,,,,,,,,,,,,,,,,,,,,,,,,,,,,,,,,,,,,,
0,2023-10-02_14h14.50.276,slotMachine_updated,2023.1.3,MacIntel,35.71428571,,,,,,,,,,,,,,,151.649,right,3.811,,1,,stimuli/card_10_transparent.png,30,10,2,0,2,0,1,,,,,,,,,,,,,,,,,,,,,,,,,,,,,,,,,,,,,,,,,,,
0,2023-10-02_14h14.50.276,slotMachine_updated,2023.1.3,MacIntel,35.71428571,,,,,,,,,,,,,,,156.783,right,0.831,,1,,stimuli/card_0_transparent.png,30,0,3,0,3,0,1,,,,,,,,,,,,,,,,,,,,,,,,,,,,,,,,,,,,,,,,,,,
0,2023-10-02_14h14.50.276,slotMachine_updated,2023.1.3,MacIntel,35.71428571,,,,,,,,,,,,,,,158.949,right,1.086,,1.5,,stimuli/card_10_transparent.png,40,10,4,0,4,0,1,,,,,,,,,,,,,,,,,,,,,,,,,,,,,,,,,,,,,,,,,,,
0,2023-10-02_14h14.50.276,slotMachine_updated,2023.1.3,MacIntel,35.71428571,,,,,,,,,,,,,,,161.85,right,0.969,,1.5,,stimuli/card_0_transparent.png,40,0,5,0,5,0,1,,,,,,,,,,,,,,,,,,,,,,,,,,,,,,,,,,,,,,,,,,,
0,2023-10-02_14h14.50.276,slotMachine_updated,2023.1.3,MacIntel,35.71428571,,,,,,,,,,,,,,,164.65,right,1.345,,1,,stimuli/card_0_transparent.png,40,0,6,0,6,0,1,,,,,,,,,,,,,,,,,,,,,,,,,,,,,,,,,,,,,,,,,,,
0,2023-10-02_14h14.50.276,slotMachine_updated,2023.1.3,MacIntel,35.71428571,,,,,,,,,,,,,,,167.316,right,2.54,,0.5,,stimuli/card_0_transparent.png,40,0,7,0,7,0,1,,,,,,,,,,,,,,,,,,,,,,,,,,,,,,,,,,,,,,,,,,,
0,2023-10-02_14h14.50.276,slotMachine_updated,2023.1.3,MacIntel,35.71428571,,,,,,,,,,,,,,,170.682,left,1.465,,0.5,,stimuli/card_10_transparent.png,50,10,8,0,8,0,1,,,,,,,,,,,,,,,,,,,,,,,,,,,,,,,,,,,,,,,,,,,
0,2023-10-02_14h14.50.276,slotMachine_updated,2023.1.3,MacIntel,35.71428571,,,,,,,,,,,,,,,172.966,up,1.039,,0.5,,stimuli/card_0_transparent.png,50,0,9,0,9,0,1,,,,,,,,,,,,,,,,,,,,,,,,,,,,,,,,,,,,,,,,,,,
0,2023-10-02_14h14.50.276,slotMachine_updated,2023.1.3,MacIntel,35.71428571,,,,,,,,,,,,,,,174.833,up,0.303,,0.5,,stimuli/card_0_transparent.png,50,0,10,0,10,0,1,,,,,,,,,,,,,,,,,,,,,,,,,,,,,,,,,,,,,,,,,,,
0,2023-10-02_14h14.50.276,slotMachine_updated,2023.1.3,MacIntel,35.71428571,,,,,,,,,,,,,,,175.949,up,0.648,,1.5,,stimuli/card_0_transparent.png,50,0,11,0,11,0,1,,,,,,,,,,,,,,,,,,,,,,,,,,,,,,,,,,,,,,,,,,,
0,2023-10-02_14h14.50.276,slotMachine_updated,2023.1.3,MacIntel,35.71428571,,,,,,,,,,,,,,,178.415,up,1.447,,1.5,,stimuli/card_10_transparent.png,60,10,12,0,12,0,1,,,,,,,,,,,,,,,,,,,,,,,,,,,,,,,,,,,,,,,,,,,
0,2023-10-02_14h14.50.276,slotMachine_updated,2023.1.3,MacIntel,35.71428571,,,,,,,,,,,,,,,181.682,right,0.508,,1.5,,stimuli/card_100_transparent.png,160,100,13,0,13,0,1,,,,,,,,,,,,,,,,,,,,,,,,,,,,,,,,,,,,,,,,,,,
0,2023-10-02_14h14.50.276,slotMachine_updated,2023.1.3,MacIntel,35.71428571,,,,,,,,,,,,,,,184.015,up,4.51,,1,,stimuli/card_0_transparent.png,160,0,14,0,14,0,1,,,,,,,,,,,,,,,,,,,,,,,,,,,,,,,,,,,,,,,,,,,
0,2023-10-02_14h14.50.276,slotMachine_updated,2023.1.3,MacIntel,35.71428571,,,,,,,,,,,,,,,,,,,,,,,,,,,,,,189.85,0,0,0,0,1,,,,,,,,,,,,,,,,,,,,,,,,,,,,,,,,,,,,
0,2023-10-02_14h14.50.276,slotMachine_updated,2023.1.3,MacIntel,35.71428571,,,,,,,,,,,,,"[6,15]","[[1,3,2],[3,1,2]]",,,,,,,,,,,,,,,,,,,,,,,,,,,,,,,,,,,,,,,,,,,,,,,,,,,,,,,,,
0,2023-10-02_14h14.50.276,slotMachine_updated,2023.1.3,MacIntel,35.71428571,,,,,,,,,,,,,,,194.853,right,1.403,,0.5,,stimuli/card_10_transparent.png,10,10,0,0,0,0,1,,,,,,,,,,,,,,,,,,,,,,,,,,,,,,,,,,,,,,,,,,,
0,2023-10-02_14h14.50.276,slotMachine_updated,2023.1.3,MacIntel,35.71428571,,,,,,,,,,,,,,,197.082,left,2.924,,0.5,,stimuli/card_10_transparent.png,20,10,1,0,1,0,1,,,,,,,,,,,,,,,,,,,,,,,,,,,,,,,,,,,,,,,,,,,
0,2023-10-02_14h14.50.276,slotMachine_updated,2023.1.3,MacIntel,35.71428571,,,,,,,,,,,,,,,200.833,up,1.314,,0.5,,stimuli/card_0_transparent.png,20,0,2,0,2,0,1,,,,,,,,,,,,,,,,,,,,,,,,,,,,,,,,,,,,,,,,,,,
0,2023-10-02_14h14.50.276,slotMachine_updated,2023.1.3,MacIntel,35.71428571,,,,,,,,,,,,,,,202.966,right,0.993,,1,,stimuli/card_10_transparent.png,30,10,3,0,3,0,1,,,,,,,,,,,,,,,,,,,,,,,,,,,,,,,,,,,,,,,,,,,
0,2023-10-02_14h14.50.276,slotMachine_updated,2023.1.3,MacIntel,35.71428571,,,,,,,,,,,,,,,205.266,left,1.24,,1.5,,stimuli/card_100_transparent.png,130,100,4,0,4,0,1,,,,,,,,,,,,,,,,,,,,,,,,,,,,,,,,,,,,,,,,,,,
0,2023-10-02_14h14.50.276,slotMachine_updated,2023.1.3,MacIntel,35.71428571,,,,,,,,,,,,,,,208.332,up,1.759,,1.5,,stimuli/card_0_transparent.png,130,0,5,0,5,0,1,,,,,,,,,,,,,,,,,,,,,,,,,,,,,,,,,,,,,,,,,,,
0,2023-10-02_14h14.50.276,slotMachine_updated,2023.1.3,MacIntel,35.71428571,,,,,,,,,,,,,,,211.915,right,0.833,,1.5,,stimuli/card_10_transparent.png,140,10,6,0,6,0,1,,,,,,,,,,,,,,,,,,,,,,,,,,,,,,,,,,,,,,,,,,,
0,2023-10-02_14h14.50.276,slotMachine_updated,2023.1.3,MacIntel,35.71428571,,,,,,,,,,,,,,,214.566,up,1.142,,1,,stimuli/card_100_transparent.png,240,100,7,0,7,0,1,,,,,,,,,,,,,,,,,,,,,,,,,,,,,,,,,,,,,,,,,,,
0,2023-10-02_14h14.50.276,slotMachine_updated,2023.1.3,MacIntel,35.71428571,,,,,,,,,,,,,,,217.034,,,,1,,,,,8,0,8,0,1,,,,,,,,,,,,,,,,,,,,,,,,,,,,,,,,,,,,,,,,,,,
0,2023-10-02_14h14.50.276,slotMachine_updated,2023.1.3,MacIntel,35.71428571,,,,,,,,,,,,,,,222.554,up,1.404,,1,,stimuli/card_0_transparent.png,240,0,9,0,9,0,1,,,,,,,,,,,,,,,,,,,,,,,,,,,,,,,,,,,,,,,,,,,
0,2023-10-02_14h14.50.276,slotMachine_updated,2023.1.3,MacIntel,35.71428571,,,,,,,,,,,,,,,225.282,right,1.678,,0.5,,stimuli/card_10_transparent.png,250,10,10,0,10,0,1,,,,,,,,,,,,,,,,,,,,,,,,,,,,,,,,,,,,,,,,,,,
0,2023-10-02_14h14.50.276,slotMachine_updated,2023.1.3,MacIntel,35.71428571,,,,,,,,,,,,,,,227.782,right,1.739,,1.5,,stimuli/card_10_transparent.png,260,10,11,0,11,0,1,,,,,,,,,,,,,,,,,,,,,,,,,,,,,,,,,,,,,,,,,,,
0,2023-10-02_14h14.50.276,slotMachine_updated,2023.1.3,MacIntel,35.71428571,,,,,,,,,,,,,,,231.349,left,0.669,,1,,stimuli/card_0_transparent.png,260,0,12,0,12,0,1,,,,,,,,,,,,,,,,,,,,,,,,,,,,,,,,,,,,,,,,,,,
0,2023-10-02_14h14.50.276,slotMachine_updated,2023.1.3,MacIntel,35.71428571,,,,,,,,,,,,,,,233.348,up,2.705,,1.5,,stimuli/card_100_transparent.png,360,100,13,0,13,0,1,,,,,,,,,,,,,,,,,,,,,,,,,,,,,,,,,,,,,,,,,,,
0,2023-10-02_14h14.50.276,slotMachine_updated,2023.1.3,MacIntel,35.71428571,,,,,,,,,,,,,,,237.865,up,0.831,,0.5,,stimuli/card_10_transparent.png,370,10,14,0,14,0,1,,,,,,,,,,,,,,,,,,,,,,,,,,,,,,,,,,,,,,,,,,,
0,2023-10-02_14h14.50.276,slotMachine_updated,2023.1.3,MacIntel,35.71428571,,,,,,,,,,,,,,,,,,,,,,,,,,,,,,,,,,,,,,239.515,space,15.408,,,,,,,,,,,,,,,,,,,,,,,,,,,,,,,
0,2023-10-02_14h14.50.276,slotMachine_updated,2023.1.3,MacIntel,35.71428571,,,,,,,,,,,,,,,,,,,,,,,,,,,,,,,,,,,,,,,,,,254.948,3,"[0,4,6,3,5,7,8,1,9,2]",254.948,space,777.607,,,,,,,,,,,,,,,,,,,,,,,,
0,2023-10-02_14h14.50.276,slotMachine_updated,2023.1.3,MacIntel,35.71428571,,,,,,,,,,,,,,,,,,,,,,,,,,,,,,,,,,,,,,,,,,,,,,,,,"[12,15]","[[2,1,3],[2,3,1]]",1032.7,left,2.466,,0.5,0.3,"[2,1,3]",0.372318216,stimuli/card_10_transparent.png,10,10,0,0,0,0,1,,,,,
0,2023-10-02_14h14.50.276,slotMachine_updated,2023.1.3,MacIntel,35.71428571,,,,,,,,,,,,,,,,,,,,,,,,,,,,,,,,,,,,,,,,,,,,,,,,,,,1036.172,up,2.604,,0.5,0.3,"[2,1,3]",0.07603249,stimuli/card_0_transparent.png,10,0,1,0,1,0,1,,,,,
0,2023-10-02_14h14.50.276,slotMachine_updated,2023.1.3,MacIntel,35.71428571,,,,,,,,,,,,,,,,,,,,,,,,,,,,,,,,,,,,,,,,,,,,,,,,,,,1039.62,right,0.865,,1.5,0.3,"[2,1,3]",0.447554595,stimuli/card_0_transparent.png,10,0,2,0,2,0,1,,,,,
0,2023-10-02_14h14.50.276,slotMachine_updated,2023.1.3,MacIntel,35.71428571,,,,,,,,,,,,,,,,,,,,,,,,,,,,,,,,,,,,,,,,,,,,,,,,,,,1042.305,right,0.896,,1,0.3,"[2,1,3]",0.863549887,stimuli/card_0_transparent.png,10,0,3,0,3,0,1,,,,,
0,2023-10-02_14h14.50.276,slotMachine_updated,2023.1.3,MacIntel,35.71428571,,,,,,,,,,,,,,,,,,,,,,,,,,,,,,,,,,,,,,,,,,,,,,,,,,,1044.52,left,0.349,,0.5,0.3,"[2,1,3]",0.25441195,stimuli/card_10_transparent.png,20,10,4,0,4,0,1,,,,,
0,2023-10-02_14h14.50.276,slotMachine_updated,2023.1.3,MacIntel,35.71428571,,,,,,,,,,,,,,,,,,,,,,,,,,,,,,,,,,,,,,,,,,,,,,,,,,,1045.687,left,0.51,,1.5,0.3,"[2,1,3]",0.145342955,stimuli/card_100_transparent.png,120,100,5,0,5,0,1,,,,,
0,2023-10-02_14h14.50.276,slotMachine_updated,2023.1.3,MacIntel,35.71428571,,,,,,,,,,,,,,,,,,,,,,,,,,,,,,,,,,,,,,,,,,,,,,,,,,,1048.02,left,2.641,,1.5,0.3,"[2,1,3]",0.692192901,stimuli/card_10_transparent.png,130,10,6,0,6,0,1,,,,,
0,2023-10-02_14h14.50.276,slotMachine_updated,2023.1.3,MacIntel,35.71428571,,,,,,,,,,,,,,,,,,,,,,,,,,,,,,,,,,,,,,,,,,,,,,,,,,,1052.488,left,0.759,,0.5,0.3,"[2,1,3]",0.517174027,stimuli/card_10_transparent.png,140,10,7,0,7,0,1,,,,,
0,2023-10-02_14h14.50.276,slotMachine_updated,2023.1.3,MacIntel,35.71428571,,,,,,,,,,,,,,,,,,,,,,,,,,,,,,,,,,,,,,,,,,,,,,,,,,,1054.07,left,1.181,,1.5,0.3,"[2,1,3]",0.256391205,stimuli/card_10_transparent.png,150,10,8,0,8,0,1,,,,,
0,2023-10-02_14h14.50.276,slotMachine_updated,2023.1.3,MacIntel,35.71428571,,,,,,,,,,,,,,,,,,,,,,,,,,,,,,,,,,,,,,,,,,,,,,,,,,,1057.088,left,0.701,,1.5,0.3,"[2,1,3]",0.62323869,stimuli/card_10_transparent.png,160,10,9,0,9,0,1,,,,,
0,2023-10-02_14h14.50.276,slotMachine_updated,2023.1.3,MacIntel,35.71428571,,,,,,,,,,,,,,,,,,,,,,,,,,,,,,,,,,,,,,,,,,,,,,,,,,,1059.634,up,0.779,,0.5,0.3,"[2,1,3]",0.490876351,stimuli/card_100_transparent.png,260,100,10,0,10,0,1,,,,,
0,2023-10-02_14h14.50.276,slotMachine_updated,2023.1.3,MacIntel,35.71428571,,,,,,,,,,,,,,,,,,,,,,,,,,,,,,,,,,,,,,,,,,,,,,,,,,,1061.238,up,0.978,,1,0.3,"[2,1,3]",0.729571808,stimuli/card_100_transparent.png,360,100,11,0,11,0,1,,,,,
0,2023-10-02_14h14.50.276,slotMachine_updated,2023.1.3,MacIntel,35.71428571,,,,,,,,,,,,,,,,,,,,,,,,,,,,,,,,,,,,,,,,,,,,,,,,,,,1063.537,up,0.415,,0.5,0.3,"[2,3,1]",0.511784114,stimuli/card_0_transparent.png,360,0,12,0,12,0,1,,,,,
0,2023-10-02_14h14.50.276,slotMachine_updated,2023.1.3,MacIntel,35.71428571,,,,,,,,,,,,,,,,,,,,,,,,,,,,,,,,,,,,,,,,,,,,,,,,,,,1064.771,up,0.898,,1.5,0.3,"[2,3,1]",0.09539686,stimuli/card_100_transparent.png,460,100,13,0,13,0,1,,,,,
0,2023-10-02_14h14.50.276,slotMachine_updated,2023.1.3,MacIntel,35.71428571,,,,,,,,,,,,,,,,,,,,,,,,,,,,,,,,,,,,,,,,,,,,,,,,,,,1067.487,up,0.461,,1,0.3,"[2,3,1]",0.537642995,stimuli/card_0_transparent.png,460,0,14,0,14,0,1,,,,,
0,2023-10-02_14h14.50.276,slotMachine_updated,2023.1.3,MacIntel,35.71428571,,,,,,,,,,,,,,,,,,,,,,,,,,,,,,1069.271,,,,,,,,,,,,,,,,,,,,,,,,,,,,,,,,,,,,,0,0,0,0,1
0,2023-10-02_14h14.50.276,slotMachine_updated,2023.1.3,MacIntel,35.71428571,,,,,,,,,,,,,,,,,,,,,,,,,,,,,,,,,,,,,,,,,,,,,,,,,"[5,15]","[[1,2,3],[3,1,2]]",1074.272,left,1.368,,1.5,0.3,"[1,2,3]",0.787162653,stimuli/card_100_transparent.png,100,100,0,0,0,0,1,,,,,
0,2023-10-02_14h14.50.276,slotMachine_updated,2023.1.3,MacIntel,35.71428571,,,,,,,,,,,,,,,,,,,,,,,,,,,,,,,,,,,,,,,,,,,,,,,,,,,1077.47,up,0.415,,0.5,0.3,"[1,2,3]",0.121108159,stimuli/card_100_transparent.png,200,100,1,0,1,0,1,,,,,
0,2023-10-02_14h14.50.276,slotMachine_updated,2023.1.3,MacIntel,35.71428571,,,,,,,,,,,,,,,,,,,,,,,,,,,,,,,,,,,,,,,,,,,,,,,,,,,1078.703,up,0.279,,1.5,0.3,"[1,2,3]",0.89262712,stimuli/card_10_transparent.png,210,10,2,0,2,0,1,,,,,
0,2023-10-02_14h14.50.276,slotMachine_updated,2023.1.3,MacIntel,35.71428571,,,,,,,,,,,,,,,,,,,,,,,,,,,,,,,,,,,,,,,,,,,,,,,,,,,1080.803,up,0.078,,1,0.3,"[1,2,3]",0.602090838,stimuli/card_10_transparent.png,220,10,3,0,3,0,1,,,,,
0,2023-10-02_14h14.50.276,slotMachine_updated,2023.1.3,MacIntel,35.71428571,,,,,,,,,,,,,,,,,,,,,,,,,,,,,,,,,,,,,,,,,,,,,,,,,,,1082.203,right,0.275,,1,0.3,"[1,2,3]",0.854050375,stimuli/card_0_transparent.png,220,0,4,0,4,0,1,,,,,
0,2023-10-02_14h14.50.276,slotMachine_updated,2023.1.3,MacIntel,35.71428571,,,,,,,,,,,,,,,,,,,,,,,,,,,,,,,,,,,,,,,,,,,,,,,,,,,1083.803,left,0.083,,1,0.3,"[3,1,2]",0.669739686,stimuli/card_0_transparent.png,220,0,5,0,5,0,1,,,,,
0,2023-10-02_14h14.50.276,slotMachine_updated,2023.1.3,MacIntel,35.71428571,,,,,,,,,,,,,,,,,,,,,,,,,,,,,,,,,,,,,,,,,,,,,,,,,,,1085.203,up,0.228,,1,0.3,"[3,1,2]",0.162302822,stimuli/card_10_transparent.png,230,10,6,0,6,0,1,,,,,
0,2023-10-02_14h14.50.276,slotMachine_updated,2023.1.3,MacIntel,35.71428571,,,,,,,,,,,,,,,,,,,,,,,,,,,,,,,,,,,,,,,,,,,,,,,,,,,1086.754,up,0.024,,1,0.3,"[3,1,2]",0.128730523,stimuli/card_10_transparent.png,240,10,7,0,7,0,1,,,,,
0,2023-10-02_14h14.50.276,slotMachine_updated,2023.1.3,MacIntel,35.71428571,,,,,,,,,,,,,,,,,,,,,,,,,,,,,,,,,,,,,,,,,,,,,,,,,,,1088.104,up,0.076,,0.5,0.3,"[3,1,2]",0.299201502,stimuli/card_100_transparent.png,340,100,8,0,8,0,1,,,,,
0,2023-10-02_14h14.50.276,slotMachine_updated,2023.1.3,MacIntel,35.71428571,,,,,,,,,,,,,,,,,,,,,,,,,,,,,,,,,,,,,,,,,,,,,,,,,,,1089.003,up,0.162,,1,0.3,"[3,1,2]",0.999261691,stimuli/card_100_transparent.png,440,100,9,0,9,0,1,,,,,
0,2023-10-02_14h14.50.276,slotMachine_updated,2023.1.3,MacIntel,35.71428571,,,,,,,,,,,,,,,,,,,,,,,,,,,,,,,,,,,,,,,,,,,,,,,,,,,1090.487,up,2.826,,1,0.3,"[3,1,2]",0.768284002,stimuli/card_100_transparent.png,540,100,10,0,10,0,1,,,,,
0,2023-10-02_14h14.50.276,slotMachine_updated,2023.1.3,MacIntel,35.71428571,,,,,,,,,,,,,,,,,,,,,,,,,,,,,,,,,,,,,,,,,,,,,,,,,,,1094.637,right,2.381,,1.5,0.3,"[3,1,2]",0.130319439,stimuli/card_100_transparent.png,640,100,11,0,11,0,1,,,,,
0,2023-10-02_14h14.50.276,slotMachine_updated,2023.1.3,MacIntel,35.71428571,,,,,,,,,,,,,,,,,,,,,,,,,,,,,,,,,,,,,,,,,,,,,,,,,,,1098.836,up,2.091,,0.5,0.3,"[3,1,2]",0.0128419,stimuli/card_0_transparent.png,640,0,12,0,12,0,1,,,,,
0,2023-10-02_14h14.50.276,slotMachine_updated,2023.1.3,MacIntel,35.71428571,,,,,,,,,,,,,,,,,,,,,,,,,,,,,,,,,,,,,,,,,,,,,,,,,,,1101.754,up,0.365,,1.5,0.3,"[3,1,2]",0.62807127,stimuli/card_100_transparent.png,740,100,13,0,13,0,1,,,,,
0,2023-10-02_14h14.50.276,slotMachine_updated,2023.1.3,MacIntel,35.71428571,,,,,,,,,,,,,,,,,,,,,,,,,,,,,,,,,,,,,,,,,,,,,,,,,,,1103.936,left,1.122,,0.5,0.3,"[3,1,2]",0.37934719,stimuli/card_0_transparent.png,740,0,14,0,14,0,1,,,,,
0,2023-10-02_14h14.50.276,slotMachine_updated,2023.1.3,MacIntel,35.71428571,,,,,,,,,,,,,,,,,,,,,,,,,,,,,,1105.887,,,,,,,,,,,,,,,,,,,,,,,,,,,,,,,,,,,,,1,0,1,0,1
0,2023-10-02_14h14.50.276,slotMachine_updated,2023.1.3,MacIntel,35.71428571,,,,,,,,,,,,,,,,,,,,,,,,,,,,,,,,,,,,,,,,,,,,,,,,,"[9,15]","[[1,3,2],[2,3,1]]",1110.888,up,0.439,,1.5,0.3,"[1,3,2]",0.257972145,stimuli/card_0_transparent.png,0,0,0,0,0,0,1,,,,,
0,2023-10-02_14h14.50.276,slotMachine_updated,2023.1.3,MacIntel,35.71428571,,,,,,,,,,,,,,,,,,,,,,,,,,,,,,,,,,,,,,,,,,,,,,,,,,,1113.154,right,0.479,,0.5,0.3,"[1,3,2]",0.095779687,stimuli/card_0_transparent.png,0,0,1,0,1,0,1,,,,,
0,2023-10-02_14h14.50.276,slotMachine_updated,2023.1.3,MacIntel,35.71428571,,,,,,,,,,,,,,,,,,,,,,,,,,,,,,,,,,,,,,,,,,,,,,,,,,,1114.453,left,0.635,,0.5,0.3,"[1,3,2]",0.555126212,stimuli/card_100_transparent.png,100,100,2,0,2,0,1,,,,,
0,2023-10-02_14h14.50.276,slotMachine_updated,2023.1.3,MacIntel,35.71428571,,,,,,,,,,,,,,,,,,,,,,,,,,,,,,,,,,,,,,,,,,,,,,,,,,,1115.904,up,0.361,,0.5,0.3,"[1,3,2]",0.823483192,stimuli/card_0_transparent.png,100,0,3,0,3,0,1,,,,,
0,2023-10-02_14h14.50.276,slotMachine_updated,2023.1.3,MacIntel,35.71428571,,,,,,,,,,,,,,,,,,,,,,,,,,,,,,,,,,,,,,,,,,,,,,,,,,,1117.086,up,0.307,,0.5,0.3,"[1,3,2]",0.347832517,stimuli/card_0_transparent.png,100,0,4,0,4,0,1,,,,,
0,2023-10-02_14h14.50.276,slotMachine_updated,2023.1.3,MacIntel,35.71428571,,,,,,,,,,,,,,,,,,,,,,,,,,,,,,,,,,,,,,,,,,,,,,,,,,,1118.22,up,0.379,,0.5,0.3,"[1,3,2]",0.346795106,stimuli/card_0_transparent.png,100,0,5,0,5,0,1,,,,,
0,2023-10-02_14h14.50.276,slotMachine_updated,2023.1.3,MacIntel,35.71428571,,,,,,,,,,,,,,,,,,,,,,,,,,,,,,,,,,,,,,,,,,,,,,,,,,,1119.419,right,0.128,,0.5,0.3,"[1,3,2]",0.634167342,stimuli/card_10_transparent.png,110,10,6,0,6,0,1,,,,,
0,2023-10-02_14h14.50.276,slotMachine_updated,2023.1.3,MacIntel,35.71428571,,,,,,,,,,,,,,,,,,,,,,,,,,,,,,,,,,,,,,,,,,,,,,,,,,,1120.369,up,0.189,,1,0.3,"[1,3,2]",0.035392577,stimuli/card_100_transparent.png,210,100,7,0,7,0,1,,,,,
0,2023-10-02_14h14.50.276,slotMachine_updated,2023.1.3,MacIntel,35.71428571,,,,,,,,,,,,,,,,,,,,,,,,,,,,,,,,,,,,,,,,,,,,,,,,,,,1121.887,left,0.396,,0.5,0.3,"[1,3,2]",0.806909765,stimuli/card_100_transparent.png,310,100,8,0,8,0,1,,,,,
0,2023-10-02_14h14.50.276,slotMachine_updated,2023.1.3,MacIntel,35.71428571,,,,,,,,,,,,,,,,,,,,,,,,,,,,,,,,,,,,,,,,,,,,,,,,,,,1123.103,up,0.576,,1.5,0.3,"[2,3,1]",0.008214804,stimuli/card_100_transparent.png,410,100,9,0,9,0,1,,,,,
0,2023-10-02_14h14.50.276,slotMachine_updated,2023.1.3,MacIntel,35.71428571,,,,,,,,,,,,,,,,,,,,,,,,,,,,,,,,,,,,,,,,,,,,,,,,,,,1125.503,right,1.124,,1,0.3,"[2,3,1]",0.980483941,stimuli/card_100_transparent.png,510,100,10,0,10,0,1,,,,,
0,2023-10-02_14h14.50.276,slotMachine_updated,2023.1.3,MacIntel,35.71428571,,,,,,,,,,,,,,,,,,,,,,,,,,,,,,,,,,,,,,,,,,,,,,,,,,,1127.953,left,0.391,,1.5,0.3,"[2,3,1]",0.373872845,stimuli/card_10_transparent.png,520,10,11,0,11,0,1,,,,,
0,2023-10-02_14h14.50.276,slotMachine_updated,2023.1.3,MacIntel,35.71428571,,,,,,,,,,,,,,,,,,,,,,,,,,,,,,,,,,,,,,,,,,,,,,,,,,,1130.17,up,0.159,,1,0.3,"[2,3,1]",0.2267785,stimuli/card_0_transparent.png,520,0,12,0,12,0,1,,,,,
0,2023-10-02_14h14.50.276,slotMachine_updated,2023.1.3,MacIntel,35.71428571,,,,,,,,,,,,,,,,,,,,,,,,,,,,,,,,,,,,,,,,,,,,,,,,,,,1131.653,up,0.132,,1.5,0.3,"[2,3,1]",0.541913314,stimuli/card_0_transparent.png,520,0,13,0,13,0,1,,,,,
0,2023-10-02_14h14.50.276,slotMachine_updated,2023.1.3,MacIntel,35.71428571,,,,,,,,,,,,,,,,,,,,,,,,,,,,,,,,,,,,,,,,,,,,,,,,,,,1133.603,right,0.36,,1,0.3,"[2,3,1]",0.480776602,stimuli/card_100_transparent.png,620,100,14,0,14,0,1,,,,,
0,2023-10-02_14h14.50.276,slotMachine_updated,2023.1.3,MacIntel,35.71428571,,,,,,,,,,,,,,,,,,,,,,,,,,,,,,1135.285,,,,,,,,,,,,,,,,,,,,,,,,,,,,,,,,,,,,,2,0,2,0,1
0,2023-10-02_14h14.50.276,slotMachine_updated,2023.1.3,MacIntel,35.71428571,,,,,,,,,,,,,,,,,,,,,,,,,,,,,,,,,,,,,,,,,,,,,,,,,"[7,15]","[[2,3,1],[1,2,3]]",1140.289,up,0.676,,1.5,0.3,"[2,3,1]",0.284738515,stimuli/card_0_transparent.png,0,0,0,0,0,0,1,,,,,
0,2023-10-02_14h14.50.276,slotMachine_updated,2023.1.3,MacIntel,35.71428571,,,,,,,,,,,,,,,,,,,,,,,,,,,,,,,,,,,,,,,,,,,,,,,,,,,1142.803,up,2.729,,0.5,0.3,"[2,3,1]",0.323938329,stimuli/card_0_transparent.png,0,0,1,0,1,0,1,,,,,
0,2023-10-02_14h14.50.276,slotMachine_updated,2023.1.3,MacIntel,35.71428571,,,,,,,,,,,,,,,,,,,,,,,,,,,,,,,,,,,,,,,,,,,,,,,,,,,1146.352,up,2.649,,0.5,0.3,"[2,3,1]",0.386749976,stimuli/card_0_transparent.png,0,0,2,0,2,0,1,,,,,
0,2023-10-02_14h14.50.276,slotMachine_updated,2023.1.3,MacIntel,35.71428571,,,,,,,,,,,,,,,,,,,,,,,,,,,,,,,,,,,,,,,,,,,,,,,,,,,1149.819,right,1.732,,1,0.3,"[2,3,1]",0.030713204,stimuli/card_0_transparent.png,0,0,3,0,3,0,1,,,,,
0,2023-10-02_14h14.50.276,slotMachine_updated,2023.1.3,MacIntel,35.71428571,,,,,,,,,,,,,,,,,,,,,,,,,,,,,,,,,,,,,,,,,,,,,,,,,,,1152.869,right,0.581,,0.5,0.3,"[2,3,1]",0.30817965,stimuli/card_100_transparent.png,100,100,4,0,4,0,1,,,,,
0,2023-10-02_14h14.50.276,slotMachine_updated,2023.1.3,MacIntel,35.71428571,,,,,,,,,,,,,,,,,,,,,,,,,,,,,,,,,,,,,,,,,,,,,,,,,,,1154.269,right,1.176,,1.5,0.3,"[2,3,1]",0.391941468,stimuli/card_100_transparent.png,200,100,5,0,5,0,1,,,,,
0,2023-10-02_14h14.50.276,slotMachine_updated,2023.1.3,MacIntel,35.71428571,,,,,,,,,,,,,,,,,,,,,,,,,,,,,,,,,,,,,,,,,,,,,,,,,,,1157.269,right,1.798,,1.5,0.3,"[2,3,1]",0.053374449,stimuli/card_0_transparent.png,200,0,6,0,6,0,1,,,,,
0,2023-10-02_14h14.50.276,slotMachine_updated,2023.1.3,MacIntel,35.71428571,,,,,,,,,,,,,,,,,,,,,,,,,,,,,,,,,,,,,,,,,,,,,,,,,,,1160.886,right,0.563,,1.5,0.3,"[1,2,3]",0.077882727,stimuli/card_100_transparent.png,300,100,7,0,7,0,1,,,,,
0,2023-10-02_14h14.50.276,slotMachine_updated,2023.1.3,MacIntel,35.71428571,,,,,,,,,,,,,,,,,,,,,,,,,,,,,,,,,,,,,,,,,,,,,,,,,,,1163.269,right,0.37,,1.5,0.3,"[1,2,3]",0.30283931,stimuli/card_0_transparent.png,300,0,8,0,8,0,1,,,,,
0,2023-10-02_14h14.50.276,slotMachine_updated,2023.1.3,MacIntel,35.71428571,,,,,,,,,,,,,,,,,,,,,,,,,,,,,,,,,,,,,,,,,,,,,,,,,,,1165.469,right,0.998,,1.5,0.3,"[1,2,3]",0.915319313,stimuli/card_0_transparent.png,300,0,9,0,9,0,1,,,,,
0,2023-10-02_14h14.50.276,slotMachine_updated,2023.1.3,MacIntel,35.71428571,,,,,,,,,,,,,,,,,,,,,,,,,,,,,,,,,,,,,,,,,,,,,,,,,,,1168.286,right,0.058,,0.5,0.3,"[1,2,3]",0.406598666,stimuli/card_0_transparent.png,300,0,10,0,10,0,1,,,,,
0,2023-10-02_14h14.50.276,slotMachine_updated,2023.1.3,MacIntel,35.71428571,,,,,,,,,,,,,,,,,,,,,,,,,,,,,,,,,,,,,,,,,,,,,,,,,,,1169.169,right,0.361,,1,0.3,"[1,2,3]",0.940972174,stimuli/card_0_transparent.png,300,0,11,0,11,0,1,,,,,
0,2023-10-02_14h14.50.276,slotMachine_updated,2023.1.3,MacIntel,35.71428571,,,,,,,,,,,,,,,,,,,,,,,,,,,,,,,,,,,,,,,,,,,,,,,,,,,1170.852,left,1.281,,1,0.3,"[1,2,3]",0.947116409,stimuli/card_100_transparent.png,400,100,12,0,12,0,1,,,,,
0,2023-10-02_14h14.50.276,slotMachine_updated,2023.1.3,MacIntel,35.71428571,,,,,,,,,,,,,,,,,,,,,,,,,,,,,,,,,,,,,,,,,,,,,,,,,,,1173.452,left,0.808,,1,0.3,"[1,2,3]",0.205870314,stimuli/card_100_transparent.png,500,100,13,0,13,0,1,,,,,
0,2023-10-02_14h14.50.276,slotMachine_updated,2023.1.3,MacIntel,35.71428571,,,,,,,,,,,,,,,,,,,,,,,,,,,,,,,,,,,,,,,,,,,,,,,,,,,1175.585,up,1.862,,1,0.3,"[1,2,3]",0.556865301,stimuli/card_10_transparent.png,510,10,14,0,14,0,1,,,,,
0,2023-10-02_14h14.50.276,slotMachine_updated,2023.1.3,MacIntel,35.71428571,,,,,,,,,,,,,,,,,,,,,,,,,,,,,,1178.769,,,,,,,,,,,,,,,,,,,,,,,,,,,,,,,,,,,,,3,0,3,0,1
0,2023-10-02_14h14.50.276,slotMachine_updated,2023.1.3,MacIntel,35.71428571,,,,,,,,,,,,,,,,,,,,,,,,,,,,,,,,,,,,,,,,,,,,,,,,,"[4,10,15]","[[2,3,1],[1,3,2],[3,2,1]]",1183.771,up,0.617,,1.5,0.3,"[2,3,1]",0.698294908,stimuli/card_0_transparent.png,0,0,0,0,0,0,1,,,,,
0,2023-10-02_14h14.50.276,slotMachine_updated,2023.1.3,MacIntel,35.71428571,,,,,,,,,,,,,,,,,,,,,,,,,,,,,,,,,,,,,,,,,,,,,,,,,,,1186.202,up,0.69,,1.5,0.3,"[2,3,1]",0.209991455,stimuli/card_0_transparent.png,0,0,1,0,1,0,1,,,,,
0,2023-10-02_14h14.50.276,slotMachine_updated,2023.1.3,MacIntel,35.71428571,,,,,,,,,,,,,,,,,,,,,,,,,,,,,,,,,,,,,,,,,,,,,,,,,,,1188.718,right,1.578,,1,0.3,"[2,3,1]",0.455113168,stimuli/card_100_transparent.png,100,100,2,0,2,0,1,,,,,
0,2023-10-02_14h14.50.276,slotMachine_updated,2023.1.3,MacIntel,35.71428571,,,,,,,,,,,,,,,,,,,,,,,,,,,,,,,,,,,,,,,,,,,,,,,,,,,1191.619,right,1.359,,1.5,0.3,"[2,3,1]",0.064641009,stimuli/card_0_transparent.png,100,0,3,0,3,0,1,,,,,
0,2023-10-02_14h14.50.276,slotMachine_updated,2023.1.3,MacIntel,35.71428571,,,,,,,,,,,,,,,,,,,,,,,,,,,,,,,,,,,,,,,,,,,,,,,,,,,1194.816,right,0.997,,0.5,0.3,"[1,3,2]",0.504610413,stimuli/card_10_transparent.png,110,10,4,0,4,0,1,,,,,
0,2023-10-02_14h14.50.276,slotMachine_updated,2023.1.3,MacIntel,35.71428571,,,,,,,,,,,,,,,,,,,,,,,,,,,,,,,,,,,,,,,,,,,,,,,,,,,1196.635,right,0.587,,1,0.3,"[1,3,2]",0.806744227,stimuli/card_10_transparent.png,120,10,5,0,5,0,1,,,,,
0,2023-10-02_14h14.50.276,slotMachine_updated,2023.1.3,MacIntel,35.71428571,,,,,,,,,,,,,,,,,,,,,,,,,,,,,,,,,,,,,,,,,,,,,,,,,,,1198.539,right,0.162,,1,0.3,"[1,3,2]",0.804152175,stimuli/card_10_transparent.png,130,10,6,0,6,0,1,,,,,
0,2023-10-02_14h14.50.276,slotMachine_updated,2023.1.3,MacIntel,35.71428571,,,,,,,,,,,,,,,,,,,,,,,,,,,,,,,,,,,,,,,,,,,,,,,,,,,1200.035,left,0.947,,1.5,0.3,"[1,3,2]",0.497745759,stimuli/card_100_transparent.png,230,100,7,0,7,0,1,,,,,
0,2023-10-02_14h14.50.276,slotMachine_updated,2023.1.3,MacIntel,35.71428571,,,,,,,,,,,,,,,,,,,,,,,,,,,,,,,,,,,,,,,,,,,,,,,,,,,1202.801,up,0.97,,1.5,0.3,"[1,3,2]",0.192813866,stimuli/card_10_transparent.png,240,10,8,0,8,0,1,,,,,
0,2023-10-02_14h14.50.276,slotMachine_updated,2023.1.3,MacIntel,35.71428571,,,,,,,,,,,,,,,,,,,,,,,,,,,,,,,,,,,,,,,,,,,,,,,,,,,1205.602,up,0.542,,0.5,0.3,"[1,3,2]",0.063514763,stimuli/card_100_transparent.png,340,100,9,0,9,0,1,,,,,
0,2023-10-02_14h14.50.276,slotMachine_updated,2023.1.3,MacIntel,35.71428571,,,,,,,,,,,,,,,,,,,,,,,,,,,,,,,,,,,,,,,,,,,,,,,,,,,1206.968,up,0.512,,1.5,0.3,"[3,2,1]",0.766983053,stimuli/card_10_transparent.png,350,10,10,0,10,0,1,,,,,
0,2023-10-02_14h14.50.276,slotMachine_updated,2023.1.3,MacIntel,35.71428571,,,,,,,,,,,,,,,,,,,,,,,,,,,,,,,,,,,,,,,,,,,,,,,,,,,1209.302,,,,0.5,0.3,,,,,,11,0,11,0,1,,,,,
0,2023-10-02_14h14.50.276,slotMachine_updated,2023.1.3,MacIntel,35.71428571,,,,,,,,,,,,,,,,,,,,,,,,,,,,,,,,,,,,,,,,,,,,,,,,,,,1214.83,up,0.29,,0.5,0.3,"[3,2,1]",0.65758374,stimuli/card_10_transparent.png,360,10,12,0,12,0,1,,,,,
0,2023-10-02_14h14.50.276,slotMachine_updated,2023.1.3,MacIntel,35.71428571,,,,,,,,,,,,,,,,,,,,,,,,,,,,,,,,,,,,,,,,,,,,,,,,,,,1215.935,up,4.918,,0.5,0.3,"[3,2,1]",0.032882366,stimuli/card_0_transparent.png,360,0,13,0,13,0,1,,,,,
0,2023-10-02_14h14.50.276,slotMachine_updated,2023.1.3,MacIntel,35.71428571,,,,,,,,,,,,,,,,,,,,,,,,,,,,,,,,,,,,,,,,,,,,,,,,,,,1221.685,up,0.697,,0.5,0.3,"[3,2,1]",0.494356359,stimuli/card_10_transparent.png,370,10,14,0,14,0,1,,,,,
0,2023-10-02_14h14.50.276,slotMachine_updated,2023.1.3,MacIntel,35.71428571,,,,,,,,,,,,,,,,,,,,,,,,,,,,,,1223.202,,,,,,,,,,,,,,,,,,,,,,,,,,,,,,,,,,,,,4,0,4,0,1
0,2023-10-02_14h14.50.276,slotMachine_updated,2023.1.3,MacIntel,35.71428571,,,,,,,,,,,,,,,,,,,,,,,,,,,,,,,,,,,,,,,,,,,,,,,,,"[11,15]","[[2,1,3],[1,2,3]]",1228.206,up,4.656,,1,0.3,"[2,1,3]",0.194738387,stimuli/card_10_transparent.png,10,10,0,0,0,0,1,,,,,
0,2023-10-02_14h14.50.276,slotMachine_updated,2023.1.3,MacIntel,35.71428571,,,,,,,,,,,,,,,,,,,,,,,,,,,,,,,,,,,,,,,,,,,,,,,,,,,1234.185,right,1.449,,1,0.3,"[2,1,3]",0.262925558,stimuli/card_0_transparent.png,10,0,1,0,1,0,1,,,,,
0,2023-10-02_14h14.50.276,slotMachine_updated,2023.1.3,MacIntel,35.71428571,,,,,,,,,,,,,,,,,,,,,,,,,,,,,,,,,,,,,,,,,,,,,,,,,,,1236.968,right,2.542,,1,0.3,"[2,1,3]",0.469755847,stimuli/card_0_transparent.png,10,0,2,0,2,0,1,,,,,
0,2023-10-02_14h14.50.276,slotMachine_updated,2023.1.3,MacIntel,35.71428571,,,,,,,,,,,,,,,,,,,,,,,,,,,,,,,,,,,,,,,,,,,,,,,,,,,1240.834,right,1.095,,1,0.3,"[2,1,3]",0.183456813,stimuli/card_10_transparent.png,20,10,3,0,3,0,1,,,,,
0,2023-10-02_14h14.50.276,slotMachine_updated,2023.1.3,MacIntel,35.71428571,,,,,,,,,,,,,,,,,,,,,,,,,,,,,,,,,,,,,,,,,,,,,,,,,,,1243.251,right,0.323,,1.5,0.3,"[2,1,3]",0.389186678,stimuli/card_0_transparent.png,20,0,4,0,4,0,1,,,,,
0,2023-10-02_14h14.50.276,slotMachine_updated,2023.1.3,MacIntel,35.71428571,,,,,,,,,,,,,,,,,,,,,,,,,,,,,,,,,,,,,,,,,,,,,,,,,,,1245.402,right,1.349,,1,0.3,"[2,1,3]",0.488058303,stimuli/card_0_transparent.png,20,0,5,0,5,0,1,,,,,
0,2023-10-02_14h14.50.276,slotMachine_updated,2023.1.3,MacIntel,35.71428571,,,,,,,,,,,,,,,,,,,,,,,,,,,,,,,,,,,,,,,,,,,,,,,,,,,1248.068,left,0.666,,1,0.3,"[2,1,3]",0.418041414,stimuli/card_10_transparent.png,30,10,6,0,6,0,1,,,,,
0,2023-10-02_14h14.50.276,slotMachine_updated,2023.1.3,MacIntel,35.71428571,,,,,,,,,,,,,,,,,,,,,,,,,,,,,,,,,,,,,,,,,,,,,,,,,,,1250.052,up,0.839,,1,0.3,"[2,1,3]",0.265445219,stimuli/card_100_transparent.png,130,100,7,0,7,0,1,,,,,
0,2023-10-02_14h14.50.276,slotMachine_updated,2023.1.3,MacIntel,35.71428571,,,,,,,,,,,,,,,,,,,,,,,,,,,,,,,,,,,,,,,,,,,,,,,,,,,1252.218,up,0.767,,0.5,0.3,"[2,1,3]",0.139111576,stimuli/card_10_transparent.png,140,10,8,0,8,0,1,,,,,
0,2023-10-02_14h14.50.276,slotMachine_updated,2023.1.3,MacIntel,35.71428571,,,,,,,,,,,,,,,,,,,,,,,,,,,,,,,,,,,,,,,,,,,,,,,,,,,1253.818,up,0.473,,0.5,0.3,"[2,1,3]",0.810599653,stimuli/card_100_transparent.png,240,100,9,0,9,0,1,,,,,
0,2023-10-02_14h14.50.276,slotMachine_updated,2023.1.3,MacIntel,35.71428571,,,,,,,,,,,,,,,,,,,,,,,,,,,,,,,,,,,,,,,,,,,,,,,,,,,1255.118,up,0.484,,0.5,0.3,"[2,1,3]",0.286376931,stimuli/card_100_transparent.png,340,100,10,0,10,0,1,,,,,
0,2023-10-02_14h14.50.276,slotMachine_updated,2023.1.3,MacIntel,35.71428571,,,,,,,,,,,,,,,,,,,,,,,,,,,,,,,,,,,,,,,,,,,,,,,,,,,1256.434,up,0.462,,1.5,0.3,"[1,2,3]",0.00436907,stimuli/card_0_transparent.png,340,0,11,0,11,0,1,,,,,
0,2023-10-02_14h14.50.276,slotMachine_updated,2023.1.3,MacIntel,35.71428571,,,,,,,,,,,,,,,,,,,,,,,,,,,,,,,,,,,,,,,,,,,,,,,,,,,1258.717,up,0.746,,1.5,0.3,"[1,2,3]",0.600104523,stimuli/card_10_transparent.png,350,10,12,0,12,0,1,,,,,
0,2023-10-02_14h14.50.276,slotMachine_updated,2023.1.3,MacIntel,35.71428571,,,,,,,,,,,,,,,,,,,,,,,,,,,,,,,,,,,,,,,,,,,,,,,,,,,1261.284,right,0.402,,1,0.3,"[1,2,3]",0.931549233,stimuli/card_0_transparent.png,350,0,13,0,13,0,1,,,,,
0,2023-10-02_14h14.50.276,slotMachine_updated,2023.1.3,MacIntel,35.71428571,,,,,,,,,,,,,,,,,,,,,,,,,,,,,,,,,,,,,,,,,,,,,,,,,,,1263.005,left,0.44,,1,0.3,"[1,2,3]",0.645564035,stimuli/card_100_transparent.png,450,100,14,0,14,0,1,,,,,
0,2023-10-02_14h14.50.276,slotMachine_updated,2023.1.3,MacIntel,35.71428571,,,,,,,,,,,,,,,,,,,,,,,,,,,,,,1264.767,,,,,,,,,,,,,,,,,,,,,,,,,,,,,,,,,,,,,5,0,5,0,1
0,2023-10-02_14h14.50.276,slotMachine_updated,2023.1.3,MacIntel,35.71428571,,,,,,,,,,,,,,,,,,,,,,,,,,,,,,,,,,,,,,,,,,,,,,,,,"[8,15]","[[3,2,1],[3,1,2]]",1269.77,up,0.51,,1,0.3,"[3,2,1]",0.273056079,stimuli/card_10_transparent.png,10,10,0,0,0,0,1,,,,,
0,2023-10-02_14h14.50.276,slotMachine_updated,2023.1.3,MacIntel,35.71428571,,,,,,,,,,,,,,,,,,,,,,,,,,,,,,,,,,,,,,,,,,,,,,,,,,,1271.618,up,0.551,,1.5,0.3,"[3,2,1]",0.31628655,stimuli/card_10_transparent.png,20,10,1,0,1,0,1,,,,,
0,2023-10-02_14h14.50.276,slotMachine_updated,2023.1.3,MacIntel,35.71428571,,,,,,,,,,,,,,,,,,,,,,,,,,,,,,,,,,,,,,,,,,,,,,,,,,,1274.002,right,0.212,,1,0.3,"[3,2,1]",0.427131901,stimuli/card_100_transparent.png,120,100,2,0,2,0,1,,,,,
0,2023-10-02_14h14.50.276,slotMachine_updated,2023.1.3,MacIntel,35.71428571,,,,,,,,,,,,,,,,,,,,,,,,,,,,,,,,,,,,,,,,,,,,,,,,,,,1275.535,left,0.558,,1.5,0.3,"[3,2,1]",0.555317111,stimuli/card_0_transparent.png,120,0,3,0,3,0,1,,,,,
0,2023-10-02_14h14.50.276,slotMachine_updated,2023.1.3,MacIntel,35.71428571,,,,,,,,,,,,,,,,,,,,,,,,,,,,,,,,,,,,,,,,,,,,,,,,,,,1277.917,right,0.447,,1.5,0.3,"[3,2,1]",0.833759764,stimuli/card_100_transparent.png,220,100,4,0,4,0,1,,,,,
0,2023-10-02_14h14.50.276,slotMachine_updated,2023.1.3,MacIntel,35.71428571,,,,,,,,,,,,,,,,,,,,,,,,,,,,,,,,,,,,,,,,,,,,,,,,,,,1280.184,left,0.192,,0.5,0.3,"[3,2,1]",0.689413433,stimuli/card_0_transparent.png,220,0,5,0,5,0,1,,,,,
0,2023-10-02_14h14.50.276,slotMachine_updated,2023.1.3,MacIntel,35.71428571,,,,,,,,,,,,,,,,,,,,,,,,,,,,,,,,,,,,,,,,,,,,,,,,,,,1281.2,left,0.39,,1.5,0.3,"[3,2,1]",0.24553574,stimuli/card_0_transparent.png,220,0,6,0,6,0,1,,,,,
0,2023-10-02_14h14.50.276,slotMachine_updated,2023.1.3,MacIntel,35.71428571,,,,,,,,,,,,,,,,,,,,,,,,,,,,,,,,,,,,,,,,,,,,,,,,,,,1283.417,right,0.624,,1.5,0.3,"[3,2,1]",0.104983158,stimuli/card_10_transparent.png,230,10,7,0,7,0,1,,,,,
0,2023-10-02_14h14.50.276,slotMachine_updated,2023.1.3,MacIntel,35.71428571,,,,,,,,,,,,,,,,,,,,,,,,,,,,,,,,,,,,,,,,,,,,,,,,,,,1285.868,up,0.526,,0.5,0.3,"[3,1,2]",0.551104582,stimuli/card_100_transparent.png,330,100,8,0,8,0,1,,,,,
0,2023-10-02_14h14.50.276,slotMachine_updated,2023.1.3,MacIntel,35.71428571,,,,,,,,,,,,,,,,,,,,,,,,,,,,,,,,,,,,,,,,,,,,,,,,,,,1287.217,left,0.604,,0.5,0.3,"[3,1,2]",0.828080309,stimuli/card_0_transparent.png,330,0,9,0,9,0,1,,,,,
0,2023-10-02_14h14.50.276,slotMachine_updated,2023.1.3,MacIntel,35.71428571,,,,,,,,,,,,,,,,,,,,,,,,,,,,,,,,,,,,,,,,,,,,,,,,,,,1288.651,right,0.814,,1,0.3,"[3,1,2]",0.408938399,stimuli/card_10_transparent.png,340,10,10,0,10,0,1,,,,,
0,2023-10-02_14h14.50.276,slotMachine_updated,2023.1.3,MacIntel,35.71428571,,,,,,,,,,,,,,,,,,,,,,,,,,,,,,,,,,,,,,,,,,,,,,,,,,,1290.784,up,0.779,,1.5,0.3,"[3,1,2]",0.302271653,stimuli/card_100_transparent.png,440,100,11,0,11,0,1,,,,,
0,2023-10-02_14h14.50.276,slotMachine_updated,2023.1.3,MacIntel,35.71428571,,,,,,,,,,,,,,,,,,,,,,,,,,,,,,,,,,,,,,,,,,,,,,,,,,,1293.401,up,0.618,,1,0.3,"[3,1,2]",0.546890093,stimuli/card_100_transparent.png,540,100,12,0,12,0,1,,,,,
0,2023-10-02_14h14.50.276,slotMachine_updated,2023.1.3,MacIntel,35.71428571,,,,,,,,,,,,,,,,,,,,,,,,,,,,,,,,,,,,,,,,,,,,,,,,,,,1295.334,left,0.53,,1,0.3,"[3,1,2]",0.08630193,stimuli/card_100_transparent.png,640,100,13,0,13,0,1,,,,,
0,2023-10-02_14h14.50.276,slotMachine_updated,2023.1.3,MacIntel,35.71428571,,,,,,,,,,,,,,,,,,,,,,,,,,,,,,,,,,,,,,,,,,,,,,,,,,,1297.2,right,0.365,,1,0.3,"[3,1,2]",0.241619936,stimuli/card_10_transparent.png,650,10,14,0,14,0,1,,,,,
0,2023-10-02_14h14.50.276,slotMachine_updated,2023.1.3,MacIntel,35.71428571,,,,,,,,,,,,,,,,,,,,,,,,,,,,,,1298.901,,,,,,,,,,,,,,,,,,,,,,,,,,,,,,,,,,,,,6,0,6,0,1
0,2023-10-02_14h14.50.276,slotMachine_updated,2023.1.3,MacIntel,35.71428571,,,,,,,,,,,,,,,,,,,,,,,,,,,,,,,,,,,,,,,,,,,,,,,,,"[6,15]","[[1,3,2],[3,2,1]]",1303.906,up,0.498,,1.5,0.3,"[1,3,2]",0.391342434,stimuli/card_0_transparent.png,0,0,0,0,0,0,1,,,,,
0,2023-10-02_14h14.50.276,slotMachine_updated,2023.1.3,MacIntel,35.71428571,,,,,,,,,,,,,,,,,,,,,,,,,,,,,,,,,,,,,,,,,,,,,,,,,,,1306.237,,,,0.5,0.3,,,,,,1,0,1,0,1,,,,,
0,2023-10-02_14h14.50.276,slotMachine_updated,2023.1.3,MacIntel,35.71428571,,,,,,,,,,,,,,,,,,,,,,,,,,,,,,,,,,,,,,,,,,,,,,,,,,,1311.753,up,4.178,,0.5,0.3,"[1,3,2]",0.884753875,stimuli/card_0_transparent.png,0,0,2,0,2,0,1,,,,,
0,2023-10-02_14h14.50.276,slotMachine_updated,2023.1.3,MacIntel,35.71428571,,,,,,,,,,,,,,,,,,,,,,,,,,,,,,,,,,,,,,,,,,,,,,,,,,,1316.75,,,,1.5,0.3,,,,,,3,0,3,0,1,,,,,
0,2023-10-02_14h14.50.276,slotMachine_updated,2023.1.3,MacIntel,35.71428571,,,,,,,,,,,,,,,,,,,,,,,,,,,,,,,,,,,,,,,,,,,,,,,,,,,1322.27,right,0.41,,1.5,0.3,"[1,3,2]",0.506076346,stimuli/card_10_transparent.png,10,10,4,0,4,0,1,,,,,
0,2023-10-02_14h14.50.276,slotMachine_updated,2023.1.3,MacIntel,35.71428571,,,,,,,,,,,,,,,,,,,,,,,,,,,,,,,,,,,,,,,,,,,,,,,,,,,1324.489,,,,0.5,0.3,,,,,,5,0,5,0,1,,,,,
0,2023-10-02_14h14.50.276,slotMachine_updated,2023.1.3,MacIntel,35.71428571,,,,,,,,,,,,,,,,,,,,,,,,,,,,,,,,,,,,,,,,,,,,,,,,,,,1330.011,left,0.81,,1,0.3,"[3,2,1]",0.951371241,stimuli/card_0_transparent.png,10,0,6,0,6,0,1,,,,,
0,2023-10-02_14h14.50.276,slotMachine_updated,2023.1.3,MacIntel,35.71428571,,,,,,,,,,,,,,,,,,,,,,,,,,,,,,,,,,,,,,,,,,,,,,,,,,,1332.149,up,0.877,,1.5,0.3,"[3,2,1]",0.309843757,stimuli/card_10_transparent.png,20,10,7,0,7,0,1,,,,,
0,2023-10-02_14h14.50.276,slotMachine_updated,2023.1.3,MacIntel,35.71428571,,,,,,,,,,,,,,,,,,,,,,,,,,,,,,,,,,,,,,,,,,,,,,,,,,,1334.851,right,0.222,,1,0.3,"[3,2,1]",0.935257751,stimuli/card_100_transparent.png,120,100,8,0,8,0,1,,,,,
0,2023-10-02_14h14.50.276,slotMachine_updated,2023.1.3,MacIntel,35.71428571,,,,,,,,,,,,,,,,,,,,,,,,,,,,,,,,,,,,,,,,,,,,,,,,,,,1336.4,left,0.137,,1.5,0.3,"[3,2,1]",0.032864475,stimuli/card_100_transparent.png,220,100,9,0,9,0,1,,,,,
0,2023-10-02_14h14.50.276,slotMachine_updated,2023.1.3,MacIntel,35.71428571,,,,,,,,,,,,,,,,,,,,,,,,,,,,,,,,,,,,,,,,,,,,,,,,,,,1338.367,up,0.305,,1,0.3,"[3,2,1]",0.567710547,stimuli/card_10_transparent.png,230,10,10,0,10,0,1,,,,,
0,2023-10-02_14h14.50.276,slotMachine_updated,2023.1.3,MacIntel,35.71428571,,,,,,,,,,,,,,,,,,,,,,,,,,,,,,,,,,,,,,,,,,,,,,,,,,,1339.999,right,0.026,,1,0.3,"[3,2,1]",0.739723524,stimuli/card_100_transparent.png,330,100,11,0,11,0,1,,,,,
0,2023-10-02_14h14.50.276,slotMachine_updated,2023.1.3,MacIntel,35.71428571,,,,,,,,,,,,,,,,,,,,,,,,,,,,,,,,,,,,,,,,,,,,,,,,,,,1341.349,left,0.508,,1.5,0.3,"[3,2,1]",0.333363393,stimuli/card_0_transparent.png,330,0,12,0,12,0,1,,,,,
0,2023-10-02_14h14.50.276,slotMachine_updated,2023.1.3,MacIntel,35.71428571,,,,,,,,,,,,,,,,,,,,,,,,,,,,,,,,,,,,,,,,,,,,,,,,,,,1343.683,up,0.88,,1,0.3,"[3,2,1]",0.779470259,stimuli/card_10_transparent.png,340,10,13,0,13,0,1,,,,,
0,2023-10-02_14h14.50.276,slotMachine_updated,2023.1.3,MacIntel,35.71428571,,,,,,,,,,,,,,,,,,,,,,,,,,,,,,,,,,,,,,,,,,,,,,,,,,,1345.882,up,0.309,,0.5,0.3,"[3,2,1]",0.93007933,stimuli/card_10_transparent.png,350,10,14,0,14,0,1,,,,,
0,2023-10-02_14h14.50.276,slotMachine_updated,2023.1.3,MacIntel,35.71428571,,,,,,,,,,,,,,,,,,,,,,,,,,,,,,1347.016,,,,,,,,,,,,,,,,,,,,,,,,,,,,,,,,,,,,,7,0,7,0,1
0,2023-10-02_14h14.50.276,slotMachine_updated,2023.1.3,MacIntel,35.71428571,,,,,,,,,,,,,,,,,,,,,,,,,,,,,,,,,,,,,,,,,,,,,,,,,"[10,15]","[[3,1,2],[1,3,2]]",1352.018,right,0.413,,1.5,0.3,"[3,1,2]",0.951367138,stimuli/card_10_transparent.png,10,10,0,0,0,0,1,,,,,
0,2023-10-02_14h14.50.276,slotMachine_updated,2023.1.3,MacIntel,35.71428571,,,,,,,,,,,,,,,,,,,,,,,,,,,,,,,,,,,,,,,,,,,,,,,,,,,1354.266,up,0.028,,1,0.3,"[3,1,2]",0.410341237,stimuli/card_100_transparent.png,110,100,1,0,1,0,1,,,,,
0,2023-10-02_14h14.50.276,slotMachine_updated,2023.1.3,MacIntel,35.71428571,,,,,,,,,,,,,,,,,,,,,,,,,,,,,,,,,,,,,,,,,,,,,,,,,,,1355.616,left,0.533,,1.5,0.3,"[3,1,2]",0.507102605,stimuli/card_0_transparent.png,110,0,2,0,2,0,1,,,,,
0,2023-10-02_14h14.50.276,slotMachine_updated,2023.1.3,MacIntel,35.71428571,,,,,,,,,,,,,,,,,,,,,,,,,,,,,,,,,,,,,,,,,,,,,,,,,,,1357.983,up,0.077,,0.5,0.3,"[3,1,2]",0.402535757,stimuli/card_100_transparent.png,210,100,3,0,3,0,1,,,,,
0,2023-10-02_14h14.50.276,slotMachine_updated,2023.1.3,MacIntel,35.71428571,,,,,,,,,,,,,,,,,,,,,,,,,,,,,,,,,,,,,,,,,,,,,,,,,,,1358.872,right,2.958,,1,0.3,"[3,1,2]",0.997731204,stimuli/card_10_transparent.png,220,10,4,0,4,0,1,,,,,
0,2023-10-02_14h14.50.276,slotMachine_updated,2023.1.3,MacIntel,35.71428571,,,,,,,,,,,,,,,,,,,,,,,,,,,,,,,,,,,,,,,,,,,,,,,,,,,1363.167,up,1.34,,1.5,0.3,"[3,1,2]",0.40095269,stimuli/card_100_transparent.png,320,100,5,0,5,0,1,,,,,
0,2023-10-02_14h14.50.276,slotMachine_updated,2023.1.3,MacIntel,35.71428571,,,,,,,,,,,,,,,,,,,,,,,,,,,,,,,,,,,,,,,,,,,,,,,,,,,1366.332,up,0.693,,1.5,0.3,"[3,1,2]",0.643123474,stimuli/card_100_transparent.png,420,100,6,0,6,0,1,,,,,
0,2023-10-02_14h14.50.276,slotMachine_updated,2023.1.3,MacIntel,35.71428571,,,,,,,,,,,,,,,,,,,,,,,,,,,,,,,,,,,,,,,,,,,,,,,,,,,1368.85,right,3.412,,1.5,0.3,"[3,1,2]",0.884193426,stimuli/card_10_transparent.png,430,10,7,0,7,0,1,,,,,
0,2023-10-02_14h14.50.276,slotMachine_updated,2023.1.3,MacIntel,35.71428571,,,,,,,,,,,,,,,,,,,,,,,,,,,,,,,,,,,,,,,,,,,,,,,,,,,1374.083,up,2.372,,1.5,0.3,"[3,1,2]",0.789015279,stimuli/card_100_transparent.png,530,100,8,0,8,0,1,,,,,
0,2023-10-02_14h14.50.276,slotMachine_updated,2023.1.3,MacIntel,35.71428571,,,,,,,,,,,,,,,,,,,,,,,,,,,,,,,,,,,,,,,,,,,,,,,,,,,1378.282,up,0.311,,1.5,0.3,"[3,1,2]",0.654653224,stimuli/card_100_transparent.png,630,100,9,0,9,0,1,,,,,
0,2023-10-02_14h14.50.276,slotMachine_updated,2023.1.3,MacIntel,35.71428571,,,,,,,,,,,,,,,,,,,,,,,,,,,,,,,,,,,,,,,,,,,,,,,,,,,1380.417,up,0.143,,1,0.3,"[1,3,2]",0.240233588,stimuli/card_0_transparent.png,630,0,10,0,10,0,1,,,,,
0,2023-10-02_14h14.50.276,slotMachine_updated,2023.1.3,MacIntel,35.71428571,,,,,,,,,,,,,,,,,,,,,,,,,,,,,,,,,,,,,,,,,,,,,,,,,,,1381.882,right,3.063,,1.5,0.3,"[1,3,2]",0.368393193,stimuli/card_10_transparent.png,640,10,11,0,11,0,1,,,,,
0,2023-10-02_14h14.50.276,slotMachine_updated,2023.1.3,MacIntel,35.71428571,,,,,,,,,,,,,,,,,,,,,,,,,,,,,,,,,,,,,,,,,,,,,,,,,,,1386.766,up,0.434,,1.5,0.3,"[1,3,2]",0.171396982,stimuli/card_10_transparent.png,650,10,12,0,12,0,1,,,,,
0,2023-10-02_14h14.50.276,slotMachine_updated,2023.1.3,MacIntel,35.71428571,,,,,,,,,,,,,,,,,,,,,,,,,,,,,,,,,,,,,,,,,,,,,,,,,,,1389.033,,,,1,0.3,,,,,,13,0,13,0,1,,,,,
0,2023-10-02_14h14.50.276,slotMachine_updated,2023.1.3,MacIntel,35.71428571,,,,,,,,,,,,,,,,,,,,,,,,,,,,,,,,,,,,,,,,,,,,,,,,,,,1394.558,up,0.277,,1,0.3,"[1,3,2]",0.028467436,stimuli/card_100_transparent.png,750,100,14,0,14,0,1,,,,,
0,2023-10-02_14h14.50.276,slotMachine_updated,2023.1.3,MacIntel,35.71428571,,,,,,,,,,,,,,,,,,,,,,,,,,,,,,1396.149,,,,,,,,,,,,,,,,,,,,,,,,,,,,,,,,,,,,,8,0,8,0,1
0,2023-10-02_14h14.50.276,slotMachine_updated,2023.1.3,MacIntel,35.71428571,,,,,,,,,,,,,,,,,,,,,,,,,,,,,,,,,,,,,,,,,,,,,,,,,"[15,15]","[[3,1,2],[3,1,2]]",1401.151,up,0.483,,0.5,0.3,"[3,1,2]",0.505647028,stimuli/card_100_transparent.png,100,100,0,0,0,0,1,,,,,
0,2023-10-02_14h14.50.276,slotMachine_updated,2023.1.3,MacIntel,35.71428571,,,,,,,,,,,,,,,,,,,,,,,,,,,,,,,,,,,,,,,,,,,,,,,,,,,1402.466,up,2.896,,0.5,0.3,"[3,1,2]",0.572347022,stimuli/card_100_transparent.png,200,100,1,0,1,0,1,,,,,
0,2023-10-02_14h14.50.276,slotMachine_updated,2023.1.3,MacIntel,35.71428571,,,,,,,,,,,,,,,,,,,,,,,,,,,,,,,,,,,,,,,,,,,,,,,,,,,1406.183,,,,1.5,0.3,,,,,,2,0,2,0,1,,,,,
0,2023-10-02_14h14.50.276,slotMachine_updated,2023.1.3,MacIntel,35.71428571,,,,,,,,,,,,,,,,,,,,,,,,,,,,,,,,,,,,,,,,,,,,,,,,,,,1411.709,up,4.746,,1.5,0.3,"[3,1,2]",0.120383599,stimuli/card_10_transparent.png,210,10,3,0,3,0,1,,,,,
0,2023-10-02_14h14.50.276,slotMachine_updated,2023.1.3,MacIntel,35.71428571,,,,,,,,,,,,,,,,,,,,,,,,,,,,,,,,,,,,,,,,,,,,,,,,,,,1418.265,up,3.96,,0.5,0.3,"[3,1,2]",0.784875532,stimuli/card_100_transparent.png,310,100,4,0,4,0,1,,,,,
0,2023-10-02_14h14.50.276,slotMachine_updated,2023.1.3,MacIntel,35.71428571,,,,,,,,,,,,,,,,,,,,,,,,,,,,,,,,,,,,,,,,,,,,,,,,,,,1423.049,up,2.942,,1.5,0.3,"[3,1,2]",0.731743651,stimuli/card_100_transparent.png,410,100,5,0,5,0,1,,,,,
0,2023-10-02_14h14.50.276,slotMachine_updated,2023.1.3,MacIntel,35.71428571,,,,,,,,,,,,,,,,,,,,,,,,,,,,,,,,,,,,,,,,,,,,,,,,,,,1427.815,up,1.412,,1.5,0.3,"[3,1,2]",0.898278895,stimuli/card_100_transparent.png,510,100,6,0,6,0,1,,,,,
0,2023-10-02_14h14.50.276,slotMachine_updated,2023.1.3,MacIntel,35.71428571,,,,,,,,,,,,,,,,,,,,,,,,,,,,,,,,,,,,,,,,,,,,,,,,,,,1431.049,up,2.328,,0.5,0.3,"[3,1,2]",0.529883067,stimuli/card_100_transparent.png,610,100,7,0,7,0,1,,,,,
0,2023-10-02_14h14.50.276,slotMachine_updated,2023.1.3,MacIntel,35.71428571,,,,,,,,,,,,,,,,,,,,,,,,,,,,,,,,,,,,,,,,,,,,,,,,,,,1434.198,right,2.447,,0.5,0.3,"[3,1,2]",0.125092014,stimuli/card_100_transparent.png,710,100,8,0,8,0,1,,,,,
0,2023-10-02_14h14.50.276,slotMachine_updated,2023.1.3,MacIntel,35.71428571,,,,,,,,,,,,,,,,,,,,,,,,,,,,,,,,,,,,,,,,,,,,,,,,,,,1437.465,right,1.379,,0.5,0.3,"[3,1,2]",0.811534433,stimuli/card_10_transparent.png,720,10,9,0,9,0,1,,,,,
0,2023-10-02_14h14.50.276,slotMachine_updated,2023.1.3,MacIntel,35.71428571,,,,,,,,,,,,,,,,,,,,,,,,,,,,,,,,,,,,,,,,,,,,,,,,,,,1439.665,up,0.755,,1.5,0.3,"[3,1,2]",0.945069874,stimuli/card_100_transparent.png,820,100,10,0,10,0,1,,,,,
0,2023-10-02_14h14.50.276,slotMachine_updated,2023.1.3,MacIntel,35.71428571,,,,,,,,,,,,,,,,,,,,,,,,,,,,,,,,,,,,,,,,,,,,,,,,,,,1442.248,up,4.708,,0.5,0.3,"[3,1,2]",0.955823038,stimuli/card_100_transparent.png,920,100,11,0,11,0,1,,,,,
0,2023-10-02_14h14.50.276,slotMachine_updated,2023.1.3,MacIntel,35.71428571,,,,,,,,,,,,,,,,,,,,,,,,,,,,,,,,,,,,,,,,,,,,,,,,,,,1447.782,up,2.159,,1,0.3,"[3,1,2]",0.706246569,stimuli/card_100_transparent.png,1020,100,12,0,12,0,1,,,,,
0,2023-10-02_14h14.50.276,slotMachine_updated,2023.1.3,MacIntel,35.71428571,,,,,,,,,,,,,,,,,,,,,,,,,,,,,,,,,,,,,,,,,,,,,,,,,,,1451.265,up,2.697,,1,0.3,"[3,1,2]",0.013012754,stimuli/card_0_transparent.png,1020,0,13,0,13,0,1,,,,,
0,2023-10-02_14h14.50.276,slotMachine_updated,2023.1.3,MacIntel,35.71428571,,,,,,,,,,,,,,,,,,,,,,,,,,,,,,,,,,,,,,,,,,,,,,,,,,,1455.281,,,,1,0.3,,,,,,14,0,14,0,1,,,,,
0,2023-10-02_14h14.50.276,slotMachine_updated,2023.1.3,MacIntel,35.71428571,,,,,,,,,,,,,,,,,,,,,,,,,,,,,,1460.803,,,,,,,,,,,,,,,,,,,,,,,,,,,,,,,,,,,,,9,0,9,0,1
0,2023-10-02_14h14.50.276,slotMachine_updated,2023.1.3,MacIntel,35.71428571,,,,,,,,,,,,,,,,,,,,,,,,,,,,,,,,,,,,,,,,,,,,,,,,,,,,,,,,,,,,,,,,,,,,,,,
