key_resp_welcome.started,key_resp_welcome.keys,key_resp_welcome.rt,key_resp_welcome.duration,participant,date,expName,psychopyVersion,OS,frameRate,key_resp_instruction1.started,key_resp_instruction1.keys,key_resp_instruction1.rt,key_resp_instruction1.duration,key_resp_instruction2.started,key_resp_instruction2.keys,key_resp_instruction2.rt,key_resp_instruction2.duration,key_resp_instruction3.started,key_resp_instruction3.keys,key_resp_instruction3.rt,key_resp_instruction3.duration,practiceCondition,practice_reward_seqs,key_resp_practice_slots.rt,key_resp_practice_slots.duration,key_resp_practice_slots.keys,presentationInterval,"practice_reward_seq: 2,1,3",reward_Img,Cuml_rew,currentPracticeTrialReward,practice_trials.thisRepN,practice_trials.thisTrialN,practice_trials.thisN,practice_trials.thisIndex,practice_trials.ran,"practice_reward_seq: 2,3,1",text_block_break.started,"practice_reward_seq: 1,3,2","practice_reward_seq: 3,1,2",key_resp_practice_end.started,key_resp_practice_end.keys,key_resp_practice_end.rt,key_resp_practice_end.duration,text_main_instruction.started,BlockCondition,BlockOrderIndices,key_resp_main_instruction.started,key_resp_main_instruction.keys,key_resp_main_instruction.rt,key_resp_main_instruction.duration,blockNumber,blockAssignment,currentCondition,main_reward_seqs,key_resp_slots_presentation.started,key_resp_slots_presentation.keys,key_resp_slots_presentation.rt,key_resp_slots_presentation.duration,Main_presentationInterval,rewardPresentationTime,Main_reward_seq,Random value generated,Main_reward_Img,Main_Cumul_Reward,Main_currentTrialReward,main_trials.thisRepN,main_trials.thisTrialN,main_trials.thisN,main_trials.thisIndex,main_trials.ran,block.thisRepN,block.thisTrialN,block.thisN,block.thisIndex,block.ran
0.0043,space,1.5368,,2,2023-10-27_13h11.35.047,SlotMachine_updated,2023.1.3,Win32,9.997700529,,,,,,,,,,,,,,,,,,,,,,,,,,,,,,,,,,,,,,,,,,,,,,,,,,,,,,,,,,,,,,,,,,,
,,,,2,2023-10-27_13h11.35.047,SlotMachine_updated,2023.1.3,Win32,9.997700529,,,,,,,,,,,,,,,,,,,,,,,,,,,,,,,,,,,,,,,,,,,,,,,,,,,,,,,,,,,,,,,,,,,
,,,,2,2023-10-27_13h11.35.047,SlotMachine_updated,2023.1.3,Win32,9.997700529,143.4972,space,170.256,,,,,,,,,,,,,,,,,,,,,,,,,,,,,,,,,,,,,,,,,,,,,,,,,,,,,,,,,,,,,,,,
,,,,2,2023-10-27_13h11.35.047,SlotMachine_updated,2023.1.3,Win32,9.997700529,,,,,313.9054,1,14.3211,0.0002,,,,,,,,,,,,,,,,,,,,,,,,,,,,,,,,,,,,,,,,,,,,,,,,,,,,,,,,,,,
,,,,2,2023-10-27_13h11.35.047,SlotMachine_updated,2023.1.3,Win32,9.997700529,,,,,,,,,328.3138,left,10.9564,,,,,,,,,,,,,,,,,,,,,,,,,,,,,,,,,,,,,,,,,,,,,,,,,,,,,,,,
,,,,2,2023-10-27_13h11.35.047,SlotMachine_updated,2023.1.3,Win32,9.997700529,,,,,,,,,,,,,"[9,15]","[[2,1,3],[2,3,1]]",1.5465,,left,1.5,,stimuli/card_10_transparent.png,10,10,0,0,0,0,1,,,,,,,,,,,,,,,,,,,,,,,,,,,,,,,,,,,,,,,,
,,,,2,2023-10-27_13h11.35.047,SlotMachine_updated,2023.1.3,Win32,9.997700529,,,,,,,,,,,,,,,1.5123,0.0001,up,0.5,,stimuli/card_0_transparent.png,10,0,1,0,1,0,1,,,,,,,,,,,,,,,,,,,,,,,,,,,,,,,,,,,,,,,,
,,,,2,2023-10-27_13h11.35.047,SlotMachine_updated,2023.1.3,Win32,9.997700529,,,,,,,,,,,,,,,0.566,,right,0.5,,stimuli/card_0_transparent.png,10,0,2,0,2,0,1,,,,,,,,,,,,,,,,,,,,,,,,,,,,,,,,,,,,,,,,
,,,,2,2023-10-27_13h11.35.047,SlotMachine_updated,2023.1.3,Win32,9.997700529,,,,,,,,,,,,,,,0.659,,right,1,,stimuli/card_10_transparent.png,20,10,3,0,3,0,1,,,,,,,,,,,,,,,,,,,,,,,,,,,,,,,,,,,,,,,,
,,,,2,2023-10-27_13h11.35.047,SlotMachine_updated,2023.1.3,Win32,9.997700529,,,,,,,,,,,,,,,0.584,,left,0.5,,stimuli/card_10_transparent.png,30,10,4,0,4,0,1,,,,,,,,,,,,,,,,,,,,,,,,,,,,,,,,,,,,,,,,
,,,,2,2023-10-27_13h11.35.047,SlotMachine_updated,2023.1.3,Win32,9.997700529,,,,,,,,,,,,,,,0.7951,,left,1,,stimuli/card_10_transparent.png,40,10,5,0,5,0,1,,,,,,,,,,,,,,,,,,,,,,,,,,,,,,,,,,,,,,,,
,,,,2,2023-10-27_13h11.35.047,SlotMachine_updated,2023.1.3,Win32,9.997700529,,,,,,,,,,,,,,,0.4658,,right,1.5,,stimuli/card_0_transparent.png,40,0,6,0,6,0,1,,,,,,,,,,,,,,,,,,,,,,,,,,,,,,,,,,,,,,,,
,,,,2,2023-10-27_13h11.35.047,SlotMachine_updated,2023.1.3,Win32,9.997700529,,,,,,,,,,,,,,,0.3854,,up,1,,stimuli/card_100_transparent.png,140,100,7,0,7,0,1,,,,,,,,,,,,,,,,,,,,,,,,,,,,,,,,,,,,,,,,
,,,,2,2023-10-27_13h11.35.047,SlotMachine_updated,2023.1.3,Win32,9.997700529,,,,,,,,,,,,,,,0.4212,,up,1.5,,stimuli/card_100_transparent.png,240,100,8,0,8,0,1,,,,,,,,,,,,,,,,,,,,,,,,,,,,,,,,,,,,,,,,
,,,,2,2023-10-27_13h11.35.047,SlotMachine_updated,2023.1.3,Win32,9.997700529,,,,,,,,,,,,,,,0.3617,,up,1,,stimuli/card_0_transparent.png,240,0,9,0,9,0,1,,,,,,,,,,,,,,,,,,,,,,,,,,,,,,,,,,,,,,,,
,,,,2,2023-10-27_13h11.35.047,SlotMachine_updated,2023.1.3,Win32,9.997700529,,,,,,,,,,,,,,,0.8065,,up,1.5,,stimuli/card_0_transparent.png,240,0,10,0,10,0,1,,,,,,,,,,,,,,,,,,,,,,,,,,,,,,,,,,,,,,,,
,,,,2,2023-10-27_13h11.35.047,SlotMachine_updated,2023.1.3,Win32,9.997700529,,,,,,,,,,,,,,,0.5205,,up,1,,stimuli/card_10_transparent.png,250,10,11,0,11,0,1,,,,,,,,,,,,,,,,,,,,,,,,,,,,,,,,,,,,,,,,
,,,,2,2023-10-27_13h11.35.047,SlotMachine_updated,2023.1.3,Win32,9.997700529,,,,,,,,,,,,,,,0.4214,,left,0.5,,stimuli/card_100_transparent.png,350,100,12,0,12,0,1,,,,,,,,,,,,,,,,,,,,,,,,,,,,,,,,,,,,,,,,
,,,,2,2023-10-27_13h11.35.047,SlotMachine_updated,2023.1.3,Win32,9.997700529,,,,,,,,,,,,,,,0.4173,,left,0.5,,stimuli/card_0_transparent.png,350,0,13,0,13,0,1,,,,,,,,,,,,,,,,,,,,,,,,,,,,,,,,,,,,,,,,
,,,,2,2023-10-27_13h11.35.047,SlotMachine_updated,2023.1.3,Win32,9.997700529,,,,,,,,,,,,,,,0.4135,,left,1,,stimuli/card_100_transparent.png,450,100,14,0,14,0,1,,,,,,,,,,,,,,,,,,,,,,,,,,,,,,,,,,,,,,,,
,,,,2,2023-10-27_13h11.35.047,SlotMachine_updated,2023.1.3,Win32,9.997700529,,,,,,,,,,,,,"[6,15]","[[1,3,2],[3,1,2]]",[],,[],1.5,,,,,0,0,0,0,1,,368.8175,,,,,,,,,,,,,,,,,,,,,,,,,,,,,,,,,,,,,,
,,,,2,2023-10-27_13h11.35.047,SlotMachine_updated,2023.1.3,Win32,9.997700529,,,,,,,,,,,,,,,1.512,,left,0.5,,stimuli/card_100_transparent.png,100,100,1,0,1,0,1,,,,,,,,,,,,,,,,,,,,,,,,,,,,,,,,,,,,,,,,
,,,,2,2023-10-27_13h11.35.047,SlotMachine_updated,2023.1.3,Win32,9.997700529,,,,,,,,,,,,,,,0.6424,,left,1,,stimuli/card_100_transparent.png,200,100,2,0,2,0,1,,,,,,,,,,,,,,,,,,,,,,,,,,,,,,,,,,,,,,,,
,,,,2,2023-10-27_13h11.35.047,SlotMachine_updated,2023.1.3,Win32,9.997700529,,,,,,,,,,,,,,,0.4189,,left,1,,stimuli/card_100_transparent.png,300,100,3,0,3,0,1,,,,,,,,,,,,,,,,,,,,,,,,,,,,,,,,,,,,,,,,
,,,,2,2023-10-27_13h11.35.047,SlotMachine_updated,2023.1.3,Win32,9.997700529,,,,,,,,,,,,,,,0.113,,left,1,,stimuli/card_100_transparent.png,400,100,4,0,4,0,1,,,,,,,,,,,,,,,,,,,,,,,,,,,,,,,,,,,,,,,,
,,,,2,2023-10-27_13h11.35.047,SlotMachine_updated,2023.1.3,Win32,9.997700529,,,,,,,,,,,,,,,0.4516,,left,1.5,,stimuli/card_10_transparent.png,410,10,5,0,5,0,1,,,,,,,,,,,,,,,,,,,,,,,,,,,,,,,,,,,,,,,,
,,,,2,2023-10-27_13h11.35.047,SlotMachine_updated,2023.1.3,Win32,9.997700529,,,,,,,,,,,,,,,0.7327,,left,0.5,,stimuli/card_100_transparent.png,510,100,6,0,6,0,1,,,,,,,,,,,,,,,,,,,,,,,,,,,,,,,,,,,,,,,,
,,,,2,2023-10-27_13h11.35.047,SlotMachine_updated,2023.1.3,Win32,9.997700529,,,,,,,,,,,,,,,0.4987,,left,1.5,,stimuli/card_0_transparent.png,510,0,7,0,7,0,1,,,,,,,,,,,,,,,,,,,,,,,,,,,,,,,,,,,,,,,,
,,,,2,2023-10-27_13h11.35.047,SlotMachine_updated,2023.1.3,Win32,9.997700529,,,,,,,,,,,,,,,0.4205,,left,0.5,,stimuli/card_0_transparent.png,510,0,8,0,8,0,1,,,,,,,,,,,,,,,,,,,,,,,,,,,,,,,,,,,,,,,,
,,,,2,2023-10-27_13h11.35.047,SlotMachine_updated,2023.1.3,Win32,9.997700529,,,,,,,,,,,,,,,0.3157,,left,1.5,,stimuli/card_100_transparent.png,610,100,9,0,9,0,1,,,,,,,,,,,,,,,,,,,,,,,,,,,,,,,,,,,,,,,,
,,,,2,2023-10-27_13h11.35.047,SlotMachine_updated,2023.1.3,Win32,9.997700529,,,,,,,,,,,,,,,0.5046,,left,1.5,,stimuli/card_0_transparent.png,610,0,10,0,10,0,1,,,,,,,,,,,,,,,,,,,,,,,,,,,,,,,,,,,,,,,,
,,,,2,2023-10-27_13h11.35.047,SlotMachine_updated,2023.1.3,Win32,9.997700529,,,,,,,,,,,,,,,0.7029,,left,1.5,,stimuli/card_0_transparent.png,610,0,11,0,11,0,1,,,,,,,,,,,,,,,,,,,,,,,,,,,,,,,,,,,,,,,,
,,,,2,2023-10-27_13h11.35.047,SlotMachine_updated,2023.1.3,Win32,9.997700529,,,,,,,,,,,,,,,0.3067,,right,1,,stimuli/card_10_transparent.png,620,10,12,0,12,0,1,,,,,,,,,,,,,,,,,,,,,,,,,,,,,,,,,,,,,,,,
,,,,2,2023-10-27_13h11.35.047,SlotMachine_updated,2023.1.3,Win32,9.997700529,,,,,,,,,,,,,,,0.3181,,up,1,,stimuli/card_100_transparent.png,720,100,13,0,13,0,1,,,,,,,,,,,,,,,,,,,,,,,,,,,,,,,,,,,,,,,,
,,,,2,2023-10-27_13h11.35.047,SlotMachine_updated,2023.1.3,Win32,9.997700529,,,,,,,,,,,,,,,0.3173,,up,1.5,,stimuli/card_100_transparent.png,820,100,14,0,14,0,1,,,,,,,,,,,,,,,,,,,,,,,,,,,,,,,,,,,,,,,,
,,,,2,2023-10-27_13h11.35.047,SlotMachine_updated,2023.1.3,Win32,9.997700529,,,,,,,,,,,,,,,,,,,,,,,,,,,,,407.2846,,,412.3007,space,837.6628,,,,,,,,,,,,,,,,,,,,,,,,,,,,,,,,,
,,,,2,2023-10-27_13h11.35.047,SlotMachine_updated,2023.1.3,Win32,9.997700529,,,,,,,,,,,,,,,,,,,,,,,,,,,,,,,,,,,,1250.0548,2,"[2,4,8,0,1,3,9,6,8,5]",1250.0548,space,2.4358,,,,,,,,,,,,,,,,,,,,,,,,,,
,,,,2,2023-10-27_13h11.35.047,SlotMachine_updated,2023.1.3,Win32,9.997700529,,,,,,,,,,,,,,,,,,,,,,,,,,,,,,,,,,,,,,,,,,,1,3,"[15,15]","[[3,1,2],[3,1,2]]",1252.5815,left,0.805,,0.5,0.3,"[3,1,2]",0.662141988,stimuli/card_0_transparent.png,0,0,0,0,0,0,1,,,,,
,,,,2,2023-10-27_13h11.35.047,SlotMachine_updated,2023.1.3,Win32,9.997700529,,,,,,,,,,,,,,,,,,,,,,,,,,,,,,,,,,,,,,,,,,,,,,,1254.2173,up,0.8931,,1,0.3,"[3,1,2]",0.369661998,stimuli/card_100_transparent.png,100,100,1,0,1,0,1,,,,,
,,,,2,2023-10-27_13h11.35.047,SlotMachine_updated,2023.1.3,Win32,9.997700529,,,,,,,,,,,,,,,,,,,,,,,,,,,,,,,,,,,,,,,,,,,,,,,1256.4539,up,0.4193,,1.5,0.3,"[3,1,2]",0.082464517,stimuli/card_0_transparent.png,100,0,2,0,2,0,1,,,,,
,,,,2,2023-10-27_13h11.35.047,SlotMachine_updated,2023.1.3,Win32,9.997700529,,,,,,,,,,,,,,,,,,,,,,,,,,,,,,,,,,,,,,,,,,,,,,,1258.7254,up,0.6994,,1,0.3,"[3,1,2]",0.594047315,stimuli/card_100_transparent.png,200,100,3,0,3,0,1,,,,,
,,,,2,2023-10-27_13h11.35.047,SlotMachine_updated,2023.1.3,Win32,9.997700529,,,,,,,,,,,,,,,,,,,,,,,,,,,,,,,,,,,,,,,,,,,,,,,1260.808,up,0.3803,,0.5,0.3,"[3,1,2]",0.186352677,stimuli/card_10_transparent.png,210,10,4,0,4,0,1,,,,,
,,,,2,2023-10-27_13h11.35.047,SlotMachine_updated,2023.1.3,Win32,9.997700529,,,,,,,,,,,,,,,,,,,,,,,,,,,,,,,,,,,,,,,,,,,,,,,1262.0533,up,0.9589,,0.5,0.3,"[3,1,2]",0.681464853,stimuli/card_100_transparent.png,310,100,5,0,5,0,1,,,,,
,,,,2,2023-10-27_13h11.35.047,SlotMachine_updated,2023.1.3,Win32,9.997700529,,,,,,,,,,,,,,,,,,,,,,,,,,,,,,,,,,,,,,,,,,,,,,,1263.8346,up,0.3089,,1.5,0.3,"[3,1,2]",0.340668356,stimuli/card_100_transparent.png,410,100,6,0,6,0,1,,,,,
,,,,2,2023-10-27_13h11.35.047,SlotMachine_updated,2023.1.3,Win32,9.997700529,,,,,,,,,,,,,,,,,,,,,,,,,,,,,,,,,,,,,,,,,,,,,,,1265.9577,up,0.1993,,0.5,0.3,"[3,1,2]",0.077866492,stimuli/card_0_transparent.png,410,0,7,0,7,0,1,,,,,
,,,,2,2023-10-27_13h11.35.047,SlotMachine_updated,2023.1.3,Win32,9.997700529,,,,,,,,,,,,,,,,,,,,,,,,,,,,,,,,,,,,,,,,,,,,,,,1267.0745,up,0.437,,1.5,0.3,"[3,1,2]",0.643854314,stimuli/card_100_transparent.png,510,100,8,0,8,0,1,,,,,
,,,,2,2023-10-27_13h11.35.047,SlotMachine_updated,2023.1.3,Win32,9.997700529,,,,,,,,,,,,,,,,,,,,,,,,,,,,,,,,,,,,,,,,,,,,,,,1269.4161,up,0.4869,,0.5,0.3,"[3,1,2]",0.335965752,stimuli/card_100_transparent.png,610,100,9,0,9,0,1,,,,,
,,,,2,2023-10-27_13h11.35.047,SlotMachine_updated,2023.1.3,Win32,9.997700529,,,,,,,,,,,,,,,,,,,,,,,,,,,,,,,,,,,,,,,,,,,,,,,1270.6956,up,0.3069,,1.5,0.3,"[3,1,2]",0.32397377,stimuli/card_100_transparent.png,710,100,10,0,10,0,1,,,,,
,,,,2,2023-10-27_13h11.35.047,SlotMachine_updated,2023.1.3,Win32,9.997700529,,,,,,,,,,,,,,,,,,,,,,,,,,,,,,,,,,,,,,,,,,,,,,,1272.9064,up,0.3195,,1,0.3,"[3,1,2]",0.102806077,stimuli/card_10_transparent.png,720,10,11,0,11,0,1,,,,,
,,,,2,2023-10-27_13h11.35.047,SlotMachine_updated,2023.1.3,Win32,9.997700529,,,,,,,,,,,,,,,,,,,,,,,,,,,,,,,,,,,,,,,,,,,,,,,1274.6355,up,0.4062,,1.5,0.3,"[3,1,2]",0.744771635,stimuli/card_100_transparent.png,820,100,12,0,12,0,1,,,,,
,,,,2,2023-10-27_13h11.35.047,SlotMachine_updated,2023.1.3,Win32,9.997700529,,,,,,,,,,,,,,,,,,,,,,,,,,,,,,,,,,,,,,,,,,,,,,,1276.8772,up,0.3061,,1.5,0.3,"[3,1,2]",0.187785086,stimuli/card_10_transparent.png,830,10,13,0,13,0,1,,,,,
,,,,2,2023-10-27_13h11.35.047,SlotMachine_updated,2023.1.3,Win32,9.997700529,,,,,,,,,,,,,,,,,,,,,,,,,,,,,,,,,,,,,,,,,,,,,,,1279.0133,up,0.5156,,0.5,0.3,"[3,1,2]",0.871295185,stimuli/card_100_transparent.png,930,100,14,0,14,0,1,,,,,
,,,,2,2023-10-27_13h11.35.047,SlotMachine_updated,2023.1.3,Win32,9.997700529,,,,,,,,,,,,,,,,,,,,,,,,,,,,,1280.4466,,,,,,,,,,,,,,,,,,,,,,,,,,,,,,,,,,0,0,0,0,1
,,,,2,2023-10-27_13h11.35.047,SlotMachine_updated,2023.1.3,Win32,9.997700529,,,,,,,,,,,,,,,,,,,,,,,,,,,,,,,,,,,,,,,,,,,2,5,"[5,15]","[[1,2,3],[3,1,2]]",1285.448,left,1.6358,,0.5,0.3,"[1,2,3]",0.377804117,stimuli/card_100_transparent.png,100,100,0,0,0,0,1,,,,,
,,,,2,2023-10-27_13h11.35.047,SlotMachine_updated,2023.1.3,Win32,9.997700529,,,,,,,,,,,,,,,,,,,,,,,,,,,,,,,,,,,,,,,,,,,,,,,1287.8845,left,0.4393,,1.5,0.3,"[1,2,3]",0.819810906,stimuli/card_100_transparent.png,200,100,1,0,1,0,1,,,,,
,,,,2,2023-10-27_13h11.35.047,SlotMachine_updated,2023.1.3,Win32,9.997700529,,,,,,,,,,,,,,,,,,,,,,,,,,,,,,,,,,,,,,,,,,,,,,,1290.1129,left,0.4182,,1.5,0.3,"[1,2,3]",0.04486979,stimuli/card_0_transparent.png,200,0,2,0,2,0,1,,,,,
,,,,2,2023-10-27_13h11.35.047,SlotMachine_updated,2023.1.3,Win32,9.997700529,,,,,,,,,,,,,,,,,,,,,,,,,,,,,,,,,,,,,,,,,,,,,,,1292.4227,left,0.4311,,1.5,0.3,"[1,2,3]",0.944525516,stimuli/card_100_transparent.png,300,100,3,0,3,0,1,,,,,
,,,,2,2023-10-27_13h11.35.047,SlotMachine_updated,2023.1.3,Win32,9.997700529,,,,,,,,,,,,,,,,,,,,,,,,,,,,,,,,,,,,,,,,,,,,,,,1294.693,left,0.1116,,0.5,0.3,"[1,2,3]",0.255603494,stimuli/card_100_transparent.png,400,100,4,0,4,0,1,,,,,
,,,,2,2023-10-27_13h11.35.047,SlotMachine_updated,2023.1.3,Win32,9.997700529,,,,,,,,,,,,,,,,,,,,,,,,,,,,,,,,,,,,,,,,,,,,,,,1295.6784,left,0.338,,0.5,0.3,"[3,1,2]",0.880189288,stimuli/card_0_transparent.png,400,0,5,0,5,0,1,,,,,
,,,,2,2023-10-27_13h11.35.047,SlotMachine_updated,2023.1.3,Win32,9.997700529,,,,,,,,,,,,,,,,,,,,,,,,,,,,,,,,,,,,,,,,,,,,,,,1296.8141,left,0.4073,,0.5,0.3,"[3,1,2]",0.622856067,stimuli/card_0_transparent.png,400,0,6,0,6,0,1,,,,,
,,,,2,2023-10-27_13h11.35.047,SlotMachine_updated,2023.1.3,Win32,9.997700529,,,,,,,,,,,,,,,,,,,,,,,,,,,,,,,,,,,,,,,,,,,,,,,1298.0988,left,0.9789,,0.5,0.3,"[3,1,2]",0.252075983,stimuli/card_0_transparent.png,400,0,7,0,7,0,1,,,,,
,,,,2,2023-10-27_13h11.35.047,SlotMachine_updated,2023.1.3,Win32,9.997700529,,,,,,,,,,,,,,,,,,,,,,,,,,,,,,,,,,,,,,,,,,,,,,,1299.8507,up,0.4278,0,1.5,0.3,"[3,1,2]",0.423099949,stimuli/card_100_transparent.png,500,100,8,0,8,0,1,,,,,
,,,,2,2023-10-27_13h11.35.047,SlotMachine_updated,2023.1.3,Win32,9.997700529,,,,,,,,,,,,,,,,,,,,,,,,,,,,,,,,,,,,,,,,,,,,,,,1302.0936,up,0.5451,,1,0.3,"[3,1,2]",0.680817799,stimuli/card_100_transparent.png,600,100,9,0,9,0,1,,,,,
,,,,2,2023-10-27_13h11.35.047,SlotMachine_updated,2023.1.3,Win32,9.997700529,,,,,,,,,,,,,,,,,,,,,,,,,,,,,,,,,,,,,,,,,,,,,,,1304.0543,up,0.2243,,1.5,0.3,"[3,1,2]",0.310484434,stimuli/card_100_transparent.png,700,100,10,0,10,0,1,,,,,
,,,,2,2023-10-27_13h11.35.047,SlotMachine_updated,2023.1.3,Win32,9.997700529,,,,,,,,,,,,,,,,,,,,,,,,,,,,,,,,,,,,,,,,,,,,,,,1306.1644,up,0.3321,,0.5,0.3,"[3,1,2]",0.95449491,stimuli/card_100_transparent.png,800,100,11,0,11,0,1,,,,,
,,,,2,2023-10-27_13h11.35.047,SlotMachine_updated,2023.1.3,Win32,9.997700529,,,,,,,,,,,,,,,,,,,,,,,,,,,,,,,,,,,,,,,,,,,,,,,1307.3829,up,0.2215,,0.5,0.3,"[3,1,2]",0.119000546,stimuli/card_10_transparent.png,810,10,12,0,12,0,1,,,,,
,,,,2,2023-10-27_13h11.35.047,SlotMachine_updated,2023.1.3,Win32,9.997700529,,,,,,,,,,,,,,,,,,,,,,,,,,,,,,,,,,,,,,,,,,,,,,,1308.4038,up,0.9929,,1.5,0.3,"[3,1,2]",0.982023239,stimuli/card_100_transparent.png,910,100,13,0,13,0,1,,,,,
,,,,2,2023-10-27_13h11.35.047,SlotMachine_updated,2023.1.3,Win32,9.997700529,,,,,,,,,,,,,,,,,,,,,,,,,,,,,,,,,,,,,,,,,,,,,,,1311.3027,up,0.7214,,0.5,0.3,"[3,1,2]",0.678789269,stimuli/card_100_transparent.png,1010,100,14,0,14,0,1,,,,,
,,,,2,2023-10-27_13h11.35.047,SlotMachine_updated,2023.1.3,Win32,9.997700529,,,,,,,,,,,,,,,,,,,,,,,,,,,,,1312.8758,,,,,,,,,,,,,,,,,,,,,,,,,,,,,,,,,,1,0,1,0,1
,,,,2,2023-10-27_13h11.35.047,SlotMachine_updated,2023.1.3,Win32,9.997700529,,,,,,,,,,,,,,,,,,,,,,,,,,,,,,,,,,,,,,,,,,,3,9,"[8,15]","[[3,2,1],[3,1,2]]",1317.9076,left,0.7609,,1.5,0.3,"[3,2,1]",0.076567815,stimuli/card_100_transparent.png,100,100,0,0,0,0,1,,,,,
,,,,2,2023-10-27_13h11.35.047,SlotMachine_updated,2023.1.3,Win32,9.997700529,,,,,,,,,,,,,,,,,,,,,,,,,,,,,,,,,,,,,,,,,,,,,,,1320.4777,left,0.4605,,1,0.3,"[3,2,1]",0.053398401,stimuli/card_100_transparent.png,200,100,1,0,1,0,1,,,,,
,,,,2,2023-10-27_13h11.35.047,SlotMachine_updated,2023.1.3,Win32,9.997700529,,,,,,,,,,,,,,,,,,,,,,,,,,,,,,,,,,,,,,,,,,,,,,,1322.2203,left,0.7945,,1.5,0.3,"[3,2,1]",0.139958362,stimuli/card_10_transparent.png,210,10,2,0,2,0,1,,,,,
,,,,2,2023-10-27_13h11.35.047,SlotMachine_updated,2023.1.3,Win32,9.997700529,,,,,,,,,,,,,,,,,,,,,,,,,,,,,,,,,,,,,,,,,,,,,,,1324.8034,left,0.4585,,1.5,0.3,"[3,2,1]",0.788198035,stimuli/card_0_transparent.png,210,0,3,0,3,0,1,,,,,
,,,,2,2023-10-27_13h11.35.047,SlotMachine_updated,2023.1.3,Win32,9.997700529,,,,,,,,,,,,,,,,,,,,,,,,,,,,,,,,,,,,,,,,,,,,,,,1327.0818,left,0.4631,,1.5,0.3,"[3,2,1]",0.203786638,stimuli/card_0_transparent.png,210,0,4,0,4,0,1,,,,,
,,,,2,2023-10-27_13h11.35.047,SlotMachine_updated,2023.1.3,Win32,9.997700529,,,,,,,,,,,,,,,,,,,,,,,,,,,,,,,,,,,,,,,,,,,,,,,1329.4571,up,0.5625,,0.5,0.3,"[3,2,1]",0.098635123,stimuli/card_0_transparent.png,210,0,5,0,5,0,1,,,,,
,,,,2,2023-10-27_13h11.35.047,SlotMachine_updated,2023.1.3,Win32,9.997700529,,,,,,,,,,,,,,,,,,,,,,,,,,,,,,,,,,,,,,,,,,,,,,,1330.9033,right,0.3958,,1,0.3,"[3,2,1]",0.894114203,stimuli/card_100_transparent.png,310,100,6,0,6,0,1,,,,,
,,,,2,2023-10-27_13h11.35.047,SlotMachine_updated,2023.1.3,Win32,9.997700529,,,,,,,,,,,,,,,,,,,,,,,,,,,,,,,,,,,,,,,,,,,,,,,1332.5449,right,0.4524,,1,0.3,"[3,2,1]",0.298025745,stimuli/card_100_transparent.png,410,100,7,0,7,0,1,,,,,
,,,,2,2023-10-27_13h11.35.047,SlotMachine_updated,2023.1.3,Win32,9.997700529,,,,,,,,,,,,,,,,,,,,,,,,,,,,,,,,,,,,,,,,,,,,,,,1334.2817,right,0.2269,,1.5,0.3,"[3,1,2]",0.663239984,stimuli/card_10_transparent.png,420,10,8,0,8,0,1,,,,,
,,,,2,2023-10-27_13h11.35.047,SlotMachine_updated,2023.1.3,Win32,9.997700529,,,,,,,,,,,,,,,,,,,,,,,,,,,,,,,,,,,,,,,,,,,,,,,1336.3316,right,0.5638,,1,0.3,"[3,1,2]",0.477273738,stimuli/card_10_transparent.png,430,10,9,0,9,0,1,,,,,
,,,,2,2023-10-27_13h11.35.047,SlotMachine_updated,2023.1.3,Win32,9.997700529,,,,,,,,,,,,,,,,,,,,,,,,,,,,,,,,,,,,,,,,,,,,,,,1338.1409,up,1.0052,,1.5,0.3,"[3,1,2]",0.780465522,stimuli/card_100_transparent.png,530,100,10,0,10,0,1,,,,,
,,,,2,2023-10-27_13h11.35.047,SlotMachine_updated,2023.1.3,Win32,9.997700529,,,,,,,,,,,,,,,,,,,,,,,,,,,,,,,,,,,,,,,,,,,,,,,1340.9547,up,0.3868,,0.5,0.3,"[3,1,2]",0.964526233,stimuli/card_100_transparent.png,630,100,11,0,11,0,1,,,,,
,,,,2,2023-10-27_13h11.35.047,SlotMachine_updated,2023.1.3,Win32,9.997700529,,,,,,,,,,,,,,,,,,,,,,,,,,,,,,,,,,,,,,,,,,,,,,,1342.2241,up,2.1662,,0.5,0.3,"[3,1,2]",0.35120975,stimuli/card_100_transparent.png,730,100,12,0,12,0,1,,,,,
,,,,2,2023-10-27_13h11.35.047,SlotMachine_updated,2023.1.3,Win32,9.997700529,,,,,,,,,,,,,,,,,,,,,,,,,,,,,,,,,,,,,,,,,,,,,,,1345.2997,up,1.0616,,1,0.3,"[3,1,2]",0.624751522,stimuli/card_100_transparent.png,830,100,13,0,13,0,1,,,,,
,,,,2,2023-10-27_13h11.35.047,SlotMachine_updated,2023.1.3,Win32,9.997700529,,,,,,,,,,,,,,,,,,,,,,,,,,,,,,,,,,,,,,,,,,,,,,,1347.7368,up,0.1237,,1.5,0.3,"[3,1,2]",0.516142962,stimuli/card_100_transparent.png,930,100,14,0,14,0,1,,,,,
,,,,2,2023-10-27_13h11.35.047,SlotMachine_updated,2023.1.3,Win32,9.997700529,,,,,,,,,,,,,,,,,,,,,,,,,,,,,1349.8232,,,,,,,,,,,,,,,,,,,,,,,,,,,,,,,,,,2,0,2,0,1
,,,,2,2023-10-27_13h11.35.047,SlotMachine_updated,2023.1.3,Win32,9.997700529,,,,,,,,,,,,,,,,,,,,,,,,,,,,,,,,,,,,,,,,,,,4,1,"[12,15]","[[2,1,3],[2,3,1]]",1354.815,left,0.7275,,1.5,0.3,"[2,1,3]",0.328750278,stimuli/card_10_transparent.png,10,10,0,0,0,0,1,,,,,
,,,,2,2023-10-27_13h11.35.047,SlotMachine_updated,2023.1.3,Win32,9.997700529,,,,,,,,,,,,,,,,,,,,,,,,,,,,,,,,,,,,,,,,,,,,,,,1357.4157,left,0.5736,,1,0.3,"[2,1,3]",0.284579322,stimuli/card_10_transparent.png,20,10,1,0,1,0,1,,,,,
,,,,2,2023-10-27_13h11.35.047,SlotMachine_updated,2023.1.3,Win32,9.997700529,,,,,,,,,,,,,,,,,,,,,,,,,,,,,,,,,,,,,,,,,,,,,,,1359.3413,up,0.1338,,1.5,0.3,"[2,1,3]",0.719632539,stimuli/card_100_transparent.png,120,100,2,0,2,0,1,,,,,
,,,,2,2023-10-27_13h11.35.047,SlotMachine_updated,2023.1.3,Win32,9.997700529,,,,,,,,,,,,,,,,,,,,,,,,,,,,,,,,,,,,,,,,,,,,,,,1361.2664,up,0.3283,,1,0.3,"[2,1,3]",0.22516453,stimuli/card_100_transparent.png,220,100,3,0,3,0,1,,,,,
,,,,2,2023-10-27_13h11.35.047,SlotMachine_updated,2023.1.3,Win32,9.997700529,,,,,,,,,,,,,,,,,,,,,,,,,,,,,,,,,,,,,,,,,,,,,,,1362.9095,up,0.2354,,0.5,0.3,"[2,1,3]",0.206091543,stimuli/card_100_transparent.png,320,100,4,0,4,0,1,,,,,
,,,,2,2023-10-27_13h11.35.047,SlotMachine_updated,2023.1.3,Win32,9.997700529,,,,,,,,,,,,,,,,,,,,,,,,,,,,,,,,,,,,,,,,,,,,,,,1363.9287,up,0.2237,,1.5,0.3,"[2,1,3]",0.395001962,stimuli/card_100_transparent.png,420,100,5,0,5,0,1,,,,,
,,,,2,2023-10-27_13h11.35.047,SlotMachine_updated,2023.1.3,Win32,9.997700529,,,,,,,,,,,,,,,,,,,,,,,,,,,,,,,,,,,,,,,,,,,,,,,1365.9921,up,0.1131,,1,0.3,"[2,1,3]",0.256060676,stimuli/card_100_transparent.png,520,100,6,0,6,0,1,,,,,
,,,,2,2023-10-27_13h11.35.047,SlotMachine_updated,2023.1.3,Win32,9.997700529,,,,,,,,,,,,,,,,,,,,,,,,,,,,,,,,,,,,,,,,,,,,,,,1367.3627,up,0.4503,,1.5,0.3,"[2,1,3]",0.724452505,stimuli/card_100_transparent.png,620,100,7,0,7,0,1,,,,,
,,,,2,2023-10-27_13h11.35.047,SlotMachine_updated,2023.1.3,Win32,9.997700529,,,,,,,,,,,,,,,,,,,,,,,,,,,,,,,,,,,,,,,,,,,,,,,1369.6166,up,0.1224,,1.5,0.3,"[2,1,3]",0.434512401,stimuli/card_100_transparent.png,720,100,8,0,8,0,1,,,,,
,,,,2,2023-10-27_13h11.35.047,SlotMachine_updated,2023.1.3,Win32,9.997700529,,,,,,,,,,,,,,,,,,,,,,,,,,,,,,,,,,,,,,,,,,,,,,,1371.5461,up,0.2322,,1,0.3,"[2,1,3]",0.308968456,stimuli/card_100_transparent.png,820,100,9,0,9,0,1,,,,,
,,,,2,2023-10-27_13h11.35.047,SlotMachine_updated,2023.1.3,Win32,9.997700529,,,,,,,,,,,,,,,,,,,,,,,,,,,,,,,,,,,,,,,,,,,,,,,1373.1172,up,0.3801,,1.5,0.3,"[2,1,3]",0.106723057,stimuli/card_10_transparent.png,830,10,10,0,10,0,1,,,,,
,,,,2,2023-10-27_13h11.35.047,SlotMachine_updated,2023.1.3,Win32,9.997700529,,,,,,,,,,,,,,,,,,,,,,,,,,,,,,,,,,,,,,,,,,,,,,,1375.3104,right,0.5962,,0.5,0.3,"[2,1,3]",0.677491896,stimuli/card_0_transparent.png,830,0,11,0,11,0,1,,,,,
,,,,2,2023-10-27_13h11.35.047,SlotMachine_updated,2023.1.3,Win32,9.997700529,,,,,,,,,,,,,,,,,,,,,,,,,,,,,,,,,,,,,,,,,,,,,,,1376.6796,up,0.2366,,0.5,0.3,"[2,3,1]",0.364510866,stimuli/card_0_transparent.png,830,0,12,0,12,0,1,,,,,
,,,,2,2023-10-27_13h11.35.047,SlotMachine_updated,2023.1.3,Win32,9.997700529,,,,,,,,,,,,,,,,,,,,,,,,,,,,,,,,,,,,,,,,,,,,,,,1377.7127,up,0.461,0.0001,1.5,0.3,"[2,3,1]",0.623514654,stimuli/card_0_transparent.png,830,0,13,0,13,0,1,,,,,
,,,,2,2023-10-27_13h11.35.047,SlotMachine_updated,2023.1.3,Win32,9.997700529,,,,,,,,,,,,,,,,,,,,,,,,,,,,,,,,,,,,,,,,,,,,,,,1380.0049,left,0.226,,1,0.3,"[2,3,1]",0.572536987,stimuli/card_10_transparent.png,840,10,14,0,14,0,1,,,,,
,,,,2,2023-10-27_13h11.35.047,SlotMachine_updated,2023.1.3,Win32,9.997700529,,,,,,,,,,,,,,,,,,,,,,,,,,,,,1381.5914,,,,,,,,,,,,,,,,,,,,,,,,,,,,,,,,,,3,0,3,0,1
,,,,2,2023-10-27_13h11.35.047,SlotMachine_updated,2023.1.3,Win32,9.997700529,,,,,,,,,,,,,,,,,,,,,,,,,,,,,,,,,,,,,,,,,,,5,2,"[6,15]","[[1,3,2],[3,2,1]]",1386.5601,left,1.4741,,1.5,0.3,"[1,3,2]",0.607901571,stimuli/card_100_transparent.png,100,100,0,0,0,0,1,,,,,
,,,,2,2023-10-27_13h11.35.047,SlotMachine_updated,2023.1.3,Win32,9.997700529,,,,,,,,,,,,,,,,,,,,,,,,,,,,,,,,,,,,,,,,,,,,,,,1389.8388,left,0.4634,,0.5,0.3,"[1,3,2]",0.016007266,stimuli/card_0_transparent.png,100,0,1,0,1,0,1,,,,,
,,,,2,2023-10-27_13h11.35.047,SlotMachine_updated,2023.1.3,Win32,9.997700529,,,,,,,,,,,,,,,,,,,,,,,,,,,,,,,,,,,,,,,,,,,,,,,1391.1143,up,1.2197,0.0001,1.5,0.3,"[1,3,2]",0.337090677,stimuli/card_0_transparent.png,100,0,2,0,2,0,1,,,,,
,,,,2,2023-10-27_13h11.35.047,SlotMachine_updated,2023.1.3,Win32,9.997700529,,,,,,,,,,,,,,,,,,,,,,,,,,,,,,,,,,,,,,,,,,,,,,,1394.128,right,0.4313,,0.5,0.3,"[1,3,2]",0.478003292,stimuli/card_10_transparent.png,110,10,3,0,3,0,1,,,,,
,,,,2,2023-10-27_13h11.35.047,SlotMachine_updated,2023.1.3,Win32,9.997700529,,,,,,,,,,,,,,,,,,,,,,,,,,,,,,,,,,,,,,,,,,,,,,,1395.3497,right,0.5607,,1,0.3,"[1,3,2]",0.8729634,stimuli/card_10_transparent.png,120,10,4,0,4,0,1,,,,,
,,,,2,2023-10-27_13h11.35.047,SlotMachine_updated,2023.1.3,Win32,9.997700529,,,,,,,,,,,,,,,,,,,,,,,,,,,,,,,,,,,,,,,,,,,,,,,1397.2969,left,0.1262,,0.5,0.3,"[1,3,2]",0.427380489,stimuli/card_100_transparent.png,220,100,5,0,5,0,1,,,,,
,,,,2,2023-10-27_13h11.35.047,SlotMachine_updated,2023.1.3,Win32,9.997700529,,,,,,,,,,,,,,,,,,,,,,,,,,,,,,,,,,,,,,,,,,,,,,,1398.2172,left,0.4485,,0.5,0.3,"[3,2,1]",0.311143304,stimuli/card_0_transparent.png,220,0,6,0,6,0,1,,,,,
,,,,2,2023-10-27_13h11.35.047,SlotMachine_updated,2023.1.3,Win32,9.997700529,,,,,,,,,,,,,,,,,,,,,,,,,,,,,,,,,,,,,,,,,,,,,,,1399.562,up,0.4563,0.0001,1,0.3,"[3,2,1]",0.205266593,stimuli/card_10_transparent.png,230,10,7,0,7,0,1,,,,,
,,,,2,2023-10-27_13h11.35.047,SlotMachine_updated,2023.1.3,Win32,9.997700529,,,,,,,,,,,,,,,,,,,,,,,,,,,,,,,,,,,,,,,,,,,,,,,1401.2903,left,0.2201,,1.5,0.3,"[3,2,1]",0.780657324,stimuli/card_0_transparent.png,230,0,8,0,8,0,1,,,,,
,,,,2,2023-10-27_13h11.35.047,SlotMachine_updated,2023.1.3,Win32,9.997700529,,,,,,,,,,,,,,,,,,,,,,,,,,,,,,,,,,,,,,,,,,,,,,,1403.3065,right,0.5073,,1,0.3,"[3,2,1]",0.387683152,stimuli/card_100_transparent.png,330,100,9,0,9,0,1,,,,,
,,,,2,2023-10-27_13h11.35.047,SlotMachine_updated,2023.1.3,Win32,9.997700529,,,,,,,,,,,,,,,,,,,,,,,,,,,,,,,,,,,,,,,,,,,,,,,1405.2161,right,0.4416,,1.5,0.3,"[3,2,1]",0.313943144,stimuli/card_100_transparent.png,430,100,10,0,10,0,1,,,,,
,,,,2,2023-10-27_13h11.35.047,SlotMachine_updated,2023.1.3,Win32,9.997700529,,,,,,,,,,,,,,,,,,,,,,,,,,,,,,,,,,,,,,,,,,,,,,,1407.5473,right,0.3465,,1,0.3,"[3,2,1]",0.094378091,stimuli/card_0_transparent.png,430,0,11,0,11,0,1,,,,,
,,,,2,2023-10-27_13h11.35.047,SlotMachine_updated,2023.1.3,Win32,9.997700529,,,,,,,,,,,,,,,,,,,,,,,,,,,,,,,,,,,,,,,,,,,,,,,1409.2285,right,0.6795,,1,0.3,"[3,2,1]",0.174437797,stimuli/card_10_transparent.png,440,10,12,0,12,0,1,,,,,
,,,,2,2023-10-27_13h11.35.047,SlotMachine_updated,2023.1.3,Win32,9.997700529,,,,,,,,,,,,,,,,,,,,,,,,,,,,,,,,,,,,,,,,,,,,,,,1411.2606,right,2.5961,,1,0.3,"[3,2,1]",0.381242848,stimuli/card_100_transparent.png,540,100,13,0,13,0,1,,,,,
,,,,2,2023-10-27_13h11.35.047,SlotMachine_updated,2023.1.3,Win32,9.997700529,,,,,,,,,,,,,,,,,,,,,,,,,,,,,,,,,,,,,,,,,,,,,,,1415.1135,right,0.5654,,0.5,0.3,"[3,2,1]",0.322565939,stimuli/card_100_transparent.png,640,100,14,0,14,0,1,,,,,
,,,,2,2023-10-27_13h11.35.047,SlotMachine_updated,2023.1.3,Win32,9.997700529,,,,,,,,,,,,,,,,,,,,,,,,,,,,,1416.5857,,,,,,,,,,,,,,,,,,,,,,,,,,,,,,,,,,4,0,4,0,1
,,,,2,2023-10-27_13h11.35.047,SlotMachine_updated,2023.1.3,Win32,9.997700529,,,,,,,,,,,,,,,,,,,,,,,,,,,,,,,,,,,,,,,,,,,6,4,"[7,15]","[[2,3,1],[1,2,3]]",1421.5721,left,1.7699,,1.5,0.3,"[2,3,1]",0.223262745,stimuli/card_10_transparent.png,10,10,0,0,0,0,1,,,,,
,,,,2,2023-10-27_13h11.35.047,SlotMachine_updated,2023.1.3,Win32,9.997700529,,,,,,,,,,,,,,,,,,,,,,,,,,,,,,,,,,,,,,,,,,,,,,,1425.1858,left,0.3489,,1.5,0.3,"[2,3,1]",0.586540282,stimuli/card_10_transparent.png,20,10,1,0,1,0,1,,,,,
,,,,2,2023-10-27_13h11.35.047,SlotMachine_updated,2023.1.3,Win32,9.997700529,,,,,,,,,,,,,,,,,,,,,,,,,,,,,,,,,,,,,,,,,,,,,,,1427.295,left,1.2334,,1,0.3,"[2,3,1]",0.829406965,stimuli/card_10_transparent.png,30,10,2,0,2,0,1,,,,,
,,,,2,2023-10-27_13h11.35.047,SlotMachine_updated,2023.1.3,Win32,9.997700529,,,,,,,,,,,,,,,,,,,,,,,,,,,,,,,,,,,,,,,,,,,,,,,1429.7991,up,1.0275,,0.5,0.3,"[2,3,1]",0.730620066,stimuli/card_0_transparent.png,30,0,3,0,3,0,1,,,,,
,,,,2,2023-10-27_13h11.35.047,SlotMachine_updated,2023.1.3,Win32,9.997700529,,,,,,,,,,,,,,,,,,,,,,,,,,,,,,,,,,,,,,,,,,,,,,,1431.6251,right,0.4599,,1.5,0.3,"[2,3,1]",0.300872818,stimuli/card_100_transparent.png,130,100,4,0,4,0,1,,,,,
,,,,2,2023-10-27_13h11.35.047,SlotMachine_updated,2023.1.3,Win32,9.997700529,,,,,,,,,,,,,,,,,,,,,,,,,,,,,,,,,,,,,,,,,,,,,,,1433.8968,right,0.4556,,1.5,0.3,"[2,3,1]",0.446793497,stimuli/card_100_transparent.png,230,100,5,0,5,0,1,,,,,
,,,,2,2023-10-27_13h11.35.047,SlotMachine_updated,2023.1.3,Win32,9.997700529,,,,,,,,,,,,,,,,,,,,,,,,,,,,,,,,,,,,,,,,,,,,,,,1436.198,right,0.4555,,1.5,0.3,"[2,3,1]",0.942077321,stimuli/card_100_transparent.png,330,100,6,0,6,0,1,,,,,
,,,,2,2023-10-27_13h11.35.047,SlotMachine_updated,2023.1.3,Win32,9.997700529,,,,,,,,,,,,,,,,,,,,,,,,,,,,,,,,,,,,,,,,,,,,,,,1438.4995,right,0.5156,,0.5,0.3,"[1,2,3]",0.257840456,stimuli/card_0_transparent.png,330,0,7,0,7,0,1,,,,,
,,,,2,2023-10-27_13h11.35.047,SlotMachine_updated,2023.1.3,Win32,9.997700529,,,,,,,,,,,,,,,,,,,,,,,,,,,,,,,,,,,,,,,,,,,,,,,1439.8985,right,1.5976,0.0001,1,0.3,"[1,2,3]",0.60168024,stimuli/card_0_transparent.png,330,0,8,0,8,0,1,,,,,
,,,,2,2023-10-27_13h11.35.047,SlotMachine_updated,2023.1.3,Win32,9.997700529,,,,,,,,,,,,,,,,,,,,,,,,,,,,,,,,,,,,,,,,,,,,,,,1442.7771,up,0.5867,,1.5,0.3,"[1,2,3]",0.851540677,stimuli/card_10_transparent.png,340,10,9,0,9,0,1,,,,,
,,,,2,2023-10-27_13h11.35.047,SlotMachine_updated,2023.1.3,Win32,9.997700529,,,,,,,,,,,,,,,,,,,,,,,,,,,,,,,,,,,,,,,,,,,,,,,1445.2247,up,0.7188,0.0001,1.5,0.3,"[1,2,3]",0.284375605,stimuli/card_10_transparent.png,350,10,10,0,10,0,1,,,,,
,,,,2,2023-10-27_13h11.35.047,SlotMachine_updated,2023.1.3,Win32,9.997700529,,,,,,,,,,,,,,,,,,,,,,,,,,,,,,,,,,,,,,,,,,,,,,,1447.7184,left,0.5901,,1,0.3,"[1,2,3]",0.717288443,stimuli/card_100_transparent.png,450,100,11,0,11,0,1,,,,,
,,,,2,2023-10-27_13h11.35.047,SlotMachine_updated,2023.1.3,Win32,9.997700529,,,,,,,,,,,,,,,,,,,,,,,,,,,,,,,,,,,,,,,,,,,,,,,1449.5878,left,0.5038,0.0001,1.5,0.3,"[1,2,3]",0.429689537,stimuli/card_100_transparent.png,550,100,12,0,12,0,1,,,,,
,,,,2,2023-10-27_13h11.35.047,SlotMachine_updated,2023.1.3,Win32,9.997700529,,,,,,,,,,,,,,,,,,,,,,,,,,,,,,,,,,,,,,,,,,,,,,,1451.8788,left,0.3159,,0.5,0.3,"[1,2,3]",0.583215315,stimuli/card_100_transparent.png,650,100,13,0,13,0,1,,,,,
,,,,2,2023-10-27_13h11.35.047,SlotMachine_updated,2023.1.3,Win32,9.997700529,,,,,,,,,,,,,,,,,,,,,,,,,,,,,,,,,,,,,,,,,,,,,,,1452.9797,left,0.4704,,1,0.3,"[1,2,3]",0.731543846,stimuli/card_100_transparent.png,750,100,14,0,14,0,1,,,,,
,,,,2,2023-10-27_13h11.35.047,SlotMachine_updated,2023.1.3,Win32,9.997700529,,,,,,,,,,,,,,,,,,,,,,,,,,,,,1454.7601,,,,,,,,,,,,,,,,,,,,,,,,,,,,,,,,,,5,0,5,0,1
,,,,2,2023-10-27_13h11.35.047,SlotMachine_updated,2023.1.3,Win32,9.997700529,,,,,,,,,,,,,,,,,,,,,,,,,,,,,,,,,,,,,,,,,,,7,10,"[10,15]","[[3,1,2],[1,3,2]]",1459.7159,left,0.5028,,1.5,0.3,"[3,1,2]",0.125301992,stimuli/card_10_transparent.png,10,10,0,0,0,0,1,,,,,
,,,,2,2023-10-27_13h11.35.047,SlotMachine_updated,2023.1.3,Win32,9.997700529,,,,,,,,,,,,,,,,,,,,,,,,,,,,,,,,,,,,,,,,,,,,,,,1462.1274,up,0.2629,,1.5,0.3,"[3,1,2]",0.370671701,stimuli/card_100_transparent.png,110,100,1,0,1,0,1,,,,,
,,,,2,2023-10-27_13h11.35.047,SlotMachine_updated,2023.1.3,Win32,9.997700529,,,,,,,,,,,,,,,,,,,,,,,,,,,,,,,,,,,,,,,,,,,,,,,1464.2886,up,0.385,,0.5,0.3,"[3,1,2]",0.12480312,stimuli/card_10_transparent.png,120,10,2,0,2,0,1,,,,,
,,,,2,2023-10-27_13h11.35.047,SlotMachine_updated,2023.1.3,Win32,9.997700529,,,,,,,,,,,,,,,,,,,,,,,,,,,,,,,,,,,,,,,,,,,,,,,1465.4249,up,0.7547,,1.5,0.3,"[3,1,2]",0.232333637,stimuli/card_100_transparent.png,220,100,3,0,3,0,1,,,,,
,,,,2,2023-10-27_13h11.35.047,SlotMachine_updated,2023.1.3,Win32,9.997700529,,,,,,,,,,,,,,,,,,,,,,,,,,,,,,,,,,,,,,,,,,,,,,,1467.9652,up,0.3298,,1.5,0.3,"[3,1,2]",0.884401112,stimuli/card_100_transparent.png,320,100,4,0,4,0,1,,,,,
,,,,2,2023-10-27_13h11.35.047,SlotMachine_updated,2023.1.3,Win32,9.997700529,,,,,,,,,,,,,,,,,,,,,,,,,,,,,,,,,,,,,,,,,,,,,,,1470.0578,up,0.2626,,1,0.3,"[3,1,2]",0.89423771,stimuli/card_100_transparent.png,420,100,5,0,5,0,1,,,,,
,,,,2,2023-10-27_13h11.35.047,SlotMachine_updated,2023.1.3,Win32,9.997700529,,,,,,,,,,,,,,,,,,,,,,,,,,,,,,,,,,,,,,,,,,,,,,,1471.6791,up,0.2477,,1,0.3,"[3,1,2]",0.836431453,stimuli/card_100_transparent.png,520,100,6,0,6,0,1,,,,,
,,,,2,2023-10-27_13h11.35.047,SlotMachine_updated,2023.1.3,Win32,9.997700529,,,,,,,,,,,,,,,,,,,,,,,,,,,,,,,,,,,,,,,,,,,,,,,1473.2801,up,0.4647,,0.5,0.3,"[3,1,2]",0.535819982,stimuli/card_100_transparent.png,620,100,7,0,7,0,1,,,,,
,,,,2,2023-10-27_13h11.35.047,SlotMachine_updated,2023.1.3,Win32,9.997700529,,,,,,,,,,,,,,,,,,,,,,,,,,,,,,,,,,,,,,,,,,,,,,,1474.5797,up,0.3539,,1,0.3,"[3,1,2]",0.04379465,stimuli/card_0_transparent.png,620,0,8,0,8,0,1,,,,,
,,,,2,2023-10-27_13h11.35.047,SlotMachine_updated,2023.1.3,Win32,9.997700529,,,,,,,,,,,,,,,,,,,,,,,,,,,,,,,,,,,,,,,,,,,,,,,1476.2103,up,1.0729,,0.5,0.3,"[3,1,2]",0.305117763,stimuli/card_100_transparent.png,720,100,9,0,9,0,1,,,,,
,,,,2,2023-10-27_13h11.35.047,SlotMachine_updated,2023.1.3,Win32,9.997700529,,,,,,,,,,,,,,,,,,,,,,,,,,,,,,,,,,,,,,,,,,,,,,,1478.1297,up,0.3552,,1.5,0.3,"[1,3,2]",0.214969372,stimuli/card_0_transparent.png,720,0,10,0,10,0,1,,,,,
,,,,2,2023-10-27_13h11.35.047,SlotMachine_updated,2023.1.3,Win32,9.997700529,,,,,,,,,,,,,,,,,,,,,,,,,,,,,,,,,,,,,,,,,,,,,,,1480.2458,up,1.8495,,1,0.3,"[1,3,2]",0.834721639,stimuli/card_0_transparent.png,720,0,11,0,11,0,1,,,,,
,,,,2,2023-10-27_13h11.35.047,SlotMachine_updated,2023.1.3,Win32,9.997700529,,,,,,,,,,,,,,,,,,,,,,,,,,,,,,,,,,,,,,,,,,,,,,,1483.3575,right,0.3473,,1.5,0.3,"[1,3,2]",0.47952394,stimuli/card_10_transparent.png,730,10,12,0,12,0,1,,,,,
,,,,2,2023-10-27_13h11.35.047,SlotMachine_updated,2023.1.3,Win32,9.997700529,,,,,,,,,,,,,,,,,,,,,,,,,,,,,,,,,,,,,,,,,,,,,,,1485.5115,left,1.2611,,1,0.3,"[1,3,2]",0.469134992,stimuli/card_100_transparent.png,830,100,13,0,13,0,1,,,,,
,,,,2,2023-10-27_13h11.35.047,SlotMachine_updated,2023.1.3,Win32,9.997700529,,,,,,,,,,,,,,,,,,,,,,,,,,,,,,,,,,,,,,,,,,,,,,,1488.0823,left,0.3621,,0.5,0.3,"[1,3,2]",0.889170003,stimuli/card_100_transparent.png,930,100,14,0,14,0,1,,,,,
,,,,2,2023-10-27_13h11.35.047,SlotMachine_updated,2023.1.3,Win32,9.997700529,,,,,,,,,,,,,,,,,,,,,,,,,,,,,1489.254,,,,,,,,,,,,,,,,,,,,,,,,,,,,,,,,,,6,0,6,0,1
,,,,2,2023-10-27_13h11.35.047,SlotMachine_updated,2023.1.3,Win32,9.997700529,,,,,,,,,,,,,,,,,,,,,,,,,,,,,,,,,,,,,,,,,,,8,7,"[9,15]","[[1,3,2],[2,3,1]]",1494.2617,right,2.4759,,0.5,0.3,"[1,3,2]",0.781316163,stimuli/card_10_transparent.png,10,10,0,0,0,0,1,,,,,
,,,,2,2023-10-27_13h11.35.047,SlotMachine_updated,2023.1.3,Win32,9.997700529,,,,,,,,,,,,,,,,,,,,,,,,,,,,,,,,,,,,,,,,,,,,,,,1497.6411,up,1.335,,1.5,0.3,"[1,3,2]",0.291992127,stimuli/card_0_transparent.png,10,0,1,0,1,0,1,,,,,
,,,,2,2023-10-27_13h11.35.047,SlotMachine_updated,2023.1.3,Win32,9.997700529,,,,,,,,,,,,,,,,,,,,,,,,,,,,,,,,,,,,,,,,,,,,,,,1500.7583,left,0.7669,,0.5,0.3,"[1,3,2]",0.384293333,stimuli/card_100_transparent.png,110,100,2,0,2,0,1,,,,,
,,,,2,2023-10-27_13h11.35.047,SlotMachine_updated,2023.1.3,Win32,9.997700529,,,,,,,,,,,,,,,,,,,,,,,,,,,,,,,,,,,,,,,,,,,,,,,1502.3307,left,0.481,,1.5,0.3,"[1,3,2]",0.71730044,stimuli/card_100_transparent.png,210,100,3,0,3,0,1,,,,,
,,,,2,2023-10-27_13h11.35.047,SlotMachine_updated,2023.1.3,Win32,9.997700529,,,,,,,,,,,,,,,,,,,,,,,,,,,,,,,,,,,,,,,,,,,,,,,1504.5716,left,0.573,,1.5,0.3,"[1,3,2]",0.057353432,stimuli/card_0_transparent.png,210,0,4,0,4,0,1,,,,,
,,,,2,2023-10-27_13h11.35.047,SlotMachine_updated,2023.1.3,Win32,9.997700529,,,,,,,,,,,,,,,,,,,,,,,,,,,,,,,,,,,,,,,,,,,,,,,1506.9078,left,0.6324,,1,0.3,"[1,3,2]",0.12449378,stimuli/card_10_transparent.png,220,10,5,0,5,0,1,,,,,
,,,,2,2023-10-27_13h11.35.047,SlotMachine_updated,2023.1.3,Win32,9.997700529,,,,,,,,,,,,,,,,,,,,,,,,,,,,,,,,,,,,,,,,,,,,,,,1508.8739,left,0.8328,,1.5,0.3,"[1,3,2]",0.154468171,stimuli/card_10_transparent.png,230,10,6,0,6,0,1,,,,,
,,,,2,2023-10-27_13h11.35.047,SlotMachine_updated,2023.1.3,Win32,9.997700529,,,,,,,,,,,,,,,,,,,,,,,,,,,,,,,,,,,,,,,,,,,,,,,1511.5759,right,0.369,,0.5,0.3,"[1,3,2]",0.052041912,stimuli/card_0_transparent.png,230,0,7,0,7,0,1,,,,,
,,,,2,2023-10-27_13h11.35.047,SlotMachine_updated,2023.1.3,Win32,9.997700529,,,,,,,,,,,,,,,,,,,,,,,,,,,,,,,,,,,,,,,,,,,,,,,1512.7741,up,0.3728,,0.5,0.3,"[1,3,2]",0.579926933,stimuli/card_0_transparent.png,230,0,8,0,8,0,1,,,,,
,,,,2,2023-10-27_13h11.35.047,SlotMachine_updated,2023.1.3,Win32,9.997700529,,,,,,,,,,,,,,,,,,,,,,,,,,,,,,,,,,,,,,,,,,,,,,,1513.9334,up,0.4625,,0.5,0.3,"[2,3,1]",0.096046282,stimuli/card_100_transparent.png,330,100,9,0,9,0,1,,,,,
,,,,2,2023-10-27_13h11.35.047,SlotMachine_updated,2023.1.3,Win32,9.997700529,,,,,,,,,,,,,,,,,,,,,,,,,,,,,,,,,,,,,,,,,,,,,,,1515.2388,up,0.3509,,0.5,0.3,"[2,3,1]",0.205218323,stimuli/card_0_transparent.png,330,0,10,0,10,0,1,,,,,
,,,,2,2023-10-27_13h11.35.047,SlotMachine_updated,2023.1.3,Win32,9.997700529,,,,,,,,,,,,,,,,,,,,,,,,,,,,,,,,,,,,,,,,,,,,,,,1516.4469,right,0.7382,,1,0.3,"[2,3,1]",0.249066649,stimuli/card_100_transparent.png,430,100,11,0,11,0,1,,,,,
,,,,2,2023-10-27_13h11.35.047,SlotMachine_updated,2023.1.3,Win32,9.997700529,,,,,,,,,,,,,,,,,,,,,,,,,,,,,,,,,,,,,,,,,,,,,,,1518.4898,right,0.4777,,1.5,0.3,"[2,3,1]",0.373439383,stimuli/card_100_transparent.png,530,100,12,0,12,0,1,,,,,
,,,,2,2023-10-27_13h11.35.047,SlotMachine_updated,2023.1.3,Win32,9.997700529,,,,,,,,,,,,,,,,,,,,,,,,,,,,,,,,,,,,,,,,,,,,,,,1520.7663,right,0.2505,0.0001,1,0.3,"[2,3,1]",0.888073697,stimuli/card_100_transparent.png,630,100,13,0,13,0,1,,,,,
,,,,2,2023-10-27_13h11.35.047,SlotMachine_updated,2023.1.3,Win32,9.997700529,,,,,,,,,,,,,,,,,,,,,,,,,,,,,,,,,,,,,,,,,,,,,,,1522.3622,right,0.2605,,1.5,0.3,"[2,3,1]",0.309437287,stimuli/card_100_transparent.png,730,100,14,0,14,0,1,,,,,
,,,,2,2023-10-27_13h11.35.047,SlotMachine_updated,2023.1.3,Win32,9.997700529,,,,,,,,,,,,,,,,,,,,,,,,,,,,,1524.4626,,,,,,,,,,,,,,,,,,,,,,,,,,,,,,,,,,7,0,7,0,1
,,,,2,2023-10-27_13h11.35.047,SlotMachine_updated,2023.1.3,Win32,9.997700529,,,,,,,,,,,,,,,,,,,,,,,,,,,,,,,,,,,,,,,,,,,9,9,[15],"[[3,1,2]]",1529.4847,right,0.4235,,1,0.3,"[3,1,2]",0.938880427,stimuli/card_10_transparent.png,10,10,0,0,0,0,1,,,,,
,,,,2,2023-10-27_13h11.35.047,SlotMachine_updated,2023.1.3,Win32,9.997700529,,,,,,,,,,,,,,,,,,,,,,,,,,,,,,,,,,,,,,,,,,,,,,,1531.2095,up,0.3561,,1.5,0.3,"[3,1,2]",0.159781481,stimuli/card_10_transparent.png,20,10,1,0,1,0,1,,,,,
,,,,2,2023-10-27_13h11.35.047,SlotMachine_updated,2023.1.3,Win32,9.997700529,,,,,,,,,,,,,,,,,,,,,,,,,,,,,,,,,,,,,,,,,,,,,,,1533.42,left,0.3666,,0.5,0.3,"[3,1,2]",0.016299276,stimuli/card_100_transparent.png,120,100,2,0,2,0,1,,,,,
,,,,2,2023-10-27_13h11.35.047,SlotMachine_updated,2023.1.3,Win32,9.997700529,,,,,,,,,,,,,,,,,,,,,,,,,,,,,,,,,,,,,,,,,,,,,,,1534.6192,left,0.3563,,1.5,0.3,"[3,1,2]",0.301447821,stimuli/card_0_transparent.png,120,0,3,0,3,0,1,,,,,
,,,,2,2023-10-27_13h11.35.047,SlotMachine_updated,2023.1.3,Win32,9.997700529,,,,,,,,,,,,,,,,,,,,,,,,,,,,,,,,,,,,,,,,,,,,,,,1536.7974,up,0.4933,,1.5,0.3,"[3,1,2]",0.72882369,stimuli/card_100_transparent.png,220,100,4,0,4,0,1,,,,,
,,,,2,2023-10-27_13h11.35.047,SlotMachine_updated,2023.1.3,Win32,9.997700529,,,,,,,,,,,,,,,,,,,,,,,,,,,,,,,,,,,,,,,,,,,,,,,1539.1545,up,0.3732,,1,0.3,"[3,1,2]",0.063511042,stimuli/card_0_transparent.png,220,0,5,0,5,0,1,,,,,
,,,,2,2023-10-27_13h11.35.047,SlotMachine_updated,2023.1.3,Win32,9.997700529,,,,,,,,,,,,,,,,,,,,,,,,,,,,,,,,,,,,,,,,,,,,,,,1540.827,up,0.49,,1,0.3,"[3,1,2]",0.631586543,stimuli/card_100_transparent.png,320,100,6,0,6,0,1,,,,,
,,,,2,2023-10-27_13h11.35.047,SlotMachine_updated,2023.1.3,Win32,9.997700529,,,,,,,,,,,,,,,,,,,,,,,,,,,,,,,,,,,,,,,,,,,,,,,1542.6952,up,0.2379,,0.5,0.3,"[3,1,2]",0.810388739,stimuli/card_100_transparent.png,420,100,7,0,7,0,1,,,,,
,,,,2,2023-10-27_13h11.35.047,SlotMachine_updated,2023.1.3,Win32,9.997700529,,,,,,,,,,,,,,,,,,,,,,,,,,,,,,,,,,,,,,,,,,,,,,,1543.8007,up,0.3702,,0.5,0.3,"[3,1,2]",0.912945992,stimuli/card_100_transparent.png,520,100,8,0,8,0,1,,,,,
,,,,2,2023-10-27_13h11.35.047,SlotMachine_updated,2023.1.3,Win32,9.997700529,,,,,,,,,,,,,,,,,,,,,,,,,,,,,,,,,,,,,,,,,,,,,,,1545.0036,up,0.3684,,1.5,0.3,"[3,1,2]",0.859125674,stimuli/card_100_transparent.png,620,100,9,0,9,0,1,,,,,
,,,,2,2023-10-27_13h11.35.047,SlotMachine_updated,2023.1.3,Win32,9.997700529,,,,,,,,,,,,,,,,,,,,,,,,,,,,,,,,,,,,,,,,,,,,,,,1547.2074,up,0.354,,1.5,0.3,"[3,1,2]",0.902001328,stimuli/card_100_transparent.png,720,100,10,0,10,0,1,,,,,
,,,,2,2023-10-27_13h11.35.047,SlotMachine_updated,2023.1.3,Win32,9.997700529,,,,,,,,,,,,,,,,,,,,,,,,,,,,,,,,,,,,,,,,,,,,,,,1549.3799,up,0.3622,,1.5,0.3,"[3,1,2]",0.687412343,stimuli/card_100_transparent.png,820,100,11,0,11,0,1,,,,,
,,,,2,2023-10-27_13h11.35.047,SlotMachine_updated,2023.1.3,Win32,9.997700529,,,,,,,,,,,,,,,,,,,,,,,,,,,,,,,,,,,,,,,,,,,,,,,1551.5535,up,0.3666,,1,0.3,"[3,1,2]",0.585627834,stimuli/card_100_transparent.png,920,100,12,0,12,0,1,,,,,
,,,,2,2023-10-27_13h11.35.047,SlotMachine_updated,2023.1.3,Win32,9.997700529,,,,,,,,,,,,,,,,,,,,,,,,,,,,,,,,,,,,,,,,,,,,,,,1553.1876,up,0.3541,,1,0.3,"[3,1,2]",0.76610281,stimuli/card_100_transparent.png,1020,100,13,0,13,0,1,,,,,
,,,,2,2023-10-27_13h11.35.047,SlotMachine_updated,2023.1.3,Win32,9.997700529,,,,,,,,,,,,,,,,,,,,,,,,,,,,,,,,,,,,,,,,,,,,,,,1554.8743,up,0.2383,,1,0.3,"[3,1,2]",0.534211774,stimuli/card_100_transparent.png,1120,100,14,0,14,0,1,,,,,
,,,,2,2023-10-27_13h11.35.047,SlotMachine_updated,2023.1.3,Win32,9.997700529,,,,,,,,,,,,,,,,,,,,,,,,,,,,,1556.5332,,,,,,,,,,,,,,,,,,,,,,,,,,,,,,,,,,8,0,8,0,1
,,,,2,2023-10-27_13h11.35.047,SlotMachine_updated,2023.1.3,Win32,9.997700529,,,,,,,,,,,,,,,,,,,,,,,,,,,,,,,,,,,,,,,,,,,10,6,"[4,10,15]","[[2,3,1],[1,3,2],[3,2,1]]",1561.4953,right,2.6237,0.0001,0.5,0.3,"[2,3,1]",0.894049306,stimuli/card_100_transparent.png,100,100,0,0,0,0,1,,,,,
,,,,2,2023-10-27_13h11.35.047,SlotMachine_updated,2023.1.3,Win32,9.997700529,,,,,,,,,,,,,,,,,,,,,,,,,,,,,,,,,,,,,,,,,,,,,,,1564.9196,right,0.5318,,1,0.3,"[2,3,1]",0.870723166,stimuli/card_100_transparent.png,200,100,1,0,1,0,1,,,,,
,,,,2,2023-10-27_13h11.35.047,SlotMachine_updated,2023.1.3,Win32,9.997700529,,,,,,,,,,,,,,,,,,,,,,,,,,,,,,,,,,,,,,,,,,,,,,,1566.7236,right,0.2456,,1,0.3,"[2,3,1]",0.70069779,stimuli/card_100_transparent.png,300,100,2,0,2,0,1,,,,,
,,,,2,2023-10-27_13h11.35.047,SlotMachine_updated,2023.1.3,Win32,9.997700529,,,,,,,,,,,,,,,,,,,,,,,,,,,,,,,,,,,,,,,,,,,,,,,1568.4435,right,0.1289,,0.5,0.3,"[2,3,1]",0.802146337,stimuli/card_100_transparent.png,400,100,3,0,3,0,1,,,,,
,,,,2,2023-10-27_13h11.35.047,SlotMachine_updated,2023.1.3,Win32,9.997700529,,,,,,,,,,,,,,,,,,,,,,,,,,,,,,,,,,,,,,,,,,,,,,,1569.439,right,0.1312,,0.5,0.3,"[1,3,2]",0.975531367,stimuli/card_10_transparent.png,410,10,4,0,4,0,1,,,,,
,,,,2,2023-10-27_13h11.35.047,SlotMachine_updated,2023.1.3,Win32,9.997700529,,,,,,,,,,,,,,,,,,,,,,,,,,,,,,,,,,,,,,,,,,,,,,,1570.3853,right,0.3455,,0.5,0.3,"[1,3,2]",0.483563732,stimuli/card_10_transparent.png,420,10,5,0,5,0,1,,,,,
,,,,2,2023-10-27_13h11.35.047,SlotMachine_updated,2023.1.3,Win32,9.997700529,,,,,,,,,,,,,,,,,,,,,,,,,,,,,,,,,,,,,,,,,,,,,,,1571.561,up,0.6527,,1,0.3,"[1,3,2]",0.494563417,stimuli/card_0_transparent.png,420,0,6,0,6,0,1,,,,,
,,,,2,2023-10-27_13h11.35.047,SlotMachine_updated,2023.1.3,Win32,9.997700529,,,,,,,,,,,,,,,,,,,,,,,,,,,,,,,,,,,,,,,,,,,,,,,1573.5437,left,0.2499,,0.5,0.3,"[1,3,2]",0.402634539,stimuli/card_100_transparent.png,520,100,7,0,7,0,1,,,,,
,,,,2,2023-10-27_13h11.35.047,SlotMachine_updated,2023.1.3,Win32,9.997700529,,,,,,,,,,,,,,,,,,,,,,,,,,,,,,,,,,,,,,,,,,,,,,,1574.6525,left,0.2498,,1.5,0.3,"[1,3,2]",0.962271624,stimuli/card_100_transparent.png,620,100,8,0,8,0,1,,,,,
,,,,2,2023-10-27_13h11.35.047,SlotMachine_updated,2023.1.3,Win32,9.997700529,,,,,,,,,,,,,,,,,,,,,,,,,,,,,,,,,,,,,,,,,,,,,,,1576.7519,left,0.2483,,0.5,0.3,"[1,3,2]",0.541256831,stimuli/card_100_transparent.png,720,100,9,0,9,0,1,,,,,
,,,,2,2023-10-27_13h11.35.047,SlotMachine_updated,2023.1.3,Win32,9.997700529,,,,,,,,,,,,,,,,,,,,,,,,,,,,,,,,,,,,,,,,,,,,,,,1577.8688,left,0.3629,,1.5,0.3,"[3,2,1]",0.982942193,stimuli/card_0_transparent.png,720,0,10,0,10,0,1,,,,,
,,,,2,2023-10-27_13h11.35.047,SlotMachine_updated,2023.1.3,Win32,9.997700529,,,,,,,,,,,,,,,,,,,,,,,,,,,,,,,,,,,,,,,,,,,,,,,1580.1099,up,0.6943,,1.5,0.3,"[3,2,1]",0.799890937,stimuli/card_10_transparent.png,730,10,11,0,11,0,1,,,,,
,,,,2,2023-10-27_13h11.35.047,SlotMachine_updated,2023.1.3,Win32,9.997700529,,,,,,,,,,,,,,,,,,,,,,,,,,,,,,,,,,,,,,,,,,,,,,,1582.7192,left,0.4912,,1,0.3,"[3,2,1]",0.916131697,stimuli/card_0_transparent.png,730,0,12,0,12,0,1,,,,,
,,,,2,2023-10-27_13h11.35.047,SlotMachine_updated,2023.1.3,Win32,9.997700529,,,,,,,,,,,,,,,,,,,,,,,,,,,,,,,,,,,,,,,,,,,,,,,1584.5874,right,0.3014,,0.5,0.3,"[3,2,1]",0.322899878,stimuli/card_100_transparent.png,830,100,13,0,13,0,1,,,,,
,,,,2,2023-10-27_13h11.35.047,SlotMachine_updated,2023.1.3,Win32,9.997700529,,,,,,,,,,,,,,,,,,,,,,,,,,,,,,,,,,,,,,,,,,,,,,,1585.6726,right,0.3743,,1,0.3,"[3,2,1]",0.711006491,stimuli/card_100_transparent.png,930,100,14,0,14,0,1,,,,,
,,,,2,2023-10-27_13h11.35.047,SlotMachine_updated,2023.1.3,Win32,9.997700529,,,,,,,,,,,,,,,,,,,,,,,,,,,,,1587.3353,,,,,,,,,,,,,,,,,,,,,,,,,,,,,,,,,,9,0,9,0,1
,,,,2,2023-10-27_13h11.35.047,SlotMachine_updated,2023.1.3,Win32,9.997700529,,,,,,,,,,,,,,,,,,,,,,,,,,,,,,,,,,,,,,,,,,,,,,,,,,,,,,,,,,,,,,,,,,,
