key_resp_welcome_started,key_resp_welcome_keys,key_resp_welcome_rt,key_resp_welcome_duration,prolific_id,path_id,date,expName,psychopyVersion,OS,frameRate,key_resp_instruction1_started,key_resp_instruction1_keys,key_resp_instruction1_rt,key_resp_instruction1_duration,key_resp_instruction2_started,key_resp_instruction2_keys,key_resp_instruction2_rt,key_resp_instruction2_duration,key_resp_instruction3_started,key_resp_instruction3_keys,key_resp_instruction3_rt,key_resp_instruction3_duration,key_resp_instruction4_started,key_resp_instruction4_keys,key_resp_instruction4_rt,key_resp_instruction4_duration,practiceCondition,practice_reward_seqs,practice_trial_started,practice_trial_num,practice_resp_rt,practice_resp_duration,practice_resp_keys,prac_presentationInterval,"practice_reward_seq: 2,1,3",reward_img,cumulative_reward,trial_reward,practice_trials.thisRepN,practice_trials.thisTrialN,practice_trials.thisN,practice_trials.thisIndex,practice_trials.ran,"practice_reward_seq: 2,3,1",block_break_started,"practice_reward_seq: 1,3,2","practice_reward_seq: 3,1,2",practice_end_time,practice_end_keys,practice_end_rt,practice_end_duration,main_instruction_text_started,block_condition,block_order_indices,main_instruction_keys,main_instruction_rt,main_instruction_duration,block_number,block_assignment,current_condition,main_reward_seqs,main_trial_started,main_trial_num,main_trial_keys,main_trial_rt,main_trial_duration,main_presentationInterval,reward_presentation_time,main_reward_seq,reward_rand_val,main_reward_img,current_reward,main_trials.thisRepN,main_trials.thisTrialN,main_trials.thisN,main_trials.thisIndex,main_trials.ran,block_reward,block.thisRepN,block.thisTrialN,block.thisN,block.thisIndex,block.ran,block_reward.length,block_reward_all,reward_amount,date_end_task
0.0004,space,1.7313,,5589a2ddfdf99b7ae47f60ed,A,2024-07-04_07h43.25.968,Slot Machine Game,2023.1.3,Win32,74.07407407,,,,,,,,,,,,,,,,,,,,,,,,,,,,,,,,,,,,,,,,,,,,,,,,,,,,,,,,,,,,,,,,,,,,,,,,,,,,,
,,,,5589a2ddfdf99b7ae47f60ed,A,2024-07-04_07h43.25.968,Slot Machine Game,2023.1.3,Win32,74.07407407,1.7422,space,3.4311,,,,,,,,,,,,,,,,,,,,,,,,,,,,,,,,,,,,,,,,,,,,,,,,,,,,,,,,,,,,,,,,,,,,,,,,,,
,,,,5589a2ddfdf99b7ae47f60ed,A,2024-07-04_07h43.25.968,Slot Machine Game,2023.1.3,Win32,74.07407407,,,,,5.1852,space,10.2772,,,,,,,,,,,,,,,,,,,,,,,,,,,,,,,,,,,,,,,,,,,,,,,,,,,,,,,,,,,,,,,,,,,,,,
,,,,5589a2ddfdf99b7ae47f60ed,A,2024-07-04_07h43.25.968,Slot Machine Game,2023.1.3,Win32,74.07407407,,,,,,,,,15.5087,space,4.3786,,,,,,,,,,,,,,,,,,,,,,,,,,,,,,,,,,,,,,,,,,,,,,,,,,,,,,,,,,,,,,,,,,
,,,,5589a2ddfdf99b7ae47f60ed,A,2024-07-04_07h43.25.968,Slot Machine Game,2023.1.3,Win32,74.07407407,,,,,,,,,,,,,,,,,,,,,,,,,,,,,,,,,,,,,,,,,,,,,,,,,,,,,,,,,,,,,,,,,,,,,,,,,,,,,
,,,,5589a2ddfdf99b7ae47f60ed,A,2024-07-04_07h43.25.968,Slot Machine Game,2023.1.3,Win32,74.07407407,,,,,,,,,,,,,161.5509,space,22.6514,,,,,,,,,,,,,,,,,,,,,,,,,,,,,,,,,,,,,,,,,,,,,,,,,,,,,,,,,,,,,,
,,,,5589a2ddfdf99b7ae47f60ed,A,2024-07-04_07h43.25.968,Slot Machine Game,2023.1.3,Win32,74.07407407,,,,,,,,,,,,,,,,,"[9,15]","[[2,1,3],[2,3,1]]",184.2233,0,1.6533,,left,0.5,,stimuli/card_0_transparent.png,0,0,0,0,0,0,1,,,,,,,,,,,,,,,,,,,,,,,,,,,,,,,,,,,,,,,,,,,,
,,,,5589a2ddfdf99b7ae47f60ed,A,2024-07-04_07h43.25.968,Slot Machine Game,2023.1.3,Win32,74.07407407,,,,,,,,,,,,,,,,,,,187.1952,1,0.814,,up,1,,stimuli/card_100_transparent.png,100,100,1,0,1,0,1,,,,,,,,,,,,,,,,,,,,,,,,,,,,,,,,,,,,,,,,,,,,
,,,,5589a2ddfdf99b7ae47f60ed,A,2024-07-04_07h43.25.968,Slot Machine Game,2023.1.3,Win32,74.07407407,,,,,,,,,,,,,,,,,,,189.824,2,0.6804,,up,0.5,,stimuli/card_100_transparent.png,200,100,2,0,2,0,1,,,,,,,,,,,,,,,,,,,,,,,,,,,,,,,,,,,,,,,,,,,,
,,,,5589a2ddfdf99b7ae47f60ed,A,2024-07-04_07h43.25.968,Slot Machine Game,2023.1.3,Win32,74.07407407,,,,,,,,,,,,,,,,,,,191.8118,3,0.2264,,up,1.5,,stimuli/card_100_transparent.png,300,100,3,0,3,0,1,,,,,,,,,,,,,,,,,,,,,,,,,,,,,,,,,,,,,,,,,,,,
,,,,5589a2ddfdf99b7ae47f60ed,A,2024-07-04_07h43.25.968,Slot Machine Game,2023.1.3,Win32,74.07407407,,,,,,,,,,,,,,,,,,,194.3315,4,0.1647,,up,1,,stimuli/card_100_transparent.png,400,100,4,0,4,0,1,,,,,,,,,,,,,,,,,,,,,,,,,,,,,,,,,,,,,,,,,,,,
,,,,5589a2ddfdf99b7ae47f60ed,A,2024-07-04_07h43.25.968,Slot Machine Game,2023.1.3,Win32,74.07407407,,,,,,,,,,,,,,,,,,,196.3056,5,2.6232,,up,1,,stimuli/card_100_transparent.png,500,100,5,0,5,0,1,,,,,,,,,,,,,,,,,,,,,,,,,,,,,,,,,,,,,,,,,,,,
,,,,5589a2ddfdf99b7ae47f60ed,A,2024-07-04_07h43.25.968,Slot Machine Game,2023.1.3,Win32,74.07407407,,,,,,,,,,,,,,,,,,,200.7342,6,0.2428,,up,0.5,,stimuli/card_100_transparent.png,600,100,6,0,6,0,1,,,,,,,,,,,,,,,,,,,,,,,,,,,,,,,,,,,,,,,,,,,,
,,,,5589a2ddfdf99b7ae47f60ed,A,2024-07-04_07h43.25.968,Slot Machine Game,2023.1.3,Win32,74.07407407,,,,,,,,,,,,,,,,,,,202.2816,7,0.5784,,up,0.5,,stimuli/card_100_transparent.png,700,100,7,0,7,0,1,,,,,,,,,,,,,,,,,,,,,,,,,,,,,,,,,,,,,,,,,,,,
,,,,5589a2ddfdf99b7ae47f60ed,A,2024-07-04_07h43.25.968,Slot Machine Game,2023.1.3,Win32,74.07407407,,,,,,,,,,,,,,,,,,,204.1754,8,0.2091,,up,0.5,,stimuli/card_100_transparent.png,800,100,8,0,8,0,1,,,,,,,,,,,,,,,,,,,,,,,,,,,,,,,,,,,,,,,,,,,,
,,,,5589a2ddfdf99b7ae47f60ed,A,2024-07-04_07h43.25.968,Slot Machine Game,2023.1.3,Win32,74.07407407,,,,,,,,,,,,,,,,,,,205.683,9,0.1422,,up,1.5,,stimuli/card_0_transparent.png,800,0,9,0,9,0,1,,,,,,,,,,,,,,,,,,,,,,,,,,,,,,,,,,,,,,,,,,,,
,,,,5589a2ddfdf99b7ae47f60ed,A,2024-07-04_07h43.25.968,Slot Machine Game,2023.1.3,Win32,74.07407407,,,,,,,,,,,,,,,,,,,208.124,10,0.2854,,up,0.5,,stimuli/card_0_transparent.png,800,0,10,0,10,0,1,,,,,,,,,,,,,,,,,,,,,,,,,,,,,,,,,,,,,,,,,,,,
,,,,5589a2ddfdf99b7ae47f60ed,A,2024-07-04_07h43.25.968,Slot Machine Game,2023.1.3,Win32,74.07407407,,,,,,,,,,,,,,,,,,,209.7113,11,0.283,,right,0.5,,stimuli/card_100_transparent.png,900,100,11,0,11,0,1,,,,,,,,,,,,,,,,,,,,,,,,,,,,,,,,,,,,,,,,,,,,
,,,,5589a2ddfdf99b7ae47f60ed,A,2024-07-04_07h43.25.968,Slot Machine Game,2023.1.3,Win32,74.07407407,,,,,,,,,,,,,,,,,,,211.299,12,0.5279,,right,0.5,,stimuli/card_100_transparent.png,1000,100,12,0,12,0,1,,,,,,,,,,,,,,,,,,,,,,,,,,,,,,,,,,,,,,,,,,,,
,,,,5589a2ddfdf99b7ae47f60ed,A,2024-07-04_07h43.25.968,Slot Machine Game,2023.1.3,Win32,74.07407407,,,,,,,,,,,,,,,,,,,213.1264,13,0.1434,,right,0.5,,stimuli/card_100_transparent.png,1100,100,13,0,13,0,1,,,,,,,,,,,,,,,,,,,,,,,,,,,,,,,,,,,,,,,,,,,,
,,,,5589a2ddfdf99b7ae47f60ed,A,2024-07-04_07h43.25.968,Slot Machine Game,2023.1.3,Win32,74.07407407,,,,,,,,,,,,,,,,,,,214.5801,14,0.2143,,right,1.5,,stimuli/card_100_transparent.png,1200,100,14,0,14,0,1,,,,,,,,,,,,,,,,,,,,,,,,,,,,,,,,,,,,,,,,,,,,
,,,,5589a2ddfdf99b7ae47f60ed,A,2024-07-04_07h43.25.968,Slot Machine Game,2023.1.3,Win32,74.07407407,,,,,,,,,,,,,,,,,"[6,15]","[[1,3,2],[3,1,2]]",222.1098,0,,,,1.5,,,,,0,0,0,0,1,,217.1079,,,,,,,,,,,,,,,,,,,,,,,,,,,,,,,,,,,,,,,,,,
,,,,5589a2ddfdf99b7ae47f60ed,A,2024-07-04_07h43.25.968,Slot Machine Game,2023.1.3,Win32,74.07407407,,,,,,,,,,,,,,,,,,,227.6143,1,1.6433,,up,1.5,,stimuli/card_10_transparent.png,10,10,1,0,1,0,1,,,,,,,,,,,,,,,,,,,,,,,,,,,,,,,,,,,,,,,,,,,,
,,,,5589a2ddfdf99b7ae47f60ed,A,2024-07-04_07h43.25.968,Slot Machine Game,2023.1.3,Win32,74.07407407,,,,,,,,,,,,,,,,,,,231.574,2,1.6926,,up,1.5,,stimuli/card_0_transparent.png,10,0,2,0,2,0,1,,,,,,,,,,,,,,,,,,,,,,,,,,,,,,,,,,,,,,,,,,,,
,,,,5589a2ddfdf99b7ae47f60ed,A,2024-07-04_07h43.25.968,Slot Machine Game,2023.1.3,Win32,74.07407407,,,,,,,,,,,,,,,,,,,235.5625,3,0.115,,right,0.5,,stimuli/card_10_transparent.png,20,10,3,0,3,0,1,,,,,,,,,,,,,,,,,,,,,,,,,,,,,,,,,,,,,,,,,,,,
,,,,5589a2ddfdf99b7ae47f60ed,A,2024-07-04_07h43.25.968,Slot Machine Game,2023.1.3,Win32,74.07407407,,,,,,,,,,,,,,,,,,,236.9771,4,0.0807,,left,0.5,,stimuli/card_100_transparent.png,120,100,4,0,4,0,1,,,,,,,,,,,,,,,,,,,,,,,,,,,,,,,,,,,,,,,,,,,,
,,,,5589a2ddfdf99b7ae47f60ed,A,2024-07-04_07h43.25.968,Slot Machine Game,2023.1.3,Win32,74.07407407,,,,,,,,,,,,,,,,,,,238.3769,5,0.1484,,left,1,,stimuli/card_100_transparent.png,220,100,5,0,5,0,1,,,,,,,,,,,,,,,,,,,,,,,,,,,,,,,,,,,,,,,,,,,,
,,,,5589a2ddfdf99b7ae47f60ed,A,2024-07-04_07h43.25.968,Slot Machine Game,2023.1.3,Win32,74.07407407,,,,,,,,,,,,,,,,,,,240.3378,6,0.1336,,left,1.5,,stimuli/card_0_transparent.png,220,0,6,0,6,0,1,,,,,,,,,,,,,,,,,,,,,,,,,,,,,,,,,,,,,,,,,,,,
,,,,5589a2ddfdf99b7ae47f60ed,A,2024-07-04_07h43.25.968,Slot Machine Game,2023.1.3,Win32,74.07407407,,,,,,,,,,,,,,,,,,,242.7656,7,0.6164,,left,0.5,,stimuli/card_100_transparent.png,320,100,7,0,7,0,1,,,,,,,,,,,,,,,,,,,,,,,,,,,,,,,,,,,,,,,,,,,,
,,,,5589a2ddfdf99b7ae47f60ed,A,2024-07-04_07h43.25.968,Slot Machine Game,2023.1.3,Win32,74.07407407,,,,,,,,,,,,,,,,,,,244.6866,8,2.7215,,left,0.5,,stimuli/card_0_transparent.png,320,0,8,0,8,0,1,,,,,,,,,,,,,,,,,,,,,,,,,,,,,,,,,,,,,,,,,,,,
,,,,5589a2ddfdf99b7ae47f60ed,A,2024-07-04_07h43.25.968,Slot Machine Game,2023.1.3,Win32,74.07407407,,,,,,,,,,,,,,,,,,,248.7147,9,0.1459,,left,1.5,,stimuli/card_10_transparent.png,330,10,9,0,9,0,1,,,,,,,,,,,,,,,,,,,,,,,,,,,,,,,,,,,,,,,,,,,,
,,,,5589a2ddfdf99b7ae47f60ed,A,2024-07-04_07h43.25.968,Slot Machine Game,2023.1.3,Win32,74.07407407,,,,,,,,,,,,,,,,,,,251.1558,10,0.0463,,up,0.5,,stimuli/card_100_transparent.png,430,100,10,0,10,0,1,,,,,,,,,,,,,,,,,,,,,,,,,,,,,,,,,,,,,,,,,,,,
,,,,5589a2ddfdf99b7ae47f60ed,A,2024-07-04_07h43.25.968,Slot Machine Game,2023.1.3,Win32,74.07407407,,,,,,,,,,,,,,,,,,,252.5163,11,0.2114,,up,0.5,,stimuli/card_100_transparent.png,530,100,11,0,11,0,1,,,,,,,,,,,,,,,,,,,,,,,,,,,,,,,,,,,,,,,,,,,,
,,,,5589a2ddfdf99b7ae47f60ed,A,2024-07-04_07h43.25.968,Slot Machine Game,2023.1.3,Win32,74.07407407,,,,,,,,,,,,,,,,,,,254.0238,12,0.2406,,up,1,,stimuli/card_100_transparent.png,630,100,12,0,12,0,1,,,,,,,,,,,,,,,,,,,,,,,,,,,,,,,,,,,,,,,,,,,,
,,,,5589a2ddfdf99b7ae47f60ed,A,2024-07-04_07h43.25.968,Slot Machine Game,2023.1.3,Win32,74.07407407,,,,,,,,,,,,,,,,,,,256.0645,13,0.1733,,up,1,,stimuli/card_10_transparent.png,640,10,13,0,13,0,1,,,,,,,,,,,,,,,,,,,,,,,,,,,,,,,,,,,,,,,,,,,,
,,,,5589a2ddfdf99b7ae47f60ed,A,2024-07-04_07h43.25.968,Slot Machine Game,2023.1.3,Win32,74.07407407,,,,,,,,,,,,,,,,,,,258.0387,14,0.0973,,up,1,,stimuli/card_100_transparent.png,740,100,14,0,14,0,1,,,,,,,,,,,,,,,,,,,,,,,,,,,,,,,,,,,,,,,,,,,,
,,,,5589a2ddfdf99b7ae47f60ed,A,2024-07-04_07h43.25.968,Slot Machine Game,2023.1.3,Win32,74.07407407,,,,,,,,,,,,,,,,,,,,,,,,,,,,,,,,,,,259.9462,,,264.9486,space,2.7543,,,,,,,,,,,,,,,,,,,,,,,,,,,,,,,,,,,,,
,,,,5589a2ddfdf99b7ae47f60ed,A,2024-07-04_07h43.25.968,Slot Machine Game,2023.1.3,Win32,74.07407407,,,,,,,,,,,,,,,,,,,,,,,,,,,,,,,,,,,,,,,,,,267.7235,2,"[2,4,8,0,1,3,9,6,8,5]",space,1.4841,,,,,,,,,,,,,,,,,,,,,,,,,,,,,,,
,,,,5589a2ddfdf99b7ae47f60ed,A,2024-07-04_07h43.25.968,Slot Machine Game,2023.1.3,Win32,74.07407407,,,,,,,,,,,,,,,,,,,,,,,,,,,0,,,,,,,,,,,,,,,,,,,,,1,3,"[15,15]","[[3,1,2],[3,1,2]]",269.2387,0,left,0.3922,,1.5,0.3,"[3,1,2]",0.305449387,stimuli/card_0_transparent.png,0,0,0,0,0,1,,,,,,,,,,
,,,,5589a2ddfdf99b7ae47f60ed,A,2024-07-04_07h43.25.968,Slot Machine Game,2023.1.3,Win32,74.07407407,,,,,,,,,,,,,,,,,,,,,,,,,,,100,,,,,,,,,,,,,,,,,,,,,1,3,,,271.9515,1,up,0.1542,,1.5,0.3,"[3,1,2]",0.294233455,stimuli/card_100_transparent.png,100,1,0,1,0,1,,,,,,,,,,
,,,,5589a2ddfdf99b7ae47f60ed,A,2024-07-04_07h43.25.968,Slot Machine Game,2023.1.3,Win32,74.07407407,,,,,,,,,,,,,,,,,,,,,,,,,,,200,,,,,,,,,,,,,,,,,,,,,1,3,,,274.4057,2,up,0.1569,,0.5,0.3,"[3,1,2]",0.261553785,stimuli/card_100_transparent.png,100,2,0,2,0,1,,,,,,,,,,
,,,,5589a2ddfdf99b7ae47f60ed,A,2024-07-04_07h43.25.968,Slot Machine Game,2023.1.3,Win32,74.07407407,,,,,,,,,,,,,,,,,,,,,,,,,,,300,,,,,,,,,,,,,,,,,,,,,1,3,,,275.8605,3,up,0.3905,,1,0.3,"[3,1,2]",0.23539721,stimuli/card_100_transparent.png,100,3,0,3,0,1,,,,,,,,,,
,,,,5589a2ddfdf99b7ae47f60ed,A,2024-07-04_07h43.25.968,Slot Machine Game,2023.1.3,Win32,74.07407407,,,,,,,,,,,,,,,,,,,,,,,,,,,400,,,,,,,,,,,,,,,,,,,,,1,3,,,278.0606,4,up,0.4267,,1,0.3,"[3,1,2]",0.872939671,stimuli/card_100_transparent.png,100,4,0,4,0,1,,,,,,,,,,
,,,,5589a2ddfdf99b7ae47f60ed,A,2024-07-04_07h43.25.968,Slot Machine Game,2023.1.3,Win32,74.07407407,,,,,,,,,,,,,,,,,,,,,,,,,,,500,,,,,,,,,,,,,,,,,,,,,1,3,,,280.2886,5,up,0.0177,,1,0.3,"[3,1,2]",0.692906408,stimuli/card_100_transparent.png,100,5,0,5,0,1,,,,,,,,,,
,,,,5589a2ddfdf99b7ae47f60ed,A,2024-07-04_07h43.25.968,Slot Machine Game,2023.1.3,Win32,74.07407407,,,,,,,,,,,,,,,,,,,,,,,,,,,600,,,,,,,,,,,,,,,,,,,,,1,3,,,282.1157,6,up,0.367,,0.5,0.3,"[3,1,2]",0.923458153,stimuli/card_100_transparent.png,100,6,0,6,0,1,,,,,,,,,,
,,,,5589a2ddfdf99b7ae47f60ed,A,2024-07-04_07h43.25.968,Slot Machine Game,2023.1.3,Win32,74.07407407,,,,,,,,,,,,,,,,,,,,,,,,,,,700,,,,,,,,,,,,,,,,,,,,,1,3,,,283.7832,7,up,0.1268,,1,0.3,"[3,1,2]",0.915557207,stimuli/card_100_transparent.png,100,7,0,7,0,1,,,,,,,,,,
,,,,5589a2ddfdf99b7ae47f60ed,A,2024-07-04_07h43.25.968,Slot Machine Game,2023.1.3,Win32,74.07407407,,,,,,,,,,,,,,,,,,,,,,,,,,,800,,,,,,,,,,,,,,,,,,,,,1,3,,,285.7308,8,up,0.0267,,1,0.3,"[3,1,2]",0.827642725,stimuli/card_100_transparent.png,100,8,0,8,0,1,,,,,,,,,,
,,,,5589a2ddfdf99b7ae47f60ed,A,2024-07-04_07h43.25.968,Slot Machine Game,2023.1.3,Win32,74.07407407,,,,,,,,,,,,,,,,,,,,,,,,,,,900,,,,,,,,,,,,,,,,,,,,,1,3,,,287.5586,9,up,0.3526,,1.5,0.3,"[3,1,2]",0.695495703,stimuli/card_100_transparent.png,100,9,0,9,0,1,,,,,,,,,,
,,,,5589a2ddfdf99b7ae47f60ed,A,2024-07-04_07h43.25.968,Slot Machine Game,2023.1.3,Win32,74.07407407,,,,,,,,,,,,,,,,,,,,,,,,,,,1000,,,,,,,,,,,,,,,,,,,,,1,3,,,290.226,10,up,0.354,,1.5,0.3,"[3,1,2]",0.644875752,stimuli/card_100_transparent.png,100,10,0,10,0,1,,,,,,,,,,
,,,,5589a2ddfdf99b7ae47f60ed,A,2024-07-04_07h43.25.968,Slot Machine Game,2023.1.3,Win32,74.07407407,,,,,,,,,,,,,,,,,,,,,,,,,,,1100,,,,,,,,,,,,,,,,,,,,,1,3,,,292.8805,11,up,0.0002,,1,0.3,"[3,1,2]",0.924907312,stimuli/card_100_transparent.png,100,11,0,11,0,1,,,,,,,,,,
,,,,5589a2ddfdf99b7ae47f60ed,A,2024-07-04_07h43.25.968,Slot Machine Game,2023.1.3,Win32,74.07407407,,,,,,,,,,,,,,,,,,,,,,,,,,,1100,,,,,,,,,,,,,,,,,,,,,1,3,,,294.6944,12,up,0.0457,,1.5,0.3,"[3,1,2]",0.079942964,stimuli/card_0_transparent.png,0,12,0,12,0,1,,,,,,,,,,
,,,,5589a2ddfdf99b7ae47f60ed,A,2024-07-04_07h43.25.968,Slot Machine Game,2023.1.3,Win32,74.07407407,,,,,,,,,,,,,,,,,,,,,,,,,,,1200,,,,,,,,,,,,,,,,,,,,,1,3,,,297.0422,13,up,0.0024,,1,0.3,"[3,1,2]",0.515556212,stimuli/card_100_transparent.png,100,13,0,13,0,1,,,,,,,,,,
,,,,5589a2ddfdf99b7ae47f60ed,A,2024-07-04_07h43.25.968,Slot Machine Game,2023.1.3,Win32,74.07407407,,,,,,,,,,,,,,,,,,,,,,,,,,,1210,,,,,,,,,,,,,,,,,,,,,1,3,,,298.8562,14,up,0.1465,,1,0.3,"[3,1,2]",0.176286809,stimuli/card_10_transparent.png,10,14,0,14,0,1,,,,,,,,,,
,,,,5589a2ddfdf99b7ae47f60ed,A,2024-07-04_07h43.25.968,Slot Machine Game,2023.1.3,Win32,74.07407407,,,,,,,,,,,,,,,,,,,,,,,,,,,,,,,,,,,300.8049,,,,,,,,,,,,,,,,,,,,,,,,,,,,,,,,,[1210],0,0,0,0,1,,,,
,,,,5589a2ddfdf99b7ae47f60ed,A,2024-07-04_07h43.25.968,Slot Machine Game,2023.1.3,Win32,74.07407407,,,,,,,,,,,,,,,,,,,,,,,,,,,10,,,,,,,,,,,,,,,,,,,,,2,5,"[5,15]","[[1,2,3],[3,1,2]]",305.8136,0,up,0.0825,,0.5,0.3,"[1,2,3]",0.3626812,stimuli/card_10_transparent.png,10,0,0,0,0,1,,,,,,,,,,
,,,,5589a2ddfdf99b7ae47f60ed,A,2024-07-04_07h43.25.968,Slot Machine Game,2023.1.3,Win32,74.07407407,,,,,,,,,,,,,,,,,,,,,,,,,,,20,,,,,,,,,,,,,,,,,,,,,2,5,,,307.2066,1,right,0.0425,,1.5,0.3,"[1,2,3]",0.170020435,stimuli/card_10_transparent.png,10,1,0,1,0,1,,,,,,,,,,
,,,,5589a2ddfdf99b7ae47f60ed,A,2024-07-04_07h43.25.968,Slot Machine Game,2023.1.3,Win32,74.07407407,,,,,,,,,,,,,,,,,,,,,,,,,,,120,,,,,,,,,,,,,,,,,,,,,2,5,,,309.5679,2,left,0.1026,,0.5,0.3,"[1,2,3]",0.751248331,stimuli/card_100_transparent.png,100,2,0,2,0,1,,,,,,,,,,
,,,,5589a2ddfdf99b7ae47f60ed,A,2024-07-04_07h43.25.968,Slot Machine Game,2023.1.3,Win32,74.07407407,,,,,,,,,,,,,,,,,,,,,,,,,,,220,,,,,,,,,,,,,,,,,,,,,2,5,,,310.9696,3,left,0.1414,,0.5,0.3,"[1,2,3]",0.914863124,stimuli/card_100_transparent.png,100,3,0,3,0,1,,,,,,,,,,
,,,,5589a2ddfdf99b7ae47f60ed,A,2024-07-04_07h43.25.968,Slot Machine Game,2023.1.3,Win32,74.07407407,,,,,,,,,,,,,,,,,,,,,,,,,,,230,,,,,,,,,,,,,,,,,,,,,2,5,,,312.4092,4,left,0.1572,,0.5,0.3,"[1,2,3]",0.114873285,stimuli/card_10_transparent.png,10,4,0,4,0,1,,,,,,,,,,
,,,,5589a2ddfdf99b7ae47f60ed,A,2024-07-04_07h43.25.968,Slot Machine Game,2023.1.3,Win32,74.07407407,,,,,,,,,,,,,,,,,,,,,,,,,,,240,,,,,,,,,,,,,,,,,,,,,2,5,,,313.8626,5,left,0.1477,,0.5,0.3,"[3,1,2]",0.137416416,stimuli/card_10_transparent.png,10,5,0,5,0,1,,,,,,,,,,
,,,,5589a2ddfdf99b7ae47f60ed,A,2024-07-04_07h43.25.968,Slot Machine Game,2023.1.3,Win32,74.07407407,,,,,,,,,,,,,,,,,,,,,,,,,,,240,,,,,,,,,,,,,,,,,,,,,2,5,,,315.3301,6,up,0.1087,,1,0.3,"[3,1,2]",0.011902289,stimuli/card_0_transparent.png,0,6,0,6,0,1,,,,,,,,,,
,,,,5589a2ddfdf99b7ae47f60ed,A,2024-07-04_07h43.25.968,Slot Machine Game,2023.1.3,Win32,74.07407407,,,,,,,,,,,,,,,,,,,,,,,,,,,250,,,,,,,,,,,,,,,,,,,,,2,5,,,317.2518,7,right,0.1322,,1,0.3,"[3,1,2]",0.376459113,stimuli/card_10_transparent.png,10,7,0,7,0,1,,,,,,,,,,
,,,,5589a2ddfdf99b7ae47f60ed,A,2024-07-04_07h43.25.968,Slot Machine Game,2023.1.3,Win32,74.07407407,,,,,,,,,,,,,,,,,,,,,,,,,,,350,,,,,,,,,,,,,,,,,,,,,2,5,,,319.1851,8,left,0.2232,,1,0.3,"[3,1,2]",0.049431077,stimuli/card_100_transparent.png,100,8,0,8,0,1,,,,,,,,,,
,,,,5589a2ddfdf99b7ae47f60ed,A,2024-07-04_07h43.25.968,Slot Machine Game,2023.1.3,Win32,74.07407407,,,,,,,,,,,,,,,,,,,,,,,,,,,450,,,,,,,,,,,,,,,,,,,,,2,5,,,321.2126,9,left,0.2354,,0.5,0.3,"[3,1,2]",0.074171228,stimuli/card_100_transparent.png,100,9,0,9,0,1,,,,,,,,,,
,,,,5589a2ddfdf99b7ae47f60ed,A,2024-07-04_07h43.25.968,Slot Machine Game,2023.1.3,Win32,74.07407407,,,,,,,,,,,,,,,,,,,,,,,,,,,450,,,,,,,,,,,,,,,,,,,,,2,5,,,322.7465,10,left,0.3094,,1,0.3,"[3,1,2]",0.547128227,stimuli/card_0_transparent.png,0,10,0,10,0,1,,,,,,,,,,
,,,,5589a2ddfdf99b7ae47f60ed,A,2024-07-04_07h43.25.968,Slot Machine Game,2023.1.3,Win32,74.07407407,,,,,,,,,,,,,,,,,,,,,,,,,,,450,,,,,,,,,,,,,,,,,,,,,2,5,,,324.8674,11,left,0.2206,,1,0.3,"[3,1,2]",0.407736247,stimuli/card_0_transparent.png,0,11,0,11,0,1,,,,,,,,,,
,,,,5589a2ddfdf99b7ae47f60ed,A,2024-07-04_07h43.25.968,Slot Machine Game,2023.1.3,Win32,74.07407407,,,,,,,,,,,,,,,,,,,,,,,,,,,550,,,,,,,,,,,,,,,,,,,,,2,5,,,326.895,12,up,0.097,,0.5,0.3,"[3,1,2]",0.586338985,stimuli/card_100_transparent.png,100,12,0,12,0,1,,,,,,,,,,
,,,,5589a2ddfdf99b7ae47f60ed,A,2024-07-04_07h43.25.968,Slot Machine Game,2023.1.3,Win32,74.07407407,,,,,,,,,,,,,,,,,,,,,,,,,,,650,,,,,,,,,,,,,,,,,,,,,2,5,,,328.2965,13,up,0.3764,,0.5,0.3,"[3,1,2]",0.417874777,stimuli/card_100_transparent.png,100,13,0,13,0,1,,,,,,,,,,
,,,,5589a2ddfdf99b7ae47f60ed,A,2024-07-04_07h43.25.968,Slot Machine Game,2023.1.3,Win32,74.07407407,,,,,,,,,,,,,,,,,,,,,,,,,,,650,,,,,,,,,,,,,,,,,,,,,2,5,,,329.9763,14,up,0.5365,,0.5,0.3,"[3,1,2]",0.023189946,stimuli/card_0_transparent.png,0,14,0,14,0,1,,,,,,,,,,
,,,,5589a2ddfdf99b7ae47f60ed,A,2024-07-04_07h43.25.968,Slot Machine Game,2023.1.3,Win32,74.07407407,,,,,,,,,,,,,,,,,,,,,,,,,,,,,,,,,,,331.817,,,,,,,,,,,,,,,,,,,,,,,,,,,,,,,,,"[1210,650]",1,0,1,0,1,,,,
,,,,5589a2ddfdf99b7ae47f60ed,A,2024-07-04_07h43.25.968,Slot Machine Game,2023.1.3,Win32,74.07407407,,,,,,,,,,,,,,,,,,,,,,,,,,,100,,,,,,,,,,,,,,,,,,,,,3,9,"[8,15]","[[3,2,1],[3,1,2]]",336.8265,0,up,0.017,,0.5,0.3,"[3,2,1]",0.103960057,stimuli/card_100_transparent.png,100,0,0,0,0,1,,,,,,,,,,
,,,,5589a2ddfdf99b7ae47f60ed,A,2024-07-04_07h43.25.968,Slot Machine Game,2023.1.3,Win32,74.07407407,,,,,,,,,,,,,,,,,,,,,,,,,,,110,,,,,,,,,,,,,,,,,,,,,3,9,,,338.1532,1,up,0.2135,,0.5,0.3,"[3,2,1]",0.990596855,stimuli/card_10_transparent.png,10,1,0,1,0,1,,,,,,,,,,
,,,,5589a2ddfdf99b7ae47f60ed,A,2024-07-04_07h43.25.968,Slot Machine Game,2023.1.3,Win32,74.07407407,,,,,,,,,,,,,,,,,,,,,,,,,,,120,,,,,,,,,,,,,,,,,,,,,3,9,,,339.6607,2,up,0.2182,,0.5,0.3,"[3,2,1]",0.466811959,stimuli/card_10_transparent.png,10,2,0,2,0,1,,,,,,,,,,
,,,,5589a2ddfdf99b7ae47f60ed,A,2024-07-04_07h43.25.968,Slot Machine Game,2023.1.3,Win32,74.07407407,,,,,,,,,,,,,,,,,,,,,,,,,,,220,,,,,,,,,,,,,,,,,,,,,3,9,,,341.1811,3,right,0.1084,,1.5,0.3,"[3,2,1]",0.919016366,stimuli/card_100_transparent.png,100,3,0,3,0,1,,,,,,,,,,
,,,,5589a2ddfdf99b7ae47f60ed,A,2024-07-04_07h43.25.968,Slot Machine Game,2023.1.3,Win32,74.07407407,,,,,,,,,,,,,,,,,,,,,,,,,,,320,,,,,,,,,,,,,,,,,,,,,3,9,,,343.5955,4,right,0.1379,,0.5,0.3,"[3,2,1]",0.460728747,stimuli/card_100_transparent.png,100,4,0,4,0,1,,,,,,,,,,
,,,,5589a2ddfdf99b7ae47f60ed,A,2024-07-04_07h43.25.968,Slot Machine Game,2023.1.3,Win32,74.07407407,,,,,,,,,,,,,,,,,,,,,,,,,,,420,,,,,,,,,,,,,,,,,,,,,3,9,,,345.0496,5,right,0.1287,,1,0.3,"[3,2,1]",0.661307513,stimuli/card_100_transparent.png,100,5,0,5,0,1,,,,,,,,,,
,,,,5589a2ddfdf99b7ae47f60ed,A,2024-07-04_07h43.25.968,Slot Machine Game,2023.1.3,Win32,74.07407407,,,,,,,,,,,,,,,,,,,,,,,,,,,520,,,,,,,,,,,,,,,,,,,,,3,9,,,346.9836,6,right,0.0912,,0.5,0.3,"[3,2,1]",0.739201436,stimuli/card_100_transparent.png,100,6,0,6,0,1,,,,,,,,,,
,,,,5589a2ddfdf99b7ae47f60ed,A,2024-07-04_07h43.25.968,Slot Machine Game,2023.1.3,Win32,74.07407407,,,,,,,,,,,,,,,,,,,,,,,,,,,620,,,,,,,,,,,,,,,,,,,,,3,9,,,348.371,7,right,0.1359,,1,0.3,"[3,2,1]",0.917325632,stimuli/card_100_transparent.png,100,7,0,7,0,1,,,,,,,,,,
,,,,5589a2ddfdf99b7ae47f60ed,A,2024-07-04_07h43.25.968,Slot Machine Game,2023.1.3,Win32,74.07407407,,,,,,,,,,,,,,,,,,,,,,,,,,,620,,,,,,,,,,,,,,,,,,,,,3,9,,,350.3185,8,right,0.1085,,0.5,0.3,"[3,1,2]",0.071348653,stimuli/card_0_transparent.png,0,8,0,8,0,1,,,,,,,,,,
,,,,5589a2ddfdf99b7ae47f60ed,A,2024-07-04_07h43.25.968,Slot Machine Game,2023.1.3,Win32,74.07407407,,,,,,,,,,,,,,,,,,,,,,,,,,,630,,,,,,,,,,,,,,,,,,,,,3,9,,,351.7324,9,right,0.0546,,0.5,0.3,"[3,1,2]",0.352757019,stimuli/card_10_transparent.png,10,9,0,9,0,1,,,,,,,,,,
,,,,5589a2ddfdf99b7ae47f60ed,A,2024-07-04_07h43.25.968,Slot Machine Game,2023.1.3,Win32,74.07407407,,,,,,,,,,,,,,,,,,,,,,,,,,,630,,,,,,,,,,,,,,,,,,,,,3,9,,,353.093,10,left,0.3697,,0.5,0.3,"[3,1,2]",0.999009812,stimuli/card_0_transparent.png,0,10,0,10,0,1,,,,,,,,,,
,,,,5589a2ddfdf99b7ae47f60ed,A,2024-07-04_07h43.25.968,Slot Machine Game,2023.1.3,Win32,74.07407407,,,,,,,,,,,,,,,,,,,,,,,,,,,730,,,,,,,,,,,,,,,,,,,,,3,9,,,354.7737,11,up,0.3182,,0.5,0.3,"[3,1,2]",0.496618092,stimuli/card_100_transparent.png,100,11,0,11,0,1,,,,,,,,,,
,,,,5589a2ddfdf99b7ae47f60ed,A,2024-07-04_07h43.25.968,Slot Machine Game,2023.1.3,Win32,74.07407407,,,,,,,,,,,,,,,,,,,,,,,,,,,830,,,,,,,,,,,,,,,,,,,,,3,9,,,356.3876,12,up,0.1922,,1.5,0.3,"[3,1,2]",0.740734345,stimuli/card_100_transparent.png,100,12,0,12,0,1,,,,,,,,,,
,,,,5589a2ddfdf99b7ae47f60ed,A,2024-07-04_07h43.25.968,Slot Machine Game,2023.1.3,Win32,74.07407407,,,,,,,,,,,,,,,,,,,,,,,,,,,930,,,,,,,,,,,,,,,,,,,,,3,9,,,358.8821,13,up,0.6272,,1,0.3,"[3,1,2]",0.425167159,stimuli/card_100_transparent.png,100,13,0,13,0,1,,,,,,,,,,
,,,,5589a2ddfdf99b7ae47f60ed,A,2024-07-04_07h43.25.968,Slot Machine Game,2023.1.3,Win32,74.07407407,,,,,,,,,,,,,,,,,,,,,,,,,,,930,,,,,,,,,,,,,,,,,,,,,3,9,,,361.3232,14,up,0.1774,,0.5,0.3,"[3,1,2]",0.033917827,stimuli/card_0_transparent.png,0,14,0,14,0,1,,,,,,,,,,
,,,,5589a2ddfdf99b7ae47f60ed,A,2024-07-04_07h43.25.968,Slot Machine Game,2023.1.3,Win32,74.07407407,,,,,,,,,,,,,,,,,,,,,,,,,,,,,,,,,,,362.8038,,,,,,,,,,,,,,,,,,,,,,,,,,,,,,,,,"[1210,650,930]",2,0,2,0,1,,,,
,,,,5589a2ddfdf99b7ae47f60ed,A,2024-07-04_07h43.25.968,Slot Machine Game,2023.1.3,Win32,74.07407407,,,,,,,,,,,,,,,,,,,,,,,,,,,100,,,,,,,,,,,,,,,,,,,,,4,1,"[12,15]","[[2,1,3],[2,3,1]]",367.8135,0,up,0.114,,1,0.3,"[2,1,3]",0.970446883,stimuli/card_100_transparent.png,100,0,0,0,0,1,,,,,,,,,,
,,,,5589a2ddfdf99b7ae47f60ed,A,2024-07-04_07h43.25.968,Slot Machine Game,2023.1.3,Win32,74.07407407,,,,,,,,,,,,,,,,,,,,,,,,,,,110,,,,,,,,,,,,,,,,,,,,,4,1,,,369.7403,1,up,0.1405,,1.5,0.3,"[2,1,3]",0.152449266,stimuli/card_10_transparent.png,10,1,0,1,0,1,,,,,,,,,,
,,,,5589a2ddfdf99b7ae47f60ed,A,2024-07-04_07h43.25.968,Slot Machine Game,2023.1.3,Win32,74.07407407,,,,,,,,,,,,,,,,,,,,,,,,,,,210,,,,,,,,,,,,,,,,,,,,,4,1,,,372.1946,2,up,0.7832,,1.5,0.3,"[2,1,3]",0.491417963,stimuli/card_100_transparent.png,100,2,0,2,0,1,,,,,,,,,,
,,,,5589a2ddfdf99b7ae47f60ed,A,2024-07-04_07h43.25.968,Slot Machine Game,2023.1.3,Win32,74.07407407,,,,,,,,,,,,,,,,,,,,,,,,,,,310,,,,,,,,,,,,,,,,,,,,,4,1,,,375.2891,3,up,0.2449,,0.5,0.3,"[2,1,3]",0.492816469,stimuli/card_100_transparent.png,100,3,0,3,0,1,,,,,,,,,,
,,,,5589a2ddfdf99b7ae47f60ed,A,2024-07-04_07h43.25.968,Slot Machine Game,2023.1.3,Win32,74.07407407,,,,,,,,,,,,,,,,,,,,,,,,,,,410,,,,,,,,,,,,,,,,,,,,,4,1,,,376.8364,4,up,0.8021,,0.5,0.3,"[2,1,3]",0.444718032,stimuli/card_100_transparent.png,100,4,0,4,0,1,,,,,,,,,,
,,,,5589a2ddfdf99b7ae47f60ed,A,2024-07-04_07h43.25.968,Slot Machine Game,2023.1.3,Win32,74.07407407,,,,,,,,,,,,,,,,,,,,,,,,,,,510,,,,,,,,,,,,,,,,,,,,,4,1,,,378.9441,5,up,0.159,,1,0.3,"[2,1,3]",0.282206805,stimuli/card_100_transparent.png,100,5,0,5,0,1,,,,,,,,,,
,,,,5589a2ddfdf99b7ae47f60ed,A,2024-07-04_07h43.25.968,Slot Machine Game,2023.1.3,Win32,74.07407407,,,,,,,,,,,,,,,,,,,,,,,,,,,610,,,,,,,,,,,,,,,,,,,,,4,1,,,380.9057,6,up,0.0618,,1.5,0.3,"[2,1,3]",0.231428805,stimuli/card_100_transparent.png,100,6,0,6,0,1,,,,,,,,,,
,,,,5589a2ddfdf99b7ae47f60ed,A,2024-07-04_07h43.25.968,Slot Machine Game,2023.1.3,Win32,74.07407407,,,,,,,,,,,,,,,,,,,,,,,,,,,710,,,,,,,,,,,,,,,,,,,,,4,1,,,383.2659,7,up,0.4007,,1.5,0.3,"[2,1,3]",0.332931242,stimuli/card_100_transparent.png,100,7,0,7,0,1,,,,,,,,,,
,,,,5589a2ddfdf99b7ae47f60ed,A,2024-07-04_07h43.25.968,Slot Machine Game,2023.1.3,Win32,74.07407407,,,,,,,,,,,,,,,,,,,,,,,,,,,720,,,,,,,,,,,,,,,,,,,,,4,1,,,385.9874,8,up,0.4475,,1,0.3,"[2,1,3]",0.108447901,stimuli/card_10_transparent.png,10,8,0,8,0,1,,,,,,,,,,
,,,,5589a2ddfdf99b7ae47f60ed,A,2024-07-04_07h43.25.968,Slot Machine Game,2023.1.3,Win32,74.07407407,,,,,,,,,,,,,,,,,,,,,,,,,,,720,,,,,,,,,,,,,,,,,,,,,4,1,,,388.2548,9,up,0.2843,,0.5,0.3,"[2,1,3]",0.099724547,stimuli/card_0_transparent.png,0,9,0,9,0,1,,,,,,,,,,
,,,,5589a2ddfdf99b7ae47f60ed,A,2024-07-04_07h43.25.968,Slot Machine Game,2023.1.3,Win32,74.07407407,,,,,,,,,,,,,,,,,,,,,,,,,,,820,,,,,,,,,,,,,,,,,,,,,4,1,,,389.8553,10,left,0.0516,,0.5,0.3,"[2,1,3]",0.176096097,stimuli/card_100_transparent.png,100,10,0,10,0,1,,,,,,,,,,
,,,,5589a2ddfdf99b7ae47f60ed,A,2024-07-04_07h43.25.968,Slot Machine Game,2023.1.3,Win32,74.07407407,,,,,,,,,,,,,,,,,,,,,,,,,,,920,,,,,,,,,,,,,,,,,,,,,4,1,,,391.216,11,left,0.0402,,1,0.3,"[2,1,3]",0.149973072,stimuli/card_100_transparent.png,100,11,0,11,0,1,,,,,,,,,,
,,,,5589a2ddfdf99b7ae47f60ed,A,2024-07-04_07h43.25.968,Slot Machine Game,2023.1.3,Win32,74.07407407,,,,,,,,,,,,,,,,,,,,,,,,,,,930,,,,,,,,,,,,,,,,,,,,,4,1,,,393.0701,12,left,0.1891,,1,0.3,"[2,3,1]",0.90064009,stimuli/card_10_transparent.png,10,12,0,12,0,1,,,,,,,,,,
,,,,5589a2ddfdf99b7ae47f60ed,A,2024-07-04_07h43.25.968,Slot Machine Game,2023.1.3,Win32,74.07407407,,,,,,,,,,,,,,,,,,,,,,,,,,,940,,,,,,,,,,,,,,,,,,,,,4,1,,,395.0842,13,left,0.1969,,1,0.3,"[2,3,1]",0.909103943,stimuli/card_10_transparent.png,10,13,0,13,0,1,,,,,,,,,,
,,,,5589a2ddfdf99b7ae47f60ed,A,2024-07-04_07h43.25.968,Slot Machine Game,2023.1.3,Win32,74.07407407,,,,,,,,,,,,,,,,,,,,,,,,,,,950,,,,,,,,,,,,,,,,,,,,,4,1,,,397.0851,14,left,0.0859,,1,0.3,"[2,3,1]",0.667582771,stimuli/card_10_transparent.png,10,14,0,14,0,1,,,,,,,,,,
,,,,5589a2ddfdf99b7ae47f60ed,A,2024-07-04_07h43.25.968,Slot Machine Game,2023.1.3,Win32,74.07407407,,,,,,,,,,,,,,,,,,,,,,,,,,,,,,,,,,,398.9926,,,,,,,,,,,,,,,,,,,,,,,,,,,,,,,,,"[1210,650,930,950]",3,0,3,0,1,,,,
,,,,5589a2ddfdf99b7ae47f60ed,A,2024-07-04_07h43.25.968,Slot Machine Game,2023.1.3,Win32,74.07407407,,,,,,,,,,,,,,,,,,,,,,,,,,,10,,,,,,,,,,,,,,,,,,,,,5,2,"[6,15]","[[1,3,2],[3,2,1]]",404.0024,0,up,0.1466,,1.5,0.3,"[1,3,2]",0.1260853,stimuli/card_10_transparent.png,10,0,0,0,0,1,,,,,,,,,,
,,,,5589a2ddfdf99b7ae47f60ed,A,2024-07-04_07h43.25.968,Slot Machine Game,2023.1.3,Win32,74.07407407,,,,,,,,,,,,,,,,,,,,,,,,,,,110,,,,,,,,,,,,,,,,,,,,,5,2,,,406.4626,1,right,0.076,,1,0.3,"[1,3,2]",0.141986187,stimuli/card_100_transparent.png,100,1,0,1,0,1,,,,,,,,,,
,,,,5589a2ddfdf99b7ae47f60ed,A,2024-07-04_07h43.25.968,Slot Machine Game,2023.1.3,Win32,74.07407407,,,,,,,,,,,,,,,,,,,,,,,,,,,120,,,,,,,,,,,,,,,,,,,,,5,2,,,408.3433,2,right,0.4754,,1,0.3,"[1,3,2]",0.989883029,stimuli/card_10_transparent.png,10,2,0,2,0,1,,,,,,,,,,
,,,,5589a2ddfdf99b7ae47f60ed,A,2024-07-04_07h43.25.968,Slot Machine Game,2023.1.3,Win32,74.07407407,,,,,,,,,,,,,,,,,,,,,,,,,,,220,,,,,,,,,,,,,,,,,,,,,5,2,,,410.6243,3,left,2.3825,,0.5,0.3,"[1,3,2]",0.406707146,stimuli/card_100_transparent.png,100,3,0,3,0,1,,,,,,,,,,
,,,,5589a2ddfdf99b7ae47f60ed,A,2024-07-04_07h43.25.968,Slot Machine Game,2023.1.3,Win32,74.07407407,,,,,,,,,,,,,,,,,,,,,,,,,,,320,,,,,,,,,,,,,,,,,,,,,5,2,,,414.3193,4,left,0.8267,,0.5,0.3,"[1,3,2]",0.741090012,stimuli/card_100_transparent.png,100,4,0,4,0,1,,,,,,,,,,
,,,,5589a2ddfdf99b7ae47f60ed,A,2024-07-04_07h43.25.968,Slot Machine Game,2023.1.3,Win32,74.07407407,,,,,,,,,,,,,,,,,,,,,,,,,,,330,,,,,,,,,,,,,,,,,,,,,5,2,,,416.4536,5,left,0.3288,,1.5,0.3,"[1,3,2]",0.118089889,stimuli/card_10_transparent.png,10,5,0,5,0,1,,,,,,,,,,
,,,,5589a2ddfdf99b7ae47f60ed,A,2024-07-04_07h43.25.968,Slot Machine Game,2023.1.3,Win32,74.07407407,,,,,,,,,,,,,,,,,,,,,,,,,,,330,,,,,,,,,,,,,,,,,,,,,5,2,,,419.0946,6,left,0.0317,,0.5,0.3,"[3,2,1]",0.813704127,stimuli/card_0_transparent.png,0,6,0,6,0,1,,,,,,,,,,
,,,,5589a2ddfdf99b7ae47f60ed,A,2024-07-04_07h43.25.968,Slot Machine Game,2023.1.3,Win32,74.07407407,,,,,,,,,,,,,,,,,,,,,,,,,,,340,,,,,,,,,,,,,,,,,,,,,5,2,,,420.4427,7,up,0.3069,,1.5,0.3,"[3,2,1]",0.743615129,stimuli/card_10_transparent.png,10,7,0,7,0,1,,,,,,,,,,
,,,,5589a2ddfdf99b7ae47f60ed,A,2024-07-04_07h43.25.968,Slot Machine Game,2023.1.3,Win32,74.07407407,,,,,,,,,,,,,,,,,,,,,,,,,,,440,,,,,,,,,,,,,,,,,,,,,5,2,,,423.0431,8,right,0.1532,,0.5,0.3,"[3,2,1]",0.958734277,stimuli/card_100_transparent.png,100,8,0,8,0,1,,,,,,,,,,
,,,,5589a2ddfdf99b7ae47f60ed,A,2024-07-04_07h43.25.968,Slot Machine Game,2023.1.3,Win32,74.07407407,,,,,,,,,,,,,,,,,,,,,,,,,,,540,,,,,,,,,,,,,,,,,,,,,5,2,,,424.4971,9,right,0.2032,,0.5,0.3,"[3,2,1]",0.681296044,stimuli/card_100_transparent.png,100,9,0,9,0,1,,,,,,,,,,
,,,,5589a2ddfdf99b7ae47f60ed,A,2024-07-04_07h43.25.968,Slot Machine Game,2023.1.3,Win32,74.07407407,,,,,,,,,,,,,,,,,,,,,,,,,,,640,,,,,,,,,,,,,,,,,,,,,5,2,,,426.0042,10,right,0.3524,,0.5,0.3,"[3,2,1]",0.66718783,stimuli/card_100_transparent.png,100,10,0,10,0,1,,,,,,,,,,
,,,,5589a2ddfdf99b7ae47f60ed,A,2024-07-04_07h43.25.968,Slot Machine Game,2023.1.3,Win32,74.07407407,,,,,,,,,,,,,,,,,,,,,,,,,,,740,,,,,,,,,,,,,,,,,,,,,5,2,,,427.6584,11,right,1.6107,,0.5,0.3,"[3,2,1]",0.93289928,stimuli/card_100_transparent.png,100,11,0,11,0,1,,,,,,,,,,
,,,,5589a2ddfdf99b7ae47f60ed,A,2024-07-04_07h43.25.968,Slot Machine Game,2023.1.3,Win32,74.07407407,,,,,,,,,,,,,,,,,,,,,,,,,,,740,,,,,,,,,,,,,,,,,,,,,5,2,,,430.5662,12,right,0.2068,,1.5,0.3,"[3,2,1]",0.0735406,stimuli/card_0_transparent.png,0,12,0,12,0,1,,,,,,,,,,
,,,,5589a2ddfdf99b7ae47f60ed,A,2024-07-04_07h43.25.968,Slot Machine Game,2023.1.3,Win32,74.07407407,,,,,,,,,,,,,,,,,,,,,,,,,,,840,,,,,,,,,,,,,,,,,,,,,5,2,,,433.074,13,right,0.1229,,1,0.3,"[3,2,1]",0.656478388,stimuli/card_100_transparent.png,100,13,0,13,0,1,,,,,,,,,,
,,,,5589a2ddfdf99b7ae47f60ed,A,2024-07-04_07h43.25.968,Slot Machine Game,2023.1.3,Win32,74.07407407,,,,,,,,,,,,,,,,,,,,,,,,,,,940,,,,,,,,,,,,,,,,,,,,,5,2,,,435.0085,14,right,0.214,,1.5,0.3,"[3,2,1]",0.845316947,stimuli/card_100_transparent.png,100,14,0,14,0,1,,,,,,,,,,
,,,,5589a2ddfdf99b7ae47f60ed,A,2024-07-04_07h43.25.968,Slot Machine Game,2023.1.3,Win32,74.07407407,,,,,,,,,,,,,,,,,,,,,,,,,,,,,,,,,,,437.5293,,,,,,,,,,,,,,,,,,,,,,,,,,,,,,,,,"[1210,650,930,950,940]",4,0,4,0,1,,,,
,,,,5589a2ddfdf99b7ae47f60ed,A,2024-07-04_07h43.25.968,Slot Machine Game,2023.1.3,Win32,74.07407407,,,,,,,,,,,,,,,,,,,,,,,,,,,100,,,,,,,,,,,,,,,,,,,,,6,4,"[7,15]","[[2,3,1],[1,2,3]]",442.5383,0,right,0.0529,,0.5,0.3,"[2,3,1]",0.944602776,stimuli/card_100_transparent.png,100,0,0,0,0,1,,,,,,,,,,
,,,,5589a2ddfdf99b7ae47f60ed,A,2024-07-04_07h43.25.968,Slot Machine Game,2023.1.3,Win32,74.07407407,,,,,,,,,,,,,,,,,,,,,,,,,,,200,,,,,,,,,,,,,,,,,,,,,6,4,,,443.8787,1,right,0.184,,1.5,0.3,"[2,3,1]",0.787474863,stimuli/card_100_transparent.png,100,1,0,1,0,1,,,,,,,,,,
,,,,5589a2ddfdf99b7ae47f60ed,A,2024-07-04_07h43.25.968,Slot Machine Game,2023.1.3,Win32,74.07407407,,,,,,,,,,,,,,,,,,,,,,,,,,,300,,,,,,,,,,,,,,,,,,,,,6,4,,,446.3602,2,right,0.1186,,1,0.3,"[2,3,1]",0.288094749,stimuli/card_100_transparent.png,100,2,0,2,0,1,,,,,,,,,,
,,,,5589a2ddfdf99b7ae47f60ed,A,2024-07-04_07h43.25.968,Slot Machine Game,2023.1.3,Win32,74.07407407,,,,,,,,,,,,,,,,,,,,,,,,,,,300,,,,,,,,,,,,,,,,,,,,,6,4,,,448.2815,3,right,2.6132,,0.5,0.3,"[2,3,1]",0.085982489,stimuli/card_0_transparent.png,0,3,0,3,0,1,,,,,,,,,,
,,,,5589a2ddfdf99b7ae47f60ed,A,2024-07-04_07h43.25.968,Slot Machine Game,2023.1.3,Win32,74.07407407,,,,,,,,,,,,,,,,,,,,,,,,,,,400,,,,,,,,,,,,,,,,,,,,,6,4,,,452.1902,4,right,0.5868,,1,0.3,"[2,3,1]",0.935407695,stimuli/card_100_transparent.png,100,4,0,4,0,1,,,,,,,,,,
,,,,5589a2ddfdf99b7ae47f60ed,A,2024-07-04_07h43.25.968,Slot Machine Game,2023.1.3,Win32,74.07407407,,,,,,,,,,,,,,,,,,,,,,,,,,,500,,,,,,,,,,,,,,,,,,,,,6,4,,,454.5899,5,right,0.0282,,1,0.3,"[2,3,1]",0.253813844,stimuli/card_100_transparent.png,100,5,0,5,0,1,,,,,,,,,,
,,,,5589a2ddfdf99b7ae47f60ed,A,2024-07-04_07h43.25.968,Slot Machine Game,2023.1.3,Win32,74.07407407,,,,,,,,,,,,,,,,,,,,,,,,,,,600,,,,,,,,,,,,,,,,,,,,,6,4,,,456.444,6,right,2.6122,,0.5,0.3,"[2,3,1]",0.832382759,stimuli/card_100_transparent.png,100,6,0,6,0,1,,,,,,,,,,
,,,,5589a2ddfdf99b7ae47f60ed,A,2024-07-04_07h43.25.968,Slot Machine Game,2023.1.3,Win32,74.07407407,,,,,,,,,,,,,,,,,,,,,,,,,,,600,,,,,,,,,,,,,,,,,,,,,6,4,,,460.3526,7,right,0.3161,,0.5,0.3,"[1,2,3]",0.956762963,stimuli/card_0_transparent.png,0,7,0,7,0,1,,,,,,,,,,
,,,,5589a2ddfdf99b7ae47f60ed,A,2024-07-04_07h43.25.968,Slot Machine Game,2023.1.3,Win32,74.07407407,,,,,,,,,,,,,,,,,,,,,,,,,,,600,,,,,,,,,,,,,,,,,,,,,6,4,,,461.9798,8,right,0.1089,,1.5,0.3,"[1,2,3]",0.812534439,stimuli/card_0_transparent.png,0,8,0,8,0,1,,,,,,,,,,
,,,,5589a2ddfdf99b7ae47f60ed,A,2024-07-04_07h43.25.968,Slot Machine Game,2023.1.3,Win32,74.07407407,,,,,,,,,,,,,,,,,,,,,,,,,,,700,,,,,,,,,,,,,,,,,,,,,6,4,,,464.3942,9,up,0.1501,,1.5,0.3,"[1,2,3]",0.186040066,stimuli/card_100_transparent.png,100,9,0,9,0,1,,,,,,,,,,
,,,,5589a2ddfdf99b7ae47f60ed,A,2024-07-04_07h43.25.968,Slot Machine Game,2023.1.3,Win32,74.07407407,,,,,,,,,,,,,,,,,,,,,,,,,,,710,,,,,,,,,,,,,,,,,,,,,6,4,,,466.8485,10,up,0.2728,,1,0.3,"[1,2,3]",0.394148955,stimuli/card_10_transparent.png,10,10,0,10,0,1,,,,,,,,,,
,,,,5589a2ddfdf99b7ae47f60ed,A,2024-07-04_07h43.25.968,Slot Machine Game,2023.1.3,Win32,74.07407407,,,,,,,,,,,,,,,,,,,,,,,,,,,720,,,,,,,,,,,,,,,,,,,,,6,4,,,468.9294,11,up,0.2993,,0.5,0.3,"[1,2,3]",0.468744779,stimuli/card_10_transparent.png,10,11,0,11,0,1,,,,,,,,,,
,,,,5589a2ddfdf99b7ae47f60ed,A,2024-07-04_07h43.25.968,Slot Machine Game,2023.1.3,Win32,74.07407407,,,,,,,,,,,,,,,,,,,,,,,,,,,720,,,,,,,,,,,,,,,,,,,,,6,4,,,470.5435,12,right,0.3458,,0.5,0.3,"[1,2,3]",0.803350652,stimuli/card_0_transparent.png,0,12,0,12,0,1,,,,,,,,,,
,,,,5589a2ddfdf99b7ae47f60ed,A,2024-07-04_07h43.25.968,Slot Machine Game,2023.1.3,Win32,74.07407407,,,,,,,,,,,,,,,,,,,,,,,,,,,820,,,,,,,,,,,,,,,,,,,,,6,4,,,472.1974,13,left,0.0844,,0.5,0.3,"[1,2,3]",0.816722886,stimuli/card_100_transparent.png,100,13,0,13,0,1,,,,,,,,,,
,,,,5589a2ddfdf99b7ae47f60ed,A,2024-07-04_07h43.25.968,Slot Machine Game,2023.1.3,Win32,74.07407407,,,,,,,,,,,,,,,,,,,,,,,,,,,920,,,,,,,,,,,,,,,,,,,,,6,4,,,473.5849,14,left,0.2973,,1,0.3,"[1,2,3]",0.331600206,stimuli/card_100_transparent.png,100,14,0,14,0,1,,,,,,,,,,
,,,,5589a2ddfdf99b7ae47f60ed,A,2024-07-04_07h43.25.968,Slot Machine Game,2023.1.3,Win32,74.07407407,,,,,,,,,,,,,,,,,,,,,,,,,,,,,,,,,,,475.6924,,,,,,,,,,,,,,,,,,,,,,,,,,,,,,,,,"[1210,650,930,950,940,920]",5,0,5,0,1,,,,
,,,,5589a2ddfdf99b7ae47f60ed,A,2024-07-04_07h43.25.968,Slot Machine Game,2023.1.3,Win32,74.07407407,,,,,,,,,,,,,,,,,,,,,,,,,,,100,,,,,,,,,,,,,,,,,,,,,7,10,"[10,15]","[[3,1,2],[1,3,2]]",480.702,0,up,0.0744,,1.5,0.3,"[3,1,2]",0.493381842,stimuli/card_100_transparent.png,100,0,0,0,0,1,,,,,,,,,,
,,,,5589a2ddfdf99b7ae47f60ed,A,2024-07-04_07h43.25.968,Slot Machine Game,2023.1.3,Win32,74.07407407,,,,,,,,,,,,,,,,,,,,,,,,,,,100,,,,,,,,,,,,,,,,,,,,,7,10,,,483.096,1,up,0.1237,,1.5,0.3,"[3,1,2]",0.069500986,stimuli/card_0_transparent.png,0,1,0,1,0,1,,,,,,,,,,
,,,,5589a2ddfdf99b7ae47f60ed,A,2024-07-04_07h43.25.968,Slot Machine Game,2023.1.3,Win32,74.07407407,,,,,,,,,,,,,,,,,,,,,,,,,,,110,,,,,,,,,,,,,,,,,,,,,7,10,,,485.5234,2,up,0.1594,,0.5,0.3,"[3,1,2]",0.149212983,stimuli/card_10_transparent.png,10,2,0,2,0,1,,,,,,,,,,
,,,,5589a2ddfdf99b7ae47f60ed,A,2024-07-04_07h43.25.968,Slot Machine Game,2023.1.3,Win32,74.07407407,,,,,,,,,,,,,,,,,,,,,,,,,,,110,,,,,,,,,,,,,,,,,,,,,7,10,,,486.9916,3,left,0.0296,,1,0.3,"[3,1,2]",0.266498923,stimuli/card_0_transparent.png,0,3,0,3,0,1,,,,,,,,,,
,,,,5589a2ddfdf99b7ae47f60ed,A,2024-07-04_07h43.25.968,Slot Machine Game,2023.1.3,Win32,74.07407407,,,,,,,,,,,,,,,,,,,,,,,,,,,120,,,,,,,,,,,,,,,,,,,,,7,10,,,488.8314,4,right,0.1882,,1.5,0.3,"[3,1,2]",0.566301115,stimuli/card_10_transparent.png,10,4,0,4,0,1,,,,,,,,,,
,,,,5589a2ddfdf99b7ae47f60ed,A,2024-07-04_07h43.25.968,Slot Machine Game,2023.1.3,Win32,74.07407407,,,,,,,,,,,,,,,,,,,,,,,,,,,130,,,,,,,,,,,,,,,,,,,,,7,10,,,491.3264,5,right,0.1107,,0.5,0.3,"[3,1,2]",0.444837054,stimuli/card_10_transparent.png,10,5,0,5,0,1,,,,,,,,,,
,,,,5589a2ddfdf99b7ae47f60ed,A,2024-07-04_07h43.25.968,Slot Machine Game,2023.1.3,Win32,74.07407407,,,,,,,,,,,,,,,,,,,,,,,,,,,230,,,,,,,,,,,,,,,,,,,,,7,10,,,492.7406,6,up,0.0042,,1,0.3,"[3,1,2]",0.695812034,stimuli/card_100_transparent.png,100,6,0,6,0,1,,,,,,,,,,
,,,,5589a2ddfdf99b7ae47f60ed,A,2024-07-04_07h43.25.968,Slot Machine Game,2023.1.3,Win32,74.07407407,,,,,,,,,,,,,,,,,,,,,,,,,,,330,,,,,,,,,,,,,,,,,,,,,7,10,,,494.5671,7,up,0.0936,,0.5,0.3,"[3,1,2]",0.308425325,stimuli/card_100_transparent.png,100,7,0,7,0,1,,,,,,,,,,
,,,,5589a2ddfdf99b7ae47f60ed,A,2024-07-04_07h43.25.968,Slot Machine Game,2023.1.3,Win32,74.07407407,,,,,,,,,,,,,,,,,,,,,,,,,,,430,,,,,,,,,,,,,,,,,,,,,7,10,,,495.9691,8,up,1.0247,,0.5,0.3,"[3,1,2]",0.502979025,stimuli/card_100_transparent.png,100,8,0,8,0,1,,,,,,,,,,
,,,,5589a2ddfdf99b7ae47f60ed,A,2024-07-04_07h43.25.968,Slot Machine Game,2023.1.3,Win32,74.07407407,,,,,,,,,,,,,,,,,,,,,,,,,,,530,,,,,,,,,,,,,,,,,,,,,7,10,,,498.302,9,up,0.015,,1,0.3,"[3,1,2]",0.562158156,stimuli/card_100_transparent.png,100,9,0,9,0,1,,,,,,,,,,
,,,,5589a2ddfdf99b7ae47f60ed,A,2024-07-04_07h43.25.968,Slot Machine Game,2023.1.3,Win32,74.07407407,,,,,,,,,,,,,,,,,,,,,,,,,,,530,,,,,,,,,,,,,,,,,,,,,7,10,,,500.13,10,up,1.6282,,1,0.3,"[1,3,2]",0.891019846,stimuli/card_0_transparent.png,0,10,0,10,0,1,,,,,,,,,,
,,,,5589a2ddfdf99b7ae47f60ed,A,2024-07-04_07h43.25.968,Slot Machine Game,2023.1.3,Win32,74.07407407,,,,,,,,,,,,,,,,,,,,,,,,,,,630,,,,,,,,,,,,,,,,,,,,,7,10,,,503.5711,11,up,0.2271,,0.5,0.3,"[1,3,2]",0.048427781,stimuli/card_100_transparent.png,100,11,0,11,0,1,,,,,,,,,,
,,,,5589a2ddfdf99b7ae47f60ed,A,2024-07-04_07h43.25.968,Slot Machine Game,2023.1.3,Win32,74.07407407,,,,,,,,,,,,,,,,,,,,,,,,,,,630,,,,,,,,,,,,,,,,,,,,,7,10,,,505.1051,12,up,0.1643,,1.5,0.3,"[1,3,2]",0.424385744,stimuli/card_0_transparent.png,0,12,0,12,0,1,,,,,,,,,,
,,,,5589a2ddfdf99b7ae47f60ed,A,2024-07-04_07h43.25.968,Slot Machine Game,2023.1.3,Win32,74.07407407,,,,,,,,,,,,,,,,,,,,,,,,,,,640,,,,,,,,,,,,,,,,,,,,,7,10,,,507.5728,13,up,0.0003,,0.5,0.3,"[1,3,2]",0.199282915,stimuli/card_10_transparent.png,10,13,0,13,0,1,,,,,,,,,,
,,,,5589a2ddfdf99b7ae47f60ed,A,2024-07-04_07h43.25.968,Slot Machine Game,2023.1.3,Win32,74.07407407,,,,,,,,,,,,,,,,,,,,,,,,,,,640,,,,,,,,,,,,,,,,,,,,,7,10,,,508.8801,14,up,0.327,,1.5,0.3,"[1,3,2]",0.832970869,stimuli/card_0_transparent.png,0,14,0,14,0,1,,,,,,,,,,
,,,,5589a2ddfdf99b7ae47f60ed,A,2024-07-04_07h43.25.968,Slot Machine Game,2023.1.3,Win32,74.07407407,,,,,,,,,,,,,,,,,,,,,,,,,,,,,,,,,,,511.5077,,,,,,,,,,,,,,,,,,,,,,,,,,,,,,,,,"[1210,650,930,950,940,920,640]",6,0,6,0,1,,,,
,,,,5589a2ddfdf99b7ae47f60ed,A,2024-07-04_07h43.25.968,Slot Machine Game,2023.1.3,Win32,74.07407407,,,,,,,,,,,,,,,,,,,,,,,,,,,10,,,,,,,,,,,,,,,,,,,,,8,7,"[9,15]","[[1,3,2],[2,3,1]]",516.5167,0,up,0.388,,1.5,0.3,"[1,3,2]",0.105129495,stimuli/card_10_transparent.png,10,0,0,0,0,1,,,,,,,,,,
,,,,5589a2ddfdf99b7ae47f60ed,A,2024-07-04_07h43.25.968,Slot Machine Game,2023.1.3,Win32,74.07407407,,,,,,,,,,,,,,,,,,,,,,,,,,,10,,,,,,,,,,,,,,,,,,,,,8,7,,,519.2184,1,left,0.1068,,1.5,0.3,"[1,3,2]",0.01175876,stimuli/card_0_transparent.png,0,1,0,1,0,1,,,,,,,,,,
,,,,5589a2ddfdf99b7ae47f60ed,A,2024-07-04_07h43.25.968,Slot Machine Game,2023.1.3,Win32,74.07407407,,,,,,,,,,,,,,,,,,,,,,,,,,,20,,,,,,,,,,,,,,,,,,,,,8,7,,,521.6321,2,right,0.056,,1.5,0.3,"[1,3,2]",0.80182482,stimuli/card_10_transparent.png,10,2,0,2,0,1,,,,,,,,,,
,,,,5589a2ddfdf99b7ae47f60ed,A,2024-07-04_07h43.25.968,Slot Machine Game,2023.1.3,Win32,74.07407407,,,,,,,,,,,,,,,,,,,,,,,,,,,30,,,,,,,,,,,,,,,,,,,,,8,7,,,523.9932,3,right,0.6791,,1,0.3,"[1,3,2]",0.201355055,stimuli/card_10_transparent.png,10,3,0,3,0,1,,,,,,,,,,
,,,,5589a2ddfdf99b7ae47f60ed,A,2024-07-04_07h43.25.968,Slot Machine Game,2023.1.3,Win32,74.07407407,,,,,,,,,,,,,,,,,,,,,,,,,,,40,,,,,,,,,,,,,,,,,,,,,8,7,,,526.4744,4,up,0.0384,,0.5,0.3,"[1,3,2]",0.116725936,stimuli/card_10_transparent.png,10,4,0,4,0,1,,,,,,,,,,
,,,,5589a2ddfdf99b7ae47f60ed,A,2024-07-04_07h43.25.968,Slot Machine Game,2023.1.3,Win32,74.07407407,,,,,,,,,,,,,,,,,,,,,,,,,,,40,,,,,,,,,,,,,,,,,,,,,8,7,,,527.808,5,up,0.1076,,1,0.3,"[1,3,2]",0.325971579,stimuli/card_0_transparent.png,0,5,0,5,0,1,,,,,,,,,,
,,,,5589a2ddfdf99b7ae47f60ed,A,2024-07-04_07h43.25.968,Slot Machine Game,2023.1.3,Win32,74.07407407,,,,,,,,,,,,,,,,,,,,,,,,,,,140,,,,,,,,,,,,,,,,,,,,,8,7,,,529.7422,6,left,0.5546,,1,0.3,"[1,3,2]",0.499401984,stimuli/card_100_transparent.png,100,6,0,6,0,1,,,,,,,,,,
,,,,5589a2ddfdf99b7ae47f60ed,A,2024-07-04_07h43.25.968,Slot Machine Game,2023.1.3,Win32,74.07407407,,,,,,,,,,,,,,,,,,,,,,,,,,,150,,,,,,,,,,,,,,,,,,,,,8,7,,,532.1033,7,left,0.3064,,1,0.3,"[1,3,2]",0.193034669,stimuli/card_10_transparent.png,10,7,0,7,0,1,,,,,,,,,,
,,,,5589a2ddfdf99b7ae47f60ed,A,2024-07-04_07h43.25.968,Slot Machine Game,2023.1.3,Win32,74.07407407,,,,,,,,,,,,,,,,,,,,,,,,,,,250,,,,,,,,,,,,,,,,,,,,,8,7,,,534.2241,8,left,0.3056,,1,0.3,"[1,3,2]",0.277440884,stimuli/card_100_transparent.png,100,8,0,8,0,1,,,,,,,,,,
,,,,5589a2ddfdf99b7ae47f60ed,A,2024-07-04_07h43.25.968,Slot Machine Game,2023.1.3,Win32,74.07407407,,,,,,,,,,,,,,,,,,,,,,,,,,,260,,,,,,,,,,,,,,,,,,,,,8,7,,,536.3319,9,left,0.3286,,1.5,0.3,"[2,3,1]",0.983449153,stimuli/card_10_transparent.png,10,9,0,9,0,1,,,,,,,,,,
,,,,5589a2ddfdf99b7ae47f60ed,A,2024-07-04_07h43.25.968,Slot Machine Game,2023.1.3,Win32,74.07407407,,,,,,,,,,,,,,,,,,,,,,,,,,,270,,,,,,,,,,,,,,,,,,,,,8,7,,,538.973,10,left,0.2438,,0.5,0.3,"[2,3,1]",0.580782331,stimuli/card_10_transparent.png,10,10,0,10,0,1,,,,,,,,,,
,,,,5589a2ddfdf99b7ae47f60ed,A,2024-07-04_07h43.25.968,Slot Machine Game,2023.1.3,Win32,74.07407407,,,,,,,,,,,,,,,,,,,,,,,,,,,280,,,,,,,,,,,,,,,,,,,,,8,7,,,540.5203,11,left,0.0051,,0.5,0.3,"[2,3,1]",0.350177753,stimuli/card_10_transparent.png,10,11,0,11,0,1,,,,,,,,,,
,,,,5589a2ddfdf99b7ae47f60ed,A,2024-07-04_07h43.25.968,Slot Machine Game,2023.1.3,Win32,74.07407407,,,,,,,,,,,,,,,,,,,,,,,,,,,290,,,,,,,,,,,,,,,,,,,,,8,7,,,541.8408,12,right,0.1124,,1.5,0.3,"[2,3,1]",0.167529068,stimuli/card_10_transparent.png,10,12,0,12,0,1,,,,,,,,,,
,,,,5589a2ddfdf99b7ae47f60ed,A,2024-07-04_07h43.25.968,Slot Machine Game,2023.1.3,Win32,74.07407407,,,,,,,,,,,,,,,,,,,,,,,,,,,290,,,,,,,,,,,,,,,,,,,,,8,7,,,544.2551,13,up,0.2596,,1.5,0.3,"[2,3,1]",0.502776912,stimuli/card_0_transparent.png,0,13,0,13,0,1,,,,,,,,,,
,,,,5589a2ddfdf99b7ae47f60ed,A,2024-07-04_07h43.25.968,Slot Machine Game,2023.1.3,Win32,74.07407407,,,,,,,,,,,,,,,,,,,,,,,,,,,300,,,,,,,,,,,,,,,,,,,,,8,7,,,546.8162,14,left,0.219,,1,0.3,"[2,3,1]",0.937590849,stimuli/card_10_transparent.png,10,14,0,14,0,1,,,,,,,,,,
,,,,5589a2ddfdf99b7ae47f60ed,A,2024-07-04_07h43.25.968,Slot Machine Game,2023.1.3,Win32,74.07407407,,,,,,,,,,,,,,,,,,,,,,,,,,,,,,,,,,,548.8439,,,,,,,,,,,,,,,,,,,,,,,,,,,,,,,,,"[1210,650,930,950,940,920,640,300]",7,0,7,0,1,,,,
,,,,5589a2ddfdf99b7ae47f60ed,A,2024-07-04_07h43.25.968,Slot Machine Game,2023.1.3,Win32,74.07407407,,,,,,,,,,,,,,,,,,,,,,,,,,,100,,,,,,,,,,,,,,,,,,,,,9,9,[15],"[[3,1,2]]",553.8533,0,up,0.5635,,1,0.3,"[3,1,2]",0.390175568,stimuli/card_100_transparent.png,100,0,0,0,0,1,,,,,,,,,,
,,,,5589a2ddfdf99b7ae47f60ed,A,2024-07-04_07h43.25.968,Slot Machine Game,2023.1.3,Win32,74.07407407,,,,,,,,,,,,,,,,,,,,,,,,,,,200,,,,,,,,,,,,,,,,,,,,,9,9,,,556.2469,1,up,0.0399,,1.5,0.3,"[3,1,2]",0.248487672,stimuli/card_100_transparent.png,100,1,0,1,0,1,,,,,,,,,,
,,,,5589a2ddfdf99b7ae47f60ed,A,2024-07-04_07h43.25.968,Slot Machine Game,2023.1.3,Win32,74.07407407,,,,,,,,,,,,,,,,,,,,,,,,,,,300,,,,,,,,,,,,,,,,,,,,,9,9,,,558.5813,2,up,0.1733,,1.5,0.3,"[3,1,2]",0.293884843,stimuli/card_100_transparent.png,100,2,0,2,0,1,,,,,,,,,,
,,,,5589a2ddfdf99b7ae47f60ed,A,2024-07-04_07h43.25.968,Slot Machine Game,2023.1.3,Win32,74.07407407,,,,,,,,,,,,,,,,,,,,,,,,,,,400,,,,,,,,,,,,,,,,,,,,,9,9,,,561.049,3,up,0.2678,,1,0.3,"[3,1,2]",0.695863073,stimuli/card_100_transparent.png,100,3,0,3,0,1,,,,,,,,,,
,,,,5589a2ddfdf99b7ae47f60ed,A,2024-07-04_07h43.25.968,Slot Machine Game,2023.1.3,Win32,74.07407407,,,,,,,,,,,,,,,,,,,,,,,,,,,500,,,,,,,,,,,,,,,,,,,,,9,9,,,563.1299,4,up,0.2462,,1.5,0.3,"[3,1,2]",0.777320712,stimuli/card_100_transparent.png,100,4,0,4,0,1,,,,,,,,,,
,,,,5589a2ddfdf99b7ae47f60ed,A,2024-07-04_07h43.25.968,Slot Machine Game,2023.1.3,Win32,74.07407407,,,,,,,,,,,,,,,,,,,,,,,,,,,600,,,,,,,,,,,,,,,,,,,,,9,9,,,565.6911,5,up,0.5867,,1.5,0.3,"[3,1,2]",0.809337475,stimuli/card_100_transparent.png,100,5,0,5,0,1,,,,,,,,,,
,,,,5589a2ddfdf99b7ae47f60ed,A,2024-07-04_07h43.25.968,Slot Machine Game,2023.1.3,Win32,74.07407407,,,,,,,,,,,,,,,,,,,,,,,,,,,700,,,,,,,,,,,,,,,,,,,,,9,9,,,568.5857,6,up,0.5642,,1,0.3,"[3,1,2]",0.640145565,stimuli/card_100_transparent.png,100,6,0,6,0,1,,,,,,,,,,
,,,,5589a2ddfdf99b7ae47f60ed,A,2024-07-04_07h43.25.968,Slot Machine Game,2023.1.3,Win32,74.07407407,,,,,,,,,,,,,,,,,,,,,,,,,,,700,,,,,,,,,,,,,,,,,,,,,9,9,,,570.9601,7,up,1.9875,,0.5,0.3,"[3,1,2]",0.075526901,stimuli/card_0_transparent.png,0,7,0,7,0,1,,,,,,,,,,
,,,,5589a2ddfdf99b7ae47f60ed,A,2024-07-04_07h43.25.968,Slot Machine Game,2023.1.3,Win32,74.07407407,,,,,,,,,,,,,,,,,,,,,,,,,,,700,,,,,,,,,,,,,,,,,,,,,9,9,,,574.2414,8,up,0.0128,,1.5,0.3,"[3,1,2]",0.028141952,stimuli/card_0_transparent.png,0,8,0,8,0,1,,,,,,,,,,
,,,,5589a2ddfdf99b7ae47f60ed,A,2024-07-04_07h43.25.968,Slot Machine Game,2023.1.3,Win32,74.07407407,,,,,,,,,,,,,,,,,,,,,,,,,,,800,,,,,,,,,,,,,,,,,,,,,9,9,,,576.5623,9,up,0.3511,,1.5,0.3,"[3,1,2]",0.296820164,stimuli/card_100_transparent.png,100,9,0,9,0,1,,,,,,,,,,
,,,,5589a2ddfdf99b7ae47f60ed,A,2024-07-04_07h43.25.968,Slot Machine Game,2023.1.3,Win32,74.07407407,,,,,,,,,,,,,,,,,,,,,,,,,,,900,,,,,,,,,,,,,,,,,,,,,9,9,,,579.2316,10,up,0.1332,,1.5,0.3,"[3,1,2]",0.454199778,stimuli/card_100_transparent.png,100,10,0,10,0,1,,,,,,,,,,
,,,,5589a2ddfdf99b7ae47f60ed,A,2024-07-04_07h43.25.968,Slot Machine Game,2023.1.3,Win32,74.07407407,,,,,,,,,,,,,,,,,,,,,,,,,,,1000,,,,,,,,,,,,,,,,,,,,,9,9,,,581.6579,11,up,0.1894,,1.5,0.3,"[3,1,2]",0.938836,stimuli/card_100_transparent.png,100,11,0,11,0,1,,,,,,,,,,
,,,,5589a2ddfdf99b7ae47f60ed,A,2024-07-04_07h43.25.968,Slot Machine Game,2023.1.3,Win32,74.07407407,,,,,,,,,,,,,,,,,,,,,,,,,,,1100,,,,,,,,,,,,,,,,,,,,,9,9,,,584.1523,12,up,0.2552,,1,0.3,"[3,1,2]",0.650012966,stimuli/card_100_transparent.png,100,12,0,12,0,1,,,,,,,,,,
,,,,5589a2ddfdf99b7ae47f60ed,A,2024-07-04_07h43.25.968,Slot Machine Game,2023.1.3,Win32,74.07407407,,,,,,,,,,,,,,,,,,,,,,,,,,,1200,,,,,,,,,,,,,,,,,,,,,9,9,,,586.22,13,up,0.107,,0.5,0.3,"[3,1,2]",0.449851862,stimuli/card_100_transparent.png,100,13,0,13,0,1,,,,,,,,,,
,,,,5589a2ddfdf99b7ae47f60ed,A,2024-07-04_07h43.25.968,Slot Machine Game,2023.1.3,Win32,74.07407407,,,,,,,,,,,,,,,,,,,,,,,,,,,1300,,,,,,,,,,,,,,,,,,,,,9,9,,,587.6338,14,up,0.193,,1,0.3,"[3,1,2]",0.339914647,stimuli/card_100_transparent.png,100,14,0,14,0,1,,,,,,,,,,
,,,,5589a2ddfdf99b7ae47f60ed,A,2024-07-04_07h43.25.968,Slot Machine Game,2023.1.3,Win32,74.07407407,,,,,,,,,,,,,,,,,,,,,,,,,,,,,,,,,,,589.6481,,,,,,,,,,,,,,,,,,,,,,,,,,,,,,,,,"[1210,650,930,950,940,920,640,300,1300]",8,0,8,0,1,,,,
,,,,5589a2ddfdf99b7ae47f60ed,A,2024-07-04_07h43.25.968,Slot Machine Game,2023.1.3,Win32,74.07407407,,,,,,,,,,,,,,,,,,,,,,,,,,,0,,,,,,,,,,,,,,,,,,,,,10,6,"[4,10,15]","[[2,3,1],[1,3,2],[3,2,1]]",594.6573,0,up,0.1853,,0.5,0.3,"[2,3,1]",0.614887939,stimuli/card_0_transparent.png,0,0,0,0,0,1,,,,,,,,,,
,,,,5589a2ddfdf99b7ae47f60ed,A,2024-07-04_07h43.25.968,Slot Machine Game,2023.1.3,Win32,74.07407407,,,,,,,,,,,,,,,,,,,,,,,,,,,10,,,,,,,,,,,,,,,,,,,,,10,6,,,596.1442,1,left,1.8975,,1.5,0.3,"[2,3,1]",0.529303044,stimuli/card_10_transparent.png,10,1,0,1,0,1,,,,,,,,,,
,,,,5589a2ddfdf99b7ae47f60ed,A,2024-07-04_07h43.25.968,Slot Machine Game,2023.1.3,Win32,74.07407407,,,,,,,,,,,,,,,,,,,,,,,,,,,110,,,,,,,,,,,,,,,,,,,,,10,6,,,600.346,2,right,0.0003,,1,0.3,"[2,3,1]",0.645400726,stimuli/card_100_transparent.png,100,2,0,2,0,1,,,,,,,,,,
,,,,5589a2ddfdf99b7ae47f60ed,A,2024-07-04_07h43.25.968,Slot Machine Game,2023.1.3,Win32,74.07407407,,,,,,,,,,,,,,,,,,,,,,,,,,,210,,,,,,,,,,,,,,,,,,,,,10,6,,,602.16,3,right,0.0109,,1,0.3,"[2,3,1]",0.738197177,stimuli/card_100_transparent.png,100,3,0,3,0,1,,,,,,,,,,
,,,,5589a2ddfdf99b7ae47f60ed,A,2024-07-04_07h43.25.968,Slot Machine Game,2023.1.3,Win32,74.07407407,,,,,,,,,,,,,,,,,,,,,,,,,,,310,,,,,,,,,,,,,,,,,,,,,10,6,,,603.9742,4,right,0.548,,0.5,0.3,"[1,3,2]",0.184667055,stimuli/card_100_transparent.png,100,4,0,4,0,1,,,,,,,,,,
,,,,5589a2ddfdf99b7ae47f60ed,A,2024-07-04_07h43.25.968,Slot Machine Game,2023.1.3,Win32,74.07407407,,,,,,,,,,,,,,,,,,,,,,,,,,,320,,,,,,,,,,,,,,,,,,,,,10,6,,,605.8289,5,right,0.1903,,0.5,0.3,"[1,3,2]",0.252994812,stimuli/card_10_transparent.png,10,5,0,5,0,1,,,,,,,,,,
,,,,5589a2ddfdf99b7ae47f60ed,A,2024-07-04_07h43.25.968,Slot Machine Game,2023.1.3,Win32,74.07407407,,,,,,,,,,,,,,,,,,,,,,,,,,,330,,,,,,,,,,,,,,,,,,,,,10,6,,,607.323,6,right,0.2537,,0.5,0.3,"[1,3,2]",0.500396581,stimuli/card_10_transparent.png,10,6,0,6,0,1,,,,,,,,,,
,,,,5589a2ddfdf99b7ae47f60ed,A,2024-07-04_07h43.25.968,Slot Machine Game,2023.1.3,Win32,74.07407407,,,,,,,,,,,,,,,,,,,,,,,,,,,340,,,,,,,,,,,,,,,,,,,,,10,6,,,608.8828,7,right,0.0478,,1,0.3,"[1,3,2]",0.973272325,stimuli/card_10_transparent.png,10,7,0,7,0,1,,,,,,,,,,
,,,,5589a2ddfdf99b7ae47f60ed,A,2024-07-04_07h43.25.968,Slot Machine Game,2023.1.3,Win32,74.07407407,,,,,,,,,,,,,,,,,,,,,,,,,,,340,,,,,,,,,,,,,,,,,,,,,10,6,,,610.7385,8,up,0.1377,,1.5,0.3,"[1,3,2]",0.655550561,stimuli/card_0_transparent.png,0,8,0,8,0,1,,,,,,,,,,
,,,,5589a2ddfdf99b7ae47f60ed,A,2024-07-04_07h43.25.968,Slot Machine Game,2023.1.3,Win32,74.07407407,,,,,,,,,,,,,,,,,,,,,,,,,,,440,,,,,,,,,,,,,,,,,,,,,10,6,,,613.1782,9,left,0.209,,1,0.3,"[1,3,2]",0.362006016,stimuli/card_100_transparent.png,100,9,0,9,0,1,,,,,,,,,,
,,,,5589a2ddfdf99b7ae47f60ed,A,2024-07-04_07h43.25.968,Slot Machine Game,2023.1.3,Win32,74.07407407,,,,,,,,,,,,,,,,,,,,,,,,,,,440,,,,,,,,,,,,,,,,,,,,,10,6,,,615.1924,10,left,0.4274,,1,0.3,"[3,2,1]",0.788181773,stimuli/card_0_transparent.png,0,10,0,10,0,1,,,,,,,,,,
,,,,5589a2ddfdf99b7ae47f60ed,A,2024-07-04_07h43.25.968,Slot Machine Game,2023.1.3,Win32,74.07407407,,,,,,,,,,,,,,,,,,,,,,,,,,,440,,,,,,,,,,,,,,,,,,,,,10,6,,,617.4347,11,left,0.4301,,0.5,0.3,"[3,2,1]",0.405787696,stimuli/card_0_transparent.png,0,11,0,11,0,1,,,,,,,,,,
,,,,5589a2ddfdf99b7ae47f60ed,A,2024-07-04_07h43.25.968,Slot Machine Game,2023.1.3,Win32,74.07407407,,,,,,,,,,,,,,,,,,,,,,,,,,,440,,,,,,,,,,,,,,,,,,,,,10,6,,,619.1807,12,left,0.0633,,1.5,0.3,"[3,2,1]",0.613163727,stimuli/card_0_transparent.png,0,12,0,12,0,1,,,,,,,,,,
,,,,5589a2ddfdf99b7ae47f60ed,A,2024-07-04_07h43.25.968,Slot Machine Game,2023.1.3,Win32,74.07407407,,,,,,,,,,,,,,,,,,,,,,,,,,,440,,,,,,,,,,,,,,,,,,,,,10,6,,,621.5418,13,up,0.0737,,1,0.3,"[3,2,1]",0.079730278,stimuli/card_0_transparent.png,0,13,0,13,0,1,,,,,,,,,,
,,,,5589a2ddfdf99b7ae47f60ed,A,2024-07-04_07h43.25.968,Slot Machine Game,2023.1.3,Win32,74.07407407,,,,,,,,,,,,,,,,,,,,,,,,,,,440,,,,,,,,,,,,,,,,,,,,,10,6,,,623.4358,14,right,0.2126,,1.5,0.3,"[3,2,1]",0.084549758,stimuli/card_0_transparent.png,0,14,0,14,0,1,,,,,,,,,,
,,,,5589a2ddfdf99b7ae47f60ed,A,2024-07-04_07h43.25.968,Slot Machine Game,2023.1.3,Win32,74.07407407,,,,,,,,,,,,,,,,,,,,,,,,,,,,,,,,,,,625.957,,,,,,,,,,,,,,,,,,,,,,,,,,,,,,,,,"[1210,650,930,950,940,920,640,300,1300,440]",9,0,9,0,1,,,,
,,,,5589a2ddfdf99b7ae47f60ed,A,2024-07-04_07h43.25.968,Slot Machine Game,2023.1.3,Win32,74.07407407,,,,,,,,,,,,,,,,,,,,,,,,,,,,,,,,,,,,,,,,,,,,,,,,,,,,,,,,,,,,,,,,,,,,,,,,,,9,"[1210,650,930,950,940,920,640,300,1300,440]",9.4,2024-07-04_07h54.01.006
