key_resp_welcome_started,key_resp_welcome_keys,key_resp_welcome_rt,key_resp_welcome_duration,prolific_id,path_id,date,expName,psychopyVersion,OS,frameRate,key_resp_instruction1_started,key_resp_instruction1_keys,key_resp_instruction1_rt,key_resp_instruction1_duration,key_resp_instruction2_started,key_resp_instruction2_keys,key_resp_instruction2_rt,key_resp_instruction2_duration,key_resp_instruction3_started,key_resp_instruction3_keys,key_resp_instruction3_rt,key_resp_instruction3_duration,key_resp_instruction4_started,key_resp_instruction4_keys,key_resp_instruction4_rt,key_resp_instruction4_duration,practiceCondition,practice_reward_seqs,practice_trial_started,practice_trial_num,practice_resp_rt,practice_resp_duration,practice_resp_keys,prac_presentationInterval,"practice_reward_seq: 2,1,3",reward_img,cumulative_reward,trial_reward,practice_trials.thisRepN,practice_trials.thisTrialN,practice_trials.thisN,practice_trials.thisIndex,practice_trials.ran,"practice_reward_seq: 2,3,1",block_break_started,"practice_reward_seq: 1,3,2","practice_reward_seq: 3,1,2",practice_end_time,practice_end_keys,practice_end_rt,practice_end_duration,main_instruction_text_started,block_condition,block_order_indices,main_instruction_keys,main_instruction_rt,main_instruction_duration,block_number,block_assignment,current_condition,main_reward_seqs,main_trial_started,main_trial_num,main_trial_keys,main_trial_rt,main_trial_duration,main_presentationInterval,reward_presentation_time,main_reward_seq,reward_rand_val,main_reward_img,current_reward,main_trials.thisRepN,main_trials.thisTrialN,main_trials.thisN,main_trials.thisIndex,main_trials.ran,block_reward,block.thisRepN,block.thisTrialN,block.thisN,block.thisIndex,block.ran,block_reward.length,block_reward_all,reward_amount,date_end_task
0.0044,space,3.7397,,559ea6e7fdf99b0fff2bda68,A,2024-07-19_18h11.40.725,Slot Machine Game,2023.1.3,Win32,59.88023952,,,,,,,,,,,,,,,,,,,,,,,,,,,,,,,,,,,,,,,,,,,,,,,,,,,,,,,,,,,,,,,,,,,,,,,,,,,,,
,,,,559ea6e7fdf99b0fff2bda68,A,2024-07-19_18h11.40.725,Slot Machine Game,2023.1.3,Win32,59.88023952,3.758,space,19.8676,,,,,,,,,,,,,,,,,,,,,,,,,,,,,,,,,,,,,,,,,,,,,,,,,,,,,,,,,,,,,,,,,,,,,,,,,,
,,,,559ea6e7fdf99b0fff2bda68,A,2024-07-19_18h11.40.725,Slot Machine Game,2023.1.3,Win32,59.88023952,,,,,23.6512,space,52.7261,,,,,,,,,,,,,,,,,,,,,,,,,,,,,,,,,,,,,,,,,,,,,,,,,,,,,,,,,,,,,,,,,,,,,,
,,,,559ea6e7fdf99b0fff2bda68,A,2024-07-19_18h11.40.725,Slot Machine Game,2023.1.3,Win32,59.88023952,,,,,,,,,76.4338,space,24.4324,,,,,,,,,,,,,,,,,,,,,,,,,,,,,,,,,,,,,,,,,,,,,,,,,,,,,,,,,,,,,,,,,,
,,,,559ea6e7fdf99b0fff2bda68,A,2024-07-19_18h11.40.725,Slot Machine Game,2023.1.3,Win32,59.88023952,,,,,,,,,,,,,,,,,,,,,,,,,,,,,,,,,,,,,,,,,,,,,,,,,,,,,,,,,,,,,,,,,,,,,,,,,,,,,
,,,,559ea6e7fdf99b0fff2bda68,A,2024-07-19_18h11.40.725,Slot Machine Game,2023.1.3,Win32,59.88023952,,,,,,,,,,,,,243.0592,space,9.1671,,,,,,,,,,,,,,,,,,,,,,,,,,,,,,,,,,,,,,,,,,,,,,,,,,,,,,,,,,,,,,
,,,,559ea6e7fdf99b0fff2bda68,A,2024-07-19_18h11.40.725,Slot Machine Game,2023.1.3,Win32,59.88023952,,,,,,,,,,,,,,,,,"[9,15]","[[2,1,3],[2,3,1]]",252.2527,0,3.6324,,left,1,,stimuli/card_10_transparent.png,10,10,0,0,0,0,1,,,,,,,,,,,,,,,,,,,,,,,,,,,,,,,,,,,,,,,,,,,,
,,,,559ea6e7fdf99b0fff2bda68,A,2024-07-19_18h11.40.725,Slot Machine Game,2023.1.3,Win32,59.88023952,,,,,,,,,,,,,,,,,,,257.727,1,2.7188,,up,1.5,,stimuli/card_100_transparent.png,110,100,1,0,1,0,1,,,,,,,,,,,,,,,,,,,,,,,,,,,,,,,,,,,,,,,,,,,,
,,,,559ea6e7fdf99b0fff2bda68,A,2024-07-19_18h11.40.725,Slot Machine Game,2023.1.3,Win32,59.88023952,,,,,,,,,,,,,,,,,,,262.7766,2,1.4473,,up,0.5,,stimuli/card_100_transparent.png,210,100,2,0,2,0,1,,,,,,,,,,,,,,,,,,,,,,,,,,,,,,,,,,,,,,,,,,,,
,,,,559ea6e7fdf99b0fff2bda68,A,2024-07-19_18h11.40.725,Slot Machine Game,2023.1.3,Win32,59.88023952,,,,,,,,,,,,,,,,,,,265.5599,3,1.5711,,up,1,,stimuli/card_100_transparent.png,310,100,3,0,3,0,1,,,,,,,,,,,,,,,,,,,,,,,,,,,,,,,,,,,,,,,,,,,,
,,,,559ea6e7fdf99b0fff2bda68,A,2024-07-19_18h11.40.725,Slot Machine Game,2023.1.3,Win32,59.88023952,,,,,,,,,,,,,,,,,,,268.96,4,0.916,,up,0.5,,stimuli/card_100_transparent.png,410,100,4,0,4,0,1,,,,,,,,,,,,,,,,,,,,,,,,,,,,,,,,,,,,,,,,,,,,
,,,,559ea6e7fdf99b0fff2bda68,A,2024-07-19_18h11.40.725,Slot Machine Game,2023.1.3,Win32,59.88023952,,,,,,,,,,,,,,,,,,,271.1933,5,0.4921,,up,1.5,,stimuli/card_100_transparent.png,510,100,5,0,5,0,1,,,,,,,,,,,,,,,,,,,,,,,,,,,,,,,,,,,,,,,,,,,,
,,,,559ea6e7fdf99b0fff2bda68,A,2024-07-19_18h11.40.725,Slot Machine Game,2023.1.3,Win32,59.88023952,,,,,,,,,,,,,,,,,,,274.0095,6,0.6119,,up,0.5,,stimuli/card_10_transparent.png,520,10,6,0,6,0,1,,,,,,,,,,,,,,,,,,,,,,,,,,,,,,,,,,,,,,,,,,,,
,,,,559ea6e7fdf99b0fff2bda68,A,2024-07-19_18h11.40.725,Slot Machine Game,2023.1.3,Win32,59.88023952,,,,,,,,,,,,,,,,,,,275.9432,7,0.5205,,up,0.5,,stimuli/card_100_transparent.png,620,100,7,0,7,0,1,,,,,,,,,,,,,,,,,,,,,,,,,,,,,,,,,,,,,,,,,,,,
,,,,559ea6e7fdf99b0fff2bda68,A,2024-07-19_18h11.40.725,Slot Machine Game,2023.1.3,Win32,59.88023952,,,,,,,,,,,,,,,,,,,277.7934,8,0.4342,,up,1.5,,stimuli/card_100_transparent.png,720,100,8,0,8,0,1,,,,,,,,,,,,,,,,,,,,,,,,,,,,,,,,,,,,,,,,,,,,
,,,,559ea6e7fdf99b0fff2bda68,A,2024-07-19_18h11.40.725,Slot Machine Game,2023.1.3,Win32,59.88023952,,,,,,,,,,,,,,,,,,,280.5426,9,0.398,,up,0.5,,stimuli/card_10_transparent.png,730,10,9,0,9,0,1,,,,,,,,,,,,,,,,,,,,,,,,,,,,,,,,,,,,,,,,,,,,
,,,,559ea6e7fdf99b0fff2bda68,A,2024-07-19_18h11.40.725,Slot Machine Game,2023.1.3,Win32,59.88023952,,,,,,,,,,,,,,,,,,,282.2595,10,0.8834,,up,0.5,,stimuli/card_0_transparent.png,730,0,10,0,10,0,1,,,,,,,,,,,,,,,,,,,,,,,,,,,,,,,,,,,,,,,,,,,,
,,,,559ea6e7fdf99b0fff2bda68,A,2024-07-19_18h11.40.725,Slot Machine Game,2023.1.3,Win32,59.88023952,,,,,,,,,,,,,,,,,,,284.4762,11,0.3882,,left,1,,stimuli/card_0_transparent.png,730,0,11,0,11,0,1,,,,,,,,,,,,,,,,,,,,,,,,,,,,,,,,,,,,,,,,,,,,
,,,,559ea6e7fdf99b0fff2bda68,A,2024-07-19_18h11.40.725,Slot Machine Game,2023.1.3,Win32,59.88023952,,,,,,,,,,,,,,,,,,,286.6927,12,2.3393,,left,0.5,,stimuli/card_10_transparent.png,740,10,12,0,12,0,1,,,,,,,,,,,,,,,,,,,,,,,,,,,,,,,,,,,,,,,,,,,,
,,,,559ea6e7fdf99b0fff2bda68,A,2024-07-19_18h11.40.725,Slot Machine Game,2023.1.3,Win32,59.88023952,,,,,,,,,,,,,,,,,,,290.3425,13,0.4872,,right,1,,stimuli/card_100_transparent.png,840,100,13,0,13,0,1,,,,,,,,,,,,,,,,,,,,,,,,,,,,,,,,,,,,,,,,,,,,
,,,,559ea6e7fdf99b0fff2bda68,A,2024-07-19_18h11.40.725,Slot Machine Game,2023.1.3,Win32,59.88023952,,,,,,,,,,,,,,,,,,,292.6425,14,1.1138,,right,0.5,,stimuli/card_100_transparent.png,940,100,14,0,14,0,1,,,,,,,,,,,,,,,,,,,,,,,,,,,,,,,,,,,,,,,,,,,,
,,,,559ea6e7fdf99b0fff2bda68,A,2024-07-19_18h11.40.725,Slot Machine Game,2023.1.3,Win32,59.88023952,,,,,,,,,,,,,,,,,"[6,15]","[[1,3,2],[3,1,2]]",300.0994,0,3.8371,,right,1,,stimuli/card_10_transparent.png,10,10,0,0,0,0,1,,295.1006,,,,,,,,,,,,,,,,,,,,,,,,,,,,,,,,,,,,,,,,,,
,,,,559ea6e7fdf99b0fff2bda68,A,2024-07-19_18h11.40.725,Slot Machine Game,2023.1.3,Win32,59.88023952,,,,,,,,,,,,,,,,,,,305.7586,1,0.8228,,right,1.5,,stimuli/card_0_transparent.png,10,0,1,0,1,0,1,,,,,,,,,,,,,,,,,,,,,,,,,,,,,,,,,,,,,,,,,,,,
,,,,559ea6e7fdf99b0fff2bda68,A,2024-07-19_18h11.40.725,Slot Machine Game,2023.1.3,Win32,59.88023952,,,,,,,,,,,,,,,,,,,308.9254,2,0.2233,,left,0.5,,stimuli/card_100_transparent.png,110,100,2,0,2,0,1,,,,,,,,,,,,,,,,,,,,,,,,,,,,,,,,,,,,,,,,,,,,
,,,,559ea6e7fdf99b0fff2bda68,A,2024-07-19_18h11.40.725,Slot Machine Game,2023.1.3,Win32,59.88023952,,,,,,,,,,,,,,,,,,,310.4753,3,1.2047,,left,1.5,,stimuli/card_100_transparent.png,210,100,3,0,3,0,1,,,,,,,,,,,,,,,,,,,,,,,,,,,,,,,,,,,,,,,,,,,,
,,,,559ea6e7fdf99b0fff2bda68,A,2024-07-19_18h11.40.725,Slot Machine Game,2023.1.3,Win32,59.88023952,,,,,,,,,,,,,,,,,,,314.0083,4,0.8575,,left,1.5,,stimuli/card_100_transparent.png,310,100,4,0,4,0,1,,,,,,,,,,,,,,,,,,,,,,,,,,,,,,,,,,,,,,,,,,,,
,,,,559ea6e7fdf99b0fff2bda68,A,2024-07-19_18h11.40.725,Slot Machine Game,2023.1.3,Win32,59.88023952,,,,,,,,,,,,,,,,,,,317.1749,5,0.3562,,left,1.5,,stimuli/card_10_transparent.png,320,10,5,0,5,0,1,,,,,,,,,,,,,,,,,,,,,,,,,,,,,,,,,,,,,,,,,,,,
,,,,559ea6e7fdf99b0fff2bda68,A,2024-07-19_18h11.40.725,Slot Machine Game,2023.1.3,Win32,59.88023952,,,,,,,,,,,,,,,,,,,319.8415,6,0.6706,,left,1,,stimuli/card_0_transparent.png,320,0,6,0,6,0,1,,,,,,,,,,,,,,,,,,,,,,,,,,,,,,,,,,,,,,,,,,,,
,,,,559ea6e7fdf99b0fff2bda68,A,2024-07-19_18h11.40.725,Slot Machine Game,2023.1.3,Win32,59.88023952,,,,,,,,,,,,,,,,,,,322.3248,7,0.9538,,up,1.5,,stimuli/card_100_transparent.png,420,100,7,0,7,0,1,,,,,,,,,,,,,,,,,,,,,,,,,,,,,,,,,,,,,,,,,,,,
,,,,559ea6e7fdf99b0fff2bda68,A,2024-07-19_18h11.40.725,Slot Machine Game,2023.1.3,Win32,59.88023952,,,,,,,,,,,,,,,,,,,325.5915,8,0.4032,,up,0.5,,stimuli/card_100_transparent.png,520,100,8,0,8,0,1,,,,,,,,,,,,,,,,,,,,,,,,,,,,,,,,,,,,,,,,,,,,
,,,,559ea6e7fdf99b0fff2bda68,A,2024-07-19_18h11.40.725,Slot Machine Game,2023.1.3,Win32,59.88023952,,,,,,,,,,,,,,,,,,,327.3245,9,0.4679,,up,1.5,,stimuli/card_0_transparent.png,520,0,9,0,9,0,1,,,,,,,,,,,,,,,,,,,,,,,,,,,,,,,,,,,,,,,,,,,,
,,,,559ea6e7fdf99b0fff2bda68,A,2024-07-19_18h11.40.725,Slot Machine Game,2023.1.3,Win32,59.88023952,,,,,,,,,,,,,,,,,,,330.1079,10,0.5181,,up,1.5,,stimuli/card_10_transparent.png,530,10,10,0,10,0,1,,,,,,,,,,,,,,,,,,,,,,,,,,,,,,,,,,,,,,,,,,,,
,,,,559ea6e7fdf99b0fff2bda68,A,2024-07-19_18h11.40.725,Slot Machine Game,2023.1.3,Win32,59.88023952,,,,,,,,,,,,,,,,,,,332.9414,11,0.1244,,right,0.5,,stimuli/card_10_transparent.png,540,10,11,0,11,0,1,,,,,,,,,,,,,,,,,,,,,,,,,,,,,,,,,,,,,,,,,,,,
,,,,559ea6e7fdf99b0fff2bda68,A,2024-07-19_18h11.40.725,Slot Machine Game,2023.1.3,Win32,59.88023952,,,,,,,,,,,,,,,,,,,334.391,12,0.5888,,right,0.5,,stimuli/card_100_transparent.png,640,100,12,0,12,0,1,,,,,,,,,,,,,,,,,,,,,,,,,,,,,,,,,,,,,,,,,,,,
,,,,559ea6e7fdf99b0fff2bda68,A,2024-07-19_18h11.40.725,Slot Machine Game,2023.1.3,Win32,59.88023952,,,,,,,,,,,,,,,,,,,336.2915,13,0.4995,,right,1.5,,stimuli/card_10_transparent.png,650,10,13,0,13,0,1,,,,,,,,,,,,,,,,,,,,,,,,,,,,,,,,,,,,,,,,,,,,
,,,,559ea6e7fdf99b0fff2bda68,A,2024-07-19_18h11.40.725,Slot Machine Game,2023.1.3,Win32,59.88023952,,,,,,,,,,,,,,,,,,,339.1243,14,0.5482,,right,1.5,,stimuli/card_10_transparent.png,660,10,14,0,14,0,1,,,,,,,,,,,,,,,,,,,,,,,,,,,,,,,,,,,,,,,,,,,,
,,,,559ea6e7fdf99b0fff2bda68,A,2024-07-19_18h11.40.725,Slot Machine Game,2023.1.3,Win32,59.88023952,,,,,,,,,,,,,,,,,,,,,,,,,,,,,,,,,,,341.9909,,,346.9913,space,4.2553,,,,,,,,,,,,,,,,,,,,,,,,,,,,,,,,,,,,,
,,,,559ea6e7fdf99b0fff2bda68,A,2024-07-19_18h11.40.725,Slot Machine Game,2023.1.3,Win32,59.88023952,,,,,,,,,,,,,,,,,,,,,,,,,,,,,,,,,,,,,,,,,,351.2749,2,"[2,4,8,0,1,3,9,6,8,5]",space,7.436,,,,,,,,,,,,,,,,,,,,,,,,,,,,,,,
,,,,559ea6e7fdf99b0fff2bda68,A,2024-07-19_18h11.40.725,Slot Machine Game,2023.1.3,Win32,59.88023952,,,,,,,,,,,,,,,,,,,,,,,,,,,0,,,,,,,,,,,,,,,,,,,,,1,3,"[15,15]","[[3,1,2],[3,1,2]]",358.7502,0,left,2.8673,,1.5,0.3,"[3,1,2]",0.936906165,stimuli/card_0_transparent.png,0,0,0,0,0,1,,,,,,,,,,
,,,,559ea6e7fdf99b0fff2bda68,A,2024-07-19_18h11.40.725,Slot Machine Game,2023.1.3,Win32,59.88023952,,,,,,,,,,,,,,,,,,,,,,,,,,,0,,,,,,,,,,,,,,,,,,,,,1,3,,,363.957,1,left,0.5014,,1.5,0.3,"[3,1,2]",0.778361985,stimuli/card_0_transparent.png,0,1,0,1,0,1,,,,,,,,,,
,,,,559ea6e7fdf99b0fff2bda68,A,2024-07-19_18h11.40.725,Slot Machine Game,2023.1.3,Win32,59.88023952,,,,,,,,,,,,,,,,,,,,,,,,,,,10,,,,,,,,,,,,,,,,,,,,,1,3,,,366.7904,2,right,1.7486,,0.5,0.3,"[3,1,2]",0.272759993,stimuli/card_10_transparent.png,10,2,0,2,0,1,,,,,,,,,,
,,,,559ea6e7fdf99b0fff2bda68,A,2024-07-19_18h11.40.725,Slot Machine Game,2023.1.3,Win32,59.88023952,,,,,,,,,,,,,,,,,,,,,,,,,,,20,,,,,,,,,,,,,,,,,,,,,1,3,,,369.8569,3,right,0.4472,,1.5,0.3,"[3,1,2]",0.226162269,stimuli/card_10_transparent.png,10,3,0,3,0,1,,,,,,,,,,
,,,,559ea6e7fdf99b0fff2bda68,A,2024-07-19_18h11.40.725,Slot Machine Game,2023.1.3,Win32,59.88023952,,,,,,,,,,,,,,,,,,,,,,,,,,,120,,,,,,,,,,,,,,,,,,,,,1,3,,,372.64,4,up,0.4335,,1,0.3,"[3,1,2]",0.237413828,stimuli/card_100_transparent.png,100,4,0,4,0,1,,,,,,,,,,
,,,,559ea6e7fdf99b0fff2bda68,A,2024-07-19_18h11.40.725,Slot Machine Game,2023.1.3,Win32,59.88023952,,,,,,,,,,,,,,,,,,,,,,,,,,,220,,,,,,,,,,,,,,,,,,,,,1,3,,,374.9068,5,up,0.4361,,1.5,0.3,"[3,1,2]",0.520041499,stimuli/card_100_transparent.png,100,5,0,5,0,1,,,,,,,,,,
,,,,559ea6e7fdf99b0fff2bda68,A,2024-07-19_18h11.40.725,Slot Machine Game,2023.1.3,Win32,59.88023952,,,,,,,,,,,,,,,,,,,,,,,,,,,220,,,,,,,,,,,,,,,,,,,,,1,3,,,377.673,6,up,0.6814,,1,0.3,"[3,1,2]",0.04533254,stimuli/card_0_transparent.png,0,6,0,6,0,1,,,,,,,,,,
,,,,559ea6e7fdf99b0fff2bda68,A,2024-07-19_18h11.40.725,Slot Machine Game,2023.1.3,Win32,59.88023952,,,,,,,,,,,,,,,,,,,,,,,,,,,320,,,,,,,,,,,,,,,,,,,,,1,3,,,380.1735,7,up,0.5603,,1,0.3,"[3,1,2]",0.672079418,stimuli/card_100_transparent.png,100,7,0,7,0,1,,,,,,,,,,
,,,,559ea6e7fdf99b0fff2bda68,A,2024-07-19_18h11.40.725,Slot Machine Game,2023.1.3,Win32,59.88023952,,,,,,,,,,,,,,,,,,,,,,,,,,,420,,,,,,,,,,,,,,,,,,,,,1,3,,,382.5567,8,up,0.4018,,1,0.3,"[3,1,2]",0.697662161,stimuli/card_100_transparent.png,100,8,0,8,0,1,,,,,,,,,,
,,,,559ea6e7fdf99b0fff2bda68,A,2024-07-19_18h11.40.725,Slot Machine Game,2023.1.3,Win32,59.88023952,,,,,,,,,,,,,,,,,,,,,,,,,,,520,,,,,,,,,,,,,,,,,,,,,1,3,,,384.7898,9,up,0.4193,,1.5,0.3,"[3,1,2]",0.361193317,stimuli/card_100_transparent.png,100,9,0,9,0,1,,,,,,,,,,
,,,,559ea6e7fdf99b0fff2bda68,A,2024-07-19_18h11.40.725,Slot Machine Game,2023.1.3,Win32,59.88023952,,,,,,,,,,,,,,,,,,,,,,,,,,,620,,,,,,,,,,,,,,,,,,,,,1,3,,,387.5228,10,up,0.3334,,0.5,0.3,"[3,1,2]",0.208501279,stimuli/card_100_transparent.png,100,10,0,10,0,1,,,,,,,,,,
,,,,559ea6e7fdf99b0fff2bda68,A,2024-07-19_18h11.40.725,Slot Machine Game,2023.1.3,Win32,59.88023952,,,,,,,,,,,,,,,,,,,,,,,,,,,720,,,,,,,,,,,,,,,,,,,,,1,3,,,389.1729,11,up,0.5344,,0.5,0.3,"[3,1,2]",0.741657326,stimuli/card_100_transparent.png,100,11,0,11,0,1,,,,,,,,,,
,,,,559ea6e7fdf99b0fff2bda68,A,2024-07-19_18h11.40.725,Slot Machine Game,2023.1.3,Win32,59.88023952,,,,,,,,,,,,,,,,,,,,,,,,,,,730,,,,,,,,,,,,,,,,,,,,,1,3,,,391.0399,12,up,0.4838,,0.5,0.3,"[3,1,2]",0.129906973,stimuli/card_10_transparent.png,10,12,0,12,0,1,,,,,,,,,,
,,,,559ea6e7fdf99b0fff2bda68,A,2024-07-19_18h11.40.725,Slot Machine Game,2023.1.3,Win32,59.88023952,,,,,,,,,,,,,,,,,,,,,,,,,,,830,,,,,,,,,,,,,,,,,,,,,1,3,,,392.8654,13,up,0.4844,,1.5,0.3,"[3,1,2]",0.452666243,stimuli/card_100_transparent.png,100,13,0,13,0,1,,,,,,,,,,
,,,,559ea6e7fdf99b0fff2bda68,A,2024-07-19_18h11.40.725,Slot Machine Game,2023.1.3,Win32,59.88023952,,,,,,,,,,,,,,,,,,,,,,,,,,,930,,,,,,,,,,,,,,,,,,,,,1,3,,,395.6726,14,up,0.6852,,1,0.3,"[3,1,2]",0.503897747,stimuli/card_100_transparent.png,100,14,0,14,0,1,,,,,,,,,,
,,,,559ea6e7fdf99b0fff2bda68,A,2024-07-19_18h11.40.725,Slot Machine Game,2023.1.3,Win32,59.88023952,,,,,,,,,,,,,,,,,,,,,,,,,,,,,,,,,,,398.1725,,,,,,,,,,,,,,,,,,,,,,,,,,,,,,,,,[930],0,0,0,0,1,,,,
,,,,559ea6e7fdf99b0fff2bda68,A,2024-07-19_18h11.40.725,Slot Machine Game,2023.1.3,Win32,59.88023952,,,,,,,,,,,,,,,,,,,,,,,,,,,100,,,,,,,,,,,,,,,,,,,,,2,5,"[5,15]","[[1,2,3],[3,1,2]]",403.1811,0,left,3.9198,,1,0.3,"[1,2,3]",0.614052712,stimuli/card_100_transparent.png,100,0,0,0,0,1,,,,,,,,,,
,,,,559ea6e7fdf99b0fff2bda68,A,2024-07-19_18h11.40.725,Slot Machine Game,2023.1.3,Win32,59.88023952,,,,,,,,,,,,,,,,,,,,,,,,,,,200,,,,,,,,,,,,,,,,,,,,,2,5,,,408.9147,1,left,0.7684,,1,0.3,"[1,2,3]",0.494724688,stimuli/card_100_transparent.png,100,1,0,1,0,1,,,,,,,,,,
,,,,559ea6e7fdf99b0fff2bda68,A,2024-07-19_18h11.40.725,Slot Machine Game,2023.1.3,Win32,59.88023952,,,,,,,,,,,,,,,,,,,,,,,,,,,210,,,,,,,,,,,,,,,,,,,,,2,5,,,411.514,2,left,0.319,,0.5,0.3,"[1,2,3]",0.169995951,stimuli/card_10_transparent.png,10,2,0,2,0,1,,,,,,,,,,
,,,,559ea6e7fdf99b0fff2bda68,A,2024-07-19_18h11.40.725,Slot Machine Game,2023.1.3,Win32,59.88023952,,,,,,,,,,,,,,,,,,,,,,,,,,,220,,,,,,,,,,,,,,,,,,,,,2,5,,,413.1483,3,left,0.5673,,1.5,0.3,"[1,2,3]",0.129600044,stimuli/card_10_transparent.png,10,3,0,3,0,1,,,,,,,,,,
,,,,559ea6e7fdf99b0fff2bda68,A,2024-07-19_18h11.40.725,Slot Machine Game,2023.1.3,Win32,59.88023952,,,,,,,,,,,,,,,,,,,,,,,,,,,220,,,,,,,,,,,,,,,,,,,,,2,5,,,416.039,4,right,2.6483,,1.5,0.3,"[1,2,3]",0.265221694,stimuli/card_0_transparent.png,0,4,0,4,0,1,,,,,,,,,,
,,,,559ea6e7fdf99b0fff2bda68,A,2024-07-19_18h11.40.725,Slot Machine Game,2023.1.3,Win32,59.88023952,,,,,,,,,,,,,,,,,,,,,,,,,,,230,,,,,,,,,,,,,,,,,,,,,2,5,,,421.0222,5,right,1.6078,,1.5,0.3,"[3,1,2]",0.377201647,stimuli/card_10_transparent.png,10,5,0,5,0,1,,,,,,,,,,
,,,,559ea6e7fdf99b0fff2bda68,A,2024-07-19_18h11.40.725,Slot Machine Game,2023.1.3,Win32,59.88023952,,,,,,,,,,,,,,,,,,,,,,,,,,,330,,,,,,,,,,,,,,,,,,,,,2,5,,,424.972,6,up,1.7677,,1,0.3,"[3,1,2]",0.242511413,stimuli/card_100_transparent.png,100,6,0,6,0,1,,,,,,,,,,
,,,,559ea6e7fdf99b0fff2bda68,A,2024-07-19_18h11.40.725,Slot Machine Game,2023.1.3,Win32,59.88023952,,,,,,,,,,,,,,,,,,,,,,,,,,,430,,,,,,,,,,,,,,,,,,,,,2,5,,,428.5551,7,up,0.415,,0.5,0.3,"[3,1,2]",0.794903488,stimuli/card_100_transparent.png,100,7,0,7,0,1,,,,,,,,,,
,,,,559ea6e7fdf99b0fff2bda68,A,2024-07-19_18h11.40.725,Slot Machine Game,2023.1.3,Win32,59.88023952,,,,,,,,,,,,,,,,,,,,,,,,,,,530,,,,,,,,,,,,,,,,,,,,,2,5,,,430.3048,8,up,0.5059,,0.5,0.3,"[3,1,2]",0.854717141,stimuli/card_100_transparent.png,100,8,0,8,0,1,,,,,,,,,,
,,,,559ea6e7fdf99b0fff2bda68,A,2024-07-19_18h11.40.725,Slot Machine Game,2023.1.3,Win32,59.88023952,,,,,,,,,,,,,,,,,,,,,,,,,,,630,,,,,,,,,,,,,,,,,,,,,2,5,,,432.1215,9,up,0.2725,,1,0.3,"[3,1,2]",0.482167124,stimuli/card_100_transparent.png,100,9,0,9,0,1,,,,,,,,,,
,,,,559ea6e7fdf99b0fff2bda68,A,2024-07-19_18h11.40.725,Slot Machine Game,2023.1.3,Win32,59.88023952,,,,,,,,,,,,,,,,,,,,,,,,,,,730,,,,,,,,,,,,,,,,,,,,,2,5,,,434.2048,10,up,0.234,,1,0.3,"[3,1,2]",0.948595283,stimuli/card_100_transparent.png,100,10,0,10,0,1,,,,,,,,,,
,,,,559ea6e7fdf99b0fff2bda68,A,2024-07-19_18h11.40.725,Slot Machine Game,2023.1.3,Win32,59.88023952,,,,,,,,,,,,,,,,,,,,,,,,,,,830,,,,,,,,,,,,,,,,,,,,,2,5,,,436.2716,11,up,0.1043,,0.5,0.3,"[3,1,2]",0.39290483,stimuli/card_100_transparent.png,100,11,0,11,0,1,,,,,,,,,,
,,,,559ea6e7fdf99b0fff2bda68,A,2024-07-19_18h11.40.725,Slot Machine Game,2023.1.3,Win32,59.88023952,,,,,,,,,,,,,,,,,,,,,,,,,,,930,,,,,,,,,,,,,,,,,,,,,2,5,,,437.7046,12,up,0.2143,,1.5,0.3,"[3,1,2]",0.903495337,stimuli/card_100_transparent.png,100,12,0,12,0,1,,,,,,,,,,
,,,,559ea6e7fdf99b0fff2bda68,A,2024-07-19_18h11.40.725,Slot Machine Game,2023.1.3,Win32,59.88023952,,,,,,,,,,,,,,,,,,,,,,,,,,,1030,,,,,,,,,,,,,,,,,,,,,2,5,,,440.2715,13,up,0.1202,,1.5,0.3,"[3,1,2]",0.397564571,stimuli/card_100_transparent.png,100,13,0,13,0,1,,,,,,,,,,
,,,,559ea6e7fdf99b0fff2bda68,A,2024-07-19_18h11.40.725,Slot Machine Game,2023.1.3,Win32,59.88023952,,,,,,,,,,,,,,,,,,,,,,,,,,,1130,,,,,,,,,,,,,,,,,,,,,2,5,,,442.7214,14,up,0.1211,,1,0.3,"[3,1,2]",0.436224618,stimuli/card_100_transparent.png,100,14,0,14,0,1,,,,,,,,,,
,,,,559ea6e7fdf99b0fff2bda68,A,2024-07-19_18h11.40.725,Slot Machine Game,2023.1.3,Win32,59.88023952,,,,,,,,,,,,,,,,,,,,,,,,,,,,,,,,,,,444.671,,,,,,,,,,,,,,,,,,,,,,,,,,,,,,,,,"[930,1130]",1,0,1,0,1,,,,
,,,,559ea6e7fdf99b0fff2bda68,A,2024-07-19_18h11.40.725,Slot Machine Game,2023.1.3,Win32,59.88023952,,,,,,,,,,,,,,,,,,,,,,,,,,,10,,,,,,,,,,,,,,,,,,,,,3,9,"[8,15]","[[3,2,1],[3,1,2]]",449.6796,0,up,0.6678,,0.5,0.3,"[3,2,1]",0.991256789,stimuli/card_10_transparent.png,10,0,0,0,0,1,,,,,,,,,,
,,,,559ea6e7fdf99b0fff2bda68,A,2024-07-19_18h11.40.725,Slot Machine Game,2023.1.3,Win32,59.88023952,,,,,,,,,,,,,,,,,,,,,,,,,,,10,,,,,,,,,,,,,,,,,,,,,3,9,,,451.6711,1,up,0.5019,,1.5,0.3,"[3,2,1]",0.041298055,stimuli/card_0_transparent.png,0,1,0,1,0,1,,,,,,,,,,
,,,,559ea6e7fdf99b0fff2bda68,A,2024-07-19_18h11.40.725,Slot Machine Game,2023.1.3,Win32,59.88023952,,,,,,,,,,,,,,,,,,,,,,,,,,,10,,,,,,,,,,,,,,,,,,,,,3,9,,,454.5041,2,left,0.2522,,0.5,0.3,"[3,2,1]",0.770606854,stimuli/card_0_transparent.png,0,2,0,2,0,1,,,,,,,,,,
,,,,559ea6e7fdf99b0fff2bda68,A,2024-07-19_18h11.40.725,Slot Machine Game,2023.1.3,Win32,59.88023952,,,,,,,,,,,,,,,,,,,,,,,,,,,10,,,,,,,,,,,,,,,,,,,,,3,9,,,456.0709,3,left,0.9567,,0.5,0.3,"[3,2,1]",0.804141032,stimuli/card_0_transparent.png,0,3,0,3,0,1,,,,,,,,,,
,,,,559ea6e7fdf99b0fff2bda68,A,2024-07-19_18h11.40.725,Slot Machine Game,2023.1.3,Win32,59.88023952,,,,,,,,,,,,,,,,,,,,,,,,,,,110,,,,,,,,,,,,,,,,,,,,,3,9,,,458.3377,4,right,0.0006,,1,0.3,"[3,2,1]",0.743810792,stimuli/card_100_transparent.png,100,4,0,4,0,1,,,,,,,,,,
,,,,559ea6e7fdf99b0fff2bda68,A,2024-07-19_18h11.40.725,Slot Machine Game,2023.1.3,Win32,59.88023952,,,,,,,,,,,,,,,,,,,,,,,,,,,110,,,,,,,,,,,,,,,,,,,,,3,9,,,460.1706,5,right,0.6019,,1,0.3,"[3,2,1]",0.036319273,stimuli/card_0_transparent.png,0,5,0,5,0,1,,,,,,,,,,
,,,,559ea6e7fdf99b0fff2bda68,A,2024-07-19_18h11.40.725,Slot Machine Game,2023.1.3,Win32,59.88023952,,,,,,,,,,,,,,,,,,,,,,,,,,,110,,,,,,,,,,,,,,,,,,,,,3,9,,,462.5875,6,right,0.4803,,0.5,0.3,"[3,2,1]",0.012227655,stimuli/card_0_transparent.png,0,6,0,6,0,1,,,,,,,,,,
,,,,559ea6e7fdf99b0fff2bda68,A,2024-07-19_18h11.40.725,Slot Machine Game,2023.1.3,Win32,59.88023952,,,,,,,,,,,,,,,,,,,,,,,,,,,120,,,,,,,,,,,,,,,,,,,,,3,9,,,464.404,7,up,2.6032,,1.5,0.3,"[3,2,1]",0.724870712,stimuli/card_10_transparent.png,10,7,0,7,0,1,,,,,,,,,,
,,,,559ea6e7fdf99b0fff2bda68,A,2024-07-19_18h11.40.725,Slot Machine Game,2023.1.3,Win32,59.88023952,,,,,,,,,,,,,,,,,,,,,,,,,,,220,,,,,,,,,,,,,,,,,,,,,3,9,,,469.3371,8,up,0.448,,1.5,0.3,"[3,1,2]",0.603758763,stimuli/card_100_transparent.png,100,8,0,8,0,1,,,,,,,,,,
,,,,559ea6e7fdf99b0fff2bda68,A,2024-07-19_18h11.40.725,Slot Machine Game,2023.1.3,Win32,59.88023952,,,,,,,,,,,,,,,,,,,,,,,,,,,320,,,,,,,,,,,,,,,,,,,,,3,9,,,472.104,9,up,0.3539,,0.5,0.3,"[3,1,2]",0.808685466,stimuli/card_100_transparent.png,100,9,0,9,0,1,,,,,,,,,,
,,,,559ea6e7fdf99b0fff2bda68,A,2024-07-19_18h11.40.725,Slot Machine Game,2023.1.3,Win32,59.88023952,,,,,,,,,,,,,,,,,,,,,,,,,,,330,,,,,,,,,,,,,,,,,,,,,3,9,,,473.7878,10,up,0.2434,,1,0.3,"[3,1,2]",0.105461044,stimuli/card_10_transparent.png,10,10,0,10,0,1,,,,,,,,,,
,,,,559ea6e7fdf99b0fff2bda68,A,2024-07-19_18h11.40.725,Slot Machine Game,2023.1.3,Win32,59.88023952,,,,,,,,,,,,,,,,,,,,,,,,,,,430,,,,,,,,,,,,,,,,,,,,,3,9,,,475.8538,11,up,0.4538,,1,0.3,"[3,1,2]",0.425507904,stimuli/card_100_transparent.png,100,11,0,11,0,1,,,,,,,,,,
,,,,559ea6e7fdf99b0fff2bda68,A,2024-07-19_18h11.40.725,Slot Machine Game,2023.1.3,Win32,59.88023952,,,,,,,,,,,,,,,,,,,,,,,,,,,530,,,,,,,,,,,,,,,,,,,,,3,9,,,478.1369,12,up,0.4206,,1,0.3,"[3,1,2]",0.201918602,stimuli/card_100_transparent.png,100,12,0,12,0,1,,,,,,,,,,
,,,,559ea6e7fdf99b0fff2bda68,A,2024-07-19_18h11.40.725,Slot Machine Game,2023.1.3,Win32,59.88023952,,,,,,,,,,,,,,,,,,,,,,,,,,,530,,,,,,,,,,,,,,,,,,,,,3,9,,,480.3705,13,up,0.2645,,1,0.3,"[3,1,2]",0.046967464,stimuli/card_0_transparent.png,0,13,0,13,0,1,,,,,,,,,,
,,,,559ea6e7fdf99b0fff2bda68,A,2024-07-19_18h11.40.725,Slot Machine Game,2023.1.3,Win32,59.88023952,,,,,,,,,,,,,,,,,,,,,,,,,,,630,,,,,,,,,,,,,,,,,,,,,3,9,,,482.4704,14,up,0.6804,,1.5,0.3,"[3,1,2]",0.513608983,stimuli/card_100_transparent.png,100,14,0,14,0,1,,,,,,,,,,
,,,,559ea6e7fdf99b0fff2bda68,A,2024-07-19_18h11.40.725,Slot Machine Game,2023.1.3,Win32,59.88023952,,,,,,,,,,,,,,,,,,,,,,,,,,,,,,,,,,,485.4865,,,,,,,,,,,,,,,,,,,,,,,,,,,,,,,,,"[930,1130,630]",2,0,2,0,1,,,,
,,,,559ea6e7fdf99b0fff2bda68,A,2024-07-19_18h11.40.725,Slot Machine Game,2023.1.3,Win32,59.88023952,,,,,,,,,,,,,,,,,,,,,,,,,,,10,,,,,,,,,,,,,,,,,,,,,4,1,"[12,15]","[[2,1,3],[2,3,1]]",490.4952,0,right,3.5367,,1,0.3,"[2,1,3]",0.168363356,stimuli/card_10_transparent.png,10,0,0,0,0,1,,,,,,,,,,
,,,,559ea6e7fdf99b0fff2bda68,A,2024-07-19_18h11.40.725,Slot Machine Game,2023.1.3,Win32,59.88023952,,,,,,,,,,,,,,,,,,,,,,,,,,,10,,,,,,,,,,,,,,,,,,,,,4,1,,,495.8533,1,right,0.3473,,1,0.3,"[2,1,3]",0.791182353,stimuli/card_0_transparent.png,0,1,0,1,0,1,,,,,,,,,,
,,,,559ea6e7fdf99b0fff2bda68,A,2024-07-19_18h11.40.725,Slot Machine Game,2023.1.3,Win32,59.88023952,,,,,,,,,,,,,,,,,,,,,,,,,,,20,,,,,,,,,,,,,,,,,,,,,4,1,,,498.0366,2,left,0.6356,,0.5,0.3,"[2,1,3]",0.510440146,stimuli/card_10_transparent.png,10,2,0,2,0,1,,,,,,,,,,
,,,,559ea6e7fdf99b0fff2bda68,A,2024-07-19_18h11.40.725,Slot Machine Game,2023.1.3,Win32,59.88023952,,,,,,,,,,,,,,,,,,,,,,,,,,,120,,,,,,,,,,,,,,,,,,,,,4,1,,,500.0035,3,left,0.2222,,0.5,0.3,"[2,1,3]",0.194266621,stimuli/card_100_transparent.png,100,3,0,3,0,1,,,,,,,,,,
,,,,559ea6e7fdf99b0fff2bda68,A,2024-07-19_18h11.40.725,Slot Machine Game,2023.1.3,Win32,59.88023952,,,,,,,,,,,,,,,,,,,,,,,,,,,130,,,,,,,,,,,,,,,,,,,,,4,1,,,501.5529,4,left,0.233,,1,0.3,"[2,1,3]",0.593626766,stimuli/card_10_transparent.png,10,4,0,4,0,1,,,,,,,,,,
,,,,559ea6e7fdf99b0fff2bda68,A,2024-07-19_18h11.40.725,Slot Machine Game,2023.1.3,Win32,59.88023952,,,,,,,,,,,,,,,,,,,,,,,,,,,140,,,,,,,,,,,,,,,,,,,,,4,1,,,503.6197,5,left,0.5818,,1,0.3,"[2,1,3]",0.512696327,stimuli/card_10_transparent.png,10,5,0,5,0,1,,,,,,,,,,
,,,,559ea6e7fdf99b0fff2bda68,A,2024-07-19_18h11.40.725,Slot Machine Game,2023.1.3,Win32,59.88023952,,,,,,,,,,,,,,,,,,,,,,,,,,,150,,,,,,,,,,,,,,,,,,,,,4,1,,,506.0361,6,up,1.47,,1.5,0.3,"[2,1,3]",0.159918706,stimuli/card_10_transparent.png,10,6,0,6,0,1,,,,,,,,,,
,,,,559ea6e7fdf99b0fff2bda68,A,2024-07-19_18h11.40.725,Slot Machine Game,2023.1.3,Win32,59.88023952,,,,,,,,,,,,,,,,,,,,,,,,,,,150,,,,,,,,,,,,,,,,,,,,,4,1,,,509.829,7,up,0.3342,,1,0.3,"[2,1,3]",0.057534665,stimuli/card_0_transparent.png,0,7,0,7,0,1,,,,,,,,,,
,,,,559ea6e7fdf99b0fff2bda68,A,2024-07-19_18h11.40.725,Slot Machine Game,2023.1.3,Win32,59.88023952,,,,,,,,,,,,,,,,,,,,,,,,,,,160,,,,,,,,,,,,,,,,,,,,,4,1,,,511.9861,8,left,1.6933,,1.5,0.3,"[2,1,3]",0.55921439,stimuli/card_10_transparent.png,10,8,0,8,0,1,,,,,,,,,,
,,,,559ea6e7fdf99b0fff2bda68,A,2024-07-19_18h11.40.725,Slot Machine Game,2023.1.3,Win32,59.88023952,,,,,,,,,,,,,,,,,,,,,,,,,,,260,,,,,,,,,,,,,,,,,,,,,4,1,,,516.0026,9,left,0.4001,,0.5,0.3,"[2,1,3]",0.13522965,stimuli/card_100_transparent.png,100,9,0,9,0,1,,,,,,,,,,
,,,,559ea6e7fdf99b0fff2bda68,A,2024-07-19_18h11.40.725,Slot Machine Game,2023.1.3,Win32,59.88023952,,,,,,,,,,,,,,,,,,,,,,,,,,,270,,,,,,,,,,,,,,,,,,,,,4,1,,,517.7357,10,left,0.5364,,1.5,0.3,"[2,1,3]",0.437386707,stimuli/card_10_transparent.png,10,10,0,10,0,1,,,,,,,,,,
,,,,559ea6e7fdf99b0fff2bda68,A,2024-07-19_18h11.40.725,Slot Machine Game,2023.1.3,Win32,59.88023952,,,,,,,,,,,,,,,,,,,,,,,,,,,270,,,,,,,,,,,,,,,,,,,,,4,1,,,520.619,11,right,0.5264,,0.5,0.3,"[2,1,3]",0.312996885,stimuli/card_0_transparent.png,0,11,0,11,0,1,,,,,,,,,,
,,,,559ea6e7fdf99b0fff2bda68,A,2024-07-19_18h11.40.725,Slot Machine Game,2023.1.3,Win32,59.88023952,,,,,,,,,,,,,,,,,,,,,,,,,,,370,,,,,,,,,,,,,,,,,,,,,4,1,,,522.4612,12,right,0.4112,,1,0.3,"[2,3,1]",0.945877883,stimuli/card_100_transparent.png,100,12,0,12,0,1,,,,,,,,,,
,,,,559ea6e7fdf99b0fff2bda68,A,2024-07-19_18h11.40.725,Slot Machine Game,2023.1.3,Win32,59.88023952,,,,,,,,,,,,,,,,,,,,,,,,,,,470,,,,,,,,,,,,,,,,,,,,,4,1,,,524.7026,13,right,0.4196,,1.5,0.3,"[2,3,1]",0.90345154,stimuli/card_100_transparent.png,100,13,0,13,0,1,,,,,,,,,,
,,,,559ea6e7fdf99b0fff2bda68,A,2024-07-19_18h11.40.725,Slot Machine Game,2023.1.3,Win32,59.88023952,,,,,,,,,,,,,,,,,,,,,,,,,,,480,,,,,,,,,,,,,,,,,,,,,4,1,,,527.452,14,right,0.1668,,0.5,0.3,"[2,3,1]",0.109971398,stimuli/card_10_transparent.png,10,14,0,14,0,1,,,,,,,,,,
,,,,559ea6e7fdf99b0fff2bda68,A,2024-07-19_18h11.40.725,Slot Machine Game,2023.1.3,Win32,59.88023952,,,,,,,,,,,,,,,,,,,,,,,,,,,,,,,,,,,528.9352,,,,,,,,,,,,,,,,,,,,,,,,,,,,,,,,,"[930,1130,630,480]",3,0,3,0,1,,,,
,,,,559ea6e7fdf99b0fff2bda68,A,2024-07-19_18h11.40.725,Slot Machine Game,2023.1.3,Win32,59.88023952,,,,,,,,,,,,,,,,,,,,,,,,,,,10,,,,,,,,,,,,,,,,,,,,,5,2,"[6,15]","[[1,3,2],[3,2,1]]",533.9438,0,right,2.5265,,1,0.3,"[1,3,2]",0.557334894,stimuli/card_10_transparent.png,10,0,0,0,0,1,,,,,,,,,,
,,,,559ea6e7fdf99b0fff2bda68,A,2024-07-19_18h11.40.725,Slot Machine Game,2023.1.3,Win32,59.88023952,,,,,,,,,,,,,,,,,,,,,,,,,,,20,,,,,,,,,,,,,,,,,,,,,5,2,,,538.2851,1,right,0.3568,,1.5,0.3,"[1,3,2]",0.863475046,stimuli/card_10_transparent.png,10,1,0,1,0,1,,,,,,,,,,
,,,,559ea6e7fdf99b0fff2bda68,A,2024-07-19_18h11.40.725,Slot Machine Game,2023.1.3,Win32,59.88023952,,,,,,,,,,,,,,,,,,,,,,,,,,,20,,,,,,,,,,,,,,,,,,,,,5,2,,,540.9522,2,up,0.7579,,1,0.3,"[1,3,2]",0.932992416,stimuli/card_0_transparent.png,0,2,0,2,0,1,,,,,,,,,,
,,,,559ea6e7fdf99b0fff2bda68,A,2024-07-19_18h11.40.725,Slot Machine Game,2023.1.3,Win32,59.88023952,,,,,,,,,,,,,,,,,,,,,,,,,,,20,,,,,,,,,,,,,,,,,,,,,5,2,,,543.535,3,up,0.3056,,1,0.3,"[1,3,2]",0.228962241,stimuli/card_0_transparent.png,0,3,0,3,0,1,,,,,,,,,,
,,,,559ea6e7fdf99b0fff2bda68,A,2024-07-19_18h11.40.725,Slot Machine Game,2023.1.3,Win32,59.88023952,,,,,,,,,,,,,,,,,,,,,,,,,,,120,,,,,,,,,,,,,,,,,,,,,5,2,,,545.6684,4,left,1.4015,,1,0.3,"[1,3,2]",0.514561992,stimuli/card_100_transparent.png,100,4,0,4,0,1,,,,,,,,,,
,,,,559ea6e7fdf99b0fff2bda68,A,2024-07-19_18h11.40.725,Slot Machine Game,2023.1.3,Win32,59.88023952,,,,,,,,,,,,,,,,,,,,,,,,,,,120,,,,,,,,,,,,,,,,,,,,,5,2,,,548.9015,5,left,0.1689,,1.5,0.3,"[1,3,2]",0.058145736,stimuli/card_0_transparent.png,0,5,0,5,0,1,,,,,,,,,,
,,,,559ea6e7fdf99b0fff2bda68,A,2024-07-19_18h11.40.725,Slot Machine Game,2023.1.3,Win32,59.88023952,,,,,,,,,,,,,,,,,,,,,,,,,,,120,,,,,,,,,,,,,,,,,,,,,5,2,,,551.3846,6,left,0.1029,,0.5,0.3,"[3,2,1]",0.491257584,stimuli/card_0_transparent.png,0,6,0,6,0,1,,,,,,,,,,
,,,,559ea6e7fdf99b0fff2bda68,A,2024-07-19_18h11.40.725,Slot Machine Game,2023.1.3,Win32,59.88023952,,,,,,,,,,,,,,,,,,,,,,,,,,,120,,,,,,,,,,,,,,,,,,,,,5,2,,,552.8013,7,right,1.6647,,1,0.3,"[3,2,1]",0.011902817,stimuli/card_0_transparent.png,0,7,0,7,0,1,,,,,,,,,,
,,,,559ea6e7fdf99b0fff2bda68,A,2024-07-19_18h11.40.725,Slot Machine Game,2023.1.3,Win32,59.88023952,,,,,,,,,,,,,,,,,,,,,,,,,,,130,,,,,,,,,,,,,,,,,,,,,5,2,,,556.3017,8,up,0.4543,,0.5,0.3,"[3,2,1]",0.730178187,stimuli/card_10_transparent.png,10,8,0,8,0,1,,,,,,,,,,
,,,,559ea6e7fdf99b0fff2bda68,A,2024-07-19_18h11.40.725,Slot Machine Game,2023.1.3,Win32,59.88023952,,,,,,,,,,,,,,,,,,,,,,,,,,,140,,,,,,,,,,,,,,,,,,,,,5,2,,,558.0847,9,up,0.2506,,1.5,0.3,"[3,2,1]",0.499779595,stimuli/card_10_transparent.png,10,9,0,9,0,1,,,,,,,,,,
,,,,559ea6e7fdf99b0fff2bda68,A,2024-07-19_18h11.40.725,Slot Machine Game,2023.1.3,Win32,59.88023952,,,,,,,,,,,,,,,,,,,,,,,,,,,140,,,,,,,,,,,,,,,,,,,,,5,2,,,560.668,10,left,1.121,,0.5,0.3,"[3,2,1]",0.64121587,stimuli/card_0_transparent.png,0,10,0,10,0,1,,,,,,,,,,
,,,,559ea6e7fdf99b0fff2bda68,A,2024-07-19_18h11.40.725,Slot Machine Game,2023.1.3,Win32,59.88023952,,,,,,,,,,,,,,,,,,,,,,,,,,,150,,,,,,,,,,,,,,,,,,,,,5,2,,,563.1014,11,left,1.0668,,0.5,0.3,"[3,2,1]",0.181069691,stimuli/card_10_transparent.png,10,11,0,11,0,1,,,,,,,,,,
,,,,559ea6e7fdf99b0fff2bda68,A,2024-07-19_18h11.40.725,Slot Machine Game,2023.1.3,Win32,59.88023952,,,,,,,,,,,,,,,,,,,,,,,,,,,160,,,,,,,,,,,,,,,,,,,,,5,2,,,565.5008,12,up,1.7333,,1.5,0.3,"[3,2,1]",0.35035858,stimuli/card_10_transparent.png,10,12,0,12,0,1,,,,,,,,,,
,,,,559ea6e7fdf99b0fff2bda68,A,2024-07-19_18h11.40.725,Slot Machine Game,2023.1.3,Win32,59.88023952,,,,,,,,,,,,,,,,,,,,,,,,,,,260,,,,,,,,,,,,,,,,,,,,,5,2,,,569.5507,13,right,1.1007,,1,0.3,"[3,2,1]",0.781875041,stimuli/card_100_transparent.png,100,13,0,13,0,1,,,,,,,,,,
,,,,559ea6e7fdf99b0fff2bda68,A,2024-07-19_18h11.40.725,Slot Machine Game,2023.1.3,Win32,59.88023952,,,,,,,,,,,,,,,,,,,,,,,,,,,360,,,,,,,,,,,,,,,,,,,,,5,2,,,572.4673,14,right,0.2674,,1.5,0.3,"[3,2,1]",0.781143509,stimuli/card_100_transparent.png,100,14,0,14,0,1,,,,,,,,,,
,,,,559ea6e7fdf99b0fff2bda68,A,2024-07-19_18h11.40.725,Slot Machine Game,2023.1.3,Win32,59.88023952,,,,,,,,,,,,,,,,,,,,,,,,,,,,,,,,,,,575.0509,,,,,,,,,,,,,,,,,,,,,,,,,,,,,,,,,"[930,1130,630,480,360]",4,0,4,0,1,,,,
,,,,559ea6e7fdf99b0fff2bda68,A,2024-07-19_18h11.40.725,Slot Machine Game,2023.1.3,Win32,59.88023952,,,,,,,,,,,,,,,,,,,,,,,,,,,100,,,,,,,,,,,,,,,,,,,,,6,4,"[7,15]","[[2,3,1],[1,2,3]]",580.0596,0,right,0.7209,,1,0.3,"[2,3,1]",0.612452868,stimuli/card_100_transparent.png,100,0,0,0,0,1,,,,,,,,,,
,,,,559ea6e7fdf99b0fff2bda68,A,2024-07-19_18h11.40.725,Slot Machine Game,2023.1.3,Win32,59.88023952,,,,,,,,,,,,,,,,,,,,,,,,,,,110,,,,,,,,,,,,,,,,,,,,,6,4,,,582.6004,1,right,0.1862,,1,0.3,"[2,3,1]",0.173659775,stimuli/card_10_transparent.png,10,1,0,1,0,1,,,,,,,,,,
,,,,559ea6e7fdf99b0fff2bda68,A,2024-07-19_18h11.40.725,Slot Machine Game,2023.1.3,Win32,59.88023952,,,,,,,,,,,,,,,,,,,,,,,,,,,210,,,,,,,,,,,,,,,,,,,,,6,4,,,584.6002,2,right,0.3208,,1.5,0.3,"[2,3,1]",0.530445849,stimuli/card_100_transparent.png,100,2,0,2,0,1,,,,,,,,,,
,,,,559ea6e7fdf99b0fff2bda68,A,2024-07-19_18h11.40.725,Slot Machine Game,2023.1.3,Win32,59.88023952,,,,,,,,,,,,,,,,,,,,,,,,,,,310,,,,,,,,,,,,,,,,,,,,,6,4,,,587.2336,3,right,0.2688,,1,0.3,"[2,3,1]",0.450350477,stimuli/card_100_transparent.png,100,3,0,3,0,1,,,,,,,,,,
,,,,559ea6e7fdf99b0fff2bda68,A,2024-07-19_18h11.40.725,Slot Machine Game,2023.1.3,Win32,59.88023952,,,,,,,,,,,,,,,,,,,,,,,,,,,410,,,,,,,,,,,,,,,,,,,,,6,4,,,589.3337,4,right,0.3698,,0.5,0.3,"[2,3,1]",0.400335927,stimuli/card_100_transparent.png,100,4,0,4,0,1,,,,,,,,,,
,,,,559ea6e7fdf99b0fff2bda68,A,2024-07-19_18h11.40.725,Slot Machine Game,2023.1.3,Win32,59.88023952,,,,,,,,,,,,,,,,,,,,,,,,,,,510,,,,,,,,,,,,,,,,,,,,,6,4,,,591.0336,5,right,0.4664,,0.5,0.3,"[2,3,1]",0.729443298,stimuli/card_100_transparent.png,100,5,0,5,0,1,,,,,,,,,,
,,,,559ea6e7fdf99b0fff2bda68,A,2024-07-19_18h11.40.725,Slot Machine Game,2023.1.3,Win32,59.88023952,,,,,,,,,,,,,,,,,,,,,,,,,,,520,,,,,,,,,,,,,,,,,,,,,6,4,,,592.8171,6,right,0.381,,0.5,0.3,"[2,3,1]",0.120100944,stimuli/card_10_transparent.png,10,6,0,6,0,1,,,,,,,,,,
,,,,559ea6e7fdf99b0fff2bda68,A,2024-07-19_18h11.40.725,Slot Machine Game,2023.1.3,Win32,59.88023952,,,,,,,,,,,,,,,,,,,,,,,,,,,620,,,,,,,,,,,,,,,,,,,,,6,4,,,594.5332,7,right,0.2336,,1.5,0.3,"[1,2,3]",0.041005329,stimuli/card_100_transparent.png,100,7,0,7,0,1,,,,,,,,,,
,,,,559ea6e7fdf99b0fff2bda68,A,2024-07-19_18h11.40.725,Slot Machine Game,2023.1.3,Win32,59.88023952,,,,,,,,,,,,,,,,,,,,,,,,,,,620,,,,,,,,,,,,,,,,,,,,,6,4,,,597.0832,8,right,0.0916,,1,0.3,"[1,2,3]",0.661901566,stimuli/card_0_transparent.png,0,8,0,8,0,1,,,,,,,,,,
,,,,559ea6e7fdf99b0fff2bda68,A,2024-07-19_18h11.40.725,Slot Machine Game,2023.1.3,Win32,59.88023952,,,,,,,,,,,,,,,,,,,,,,,,,,,620,,,,,,,,,,,,,,,,,,,,,6,4,,,598.9831,9,right,0.6191,,1.5,0.3,"[1,2,3]",0.948506225,stimuli/card_0_transparent.png,0,9,0,9,0,1,,,,,,,,,,
,,,,559ea6e7fdf99b0fff2bda68,A,2024-07-19_18h11.40.725,Slot Machine Game,2023.1.3,Win32,59.88023952,,,,,,,,,,,,,,,,,,,,,,,,,,,630,,,,,,,,,,,,,,,,,,,,,6,4,,,601.9166,10,up,2.1524,,1.5,0.3,"[1,2,3]",0.822541926,stimuli/card_10_transparent.png,10,10,0,10,0,1,,,,,,,,,,
,,,,559ea6e7fdf99b0fff2bda68,A,2024-07-19_18h11.40.725,Slot Machine Game,2023.1.3,Win32,59.88023952,,,,,,,,,,,,,,,,,,,,,,,,,,,730,,,,,,,,,,,,,,,,,,,,,6,4,,,606.3999,11,up,0.2812,,1,0.3,"[1,2,3]",0.122722831,stimuli/card_100_transparent.png,100,11,0,11,0,1,,,,,,,,,,
,,,,559ea6e7fdf99b0fff2bda68,A,2024-07-19_18h11.40.725,Slot Machine Game,2023.1.3,Win32,59.88023952,,,,,,,,,,,,,,,,,,,,,,,,,,,740,,,,,,,,,,,,,,,,,,,,,6,4,,,608.5164,12,up,0.3313,,1,0.3,"[1,2,3]",0.350742447,stimuli/card_10_transparent.png,10,12,0,12,0,1,,,,,,,,,,
,,,,559ea6e7fdf99b0fff2bda68,A,2024-07-19_18h11.40.725,Slot Machine Game,2023.1.3,Win32,59.88023952,,,,,,,,,,,,,,,,,,,,,,,,,,,840,,,,,,,,,,,,,,,,,,,,,6,4,,,610.6735,13,up,0.2175,,1,0.3,"[1,2,3]",0.113458015,stimuli/card_100_transparent.png,100,13,0,13,0,1,,,,,,,,,,
,,,,559ea6e7fdf99b0fff2bda68,A,2024-07-19_18h11.40.725,Slot Machine Game,2023.1.3,Win32,59.88023952,,,,,,,,,,,,,,,,,,,,,,,,,,,840,,,,,,,,,,,,,,,,,,,,,6,4,,,612.7167,14,up,0.2251,,1.5,0.3,"[1,2,3]",0.0184023,stimuli/card_0_transparent.png,0,14,0,14,0,1,,,,,,,,,,
,,,,559ea6e7fdf99b0fff2bda68,A,2024-07-19_18h11.40.725,Slot Machine Game,2023.1.3,Win32,59.88023952,,,,,,,,,,,,,,,,,,,,,,,,,,,,,,,,,,,615.2664,,,,,,,,,,,,,,,,,,,,,,,,,,,,,,,,,"[930,1130,630,480,360,840]",5,0,5,0,1,,,,
,,,,559ea6e7fdf99b0fff2bda68,A,2024-07-19_18h11.40.725,Slot Machine Game,2023.1.3,Win32,59.88023952,,,,,,,,,,,,,,,,,,,,,,,,,,,100,,,,,,,,,,,,,,,,,,,,,7,10,"[10,15]","[[3,1,2],[1,3,2]]",620.2738,0,up,2.6006,,1,0.3,"[3,1,2]",0.599340928,stimuli/card_100_transparent.png,100,0,0,0,0,1,,,,,,,,,,
,,,,559ea6e7fdf99b0fff2bda68,A,2024-07-19_18h11.40.725,Slot Machine Game,2023.1.3,Win32,59.88023952,,,,,,,,,,,,,,,,,,,,,,,,,,,110,,,,,,,,,,,,,,,,,,,,,7,10,,,624.6995,1,up,0.619,,1,0.3,"[3,1,2]",0.185227404,stimuli/card_10_transparent.png,10,1,0,1,0,1,,,,,,,,,,
,,,,559ea6e7fdf99b0fff2bda68,A,2024-07-19_18h11.40.725,Slot Machine Game,2023.1.3,Win32,59.88023952,,,,,,,,,,,,,,,,,,,,,,,,,,,210,,,,,,,,,,,,,,,,,,,,,7,10,,,627.1491,2,up,0.3332,,0.5,0.3,"[3,1,2]",0.50077757,stimuli/card_100_transparent.png,100,2,0,2,0,1,,,,,,,,,,
,,,,559ea6e7fdf99b0fff2bda68,A,2024-07-19_18h11.40.725,Slot Machine Game,2023.1.3,Win32,59.88023952,,,,,,,,,,,,,,,,,,,,,,,,,,,310,,,,,,,,,,,,,,,,,,,,,7,10,,,628.8158,3,up,0.6563,,0.5,0.3,"[3,1,2]",0.847153937,stimuli/card_100_transparent.png,100,3,0,3,0,1,,,,,,,,,,
,,,,559ea6e7fdf99b0fff2bda68,A,2024-07-19_18h11.40.725,Slot Machine Game,2023.1.3,Win32,59.88023952,,,,,,,,,,,,,,,,,,,,,,,,,,,410,,,,,,,,,,,,,,,,,,,,,7,10,,,630.7822,4,up,0.4365,,0.5,0.3,"[3,1,2]",0.36126825,stimuli/card_100_transparent.png,100,4,0,4,0,1,,,,,,,,,,
,,,,559ea6e7fdf99b0fff2bda68,A,2024-07-19_18h11.40.725,Slot Machine Game,2023.1.3,Win32,59.88023952,,,,,,,,,,,,,,,,,,,,,,,,,,,510,,,,,,,,,,,,,,,,,,,,,7,10,,,632.5325,5,up,0.4157,,0.5,0.3,"[3,1,2]",0.538151932,stimuli/card_100_transparent.png,100,5,0,5,0,1,,,,,,,,,,
,,,,559ea6e7fdf99b0fff2bda68,A,2024-07-19_18h11.40.725,Slot Machine Game,2023.1.3,Win32,59.88023952,,,,,,,,,,,,,,,,,,,,,,,,,,,510,,,,,,,,,,,,,,,,,,,,,7,10,,,634.2822,6,up,0.5003,,1.5,0.3,"[3,1,2]",0.037079246,stimuli/card_0_transparent.png,0,6,0,6,0,1,,,,,,,,,,
,,,,559ea6e7fdf99b0fff2bda68,A,2024-07-19_18h11.40.725,Slot Machine Game,2023.1.3,Win32,59.88023952,,,,,,,,,,,,,,,,,,,,,,,,,,,610,,,,,,,,,,,,,,,,,,,,,7,10,,,637.0987,7,up,0.2832,,0.5,0.3,"[3,1,2]",0.297041793,stimuli/card_100_transparent.png,100,7,0,7,0,1,,,,,,,,,,
,,,,559ea6e7fdf99b0fff2bda68,A,2024-07-19_18h11.40.725,Slot Machine Game,2023.1.3,Win32,59.88023952,,,,,,,,,,,,,,,,,,,,,,,,,,,710,,,,,,,,,,,,,,,,,,,,,7,10,,,638.7157,8,up,0.404,,0.5,0.3,"[3,1,2]",0.329494638,stimuli/card_100_transparent.png,100,8,0,8,0,1,,,,,,,,,,
,,,,559ea6e7fdf99b0fff2bda68,A,2024-07-19_18h11.40.725,Slot Machine Game,2023.1.3,Win32,59.88023952,,,,,,,,,,,,,,,,,,,,,,,,,,,810,,,,,,,,,,,,,,,,,,,,,7,10,,,640.4489,9,up,0.2591,,1,0.3,"[3,1,2]",0.439146343,stimuli/card_100_transparent.png,100,9,0,9,0,1,,,,,,,,,,
,,,,559ea6e7fdf99b0fff2bda68,A,2024-07-19_18h11.40.725,Slot Machine Game,2023.1.3,Win32,59.88023952,,,,,,,,,,,,,,,,,,,,,,,,,,,810,,,,,,,,,,,,,,,,,,,,,7,10,,,642.5325,10,up,0.1171,,1,0.3,"[1,3,2]",0.396345688,stimuli/card_0_transparent.png,0,10,0,10,0,1,,,,,,,,,,
,,,,559ea6e7fdf99b0fff2bda68,A,2024-07-19_18h11.40.725,Slot Machine Game,2023.1.3,Win32,59.88023952,,,,,,,,,,,,,,,,,,,,,,,,,,,810,,,,,,,,,,,,,,,,,,,,,7,10,,,644.482,11,up,0.185,,1,0.3,"[1,3,2]",0.648994286,stimuli/card_0_transparent.png,0,11,0,11,0,1,,,,,,,,,,
,,,,559ea6e7fdf99b0fff2bda68,A,2024-07-19_18h11.40.725,Slot Machine Game,2023.1.3,Win32,59.88023952,,,,,,,,,,,,,,,,,,,,,,,,,,,910,,,,,,,,,,,,,,,,,,,,,7,10,,,646.4988,12,left,0.5206,,1,0.3,"[1,3,2]",0.954067094,stimuli/card_100_transparent.png,100,12,0,12,0,1,,,,,,,,,,
,,,,559ea6e7fdf99b0fff2bda68,A,2024-07-19_18h11.40.725,Slot Machine Game,2023.1.3,Win32,59.88023952,,,,,,,,,,,,,,,,,,,,,,,,,,,1010,,,,,,,,,,,,,,,,,,,,,7,10,,,648.8486,13,left,0.6351,,1.5,0.3,"[1,3,2]",0.782549497,stimuli/card_100_transparent.png,100,13,0,13,0,1,,,,,,,,,,
,,,,559ea6e7fdf99b0fff2bda68,A,2024-07-19_18h11.40.725,Slot Machine Game,2023.1.3,Win32,59.88023952,,,,,,,,,,,,,,,,,,,,,,,,,,,1110,,,,,,,,,,,,,,,,,,,,,7,10,,,651.8154,14,left,0.8341,,1.5,0.3,"[1,3,2]",0.967163033,stimuli/card_100_transparent.png,100,14,0,14,0,1,,,,,,,,,,
,,,,559ea6e7fdf99b0fff2bda68,A,2024-07-19_18h11.40.725,Slot Machine Game,2023.1.3,Win32,59.88023952,,,,,,,,,,,,,,,,,,,,,,,,,,,,,,,,,,,654.9817,,,,,,,,,,,,,,,,,,,,,,,,,,,,,,,,,"[930,1130,630,480,360,840,1110]",6,0,6,0,1,,,,
,,,,559ea6e7fdf99b0fff2bda68,A,2024-07-19_18h11.40.725,Slot Machine Game,2023.1.3,Win32,59.88023952,,,,,,,,,,,,,,,,,,,,,,,,,,,100,,,,,,,,,,,,,,,,,,,,,8,7,"[9,15]","[[1,3,2],[2,3,1]]",659.9879,0,left,1.1158,,1,0.3,"[1,3,2]",0.87891943,stimuli/card_100_transparent.png,100,0,0,0,0,1,,,,,,,,,,
,,,,559ea6e7fdf99b0fff2bda68,A,2024-07-19_18h11.40.725,Slot Machine Game,2023.1.3,Win32,59.88023952,,,,,,,,,,,,,,,,,,,,,,,,,,,100,,,,,,,,,,,,,,,,,,,,,8,7,,,662.9316,1,left,0.2518,,1,0.3,"[1,3,2]",0.041415405,stimuli/card_0_transparent.png,0,1,0,1,0,1,,,,,,,,,,
,,,,559ea6e7fdf99b0fff2bda68,A,2024-07-19_18h11.40.725,Slot Machine Game,2023.1.3,Win32,59.88023952,,,,,,,,,,,,,,,,,,,,,,,,,,,200,,,,,,,,,,,,,,,,,,,,,8,7,,,665.0148,2,left,0.2352,,1.5,0.3,"[1,3,2]",0.748826745,stimuli/card_100_transparent.png,100,2,0,2,0,1,,,,,,,,,,
,,,,559ea6e7fdf99b0fff2bda68,A,2024-07-19_18h11.40.725,Slot Machine Game,2023.1.3,Win32,59.88023952,,,,,,,,,,,,,,,,,,,,,,,,,,,300,,,,,,,,,,,,,,,,,,,,,8,7,,,667.5814,3,left,0.2403,,1.5,0.3,"[1,3,2]",0.541541189,stimuli/card_100_transparent.png,100,3,0,3,0,1,,,,,,,,,,
,,,,559ea6e7fdf99b0fff2bda68,A,2024-07-19_18h11.40.725,Slot Machine Game,2023.1.3,Win32,59.88023952,,,,,,,,,,,,,,,,,,,,,,,,,,,400,,,,,,,,,,,,,,,,,,,,,8,7,,,670.1481,4,left,0.0335,,1.5,0.3,"[1,3,2]",0.731482123,stimuli/card_100_transparent.png,100,4,0,4,0,1,,,,,,,,,,
,,,,559ea6e7fdf99b0fff2bda68,A,2024-07-19_18h11.40.725,Slot Machine Game,2023.1.3,Win32,59.88023952,,,,,,,,,,,,,,,,,,,,,,,,,,,500,,,,,,,,,,,,,,,,,,,,,8,7,,,672.5143,5,left,0.1842,,0.5,0.3,"[1,3,2]",0.645720163,stimuli/card_100_transparent.png,100,5,0,5,0,1,,,,,,,,,,
,,,,559ea6e7fdf99b0fff2bda68,A,2024-07-19_18h11.40.725,Slot Machine Game,2023.1.3,Win32,59.88023952,,,,,,,,,,,,,,,,,,,,,,,,,,,600,,,,,,,,,,,,,,,,,,,,,8,7,,,674.0312,6,left,0.1004,,1.5,0.3,"[1,3,2]",0.318438803,stimuli/card_100_transparent.png,100,6,0,6,0,1,,,,,,,,,,
,,,,559ea6e7fdf99b0fff2bda68,A,2024-07-19_18h11.40.725,Slot Machine Game,2023.1.3,Win32,59.88023952,,,,,,,,,,,,,,,,,,,,,,,,,,,700,,,,,,,,,,,,,,,,,,,,,8,7,,,676.465,7,left,0.0481,,0.5,0.3,"[1,3,2]",0.920356812,stimuli/card_100_transparent.png,100,7,0,7,0,1,,,,,,,,,,
,,,,559ea6e7fdf99b0fff2bda68,A,2024-07-19_18h11.40.725,Slot Machine Game,2023.1.3,Win32,59.88023952,,,,,,,,,,,,,,,,,,,,,,,,,,,800,,,,,,,,,,,,,,,,,,,,,8,7,,,677.848,8,left,0.1247,,0.5,0.3,"[1,3,2]",0.575272364,stimuli/card_100_transparent.png,100,8,0,8,0,1,,,,,,,,,,
,,,,559ea6e7fdf99b0fff2bda68,A,2024-07-19_18h11.40.725,Slot Machine Game,2023.1.3,Win32,59.88023952,,,,,,,,,,,,,,,,,,,,,,,,,,,810,,,,,,,,,,,,,,,,,,,,,8,7,,,679.2977,9,left,0.2905,,1,0.3,"[2,3,1]",0.80741968,stimuli/card_10_transparent.png,10,9,0,9,0,1,,,,,,,,,,
,,,,559ea6e7fdf99b0fff2bda68,A,2024-07-19_18h11.40.725,Slot Machine Game,2023.1.3,Win32,59.88023952,,,,,,,,,,,,,,,,,,,,,,,,,,,820,,,,,,,,,,,,,,,,,,,,,8,7,,,681.4143,10,left,0.1664,,1.5,0.3,"[2,3,1]",0.985164947,stimuli/card_10_transparent.png,10,10,0,10,0,1,,,,,,,,,,
,,,,559ea6e7fdf99b0fff2bda68,A,2024-07-19_18h11.40.725,Slot Machine Game,2023.1.3,Win32,59.88023952,,,,,,,,,,,,,,,,,,,,,,,,,,,820,,,,,,,,,,,,,,,,,,,,,8,7,,,683.9306,11,up,1.1685,,0.5,0.3,"[2,3,1]",0.312806083,stimuli/card_0_transparent.png,0,11,0,11,0,1,,,,,,,,,,
,,,,559ea6e7fdf99b0fff2bda68,A,2024-07-19_18h11.40.725,Slot Machine Game,2023.1.3,Win32,59.88023952,,,,,,,,,,,,,,,,,,,,,,,,,,,820,,,,,,,,,,,,,,,,,,,,,8,7,,,686.4311,12,up,0.191,,1.5,0.3,"[2,3,1]",0.254082321,stimuli/card_0_transparent.png,0,12,0,12,0,1,,,,,,,,,,
,,,,559ea6e7fdf99b0fff2bda68,A,2024-07-19_18h11.40.725,Slot Machine Game,2023.1.3,Win32,59.88023952,,,,,,,,,,,,,,,,,,,,,,,,,,,920,,,,,,,,,,,,,,,,,,,,,8,7,,,688.9306,13,right,0.2594,,0.5,0.3,"[2,3,1]",0.517808621,stimuli/card_100_transparent.png,100,13,0,13,0,1,,,,,,,,,,
,,,,559ea6e7fdf99b0fff2bda68,A,2024-07-19_18h11.40.725,Slot Machine Game,2023.1.3,Win32,59.88023952,,,,,,,,,,,,,,,,,,,,,,,,,,,1020,,,,,,,,,,,,,,,,,,,,,8,7,,,690.5137,14,right,0.4374,,1.5,0.3,"[2,3,1]",0.663593956,stimuli/card_100_transparent.png,100,14,0,14,0,1,,,,,,,,,,
,,,,559ea6e7fdf99b0fff2bda68,A,2024-07-19_18h11.40.725,Slot Machine Game,2023.1.3,Win32,59.88023952,,,,,,,,,,,,,,,,,,,,,,,,,,,,,,,,,,,693.2643,,,,,,,,,,,,,,,,,,,,,,,,,,,,,,,,,"[930,1130,630,480,360,840,1110,1020]",7,0,7,0,1,,,,
,,,,559ea6e7fdf99b0fff2bda68,A,2024-07-19_18h11.40.725,Slot Machine Game,2023.1.3,Win32,59.88023952,,,,,,,,,,,,,,,,,,,,,,,,,,,10,,,,,,,,,,,,,,,,,,,,,9,9,[15],"[[3,1,2]]",698.2717,0,right,0.9162,,1,0.3,"[3,1,2]",0.854441875,stimuli/card_10_transparent.png,10,0,0,0,0,1,,,,,,,,,,
,,,,559ea6e7fdf99b0fff2bda68,A,2024-07-19_18h11.40.725,Slot Machine Game,2023.1.3,Win32,59.88023952,,,,,,,,,,,,,,,,,,,,,,,,,,,20,,,,,,,,,,,,,,,,,,,,,9,9,,,701.0138,1,right,0.4593,,1.5,0.3,"[3,1,2]",0.819783181,stimuli/card_10_transparent.png,10,1,0,1,0,1,,,,,,,,,,
,,,,559ea6e7fdf99b0fff2bda68,A,2024-07-19_18h11.40.725,Slot Machine Game,2023.1.3,Win32,59.88023952,,,,,,,,,,,,,,,,,,,,,,,,,,,120,,,,,,,,,,,,,,,,,,,,,9,9,,,703.7967,2,left,1.4705,,1,0.3,"[3,1,2]",0.021071393,stimuli/card_100_transparent.png,100,2,0,2,0,1,,,,,,,,,,
,,,,559ea6e7fdf99b0fff2bda68,A,2024-07-19_18h11.40.725,Slot Machine Game,2023.1.3,Win32,59.88023952,,,,,,,,,,,,,,,,,,,,,,,,,,,120,,,,,,,,,,,,,,,,,,,,,9,9,,,707.0968,3,left,0.1707,,1.5,0.3,"[3,1,2]",0.64749292,stimuli/card_0_transparent.png,0,3,0,3,0,1,,,,,,,,,,
,,,,559ea6e7fdf99b0fff2bda68,A,2024-07-19_18h11.40.725,Slot Machine Game,2023.1.3,Win32,59.88023952,,,,,,,,,,,,,,,,,,,,,,,,,,,120,,,,,,,,,,,,,,,,,,,,,9,9,,,709.5966,4,left,0.1663,,1.5,0.3,"[3,1,2]",0.653269395,stimuli/card_0_transparent.png,0,4,0,4,0,1,,,,,,,,,,
,,,,559ea6e7fdf99b0fff2bda68,A,2024-07-19_18h11.40.725,Slot Machine Game,2023.1.3,Win32,59.88023952,,,,,,,,,,,,,,,,,,,,,,,,,,,220,,,,,,,,,,,,,,,,,,,,,9,9,,,712.0801,5,up,0.5668,,0.5,0.3,"[3,1,2]",0.663974923,stimuli/card_100_transparent.png,100,5,0,5,0,1,,,,,,,,,,
,,,,559ea6e7fdf99b0fff2bda68,A,2024-07-19_18h11.40.725,Slot Machine Game,2023.1.3,Win32,59.88023952,,,,,,,,,,,,,,,,,,,,,,,,,,,230,,,,,,,,,,,,,,,,,,,,,9,9,,,713.98,6,up,0.5006,,1,0.3,"[3,1,2]",0.179670564,stimuli/card_10_transparent.png,10,6,0,6,0,1,,,,,,,,,,
,,,,559ea6e7fdf99b0fff2bda68,A,2024-07-19_18h11.40.725,Slot Machine Game,2023.1.3,Win32,59.88023952,,,,,,,,,,,,,,,,,,,,,,,,,,,330,,,,,,,,,,,,,,,,,,,,,9,9,,,716.313,7,up,0.1543,,0.5,0.3,"[3,1,2]",0.270003491,stimuli/card_100_transparent.png,100,7,0,7,0,1,,,,,,,,,,
,,,,559ea6e7fdf99b0fff2bda68,A,2024-07-19_18h11.40.725,Slot Machine Game,2023.1.3,Win32,59.88023952,,,,,,,,,,,,,,,,,,,,,,,,,,,340,,,,,,,,,,,,,,,,,,,,,9,9,,,717.7796,8,up,0.3343,,1.5,0.3,"[3,1,2]",0.195859524,stimuli/card_10_transparent.png,10,8,0,8,0,1,,,,,,,,,,
,,,,559ea6e7fdf99b0fff2bda68,A,2024-07-19_18h11.40.725,Slot Machine Game,2023.1.3,Win32,59.88023952,,,,,,,,,,,,,,,,,,,,,,,,,,,440,,,,,,,,,,,,,,,,,,,,,9,9,,,720.4464,9,up,0.0741,,1.5,0.3,"[3,1,2]",0.837508687,stimuli/card_100_transparent.png,100,9,0,9,0,1,,,,,,,,,,
,,,,559ea6e7fdf99b0fff2bda68,A,2024-07-19_18h11.40.725,Slot Machine Game,2023.1.3,Win32,59.88023952,,,,,,,,,,,,,,,,,,,,,,,,,,,440,,,,,,,,,,,,,,,,,,,,,9,9,,,722.8462,10,up,0.1679,,1.5,0.3,"[3,1,2]",0.052451399,stimuli/card_0_transparent.png,0,10,0,10,0,1,,,,,,,,,,
,,,,559ea6e7fdf99b0fff2bda68,A,2024-07-19_18h11.40.725,Slot Machine Game,2023.1.3,Win32,59.88023952,,,,,,,,,,,,,,,,,,,,,,,,,,,540,,,,,,,,,,,,,,,,,,,,,9,9,,,725.3295,11,up,0.2002,,0.5,0.3,"[3,1,2]",0.499982865,stimuli/card_100_transparent.png,100,11,0,11,0,1,,,,,,,,,,
,,,,559ea6e7fdf99b0fff2bda68,A,2024-07-19_18h11.40.725,Slot Machine Game,2023.1.3,Win32,59.88023952,,,,,,,,,,,,,,,,,,,,,,,,,,,640,,,,,,,,,,,,,,,,,,,,,9,9,,,726.846,12,up,0.1051,,0.5,0.3,"[3,1,2]",0.587182478,stimuli/card_100_transparent.png,100,12,0,12,0,1,,,,,,,,,,
,,,,559ea6e7fdf99b0fff2bda68,A,2024-07-19_18h11.40.725,Slot Machine Game,2023.1.3,Win32,59.88023952,,,,,,,,,,,,,,,,,,,,,,,,,,,740,,,,,,,,,,,,,,,,,,,,,9,9,,,728.2697,13,up,0.213,,1.5,0.3,"[3,1,2]",0.865655608,stimuli/card_100_transparent.png,100,13,0,13,0,1,,,,,,,,,,
,,,,559ea6e7fdf99b0fff2bda68,A,2024-07-19_18h11.40.725,Slot Machine Game,2023.1.3,Win32,59.88023952,,,,,,,,,,,,,,,,,,,,,,,,,,,740,,,,,,,,,,,,,,,,,,,,,9,9,,,730.8029,14,up,0.0004,,1.5,0.3,"[3,1,2]",0.081190726,stimuli/card_0_transparent.png,0,14,0,14,0,1,,,,,,,,,,
,,,,559ea6e7fdf99b0fff2bda68,A,2024-07-19_18h11.40.725,Slot Machine Game,2023.1.3,Win32,59.88023952,,,,,,,,,,,,,,,,,,,,,,,,,,,,,,,,,,,733.1294,,,,,,,,,,,,,,,,,,,,,,,,,,,,,,,,,"[930,1130,630,480,360,840,1110,1020,740]",8,0,8,0,1,,,,
,,,,559ea6e7fdf99b0fff2bda68,A,2024-07-19_18h11.40.725,Slot Machine Game,2023.1.3,Win32,59.88023952,,,,,,,,,,,,,,,,,,,,,,,,,,,0,,,,,,,,,,,,,,,,,,,,,10,6,"[4,10,15]","[[2,3,1],[1,3,2],[3,2,1]]",738.1379,0,up,1.3674,,1.5,0.3,"[2,3,1]",0.951413636,stimuli/card_0_transparent.png,0,0,0,0,0,1,,,,,,,,,,
,,,,559ea6e7fdf99b0fff2bda68,A,2024-07-19_18h11.40.725,Slot Machine Game,2023.1.3,Win32,59.88023952,,,,,,,,,,,,,,,,,,,,,,,,,,,10,,,,,,,,,,,,,,,,,,,,,10,6,,,741.829,1,up,0.2825,,1,0.3,"[2,3,1]",0.124800833,stimuli/card_10_transparent.png,10,1,0,1,0,1,,,,,,,,,,
,,,,559ea6e7fdf99b0fff2bda68,A,2024-07-19_18h11.40.725,Slot Machine Game,2023.1.3,Win32,59.88023952,,,,,,,,,,,,,,,,,,,,,,,,,,,110,,,,,,,,,,,,,,,,,,,,,10,6,,,743.9455,2,right,0.3866,,1,0.3,"[2,3,1]",0.391026503,stimuli/card_100_transparent.png,100,2,0,2,0,1,,,,,,,,,,
,,,,559ea6e7fdf99b0fff2bda68,A,2024-07-19_18h11.40.725,Slot Machine Game,2023.1.3,Win32,59.88023952,,,,,,,,,,,,,,,,,,,,,,,,,,,210,,,,,,,,,,,,,,,,,,,,,10,6,,,746.1621,3,right,0.1177,,1.5,0.3,"[2,3,1]",0.673144831,stimuli/card_100_transparent.png,100,3,0,3,0,1,,,,,,,,,,
,,,,559ea6e7fdf99b0fff2bda68,A,2024-07-19_18h11.40.725,Slot Machine Game,2023.1.3,Win32,59.88023952,,,,,,,,,,,,,,,,,,,,,,,,,,,220,,,,,,,,,,,,,,,,,,,,,10,6,,,748.5957,4,right,0.0878,,0.5,0.3,"[1,3,2]",0.59931295,stimuli/card_10_transparent.png,10,4,0,4,0,1,,,,,,,,,,
,,,,559ea6e7fdf99b0fff2bda68,A,2024-07-19_18h11.40.725,Slot Machine Game,2023.1.3,Win32,59.88023952,,,,,,,,,,,,,,,,,,,,,,,,,,,230,,,,,,,,,,,,,,,,,,,,,10,6,,,750.0121,5,right,0.3147,,1,0.3,"[1,3,2]",0.646464875,stimuli/card_10_transparent.png,10,5,0,5,0,1,,,,,,,,,,
,,,,559ea6e7fdf99b0fff2bda68,A,2024-07-19_18h11.40.725,Slot Machine Game,2023.1.3,Win32,59.88023952,,,,,,,,,,,,,,,,,,,,,,,,,,,330,,,,,,,,,,,,,,,,,,,,,10,6,,,752.1619,6,left,0.7003,,1.5,0.3,"[1,3,2]",0.940841746,stimuli/card_100_transparent.png,100,6,0,6,0,1,,,,,,,,,,
,,,,559ea6e7fdf99b0fff2bda68,A,2024-07-19_18h11.40.725,Slot Machine Game,2023.1.3,Win32,59.88023952,,,,,,,,,,,,,,,,,,,,,,,,,,,430,,,,,,,,,,,,,,,,,,,,,10,6,,,755.1792,7,left,0.0724,,1,0.3,"[1,3,2]",0.39085543,stimuli/card_100_transparent.png,100,7,0,7,0,1,,,,,,,,,,
,,,,559ea6e7fdf99b0fff2bda68,A,2024-07-19_18h11.40.725,Slot Machine Game,2023.1.3,Win32,59.88023952,,,,,,,,,,,,,,,,,,,,,,,,,,,530,,,,,,,,,,,,,,,,,,,,,10,6,,,757.0784,8,left,0.0005,,0.5,0.3,"[1,3,2]",0.722681638,stimuli/card_100_transparent.png,100,8,0,8,0,1,,,,,,,,,,
,,,,559ea6e7fdf99b0fff2bda68,A,2024-07-19_18h11.40.725,Slot Machine Game,2023.1.3,Win32,59.88023952,,,,,,,,,,,,,,,,,,,,,,,,,,,530,,,,,,,,,,,,,,,,,,,,,10,6,,,758.3951,9,left,0.0336,,1,0.3,"[1,3,2]",0.04065475,stimuli/card_0_transparent.png,0,9,0,9,0,1,,,,,,,,,,
,,,,559ea6e7fdf99b0fff2bda68,A,2024-07-19_18h11.40.725,Slot Machine Game,2023.1.3,Win32,59.88023952,,,,,,,,,,,,,,,,,,,,,,,,,,,530,,,,,,,,,,,,,,,,,,,,,10,6,,,760.2449,10,left,0.1197,,0.5,0.3,"[3,2,1]",0.53627212,stimuli/card_0_transparent.png,0,10,0,10,0,1,,,,,,,,,,
,,,,559ea6e7fdf99b0fff2bda68,A,2024-07-19_18h11.40.725,Slot Machine Game,2023.1.3,Win32,59.88023952,,,,,,,,,,,,,,,,,,,,,,,,,,,540,,,,,,,,,,,,,,,,,,,,,10,6,,,761.6957,11,up,0.5684,,1.5,0.3,"[3,2,1]",0.826848018,stimuli/card_10_transparent.png,10,11,0,11,0,1,,,,,,,,,,
,,,,559ea6e7fdf99b0fff2bda68,A,2024-07-19_18h11.40.725,Slot Machine Game,2023.1.3,Win32,59.88023952,,,,,,,,,,,,,,,,,,,,,,,,,,,550,,,,,,,,,,,,,,,,,,,,,10,6,,,764.5951,12,up,2.882,,0.5,0.3,"[3,2,1]",0.354957773,stimuli/card_10_transparent.png,10,12,0,12,0,1,,,,,,,,,,
,,,,559ea6e7fdf99b0fff2bda68,A,2024-07-19_18h11.40.725,Slot Machine Game,2023.1.3,Win32,59.88023952,,,,,,,,,,,,,,,,,,,,,,,,,,,650,,,,,,,,,,,,,,,,,,,,,10,6,,,768.8118,13,right,0.0891,,1,0.3,"[3,2,1]",0.507174643,stimuli/card_100_transparent.png,100,13,0,13,0,1,,,,,,,,,,
,,,,559ea6e7fdf99b0fff2bda68,A,2024-07-19_18h11.40.725,Slot Machine Game,2023.1.3,Win32,59.88023952,,,,,,,,,,,,,,,,,,,,,,,,,,,750,,,,,,,,,,,,,,,,,,,,,10,6,,,770.7281,14,right,0.3183,,1.5,0.3,"[3,2,1]",0.824019628,stimuli/card_100_transparent.png,100,14,0,14,0,1,,,,,,,,,,
,,,,559ea6e7fdf99b0fff2bda68,A,2024-07-19_18h11.40.725,Slot Machine Game,2023.1.3,Win32,59.88023952,,,,,,,,,,,,,,,,,,,,,,,,,,,,,,,,,,,773.3617,,,,,,,,,,,,,,,,,,,,,,,,,,,,,,,,,"[930,1130,630,480,360,840,1110,1020,740,750]",9,0,9,0,1,,,,
,,,,559ea6e7fdf99b0fff2bda68,A,2024-07-19_18h11.40.725,Slot Machine Game,2023.1.3,Win32,59.88023952,,,,,,,,,,,,,,,,,,,,,,,,,,,,,,,,,,,,,,,,,,,,,,,,,,,,,,,,,,,,,,,,,,,,,,,,,,9,"[930,1130,630,480,360,840,1110,1020,740,750]",6.3,2024-07-19_18h24.43.223
