key_resp_welcome_started,key_resp_welcome_keys,key_resp_welcome_rt,key_resp_welcome_duration,prolific_id,path_id,date,expName,psychopyVersion,OS,frameRate,key_resp_instruction1_started,key_resp_instruction1_keys,key_resp_instruction1_rt,key_resp_instruction1_duration,key_resp_instruction2_started,key_resp_instruction2_keys,key_resp_instruction2_rt,key_resp_instruction2_duration,key_resp_instruction3_started,key_resp_instruction3_keys,key_resp_instruction3_rt,key_resp_instruction3_duration,key_resp_instruction4_started,key_resp_instruction4_keys,key_resp_instruction4_rt,key_resp_instruction4_duration,practiceCondition,practice_reward_seqs,practice_trial_started,practice_trial_num,practice_resp_rt,practice_resp_duration,practice_resp_keys,prac_presentationInterval,"practice_reward_seq: 2,1,3",reward_img,cumulative_reward,trial_reward,practice_trials.thisRepN,practice_trials.thisTrialN,practice_trials.thisN,practice_trials.thisIndex,practice_trials.ran,"practice_reward_seq: 2,3,1",block_break_started,"practice_reward_seq: 1,3,2","practice_reward_seq: 3,1,2",practice_end_time,practice_end_keys,practice_end_rt,practice_end_duration,main_instruction_text_started,block_condition,block_order_indices,main_instruction_keys,main_instruction_rt,main_instruction_duration,block_number,block_assignment,current_condition,main_reward_seqs,main_trial_started,main_trial_num,main_trial_keys,main_trial_rt,main_trial_duration,main_presentationInterval,reward_presentation_time,main_reward_seq,reward_rand_val,main_reward_img,current_reward,main_trials.thisRepN,main_trials.thisTrialN,main_trials.thisN,main_trials.thisIndex,main_trials.ran,block_reward,block.thisRepN,block.thisTrialN,block.thisN,block.thisIndex,block.ran,block_reward.length,block_reward_all,reward_amount,date_end_task
0.0007,num_enter,1.7173,,56169e435c62cf000f822c76,A,2024-07-05_12h01.44.550,Slot Machine Game,2023.1.3,Win32,59.88023952,,,,,,,,,,,,,,,,,,,,,,,,,,,,,,,,,,,,,,,,,,,,,,,,,,,,,,,,,,,,,,,,,,,,,,,,,,,,,
,,,,56169e435c62cf000f822c76,A,2024-07-05_12h01.44.550,Slot Machine Game,2023.1.3,Win32,59.88023952,1.733,num_enter,7.1439,,,,,,,,,,,,,,,,,,,,,,,,,,,,,,,,,,,,,,,,,,,,,,,,,,,,,,,,,,,,,,,,,,,,,,,,,,
,,,,56169e435c62cf000f822c76,A,2024-07-05_12h01.44.550,Slot Machine Game,2023.1.3,Win32,59.88023952,,,,,8.9068,num_enter,26.9308,,,,,,,,,,,,,,,,,,,,,,,,,,,,,,,,,,,,,,,,,,,,,,,,,,,,,,,,,,,,,,,,,,,,,,
,,,,56169e435c62cf000f822c76,A,2024-07-05_12h01.44.550,Slot Machine Game,2023.1.3,Win32,59.88023952,,,,,,,,,35.8746,num_enter,7.0105,,,,,,,,,,,,,,,,,,,,,,,,,,,,,,,,,,,,,,,,,,,,,,,,,,,,,,,,,,,,,,,,,,
,,,,56169e435c62cf000f822c76,A,2024-07-05_12h01.44.550,Slot Machine Game,2023.1.3,Win32,59.88023952,,,,,,,,,,,,,,,,,,,,,,,,,,,,,,,,,,,,,,,,,,,,,,,,,,,,,,,,,,,,,,,,,,,,,,,,,,,,,
,,,,56169e435c62cf000f822c76,A,2024-07-05_12h01.44.550,Slot Machine Game,2023.1.3,Win32,59.88023952,,,,,,,,,,,,,184.7695,num_enter,4.8195,,,,,,,,,,,,,,,,,,,,,,,,,,,,,,,,,,,,,,,,,,,,,,,,,,,,,,,,,,,,,,
,,,,56169e435c62cf000f822c76,A,2024-07-05_12h01.44.550,Slot Machine Game,2023.1.3,Win32,59.88023952,,,,,,,,,,,,,,,,,"[9,15]","[[2,1,3],[2,3,1]]",189.6698,0,1.8501,,up,1,,stimuli/card_100_transparent.png,100,100,0,0,0,0,1,,,,,,,,,,,,,,,,,,,,,,,,,,,,,,,,,,,,,,,,,,,,
,,,,56169e435c62cf000f822c76,A,2024-07-05_12h01.44.550,Slot Machine Game,2023.1.3,Win32,59.88023952,,,,,,,,,,,,,,,,,,,193.3485,1,2.2741,,up,1.5,,stimuli/card_100_transparent.png,200,100,1,0,1,0,1,,,,,,,,,,,,,,,,,,,,,,,,,,,,,,,,,,,,,,,,,,,,
,,,,56169e435c62cf000f822c76,A,2024-07-05_12h01.44.550,Slot Machine Game,2023.1.3,Win32,59.88023952,,,,,,,,,,,,,,,,,,,197.947,2,0.87,,up,1.5,,stimuli/card_0_transparent.png,200,0,2,0,2,0,1,,,,,,,,,,,,,,,,,,,,,,,,,,,,,,,,,,,,,,,,,,,,
,,,,56169e435c62cf000f822c76,A,2024-07-05_12h01.44.550,Slot Machine Game,2023.1.3,Win32,59.88023952,,,,,,,,,,,,,,,,,,,201.1463,3,0.6368,,left,1.5,,stimuli/card_10_transparent.png,210,10,3,0,3,0,1,,,,,,,,,,,,,,,,,,,,,,,,,,,,,,,,,,,,,,,,,,,,
,,,,56169e435c62cf000f822c76,A,2024-07-05_12h01.44.550,Slot Machine Game,2023.1.3,Win32,59.88023952,,,,,,,,,,,,,,,,,,,204.1135,4,,,,1.5,,,,,4,0,4,0,1,,,,,,,,,,,,,,,,,,,,,,,,,,,,,,,,,,,,,,,,,,,,
,,,,56169e435c62cf000f822c76,A,2024-07-05_12h01.44.550,Slot Machine Game,2023.1.3,Win32,59.88023952,,,,,,,,,,,,,,,,,,,209.6344,5,1.8184,,right,1,,stimuli/card_0_transparent.png,210,0,5,0,5,0,1,,,,,,,,,,,,,,,,,,,,,,,,,,,,,,,,,,,,,,,,,,,,
,,,,56169e435c62cf000f822c76,A,2024-07-05_12h01.44.550,Slot Machine Game,2023.1.3,Win32,59.88023952,,,,,,,,,,,,,,,,,,,213.2962,6,0.9982,,up,1,,stimuli/card_10_transparent.png,220,10,6,0,6,0,1,,,,,,,,,,,,,,,,,,,,,,,,,,,,,,,,,,,,,,,,,,,,
,,,,56169e435c62cf000f822c76,A,2024-07-05_12h01.44.550,Slot Machine Game,2023.1.3,Win32,59.88023952,,,,,,,,,,,,,,,,,,,216.0961,7,0.6697,,up,0.5,,stimuli/card_0_transparent.png,220,0,7,0,7,0,1,,,,,,,,,,,,,,,,,,,,,,,,,,,,,,,,,,,,,,,,,,,,
,,,,56169e435c62cf000f822c76,A,2024-07-05_12h01.44.550,Slot Machine Game,2023.1.3,Win32,59.88023952,,,,,,,,,,,,,,,,,,,218.0791,8,2.6143,,left,0.5,,stimuli/card_10_transparent.png,230,10,8,0,8,0,1,,,,,,,,,,,,,,,,,,,,,,,,,,,,,,,,,,,,,,,,,,,,
,,,,56169e435c62cf000f822c76,A,2024-07-05_12h01.44.550,Slot Machine Game,2023.1.3,Win32,59.88023952,,,,,,,,,,,,,,,,,,,221.9961,9,0.5195,,left,1.5,,stimuli/card_10_transparent.png,240,10,9,0,9,0,1,,,,,,,,,,,,,,,,,,,,,,,,,,,,,,,,,,,,,,,,,,,,
,,,,56169e435c62cf000f822c76,A,2024-07-05_12h01.44.550,Slot Machine Game,2023.1.3,Win32,59.88023952,,,,,,,,,,,,,,,,,,,224.829,10,1.9385,,left,1.5,,stimuli/card_10_transparent.png,250,10,10,0,10,0,1,,,,,,,,,,,,,,,,,,,,,,,,,,,,,,,,,,,,,,,,,,,,
,,,,56169e435c62cf000f822c76,A,2024-07-05_12h01.44.550,Slot Machine Game,2023.1.3,Win32,59.88023952,,,,,,,,,,,,,,,,,,,229.0958,11,1.5555,,up,1,,stimuli/card_0_transparent.png,250,0,11,0,11,0,1,,,,,,,,,,,,,,,,,,,,,,,,,,,,,,,,,,,,,,,,,,,,
,,,,56169e435c62cf000f822c76,A,2024-07-05_12h01.44.550,Slot Machine Game,2023.1.3,Win32,59.88023952,,,,,,,,,,,,,,,,,,,232.4956,12,3.5991,,up,1.5,,stimuli/card_0_transparent.png,250,0,12,0,12,0,1,,,,,,,,,,,,,,,,,,,,,,,,,,,,,,,,,,,,,,,,,,,,
,,,,56169e435c62cf000f822c76,A,2024-07-05_12h01.44.550,Slot Machine Game,2023.1.3,Win32,59.88023952,,,,,,,,,,,,,,,,,,,238.4128,13,0.1032,,up,1,,stimuli/card_0_transparent.png,250,0,13,0,13,0,1,,,,,,,,,,,,,,,,,,,,,,,,,,,,,,,,,,,,,,,,,,,,
,,,,56169e435c62cf000f822c76,A,2024-07-05_12h01.44.550,Slot Machine Game,2023.1.3,Win32,59.88023952,,,,,,,,,,,,,,,,,,,240.3323,14,1.2191,,right,0.5,,stimuli/card_100_transparent.png,350,100,14,0,14,0,1,,,,,,,,,,,,,,,,,,,,,,,,,,,,,,,,,,,,,,,,,,,,
,,,,56169e435c62cf000f822c76,A,2024-07-05_12h01.44.550,Slot Machine Game,2023.1.3,Win32,59.88023952,,,,,,,,,,,,,,,,,"[6,15]","[[1,3,2],[3,1,2]]",247.9152,0,1.5031,,right,1,,stimuli/card_10_transparent.png,10,10,0,0,0,0,1,,242.8981,,,,,,,,,,,,,,,,,,,,,,,,,,,,,,,,,,,,,,,,,,
,,,,56169e435c62cf000f822c76,A,2024-07-05_12h01.44.550,Slot Machine Game,2023.1.3,Win32,59.88023952,,,,,,,,,,,,,,,,,,,251.2483,1,1.2724,,right,1,,stimuli/card_10_transparent.png,20,10,1,0,1,0,1,,,,,,,,,,,,,,,,,,,,,,,,,,,,,,,,,,,,,,,,,,,,
,,,,56169e435c62cf000f822c76,A,2024-07-05_12h01.44.550,Slot Machine Game,2023.1.3,Win32,59.88023952,,,,,,,,,,,,,,,,,,,254.3657,2,0.386,,left,1.5,,stimuli/card_100_transparent.png,120,100,2,0,2,0,1,,,,,,,,,,,,,,,,,,,,,,,,,,,,,,,,,,,,,,,,,,,,
,,,,56169e435c62cf000f822c76,A,2024-07-05_12h01.44.550,Slot Machine Game,2023.1.3,Win32,59.88023952,,,,,,,,,,,,,,,,,,,257.0943,3,3.9892,,up,1.5,,stimuli/card_0_transparent.png,120,0,3,0,3,0,1,,,,,,,,,,,,,,,,,,,,,,,,,,,,,,,,,,,,,,,,,,,,
,,,,56169e435c62cf000f822c76,A,2024-07-05_12h01.44.550,Slot Machine Game,2023.1.3,Win32,59.88023952,,,,,,,,,,,,,,,,,,,263.4297,4,0.2252,,up,1,,stimuli/card_0_transparent.png,120,0,4,0,4,0,1,,,,,,,,,,,,,,,,,,,,,,,,,,,,,,,,,,,,,,,,,,,,
,,,,56169e435c62cf000f822c76,A,2024-07-05_12h01.44.550,Slot Machine Game,2023.1.3,Win32,59.88023952,,,,,,,,,,,,,,,,,,,265.4939,5,0.9356,,right,0.5,,stimuli/card_10_transparent.png,130,10,5,0,5,0,1,,,,,,,,,,,,,,,,,,,,,,,,,,,,,,,,,,,,,,,,,,,,
,,,,56169e435c62cf000f822c76,A,2024-07-05_12h01.44.550,Slot Machine Game,2023.1.3,Win32,59.88023952,,,,,,,,,,,,,,,,,,,267.7611,6,0.4646,,left,1,,stimuli/card_0_transparent.png,130,0,6,0,6,0,1,,,,,,,,,,,,,,,,,,,,,,,,,,,,,,,,,,,,,,,,,,,,
,,,,56169e435c62cf000f822c76,A,2024-07-05_12h01.44.550,Slot Machine Game,2023.1.3,Win32,59.88023952,,,,,,,,,,,,,,,,,,,270.0435,7,0.2178,,left,1,,stimuli/card_0_transparent.png,130,0,7,0,7,0,1,,,,,,,,,,,,,,,,,,,,,,,,,,,,,,,,,,,,,,,,,,,,
,,,,56169e435c62cf000f822c76,A,2024-07-05_12h01.44.550,Slot Machine Game,2023.1.3,Win32,59.88023952,,,,,,,,,,,,,,,,,,,272.0935,8,1.3205,,left,1.5,,stimuli/card_0_transparent.png,130,0,8,0,8,0,1,,,,,,,,,,,,,,,,,,,,,,,,,,,,,,,,,,,,,,,,,,,,
,,,,56169e435c62cf000f822c76,A,2024-07-05_12h01.44.550,Slot Machine Game,2023.1.3,Win32,59.88023952,,,,,,,,,,,,,,,,,,,275.7594,9,1.8077,,up,1.5,,stimuli/card_100_transparent.png,230,100,9,0,9,0,1,,,,,,,,,,,,,,,,,,,,,,,,,,,,,,,,,,,,,,,,,,,,
,,,,56169e435c62cf000f822c76,A,2024-07-05_12h01.44.550,Slot Machine Game,2023.1.3,Win32,59.88023952,,,,,,,,,,,,,,,,,,,279.8929,10,1.4089,,up,0.5,,stimuli/card_100_transparent.png,330,100,10,0,10,0,1,,,,,,,,,,,,,,,,,,,,,,,,,,,,,,,,,,,,,,,,,,,,
,,,,56169e435c62cf000f822c76,A,2024-07-05_12h01.44.550,Slot Machine Game,2023.1.3,Win32,59.88023952,,,,,,,,,,,,,,,,,,,282.6428,11,0.471,,up,0.5,,stimuli/card_100_transparent.png,430,100,11,0,11,0,1,,,,,,,,,,,,,,,,,,,,,,,,,,,,,,,,,,,,,,,,,,,,
,,,,56169e435c62cf000f822c76,A,2024-07-05_12h01.44.550,Slot Machine Game,2023.1.3,Win32,59.88023952,,,,,,,,,,,,,,,,,,,284.4427,12,0.0718,,up,0.5,,stimuli/card_100_transparent.png,530,100,12,0,12,0,1,,,,,,,,,,,,,,,,,,,,,,,,,,,,,,,,,,,,,,,,,,,,
,,,,56169e435c62cf000f822c76,A,2024-07-05_12h01.44.550,Slot Machine Game,2023.1.3,Win32,59.88023952,,,,,,,,,,,,,,,,,,,285.8429,13,0.0185,,up,1.5,,stimuli/card_100_transparent.png,630,100,13,0,13,0,1,,,,,,,,,,,,,,,,,,,,,,,,,,,,,,,,,,,,,,,,,,,,
,,,,56169e435c62cf000f822c76,A,2024-07-05_12h01.44.550,Slot Machine Game,2023.1.3,Win32,59.88023952,,,,,,,,,,,,,,,,,,,288.1929,14,0.1431,,up,1.5,,stimuli/card_100_transparent.png,730,100,14,0,14,0,1,,,,,,,,,,,,,,,,,,,,,,,,,,,,,,,,,,,,,,,,,,,,
,,,,56169e435c62cf000f822c76,A,2024-07-05_12h01.44.550,Slot Machine Game,2023.1.3,Win32,59.88023952,,,,,,,,,,,,,,,,,,,,,,,,,,,,,,,,,,,290.6591,,,295.6609,space,2.6712,,,,,,,,,,,,,,,,,,,,,,,,,,,,,,,,,,,,,
,,,,56169e435c62cf000f822c76,A,2024-07-05_12h01.44.550,Slot Machine Game,2023.1.3,Win32,59.88023952,,,,,,,,,,,,,,,,,,,,,,,,,,,,,,,,,,,,,,,,,,298.3602,2,"[2,4,8,0,1,3,9,6,8,5]",space,1.7502,,,,,,,,,,,,,,,,,,,,,,,,,,,,,,,
,,,,56169e435c62cf000f822c76,A,2024-07-05_12h01.44.550,Slot Machine Game,2023.1.3,Win32,59.88023952,,,,,,,,,,,,,,,,,,,,,,,,,,,100,,,,,,,,,,,,,,,,,,,,,1,3,"[15,15]","[[3,1,2],[3,1,2]]",300.1394,0,up,0.9008,,1.5,0.3,"[3,1,2]",0.629161423,stimuli/card_100_transparent.png,100,0,0,0,0,1,,,,,,,,,,
,,,,56169e435c62cf000f822c76,A,2024-07-05_12h01.44.550,Slot Machine Game,2023.1.3,Win32,59.88023952,,,,,,,,,,,,,,,,,,,,,,,,,,,200,,,,,,,,,,,,,,,,,,,,,1,3,,,303.3586,1,up,0.1503,,1.5,0.3,"[3,1,2]",0.60786825,stimuli/card_100_transparent.png,100,1,0,1,0,1,,,,,,,,,,
,,,,56169e435c62cf000f822c76,A,2024-07-05_12h01.44.550,Slot Machine Game,2023.1.3,Win32,59.88023952,,,,,,,,,,,,,,,,,,,,,,,,,,,300,,,,,,,,,,,,,,,,,,,,,1,3,,,305.8416,2,up,1.1476,,1,0.3,"[3,1,2]",0.660965292,stimuli/card_100_transparent.png,100,2,0,2,0,1,,,,,,,,,,
,,,,56169e435c62cf000f822c76,A,2024-07-05_12h01.44.550,Slot Machine Game,2023.1.3,Win32,59.88023952,,,,,,,,,,,,,,,,,,,,,,,,,,,400,,,,,,,,,,,,,,,,,,,,,1,3,,,308.8244,3,up,0.4706,,0.5,0.3,"[3,1,2]",0.951663055,stimuli/card_100_transparent.png,100,3,0,3,0,1,,,,,,,,,,
,,,,56169e435c62cf000f822c76,A,2024-07-05_12h01.44.550,Slot Machine Game,2023.1.3,Win32,59.88023952,,,,,,,,,,,,,,,,,,,,,,,,,,,500,,,,,,,,,,,,,,,,,,,,,1,3,,,310.6245,4,up,0.1325,,0.5,0.3,"[3,1,2]",0.21352929,stimuli/card_100_transparent.png,100,4,0,4,0,1,,,,,,,,,,
,,,,56169e435c62cf000f822c76,A,2024-07-05_12h01.44.550,Slot Machine Game,2023.1.3,Win32,59.88023952,,,,,,,,,,,,,,,,,,,,,,,,,,,600,,,,,,,,,,,,,,,,,,,,,1,3,,,312.091,5,up,0.3852,,1.5,0.3,"[3,1,2]",0.445948076,stimuli/card_100_transparent.png,100,5,0,5,0,1,,,,,,,,,,
,,,,56169e435c62cf000f822c76,A,2024-07-05_12h01.44.550,Slot Machine Game,2023.1.3,Win32,59.88023952,,,,,,,,,,,,,,,,,,,,,,,,,,,700,,,,,,,,,,,,,,,,,,,,,1,3,,,314.8075,6,up,0.3019,,0.5,0.3,"[3,1,2]",0.539068187,stimuli/card_100_transparent.png,100,6,0,6,0,1,,,,,,,,,,
,,,,56169e435c62cf000f822c76,A,2024-07-05_12h01.44.550,Slot Machine Game,2023.1.3,Win32,59.88023952,,,,,,,,,,,,,,,,,,,,,,,,,,,800,,,,,,,,,,,,,,,,,,,,,1,3,,,316.4408,7,up,0.3205,,0.5,0.3,"[3,1,2]",0.238977746,stimuli/card_100_transparent.png,100,7,0,7,0,1,,,,,,,,,,
,,,,56169e435c62cf000f822c76,A,2024-07-05_12h01.44.550,Slot Machine Game,2023.1.3,Win32,59.88023952,,,,,,,,,,,,,,,,,,,,,,,,,,,900,,,,,,,,,,,,,,,,,,,,,1,3,,,318.0908,8,up,0.2007,,0.5,0.3,"[3,1,2]",0.891963454,stimuli/card_100_transparent.png,100,8,0,8,0,1,,,,,,,,,,
,,,,56169e435c62cf000f822c76,A,2024-07-05_12h01.44.550,Slot Machine Game,2023.1.3,Win32,59.88023952,,,,,,,,,,,,,,,,,,,,,,,,,,,1000,,,,,,,,,,,,,,,,,,,,,1,3,,,319.624,9,up,0.2102,,1.5,0.3,"[3,1,2]",0.622846928,stimuli/card_100_transparent.png,100,9,0,9,0,1,,,,,,,,,,
,,,,56169e435c62cf000f822c76,A,2024-07-05_12h01.44.550,Slot Machine Game,2023.1.3,Win32,59.88023952,,,,,,,,,,,,,,,,,,,,,,,,,,,1000,,,,,,,,,,,,,,,,,,,,,1,3,,,322.1574,10,up,0.2916,,0.5,0.3,"[3,1,2]",0.008775179,stimuli/card_0_transparent.png,0,10,0,10,0,1,,,,,,,,,,
,,,,56169e435c62cf000f822c76,A,2024-07-05_12h01.44.550,Slot Machine Game,2023.1.3,Win32,59.88023952,,,,,,,,,,,,,,,,,,,,,,,,,,,1010,,,,,,,,,,,,,,,,,,,,,1,3,,,323.7738,11,up,0.4353,,0.5,0.3,"[3,1,2]",0.168148185,stimuli/card_10_transparent.png,10,11,0,11,0,1,,,,,,,,,,
,,,,56169e435c62cf000f822c76,A,2024-07-05_12h01.44.550,Slot Machine Game,2023.1.3,Win32,59.88023952,,,,,,,,,,,,,,,,,,,,,,,,,,,1110,,,,,,,,,,,,,,,,,,,,,1,3,,,325.5404,12,up,0.0692,,1,0.3,"[3,1,2]",0.451011773,stimuli/card_100_transparent.png,100,12,0,12,0,1,,,,,,,,,,
,,,,56169e435c62cf000f822c76,A,2024-07-05_12h01.44.550,Slot Machine Game,2023.1.3,Win32,59.88023952,,,,,,,,,,,,,,,,,,,,,,,,,,,1110,,,,,,,,,,,,,,,,,,,,,1,3,,,327.4403,13,up,0.1364,,0.5,0.3,"[3,1,2]",0.016104982,stimuli/card_0_transparent.png,0,13,0,13,0,1,,,,,,,,,,
,,,,56169e435c62cf000f822c76,A,2024-07-05_12h01.44.550,Slot Machine Game,2023.1.3,Win32,59.88023952,,,,,,,,,,,,,,,,,,,,,,,,,,,1210,,,,,,,,,,,,,,,,,,,,,1,3,,,328.9069,14,up,0.2368,,0.5,0.3,"[3,1,2]",0.984414674,stimuli/card_100_transparent.png,100,14,0,14,0,1,,,,,,,,,,
,,,,56169e435c62cf000f822c76,A,2024-07-05_12h01.44.550,Slot Machine Game,2023.1.3,Win32,59.88023952,,,,,,,,,,,,,,,,,,,,,,,,,,,,,,,,,,,330.4734,,,,,,,,,,,,,,,,,,,,,,,,,,,,,,,,,[1210],0,0,0,0,1,,,,
,,,,56169e435c62cf000f822c76,A,2024-07-05_12h01.44.550,Slot Machine Game,2023.1.3,Win32,59.88023952,,,,,,,,,,,,,,,,,,,,,,,,,,,0,,,,,,,,,,,,,,,,,,,,,2,5,"[5,15]","[[1,2,3],[3,1,2]]",335.4853,0,right,1.1522,,1.5,0.3,"[1,2,3]",0.447113675,stimuli/card_0_transparent.png,0,0,0,0,0,1,,,,,,,,,,
,,,,56169e435c62cf000f822c76,A,2024-07-05_12h01.44.550,Slot Machine Game,2023.1.3,Win32,59.88023952,,,,,,,,,,,,,,,,,,,,,,,,,,,0,,,,,,,,,,,,,,,,,,,,,2,5,,,338.9565,1,left,0.5247,,1.5,0.3,"[1,2,3]",0.048087323,stimuli/card_0_transparent.png,0,1,0,1,0,1,,,,,,,,,,
,,,,56169e435c62cf000f822c76,A,2024-07-05_12h01.44.550,Slot Machine Game,2023.1.3,Win32,59.88023952,,,,,,,,,,,,,,,,,,,,,,,,,,,100,,,,,,,,,,,,,,,,,,,,,2,5,,,341.8062,2,left,1.028,,0.5,0.3,"[1,2,3]",0.783892027,stimuli/card_100_transparent.png,100,2,0,2,0,1,,,,,,,,,,
,,,,56169e435c62cf000f822c76,A,2024-07-05_12h01.44.550,Slot Machine Game,2023.1.3,Win32,59.88023952,,,,,,,,,,,,,,,,,,,,,,,,,,,200,,,,,,,,,,,,,,,,,,,,,2,5,,,344.1561,3,left,0.3886,,1.5,0.3,"[1,2,3]",0.268488335,stimuli/card_100_transparent.png,100,3,0,3,0,1,,,,,,,,,,
,,,,56169e435c62cf000f822c76,A,2024-07-05_12h01.44.550,Slot Machine Game,2023.1.3,Win32,59.88023952,,,,,,,,,,,,,,,,,,,,,,,,,,,300,,,,,,,,,,,,,,,,,,,,,2,5,,,346.8725,4,left,0.0343,,0.5,0.3,"[1,2,3]",0.612528509,stimuli/card_100_transparent.png,100,4,0,4,0,1,,,,,,,,,,
,,,,56169e435c62cf000f822c76,A,2024-07-05_12h01.44.550,Slot Machine Game,2023.1.3,Win32,59.88023952,,,,,,,,,,,,,,,,,,,,,,,,,,,300,,,,,,,,,,,,,,,,,,,,,2,5,,,348.2225,5,left,0.3256,,1,0.3,"[3,1,2]",0.565014899,stimuli/card_0_transparent.png,0,5,0,5,0,1,,,,,,,,,,
,,,,56169e435c62cf000f822c76,A,2024-07-05_12h01.44.550,Slot Machine Game,2023.1.3,Win32,59.88023952,,,,,,,,,,,,,,,,,,,,,,,,,,,400,,,,,,,,,,,,,,,,,,,,,2,5,,,350.3724,6,up,0.5825,,1.5,0.3,"[3,1,2]",0.831226892,stimuli/card_100_transparent.png,100,6,0,6,0,1,,,,,,,,,,
,,,,56169e435c62cf000f822c76,A,2024-07-05_12h01.44.550,Slot Machine Game,2023.1.3,Win32,59.88023952,,,,,,,,,,,,,,,,,,,,,,,,,,,410,,,,,,,,,,,,,,,,,,,,,2,5,,,353.289,7,up,0.4016,,1,0.3,"[3,1,2]",0.116853796,stimuli/card_10_transparent.png,10,7,0,7,0,1,,,,,,,,,,
,,,,56169e435c62cf000f822c76,A,2024-07-05_12h01.44.550,Slot Machine Game,2023.1.3,Win32,59.88023952,,,,,,,,,,,,,,,,,,,,,,,,,,,420,,,,,,,,,,,,,,,,,,,,,2,5,,,355.5221,8,left,0.7191,,1,0.3,"[3,1,2]",0.147969159,stimuli/card_10_transparent.png,10,8,0,8,0,1,,,,,,,,,,
,,,,56169e435c62cf000f822c76,A,2024-07-05_12h01.44.550,Slot Machine Game,2023.1.3,Win32,59.88023952,,,,,,,,,,,,,,,,,,,,,,,,,,,520,,,,,,,,,,,,,,,,,,,,,2,5,,,358.072,9,up,1.1509,,0.5,0.3,"[3,1,2]",0.660367804,stimuli/card_100_transparent.png,100,9,0,9,0,1,,,,,,,,,,
,,,,56169e435c62cf000f822c76,A,2024-07-05_12h01.44.550,Slot Machine Game,2023.1.3,Win32,59.88023952,,,,,,,,,,,,,,,,,,,,,,,,,,,520,,,,,,,,,,,,,,,,,,,,,2,5,,,360.5551,10,up,0.4673,,1,0.3,"[3,1,2]",0.074047077,stimuli/card_0_transparent.png,0,10,0,10,0,1,,,,,,,,,,
,,,,56169e435c62cf000f822c76,A,2024-07-05_12h01.44.550,Slot Machine Game,2023.1.3,Win32,59.88023952,,,,,,,,,,,,,,,,,,,,,,,,,,,620,,,,,,,,,,,,,,,,,,,,,2,5,,,362.8384,11,up,0.3343,,1,0.3,"[3,1,2]",0.887520355,stimuli/card_100_transparent.png,100,11,0,11,0,1,,,,,,,,,,
,,,,56169e435c62cf000f822c76,A,2024-07-05_12h01.44.550,Slot Machine Game,2023.1.3,Win32,59.88023952,,,,,,,,,,,,,,,,,,,,,,,,,,,630,,,,,,,,,,,,,,,,,,,,,2,5,,,365.0051,12,up,0.2061,,1.5,0.3,"[3,1,2]",0.196165726,stimuli/card_10_transparent.png,10,12,0,12,0,1,,,,,,,,,,
,,,,56169e435c62cf000f822c76,A,2024-07-05_12h01.44.550,Slot Machine Game,2023.1.3,Win32,59.88023952,,,,,,,,,,,,,,,,,,,,,,,,,,,730,,,,,,,,,,,,,,,,,,,,,2,5,,,367.5384,13,up,0.3088,,1,0.3,"[3,1,2]",0.517873907,stimuli/card_100_transparent.png,100,13,0,13,0,1,,,,,,,,,,
,,,,56169e435c62cf000f822c76,A,2024-07-05_12h01.44.550,Slot Machine Game,2023.1.3,Win32,59.88023952,,,,,,,,,,,,,,,,,,,,,,,,,,,830,,,,,,,,,,,,,,,,,,,,,2,5,,,369.6717,14,up,0.0219,,0.5,0.3,"[3,1,2]",0.953700559,stimuli/card_100_transparent.png,100,14,0,14,0,1,,,,,,,,,,
,,,,56169e435c62cf000f822c76,A,2024-07-05_12h01.44.550,Slot Machine Game,2023.1.3,Win32,59.88023952,,,,,,,,,,,,,,,,,,,,,,,,,,,,,,,,,,,371.005,,,,,,,,,,,,,,,,,,,,,,,,,,,,,,,,,"[1210,830]",1,0,1,0,1,,,,
,,,,56169e435c62cf000f822c76,A,2024-07-05_12h01.44.550,Slot Machine Game,2023.1.3,Win32,59.88023952,,,,,,,,,,,,,,,,,,,,,,,,,,,10,,,,,,,,,,,,,,,,,,,,,3,9,"[8,15]","[[3,2,1],[3,1,2]]",376.0272,0,up,1.9668,,1.5,0.3,"[3,2,1]",0.299618395,stimuli/card_10_transparent.png,10,0,0,0,0,1,,,,,,,,,,
,,,,56169e435c62cf000f822c76,A,2024-07-05_12h01.44.550,Slot Machine Game,2023.1.3,Win32,59.88023952,,,,,,,,,,,,,,,,,,,,,,,,,,,10,,,,,,,,,,,,,,,,,,,,,3,9,,,380.3212,1,left,0.2024,,0.5,0.3,"[3,2,1]",0.528394998,stimuli/card_0_transparent.png,0,1,0,1,0,1,,,,,,,,,,
,,,,56169e435c62cf000f822c76,A,2024-07-05_12h01.44.550,Slot Machine Game,2023.1.3,Win32,59.88023952,,,,,,,,,,,,,,,,,,,,,,,,,,,110,,,,,,,,,,,,,,,,,,,,,3,9,,,381.8545,2,left,0.5381,,1,0.3,"[3,2,1]",0.075386751,stimuli/card_100_transparent.png,100,2,0,2,0,1,,,,,,,,,,
,,,,56169e435c62cf000f822c76,A,2024-07-05_12h01.44.550,Slot Machine Game,2023.1.3,Win32,59.88023952,,,,,,,,,,,,,,,,,,,,,,,,,,,110,,,,,,,,,,,,,,,,,,,,,3,9,,,384.2212,3,left,0.2439,,1,0.3,"[3,2,1]",0.556767226,stimuli/card_0_transparent.png,0,3,0,3,0,1,,,,,,,,,,
,,,,56169e435c62cf000f822c76,A,2024-07-05_12h01.44.550,Slot Machine Game,2023.1.3,Win32,59.88023952,,,,,,,,,,,,,,,,,,,,,,,,,,,210,,,,,,,,,,,,,,,,,,,,,3,9,,,386.2877,4,right,0.433,,1.5,0.3,"[3,2,1]",0.690971321,stimuli/card_100_transparent.png,100,4,0,4,0,1,,,,,,,,,,
,,,,56169e435c62cf000f822c76,A,2024-07-05_12h01.44.550,Slot Machine Game,2023.1.3,Win32,59.88023952,,,,,,,,,,,,,,,,,,,,,,,,,,,210,,,,,,,,,,,,,,,,,,,,,3,9,,,389.0541,5,right,0.1178,,1,0.3,"[3,2,1]",0.036892558,stimuli/card_0_transparent.png,0,5,0,5,0,1,,,,,,,,,,
,,,,56169e435c62cf000f822c76,A,2024-07-05_12h01.44.550,Slot Machine Game,2023.1.3,Win32,59.88023952,,,,,,,,,,,,,,,,,,,,,,,,,,,310,,,,,,,,,,,,,,,,,,,,,3,9,,,391.0038,6,right,0.3033,,1.5,0.3,"[3,2,1]",0.568017159,stimuli/card_100_transparent.png,100,6,0,6,0,1,,,,,,,,,,
,,,,56169e435c62cf000f822c76,A,2024-07-05_12h01.44.550,Slot Machine Game,2023.1.3,Win32,59.88023952,,,,,,,,,,,,,,,,,,,,,,,,,,,320,,,,,,,,,,,,,,,,,,,,,3,9,,,393.6371,7,right,0.4755,,1,0.3,"[3,2,1]",0.178467012,stimuli/card_10_transparent.png,10,7,0,7,0,1,,,,,,,,,,
,,,,56169e435c62cf000f822c76,A,2024-07-05_12h01.44.550,Slot Machine Game,2023.1.3,Win32,59.88023952,,,,,,,,,,,,,,,,,,,,,,,,,,,330,,,,,,,,,,,,,,,,,,,,,3,9,,,395.937,8,right,0.5204,,0.5,0.3,"[3,1,2]",0.693029627,stimuli/card_10_transparent.png,10,8,0,8,0,1,,,,,,,,,,
,,,,56169e435c62cf000f822c76,A,2024-07-05_12h01.44.550,Slot Machine Game,2023.1.3,Win32,59.88023952,,,,,,,,,,,,,,,,,,,,,,,,,,,430,,,,,,,,,,,,,,,,,,,,,3,9,,,397.7703,9,up,0.0855,,0.5,0.3,"[3,1,2]",0.696247844,stimuli/card_100_transparent.png,100,9,0,9,0,1,,,,,,,,,,
,,,,56169e435c62cf000f822c76,A,2024-07-05_12h01.44.550,Slot Machine Game,2023.1.3,Win32,59.88023952,,,,,,,,,,,,,,,,,,,,,,,,,,,530,,,,,,,,,,,,,,,,,,,,,3,9,,,399.1869,10,up,0.1913,,1.5,0.3,"[3,1,2]",0.646431073,stimuli/card_100_transparent.png,100,10,0,10,0,1,,,,,,,,,,
,,,,56169e435c62cf000f822c76,A,2024-07-05_12h01.44.550,Slot Machine Game,2023.1.3,Win32,59.88023952,,,,,,,,,,,,,,,,,,,,,,,,,,,630,,,,,,,,,,,,,,,,,,,,,3,9,,,401.7036,11,up,0.8543,,1,0.3,"[3,1,2]",0.986519083,stimuli/card_100_transparent.png,100,11,0,11,0,1,,,,,,,,,,
,,,,56169e435c62cf000f822c76,A,2024-07-05_12h01.44.550,Slot Machine Game,2023.1.3,Win32,59.88023952,,,,,,,,,,,,,,,,,,,,,,,,,,,730,,,,,,,,,,,,,,,,,,,,,3,9,,,404.3868,12,up,0.0038,,0.5,0.3,"[3,1,2]",0.237535112,stimuli/card_100_transparent.png,100,12,0,12,0,1,,,,,,,,,,
,,,,56169e435c62cf000f822c76,A,2024-07-05_12h01.44.550,Slot Machine Game,2023.1.3,Win32,59.88023952,,,,,,,,,,,,,,,,,,,,,,,,,,,830,,,,,,,,,,,,,,,,,,,,,3,9,,,405.72,13,up,0.3468,,1.5,0.3,"[3,1,2]",0.542413844,stimuli/card_100_transparent.png,100,13,0,13,0,1,,,,,,,,,,
,,,,56169e435c62cf000f822c76,A,2024-07-05_12h01.44.550,Slot Machine Game,2023.1.3,Win32,59.88023952,,,,,,,,,,,,,,,,,,,,,,,,,,,930,,,,,,,,,,,,,,,,,,,,,3,9,,,408.3867,14,up,0.2325,,1,0.3,"[3,1,2]",0.33517977,stimuli/card_100_transparent.png,100,14,0,14,0,1,,,,,,,,,,
,,,,56169e435c62cf000f822c76,A,2024-07-05_12h01.44.550,Slot Machine Game,2023.1.3,Win32,59.88023952,,,,,,,,,,,,,,,,,,,,,,,,,,,,,,,,,,,410.4529,,,,,,,,,,,,,,,,,,,,,,,,,,,,,,,,,"[1210,830,930]",2,0,2,0,1,,,,
,,,,56169e435c62cf000f822c76,A,2024-07-05_12h01.44.550,Slot Machine Game,2023.1.3,Win32,59.88023952,,,,,,,,,,,,,,,,,,,,,,,,,,,100,,,,,,,,,,,,,,,,,,,,,4,1,"[12,15]","[[2,1,3],[2,3,1]]",415.4622,0,up,0.7343,,1.5,0.3,"[2,1,3]",0.429667569,stimuli/card_100_transparent.png,100,0,0,0,0,1,,,,,,,,,,
,,,,56169e435c62cf000f822c76,A,2024-07-05_12h01.44.550,Slot Machine Game,2023.1.3,Win32,59.88023952,,,,,,,,,,,,,,,,,,,,,,,,,,,110,,,,,,,,,,,,,,,,,,,,,4,1,,,418.5193,1,up,0.0499,,0.5,0.3,"[2,1,3]",0.190788038,stimuli/card_10_transparent.png,10,1,0,1,0,1,,,,,,,,,,
,,,,56169e435c62cf000f822c76,A,2024-07-05_12h01.44.550,Slot Machine Game,2023.1.3,Win32,59.88023952,,,,,,,,,,,,,,,,,,,,,,,,,,,120,,,,,,,,,,,,,,,,,,,,,4,1,,,419.9025,2,up,0.0337,,1,0.3,"[2,1,3]",0.142730985,stimuli/card_10_transparent.png,10,2,0,2,0,1,,,,,,,,,,
,,,,56169e435c62cf000f822c76,A,2024-07-05_12h01.44.550,Slot Machine Game,2023.1.3,Win32,59.88023952,,,,,,,,,,,,,,,,,,,,,,,,,,,120,,,,,,,,,,,,,,,,,,,,,4,1,,,421.7692,3,up,0.6261,,0.5,0.3,"[2,1,3]",0.039363431,stimuli/card_0_transparent.png,0,3,0,3,0,1,,,,,,,,,,
,,,,56169e435c62cf000f822c76,A,2024-07-05_12h01.44.550,Slot Machine Game,2023.1.3,Win32,59.88023952,,,,,,,,,,,,,,,,,,,,,,,,,,,120,,,,,,,,,,,,,,,,,,,,,4,1,,,423.7246,4,left,0.4235,,0.5,0.3,"[2,1,3]",0.02219096,stimuli/card_0_transparent.png,0,4,0,4,0,1,,,,,,,,,,
,,,,56169e435c62cf000f822c76,A,2024-07-05_12h01.44.550,Slot Machine Game,2023.1.3,Win32,59.88023952,,,,,,,,,,,,,,,,,,,,,,,,,,,130,,,,,,,,,,,,,,,,,,,,,4,1,,,425.469,5,left,0.3171,,1.5,0.3,"[2,1,3]",0.461299878,stimuli/card_10_transparent.png,10,5,0,5,0,1,,,,,,,,,,
,,,,56169e435c62cf000f822c76,A,2024-07-05_12h01.44.550,Slot Machine Game,2023.1.3,Win32,59.88023952,,,,,,,,,,,,,,,,,,,,,,,,,,,140,,,,,,,,,,,,,,,,,,,,,4,1,,,428.1188,6,left,0.0661,,1.5,0.3,"[2,1,3]",0.919400738,stimuli/card_10_transparent.png,10,6,0,6,0,1,,,,,,,,,,
,,,,56169e435c62cf000f822c76,A,2024-07-05_12h01.44.550,Slot Machine Game,2023.1.3,Win32,59.88023952,,,,,,,,,,,,,,,,,,,,,,,,,,,140,,,,,,,,,,,,,,,,,,,,,4,1,,,430.5189,7,right,1.6225,,1,0.3,"[2,1,3]",0.754455602,stimuli/card_0_transparent.png,0,7,0,7,0,1,,,,,,,,,,
,,,,56169e435c62cf000f822c76,A,2024-07-05_12h01.44.550,Slot Machine Game,2023.1.3,Win32,59.88023952,,,,,,,,,,,,,,,,,,,,,,,,,,,140,,,,,,,,,,,,,,,,,,,,,4,1,,,433.9684,8,right,0.7854,,1.5,0.3,"[2,1,3]",0.276075055,stimuli/card_0_transparent.png,0,8,0,8,0,1,,,,,,,,,,
,,,,56169e435c62cf000f822c76,A,2024-07-05_12h01.44.550,Slot Machine Game,2023.1.3,Win32,59.88023952,,,,,,,,,,,,,,,,,,,,,,,,,,,150,,,,,,,,,,,,,,,,,,,,,4,1,,,437.0686,9,up,0.6837,,1.5,0.3,"[2,1,3]",0.17436596,stimuli/card_10_transparent.png,10,9,0,9,0,1,,,,,,,,,,
,,,,56169e435c62cf000f822c76,A,2024-07-05_12h01.44.550,Slot Machine Game,2023.1.3,Win32,59.88023952,,,,,,,,,,,,,,,,,,,,,,,,,,,250,,,,,,,,,,,,,,,,,,,,,4,1,,,440.0849,10,up,0.4042,,1,0.3,"[2,1,3]",0.408894071,stimuli/card_100_transparent.png,100,10,0,10,0,1,,,,,,,,,,
,,,,56169e435c62cf000f822c76,A,2024-07-05_12h01.44.550,Slot Machine Game,2023.1.3,Win32,59.88023952,,,,,,,,,,,,,,,,,,,,,,,,,,,350,,,,,,,,,,,,,,,,,,,,,4,1,,,442.3184,11,up,0.1687,,0.5,0.3,"[2,1,3]",0.420004508,stimuli/card_100_transparent.png,100,11,0,11,0,1,,,,,,,,,,
,,,,56169e435c62cf000f822c76,A,2024-07-05_12h01.44.550,Slot Machine Game,2023.1.3,Win32,59.88023952,,,,,,,,,,,,,,,,,,,,,,,,,,,350,,,,,,,,,,,,,,,,,,,,,4,1,,,443.8181,12,up,0.0673,,1.5,0.3,"[2,3,1]",0.892759959,stimuli/card_0_transparent.png,0,12,0,12,0,1,,,,,,,,,,
,,,,56169e435c62cf000f822c76,A,2024-07-05_12h01.44.550,Slot Machine Game,2023.1.3,Win32,59.88023952,,,,,,,,,,,,,,,,,,,,,,,,,,,350,,,,,,,,,,,,,,,,,,,,,4,1,,,446.2181,13,up,0.2191,,1,0.3,"[2,3,1]",0.384822597,stimuli/card_0_transparent.png,0,13,0,13,0,1,,,,,,,,,,
,,,,56169e435c62cf000f822c76,A,2024-07-05_12h01.44.550,Slot Machine Game,2023.1.3,Win32,59.88023952,,,,,,,,,,,,,,,,,,,,,,,,,,,350,,,,,,,,,,,,,,,,,,,,,4,1,,,448.2681,14,up,0.8005,,0.5,0.3,"[2,3,1]",0.21643096,stimuli/card_0_transparent.png,0,14,0,14,0,1,,,,,,,,,,
,,,,56169e435c62cf000f822c76,A,2024-07-05_12h01.44.550,Slot Machine Game,2023.1.3,Win32,59.88023952,,,,,,,,,,,,,,,,,,,,,,,,,,,,,,,,,,,450.4016,,,,,,,,,,,,,,,,,,,,,,,,,,,,,,,,,"[1210,830,930,350]",3,0,3,0,1,,,,
,,,,56169e435c62cf000f822c76,A,2024-07-05_12h01.44.550,Slot Machine Game,2023.1.3,Win32,59.88023952,,,,,,,,,,,,,,,,,,,,,,,,,,,10,,,,,,,,,,,,,,,,,,,,,5,2,"[6,15]","[[1,3,2],[3,2,1]]",460.7404,0,right,1.2985,,0.5,0.3,"[1,3,2]",0.329241095,stimuli/card_10_transparent.png,10,0,0,0,0,1,,,,,,,,,,
,,,,56169e435c62cf000f822c76,A,2024-07-05_12h01.44.550,Slot Machine Game,2023.1.3,Win32,59.88023952,,,,,,,,,,,,,,,,,,,,,,,,,,,20,,,,,,,,,,,,,,,,,,,,,5,2,,,463.3573,1,right,0.5731,,1,0.3,"[1,3,2]",0.215721485,stimuli/card_10_transparent.png,10,1,0,1,0,1,,,,,,,,,,
,,,,56169e435c62cf000f822c76,A,2024-07-05_12h01.44.550,Slot Machine Game,2023.1.3,Win32,59.88023952,,,,,,,,,,,,,,,,,,,,,,,,,,,20,,,,,,,,,,,,,,,,,,,,,5,2,,,465.7575,2,up,1.3832,,1,0.3,"[1,3,2]",0.236131719,stimuli/card_0_transparent.png,0,2,0,2,0,1,,,,,,,,,,
,,,,56169e435c62cf000f822c76,A,2024-07-05_12h01.44.550,Slot Machine Game,2023.1.3,Win32,59.88023952,,,,,,,,,,,,,,,,,,,,,,,,,,,120,,,,,,,,,,,,,,,,,,,,,5,2,,,468.9679,3,left,0.5991,,0.5,0.3,"[1,3,2]",0.92458663,stimuli/card_100_transparent.png,100,3,0,3,0,1,,,,,,,,,,
,,,,56169e435c62cf000f822c76,A,2024-07-05_12h01.44.550,Slot Machine Game,2023.1.3,Win32,59.88023952,,,,,,,,,,,,,,,,,,,,,,,,,,,220,,,,,,,,,,,,,,,,,,,,,5,2,,,470.9052,4,left,0.0005,,1,0.3,"[1,3,2]",0.645032661,stimuli/card_100_transparent.png,100,4,0,4,0,1,,,,,,,,,,
,,,,56169e435c62cf000f822c76,A,2024-07-05_12h01.44.550,Slot Machine Game,2023.1.3,Win32,59.88023952,,,,,,,,,,,,,,,,,,,,,,,,,,,220,,,,,,,,,,,,,,,,,,,,,5,2,,,472.719,5,left,0.0445,,0.5,0.3,"[1,3,2]",0.031913365,stimuli/card_0_transparent.png,0,5,0,5,0,1,,,,,,,,,,
,,,,56169e435c62cf000f822c76,A,2024-07-05_12h01.44.550,Slot Machine Game,2023.1.3,Win32,59.88023952,,,,,,,,,,,,,,,,,,,,,,,,,,,220,,,,,,,,,,,,,,,,,,,,,5,2,,,474.0845,6,left,0.0712,,0.5,0.3,"[3,2,1]",0.703590934,stimuli/card_0_transparent.png,0,6,0,6,0,1,,,,,,,,,,
,,,,56169e435c62cf000f822c76,A,2024-07-05_12h01.44.550,Slot Machine Game,2023.1.3,Win32,59.88023952,,,,,,,,,,,,,,,,,,,,,,,,,,,220,,,,,,,,,,,,,,,,,,,,,5,2,,,475.4682,7,left,0.1678,,1.5,0.3,"[3,2,1]",0.488971499,stimuli/card_0_transparent.png,0,7,0,7,0,1,,,,,,,,,,
,,,,56169e435c62cf000f822c76,A,2024-07-05_12h01.44.550,Slot Machine Game,2023.1.3,Win32,59.88023952,,,,,,,,,,,,,,,,,,,,,,,,,,,320,,,,,,,,,,,,,,,,,,,,,5,2,,,477.9538,8,right,0.1553,,1,0.3,"[3,2,1]",0.950310113,stimuli/card_100_transparent.png,100,8,0,8,0,1,,,,,,,,,,
,,,,56169e435c62cf000f822c76,A,2024-07-05_12h01.44.550,Slot Machine Game,2023.1.3,Win32,59.88023952,,,,,,,,,,,,,,,,,,,,,,,,,,,420,,,,,,,,,,,,,,,,,,,,,5,2,,,479.9565,9,right,0.2009,,0.5,0.3,"[3,2,1]",0.26818365,stimuli/card_100_transparent.png,100,9,0,9,0,1,,,,,,,,,,
,,,,56169e435c62cf000f822c76,A,2024-07-05_12h01.44.550,Slot Machine Game,2023.1.3,Win32,59.88023952,,,,,,,,,,,,,,,,,,,,,,,,,,,520,,,,,,,,,,,,,,,,,,,,,5,2,,,481.4875,10,right,0.1025,,0.5,0.3,"[3,2,1]",0.409478829,stimuli/card_100_transparent.png,100,10,0,10,0,1,,,,,,,,,,
,,,,56169e435c62cf000f822c76,A,2024-07-05_12h01.44.550,Slot Machine Game,2023.1.3,Win32,59.88023952,,,,,,,,,,,,,,,,,,,,,,,,,,,620,,,,,,,,,,,,,,,,,,,,,5,2,,,482.9177,11,right,0.0495,,1.5,0.3,"[3,2,1]",0.591957605,stimuli/card_100_transparent.png,100,11,0,11,0,1,,,,,,,,,,
,,,,56169e435c62cf000f822c76,A,2024-07-05_12h01.44.550,Slot Machine Game,2023.1.3,Win32,59.88023952,,,,,,,,,,,,,,,,,,,,,,,,,,,620,,,,,,,,,,,,,,,,,,,,,5,2,,,485.2738,12,right,0.1005,,1,0.3,"[3,2,1]",0.086174618,stimuli/card_0_transparent.png,0,12,0,12,0,1,,,,,,,,,,
,,,,56169e435c62cf000f822c76,A,2024-07-05_12h01.44.550,Slot Machine Game,2023.1.3,Win32,59.88023952,,,,,,,,,,,,,,,,,,,,,,,,,,,720,,,,,,,,,,,,,,,,,,,,,5,2,,,487.1736,13,right,0.0679,,1.5,0.3,"[3,2,1]",0.775448109,stimuli/card_100_transparent.png,100,13,0,13,0,1,,,,,,,,,,
,,,,56169e435c62cf000f822c76,A,2024-07-05_12h01.44.550,Slot Machine Game,2023.1.3,Win32,59.88023952,,,,,,,,,,,,,,,,,,,,,,,,,,,820,,,,,,,,,,,,,,,,,,,,,5,2,,,489.5734,14,right,1.4681,,1,0.3,"[3,2,1]",0.252583984,stimuli/card_100_transparent.png,100,14,0,14,0,1,,,,,,,,,,
,,,,56169e435c62cf000f822c76,A,2024-07-05_12h01.44.550,Slot Machine Game,2023.1.3,Win32,59.88023952,,,,,,,,,,,,,,,,,,,,,,,,,,,,,,,,,,,492.8712,,,,,,,,,,,,,,,,,,,,,,,,,,,,,,,,,"[1210,830,930,350,820]",4,0,4,0,1,,,,
,,,,56169e435c62cf000f822c76,A,2024-07-05_12h01.44.550,Slot Machine Game,2023.1.3,Win32,59.88023952,,,,,,,,,,,,,,,,,,,,,,,,,,,0,,,,,,,,,,,,,,,,,,,,,6,4,"[7,15]","[[2,3,1],[1,2,3]]",497.8974,0,up,1.1701,,0.5,0.3,"[2,3,1]",0.408418227,stimuli/card_0_transparent.png,0,0,0,0,0,1,,,,,,,,,,
,,,,56169e435c62cf000f822c76,A,2024-07-05_12h01.44.550,Slot Machine Game,2023.1.3,Win32,59.88023952,,,,,,,,,,,,,,,,,,,,,,,,,,,0,,,,,,,,,,,,,,,,,,,,,6,4,,,500.3822,1,up,0.2379,,0.5,0.3,"[2,3,1]",0.302125025,stimuli/card_0_transparent.png,0,1,0,1,0,1,,,,,,,,,,
,,,,56169e435c62cf000f822c76,A,2024-07-05_12h01.44.550,Slot Machine Game,2023.1.3,Win32,59.88023952,,,,,,,,,,,,,,,,,,,,,,,,,,,10,,,,,,,,,,,,,,,,,,,,,6,4,,,501.9488,2,left,0.1511,,1,0.3,"[2,3,1]",0.381818497,stimuli/card_10_transparent.png,10,2,0,2,0,1,,,,,,,,,,
,,,,56169e435c62cf000f822c76,A,2024-07-05_12h01.44.550,Slot Machine Game,2023.1.3,Win32,59.88023952,,,,,,,,,,,,,,,,,,,,,,,,,,,110,,,,,,,,,,,,,,,,,,,,,6,4,,,503.9323,3,right,0.2009,,1.5,0.3,"[2,3,1]",0.709017524,stimuli/card_100_transparent.png,100,3,0,3,0,1,,,,,,,,,,
,,,,56169e435c62cf000f822c76,A,2024-07-05_12h01.44.550,Slot Machine Game,2023.1.3,Win32,59.88023952,,,,,,,,,,,,,,,,,,,,,,,,,,,210,,,,,,,,,,,,,,,,,,,,,6,4,,,506.4652,4,right,0.5366,,1,0.3,"[2,3,1]",0.66149695,stimuli/card_100_transparent.png,100,4,0,4,0,1,,,,,,,,,,
,,,,56169e435c62cf000f822c76,A,2024-07-05_12h01.44.550,Slot Machine Game,2023.1.3,Win32,59.88023952,,,,,,,,,,,,,,,,,,,,,,,,,,,310,,,,,,,,,,,,,,,,,,,,,6,4,,,508.8319,5,right,0.1184,,1,0.3,"[2,3,1]",0.954312936,stimuli/card_100_transparent.png,100,5,0,5,0,1,,,,,,,,,,
,,,,56169e435c62cf000f822c76,A,2024-07-05_12h01.44.550,Slot Machine Game,2023.1.3,Win32,59.88023952,,,,,,,,,,,,,,,,,,,,,,,,,,,410,,,,,,,,,,,,,,,,,,,,,6,4,,,510.7818,6,right,0.4344,,0.5,0.3,"[2,3,1]",0.203841199,stimuli/card_100_transparent.png,100,6,0,6,0,1,,,,,,,,,,
,,,,56169e435c62cf000f822c76,A,2024-07-05_12h01.44.550,Slot Machine Game,2023.1.3,Win32,59.88023952,,,,,,,,,,,,,,,,,,,,,,,,,,,410,,,,,,,,,,,,,,,,,,,,,6,4,,,512.548,7,right,0.0241,,0.5,0.3,"[1,2,3]",0.605033106,stimuli/card_0_transparent.png,0,7,0,7,0,1,,,,,,,,,,
,,,,56169e435c62cf000f822c76,A,2024-07-05_12h01.44.550,Slot Machine Game,2023.1.3,Win32,59.88023952,,,,,,,,,,,,,,,,,,,,,,,,,,,420,,,,,,,,,,,,,,,,,,,,,6,4,,,513.8981,8,up,0.6847,,1,0.3,"[1,2,3]",0.438734579,stimuli/card_10_transparent.png,10,8,0,8,0,1,,,,,,,,,,
,,,,56169e435c62cf000f822c76,A,2024-07-05_12h01.44.550,Slot Machine Game,2023.1.3,Win32,59.88023952,,,,,,,,,,,,,,,,,,,,,,,,,,,430,,,,,,,,,,,,,,,,,,,,,6,4,,,516.4145,9,up,0.222,,1,0.3,"[1,2,3]",0.703808477,stimuli/card_10_transparent.png,10,9,0,9,0,1,,,,,,,,,,
,,,,56169e435c62cf000f822c76,A,2024-07-05_12h01.44.550,Slot Machine Game,2023.1.3,Win32,59.88023952,,,,,,,,,,,,,,,,,,,,,,,,,,,530,,,,,,,,,,,,,,,,,,,,,6,4,,,518.4662,10,left,0.0668,,0.5,0.3,"[1,2,3]",0.844318546,stimuli/card_100_transparent.png,100,10,0,10,0,1,,,,,,,,,,
,,,,56169e435c62cf000f822c76,A,2024-07-05_12h01.44.550,Slot Machine Game,2023.1.3,Win32,59.88023952,,,,,,,,,,,,,,,,,,,,,,,,,,,630,,,,,,,,,,,,,,,,,,,,,6,4,,,519.8645,11,left,0.0906,,1,0.3,"[1,2,3]",0.399125956,stimuli/card_100_transparent.png,100,11,0,11,0,1,,,,,,,,,,
,,,,56169e435c62cf000f822c76,A,2024-07-05_12h01.44.550,Slot Machine Game,2023.1.3,Win32,59.88023952,,,,,,,,,,,,,,,,,,,,,,,,,,,730,,,,,,,,,,,,,,,,,,,,,6,4,,,521.7815,12,left,0.041,,1.5,0.3,"[1,2,3]",0.948781171,stimuli/card_100_transparent.png,100,12,0,12,0,1,,,,,,,,,,
,,,,56169e435c62cf000f822c76,A,2024-07-05_12h01.44.550,Slot Machine Game,2023.1.3,Win32,59.88023952,,,,,,,,,,,,,,,,,,,,,,,,,,,830,,,,,,,,,,,,,,,,,,,,,6,4,,,524.1476,13,left,0.0673,,1,0.3,"[1,2,3]",0.78393026,stimuli/card_100_transparent.png,100,13,0,13,0,1,,,,,,,,,,
,,,,56169e435c62cf000f822c76,A,2024-07-05_12h01.44.550,Slot Machine Game,2023.1.3,Win32,59.88023952,,,,,,,,,,,,,,,,,,,,,,,,,,,930,,,,,,,,,,,,,,,,,,,,,6,4,,,526.0476,14,left,0.0236,,0.5,0.3,"[1,2,3]",0.228974432,stimuli/card_100_transparent.png,100,14,0,14,0,1,,,,,,,,,,
,,,,56169e435c62cf000f822c76,A,2024-07-05_12h01.44.550,Slot Machine Game,2023.1.3,Win32,59.88023952,,,,,,,,,,,,,,,,,,,,,,,,,,,,,,,,,,,527.3816,,,,,,,,,,,,,,,,,,,,,,,,,,,,,,,,,"[1210,830,930,350,820,930]",5,0,5,0,1,,,,
,,,,56169e435c62cf000f822c76,A,2024-07-05_12h01.44.550,Slot Machine Game,2023.1.3,Win32,59.88023952,,,,,,,,,,,,,,,,,,,,,,,,,,,0,,,,,,,,,,,,,,,,,,,,,7,10,"[10,15]","[[3,1,2],[1,3,2]]",532.4065,0,left,0.2409,,1,0.3,"[3,1,2]",0.203132319,stimuli/card_0_transparent.png,0,0,0,0,0,1,,,,,,,,,,
,,,,56169e435c62cf000f822c76,A,2024-07-05_12h01.44.550,Slot Machine Game,2023.1.3,Win32,59.88023952,,,,,,,,,,,,,,,,,,,,,,,,,,,100,,,,,,,,,,,,,,,,,,,,,7,10,,,534.4638,1,up,0.7006,,0.5,0.3,"[3,1,2]",0.61558505,stimuli/card_100_transparent.png,100,1,0,1,0,1,,,,,,,,,,
,,,,56169e435c62cf000f822c76,A,2024-07-05_12h01.44.550,Slot Machine Game,2023.1.3,Win32,59.88023952,,,,,,,,,,,,,,,,,,,,,,,,,,,200,,,,,,,,,,,,,,,,,,,,,7,10,,,536.5013,2,up,0.1723,,1,0.3,"[3,1,2]",0.622746889,stimuli/card_100_transparent.png,100,2,0,2,0,1,,,,,,,,,,
,,,,56169e435c62cf000f822c76,A,2024-07-05_12h01.44.550,Slot Machine Game,2023.1.3,Win32,59.88023952,,,,,,,,,,,,,,,,,,,,,,,,,,,300,,,,,,,,,,,,,,,,,,,,,7,10,,,538.497,3,up,0.5561,,1,0.3,"[3,1,2]",0.991537821,stimuli/card_100_transparent.png,100,3,0,3,0,1,,,,,,,,,,
,,,,56169e435c62cf000f822c76,A,2024-07-05_12h01.44.550,Slot Machine Game,2023.1.3,Win32,59.88023952,,,,,,,,,,,,,,,,,,,,,,,,,,,400,,,,,,,,,,,,,,,,,,,,,7,10,,,540.8801,4,up,0.2895,,1,0.3,"[3,1,2]",0.726258265,stimuli/card_100_transparent.png,100,4,0,4,0,1,,,,,,,,,,
,,,,56169e435c62cf000f822c76,A,2024-07-05_12h01.44.550,Slot Machine Game,2023.1.3,Win32,59.88023952,,,,,,,,,,,,,,,,,,,,,,,,,,,500,,,,,,,,,,,,,,,,,,,,,7,10,,,542.9966,5,up,0.0503,,1,0.3,"[3,1,2]",0.610763488,stimuli/card_100_transparent.png,100,5,0,5,0,1,,,,,,,,,,
,,,,56169e435c62cf000f822c76,A,2024-07-05_12h01.44.550,Slot Machine Game,2023.1.3,Win32,59.88023952,,,,,,,,,,,,,,,,,,,,,,,,,,,500,,,,,,,,,,,,,,,,,,,,,7,10,,,544.8631,6,up,0.2165,,1,0.3,"[3,1,2]",0.077745895,stimuli/card_0_transparent.png,0,6,0,6,0,1,,,,,,,,,,
,,,,56169e435c62cf000f822c76,A,2024-07-05_12h01.44.550,Slot Machine Game,2023.1.3,Win32,59.88023952,,,,,,,,,,,,,,,,,,,,,,,,,,,510,,,,,,,,,,,,,,,,,,,,,7,10,,,546.9134,7,right,0.0507,,1,0.3,"[3,1,2]",0.869032625,stimuli/card_10_transparent.png,10,7,0,7,0,1,,,,,,,,,,
,,,,56169e435c62cf000f822c76,A,2024-07-05_12h01.44.550,Slot Machine Game,2023.1.3,Win32,59.88023952,,,,,,,,,,,,,,,,,,,,,,,,,,,610,,,,,,,,,,,,,,,,,,,,,7,10,,,548.7963,8,left,0.204,,0.5,0.3,"[3,1,2]",0.068158621,stimuli/card_100_transparent.png,100,8,0,8,0,1,,,,,,,,,,
,,,,56169e435c62cf000f822c76,A,2024-07-05_12h01.44.550,Slot Machine Game,2023.1.3,Win32,59.88023952,,,,,,,,,,,,,,,,,,,,,,,,,,,610,,,,,,,,,,,,,,,,,,,,,7,10,,,550.3297,9,left,0.0347,,0.5,0.3,"[3,1,2]",0.953304039,stimuli/card_0_transparent.png,0,9,0,9,0,1,,,,,,,,,,
,,,,56169e435c62cf000f822c76,A,2024-07-05_12h01.44.550,Slot Machine Game,2023.1.3,Win32,59.88023952,,,,,,,,,,,,,,,,,,,,,,,,,,,610,,,,,,,,,,,,,,,,,,,,,7,10,,,551.7008,10,up,0.417,,1,0.3,"[1,3,2]",0.830239711,stimuli/card_0_transparent.png,0,10,0,10,0,1,,,,,,,,,,
,,,,56169e435c62cf000f822c76,A,2024-07-05_12h01.44.550,Slot Machine Game,2023.1.3,Win32,59.88023952,,,,,,,,,,,,,,,,,,,,,,,,,,,610,,,,,,,,,,,,,,,,,,,,,7,10,,,553.946,11,up,0.1545,,0.5,0.3,"[1,3,2]",0.814030657,stimuli/card_0_transparent.png,0,11,0,11,0,1,,,,,,,,,,
,,,,56169e435c62cf000f822c76,A,2024-07-05_12h01.44.550,Slot Machine Game,2023.1.3,Win32,59.88023952,,,,,,,,,,,,,,,,,,,,,,,,,,,620,,,,,,,,,,,,,,,,,,,,,7,10,,,555.4292,12,right,0.0559,,1.5,0.3,"[1,3,2]",0.796550232,stimuli/card_10_transparent.png,10,12,0,12,0,1,,,,,,,,,,
,,,,56169e435c62cf000f822c76,A,2024-07-05_12h01.44.550,Slot Machine Game,2023.1.3,Win32,59.88023952,,,,,,,,,,,,,,,,,,,,,,,,,,,630,,,,,,,,,,,,,,,,,,,,,7,10,,,557.8133,13,right,0.2841,,0.5,0.3,"[1,3,2]",0.496789526,stimuli/card_10_transparent.png,10,13,0,13,0,1,,,,,,,,,,
,,,,56169e435c62cf000f822c76,A,2024-07-05_12h01.44.550,Slot Machine Game,2023.1.3,Win32,59.88023952,,,,,,,,,,,,,,,,,,,,,,,,,,,640,,,,,,,,,,,,,,,,,,,,,7,10,,,559.4293,14,right,0.2345,,1.5,0.3,"[1,3,2]",0.91553072,stimuli/card_10_transparent.png,10,14,0,14,0,1,,,,,,,,,,
,,,,56169e435c62cf000f822c76,A,2024-07-05_12h01.44.550,Slot Machine Game,2023.1.3,Win32,59.88023952,,,,,,,,,,,,,,,,,,,,,,,,,,,,,,,,,,,561.9792,,,,,,,,,,,,,,,,,,,,,,,,,,,,,,,,,"[1210,830,930,350,820,930,640]",6,0,6,0,1,,,,
,,,,56169e435c62cf000f822c76,A,2024-07-05_12h01.44.550,Slot Machine Game,2023.1.3,Win32,59.88023952,,,,,,,,,,,,,,,,,,,,,,,,,,,10,,,,,,,,,,,,,,,,,,,,,8,7,"[9,15]","[[1,3,2],[2,3,1]]",567.0044,0,right,0.4699,,1,0.3,"[1,3,2]",0.356502982,stimuli/card_10_transparent.png,10,0,0,0,0,1,,,,,,,,,,
,,,,56169e435c62cf000f822c76,A,2024-07-05_12h01.44.550,Slot Machine Game,2023.1.3,Win32,59.88023952,,,,,,,,,,,,,,,,,,,,,,,,,,,10,,,,,,,,,,,,,,,,,,,,,8,7,,,569.2956,1,left,0.0371,,0.5,0.3,"[1,3,2]",0.006163271,stimuli/card_0_transparent.png,0,1,0,1,0,1,,,,,,,,,,
,,,,56169e435c62cf000f822c76,A,2024-07-05_12h01.44.550,Slot Machine Game,2023.1.3,Win32,59.88023952,,,,,,,,,,,,,,,,,,,,,,,,,,,10,,,,,,,,,,,,,,,,,,,,,8,7,,,570.6622,2,up,0.7018,,0.5,0.3,"[1,3,2]",0.554549044,stimuli/card_0_transparent.png,0,2,0,2,0,1,,,,,,,,,,
,,,,56169e435c62cf000f822c76,A,2024-07-05_12h01.44.550,Slot Machine Game,2023.1.3,Win32,59.88023952,,,,,,,,,,,,,,,,,,,,,,,,,,,10,,,,,,,,,,,,,,,,,,,,,8,7,,,572.6953,3,up,0.1327,,0.5,0.3,"[1,3,2]",0.501893537,stimuli/card_0_transparent.png,0,3,0,3,0,1,,,,,,,,,,
,,,,56169e435c62cf000f822c76,A,2024-07-05_12h01.44.550,Slot Machine Game,2023.1.3,Win32,59.88023952,,,,,,,,,,,,,,,,,,,,,,,,,,,10,,,,,,,,,,,,,,,,,,,,,8,7,,,574.1623,4,up,0.1657,,1,0.3,"[1,3,2]",0.275772648,stimuli/card_0_transparent.png,0,4,0,4,0,1,,,,,,,,,,
,,,,56169e435c62cf000f822c76,A,2024-07-05_12h01.44.550,Slot Machine Game,2023.1.3,Win32,59.88023952,,,,,,,,,,,,,,,,,,,,,,,,,,,20,,,,,,,,,,,,,,,,,,,,,8,7,,,576.164,5,right,0.0158,,0.5,0.3,"[1,3,2]",0.923577901,stimuli/card_10_transparent.png,10,5,0,5,0,1,,,,,,,,,,
,,,,56169e435c62cf000f822c76,A,2024-07-05_12h01.44.550,Slot Machine Game,2023.1.3,Win32,59.88023952,,,,,,,,,,,,,,,,,,,,,,,,,,,30,,,,,,,,,,,,,,,,,,,,,8,7,,,577.5119,6,right,0.2183,,0.5,0.3,"[1,3,2]",0.599209949,stimuli/card_10_transparent.png,10,6,0,6,0,1,,,,,,,,,,
,,,,56169e435c62cf000f822c76,A,2024-07-05_12h01.44.550,Slot Machine Game,2023.1.3,Win32,59.88023952,,,,,,,,,,,,,,,,,,,,,,,,,,,130,,,,,,,,,,,,,,,,,,,,,8,7,,,579.0619,7,left,0.2165,,0.5,0.3,"[1,3,2]",0.544694213,stimuli/card_100_transparent.png,100,7,0,7,0,1,,,,,,,,,,
,,,,56169e435c62cf000f822c76,A,2024-07-05_12h01.44.550,Slot Machine Game,2023.1.3,Win32,59.88023952,,,,,,,,,,,,,,,,,,,,,,,,,,,230,,,,,,,,,,,,,,,,,,,,,8,7,,,580.6118,8,left,0.021,,0.5,0.3,"[1,3,2]",0.461298906,stimuli/card_100_transparent.png,100,8,0,8,0,1,,,,,,,,,,
,,,,56169e435c62cf000f822c76,A,2024-07-05_12h01.44.550,Slot Machine Game,2023.1.3,Win32,59.88023952,,,,,,,,,,,,,,,,,,,,,,,,,,,240,,,,,,,,,,,,,,,,,,,,,8,7,,,581.9622,9,left,0.1013,,0.5,0.3,"[2,3,1]",0.694777191,stimuli/card_10_transparent.png,10,9,0,9,0,1,,,,,,,,,,
,,,,56169e435c62cf000f822c76,A,2024-07-05_12h01.44.550,Slot Machine Game,2023.1.3,Win32,59.88023952,,,,,,,,,,,,,,,,,,,,,,,,,,,250,,,,,,,,,,,,,,,,,,,,,8,7,,,583.3947,10,left,0.2012,,1,0.3,"[2,3,1]",0.808927787,stimuli/card_10_transparent.png,10,10,0,10,0,1,,,,,,,,,,
,,,,56169e435c62cf000f822c76,A,2024-07-05_12h01.44.550,Slot Machine Game,2023.1.3,Win32,59.88023952,,,,,,,,,,,,,,,,,,,,,,,,,,,260,,,,,,,,,,,,,,,,,,,,,8,7,,,585.4282,11,left,0.3494,,1,0.3,"[2,3,1]",0.878723569,stimuli/card_10_transparent.png,10,11,0,11,0,1,,,,,,,,,,
,,,,56169e435c62cf000f822c76,A,2024-07-05_12h01.44.550,Slot Machine Game,2023.1.3,Win32,59.88023952,,,,,,,,,,,,,,,,,,,,,,,,,,,260,,,,,,,,,,,,,,,,,,,,,8,7,,,587.6124,12,up,0.1246,,1,0.3,"[2,3,1]",0.355895492,stimuli/card_0_transparent.png,0,12,0,12,0,1,,,,,,,,,,
,,,,56169e435c62cf000f822c76,A,2024-07-05_12h01.44.550,Slot Machine Game,2023.1.3,Win32,59.88023952,,,,,,,,,,,,,,,,,,,,,,,,,,,260,,,,,,,,,,,,,,,,,,,,,8,7,,,589.5616,13,up,0.1238,,1,0.3,"[2,3,1]",0.603496513,stimuli/card_0_transparent.png,0,13,0,13,0,1,,,,,,,,,,
,,,,56169e435c62cf000f822c76,A,2024-07-05_12h01.44.550,Slot Machine Game,2023.1.3,Win32,59.88023952,,,,,,,,,,,,,,,,,,,,,,,,,,,360,,,,,,,,,,,,,,,,,,,,,8,7,,,591.5131,14,right,0.1162,,1,0.3,"[2,3,1]",0.511436494,stimuli/card_100_transparent.png,100,14,0,14,0,1,,,,,,,,,,
,,,,56169e435c62cf000f822c76,A,2024-07-05_12h01.44.550,Slot Machine Game,2023.1.3,Win32,59.88023952,,,,,,,,,,,,,,,,,,,,,,,,,,,,,,,,,,,593.4621,,,,,,,,,,,,,,,,,,,,,,,,,,,,,,,,,"[1210,830,930,350,820,930,640,360]",7,0,7,0,1,,,,
,,,,56169e435c62cf000f822c76,A,2024-07-05_12h01.44.550,Slot Machine Game,2023.1.3,Win32,59.88023952,,,,,,,,,,,,,,,,,,,,,,,,,,,100,,,,,,,,,,,,,,,,,,,,,9,9,[15],"[[3,1,2]]",598.4852,0,up,1.8509,,1.5,0.3,"[3,1,2]",0.716300072,stimuli/card_100_transparent.png,100,0,0,0,0,1,,,,,,,,,,
,,,,56169e435c62cf000f822c76,A,2024-07-05_12h01.44.550,Slot Machine Game,2023.1.3,Win32,59.88023952,,,,,,,,,,,,,,,,,,,,,,,,,,,200,,,,,,,,,,,,,,,,,,,,,9,9,,,602.6683,1,up,0.1681,,1,0.3,"[3,1,2]",0.679629037,stimuli/card_100_transparent.png,100,1,0,1,0,1,,,,,,,,,,
,,,,56169e435c62cf000f822c76,A,2024-07-05_12h01.44.550,Slot Machine Game,2023.1.3,Win32,59.88023952,,,,,,,,,,,,,,,,,,,,,,,,,,,300,,,,,,,,,,,,,,,,,,,,,9,9,,,604.6682,2,up,0.1731,,1,0.3,"[3,1,2]",0.433865593,stimuli/card_100_transparent.png,100,2,0,2,0,1,,,,,,,,,,
,,,,56169e435c62cf000f822c76,A,2024-07-05_12h01.44.550,Slot Machine Game,2023.1.3,Win32,59.88023952,,,,,,,,,,,,,,,,,,,,,,,,,,,400,,,,,,,,,,,,,,,,,,,,,9,9,,,606.6646,3,up,0.1987,,0.5,0.3,"[3,1,2]",0.307430888,stimuli/card_100_transparent.png,100,3,0,3,0,1,,,,,,,,,,
,,,,56169e435c62cf000f822c76,A,2024-07-05_12h01.44.550,Slot Machine Game,2023.1.3,Win32,59.88023952,,,,,,,,,,,,,,,,,,,,,,,,,,,500,,,,,,,,,,,,,,,,,,,,,9,9,,,608.1834,4,up,0.1307,,1.5,0.3,"[3,1,2]",0.933615458,stimuli/card_100_transparent.png,100,4,0,4,0,1,,,,,,,,,,
,,,,56169e435c62cf000f822c76,A,2024-07-05_12h01.44.550,Slot Machine Game,2023.1.3,Win32,59.88023952,,,,,,,,,,,,,,,,,,,,,,,,,,,600,,,,,,,,,,,,,,,,,,,,,9,9,,,610.6505,5,up,0.2095,,1,0.3,"[3,1,2]",0.314495663,stimuli/card_100_transparent.png,100,5,0,5,0,1,,,,,,,,,,
,,,,56169e435c62cf000f822c76,A,2024-07-05_12h01.44.550,Slot Machine Game,2023.1.3,Win32,59.88023952,,,,,,,,,,,,,,,,,,,,,,,,,,,700,,,,,,,,,,,,,,,,,,,,,9,9,,,612.7023,6,up,0.2335,,1.5,0.3,"[3,1,2]",0.376233078,stimuli/card_100_transparent.png,100,6,0,6,0,1,,,,,,,,,,
,,,,56169e435c62cf000f822c76,A,2024-07-05_12h01.44.550,Slot Machine Game,2023.1.3,Win32,59.88023952,,,,,,,,,,,,,,,,,,,,,,,,,,,800,,,,,,,,,,,,,,,,,,,,,9,9,,,615.2681,7,up,0.1803,,1.5,0.3,"[3,1,2]",0.890249784,stimuli/card_100_transparent.png,100,7,0,7,0,1,,,,,,,,,,
,,,,56169e435c62cf000f822c76,A,2024-07-05_12h01.44.550,Slot Machine Game,2023.1.3,Win32,59.88023952,,,,,,,,,,,,,,,,,,,,,,,,,,,900,,,,,,,,,,,,,,,,,,,,,9,9,,,617.7669,8,up,0.4013,,1,0.3,"[3,1,2]",0.639966596,stimuli/card_100_transparent.png,100,8,0,8,0,1,,,,,,,,,,
,,,,56169e435c62cf000f822c76,A,2024-07-05_12h01.44.550,Slot Machine Game,2023.1.3,Win32,59.88023952,,,,,,,,,,,,,,,,,,,,,,,,,,,900,,,,,,,,,,,,,,,,,,,,,9,9,,,620.0005,9,up,0.1867,,0.5,0.3,"[3,1,2]",0.020107651,stimuli/card_0_transparent.png,0,9,0,9,0,1,,,,,,,,,,
,,,,56169e435c62cf000f822c76,A,2024-07-05_12h01.44.550,Slot Machine Game,2023.1.3,Win32,59.88023952,,,,,,,,,,,,,,,,,,,,,,,,,,,1000,,,,,,,,,,,,,,,,,,,,,9,9,,,621.5163,10,up,0.2459,,1.5,0.3,"[3,1,2]",0.827301751,stimuli/card_100_transparent.png,100,10,0,10,0,1,,,,,,,,,,
,,,,56169e435c62cf000f822c76,A,2024-07-05_12h01.44.550,Slot Machine Game,2023.1.3,Win32,59.88023952,,,,,,,,,,,,,,,,,,,,,,,,,,,1000,,,,,,,,,,,,,,,,,,,,,9,9,,,624.0665,11,up,0.1844,,0.5,0.3,"[3,1,2]",0.051721446,stimuli/card_0_transparent.png,0,11,0,11,0,1,,,,,,,,,,
,,,,56169e435c62cf000f822c76,A,2024-07-05_12h01.44.550,Slot Machine Game,2023.1.3,Win32,59.88023952,,,,,,,,,,,,,,,,,,,,,,,,,,,1100,,,,,,,,,,,,,,,,,,,,,9,9,,,625.5838,12,up,0.0356,,1.5,0.3,"[3,1,2]",0.323587133,stimuli/card_100_transparent.png,100,12,0,12,0,1,,,,,,,,,,
,,,,56169e435c62cf000f822c76,A,2024-07-05_12h01.44.550,Slot Machine Game,2023.1.3,Win32,59.88023952,,,,,,,,,,,,,,,,,,,,,,,,,,,1110,,,,,,,,,,,,,,,,,,,,,9,9,,,627.9498,13,up,0.3099,,1.5,0.3,"[3,1,2]",0.141928391,stimuli/card_10_transparent.png,10,13,0,13,0,1,,,,,,,,,,
,,,,56169e435c62cf000f822c76,A,2024-07-05_12h01.44.550,Slot Machine Game,2023.1.3,Win32,59.88023952,,,,,,,,,,,,,,,,,,,,,,,,,,,1210,,,,,,,,,,,,,,,,,,,,,9,9,,,630.5991,14,up,1.2056,,1,0.3,"[3,1,2]",0.445303582,stimuli/card_100_transparent.png,100,14,0,14,0,1,,,,,,,,,,
,,,,56169e435c62cf000f822c76,A,2024-07-05_12h01.44.550,Slot Machine Game,2023.1.3,Win32,59.88023952,,,,,,,,,,,,,,,,,,,,,,,,,,,,,,,,,,,633.6102,,,,,,,,,,,,,,,,,,,,,,,,,,,,,,,,,"[1210,830,930,350,820,930,640,360,1210]",8,0,8,0,1,,,,
,,,,56169e435c62cf000f822c76,A,2024-07-05_12h01.44.550,Slot Machine Game,2023.1.3,Win32,59.88023952,,,,,,,,,,,,,,,,,,,,,,,,,,,10,,,,,,,,,,,,,,,,,,,,,10,6,"[4,10,15]","[[2,3,1],[1,3,2],[3,2,1]]",645.8056,0,left,1.7026,,1,0.3,"[2,3,1]",0.577826073,stimuli/card_10_transparent.png,10,0,0,0,0,1,,,,,,,,,,
,,,,56169e435c62cf000f822c76,A,2024-07-05_12h01.44.550,Slot Machine Game,2023.1.3,Win32,59.88023952,,,,,,,,,,,,,,,,,,,,,,,,,,,20,,,,,,,,,,,,,,,,,,,,,10,6,,,649.325,1,left,0.1851,,0.5,0.3,"[2,3,1]",0.912821469,stimuli/card_10_transparent.png,10,1,0,1,0,1,,,,,,,,,,
,,,,56169e435c62cf000f822c76,A,2024-07-05_12h01.44.550,Slot Machine Game,2023.1.3,Win32,59.88023952,,,,,,,,,,,,,,,,,,,,,,,,,,,30,,,,,,,,,,,,,,,,,,,,,10,6,,,650.8417,2,left,0.6525,,1.5,0.3,"[2,3,1]",0.845229489,stimuli/card_10_transparent.png,10,2,0,2,0,1,,,,,,,,,,
,,,,56169e435c62cf000f822c76,A,2024-07-05_12h01.44.550,Slot Machine Game,2023.1.3,Win32,59.88023952,,,,,,,,,,,,,,,,,,,,,,,,,,,30,,,,,,,,,,,,,,,,,,,,,10,6,,,653.8249,3,right,0.5517,,0.5,0.3,"[2,3,1]",0.011702404,stimuli/card_0_transparent.png,0,3,0,3,0,1,,,,,,,,,,
,,,,56169e435c62cf000f822c76,A,2024-07-05_12h01.44.550,Slot Machine Game,2023.1.3,Win32,59.88023952,,,,,,,,,,,,,,,,,,,,,,,,,,,40,,,,,,,,,,,,,,,,,,,,,10,6,,,655.7081,4,right,0.2235,,1,0.3,"[1,3,2]",0.552656426,stimuli/card_10_transparent.png,10,4,0,4,0,1,,,,,,,,,,
,,,,56169e435c62cf000f822c76,A,2024-07-05_12h01.44.550,Slot Machine Game,2023.1.3,Win32,59.88023952,,,,,,,,,,,,,,,,,,,,,,,,,,,40,,,,,,,,,,,,,,,,,,,,,10,6,,,657.758,5,up,0.4388,,0.5,0.3,"[1,3,2]",0.304254293,stimuli/card_0_transparent.png,0,5,0,5,0,1,,,,,,,,,,
,,,,56169e435c62cf000f822c76,A,2024-07-05_12h01.44.550,Slot Machine Game,2023.1.3,Win32,59.88023952,,,,,,,,,,,,,,,,,,,,,,,,,,,40,,,,,,,,,,,,,,,,,,,,,10,6,,,659.5243,6,up,0.1016,,1.5,0.3,"[1,3,2]",0.773763954,stimuli/card_0_transparent.png,0,6,0,6,0,1,,,,,,,,,,
,,,,56169e435c62cf000f822c76,A,2024-07-05_12h01.44.550,Slot Machine Game,2023.1.3,Win32,59.88023952,,,,,,,,,,,,,,,,,,,,,,,,,,,140,,,,,,,,,,,,,,,,,,,,,10,6,,,661.9579,7,left,0.1226,,0.5,0.3,"[1,3,2]",0.703218273,stimuli/card_100_transparent.png,100,7,0,7,0,1,,,,,,,,,,
,,,,56169e435c62cf000f822c76,A,2024-07-05_12h01.44.550,Slot Machine Game,2023.1.3,Win32,59.88023952,,,,,,,,,,,,,,,,,,,,,,,,,,,240,,,,,,,,,,,,,,,,,,,,,10,6,,,663.3959,8,left,0.1387,,0.5,0.3,"[1,3,2]",0.798041878,stimuli/card_100_transparent.png,100,8,0,8,0,1,,,,,,,,,,
,,,,56169e435c62cf000f822c76,A,2024-07-05_12h01.44.550,Slot Machine Game,2023.1.3,Win32,59.88023952,,,,,,,,,,,,,,,,,,,,,,,,,,,340,,,,,,,,,,,,,,,,,,,,,10,6,,,664.8578,9,left,0.135,,1.5,0.3,"[1,3,2]",0.435920535,stimuli/card_100_transparent.png,100,9,0,9,0,1,,,,,,,,,,
,,,,56169e435c62cf000f822c76,A,2024-07-05_12h01.44.550,Slot Machine Game,2023.1.3,Win32,59.88023952,,,,,,,,,,,,,,,,,,,,,,,,,,,340,,,,,,,,,,,,,,,,,,,,,10,6,,,667.329,10,left,0.0669,,1.5,0.3,"[3,2,1]",0.624549056,stimuli/card_0_transparent.png,0,10,0,10,0,1,,,,,,,,,,
,,,,56169e435c62cf000f822c76,A,2024-07-05_12h01.44.550,Slot Machine Game,2023.1.3,Win32,59.88023952,,,,,,,,,,,,,,,,,,,,,,,,,,,340,,,,,,,,,,,,,,,,,,,,,10,6,,,669.7241,11,left,0.1231,,1,0.3,"[3,2,1]",0.675245096,stimuli/card_0_transparent.png,0,11,0,11,0,1,,,,,,,,,,
,,,,56169e435c62cf000f822c76,A,2024-07-05_12h01.44.550,Slot Machine Game,2023.1.3,Win32,59.88023952,,,,,,,,,,,,,,,,,,,,,,,,,,,350,,,,,,,,,,,,,,,,,,,,,10,6,,,671.6739,12,up,0.6836,,0.5,0.3,"[3,2,1]",0.645322461,stimuli/card_10_transparent.png,10,12,0,12,0,1,,,,,,,,,,
,,,,56169e435c62cf000f822c76,A,2024-07-05_12h01.44.550,Slot Machine Game,2023.1.3,Win32,59.88023952,,,,,,,,,,,,,,,,,,,,,,,,,,,450,,,,,,,,,,,,,,,,,,,,,10,6,,,673.6909,13,right,0.3025,,1.5,0.3,"[3,2,1]",0.422003442,stimuli/card_100_transparent.png,100,13,0,13,0,1,,,,,,,,,,
,,,,56169e435c62cf000f822c76,A,2024-07-05_12h01.44.550,Slot Machine Game,2023.1.3,Win32,59.88023952,,,,,,,,,,,,,,,,,,,,,,,,,,,550,,,,,,,,,,,,,,,,,,,,,10,6,,,676.3238,14,right,0.0037,,1.5,0.3,"[3,2,1]",0.974364101,stimuli/card_100_transparent.png,100,14,0,14,0,1,,,,,,,,,,
,,,,56169e435c62cf000f822c76,A,2024-07-05_12h01.44.550,Slot Machine Game,2023.1.3,Win32,59.88023952,,,,,,,,,,,,,,,,,,,,,,,,,,,,,,,,,,,678.6576,,,,,,,,,,,,,,,,,,,,,,,,,,,,,,,,,"[1210,830,930,350,820,930,640,360,1210,550]",9,0,9,0,1,,,,
,,,,56169e435c62cf000f822c76,A,2024-07-05_12h01.44.550,Slot Machine Game,2023.1.3,Win32,59.88023952,,,,,,,,,,,,,,,,,,,,,,,,,,,,,,,,,,,,,,,,,,,,,,,,,,,,,,,,,,,,,,,,,,,,,,,,,,9,"[1210,830,930,350,820,930,640,360,1210,550]",12.1,2024-07-05_12h13.12.468
