key_resp_welcome_started,key_resp_welcome_keys,key_resp_welcome_rt,key_resp_welcome_duration,prolific_id,path_id,date,expName,psychopyVersion,OS,frameRate,key_resp_instruction1_started,key_resp_instruction1_keys,key_resp_instruction1_rt,key_resp_instruction1_duration,key_resp_instruction2_started,key_resp_instruction2_keys,key_resp_instruction2_rt,key_resp_instruction2_duration,key_resp_instruction3_started,key_resp_instruction3_keys,key_resp_instruction3_rt,key_resp_instruction3_duration,key_resp_instruction4_started,key_resp_instruction4_keys,key_resp_instruction4_rt,key_resp_instruction4_duration,practiceCondition,practice_reward_seqs,practice_trial_started,practice_trial_num,practice_resp_rt,practice_resp_duration,practice_resp_keys,prac_presentationInterval,"practice_reward_seq: 2,1,3",reward_img,cumulative_reward,trial_reward,practice_trials.thisRepN,practice_trials.thisTrialN,practice_trials.thisN,practice_trials.thisIndex,practice_trials.ran,"practice_reward_seq: 2,3,1",block_break_started,"practice_reward_seq: 1,3,2","practice_reward_seq: 3,1,2",practice_end_time,practice_end_keys,practice_end_rt,practice_end_duration,main_instruction_text_started,block_condition,block_order_indices,main_instruction_keys,main_instruction_rt,main_instruction_duration,block_number,block_assignment,current_condition,main_reward_seqs,main_trial_started,main_trial_num,main_trial_keys,main_trial_rt,main_trial_duration,main_presentationInterval,reward_presentation_time,main_reward_seq,reward_rand_val,main_reward_img,current_reward,main_trials.thisRepN,main_trials.thisTrialN,main_trials.thisN,main_trials.thisIndex,main_trials.ran,block_reward,block.thisRepN,block.thisTrialN,block.thisN,block.thisIndex,block.ran,block_reward.length,block_reward_all,reward_amount,date_end_task
0.0002,space,4.9563,,5617203c5c62cf0005822f0c,B,2024-06-29_17h33.38.227,Slot Machine Game,2023.1.3,Win32,59.88023952,,,,,,,,,,,,,,,,,,,,,,,,,,,,,,,,,,,,,,,,,,,,,,,,,,,,,,,,,,,,,,,,,,,,,,,,,,,,,
,,,,5617203c5c62cf0005822f0c,B,2024-06-29_17h33.38.227,Slot Machine Game,2023.1.3,Win32,59.88023952,4.9765,space,37.0634,,,,,,,,,,,,,,,,,,,,,,,,,,,,,,,,,,,,,,,,,,,,,,,,,,,,,,,,,,,,,,,,,,,,,,,,,,
,,,,5617203c5c62cf0005822f0c,B,2024-06-29_17h33.38.227,Slot Machine Game,2023.1.3,Win32,59.88023952,,,,,42.0629,space,102.8364,,,,,,,,,,,,,,,,,,,,,,,,,,,,,,,,,,,,,,,,,,,,,,,,,,,,,,,,,,,,,,,,,,,,,,
,,,,5617203c5c62cf0005822f0c,B,2024-06-29_17h33.38.227,Slot Machine Game,2023.1.3,Win32,59.88023952,,,,,,,,,144.9205,space,22.9037,,,,,,,,,,,,,,,,,,,,,,,,,,,,,,,,,,,,,,,,,,,,,,,,,,,,,,,,,,,,,,,,,,
,,,,5617203c5c62cf0005822f0c,B,2024-06-29_17h33.38.227,Slot Machine Game,2023.1.3,Win32,59.88023952,,,,,,,,,,,,,,,,,,,,,,,,,,,,,,,,,,,,,,,,,,,,,,,,,,,,,,,,,,,,,,,,,,,,,,,,,,,,,
,,,,5617203c5c62cf0005822f0c,B,2024-06-29_17h33.38.227,Slot Machine Game,2023.1.3,Win32,59.88023952,,,,,,,,,,,,,309.6357,space,5.5322,,,,,,,,,,,,,,,,,,,,,,,,,,,,,,,,,,,,,,,,,,,,,,,,,,,,,,,,,,,,,,
,,,,5617203c5c62cf0005822f0c,B,2024-06-29_17h33.38.227,Slot Machine Game,2023.1.3,Win32,59.88023952,,,,,,,,,,,,,,,,,"[9,15]","[[2,1,3],[2,3,1]]",315.1847,0,2.9122,,up,0.5,,stimuli/card_0_transparent.png,0,0,0,0,0,0,1,,,,,,,,,,,,,,,,,,,,,,,,,,,,,,,,,,,,,,,,,,,,
,,,,5617203c5c62cf0005822f0c,B,2024-06-29_17h33.38.227,Slot Machine Game,2023.1.3,Win32,59.88023952,,,,,,,,,,,,,,,,,,,319.4159,1,1.0162,,up,1,,stimuli/card_10_transparent.png,10,10,1,0,1,0,1,,,,,,,,,,,,,,,,,,,,,,,,,,,,,,,,,,,,,,,,,,,,
,,,,5617203c5c62cf0005822f0c,B,2024-06-29_17h33.38.227,Slot Machine Game,2023.1.3,Win32,59.88023952,,,,,,,,,,,,,,,,,,,322.2657,2,1.5012,,right,1.5,,stimuli/card_0_transparent.png,10,0,2,0,2,0,1,,,,,,,,,,,,,,,,,,,,,,,,,,,,,,,,,,,,,,,,,,,,
,,,,5617203c5c62cf0005822f0c,B,2024-06-29_17h33.38.227,Slot Machine Game,2023.1.3,Win32,59.88023952,,,,,,,,,,,,,,,,,,,326.0994,3,0.5745,,right,0.5,,stimuli/card_0_transparent.png,10,0,3,0,3,0,1,,,,,,,,,,,,,,,,,,,,,,,,,,,,,,,,,,,,,,,,,,,,
,,,,5617203c5c62cf0005822f0c,B,2024-06-29_17h33.38.227,Slot Machine Game,2023.1.3,Win32,59.88023952,,,,,,,,,,,,,,,,,,,327.9995,4,1.5487,,left,1.5,,stimuli/card_10_transparent.png,20,10,4,0,4,0,1,,,,,,,,,,,,,,,,,,,,,,,,,,,,,,,,,,,,,,,,,,,,
,,,,5617203c5c62cf0005822f0c,B,2024-06-29_17h33.38.227,Slot Machine Game,2023.1.3,Win32,59.88023952,,,,,,,,,,,,,,,,,,,331.8831,5,0.4446,,left,1.5,,stimuli/card_10_transparent.png,30,10,5,0,5,0,1,,,,,,,,,,,,,,,,,,,,,,,,,,,,,,,,,,,,,,,,,,,,
,,,,5617203c5c62cf0005822f0c,B,2024-06-29_17h33.38.227,Slot Machine Game,2023.1.3,Win32,59.88023952,,,,,,,,,,,,,,,,,,,334.65,6,0.6837,,right,1.5,,stimuli/card_0_transparent.png,30,0,6,0,6,0,1,,,,,,,,,,,,,,,,,,,,,,,,,,,,,,,,,,,,,,,,,,,,
,,,,5617203c5c62cf0005822f0c,B,2024-06-29_17h33.38.227,Slot Machine Game,2023.1.3,Win32,59.88023952,,,,,,,,,,,,,,,,,,,337.6668,7,1.1665,,right,0.5,,stimuli/card_0_transparent.png,30,0,7,0,7,0,1,,,,,,,,,,,,,,,,,,,,,,,,,,,,,,,,,,,,,,,,,,,,
,,,,5617203c5c62cf0005822f0c,B,2024-06-29_17h33.38.227,Slot Machine Game,2023.1.3,Win32,59.88023952,,,,,,,,,,,,,,,,,,,340.1503,8,1.037,,up,1.5,,stimuli/card_100_transparent.png,130,100,8,0,8,0,1,,,,,,,,,,,,,,,,,,,,,,,,,,,,,,,,,,,,,,,,,,,,
,,,,5617203c5c62cf0005822f0c,B,2024-06-29_17h33.38.227,Slot Machine Game,2023.1.3,Win32,59.88023952,,,,,,,,,,,,,,,,,,,343.5007,9,0.3561,,up,1.5,,stimuli/card_0_transparent.png,130,0,9,0,9,0,1,,,,,,,,,,,,,,,,,,,,,,,,,,,,,,,,,,,,,,,,,,,,
,,,,5617203c5c62cf0005822f0c,B,2024-06-29_17h33.38.227,Slot Machine Game,2023.1.3,Win32,59.88023952,,,,,,,,,,,,,,,,,,,346.1841,10,2.3936,,up,0.5,,stimuli/card_0_transparent.png,130,0,10,0,10,0,1,,,,,,,,,,,,,,,,,,,,,,,,,,,,,,,,,,,,,,,,,,,,
,,,,5617203c5c62cf0005822f0c,B,2024-06-29_17h33.38.227,Slot Machine Game,2023.1.3,Win32,59.88023952,,,,,,,,,,,,,,,,,,,349.9011,11,0.8993,,up,1.5,,stimuli/card_0_transparent.png,130,0,11,0,11,0,1,,,,,,,,,,,,,,,,,,,,,,,,,,,,,,,,,,,,,,,,,,,,
,,,,5617203c5c62cf0005822f0c,B,2024-06-29_17h33.38.227,Slot Machine Game,2023.1.3,Win32,59.88023952,,,,,,,,,,,,,,,,,,,353.1346,12,0.9336,,right,0.5,,stimuli/card_10_transparent.png,140,10,12,0,12,0,1,,,,,,,,,,,,,,,,,,,,,,,,,,,,,,,,,,,,,,,,,,,,
,,,,5617203c5c62cf0005822f0c,B,2024-06-29_17h33.38.227,Slot Machine Game,2023.1.3,Win32,59.88023952,,,,,,,,,,,,,,,,,,,355.4015,13,1.0254,,right,1,,stimuli/card_100_transparent.png,240,100,13,0,13,0,1,,,,,,,,,,,,,,,,,,,,,,,,,,,,,,,,,,,,,,,,,,,,
,,,,5617203c5c62cf0005822f0c,B,2024-06-29_17h33.38.227,Slot Machine Game,2023.1.3,Win32,59.88023952,,,,,,,,,,,,,,,,,,,358.2517,14,0.457,,right,0.5,,stimuli/card_100_transparent.png,340,100,14,0,14,0,1,,,,,,,,,,,,,,,,,,,,,,,,,,,,,,,,,,,,,,,,,,,,
,,,,5617203c5c62cf0005822f0c,B,2024-06-29_17h33.38.227,Slot Machine Game,2023.1.3,Win32,59.88023952,,,,,,,,,,,,,,,,,"[6,15]","[[1,3,2],[3,1,2]]",365.0425,0,1.2175,,up,0.5,,stimuli/card_0_transparent.png,0,0,0,0,0,0,1,,360.0418,,,,,,,,,,,,,,,,,,,,,,,,,,,,,,,,,,,,,,,,,,
,,,,5617203c5c62cf0005822f0c,B,2024-06-29_17h33.38.227,Slot Machine Game,2023.1.3,Win32,59.88023952,,,,,,,,,,,,,,,,,,,367.5857,1,0.4337,,up,1.5,,stimuli/card_0_transparent.png,0,0,1,0,1,0,1,,,,,,,,,,,,,,,,,,,,,,,,,,,,,,,,,,,,,,,,,,,,
,,,,5617203c5c62cf0005822f0c,B,2024-06-29_17h33.38.227,Slot Machine Game,2023.1.3,Win32,59.88023952,,,,,,,,,,,,,,,,,,,370.3525,2,1.3039,,up,1.5,,stimuli/card_0_transparent.png,0,0,2,0,2,0,1,,,,,,,,,,,,,,,,,,,,,,,,,,,,,,,,,,,,,,,,,,,,
,,,,5617203c5c62cf0005822f0c,B,2024-06-29_17h33.38.227,Slot Machine Game,2023.1.3,Win32,59.88023952,,,,,,,,,,,,,,,,,,,373.9695,3,0.3002,,left,1.5,,stimuli/card_100_transparent.png,100,100,3,0,3,0,1,,,,,,,,,,,,,,,,,,,,,,,,,,,,,,,,,,,,,,,,,,,,
,,,,5617203c5c62cf0005822f0c,B,2024-06-29_17h33.38.227,Slot Machine Game,2023.1.3,Win32,59.88023952,,,,,,,,,,,,,,,,,,,376.603,4,1.0871,,left,0.5,,stimuli/card_100_transparent.png,200,100,4,0,4,0,1,,,,,,,,,,,,,,,,,,,,,,,,,,,,,,,,,,,,,,,,,,,,
,,,,5617203c5c62cf0005822f0c,B,2024-06-29_17h33.38.227,Slot Machine Game,2023.1.3,Win32,59.88023952,,,,,,,,,,,,,,,,,,,379.0032,5,0.5885,,left,1,,stimuli/card_100_transparent.png,300,100,5,0,5,0,1,,,,,,,,,,,,,,,,,,,,,,,,,,,,,,,,,,,,,,,,,,,,
,,,,5617203c5c62cf0005822f0c,B,2024-06-29_17h33.38.227,Slot Machine Game,2023.1.3,Win32,59.88023952,,,,,,,,,,,,,,,,,,,381.42,6,0.6227,,left,1,,stimuli/card_100_transparent.png,400,100,6,0,6,0,1,,,,,,,,,,,,,,,,,,,,,,,,,,,,,,,,,,,,,,,,,,,,
,,,,5617203c5c62cf0005822f0c,B,2024-06-29_17h33.38.227,Slot Machine Game,2023.1.3,Win32,59.88023952,,,,,,,,,,,,,,,,,,,383.8703,7,0.8955,,left,1,,stimuli/card_100_transparent.png,500,100,7,0,7,0,1,,,,,,,,,,,,,,,,,,,,,,,,,,,,,,,,,,,,,,,,,,,,
,,,,5617203c5c62cf0005822f0c,B,2024-06-29_17h33.38.227,Slot Machine Game,2023.1.3,Win32,59.88023952,,,,,,,,,,,,,,,,,,,386.5869,8,0.4837,,left,1.5,,stimuli/card_0_transparent.png,500,0,8,0,8,0,1,,,,,,,,,,,,,,,,,,,,,,,,,,,,,,,,,,,,,,,,,,,,
,,,,5617203c5c62cf0005822f0c,B,2024-06-29_17h33.38.227,Slot Machine Game,2023.1.3,Win32,59.88023952,,,,,,,,,,,,,,,,,,,389.4039,9,0.5373,,right,1.5,,stimuli/card_10_transparent.png,510,10,9,0,9,0,1,,,,,,,,,,,,,,,,,,,,,,,,,,,,,,,,,,,,,,,,,,,,
,,,,5617203c5c62cf0005822f0c,B,2024-06-29_17h33.38.227,Slot Machine Game,2023.1.3,Win32,59.88023952,,,,,,,,,,,,,,,,,,,392.2708,10,0.5261,,right,1.5,,stimuli/card_100_transparent.png,610,100,10,0,10,0,1,,,,,,,,,,,,,,,,,,,,,,,,,,,,,,,,,,,,,,,,,,,,
,,,,5617203c5c62cf0005822f0c,B,2024-06-29_17h33.38.227,Slot Machine Game,2023.1.3,Win32,59.88023952,,,,,,,,,,,,,,,,,,,395.121,11,0.1166,,right,1,,stimuli/card_100_transparent.png,710,100,11,0,11,0,1,,,,,,,,,,,,,,,,,,,,,,,,,,,,,,,,,,,,,,,,,,,,
,,,,5617203c5c62cf0005822f0c,B,2024-06-29_17h33.38.227,Slot Machine Game,2023.1.3,Win32,59.88023952,,,,,,,,,,,,,,,,,,,397.0711,12,0.7241,,right,1,,stimuli/card_10_transparent.png,720,10,12,0,12,0,1,,,,,,,,,,,,,,,,,,,,,,,,,,,,,,,,,,,,,,,,,,,,
,,,,5617203c5c62cf0005822f0c,B,2024-06-29_17h33.38.227,Slot Machine Game,2023.1.3,Win32,59.88023952,,,,,,,,,,,,,,,,,,,399.6046,13,0.7107,,right,1.5,,stimuli/card_10_transparent.png,730,10,13,0,13,0,1,,,,,,,,,,,,,,,,,,,,,,,,,,,,,,,,,,,,,,,,,,,,
,,,,5617203c5c62cf0005822f0c,B,2024-06-29_17h33.38.227,Slot Machine Game,2023.1.3,Win32,59.88023952,,,,,,,,,,,,,,,,,,,402.6215,14,1.2297,,right,1,,stimuli/card_10_transparent.png,740,10,14,0,14,0,1,,,,,,,,,,,,,,,,,,,,,,,,,,,,,,,,,,,,,,,,,,,,
,,,,5617203c5c62cf0005822f0c,B,2024-06-29_17h33.38.227,Slot Machine Game,2023.1.3,Win32,59.88023952,,,,,,,,,,,,,,,,,,,,,,,,,,,,,,,,,,,405.6551,,,410.656,space,3.2816,,,,,,,,,,,,,,,,,,,,,,,,,,,,,,,,,,,,,
,,,,5617203c5c62cf0005822f0c,B,2024-06-29_17h33.38.227,Slot Machine Game,2023.1.3,Win32,59.88023952,,,,,,,,,,,,,,,,,,,,,,,,,,,,,,,,,,,,,,,,,,413.9565,3,"[0,4,6,3,5,7,8,1,9,2]",space,2.9476,,,,,,,,,,,,,,,,,,,,,,,,,,,,,,,
,,,,5617203c5c62cf0005822f0c,B,2024-06-29_17h33.38.227,Slot Machine Game,2023.1.3,Win32,59.88023952,,,,,,,,,,,,,,,,,,,,,,,,,,,0,,,,,,,,,,,,,,,,,,,,,1,1,"[12,15]","[[2,1,3],[2,3,1]]",416.9314,0,right,1.979,,1,0.3,"[2,1,3]",0.646119678,stimuli/card_0_transparent.png,0,0,0,0,0,1,,,,,,,,,,
,,,,5617203c5c62cf0005822f0c,B,2024-06-29_17h33.38.227,Slot Machine Game,2023.1.3,Win32,59.88023952,,,,,,,,,,,,,,,,,,,,,,,,,,,0,,,,,,,,,,,,,,,,,,,,,1,1,,,420.723,1,right,0.4496,,0.5,0.3,"[2,1,3]",0.738319619,stimuli/card_0_transparent.png,0,1,0,1,0,1,,,,,,,,,,
,,,,5617203c5c62cf0005822f0c,B,2024-06-29_17h33.38.227,Slot Machine Game,2023.1.3,Win32,59.88023952,,,,,,,,,,,,,,,,,,,,,,,,,,,100,,,,,,,,,,,,,,,,,,,,,1,1,,,422.5063,2,up,0.3623,,0.5,0.3,"[2,1,3]",0.347033254,stimuli/card_100_transparent.png,100,2,0,2,0,1,,,,,,,,,,
,,,,5617203c5c62cf0005822f0c,B,2024-06-29_17h33.38.227,Slot Machine Game,2023.1.3,Win32,59.88023952,,,,,,,,,,,,,,,,,,,,,,,,,,,200,,,,,,,,,,,,,,,,,,,,,1,1,,,424.1898,3,up,0.1253,,1.5,0.3,"[2,1,3]",0.626711734,stimuli/card_100_transparent.png,100,3,0,3,0,1,,,,,,,,,,
,,,,5617203c5c62cf0005822f0c,B,2024-06-29_17h33.38.227,Slot Machine Game,2023.1.3,Win32,59.88023952,,,,,,,,,,,,,,,,,,,,,,,,,,,300,,,,,,,,,,,,,,,,,,,,,1,1,,,426.64,4,up,0.0248,,1.5,0.3,"[2,1,3]",0.362207056,stimuli/card_100_transparent.png,100,4,0,4,0,1,,,,,,,,,,
,,,,5617203c5c62cf0005822f0c,B,2024-06-29_17h33.38.227,Slot Machine Game,2023.1.3,Win32,59.88023952,,,,,,,,,,,,,,,,,,,,,,,,,,,400,,,,,,,,,,,,,,,,,,,,,1,1,,,428.9902,5,up,0.0805,,0.5,0.3,"[2,1,3]",0.660389536,stimuli/card_100_transparent.png,100,5,0,5,0,1,,,,,,,,,,
,,,,5617203c5c62cf0005822f0c,B,2024-06-29_17h33.38.227,Slot Machine Game,2023.1.3,Win32,59.88023952,,,,,,,,,,,,,,,,,,,,,,,,,,,500,,,,,,,,,,,,,,,,,,,,,1,1,,,430.3902,6,up,0.5413,,1,0.3,"[2,1,3]",0.760156995,stimuli/card_100_transparent.png,100,6,0,6,0,1,,,,,,,,,,
,,,,5617203c5c62cf0005822f0c,B,2024-06-29_17h33.38.227,Slot Machine Game,2023.1.3,Win32,59.88023952,,,,,,,,,,,,,,,,,,,,,,,,,,,510,,,,,,,,,,,,,,,,,,,,,1,1,,,432.7571,7,up,0.1563,,0.5,0.3,"[2,1,3]",0.112955666,stimuli/card_10_transparent.png,10,7,0,7,0,1,,,,,,,,,,
,,,,5617203c5c62cf0005822f0c,B,2024-06-29_17h33.38.227,Slot Machine Game,2023.1.3,Win32,59.88023952,,,,,,,,,,,,,,,,,,,,,,,,,,,610,,,,,,,,,,,,,,,,,,,,,1,1,,,434.2405,8,up,1.0863,,1,0.3,"[2,1,3]",0.693217426,stimuli/card_100_transparent.png,100,8,0,8,0,1,,,,,,,,,,
,,,,5617203c5c62cf0005822f0c,B,2024-06-29_17h33.38.227,Slot Machine Game,2023.1.3,Win32,59.88023952,,,,,,,,,,,,,,,,,,,,,,,,,,,620,,,,,,,,,,,,,,,,,,,,,1,1,,,437.1573,9,up,0.3543,,0.5,0.3,"[2,1,3]",0.125034641,stimuli/card_10_transparent.png,10,9,0,9,0,1,,,,,,,,,,
,,,,5617203c5c62cf0005822f0c,B,2024-06-29_17h33.38.227,Slot Machine Game,2023.1.3,Win32,59.88023952,,,,,,,,,,,,,,,,,,,,,,,,,,,630,,,,,,,,,,,,,,,,,,,,,1,1,,,438.8409,10,up,0.6569,,1,0.3,"[2,1,3]",0.141899529,stimuli/card_10_transparent.png,10,10,0,10,0,1,,,,,,,,,,
,,,,5617203c5c62cf0005822f0c,B,2024-06-29_17h33.38.227,Slot Machine Game,2023.1.3,Win32,59.88023952,,,,,,,,,,,,,,,,,,,,,,,,,,,730,,,,,,,,,,,,,,,,,,,,,1,1,,,441.3243,11,left,0.1659,,1,0.3,"[2,1,3]",0.170295546,stimuli/card_100_transparent.png,100,11,0,11,0,1,,,,,,,,,,
,,,,5617203c5c62cf0005822f0c,B,2024-06-29_17h33.38.227,Slot Machine Game,2023.1.3,Win32,59.88023952,,,,,,,,,,,,,,,,,,,,,,,,,,,740,,,,,,,,,,,,,,,,,,,,,1,1,,,443.3245,12,left,0.1494,,1,0.3,"[2,3,1]",0.553727175,stimuli/card_10_transparent.png,10,12,0,12,0,1,,,,,,,,,,
,,,,5617203c5c62cf0005822f0c,B,2024-06-29_17h33.38.227,Slot Machine Game,2023.1.3,Win32,59.88023952,,,,,,,,,,,,,,,,,,,,,,,,,,,750,,,,,,,,,,,,,,,,,,,,,1,1,,,445.308,13,left,0.3438,,1,0.3,"[2,3,1]",0.200097577,stimuli/card_10_transparent.png,10,13,0,13,0,1,,,,,,,,,,
,,,,5617203c5c62cf0005822f0c,B,2024-06-29_17h33.38.227,Slot Machine Game,2023.1.3,Win32,59.88023952,,,,,,,,,,,,,,,,,,,,,,,,,,,750,,,,,,,,,,,,,,,,,,,,,1,1,,,447.4748,14,up,0.88,,1.5,0.3,"[2,3,1]",0.810608034,stimuli/card_0_transparent.png,0,14,0,14,0,1,,,,,,,,,,
,,,,5617203c5c62cf0005822f0c,B,2024-06-29_17h33.38.227,Slot Machine Game,2023.1.3,Win32,59.88023952,,,,,,,,,,,,,,,,,,,,,,,,,,,,,,,,,,,450.6752,,,,,,,,,,,,,,,,,,,,,,,,,,,,,,,,,[750],0,0,0,0,1,,,,
,,,,5617203c5c62cf0005822f0c,B,2024-06-29_17h33.38.227,Slot Machine Game,2023.1.3,Win32,59.88023952,,,,,,,,,,,,,,,,,,,,,,,,,,,10,,,,,,,,,,,,,,,,,,,,,2,5,"[5,15]","[[1,2,3],[3,1,2]]",455.6829,0,up,1.4838,,1.5,0.3,"[1,2,3]",0.322381547,stimuli/card_10_transparent.png,10,0,0,0,0,1,,,,,,,,,,
,,,,5617203c5c62cf0005822f0c,B,2024-06-29_17h33.38.227,Slot Machine Game,2023.1.3,Win32,59.88023952,,,,,,,,,,,,,,,,,,,,,,,,,,,20,,,,,,,,,,,,,,,,,,,,,2,5,,,459.4923,1,up,0.0459,,1.5,0.3,"[1,2,3]",0.619598564,stimuli/card_10_transparent.png,10,1,0,1,0,1,,,,,,,,,,
,,,,5617203c5c62cf0005822f0c,B,2024-06-29_17h33.38.227,Slot Machine Game,2023.1.3,Win32,59.88023952,,,,,,,,,,,,,,,,,,,,,,,,,,,20,,,,,,,,,,,,,,,,,,,,,2,5,,,461.8425,2,right,0.4593,,0.5,0.3,"[1,2,3]",0.92775982,stimuli/card_0_transparent.png,0,2,0,2,0,1,,,,,,,,,,
,,,,5617203c5c62cf0005822f0c,B,2024-06-29_17h33.38.227,Slot Machine Game,2023.1.3,Win32,59.88023952,,,,,,,,,,,,,,,,,,,,,,,,,,,20,,,,,,,,,,,,,,,,,,,,,2,5,,,463.6259,3,right,0.3993,,0.5,0.3,"[1,2,3]",0.845594775,stimuli/card_0_transparent.png,0,3,0,3,0,1,,,,,,,,,,
,,,,5617203c5c62cf0005822f0c,B,2024-06-29_17h33.38.227,Slot Machine Game,2023.1.3,Win32,59.88023952,,,,,,,,,,,,,,,,,,,,,,,,,,,20,,,,,,,,,,,,,,,,,,,,,2,5,,,465.3428,4,left,0.3336,,1.5,0.3,"[1,2,3]",0.023235579,stimuli/card_0_transparent.png,0,4,0,4,0,1,,,,,,,,,,
,,,,5617203c5c62cf0005822f0c,B,2024-06-29_17h33.38.227,Slot Machine Game,2023.1.3,Win32,59.88023952,,,,,,,,,,,,,,,,,,,,,,,,,,,120,,,,,,,,,,,,,,,,,,,,,2,5,,,468.0096,5,left,0.4803,,0.5,0.3,"[3,1,2]",0.075550798,stimuli/card_100_transparent.png,100,5,0,5,0,1,,,,,,,,,,
,,,,5617203c5c62cf0005822f0c,B,2024-06-29_17h33.38.227,Slot Machine Game,2023.1.3,Win32,59.88023952,,,,,,,,,,,,,,,,,,,,,,,,,,,120,,,,,,,,,,,,,,,,,,,,,2,5,,,469.8097,6,left,0.7186,,0.5,0.3,"[3,1,2]",0.551783391,stimuli/card_0_transparent.png,0,6,0,6,0,1,,,,,,,,,,
,,,,5617203c5c62cf0005822f0c,B,2024-06-29_17h33.38.227,Slot Machine Game,2023.1.3,Win32,59.88023952,,,,,,,,,,,,,,,,,,,,,,,,,,,120,,,,,,,,,,,,,,,,,,,,,2,5,,,471.8432,7,left,0.3327,,1,0.3,"[3,1,2]",0.684138119,stimuli/card_0_transparent.png,0,7,0,7,0,1,,,,,,,,,,
,,,,5617203c5c62cf0005822f0c,B,2024-06-29_17h33.38.227,Slot Machine Game,2023.1.3,Win32,59.88023952,,,,,,,,,,,,,,,,,,,,,,,,,,,130,,,,,,,,,,,,,,,,,,,,,2,5,,,473.9934,8,up,0.3836,,1.5,0.3,"[3,1,2]",0.164600306,stimuli/card_10_transparent.png,10,8,0,8,0,1,,,,,,,,,,
,,,,5617203c5c62cf0005822f0c,B,2024-06-29_17h33.38.227,Slot Machine Game,2023.1.3,Win32,59.88023952,,,,,,,,,,,,,,,,,,,,,,,,,,,230,,,,,,,,,,,,,,,,,,,,,2,5,,,476.7102,9,up,1.9341,,1,0.3,"[3,1,2]",0.521205552,stimuli/card_100_transparent.png,100,9,0,9,0,1,,,,,,,,,,
,,,,5617203c5c62cf0005822f0c,B,2024-06-29_17h33.38.227,Slot Machine Game,2023.1.3,Win32,59.88023952,,,,,,,,,,,,,,,,,,,,,,,,,,,330,,,,,,,,,,,,,,,,,,,,,2,5,,,480.4606,10,up,0.9993,,0.5,0.3,"[3,1,2]",0.385180115,stimuli/card_100_transparent.png,100,10,0,10,0,1,,,,,,,,,,
,,,,5617203c5c62cf0005822f0c,B,2024-06-29_17h33.38.227,Slot Machine Game,2023.1.3,Win32,59.88023952,,,,,,,,,,,,,,,,,,,,,,,,,,,330,,,,,,,,,,,,,,,,,,,,,2,5,,,482.794,11,up,0.9903,,0.5,0.3,"[3,1,2]",0.017874263,stimuli/card_0_transparent.png,0,11,0,11,0,1,,,,,,,,,,
,,,,5617203c5c62cf0005822f0c,B,2024-06-29_17h33.38.227,Slot Machine Game,2023.1.3,Win32,59.88023952,,,,,,,,,,,,,,,,,,,,,,,,,,,330,,,,,,,,,,,,,,,,,,,,,2,5,,,485.0942,12,left,0.5661,,1.5,0.3,"[3,1,2]",0.297961593,stimuli/card_0_transparent.png,0,12,0,12,0,1,,,,,,,,,,
,,,,5617203c5c62cf0005822f0c,B,2024-06-29_17h33.38.227,Slot Machine Game,2023.1.3,Win32,59.88023952,,,,,,,,,,,,,,,,,,,,,,,,,,,340,,,,,,,,,,,,,,,,,,,,,2,5,,,487.9943,13,right,0.469,,1.5,0.3,"[3,1,2]",0.888757861,stimuli/card_10_transparent.png,10,13,0,13,0,1,,,,,,,,,,
,,,,5617203c5c62cf0005822f0c,B,2024-06-29_17h33.38.227,Slot Machine Game,2023.1.3,Win32,59.88023952,,,,,,,,,,,,,,,,,,,,,,,,,,,350,,,,,,,,,,,,,,,,,,,,,2,5,,,490.7779,14,right,0.1088,,1.5,0.3,"[3,1,2]",0.831756811,stimuli/card_10_transparent.png,10,14,0,14,0,1,,,,,,,,,,
,,,,5617203c5c62cf0005822f0c,B,2024-06-29_17h33.38.227,Slot Machine Game,2023.1.3,Win32,59.88023952,,,,,,,,,,,,,,,,,,,,,,,,,,,,,,,,,,,493.2114,,,,,,,,,,,,,,,,,,,,,,,,,,,,,,,,,"[750,350]",1,0,1,0,1,,,,
,,,,5617203c5c62cf0005822f0c,B,2024-06-29_17h33.38.227,Slot Machine Game,2023.1.3,Win32,59.88023952,,,,,,,,,,,,,,,,,,,,,,,,,,,0,,,,,,,,,,,,,,,,,,,,,3,7,"[9,15]","[[1,3,2],[2,3,1]]",498.2194,0,up,0.8769,,1,0.3,"[1,3,2]",0.539626933,stimuli/card_0_transparent.png,0,0,0,0,0,1,,,,,,,,,,
,,,,5617203c5c62cf0005822f0c,B,2024-06-29_17h33.38.227,Slot Machine Game,2023.1.3,Win32,59.88023952,,,,,,,,,,,,,,,,,,,,,,,,,,,0,,,,,,,,,,,,,,,,,,,,,3,7,,,500.912,1,up,0.7178,,1.5,0.3,"[1,3,2]",0.672276482,stimuli/card_0_transparent.png,0,1,0,1,0,1,,,,,,,,,,
,,,,5617203c5c62cf0005822f0c,B,2024-06-29_17h33.38.227,Slot Machine Game,2023.1.3,Win32,59.88023952,,,,,,,,,,,,,,,,,,,,,,,,,,,100,,,,,,,,,,,,,,,,,,,,,3,7,,,503.9623,2,left,0.2714,,1.5,0.3,"[1,3,2]",0.903068986,stimuli/card_100_transparent.png,100,2,0,2,0,1,,,,,,,,,,
,,,,5617203c5c62cf0005822f0c,B,2024-06-29_17h33.38.227,Slot Machine Game,2023.1.3,Win32,59.88023952,,,,,,,,,,,,,,,,,,,,,,,,,,,100,,,,,,,,,,,,,,,,,,,,,3,7,,,506.5624,3,left,0.0581,,1,0.3,"[1,3,2]",0.085611737,stimuli/card_0_transparent.png,0,3,0,3,0,1,,,,,,,,,,
,,,,5617203c5c62cf0005822f0c,B,2024-06-29_17h33.38.227,Slot Machine Game,2023.1.3,Win32,59.88023952,,,,,,,,,,,,,,,,,,,,,,,,,,,200,,,,,,,,,,,,,,,,,,,,,3,7,,,508.4459,4,left,0.0709,,0.5,0.3,"[1,3,2]",0.584344831,stimuli/card_100_transparent.png,100,4,0,4,0,1,,,,,,,,,,
,,,,5617203c5c62cf0005822f0c,B,2024-06-29_17h33.38.227,Slot Machine Game,2023.1.3,Win32,59.88023952,,,,,,,,,,,,,,,,,,,,,,,,,,,300,,,,,,,,,,,,,,,,,,,,,3,7,,,509.8459,5,left,0.6422,,0.5,0.3,"[1,3,2]",0.862141879,stimuli/card_100_transparent.png,100,5,0,5,0,1,,,,,,,,,,
,,,,5617203c5c62cf0005822f0c,B,2024-06-29_17h33.38.227,Slot Machine Game,2023.1.3,Win32,59.88023952,,,,,,,,,,,,,,,,,,,,,,,,,,,310,,,,,,,,,,,,,,,,,,,,,3,7,,,511.7961,6,left,0.0627,,1.5,0.3,"[1,3,2]",0.125255364,stimuli/card_10_transparent.png,10,6,0,6,0,1,,,,,,,,,,
,,,,5617203c5c62cf0005822f0c,B,2024-06-29_17h33.38.227,Slot Machine Game,2023.1.3,Win32,59.88023952,,,,,,,,,,,,,,,,,,,,,,,,,,,410,,,,,,,,,,,,,,,,,,,,,3,7,,,514.1797,7,left,0.1752,,0.5,0.3,"[1,3,2]",0.935815326,stimuli/card_100_transparent.png,100,7,0,7,0,1,,,,,,,,,,
,,,,5617203c5c62cf0005822f0c,B,2024-06-29_17h33.38.227,Slot Machine Game,2023.1.3,Win32,59.88023952,,,,,,,,,,,,,,,,,,,,,,,,,,,510,,,,,,,,,,,,,,,,,,,,,3,7,,,515.6797,8,left,0.342,,0.5,0.3,"[1,3,2]",0.459171017,stimuli/card_100_transparent.png,100,8,0,8,0,1,,,,,,,,,,
,,,,5617203c5c62cf0005822f0c,B,2024-06-29_17h33.38.227,Slot Machine Game,2023.1.3,Win32,59.88023952,,,,,,,,,,,,,,,,,,,,,,,,,,,520,,,,,,,,,,,,,,,,,,,,,3,7,,,517.3465,9,left,0.1166,,1,0.3,"[2,3,1]",0.257268816,stimuli/card_10_transparent.png,10,9,0,9,0,1,,,,,,,,,,
,,,,5617203c5c62cf0005822f0c,B,2024-06-29_17h33.38.227,Slot Machine Game,2023.1.3,Win32,59.88023952,,,,,,,,,,,,,,,,,,,,,,,,,,,530,,,,,,,,,,,,,,,,,,,,,3,7,,,519.2967,10,left,0.127,,0.5,0.3,"[2,3,1]",0.509871703,stimuli/card_10_transparent.png,10,10,0,10,0,1,,,,,,,,,,
,,,,5617203c5c62cf0005822f0c,B,2024-06-29_17h33.38.227,Slot Machine Game,2023.1.3,Win32,59.88023952,,,,,,,,,,,,,,,,,,,,,,,,,,,540,,,,,,,,,,,,,,,,,,,,,3,7,,,520.7468,11,up,0.1959,,1,0.3,"[2,3,1]",0.176785845,stimuli/card_10_transparent.png,10,11,0,11,0,1,,,,,,,,,,
,,,,5617203c5c62cf0005822f0c,B,2024-06-29_17h33.38.227,Slot Machine Game,2023.1.3,Win32,59.88023952,,,,,,,,,,,,,,,,,,,,,,,,,,,540,,,,,,,,,,,,,,,,,,,,,3,7,,,522.7636,12,up,0.1582,,1,0.3,"[2,3,1]",0.718619971,stimuli/card_0_transparent.png,0,12,0,12,0,1,,,,,,,,,,
,,,,5617203c5c62cf0005822f0c,B,2024-06-29_17h33.38.227,Slot Machine Game,2023.1.3,Win32,59.88023952,,,,,,,,,,,,,,,,,,,,,,,,,,,640,,,,,,,,,,,,,,,,,,,,,3,7,,,524.7303,13,right,0.8678,,1,0.3,"[2,3,1]",0.690815153,stimuli/card_100_transparent.png,100,13,0,13,0,1,,,,,,,,,,
,,,,5617203c5c62cf0005822f0c,B,2024-06-29_17h33.38.227,Slot Machine Game,2023.1.3,Win32,59.88023952,,,,,,,,,,,,,,,,,,,,,,,,,,,740,,,,,,,,,,,,,,,,,,,,,3,7,,,527.4139,14,right,0.2669,,0.5,0.3,"[2,3,1]",0.830534371,stimuli/card_100_transparent.png,100,14,0,14,0,1,,,,,,,,,,
,,,,5617203c5c62cf0005822f0c,B,2024-06-29_17h33.38.227,Slot Machine Game,2023.1.3,Win32,59.88023952,,,,,,,,,,,,,,,,,,,,,,,,,,,,,,,,,,,528.9974,,,,,,,,,,,,,,,,,,,,,,,,,,,,,,,,,"[750,350,740]",2,0,2,0,1,,,,
,,,,5617203c5c62cf0005822f0c,B,2024-06-29_17h33.38.227,Slot Machine Game,2023.1.3,Win32,59.88023952,,,,,,,,,,,,,,,,,,,,,,,,,,,0,,,,,,,,,,,,,,,,,,,,,4,4,"[7,15]","[[2,3,1],[1,2,3]]",534.005,0,up,0.7951,,1,0.3,"[2,3,1]",0.531594737,stimuli/card_0_transparent.png,0,0,0,0,0,1,,,,,,,,,,
,,,,5617203c5c62cf0005822f0c,B,2024-06-29_17h33.38.227,Slot Machine Game,2023.1.3,Win32,59.88023952,,,,,,,,,,,,,,,,,,,,,,,,,,,0,,,,,,,,,,,,,,,,,,,,,4,4,,,536.6146,1,up,0.8619,,1,0.3,"[2,3,1]",0.612991154,stimuli/card_0_transparent.png,0,1,0,1,0,1,,,,,,,,,,
,,,,5617203c5c62cf0005822f0c,B,2024-06-29_17h33.38.227,Slot Machine Game,2023.1.3,Win32,59.88023952,,,,,,,,,,,,,,,,,,,,,,,,,,,100,,,,,,,,,,,,,,,,,,,,,4,4,,,539.2982,2,right,0.4958,,1,0.3,"[2,3,1]",0.848829177,stimuli/card_100_transparent.png,100,2,0,2,0,1,,,,,,,,,,
,,,,5617203c5c62cf0005822f0c,B,2024-06-29_17h33.38.227,Slot Machine Game,2023.1.3,Win32,59.88023952,,,,,,,,,,,,,,,,,,,,,,,,,,,200,,,,,,,,,,,,,,,,,,,,,4,4,,,541.6149,3,right,0.1864,,1,0.3,"[2,3,1]",0.837894492,stimuli/card_100_transparent.png,100,3,0,3,0,1,,,,,,,,,,
,,,,5617203c5c62cf0005822f0c,B,2024-06-29_17h33.38.227,Slot Machine Game,2023.1.3,Win32,59.88023952,,,,,,,,,,,,,,,,,,,,,,,,,,,300,,,,,,,,,,,,,,,,,,,,,4,4,,,543.6151,4,right,0.3832,,1,0.3,"[2,3,1]",0.28020216,stimuli/card_100_transparent.png,100,4,0,4,0,1,,,,,,,,,,
,,,,5617203c5c62cf0005822f0c,B,2024-06-29_17h33.38.227,Slot Machine Game,2023.1.3,Win32,59.88023952,,,,,,,,,,,,,,,,,,,,,,,,,,,400,,,,,,,,,,,,,,,,,,,,,4,4,,,545.8153,5,right,0.1135,,1.5,0.3,"[2,3,1]",0.351468765,stimuli/card_100_transparent.png,100,5,0,5,0,1,,,,,,,,,,
,,,,5617203c5c62cf0005822f0c,B,2024-06-29_17h33.38.227,Slot Machine Game,2023.1.3,Win32,59.88023952,,,,,,,,,,,,,,,,,,,,,,,,,,,400,,,,,,,,,,,,,,,,,,,,,4,4,,,548.2487,6,right,1.7087,,1,0.3,"[2,3,1]",0.067482096,stimuli/card_0_transparent.png,0,6,0,6,0,1,,,,,,,,,,
,,,,5617203c5c62cf0005822f0c,B,2024-06-29_17h33.38.227,Slot Machine Game,2023.1.3,Win32,59.88023952,,,,,,,,,,,,,,,,,,,,,,,,,,,400,,,,,,,,,,,,,,,,,,,,,4,4,,,551.7657,7,right,0.4077,,1,0.3,"[1,2,3]",0.220367392,stimuli/card_0_transparent.png,0,7,0,7,0,1,,,,,,,,,,
,,,,5617203c5c62cf0005822f0c,B,2024-06-29_17h33.38.227,Slot Machine Game,2023.1.3,Win32,59.88023952,,,,,,,,,,,,,,,,,,,,,,,,,,,500,,,,,,,,,,,,,,,,,,,,,4,4,,,553.9992,8,left,0.9565,,1,0.3,"[1,2,3]",0.213708817,stimuli/card_100_transparent.png,100,8,0,8,0,1,,,,,,,,,,
,,,,5617203c5c62cf0005822f0c,B,2024-06-29_17h33.38.227,Slot Machine Game,2023.1.3,Win32,59.88023952,,,,,,,,,,,,,,,,,,,,,,,,,,,500,,,,,,,,,,,,,,,,,,,,,4,4,,,556.7828,9,left,0.7169,,1,0.3,"[1,2,3]",0.008555931,stimuli/card_0_transparent.png,0,9,0,9,0,1,,,,,,,,,,
,,,,5617203c5c62cf0005822f0c,B,2024-06-29_17h33.38.227,Slot Machine Game,2023.1.3,Win32,59.88023952,,,,,,,,,,,,,,,,,,,,,,,,,,,510,,,,,,,,,,,,,,,,,,,,,4,4,,,559.3329,10,left,0.3397,,1.5,0.3,"[1,2,3]",0.16316436,stimuli/card_10_transparent.png,10,10,0,10,0,1,,,,,,,,,,
,,,,5617203c5c62cf0005822f0c,B,2024-06-29_17h33.38.227,Slot Machine Game,2023.1.3,Win32,59.88023952,,,,,,,,,,,,,,,,,,,,,,,,,,,510,,,,,,,,,,,,,,,,,,,,,4,4,,,561.9998,11,up,0.4368,,1.5,0.3,"[1,2,3]",0.046703552,stimuli/card_0_transparent.png,0,11,0,11,0,1,,,,,,,,,,
,,,,5617203c5c62cf0005822f0c,B,2024-06-29_17h33.38.227,Slot Machine Game,2023.1.3,Win32,59.88023952,,,,,,,,,,,,,,,,,,,,,,,,,,,610,,,,,,,,,,,,,,,,,,,,,4,4,,,564.7665,12,up,0.3756,,0.5,0.3,"[1,2,3]",0.135936399,stimuli/card_100_transparent.png,100,12,0,12,0,1,,,,,,,,,,
,,,,5617203c5c62cf0005822f0c,B,2024-06-29_17h33.38.227,Slot Machine Game,2023.1.3,Win32,59.88023952,,,,,,,,,,,,,,,,,,,,,,,,,,,620,,,,,,,,,,,,,,,,,,,,,4,4,,,566.4502,13,up,0.2597,,1,0.3,"[1,2,3]",0.470417737,stimuli/card_10_transparent.png,10,13,0,13,0,1,,,,,,,,,,
,,,,5617203c5c62cf0005822f0c,B,2024-06-29_17h33.38.227,Slot Machine Game,2023.1.3,Win32,59.88023952,,,,,,,,,,,,,,,,,,,,,,,,,,,630,,,,,,,,,,,,,,,,,,,,,4,4,,,568.5336,14,up,0.1595,,0.5,0.3,"[1,2,3]",0.312700322,stimuli/card_10_transparent.png,10,14,0,14,0,1,,,,,,,,,,
,,,,5617203c5c62cf0005822f0c,B,2024-06-29_17h33.38.227,Slot Machine Game,2023.1.3,Win32,59.88023952,,,,,,,,,,,,,,,,,,,,,,,,,,,,,,,,,,,570.017,,,,,,,,,,,,,,,,,,,,,,,,,,,,,,,,,"[750,350,740,630]",3,0,3,0,1,,,,
,,,,5617203c5c62cf0005822f0c,B,2024-06-29_17h33.38.227,Slot Machine Game,2023.1.3,Win32,59.88023952,,,,,,,,,,,,,,,,,,,,,,,,,,,10,,,,,,,,,,,,,,,,,,,,,5,6,"[4,10,15]","[[2,3,1],[1,3,2],[3,2,1]]",575.0246,0,left,0.7194,,0.5,0.3,"[2,3,1]",0.874939186,stimuli/card_10_transparent.png,10,0,0,0,0,1,,,,,,,,,,
,,,,5617203c5c62cf0005822f0c,B,2024-06-29_17h33.38.227,Slot Machine Game,2023.1.3,Win32,59.88023952,,,,,,,,,,,,,,,,,,,,,,,,,,,20,,,,,,,,,,,,,,,,,,,,,5,6,,,577.0676,1,left,0.8742,,1.5,0.3,"[2,3,1]",0.317445931,stimuli/card_10_transparent.png,10,1,0,1,0,1,,,,,,,,,,
,,,,5617203c5c62cf0005822f0c,B,2024-06-29_17h33.38.227,Slot Machine Game,2023.1.3,Win32,59.88023952,,,,,,,,,,,,,,,,,,,,,,,,,,,20,,,,,,,,,,,,,,,,,,,,,5,6,,,580.2678,2,up,0.0557,,0.5,0.3,"[2,3,1]",0.240003008,stimuli/card_0_transparent.png,0,2,0,2,0,1,,,,,,,,,,
,,,,5617203c5c62cf0005822f0c,B,2024-06-29_17h33.38.227,Slot Machine Game,2023.1.3,Win32,59.88023952,,,,,,,,,,,,,,,,,,,,,,,,,,,20,,,,,,,,,,,,,,,,,,,,,5,6,,,581.6512,3,up,0.0707,,1.5,0.3,"[2,3,1]",0.874686614,stimuli/card_0_transparent.png,0,3,0,3,0,1,,,,,,,,,,
,,,,5617203c5c62cf0005822f0c,B,2024-06-29_17h33.38.227,Slot Machine Game,2023.1.3,Win32,59.88023952,,,,,,,,,,,,,,,,,,,,,,,,,,,120,,,,,,,,,,,,,,,,,,,,,5,6,,,584.0513,4,right,0.3439,,1,0.3,"[1,3,2]",0.147163818,stimuli/card_100_transparent.png,100,4,0,4,0,1,,,,,,,,,,
,,,,5617203c5c62cf0005822f0c,B,2024-06-29_17h33.38.227,Slot Machine Game,2023.1.3,Win32,59.88023952,,,,,,,,,,,,,,,,,,,,,,,,,,,120,,,,,,,,,,,,,,,,,,,,,5,6,,,586.2015,5,right,0.1593,,0.5,0.3,"[1,3,2]",0.039571609,stimuli/card_0_transparent.png,0,5,0,5,0,1,,,,,,,,,,
,,,,5617203c5c62cf0005822f0c,B,2024-06-29_17h33.38.227,Slot Machine Game,2023.1.3,Win32,59.88023952,,,,,,,,,,,,,,,,,,,,,,,,,,,130,,,,,,,,,,,,,,,,,,,,,5,6,,,587.6851,6,right,0.292,,0.5,0.3,"[1,3,2]",0.84088431,stimuli/card_10_transparent.png,10,6,0,6,0,1,,,,,,,,,,
,,,,5617203c5c62cf0005822f0c,B,2024-06-29_17h33.38.227,Slot Machine Game,2023.1.3,Win32,59.88023952,,,,,,,,,,,,,,,,,,,,,,,,,,,230,,,,,,,,,,,,,,,,,,,,,5,6,,,589.3018,7,right,0.2837,,0.5,0.3,"[1,3,2]",0.108998877,stimuli/card_100_transparent.png,100,7,0,7,0,1,,,,,,,,,,
,,,,5617203c5c62cf0005822f0c,B,2024-06-29_17h33.38.227,Slot Machine Game,2023.1.3,Win32,59.88023952,,,,,,,,,,,,,,,,,,,,,,,,,,,240,,,,,,,,,,,,,,,,,,,,,5,6,,,590.9185,8,right,0.0891,,1,0.3,"[1,3,2]",0.525613439,stimuli/card_10_transparent.png,10,8,0,8,0,1,,,,,,,,,,
,,,,5617203c5c62cf0005822f0c,B,2024-06-29_17h33.38.227,Slot Machine Game,2023.1.3,Win32,59.88023952,,,,,,,,,,,,,,,,,,,,,,,,,,,250,,,,,,,,,,,,,,,,,,,,,5,6,,,592.8353,9,right,0.2294,,0.5,0.3,"[1,3,2]",0.539633758,stimuli/card_10_transparent.png,10,9,0,9,0,1,,,,,,,,,,
,,,,5617203c5c62cf0005822f0c,B,2024-06-29_17h33.38.227,Slot Machine Game,2023.1.3,Win32,59.88023952,,,,,,,,,,,,,,,,,,,,,,,,,,,260,,,,,,,,,,,,,,,,,,,,,5,6,,,594.3854,10,up,0.2383,,1.5,0.3,"[3,2,1]",0.394968911,stimuli/card_10_transparent.png,10,10,0,10,0,1,,,,,,,,,,
,,,,5617203c5c62cf0005822f0c,B,2024-06-29_17h33.38.227,Slot Machine Game,2023.1.3,Win32,59.88023952,,,,,,,,,,,,,,,,,,,,,,,,,,,270,,,,,,,,,,,,,,,,,,,,,5,6,,,596.9523,11,up,0.1326,,1.5,0.3,"[3,2,1]",0.733020067,stimuli/card_10_transparent.png,10,11,0,11,0,1,,,,,,,,,,
,,,,5617203c5c62cf0005822f0c,B,2024-06-29_17h33.38.227,Slot Machine Game,2023.1.3,Win32,59.88023952,,,,,,,,,,,,,,,,,,,,,,,,,,,270,,,,,,,,,,,,,,,,,,,,,5,6,,,599.4191,12,left,0.2342,,1.5,0.3,"[3,2,1]",0.427976731,stimuli/card_0_transparent.png,0,12,0,12,0,1,,,,,,,,,,
,,,,5617203c5c62cf0005822f0c,B,2024-06-29_17h33.38.227,Slot Machine Game,2023.1.3,Win32,59.88023952,,,,,,,,,,,,,,,,,,,,,,,,,,,280,,,,,,,,,,,,,,,,,,,,,5,6,,,601.9692,13,left,0.0252,,0.5,0.3,"[3,2,1]",0.147454181,stimuli/card_10_transparent.png,10,13,0,13,0,1,,,,,,,,,,
,,,,5617203c5c62cf0005822f0c,B,2024-06-29_17h33.38.227,Slot Machine Game,2023.1.3,Win32,59.88023952,,,,,,,,,,,,,,,,,,,,,,,,,,,290,,,,,,,,,,,,,,,,,,,,,5,6,,,603.3028,14,up,0.166,,0.5,0.3,"[3,2,1]",0.497457563,stimuli/card_10_transparent.png,10,14,0,14,0,1,,,,,,,,,,
,,,,5617203c5c62cf0005822f0c,B,2024-06-29_17h33.38.227,Slot Machine Game,2023.1.3,Win32,59.88023952,,,,,,,,,,,,,,,,,,,,,,,,,,,,,,,,,,,604.8029,,,,,,,,,,,,,,,,,,,,,,,,,,,,,,,,,"[750,350,740,630,290]",4,0,4,0,1,,,,
,,,,5617203c5c62cf0005822f0c,B,2024-06-29_17h33.38.227,Slot Machine Game,2023.1.3,Win32,59.88023952,,,,,,,,,,,,,,,,,,,,,,,,,,,100,,,,,,,,,,,,,,,,,,,,,6,8,"[11,15]","[[2,1,3],[1,2,3]]",609.8112,0,up,0.1918,,1,0.3,"[2,1,3]",0.453256766,stimuli/card_100_transparent.png,100,0,0,0,0,1,,,,,,,,,,
,,,,5617203c5c62cf0005822f0c,B,2024-06-29_17h33.38.227,Slot Machine Game,2023.1.3,Win32,59.88023952,,,,,,,,,,,,,,,,,,,,,,,,,,,200,,,,,,,,,,,,,,,,,,,,,6,8,,,611.82,1,up,0.2161,,0.5,0.3,"[2,1,3]",0.644922371,stimuli/card_100_transparent.png,100,1,0,1,0,1,,,,,,,,,,
,,,,5617203c5c62cf0005822f0c,B,2024-06-29_17h33.38.227,Slot Machine Game,2023.1.3,Win32,59.88023952,,,,,,,,,,,,,,,,,,,,,,,,,,,210,,,,,,,,,,,,,,,,,,,,,6,8,,,613.3534,2,up,0.0068,,0.5,0.3,"[2,1,3]",0.153541748,stimuli/card_10_transparent.png,10,2,0,2,0,1,,,,,,,,,,
,,,,5617203c5c62cf0005822f0c,B,2024-06-29_17h33.38.227,Slot Machine Game,2023.1.3,Win32,59.88023952,,,,,,,,,,,,,,,,,,,,,,,,,,,220,,,,,,,,,,,,,,,,,,,,,6,8,,,614.6703,3,up,0.5345,,1.5,0.3,"[2,1,3]",0.102338858,stimuli/card_10_transparent.png,10,3,0,3,0,1,,,,,,,,,,
,,,,5617203c5c62cf0005822f0c,B,2024-06-29_17h33.38.227,Slot Machine Game,2023.1.3,Win32,59.88023952,,,,,,,,,,,,,,,,,,,,,,,,,,,320,,,,,,,,,,,,,,,,,,,,,6,8,,,617.5371,4,up,0.4623,,0.5,0.3,"[2,1,3]",0.97641847,stimuli/card_100_transparent.png,100,4,0,4,0,1,,,,,,,,,,
,,,,5617203c5c62cf0005822f0c,B,2024-06-29_17h33.38.227,Slot Machine Game,2023.1.3,Win32,59.88023952,,,,,,,,,,,,,,,,,,,,,,,,,,,420,,,,,,,,,,,,,,,,,,,,,6,8,,,619.3206,5,up,0.1162,,0.5,0.3,"[2,1,3]",0.870512373,stimuli/card_100_transparent.png,100,5,0,5,0,1,,,,,,,,,,
,,,,5617203c5c62cf0005822f0c,B,2024-06-29_17h33.38.227,Slot Machine Game,2023.1.3,Win32,59.88023952,,,,,,,,,,,,,,,,,,,,,,,,,,,520,,,,,,,,,,,,,,,,,,,,,6,8,,,620.7708,6,up,0.1959,,1.5,0.3,"[2,1,3]",0.687818487,stimuli/card_100_transparent.png,100,6,0,6,0,1,,,,,,,,,,
,,,,5617203c5c62cf0005822f0c,B,2024-06-29_17h33.38.227,Slot Machine Game,2023.1.3,Win32,59.88023952,,,,,,,,,,,,,,,,,,,,,,,,,,,620,,,,,,,,,,,,,,,,,,,,,6,8,,,623.2876,7,up,0.0993,,1,0.3,"[2,1,3]",0.495043794,stimuli/card_100_transparent.png,100,7,0,7,0,1,,,,,,,,,,
,,,,5617203c5c62cf0005822f0c,B,2024-06-29_17h33.38.227,Slot Machine Game,2023.1.3,Win32,59.88023952,,,,,,,,,,,,,,,,,,,,,,,,,,,630,,,,,,,,,,,,,,,,,,,,,6,8,,,625.2043,8,up,0.1003,,0.5,0.3,"[2,1,3]",0.180927318,stimuli/card_10_transparent.png,10,8,0,8,0,1,,,,,,,,,,
,,,,5617203c5c62cf0005822f0c,B,2024-06-29_17h33.38.227,Slot Machine Game,2023.1.3,Win32,59.88023952,,,,,,,,,,,,,,,,,,,,,,,,,,,730,,,,,,,,,,,,,,,,,,,,,6,8,,,626.6378,9,up,0.6161,,1,0.3,"[2,1,3]",0.810649689,stimuli/card_100_transparent.png,100,9,0,9,0,1,,,,,,,,,,
,,,,5617203c5c62cf0005822f0c,B,2024-06-29_17h33.38.227,Slot Machine Game,2023.1.3,Win32,59.88023952,,,,,,,,,,,,,,,,,,,,,,,,,,,830,,,,,,,,,,,,,,,,,,,,,6,8,,,629.088,10,up,0.3966,,1.5,0.3,"[2,1,3]",0.276960647,stimuli/card_100_transparent.png,100,10,0,10,0,1,,,,,,,,,,
,,,,5617203c5c62cf0005822f0c,B,2024-06-29_17h33.38.227,Slot Machine Game,2023.1.3,Win32,59.88023952,,,,,,,,,,,,,,,,,,,,,,,,,,,840,,,,,,,,,,,,,,,,,,,,,6,8,,,631.805,11,up,0.0608,,0.5,0.3,"[1,2,3]",0.258098012,stimuli/card_10_transparent.png,10,11,0,11,0,1,,,,,,,,,,
,,,,5617203c5c62cf0005822f0c,B,2024-06-29_17h33.38.227,Slot Machine Game,2023.1.3,Win32,59.88023952,,,,,,,,,,,,,,,,,,,,,,,,,,,850,,,,,,,,,,,,,,,,,,,,,6,8,,,633.1883,12,up,0.2405,,0.5,0.3,"[1,2,3]",0.472988606,stimuli/card_10_transparent.png,10,12,0,12,0,1,,,,,,,,,,
,,,,5617203c5c62cf0005822f0c,B,2024-06-29_17h33.38.227,Slot Machine Game,2023.1.3,Win32,59.88023952,,,,,,,,,,,,,,,,,,,,,,,,,,,860,,,,,,,,,,,,,,,,,,,,,6,8,,,634.7551,13,up,0.3566,,1,0.3,"[1,2,3]",0.770637008,stimuli/card_10_transparent.png,10,13,0,13,0,1,,,,,,,,,,
,,,,5617203c5c62cf0005822f0c,B,2024-06-29_17h33.38.227,Slot Machine Game,2023.1.3,Win32,59.88023952,,,,,,,,,,,,,,,,,,,,,,,,,,,960,,,,,,,,,,,,,,,,,,,,,6,8,,,636.9385,14,left,0.7469,,1,0.3,"[1,2,3]",0.926938685,stimuli/card_100_transparent.png,100,14,0,14,0,1,,,,,,,,,,
,,,,5617203c5c62cf0005822f0c,B,2024-06-29_17h33.38.227,Slot Machine Game,2023.1.3,Win32,59.88023952,,,,,,,,,,,,,,,,,,,,,,,,,,,,,,,,,,,639.4887,,,,,,,,,,,,,,,,,,,,,,,,,,,,,,,,,"[750,350,740,630,290,960]",5,0,5,0,1,,,,
,,,,5617203c5c62cf0005822f0c,B,2024-06-29_17h33.38.227,Slot Machine Game,2023.1.3,Win32,59.88023952,,,,,,,,,,,,,,,,,,,,,,,,,,,10,,,,,,,,,,,,,,,,,,,,,7,9,"[8,15]","[[3,2,1],[3,1,2]]",644.4964,0,up,0.9559,,1.5,0.3,"[3,2,1]",0.70582625,stimuli/card_10_transparent.png,10,0,0,0,0,1,,,,,,,,,,
,,,,5617203c5c62cf0005822f0c,B,2024-06-29_17h33.38.227,Slot Machine Game,2023.1.3,Win32,59.88023952,,,,,,,,,,,,,,,,,,,,,,,,,,,20,,,,,,,,,,,,,,,,,,,,,7,9,,,647.7727,1,up,0.917,,0.5,0.3,"[3,2,1]",0.77489893,stimuli/card_10_transparent.png,10,1,0,1,0,1,,,,,,,,,,
,,,,5617203c5c62cf0005822f0c,B,2024-06-29_17h33.38.227,Slot Machine Game,2023.1.3,Win32,59.88023952,,,,,,,,,,,,,,,,,,,,,,,,,,,120,,,,,,,,,,,,,,,,,,,,,7,9,,,650.0227,2,right,0.0895,,0.5,0.3,"[3,2,1]",0.725011037,stimuli/card_100_transparent.png,100,2,0,2,0,1,,,,,,,,,,
,,,,5617203c5c62cf0005822f0c,B,2024-06-29_17h33.38.227,Slot Machine Game,2023.1.3,Win32,59.88023952,,,,,,,,,,,,,,,,,,,,,,,,,,,220,,,,,,,,,,,,,,,,,,,,,7,9,,,651.4229,3,right,0.8178,,1,0.3,"[3,2,1]",0.952001663,stimuli/card_100_transparent.png,100,3,0,3,0,1,,,,,,,,,,
,,,,5617203c5c62cf0005822f0c,B,2024-06-29_17h33.38.227,Slot Machine Game,2023.1.3,Win32,59.88023952,,,,,,,,,,,,,,,,,,,,,,,,,,,320,,,,,,,,,,,,,,,,,,,,,7,9,,,654.0731,4,right,0.3925,,1.5,0.3,"[3,2,1]",0.946755965,stimuli/card_100_transparent.png,100,4,0,4,0,1,,,,,,,,,,
,,,,5617203c5c62cf0005822f0c,B,2024-06-29_17h33.38.227,Slot Machine Game,2023.1.3,Win32,59.88023952,,,,,,,,,,,,,,,,,,,,,,,,,,,420,,,,,,,,,,,,,,,,,,,,,7,9,,,656.79,5,right,0.1168,,1,0.3,"[3,2,1]",0.643161442,stimuli/card_100_transparent.png,100,5,0,5,0,1,,,,,,,,,,
,,,,5617203c5c62cf0005822f0c,B,2024-06-29_17h33.38.227,Slot Machine Game,2023.1.3,Win32,59.88023952,,,,,,,,,,,,,,,,,,,,,,,,,,,520,,,,,,,,,,,,,,,,,,,,,7,9,,,658.7235,6,right,0.7073,,1.5,0.3,"[3,2,1]",0.868873803,stimuli/card_100_transparent.png,100,6,0,6,0,1,,,,,,,,,,
,,,,5617203c5c62cf0005822f0c,B,2024-06-29_17h33.38.227,Slot Machine Game,2023.1.3,Win32,59.88023952,,,,,,,,,,,,,,,,,,,,,,,,,,,620,,,,,,,,,,,,,,,,,,,,,7,9,,,661.757,7,right,0.9189,,0.5,0.3,"[3,2,1]",0.472033327,stimuli/card_100_transparent.png,100,7,0,7,0,1,,,,,,,,,,
,,,,5617203c5c62cf0005822f0c,B,2024-06-29_17h33.38.227,Slot Machine Game,2023.1.3,Win32,59.88023952,,,,,,,,,,,,,,,,,,,,,,,,,,,630,,,,,,,,,,,,,,,,,,,,,7,9,,,664.0072,8,right,0.8564,,0.5,0.3,"[3,1,2]",0.818898039,stimuli/card_10_transparent.png,10,8,0,8,0,1,,,,,,,,,,
,,,,5617203c5c62cf0005822f0c,B,2024-06-29_17h33.38.227,Slot Machine Game,2023.1.3,Win32,59.88023952,,,,,,,,,,,,,,,,,,,,,,,,,,,640,,,,,,,,,,,,,,,,,,,,,7,9,,,666.1906,9,right,0.4699,,1.5,0.3,"[3,1,2]",0.369653121,stimuli/card_10_transparent.png,10,9,0,9,0,1,,,,,,,,,,
,,,,5617203c5c62cf0005822f0c,B,2024-06-29_17h33.38.227,Slot Machine Game,2023.1.3,Win32,59.88023952,,,,,,,,,,,,,,,,,,,,,,,,,,,640,,,,,,,,,,,,,,,,,,,,,7,9,,,668.9909,10,up,0.2847,,1.5,0.3,"[3,1,2]",0.022538847,stimuli/card_0_transparent.png,0,10,0,10,0,1,,,,,,,,,,
,,,,5617203c5c62cf0005822f0c,B,2024-06-29_17h33.38.227,Slot Machine Game,2023.1.3,Win32,59.88023952,,,,,,,,,,,,,,,,,,,,,,,,,,,740,,,,,,,,,,,,,,,,,,,,,7,9,,,671.6078,11,up,0.4126,,0.5,0.3,"[3,1,2]",0.641684115,stimuli/card_100_transparent.png,100,11,0,11,0,1,,,,,,,,,,
,,,,5617203c5c62cf0005822f0c,B,2024-06-29_17h33.38.227,Slot Machine Game,2023.1.3,Win32,59.88023952,,,,,,,,,,,,,,,,,,,,,,,,,,,840,,,,,,,,,,,,,,,,,,,,,7,9,,,673.3246,12,up,0.111,,0.5,0.3,"[3,1,2]",0.47329711,stimuli/card_100_transparent.png,100,12,0,12,0,1,,,,,,,,,,
,,,,5617203c5c62cf0005822f0c,B,2024-06-29_17h33.38.227,Slot Machine Game,2023.1.3,Win32,59.88023952,,,,,,,,,,,,,,,,,,,,,,,,,,,940,,,,,,,,,,,,,,,,,,,,,7,9,,,674.758,13,up,0.5679,,1,0.3,"[3,1,2]",0.913068917,stimuli/card_100_transparent.png,100,13,0,13,0,1,,,,,,,,,,
,,,,5617203c5c62cf0005822f0c,B,2024-06-29_17h33.38.227,Slot Machine Game,2023.1.3,Win32,59.88023952,,,,,,,,,,,,,,,,,,,,,,,,,,,1040,,,,,,,,,,,,,,,,,,,,,7,9,,,677.1581,14,up,0.2264,,1.5,0.3,"[3,1,2]",0.696642231,stimuli/card_100_transparent.png,100,14,0,14,0,1,,,,,,,,,,
,,,,5617203c5c62cf0005822f0c,B,2024-06-29_17h33.38.227,Slot Machine Game,2023.1.3,Win32,59.88023952,,,,,,,,,,,,,,,,,,,,,,,,,,,,,,,,,,,679.7084,,,,,,,,,,,,,,,,,,,,,,,,,,,,,,,,,"[750,350,740,630,290,960,1040]",6,0,6,0,1,,,,
,,,,5617203c5c62cf0005822f0c,B,2024-06-29_17h33.38.227,Slot Machine Game,2023.1.3,Win32,59.88023952,,,,,,,,,,,,,,,,,,,,,,,,,,,10,,,,,,,,,,,,,,,,,,,,,8,2,"[6,15]","[[1,3,2],[3,2,1]]",684.7162,0,right,2.6902,,0.5,0.3,"[1,3,2]",0.266479718,stimuli/card_10_transparent.png,10,0,0,0,0,1,,,,,,,,,,
,,,,5617203c5c62cf0005822f0c,B,2024-06-29_17h33.38.227,Slot Machine Game,2023.1.3,Win32,59.88023952,,,,,,,,,,,,,,,,,,,,,,,,,,,20,,,,,,,,,,,,,,,,,,,,,8,2,,,688.7256,1,right,0.627,,1,0.3,"[1,3,2]",0.602491336,stimuli/card_10_transparent.png,10,1,0,1,0,1,,,,,,,,,,
,,,,5617203c5c62cf0005822f0c,B,2024-06-29_17h33.38.227,Slot Machine Game,2023.1.3,Win32,59.88023952,,,,,,,,,,,,,,,,,,,,,,,,,,,120,,,,,,,,,,,,,,,,,,,,,8,2,,,691.1758,2,up,0.1761,,1,0.3,"[1,3,2]",0.012739426,stimuli/card_100_transparent.png,100,2,0,2,0,1,,,,,,,,,,
,,,,5617203c5c62cf0005822f0c,B,2024-06-29_17h33.38.227,Slot Machine Game,2023.1.3,Win32,59.88023952,,,,,,,,,,,,,,,,,,,,,,,,,,,120,,,,,,,,,,,,,,,,,,,,,8,2,,,693.176,3,up,0.1997,,0.5,0.3,"[1,3,2]",0.351809077,stimuli/card_0_transparent.png,0,3,0,3,0,1,,,,,,,,,,
,,,,5617203c5c62cf0005822f0c,B,2024-06-29_17h33.38.227,Slot Machine Game,2023.1.3,Win32,59.88023952,,,,,,,,,,,,,,,,,,,,,,,,,,,220,,,,,,,,,,,,,,,,,,,,,8,2,,,694.7093,4,up,0.6912,,0.5,0.3,"[1,3,2]",0.00544918,stimuli/card_100_transparent.png,100,4,0,4,0,1,,,,,,,,,,
,,,,5617203c5c62cf0005822f0c,B,2024-06-29_17h33.38.227,Slot Machine Game,2023.1.3,Win32,59.88023952,,,,,,,,,,,,,,,,,,,,,,,,,,,220,,,,,,,,,,,,,,,,,,,,,8,2,,,696.7096,5,up,0.2229,,0.5,0.3,"[1,3,2]",0.928014374,stimuli/card_0_transparent.png,0,5,0,5,0,1,,,,,,,,,,
,,,,5617203c5c62cf0005822f0c,B,2024-06-29_17h33.38.227,Slot Machine Game,2023.1.3,Win32,59.88023952,,,,,,,,,,,,,,,,,,,,,,,,,,,320,,,,,,,,,,,,,,,,,,,,,8,2,,,698.243,6,up,0.7788,,1,0.3,"[3,2,1]",0.130840591,stimuli/card_100_transparent.png,100,6,0,6,0,1,,,,,,,,,,
,,,,5617203c5c62cf0005822f0c,B,2024-06-29_17h33.38.227,Slot Machine Game,2023.1.3,Win32,59.88023952,,,,,,,,,,,,,,,,,,,,,,,,,,,330,,,,,,,,,,,,,,,,,,,,,8,2,,,700.8432,7,up,0.3161,,1.5,0.3,"[3,2,1]",0.290263514,stimuli/card_10_transparent.png,10,7,0,7,0,1,,,,,,,,,,
,,,,5617203c5c62cf0005822f0c,B,2024-06-29_17h33.38.227,Slot Machine Game,2023.1.3,Win32,59.88023952,,,,,,,,,,,,,,,,,,,,,,,,,,,330,,,,,,,,,,,,,,,,,,,,,8,2,,,703.4934,8,up,0.2825,,1.5,0.3,"[3,2,1]",0.068097461,stimuli/card_0_transparent.png,0,8,0,8,0,1,,,,,,,,,,
,,,,5617203c5c62cf0005822f0c,B,2024-06-29_17h33.38.227,Slot Machine Game,2023.1.3,Win32,59.88023952,,,,,,,,,,,,,,,,,,,,,,,,,,,430,,,,,,,,,,,,,,,,,,,,,8,2,,,706.1102,9,right,0.2231,,0.5,0.3,"[3,2,1]",0.686485484,stimuli/card_100_transparent.png,100,9,0,9,0,1,,,,,,,,,,
,,,,5617203c5c62cf0005822f0c,B,2024-06-29_17h33.38.227,Slot Machine Game,2023.1.3,Win32,59.88023952,,,,,,,,,,,,,,,,,,,,,,,,,,,530,,,,,,,,,,,,,,,,,,,,,8,2,,,707.6436,10,right,0.5167,,1.5,0.3,"[3,2,1]",0.896016301,stimuli/card_100_transparent.png,100,10,0,10,0,1,,,,,,,,,,
,,,,5617203c5c62cf0005822f0c,B,2024-06-29_17h33.38.227,Slot Machine Game,2023.1.3,Win32,59.88023952,,,,,,,,,,,,,,,,,,,,,,,,,,,540,,,,,,,,,,,,,,,,,,,,,8,2,,,710.4773,11,right,0.5827,,1,0.3,"[3,2,1]",0.116422711,stimuli/card_10_transparent.png,10,11,0,11,0,1,,,,,,,,,,
,,,,5617203c5c62cf0005822f0c,B,2024-06-29_17h33.38.227,Slot Machine Game,2023.1.3,Win32,59.88023952,,,,,,,,,,,,,,,,,,,,,,,,,,,640,,,,,,,,,,,,,,,,,,,,,8,2,,,712.8941,12,right,0.2018,,1,0.3,"[3,2,1]",0.496649152,stimuli/card_100_transparent.png,100,12,0,12,0,1,,,,,,,,,,
,,,,5617203c5c62cf0005822f0c,B,2024-06-29_17h33.38.227,Slot Machine Game,2023.1.3,Win32,59.88023952,,,,,,,,,,,,,,,,,,,,,,,,,,,740,,,,,,,,,,,,,,,,,,,,,8,2,,,714.9275,13,right,0.0393,,1.5,0.3,"[3,2,1]",0.689721228,stimuli/card_100_transparent.png,100,13,0,13,0,1,,,,,,,,,,
,,,,5617203c5c62cf0005822f0c,B,2024-06-29_17h33.38.227,Slot Machine Game,2023.1.3,Win32,59.88023952,,,,,,,,,,,,,,,,,,,,,,,,,,,840,,,,,,,,,,,,,,,,,,,,,8,2,,,717.2944,14,right,0.3753,,0.5,0.3,"[3,2,1]",0.561101198,stimuli/card_100_transparent.png,100,14,0,14,0,1,,,,,,,,,,
,,,,5617203c5c62cf0005822f0c,B,2024-06-29_17h33.38.227,Slot Machine Game,2023.1.3,Win32,59.88023952,,,,,,,,,,,,,,,,,,,,,,,,,,,,,,,,,,,718.9945,,,,,,,,,,,,,,,,,,,,,,,,,,,,,,,,,"[750,350,740,630,290,960,1040,840]",7,0,7,0,1,,,,
,,,,5617203c5c62cf0005822f0c,B,2024-06-29_17h33.38.227,Slot Machine Game,2023.1.3,Win32,59.88023952,,,,,,,,,,,,,,,,,,,,,,,,,,,0,,,,,,,,,,,,,,,,,,,,,9,10,"[10,15]","[[3,1,2],[1,3,2]]",724.0022,0,left,0.4699,,1,0.3,"[3,1,2]",0.832209111,stimuli/card_0_transparent.png,0,0,0,0,0,1,,,,,,,,,,
,,,,5617203c5c62cf0005822f0c,B,2024-06-29_17h33.38.227,Slot Machine Game,2023.1.3,Win32,59.88023952,,,,,,,,,,,,,,,,,,,,,,,,,,,100,,,,,,,,,,,,,,,,,,,,,9,10,,,726.2951,1,up,0.5035,,1,0.3,"[3,1,2]",0.495738744,stimuli/card_100_transparent.png,100,1,0,1,0,1,,,,,,,,,,
,,,,5617203c5c62cf0005822f0c,B,2024-06-29_17h33.38.227,Slot Machine Game,2023.1.3,Win32,59.88023952,,,,,,,,,,,,,,,,,,,,,,,,,,,200,,,,,,,,,,,,,,,,,,,,,9,10,,,728.6286,2,up,0.2004,,0.5,0.3,"[3,1,2]",0.445649517,stimuli/card_100_transparent.png,100,2,0,2,0,1,,,,,,,,,,
,,,,5617203c5c62cf0005822f0c,B,2024-06-29_17h33.38.227,Slot Machine Game,2023.1.3,Win32,59.88023952,,,,,,,,,,,,,,,,,,,,,,,,,,,300,,,,,,,,,,,,,,,,,,,,,9,10,,,730.1619,3,up,0.0886,,0.5,0.3,"[3,1,2]",0.257152731,stimuli/card_100_transparent.png,100,3,0,3,0,1,,,,,,,,,,
,,,,5617203c5c62cf0005822f0c,B,2024-06-29_17h33.38.227,Slot Machine Game,2023.1.3,Win32,59.88023952,,,,,,,,,,,,,,,,,,,,,,,,,,,300,,,,,,,,,,,,,,,,,,,,,9,10,,,731.5788,4,up,0.0732,,1.5,0.3,"[3,1,2]",0.023627152,stimuli/card_0_transparent.png,0,4,0,4,0,1,,,,,,,,,,
,,,,5617203c5c62cf0005822f0c,B,2024-06-29_17h33.38.227,Slot Machine Game,2023.1.3,Win32,59.88023952,,,,,,,,,,,,,,,,,,,,,,,,,,,400,,,,,,,,,,,,,,,,,,,,,9,10,,,733.979,5,up,0.5948,,1,0.3,"[3,1,2]",0.977125481,stimuli/card_100_transparent.png,100,5,0,5,0,1,,,,,,,,,,
,,,,5617203c5c62cf0005822f0c,B,2024-06-29_17h33.38.227,Slot Machine Game,2023.1.3,Win32,59.88023952,,,,,,,,,,,,,,,,,,,,,,,,,,,500,,,,,,,,,,,,,,,,,,,,,9,10,,,736.3958,6,up,0.2727,,0.5,0.3,"[3,1,2]",0.504555974,stimuli/card_100_transparent.png,100,6,0,6,0,1,,,,,,,,,,
,,,,5617203c5c62cf0005822f0c,B,2024-06-29_17h33.38.227,Slot Machine Game,2023.1.3,Win32,59.88023952,,,,,,,,,,,,,,,,,,,,,,,,,,,500,,,,,,,,,,,,,,,,,,,,,9,10,,,737.9959,7,up,0.2267,,0.5,0.3,"[3,1,2]",0.008348406,stimuli/card_0_transparent.png,0,7,0,7,0,1,,,,,,,,,,
,,,,5617203c5c62cf0005822f0c,B,2024-06-29_17h33.38.227,Slot Machine Game,2023.1.3,Win32,59.88023952,,,,,,,,,,,,,,,,,,,,,,,,,,,600,,,,,,,,,,,,,,,,,,,,,9,10,,,739.546,8,up,0.1297,,1,0.3,"[3,1,2]",0.702086425,stimuli/card_100_transparent.png,100,8,0,8,0,1,,,,,,,,,,
,,,,5617203c5c62cf0005822f0c,B,2024-06-29_17h33.38.227,Slot Machine Game,2023.1.3,Win32,59.88023952,,,,,,,,,,,,,,,,,,,,,,,,,,,610,,,,,,,,,,,,,,,,,,,,,9,10,,,741.496,9,up,0.1252,,1,0.3,"[3,1,2]",0.189902612,stimuli/card_10_transparent.png,10,9,0,9,0,1,,,,,,,,,,
,,,,5617203c5c62cf0005822f0c,B,2024-06-29_17h33.38.227,Slot Machine Game,2023.1.3,Win32,59.88023952,,,,,,,,,,,,,,,,,,,,,,,,,,,710,,,,,,,,,,,,,,,,,,,,,9,10,,,743.4296,10,left,0.6531,,1,0.3,"[1,3,2]",0.7031163,stimuli/card_100_transparent.png,100,10,0,10,0,1,,,,,,,,,,
,,,,5617203c5c62cf0005822f0c,B,2024-06-29_17h33.38.227,Slot Machine Game,2023.1.3,Win32,59.88023952,,,,,,,,,,,,,,,,,,,,,,,,,,,810,,,,,,,,,,,,,,,,,,,,,9,10,,,745.9131,11,left,0.1783,,0.5,0.3,"[1,3,2]",0.749769711,stimuli/card_100_transparent.png,100,11,0,11,0,1,,,,,,,,,,
,,,,5617203c5c62cf0005822f0c,B,2024-06-29_17h33.38.227,Slot Machine Game,2023.1.3,Win32,59.88023952,,,,,,,,,,,,,,,,,,,,,,,,,,,820,,,,,,,,,,,,,,,,,,,,,9,10,,,747.3965,12,left,0.4941,,0.5,0.3,"[1,3,2]",0.18405232,stimuli/card_10_transparent.png,10,12,0,12,0,1,,,,,,,,,,
,,,,5617203c5c62cf0005822f0c,B,2024-06-29_17h33.38.227,Slot Machine Game,2023.1.3,Win32,59.88023952,,,,,,,,,,,,,,,,,,,,,,,,,,,920,,,,,,,,,,,,,,,,,,,,,9,10,,,749.2134,13,left,0.1912,,0.5,0.3,"[1,3,2]",0.90731631,stimuli/card_100_transparent.png,100,13,0,13,0,1,,,,,,,,,,
,,,,5617203c5c62cf0005822f0c,B,2024-06-29_17h33.38.227,Slot Machine Game,2023.1.3,Win32,59.88023952,,,,,,,,,,,,,,,,,,,,,,,,,,,1020,,,,,,,,,,,,,,,,,,,,,9,10,,,750.7301,14,left,0.1327,,1,0.3,"[1,3,2]",0.269328588,stimuli/card_100_transparent.png,100,14,0,14,0,1,,,,,,,,,,
,,,,5617203c5c62cf0005822f0c,B,2024-06-29_17h33.38.227,Slot Machine Game,2023.1.3,Win32,59.88023952,,,,,,,,,,,,,,,,,,,,,,,,,,,,,,,,,,,752.6802,,,,,,,,,,,,,,,,,,,,,,,,,,,,,,,,,"[750,350,740,630,290,960,1040,840,1020]",8,0,8,0,1,,,,
,,,,5617203c5c62cf0005822f0c,B,2024-06-29_17h33.38.227,Slot Machine Game,2023.1.3,Win32,59.88023952,,,,,,,,,,,,,,,,,,,,,,,,,,,100,,,,,,,,,,,,,,,,,,,,,10,3,"[15,15]","[[3,1,2],[3,1,2]]",757.6879,0,up,0.4011,,1,0.3,"[3,1,2]",0.526665967,stimuli/card_100_transparent.png,100,0,0,0,0,1,,,,,,,,,,
,,,,5617203c5c62cf0005822f0c,B,2024-06-29_17h33.38.227,Slot Machine Game,2023.1.3,Win32,59.88023952,,,,,,,,,,,,,,,,,,,,,,,,,,,200,,,,,,,,,,,,,,,,,,,,,10,3,,,759.9141,1,up,0.0671,,1.5,0.3,"[3,1,2]",0.957447129,stimuli/card_100_transparent.png,100,1,0,1,0,1,,,,,,,,,,
,,,,5617203c5c62cf0005822f0c,B,2024-06-29_17h33.38.227,Slot Machine Game,2023.1.3,Win32,59.88023952,,,,,,,,,,,,,,,,,,,,,,,,,,,300,,,,,,,,,,,,,,,,,,,,,10,3,,,762.2977,2,up,0.112,,0.5,0.3,"[3,1,2]",0.989212641,stimuli/card_100_transparent.png,100,2,0,2,0,1,,,,,,,,,,
,,,,5617203c5c62cf0005822f0c,B,2024-06-29_17h33.38.227,Slot Machine Game,2023.1.3,Win32,59.88023952,,,,,,,,,,,,,,,,,,,,,,,,,,,400,,,,,,,,,,,,,,,,,,,,,10,3,,,763.7311,3,up,0.508,,0.5,0.3,"[3,1,2]",0.614226256,stimuli/card_100_transparent.png,100,3,0,3,0,1,,,,,,,,,,
,,,,5617203c5c62cf0005822f0c,B,2024-06-29_17h33.38.227,Slot Machine Game,2023.1.3,Win32,59.88023952,,,,,,,,,,,,,,,,,,,,,,,,,,,500,,,,,,,,,,,,,,,,,,,,,10,3,,,765.5646,4,up,0.4361,,0.5,0.3,"[3,1,2]",0.354050991,stimuli/card_100_transparent.png,100,4,0,4,0,1,,,,,,,,,,
,,,,5617203c5c62cf0005822f0c,B,2024-06-29_17h33.38.227,Slot Machine Game,2023.1.3,Win32,59.88023952,,,,,,,,,,,,,,,,,,,,,,,,,,,600,,,,,,,,,,,,,,,,,,,,,10,3,,,767.3313,5,up,0.3337,,0.5,0.3,"[3,1,2]",0.433601288,stimuli/card_100_transparent.png,100,5,0,5,0,1,,,,,,,,,,
,,,,5617203c5c62cf0005822f0c,B,2024-06-29_17h33.38.227,Slot Machine Game,2023.1.3,Win32,59.88023952,,,,,,,,,,,,,,,,,,,,,,,,,,,700,,,,,,,,,,,,,,,,,,,,,10,3,,,768.9815,6,up,0.1004,,1,0.3,"[3,1,2]",0.975745546,stimuli/card_100_transparent.png,100,6,0,6,0,1,,,,,,,,,,
,,,,5617203c5c62cf0005822f0c,B,2024-06-29_17h33.38.227,Slot Machine Game,2023.1.3,Win32,59.88023952,,,,,,,,,,,,,,,,,,,,,,,,,,,800,,,,,,,,,,,,,,,,,,,,,10,3,,,770.9149,7,up,0.5906,,0.5,0.3,"[3,1,2]",0.520078561,stimuli/card_100_transparent.png,100,7,0,7,0,1,,,,,,,,,,
,,,,5617203c5c62cf0005822f0c,B,2024-06-29_17h33.38.227,Slot Machine Game,2023.1.3,Win32,59.88023952,,,,,,,,,,,,,,,,,,,,,,,,,,,900,,,,,,,,,,,,,,,,,,,,,10,3,,,772.8317,8,up,0.1409,,1,0.3,"[3,1,2]",0.448496766,stimuli/card_100_transparent.png,100,8,0,8,0,1,,,,,,,,,,
,,,,5617203c5c62cf0005822f0c,B,2024-06-29_17h33.38.227,Slot Machine Game,2023.1.3,Win32,59.88023952,,,,,,,,,,,,,,,,,,,,,,,,,,,1000,,,,,,,,,,,,,,,,,,,,,10,3,,,774.7985,9,up,0.0994,,1.5,0.3,"[3,1,2]",0.676156777,stimuli/card_100_transparent.png,100,9,0,9,0,1,,,,,,,,,,
,,,,5617203c5c62cf0005822f0c,B,2024-06-29_17h33.38.227,Slot Machine Game,2023.1.3,Win32,59.88023952,,,,,,,,,,,,,,,,,,,,,,,,,,,1100,,,,,,,,,,,,,,,,,,,,,10,3,,,777.2321,10,up,0.4106,,0.5,0.3,"[3,1,2]",0.562940962,stimuli/card_100_transparent.png,100,10,0,10,0,1,,,,,,,,,,
,,,,5617203c5c62cf0005822f0c,B,2024-06-29_17h33.38.227,Slot Machine Game,2023.1.3,Win32,59.88023952,,,,,,,,,,,,,,,,,,,,,,,,,,,1200,,,,,,,,,,,,,,,,,,,,,10,3,,,778.9655,11,up,0.6713,,1.5,0.3,"[3,1,2]",0.867466887,stimuli/card_100_transparent.png,100,11,0,11,0,1,,,,,,,,,,
,,,,5617203c5c62cf0005822f0c,B,2024-06-29_17h33.38.227,Slot Machine Game,2023.1.3,Win32,59.88023952,,,,,,,,,,,,,,,,,,,,,,,,,,,1300,,,,,,,,,,,,,,,,,,,,,10,3,,,781.9658,12,up,0.1839,,0.5,0.3,"[3,1,2]",0.602481252,stimuli/card_100_transparent.png,100,12,0,12,0,1,,,,,,,,,,
,,,,5617203c5c62cf0005822f0c,B,2024-06-29_17h33.38.227,Slot Machine Game,2023.1.3,Win32,59.88023952,,,,,,,,,,,,,,,,,,,,,,,,,,,1400,,,,,,,,,,,,,,,,,,,,,10,3,,,783.4825,13,up,0.4089,,1,0.3,"[3,1,2]",0.910885908,stimuli/card_100_transparent.png,100,13,0,13,0,1,,,,,,,,,,
,,,,5617203c5c62cf0005822f0c,B,2024-06-29_17h33.38.227,Slot Machine Game,2023.1.3,Win32,59.88023952,,,,,,,,,,,,,,,,,,,,,,,,,,,1500,,,,,,,,,,,,,,,,,,,,,10,3,,,785.7161,14,up,0.201,,1.5,0.3,"[3,1,2]",0.238370467,stimuli/card_100_transparent.png,100,14,0,14,0,1,,,,,,,,,,
,,,,5617203c5c62cf0005822f0c,B,2024-06-29_17h33.38.227,Slot Machine Game,2023.1.3,Win32,59.88023952,,,,,,,,,,,,,,,,,,,,,,,,,,,,,,,,,,,788.2495,,,,,,,,,,,,,,,,,,,,,,,,,,,,,,,,,"[750,350,740,630,290,960,1040,840,1020,1500]",9,0,9,0,1,,,,
,,,,5617203c5c62cf0005822f0c,B,2024-06-29_17h33.38.227,Slot Machine Game,2023.1.3,Win32,59.88023952,,,,,,,,,,,,,,,,,,,,,,,,,,,,,,,,,,,,,,,,,,,,,,,,,,,,,,,,,,,,,,,,,,,,,,,,,,9,"[750,350,740,630,290,960,1040,840,1020,1500]",3.5,2024-06-29_17h46.55.591
