key_resp_welcome_started,key_resp_welcome_keys,key_resp_welcome_rt,key_resp_welcome_duration,prolific_id,path_id,date,expName,psychopyVersion,OS,frameRate,key_resp_instruction1_started,key_resp_instruction1_keys,key_resp_instruction1_rt,key_resp_instruction1_duration,key_resp_instruction2_started,key_resp_instruction2_keys,key_resp_instruction2_rt,key_resp_instruction2_duration,key_resp_instruction3_started,key_resp_instruction3_keys,key_resp_instruction3_rt,key_resp_instruction3_duration,key_resp_instruction4_started,key_resp_instruction4_keys,key_resp_instruction4_rt,key_resp_instruction4_duration,practiceCondition,practice_reward_seqs,practice_trial_started,practice_trial_num,prac_presentationInterval,"practice_reward_seq: 2,1,3",practice_trials.thisRepN,practice_trials.thisTrialN,practice_trials.thisN,practice_trials.thisIndex,practice_trials.ran,"practice_reward_seq: 2,3,1",practice_resp_rt,practice_resp_duration,practice_resp_keys,reward_img,cumulative_reward,trial_reward,block_break_started,"practice_reward_seq: 1,3,2","practice_reward_seq: 3,1,2",practice_end_time,practice_end_keys,practice_end_rt,practice_end_duration,main_instruction_text_started,block_condition,block_order_indices,main_instruction_keys,main_instruction_rt,main_instruction_duration,block_number,block_assignment,current_condition,main_reward_seqs,main_trial_started,main_trial_num,main_trial_keys,main_trial_rt,main_trial_duration,main_presentationInterval,reward_presentation_time,main_reward_seq,reward_rand_val,main_reward_img,current_reward,main_trials.thisRepN,main_trials.thisTrialN,main_trials.thisN,main_trials.thisIndex,main_trials.ran,block_reward,block.thisRepN,block.thisTrialN,block.thisN,block.thisIndex,block.ran,block_reward.length,block_reward_all,reward_amount,date_end_task
0.0005,return,3.0553,,57d940a5995a0b00016350be,B,2024-06-21_17h20.00.477,Slot Machine Game,2023.1.3,Win32,59.88023952,,,,,,,,,,,,,,,,,,,,,,,,,,,,,,,,,,,,,,,,,,,,,,,,,,,,,,,,,,,,,,,,,,,,,,,,,,,,,
,,,,57d940a5995a0b00016350be,B,2024-06-21_17h20.00.477,Slot Machine Game,2023.1.3,Win32,59.88023952,3.0767,return,15.9604,,,,,,,,,,,,,,,,,,,,,,,,,,,,,,,,,,,,,,,,,,,,,,,,,,,,,,,,,,,,,,,,,,,,,,,,,,
,,,,57d940a5995a0b00016350be,B,2024-06-21_17h20.00.477,Slot Machine Game,2023.1.3,Win32,59.88023952,,,,,19.0606,return,21.2906,,,,,,,,,,,,,,,,,,,,,,,,,,,,,,,,,,,,,,,,,,,,,,,,,,,,,,,,,,,,,,,,,,,,,,
,,,,57d940a5995a0b00016350be,B,2024-06-21_17h20.00.477,Slot Machine Game,2023.1.3,Win32,59.88023952,,,,,,,,,40.397,return,8.3287,,,,,,,,,,,,,,,,,,,,,,,,,,,,,,,,,,,,,,,,,,,,,,,,,,,,,,,,,,,,,,,,,,
,,,,57d940a5995a0b00016350be,B,2024-06-21_17h20.00.477,Slot Machine Game,2023.1.3,Win32,59.88023952,,,,,,,,,,,,,,,,,,,,,,,,,,,,,,,,,,,,,,,,,,,,,,,,,,,,,,,,,,,,,,,,,,,,,,,,,,,,,
,,,,57d940a5995a0b00016350be,B,2024-06-21_17h20.00.477,Slot Machine Game,2023.1.3,Win32,59.88023952,,,,,,,,,,,,,191.0894,return,6.2581,,,,,,,,,,,,,,,,,,,,,,,,,,,,,,,,,,,,,,,,,,,,,,,,,,,,,,,,,,,,,,
,,,,57d940a5995a0b00016350be,B,2024-06-21_17h20.00.477,Slot Machine Game,2023.1.3,Win32,59.88023952,,,,,,,,,,,,,,,,,"[9,15]","[[2,1,3],[2,3,1]]",197.387,0,0.5,,0,0,0,0,1,,,,,,,,,,,,,,,,,,,,,,,,,,,,,,,,,,,,,,,,,,,,,,,,,,
,,,,57d940a5995a0b00016350be,B,2024-06-21_17h20.00.477,Slot Machine Game,2023.1.3,Win32,59.88023952,,,,,,,,,,,,,,,,,,,202.9381,1,0.5,,1,0,1,0,1,,,,,,,,,,,,,,,,,,,,,,,,,,,,,,,,,,,,,,,,,,,,,,,,,,
,,,,57d940a5995a0b00016350be,B,2024-06-21_17h20.00.477,Slot Machine Game,2023.1.3,Win32,59.88023952,,,,,,,,,,,,,,,,,,,208.4593,2,1,,2,0,2,0,1,,,,,,,,,,,,,,,,,,,,,,,,,,,,,,,,,,,,,,,,,,,,,,,,,,
,,,,57d940a5995a0b00016350be,B,2024-06-21_17h20.00.477,Slot Machine Game,2023.1.3,Win32,59.88023952,,,,,,,,,,,,,,,,,,,213.9765,3,1,,3,0,3,0,1,,,,,,,,,,,,,,,,,,,,,,,,,,,,,,,,,,,,,,,,,,,,,,,,,,
,,,,57d940a5995a0b00016350be,B,2024-06-21_17h20.00.477,Slot Machine Game,2023.1.3,Win32,59.88023952,,,,,,,,,,,,,,,,,,,219.4929,4,1.5,,4,0,4,0,1,,,,,,,,,,,,,,,,,,,,,,,,,,,,,,,,,,,,,,,,,,,,,,,,,,
,,,,57d940a5995a0b00016350be,B,2024-06-21_17h20.00.477,Slot Machine Game,2023.1.3,Win32,59.88023952,,,,,,,,,,,,,,,,,,,225.0093,5,0.5,,5,0,5,0,1,,,,,,,,,,,,,,,,,,,,,,,,,,,,,,,,,,,,,,,,,,,,,,,,,,
,,,,57d940a5995a0b00016350be,B,2024-06-21_17h20.00.477,Slot Machine Game,2023.1.3,Win32,59.88023952,,,,,,,,,,,,,,,,,,,230.5267,6,1.5,,6,0,6,0,1,,,,,,,,,,,,,,,,,,,,,,,,,,,,,,,,,,,,,,,,,,,,,,,,,,
,,,,57d940a5995a0b00016350be,B,2024-06-21_17h20.00.477,Slot Machine Game,2023.1.3,Win32,59.88023952,,,,,,,,,,,,,,,,,,,236.0437,7,1.5,,7,0,7,0,1,,,,,,,,,,,,,,,,,,,,,,,,,,,,,,,,,,,,,,,,,,,,,,,,,,
,,,,57d940a5995a0b00016350be,B,2024-06-21_17h20.00.477,Slot Machine Game,2023.1.3,Win32,59.88023952,,,,,,,,,,,,,,,,,,,241.5589,8,0.5,,8,0,8,0,1,,,,,,,,,,,,,,,,,,,,,,,,,,,,,,,,,,,,,,,,,,,,,,,,,,
,,,,57d940a5995a0b00016350be,B,2024-06-21_17h20.00.477,Slot Machine Game,2023.1.3,Win32,59.88023952,,,,,,,,,,,,,,,,,,,247.0781,9,1.5,,9,0,9,0,1,,,,,,,,,,,,,,,,,,,,,,,,,,,,,,,,,,,,,,,,,,,,,,,,,,
,,,,57d940a5995a0b00016350be,B,2024-06-21_17h20.00.477,Slot Machine Game,2023.1.3,Win32,59.88023952,,,,,,,,,,,,,,,,,,,252.5936,10,1.5,,10,0,10,0,1,,,,,,,,,,,,,,,,,,,,,,,,,,,,,,,,,,,,,,,,,,,,,,,,,,
,,,,57d940a5995a0b00016350be,B,2024-06-21_17h20.00.477,Slot Machine Game,2023.1.3,Win32,59.88023952,,,,,,,,,,,,,,,,,,,258.1095,11,0.5,,11,0,11,0,1,,,,,,,,,,,,,,,,,,,,,,,,,,,,,,,,,,,,,,,,,,,,,,,,,,
,,,,57d940a5995a0b00016350be,B,2024-06-21_17h20.00.477,Slot Machine Game,2023.1.3,Win32,59.88023952,,,,,,,,,,,,,,,,,,,263.6267,12,0.5,,12,0,12,0,1,,2.6193,,left,stimuli/card_10_transparent.png,10,10,,,,,,,,,,,,,,,,,,,,,,,,,,,,,,,,,,,,,,,,,,,
,,,,57d940a5995a0b00016350be,B,2024-06-21_17h20.00.477,Slot Machine Game,2023.1.3,Win32,59.88023952,,,,,,,,,,,,,,,,,,,267.5748,13,0.5,,13,0,13,0,1,,,,,,,,,,,,,,,,,,,,,,,,,,,,,,,,,,,,,,,,,,,,,,,,,,
,,,,57d940a5995a0b00016350be,B,2024-06-21_17h20.00.477,Slot Machine Game,2023.1.3,Win32,59.88023952,,,,,,,,,,,,,,,,,,,273.0982,14,1,,14,0,14,0,1,,2.5011,,left,stimuli/card_10_transparent.png,20,10,,,,,,,,,,,,,,,,,,,,,,,,,,,,,,,,,,,,,,,,,,,
,,,,57d940a5995a0b00016350be,B,2024-06-21_17h20.00.477,Slot Machine Game,2023.1.3,Win32,59.88023952,,,,,,,,,,,,,,,,,"[6,15]","[[1,3,2],[3,1,2]]",282.4542,0,0.5,,0,0,0,0,1,,,,,,,,277.4425,,,,,,,,,,,,,,,,,,,,,,,,,,,,,,,,,,,,,,,,,,
,,,,57d940a5995a0b00016350be,B,2024-06-21_17h20.00.477,Slot Machine Game,2023.1.3,Win32,59.88023952,,,,,,,,,,,,,,,,,,,287.9641,1,0.5,,1,0,1,0,1,,2.7167,,left,stimuli/card_100_transparent.png,100,100,,,,,,,,,,,,,,,,,,,,,,,,,,,,,,,,,,,,,,,,,,,
,,,,57d940a5995a0b00016350be,B,2024-06-21_17h20.00.477,Slot Machine Game,2023.1.3,Win32,59.88023952,,,,,,,,,,,,,,,,,,,292.009,2,1.5,,2,0,2,0,1,,2.1524,,left,stimuli/card_100_transparent.png,200,100,,,,,,,,,,,,,,,,,,,,,,,,,,,,,,,,,,,,,,,,,,,
,,,,57d940a5995a0b00016350be,B,2024-06-21_17h20.00.477,Slot Machine Game,2023.1.3,Win32,59.88023952,,,,,,,,,,,,,,,,,,,296.4929,3,1.5,,3,0,3,0,1,,0.2423,,left,stimuli/card_100_transparent.png,300,100,,,,,,,,,,,,,,,,,,,,,,,,,,,,,,,,,,,,,,,,,,,
,,,,57d940a5995a0b00016350be,B,2024-06-21_17h20.00.477,Slot Machine Game,2023.1.3,Win32,59.88023952,,,,,,,,,,,,,,,,,,,299.0602,4,1.5,,4,0,4,0,1,,,,,,,,,,,,,,,,,,,,,,,,,,,,,,,,,,,,,,,,,,,,,,,,,,
,,,,57d940a5995a0b00016350be,B,2024-06-21_17h20.00.477,Slot Machine Game,2023.1.3,Win32,59.88023952,,,,,,,,,,,,,,,,,,,304.5845,5,1,,5,0,5,0,1,,2.3344,,left,stimuli/card_0_transparent.png,300,0,,,,,,,,,,,,,,,,,,,,,,,,,,,,,,,,,,,,,,,,,,,
,,,,57d940a5995a0b00016350be,B,2024-06-21_17h20.00.477,Slot Machine Game,2023.1.3,Win32,59.88023952,,,,,,,,,,,,,,,,,,,308.7443,6,0.5,,6,0,6,0,1,,,,,,,,,,,,,,,,,,,,,,,,,,,,,,,,,,,,,,,,,,,,,,,,,,
,,,,57d940a5995a0b00016350be,B,2024-06-21_17h20.00.477,Slot Machine Game,2023.1.3,Win32,59.88023952,,,,,,,,,,,,,,,,,,,314.2626,7,1.5,,7,0,7,0,1,,,,,,,,,,,,,,,,,,,,,,,,,,,,,,,,,,,,,,,,,,,,,,,,,,
,,,,57d940a5995a0b00016350be,B,2024-06-21_17h20.00.477,Slot Machine Game,2023.1.3,Win32,59.88023952,,,,,,,,,,,,,,,,,,,319.7822,8,1.5,,8,0,8,0,1,,0.1171,,left,stimuli/card_0_transparent.png,300,0,,,,,,,,,,,,,,,,,,,,,,,,,,,,,,,,,,,,,,,,,,,
,,,,57d940a5995a0b00016350be,B,2024-06-21_17h20.00.477,Slot Machine Game,2023.1.3,Win32,59.88023952,,,,,,,,,,,,,,,,,,,322.2283,9,1.5,,9,0,9,0,1,,0.6587,,left,stimuli/card_0_transparent.png,300,0,,,,,,,,,,,,,,,,,,,,,,,,,,,,,,,,,,,,,,,,,,,
,,,,57d940a5995a0b00016350be,B,2024-06-21_17h20.00.477,Slot Machine Game,2023.1.3,Win32,59.88023952,,,,,,,,,,,,,,,,,,,325.2116,10,0.5,,10,0,10,0,1,,0.7245,,left,stimuli/card_0_transparent.png,300,0,,,,,,,,,,,,,,,,,,,,,,,,,,,,,,,,,,,,,,,,,,,
,,,,57d940a5995a0b00016350be,B,2024-06-21_17h20.00.477,Slot Machine Game,2023.1.3,Win32,59.88023952,,,,,,,,,,,,,,,,,,,327.2611,11,0.5,,11,0,11,0,1,,0.6572,,left,stimuli/card_0_transparent.png,300,0,,,,,,,,,,,,,,,,,,,,,,,,,,,,,,,,,,,,,,,,,,,
,,,,57d940a5995a0b00016350be,B,2024-06-21_17h20.00.477,Slot Machine Game,2023.1.3,Win32,59.88023952,,,,,,,,,,,,,,,,,,,329.2453,12,1.5,,12,0,12,0,1,,1.1367,,left,stimuli/card_0_transparent.png,300,0,,,,,,,,,,,,,,,,,,,,,,,,,,,,,,,,,,,,,,,,,,,
,,,,57d940a5995a0b00016350be,B,2024-06-21_17h20.00.477,Slot Machine Game,2023.1.3,Win32,59.88023952,,,,,,,,,,,,,,,,,,,332.7123,13,0.5,,13,0,13,0,1,,,,,,,,,,,,,,,,,,,,,,,,,,,,,,,,,,,,,,,,,,,,,,,,,,
,,,,57d940a5995a0b00016350be,B,2024-06-21_17h20.00.477,Slot Machine Game,2023.1.3,Win32,59.88023952,,,,,,,,,,,,,,,,,,,338.2334,14,1,,14,0,14,0,1,,0.752,,left,stimuli/card_10_transparent.png,310,10,,,,,,,,,,,,,,,,,,,,,,,,,,,,,,,,,,,,,,,,,,,
,,,,57d940a5995a0b00016350be,B,2024-06-21_17h20.00.477,Slot Machine Game,2023.1.3,Win32,59.88023952,,,,,,,,,,,,,,,,,,,,,,,,,,,,,,,,,,,340.812,,,345.817,space,5.082,,,,,,,,,,,,,,,,,,,,,,,,,,,,,,,,,,,,,
,,,,57d940a5995a0b00016350be,B,2024-06-21_17h20.00.477,Slot Machine Game,2023.1.3,Win32,59.88023952,,,,,,,,,,,,,,,,,,,,,,,,,,,,,,,,,,,,,,,,,,350.9174,2,"[2,4,8,0,1,3,9,6,8,5]",space,15.8699,,,,,,,,,,,,,,,,,,,,,,,,,,,,,,,
,,,,57d940a5995a0b00016350be,B,2024-06-21_17h20.00.477,Slot Machine Game,2023.1.3,Win32,59.88023952,,,,,,,,,,,,,,,,,,,,,,,,,,,,,,,,,100,,,,,,,,,,,,,,,1,3,"[15,15]","[[3,1,2],[3,1,2]]",366.8569,0,up,3.2355,,0.5,0.3,"[3,1,2]",0.864907112,stimuli/card_100_transparent.png,100,0,0,0,0,1,,,,,,,,,,
,,,,57d940a5995a0b00016350be,B,2024-06-21_17h20.00.477,Slot Machine Game,2023.1.3,Win32,59.88023952,,,,,,,,,,,,,,,,,,,,,,,,,,,,,,,,,200,,,,,,,,,,,,,,,1,3,,,371.4139,1,up,0.4834,,1,0.3,"[3,1,2]",0.421776863,stimuli/card_100_transparent.png,100,1,0,1,0,1,,,,,,,,,,
,,,,57d940a5995a0b00016350be,B,2024-06-21_17h20.00.477,Slot Machine Game,2023.1.3,Win32,59.88023952,,,,,,,,,,,,,,,,,,,,,,,,,,,,,,,,,300,,,,,,,,,,,,,,,1,3,,,373.7305,2,up,0.982,,1,0.3,"[3,1,2]",0.886251098,stimuli/card_100_transparent.png,100,2,0,2,0,1,,,,,,,,,,
,,,,57d940a5995a0b00016350be,B,2024-06-21_17h20.00.477,Slot Machine Game,2023.1.3,Win32,59.88023952,,,,,,,,,,,,,,,,,,,,,,,,,,,,,,,,,400,,,,,,,,,,,,,,,1,3,,,376.5309,3,up,0.6518,,1,0.3,"[3,1,2]",0.200251286,stimuli/card_100_transparent.png,100,3,0,3,0,1,,,,,,,,,,
,,,,57d940a5995a0b00016350be,B,2024-06-21_17h20.00.477,Slot Machine Game,2023.1.3,Win32,59.88023952,,,,,,,,,,,,,,,,,,,,,,,,,,,,,,,,,500,,,,,,,,,,,,,,,1,3,,,379.0149,4,up,0.3504,,1,0.3,"[3,1,2]",0.326958627,stimuli/card_100_transparent.png,100,4,0,4,0,1,,,,,,,,,,
,,,,57d940a5995a0b00016350be,B,2024-06-21_17h20.00.477,Slot Machine Game,2023.1.3,Win32,59.88023952,,,,,,,,,,,,,,,,,,,,,,,,,,,,,,,,,600,,,,,,,,,,,,,,,1,3,,,381.1978,5,up,0.1405,,0.5,0.3,"[3,1,2]",0.751114206,stimuli/card_100_transparent.png,100,5,0,5,0,1,,,,,,,,,,
,,,,57d940a5995a0b00016350be,B,2024-06-21_17h20.00.477,Slot Machine Game,2023.1.3,Win32,59.88023952,,,,,,,,,,,,,,,,,,,,,,,,,,,,,,,,,700,,,,,,,,,,,,,,,1,3,,,382.6644,6,up,0.0879,,1.5,0.3,"[3,1,2]",0.427803439,stimuli/card_100_transparent.png,100,6,0,6,0,1,,,,,,,,,,
,,,,57d940a5995a0b00016350be,B,2024-06-21_17h20.00.477,Slot Machine Game,2023.1.3,Win32,59.88023952,,,,,,,,,,,,,,,,,,,,,,,,,,,,,,,,,700,,,,,,,,,,,,,,,1,3,,,385.0818,7,up,0.2683,,1.5,0.3,"[3,1,2]",0.098486977,stimuli/card_0_transparent.png,0,7,0,7,0,1,,,,,,,,,,
,,,,57d940a5995a0b00016350be,B,2024-06-21_17h20.00.477,Slot Machine Game,2023.1.3,Win32,59.88023952,,,,,,,,,,,,,,,,,,,,,,,,,,,,,,,,,800,,,,,,,,,,,,,,,1,3,,,387.6814,8,up,2.1171,,1.5,0.3,"[3,1,2]",0.676975641,stimuli/card_100_transparent.png,100,8,0,8,0,1,,,,,,,,,,
,,,,57d940a5995a0b00016350be,B,2024-06-21_17h20.00.477,Slot Machine Game,2023.1.3,Win32,59.88023952,,,,,,,,,,,,,,,,,,,,,,,,,,,,,,,,,900,,,,,,,,,,,,,,,1,3,,,392.1315,9,up,1.4932,,1,0.3,"[3,1,2]",0.760562527,stimuli/card_100_transparent.png,100,9,0,9,0,1,,,,,,,,,,
,,,,57d940a5995a0b00016350be,B,2024-06-21_17h20.00.477,Slot Machine Game,2023.1.3,Win32,59.88023952,,,,,,,,,,,,,,,,,,,,,,,,,,,,,,,,,1000,,,,,,,,,,,,,,,1,3,,,395.4486,10,up,0.1379,,1,0.3,"[3,1,2]",0.566206074,stimuli/card_100_transparent.png,100,10,0,10,0,1,,,,,,,,,,
,,,,57d940a5995a0b00016350be,B,2024-06-21_17h20.00.477,Slot Machine Game,2023.1.3,Win32,59.88023952,,,,,,,,,,,,,,,,,,,,,,,,,,,,,,,,,1100,,,,,,,,,,,,,,,1,3,,,397.3986,11,up,0.2179,,1,0.3,"[3,1,2]",0.346472661,stimuli/card_100_transparent.png,100,11,0,11,0,1,,,,,,,,,,
,,,,57d940a5995a0b00016350be,B,2024-06-21_17h20.00.477,Slot Machine Game,2023.1.3,Win32,59.88023952,,,,,,,,,,,,,,,,,,,,,,,,,,,,,,,,,1200,,,,,,,,,,,,,,,1,3,,,399.4328,12,up,0.1177,,1,0.3,"[3,1,2]",0.795107479,stimuli/card_100_transparent.png,100,12,0,12,0,1,,,,,,,,,,
,,,,57d940a5995a0b00016350be,B,2024-06-21_17h20.00.477,Slot Machine Game,2023.1.3,Win32,59.88023952,,,,,,,,,,,,,,,,,,,,,,,,,,,,,,,,,1300,,,,,,,,,,,,,,,1,3,,,401.3823,13,up,1.6841,,1.5,0.3,"[3,1,2]",0.787948603,stimuli/card_100_transparent.png,100,13,0,13,0,1,,,,,,,,,,
,,,,57d940a5995a0b00016350be,B,2024-06-21_17h20.00.477,Slot Machine Game,2023.1.3,Win32,59.88023952,,,,,,,,,,,,,,,,,,,,,,,,,,,,,,,,,1400,,,,,,,,,,,,,,,1,3,,,405.3996,14,up,0.2534,,1,0.3,"[3,1,2]",0.207863975,stimuli/card_100_transparent.png,100,14,0,14,0,1,,,,,,,,,,
,,,,57d940a5995a0b00016350be,B,2024-06-21_17h20.00.477,Slot Machine Game,2023.1.3,Win32,59.88023952,,,,,,,,,,,,,,,,,,,,,,,,,,,,,,,,,,,407.4829,,,,,,,,,,,,,,,,,,,,,,,,,,,,,,,,,[1400],0,0,0,0,1,,,,
,,,,57d940a5995a0b00016350be,B,2024-06-21_17h20.00.477,Slot Machine Game,2023.1.3,Win32,59.88023952,,,,,,,,,,,,,,,,,,,,,,,,,,,,,,,,,,,,,,,,,,,,,,,,2,5,"[5,15]","[[1,2,3],[3,1,2]]",412.5108,0,,,,0.5,0.3,,,,,0,0,0,0,1,,,,,,,,,,
,,,,57d940a5995a0b00016350be,B,2024-06-21_17h20.00.477,Slot Machine Game,2023.1.3,Win32,59.88023952,,,,,,,,,,,,,,,,,,,,,,,,,,,,,,,,,0,,,,,,,,,,,,,,,2,5,,,418.0229,1,up,1.5688,,1.5,0.3,"[1,2,3]",0.088207082,stimuli/card_0_transparent.png,0,1,0,1,0,1,,,,,,,,,,
,,,,57d940a5995a0b00016350be,B,2024-06-21_17h20.00.477,Slot Machine Game,2023.1.3,Win32,59.88023952,,,,,,,,,,,,,,,,,,,,,,,,,,,,,,,,,10,,,,,,,,,,,,,,,2,5,,,421.9169,2,up,0.3352,,0.5,0.3,"[1,2,3]",0.753091436,stimuli/card_10_transparent.png,10,2,0,2,0,1,,,,,,,,,,
,,,,57d940a5995a0b00016350be,B,2024-06-21_17h20.00.477,Slot Machine Game,2023.1.3,Win32,59.88023952,,,,,,,,,,,,,,,,,,,,,,,,,,,,,,,,,20,,,,,,,,,,,,,,,2,5,,,423.5835,3,up,0.2859,,0.5,0.3,"[1,2,3]",0.358777027,stimuli/card_10_transparent.png,10,3,0,3,0,1,,,,,,,,,,
,,,,57d940a5995a0b00016350be,B,2024-06-21_17h20.00.477,Slot Machine Game,2023.1.3,Win32,59.88023952,,,,,,,,,,,,,,,,,,,,,,,,,,,,,,,,,30,,,,,,,,,,,,,,,2,5,,,425.2013,4,up,0.5011,,0.5,0.3,"[1,2,3]",0.714960176,stimuli/card_10_transparent.png,10,4,0,4,0,1,,,,,,,,,,
,,,,57d940a5995a0b00016350be,B,2024-06-21_17h20.00.477,Slot Machine Game,2023.1.3,Win32,59.88023952,,,,,,,,,,,,,,,,,,,,,,,,,,,,,,,,,40,,,,,,,,,,,,,,,2,5,,,427.0338,5,left,2.9389,,1,0.3,"[3,1,2]",0.197412011,stimuli/card_10_transparent.png,10,5,0,5,0,1,,,,,,,,,,
,,,,57d940a5995a0b00016350be,B,2024-06-21_17h20.00.477,Slot Machine Game,2023.1.3,Win32,59.88023952,,,,,,,,,,,,,,,,,,,,,,,,,,,,,,,,,40,,,,,,,,,,,,,,,2,5,,,431.7841,6,left,2.2019,,1,0.3,"[3,1,2]",0.266465168,stimuli/card_0_transparent.png,0,6,0,6,0,1,,,,,,,,,,
,,,,57d940a5995a0b00016350be,B,2024-06-21_17h20.00.477,Slot Machine Game,2023.1.3,Win32,59.88023952,,,,,,,,,,,,,,,,,,,,,,,,,,,,,,,,,,,,,,,,,,,,,,,,2,5,,,435.818,7,,,,1.5,0.3,,,,,7,0,7,0,1,,,,,,,,,,
,,,,57d940a5995a0b00016350be,B,2024-06-21_17h20.00.477,Slot Machine Game,2023.1.3,Win32,59.88023952,,,,,,,,,,,,,,,,,,,,,,,,,,,,,,,,,,,,,,,,,,,,,,,,2,5,,,441.337,8,,,,1.5,0.3,,,,,8,0,8,0,1,,,,,,,,,,
,,,,57d940a5995a0b00016350be,B,2024-06-21_17h20.00.477,Slot Machine Game,2023.1.3,Win32,59.88023952,,,,,,,,,,,,,,,,,,,,,,,,,,,,,,,,,,,,,,,,,,,,,,,,2,5,,,446.853,9,,,,1.5,0.3,,,,,9,0,9,0,1,,,,,,,,,,
,,,,57d940a5995a0b00016350be,B,2024-06-21_17h20.00.477,Slot Machine Game,2023.1.3,Win32,59.88023952,,,,,,,,,,,,,,,,,,,,,,,,,,,,,,,,,140,,,,,,,,,,,,,,,2,5,,,452.3688,10,up,4.4671,,1.5,0.3,"[3,1,2]",0.882920804,stimuli/card_100_transparent.png,100,10,0,10,0,1,,,,,,,,,,
,,,,57d940a5995a0b00016350be,B,2024-06-21_17h20.00.477,Slot Machine Game,2023.1.3,Win32,59.88023952,,,,,,,,,,,,,,,,,,,,,,,,,,,,,,,,,140,,,,,,,,,,,,,,,2,5,,,459.1694,11,up,0.6759,,1.5,0.3,"[3,1,2]",0.014572636,stimuli/card_0_transparent.png,0,11,0,11,0,1,,,,,,,,,,
,,,,57d940a5995a0b00016350be,B,2024-06-21_17h20.00.477,Slot Machine Game,2023.1.3,Win32,59.88023952,,,,,,,,,,,,,,,,,,,,,,,,,,,,,,,,,240,,,,,,,,,,,,,,,2,5,,,462.1697,12,up,0.9512,,1.5,0.3,"[3,1,2]",0.727689987,stimuli/card_100_transparent.png,100,12,0,12,0,1,,,,,,,,,,
,,,,57d940a5995a0b00016350be,B,2024-06-21_17h20.00.477,Slot Machine Game,2023.1.3,Win32,59.88023952,,,,,,,,,,,,,,,,,,,,,,,,,,,,,,,,,340,,,,,,,,,,,,,,,2,5,,,465.4535,13,up,0.9234,,1.5,0.3,"[3,1,2]",0.231782231,stimuli/card_100_transparent.png,100,13,0,13,0,1,,,,,,,,,,
,,,,57d940a5995a0b00016350be,B,2024-06-21_17h20.00.477,Slot Machine Game,2023.1.3,Win32,59.88023952,,,,,,,,,,,,,,,,,,,,,,,,,,,,,,,,,440,,,,,,,,,,,,,,,2,5,,,468.7034,14,up,0.417,,1,0.3,"[3,1,2]",0.680583939,stimuli/card_100_transparent.png,100,14,0,14,0,1,,,,,,,,,,
,,,,57d940a5995a0b00016350be,B,2024-06-21_17h20.00.477,Slot Machine Game,2023.1.3,Win32,59.88023952,,,,,,,,,,,,,,,,,,,,,,,,,,,,,,,,,,,470.9537,,,,,,,,,,,,,,,,,,,,,,,,,,,,,,,,,"[1400,440]",1,0,1,0,1,,,,
,,,,57d940a5995a0b00016350be,B,2024-06-21_17h20.00.477,Slot Machine Game,2023.1.3,Win32,59.88023952,,,,,,,,,,,,,,,,,,,,,,,,,,,,,,,,,,,,,,,,,,,,,,,,3,9,"[8,15]","[[3,2,1],[3,1,2]]",475.9873,0,,,,0.5,0.3,,,,,0,0,0,0,1,,,,,,,,,,
,,,,57d940a5995a0b00016350be,B,2024-06-21_17h20.00.477,Slot Machine Game,2023.1.3,Win32,59.88023952,,,,,,,,,,,,,,,,,,,,,,,,,,,,,,,,,10,,,,,,,,,,,,,,,3,9,,,481.5085,1,up,3.0335,,1.5,0.3,"[3,2,1]",0.279383982,stimuli/card_10_transparent.png,10,1,0,1,0,1,,,,,,,,,,
,,,,57d940a5995a0b00016350be,B,2024-06-21_17h20.00.477,Slot Machine Game,2023.1.3,Win32,59.88023952,,,,,,,,,,,,,,,,,,,,,,,,,,,,,,,,,10,,,,,,,,,,,,,,,3,9,,,486.8705,2,up,2.0049,,0.5,0.3,"[3,2,1]",0.016424898,stimuli/card_0_transparent.png,0,2,0,2,0,1,,,,,,,,,,
,,,,57d940a5995a0b00016350be,B,2024-06-21_17h20.00.477,Slot Machine Game,2023.1.3,Win32,59.88023952,,,,,,,,,,,,,,,,,,,,,,,,,,,,,,,,,10,,,,,,,,,,,,,,,3,9,,,490.204,3,left,1.6215,,1.5,0.3,"[3,2,1]",0.634092703,stimuli/card_0_transparent.png,0,3,0,3,0,1,,,,,,,,,,
,,,,57d940a5995a0b00016350be,B,2024-06-21_17h20.00.477,Slot Machine Game,2023.1.3,Win32,59.88023952,,,,,,,,,,,,,,,,,,,,,,,,,,,,,,,,,,,,,,,,,,,,,,,,3,9,,,494.1549,4,,,,0.5,0.3,,,,,4,0,4,0,1,,,,,,,,,,
,,,,57d940a5995a0b00016350be,B,2024-06-21_17h20.00.477,Slot Machine Game,2023.1.3,Win32,59.88023952,,,,,,,,,,,,,,,,,,,,,,,,,,,,,,,,,10,,,,,,,,,,,,,,,3,9,,,499.6717,5,left,1.818,,1.5,0.3,"[3,2,1]",0.955558911,stimuli/card_0_transparent.png,0,5,0,5,0,1,,,,,,,,,,
,,,,57d940a5995a0b00016350be,B,2024-06-21_17h20.00.477,Slot Machine Game,2023.1.3,Win32,59.88023952,,,,,,,,,,,,,,,,,,,,,,,,,,,,,,,,,,,,,,,,,,,,,,,,3,9,,,503.8223,6,,,,1,0.3,,,,,6,0,6,0,1,,,,,,,,,,
,,,,57d940a5995a0b00016350be,B,2024-06-21_17h20.00.477,Slot Machine Game,2023.1.3,Win32,59.88023952,,,,,,,,,,,,,,,,,,,,,,,,,,,,,,,,,,,,,,,,,,,,,,,,3,9,,,509.3407,7,,,,1,0.3,,,,,7,0,7,0,1,,,,,,,,,,
,,,,57d940a5995a0b00016350be,B,2024-06-21_17h20.00.477,Slot Machine Game,2023.1.3,Win32,59.88023952,,,,,,,,,,,,,,,,,,,,,,,,,,,,,,,,,,,,,,,,,,,,,,,,3,9,,,514.856,8,,,,1,0.3,,,,,8,0,8,0,1,,,,,,,,,,
,,,,57d940a5995a0b00016350be,B,2024-06-21_17h20.00.477,Slot Machine Game,2023.1.3,Win32,59.88023952,,,,,,,,,,,,,,,,,,,,,,,,,,,,,,,,,,,,,,,,,,,,,,,,3,9,,,520.3739,9,,,,0.5,0.3,,,,,9,0,9,0,1,,,,,,,,,,
,,,,57d940a5995a0b00016350be,B,2024-06-21_17h20.00.477,Slot Machine Game,2023.1.3,Win32,59.88023952,,,,,,,,,,,,,,,,,,,,,,,,,,,,,,,,,,,,,,,,,,,,,,,,3,9,,,525.89,10,,,,0.5,0.3,,,,,10,0,10,0,1,,,,,,,,,,
,,,,57d940a5995a0b00016350be,B,2024-06-21_17h20.00.477,Slot Machine Game,2023.1.3,Win32,59.88023952,,,,,,,,,,,,,,,,,,,,,,,,,,,,,,,,,,,,,,,,,,,,,,,,3,9,,,531.4073,11,,,,1,0.3,,,,,11,0,11,0,1,,,,,,,,,,
,,,,57d940a5995a0b00016350be,B,2024-06-21_17h20.00.477,Slot Machine Game,2023.1.3,Win32,59.88023952,,,,,,,,,,,,,,,,,,,,,,,,,,,,,,,,,110,,,,,,,,,,,,,,,3,9,,,536.9248,12,up,3.4571,,0.5,0.3,"[3,1,2]",0.77455338,stimuli/card_100_transparent.png,100,12,0,12,0,1,,,,,,,,,,
,,,,57d940a5995a0b00016350be,B,2024-06-21_17h20.00.477,Slot Machine Game,2023.1.3,Win32,59.88023952,,,,,,,,,,,,,,,,,,,,,,,,,,,,,,,,,210,,,,,,,,,,,,,,,3,9,,,541.7076,13,up,0.088,,1,0.3,"[3,1,2]",0.258342731,stimuli/card_100_transparent.png,100,13,0,13,0,1,,,,,,,,,,
,,,,57d940a5995a0b00016350be,B,2024-06-21_17h20.00.477,Slot Machine Game,2023.1.3,Win32,59.88023952,,,,,,,,,,,,,,,,,,,,,,,,,,,,,,,,,310,,,,,,,,,,,,,,,3,9,,,543.6245,14,up,1.8874,,1,0.3,"[3,1,2]",0.965919164,stimuli/card_100_transparent.png,100,14,0,14,0,1,,,,,,,,,,
,,,,57d940a5995a0b00016350be,B,2024-06-21_17h20.00.477,Slot Machine Game,2023.1.3,Win32,59.88023952,,,,,,,,,,,,,,,,,,,,,,,,,,,,,,,,,,,547.3408,,,,,,,,,,,,,,,,,,,,,,,,,,,,,,,,,"[1400,440,310]",2,0,2,0,1,,,,
,,,,57d940a5995a0b00016350be,B,2024-06-21_17h20.00.477,Slot Machine Game,2023.1.3,Win32,59.88023952,,,,,,,,,,,,,,,,,,,,,,,,,,,,,,,,,100,,,,,,,,,,,,,,,4,1,"[12,15]","[[2,1,3],[2,3,1]]",552.3723,0,up,2.5177,,1,0.3,"[2,1,3]",0.239524688,stimuli/card_100_transparent.png,100,0,0,0,0,1,,,,,,,,,,
,,,,57d940a5995a0b00016350be,B,2024-06-21_17h20.00.477,Slot Machine Game,2023.1.3,Win32,59.88023952,,,,,,,,,,,,,,,,,,,,,,,,,,,,,,,,,200,,,,,,,,,,,,,,,4,1,,,556.708,1,up,1.9748,,0.5,0.3,"[2,1,3]",0.959480037,stimuli/card_100_transparent.png,100,1,0,1,0,1,,,,,,,,,,
,,,,57d940a5995a0b00016350be,B,2024-06-21_17h20.00.477,Slot Machine Game,2023.1.3,Win32,59.88023952,,,,,,,,,,,,,,,,,,,,,,,,,,,,,,,,,300,,,,,,,,,,,,,,,4,1,,,560.0082,2,up,2.6504,,1,0.3,"[2,1,3]",0.346450309,stimuli/card_100_transparent.png,100,2,0,2,0,1,,,,,,,,,,
,,,,57d940a5995a0b00016350be,B,2024-06-21_17h20.00.477,Slot Machine Game,2023.1.3,Win32,59.88023952,,,,,,,,,,,,,,,,,,,,,,,,,,,,,,,,,310,,,,,,,,,,,,,,,4,1,,,564.4923,3,up,0.458,,1,0.3,"[2,1,3]",0.189142645,stimuli/card_10_transparent.png,10,3,0,3,0,1,,,,,,,,,,
,,,,57d940a5995a0b00016350be,B,2024-06-21_17h20.00.477,Slot Machine Game,2023.1.3,Win32,59.88023952,,,,,,,,,,,,,,,,,,,,,,,,,,,,,,,,,410,,,,,,,,,,,,,,,4,1,,,566.775,4,up,0.3648,,0.5,0.3,"[2,1,3]",0.369819305,stimuli/card_100_transparent.png,100,4,0,4,0,1,,,,,,,,,,
,,,,57d940a5995a0b00016350be,B,2024-06-21_17h20.00.477,Slot Machine Game,2023.1.3,Win32,59.88023952,,,,,,,,,,,,,,,,,,,,,,,,,,,,,,,,,510,,,,,,,,,,,,,,,4,1,,,568.4754,5,up,2.0354,,1.5,0.3,"[2,1,3]",0.44563102,stimuli/card_100_transparent.png,100,5,0,5,0,1,,,,,,,,,,
,,,,57d940a5995a0b00016350be,B,2024-06-21_17h20.00.477,Slot Machine Game,2023.1.3,Win32,59.88023952,,,,,,,,,,,,,,,,,,,,,,,,,,,,,,,,,510,,,,,,,,,,,,,,,4,1,,,572.8427,6,up,0.8682,,1,0.3,"[2,1,3]",0.089082361,stimuli/card_0_transparent.png,0,6,0,6,0,1,,,,,,,,,,
,,,,57d940a5995a0b00016350be,B,2024-06-21_17h20.00.477,Slot Machine Game,2023.1.3,Win32,59.88023952,,,,,,,,,,,,,,,,,,,,,,,,,,,,,,,,,610,,,,,,,,,,,,,,,4,1,,,575.543,7,up,1.4753,,1.5,0.3,"[2,1,3]",0.884245079,stimuli/card_100_transparent.png,100,7,0,7,0,1,,,,,,,,,,
,,,,57d940a5995a0b00016350be,B,2024-06-21_17h20.00.477,Slot Machine Game,2023.1.3,Win32,59.88023952,,,,,,,,,,,,,,,,,,,,,,,,,,,,,,,,,710,,,,,,,,,,,,,,,4,1,,,579.3425,8,up,0.6684,,1.5,0.3,"[2,1,3]",0.665660824,stimuli/card_100_transparent.png,100,8,0,8,0,1,,,,,,,,,,
,,,,57d940a5995a0b00016350be,B,2024-06-21_17h20.00.477,Slot Machine Game,2023.1.3,Win32,59.88023952,,,,,,,,,,,,,,,,,,,,,,,,,,,,,,,,,720,,,,,,,,,,,,,,,4,1,,,582.3259,9,up,0.0856,,0.5,0.3,"[2,1,3]",0.116697784,stimuli/card_10_transparent.png,10,9,0,9,0,1,,,,,,,,,,
,,,,57d940a5995a0b00016350be,B,2024-06-21_17h20.00.477,Slot Machine Game,2023.1.3,Win32,59.88023952,,,,,,,,,,,,,,,,,,,,,,,,,,,,,,,,,820,,,,,,,,,,,,,,,4,1,,,583.7261,10,up,1.0487,,1.5,0.3,"[2,1,3]",0.323742713,stimuli/card_100_transparent.png,100,10,0,10,0,1,,,,,,,,,,
,,,,57d940a5995a0b00016350be,B,2024-06-21_17h20.00.477,Slot Machine Game,2023.1.3,Win32,59.88023952,,,,,,,,,,,,,,,,,,,,,,,,,,,,,,,,,920,,,,,,,,,,,,,,,4,1,,,587.0937,11,up,0.9699,,1,0.3,"[2,1,3]",0.647620013,stimuli/card_100_transparent.png,100,11,0,11,0,1,,,,,,,,,,
,,,,57d940a5995a0b00016350be,B,2024-06-21_17h20.00.477,Slot Machine Game,2023.1.3,Win32,59.88023952,,,,,,,,,,,,,,,,,,,,,,,,,,,,,,,,,920,,,,,,,,,,,,,,,4,1,,,589.8939,12,up,1.0093,,1.5,0.3,"[2,3,1]",0.844637347,stimuli/card_0_transparent.png,0,12,0,12,0,1,,,,,,,,,,
,,,,57d940a5995a0b00016350be,B,2024-06-21_17h20.00.477,Slot Machine Game,2023.1.3,Win32,59.88023952,,,,,,,,,,,,,,,,,,,,,,,,,,,,,,,,,1020,,,,,,,,,,,,,,,4,1,,,593.2271,13,up,0.9701,,1,0.3,"[2,3,1]",0.036926203,stimuli/card_100_transparent.png,100,13,0,13,0,1,,,,,,,,,,
,,,,57d940a5995a0b00016350be,B,2024-06-21_17h20.00.477,Slot Machine Game,2023.1.3,Win32,59.88023952,,,,,,,,,,,,,,,,,,,,,,,,,,,,,,,,,1020,,,,,,,,,,,,,,,4,1,,,596.0274,14,up,1.0009,,0.5,0.3,"[2,3,1]",0.206395529,stimuli/card_0_transparent.png,0,14,0,14,0,1,,,,,,,,,,
,,,,57d940a5995a0b00016350be,B,2024-06-21_17h20.00.477,Slot Machine Game,2023.1.3,Win32,59.88023952,,,,,,,,,,,,,,,,,,,,,,,,,,,,,,,,,,,598.361,,,,,,,,,,,,,,,,,,,,,,,,,,,,,,,,,"[1400,440,310,1020]",3,0,3,0,1,,,,
,,,,57d940a5995a0b00016350be,B,2024-06-21_17h20.00.477,Slot Machine Game,2023.1.3,Win32,59.88023952,,,,,,,,,,,,,,,,,,,,,,,,,,,,,,,,,0,,,,,,,,,,,,,,,5,2,"[6,15]","[[1,3,2],[3,2,1]]",603.3786,0,up,2.0158,,1.5,0.3,"[1,3,2]",0.891141676,stimuli/card_0_transparent.png,0,0,0,0,0,1,,,,,,,,,,
,,,,57d940a5995a0b00016350be,B,2024-06-21_17h20.00.477,Slot Machine Game,2023.1.3,Win32,59.88023952,,,,,,,,,,,,,,,,,,,,,,,,,,,,,,,,,0,,,,,,,,,,,,,,,5,2,,,607.7277,1,up,2.0041,,1.5,0.3,"[1,3,2]",0.717388145,stimuli/card_0_transparent.png,0,1,0,1,0,1,,,,,,,,,,
,,,,57d940a5995a0b00016350be,B,2024-06-21_17h20.00.477,Slot Machine Game,2023.1.3,Win32,59.88023952,,,,,,,,,,,,,,,,,,,,,,,,,,,,,,,,,0,,,,,,,,,,,,,,,5,2,,,612.0611,2,left,3.8339,,0.5,0.3,"[1,3,2]",0.052045304,stimuli/card_0_transparent.png,0,2,0,2,0,1,,,,,,,,,,
,,,,57d940a5995a0b00016350be,B,2024-06-21_17h20.00.477,Slot Machine Game,2023.1.3,Win32,59.88023952,,,,,,,,,,,,,,,,,,,,,,,,,,,,,,,,,0,,,,,,,,,,,,,,,5,2,,,617.2279,3,left,1.2555,,1.5,0.3,"[1,3,2]",0.082143885,stimuli/card_0_transparent.png,0,3,0,3,0,1,,,,,,,,,,
,,,,57d940a5995a0b00016350be,B,2024-06-21_17h20.00.477,Slot Machine Game,2023.1.3,Win32,59.88023952,,,,,,,,,,,,,,,,,,,,,,,,,,,,,,,,,100,,,,,,,,,,,,,,,5,2,,,620.8123,4,left,1.2001,,1.5,0.3,"[1,3,2]",0.492708161,stimuli/card_100_transparent.png,100,4,0,4,0,1,,,,,,,,,,
,,,,57d940a5995a0b00016350be,B,2024-06-21_17h20.00.477,Slot Machine Game,2023.1.3,Win32,59.88023952,,,,,,,,,,,,,,,,,,,,,,,,,,,,,,,,,,,,,,,,,,,,,,,,5,2,,,624.3451,5,,,,1.5,0.3,,,,,5,0,5,0,1,,,,,,,,,,
,,,,57d940a5995a0b00016350be,B,2024-06-21_17h20.00.477,Slot Machine Game,2023.1.3,Win32,59.88023952,,,,,,,,,,,,,,,,,,,,,,,,,,,,,,,,,,,,,,,,,,,,,,,,5,2,,,629.8524,6,,,,1,0.3,,,,,6,0,6,0,1,,,,,,,,,,
,,,,57d940a5995a0b00016350be,B,2024-06-21_17h20.00.477,Slot Machine Game,2023.1.3,Win32,59.88023952,,,,,,,,,,,,,,,,,,,,,,,,,,,,,,,,,,,,,,,,,,,,,,,,5,2,,,635.3634,7,,,,1,0.3,,,,,7,0,7,0,1,,,,,,,,,,
,,,,57d940a5995a0b00016350be,B,2024-06-21_17h20.00.477,Slot Machine Game,2023.1.3,Win32,59.88023952,,,,,,,,,,,,,,,,,,,,,,,,,,,,,,,,,,,,,,,,,,,,,,,,5,2,,,640.8808,8,,,,0.5,0.3,,,,,8,0,8,0,1,,,,,,,,,,
,,,,57d940a5995a0b00016350be,B,2024-06-21_17h20.00.477,Slot Machine Game,2023.1.3,Win32,59.88023952,,,,,,,,,,,,,,,,,,,,,,,,,,,,,,,,,,,,,,,,,,,,,,,,5,2,,,646.3975,9,,,,0.5,0.3,,,,,9,0,9,0,1,,,,,,,,,,
,,,,57d940a5995a0b00016350be,B,2024-06-21_17h20.00.477,Slot Machine Game,2023.1.3,Win32,59.88023952,,,,,,,,,,,,,,,,,,,,,,,,,,,,,,,,,,,,,,,,,,,,,,,,5,2,,,651.9159,10,,,,1,0.3,,,,,10,0,10,0,1,,,,,,,,,,
,,,,57d940a5995a0b00016350be,B,2024-06-21_17h20.00.477,Slot Machine Game,2023.1.3,Win32,59.88023952,,,,,,,,,,,,,,,,,,,,,,,,,,,,,,,,,110,,,,,,,,,,,,,,,5,2,,,657.4311,11,up,0.5847,,0.5,0.3,"[3,2,1]",0.562468059,stimuli/card_10_transparent.png,10,11,0,11,0,1,,,,,,,,,,
,,,,57d940a5995a0b00016350be,B,2024-06-21_17h20.00.477,Slot Machine Game,2023.1.3,Win32,59.88023952,,,,,,,,,,,,,,,,,,,,,,,,,,,,,,,,,120,,,,,,,,,,,,,,,5,2,,,659.3476,12,up,0.6383,,1,0.3,"[3,2,1]",0.378044675,stimuli/card_10_transparent.png,10,12,0,12,0,1,,,,,,,,,,
,,,,57d940a5995a0b00016350be,B,2024-06-21_17h20.00.477,Slot Machine Game,2023.1.3,Win32,59.88023952,,,,,,,,,,,,,,,,,,,,,,,,,,,,,,,,,130,,,,,,,,,,,,,,,5,2,,,661.8142,13,up,0.0679,,0.5,0.3,"[3,2,1]",0.470401904,stimuli/card_10_transparent.png,10,13,0,13,0,1,,,,,,,,,,
,,,,57d940a5995a0b00016350be,B,2024-06-21_17h20.00.477,Slot Machine Game,2023.1.3,Win32,59.88023952,,,,,,,,,,,,,,,,,,,,,,,,,,,,,,,,,230,,,,,,,,,,,,,,,5,2,,,663.2146,14,up,1.3068,,1.5,0.3,"[3,2,1]",0.141156618,stimuli/card_100_transparent.png,100,14,0,14,0,1,,,,,,,,,,
,,,,57d940a5995a0b00016350be,B,2024-06-21_17h20.00.477,Slot Machine Game,2023.1.3,Win32,59.88023952,,,,,,,,,,,,,,,,,,,,,,,,,,,,,,,,,,,666.8483,,,,,,,,,,,,,,,,,,,,,,,,,,,,,,,,,"[1400,440,310,1020,230]",4,0,4,0,1,,,,
,,,,57d940a5995a0b00016350be,B,2024-06-21_17h20.00.477,Slot Machine Game,2023.1.3,Win32,59.88023952,,,,,,,,,,,,,,,,,,,,,,,,,,,,,,,,,0,,,,,,,,,,,,,,,6,4,"[7,15]","[[2,3,1],[1,2,3]]",671.8846,0,up,2.0843,,0.5,0.3,"[2,3,1]",0.390188612,stimuli/card_0_transparent.png,0,0,0,0,0,1,,,,,,,,,,
,,,,57d940a5995a0b00016350be,B,2024-06-21_17h20.00.477,Slot Machine Game,2023.1.3,Win32,59.88023952,,,,,,,,,,,,,,,,,,,,,,,,,,,,,,,,,0,,,,,,,,,,,,,,,6,4,,,675.2983,1,up,0.3511,,0.5,0.3,"[2,3,1]",0.70223629,stimuli/card_0_transparent.png,0,1,0,1,0,1,,,,,,,,,,
,,,,57d940a5995a0b00016350be,B,2024-06-21_17h20.00.477,Slot Machine Game,2023.1.3,Win32,59.88023952,,,,,,,,,,,,,,,,,,,,,,,,,,,,,,,,,100,,,,,,,,,,,,,,,6,4,,,676.9817,2,up,0.369,,1,0.3,"[2,3,1]",0.064323401,stimuli/card_100_transparent.png,100,2,0,2,0,1,,,,,,,,,,
,,,,57d940a5995a0b00016350be,B,2024-06-21_17h20.00.477,Slot Machine Game,2023.1.3,Win32,59.88023952,,,,,,,,,,,,,,,,,,,,,,,,,,,,,,,,,100,,,,,,,,,,,,,,,6,4,,,679.1822,3,up,0.1523,,1.5,0.3,"[2,3,1]",0.321049447,stimuli/card_0_transparent.png,0,3,0,3,0,1,,,,,,,,,,
,,,,57d940a5995a0b00016350be,B,2024-06-21_17h20.00.477,Slot Machine Game,2023.1.3,Win32,59.88023952,,,,,,,,,,,,,,,,,,,,,,,,,,,,,,,,,110,,,,,,,,,,,,,,,6,4,,,681.6651,4,left,1.2838,,1.5,0.3,"[2,3,1]",0.796402114,stimuli/card_10_transparent.png,10,4,0,4,0,1,,,,,,,,,,
,,,,57d940a5995a0b00016350be,B,2024-06-21_17h20.00.477,Slot Machine Game,2023.1.3,Win32,59.88023952,,,,,,,,,,,,,,,,,,,,,,,,,,,,,,,,,,,,,,,,,,,,,,,,6,4,,,685.2654,5,,,,1.5,0.3,,,,,5,0,5,0,1,,,,,,,,,,
,,,,57d940a5995a0b00016350be,B,2024-06-21_17h20.00.477,Slot Machine Game,2023.1.3,Win32,59.88023952,,,,,,,,,,,,,,,,,,,,,,,,,,,,,,,,,,,,,,,,,,,,,,,,6,4,,,690.7854,6,,,,1,0.3,,,,,6,0,6,0,1,,,,,,,,,,
,,,,57d940a5995a0b00016350be,B,2024-06-21_17h20.00.477,Slot Machine Game,2023.1.3,Win32,59.88023952,,,,,,,,,,,,,,,,,,,,,,,,,,,,,,,,,210,,,,,,,,,,,,,,,6,4,,,696.3004,7,left,0.3588,,1.5,0.3,"[1,2,3]",0.819456381,stimuli/card_100_transparent.png,100,7,0,7,0,1,,,,,,,,,,
,,,,57d940a5995a0b00016350be,B,2024-06-21_17h20.00.477,Slot Machine Game,2023.1.3,Win32,59.88023952,,,,,,,,,,,,,,,,,,,,,,,,,,,,,,,,,310,,,,,,,,,,,,,,,6,4,,,698.9829,8,left,4.0011,,0.5,0.3,"[1,2,3]",0.805323494,stimuli/card_100_transparent.png,100,8,0,8,0,1,,,,,,,,,,
,,,,57d940a5995a0b00016350be,B,2024-06-21_17h20.00.477,Slot Machine Game,2023.1.3,Win32,59.88023952,,,,,,,,,,,,,,,,,,,,,,,,,,,,,,,,,,,,,,,,,,,,,,,,6,4,,,704.3166,9,,,,1,0.3,,,,,9,0,9,0,1,,,,,,,,,,
,,,,57d940a5995a0b00016350be,B,2024-06-21_17h20.00.477,Slot Machine Game,2023.1.3,Win32,59.88023952,,,,,,,,,,,,,,,,,,,,,,,,,,,,,,,,,410,,,,,,,,,,,,,,,6,4,,,709.823,10,left,1.1407,,1.5,0.3,"[1,2,3]",0.582294708,stimuli/card_100_transparent.png,100,10,0,10,0,1,,,,,,,,,,
,,,,57d940a5995a0b00016350be,B,2024-06-21_17h20.00.477,Slot Machine Game,2023.1.3,Win32,59.88023952,,,,,,,,,,,,,,,,,,,,,,,,,,,,,,,,,,,,,,,,,,,,,,,,6,4,,,713.2835,11,,,,1.5,0.3,,,,,11,0,11,0,1,,,,,,,,,,
,,,,57d940a5995a0b00016350be,B,2024-06-21_17h20.00.477,Slot Machine Game,2023.1.3,Win32,59.88023952,,,,,,,,,,,,,,,,,,,,,,,,,,,,,,,,,,,,,,,,,,,,,,,,6,4,,,718.7896,12,,,,1.5,0.3,,,,,12,0,12,0,1,,,,,,,,,,
,,,,57d940a5995a0b00016350be,B,2024-06-21_17h20.00.477,Slot Machine Game,2023.1.3,Win32,59.88023952,,,,,,,,,,,,,,,,,,,,,,,,,,,,,,,,,,,,,,,,,,,,,,,,6,4,,,724.3023,13,,,,1.5,0.3,,,,,13,0,13,0,1,,,,,,,,,,
,,,,57d940a5995a0b00016350be,B,2024-06-21_17h20.00.477,Slot Machine Game,2023.1.3,Win32,59.88023952,,,,,,,,,,,,,,,,,,,,,,,,,,,,,,,,,,,,,,,,,,,,,,,,6,4,,,729.8201,14,,,,0.5,0.3,,,,,14,0,14,0,1,,,,,,,,,,
,,,,57d940a5995a0b00016350be,B,2024-06-21_17h20.00.477,Slot Machine Game,2023.1.3,Win32,59.88023952,,,,,,,,,,,,,,,,,,,,,,,,,,,,,,,,,,,735.3353,,,,,,,,,,,,,,,,,,,,,,,,,,,,,,,,,"[1400,440,310,1020,230,410]",5,0,5,0,1,,,,
,,,,57d940a5995a0b00016350be,B,2024-06-21_17h20.00.477,Slot Machine Game,2023.1.3,Win32,59.88023952,,,,,,,,,,,,,,,,,,,,,,,,,,,,,,,,,100,,,,,,,,,,,,,,,7,10,"[10,15]","[[3,1,2],[1,3,2]]",740.3515,0,up,3.7687,,0.5,0.3,"[3,1,2]",0.993512366,stimuli/card_100_transparent.png,100,0,0,0,0,1,,,,,,,,,,
,,,,57d940a5995a0b00016350be,B,2024-06-21_17h20.00.477,Slot Machine Game,2023.1.3,Win32,59.88023952,,,,,,,,,,,,,,,,,,,,,,,,,,,,,,,,,200,,,,,,,,,,,,,,,7,10,,,745.4521,1,up,0.8423,,1.5,0.3,"[3,1,2]",0.293192748,stimuli/card_100_transparent.png,100,1,0,1,0,1,,,,,,,,,,
,,,,57d940a5995a0b00016350be,B,2024-06-21_17h20.00.477,Slot Machine Game,2023.1.3,Win32,59.88023952,,,,,,,,,,,,,,,,,,,,,,,,,,,,,,,,,300,,,,,,,,,,,,,,,7,10,,,748.6188,2,up,0.3339,,1,0.3,"[3,1,2]",0.451669656,stimuli/card_100_transparent.png,100,2,0,2,0,1,,,,,,,,,,
,,,,57d940a5995a0b00016350be,B,2024-06-21_17h20.00.477,Slot Machine Game,2023.1.3,Win32,59.88023952,,,,,,,,,,,,,,,,,,,,,,,,,,,,,,,,,400,,,,,,,,,,,,,,,7,10,,,750.7866,3,up,1.976,,1.5,0.3,"[3,1,2]",0.380918107,stimuli/card_100_transparent.png,100,3,0,3,0,1,,,,,,,,,,
,,,,57d940a5995a0b00016350be,B,2024-06-21_17h20.00.477,Slot Machine Game,2023.1.3,Win32,59.88023952,,,,,,,,,,,,,,,,,,,,,,,,,,,,,,,,,500,,,,,,,,,,,,,,,7,10,,,755.0865,4,up,0.5988,,1,0.3,"[3,1,2]",0.889123911,stimuli/card_100_transparent.png,100,4,0,4,0,1,,,,,,,,,,
,,,,57d940a5995a0b00016350be,B,2024-06-21_17h20.00.477,Slot Machine Game,2023.1.3,Win32,59.88023952,,,,,,,,,,,,,,,,,,,,,,,,,,,,,,,,,600,,,,,,,,,,,,,,,7,10,,,757.5193,5,up,1.3685,,0.5,0.3,"[3,1,2]",0.744762956,stimuli/card_100_transparent.png,100,5,0,5,0,1,,,,,,,,,,
,,,,57d940a5995a0b00016350be,B,2024-06-21_17h20.00.477,Slot Machine Game,2023.1.3,Win32,59.88023952,,,,,,,,,,,,,,,,,,,,,,,,,,,,,,,,,700,,,,,,,,,,,,,,,7,10,,,760.2195,6,up,1.3507,,1,0.3,"[3,1,2]",0.606496889,stimuli/card_100_transparent.png,100,6,0,6,0,1,,,,,,,,,,
,,,,57d940a5995a0b00016350be,B,2024-06-21_17h20.00.477,Slot Machine Game,2023.1.3,Win32,59.88023952,,,,,,,,,,,,,,,,,,,,,,,,,,,,,,,,,800,,,,,,,,,,,,,,,7,10,,,763.3869,7,up,0.6006,,1.5,0.3,"[3,1,2]",0.491279755,stimuli/card_100_transparent.png,100,7,0,7,0,1,,,,,,,,,,
,,,,57d940a5995a0b00016350be,B,2024-06-21_17h20.00.477,Slot Machine Game,2023.1.3,Win32,59.88023952,,,,,,,,,,,,,,,,,,,,,,,,,,,,,,,,,900,,,,,,,,,,,,,,,7,10,,,766.3202,8,up,0.3557,,1,0.3,"[3,1,2]",0.710698401,stimuli/card_100_transparent.png,100,8,0,8,0,1,,,,,,,,,,
,,,,57d940a5995a0b00016350be,B,2024-06-21_17h20.00.477,Slot Machine Game,2023.1.3,Win32,59.88023952,,,,,,,,,,,,,,,,,,,,,,,,,,,,,,,,,1000,,,,,,,,,,,,,,,7,10,,,768.5035,9,up,0.4843,,0.5,0.3,"[3,1,2]",0.991153524,stimuli/card_100_transparent.png,100,9,0,9,0,1,,,,,,,,,,
,,,,57d940a5995a0b00016350be,B,2024-06-21_17h20.00.477,Slot Machine Game,2023.1.3,Win32,59.88023952,,,,,,,,,,,,,,,,,,,,,,,,,,,,,,,,,1010,,,,,,,,,,,,,,,7,10,,,770.3204,10,up,1.1337,,1.5,0.3,"[1,3,2]",0.193990601,stimuli/card_10_transparent.png,10,10,0,10,0,1,,,,,,,,,,
,,,,57d940a5995a0b00016350be,B,2024-06-21_17h20.00.477,Slot Machine Game,2023.1.3,Win32,59.88023952,,,,,,,,,,,,,,,,,,,,,,,,,,,,,,,,,1010,,,,,,,,,,,,,,,7,10,,,773.7875,11,up,0.2066,,0.5,0.3,"[1,3,2]",0.789909705,stimuli/card_0_transparent.png,0,11,0,11,0,1,,,,,,,,,,
,,,,57d940a5995a0b00016350be,B,2024-06-21_17h20.00.477,Slot Machine Game,2023.1.3,Win32,59.88023952,,,,,,,,,,,,,,,,,,,,,,,,,,,,,,,,,1110,,,,,,,,,,,,,,,7,10,,,775.3211,12,up,1.3354,,1.5,0.3,"[1,3,2]",0.05332154,stimuli/card_100_transparent.png,100,12,0,12,0,1,,,,,,,,,,
,,,,57d940a5995a0b00016350be,B,2024-06-21_17h20.00.477,Slot Machine Game,2023.1.3,Win32,59.88023952,,,,,,,,,,,,,,,,,,,,,,,,,,,,,,,,,1110,,,,,,,,,,,,,,,7,10,,,778.9881,13,up,0.6675,,1,0.3,"[1,3,2]",0.997871333,stimuli/card_0_transparent.png,0,13,0,13,0,1,,,,,,,,,,
,,,,57d940a5995a0b00016350be,B,2024-06-21_17h20.00.477,Slot Machine Game,2023.1.3,Win32,59.88023952,,,,,,,,,,,,,,,,,,,,,,,,,,,,,,,,,1110,,,,,,,,,,,,,,,7,10,,,781.4876,14,up,0.7172,,1.5,0.3,"[1,3,2]",0.839915128,stimuli/card_0_transparent.png,0,14,0,14,0,1,,,,,,,,,,
,,,,57d940a5995a0b00016350be,B,2024-06-21_17h20.00.477,Slot Machine Game,2023.1.3,Win32,59.88023952,,,,,,,,,,,,,,,,,,,,,,,,,,,,,,,,,,,784.5378,,,,,,,,,,,,,,,,,,,,,,,,,,,,,,,,,"[1400,440,310,1020,230,410,1110]",6,0,6,0,1,,,,
,,,,57d940a5995a0b00016350be,B,2024-06-21_17h20.00.477,Slot Machine Game,2023.1.3,Win32,59.88023952,,,,,,,,,,,,,,,,,,,,,,,,,,,,,,,,,,,,,,,,,,,,,,,,8,7,"[9,15]","[[1,3,2],[2,3,1]]",789.5664,0,,,,1,0.3,,,,,0,0,0,0,1,,,,,,,,,,
,,,,57d940a5995a0b00016350be,B,2024-06-21_17h20.00.477,Slot Machine Game,2023.1.3,Win32,59.88023952,,,,,,,,,,,,,,,,,,,,,,,,,,,,,,,,,0,,,,,,,,,,,,,,,8,7,,,795.0767,1,left,2.5845,,1,0.3,"[1,3,2]",0.007021787,stimuli/card_0_transparent.png,0,1,0,1,0,1,,,,,,,,,,
,,,,57d940a5995a0b00016350be,B,2024-06-21_17h20.00.477,Slot Machine Game,2023.1.3,Win32,59.88023952,,,,,,,,,,,,,,,,,,,,,,,,,,,,,,,,,100,,,,,,,,,,,,,,,8,7,,,799.4886,2,left,0.974,,1.5,0.3,"[1,3,2]",0.796122845,stimuli/card_100_transparent.png,100,2,0,2,0,1,,,,,,,,,,
,,,,57d940a5995a0b00016350be,B,2024-06-21_17h20.00.477,Slot Machine Game,2023.1.3,Win32,59.88023952,,,,,,,,,,,,,,,,,,,,,,,,,,,,,,,,,200,,,,,,,,,,,,,,,8,7,,,802.7888,3,left,0.4516,,1.5,0.3,"[1,3,2]",0.532146278,stimuli/card_100_transparent.png,100,3,0,3,0,1,,,,,,,,,,
,,,,57d940a5995a0b00016350be,B,2024-06-21_17h20.00.477,Slot Machine Game,2023.1.3,Win32,59.88023952,,,,,,,,,,,,,,,,,,,,,,,,,,,,,,,,,300,,,,,,,,,,,,,,,8,7,,,805.5727,4,left,0.1097,,1.5,0.3,"[1,3,2]",0.34118834,stimuli/card_100_transparent.png,100,4,0,4,0,1,,,,,,,,,,
,,,,57d940a5995a0b00016350be,B,2024-06-21_17h20.00.477,Slot Machine Game,2023.1.3,Win32,59.88023952,,,,,,,,,,,,,,,,,,,,,,,,,,,,,,,,,400,,,,,,,,,,,,,,,8,7,,,808.0062,5,left,0.027,,0.5,0.3,"[1,3,2]",0.516102266,stimuli/card_100_transparent.png,100,5,0,5,0,1,,,,,,,,,,
,,,,57d940a5995a0b00016350be,B,2024-06-21_17h20.00.477,Slot Machine Game,2023.1.3,Win32,59.88023952,,,,,,,,,,,,,,,,,,,,,,,,,,,,,,,,,500,,,,,,,,,,,,,,,8,7,,,809.356,6,left,0.1833,,1.5,0.3,"[1,3,2]",0.731865874,stimuli/card_100_transparent.png,100,6,0,6,0,1,,,,,,,,,,
,,,,57d940a5995a0b00016350be,B,2024-06-21_17h20.00.477,Slot Machine Game,2023.1.3,Win32,59.88023952,,,,,,,,,,,,,,,,,,,,,,,,,,,,,,,,,600,,,,,,,,,,,,,,,8,7,,,811.873,7,left,0.4857,,0.5,0.3,"[1,3,2]",0.629055052,stimuli/card_100_transparent.png,100,7,0,7,0,1,,,,,,,,,,
,,,,57d940a5995a0b00016350be,B,2024-06-21_17h20.00.477,Slot Machine Game,2023.1.3,Win32,59.88023952,,,,,,,,,,,,,,,,,,,,,,,,,,,,,,,,,700,,,,,,,,,,,,,,,8,7,,,813.6903,8,left,0.9911,,1.5,0.3,"[1,3,2]",0.850372274,stimuli/card_100_transparent.png,100,8,0,8,0,1,,,,,,,,,,
,,,,57d940a5995a0b00016350be,B,2024-06-21_17h20.00.477,Slot Machine Game,2023.1.3,Win32,59.88023952,,,,,,,,,,,,,,,,,,,,,,,,,,,,,,,,,700,,,,,,,,,,,,,,,8,7,,,817.0065,9,left,0.2715,,1,0.3,"[2,3,1]",0.079562819,stimuli/card_0_transparent.png,0,9,0,9,0,1,,,,,,,,,,
,,,,57d940a5995a0b00016350be,B,2024-06-21_17h20.00.477,Slot Machine Game,2023.1.3,Win32,59.88023952,,,,,,,,,,,,,,,,,,,,,,,,,,,,,,,,,710,,,,,,,,,,,,,,,8,7,,,819.1063,10,left,1.5307,,0.5,0.3,"[2,3,1]",0.967412085,stimuli/card_10_transparent.png,10,10,0,10,0,1,,,,,,,,,,
,,,,57d940a5995a0b00016350be,B,2024-06-21_17h20.00.477,Slot Machine Game,2023.1.3,Win32,59.88023952,,,,,,,,,,,,,,,,,,,,,,,,,,,,,,,,,720,,,,,,,,,,,,,,,8,7,,,821.9571,11,left,0.7582,,0.5,0.3,"[2,3,1]",0.225172388,stimuli/card_10_transparent.png,10,11,0,11,0,1,,,,,,,,,,
,,,,57d940a5995a0b00016350be,B,2024-06-21_17h20.00.477,Slot Machine Game,2023.1.3,Win32,59.88023952,,,,,,,,,,,,,,,,,,,,,,,,,,,,,,,,,730,,,,,,,,,,,,,,,8,7,,,824.0404,12,left,0.3523,,0.5,0.3,"[2,3,1]",0.420891771,stimuli/card_10_transparent.png,10,12,0,12,0,1,,,,,,,,,,
,,,,57d940a5995a0b00016350be,B,2024-06-21_17h20.00.477,Slot Machine Game,2023.1.3,Win32,59.88023952,,,,,,,,,,,,,,,,,,,,,,,,,,,,,,,,,740,,,,,,,,,,,,,,,8,7,,,825.7235,13,left,0.3093,,0.5,0.3,"[2,3,1]",0.787729228,stimuli/card_10_transparent.png,10,13,0,13,0,1,,,,,,,,,,
,,,,57d940a5995a0b00016350be,B,2024-06-21_17h20.00.477,Slot Machine Game,2023.1.3,Win32,59.88023952,,,,,,,,,,,,,,,,,,,,,,,,,,,,,,,,,740,,,,,,,,,,,,,,,8,7,,,827.3569,14,left,1.3202,,0.5,0.3,"[2,3,1]",0.076871507,stimuli/card_0_transparent.png,0,14,0,14,0,1,,,,,,,,,,
,,,,57d940a5995a0b00016350be,B,2024-06-21_17h20.00.477,Slot Machine Game,2023.1.3,Win32,59.88023952,,,,,,,,,,,,,,,,,,,,,,,,,,,,,,,,,,,829.9902,,,,,,,,,,,,,,,,,,,,,,,,,,,,,,,,,"[1400,440,310,1020,230,410,1110,740]",7,0,7,0,1,,,,
,,,,57d940a5995a0b00016350be,B,2024-06-21_17h20.00.477,Slot Machine Game,2023.1.3,Win32,59.88023952,,,,,,,,,,,,,,,,,,,,,,,,,,,,,,,,,,,,,,,,,,,,,,,,9,9,[15],"[[3,1,2]]",835.0051,0,,,,1,0.3,,,,,0,0,0,0,1,,,,,,,,,,
,,,,57d940a5995a0b00016350be,B,2024-06-21_17h20.00.477,Slot Machine Game,2023.1.3,Win32,59.88023952,,,,,,,,,,,,,,,,,,,,,,,,,,,,,,,,,100,,,,,,,,,,,,,,,9,9,,,840.514,1,up,0.3983,,1,0.3,"[3,1,2]",0.904974216,stimuli/card_100_transparent.png,100,1,0,1,0,1,,,,,,,,,,
,,,,57d940a5995a0b00016350be,B,2024-06-21_17h20.00.477,Slot Machine Game,2023.1.3,Win32,59.88023952,,,,,,,,,,,,,,,,,,,,,,,,,,,,,,,,,200,,,,,,,,,,,,,,,9,9,,,842.741,2,up,0.0358,,1.5,0.3,"[3,1,2]",0.252903496,stimuli/card_100_transparent.png,100,2,0,2,0,1,,,,,,,,,,
,,,,57d940a5995a0b00016350be,B,2024-06-21_17h20.00.477,Slot Machine Game,2023.1.3,Win32,59.88023952,,,,,,,,,,,,,,,,,,,,,,,,,,,,,,,,,300,,,,,,,,,,,,,,,9,9,,,845.0913,3,up,1.9702,,1,0.3,"[3,1,2]",0.936644057,stimuli/card_100_transparent.png,100,3,0,3,0,1,,,,,,,,,,
,,,,57d940a5995a0b00016350be,B,2024-06-21_17h20.00.477,Slot Machine Game,2023.1.3,Win32,59.88023952,,,,,,,,,,,,,,,,,,,,,,,,,,,,,,,,,400,,,,,,,,,,,,,,,9,9,,,848.892,4,up,0.0085,,1,0.3,"[3,1,2]",0.839532065,stimuli/card_100_transparent.png,100,4,0,4,0,1,,,,,,,,,,
,,,,57d940a5995a0b00016350be,B,2024-06-21_17h20.00.477,Slot Machine Game,2023.1.3,Win32,59.88023952,,,,,,,,,,,,,,,,,,,,,,,,,,,,,,,,,500,,,,,,,,,,,,,,,9,9,,,850.7248,5,up,3.1374,,1,0.3,"[3,1,2]",0.865496597,stimuli/card_100_transparent.png,100,5,0,5,0,1,,,,,,,,,,
,,,,57d940a5995a0b00016350be,B,2024-06-21_17h20.00.477,Slot Machine Game,2023.1.3,Win32,59.88023952,,,,,,,,,,,,,,,,,,,,,,,,,,,,,,,,,600,,,,,,,,,,,,,,,9,9,,,855.6917,6,up,1.1514,,1,0.3,"[3,1,2]",0.653203726,stimuli/card_100_transparent.png,100,6,0,6,0,1,,,,,,,,,,
,,,,57d940a5995a0b00016350be,B,2024-06-21_17h20.00.477,Slot Machine Game,2023.1.3,Win32,59.88023952,,,,,,,,,,,,,,,,,,,,,,,,,,,,,,,,,700,,,,,,,,,,,,,,,9,9,,,858.6752,7,up,1.419,,0.5,0.3,"[3,1,2]",0.639651419,stimuli/card_100_transparent.png,100,7,0,7,0,1,,,,,,,,,,
,,,,57d940a5995a0b00016350be,B,2024-06-21_17h20.00.477,Slot Machine Game,2023.1.3,Win32,59.88023952,,,,,,,,,,,,,,,,,,,,,,,,,,,,,,,,,800,,,,,,,,,,,,,,,9,9,,,861.4256,8,up,0.0417,,1,0.3,"[3,1,2]",0.957376261,stimuli/card_100_transparent.png,100,8,0,8,0,1,,,,,,,,,,
,,,,57d940a5995a0b00016350be,B,2024-06-21_17h20.00.477,Slot Machine Game,2023.1.3,Win32,59.88023952,,,,,,,,,,,,,,,,,,,,,,,,,,,,,,,,,900,,,,,,,,,,,,,,,9,9,,,863.2923,9,up,1.236,,1,0.3,"[3,1,2]",0.73365662,stimuli/card_100_transparent.png,100,9,0,9,0,1,,,,,,,,,,
,,,,57d940a5995a0b00016350be,B,2024-06-21_17h20.00.477,Slot Machine Game,2023.1.3,Win32,59.88023952,,,,,,,,,,,,,,,,,,,,,,,,,,,,,,,,,1000,,,,,,,,,,,,,,,9,9,,,866.3592,10,up,1.0744,,1,0.3,"[3,1,2]",0.624752252,stimuli/card_100_transparent.png,100,10,0,10,0,1,,,,,,,,,,
,,,,57d940a5995a0b00016350be,B,2024-06-21_17h20.00.477,Slot Machine Game,2023.1.3,Win32,59.88023952,,,,,,,,,,,,,,,,,,,,,,,,,,,,,,,,,1100,,,,,,,,,,,,,,,9,9,,,869.2601,11,up,0.9552,,0.5,0.3,"[3,1,2]",0.465908152,stimuli/card_100_transparent.png,100,11,0,11,0,1,,,,,,,,,,
,,,,57d940a5995a0b00016350be,B,2024-06-21_17h20.00.477,Slot Machine Game,2023.1.3,Win32,59.88023952,,,,,,,,,,,,,,,,,,,,,,,,,,,,,,,,,1200,,,,,,,,,,,,,,,9,9,,,871.5428,12,up,1.3421,,0.5,0.3,"[3,1,2]",0.968243101,stimuli/card_100_transparent.png,100,12,0,12,0,1,,,,,,,,,,
,,,,57d940a5995a0b00016350be,B,2024-06-21_17h20.00.477,Slot Machine Game,2023.1.3,Win32,59.88023952,,,,,,,,,,,,,,,,,,,,,,,,,,,,,,,,,1200,,,,,,,,,,,,,,,9,9,,,874.2095,13,up,0.5861,,0.5,0.3,"[3,1,2]",0.085110269,stimuli/card_0_transparent.png,0,13,0,13,0,1,,,,,,,,,,
,,,,57d940a5995a0b00016350be,B,2024-06-21_17h20.00.477,Slot Machine Game,2023.1.3,Win32,59.88023952,,,,,,,,,,,,,,,,,,,,,,,,,,,,,,,,,1210,,,,,,,,,,,,,,,9,9,,,876.1267,14,up,0.1686,,1.5,0.3,"[3,1,2]",0.166929474,stimuli/card_10_transparent.png,10,14,0,14,0,1,,,,,,,,,,
,,,,57d940a5995a0b00016350be,B,2024-06-21_17h20.00.477,Slot Machine Game,2023.1.3,Win32,59.88023952,,,,,,,,,,,,,,,,,,,,,,,,,,,,,,,,,,,878.6273,,,,,,,,,,,,,,,,,,,,,,,,,,,,,,,,,"[1400,440,310,1020,230,410,1110,740,1210]",8,0,8,0,1,,,,
,,,,57d940a5995a0b00016350be,B,2024-06-21_17h20.00.477,Slot Machine Game,2023.1.3,Win32,59.88023952,,,,,,,,,,,,,,,,,,,,,,,,,,,,,,,,,,,,,,,,,,,,,,,,10,6,"[4,10,15]","[[2,3,1],[1,3,2],[3,2,1]]",883.6475,0,,,,1.5,0.3,,,,,0,0,0,0,1,,,,,,,,,,
,,,,57d940a5995a0b00016350be,B,2024-06-21_17h20.00.477,Slot Machine Game,2023.1.3,Win32,59.88023952,,,,,,,,,,,,,,,,,,,,,,,,,,,,,,,,,0,,,,,,,,,,,,,,,10,6,,,889.1642,1,up,2.8842,,0.5,0.3,"[2,3,1]",0.268272699,stimuli/card_0_transparent.png,0,1,0,1,0,1,,,,,,,,,,
,,,,57d940a5995a0b00016350be,B,2024-06-21_17h20.00.477,Slot Machine Game,2023.1.3,Win32,59.88023952,,,,,,,,,,,,,,,,,,,,,,,,,,,,,,,,,0,,,,,,,,,,,,,,,10,6,,,893.3775,2,up,0.8186,,1.5,0.3,"[2,3,1]",0.515771172,stimuli/card_0_transparent.png,0,2,0,2,0,1,,,,,,,,,,
,,,,57d940a5995a0b00016350be,B,2024-06-21_17h20.00.477,Slot Machine Game,2023.1.3,Win32,59.88023952,,,,,,,,,,,,,,,,,,,,,,,,,,,,,,,,,100,,,,,,,,,,,,,,,10,6,,,896.5284,3,up,0.02,,0.5,0.3,"[2,3,1]",0.057279305,stimuli/card_100_transparent.png,100,3,0,3,0,1,,,,,,,,,,
,,,,57d940a5995a0b00016350be,B,2024-06-21_17h20.00.477,Slot Machine Game,2023.1.3,Win32,59.88023952,,,,,,,,,,,,,,,,,,,,,,,,,,,,,,,,,110,,,,,,,,,,,,,,,10,6,,,897.8777,4,up,1.6654,,1.5,0.3,"[1,3,2]",0.128221264,stimuli/card_10_transparent.png,10,4,0,4,0,1,,,,,,,,,,
,,,,57d940a5995a0b00016350be,B,2024-06-21_17h20.00.477,Slot Machine Game,2023.1.3,Win32,59.88023952,,,,,,,,,,,,,,,,,,,,,,,,,,,,,,,,,110,,,,,,,,,,,,,,,10,6,,,901.8617,5,up,1.5414,,1.5,0.3,"[1,3,2]",0.292521794,stimuli/card_0_transparent.png,0,5,0,5,0,1,,,,,,,,,,
,,,,57d940a5995a0b00016350be,B,2024-06-21_17h20.00.477,Slot Machine Game,2023.1.3,Win32,59.88023952,,,,,,,,,,,,,,,,,,,,,,,,,,,,,,,,,110,,,,,,,,,,,,,,,10,6,,,905.7282,6,up,1.6434,,0.5,0.3,"[1,3,2]",0.561535943,stimuli/card_0_transparent.png,0,6,0,6,0,1,,,,,,,,,,
,,,,57d940a5995a0b00016350be,B,2024-06-21_17h20.00.477,Slot Machine Game,2023.1.3,Win32,59.88023952,,,,,,,,,,,,,,,,,,,,,,,,,,,,,,,,,120,,,,,,,,,,,,,,,10,6,,,908.6956,7,up,0.158,,1.5,0.3,"[1,3,2]",0.105396297,stimuli/card_10_transparent.png,10,7,0,7,0,1,,,,,,,,,,
,,,,57d940a5995a0b00016350be,B,2024-06-21_17h20.00.477,Slot Machine Game,2023.1.3,Win32,59.88023952,,,,,,,,,,,,,,,,,,,,,,,,,,,,,,,,,220,,,,,,,,,,,,,,,10,6,,,911.1786,8,up,0.6994,,0.5,0.3,"[1,3,2]",0.054952544,stimuli/card_100_transparent.png,100,8,0,8,0,1,,,,,,,,,,
,,,,57d940a5995a0b00016350be,B,2024-06-21_17h20.00.477,Slot Machine Game,2023.1.3,Win32,59.88023952,,,,,,,,,,,,,,,,,,,,,,,,,,,,,,,,,220,,,,,,,,,,,,,,,10,6,,,913.1953,9,up,0.3376,,1.5,0.3,"[1,3,2]",0.965005414,stimuli/card_0_transparent.png,0,9,0,9,0,1,,,,,,,,,,
,,,,57d940a5995a0b00016350be,B,2024-06-21_17h20.00.477,Slot Machine Game,2023.1.3,Win32,59.88023952,,,,,,,,,,,,,,,,,,,,,,,,,,,,,,,,,230,,,,,,,,,,,,,,,10,6,,,915.8629,10,up,0.0772,,1,0.3,"[3,2,1]",0.685698125,stimuli/card_10_transparent.png,10,10,0,10,0,1,,,,,,,,,,
,,,,57d940a5995a0b00016350be,B,2024-06-21_17h20.00.477,Slot Machine Game,2023.1.3,Win32,59.88023952,,,,,,,,,,,,,,,,,,,,,,,,,,,,,,,,,240,,,,,,,,,,,,,,,10,6,,,917.762,11,up,2.1003,,1.5,0.3,"[3,2,1]",0.982954968,stimuli/card_10_transparent.png,10,11,0,11,0,1,,,,,,,,,,
,,,,57d940a5995a0b00016350be,B,2024-06-21_17h20.00.477,Slot Machine Game,2023.1.3,Win32,59.88023952,,,,,,,,,,,,,,,,,,,,,,,,,,,,,,,,,250,,,,,,,,,,,,,,,10,6,,,922.1794,12,up,1.2203,,0.5,0.3,"[3,2,1]",0.828931475,stimuli/card_10_transparent.png,10,12,0,12,0,1,,,,,,,,,,
,,,,57d940a5995a0b00016350be,B,2024-06-21_17h20.00.477,Slot Machine Game,2023.1.3,Win32,59.88023952,,,,,,,,,,,,,,,,,,,,,,,,,,,,,,,,,260,,,,,,,,,,,,,,,10,6,,,924.7294,13,up,0.0861,,1.5,0.3,"[3,2,1]",0.5407483,stimuli/card_10_transparent.png,10,13,0,13,0,1,,,,,,,,,,
,,,,57d940a5995a0b00016350be,B,2024-06-21_17h20.00.477,Slot Machine Game,2023.1.3,Win32,59.88023952,,,,,,,,,,,,,,,,,,,,,,,,,,,,,,,,,270,,,,,,,,,,,,,,,10,6,,,927.1465,14,up,1.8711,,1.5,0.3,"[3,2,1]",0.277692336,stimuli/card_10_transparent.png,10,14,0,14,0,1,,,,,,,,,,
,,,,57d940a5995a0b00016350be,B,2024-06-21_17h20.00.477,Slot Machine Game,2023.1.3,Win32,59.88023952,,,,,,,,,,,,,,,,,,,,,,,,,,,,,,,,,,,931.3479,,,,,,,,,,,,,,,,,,,,,,,,,,,,,,,,,"[1400,440,310,1020,230,410,1110,740,1210,270]",9,0,9,0,1,,,,
,,,,57d940a5995a0b00016350be,B,2024-06-21_17h20.00.477,Slot Machine Game,2023.1.3,Win32,59.88023952,,,,,,,,,,,,,,,,,,,,,,,,,,,,,,,,,,,,,,,,,,,,,,,,,,,,,,,,,,,,,,,,,,,,,,,,,,9,"[1400,440,310,1020,230,410,1110,740,1210,270]",4.1,2024-06-21_17h35.41.262
