key_resp_welcome_started,key_resp_welcome_keys,key_resp_welcome_rt,key_resp_welcome_duration,prolific_id,path_id,date,expName,psychopyVersion,OS,frameRate,key_resp_instruction1_started,key_resp_instruction1_keys,key_resp_instruction1_rt,key_resp_instruction1_duration,key_resp_instruction2_started,key_resp_instruction2_keys,key_resp_instruction2_rt,key_resp_instruction2_duration,key_resp_instruction3_started,key_resp_instruction3_keys,key_resp_instruction3_rt,key_resp_instruction3_duration,key_resp_instruction4_started,key_resp_instruction4_keys,key_resp_instruction4_rt,key_resp_instruction4_duration,practiceCondition,practice_reward_seqs,practice_trial_started,practice_trial_num,practice_resp_rt,practice_resp_duration,practice_resp_keys,prac_presentationInterval,"practice_reward_seq: 2,1,3",reward_img,cumulative_reward,trial_reward,practice_trials.thisRepN,practice_trials.thisTrialN,practice_trials.thisN,practice_trials.thisIndex,practice_trials.ran,"practice_reward_seq: 2,3,1",block_break_started,"practice_reward_seq: 1,3,2","practice_reward_seq: 3,1,2",practice_end_time,practice_end_keys,practice_end_rt,practice_end_duration,main_instruction_text_started,block_condition,block_order_indices,main_instruction_keys,main_instruction_rt,main_instruction_duration,block_number,block_assignment,current_condition,main_reward_seqs,main_trial_started,main_trial_num,main_trial_keys,main_presentationInterval,reward_presentation_time,main_trials.thisRepN,main_trials.thisTrialN,main_trials.thisN,main_trials.thisIndex,main_trials.ran,main_trial_rt,main_trial_duration,main_reward_seq,reward_rand_val,main_reward_img,current_reward,block_reward,block.thisRepN,block.thisTrialN,block.thisN,block.thisIndex,block.ran,block_reward.length,block_reward_all,reward_amount,date_end_task
0.0003,space,3.5634,,5998ffe005a0e30001f1ff54,A,2024-07-04_15h30.56.288,Slot Machine Game,2023.1.3,MacIntel,29.23976608,,,,,,,,,,,,,,,,,,,,,,,,,,,,,,,,,,,,,,,,,,,,,,,,,,,,,,,,,,,,,,,,,,,,,,,,,,,,,
,,,,5998ffe005a0e30001f1ff54,A,2024-07-04_15h30.56.288,Slot Machine Game,2023.1.3,MacIntel,29.23976608,3.588,space,22.0268,,,,,,,,,,,,,,,,,,,,,,,,,,,,,,,,,,,,,,,,,,,,,,,,,,,,,,,,,,,,,,,,,,,,,,,,,,
,,,,5998ffe005a0e30001f1ff54,A,2024-07-04_15h30.56.288,Slot Machine Game,2023.1.3,MacIntel,29.23976608,,,,,25.6547,space,10.3968,,,,,,,,,,,,,,,,,,,,,,,,,,,,,,,,,,,,,,,,,,,,,,,,,,,,,,,,,,,,,,,,,,,,,,
,,,,5998ffe005a0e30001f1ff54,A,2024-07-04_15h30.56.288,Slot Machine Game,2023.1.3,MacIntel,29.23976608,,,,,,,,,36.0879,space,7.0594,,,,,,,,,,,,,,,,,,,,,,,,,,,,,,,,,,,,,,,,,,,,,,,,,,,,,,,,,,,,,,,,,,
,,,,5998ffe005a0e30001f1ff54,A,2024-07-04_15h30.56.288,Slot Machine Game,2023.1.3,MacIntel,29.23976608,,,,,,,,,,,,,,,,,,,,,,,,,,,,,,,,,,,,,,,,,,,,,,,,,,,,,,,,,,,,,,,,,,,,,,,,,,,,,
,,,,5998ffe005a0e30001f1ff54,A,2024-07-04_15h30.56.288,Slot Machine Game,2023.1.3,MacIntel,29.23976608,,,,,,,,,,,,,184.8931,space,4.2198,,,,,,,,,,,,,,,,,,,,,,,,,,,,,,,,,,,,,,,,,,,,,,,,,,,,,,,,,,,,,,
,,,,5998ffe005a0e30001f1ff54,A,2024-07-04_15h30.56.288,Slot Machine Game,2023.1.3,MacIntel,29.23976608,,,,,,,,,,,,,,,,,"[9,15]","[[2,1,3],[2,3,1]]",189.1643,0,2.4338,,left,1,,stimuli/card_10_transparent.png,10,10,0,0,0,0,1,,,,,,,,,,,,,,,,,,,,,,,,,,,,,,,,,,,,,,,,,,,,
,,,,5998ffe005a0e30001f1ff54,A,2024-07-04_15h30.56.288,Slot Machine Game,2023.1.3,MacIntel,29.23976608,,,,,,,,,,,,,,,,,,,193.4519,1,0.6349,,left,0.5,,stimuli/card_10_transparent.png,20,10,1,0,1,0,1,,,,,,,,,,,,,,,,,,,,,,,,,,,,,,,,,,,,,,,,,,,,
,,,,5998ffe005a0e30001f1ff54,A,2024-07-04_15h30.56.288,Slot Machine Game,2023.1.3,MacIntel,29.23976608,,,,,,,,,,,,,,,,,,,195.4514,2,1.2317,,up,0.5,,stimuli/card_100_transparent.png,120,100,2,0,2,0,1,,,,,,,,,,,,,,,,,,,,,,,,,,,,,,,,,,,,,,,,,,,,
,,,,5998ffe005a0e30001f1ff54,A,2024-07-04_15h30.56.288,Slot Machine Game,2023.1.3,MacIntel,29.23976608,,,,,,,,,,,,,,,,,,,198.0514,3,0.3988,,up,0.5,,stimuli/card_100_transparent.png,220,100,3,0,3,0,1,,,,,,,,,,,,,,,,,,,,,,,,,,,,,,,,,,,,,,,,,,,,
,,,,5998ffe005a0e30001f1ff54,A,2024-07-04_15h30.56.288,Slot Machine Game,2023.1.3,MacIntel,29.23976608,,,,,,,,,,,,,,,,,,,199.818,4,0.0986,,up,1,,stimuli/card_100_transparent.png,320,100,4,0,4,0,1,,,,,,,,,,,,,,,,,,,,,,,,,,,,,,,,,,,,,,,,,,,,
,,,,5998ffe005a0e30001f1ff54,A,2024-07-04_15h30.56.288,Slot Machine Game,2023.1.3,MacIntel,29.23976608,,,,,,,,,,,,,,,,,,,201.7846,5,0.246,,up,1,,stimuli/card_100_transparent.png,420,100,5,0,5,0,1,,,,,,,,,,,,,,,,,,,,,,,,,,,,,,,,,,,,,,,,,,,,
,,,,5998ffe005a0e30001f1ff54,A,2024-07-04_15h30.56.288,Slot Machine Game,2023.1.3,MacIntel,29.23976608,,,,,,,,,,,,,,,,,,,203.8845,6,0.1026,,up,0.5,,stimuli/card_100_transparent.png,520,100,6,0,6,0,1,,,,,,,,,,,,,,,,,,,,,,,,,,,,,,,,,,,,,,,,,,,,
,,,,5998ffe005a0e30001f1ff54,A,2024-07-04_15h30.56.288,Slot Machine Game,2023.1.3,MacIntel,29.23976608,,,,,,,,,,,,,,,,,,,205.3513,7,0.3759,,up,0.5,,stimuli/card_100_transparent.png,620,100,7,0,7,0,1,,,,,,,,,,,,,,,,,,,,,,,,,,,,,,,,,,,,,,,,,,,,
,,,,5998ffe005a0e30001f1ff54,A,2024-07-04_15h30.56.288,Slot Machine Game,2023.1.3,MacIntel,29.23976608,,,,,,,,,,,,,,,,,,,207.0835,8,0.0191,,up,0.5,,stimuli/card_100_transparent.png,720,100,8,0,8,0,1,,,,,,,,,,,,,,,,,,,,,,,,,,,,,,,,,,,,,,,,,,,,
,,,,5998ffe005a0e30001f1ff54,A,2024-07-04_15h30.56.288,Slot Machine Game,2023.1.3,MacIntel,29.23976608,,,,,,,,,,,,,,,,,,,208.4177,9,0.3041,,up,1.5,,stimuli/card_0_transparent.png,720,0,9,0,9,0,1,,,,,,,,,,,,,,,,,,,,,,,,,,,,,,,,,,,,,,,,,,,,
,,,,5998ffe005a0e30001f1ff54,A,2024-07-04_15h30.56.288,Slot Machine Game,2023.1.3,MacIntel,29.23976608,,,,,,,,,,,,,,,,,,,211.0844,10,0.0979,,up,0.5,,stimuli/card_0_transparent.png,720,0,10,0,10,0,1,,,,,,,,,,,,,,,,,,,,,,,,,,,,,,,,,,,,,,,,,,,,
,,,,5998ffe005a0e30001f1ff54,A,2024-07-04_15h30.56.288,Slot Machine Game,2023.1.3,MacIntel,29.23976608,,,,,,,,,,,,,,,,,,,212.5511,11,0.0787,,right,1.5,,stimuli/card_100_transparent.png,820,100,11,0,11,0,1,,,,,,,,,,,,,,,,,,,,,,,,,,,,,,,,,,,,,,,,,,,,
,,,,5998ffe005a0e30001f1ff54,A,2024-07-04_15h30.56.288,Slot Machine Game,2023.1.3,MacIntel,29.23976608,,,,,,,,,,,,,,,,,,,214.9833,12,0.0003,,right,1,,stimuli/card_100_transparent.png,920,100,12,0,12,0,1,,,,,,,,,,,,,,,,,,,,,,,,,,,,,,,,,,,,,,,,,,,,
,,,,5998ffe005a0e30001f1ff54,A,2024-07-04_15h30.56.288,Slot Machine Game,2023.1.3,MacIntel,29.23976608,,,,,,,,,,,,,,,,,,,216.8177,13,0.286,,right,0.5,,stimuli/card_100_transparent.png,1020,100,13,0,13,0,1,,,,,,,,,,,,,,,,,,,,,,,,,,,,,,,,,,,,,,,,,,,,
,,,,5998ffe005a0e30001f1ff54,A,2024-07-04_15h30.56.288,Slot Machine Game,2023.1.3,MacIntel,29.23976608,,,,,,,,,,,,,,,,,,,218.45,14,0.2709,,right,1.5,,stimuli/card_100_transparent.png,1120,100,14,0,14,0,1,,,,,,,,,,,,,,,,,,,,,,,,,,,,,,,,,,,,,,,,,,,,
,,,,5998ffe005a0e30001f1ff54,A,2024-07-04_15h30.56.288,Slot Machine Game,2023.1.3,MacIntel,29.23976608,,,,,,,,,,,,,,,,,"[6,15]","[[1,3,2],[3,1,2]]",226.0622,0,0.4986,,left,1.5,,stimuli/card_100_transparent.png,100,100,0,0,0,0,1,,221.0621,,,,,,,,,,,,,,,,,,,,,,,,,,,,,,,,,,,,,,,,,,
,,,,5998ffe005a0e30001f1ff54,A,2024-07-04_15h30.56.288,Slot Machine Game,2023.1.3,MacIntel,29.23976608,,,,,,,,,,,,,,,,,,,228.9176,1,2.6331,,left,1.5,,stimuli/card_100_transparent.png,200,100,1,0,1,0,1,,,,,,,,,,,,,,,,,,,,,,,,,,,,,,,,,,,,,,,,,,,,
,,,,5998ffe005a0e30001f1ff54,A,2024-07-04_15h30.56.288,Slot Machine Game,2023.1.3,MacIntel,29.23976608,,,,,,,,,,,,,,,,,,,233.9173,2,2.0006,,left,1,,stimuli/card_100_transparent.png,300,100,2,0,2,0,1,,,,,,,,,,,,,,,,,,,,,,,,,,,,,,,,,,,,,,,,,,,,
,,,,5998ffe005a0e30001f1ff54,A,2024-07-04_15h30.56.288,Slot Machine Game,2023.1.3,MacIntel,29.23976608,,,,,,,,,,,,,,,,,,,237.7508,3,1.166,,left,1,,stimuli/card_100_transparent.png,400,100,3,0,3,0,1,,,,,,,,,,,,,,,,,,,,,,,,,,,,,,,,,,,,,,,,,,,,
,,,,5998ffe005a0e30001f1ff54,A,2024-07-04_15h30.56.288,Slot Machine Game,2023.1.3,MacIntel,29.23976608,,,,,,,,,,,,,,,,,,,240.7842,4,0.6119,,left,1.5,,stimuli/card_100_transparent.png,500,100,4,0,4,0,1,,,,,,,,,,,,,,,,,,,,,,,,,,,,,,,,,,,,,,,,,,,,
,,,,5998ffe005a0e30001f1ff54,A,2024-07-04_15h30.56.288,Slot Machine Game,2023.1.3,MacIntel,29.23976608,,,,,,,,,,,,,,,,,,,243.7506,5,0.5455,,left,1,,stimuli/card_100_transparent.png,600,100,5,0,5,0,1,,,,,,,,,,,,,,,,,,,,,,,,,,,,,,,,,,,,,,,,,,,,
,,,,5998ffe005a0e30001f1ff54,A,2024-07-04_15h30.56.288,Slot Machine Game,2023.1.3,MacIntel,29.23976608,,,,,,,,,,,,,,,,,,,246.1506,6,0.6367,,left,0.5,,stimuli/card_0_transparent.png,600,0,6,0,6,0,1,,,,,,,,,,,,,,,,,,,,,,,,,,,,,,,,,,,,,,,,,,,,
,,,,5998ffe005a0e30001f1ff54,A,2024-07-04_15h30.56.288,Slot Machine Game,2023.1.3,MacIntel,29.23976608,,,,,,,,,,,,,,,,,,,248.1504,7,0.2847,,right,1,,stimuli/card_10_transparent.png,610,10,7,0,7,0,1,,,,,,,,,,,,,,,,,,,,,,,,,,,,,,,,,,,,,,,,,,,,
,,,,5998ffe005a0e30001f1ff54,A,2024-07-04_15h30.56.288,Slot Machine Game,2023.1.3,MacIntel,29.23976608,,,,,,,,,,,,,,,,,,,250.2505,8,0.3524,,up,1,,stimuli/card_100_transparent.png,710,100,8,0,8,0,1,,,,,,,,,,,,,,,,,,,,,,,,,,,,,,,,,,,,,,,,,,,,
,,,,5998ffe005a0e30001f1ff54,A,2024-07-04_15h30.56.288,Slot Machine Game,2023.1.3,MacIntel,29.23976608,,,,,,,,,,,,,,,,,,,252.4508,9,0.6203,,up,0.5,,stimuli/card_100_transparent.png,810,100,9,0,9,0,1,,,,,,,,,,,,,,,,,,,,,,,,,,,,,,,,,,,,,,,,,,,,
,,,,5998ffe005a0e30001f1ff54,A,2024-07-04_15h30.56.288,Slot Machine Game,2023.1.3,MacIntel,29.23976608,,,,,,,,,,,,,,,,,,,254.4172,10,0.3169,,up,1,,stimuli/card_0_transparent.png,810,0,10,0,10,0,1,,,,,,,,,,,,,,,,,,,,,,,,,,,,,,,,,,,,,,,,,,,,
,,,,5998ffe005a0e30001f1ff54,A,2024-07-04_15h30.56.288,Slot Machine Game,2023.1.3,MacIntel,29.23976608,,,,,,,,,,,,,,,,,,,256.5838,11,0.3711,,left,1.5,,stimuli/card_0_transparent.png,810,0,11,0,11,0,1,,,,,,,,,,,,,,,,,,,,,,,,,,,,,,,,,,,,,,,,,,,,
,,,,5998ffe005a0e30001f1ff54,A,2024-07-04_15h30.56.288,Slot Machine Game,2023.1.3,MacIntel,29.23976608,,,,,,,,,,,,,,,,,,,259.3162,12,0.1357,,right,0.5,,stimuli/card_10_transparent.png,820,10,12,0,12,0,1,,,,,,,,,,,,,,,,,,,,,,,,,,,,,,,,,,,,,,,,,,,,
,,,,5998ffe005a0e30001f1ff54,A,2024-07-04_15h30.56.288,Slot Machine Game,2023.1.3,MacIntel,29.23976608,,,,,,,,,,,,,,,,,,,260.7827,13,0.1317,,up,1,,stimuli/card_100_transparent.png,920,100,13,0,13,0,1,,,,,,,,,,,,,,,,,,,,,,,,,,,,,,,,,,,,,,,,,,,,
,,,,5998ffe005a0e30001f1ff54,A,2024-07-04_15h30.56.288,Slot Machine Game,2023.1.3,MacIntel,29.23976608,,,,,,,,,,,,,,,,,,,262.7505,14,0.0685,,up,1,,stimuli/card_0_transparent.png,920,0,14,0,14,0,1,,,,,,,,,,,,,,,,,,,,,,,,,,,,,,,,,,,,,,,,,,,,
,,,,5998ffe005a0e30001f1ff54,A,2024-07-04_15h30.56.288,Slot Machine Game,2023.1.3,MacIntel,29.23976608,,,,,,,,,,,,,,,,,,,,,,,,,,,,,,,,,,,264.6837,,,269.6834,space,60.073,,,,,,,,,,,,,,,,,,,,,,,,,,,,,,,,,,,,,
,,,,5998ffe005a0e30001f1ff54,A,2024-07-04_15h30.56.288,Slot Machine Game,2023.1.3,MacIntel,29.23976608,,,,,,,,,,,,,,,,,,,,,,,,,,,,,,,,,,,,,,,,,,329.7823,3,"[0,4,6,3,5,7,8,1,9,2]",space,7.2509,,,,,,,,,,,,,,,,,,,,,,,,,,,,,,,
,,,,5998ffe005a0e30001f1ff54,A,2024-07-04_15h30.56.288,Slot Machine Game,2023.1.3,MacIntel,29.23976608,,,,,,,,,,,,,,,,,,,,,,,,,,,,,,,,,,,,,,,,,,,,,,,,1,1,"[12,15]","[[2,1,3],[2,3,1]]",337.0626,0,,1,0.3,0,0,0,0,1,,,,,,,,,,,,,,,,
,,,,5998ffe005a0e30001f1ff54,A,2024-07-04_15h30.56.288,Slot Machine Game,2023.1.3,MacIntel,29.23976608,,,,,,,,,,,,,,,,,,,,,,,,,,,10,,,,,,,,,,,,,,,,,,,,,1,1,,,342.5693,1,left,1,0.3,1,0,1,0,1,1.1182,,"[2,1,3]",0.26879211,stimuli/card_10_transparent.png,10,,,,,,,,,,
,,,,5998ffe005a0e30001f1ff54,A,2024-07-04_15h30.56.288,Slot Machine Game,2023.1.3,MacIntel,29.23976608,,,,,,,,,,,,,,,,,,,,,,,,,,,110,,,,,,,,,,,,,,,,,,,,,1,1,,,345.5159,2,up,0.5,0.3,2,0,2,0,1,1.034,,"[2,1,3]",0.519081588,stimuli/card_100_transparent.png,100,,,,,,,,,,
,,,,5998ffe005a0e30001f1ff54,A,2024-07-04_15h30.56.288,Slot Machine Game,2023.1.3,MacIntel,29.23976608,,,,,,,,,,,,,,,,,,,,,,,,,,,210,,,,,,,,,,,,,,,,,,,,,1,1,,,347.8826,3,up,1,0.3,3,0,3,0,1,0.3992,,"[2,1,3]",0.511108448,stimuli/card_100_transparent.png,100,,,,,,,,,,
,,,,5998ffe005a0e30001f1ff54,A,2024-07-04_15h30.56.288,Slot Machine Game,2023.1.3,MacIntel,29.23976608,,,,,,,,,,,,,,,,,,,,,,,,,,,310,,,,,,,,,,,,,,,,,,,,,1,1,,,350.1157,4,up,1,0.3,4,0,4,0,1,0.754,,"[2,1,3]",0.398263869,stimuli/card_100_transparent.png,100,,,,,,,,,,
,,,,5998ffe005a0e30001f1ff54,A,2024-07-04_15h30.56.288,Slot Machine Game,2023.1.3,MacIntel,29.23976608,,,,,,,,,,,,,,,,,,,,,,,,,,,410,,,,,,,,,,,,,,,,,,,,,1,1,,,352.6992,5,up,1,0.3,5,0,5,0,1,1.3587,,"[2,1,3]",0.952490079,stimuli/card_100_transparent.png,100,,,,,,,,,,
,,,,5998ffe005a0e30001f1ff54,A,2024-07-04_15h30.56.288,Slot Machine Game,2023.1.3,MacIntel,29.23976608,,,,,,,,,,,,,,,,,,,,,,,,,,,510,,,,,,,,,,,,,,,,,,,,,1,1,,,355.8815,6,up,0.5,0.3,6,0,6,0,1,0.9245,,"[2,1,3]",0.96772853,stimuli/card_100_transparent.png,100,,,,,,,,,,
,,,,5998ffe005a0e30001f1ff54,A,2024-07-04_15h30.56.288,Slot Machine Game,2023.1.3,MacIntel,29.23976608,,,,,,,,,,,,,,,,,,,,,,,,,,,520,,,,,,,,,,,,,,,,,,,,,1,1,,,358.1158,7,up,1,0.3,7,0,7,0,1,0.1669,,"[2,1,3]",0.114617156,stimuli/card_10_transparent.png,10,,,,,,,,,,
,,,,5998ffe005a0e30001f1ff54,A,2024-07-04_15h30.56.288,Slot Machine Game,2023.1.3,MacIntel,29.23976608,,,,,,,,,,,,,,,,,,,,,,,,,,,620,,,,,,,,,,,,,,,,,,,,,1,1,,,360.1158,8,right,1,0.3,8,0,8,0,1,0.0099,,"[2,1,3]",0.025905795,stimuli/card_100_transparent.png,100,,,,,,,,,,
,,,,5998ffe005a0e30001f1ff54,A,2024-07-04_15h30.56.288,Slot Machine Game,2023.1.3,MacIntel,29.23976608,,,,,,,,,,,,,,,,,,,,,,,,,,,620,,,,,,,,,,,,,,,,,,,,,1,1,,,361.9491,9,right,1,0.3,9,0,9,0,1,0.2976,,"[2,1,3]",0.253774174,stimuli/card_0_transparent.png,0,,,,,,,,,,
,,,,5998ffe005a0e30001f1ff54,A,2024-07-04_15h30.56.288,Slot Machine Game,2023.1.3,MacIntel,29.23976608,,,,,,,,,,,,,,,,,,,,,,,,,,,630,,,,,,,,,,,,,,,,,,,,,1,1,,,364.0824,10,left,1.5,0.3,10,0,10,0,1,0.3685,,"[2,1,3]",0.802861476,stimuli/card_10_transparent.png,10,,,,,,,,,,
,,,,5998ffe005a0e30001f1ff54,A,2024-07-04_15h30.56.288,Slot Machine Game,2023.1.3,MacIntel,29.23976608,,,,,,,,,,,,,,,,,,,,,,,,,,,630,,,,,,,,,,,,,,,,,,,,,1,1,,,366.7823,11,right,1,0.3,11,0,11,0,1,0.1003,,"[2,1,3]",0.907848566,stimuli/card_0_transparent.png,0,,,,,,,,,,
,,,,5998ffe005a0e30001f1ff54,A,2024-07-04_15h30.56.288,Slot Machine Game,2023.1.3,MacIntel,29.23976608,,,,,,,,,,,,,,,,,,,,,,,,,,,630,,,,,,,,,,,,,,,,,,,,,1,1,,,368.7157,12,up,1.5,0.3,12,0,12,0,1,0.132,,"[2,3,1]",0.369552067,stimuli/card_0_transparent.png,0,,,,,,,,,,
,,,,5998ffe005a0e30001f1ff54,A,2024-07-04_15h30.56.288,Slot Machine Game,2023.1.3,MacIntel,29.23976608,,,,,,,,,,,,,,,,,,,,,,,,,,,640,,,,,,,,,,,,,,,,,,,,,1,1,,,371.1823,13,left,1.5,0.3,13,0,13,0,1,0.0695,,"[2,3,1]",0.352668497,stimuli/card_10_transparent.png,10,,,,,,,,,,
,,,,5998ffe005a0e30001f1ff54,A,2024-07-04_15h30.56.288,Slot Machine Game,2023.1.3,MacIntel,29.23976608,,,,,,,,,,,,,,,,,,,,,,,,,,,740,,,,,,,,,,,,,,,,,,,,,1,1,,,373.5823,14,right,1.5,0.3,14,0,14,0,1,0.2997,,"[2,3,1]",0.693848848,stimuli/card_100_transparent.png,100,,,,,,,,,,
,,,,5998ffe005a0e30001f1ff54,A,2024-07-04_15h30.56.288,Slot Machine Game,2023.1.3,MacIntel,29.23976608,,,,,,,,,,,,,,,,,,,,,,,,,,,,,,,,,,,376.2157,,,,,,,,,,,,,,,,,,,,,,,,,,,,,,,,,[740],0,0,0,0,1,,,,
,,,,5998ffe005a0e30001f1ff54,A,2024-07-04_15h30.56.288,Slot Machine Game,2023.1.3,MacIntel,29.23976608,,,,,,,,,,,,,,,,,,,,,,,,,,,10,,,,,,,,,,,,,,,,,,,,,2,5,"[5,15]","[[1,2,3],[3,1,2]]",381.2265,0,right,0.5,0.3,0,0,0,0,1,0.7864,,"[1,2,3]",0.132878247,stimuli/card_10_transparent.png,10,,,,,,,,,,
,,,,5998ffe005a0e30001f1ff54,A,2024-07-04_15h30.56.288,Slot Machine Game,2023.1.3,MacIntel,29.23976608,,,,,,,,,,,,,,,,,,,,,,,,,,,20,,,,,,,,,,,,,,,,,,,,,2,5,,,383.3321,1,up,1.5,0.3,1,0,1,0,1,0.3313,,"[1,2,3]",0.258545726,stimuli/card_10_transparent.png,10,,,,,,,,,,
,,,,5998ffe005a0e30001f1ff54,A,2024-07-04_15h30.56.288,Slot Machine Game,2023.1.3,MacIntel,29.23976608,,,,,,,,,,,,,,,,,,,,,,,,,,,120,,,,,,,,,,,,,,,,,,,,,2,5,,,385.9987,2,left,1.5,0.3,2,0,2,0,1,0.0006,,"[1,2,3]",0.394857749,stimuli/card_100_transparent.png,100,,,,,,,,,,
,,,,5998ffe005a0e30001f1ff54,A,2024-07-04_15h30.56.288,Slot Machine Game,2023.1.3,MacIntel,29.23976608,,,,,,,,,,,,,,,,,,,,,,,,,,,220,,,,,,,,,,,,,,,,,,,,,2,5,,,388.3321,3,left,1,0.3,3,0,3,0,1,0.2563,,"[1,2,3]",0.279540217,stimuli/card_100_transparent.png,100,,,,,,,,,,
,,,,5998ffe005a0e30001f1ff54,A,2024-07-04_15h30.56.288,Slot Machine Game,2023.1.3,MacIntel,29.23976608,,,,,,,,,,,,,,,,,,,,,,,,,,,320,,,,,,,,,,,,,,,,,,,,,2,5,,,390.4147,4,left,1.5,0.3,4,0,4,0,1,0.0328,,"[1,2,3]",0.246834616,stimuli/card_100_transparent.png,100,,,,,,,,,,
,,,,5998ffe005a0e30001f1ff54,A,2024-07-04_15h30.56.288,Slot Machine Game,2023.1.3,MacIntel,29.23976608,,,,,,,,,,,,,,,,,,,,,,,,,,,420,,,,,,,,,,,,,,,,,,,,,2,5,,,392.7653,5,left,1,0.3,5,0,5,0,1,0.1371,,"[3,1,2]",0.094883723,stimuli/card_100_transparent.png,100,,,,,,,,,,
,,,,5998ffe005a0e30001f1ff54,A,2024-07-04_15h30.56.288,Slot Machine Game,2023.1.3,MacIntel,29.23976608,,,,,,,,,,,,,,,,,,,,,,,,,,,420,,,,,,,,,,,,,,,,,,,,,2,5,,,394.7319,6,left,0.5,0.3,6,0,6,0,1,0.116,,"[3,1,2]",0.629148211,stimuli/card_0_transparent.png,0,,,,,,,,,,
,,,,5998ffe005a0e30001f1ff54,A,2024-07-04_15h30.56.288,Slot Machine Game,2023.1.3,MacIntel,29.23976608,,,,,,,,,,,,,,,,,,,,,,,,,,,430,,,,,,,,,,,,,,,,,,,,,2,5,,,396.1819,7,left,1,0.3,7,0,7,0,1,0.2831,,"[3,1,2]",0.157690276,stimuli/card_10_transparent.png,10,,,,,,,,,,
,,,,5998ffe005a0e30001f1ff54,A,2024-07-04_15h30.56.288,Slot Machine Game,2023.1.3,MacIntel,29.23976608,,,,,,,,,,,,,,,,,,,,,,,,,,,430,,,,,,,,,,,,,,,,,,,,,2,5,,,398.2977,8,left,1,0.3,8,0,8,0,1,0.3049,,"[3,1,2]",0.243303004,stimuli/card_0_transparent.png,0,,,,,,,,,,
,,,,5998ffe005a0e30001f1ff54,A,2024-07-04_15h30.56.288,Slot Machine Game,2023.1.3,MacIntel,29.23976608,,,,,,,,,,,,,,,,,,,,,,,,,,,530,,,,,,,,,,,,,,,,,,,,,2,5,,,400.4141,9,right,0.5,0.3,9,0,9,0,1,0.1081,,"[3,1,2]",0.157379768,stimuli/card_100_transparent.png,100,,,,,,,,,,
,,,,5998ffe005a0e30001f1ff54,A,2024-07-04_15h30.56.288,Slot Machine Game,2023.1.3,MacIntel,29.23976608,,,,,,,,,,,,,,,,,,,,,,,,,,,540,,,,,,,,,,,,,,,,,,,,,2,5,,,401.8318,10,right,0.5,0.3,10,0,10,0,1,0.3002,,"[3,1,2]",0.924270252,stimuli/card_10_transparent.png,10,,,,,,,,,,
,,,,5998ffe005a0e30001f1ff54,A,2024-07-04_15h30.56.288,Slot Machine Game,2023.1.3,MacIntel,29.23976608,,,,,,,,,,,,,,,,,,,,,,,,,,,550,,,,,,,,,,,,,,,,,,,,,2,5,,,403.4652,11,right,1,0.3,11,0,11,0,1,0.2677,,"[3,1,2]",0.948053327,stimuli/card_10_transparent.png,10,,,,,,,,,,
,,,,5998ffe005a0e30001f1ff54,A,2024-07-04_15h30.56.288,Slot Machine Game,2023.1.3,MacIntel,29.23976608,,,,,,,,,,,,,,,,,,,,,,,,,,,550,,,,,,,,,,,,,,,,,,,,,2,5,,,405.5653,12,up,0.5,0.3,12,0,12,0,1,0.2738,,"[3,1,2]",0.01687286,stimuli/card_0_transparent.png,0,,,,,,,,,,
,,,,5998ffe005a0e30001f1ff54,A,2024-07-04_15h30.56.288,Slot Machine Game,2023.1.3,MacIntel,29.23976608,,,,,,,,,,,,,,,,,,,,,,,,,,,560,,,,,,,,,,,,,,,,,,,,,2,5,,,407.165,13,right,1.5,0.3,13,0,13,0,1,0.4329,,"[3,1,2]",0.229884262,stimuli/card_10_transparent.png,10,,,,,,,,,,
,,,,5998ffe005a0e30001f1ff54,A,2024-07-04_15h30.56.288,Slot Machine Game,2023.1.3,MacIntel,29.23976608,,,,,,,,,,,,,,,,,,,,,,,,,,,560,,,,,,,,,,,,,,,,,,,,,2,5,,,409.9317,14,left,1.5,0.3,14,0,14,0,1,0.3004,,"[3,1,2]",0.269581274,stimuli/card_0_transparent.png,0,,,,,,,,,,
,,,,5998ffe005a0e30001f1ff54,A,2024-07-04_15h30.56.288,Slot Machine Game,2023.1.3,MacIntel,29.23976608,,,,,,,,,,,,,,,,,,,,,,,,,,,,,,,,,,,412.564,,,,,,,,,,,,,,,,,,,,,,,,,,,,,,,,,"[740,560]",1,0,1,0,1,,,,
,,,,5998ffe005a0e30001f1ff54,A,2024-07-04_15h30.56.288,Slot Machine Game,2023.1.3,MacIntel,29.23976608,,,,,,,,,,,,,,,,,,,,,,,,,,,10,,,,,,,,,,,,,,,,,,,,,3,7,"[9,15]","[[1,3,2],[2,3,1]]",417.5767,0,right,1.5,0.3,0,0,0,0,1,1.0388,,"[1,3,2]",0.995834034,stimuli/card_10_transparent.png,10,,,,,,,,,,
,,,,5998ffe005a0e30001f1ff54,A,2024-07-04_15h30.56.288,Slot Machine Game,2023.1.3,MacIntel,29.23976608,,,,,,,,,,,,,,,,,,,,,,,,,,,10,,,,,,,,,,,,,,,,,,,,,3,7,,,420.9315,1,up,1.5,0.3,1,0,1,0,1,0.1576,,"[1,3,2]",0.299478927,stimuli/card_0_transparent.png,0,,,,,,,,,,
,,,,5998ffe005a0e30001f1ff54,A,2024-07-04_15h30.56.288,Slot Machine Game,2023.1.3,MacIntel,29.23976608,,,,,,,,,,,,,,,,,,,,,,,,,,,110,,,,,,,,,,,,,,,,,,,,,3,7,,,423.4149,2,left,1,0.3,2,0,2,0,1,0.2186,,"[1,3,2]",0.992936,stimuli/card_100_transparent.png,100,,,,,,,,,,
,,,,5998ffe005a0e30001f1ff54,A,2024-07-04_15h30.56.288,Slot Machine Game,2023.1.3,MacIntel,29.23976608,,,,,,,,,,,,,,,,,,,,,,,,,,,210,,,,,,,,,,,,,,,,,,,,,3,7,,,425.4648,3,left,1,0.3,3,0,3,0,1,0.2713,,"[1,3,2]",0.297403791,stimuli/card_100_transparent.png,100,,,,,,,,,,
,,,,5998ffe005a0e30001f1ff54,A,2024-07-04_15h30.56.288,Slot Machine Game,2023.1.3,MacIntel,29.23976608,,,,,,,,,,,,,,,,,,,,,,,,,,,310,,,,,,,,,,,,,,,,,,,,,3,7,,,427.5648,4,left,1,0.3,4,0,4,0,1,0.7379,,"[1,3,2]",0.945805047,stimuli/card_100_transparent.png,100,,,,,,,,,,
,,,,5998ffe005a0e30001f1ff54,A,2024-07-04_15h30.56.288,Slot Machine Game,2023.1.3,MacIntel,29.23976608,,,,,,,,,,,,,,,,,,,,,,,,,,,410,,,,,,,,,,,,,,,,,,,,,3,7,,,430.1314,5,left,0.5,0.3,5,0,5,0,1,0.1829,,"[1,3,2]",0.685367477,stimuli/card_100_transparent.png,100,,,,,,,,,,
,,,,5998ffe005a0e30001f1ff54,A,2024-07-04_15h30.56.288,Slot Machine Game,2023.1.3,MacIntel,29.23976608,,,,,,,,,,,,,,,,,,,,,,,,,,,510,,,,,,,,,,,,,,,,,,,,,3,7,,,431.6481,6,left,0.5,0.3,6,0,6,0,1,0.1426,,"[1,3,2]",0.854604065,stimuli/card_100_transparent.png,100,,,,,,,,,,
,,,,5998ffe005a0e30001f1ff54,A,2024-07-04_15h30.56.288,Slot Machine Game,2023.1.3,MacIntel,29.23976608,,,,,,,,,,,,,,,,,,,,,,,,,,,610,,,,,,,,,,,,,,,,,,,,,3,7,,,433.1148,7,left,1,0.3,7,0,7,0,1,0.7411,,"[1,3,2]",0.796240638,stimuli/card_100_transparent.png,100,,,,,,,,,,
,,,,5998ffe005a0e30001f1ff54,A,2024-07-04_15h30.56.288,Slot Machine Game,2023.1.3,MacIntel,29.23976608,,,,,,,,,,,,,,,,,,,,,,,,,,,710,,,,,,,,,,,,,,,,,,,,,3,7,,,435.681,8,left,1.5,0.3,8,0,8,0,1,0.487,,"[1,3,2]",0.637691239,stimuli/card_100_transparent.png,100,,,,,,,,,,
,,,,5998ffe005a0e30001f1ff54,A,2024-07-04_15h30.56.288,Slot Machine Game,2023.1.3,MacIntel,29.23976608,,,,,,,,,,,,,,,,,,,,,,,,,,,720,,,,,,,,,,,,,,,,,,,,,3,7,,,438.4813,9,left,0.5,0.3,9,0,9,0,1,0.6646,,"[2,3,1]",0.551058701,stimuli/card_10_transparent.png,10,,,,,,,,,,
,,,,5998ffe005a0e30001f1ff54,A,2024-07-04_15h30.56.288,Slot Machine Game,2023.1.3,MacIntel,29.23976608,,,,,,,,,,,,,,,,,,,,,,,,,,,730,,,,,,,,,,,,,,,,,,,,,3,7,,,440.4813,10,left,1,0.3,10,0,10,0,1,1.2665,,"[2,3,1]",0.885619614,stimuli/card_10_transparent.png,10,,,,,,,,,,
,,,,5998ffe005a0e30001f1ff54,A,2024-07-04_15h30.56.288,Slot Machine Game,2023.1.3,MacIntel,29.23976608,,,,,,,,,,,,,,,,,,,,,,,,,,,740,,,,,,,,,,,,,,,,,,,,,3,7,,,443.5813,11,right,1,0.3,11,0,11,0,1,0.3726,,"[2,3,1]",0.125717483,stimuli/card_10_transparent.png,10,,,,,,,,,,
,,,,5998ffe005a0e30001f1ff54,A,2024-07-04_15h30.56.288,Slot Machine Game,2023.1.3,MacIntel,29.23976608,,,,,,,,,,,,,,,,,,,,,,,,,,,740,,,,,,,,,,,,,,,,,,,,,3,7,,,445.7801,12,up,1,0.3,12,0,12,0,1,0.0163,,"[2,3,1]",0.41079487,stimuli/card_0_transparent.png,0,,,,,,,,,,
,,,,5998ffe005a0e30001f1ff54,A,2024-07-04_15h30.56.288,Slot Machine Game,2023.1.3,MacIntel,29.23976608,,,,,,,,,,,,,,,,,,,,,,,,,,,840,,,,,,,,,,,,,,,,,,,,,3,7,,,447.6136,13,right,0.5,0.3,13,0,13,0,1,0.051,,"[2,3,1]",0.513633581,stimuli/card_100_transparent.png,100,,,,,,,,,,
,,,,5998ffe005a0e30001f1ff54,A,2024-07-04_15h30.56.288,Slot Machine Game,2023.1.3,MacIntel,29.23976608,,,,,,,,,,,,,,,,,,,,,,,,,,,940,,,,,,,,,,,,,,,,,,,,,3,7,,,448.9801,14,right,1,0.3,14,0,14,0,1,0.4146,,"[2,3,1]",0.913991448,stimuli/card_100_transparent.png,100,,,,,,,,,,
,,,,5998ffe005a0e30001f1ff54,A,2024-07-04_15h30.56.288,Slot Machine Game,2023.1.3,MacIntel,29.23976608,,,,,,,,,,,,,,,,,,,,,,,,,,,,,,,,,,,451.2139,,,,,,,,,,,,,,,,,,,,,,,,,,,,,,,,,"[740,560,940]",2,0,2,0,1,,,,
,,,,5998ffe005a0e30001f1ff54,A,2024-07-04_15h30.56.288,Slot Machine Game,2023.1.3,MacIntel,29.23976608,,,,,,,,,,,,,,,,,,,,,,,,,,,100,,,,,,,,,,,,,,,,,,,,,4,4,"[7,15]","[[2,3,1],[1,2,3]]",456.2259,0,right,1.5,0.3,0,0,0,0,1,0.0834,,"[2,3,1]",0.948271256,stimuli/card_100_transparent.png,100,,,,,,,,,,
,,,,5998ffe005a0e30001f1ff54,A,2024-07-04_15h30.56.288,Slot Machine Game,2023.1.3,MacIntel,29.23976608,,,,,,,,,,,,,,,,,,,,,,,,,,,200,,,,,,,,,,,,,,,,,,,,,4,4,,,458.631,1,right,0.5,0.3,1,0,1,0,1,0.3857,,"[2,3,1]",0.30400676,stimuli/card_100_transparent.png,100,,,,,,,,,,
,,,,5998ffe005a0e30001f1ff54,A,2024-07-04_15h30.56.288,Slot Machine Game,2023.1.3,MacIntel,29.23976608,,,,,,,,,,,,,,,,,,,,,,,,,,,300,,,,,,,,,,,,,,,,,,,,,4,4,,,460.3477,2,right,1,0.3,2,0,2,0,1,0.1992,,"[2,3,1]",0.661833238,stimuli/card_100_transparent.png,100,,,,,,,,,,
,,,,5998ffe005a0e30001f1ff54,A,2024-07-04_15h30.56.288,Slot Machine Game,2023.1.3,MacIntel,29.23976608,,,,,,,,,,,,,,,,,,,,,,,,,,,400,,,,,,,,,,,,,,,,,,,,,4,4,,,462.3809,3,right,0.5,0.3,3,0,3,0,1,0.1492,,"[2,3,1]",0.995255381,stimuli/card_100_transparent.png,100,,,,,,,,,,
,,,,5998ffe005a0e30001f1ff54,A,2024-07-04_15h30.56.288,Slot Machine Game,2023.1.3,MacIntel,29.23976608,,,,,,,,,,,,,,,,,,,,,,,,,,,500,,,,,,,,,,,,,,,,,,,,,4,4,,,463.8642,4,right,0.5,0.3,4,0,4,0,1,0.332,,"[2,3,1]",0.895880958,stimuli/card_100_transparent.png,100,,,,,,,,,,
,,,,5998ffe005a0e30001f1ff54,A,2024-07-04_15h30.56.288,Slot Machine Game,2023.1.3,MacIntel,29.23976608,,,,,,,,,,,,,,,,,,,,,,,,,,,600,,,,,,,,,,,,,,,,,,,,,4,4,,,465.531,5,right,1.5,0.3,5,0,5,0,1,0.2179,,"[2,3,1]",0.418053559,stimuli/card_100_transparent.png,100,,,,,,,,,,
,,,,5998ffe005a0e30001f1ff54,A,2024-07-04_15h30.56.288,Slot Machine Game,2023.1.3,MacIntel,29.23976608,,,,,,,,,,,,,,,,,,,,,,,,,,,700,,,,,,,,,,,,,,,,,,,,,4,4,,,468.0809,6,right,1.5,0.3,6,0,6,0,1,0.2829,,"[2,3,1]",0.339889589,stimuli/card_100_transparent.png,100,,,,,,,,,,
,,,,5998ffe005a0e30001f1ff54,A,2024-07-04_15h30.56.288,Slot Machine Game,2023.1.3,MacIntel,29.23976608,,,,,,,,,,,,,,,,,,,,,,,,,,,700,,,,,,,,,,,,,,,,,,,,,4,4,,,470.6975,7,right,1.5,0.3,7,0,7,0,1,0.166,,"[1,2,3]",0.229086596,stimuli/card_0_transparent.png,0,,,,,,,,,,
,,,,5998ffe005a0e30001f1ff54,A,2024-07-04_15h30.56.288,Slot Machine Game,2023.1.3,MacIntel,29.23976608,,,,,,,,,,,,,,,,,,,,,,,,,,,700,,,,,,,,,,,,,,,,,,,,,4,4,,,473.1975,8,right,1,0.3,8,0,8,0,1,0.7001,,"[1,2,3]",0.769867012,stimuli/card_0_transparent.png,0,,,,,,,,,,
,,,,5998ffe005a0e30001f1ff54,A,2024-07-04_15h30.56.288,Slot Machine Game,2023.1.3,MacIntel,29.23976608,,,,,,,,,,,,,,,,,,,,,,,,,,,710,,,,,,,,,,,,,,,,,,,,,4,4,,,475.7308,9,left,0.5,0.3,9,0,9,0,1,0.1377,,"[1,2,3]",0.139849182,stimuli/card_10_transparent.png,10,,,,,,,,,,
,,,,5998ffe005a0e30001f1ff54,A,2024-07-04_15h30.56.288,Slot Machine Game,2023.1.3,MacIntel,29.23976608,,,,,,,,,,,,,,,,,,,,,,,,,,,810,,,,,,,,,,,,,,,,,,,,,4,4,,,477.1974,10,up,1,0.3,10,0,10,0,1,0.1539,,"[1,2,3]",0.161150751,stimuli/card_100_transparent.png,100,,,,,,,,,,
,,,,5998ffe005a0e30001f1ff54,A,2024-07-04_15h30.56.288,Slot Machine Game,2023.1.3,MacIntel,29.23976608,,,,,,,,,,,,,,,,,,,,,,,,,,,820,,,,,,,,,,,,,,,,,,,,,4,4,,,479.1808,11,up,0.5,0.3,11,0,11,0,1,0.2892,,"[1,2,3]",0.801816463,stimuli/card_10_transparent.png,10,,,,,,,,,,
,,,,5998ffe005a0e30001f1ff54,A,2024-07-04_15h30.56.288,Slot Machine Game,2023.1.3,MacIntel,29.23976608,,,,,,,,,,,,,,,,,,,,,,,,,,,830,,,,,,,,,,,,,,,,,,,,,4,4,,,480.7973,12,up,0.5,0.3,12,0,12,0,1,0.0044,,"[1,2,3]",0.461031264,stimuli/card_10_transparent.png,10,,,,,,,,,,
,,,,5998ffe005a0e30001f1ff54,A,2024-07-04_15h30.56.288,Slot Machine Game,2023.1.3,MacIntel,29.23976608,,,,,,,,,,,,,,,,,,,,,,,,,,,930,,,,,,,,,,,,,,,,,,,,,4,4,,,482.1307,13,left,1,0.3,13,0,13,0,1,0.3238,,"[1,2,3]",0.996146446,stimuli/card_100_transparent.png,100,,,,,,,,,,
,,,,5998ffe005a0e30001f1ff54,A,2024-07-04_15h30.56.288,Slot Machine Game,2023.1.3,MacIntel,29.23976608,,,,,,,,,,,,,,,,,,,,,,,,,,,1030,,,,,,,,,,,,,,,,,,,,,4,4,,,484.2806,14,left,1.5,0.3,14,0,14,0,1,0.3048,,"[1,2,3]",0.650621878,stimuli/card_100_transparent.png,100,,,,,,,,,,
,,,,5998ffe005a0e30001f1ff54,A,2024-07-04_15h30.56.288,Slot Machine Game,2023.1.3,MacIntel,29.23976608,,,,,,,,,,,,,,,,,,,,,,,,,,,,,,,,,,,486.914,,,,,,,,,,,,,,,,,,,,,,,,,,,,,,,,,"[740,560,940,1030]",3,0,3,0,1,,,,
,,,,5998ffe005a0e30001f1ff54,A,2024-07-04_15h30.56.288,Slot Machine Game,2023.1.3,MacIntel,29.23976608,,,,,,,,,,,,,,,,,,,,,,,,,,,10,,,,,,,,,,,,,,,,,,,,,5,6,"[4,10,15]","[[2,3,1],[1,3,2],[3,2,1]]",491.9252,0,left,0.5,0.3,0,0,0,0,1,0.9173,,"[2,3,1]",0.949144895,stimuli/card_10_transparent.png,10,,,,,,,,,,
,,,,5998ffe005a0e30001f1ff54,A,2024-07-04_15h30.56.288,Slot Machine Game,2023.1.3,MacIntel,29.23976608,,,,,,,,,,,,,,,,,,,,,,,,,,,10,,,,,,,,,,,,,,,,,,,,,5,6,,,494.1638,1,up,1.5,0.3,1,0,1,0,1,0.3256,,"[2,3,1]",0.891567337,stimuli/card_0_transparent.png,0,,,,,,,,,,
,,,,5998ffe005a0e30001f1ff54,A,2024-07-04_15h30.56.288,Slot Machine Game,2023.1.3,MacIntel,29.23976608,,,,,,,,,,,,,,,,,,,,,,,,,,,110,,,,,,,,,,,,,,,,,,,,,5,6,,,496.8138,2,right,1,0.3,2,0,2,0,1,0.8329,,"[2,3,1]",0.99958485,stimuli/card_100_transparent.png,100,,,,,,,,,,
,,,,5998ffe005a0e30001f1ff54,A,2024-07-04_15h30.56.288,Slot Machine Game,2023.1.3,MacIntel,29.23976608,,,,,,,,,,,,,,,,,,,,,,,,,,,210,,,,,,,,,,,,,,,,,,,,,5,6,,,499.4804,3,right,0.5,0.3,3,0,3,0,1,0.5753,,"[2,3,1]",0.25919683,stimuli/card_100_transparent.png,100,,,,,,,,,,
,,,,5998ffe005a0e30001f1ff54,A,2024-07-04_15h30.56.288,Slot Machine Game,2023.1.3,MacIntel,29.23976608,,,,,,,,,,,,,,,,,,,,,,,,,,,220,,,,,,,,,,,,,,,,,,,,,5,6,,,501.38,4,right,0.5,0.3,4,0,4,0,1,1.1835,,"[1,3,2]",0.566621989,stimuli/card_10_transparent.png,10,,,,,,,,,,
,,,,5998ffe005a0e30001f1ff54,A,2024-07-04_15h30.56.288,Slot Machine Game,2023.1.3,MacIntel,29.23976608,,,,,,,,,,,,,,,,,,,,,,,,,,,220,,,,,,,,,,,,,,,,,,,,,5,6,,,503.8804,5,up,1,0.3,5,0,5,0,1,1.4065,,"[1,3,2]",0.799243692,stimuli/card_0_transparent.png,0,,,,,,,,,,
,,,,5998ffe005a0e30001f1ff54,A,2024-07-04_15h30.56.288,Slot Machine Game,2023.1.3,MacIntel,29.23976608,,,,,,,,,,,,,,,,,,,,,,,,,,,320,,,,,,,,,,,,,,,,,,,,,5,6,,,507.1132,6,left,1.5,0.3,6,0,6,0,1,0.3655,,"[1,3,2]",0.784671644,stimuli/card_100_transparent.png,100,,,,,,,,,,
,,,,5998ffe005a0e30001f1ff54,A,2024-07-04_15h30.56.288,Slot Machine Game,2023.1.3,MacIntel,29.23976608,,,,,,,,,,,,,,,,,,,,,,,,,,,420,,,,,,,,,,,,,,,,,,,,,5,6,,,509.7963,7,left,0.5,0.3,7,0,7,0,1,0.1069,,"[1,3,2]",0.730644242,stimuli/card_100_transparent.png,100,,,,,,,,,,
,,,,5998ffe005a0e30001f1ff54,A,2024-07-04_15h30.56.288,Slot Machine Game,2023.1.3,MacIntel,29.23976608,,,,,,,,,,,,,,,,,,,,,,,,,,,520,,,,,,,,,,,,,,,,,,,,,5,6,,,511.2136,8,left,1.5,0.3,8,0,8,0,1,0.1204,,"[1,3,2]",0.503738032,stimuli/card_100_transparent.png,100,,,,,,,,,,
,,,,5998ffe005a0e30001f1ff54,A,2024-07-04_15h30.56.288,Slot Machine Game,2023.1.3,MacIntel,29.23976608,,,,,,,,,,,,,,,,,,,,,,,,,,,620,,,,,,,,,,,,,,,,,,,,,5,6,,,513.6629,9,left,1,0.3,9,0,9,0,1,0.838,,"[1,3,2]",0.700833721,stimuli/card_100_transparent.png,100,,,,,,,,,,
,,,,5998ffe005a0e30001f1ff54,A,2024-07-04_15h30.56.288,Slot Machine Game,2023.1.3,MacIntel,29.23976608,,,,,,,,,,,,,,,,,,,,,,,,,,,620,,,,,,,,,,,,,,,,,,,,,5,6,,,516.3135,10,left,1.5,0.3,10,0,10,0,1,0.4493,,"[3,2,1]",0.731738538,stimuli/card_0_transparent.png,0,,,,,,,,,,
,,,,5998ffe005a0e30001f1ff54,A,2024-07-04_15h30.56.288,Slot Machine Game,2023.1.3,MacIntel,29.23976608,,,,,,,,,,,,,,,,,,,,,,,,,,,620,,,,,,,,,,,,,,,,,,,,,5,6,,,519.0968,11,up,1.5,0.3,11,0,11,0,1,0.1174,,"[3,2,1]",0.029781509,stimuli/card_0_transparent.png,0,,,,,,,,,,
,,,,5998ffe005a0e30001f1ff54,A,2024-07-04_15h30.56.288,Slot Machine Game,2023.1.3,MacIntel,29.23976608,,,,,,,,,,,,,,,,,,,,,,,,,,,720,,,,,,,,,,,,,,,,,,,,,5,6,,,521.5458,12,right,1,0.3,12,0,12,0,1,0.1375,,"[3,2,1]",0.4190521,stimuli/card_100_transparent.png,100,,,,,,,,,,
,,,,5998ffe005a0e30001f1ff54,A,2024-07-04_15h30.56.288,Slot Machine Game,2023.1.3,MacIntel,29.23976608,,,,,,,,,,,,,,,,,,,,,,,,,,,820,,,,,,,,,,,,,,,,,,,,,5,6,,,523.5125,13,right,0.5,0.3,13,0,13,0,1,0.7998,,"[3,2,1]",0.486658829,stimuli/card_100_transparent.png,100,,,,,,,,,,
,,,,5998ffe005a0e30001f1ff54,A,2024-07-04_15h30.56.288,Slot Machine Game,2023.1.3,MacIntel,29.23976608,,,,,,,,,,,,,,,,,,,,,,,,,,,830,,,,,,,,,,,,,,,,,,,,,5,6,,,525.6301,14,right,1.5,0.3,14,0,14,0,1,0.2205,,"[3,2,1]",0.105955664,stimuli/card_10_transparent.png,10,,,,,,,,,,
,,,,5998ffe005a0e30001f1ff54,A,2024-07-04_15h30.56.288,Slot Machine Game,2023.1.3,MacIntel,29.23976608,,,,,,,,,,,,,,,,,,,,,,,,,,,,,,,,,,,528.1799,,,,,,,,,,,,,,,,,,,,,,,,,,,,,,,,,"[740,560,940,1030,830]",4,0,4,0,1,,,,
,,,,5998ffe005a0e30001f1ff54,A,2024-07-04_15h30.56.288,Slot Machine Game,2023.1.3,MacIntel,29.23976608,,,,,,,,,,,,,,,,,,,,,,,,,,,100,,,,,,,,,,,,,,,,,,,,,6,8,"[11,15]","[[2,1,3],[1,2,3]]",533.1915,0,up,0.5,0.3,0,0,0,0,1,0.9007,,"[2,1,3]",0.714556419,stimuli/card_100_transparent.png,100,,,,,,,,,,
,,,,5998ffe005a0e30001f1ff54,A,2024-07-04_15h30.56.288,Slot Machine Game,2023.1.3,MacIntel,29.23976608,,,,,,,,,,,,,,,,,,,,,,,,,,,200,,,,,,,,,,,,,,,,,,,,,6,8,,,535.4132,1,up,1,0.3,1,0,1,0,1,0.6907,,"[2,1,3]",0.896266816,stimuli/card_100_transparent.png,100,,,,,,,,,,
,,,,5998ffe005a0e30001f1ff54,A,2024-07-04_15h30.56.288,Slot Machine Game,2023.1.3,MacIntel,29.23976608,,,,,,,,,,,,,,,,,,,,,,,,,,,300,,,,,,,,,,,,,,,,,,,,,6,8,,,537.9294,2,up,0.5,0.3,2,0,2,0,1,1.3878,,"[2,1,3]",0.586280503,stimuli/card_100_transparent.png,100,,,,,,,,,,
,,,,5998ffe005a0e30001f1ff54,A,2024-07-04_15h30.56.288,Slot Machine Game,2023.1.3,MacIntel,29.23976608,,,,,,,,,,,,,,,,,,,,,,,,,,,400,,,,,,,,,,,,,,,,,,,,,6,8,,,540.6298,3,up,1.5,0.3,3,0,3,0,1,0.5984,,"[2,1,3]",0.707689041,stimuli/card_100_transparent.png,100,,,,,,,,,,
,,,,5998ffe005a0e30001f1ff54,A,2024-07-04_15h30.56.288,Slot Machine Game,2023.1.3,MacIntel,29.23976608,,,,,,,,,,,,,,,,,,,,,,,,,,,500,,,,,,,,,,,,,,,,,,,,,6,8,,,543.563,4,up,0.5,0.3,4,0,4,0,1,0.4075,,"[2,1,3]",0.759284892,stimuli/card_100_transparent.png,100,,,,,,,,,,
,,,,5998ffe005a0e30001f1ff54,A,2024-07-04_15h30.56.288,Slot Machine Game,2023.1.3,MacIntel,29.23976608,,,,,,,,,,,,,,,,,,,,,,,,,,,600,,,,,,,,,,,,,,,,,,,,,6,8,,,545.2964,5,up,1,0.3,5,0,5,0,1,0.7013,,"[2,1,3]",0.686723345,stimuli/card_100_transparent.png,100,,,,,,,,,,
,,,,5998ffe005a0e30001f1ff54,A,2024-07-04_15h30.56.288,Slot Machine Game,2023.1.3,MacIntel,29.23976608,,,,,,,,,,,,,,,,,,,,,,,,,,,600,,,,,,,,,,,,,,,,,,,,,6,8,,,547.8297,6,up,1.5,0.3,6,0,6,0,1,0.6397,,"[2,1,3]",0.082720331,stimuli/card_0_transparent.png,0,,,,,,,,,,
,,,,5998ffe005a0e30001f1ff54,A,2024-07-04_15h30.56.288,Slot Machine Game,2023.1.3,MacIntel,29.23976608,,,,,,,,,,,,,,,,,,,,,,,,,,,610,,,,,,,,,,,,,,,,,,,,,6,8,,,550.7964,7,left,1,0.3,7,0,7,0,1,0.6375,,"[2,1,3]",0.70580028,stimuli/card_10_transparent.png,10,,,,,,,,,,
,,,,5998ffe005a0e30001f1ff54,A,2024-07-04_15h30.56.288,Slot Machine Game,2023.1.3,MacIntel,29.23976608,,,,,,,,,,,,,,,,,,,,,,,,,,,610,,,,,,,,,,,,,,,,,,,,,6,8,,,553.2629,8,right,1.5,0.3,8,0,8,0,1,0.2665,,"[2,1,3]",0.819142297,stimuli/card_0_transparent.png,0,,,,,,,,,,
,,,,5998ffe005a0e30001f1ff54,A,2024-07-04_15h30.56.288,Slot Machine Game,2023.1.3,MacIntel,29.23976608,,,,,,,,,,,,,,,,,,,,,,,,,,,620,,,,,,,,,,,,,,,,,,,,,6,8,,,555.8629,9,left,1,0.3,9,0,9,0,1,0.2995,,"[2,1,3]",0.630746009,stimuli/card_10_transparent.png,10,,,,,,,,,,
,,,,5998ffe005a0e30001f1ff54,A,2024-07-04_15h30.56.288,Slot Machine Game,2023.1.3,MacIntel,29.23976608,,,,,,,,,,,,,,,,,,,,,,,,,,,720,,,,,,,,,,,,,,,,,,,,,6,8,,,557.9961,10,up,0.5,0.3,10,0,10,0,1,0.2371,,"[2,1,3]",0.531839632,stimuli/card_100_transparent.png,100,,,,,,,,,,
,,,,5998ffe005a0e30001f1ff54,A,2024-07-04_15h30.56.288,Slot Machine Game,2023.1.3,MacIntel,29.23976608,,,,,,,,,,,,,,,,,,,,,,,,,,,730,,,,,,,,,,,,,,,,,,,,,6,8,,,559.5629,11,up,0.5,0.3,11,0,11,0,1,0.1248,,"[1,2,3]",0.60665683,stimuli/card_10_transparent.png,10,,,,,,,,,,
,,,,5998ffe005a0e30001f1ff54,A,2024-07-04_15h30.56.288,Slot Machine Game,2023.1.3,MacIntel,29.23976608,,,,,,,,,,,,,,,,,,,,,,,,,,,730,,,,,,,,,,,,,,,,,,,,,6,8,,,561.0129,12,right,0.5,0.3,12,0,12,0,1,0.2871,,"[1,2,3]",0.443007102,stimuli/card_0_transparent.png,0,,,,,,,,,,
,,,,5998ffe005a0e30001f1ff54,A,2024-07-04_15h30.56.288,Slot Machine Game,2023.1.3,MacIntel,29.23976608,,,,,,,,,,,,,,,,,,,,,,,,,,,740,,,,,,,,,,,,,,,,,,,,,6,8,,,562.6294,13,left,1,0.3,13,0,13,0,1,0.7567,,"[1,2,3]",0.111777411,stimuli/card_10_transparent.png,10,,,,,,,,,,
,,,,5998ffe005a0e30001f1ff54,A,2024-07-04_15h30.56.288,Slot Machine Game,2023.1.3,MacIntel,29.23976608,,,,,,,,,,,,,,,,,,,,,,,,,,,750,,,,,,,,,,,,,,,,,,,,,6,8,,,565.2128,14,up,1,0.3,14,0,14,0,1,0.1668,,"[1,2,3]",0.529402862,stimuli/card_10_transparent.png,10,,,,,,,,,,
,,,,5998ffe005a0e30001f1ff54,A,2024-07-04_15h30.56.288,Slot Machine Game,2023.1.3,MacIntel,29.23976608,,,,,,,,,,,,,,,,,,,,,,,,,,,,,,,,,,,567.2128,,,,,,,,,,,,,,,,,,,,,,,,,,,,,,,,,"[740,560,940,1030,830,750]",5,0,5,0,1,,,,
,,,,5998ffe005a0e30001f1ff54,A,2024-07-04_15h30.56.288,Slot Machine Game,2023.1.3,MacIntel,29.23976608,,,,,,,,,,,,,,,,,,,,,,,,,,,100,,,,,,,,,,,,,,,,,,,,,7,9,"[8,15]","[[3,2,1],[3,1,2]]",572.2239,0,right,0.5,0.3,0,0,0,0,1,1.0163,,"[3,2,1]",0.677058227,stimuli/card_100_transparent.png,100,,,,,,,,,,
,,,,5998ffe005a0e30001f1ff54,A,2024-07-04_15h30.56.288,Slot Machine Game,2023.1.3,MacIntel,29.23976608,,,,,,,,,,,,,,,,,,,,,,,,,,,110,,,,,,,,,,,,,,,,,,,,,7,9,,,574.5626,1,up,0.5,0.3,1,0,1,0,1,0.4239,,"[3,2,1]",0.843793916,stimuli/card_10_transparent.png,10,,,,,,,,,,
,,,,5998ffe005a0e30001f1ff54,A,2024-07-04_15h30.56.288,Slot Machine Game,2023.1.3,MacIntel,29.23976608,,,,,,,,,,,,,,,,,,,,,,,,,,,120,,,,,,,,,,,,,,,,,,,,,7,9,,,576.3119,2,left,1.5,0.3,2,0,2,0,1,0.1486,,"[3,2,1]",0.138445145,stimuli/card_10_transparent.png,10,,,,,,,,,,
,,,,5998ffe005a0e30001f1ff54,A,2024-07-04_15h30.56.288,Slot Machine Game,2023.1.3,MacIntel,29.23976608,,,,,,,,,,,,,,,,,,,,,,,,,,,220,,,,,,,,,,,,,,,,,,,,,7,9,,,578.7792,3,right,1.5,0.3,3,0,3,0,1,0.0944,,"[3,2,1]",0.377965527,stimuli/card_100_transparent.png,100,,,,,,,,,,
,,,,5998ffe005a0e30001f1ff54,A,2024-07-04_15h30.56.288,Slot Machine Game,2023.1.3,MacIntel,29.23976608,,,,,,,,,,,,,,,,,,,,,,,,,,,320,,,,,,,,,,,,,,,,,,,,,7,9,,,581.1958,4,right,0.5,0.3,4,0,4,0,1,0.5064,,"[3,2,1]",0.73260043,stimuli/card_100_transparent.png,100,,,,,,,,,,
,,,,5998ffe005a0e30001f1ff54,A,2024-07-04_15h30.56.288,Slot Machine Game,2023.1.3,MacIntel,29.23976608,,,,,,,,,,,,,,,,,,,,,,,,,,,420,,,,,,,,,,,,,,,,,,,,,7,9,,,583.0282,5,right,1,0.3,5,0,5,0,1,2.4319,,"[3,2,1]",0.791246167,stimuli/card_100_transparent.png,100,,,,,,,,,,
,,,,5998ffe005a0e30001f1ff54,A,2024-07-04_15h30.56.288,Slot Machine Game,2023.1.3,MacIntel,29.23976608,,,,,,,,,,,,,,,,,,,,,,,,,,,520,,,,,,,,,,,,,,,,,,,,,7,9,,,587.2787,6,right,1,0.3,6,0,6,0,1,0.8246,,"[3,2,1]",0.881867852,stimuli/card_100_transparent.png,100,,,,,,,,,,
,,,,5998ffe005a0e30001f1ff54,A,2024-07-04_15h30.56.288,Slot Machine Game,2023.1.3,MacIntel,29.23976608,,,,,,,,,,,,,,,,,,,,,,,,,,,620,,,,,,,,,,,,,,,,,,,,,7,9,,,589.9125,7,right,1,0.3,7,0,7,0,1,1.3369,,"[3,2,1]",0.494463319,stimuli/card_100_transparent.png,100,,,,,,,,,,
,,,,5998ffe005a0e30001f1ff54,A,2024-07-04_15h30.56.288,Slot Machine Game,2023.1.3,MacIntel,29.23976608,,,,,,,,,,,,,,,,,,,,,,,,,,,630,,,,,,,,,,,,,,,,,,,,,7,9,,,593.079,8,right,1,0.3,8,0,8,0,1,0.6347,,"[3,1,2]",0.64112552,stimuli/card_10_transparent.png,10,,,,,,,,,,
,,,,5998ffe005a0e30001f1ff54,A,2024-07-04_15h30.56.288,Slot Machine Game,2023.1.3,MacIntel,29.23976608,,,,,,,,,,,,,,,,,,,,,,,,,,,640,,,,,,,,,,,,,,,,,,,,,7,9,,,595.5456,9,right,1.5,0.3,9,0,9,0,1,0.9317,,"[3,1,2]",0.748476622,stimuli/card_10_transparent.png,10,,,,,,,,,,
,,,,5998ffe005a0e30001f1ff54,A,2024-07-04_15h30.56.288,Slot Machine Game,2023.1.3,MacIntel,29.23976608,,,,,,,,,,,,,,,,,,,,,,,,,,,640,,,,,,,,,,,,,,,,,,,,,7,9,,,598.8122,10,left,1.5,0.3,10,0,10,0,1,0.3881,,"[3,1,2]",0.71572979,stimuli/card_0_transparent.png,0,,,,,,,,,,
,,,,5998ffe005a0e30001f1ff54,A,2024-07-04_15h30.56.288,Slot Machine Game,2023.1.3,MacIntel,29.23976608,,,,,,,,,,,,,,,,,,,,,,,,,,,740,,,,,,,,,,,,,,,,,,,,,7,9,,,601.5289,11,up,1,0.3,11,0,11,0,1,0.417,,"[3,1,2]",0.208324447,stimuli/card_100_transparent.png,100,,,,,,,,,,
,,,,5998ffe005a0e30001f1ff54,A,2024-07-04_15h30.56.288,Slot Machine Game,2023.1.3,MacIntel,29.23976608,,,,,,,,,,,,,,,,,,,,,,,,,,,840,,,,,,,,,,,,,,,,,,,,,7,9,,,603.7789,12,up,0.5,0.3,12,0,12,0,1,0.2824,,"[3,1,2]",0.710254263,stimuli/card_100_transparent.png,100,,,,,,,,,,
,,,,5998ffe005a0e30001f1ff54,A,2024-07-04_15h30.56.288,Slot Machine Game,2023.1.3,MacIntel,29.23976608,,,,,,,,,,,,,,,,,,,,,,,,,,,940,,,,,,,,,,,,,,,,,,,,,7,9,,,605.3942,13,up,1,0.3,13,0,13,0,1,0.2015,,"[3,1,2]",0.876712082,stimuli/card_100_transparent.png,100,,,,,,,,,,
,,,,5998ffe005a0e30001f1ff54,A,2024-07-04_15h30.56.288,Slot Machine Game,2023.1.3,MacIntel,29.23976608,,,,,,,,,,,,,,,,,,,,,,,,,,,1040,,,,,,,,,,,,,,,,,,,,,7,9,,,607.4122,14,up,1,0.3,14,0,14,0,1,0.3055,,"[3,1,2]",0.524415998,stimuli/card_100_transparent.png,100,,,,,,,,,,
,,,,5998ffe005a0e30001f1ff54,A,2024-07-04_15h30.56.288,Slot Machine Game,2023.1.3,MacIntel,29.23976608,,,,,,,,,,,,,,,,,,,,,,,,,,,,,,,,,,,609.5455,,,,,,,,,,,,,,,,,,,,,,,,,,,,,,,,,"[740,560,940,1030,830,750,1040]",6,0,6,0,1,,,,
,,,,5998ffe005a0e30001f1ff54,A,2024-07-04_15h30.56.288,Slot Machine Game,2023.1.3,MacIntel,29.23976608,,,,,,,,,,,,,,,,,,,,,,,,,,,0,,,,,,,,,,,,,,,,,,,,,8,2,"[6,15]","[[1,3,2],[3,2,1]]",614.554,0,up,0.5,0.3,0,0,0,0,1,0.1991,,"[1,3,2]",0.865356715,stimuli/card_0_transparent.png,0,,,,,,,,,,
,,,,5998ffe005a0e30001f1ff54,A,2024-07-04_15h30.56.288,Slot Machine Game,2023.1.3,MacIntel,29.23976608,,,,,,,,,,,,,,,,,,,,,,,,,,,10,,,,,,,,,,,,,,,,,,,,,8,2,,,616.0786,1,right,1,0.3,1,0,1,0,1,0.2177,,"[1,3,2]",0.582296514,stimuli/card_10_transparent.png,10,,,,,,,,,,
,,,,5998ffe005a0e30001f1ff54,A,2024-07-04_15h30.56.288,Slot Machine Game,2023.1.3,MacIntel,29.23976608,,,,,,,,,,,,,,,,,,,,,,,,,,,110,,,,,,,,,,,,,,,,,,,,,8,2,,,618.1287,2,left,0.5,0.3,2,0,2,0,1,0.2575,,"[1,3,2]",0.681261084,stimuli/card_100_transparent.png,100,,,,,,,,,,
,,,,5998ffe005a0e30001f1ff54,A,2024-07-04_15h30.56.288,Slot Machine Game,2023.1.3,MacIntel,29.23976608,,,,,,,,,,,,,,,,,,,,,,,,,,,210,,,,,,,,,,,,,,,,,,,,,8,2,,,619.7119,3,left,1,0.3,3,0,3,0,1,0.2089,,"[1,3,2]",0.922642603,stimuli/card_100_transparent.png,100,,,,,,,,,,
,,,,5998ffe005a0e30001f1ff54,A,2024-07-04_15h30.56.288,Slot Machine Game,2023.1.3,MacIntel,29.23976608,,,,,,,,,,,,,,,,,,,,,,,,,,,310,,,,,,,,,,,,,,,,,,,,,8,2,,,621.7446,4,left,1,0.3,4,0,4,0,1,0.4089,,"[1,3,2]",0.601937548,stimuli/card_100_transparent.png,100,,,,,,,,,,
,,,,5998ffe005a0e30001f1ff54,A,2024-07-04_15h30.56.288,Slot Machine Game,2023.1.3,MacIntel,29.23976608,,,,,,,,,,,,,,,,,,,,,,,,,,,410,,,,,,,,,,,,,,,,,,,,,8,2,,,623.9787,5,left,1.5,0.3,5,0,5,0,1,0.0051,,"[1,3,2]",0.56046567,stimuli/card_100_transparent.png,100,,,,,,,,,,
,,,,5998ffe005a0e30001f1ff54,A,2024-07-04_15h30.56.288,Slot Machine Game,2023.1.3,MacIntel,29.23976608,,,,,,,,,,,,,,,,,,,,,,,,,,,410,,,,,,,,,,,,,,,,,,,,,8,2,,,626.312,6,left,0.5,0.3,6,0,6,0,1,0.4333,,"[3,2,1]",0.33012722,stimuli/card_0_transparent.png,0,,,,,,,,,,
,,,,5998ffe005a0e30001f1ff54,A,2024-07-04_15h30.56.288,Slot Machine Game,2023.1.3,MacIntel,29.23976608,,,,,,,,,,,,,,,,,,,,,,,,,,,510,,,,,,,,,,,,,,,,,,,,,8,2,,,628.0785,7,right,1,0.3,7,0,7,0,1,0.3985,,"[3,2,1]",0.428203514,stimuli/card_100_transparent.png,100,,,,,,,,,,
,,,,5998ffe005a0e30001f1ff54,A,2024-07-04_15h30.56.288,Slot Machine Game,2023.1.3,MacIntel,29.23976608,,,,,,,,,,,,,,,,,,,,,,,,,,,510,,,,,,,,,,,,,,,,,,,,,8,2,,,630.3108,8,right,0.5,0.3,8,0,8,0,1,1.0837,,"[3,2,1]",0.037242071,stimuli/card_0_transparent.png,0,,,,,,,,,,
,,,,5998ffe005a0e30001f1ff54,A,2024-07-04_15h30.56.288,Slot Machine Game,2023.1.3,MacIntel,29.23976608,,,,,,,,,,,,,,,,,,,,,,,,,,,510,,,,,,,,,,,,,,,,,,,,,8,2,,,632.7116,9,left,1,0.3,9,0,9,0,1,0.0413,,"[3,2,1]",0.949200676,stimuli/card_0_transparent.png,0,,,,,,,,,,
,,,,5998ffe005a0e30001f1ff54,A,2024-07-04_15h30.56.288,Slot Machine Game,2023.1.3,MacIntel,29.23976608,,,,,,,,,,,,,,,,,,,,,,,,,,,520,,,,,,,,,,,,,,,,,,,,,8,2,,,634.5784,10,up,1.5,0.3,10,0,10,0,1,0.2155,,"[3,2,1]",0.994872672,stimuli/card_10_transparent.png,10,,,,,,,,,,
,,,,5998ffe005a0e30001f1ff54,A,2024-07-04_15h30.56.288,Slot Machine Game,2023.1.3,MacIntel,29.23976608,,,,,,,,,,,,,,,,,,,,,,,,,,,530,,,,,,,,,,,,,,,,,,,,,8,2,,,637.1277,11,right,1,0.3,11,0,11,0,1,0.2263,,"[3,2,1]",0.140873755,stimuli/card_10_transparent.png,10,,,,,,,,,,
,,,,5998ffe005a0e30001f1ff54,A,2024-07-04_15h30.56.288,Slot Machine Game,2023.1.3,MacIntel,29.23976608,,,,,,,,,,,,,,,,,,,,,,,,,,,530,,,,,,,,,,,,,,,,,,,,,8,2,,,639.1614,12,left,1,0.3,12,0,12,0,1,0.2817,,"[3,2,1]",0.997117192,stimuli/card_0_transparent.png,0,,,,,,,,,,
,,,,5998ffe005a0e30001f1ff54,A,2024-07-04_15h30.56.288,Slot Machine Game,2023.1.3,MacIntel,29.23976608,,,,,,,,,,,,,,,,,,,,,,,,,,,540,,,,,,,,,,,,,,,,,,,,,8,2,,,641.2617,13,up,1,0.3,13,0,13,0,1,0.2338,,"[3,2,1]",0.888801768,stimuli/card_10_transparent.png,10,,,,,,,,,,
,,,,5998ffe005a0e30001f1ff54,A,2024-07-04_15h30.56.288,Slot Machine Game,2023.1.3,MacIntel,29.23976608,,,,,,,,,,,,,,,,,,,,,,,,,,,640,,,,,,,,,,,,,,,,,,,,,8,2,,,643.3282,14,right,0.5,0.3,14,0,14,0,1,0.5221,,"[3,2,1]",0.8625181,stimuli/card_100_transparent.png,100,,,,,,,,,,
,,,,5998ffe005a0e30001f1ff54,A,2024-07-04_15h30.56.288,Slot Machine Game,2023.1.3,MacIntel,29.23976608,,,,,,,,,,,,,,,,,,,,,,,,,,,,,,,,,,,645.1774,,,,,,,,,,,,,,,,,,,,,,,,,,,,,,,,,"[740,560,940,1030,830,750,1040,640]",7,0,7,0,1,,,,
,,,,5998ffe005a0e30001f1ff54,A,2024-07-04_15h30.56.288,Slot Machine Game,2023.1.3,MacIntel,29.23976608,,,,,,,,,,,,,,,,,,,,,,,,,,,10,,,,,,,,,,,,,,,,,,,,,9,10,"[10,15]","[[3,1,2],[1,3,2]]",650.19,0,right,1,0.3,0,0,0,0,1,0.5564,,"[3,1,2]",0.676215647,stimuli/card_10_transparent.png,10,,,,,,,,,,
,,,,5998ffe005a0e30001f1ff54,A,2024-07-04_15h30.56.288,Slot Machine Game,2023.1.3,MacIntel,29.23976608,,,,,,,,,,,,,,,,,,,,,,,,,,,10,,,,,,,,,,,,,,,,,,,,,9,10,,,652.5615,1,up,1.5,0.3,1,0,1,0,1,0.2645,,"[3,1,2]",0.070891621,stimuli/card_0_transparent.png,0,,,,,,,,,,
,,,,5998ffe005a0e30001f1ff54,A,2024-07-04_15h30.56.288,Slot Machine Game,2023.1.3,MacIntel,29.23976608,,,,,,,,,,,,,,,,,,,,,,,,,,,10,,,,,,,,,,,,,,,,,,,,,9,10,,,655.1612,2,left,1,0.3,2,0,2,0,1,0.037,,"[3,1,2]",0.511353966,stimuli/card_0_transparent.png,0,,,,,,,,,,
,,,,5998ffe005a0e30001f1ff54,A,2024-07-04_15h30.56.288,Slot Machine Game,2023.1.3,MacIntel,29.23976608,,,,,,,,,,,,,,,,,,,,,,,,,,,20,,,,,,,,,,,,,,,,,,,,,9,10,,,657.0113,3,right,1.5,0.3,3,0,3,0,1,0.05,,"[3,1,2]",0.602841234,stimuli/card_10_transparent.png,10,,,,,,,,,,
,,,,5998ffe005a0e30001f1ff54,A,2024-07-04_15h30.56.288,Slot Machine Game,2023.1.3,MacIntel,29.23976608,,,,,,,,,,,,,,,,,,,,,,,,,,,120,,,,,,,,,,,,,,,,,,,,,9,10,,,659.3781,4,up,1.5,0.3,4,0,4,0,1,0.3319,,"[3,1,2]",0.397999774,stimuli/card_100_transparent.png,100,,,,,,,,,,
,,,,5998ffe005a0e30001f1ff54,A,2024-07-04_15h30.56.288,Slot Machine Game,2023.1.3,MacIntel,29.23976608,,,,,,,,,,,,,,,,,,,,,,,,,,,220,,,,,,,,,,,,,,,,,,,,,9,10,,,662.0447,5,up,1,0.3,5,0,5,0,1,0.1812,,"[3,1,2]",0.734125644,stimuli/card_100_transparent.png,100,,,,,,,,,,
,,,,5998ffe005a0e30001f1ff54,A,2024-07-04_15h30.56.288,Slot Machine Game,2023.1.3,MacIntel,29.23976608,,,,,,,,,,,,,,,,,,,,,,,,,,,320,,,,,,,,,,,,,,,,,,,,,9,10,,,664.0613,6,up,1,0.3,6,0,6,0,1,0.3164,,"[3,1,2]",0.460718905,stimuli/card_100_transparent.png,100,,,,,,,,,,
,,,,5998ffe005a0e30001f1ff54,A,2024-07-04_15h30.56.288,Slot Machine Game,2023.1.3,MacIntel,29.23976608,,,,,,,,,,,,,,,,,,,,,,,,,,,420,,,,,,,,,,,,,,,,,,,,,9,10,,,666.2113,7,up,1.5,0.3,7,0,7,0,1,0.2508,,"[3,1,2]",0.731492052,stimuli/card_100_transparent.png,100,,,,,,,,,,
,,,,5998ffe005a0e30001f1ff54,A,2024-07-04_15h30.56.288,Slot Machine Game,2023.1.3,MacIntel,29.23976608,,,,,,,,,,,,,,,,,,,,,,,,,,,420,,,,,,,,,,,,,,,,,,,,,9,10,,,668.7936,8,up,1,0.3,8,0,8,0,1,0.6991,,"[3,1,2]",0.081361442,stimuli/card_0_transparent.png,0,,,,,,,,,,
,,,,5998ffe005a0e30001f1ff54,A,2024-07-04_15h30.56.288,Slot Machine Game,2023.1.3,MacIntel,29.23976608,,,,,,,,,,,,,,,,,,,,,,,,,,,430,,,,,,,,,,,,,,,,,,,,,9,10,,,671.3104,9,right,1.5,0.3,9,0,9,0,1,0.404,,"[3,1,2]",0.316201618,stimuli/card_10_transparent.png,10,,,,,,,,,,
,,,,5998ffe005a0e30001f1ff54,A,2024-07-04_15h30.56.288,Slot Machine Game,2023.1.3,MacIntel,29.23976608,,,,,,,,,,,,,,,,,,,,,,,,,,,440,,,,,,,,,,,,,,,,,,,,,9,10,,,674.0278,10,left,1.5,0.3,10,0,10,0,1,0.1078,,"[1,3,2]",0.12465342,stimuli/card_10_transparent.png,10,,,,,,,,,,
,,,,5998ffe005a0e30001f1ff54,A,2024-07-04_15h30.56.288,Slot Machine Game,2023.1.3,MacIntel,29.23976608,,,,,,,,,,,,,,,,,,,,,,,,,,,440,,,,,,,,,,,,,,,,,,,,,9,10,,,676.4611,11,up,1.5,0.3,11,0,11,0,1,0.1422,,"[1,3,2]",0.283898899,stimuli/card_0_transparent.png,0,,,,,,,,,,
,,,,5998ffe005a0e30001f1ff54,A,2024-07-04_15h30.56.288,Slot Machine Game,2023.1.3,MacIntel,29.23976608,,,,,,,,,,,,,,,,,,,,,,,,,,,450,,,,,,,,,,,,,,,,,,,,,9,10,,,678.9269,12,right,1.5,0.3,12,0,12,0,1,0.2901,,"[1,3,2]",0.645640773,stimuli/card_10_transparent.png,10,,,,,,,,,,
,,,,5998ffe005a0e30001f1ff54,A,2024-07-04_15h30.56.288,Slot Machine Game,2023.1.3,MacIntel,29.23976608,,,,,,,,,,,,,,,,,,,,,,,,,,,550,,,,,,,,,,,,,,,,,,,,,9,10,,,681.5277,13,left,0.5,0.3,13,0,13,0,1,0.021,,"[1,3,2]",0.214943605,stimuli/card_100_transparent.png,100,,,,,,,,,,
,,,,5998ffe005a0e30001f1ff54,A,2024-07-04_15h30.56.288,Slot Machine Game,2023.1.3,MacIntel,29.23976608,,,,,,,,,,,,,,,,,,,,,,,,,,,550,,,,,,,,,,,,,,,,,,,,,9,10,,,682.8776,14,left,1.5,0.3,14,0,14,0,1,0.0543,,"[1,3,2]",0.044311619,stimuli/card_0_transparent.png,0,,,,,,,,,,
,,,,5998ffe005a0e30001f1ff54,A,2024-07-04_15h30.56.288,Slot Machine Game,2023.1.3,MacIntel,29.23976608,,,,,,,,,,,,,,,,,,,,,,,,,,,,,,,,,,,685.261,,,,,,,,,,,,,,,,,,,,,,,,,,,,,,,,,"[740,560,940,1030,830,750,1040,640,550]",8,0,8,0,1,,,,
,,,,5998ffe005a0e30001f1ff54,A,2024-07-04_15h30.56.288,Slot Machine Game,2023.1.3,MacIntel,29.23976608,,,,,,,,,,,,,,,,,,,,,,,,,,,100,,,,,,,,,,,,,,,,,,,,,10,3,"[15,15]","[[3,1,2],[3,1,2]]",690.2716,0,up,0.5,0.3,0,0,0,0,1,0.5727,,"[3,1,2]",0.950421212,stimuli/card_100_transparent.png,100,,,,,,,,,,
,,,,5998ffe005a0e30001f1ff54,A,2024-07-04_15h30.56.288,Slot Machine Game,2023.1.3,MacIntel,29.23976608,,,,,,,,,,,,,,,,,,,,,,,,,,,110,,,,,,,,,,,,,,,,,,,,,10,3,,,692.1609,1,right,0.5,0.3,1,0,1,0,1,0.6,,"[3,1,2]",0.953581349,stimuli/card_10_transparent.png,10,,,,,,,,,,
,,,,5998ffe005a0e30001f1ff54,A,2024-07-04_15h30.56.288,Slot Machine Game,2023.1.3,MacIntel,29.23976608,,,,,,,,,,,,,,,,,,,,,,,,,,,110,,,,,,,,,,,,,,,,,,,,,10,3,,,694.0932,2,up,0.5,0.3,2,0,2,0,1,0.3482,,"[3,1,2]",0.025446622,stimuli/card_0_transparent.png,0,,,,,,,,,,
,,,,5998ffe005a0e30001f1ff54,A,2024-07-04_15h30.56.288,Slot Machine Game,2023.1.3,MacIntel,29.23976608,,,,,,,,,,,,,,,,,,,,,,,,,,,120,,,,,,,,,,,,,,,,,,,,,10,3,,,695.7608,3,right,0.5,0.3,3,0,3,0,1,0.2579,,"[3,1,2]",0.710241642,stimuli/card_10_transparent.png,10,,,,,,,,,,
,,,,5998ffe005a0e30001f1ff54,A,2024-07-04_15h30.56.288,Slot Machine Game,2023.1.3,MacIntel,29.23976608,,,,,,,,,,,,,,,,,,,,,,,,,,,120,,,,,,,,,,,,,,,,,,,,,10,3,,,697.3441,4,left,1.5,0.3,4,0,4,0,1,0.1816,,"[3,1,2]",0.34017421,stimuli/card_0_transparent.png,0,,,,,,,,,,
,,,,5998ffe005a0e30001f1ff54,A,2024-07-04_15h30.56.288,Slot Machine Game,2023.1.3,MacIntel,29.23976608,,,,,,,,,,,,,,,,,,,,,,,,,,,220,,,,,,,,,,,,,,,,,,,,,10,3,,,699.86,5,up,0.5,0.3,5,0,5,0,1,0.4416,,"[3,1,2]",0.835538006,stimuli/card_100_transparent.png,100,,,,,,,,,,
,,,,5998ffe005a0e30001f1ff54,A,2024-07-04_15h30.56.288,Slot Machine Game,2023.1.3,MacIntel,29.23976608,,,,,,,,,,,,,,,,,,,,,,,,,,,320,,,,,,,,,,,,,,,,,,,,,10,3,,,701.6098,6,up,1.5,0.3,6,0,6,0,1,0.1355,,"[3,1,2]",0.794152841,stimuli/card_100_transparent.png,100,,,,,,,,,,
,,,,5998ffe005a0e30001f1ff54,A,2024-07-04_15h30.56.288,Slot Machine Game,2023.1.3,MacIntel,29.23976608,,,,,,,,,,,,,,,,,,,,,,,,,,,420,,,,,,,,,,,,,,,,,,,,,10,3,,,704.0606,7,up,0.5,0.3,7,0,7,0,1,0.2993,,"[3,1,2]",0.71525433,stimuli/card_100_transparent.png,100,,,,,,,,,,
,,,,5998ffe005a0e30001f1ff54,A,2024-07-04_15h30.56.288,Slot Machine Game,2023.1.3,MacIntel,29.23976608,,,,,,,,,,,,,,,,,,,,,,,,,,,520,,,,,,,,,,,,,,,,,,,,,10,3,,,705.694,8,up,1.5,0.3,8,0,8,0,1,0.7928,,"[3,1,2]",0.62275516,stimuli/card_100_transparent.png,100,,,,,,,,,,
,,,,5998ffe005a0e30001f1ff54,A,2024-07-04_15h30.56.288,Slot Machine Game,2023.1.3,MacIntel,29.23976608,,,,,,,,,,,,,,,,,,,,,,,,,,,620,,,,,,,,,,,,,,,,,,,,,10,3,,,708.8096,9,up,1,0.3,9,0,9,0,1,0.5498,,"[3,1,2]",0.331682649,stimuli/card_100_transparent.png,100,,,,,,,,,,
,,,,5998ffe005a0e30001f1ff54,A,2024-07-04_15h30.56.288,Slot Machine Game,2023.1.3,MacIntel,29.23976608,,,,,,,,,,,,,,,,,,,,,,,,,,,720,,,,,,,,,,,,,,,,,,,,,10,3,,,711.1772,10,up,0.5,0.3,10,0,10,0,1,0.2407,,"[3,1,2]",0.412794967,stimuli/card_100_transparent.png,100,,,,,,,,,,
,,,,5998ffe005a0e30001f1ff54,A,2024-07-04_15h30.56.288,Slot Machine Game,2023.1.3,MacIntel,29.23976608,,,,,,,,,,,,,,,,,,,,,,,,,,,820,,,,,,,,,,,,,,,,,,,,,10,3,,,712.744,11,up,0.5,0.3,11,0,11,0,1,0.0161,,"[3,1,2]",0.243914971,stimuli/card_100_transparent.png,100,,,,,,,,,,
,,,,5998ffe005a0e30001f1ff54,A,2024-07-04_15h30.56.288,Slot Machine Game,2023.1.3,MacIntel,29.23976608,,,,,,,,,,,,,,,,,,,,,,,,,,,830,,,,,,,,,,,,,,,,,,,,,10,3,,,714.0938,12,up,1,0.3,12,0,12,0,1,0.1496,,"[3,1,2]",0.100357979,stimuli/card_10_transparent.png,10,,,,,,,,,,
,,,,5998ffe005a0e30001f1ff54,A,2024-07-04_15h30.56.288,Slot Machine Game,2023.1.3,MacIntel,29.23976608,,,,,,,,,,,,,,,,,,,,,,,,,,,830,,,,,,,,,,,,,,,,,,,,,10,3,,,716.0772,13,left,0.5,0.3,13,0,13,0,1,0.0528,,"[3,1,2]",0.516115862,stimuli/card_0_transparent.png,0,,,,,,,,,,
,,,,5998ffe005a0e30001f1ff54,A,2024-07-04_15h30.56.288,Slot Machine Game,2023.1.3,MacIntel,29.23976608,,,,,,,,,,,,,,,,,,,,,,,,,,,930,,,,,,,,,,,,,,,,,,,,,10,3,,,717.4601,14,up,1,0.3,14,0,14,0,1,0.3153,,"[3,1,2]",0.725272255,stimuli/card_100_transparent.png,100,,,,,,,,,,
,,,,5998ffe005a0e30001f1ff54,A,2024-07-04_15h30.56.288,Slot Machine Game,2023.1.3,MacIntel,29.23976608,,,,,,,,,,,,,,,,,,,,,,,,,,,,,,,,,,,719.5935,,,,,,,,,,,,,,,,,,,,,,,,,,,,,,,,,"[740,560,940,1030,830,750,1040,640,550,930]",9,0,9,0,1,,,,
,,,,5998ffe005a0e30001f1ff54,A,2024-07-04_15h30.56.288,Slot Machine Game,2023.1.3,MacIntel,29.23976608,,,,,,,,,,,,,,,,,,,,,,,,,,,,,,,,,,,,,,,,,,,,,,,,,,,,,,,,,,,,,,,,,,,,,,,,,,9,"[740,560,940,1030,830,750,1040,640,550,930]",10.4,2024-07-04_15h43.04.948
