key_resp_welcome_started,key_resp_welcome_keys,key_resp_welcome_rt,key_resp_welcome_duration,prolific_id,path_id,date,expName,psychopyVersion,OS,frameRate,key_resp_instruction1_started,key_resp_instruction1_keys,key_resp_instruction1_rt,key_resp_instruction1_duration,key_resp_instruction2_started,key_resp_instruction2_keys,key_resp_instruction2_rt,key_resp_instruction2_duration,key_resp_instruction3_started,key_resp_instruction3_keys,key_resp_instruction3_rt,key_resp_instruction3_duration,key_resp_instruction4_started,key_resp_instruction4_keys,key_resp_instruction4_rt,key_resp_instruction4_duration,practiceCondition,practice_reward_seqs,practice_trial_started,practice_trial_num,practice_resp_rt,practice_resp_duration,practice_resp_keys,prac_presentationInterval,"practice_reward_seq: 2,1,3",reward_img,cumulative_reward,trial_reward,practice_trials.thisRepN,practice_trials.thisTrialN,practice_trials.thisN,practice_trials.thisIndex,practice_trials.ran,"practice_reward_seq: 2,3,1",block_break_started,"practice_reward_seq: 1,3,2","practice_reward_seq: 3,1,2",practice_end_time,practice_end_keys,practice_end_rt,practice_end_duration,main_instruction_text_started,block_condition,block_order_indices,main_instruction_keys,main_instruction_rt,main_instruction_duration,block_number,block_assignment,current_condition,main_reward_seqs,main_trial_started,main_trial_num,main_trial_keys,main_trial_rt,main_trial_duration,main_presentationInterval,reward_presentation_time,main_reward_seq,reward_rand_val,main_reward_img,current_reward,main_trials.thisRepN,main_trials.thisTrialN,main_trials.thisN,main_trials.thisIndex,main_trials.ran,block_reward,block.thisRepN,block.thisTrialN,block.thisN,block.thisIndex,block.ran,block_reward.length,block_reward_all,reward_amount,date_end_task
0.0003,space,2.5909,,59ed38ef3e4b5a00016aa904,A,2024-07-02_15h51.08.662,Slot Machine Game,2023.1.3,Win32,58.82352941,,,,,,,,,,,,,,,,,,,,,,,,,,,,,,,,,,,,,,,,,,,,,,,,,,,,,,,,,,,,,,,,,,,,,,,,,,,,,
,,,,59ed38ef3e4b5a00016aa904,A,2024-07-02_15h51.08.662,Slot Machine Game,2023.1.3,Win32,58.82352941,2.6068,space,5.2642,,,,,,,,,,,,,,,,,,,,,,,,,,,,,,,,,,,,,,,,,,,,,,,,,,,,,,,,,,,,,,,,,,,,,,,,,,
,,,,59ed38ef3e4b5a00016aa904,A,2024-07-02_15h51.08.662,Slot Machine Game,2023.1.3,Win32,58.82352941,,,,,7.8912,space,17.2794,,,,,,,,,,,,,,,,,,,,,,,,,,,,,,,,,,,,,,,,,,,,,,,,,,,,,,,,,,,,,,,,,,,,,,
,,,,59ed38ef3e4b5a00016aa904,A,2024-07-02_15h51.08.662,Slot Machine Game,2023.1.3,Win32,58.82352941,,,,,,,,,25.2245,space,6.8292,,,,,,,,,,,,,,,,,,,,,,,,,,,,,,,,,,,,,,,,,,,,,,,,,,,,,,,,,,,,,,,,,,
,,,,59ed38ef3e4b5a00016aa904,A,2024-07-02_15h51.08.662,Slot Machine Game,2023.1.3,Win32,58.82352941,,,,,,,,,,,,,,,,,,,,,,,,,,,,,,,,,,,,,,,,,,,,,,,,,,,,,,,,,,,,,,,,,,,,,,,,,,,,,
,,,,59ed38ef3e4b5a00016aa904,A,2024-07-02_15h51.08.662,Slot Machine Game,2023.1.3,Win32,58.82352941,,,,,,,,,,,,,174.0824,space,3.3886,,,,,,,,,,,,,,,,,,,,,,,,,,,,,,,,,,,,,,,,,,,,,,,,,,,,,,,,,,,,,,
,,,,59ed38ef3e4b5a00016aa904,A,2024-07-02_15h51.08.662,Slot Machine Game,2023.1.3,Win32,58.82352941,,,,,,,,,,,,,,,,,"[9,15]","[[2,1,3],[2,3,1]]",177.4973,0,0.3383,,up,1,,stimuli/card_0_transparent.png,0,0,0,0,0,0,1,,,,,,,,,,,,,,,,,,,,,,,,,,,,,,,,,,,,,,,,,,,,
,,,,59ed38ef3e4b5a00016aa904,A,2024-07-02_15h51.08.662,Slot Machine Game,2023.1.3,Win32,58.82352941,,,,,,,,,,,,,,,,,,,179.661,1,1.5998,,left,1,,stimuli/card_10_transparent.png,10,10,1,0,1,0,1,,,,,,,,,,,,,,,,,,,,,,,,,,,,,,,,,,,,,,,,,,,,
,,,,59ed38ef3e4b5a00016aa904,A,2024-07-02_15h51.08.662,Slot Machine Game,2023.1.3,Win32,58.82352941,,,,,,,,,,,,,,,,,,,183.1058,2,0.9623,,right,1,,stimuli/card_0_transparent.png,10,0,2,0,2,0,1,,,,,,,,,,,,,,,,,,,,,,,,,,,,,,,,,,,,,,,,,,,,
,,,,59ed38ef3e4b5a00016aa904,A,2024-07-02_15h51.08.662,Slot Machine Game,2023.1.3,Win32,58.82352941,,,,,,,,,,,,,,,,,,,185.9058,3,0.5197,,left,1,,stimuli/card_0_transparent.png,10,0,3,0,3,0,1,,,,,,,,,,,,,,,,,,,,,,,,,,,,,,,,,,,,,,,,,,,,
,,,,59ed38ef3e4b5a00016aa904,A,2024-07-02_15h51.08.662,Slot Machine Game,2023.1.3,Win32,58.82352941,,,,,,,,,,,,,,,,,,,188.2392,4,0.6527,,right,1,,stimuli/card_100_transparent.png,110,100,4,0,4,0,1,,,,,,,,,,,,,,,,,,,,,,,,,,,,,,,,,,,,,,,,,,,,
,,,,59ed38ef3e4b5a00016aa904,A,2024-07-02_15h51.08.662,Slot Machine Game,2023.1.3,Win32,58.82352941,,,,,,,,,,,,,,,,,,,190.7058,5,0.8763,,right,1.5,,stimuli/card_0_transparent.png,110,0,5,0,5,0,1,,,,,,,,,,,,,,,,,,,,,,,,,,,,,,,,,,,,,,,,,,,,
,,,,59ed38ef3e4b5a00016aa904,A,2024-07-02_15h51.08.662,Slot Machine Game,2023.1.3,Win32,58.82352941,,,,,,,,,,,,,,,,,,,193.8937,6,1.3031,,up,1,,stimuli/card_10_transparent.png,120,10,6,0,6,0,1,,,,,,,,,,,,,,,,,,,,,,,,,,,,,,,,,,,,,,,,,,,,
,,,,59ed38ef3e4b5a00016aa904,A,2024-07-02_15h51.08.662,Slot Machine Game,2023.1.3,Win32,58.82352941,,,,,,,,,,,,,,,,,,,197.0271,7,1.4111,,up,1,,stimuli/card_100_transparent.png,220,100,7,0,7,0,1,,,,,,,,,,,,,,,,,,,,,,,,,,,,,,,,,,,,,,,,,,,,
,,,,59ed38ef3e4b5a00016aa904,A,2024-07-02_15h51.08.662,Slot Machine Game,2023.1.3,Win32,58.82352941,,,,,,,,,,,,,,,,,,,200.2558,8,0.1088,,up,1,,stimuli/card_10_transparent.png,230,10,8,0,8,0,1,,,,,,,,,,,,,,,,,,,,,,,,,,,,,,,,,,,,,,,,,,,,
,,,,59ed38ef3e4b5a00016aa904,A,2024-07-02_15h51.08.662,Slot Machine Game,2023.1.3,Win32,58.82352941,,,,,,,,,,,,,,,,,,,202.1892,9,2.0676,,up,1,,stimuli/card_0_transparent.png,230,0,9,0,9,0,1,,,,,,,,,,,,,,,,,,,,,,,,,,,,,,,,,,,,,,,,,,,,
,,,,59ed38ef3e4b5a00016aa904,A,2024-07-02_15h51.08.662,Slot Machine Game,2023.1.3,Win32,58.82352941,,,,,,,,,,,,,,,,,,,206.0892,10,0.0595,,left,0.5,,stimuli/card_100_transparent.png,330,100,10,0,10,0,1,,,,,,,,,,,,,,,,,,,,,,,,,,,,,,,,,,,,,,,,,,,,
,,,,59ed38ef3e4b5a00016aa904,A,2024-07-02_15h51.08.662,Slot Machine Game,2023.1.3,Win32,58.82352941,,,,,,,,,,,,,,,,,,,207.4559,11,0.5417,,left,0.5,,stimuli/card_10_transparent.png,340,10,11,0,11,0,1,,,,,,,,,,,,,,,,,,,,,,,,,,,,,,,,,,,,,,,,,,,,
,,,,59ed38ef3e4b5a00016aa904,A,2024-07-02_15h51.08.662,Slot Machine Game,2023.1.3,Win32,58.82352941,,,,,,,,,,,,,,,,,,,209.3226,12,0.0006,,left,0.5,,stimuli/card_10_transparent.png,350,10,12,0,12,0,1,,,,,,,,,,,,,,,,,,,,,,,,,,,,,,,,,,,,,,,,,,,,
,,,,59ed38ef3e4b5a00016aa904,A,2024-07-02_15h51.08.662,Slot Machine Game,2023.1.3,Win32,58.82352941,,,,,,,,,,,,,,,,,,,210.656,13,2.605,,left,0.5,,stimuli/card_10_transparent.png,360,10,13,0,13,0,1,,,,,,,,,,,,,,,,,,,,,,,,,,,,,,,,,,,,,,,,,,,,
,,,,59ed38ef3e4b5a00016aa904,A,2024-07-02_15h51.08.662,Slot Machine Game,2023.1.3,Win32,58.82352941,,,,,,,,,,,,,,,,,,,214.6059,14,0.0387,,right,1.5,,stimuli/card_10_transparent.png,370,10,14,0,14,0,1,,,,,,,,,,,,,,,,,,,,,,,,,,,,,,,,,,,,,,,,,,,,
,,,,59ed38ef3e4b5a00016aa904,A,2024-07-02_15h51.08.662,Slot Machine Game,2023.1.3,Win32,58.82352941,,,,,,,,,,,,,,,,,"[6,15]","[[1,3,2],[3,1,2]]",221.9948,0,0.9756,,up,1.5,,stimuli/card_0_transparent.png,0,0,0,0,0,0,1,,216.9831,,,,,,,,,,,,,,,,,,,,,,,,,,,,,,,,,,,,,,,,,,
,,,,59ed38ef3e4b5a00016aa904,A,2024-07-02_15h51.08.662,Slot Machine Game,2023.1.3,Win32,58.82352941,,,,,,,,,,,,,,,,,,,225.2915,1,0.2473,,up,0.5,,stimuli/card_100_transparent.png,100,100,1,0,1,0,1,,,,,,,,,,,,,,,,,,,,,,,,,,,,,,,,,,,,,,,,,,,,
,,,,59ed38ef3e4b5a00016aa904,A,2024-07-02_15h51.08.662,Slot Machine Game,2023.1.3,Win32,58.82352941,,,,,,,,,,,,,,,,,,,226.8559,2,0.0339,,up,1,,stimuli/card_0_transparent.png,100,0,2,0,2,0,1,,,,,,,,,,,,,,,,,,,,,,,,,,,,,,,,,,,,,,,,,,,,
,,,,59ed38ef3e4b5a00016aa904,A,2024-07-02_15h51.08.662,Slot Machine Game,2023.1.3,Win32,58.82352941,,,,,,,,,,,,,,,,,,,228.7226,3,1.5354,,left,1,,stimuli/card_100_transparent.png,200,100,3,0,3,0,1,,,,,,,,,,,,,,,,,,,,,,,,,,,,,,,,,,,,,,,,,,,,
,,,,59ed38ef3e4b5a00016aa904,A,2024-07-02_15h51.08.662,Slot Machine Game,2023.1.3,Win32,58.82352941,,,,,,,,,,,,,,,,,,,232.1056,4,0.0434,,left,1.5,,stimuli/card_0_transparent.png,200,0,4,0,4,0,1,,,,,,,,,,,,,,,,,,,,,,,,,,,,,,,,,,,,,,,,,,,,
,,,,59ed38ef3e4b5a00016aa904,A,2024-07-02_15h51.08.662,Slot Machine Game,2023.1.3,Win32,58.82352941,,,,,,,,,,,,,,,,,,,234.4558,5,2.4192,,left,0.5,,stimuli/card_100_transparent.png,300,100,5,0,5,0,1,,,,,,,,,,,,,,,,,,,,,,,,,,,,,,,,,,,,,,,,,,,,
,,,,59ed38ef3e4b5a00016aa904,A,2024-07-02_15h51.08.662,Slot Machine Game,2023.1.3,Win32,58.82352941,,,,,,,,,,,,,,,,,,,238.1893,6,0.1756,,left,1,,stimuli/card_100_transparent.png,400,100,6,0,6,0,1,,,,,,,,,,,,,,,,,,,,,,,,,,,,,,,,,,,,,,,,,,,,
,,,,59ed38ef3e4b5a00016aa904,A,2024-07-02_15h51.08.662,Slot Machine Game,2023.1.3,Win32,58.82352941,,,,,,,,,,,,,,,,,,,240.1893,7,0.0502,,left,1.5,,stimuli/card_0_transparent.png,400,0,7,0,7,0,1,,,,,,,,,,,,,,,,,,,,,,,,,,,,,,,,,,,,,,,,,,,,
,,,,59ed38ef3e4b5a00016aa904,A,2024-07-02_15h51.08.662,Slot Machine Game,2023.1.3,Win32,58.82352941,,,,,,,,,,,,,,,,,,,242.5726,8,0.0545,,left,1.5,,stimuli/card_0_transparent.png,400,0,8,0,8,0,1,,,,,,,,,,,,,,,,,,,,,,,,,,,,,,,,,,,,,,,,,,,,
,,,,59ed38ef3e4b5a00016aa904,A,2024-07-02_15h51.08.662,Slot Machine Game,2023.1.3,Win32,58.82352941,,,,,,,,,,,,,,,,,,,244.9386,9,2.2743,,right,0.5,,stimuli/card_100_transparent.png,500,100,9,0,9,0,1,,,,,,,,,,,,,,,,,,,,,,,,,,,,,,,,,,,,,,,,,,,,
,,,,59ed38ef3e4b5a00016aa904,A,2024-07-02_15h51.08.662,Slot Machine Game,2023.1.3,Win32,58.82352941,,,,,,,,,,,,,,,,,,,248.5226,10,0.1672,,right,1.5,,stimuli/card_0_transparent.png,500,0,10,0,10,0,1,,,,,,,,,,,,,,,,,,,,,,,,,,,,,,,,,,,,,,,,,,,,
,,,,59ed38ef3e4b5a00016aa904,A,2024-07-02_15h51.08.662,Slot Machine Game,2023.1.3,Win32,58.82352941,,,,,,,,,,,,,,,,,,,251.0272,11,0.6061,,right,1.5,,stimuli/card_10_transparent.png,510,10,11,0,11,0,1,,,,,,,,,,,,,,,,,,,,,,,,,,,,,,,,,,,,,,,,,,,,
,,,,59ed38ef3e4b5a00016aa904,A,2024-07-02_15h51.08.662,Slot Machine Game,2023.1.3,Win32,58.82352941,,,,,,,,,,,,,,,,,,,253.9557,12,0.5827,,right,1,,stimuli/card_10_transparent.png,520,10,12,0,12,0,1,,,,,,,,,,,,,,,,,,,,,,,,,,,,,,,,,,,,,,,,,,,,
,,,,59ed38ef3e4b5a00016aa904,A,2024-07-02_15h51.08.662,Slot Machine Game,2023.1.3,Win32,58.82352941,,,,,,,,,,,,,,,,,,,256.3393,13,1.8462,,up,1,,stimuli/card_100_transparent.png,620,100,13,0,13,0,1,,,,,,,,,,,,,,,,,,,,,,,,,,,,,,,,,,,,,,,,,,,,
,,,,59ed38ef3e4b5a00016aa904,A,2024-07-02_15h51.08.662,Slot Machine Game,2023.1.3,Win32,58.82352941,,,,,,,,,,,,,,,,,,,260.0058,14,0.2002,,up,1,,stimuli/card_100_transparent.png,720,100,14,0,14,0,1,,,,,,,,,,,,,,,,,,,,,,,,,,,,,,,,,,,,,,,,,,,,
,,,,59ed38ef3e4b5a00016aa904,A,2024-07-02_15h51.08.662,Slot Machine Game,2023.1.3,Win32,58.82352941,,,,,,,,,,,,,,,,,,,,,,,,,,,,,,,,,,,262.0394,,,267.0433,space,2.7868,,,,,,,,,,,,,,,,,,,,,,,,,,,,,,,,,,,,,
,,,,59ed38ef3e4b5a00016aa904,A,2024-07-02_15h51.08.662,Slot Machine Game,2023.1.3,Win32,58.82352941,,,,,,,,,,,,,,,,,,,,,,,,,,,,,,,,,,,,,,,,,,269.857,2,"[2,4,8,0,1,3,9,6,8,5]",space,1.4411,,,,,,,,,,,,,,,,,,,,,,,,,,,,,,,
,,,,59ed38ef3e4b5a00016aa904,A,2024-07-02_15h51.08.662,Slot Machine Game,2023.1.3,Win32,58.82352941,,,,,,,,,,,,,,,,,,,,,,,,,,,0,,,,,,,,,,,,,,,,,,,,,1,3,"[15,15]","[[3,1,2],[3,1,2]]",271.3496,0,left,0.1176,,0.5,0.3,"[3,1,2]",0.823612627,stimuli/card_0_transparent.png,0,0,0,0,0,1,,,,,,,,,,
,,,,59ed38ef3e4b5a00016aa904,A,2024-07-02_15h51.08.662,Slot Machine Game,2023.1.3,Win32,58.82352941,,,,,,,,,,,,,,,,,,,,,,,,,,,10,,,,,,,,,,,,,,,,,,,,,1,3,,,272.7898,1,left,1.0717,,1.5,0.3,"[3,1,2]",0.144274722,stimuli/card_10_transparent.png,10,1,0,1,0,1,,,,,,,,,,
,,,,59ed38ef3e4b5a00016aa904,A,2024-07-02_15h51.08.662,Slot Machine Game,2023.1.3,Win32,58.82352941,,,,,,,,,,,,,,,,,,,,,,,,,,,10,,,,,,,,,,,,,,,,,,,,,1,3,,,276.1895,2,up,1.2176,,0.5,0.3,"[3,1,2]",0.08128417,stimuli/card_0_transparent.png,0,2,0,2,0,1,,,,,,,,,,
,,,,59ed38ef3e4b5a00016aa904,A,2024-07-02_15h51.08.662,Slot Machine Game,2023.1.3,Win32,58.82352941,,,,,,,,,,,,,,,,,,,,,,,,,,,110,,,,,,,,,,,,,,,,,,,,,1,3,,,278.7395,3,up,0.5007,,1.5,0.3,"[3,1,2]",0.987071916,stimuli/card_100_transparent.png,100,3,0,3,0,1,,,,,,,,,,
,,,,59ed38ef3e4b5a00016aa904,A,2024-07-02_15h51.08.662,Slot Machine Game,2023.1.3,Win32,58.82352941,,,,,,,,,,,,,,,,,,,,,,,,,,,210,,,,,,,,,,,,,,,,,,,,,1,3,,,281.5729,4,up,0.0885,,1,0.3,"[3,1,2]",0.998278576,stimuli/card_100_transparent.png,100,4,0,4,0,1,,,,,,,,,,
,,,,59ed38ef3e4b5a00016aa904,A,2024-07-02_15h51.08.662,Slot Machine Game,2023.1.3,Win32,58.82352941,,,,,,,,,,,,,,,,,,,,,,,,,,,310,,,,,,,,,,,,,,,,,,,,,1,3,,,283.4894,5,up,0.7077,,1,0.3,"[3,1,2]",0.646487687,stimuli/card_100_transparent.png,100,5,0,5,0,1,,,,,,,,,,
,,,,59ed38ef3e4b5a00016aa904,A,2024-07-02_15h51.08.662,Slot Machine Game,2023.1.3,Win32,58.82352941,,,,,,,,,,,,,,,,,,,,,,,,,,,410,,,,,,,,,,,,,,,,,,,,,1,3,,,286.0229,6,up,0.4238,,1.5,0.3,"[3,1,2]",0.391287926,stimuli/card_100_transparent.png,100,6,0,6,0,1,,,,,,,,,,
,,,,59ed38ef3e4b5a00016aa904,A,2024-07-02_15h51.08.662,Slot Machine Game,2023.1.3,Win32,58.82352941,,,,,,,,,,,,,,,,,,,,,,,,,,,510,,,,,,,,,,,,,,,,,,,,,1,3,,,288.7724,7,up,0.0009,,0.5,0.3,"[3,1,2]",0.297299077,stimuli/card_100_transparent.png,100,7,0,7,0,1,,,,,,,,,,
,,,,59ed38ef3e4b5a00016aa904,A,2024-07-02_15h51.08.662,Slot Machine Game,2023.1.3,Win32,58.82352941,,,,,,,,,,,,,,,,,,,,,,,,,,,610,,,,,,,,,,,,,,,,,,,,,1,3,,,290.0894,8,up,0.4277,,1,0.3,"[3,1,2]",0.82111299,stimuli/card_100_transparent.png,100,8,0,8,0,1,,,,,,,,,,
,,,,59ed38ef3e4b5a00016aa904,A,2024-07-02_15h51.08.662,Slot Machine Game,2023.1.3,Win32,58.82352941,,,,,,,,,,,,,,,,,,,,,,,,,,,620,,,,,,,,,,,,,,,,,,,,,1,3,,,292.3394,9,up,0.1356,,1.5,0.3,"[3,1,2]",0.10438051,stimuli/card_10_transparent.png,10,9,0,9,0,1,,,,,,,,,,
,,,,59ed38ef3e4b5a00016aa904,A,2024-07-02_15h51.08.662,Slot Machine Game,2023.1.3,Win32,58.82352941,,,,,,,,,,,,,,,,,,,,,,,,,,,720,,,,,,,,,,,,,,,,,,,,,1,3,,,294.806,10,up,0.4228,,1,0.3,"[3,1,2]",0.330977826,stimuli/card_100_transparent.png,100,10,0,10,0,1,,,,,,,,,,
,,,,59ed38ef3e4b5a00016aa904,A,2024-07-02_15h51.08.662,Slot Machine Game,2023.1.3,Win32,58.82352941,,,,,,,,,,,,,,,,,,,,,,,,,,,820,,,,,,,,,,,,,,,,,,,,,1,3,,,297.056,11,up,0.0172,,1.5,0.3,"[3,1,2]",0.329382883,stimuli/card_100_transparent.png,100,11,0,11,0,1,,,,,,,,,,
,,,,59ed38ef3e4b5a00016aa904,A,2024-07-02_15h51.08.662,Slot Machine Game,2023.1.3,Win32,58.82352941,,,,,,,,,,,,,,,,,,,,,,,,,,,920,,,,,,,,,,,,,,,,,,,,,1,3,,,299.406,12,up,0.0228,,1.5,0.3,"[3,1,2]",0.210253554,stimuli/card_100_transparent.png,100,12,0,12,0,1,,,,,,,,,,
,,,,59ed38ef3e4b5a00016aa904,A,2024-07-02_15h51.08.662,Slot Machine Game,2023.1.3,Win32,58.82352941,,,,,,,,,,,,,,,,,,,,,,,,,,,930,,,,,,,,,,,,,,,,,,,,,1,3,,,301.756,13,up,0.0554,,1,0.3,"[3,1,2]",0.181664738,stimuli/card_10_transparent.png,10,13,0,13,0,1,,,,,,,,,,
,,,,59ed38ef3e4b5a00016aa904,A,2024-07-02_15h51.08.662,Slot Machine Game,2023.1.3,Win32,58.82352941,,,,,,,,,,,,,,,,,,,,,,,,,,,1030,,,,,,,,,,,,,,,,,,,,,1,3,,,303.6394,14,up,0.3663,,1.5,0.3,"[3,1,2]",0.807374515,stimuli/card_100_transparent.png,100,14,0,14,0,1,,,,,,,,,,
,,,,59ed38ef3e4b5a00016aa904,A,2024-07-02_15h51.08.662,Slot Machine Game,2023.1.3,Win32,58.82352941,,,,,,,,,,,,,,,,,,,,,,,,,,,,,,,,,,,306.3396,,,,,,,,,,,,,,,,,,,,,,,,,,,,,,,,,[1030],0,0,0,0,1,,,,
,,,,59ed38ef3e4b5a00016aa904,A,2024-07-02_15h51.08.662,Slot Machine Game,2023.1.3,Win32,58.82352941,,,,,,,,,,,,,,,,,,,,,,,,,,,10,,,,,,,,,,,,,,,,,,,,,2,5,"[5,15]","[[1,2,3],[3,1,2]]",311.363,0,up,0.9217,,0.5,0.3,"[1,2,3]",0.55654386,stimuli/card_10_transparent.png,10,0,0,0,0,1,,,,,,,,,,
,,,,59ed38ef3e4b5a00016aa904,A,2024-07-02_15h51.08.662,Slot Machine Game,2023.1.3,Win32,58.82352941,,,,,,,,,,,,,,,,,,,,,,,,,,,110,,,,,,,,,,,,,,,,,,,,,2,5,,,313.6225,1,left,0.3144,,1,0.3,"[1,2,3]",0.318537077,stimuli/card_100_transparent.png,100,1,0,1,0,1,,,,,,,,,,
,,,,59ed38ef3e4b5a00016aa904,A,2024-07-02_15h51.08.662,Slot Machine Game,2023.1.3,Win32,58.82352941,,,,,,,,,,,,,,,,,,,,,,,,,,,210,,,,,,,,,,,,,,,,,,,,,2,5,,,315.7558,2,left,0.0336,,1,0.3,"[1,2,3]",0.927252749,stimuli/card_100_transparent.png,100,2,0,2,0,1,,,,,,,,,,
,,,,59ed38ef3e4b5a00016aa904,A,2024-07-02_15h51.08.662,Slot Machine Game,2023.1.3,Win32,58.82352941,,,,,,,,,,,,,,,,,,,,,,,,,,,310,,,,,,,,,,,,,,,,,,,,,2,5,,,317.6271,3,left,0.5284,,0.5,0.3,"[1,2,3]",0.372267805,stimuli/card_100_transparent.png,100,3,0,3,0,1,,,,,,,,,,
,,,,59ed38ef3e4b5a00016aa904,A,2024-07-02_15h51.08.662,Slot Machine Game,2023.1.3,Win32,58.82352941,,,,,,,,,,,,,,,,,,,,,,,,,,,410,,,,,,,,,,,,,,,,,,,,,2,5,,,319.4892,4,left,0.0836,,1,0.3,"[1,2,3]",0.484551352,stimuli/card_100_transparent.png,100,4,0,4,0,1,,,,,,,,,,
,,,,59ed38ef3e4b5a00016aa904,A,2024-07-02_15h51.08.662,Slot Machine Game,2023.1.3,Win32,58.82352941,,,,,,,,,,,,,,,,,,,,,,,,,,,420,,,,,,,,,,,,,,,,,,,,,2,5,,,321.406,5,left,0.0172,,0.5,0.3,"[3,1,2]",0.109382288,stimuli/card_10_transparent.png,10,5,0,5,0,1,,,,,,,,,,
,,,,59ed38ef3e4b5a00016aa904,A,2024-07-02_15h51.08.662,Slot Machine Game,2023.1.3,Win32,58.82352941,,,,,,,,,,,,,,,,,,,,,,,,,,,420,,,,,,,,,,,,,,,,,,,,,2,5,,,322.7557,6,left,0.4089,,1.5,0.3,"[3,1,2]",0.790612507,stimuli/card_0_transparent.png,0,6,0,6,0,1,,,,,,,,,,
,,,,59ed38ef3e4b5a00016aa904,A,2024-07-02_15h51.08.662,Slot Machine Game,2023.1.3,Win32,58.82352941,,,,,,,,,,,,,,,,,,,,,,,,,,,420,,,,,,,,,,,,,,,,,,,,,2,5,,,325.489,7,right,0.2283,,1.5,0.3,"[3,1,2]",0.011988644,stimuli/card_0_transparent.png,0,7,0,7,0,1,,,,,,,,,,
,,,,59ed38ef3e4b5a00016aa904,A,2024-07-02_15h51.08.662,Slot Machine Game,2023.1.3,Win32,58.82352941,,,,,,,,,,,,,,,,,,,,,,,,,,,430,,,,,,,,,,,,,,,,,,,,,2,5,,,328.0438,8,right,0.3675,,1,0.3,"[3,1,2]",0.97674055,stimuli/card_10_transparent.png,10,8,0,8,0,1,,,,,,,,,,
,,,,59ed38ef3e4b5a00016aa904,A,2024-07-02_15h51.08.662,Slot Machine Game,2023.1.3,Win32,58.82352941,,,,,,,,,,,,,,,,,,,,,,,,,,,530,,,,,,,,,,,,,,,,,,,,,2,5,,,330.2393,9,up,0.5177,,1.5,0.3,"[3,1,2]",0.449088391,stimuli/card_100_transparent.png,100,9,0,9,0,1,,,,,,,,,,
,,,,59ed38ef3e4b5a00016aa904,A,2024-07-02_15h51.08.662,Slot Machine Game,2023.1.3,Win32,58.82352941,,,,,,,,,,,,,,,,,,,,,,,,,,,630,,,,,,,,,,,,,,,,,,,,,2,5,,,333.0906,10,up,0.1163,,1.5,0.3,"[3,1,2]",0.276881333,stimuli/card_100_transparent.png,100,10,0,10,0,1,,,,,,,,,,
,,,,59ed38ef3e4b5a00016aa904,A,2024-07-02_15h51.08.662,Slot Machine Game,2023.1.3,Win32,58.82352941,,,,,,,,,,,,,,,,,,,,,,,,,,,730,,,,,,,,,,,,,,,,,,,,,2,5,,,335.5225,11,up,0.6102,,1.5,0.3,"[3,1,2]",0.813073179,stimuli/card_100_transparent.png,100,11,0,11,0,1,,,,,,,,,,
,,,,59ed38ef3e4b5a00016aa904,A,2024-07-02_15h51.08.662,Slot Machine Game,2023.1.3,Win32,58.82352941,,,,,,,,,,,,,,,,,,,,,,,,,,,740,,,,,,,,,,,,,,,,,,,,,2,5,,,338.4561,12,up,0.099,,0.5,0.3,"[3,1,2]",0.116252995,stimuli/card_10_transparent.png,10,12,0,12,0,1,,,,,,,,,,
,,,,59ed38ef3e4b5a00016aa904,A,2024-07-02_15h51.08.662,Slot Machine Game,2023.1.3,Win32,58.82352941,,,,,,,,,,,,,,,,,,,,,,,,,,,840,,,,,,,,,,,,,,,,,,,,,2,5,,,339.8727,13,up,0.2445,,1,0.3,"[3,1,2]",0.612247353,stimuli/card_100_transparent.png,100,13,0,13,0,1,,,,,,,,,,
,,,,59ed38ef3e4b5a00016aa904,A,2024-07-02_15h51.08.662,Slot Machine Game,2023.1.3,Win32,58.82352941,,,,,,,,,,,,,,,,,,,,,,,,,,,940,,,,,,,,,,,,,,,,,,,,,2,5,,,341.9429,14,up,0.0818,,0.5,0.3,"[3,1,2]",0.241959537,stimuli/card_100_transparent.png,100,14,0,14,0,1,,,,,,,,,,
,,,,59ed38ef3e4b5a00016aa904,A,2024-07-02_15h51.08.662,Slot Machine Game,2023.1.3,Win32,58.82352941,,,,,,,,,,,,,,,,,,,,,,,,,,,,,,,,,,,343.356,,,,,,,,,,,,,,,,,,,,,,,,,,,,,,,,,"[1030,940]",1,0,1,0,1,,,,
,,,,59ed38ef3e4b5a00016aa904,A,2024-07-02_15h51.08.662,Slot Machine Game,2023.1.3,Win32,58.82352941,,,,,,,,,,,,,,,,,,,,,,,,,,,10,,,,,,,,,,,,,,,,,,,,,3,9,"[8,15]","[[3,2,1],[3,1,2]]",348.3683,0,up,0.5006,,0.5,0.3,"[3,2,1]",0.819806453,stimuli/card_10_transparent.png,10,0,0,0,0,1,,,,,,,,,,
,,,,59ed38ef3e4b5a00016aa904,A,2024-07-02_15h51.08.662,Slot Machine Game,2023.1.3,Win32,58.82352941,,,,,,,,,,,,,,,,,,,,,,,,,,,10,,,,,,,,,,,,,,,,,,,,,3,9,,,350.1894,1,left,0.2503,,0.5,0.3,"[3,2,1]",0.47058474,stimuli/card_0_transparent.png,0,1,0,1,0,1,,,,,,,,,,
,,,,59ed38ef3e4b5a00016aa904,A,2024-07-02_15h51.08.662,Slot Machine Game,2023.1.3,Win32,58.82352941,,,,,,,,,,,,,,,,,,,,,,,,,,,10,,,,,,,,,,,,,,,,,,,,,3,9,,,351.7727,2,right,0.4181,,0.5,0.3,"[3,2,1]",0.07754353,stimuli/card_0_transparent.png,0,2,0,2,0,1,,,,,,,,,,
,,,,59ed38ef3e4b5a00016aa904,A,2024-07-02_15h51.08.662,Slot Machine Game,2023.1.3,Win32,58.82352941,,,,,,,,,,,,,,,,,,,,,,,,,,,10,,,,,,,,,,,,,,,,,,,,,3,9,,,353.5227,3,up,0.0007,,0.5,0.3,"[3,2,1]",0.013355028,stimuli/card_0_transparent.png,0,3,0,3,0,1,,,,,,,,,,
,,,,59ed38ef3e4b5a00016aa904,A,2024-07-02_15h51.08.662,Slot Machine Game,2023.1.3,Win32,58.82352941,,,,,,,,,,,,,,,,,,,,,,,,,,,20,,,,,,,,,,,,,,,,,,,,,3,9,,,354.8559,4,up,0.0191,,0.5,0.3,"[3,2,1]",0.562757583,stimuli/card_10_transparent.png,10,4,0,4,0,1,,,,,,,,,,
,,,,59ed38ef3e4b5a00016aa904,A,2024-07-02_15h51.08.662,Slot Machine Game,2023.1.3,Win32,58.82352941,,,,,,,,,,,,,,,,,,,,,,,,,,,30,,,,,,,,,,,,,,,,,,,,,3,9,,,356.1894,5,up,0.4683,,1,0.3,"[3,2,1]",0.464592386,stimuli/card_10_transparent.png,10,5,0,5,0,1,,,,,,,,,,
,,,,59ed38ef3e4b5a00016aa904,A,2024-07-02_15h51.08.662,Slot Machine Game,2023.1.3,Win32,58.82352941,,,,,,,,,,,,,,,,,,,,,,,,,,,40,,,,,,,,,,,,,,,,,,,,,3,9,,,358.506,6,left,0.7,,1.5,0.3,"[3,2,1]",0.104971599,stimuli/card_10_transparent.png,10,6,0,6,0,1,,,,,,,,,,
,,,,59ed38ef3e4b5a00016aa904,A,2024-07-02_15h51.08.662,Slot Machine Game,2023.1.3,Win32,58.82352941,,,,,,,,,,,,,,,,,,,,,,,,,,,40,,,,,,,,,,,,,,,,,,,,,3,9,,,361.5394,7,left,0.1654,,1,0.3,"[3,2,1]",0.805363573,stimuli/card_0_transparent.png,0,7,0,7,0,1,,,,,,,,,,
,,,,59ed38ef3e4b5a00016aa904,A,2024-07-02_15h51.08.662,Slot Machine Game,2023.1.3,Win32,58.82352941,,,,,,,,,,,,,,,,,,,,,,,,,,,50,,,,,,,,,,,,,,,,,,,,,3,9,,,363.5222,8,right,0.0346,,1,0.3,"[3,1,2]",0.6099371,stimuli/card_10_transparent.png,10,8,0,8,0,1,,,,,,,,,,
,,,,59ed38ef3e4b5a00016aa904,A,2024-07-02_15h51.08.662,Slot Machine Game,2023.1.3,Win32,58.82352941,,,,,,,,,,,,,,,,,,,,,,,,,,,60,,,,,,,,,,,,,,,,,,,,,3,9,,,365.3728,9,right,0.4559,,0.5,0.3,"[3,1,2]",0.256784054,stimuli/card_10_transparent.png,10,9,0,9,0,1,,,,,,,,,,
,,,,59ed38ef3e4b5a00016aa904,A,2024-07-02_15h51.08.662,Slot Machine Game,2023.1.3,Win32,58.82352941,,,,,,,,,,,,,,,,,,,,,,,,,,,70,,,,,,,,,,,,,,,,,,,,,3,9,,,367.156,10,right,0.2088,,0.5,0.3,"[3,1,2]",0.262890482,stimuli/card_10_transparent.png,10,10,0,10,0,1,,,,,,,,,,
,,,,59ed38ef3e4b5a00016aa904,A,2024-07-02_15h51.08.662,Slot Machine Game,2023.1.3,Win32,58.82352941,,,,,,,,,,,,,,,,,,,,,,,,,,,70,,,,,,,,,,,,,,,,,,,,,3,9,,,368.6893,11,left,0.3842,,1.5,0.3,"[3,1,2]",0.566601455,stimuli/card_0_transparent.png,0,11,0,11,0,1,,,,,,,,,,
,,,,59ed38ef3e4b5a00016aa904,A,2024-07-02_15h51.08.662,Slot Machine Game,2023.1.3,Win32,58.82352941,,,,,,,,,,,,,,,,,,,,,,,,,,,80,,,,,,,,,,,,,,,,,,,,,3,9,,,371.406,12,left,0.2007,,0.5,0.3,"[3,1,2]",0.102069951,stimuli/card_10_transparent.png,10,12,0,12,0,1,,,,,,,,,,
,,,,59ed38ef3e4b5a00016aa904,A,2024-07-02_15h51.08.662,Slot Machine Game,2023.1.3,Win32,58.82352941,,,,,,,,,,,,,,,,,,,,,,,,,,,180,,,,,,,,,,,,,,,,,,,,,3,9,,,372.9394,13,up,0.3536,,0.5,0.3,"[3,1,2]",0.780174568,stimuli/card_100_transparent.png,100,13,0,13,0,1,,,,,,,,,,
,,,,59ed38ef3e4b5a00016aa904,A,2024-07-02_15h51.08.662,Slot Machine Game,2023.1.3,Win32,58.82352941,,,,,,,,,,,,,,,,,,,,,,,,,,,280,,,,,,,,,,,,,,,,,,,,,3,9,,,374.6228,14,up,0.2541,,0.5,0.3,"[3,1,2]",0.95583774,stimuli/card_100_transparent.png,100,14,0,14,0,1,,,,,,,,,,
,,,,59ed38ef3e4b5a00016aa904,A,2024-07-02_15h51.08.662,Slot Machine Game,2023.1.3,Win32,58.82352941,,,,,,,,,,,,,,,,,,,,,,,,,,,,,,,,,,,376.2059,,,,,,,,,,,,,,,,,,,,,,,,,,,,,,,,,"[1030,940,280]",2,0,2,0,1,,,,
,,,,59ed38ef3e4b5a00016aa904,A,2024-07-02_15h51.08.662,Slot Machine Game,2023.1.3,Win32,58.82352941,,,,,,,,,,,,,,,,,,,,,,,,,,,100,,,,,,,,,,,,,,,,,,,,,4,1,"[12,15]","[[2,1,3],[2,3,1]]",381.2183,0,up,0.8472,,1,0.3,"[2,1,3]",0.51719298,stimuli/card_100_transparent.png,100,0,0,0,0,1,,,,,,,,,,
,,,,59ed38ef3e4b5a00016aa904,A,2024-07-02_15h51.08.662,Slot Machine Game,2023.1.3,Win32,58.82352941,,,,,,,,,,,,,,,,,,,,,,,,,,,200,,,,,,,,,,,,,,,,,,,,,4,1,,,383.8605,1,up,0.1544,,1,0.3,"[2,1,3]",0.93622815,stimuli/card_100_transparent.png,100,1,0,1,0,1,,,,,,,,,,
,,,,59ed38ef3e4b5a00016aa904,A,2024-07-02_15h51.08.662,Slot Machine Game,2023.1.3,Win32,58.82352941,,,,,,,,,,,,,,,,,,,,,,,,,,,300,,,,,,,,,,,,,,,,,,,,,4,1,,,385.8394,2,up,0.0351,,0.5,0.3,"[2,1,3]",0.602075362,stimuli/card_100_transparent.png,100,2,0,2,0,1,,,,,,,,,,
,,,,59ed38ef3e4b5a00016aa904,A,2024-07-02_15h51.08.662,Slot Machine Game,2023.1.3,Win32,58.82352941,,,,,,,,,,,,,,,,,,,,,,,,,,,400,,,,,,,,,,,,,,,,,,,,,4,1,,,387.2061,3,up,0.8842,,1,0.3,"[2,1,3]",0.38696425,stimuli/card_100_transparent.png,100,3,0,3,0,1,,,,,,,,,,
,,,,59ed38ef3e4b5a00016aa904,A,2024-07-02_15h51.08.662,Slot Machine Game,2023.1.3,Win32,58.82352941,,,,,,,,,,,,,,,,,,,,,,,,,,,500,,,,,,,,,,,,,,,,,,,,,4,1,,,389.9229,4,up,0.1689,,1.5,0.3,"[2,1,3]",0.722019456,stimuli/card_100_transparent.png,100,4,0,4,0,1,,,,,,,,,,
,,,,59ed38ef3e4b5a00016aa904,A,2024-07-02_15h51.08.662,Slot Machine Game,2023.1.3,Win32,58.82352941,,,,,,,,,,,,,,,,,,,,,,,,,,,600,,,,,,,,,,,,,,,,,,,,,4,1,,,392.4223,5,up,0.0335,,1.5,0.3,"[2,1,3]",0.402010845,stimuli/card_100_transparent.png,100,5,0,5,0,1,,,,,,,,,,
,,,,59ed38ef3e4b5a00016aa904,A,2024-07-02_15h51.08.662,Slot Machine Game,2023.1.3,Win32,58.82352941,,,,,,,,,,,,,,,,,,,,,,,,,,,600,,,,,,,,,,,,,,,,,,,,,4,1,,,394.7895,6,up,0.5092,,1.5,0.3,"[2,1,3]",0.054519964,stimuli/card_0_transparent.png,0,6,0,6,0,1,,,,,,,,,,
,,,,59ed38ef3e4b5a00016aa904,A,2024-07-02_15h51.08.662,Slot Machine Game,2023.1.3,Win32,58.82352941,,,,,,,,,,,,,,,,,,,,,,,,,,,700,,,,,,,,,,,,,,,,,,,,,4,1,,,397.6228,7,up,0.2885,,1.5,0.3,"[2,1,3]",0.976924065,stimuli/card_100_transparent.png,100,7,0,7,0,1,,,,,,,,,,
,,,,59ed38ef3e4b5a00016aa904,A,2024-07-02_15h51.08.662,Slot Machine Game,2023.1.3,Win32,58.82352941,,,,,,,,,,,,,,,,,,,,,,,,,,,800,,,,,,,,,,,,,,,,,,,,,4,1,,,400.256,8,up,0.0467,,0.5,0.3,"[2,1,3]",0.431573698,stimuli/card_100_transparent.png,100,8,0,8,0,1,,,,,,,,,,
,,,,59ed38ef3e4b5a00016aa904,A,2024-07-02_15h51.08.662,Slot Machine Game,2023.1.3,Win32,58.82352941,,,,,,,,,,,,,,,,,,,,,,,,,,,900,,,,,,,,,,,,,,,,,,,,,4,1,,,401.6228,9,up,0.2104,,0.5,0.3,"[2,1,3]",0.370555524,stimuli/card_100_transparent.png,100,9,0,9,0,1,,,,,,,,,,
,,,,59ed38ef3e4b5a00016aa904,A,2024-07-02_15h51.08.662,Slot Machine Game,2023.1.3,Win32,58.82352941,,,,,,,,,,,,,,,,,,,,,,,,,,,1000,,,,,,,,,,,,,,,,,,,,,4,1,,,403.1395,10,up,0.026,,1.5,0.3,"[2,1,3]",0.733552493,stimuli/card_100_transparent.png,100,10,0,10,0,1,,,,,,,,,,
,,,,59ed38ef3e4b5a00016aa904,A,2024-07-02_15h51.08.662,Slot Machine Game,2023.1.3,Win32,58.82352941,,,,,,,,,,,,,,,,,,,,,,,,,,,1100,,,,,,,,,,,,,,,,,,,,,4,1,,,405.4895,11,up,0.953,,1,0.3,"[2,1,3]",0.26411814,stimuli/card_100_transparent.png,100,11,0,11,0,1,,,,,,,,,,
,,,,59ed38ef3e4b5a00016aa904,A,2024-07-02_15h51.08.662,Slot Machine Game,2023.1.3,Win32,58.82352941,,,,,,,,,,,,,,,,,,,,,,,,,,,1100,,,,,,,,,,,,,,,,,,,,,4,1,,,408.2724,12,up,0.02,,1,0.3,"[2,3,1]",0.758054374,stimuli/card_0_transparent.png,0,12,0,12,0,1,,,,,,,,,,
,,,,59ed38ef3e4b5a00016aa904,A,2024-07-02_15h51.08.662,Slot Machine Game,2023.1.3,Win32,58.82352941,,,,,,,,,,,,,,,,,,,,,,,,,,,1100,,,,,,,,,,,,,,,,,,,,,4,1,,,410.1228,13,up,0.0422,,0.5,0.3,"[2,3,1]",0.290118764,stimuli/card_0_transparent.png,0,13,0,13,0,1,,,,,,,,,,
,,,,59ed38ef3e4b5a00016aa904,A,2024-07-02_15h51.08.662,Slot Machine Game,2023.1.3,Win32,58.82352941,,,,,,,,,,,,,,,,,,,,,,,,,,,1200,,,,,,,,,,,,,,,,,,,,,4,1,,,411.4893,14,right,0.043,,1,0.3,"[2,3,1]",0.934330006,stimuli/card_100_transparent.png,100,14,0,14,0,1,,,,,,,,,,
,,,,59ed38ef3e4b5a00016aa904,A,2024-07-02_15h51.08.662,Slot Machine Game,2023.1.3,Win32,58.82352941,,,,,,,,,,,,,,,,,,,,,,,,,,,,,,,,,,,413.3441,,,,,,,,,,,,,,,,,,,,,,,,,,,,,,,,,"[1030,940,280,1200]",3,0,3,0,1,,,,
,,,,59ed38ef3e4b5a00016aa904,A,2024-07-02_15h51.08.662,Slot Machine Game,2023.1.3,Win32,58.82352941,,,,,,,,,,,,,,,,,,,,,,,,,,,10,,,,,,,,,,,,,,,,,,,,,5,2,"[6,15]","[[1,3,2],[3,2,1]]",418.3496,0,up,0.5615,,1,0.3,"[1,3,2]",0.182447634,stimuli/card_10_transparent.png,10,0,0,0,0,1,,,,,,,,,,
,,,,59ed38ef3e4b5a00016aa904,A,2024-07-02_15h51.08.662,Slot Machine Game,2023.1.3,Win32,58.82352941,,,,,,,,,,,,,,,,,,,,,,,,,,,10,,,,,,,,,,,,,,,,,,,,,5,2,,,420.7226,1,up,0.186,,1,0.3,"[1,3,2]",0.872831622,stimuli/card_0_transparent.png,0,1,0,1,0,1,,,,,,,,,,
,,,,59ed38ef3e4b5a00016aa904,A,2024-07-02_15h51.08.662,Slot Machine Game,2023.1.3,Win32,58.82352941,,,,,,,,,,,,,,,,,,,,,,,,,,,20,,,,,,,,,,,,,,,,,,,,,5,2,,,422.7389,2,right,0.7946,,1.5,0.3,"[1,3,2]",0.222120423,stimuli/card_10_transparent.png,10,2,0,2,0,1,,,,,,,,,,
,,,,59ed38ef3e4b5a00016aa904,A,2024-07-02_15h51.08.662,Slot Machine Game,2023.1.3,Win32,58.82352941,,,,,,,,,,,,,,,,,,,,,,,,,,,120,,,,,,,,,,,,,,,,,,,,,5,2,,,425.8395,3,left,1.7853,,1.5,0.3,"[1,3,2]",0.96827473,stimuli/card_100_transparent.png,100,3,0,3,0,1,,,,,,,,,,
,,,,59ed38ef3e4b5a00016aa904,A,2024-07-02_15h51.08.662,Slot Machine Game,2023.1.3,Win32,58.82352941,,,,,,,,,,,,,,,,,,,,,,,,,,,220,,,,,,,,,,,,,,,,,,,,,5,2,,,429.9562,4,left,0.0728,,1.5,0.3,"[1,3,2]",0.963304139,stimuli/card_100_transparent.png,100,4,0,4,0,1,,,,,,,,,,
,,,,59ed38ef3e4b5a00016aa904,A,2024-07-02_15h51.08.662,Slot Machine Game,2023.1.3,Win32,58.82352941,,,,,,,,,,,,,,,,,,,,,,,,,,,320,,,,,,,,,,,,,,,,,,,,,5,2,,,432.3607,5,left,0.3939,,1.5,0.3,"[1,3,2]",0.358189952,stimuli/card_100_transparent.png,100,5,0,5,0,1,,,,,,,,,,
,,,,59ed38ef3e4b5a00016aa904,A,2024-07-02_15h51.08.662,Slot Machine Game,2023.1.3,Win32,58.82352941,,,,,,,,,,,,,,,,,,,,,,,,,,,320,,,,,,,,,,,,,,,,,,,,,5,2,,,435.0729,6,left,0.076,,0.5,0.3,"[3,2,1]",0.720545635,stimuli/card_0_transparent.png,0,6,0,6,0,1,,,,,,,,,,
,,,,59ed38ef3e4b5a00016aa904,A,2024-07-02_15h51.08.662,Slot Machine Game,2023.1.3,Win32,58.82352941,,,,,,,,,,,,,,,,,,,,,,,,,,,330,,,,,,,,,,,,,,,,,,,,,5,2,,,436.4728,7,left,0.7672,,0.5,0.3,"[3,2,1]",0.199867088,stimuli/card_10_transparent.png,10,7,0,7,0,1,,,,,,,,,,
,,,,59ed38ef3e4b5a00016aa904,A,2024-07-02_15h51.08.662,Slot Machine Game,2023.1.3,Win32,58.82352941,,,,,,,,,,,,,,,,,,,,,,,,,,,330,,,,,,,,,,,,,,,,,,,,,5,2,,,438.5728,8,left,0.5013,,0.5,0.3,"[3,2,1]",0.778769714,stimuli/card_0_transparent.png,0,8,0,8,0,1,,,,,,,,,,
,,,,59ed38ef3e4b5a00016aa904,A,2024-07-02_15h51.08.662,Slot Machine Game,2023.1.3,Win32,58.82352941,,,,,,,,,,,,,,,,,,,,,,,,,,,340,,,,,,,,,,,,,,,,,,,,,5,2,,,440.4229,9,up,0.2814,,1,0.3,"[3,2,1]",0.961086479,stimuli/card_10_transparent.png,10,9,0,9,0,1,,,,,,,,,,
,,,,59ed38ef3e4b5a00016aa904,A,2024-07-02_15h51.08.662,Slot Machine Game,2023.1.3,Win32,58.82352941,,,,,,,,,,,,,,,,,,,,,,,,,,,350,,,,,,,,,,,,,,,,,,,,,5,2,,,442.5395,10,up,0.0169,,1.5,0.3,"[3,2,1]",0.821896534,stimuli/card_10_transparent.png,10,10,0,10,0,1,,,,,,,,,,
,,,,59ed38ef3e4b5a00016aa904,A,2024-07-02_15h51.08.662,Slot Machine Game,2023.1.3,Win32,58.82352941,,,,,,,,,,,,,,,,,,,,,,,,,,,450,,,,,,,,,,,,,,,,,,,,,5,2,,,444.8895,11,right,1.3839,,1,0.3,"[3,2,1]",0.418182956,stimuli/card_100_transparent.png,100,11,0,11,0,1,,,,,,,,,,
,,,,59ed38ef3e4b5a00016aa904,A,2024-07-02_15h51.08.662,Slot Machine Game,2023.1.3,Win32,58.82352941,,,,,,,,,,,,,,,,,,,,,,,,,,,550,,,,,,,,,,,,,,,,,,,,,5,2,,,448.0895,12,right,0.358,,1.5,0.3,"[3,2,1]",0.595047373,stimuli/card_100_transparent.png,100,12,0,12,0,1,,,,,,,,,,
,,,,59ed38ef3e4b5a00016aa904,A,2024-07-02_15h51.08.662,Slot Machine Game,2023.1.3,Win32,58.82352941,,,,,,,,,,,,,,,,,,,,,,,,,,,650,,,,,,,,,,,,,,,,,,,,,5,2,,,450.7942,13,right,0.3114,,0.5,0.3,"[3,2,1]",0.823696663,stimuli/card_100_transparent.png,100,13,0,13,0,1,,,,,,,,,,
,,,,59ed38ef3e4b5a00016aa904,A,2024-07-02_15h51.08.662,Slot Machine Game,2023.1.3,Win32,58.82352941,,,,,,,,,,,,,,,,,,,,,,,,,,,750,,,,,,,,,,,,,,,,,,,,,5,2,,,452.4228,14,right,0.3488,,1.5,0.3,"[3,2,1]",0.789427499,stimuli/card_100_transparent.png,100,14,0,14,0,1,,,,,,,,,,
,,,,59ed38ef3e4b5a00016aa904,A,2024-07-02_15h51.08.662,Slot Machine Game,2023.1.3,Win32,58.82352941,,,,,,,,,,,,,,,,,,,,,,,,,,,,,,,,,,,455.0895,,,,,,,,,,,,,,,,,,,,,,,,,,,,,,,,,"[1030,940,280,1200,750]",4,0,4,0,1,,,,
,,,,59ed38ef3e4b5a00016aa904,A,2024-07-02_15h51.08.662,Slot Machine Game,2023.1.3,Win32,58.82352941,,,,,,,,,,,,,,,,,,,,,,,,,,,0,,,,,,,,,,,,,,,,,,,,,6,4,"[7,15]","[[2,3,1],[1,2,3]]",460.1023,0,up,0.4387,,0.5,0.3,"[2,3,1]",0.479760707,stimuli/card_0_transparent.png,0,0,0,0,0,1,,,,,,,,,,
,,,,59ed38ef3e4b5a00016aa904,A,2024-07-02_15h51.08.662,Slot Machine Game,2023.1.3,Win32,58.82352941,,,,,,,,,,,,,,,,,,,,,,,,,,,100,,,,,,,,,,,,,,,,,,,,,6,4,,,461.8608,1,right,0.0642,,0.5,0.3,"[2,3,1]",0.531550282,stimuli/card_100_transparent.png,100,1,0,1,0,1,,,,,,,,,,
,,,,59ed38ef3e4b5a00016aa904,A,2024-07-02_15h51.08.662,Slot Machine Game,2023.1.3,Win32,58.82352941,,,,,,,,,,,,,,,,,,,,,,,,,,,200,,,,,,,,,,,,,,,,,,,,,6,4,,,463.2395,2,right,0.0006,,1,0.3,"[2,3,1]",0.836917283,stimuli/card_100_transparent.png,100,2,0,2,0,1,,,,,,,,,,
,,,,59ed38ef3e4b5a00016aa904,A,2024-07-02_15h51.08.662,Slot Machine Game,2023.1.3,Win32,58.82352941,,,,,,,,,,,,,,,,,,,,,,,,,,,210,,,,,,,,,,,,,,,,,,,,,6,4,,,465.073,3,right,0.9422,,0.5,0.3,"[2,3,1]",0.137495963,stimuli/card_10_transparent.png,10,3,0,3,0,1,,,,,,,,,,
,,,,59ed38ef3e4b5a00016aa904,A,2024-07-02_15h51.08.662,Slot Machine Game,2023.1.3,Win32,58.82352941,,,,,,,,,,,,,,,,,,,,,,,,,,,310,,,,,,,,,,,,,,,,,,,,,6,4,,,467.3396,4,right,0.1534,,1,0.3,"[2,3,1]",0.698599338,stimuli/card_100_transparent.png,100,4,0,4,0,1,,,,,,,,,,
,,,,59ed38ef3e4b5a00016aa904,A,2024-07-02_15h51.08.662,Slot Machine Game,2023.1.3,Win32,58.82352941,,,,,,,,,,,,,,,,,,,,,,,,,,,410,,,,,,,,,,,,,,,,,,,,,6,4,,,469.3275,5,right,0.0007,,1,0.3,"[2,3,1]",0.3143652,stimuli/card_100_transparent.png,100,5,0,5,0,1,,,,,,,,,,
,,,,59ed38ef3e4b5a00016aa904,A,2024-07-02_15h51.08.662,Slot Machine Game,2023.1.3,Win32,58.82352941,,,,,,,,,,,,,,,,,,,,,,,,,,,510,,,,,,,,,,,,,,,,,,,,,6,4,,,471.1562,6,right,0.3781,,1.5,0.3,"[2,3,1]",0.547230625,stimuli/card_100_transparent.png,100,6,0,6,0,1,,,,,,,,,,
,,,,59ed38ef3e4b5a00016aa904,A,2024-07-02_15h51.08.662,Slot Machine Game,2023.1.3,Win32,58.82352941,,,,,,,,,,,,,,,,,,,,,,,,,,,510,,,,,,,,,,,,,,,,,,,,,6,4,,,473.8729,7,right,0.4736,,1.5,0.3,"[1,2,3]",0.313187774,stimuli/card_0_transparent.png,0,7,0,7,0,1,,,,,,,,,,
,,,,59ed38ef3e4b5a00016aa904,A,2024-07-02_15h51.08.662,Slot Machine Game,2023.1.3,Win32,58.82352941,,,,,,,,,,,,,,,,,,,,,,,,,,,510,,,,,,,,,,,,,,,,,,,,,6,4,,,476.6608,8,right,0.3687,,0.5,0.3,"[1,2,3]",0.212013643,stimuli/card_0_transparent.png,0,8,0,8,0,1,,,,,,,,,,
,,,,59ed38ef3e4b5a00016aa904,A,2024-07-02_15h51.08.662,Slot Machine Game,2023.1.3,Win32,58.82352941,,,,,,,,,,,,,,,,,,,,,,,,,,,520,,,,,,,,,,,,,,,,,,,,,6,4,,,478.339,9,up,0.3194,,1.5,0.3,"[1,2,3]",0.271934246,stimuli/card_10_transparent.png,10,9,0,9,0,1,,,,,,,,,,
,,,,59ed38ef3e4b5a00016aa904,A,2024-07-02_15h51.08.662,Slot Machine Game,2023.1.3,Win32,58.82352941,,,,,,,,,,,,,,,,,,,,,,,,,,,620,,,,,,,,,,,,,,,,,,,,,6,4,,,480.9609,10,left,0.7151,,0.5,0.3,"[1,2,3]",0.380859065,stimuli/card_100_transparent.png,100,10,0,10,0,1,,,,,,,,,,
,,,,59ed38ef3e4b5a00016aa904,A,2024-07-02_15h51.08.662,Slot Machine Game,2023.1.3,Win32,58.82352941,,,,,,,,,,,,,,,,,,,,,,,,,,,720,,,,,,,,,,,,,,,,,,,,,6,4,,,483.0063,11,left,0.3749,,0.5,0.3,"[1,2,3]",0.444162745,stimuli/card_100_transparent.png,100,11,0,11,0,1,,,,,,,,,,
,,,,59ed38ef3e4b5a00016aa904,A,2024-07-02_15h51.08.662,Slot Machine Game,2023.1.3,Win32,58.82352941,,,,,,,,,,,,,,,,,,,,,,,,,,,820,,,,,,,,,,,,,,,,,,,,,6,4,,,484.7061,12,left,0.0834,,1,0.3,"[1,2,3]",0.27598576,stimuli/card_100_transparent.png,100,12,0,12,0,1,,,,,,,,,,
,,,,59ed38ef3e4b5a00016aa904,A,2024-07-02_15h51.08.662,Slot Machine Game,2023.1.3,Win32,58.82352941,,,,,,,,,,,,,,,,,,,,,,,,,,,920,,,,,,,,,,,,,,,,,,,,,6,4,,,486.6273,13,left,0.0007,,1.5,0.3,"[1,2,3]",0.939199502,stimuli/card_100_transparent.png,100,13,0,13,0,1,,,,,,,,,,
,,,,59ed38ef3e4b5a00016aa904,A,2024-07-02_15h51.08.662,Slot Machine Game,2023.1.3,Win32,58.82352941,,,,,,,,,,,,,,,,,,,,,,,,,,,1020,,,,,,,,,,,,,,,,,,,,,6,4,,,488.9563,14,left,0.209,,0.5,0.3,"[1,2,3]",0.743006471,stimuli/card_100_transparent.png,100,14,0,14,0,1,,,,,,,,,,
,,,,59ed38ef3e4b5a00016aa904,A,2024-07-02_15h51.08.662,Slot Machine Game,2023.1.3,Win32,58.82352941,,,,,,,,,,,,,,,,,,,,,,,,,,,,,,,,,,,490.49,,,,,,,,,,,,,,,,,,,,,,,,,,,,,,,,,"[1030,940,280,1200,750,1020]",5,0,5,0,1,,,,
,,,,59ed38ef3e4b5a00016aa904,A,2024-07-02_15h51.08.662,Slot Machine Game,2023.1.3,Win32,58.82352941,,,,,,,,,,,,,,,,,,,,,,,,,,,100,,,,,,,,,,,,,,,,,,,,,7,10,"[10,15]","[[3,1,2],[1,3,2]]",495.5142,0,up,0.7719,,0.5,0.3,"[3,1,2]",0.879709157,stimuli/card_100_transparent.png,100,0,0,0,0,1,,,,,,,,,,
,,,,59ed38ef3e4b5a00016aa904,A,2024-07-02_15h51.08.662,Slot Machine Game,2023.1.3,Win32,58.82352941,,,,,,,,,,,,,,,,,,,,,,,,,,,200,,,,,,,,,,,,,,,,,,,,,7,10,,,497.6063,1,up,0.0339,,1.5,0.3,"[3,1,2]",0.330418621,stimuli/card_100_transparent.png,100,1,0,1,0,1,,,,,,,,,,
,,,,59ed38ef3e4b5a00016aa904,A,2024-07-02_15h51.08.662,Slot Machine Game,2023.1.3,Win32,58.82352941,,,,,,,,,,,,,,,,,,,,,,,,,,,210,,,,,,,,,,,,,,,,,,,,,7,10,,,499.9729,2,up,0.441,,0.5,0.3,"[3,1,2]",0.116795099,stimuli/card_10_transparent.png,10,2,0,2,0,1,,,,,,,,,,
,,,,59ed38ef3e4b5a00016aa904,A,2024-07-02_15h51.08.662,Slot Machine Game,2023.1.3,Win32,58.82352941,,,,,,,,,,,,,,,,,,,,,,,,,,,310,,,,,,,,,,,,,,,,,,,,,7,10,,,501.7395,3,up,0.0911,,0.5,0.3,"[3,1,2]",0.955144845,stimuli/card_100_transparent.png,100,3,0,3,0,1,,,,,,,,,,
,,,,59ed38ef3e4b5a00016aa904,A,2024-07-02_15h51.08.662,Slot Machine Game,2023.1.3,Win32,58.82352941,,,,,,,,,,,,,,,,,,,,,,,,,,,410,,,,,,,,,,,,,,,,,,,,,7,10,,,503.1562,4,up,0.4007,,1.5,0.3,"[3,1,2]",0.684322581,stimuli/card_100_transparent.png,100,4,0,4,0,1,,,,,,,,,,
,,,,59ed38ef3e4b5a00016aa904,A,2024-07-02_15h51.08.662,Slot Machine Game,2023.1.3,Win32,58.82352941,,,,,,,,,,,,,,,,,,,,,,,,,,,510,,,,,,,,,,,,,,,,,,,,,7,10,,,505.8918,5,up,0.0285,,1.5,0.3,"[3,1,2]",0.3510356,stimuli/card_100_transparent.png,100,5,0,5,0,1,,,,,,,,,,
,,,,59ed38ef3e4b5a00016aa904,A,2024-07-02_15h51.08.662,Slot Machine Game,2023.1.3,Win32,58.82352941,,,,,,,,,,,,,,,,,,,,,,,,,,,510,,,,,,,,,,,,,,,,,,,,,7,10,,,508.2397,6,up,0.0177,,1,0.3,"[3,1,2]",0.031303283,stimuli/card_0_transparent.png,0,6,0,6,0,1,,,,,,,,,,
,,,,59ed38ef3e4b5a00016aa904,A,2024-07-02_15h51.08.662,Slot Machine Game,2023.1.3,Win32,58.82352941,,,,,,,,,,,,,,,,,,,,,,,,,,,610,,,,,,,,,,,,,,,,,,,,,7,10,,,510.0896,7,up,0.3552,,1.5,0.3,"[3,1,2]",0.7300311,stimuli/card_100_transparent.png,100,7,0,7,0,1,,,,,,,,,,
,,,,59ed38ef3e4b5a00016aa904,A,2024-07-02_15h51.08.662,Slot Machine Game,2023.1.3,Win32,58.82352941,,,,,,,,,,,,,,,,,,,,,,,,,,,710,,,,,,,,,,,,,,,,,,,,,7,10,,,512.7752,8,up,0.1393,,0.5,0.3,"[3,1,2]",0.512737638,stimuli/card_100_transparent.png,100,8,0,8,0,1,,,,,,,,,,
,,,,59ed38ef3e4b5a00016aa904,A,2024-07-02_15h51.08.662,Slot Machine Game,2023.1.3,Win32,58.82352941,,,,,,,,,,,,,,,,,,,,,,,,,,,710,,,,,,,,,,,,,,,,,,,,,7,10,,,514.2396,9,up,0.1412,,1.5,0.3,"[3,1,2]",0.065755277,stimuli/card_0_transparent.png,0,9,0,9,0,1,,,,,,,,,,
,,,,59ed38ef3e4b5a00016aa904,A,2024-07-02_15h51.08.662,Slot Machine Game,2023.1.3,Win32,58.82352941,,,,,,,,,,,,,,,,,,,,,,,,,,,710,,,,,,,,,,,,,,,,,,,,,7,10,,,516.7063,10,up,0.0433,,1,0.3,"[1,3,2]",0.398928154,stimuli/card_0_transparent.png,0,10,0,10,0,1,,,,,,,,,,
,,,,59ed38ef3e4b5a00016aa904,A,2024-07-02_15h51.08.662,Slot Machine Game,2023.1.3,Win32,58.82352941,,,,,,,,,,,,,,,,,,,,,,,,,,,810,,,,,,,,,,,,,,,,,,,,,7,10,,,518.5728,11,left,0.0066,,1,0.3,"[1,3,2]",0.686377691,stimuli/card_100_transparent.png,100,11,0,11,0,1,,,,,,,,,,
,,,,59ed38ef3e4b5a00016aa904,A,2024-07-02_15h51.08.662,Slot Machine Game,2023.1.3,Win32,58.82352941,,,,,,,,,,,,,,,,,,,,,,,,,,,910,,,,,,,,,,,,,,,,,,,,,7,10,,,520.3896,12,left,0.55,,0.5,0.3,"[1,3,2]",0.341539005,stimuli/card_100_transparent.png,100,12,0,12,0,1,,,,,,,,,,
,,,,59ed38ef3e4b5a00016aa904,A,2024-07-02_15h51.08.662,Slot Machine Game,2023.1.3,Win32,58.82352941,,,,,,,,,,,,,,,,,,,,,,,,,,,1010,,,,,,,,,,,,,,,,,,,,,7,10,,,522.2557,13,left,0.1091,,1,0.3,"[1,3,2]",0.530085835,stimuli/card_100_transparent.png,100,13,0,13,0,1,,,,,,,,,,
,,,,59ed38ef3e4b5a00016aa904,A,2024-07-02_15h51.08.662,Slot Machine Game,2023.1.3,Win32,58.82352941,,,,,,,,,,,,,,,,,,,,,,,,,,,1110,,,,,,,,,,,,,,,,,,,,,7,10,,,524.1729,14,left,0.0716,,0.5,0.3,"[1,3,2]",0.499567139,stimuli/card_100_transparent.png,100,14,0,14,0,1,,,,,,,,,,
,,,,59ed38ef3e4b5a00016aa904,A,2024-07-02_15h51.08.662,Slot Machine Game,2023.1.3,Win32,58.82352941,,,,,,,,,,,,,,,,,,,,,,,,,,,,,,,,,,,525.573,,,,,,,,,,,,,,,,,,,,,,,,,,,,,,,,,"[1030,940,280,1200,750,1020,1110]",6,0,6,0,1,,,,
,,,,59ed38ef3e4b5a00016aa904,A,2024-07-02_15h51.08.662,Slot Machine Game,2023.1.3,Win32,58.82352941,,,,,,,,,,,,,,,,,,,,,,,,,,,0,,,,,,,,,,,,,,,,,,,,,8,7,"[9,15]","[[1,3,2],[2,3,1]]",530.5846,0,up,0.7689,,1,0.3,"[1,3,2]",0.35918921,stimuli/card_0_transparent.png,0,0,0,0,0,1,,,,,,,,,,
,,,,59ed38ef3e4b5a00016aa904,A,2024-07-02_15h51.08.662,Slot Machine Game,2023.1.3,Win32,58.82352941,,,,,,,,,,,,,,,,,,,,,,,,,,,100,,,,,,,,,,,,,,,,,,,,,8,7,,,533.1897,1,left,1.0514,,0.5,0.3,"[1,3,2]",0.955752126,stimuli/card_100_transparent.png,100,1,0,1,0,1,,,,,,,,,,
,,,,59ed38ef3e4b5a00016aa904,A,2024-07-02_15h51.08.662,Slot Machine Game,2023.1.3,Win32,58.82352941,,,,,,,,,,,,,,,,,,,,,,,,,,,200,,,,,,,,,,,,,,,,,,,,,8,7,,,535.575,2,left,0.1518,,1,0.3,"[1,3,2]",0.890569137,stimuli/card_100_transparent.png,100,2,0,2,0,1,,,,,,,,,,
,,,,59ed38ef3e4b5a00016aa904,A,2024-07-02_15h51.08.662,Slot Machine Game,2023.1.3,Win32,58.82352941,,,,,,,,,,,,,,,,,,,,,,,,,,,300,,,,,,,,,,,,,,,,,,,,,8,7,,,537.5609,3,left,1.1585,,1,0.3,"[1,3,2]",0.550401459,stimuli/card_100_transparent.png,100,3,0,3,0,1,,,,,,,,,,
,,,,59ed38ef3e4b5a00016aa904,A,2024-07-02_15h51.08.662,Slot Machine Game,2023.1.3,Win32,58.82352941,,,,,,,,,,,,,,,,,,,,,,,,,,,400,,,,,,,,,,,,,,,,,,,,,8,7,,,540.5397,4,left,0.4828,,0.5,0.3,"[1,3,2]",0.255631751,stimuli/card_100_transparent.png,100,4,0,4,0,1,,,,,,,,,,
,,,,59ed38ef3e4b5a00016aa904,A,2024-07-02_15h51.08.662,Slot Machine Game,2023.1.3,Win32,58.82352941,,,,,,,,,,,,,,,,,,,,,,,,,,,500,,,,,,,,,,,,,,,,,,,,,8,7,,,542.3276,5,left,0.4741,,1.5,0.3,"[1,3,2]",0.492471795,stimuli/card_100_transparent.png,100,5,0,5,0,1,,,,,,,,,,
,,,,59ed38ef3e4b5a00016aa904,A,2024-07-02_15h51.08.662,Slot Machine Game,2023.1.3,Win32,58.82352941,,,,,,,,,,,,,,,,,,,,,,,,,,,600,,,,,,,,,,,,,,,,,,,,,8,7,,,545.1229,6,left,0.0517,,1,0.3,"[1,3,2]",0.382883964,stimuli/card_100_transparent.png,100,6,0,6,0,1,,,,,,,,,,
,,,,59ed38ef3e4b5a00016aa904,A,2024-07-02_15h51.08.662,Slot Machine Game,2023.1.3,Win32,58.82352941,,,,,,,,,,,,,,,,,,,,,,,,,,,700,,,,,,,,,,,,,,,,,,,,,8,7,,,547.023,7,left,0.4699,,0.5,0.3,"[1,3,2]",0.976611678,stimuli/card_100_transparent.png,100,7,0,7,0,1,,,,,,,,,,
,,,,59ed38ef3e4b5a00016aa904,A,2024-07-02_15h51.08.662,Slot Machine Game,2023.1.3,Win32,58.82352941,,,,,,,,,,,,,,,,,,,,,,,,,,,800,,,,,,,,,,,,,,,,,,,,,8,7,,,548.8231,8,left,0.4538,,1,0.3,"[1,3,2]",0.218754847,stimuli/card_100_transparent.png,100,8,0,8,0,1,,,,,,,,,,
,,,,59ed38ef3e4b5a00016aa904,A,2024-07-02_15h51.08.662,Slot Machine Game,2023.1.3,Win32,58.82352941,,,,,,,,,,,,,,,,,,,,,,,,,,,810,,,,,,,,,,,,,,,,,,,,,8,7,,,551.0942,9,left,0.4029,,1.5,0.3,"[2,3,1]",0.700982122,stimuli/card_10_transparent.png,10,9,0,9,0,1,,,,,,,,,,
,,,,59ed38ef3e4b5a00016aa904,A,2024-07-02_15h51.08.662,Slot Machine Game,2023.1.3,Win32,58.82352941,,,,,,,,,,,,,,,,,,,,,,,,,,,820,,,,,,,,,,,,,,,,,,,,,8,7,,,553.8227,10,left,0.1429,,1,0.3,"[2,3,1]",0.663888273,stimuli/card_10_transparent.png,10,10,0,10,0,1,,,,,,,,,,
,,,,59ed38ef3e4b5a00016aa904,A,2024-07-02_15h51.08.662,Slot Machine Game,2023.1.3,Win32,58.82352941,,,,,,,,,,,,,,,,,,,,,,,,,,,820,,,,,,,,,,,,,,,,,,,,,8,7,,,555.773,11,up,0.4339,,0.5,0.3,"[2,3,1]",0.534172297,stimuli/card_0_transparent.png,0,11,0,11,0,1,,,,,,,,,,
,,,,59ed38ef3e4b5a00016aa904,A,2024-07-02_15h51.08.662,Slot Machine Game,2023.1.3,Win32,58.82352941,,,,,,,,,,,,,,,,,,,,,,,,,,,920,,,,,,,,,,,,,,,,,,,,,8,7,,,557.5397,12,right,0.0731,,1,0.3,"[2,3,1]",0.723360021,stimuli/card_100_transparent.png,100,12,0,12,0,1,,,,,,,,,,
,,,,59ed38ef3e4b5a00016aa904,A,2024-07-02_15h51.08.662,Slot Machine Game,2023.1.3,Win32,58.82352941,,,,,,,,,,,,,,,,,,,,,,,,,,,1020,,,,,,,,,,,,,,,,,,,,,8,7,,,559.4396,13,right,0.4694,,1.5,0.3,"[2,3,1]",0.780816259,stimuli/card_100_transparent.png,100,13,0,13,0,1,,,,,,,,,,
,,,,59ed38ef3e4b5a00016aa904,A,2024-07-02_15h51.08.662,Slot Machine Game,2023.1.3,Win32,58.82352941,,,,,,,,,,,,,,,,,,,,,,,,,,,1120,,,,,,,,,,,,,,,,,,,,,8,7,,,562.2563,14,right,0.1516,,0.5,0.3,"[2,3,1]",0.859225672,stimuli/card_100_transparent.png,100,14,0,14,0,1,,,,,,,,,,
,,,,59ed38ef3e4b5a00016aa904,A,2024-07-02_15h51.08.662,Slot Machine Game,2023.1.3,Win32,58.82352941,,,,,,,,,,,,,,,,,,,,,,,,,,,,,,,,,,,563.7558,,,,,,,,,,,,,,,,,,,,,,,,,,,,,,,,,"[1030,940,280,1200,750,1020,1110,1120]",7,0,7,0,1,,,,
,,,,59ed38ef3e4b5a00016aa904,A,2024-07-02_15h51.08.662,Slot Machine Game,2023.1.3,Win32,58.82352941,,,,,,,,,,,,,,,,,,,,,,,,,,,100,,,,,,,,,,,,,,,,,,,,,9,9,[15],"[[3,1,2]]",568.7718,0,up,0.8538,,0.5,0.3,"[3,1,2]",0.949303772,stimuli/card_100_transparent.png,100,0,0,0,0,1,,,,,,,,,,
,,,,59ed38ef3e4b5a00016aa904,A,2024-07-02_15h51.08.662,Slot Machine Game,2023.1.3,Win32,58.82352941,,,,,,,,,,,,,,,,,,,,,,,,,,,200,,,,,,,,,,,,,,,,,,,,,9,9,,,570.9398,1,up,0.0854,,1.5,0.3,"[3,1,2]",0.60953945,stimuli/card_100_transparent.png,100,1,0,1,0,1,,,,,,,,,,
,,,,59ed38ef3e4b5a00016aa904,A,2024-07-02_15h51.08.662,Slot Machine Game,2023.1.3,Win32,58.82352941,,,,,,,,,,,,,,,,,,,,,,,,,,,300,,,,,,,,,,,,,,,,,,,,,9,9,,,573.3443,2,up,0.1534,,1,0.3,"[3,1,2]",0.87714386,stimuli/card_100_transparent.png,100,2,0,2,0,1,,,,,,,,,,
,,,,59ed38ef3e4b5a00016aa904,A,2024-07-02_15h51.08.662,Slot Machine Game,2023.1.3,Win32,58.82352941,,,,,,,,,,,,,,,,,,,,,,,,,,,300,,,,,,,,,,,,,,,,,,,,,9,9,,,575.3276,3,up,0.614,,1.5,0.3,"[3,1,2]",0.063440945,stimuli/card_0_transparent.png,0,3,0,3,0,1,,,,,,,,,,
,,,,59ed38ef3e4b5a00016aa904,A,2024-07-02_15h51.08.662,Slot Machine Game,2023.1.3,Win32,58.82352941,,,,,,,,,,,,,,,,,,,,,,,,,,,300,,,,,,,,,,,,,,,,,,,,,9,9,,,578.2562,4,left,0.4173,,1,0.3,"[3,1,2]",0.706902406,stimuli/card_0_transparent.png,0,4,0,4,0,1,,,,,,,,,,
,,,,59ed38ef3e4b5a00016aa904,A,2024-07-02_15h51.08.662,Slot Machine Game,2023.1.3,Win32,58.82352941,,,,,,,,,,,,,,,,,,,,,,,,,,,300,,,,,,,,,,,,,,,,,,,,,9,9,,,580.5086,5,right,0.1837,,1.5,0.3,"[3,1,2]",0.008573466,stimuli/card_0_transparent.png,0,5,0,5,0,1,,,,,,,,,,
,,,,59ed38ef3e4b5a00016aa904,A,2024-07-02_15h51.08.662,Slot Machine Game,2023.1.3,Win32,58.82352941,,,,,,,,,,,,,,,,,,,,,,,,,,,400,,,,,,,,,,,,,,,,,,,,,9,9,,,583.0231,6,up,0.8481,,1.5,0.3,"[3,1,2]",0.523234996,stimuli/card_100_transparent.png,100,6,0,6,0,1,,,,,,,,,,
,,,,59ed38ef3e4b5a00016aa904,A,2024-07-02_15h51.08.662,Slot Machine Game,2023.1.3,Win32,58.82352941,,,,,,,,,,,,,,,,,,,,,,,,,,,500,,,,,,,,,,,,,,,,,,,,,9,9,,,586.2064,7,up,0.0975,,1.5,0.3,"[3,1,2]",0.942979796,stimuli/card_100_transparent.png,100,7,0,7,0,1,,,,,,,,,,
,,,,59ed38ef3e4b5a00016aa904,A,2024-07-02_15h51.08.662,Slot Machine Game,2023.1.3,Win32,58.82352941,,,,,,,,,,,,,,,,,,,,,,,,,,,600,,,,,,,,,,,,,,,,,,,,,9,9,,,588.623,8,up,0.5261,,1.5,0.3,"[3,1,2]",0.506355138,stimuli/card_100_transparent.png,100,8,0,8,0,1,,,,,,,,,,
,,,,59ed38ef3e4b5a00016aa904,A,2024-07-02_15h51.08.662,Slot Machine Game,2023.1.3,Win32,58.82352941,,,,,,,,,,,,,,,,,,,,,,,,,,,700,,,,,,,,,,,,,,,,,,,,,9,9,,,591.4731,9,up,0.0845,,1.5,0.3,"[3,1,2]",0.284384351,stimuli/card_100_transparent.png,100,9,0,9,0,1,,,,,,,,,,
,,,,59ed38ef3e4b5a00016aa904,A,2024-07-02_15h51.08.662,Slot Machine Game,2023.1.3,Win32,58.82352941,,,,,,,,,,,,,,,,,,,,,,,,,,,800,,,,,,,,,,,,,,,,,,,,,9,9,,,593.8897,10,up,0.0756,,1,0.3,"[3,1,2]",0.442619754,stimuli/card_100_transparent.png,100,10,0,10,0,1,,,,,,,,,,
,,,,59ed38ef3e4b5a00016aa904,A,2024-07-02_15h51.08.662,Slot Machine Game,2023.1.3,Win32,58.82352941,,,,,,,,,,,,,,,,,,,,,,,,,,,900,,,,,,,,,,,,,,,,,,,,,9,9,,,595.7898,11,up,0.223,,0.5,0.3,"[3,1,2]",0.617667551,stimuli/card_100_transparent.png,100,11,0,11,0,1,,,,,,,,,,
,,,,59ed38ef3e4b5a00016aa904,A,2024-07-02_15h51.08.662,Slot Machine Game,2023.1.3,Win32,58.82352941,,,,,,,,,,,,,,,,,,,,,,,,,,,1000,,,,,,,,,,,,,,,,,,,,,9,9,,,597.3431,12,up,0.2173,,1,0.3,"[3,1,2]",0.429548224,stimuli/card_100_transparent.png,100,12,0,12,0,1,,,,,,,,,,
,,,,59ed38ef3e4b5a00016aa904,A,2024-07-02_15h51.08.662,Slot Machine Game,2023.1.3,Win32,58.82352941,,,,,,,,,,,,,,,,,,,,,,,,,,,1100,,,,,,,,,,,,,,,,,,,,,9,9,,,599.3899,13,up,0.7671,,0.5,0.3,"[3,1,2]",0.347718478,stimuli/card_100_transparent.png,100,13,0,13,0,1,,,,,,,,,,
,,,,59ed38ef3e4b5a00016aa904,A,2024-07-02_15h51.08.662,Slot Machine Game,2023.1.3,Win32,58.82352941,,,,,,,,,,,,,,,,,,,,,,,,,,,1200,,,,,,,,,,,,,,,,,,,,,9,9,,,601.4946,14,up,0.0629,,1,0.3,"[3,1,2]",0.649772955,stimuli/card_100_transparent.png,100,14,0,14,0,1,,,,,,,,,,
,,,,59ed38ef3e4b5a00016aa904,A,2024-07-02_15h51.08.662,Slot Machine Game,2023.1.3,Win32,58.82352941,,,,,,,,,,,,,,,,,,,,,,,,,,,,,,,,,,,603.3898,,,,,,,,,,,,,,,,,,,,,,,,,,,,,,,,,"[1030,940,280,1200,750,1020,1110,1120,1200]",8,0,8,0,1,,,,
,,,,59ed38ef3e4b5a00016aa904,A,2024-07-02_15h51.08.662,Slot Machine Game,2023.1.3,Win32,58.82352941,,,,,,,,,,,,,,,,,,,,,,,,,,,0,,,,,,,,,,,,,,,,,,,,,10,6,"[4,10,15]","[[2,3,1],[1,3,2],[3,2,1]]",608.4129,0,up,0.7973,,1.5,0.3,"[2,3,1]",0.774890849,stimuli/card_0_transparent.png,0,0,0,0,0,1,,,,,,,,,,
,,,,59ed38ef3e4b5a00016aa904,A,2024-07-02_15h51.08.662,Slot Machine Game,2023.1.3,Win32,58.82352941,,,,,,,,,,,,,,,,,,,,,,,,,,,10,,,,,,,,,,,,,,,,,,,,,10,6,,,611.5231,1,left,1.2505,,1.5,0.3,"[2,3,1]",0.241448061,stimuli/card_10_transparent.png,10,1,0,1,0,1,,,,,,,,,,
,,,,59ed38ef3e4b5a00016aa904,A,2024-07-02_15h51.08.662,Slot Machine Game,2023.1.3,Win32,58.82352941,,,,,,,,,,,,,,,,,,,,,,,,,,,20,,,,,,,,,,,,,,,,,,,,,10,6,,,615.1062,2,right,0.1807,,1.5,0.3,"[2,3,1]",0.177656042,stimuli/card_10_transparent.png,10,2,0,2,0,1,,,,,,,,,,
,,,,59ed38ef3e4b5a00016aa904,A,2024-07-02_15h51.08.662,Slot Machine Game,2023.1.3,Win32,58.82352941,,,,,,,,,,,,,,,,,,,,,,,,,,,20,,,,,,,,,,,,,,,,,,,,,10,6,,,617.5898,3,up,0.119,,0.5,0.3,"[2,3,1]",0.702780329,stimuli/card_0_transparent.png,0,3,0,3,0,1,,,,,,,,,,
,,,,59ed38ef3e4b5a00016aa904,A,2024-07-02_15h51.08.662,Slot Machine Game,2023.1.3,Win32,58.82352941,,,,,,,,,,,,,,,,,,,,,,,,,,,120,,,,,,,,,,,,,,,,,,,,,10,6,,,619.0392,4,left,0.0217,,0.5,0.3,"[1,3,2]",0.333862884,stimuli/card_100_transparent.png,100,4,0,4,0,1,,,,,,,,,,
,,,,59ed38ef3e4b5a00016aa904,A,2024-07-02_15h51.08.662,Slot Machine Game,2023.1.3,Win32,58.82352941,,,,,,,,,,,,,,,,,,,,,,,,,,,220,,,,,,,,,,,,,,,,,,,,,10,6,,,620.3731,5,left,0.5364,,1.5,0.3,"[1,3,2]",0.457609267,stimuli/card_100_transparent.png,100,5,0,5,0,1,,,,,,,,,,
,,,,59ed38ef3e4b5a00016aa904,A,2024-07-02_15h51.08.662,Slot Machine Game,2023.1.3,Win32,58.82352941,,,,,,,,,,,,,,,,,,,,,,,,,,,230,,,,,,,,,,,,,,,,,,,,,10,6,,,623.2399,6,left,0.7412,,1.5,0.3,"[1,3,2]",0.166258166,stimuli/card_10_transparent.png,10,6,0,6,0,1,,,,,,,,,,
,,,,59ed38ef3e4b5a00016aa904,A,2024-07-02_15h51.08.662,Slot Machine Game,2023.1.3,Win32,58.82352941,,,,,,,,,,,,,,,,,,,,,,,,,,,240,,,,,,,,,,,,,,,,,,,,,10,6,,,626.3065,7,left,0.3386,,0.5,0.3,"[1,3,2]",0.172433401,stimuli/card_10_transparent.png,10,7,0,7,0,1,,,,,,,,,,
,,,,59ed38ef3e4b5a00016aa904,A,2024-07-02_15h51.08.662,Slot Machine Game,2023.1.3,Win32,58.82352941,,,,,,,,,,,,,,,,,,,,,,,,,,,240,,,,,,,,,,,,,,,,,,,,,10,6,,,627.9731,8,left,0.4002,,0.5,0.3,"[1,3,2]",0.076317004,stimuli/card_0_transparent.png,0,8,0,8,0,1,,,,,,,,,,
,,,,59ed38ef3e4b5a00016aa904,A,2024-07-02_15h51.08.662,Slot Machine Game,2023.1.3,Win32,58.82352941,,,,,,,,,,,,,,,,,,,,,,,,,,,250,,,,,,,,,,,,,,,,,,,,,10,6,,,629.7064,9,right,0.0984,,0.5,0.3,"[1,3,2]",0.527887209,stimuli/card_10_transparent.png,10,9,0,9,0,1,,,,,,,,,,
,,,,59ed38ef3e4b5a00016aa904,A,2024-07-02_15h51.08.662,Slot Machine Game,2023.1.3,Win32,58.82352941,,,,,,,,,,,,,,,,,,,,,,,,,,,260,,,,,,,,,,,,,,,,,,,,,10,6,,,631.1227,10,up,0.2024,,0.5,0.3,"[3,2,1]",0.719056971,stimuli/card_10_transparent.png,10,10,0,10,0,1,,,,,,,,,,
,,,,59ed38ef3e4b5a00016aa904,A,2024-07-02_15h51.08.662,Slot Machine Game,2023.1.3,Win32,58.82352941,,,,,,,,,,,,,,,,,,,,,,,,,,,270,,,,,,,,,,,,,,,,,,,,,10,6,,,632.6399,11,up,0.6369,,1.5,0.3,"[3,2,1]",0.584798318,stimuli/card_10_transparent.png,10,11,0,11,0,1,,,,,,,,,,
,,,,59ed38ef3e4b5a00016aa904,A,2024-07-02_15h51.08.662,Slot Machine Game,2023.1.3,Win32,58.82352941,,,,,,,,,,,,,,,,,,,,,,,,,,,370,,,,,,,,,,,,,,,,,,,,,10,6,,,635.611,12,right,0.6411,,0.5,0.3,"[3,2,1]",0.355586976,stimuli/card_100_transparent.png,100,12,0,12,0,1,,,,,,,,,,
,,,,59ed38ef3e4b5a00016aa904,A,2024-07-02_15h51.08.662,Slot Machine Game,2023.1.3,Win32,58.82352941,,,,,,,,,,,,,,,,,,,,,,,,,,,470,,,,,,,,,,,,,,,,,,,,,10,6,,,637.5895,13,right,0.1114,,1,0.3,"[3,2,1]",0.670005761,stimuli/card_100_transparent.png,100,13,0,13,0,1,,,,,,,,,,
,,,,59ed38ef3e4b5a00016aa904,A,2024-07-02_15h51.08.662,Slot Machine Game,2023.1.3,Win32,58.82352941,,,,,,,,,,,,,,,,,,,,,,,,,,,570,,,,,,,,,,,,,,,,,,,,,10,6,,,639.5233,14,right,0.3631,,1,0.3,"[3,2,1]",0.563646165,stimuli/card_100_transparent.png,100,14,0,14,0,1,,,,,,,,,,
,,,,59ed38ef3e4b5a00016aa904,A,2024-07-02_15h51.08.662,Slot Machine Game,2023.1.3,Win32,58.82352941,,,,,,,,,,,,,,,,,,,,,,,,,,,,,,,,,,,641.6898,,,,,,,,,,,,,,,,,,,,,,,,,,,,,,,,,"[1030,940,280,1200,750,1020,1110,1120,1200,570]",9,0,9,0,1,,,,
,,,,59ed38ef3e4b5a00016aa904,A,2024-07-02_15h51.08.662,Slot Machine Game,2023.1.3,Win32,58.82352941,,,,,,,,,,,,,,,,,,,,,,,,,,,,,,,,,,,,,,,,,,,,,,,,,,,,,,,,,,,,,,,,,,,,,,,,,,9,"[1030,940,280,1200,750,1020,1110,1120,1200,570]",2.8,2024-07-02_16h01.59.435
