key_resp_welcome_started,key_resp_welcome_keys,key_resp_welcome_rt,key_resp_welcome_duration,prolific_id,path_id,date,expName,psychopyVersion,OS,frameRate,key_resp_instruction1_started,key_resp_instruction1_keys,key_resp_instruction1_rt,key_resp_instruction1_duration,key_resp_instruction2_started,key_resp_instruction2_keys,key_resp_instruction2_rt,key_resp_instruction2_duration,key_resp_instruction3_started,key_resp_instruction3_keys,key_resp_instruction3_rt,key_resp_instruction3_duration,key_resp_instruction4_started,key_resp_instruction4_keys,key_resp_instruction4_rt,key_resp_instruction4_duration,practiceCondition,practice_reward_seqs,practice_trial_started,practice_trial_num,practice_resp_rt,practice_resp_duration,practice_resp_keys,prac_presentationInterval,"practice_reward_seq: 2,1,3",reward_img,cumulative_reward,trial_reward,practice_trials.thisRepN,practice_trials.thisTrialN,practice_trials.thisN,practice_trials.thisIndex,practice_trials.ran,"practice_reward_seq: 2,3,1",block_break_started,"practice_reward_seq: 1,3,2","practice_reward_seq: 3,1,2",practice_end_time,practice_end_keys,practice_end_rt,practice_end_duration,main_instruction_text_started,block_condition,block_order_indices,main_instruction_keys,main_instruction_rt,main_instruction_duration,block_number,block_assignment,current_condition,main_reward_seqs,main_trial_started,main_trial_num,main_trial_keys,main_trial_rt,main_trial_duration,main_presentationInterval,reward_presentation_time,main_reward_seq,reward_rand_val,main_reward_img,current_reward,main_trials.thisRepN,main_trials.thisTrialN,main_trials.thisN,main_trials.thisIndex,main_trials.ran,block_reward,block.thisRepN,block.thisTrialN,block.thisN,block.thisIndex,block.ran,block_reward.length,block_reward_all,reward_amount,date_end_task
0.0002,space,2.4855,,5abc27db68b65b00018d000f,A,2024-07-03_01h15.39.576,Slot Machine Game,2023.1.3,Win32,5.007511267,,,,,,,,,,,,,,,,,,,,,,,,,,,,,,,,,,,,,,,,,,,,,,,,,,,,,,,,,,,,,,,,,,,,,,,,,,,,,
,,,,5abc27db68b65b00018d000f,A,2024-07-03_01h15.39.576,Slot Machine Game,2023.1.3,Win32,5.007511267,2.6719,space,7.6223,,,,,,,,,,,,,,,,,,,,,,,,,,,,,,,,,,,,,,,,,,,,,,,,,,,,,,,,,,,,,,,,,,,,,,,,,,
,,,,5abc27db68b65b00018d000f,A,2024-07-03_01h15.39.576,Slot Machine Game,2023.1.3,Win32,5.007511267,,,,,10.5358,space,30.2348,,,,,,,,,,,,,,,,,,,,,,,,,,,,,,,,,,,,,,,,,,,,,,,,,,,,,,,,,,,,,,,,,,,,,,
,,,,5abc27db68b65b00018d000f,A,2024-07-03_01h15.39.576,Slot Machine Game,2023.1.3,Win32,5.007511267,,,,,,,,,41.0408,space,10.3015,,,,,,,,,,,,,,,,,,,,,,,,,,,,,,,,,,,,,,,,,,,,,,,,,,,,,,,,,,,,,,,,,,
,,,,5abc27db68b65b00018d000f,A,2024-07-03_01h15.39.576,Slot Machine Game,2023.1.3,Win32,5.007511267,,,,,,,,,,,,,,,,,,,,,,,,,,,,,,,,,,,,,,,,,,,,,,,,,,,,,,,,,,,,,,,,,,,,,,,,,,,,,
,,,,5abc27db68b65b00018d000f,A,2024-07-03_01h15.39.576,Slot Machine Game,2023.1.3,Win32,5.007511267,,,,,,,,,,,,,196.2101,space,5.2477,,,,,,,,,,,,,,,,,,,,,,,,,,,,,,,,,,,,,,,,,,,,,,,,,,,,,,,,,,,,,,
,,,,5abc27db68b65b00018d000f,A,2024-07-03_01h15.39.576,Slot Machine Game,2023.1.3,Win32,5.007511267,,,,,,,,,,,,,,,,,"[9,15]","[[2,1,3],[2,3,1]]",201.6793,0,2.936,,left,1.5,,stimuli/card_10_transparent.png,10,10,0,0,0,0,1,,,,,,,,,,,,,,,,,,,,,,,,,,,,,,,,,,,,,,,,,,,,
,,,,5abc27db68b65b00018d000f,A,2024-07-03_01h15.39.576,Slot Machine Game,2023.1.3,Win32,5.007511267,,,,,,,,,,,,,,,,,,,207.3613,1,1.2218,,up,0.5,,stimuli/card_100_transparent.png,110,100,1,0,1,0,1,,,,,,,,,,,,,,,,,,,,,,,,,,,,,,,,,,,,,,,,,,,,
,,,,5abc27db68b65b00018d000f,A,2024-07-03_01h15.39.576,Slot Machine Game,2023.1.3,Win32,5.007511267,,,,,,,,,,,,,,,,,,,210.2945,2,0.0098,,up,1.5,,stimuli/card_100_transparent.png,210,100,2,0,2,0,1,,,,,,,,,,,,,,,,,,,,,,,,,,,,,,,,,,,,,,,,,,,,
,,,,5abc27db68b65b00018d000f,A,2024-07-03_01h15.39.576,Slot Machine Game,2023.1.3,Win32,5.007511267,,,,,,,,,,,,,,,,,,,213.0495,3,0.261,,up,1,,stimuli/card_100_transparent.png,310,100,3,0,3,0,1,,,,,,,,,,,,,,,,,,,,,,,,,,,,,,,,,,,,,,,,,,,,
,,,,5abc27db68b65b00018d000f,A,2024-07-03_01h15.39.576,Slot Machine Game,2023.1.3,Win32,5.007511267,,,,,,,,,,,,,,,,,,,215.3544,4,0.0138,,up,1,,stimuli/card_100_transparent.png,410,100,4,0,4,0,1,,,,,,,,,,,,,,,,,,,,,,,,,,,,,,,,,,,,,,,,,,,,
,,,,5abc27db68b65b00018d000f,A,2024-07-03_01h15.39.576,Slot Machine Game,2023.1.3,Win32,5.007511267,,,,,,,,,,,,,,,,,,,217.6941,5,0.0103,,up,1.5,,stimuli/card_0_transparent.png,410,0,5,0,5,0,1,,,,,,,,,,,,,,,,,,,,,,,,,,,,,,,,,,,,,,,,,,,,
,,,,5abc27db68b65b00018d000f,A,2024-07-03_01h15.39.576,Slot Machine Game,2023.1.3,Win32,5.007511267,,,,,,,,,,,,,,,,,,,220.2237,6,0.25,,up,1.5,,stimuli/card_100_transparent.png,510,100,6,0,6,0,1,,,,,,,,,,,,,,,,,,,,,,,,,,,,,,,,,,,,,,,,,,,,
,,,,5abc27db68b65b00018d000f,A,2024-07-03_01h15.39.576,Slot Machine Game,2023.1.3,Win32,5.007511267,,,,,,,,,,,,,,,,,,,223.1939,7,0.2665,0.0002,up,1,,stimuli/card_100_transparent.png,610,100,7,0,7,0,1,,,,,,,,,,,,,,,,,,,,,,,,,,,,,,,,,,,,,,,,,,,,
,,,,5abc27db68b65b00018d000f,A,2024-07-03_01h15.39.576,Slot Machine Game,2023.1.3,Win32,5.007511267,,,,,,,,,,,,,,,,,,,225.6705,8,0.0099,,up,1,,stimuli/card_100_transparent.png,710,100,8,0,8,0,1,,,,,,,,,,,,,,,,,,,,,,,,,,,,,,,,,,,,,,,,,,,,
,,,,5abc27db68b65b00018d000f,A,2024-07-03_01h15.39.576,Slot Machine Game,2023.1.3,Win32,5.007511267,,,,,,,,,,,,,,,,,,,227.9161,9,2.6819,,up,1,,stimuli/card_0_transparent.png,710,0,9,0,9,0,1,,,,,,,,,,,,,,,,,,,,,,,,,,,,,,,,,,,,,,,,,,,,
,,,,5abc27db68b65b00018d000f,A,2024-07-03_01h15.39.576,Slot Machine Game,2023.1.3,Win32,5.007511267,,,,,,,,,,,,,,,,,,,232.834,10,0.2584,9.99999E-05,up,1,,stimuli/card_0_transparent.png,710,0,10,0,10,0,1,,,,,,,,,,,,,,,,,,,,,,,,,,,,,,,,,,,,,,,,,,,,
,,,,5abc27db68b65b00018d000f,A,2024-07-03_01h15.39.576,Slot Machine Game,2023.1.3,Win32,5.007511267,,,,,,,,,,,,,,,,,,,235.3388,11,0.0098,,left,0.5,,stimuli/card_10_transparent.png,720,10,11,0,11,0,1,,,,,,,,,,,,,,,,,,,,,,,,,,,,,,,,,,,,,,,,,,,,
,,,,5abc27db68b65b00018d000f,A,2024-07-03_01h15.39.576,Slot Machine Game,2023.1.3,Win32,5.007511267,,,,,,,,,,,,,,,,,,,237.0436,12,0.7383,,right,0.5,,stimuli/card_100_transparent.png,820,100,12,0,12,0,1,,,,,,,,,,,,,,,,,,,,,,,,,,,,,,,,,,,,,,,,,,,,
,,,,5abc27db68b65b00018d000f,A,2024-07-03_01h15.39.576,Slot Machine Game,2023.1.3,Win32,5.007511267,,,,,,,,,,,,,,,,,,,239.4967,13,1.9621,,right,1.5,,stimuli/card_100_transparent.png,920,100,13,0,13,0,1,,,,,,,,,,,,,,,,,,,,,,,,,,,,,,,,,,,,,,,,,,,,
,,,,5abc27db68b65b00018d000f,A,2024-07-03_01h15.39.576,Slot Machine Game,2023.1.3,Win32,5.007511267,,,,,,,,,,,,,,,,,,,244.1955,14,0.0106,,right,0.5,,stimuli/card_100_transparent.png,1020,100,14,0,14,0,1,,,,,,,,,,,,,,,,,,,,,,,,,,,,,,,,,,,,,,,,,,,,
,,,,5abc27db68b65b00018d000f,A,2024-07-03_01h15.39.576,Slot Machine Game,2023.1.3,Win32,5.007511267,,,,,,,,,,,,,,,,,"[6,15]","[[1,3,2],[3,1,2]]",250.9367,0,2.8961,,up,1,,stimuli/card_0_transparent.png,0,0,0,0,0,0,1,,245.9384,,,,,,,,,,,,,,,,,,,,,,,,,,,,,,,,,,,,,,,,,,
,,,,5abc27db68b65b00018d000f,A,2024-07-03_01h15.39.576,Slot Machine Game,2023.1.3,Win32,5.007511267,,,,,,,,,,,,,,,,,,,256.045,1,0.2521,,right,1.5,,stimuli/card_10_transparent.png,10,10,1,0,1,0,1,,,,,,,,,,,,,,,,,,,,,,,,,,,,,,,,,,,,,,,,,,,,
,,,,5abc27db68b65b00018d000f,A,2024-07-03_01h15.39.576,Slot Machine Game,2023.1.3,Win32,5.007511267,,,,,,,,,,,,,,,,,,,259.0084,2,0.0101,,left,0.5,,stimuli/card_100_transparent.png,110,100,2,0,2,0,1,,,,,,,,,,,,,,,,,,,,,,,,,,,,,,,,,,,,,,,,,,,,
,,,,5abc27db68b65b00018d000f,A,2024-07-03_01h15.39.576,Slot Machine Game,2023.1.3,Win32,5.007511267,,,,,,,,,,,,,,,,,,,260.768,3,0.0105,,left,0.5,,stimuli/card_10_transparent.png,120,10,3,0,3,0,1,,,,,,,,,,,,,,,,,,,,,,,,,,,,,,,,,,,,,,,,,,,,
,,,,5abc27db68b65b00018d000f,A,2024-07-03_01h15.39.576,Slot Machine Game,2023.1.3,Win32,5.007511267,,,,,,,,,,,,,,,,,,,262.5346,4,0.3178,,left,1,,stimuli/card_10_transparent.png,130,10,4,0,4,0,1,,,,,,,,,,,,,,,,,,,,,,,,,,,,,,,,,,,,,,,,,,,,
,,,,5abc27db68b65b00018d000f,A,2024-07-03_01h15.39.576,Slot Machine Game,2023.1.3,Win32,5.007511267,,,,,,,,,,,,,,,,,,,264.9605,5,0.0104,,up,0.5,,stimuli/card_0_transparent.png,130,0,5,0,5,0,1,,,,,,,,,,,,,,,,,,,,,,,,,,,,,,,,,,,,,,,,,,,,
,,,,5abc27db68b65b00018d000f,A,2024-07-03_01h15.39.576,Slot Machine Game,2023.1.3,Win32,5.007511267,,,,,,,,,,,,,,,,,,,266.6948,6,0.0108,,right,1.5,,stimuli/card_10_transparent.png,140,10,6,0,6,0,1,,,,,,,,,,,,,,,,,,,,,,,,,,,,,,,,,,,,,,,,,,,,
,,,,5abc27db68b65b00018d000f,A,2024-07-03_01h15.39.576,Slot Machine Game,2023.1.3,Win32,5.007511267,,,,,,,,,,,,,,,,,,,269.4318,7,0.2508,,right,1.5,,stimuli/card_10_transparent.png,150,10,7,0,7,0,1,,,,,,,,,,,,,,,,,,,,,,,,,,,,,,,,,,,,,,,,,,,,
,,,,5abc27db68b65b00018d000f,A,2024-07-03_01h15.39.576,Slot Machine Game,2023.1.3,Win32,5.007511267,,,,,,,,,,,,,,,,,,,272.4167,8,3.149,,up,1.5,,stimuli/card_100_transparent.png,250,100,8,0,8,0,1,,,,,,,,,,,,,,,,,,,,,,,,,,,,,,,,,,,,,,,,,,,,
,,,,5abc27db68b65b00018d000f,A,2024-07-03_01h15.39.576,Slot Machine Game,2023.1.3,Win32,5.007511267,,,,,,,,,,,,,,,,,,,278.2812,9,0.0131,,up,1.5,,stimuli/card_100_transparent.png,350,100,9,0,9,0,1,,,,,,,,,,,,,,,,,,,,,,,,,,,,,,,,,,,,,,,,,,,,
,,,,5abc27db68b65b00018d000f,A,2024-07-03_01h15.39.576,Slot Machine Game,2023.1.3,Win32,5.007511267,,,,,,,,,,,,,,,,,,,280.8389,10,2.0337,,up,1.5,,stimuli/card_100_transparent.png,450,100,10,0,10,0,1,,,,,,,,,,,,,,,,,,,,,,,,,,,,,,,,,,,,,,,,,,,,
,,,,5abc27db68b65b00018d000f,A,2024-07-03_01h15.39.576,Slot Machine Game,2023.1.3,Win32,5.007511267,,,,,,,,,,,,,,,,,,,285.412,11,0.0099,,up,1.5,,stimuli/card_100_transparent.png,550,100,11,0,11,0,1,,,,,,,,,,,,,,,,,,,,,,,,,,,,,,,,,,,,,,,,,,,,
,,,,5abc27db68b65b00018d000f,A,2024-07-03_01h15.39.576,Slot Machine Game,2023.1.3,Win32,5.007511267,,,,,,,,,,,,,,,,,,,288.1448,12,1.6906,,up,1,,stimuli/card_100_transparent.png,650,100,12,0,12,0,1,,,,,,,,,,,,,,,,,,,,,,,,,,,,,,,,,,,,,,,,,,,,
,,,,5abc27db68b65b00018d000f,A,2024-07-03_01h15.39.576,Slot Machine Game,2023.1.3,Win32,5.007511267,,,,,,,,,,,,,,,,,,,292.0261,13,0.2501,,up,1.5,,stimuli/card_100_transparent.png,750,100,13,0,13,0,1,,,,,,,,,,,,,,,,,,,,,,,,,,,,,,,,,,,,,,,,,,,,
,,,,5abc27db68b65b00018d000f,A,2024-07-03_01h15.39.576,Slot Machine Game,2023.1.3,Win32,5.007511267,,,,,,,,,,,,,,,,,,,294.7776,14,0.0099,,up,1.5,,stimuli/card_100_transparent.png,850,100,14,0,14,0,1,,,,,,,,,,,,,,,,,,,,,,,,,,,,,,,,,,,,,,,,,,,,
,,,,5abc27db68b65b00018d000f,A,2024-07-03_01h15.39.576,Slot Machine Game,2023.1.3,Win32,5.007511267,,,,,,,,,,,,,,,,,,,,,,,,,,,,,,,,,,,297.5139,,,302.4869,space,3.649,,,,,,,,,,,,,,,,,,,,,,,,,,,,,,,,,,,,,
,,,,5abc27db68b65b00018d000f,A,2024-07-03_01h15.39.576,Slot Machine Game,2023.1.3,Win32,5.007511267,,,,,,,,,,,,,,,,,,,,,,,,,,,,,,,,,,,,,,,,,,306.3534,3,"[0,4,6,3,5,7,8,1,9,2]",space,3.7229,0.0003,,,,,,,,,,,,,,,,,,,,,,,,,,,,,,
,,,,5abc27db68b65b00018d000f,A,2024-07-03_01h15.39.576,Slot Machine Game,2023.1.3,Win32,5.007511267,,,,,,,,,,,,,,,,,,,,,,,,,,,0,,,,,,,,,,,,,,,,,,,,,1,1,"[12,15]","[[2,1,3],[2,3,1]]",310.3101,0,up,0.0093,,1,0.3,"[2,1,3]",0.059879149,stimuli/card_0_transparent.png,0,0,0,0,0,1,,,,,,,,,,
,,,,5abc27db68b65b00018d000f,A,2024-07-03_01h15.39.576,Slot Machine Game,2023.1.3,Win32,5.007511267,,,,,,,,,,,,,,,,,,,,,,,,,,,10,,,,,,,,,,,,,,,,,,,,,1,1,,,312.5273,1,left,1.699,,1.5,0.3,"[2,1,3]",0.809961821,stimuli/card_10_transparent.png,10,1,0,1,0,1,,,,,,,,,,
,,,,5abc27db68b65b00018d000f,A,2024-07-03_01h15.39.576,Slot Machine Game,2023.1.3,Win32,5.007511267,,,,,,,,,,,,,,,,,,,,,,,,,,,10,,,,,,,,,,,,,,,,,,,,,1,1,,,316.937,2,right,0.0097,,1,0.3,"[2,1,3]",0.257033456,stimuli/card_0_transparent.png,0,2,0,2,0,1,,,,,,,,,,
,,,,5abc27db68b65b00018d000f,A,2024-07-03_01h15.39.576,Slot Machine Game,2023.1.3,Win32,5.007511267,,,,,,,,,,,,,,,,,,,,,,,,,,,20,,,,,,,,,,,,,,,,,,,,,1,1,,,319.1537,3,left,0.2564,,0.5,0.3,"[2,1,3]",0.410605102,stimuli/card_10_transparent.png,10,3,0,3,0,1,,,,,,,,,,
,,,,5abc27db68b65b00018d000f,A,2024-07-03_01h15.39.576,Slot Machine Game,2023.1.3,Win32,5.007511267,,,,,,,,,,,,,,,,,,,,,,,,,,,120,,,,,,,,,,,,,,,,,,,,,1,1,,,321.1275,4,up,1.2223,,0.5,0.3,"[2,1,3]",0.725598674,stimuli/card_100_transparent.png,100,4,0,4,0,1,,,,,,,,,,
,,,,5abc27db68b65b00018d000f,A,2024-07-03_01h15.39.576,Slot Machine Game,2023.1.3,Win32,5.007511267,,,,,,,,,,,,,,,,,,,,,,,,,,,220,,,,,,,,,,,,,,,,,,,,,1,1,,,324.0626,5,up,1.2217,,1.5,0.3,"[2,1,3]",0.571028451,stimuli/card_100_transparent.png,100,5,0,5,0,1,,,,,,,,,,
,,,,5abc27db68b65b00018d000f,A,2024-07-03_01h15.39.576,Slot Machine Game,2023.1.3,Win32,5.007511267,,,,,,,,,,,,,,,,,,,,,,,,,,,320,,,,,,,,,,,,,,,,,,,,,1,1,,,328.0111,6,up,0.0101,,1.5,0.3,"[2,1,3]",0.506561976,stimuli/card_100_transparent.png,100,6,0,6,0,1,,,,,,,,,,
,,,,5abc27db68b65b00018d000f,A,2024-07-03_01h15.39.576,Slot Machine Game,2023.1.3,Win32,5.007511267,,,,,,,,,,,,,,,,,,,,,,,,,,,420,,,,,,,,,,,,,,,,,,,,,1,1,,,330.7424,7,up,1.713,,1,0.3,"[2,1,3]",0.746971685,stimuli/card_100_transparent.png,100,7,0,7,0,1,,,,,,,,,,
,,,,5abc27db68b65b00018d000f,A,2024-07-03_01h15.39.576,Slot Machine Game,2023.1.3,Win32,5.007511267,,,,,,,,,,,,,,,,,,,,,,,,,,,520,,,,,,,,,,,,,,,,,,,,,1,1,,,334.6604,8,up,0.4912,,1,0.3,"[2,1,3]",0.374715144,stimuli/card_100_transparent.png,100,8,0,8,0,1,,,,,,,,,,
,,,,5abc27db68b65b00018d000f,A,2024-07-03_01h15.39.576,Slot Machine Game,2023.1.3,Win32,5.007511267,,,,,,,,,,,,,,,,,,,,,,,,,,,620,,,,,,,,,,,,,,,,,,,,,1,1,,,337.3527,9,up,0.01,,1,0.3,"[2,1,3]",0.45085855,stimuli/card_100_transparent.png,100,9,0,9,0,1,,,,,,,,,,
,,,,5abc27db68b65b00018d000f,A,2024-07-03_01h15.39.576,Slot Machine Game,2023.1.3,Win32,5.007511267,,,,,,,,,,,,,,,,,,,,,,,,,,,720,,,,,,,,,,,,,,,,,,,,,1,1,,,339.5748,10,up,0.0098,,0.5,0.3,"[2,1,3]",0.379487402,stimuli/card_100_transparent.png,100,10,0,10,0,1,,,,,,,,,,
,,,,5abc27db68b65b00018d000f,A,2024-07-03_01h15.39.576,Slot Machine Game,2023.1.3,Win32,5.007511267,,,,,,,,,,,,,,,,,,,,,,,,,,,820,,,,,,,,,,,,,,,,,,,,,1,1,,,341.2911,11,up,0.0127,,1.5,0.3,"[2,1,3]",0.870370985,stimuli/card_100_transparent.png,100,11,0,11,0,1,,,,,,,,,,
,,,,5abc27db68b65b00018d000f,A,2024-07-03_01h15.39.576,Slot Machine Game,2023.1.3,Win32,5.007511267,,,,,,,,,,,,,,,,,,,,,,,,,,,820,,,,,,,,,,,,,,,,,,,,,1,1,,,344.0534,12,up,0.0127,,1,0.3,"[2,3,1]",0.723242667,stimuli/card_0_transparent.png,0,12,0,12,0,1,,,,,,,,,,
,,,,5abc27db68b65b00018d000f,A,2024-07-03_01h15.39.576,Slot Machine Game,2023.1.3,Win32,5.007511267,,,,,,,,,,,,,,,,,,,,,,,,,,,820,,,,,,,,,,,,,,,,,,,,,1,1,,,346.339,13,up,0.0114,,0.5,0.3,"[2,3,1]",0.832344571,stimuli/card_0_transparent.png,0,13,0,13,0,1,,,,,,,,,,
,,,,5abc27db68b65b00018d000f,A,2024-07-03_01h15.39.576,Slot Machine Game,2023.1.3,Win32,5.007511267,,,,,,,,,,,,,,,,,,,,,,,,,,,920,,,,,,,,,,,,,,,,,,,,,1,1,,,348.1316,14,right,0.0098,,0.5,0.3,"[2,3,1]",0.690331854,stimuli/card_100_transparent.png,100,14,0,14,0,1,,,,,,,,,,
,,,,5abc27db68b65b00018d000f,A,2024-07-03_01h15.39.576,Slot Machine Game,2023.1.3,Win32,5.007511267,,,,,,,,,,,,,,,,,,,,,,,,,,,,,,,,,,,349.6557,,,,,,,,,,,,,,,,,,,,,,,,,,,,,,,,,[920],0,0,0,0,1,,,,
,,,,5abc27db68b65b00018d000f,A,2024-07-03_01h15.39.576,Slot Machine Game,2023.1.3,Win32,5.007511267,,,,,,,,,,,,,,,,,,,,,,,,,,,0,,,,,,,,,,,,,,,,,,,,,2,5,"[5,15]","[[1,2,3],[3,1,2]]",354.6542,0,right,0.0099,,0.5,0.3,"[1,2,3]",0.294794171,stimuli/card_0_transparent.png,0,0,0,0,0,1,,,,,,,,,,
,,,,5abc27db68b65b00018d000f,A,2024-07-03_01h15.39.576,Slot Machine Game,2023.1.3,Win32,5.007511267,,,,,,,,,,,,,,,,,,,,,,,,,,,0,,,,,,,,,,,,,,,,,,,,,2,5,,,356.3673,1,right,0.2523,,1.5,0.3,"[1,2,3]",0.214159192,stimuli/card_0_transparent.png,0,1,0,1,0,1,,,,,,,,,,
,,,,5abc27db68b65b00018d000f,A,2024-07-03_01h15.39.576,Slot Machine Game,2023.1.3,Win32,5.007511267,,,,,,,,,,,,,,,,,,,,,,,,,,,10,,,,,,,,,,,,,,,,,,,,,2,5,,,359.3584,2,up,1.2162,,1.5,0.3,"[1,2,3]",0.25655264,stimuli/card_10_transparent.png,10,2,0,2,0,1,,,,,,,,,,
,,,,5abc27db68b65b00018d000f,A,2024-07-03_01h15.39.576,Slot Machine Game,2023.1.3,Win32,5.007511267,,,,,,,,,,,,,,,,,,,,,,,,,,,110,,,,,,,,,,,,,,,,,,,,,2,5,,,363.2916,3,left,0.0097,,0.5,0.3,"[1,2,3]",0.209293166,stimuli/card_100_transparent.png,100,3,0,3,0,1,,,,,,,,,,
,,,,5abc27db68b65b00018d000f,A,2024-07-03_01h15.39.576,Slot Machine Game,2023.1.3,Win32,5.007511267,,,,,,,,,,,,,,,,,,,,,,,,,,,210,,,,,,,,,,,,,,,,,,,,,2,5,,,365.0326,4,left,1.2252,,0.5,0.3,"[1,2,3]",0.726536842,stimuli/card_100_transparent.png,100,4,0,4,0,1,,,,,,,,,,
,,,,5abc27db68b65b00018d000f,A,2024-07-03_01h15.39.576,Slot Machine Game,2023.1.3,Win32,5.007511267,,,,,,,,,,,,,,,,,,,,,,,,,,,210,,,,,,,,,,,,,,,,,,,,,2,5,,,367.9638,5,left,0.0099,,1,0.3,"[3,1,2]",0.950829367,stimuli/card_0_transparent.png,0,5,0,5,0,1,,,,,,,,,,
,,,,5abc27db68b65b00018d000f,A,2024-07-03_01h15.39.576,Slot Machine Game,2023.1.3,Win32,5.007511267,,,,,,,,,,,,,,,,,,,,,,,,,,,210,,,,,,,,,,,,,,,,,,,,,2,5,,,370.1716,6,left,0.9811,,0.5,0.3,"[3,1,2]",0.448295189,stimuli/card_0_transparent.png,0,6,0,6,0,1,,,,,,,,,,
,,,,5abc27db68b65b00018d000f,A,2024-07-03_01h15.39.576,Slot Machine Game,2023.1.3,Win32,5.007511267,,,,,,,,,,,,,,,,,,,,,,,,,,,310,,,,,,,,,,,,,,,,,,,,,2,5,,,372.8764,7,up,0.9791,,0.5,0.3,"[3,1,2]",0.421192551,stimuli/card_100_transparent.png,100,7,0,7,0,1,,,,,,,,,,
,,,,5abc27db68b65b00018d000f,A,2024-07-03_01h15.39.576,Slot Machine Game,2023.1.3,Win32,5.007511267,,,,,,,,,,,,,,,,,,,,,,,,,,,410,,,,,,,,,,,,,,,,,,,,,2,5,,,375.5656,8,up,0.0098,,1,0.3,"[3,1,2]",0.69449583,stimuli/card_100_transparent.png,100,8,0,8,0,1,,,,,,,,,,
,,,,5abc27db68b65b00018d000f,A,2024-07-03_01h15.39.576,Slot Machine Game,2023.1.3,Win32,5.007511267,,,,,,,,,,,,,,,,,,,,,,,,,,,420,,,,,,,,,,,,,,,,,,,,,2,5,,,377.7945,9,up,0.9824,,1.5,0.3,"[3,1,2]",0.133337757,stimuli/card_10_transparent.png,10,9,0,9,0,1,,,,,,,,,,
,,,,5abc27db68b65b00018d000f,A,2024-07-03_01h15.39.576,Slot Machine Game,2023.1.3,Win32,5.007511267,,,,,,,,,,,,,,,,,,,,,,,,,,,520,,,,,,,,,,,,,,,,,,,,,2,5,,,381.5168,10,up,0.0103,,1,0.3,"[3,1,2]",0.536181695,stimuli/card_100_transparent.png,100,10,0,10,0,1,,,,,,,,,,
,,,,5abc27db68b65b00018d000f,A,2024-07-03_01h15.39.576,Slot Machine Game,2023.1.3,Win32,5.007511267,,,,,,,,,,,,,,,,,,,,,,,,,,,620,,,,,,,,,,,,,,,,,,,,,2,5,,,383.7467,11,up,0.0099,,0.5,0.3,"[3,1,2]",0.295486907,stimuli/card_100_transparent.png,100,11,0,11,0,1,,,,,,,,,,
,,,,5abc27db68b65b00018d000f,A,2024-07-03_01h15.39.576,Slot Machine Game,2023.1.3,Win32,5.007511267,,,,,,,,,,,,,,,,,,,,,,,,,,,720,,,,,,,,,,,,,,,,,,,,,2,5,,,385.4668,12,up,0.7357,,1.5,0.3,"[3,1,2]",0.488146894,stimuli/card_100_transparent.png,100,12,0,12,0,1,,,,,,,,,,
,,,,5abc27db68b65b00018d000f,A,2024-07-03_01h15.39.576,Slot Machine Game,2023.1.3,Win32,5.007511267,,,,,,,,,,,,,,,,,,,,,,,,,,,820,,,,,,,,,,,,,,,,,,,,,2,5,,,388.9187,13,up,0.9753,,0.5,0.3,"[3,1,2]",0.492461685,stimuli/card_100_transparent.png,100,13,0,13,0,1,,,,,,,,,,
,,,,5abc27db68b65b00018d000f,A,2024-07-03_01h15.39.576,Slot Machine Game,2023.1.3,Win32,5.007511267,,,,,,,,,,,,,,,,,,,,,,,,,,,920,,,,,,,,,,,,,,,,,,,,,2,5,,,391.6012,14,up,0.01,,0.5,0.3,"[3,1,2]",0.261326194,stimuli/card_100_transparent.png,100,14,0,14,0,1,,,,,,,,,,
,,,,5abc27db68b65b00018d000f,A,2024-07-03_01h15.39.576,Slot Machine Game,2023.1.3,Win32,5.007511267,,,,,,,,,,,,,,,,,,,,,,,,,,,,,,,,,,,393.3218,,,,,,,,,,,,,,,,,,,,,,,,,,,,,,,,,"[920,920]",1,0,1,0,1,,,,
,,,,5abc27db68b65b00018d000f,A,2024-07-03_01h15.39.576,Slot Machine Game,2023.1.3,Win32,5.007511267,,,,,,,,,,,,,,,,,,,,,,,,,,,0,,,,,,,,,,,,,,,,,,,,,3,7,"[9,15]","[[1,3,2],[2,3,1]]",398.3023,0,up,0.4965,,0.5,0.3,"[1,3,2]",0.99444779,stimuli/card_0_transparent.png,0,0,0,0,0,1,,,,,,,,,,
,,,,5abc27db68b65b00018d000f,A,2024-07-03_01h15.39.576,Slot Machine Game,2023.1.3,Win32,5.007511267,,,,,,,,,,,,,,,,,,,,,,,,,,,0,,,,,,,,,,,,,,,,,,,,,3,7,,,400.4967,1,left,0.7355,,1.5,0.3,"[1,3,2]",0.096907989,stimuli/card_0_transparent.png,0,1,0,1,0,1,,,,,,,,,,
,,,,5abc27db68b65b00018d000f,A,2024-07-03_01h15.39.576,Slot Machine Game,2023.1.3,Win32,5.007511267,,,,,,,,,,,,,,,,,,,,,,,,,,,10,,,,,,,,,,,,,,,,,,,,,3,7,,,403.9562,2,right,0.9728,,0.5,0.3,"[1,3,2]",0.752519844,stimuli/card_10_transparent.png,10,2,0,2,0,1,,,,,,,,,,
,,,,5abc27db68b65b00018d000f,A,2024-07-03_01h15.39.576,Slot Machine Game,2023.1.3,Win32,5.007511267,,,,,,,,,,,,,,,,,,,,,,,,,,,10,,,,,,,,,,,,,,,,,,,,,3,7,,,406.6391,3,up,0.2559,,1,0.3,"[1,3,2]",0.545742654,stimuli/card_0_transparent.png,0,3,0,3,0,1,,,,,,,,,,
,,,,5abc27db68b65b00018d000f,A,2024-07-03_01h15.39.576,Slot Machine Game,2023.1.3,Win32,5.007511267,,,,,,,,,,,,,,,,,,,,,,,,,,,110,,,,,,,,,,,,,,,,,,,,,3,7,,,409.1581,4,left,0.0145,,1.5,0.3,"[1,3,2]",0.562754474,stimuli/card_100_transparent.png,100,4,0,4,0,1,,,,,,,,,,
,,,,5abc27db68b65b00018d000f,A,2024-07-03_01h15.39.576,Slot Machine Game,2023.1.3,Win32,5.007511267,,,,,,,,,,,,,,,,,,,,,,,,,,,210,,,,,,,,,,,,,,,,,,,,,3,7,,,411.9719,5,left,0.2646,,1.5,0.3,"[1,3,2]",0.875029178,stimuli/card_100_transparent.png,100,5,0,5,0,1,,,,,,,,,,
,,,,5abc27db68b65b00018d000f,A,2024-07-03_01h15.39.576,Slot Machine Game,2023.1.3,Win32,5.007511267,,,,,,,,,,,,,,,,,,,,,,,,,,,220,,,,,,,,,,,,,,,,,,,,,3,7,,,414.7955,6,left,0.0104,,1.5,0.3,"[1,3,2]",0.145630618,stimuli/card_10_transparent.png,10,6,0,6,0,1,,,,,,,,,,
,,,,5abc27db68b65b00018d000f,A,2024-07-03_01h15.39.576,Slot Machine Game,2023.1.3,Win32,5.007511267,,,,,,,,,,,,,,,,,,,,,,,,,,,320,,,,,,,,,,,,,,,,,,,,,3,7,,,417.3159,7,left,0.0099,,1,0.3,"[1,3,2]",0.903507859,stimuli/card_100_transparent.png,100,7,0,7,0,1,,,,,,,,,,
,,,,5abc27db68b65b00018d000f,A,2024-07-03_01h15.39.576,Slot Machine Game,2023.1.3,Win32,5.007511267,,,,,,,,,,,,,,,,,,,,,,,,,,,420,,,,,,,,,,,,,,,,,,,,,3,7,,,419.5403,8,left,0.253,,0.5,0.3,"[1,3,2]",0.481926518,stimuli/card_100_transparent.png,100,8,0,8,0,1,,,,,,,,,,
,,,,5abc27db68b65b00018d000f,A,2024-07-03_01h15.39.576,Slot Machine Game,2023.1.3,Win32,5.007511267,,,,,,,,,,,,,,,,,,,,,,,,,,,430,,,,,,,,,,,,,,,,,,,,,3,7,,,421.5194,9,left,0.0097,,0.5,0.3,"[2,3,1]",0.416699202,stimuli/card_10_transparent.png,10,9,0,9,0,1,,,,,,,,,,
,,,,5abc27db68b65b00018d000f,A,2024-07-03_01h15.39.576,Slot Machine Game,2023.1.3,Win32,5.007511267,,,,,,,,,,,,,,,,,,,,,,,,,,,440,,,,,,,,,,,,,,,,,,,,,3,7,,,423.2467,10,left,0.0106,,0.5,0.3,"[2,3,1]",0.383991747,stimuli/card_10_transparent.png,10,10,0,10,0,1,,,,,,,,,,
,,,,5abc27db68b65b00018d000f,A,2024-07-03_01h15.39.576,Slot Machine Game,2023.1.3,Win32,5.007511267,,,,,,,,,,,,,,,,,,,,,,,,,,,440,,,,,,,,,,,,,,,,,,,,,3,7,,,424.9822,11,up,0.0095,,1.5,0.3,"[2,3,1]",0.700378702,stimuli/card_0_transparent.png,0,11,0,11,0,1,,,,,,,,,,
,,,,5abc27db68b65b00018d000f,A,2024-07-03_01h15.39.576,Slot Machine Game,2023.1.3,Win32,5.007511267,,,,,,,,,,,,,,,,,,,,,,,,,,,440,,,,,,,,,,,,,,,,,,,,,3,7,,,427.7204,12,right,0.0104,,1,0.3,"[2,3,1]",0.076143606,stimuli/card_0_transparent.png,0,12,0,12,0,1,,,,,,,,,,
,,,,5abc27db68b65b00018d000f,A,2024-07-03_01h15.39.576,Slot Machine Game,2023.1.3,Win32,5.007511267,,,,,,,,,,,,,,,,,,,,,,,,,,,450,,,,,,,,,,,,,,,,,,,,,3,7,,,429.9371,13,left,0.0099,,1.5,0.3,"[2,3,1]",0.978194145,stimuli/card_10_transparent.png,10,13,0,13,0,1,,,,,,,,,,
,,,,5abc27db68b65b00018d000f,A,2024-07-03_01h15.39.576,Slot Machine Game,2023.1.3,Win32,5.007511267,,,,,,,,,,,,,,,,,,,,,,,,,,,450,,,,,,,,,,,,,,,,,,,,,3,7,,,432.6699,14,up,0.0098,,1.5,0.3,"[2,3,1]",0.233012693,stimuli/card_0_transparent.png,0,14,0,14,0,1,,,,,,,,,,
,,,,5abc27db68b65b00018d000f,A,2024-07-03_01h15.39.576,Slot Machine Game,2023.1.3,Win32,5.007511267,,,,,,,,,,,,,,,,,,,,,,,,,,,,,,,,,,,435.3893,,,,,,,,,,,,,,,,,,,,,,,,,,,,,,,,,"[920,920,450]",2,0,2,0,1,,,,
,,,,5abc27db68b65b00018d000f,A,2024-07-03_01h15.39.576,Slot Machine Game,2023.1.3,Win32,5.007511267,,,,,,,,,,,,,,,,,,,,,,,,,,,10,,,,,,,,,,,,,,,,,,,,,4,4,"[7,15]","[[2,3,1],[1,2,3]]",440.3682,0,left,0.2509,,1,0.3,"[2,3,1]",0.86550668,stimuli/card_10_transparent.png,10,0,0,0,0,1,,,,,,,,,,
,,,,5abc27db68b65b00018d000f,A,2024-07-03_01h15.39.576,Slot Machine Game,2023.1.3,Win32,5.007511267,,,,,,,,,,,,,,,,,,,,,,,,,,,10,,,,,,,,,,,,,,,,,,,,,4,4,,,442.8272,1,up,0.0103,,0.5,0.3,"[2,3,1]",0.377589694,stimuli/card_0_transparent.png,0,1,0,1,0,1,,,,,,,,,,
,,,,5abc27db68b65b00018d000f,A,2024-07-03_01h15.39.576,Slot Machine Game,2023.1.3,Win32,5.007511267,,,,,,,,,,,,,,,,,,,,,,,,,,,10,,,,,,,,,,,,,,,,,,,,,4,4,,,444.5669,2,right,0.4965,,1.5,0.3,"[2,3,1]",0.045052351,stimuli/card_0_transparent.png,0,2,0,2,0,1,,,,,,,,,,
,,,,5abc27db68b65b00018d000f,A,2024-07-03_01h15.39.576,Slot Machine Game,2023.1.3,Win32,5.007511267,,,,,,,,,,,,,,,,,,,,,,,,,,,20,,,,,,,,,,,,,,,,,,,,,4,4,,,447.7833,3,left,0.2541,,1,0.3,"[2,3,1]",0.922403266,stimuli/card_10_transparent.png,10,3,0,3,0,1,,,,,,,,,,
,,,,5abc27db68b65b00018d000f,A,2024-07-03_01h15.39.576,Slot Machine Game,2023.1.3,Win32,5.007511267,,,,,,,,,,,,,,,,,,,,,,,,,,,120,,,,,,,,,,,,,,,,,,,,,4,4,,,450.2344,4,up,0.2493,,1.5,0.3,"[2,3,1]",0.011861338,stimuli/card_100_transparent.png,100,4,0,4,0,1,,,,,,,,,,
,,,,5abc27db68b65b00018d000f,A,2024-07-03_01h15.39.576,Slot Machine Game,2023.1.3,Win32,5.007511267,,,,,,,,,,,,,,,,,,,,,,,,,,,120,,,,,,,,,,,,,,,,,,,,,4,4,,,453.1975,5,up,0.0098,,1.5,0.3,"[2,3,1]",0.664472612,stimuli/card_0_transparent.png,0,5,0,5,0,1,,,,,,,,,,
,,,,5abc27db68b65b00018d000f,A,2024-07-03_01h15.39.576,Slot Machine Game,2023.1.3,Win32,5.007511267,,,,,,,,,,,,,,,,,,,,,,,,,,,120,,,,,,,,,,,,,,,,,,,,,4,4,,,455.9342,6,up,0.0093,,0.5,0.3,"[2,3,1]",0.958936621,stimuli/card_0_transparent.png,0,6,0,6,0,1,,,,,,,,,,
,,,,5abc27db68b65b00018d000f,A,2024-07-03_01h15.39.576,Slot Machine Game,2023.1.3,Win32,5.007511267,,,,,,,,,,,,,,,,,,,,,,,,,,,120,,,,,,,,,,,,,,,,,,,,,4,4,,,457.647,7,right,0.01,,1.5,0.3,"[1,2,3]",0.962128632,stimuli/card_0_transparent.png,0,7,0,7,0,1,,,,,,,,,,
,,,,5abc27db68b65b00018d000f,A,2024-07-03_01h15.39.576,Slot Machine Game,2023.1.3,Win32,5.007511267,,,,,,,,,,,,,,,,,,,,,,,,,,,220,,,,,,,,,,,,,,,,,,,,,4,4,,,460.4081,8,left,0.2536,,0.5,0.3,"[1,2,3]",0.982124951,stimuli/card_100_transparent.png,100,8,0,8,0,1,,,,,,,,,,
,,,,5abc27db68b65b00018d000f,A,2024-07-03_01h15.39.576,Slot Machine Game,2023.1.3,Win32,5.007511267,,,,,,,,,,,,,,,,,,,,,,,,,,,230,,,,,,,,,,,,,,,,,,,,,4,4,,,462.365,9,left,0.2513,,1,0.3,"[1,2,3]",0.136176423,stimuli/card_10_transparent.png,10,9,0,9,0,1,,,,,,,,,,
,,,,5abc27db68b65b00018d000f,A,2024-07-03_01h15.39.576,Slot Machine Game,2023.1.3,Win32,5.007511267,,,,,,,,,,,,,,,,,,,,,,,,,,,330,,,,,,,,,,,,,,,,,,,,,4,4,,,464.8425,10,left,0.0098,,0.5,0.3,"[1,2,3]",0.548517213,stimuli/card_100_transparent.png,100,10,0,10,0,1,,,,,,,,,,
,,,,5abc27db68b65b00018d000f,A,2024-07-03_01h15.39.576,Slot Machine Game,2023.1.3,Win32,5.007511267,,,,,,,,,,,,,,,,,,,,,,,,,,,430,,,,,,,,,,,,,,,,,,,,,4,4,,,466.5524,11,left,0.0105,,0.5,0.3,"[1,2,3]",0.93941061,stimuli/card_100_transparent.png,100,11,0,11,0,1,,,,,,,,,,
,,,,5abc27db68b65b00018d000f,A,2024-07-03_01h15.39.576,Slot Machine Game,2023.1.3,Win32,5.007511267,,,,,,,,,,,,,,,,,,,,,,,,,,,430,,,,,,,,,,,,,,,,,,,,,4,4,,,468.2821,12,left,1.2161,,0.5,0.3,"[1,2,3]",0.060265266,stimuli/card_0_transparent.png,0,12,0,12,0,1,,,,,,,,,,
,,,,5abc27db68b65b00018d000f,A,2024-07-03_01h15.39.576,Slot Machine Game,2023.1.3,Win32,5.007511267,,,,,,,,,,,,,,,,,,,,,,,,,,,530,,,,,,,,,,,,,,,,,,,,,4,4,,,471.2084,13,left,0.9775,,1,0.3,"[1,2,3]",0.840036705,stimuli/card_100_transparent.png,100,13,0,13,0,1,,,,,,,,,,
,,,,5abc27db68b65b00018d000f,A,2024-07-03_01h15.39.576,Slot Machine Game,2023.1.3,Win32,5.007511267,,,,,,,,,,,,,,,,,,,,,,,,,,,630,,,,,,,,,,,,,,,,,,,,,4,4,,,474.4565,14,left,0.01,,1.5,0.3,"[1,2,3]",0.847892732,stimuli/card_100_transparent.png,100,14,0,14,0,1,,,,,,,,,,
,,,,5abc27db68b65b00018d000f,A,2024-07-03_01h15.39.576,Slot Machine Game,2023.1.3,Win32,5.007511267,,,,,,,,,,,,,,,,,,,,,,,,,,,,,,,,,,,477.0426,,,,,,,,,,,,,,,,,,,,,,,,,,,,,,,,,"[920,920,450,630]",3,0,3,0,1,,,,
,,,,5abc27db68b65b00018d000f,A,2024-07-03_01h15.39.576,Slot Machine Game,2023.1.3,Win32,5.007511267,,,,,,,,,,,,,,,,,,,,,,,,,,,10,,,,,,,,,,,,,,,,,,,,,5,6,"[4,10,15]","[[2,3,1],[1,3,2],[3,2,1]]",481.9641,0,left,0.0106,,1.5,0.3,"[2,3,1]",0.643957442,stimuli/card_10_transparent.png,10,0,0,0,0,1,,,,,,,,,,
,,,,5abc27db68b65b00018d000f,A,2024-07-03_01h15.39.576,Slot Machine Game,2023.1.3,Win32,5.007511267,,,,,,,,,,,,,,,,,,,,,,,,,,,20,,,,,,,,,,,,,,,,,,,,,5,6,,,484.6788,1,left,0.9767,,0.5,0.3,"[2,3,1]",0.483403772,stimuli/card_10_transparent.png,10,1,0,1,0,1,,,,,,,,,,
,,,,5abc27db68b65b00018d000f,A,2024-07-03_01h15.39.576,Slot Machine Game,2023.1.3,Win32,5.007511267,,,,,,,,,,,,,,,,,,,,,,,,,,,20,,,,,,,,,,,,,,,,,,,,,5,6,,,487.3651,2,up,0.9768,,1.5,0.3,"[2,3,1]",0.420096139,stimuli/card_0_transparent.png,0,2,0,2,0,1,,,,,,,,,,
,,,,5abc27db68b65b00018d000f,A,2024-07-03_01h15.39.576,Slot Machine Game,2023.1.3,Win32,5.007511267,,,,,,,,,,,,,,,,,,,,,,,,,,,30,,,,,,,,,,,,,,,,,,,,,5,6,,,491.0705,3,up,0.0096,,1.5,0.3,"[2,3,1]",0.110394776,stimuli/card_10_transparent.png,10,3,0,3,0,1,,,,,,,,,,
,,,,5abc27db68b65b00018d000f,A,2024-07-03_01h15.39.576,Slot Machine Game,2023.1.3,Win32,5.007511267,,,,,,,,,,,,,,,,,,,,,,,,,,,40,,,,,,,,,,,,,,,,,,,,,5,6,,,493.7998,4,right,0.4941,,0.5,0.3,"[1,3,2]",0.233987348,stimuli/card_10_transparent.png,10,4,0,4,0,1,,,,,,,,,,
,,,,5abc27db68b65b00018d000f,A,2024-07-03_01h15.39.576,Slot Machine Game,2023.1.3,Win32,5.007511267,,,,,,,,,,,,,,,,,,,,,,,,,,,50,,,,,,,,,,,,,,,,,,,,,5,6,,,496.0026,5,right,1.213,,0.5,0.3,"[1,3,2]",0.235929314,stimuli/card_10_transparent.png,10,5,0,5,0,1,,,,,,,,,,
,,,,5abc27db68b65b00018d000f,A,2024-07-03_01h15.39.576,Slot Machine Game,2023.1.3,Win32,5.007511267,,,,,,,,,,,,,,,,,,,,,,,,,,,150,,,,,,,,,,,,,,,,,,,,,5,6,,,498.9208,6,left,0.9914,,1.5,0.3,"[1,3,2]",0.341013637,stimuli/card_100_transparent.png,100,6,0,6,0,1,,,,,,,,,,
,,,,5abc27db68b65b00018d000f,A,2024-07-03_01h15.39.576,Slot Machine Game,2023.1.3,Win32,5.007511267,,,,,,,,,,,,,,,,,,,,,,,,,,,150,,,,,,,,,,,,,,,,,,,,,5,6,,,502.6373,7,left,0.0098,,0.5,0.3,"[1,3,2]",0.033103354,stimuli/card_0_transparent.png,0,7,0,7,0,1,,,,,,,,,,
,,,,5abc27db68b65b00018d000f,A,2024-07-03_01h15.39.576,Slot Machine Game,2023.1.3,Win32,5.007511267,,,,,,,,,,,,,,,,,,,,,,,,,,,250,,,,,,,,,,,,,,,,,,,,,5,6,,,504.3589,8,left,0.7384,,0.5,0.3,"[1,3,2]",0.26798168,stimuli/card_100_transparent.png,100,8,0,8,0,1,,,,,,,,,,
,,,,5abc27db68b65b00018d000f,A,2024-07-03_01h15.39.576,Slot Machine Game,2023.1.3,Win32,5.007511267,,,,,,,,,,,,,,,,,,,,,,,,,,,350,,,,,,,,,,,,,,,,,,,,,5,6,,,506.8086,9,left,0.0099,,1,0.3,"[1,3,2]",0.676217252,stimuli/card_100_transparent.png,100,9,0,9,0,1,,,,,,,,,,
,,,,5abc27db68b65b00018d000f,A,2024-07-03_01h15.39.576,Slot Machine Game,2023.1.3,Win32,5.007511267,,,,,,,,,,,,,,,,,,,,,,,,,,,350,,,,,,,,,,,,,,,,,,,,,5,6,,,509.0522,10,left,0.012,,1.5,0.3,"[3,2,1]",0.966309728,stimuli/card_0_transparent.png,0,10,0,10,0,1,,,,,,,,,,
,,,,5abc27db68b65b00018d000f,A,2024-07-03_01h15.39.576,Slot Machine Game,2023.1.3,Win32,5.007511267,,,,,,,,,,,,,,,,,,,,,,,,,,,350,,,,,,,,,,,,,,,,,,,,,5,6,,,511.7852,11,left,0.7336,,0.5,0.3,"[3,2,1]",0.292190151,stimuli/card_0_transparent.png,0,11,0,11,0,1,,,,,,,,,,
,,,,5abc27db68b65b00018d000f,A,2024-07-03_01h15.39.576,Slot Machine Game,2023.1.3,Win32,5.007511267,,,,,,,,,,,,,,,,,,,,,,,,,,,360,,,,,,,,,,,,,,,,,,,,,5,6,,,514.2254,12,up,0.0121,,1.5,0.3,"[3,2,1]",0.402644394,stimuli/card_10_transparent.png,10,12,0,12,0,1,,,,,,,,,,
,,,,5abc27db68b65b00018d000f,A,2024-07-03_01h15.39.576,Slot Machine Game,2023.1.3,Win32,5.007511267,,,,,,,,,,,,,,,,,,,,,,,,,,,460,,,,,,,,,,,,,,,,,,,,,5,6,,,516.7307,13,left,0.0099,,0.5,0.3,"[3,2,1]",0.07180946,stimuli/card_100_transparent.png,100,13,0,13,0,1,,,,,,,,,,
,,,,5abc27db68b65b00018d000f,A,2024-07-03_01h15.39.576,Slot Machine Game,2023.1.3,Win32,5.007511267,,,,,,,,,,,,,,,,,,,,,,,,,,,460,,,,,,,,,,,,,,,,,,,,,5,6,,,518.4478,14,left,0.2573,,1,0.3,"[3,2,1]",0.217626373,stimuli/card_0_transparent.png,0,14,0,14,0,1,,,,,,,,,,
,,,,5abc27db68b65b00018d000f,A,2024-07-03_01h15.39.576,Slot Machine Game,2023.1.3,Win32,5.007511267,,,,,,,,,,,,,,,,,,,,,,,,,,,,,,,,,,,520.9081,,,,,,,,,,,,,,,,,,,,,,,,,,,,,,,,,"[920,920,450,630,460]",4,0,4,0,1,,,,
,,,,5abc27db68b65b00018d000f,A,2024-07-03_01h15.39.576,Slot Machine Game,2023.1.3,Win32,5.007511267,,,,,,,,,,,,,,,,,,,,,,,,,,,100,,,,,,,,,,,,,,,,,,,,,6,8,"[11,15]","[[2,1,3],[1,2,3]]",525.8792,0,up,0.0101,,1,0.3,"[2,1,3]",0.864021723,stimuli/card_100_transparent.png,100,0,0,0,0,1,,,,,,,,,,
,,,,5abc27db68b65b00018d000f,A,2024-07-03_01h15.39.576,Slot Machine Game,2023.1.3,Win32,5.007511267,,,,,,,,,,,,,,,,,,,,,,,,,,,200,,,,,,,,,,,,,,,,,,,,,6,8,,,528.1015,1,up,0.0096,,1.5,0.3,"[2,1,3]",0.330795198,stimuli/card_100_transparent.png,100,1,0,1,0,1,,,,,,,,,,
,,,,5abc27db68b65b00018d000f,A,2024-07-03_01h15.39.576,Slot Machine Game,2023.1.3,Win32,5.007511267,,,,,,,,,,,,,,,,,,,,,,,,,,,300,,,,,,,,,,,,,,,,,,,,,6,8,,,530.8263,2,up,0.7381,,1.5,0.3,"[2,1,3]",0.706808829,stimuli/card_100_transparent.png,100,2,0,2,0,1,,,,,,,,,,
,,,,5abc27db68b65b00018d000f,A,2024-07-03_01h15.39.576,Slot Machine Game,2023.1.3,Win32,5.007511267,,,,,,,,,,,,,,,,,,,,,,,,,,,400,,,,,,,,,,,,,,,,,,,,,6,8,,,534.2774,3,up,1.2238,,1,0.3,"[2,1,3]",0.206145046,stimuli/card_100_transparent.png,100,3,0,3,0,1,,,,,,,,,,
,,,,5abc27db68b65b00018d000f,A,2024-07-03_01h15.39.576,Slot Machine Game,2023.1.3,Win32,5.007511267,,,,,,,,,,,,,,,,,,,,,,,,,,,500,,,,,,,,,,,,,,,,,,,,,6,8,,,537.7296,4,up,1.0027,,1.5,0.3,"[2,1,3]",0.349707217,stimuli/card_100_transparent.png,100,4,0,4,0,1,,,,,,,,,,
,,,,5abc27db68b65b00018d000f,A,2024-07-03_01h15.39.576,Slot Machine Game,2023.1.3,Win32,5.007511267,,,,,,,,,,,,,,,,,,,,,,,,,,,600,,,,,,,,,,,,,,,,,,,,,6,8,,,541.5367,5,up,0.0143,,1.5,0.3,"[2,1,3]",0.806434426,stimuli/card_100_transparent.png,100,5,0,5,0,1,,,,,,,,,,
,,,,5abc27db68b65b00018d000f,A,2024-07-03_01h15.39.576,Slot Machine Game,2023.1.3,Win32,5.007511267,,,,,,,,,,,,,,,,,,,,,,,,,,,600,,,,,,,,,,,,,,,,,,,,,6,8,,,543.8813,6,up,0.7324,,0.5,0.3,"[2,1,3]",0.067686069,stimuli/card_0_transparent.png,0,6,0,6,0,1,,,,,,,,,,
,,,,5abc27db68b65b00018d000f,A,2024-07-03_01h15.39.576,Slot Machine Game,2023.1.3,Win32,5.007511267,,,,,,,,,,,,,,,,,,,,,,,,,,,700,,,,,,,,,,,,,,,,,,,,,6,8,,,546.3305,7,up,0.0224,,1,0.3,"[2,1,3]",0.214160887,stimuli/card_100_transparent.png,100,7,0,7,0,1,,,,,,,,,,
,,,,5abc27db68b65b00018d000f,A,2024-07-03_01h15.39.576,Slot Machine Game,2023.1.3,Win32,5.007511267,,,,,,,,,,,,,,,,,,,,,,,,,,,800,,,,,,,,,,,,,,,,,,,,,6,8,,,548.5664,8,up,0.0109,,0.5,0.3,"[2,1,3]",0.34784916,stimuli/card_100_transparent.png,100,8,0,8,0,1,,,,,,,,,,
,,,,5abc27db68b65b00018d000f,A,2024-07-03_01h15.39.576,Slot Machine Game,2023.1.3,Win32,5.007511267,,,,,,,,,,,,,,,,,,,,,,,,,,,900,,,,,,,,,,,,,,,,,,,,,6,8,,,550.279,9,up,0.0094,,1,0.3,"[2,1,3]",0.72427222,stimuli/card_100_transparent.png,100,9,0,9,0,1,,,,,,,,,,
,,,,5abc27db68b65b00018d000f,A,2024-07-03_01h15.39.576,Slot Machine Game,2023.1.3,Win32,5.007511267,,,,,,,,,,,,,,,,,,,,,,,,,,,1000,,,,,,,,,,,,,,,,,,,,,6,8,,,552.513,10,up,0.7345,,1,0.3,"[2,1,3]",0.968696705,stimuli/card_100_transparent.png,100,10,0,10,0,1,,,,,,,,,,
,,,,5abc27db68b65b00018d000f,A,2024-07-03_01h15.39.576,Slot Machine Game,2023.1.3,Win32,5.007511267,,,,,,,,,,,,,,,,,,,,,,,,,,,1010,,,,,,,,,,,,,,,,,,,,,6,8,,,555.4822,11,up,0.2523,,1,0.3,"[1,2,3]",0.989652817,stimuli/card_10_transparent.png,10,11,0,11,0,1,,,,,,,,,,
,,,,5abc27db68b65b00018d000f,A,2024-07-03_01h15.39.576,Slot Machine Game,2023.1.3,Win32,5.007511267,,,,,,,,,,,,,,,,,,,,,,,,,,,1020,,,,,,,,,,,,,,,,,,,,,6,8,,,557.968,12,up,0.7346,,0.5,0.3,"[1,2,3]",0.997369296,stimuli/card_10_transparent.png,10,12,0,12,0,1,,,,,,,,,,
,,,,5abc27db68b65b00018d000f,A,2024-07-03_01h15.39.576,Slot Machine Game,2023.1.3,Win32,5.007511267,,,,,,,,,,,,,,,,,,,,,,,,,,,1020,,,,,,,,,,,,,,,,,,,,,6,8,,,560.4141,13,right,0.9859,,0.5,0.3,"[1,2,3]",0.224304384,stimuli/card_0_transparent.png,0,13,0,13,0,1,,,,,,,,,,
,,,,5abc27db68b65b00018d000f,A,2024-07-03_01h15.39.576,Slot Machine Game,2023.1.3,Win32,5.007511267,,,,,,,,,,,,,,,,,,,,,,,,,,,1030,,,,,,,,,,,,,,,,,,,,,6,8,,,563.1134,14,up,0.4914,,1,0.3,"[1,2,3]",0.92483798,stimuli/card_10_transparent.png,10,14,0,14,0,1,,,,,,,,,,
,,,,5abc27db68b65b00018d000f,A,2024-07-03_01h15.39.576,Slot Machine Game,2023.1.3,Win32,5.007511267,,,,,,,,,,,,,,,,,,,,,,,,,,,,,,,,,,,565.8208,,,,,,,,,,,,,,,,,,,,,,,,,,,,,,,,,"[920,920,450,630,460,1030]",5,0,5,0,1,,,,
,,,,5abc27db68b65b00018d000f,A,2024-07-03_01h15.39.576,Slot Machine Game,2023.1.3,Win32,5.007511267,,,,,,,,,,,,,,,,,,,,,,,,,,,10,,,,,,,,,,,,,,,,,,,,,7,9,"[8,15]","[[3,2,1],[3,1,2]]",570.7932,0,up,0.0099,,0.5,0.3,"[3,2,1]",0.38604113,stimuli/card_10_transparent.png,10,0,0,0,0,1,,,,,,,,,,
,,,,5abc27db68b65b00018d000f,A,2024-07-03_01h15.39.576,Slot Machine Game,2023.1.3,Win32,5.007511267,,,,,,,,,,,,,,,,,,,,,,,,,,,10,,,,,,,,,,,,,,,,,,,,,7,9,,,572.5202,1,left,0.4998,,0.5,0.3,"[3,2,1]",0.570099203,stimuli/card_0_transparent.png,0,1,0,1,0,1,,,,,,,,,,
,,,,5abc27db68b65b00018d000f,A,2024-07-03_01h15.39.576,Slot Machine Game,2023.1.3,Win32,5.007511267,,,,,,,,,,,,,,,,,,,,,,,,,,,10,,,,,,,,,,,,,,,,,,,,,7,9,,,574.7219,2,left,0.2497,,0.5,0.3,"[3,2,1]",0.878118558,stimuli/card_0_transparent.png,0,2,0,2,0,1,,,,,,,,,,
,,,,5abc27db68b65b00018d000f,A,2024-07-03_01h15.39.576,Slot Machine Game,2023.1.3,Win32,5.007511267,,,,,,,,,,,,,,,,,,,,,,,,,,,10,,,,,,,,,,,,,,,,,,,,,7,9,,,576.6723,3,right,0.7273,,1,0.3,"[3,2,1]",0.050924837,stimuli/card_0_transparent.png,0,3,0,3,0,1,,,,,,,,,,
,,,,5abc27db68b65b00018d000f,A,2024-07-03_01h15.39.576,Slot Machine Game,2023.1.3,Win32,5.007511267,,,,,,,,,,,,,,,,,,,,,,,,,,,20,,,,,,,,,,,,,,,,,,,,,7,9,,,579.6137,4,right,0.0101,,0.5,0.3,"[3,2,1]",0.19563654,stimuli/card_10_transparent.png,10,4,0,4,0,1,,,,,,,,,,
,,,,5abc27db68b65b00018d000f,A,2024-07-03_01h15.39.576,Slot Machine Game,2023.1.3,Win32,5.007511267,,,,,,,,,,,,,,,,,,,,,,,,,,,30,,,,,,,,,,,,,,,,,,,,,7,9,,,581.3228,5,up,0.9786,,1.5,0.3,"[3,2,1]",0.677838343,stimuli/card_10_transparent.png,10,5,0,5,0,1,,,,,,,,,,
,,,,5abc27db68b65b00018d000f,A,2024-07-03_01h15.39.576,Slot Machine Game,2023.1.3,Win32,5.007511267,,,,,,,,,,,,,,,,,,,,,,,,,,,40,,,,,,,,,,,,,,,,,,,,,7,9,,,585.0284,6,up,0.0111,,1.5,0.3,"[3,2,1]",0.214042706,stimuli/card_10_transparent.png,10,6,0,6,0,1,,,,,,,,,,
,,,,5abc27db68b65b00018d000f,A,2024-07-03_01h15.39.576,Slot Machine Game,2023.1.3,Win32,5.007511267,,,,,,,,,,,,,,,,,,,,,,,,,,,40,,,,,,,,,,,,,,,,,,,,,7,9,,,587.7485,7,left,0.4883,,1,0.3,"[3,2,1]",0.461727816,stimuli/card_0_transparent.png,0,7,0,7,0,1,,,,,,,,,,
,,,,5abc27db68b65b00018d000f,A,2024-07-03_01h15.39.576,Slot Machine Game,2023.1.3,Win32,5.007511267,,,,,,,,,,,,,,,,,,,,,,,,,,,40,,,,,,,,,,,,,,,,,,,,,7,9,,,590.4425,8,left,0.7465,,1.5,0.3,"[3,1,2]",0.29388878,stimuli/card_0_transparent.png,0,8,0,8,0,1,,,,,,,,,,
,,,,5abc27db68b65b00018d000f,A,2024-07-03_01h15.39.576,Slot Machine Game,2023.1.3,Win32,5.007511267,,,,,,,,,,,,,,,,,,,,,,,,,,,50,,,,,,,,,,,,,,,,,,,,,7,9,,,593.9159,9,right,0.7339,,1,0.3,"[3,1,2]",0.499065484,stimuli/card_10_transparent.png,10,9,0,9,0,1,,,,,,,,,,
,,,,5abc27db68b65b00018d000f,A,2024-07-03_01h15.39.576,Slot Machine Game,2023.1.3,Win32,5.007511267,,,,,,,,,,,,,,,,,,,,,,,,,,,60,,,,,,,,,,,,,,,,,,,,,7,9,,,596.8626,10,right,0.0098,,0.5,0.3,"[3,1,2]",0.668522094,stimuli/card_10_transparent.png,10,10,0,10,0,1,,,,,,,,,,
,,,,5abc27db68b65b00018d000f,A,2024-07-03_01h15.39.576,Slot Machine Game,2023.1.3,Win32,5.007511267,,,,,,,,,,,,,,,,,,,,,,,,,,,160,,,,,,,,,,,,,,,,,,,,,7,9,,,598.6019,11,up,0.4902,,0.5,0.3,"[3,1,2]",0.661024353,stimuli/card_100_transparent.png,100,11,0,11,0,1,,,,,,,,,,
,,,,5abc27db68b65b00018d000f,A,2024-07-03_01h15.39.576,Slot Machine Game,2023.1.3,Win32,5.007511267,,,,,,,,,,,,,,,,,,,,,,,,,,,170,,,,,,,,,,,,,,,,,,,,,7,9,,,600.7968,12,up,0.2557,,1,0.3,"[3,1,2]",0.110993375,stimuli/card_10_transparent.png,10,12,0,12,0,1,,,,,,,,,,
,,,,5abc27db68b65b00018d000f,A,2024-07-03_01h15.39.576,Slot Machine Game,2023.1.3,Win32,5.007511267,,,,,,,,,,,,,,,,,,,,,,,,,,,270,,,,,,,,,,,,,,,,,,,,,7,9,,,603.264,13,up,0.0129,,1.5,0.3,"[3,1,2]",0.346702173,stimuli/card_100_transparent.png,100,13,0,13,0,1,,,,,,,,,,
,,,,5abc27db68b65b00018d000f,A,2024-07-03_01h15.39.576,Slot Machine Game,2023.1.3,Win32,5.007511267,,,,,,,,,,,,,,,,,,,,,,,,,,,280,,,,,,,,,,,,,,,,,,,,,7,9,,,605.8249,14,up,0.262,,1.5,0.3,"[3,1,2]",0.146332238,stimuli/card_10_transparent.png,10,14,0,14,0,1,,,,,,,,,,
,,,,5abc27db68b65b00018d000f,A,2024-07-03_01h15.39.576,Slot Machine Game,2023.1.3,Win32,5.007511267,,,,,,,,,,,,,,,,,,,,,,,,,,,,,,,,,,,608.464,,,,,,,,,,,,,,,,,,,,,,,,,,,,,,,,,"[920,920,450,630,460,1030,280]",6,0,6,0,1,,,,
,,,,5abc27db68b65b00018d000f,A,2024-07-03_01h15.39.576,Slot Machine Game,2023.1.3,Win32,5.007511267,,,,,,,,,,,,,,,,,,,,,,,,,,,0,,,,,,,,,,,,,,,,,,,,,8,2,"[6,15]","[[1,3,2],[3,2,1]]",613.4123,0,right,0.0094,,1.5,0.3,"[1,3,2]",0.016142459,stimuli/card_0_transparent.png,0,0,0,0,0,1,,,,,,,,,,
,,,,5abc27db68b65b00018d000f,A,2024-07-03_01h15.39.576,Slot Machine Game,2023.1.3,Win32,5.007511267,,,,,,,,,,,,,,,,,,,,,,,,,,,0,,,,,,,,,,,,,,,,,,,,,8,2,,,616.1307,1,up,0.4871,,1.5,0.3,"[1,3,2]",0.573350466,stimuli/card_0_transparent.png,0,1,0,1,0,1,,,,,,,,,,
,,,,5abc27db68b65b00018d000f,A,2024-07-03_01h15.39.576,Slot Machine Game,2023.1.3,Win32,5.007511267,,,,,,,,,,,,,,,,,,,,,,,,,,,100,,,,,,,,,,,,,,,,,,,,,8,2,,,619.3509,2,left,0.5038,,1,0.3,"[1,3,2]",0.940116378,stimuli/card_100_transparent.png,100,2,0,2,0,1,,,,,,,,,,
,,,,5abc27db68b65b00018d000f,A,2024-07-03_01h15.39.576,Slot Machine Game,2023.1.3,Win32,5.007511267,,,,,,,,,,,,,,,,,,,,,,,,,,,200,,,,,,,,,,,,,,,,,,,,,8,2,,,622.0691,3,left,0.0099,,0.5,0.3,"[1,3,2]",0.971441175,stimuli/card_100_transparent.png,100,3,0,3,0,1,,,,,,,,,,
,,,,5abc27db68b65b00018d000f,A,2024-07-03_01h15.39.576,Slot Machine Game,2023.1.3,Win32,5.007511267,,,,,,,,,,,,,,,,,,,,,,,,,,,300,,,,,,,,,,,,,,,,,,,,,8,2,,,623.7822,4,left,0.4911,,1,0.3,"[1,3,2]",0.635660175,stimuli/card_100_transparent.png,100,4,0,4,0,1,,,,,,,,,,
,,,,5abc27db68b65b00018d000f,A,2024-07-03_01h15.39.576,Slot Machine Game,2023.1.3,Win32,5.007511267,,,,,,,,,,,,,,,,,,,,,,,,,,,300,,,,,,,,,,,,,,,,,,,,,8,2,,,626.4932,5,left,0.2525,,1,0.3,"[1,3,2]",0.052672643,stimuli/card_0_transparent.png,0,5,0,5,0,1,,,,,,,,,,
,,,,5abc27db68b65b00018d000f,A,2024-07-03_01h15.39.576,Slot Machine Game,2023.1.3,Win32,5.007511267,,,,,,,,,,,,,,,,,,,,,,,,,,,300,,,,,,,,,,,,,,,,,,,,,8,2,,,628.9704,6,left,0.7367,,1,0.3,"[3,2,1]",0.529213295,stimuli/card_0_transparent.png,0,6,0,6,0,1,,,,,,,,,,
,,,,5abc27db68b65b00018d000f,A,2024-07-03_01h15.39.576,Slot Machine Game,2023.1.3,Win32,5.007511267,,,,,,,,,,,,,,,,,,,,,,,,,,,400,,,,,,,,,,,,,,,,,,,,,8,2,,,631.9179,7,right,0.0108,,1.5,0.3,"[3,2,1]",0.277311861,stimuli/card_100_transparent.png,100,7,0,7,0,1,,,,,,,,,,
,,,,5abc27db68b65b00018d000f,A,2024-07-03_01h15.39.576,Slot Machine Game,2023.1.3,Win32,5.007511267,,,,,,,,,,,,,,,,,,,,,,,,,,,500,,,,,,,,,,,,,,,,,,,,,8,2,,,634.6515,8,right,0.736,,1,0.3,"[3,2,1]",0.50808661,stimuli/card_100_transparent.png,100,8,0,8,0,1,,,,,,,,,,
,,,,5abc27db68b65b00018d000f,A,2024-07-03_01h15.39.576,Slot Machine Game,2023.1.3,Win32,5.007511267,,,,,,,,,,,,,,,,,,,,,,,,,,,600,,,,,,,,,,,,,,,,,,,,,8,2,,,637.6024,9,right,0.0102,,1,0.3,"[3,2,1]",0.440491129,stimuli/card_100_transparent.png,100,9,0,9,0,1,,,,,,,,,,
,,,,5abc27db68b65b00018d000f,A,2024-07-03_01h15.39.576,Slot Machine Game,2023.1.3,Win32,5.007511267,,,,,,,,,,,,,,,,,,,,,,,,,,,700,,,,,,,,,,,,,,,,,,,,,8,2,,,639.8296,10,right,0.251,,1.5,0.3,"[3,2,1]",0.348538258,stimuli/card_100_transparent.png,100,10,0,10,0,1,,,,,,,,,,
,,,,5abc27db68b65b00018d000f,A,2024-07-03_01h15.39.576,Slot Machine Game,2023.1.3,Win32,5.007511267,,,,,,,,,,,,,,,,,,,,,,,,,,,800,,,,,,,,,,,,,,,,,,,,,8,2,,,642.8006,11,right,0.0097,,0.5,0.3,"[3,2,1]",0.267725391,stimuli/card_100_transparent.png,100,11,0,11,0,1,,,,,,,,,,
,,,,5abc27db68b65b00018d000f,A,2024-07-03_01h15.39.576,Slot Machine Game,2023.1.3,Win32,5.007511267,,,,,,,,,,,,,,,,,,,,,,,,,,,900,,,,,,,,,,,,,,,,,,,,,8,2,,,644.5199,12,right,0.2528,,1.5,0.3,"[3,2,1]",0.761720452,stimuli/card_100_transparent.png,100,12,0,12,0,1,,,,,,,,,,
,,,,5abc27db68b65b00018d000f,A,2024-07-03_01h15.39.576,Slot Machine Game,2023.1.3,Win32,5.007511267,,,,,,,,,,,,,,,,,,,,,,,,,,,1000,,,,,,,,,,,,,,,,,,,,,8,2,,,647.2634,13,right,0.733,,1,0.3,"[3,2,1]",0.555023806,stimuli/card_100_transparent.png,100,13,0,13,0,1,,,,,,,,,,
,,,,5abc27db68b65b00018d000f,A,2024-07-03_01h15.39.576,Slot Machine Game,2023.1.3,Win32,5.007511267,,,,,,,,,,,,,,,,,,,,,,,,,,,1100,,,,,,,,,,,,,,,,,,,,,8,2,,,650.2111,14,right,0.247,,1.5,0.3,"[3,2,1]",0.647243452,stimuli/card_100_transparent.png,100,14,0,14,0,1,,,,,,,,,,
,,,,5abc27db68b65b00018d000f,A,2024-07-03_01h15.39.576,Slot Machine Game,2023.1.3,Win32,5.007511267,,,,,,,,,,,,,,,,,,,,,,,,,,,,,,,,,,,653.1849,,,,,,,,,,,,,,,,,,,,,,,,,,,,,,,,,"[920,920,450,630,460,1030,280,1100]",7,0,7,0,1,,,,
,,,,5abc27db68b65b00018d000f,A,2024-07-03_01h15.39.576,Slot Machine Game,2023.1.3,Win32,5.007511267,,,,,,,,,,,,,,,,,,,,,,,,,,,100,,,,,,,,,,,,,,,,,,,,,9,10,"[10,15]","[[3,1,2],[1,3,2]]",658.1854,0,up,0.2491,,1,0.3,"[3,1,2]",0.583058674,stimuli/card_100_transparent.png,100,0,0,0,0,1,,,,,,,,,,
,,,,5abc27db68b65b00018d000f,A,2024-07-03_01h15.39.576,Slot Machine Game,2023.1.3,Win32,5.007511267,,,,,,,,,,,,,,,,,,,,,,,,,,,200,,,,,,,,,,,,,,,,,,,,,9,10,,,660.6459,1,up,0.0101,,1.5,0.3,"[3,1,2]",0.42892733,stimuli/card_100_transparent.png,100,1,0,1,0,1,,,,,,,,,,
,,,,5abc27db68b65b00018d000f,A,2024-07-03_01h15.39.576,Slot Machine Game,2023.1.3,Win32,5.007511267,,,,,,,,,,,,,,,,,,,,,,,,,,,300,,,,,,,,,,,,,,,,,,,,,9,10,,,663.3809,2,up,0.0157,,1.5,0.3,"[3,1,2]",0.776119166,stimuli/card_100_transparent.png,100,2,0,2,0,1,,,,,,,,,,
,,,,5abc27db68b65b00018d000f,A,2024-07-03_01h15.39.576,Slot Machine Game,2023.1.3,Win32,5.007511267,,,,,,,,,,,,,,,,,,,,,,,,,,,400,,,,,,,,,,,,,,,,,,,,,9,10,,,666.1077,3,up,0.7324,,0.5,0.3,"[3,1,2]",0.917175911,stimuli/card_100_transparent.png,100,3,0,3,0,1,,,,,,,,,,
,,,,5abc27db68b65b00018d000f,A,2024-07-03_01h15.39.576,Slot Machine Game,2023.1.3,Win32,5.007511267,,,,,,,,,,,,,,,,,,,,,,,,,,,500,,,,,,,,,,,,,,,,,,,,,9,10,,,668.5668,4,up,0.7513,,1.5,0.3,"[3,1,2]",0.965814551,stimuli/card_100_transparent.png,100,4,0,4,0,1,,,,,,,,,,
,,,,5abc27db68b65b00018d000f,A,2024-07-03_01h15.39.576,Slot Machine Game,2023.1.3,Win32,5.007511267,,,,,,,,,,,,,,,,,,,,,,,,,,,510,,,,,,,,,,,,,,,,,,,,,9,10,,,671.8772,5,up,0.0144,,1.5,0.3,"[3,1,2]",0.121331237,stimuli/card_10_transparent.png,10,5,0,5,0,1,,,,,,,,,,
,,,,5abc27db68b65b00018d000f,A,2024-07-03_01h15.39.576,Slot Machine Game,2023.1.3,Win32,5.007511267,,,,,,,,,,,,,,,,,,,,,,,,,,,610,,,,,,,,,,,,,,,,,,,,,9,10,,,674.1848,6,up,0.7292,,0.5,0.3,"[3,1,2]",0.943638999,stimuli/card_100_transparent.png,100,6,0,6,0,1,,,,,,,,,,
,,,,5abc27db68b65b00018d000f,A,2024-07-03_01h15.39.576,Slot Machine Game,2023.1.3,Win32,5.007511267,,,,,,,,,,,,,,,,,,,,,,,,,,,710,,,,,,,,,,,,,,,,,,,,,9,10,,,676.6195,7,up,0.0099,,0.5,0.3,"[3,1,2]",0.322211854,stimuli/card_100_transparent.png,100,7,0,7,0,1,,,,,,,,,,
,,,,5abc27db68b65b00018d000f,A,2024-07-03_01h15.39.576,Slot Machine Game,2023.1.3,Win32,5.007511267,,,,,,,,,,,,,,,,,,,,,,,,,,,810,,,,,,,,,,,,,,,,,,,,,9,10,,,678.333,8,up,0.4876,,1,0.3,"[3,1,2]",0.742552928,stimuli/card_100_transparent.png,100,8,0,8,0,1,,,,,,,,,,
,,,,5abc27db68b65b00018d000f,A,2024-07-03_01h15.39.576,Slot Machine Game,2023.1.3,Win32,5.007511267,,,,,,,,,,,,,,,,,,,,,,,,,,,910,,,,,,,,,,,,,,,,,,,,,9,10,,,681.0471,9,up,0.7305,,0.5,0.3,"[3,1,2]",0.974330801,stimuli/card_100_transparent.png,100,9,0,9,0,1,,,,,,,,,,
,,,,5abc27db68b65b00018d000f,A,2024-07-03_01h15.39.576,Slot Machine Game,2023.1.3,Win32,5.007511267,,,,,,,,,,,,,,,,,,,,,,,,,,,910,,,,,,,,,,,,,,,,,,,,,9,10,,,683.5032,10,up,0.0098,,1.5,0.3,"[1,3,2]",0.363268894,stimuli/card_0_transparent.png,0,10,0,10,0,1,,,,,,,,,,
,,,,5abc27db68b65b00018d000f,A,2024-07-03_01h15.39.576,Slot Machine Game,2023.1.3,Win32,5.007511267,,,,,,,,,,,,,,,,,,,,,,,,,,,920,,,,,,,,,,,,,,,,,,,,,9,10,,,686.2294,11,up,0.0106,,1,0.3,"[1,3,2]",0.195007205,stimuli/card_10_transparent.png,10,11,0,11,0,1,,,,,,,,,,
,,,,5abc27db68b65b00018d000f,A,2024-07-03_01h15.39.576,Slot Machine Game,2023.1.3,Win32,5.007511267,,,,,,,,,,,,,,,,,,,,,,,,,,,1020,,,,,,,,,,,,,,,,,,,,,9,10,,,688.446,12,left,0.7395,,1.5,0.3,"[1,3,2]",0.710986396,stimuli/card_100_transparent.png,100,12,0,12,0,1,,,,,,,,,,
,,,,5abc27db68b65b00018d000f,A,2024-07-03_01h15.39.576,Slot Machine Game,2023.1.3,Win32,5.007511267,,,,,,,,,,,,,,,,,,,,,,,,,,,1120,,,,,,,,,,,,,,,,,,,,,9,10,,,691.9094,13,left,0.2509,,1,0.3,"[1,3,2]",0.633134065,stimuli/card_100_transparent.png,100,13,0,13,0,1,,,,,,,,,,
,,,,5abc27db68b65b00018d000f,A,2024-07-03_01h15.39.576,Slot Machine Game,2023.1.3,Win32,5.007511267,,,,,,,,,,,,,,,,,,,,,,,,,,,1130,,,,,,,,,,,,,,,,,,,,,9,10,,,694.3865,14,left,0.0095,,1,0.3,"[1,3,2]",0.193733004,stimuli/card_10_transparent.png,10,14,0,14,0,1,,,,,,,,,,
,,,,5abc27db68b65b00018d000f,A,2024-07-03_01h15.39.576,Slot Machine Game,2023.1.3,Win32,5.007511267,,,,,,,,,,,,,,,,,,,,,,,,,,,,,,,,,,,696.5968,,,,,,,,,,,,,,,,,,,,,,,,,,,,,,,,,"[920,920,450,630,460,1030,280,1100,1130]",8,0,8,0,1,,,,
,,,,5abc27db68b65b00018d000f,A,2024-07-03_01h15.39.576,Slot Machine Game,2023.1.3,Win32,5.007511267,,,,,,,,,,,,,,,,,,,,,,,,,,,100,,,,,,,,,,,,,,,,,,,,,10,3,"[15,15]","[[3,1,2],[3,1,2]]",701.5892,0,up,0.0101,,0.5,0.3,"[3,1,2]",0.808715794,stimuli/card_100_transparent.png,100,0,0,0,0,1,,,,,,,,,,
,,,,5abc27db68b65b00018d000f,A,2024-07-03_01h15.39.576,Slot Machine Game,2023.1.3,Win32,5.007511267,,,,,,,,,,,,,,,,,,,,,,,,,,,200,,,,,,,,,,,,,,,,,,,,,10,3,,,703.299,1,up,0.0092,,0.5,0.3,"[3,1,2]",0.702612932,stimuli/card_100_transparent.png,100,1,0,1,0,1,,,,,,,,,,
,,,,5abc27db68b65b00018d000f,A,2024-07-03_01h15.39.576,Slot Machine Game,2023.1.3,Win32,5.007511267,,,,,,,,,,,,,,,,,,,,,,,,,,,300,,,,,,,,,,,,,,,,,,,,,10,3,,,705.0248,2,up,0.7334,,1.5,0.3,"[3,1,2]",0.862351757,stimuli/card_100_transparent.png,100,2,0,2,0,1,,,,,,,,,,
,,,,5abc27db68b65b00018d000f,A,2024-07-03_01h15.39.576,Slot Machine Game,2023.1.3,Win32,5.007511267,,,,,,,,,,,,,,,,,,,,,,,,,,,400,,,,,,,,,,,,,,,,,,,,,10,3,,,708.4676,3,up,0.4896,,1.5,0.3,"[3,1,2]",0.24031999,stimuli/card_100_transparent.png,100,3,0,3,0,1,,,,,,,,,,
,,,,5abc27db68b65b00018d000f,A,2024-07-03_01h15.39.576,Slot Machine Game,2023.1.3,Win32,5.007511267,,,,,,,,,,,,,,,,,,,,,,,,,,,500,,,,,,,,,,,,,,,,,,,,,10,3,,,711.6995,4,up,0.2807,,1.5,0.3,"[3,1,2]",0.906497371,stimuli/card_100_transparent.png,100,4,0,4,0,1,,,,,,,,,,
,,,,5abc27db68b65b00018d000f,A,2024-07-03_01h15.39.576,Slot Machine Game,2023.1.3,Win32,5.007511267,,,,,,,,,,,,,,,,,,,,,,,,,,,600,,,,,,,,,,,,,,,,,,,,,10,3,,,714.7173,5,up,0.8159,,1,0.3,"[3,1,2]",0.99531965,stimuli/card_100_transparent.png,100,5,0,5,0,1,,,,,,,,,,
,,,,5abc27db68b65b00018d000f,A,2024-07-03_01h15.39.576,Slot Machine Game,2023.1.3,Win32,5.007511267,,,,,,,,,,,,,,,,,,,,,,,,,,,700,,,,,,,,,,,,,,,,,,,,,10,3,,,717.4538,6,up,0.7998,,1,0.3,"[3,1,2]",0.982127831,stimuli/card_100_transparent.png,100,6,0,6,0,1,,,,,,,,,,
,,,,5abc27db68b65b00018d000f,A,2024-07-03_01h15.39.576,Slot Machine Game,2023.1.3,Win32,5.007511267,,,,,,,,,,,,,,,,,,,,,,,,,,,800,,,,,,,,,,,,,,,,,,,,,10,3,,,720.1749,7,up,0.5589,0.0003,0.5,0.3,"[3,1,2]",0.727889939,stimuli/card_100_transparent.png,100,7,0,7,0,1,,,,,,,,,,
,,,,5abc27db68b65b00018d000f,A,2024-07-03_01h15.39.576,Slot Machine Game,2023.1.3,Win32,5.007511267,,,,,,,,,,,,,,,,,,,,,,,,,,,900,,,,,,,,,,,,,,,,,,,,,10,3,,,722.3273,8,up,0.2826,,1,0.3,"[3,1,2]",0.206362611,stimuli/card_100_transparent.png,100,8,0,8,0,1,,,,,,,,,,
,,,,5abc27db68b65b00018d000f,A,2024-07-03_01h15.39.576,Slot Machine Game,2023.1.3,Win32,5.007511267,,,,,,,,,,,,,,,,,,,,,,,,,,,1000,,,,,,,,,,,,,,,,,,,,,10,3,,,724.4976,9,up,0.0137,,0.5,0.3,"[3,1,2]",0.583907079,stimuli/card_100_transparent.png,100,9,0,9,0,1,,,,,,,,,,
,,,,5abc27db68b65b00018d000f,A,2024-07-03_01h15.39.576,Slot Machine Game,2023.1.3,Win32,5.007511267,,,,,,,,,,,,,,,,,,,,,,,,,,,1100,,,,,,,,,,,,,,,,,,,,,10,3,,,725.8763,10,up,0.5517,0,0.5,0.3,"[3,1,2]",0.50477639,stimuli/card_100_transparent.png,100,10,0,10,0,1,,,,,,,,,,
,,,,5abc27db68b65b00018d000f,A,2024-07-03_01h15.39.576,Slot Machine Game,2023.1.3,Win32,5.007511267,,,,,,,,,,,,,,,,,,,,,,,,,,,1200,,,,,,,,,,,,,,,,,,,,,10,3,,,728.0531,11,up,0.013,,1,0.3,"[3,1,2]",0.939576639,stimuli/card_100_transparent.png,100,11,0,11,0,1,,,,,,,,,,
,,,,5abc27db68b65b00018d000f,A,2024-07-03_01h15.39.576,Slot Machine Game,2023.1.3,Win32,5.007511267,,,,,,,,,,,,,,,,,,,,,,,,,,,1200,,,,,,,,,,,,,,,,,,,,,10,3,,,730.0114,12,up,0.0139,,1.5,0.3,"[3,1,2]",0.013553745,stimuli/card_0_transparent.png,0,12,0,12,0,1,,,,,,,,,,
,,,,5abc27db68b65b00018d000f,A,2024-07-03_01h15.39.576,Slot Machine Game,2023.1.3,Win32,5.007511267,,,,,,,,,,,,,,,,,,,,,,,,,,,1300,,,,,,,,,,,,,,,,,,,,,10,3,,,732.4783,13,up,0.5581,,1.5,0.3,"[3,1,2]",0.262763497,stimuli/card_100_transparent.png,100,13,0,13,0,1,,,,,,,,,,
,,,,5abc27db68b65b00018d000f,A,2024-07-03_01h15.39.576,Slot Machine Game,2023.1.3,Win32,5.007511267,,,,,,,,,,,,,,,,,,,,,,,,,,,1400,,,,,,,,,,,,,,,,,,,,,10,3,,,735.531,14,up,0.0141,,1.5,0.3,"[3,1,2]",0.966547056,stimuli/card_100_transparent.png,100,14,0,14,0,1,,,,,,,,,,
,,,,5abc27db68b65b00018d000f,A,2024-07-03_01h15.39.576,Slot Machine Game,2023.1.3,Win32,5.007511267,,,,,,,,,,,,,,,,,,,,,,,,,,,,,,,,,,,738.0055,,,,,,,,,,,,,,,,,,,,,,,,,,,,,,,,,"[920,920,450,630,460,1030,280,1100,1130,1400]",9,0,9,0,1,,,,
,,,,5abc27db68b65b00018d000f,A,2024-07-03_01h15.39.576,Slot Machine Game,2023.1.3,Win32,5.007511267,,,,,,,,,,,,,,,,,,,,,,,,,,,,,,,,,,,,,,,,,,,,,,,,,,,,,,,,,,,,,,,,,,,,,,,,,,9,"[920,920,450,630,460,1030,280,1100,1130,1400]",4.6,2024-07-03_01h28.06.790
