key_resp_welcome_started,key_resp_welcome_keys,key_resp_welcome_rt,key_resp_welcome_duration,prolific_id,path_id,date,expName,psychopyVersion,OS,frameRate,key_resp_instruction1_started,key_resp_instruction1_keys,key_resp_instruction1_rt,key_resp_instruction1_duration,key_resp_instruction2_started,key_resp_instruction2_keys,key_resp_instruction2_rt,key_resp_instruction2_duration,key_resp_instruction3_started,key_resp_instruction3_keys,key_resp_instruction3_rt,key_resp_instruction3_duration,key_resp_instruction4_started,key_resp_instruction4_keys,key_resp_instruction4_rt,key_resp_instruction4_duration,practiceCondition,practice_reward_seqs,practice_trial_started,practice_trial_num,practice_resp_rt,practice_resp_duration,practice_resp_keys,prac_presentationInterval,"practice_reward_seq: 2,1,3",reward_img,cumulative_reward,trial_reward,practice_trials.thisRepN,practice_trials.thisTrialN,practice_trials.thisN,practice_trials.thisIndex,practice_trials.ran,"practice_reward_seq: 2,3,1",block_break_started,"practice_reward_seq: 1,3,2","practice_reward_seq: 3,1,2",practice_end_time,practice_end_keys,practice_end_rt,practice_end_duration,main_instruction_text_started,block_condition,block_order_indices,main_instruction_keys,main_instruction_rt,main_instruction_duration,block_number,block_assignment,current_condition,main_reward_seqs,main_trial_started,main_trial_num,main_trial_keys,main_trial_rt,main_trial_duration,main_presentationInterval,reward_presentation_time,main_reward_seq,reward_rand_val,main_reward_img,current_reward,main_trials.thisRepN,main_trials.thisTrialN,main_trials.thisN,main_trials.thisIndex,main_trials.ran,block_reward,block.thisRepN,block.thisTrialN,block.thisN,block.thisIndex,block.ran,block_reward.length,block_reward_all,reward_amount,date_end_task
0.0006,space,3.361,,5b72db405f561b0001342eff,B,2024-06-21_17h43.53.025,Slot Machine Game,2023.1.3,Win32,59.52380952,,,,,,,,,,,,,,,,,,,,,,,,,,,,,,,,,,,,,,,,,,,,,,,,,,,,,,,,,,,,,,,,,,,,,,,,,,,,,
,,,,5b72db405f561b0001342eff,B,2024-06-21_17h43.53.025,Slot Machine Game,2023.1.3,Win32,59.52380952,3.3845,space,10.9235,,,,,,,,,,,,,,,,,,,,,,,,,,,,,,,,,,,,,,,,,,,,,,,,,,,,,,,,,,,,,,,,,,,,,,,,,,
,,,,5b72db405f561b0001342eff,B,2024-06-21_17h43.53.025,Slot Machine Game,2023.1.3,Win32,59.52380952,,,,,14.3396,space,30.1515,,,,,,,,,,,,,,,,,,,,,,,,,,,,,,,,,,,,,,,,,,,,,,,,,,,,,,,,,,,,,,,,,,,,,,
,,,,5b72db405f561b0001342eff,B,2024-06-21_17h43.53.025,Slot Machine Game,2023.1.3,Win32,59.52380952,,,,,,,,,44.5436,space,9.8267,,,,,,,,,,,,,,,,,,,,,,,,,,,,,,,,,,,,,,,,,,,,,,,,,,,,,,,,,,,,,,,,,,
,,,,5b72db405f561b0001342eff,B,2024-06-21_17h43.53.025,Slot Machine Game,2023.1.3,Win32,59.52380952,,,,,,,,,,,,,,,,,,,,,,,,,,,,,,,,,,,,,,,,,,,,,,,,,,,,,,,,,,,,,,,,,,,,,,,,,,,,,
,,,,5b72db405f561b0001342eff,B,2024-06-21_17h43.53.025,Slot Machine Game,2023.1.3,Win32,59.52380952,,,,,,,,,,,,,196.5822,left,1.4586,,,,,,,,,,,,,,,,,,,,,,,,,,,,,,,,,,,,,,,,,,,,,,,,,,,,,,,,,,,,,,
,,,,5b72db405f561b0001342eff,B,2024-06-21_17h43.53.025,Slot Machine Game,2023.1.3,Win32,59.52380952,,,,,,,,,,,,,,,,,"[9,15]","[[2,1,3],[2,3,1]]",198.0782,0,0.653,,left,1.5,,stimuli/card_10_transparent.png,10,10,0,0,0,0,1,,,,,,,,,,,,,,,,,,,,,,,,,,,,,,,,,,,,,,,,,,,,
,,,,5b72db405f561b0001342eff,B,2024-06-21_17h43.53.025,Slot Machine Game,2023.1.3,Win32,59.52380952,,,,,,,,,,,,,,,,,,,201.0607,1,1.1107,,up,0.5,,stimuli/card_100_transparent.png,110,100,1,0,1,0,1,,,,,,,,,,,,,,,,,,,,,,,,,,,,,,,,,,,,,,,,,,,,
,,,,5b72db405f561b0001342eff,B,2024-06-21_17h43.53.025,Slot Machine Game,2023.1.3,Win32,59.52380952,,,,,,,,,,,,,,,,,,,203.4979,2,0.0966,,up,0.5,,stimuli/card_0_transparent.png,110,0,2,0,2,0,1,,,,,,,,,,,,,,,,,,,,,,,,,,,,,,,,,,,,,,,,,,,,
,,,,5b72db405f561b0001342eff,B,2024-06-21_17h43.53.025,Slot Machine Game,2023.1.3,Win32,59.52380952,,,,,,,,,,,,,,,,,,,204.9411,3,0.0008,,right,0.5,,stimuli/card_100_transparent.png,210,100,3,0,3,0,1,,,,,,,,,,,,,,,,,,,,,,,,,,,,,,,,,,,,,,,,,,,,
,,,,5b72db405f561b0001342eff,B,2024-06-21_17h43.53.025,Slot Machine Game,2023.1.3,Win32,59.52380952,,,,,,,,,,,,,,,,,,,206.2686,4,1.5388,,right,1.5,,stimuli/card_0_transparent.png,210,0,4,0,4,0,1,,,,,,,,,,,,,,,,,,,,,,,,,,,,,,,,,,,,,,,,,,,,
,,,,5b72db405f561b0001342eff,B,2024-06-21_17h43.53.025,Slot Machine Game,2023.1.3,Win32,59.52380952,,,,,,,,,,,,,,,,,,,210.1422,5,0.4168,,up,1,,stimuli/card_100_transparent.png,310,100,5,0,5,0,1,,,,,,,,,,,,,,,,,,,,,,,,,,,,,,,,,,,,,,,,,,,,
,,,,5b72db405f561b0001342eff,B,2024-06-21_17h43.53.025,Slot Machine Game,2023.1.3,Win32,59.52380952,,,,,,,,,,,,,,,,,,,212.398,6,0.0012,,up,1,,stimuli/card_100_transparent.png,410,100,6,0,6,0,1,,,,,,,,,,,,,,,,,,,,,,,,,,,,,,,,,,,,,,,,,,,,
,,,,5b72db405f561b0001342eff,B,2024-06-21_17h43.53.025,Slot Machine Game,2023.1.3,Win32,59.52380952,,,,,,,,,,,,,,,,,,,214.2383,7,0.0062,,up,1.5,,stimuli/card_100_transparent.png,510,100,7,0,7,0,1,,,,,,,,,,,,,,,,,,,,,,,,,,,,,,,,,,,,,,,,,,,,
,,,,5b72db405f561b0001342eff,B,2024-06-21_17h43.53.025,Slot Machine Game,2023.1.3,Win32,59.52380952,,,,,,,,,,,,,,,,,,,216.568,8,2.1044,,up,1.5,,stimuli/card_100_transparent.png,610,100,8,0,8,0,1,,,,,,,,,,,,,,,,,,,,,,,,,,,,,,,,,,,,,,,,,,,,
,,,,5b72db405f561b0001342eff,B,2024-06-21_17h43.53.025,Slot Machine Game,2023.1.3,Win32,59.52380952,,,,,,,,,,,,,,,,,,,220.9814,9,0.6414,,up,0.5,,stimuli/card_0_transparent.png,610,0,9,0,9,0,1,,,,,,,,,,,,,,,,,,,,,,,,,,,,,,,,,,,,,,,,,,,,
,,,,5b72db405f561b0001342eff,B,2024-06-21_17h43.53.025,Slot Machine Game,2023.1.3,Win32,59.52380952,,,,,,,,,,,,,,,,,,,222.9367,10,0.5542,,up,0.5,,stimuli/card_0_transparent.png,610,0,10,0,10,0,1,,,,,,,,,,,,,,,,,,,,,,,,,,,,,,,,,,,,,,,,,,,,
,,,,5b72db405f561b0001342eff,B,2024-06-21_17h43.53.025,Slot Machine Game,2023.1.3,Win32,59.52380952,,,,,,,,,,,,,,,,,,,224.8104,11,0.0716,,up,1,,stimuli/card_0_transparent.png,610,0,11,0,11,0,1,,,,,,,,,,,,,,,,,,,,,,,,,,,,,,,,,,,,,,,,,,,,
,,,,5b72db405f561b0001342eff,B,2024-06-21_17h43.53.025,Slot Machine Game,2023.1.3,Win32,59.52380952,,,,,,,,,,,,,,,,,,,226.6988,12,0.7529,,left,0.5,,stimuli/card_10_transparent.png,620,10,12,0,12,0,1,,,,,,,,,,,,,,,,,,,,,,,,,,,,,,,,,,,,,,,,,,,,
,,,,5b72db405f561b0001342eff,B,2024-06-21_17h43.53.025,Slot Machine Game,2023.1.3,Win32,59.52380952,,,,,,,,,,,,,,,,,,,228.7601,13,0.2693,,right,1.5,,stimuli/card_10_transparent.png,630,10,13,0,13,0,1,,,,,,,,,,,,,,,,,,,,,,,,,,,,,,,,,,,,,,,,,,,,
,,,,5b72db405f561b0001342eff,B,2024-06-21_17h43.53.025,Slot Machine Game,2023.1.3,Win32,59.52380952,,,,,,,,,,,,,,,,,,,231.3622,14,1.1529,,up,1.5,,stimuli/card_0_transparent.png,630,0,14,0,14,0,1,,,,,,,,,,,,,,,,,,,,,,,,,,,,,,,,,,,,,,,,,,,,
,,,,5b72db405f561b0001342eff,B,2024-06-21_17h43.53.025,Slot Machine Game,2023.1.3,Win32,59.52380952,,,,,,,,,,,,,,,,,"[6,15]","[[1,3,2],[3,1,2]]",239.8689,0,0.5397,,up,1,,stimuli/card_0_transparent.png,0,0,0,0,0,0,1,,234.875,,,,,,,,,,,,,,,,,,,,,,,,,,,,,,,,,,,,,,,,,,
,,,,5b72db405f561b0001342eff,B,2024-06-21_17h43.53.025,Slot Machine Game,2023.1.3,Win32,59.52380952,,,,,,,,,,,,,,,,,,,242.2375,1,0.9548,,right,1,,stimuli/card_10_transparent.png,10,10,1,0,1,0,1,,,,,,,,,,,,,,,,,,,,,,,,,,,,,,,,,,,,,,,,,,,,
,,,,5b72db405f561b0001342eff,B,2024-06-21_17h43.53.025,Slot Machine Game,2023.1.3,Win32,59.52380952,,,,,,,,,,,,,,,,,,,245.0247,2,0.4353,,right,1,,stimuli/card_10_transparent.png,20,10,2,0,2,0,1,,,,,,,,,,,,,,,,,,,,,,,,,,,,,,,,,,,,,,,,,,,,
,,,,5b72db405f561b0001342eff,B,2024-06-21_17h43.53.025,Slot Machine Game,2023.1.3,Win32,59.52380952,,,,,,,,,,,,,,,,,,,247.2943,3,0.2586,,left,1.5,,stimuli/card_100_transparent.png,120,100,3,0,3,0,1,,,,,,,,,,,,,,,,,,,,,,,,,,,,,,,,,,,,,,,,,,,,
,,,,5b72db405f561b0001342eff,B,2024-06-21_17h43.53.025,Slot Machine Game,2023.1.3,Win32,59.52380952,,,,,,,,,,,,,,,,,,,249.8636,4,0.3722,,left,1,,stimuli/card_100_transparent.png,220,100,4,0,4,0,1,,,,,,,,,,,,,,,,,,,,,,,,,,,,,,,,,,,,,,,,,,,,
,,,,5b72db405f561b0001342eff,B,2024-06-21_17h43.53.025,Slot Machine Game,2023.1.3,Win32,59.52380952,,,,,,,,,,,,,,,,,,,252.0503,5,0.7206,,left,1,,stimuli/card_100_transparent.png,320,100,5,0,5,0,1,,,,,,,,,,,,,,,,,,,,,,,,,,,,,,,,,,,,,,,,,,,,
,,,,5b72db405f561b0001342eff,B,2024-06-21_17h43.53.025,Slot Machine Game,2023.1.3,Win32,59.52380952,,,,,,,,,,,,,,,,,,,254.5913,6,0.4042,,left,0.5,,stimuli/card_0_transparent.png,320,0,6,0,6,0,1,,,,,,,,,,,,,,,,,,,,,,,,,,,,,,,,,,,,,,,,,,,,
,,,,5b72db405f561b0001342eff,B,2024-06-21_17h43.53.025,Slot Machine Game,2023.1.3,Win32,59.52380952,,,,,,,,,,,,,,,,,,,256.3057,7,0.4281,,left,1,,stimuli/card_100_transparent.png,420,100,7,0,7,0,1,,,,,,,,,,,,,,,,,,,,,,,,,,,,,,,,,,,,,,,,,,,,
,,,,5b72db405f561b0001342eff,B,2024-06-21_17h43.53.025,Slot Machine Game,2023.1.3,Win32,59.52380952,,,,,,,,,,,,,,,,,,,258.5502,8,0.0585,,left,1.5,,stimuli/card_0_transparent.png,420,0,8,0,8,0,1,,,,,,,,,,,,,,,,,,,,,,,,,,,,,,,,,,,,,,,,,,,,
,,,,5b72db405f561b0001342eff,B,2024-06-21_17h43.53.025,Slot Machine Game,2023.1.3,Win32,59.52380952,,,,,,,,,,,,,,,,,,,260.9433,9,0.5648,,left,0.5,,stimuli/card_0_transparent.png,420,0,9,0,9,0,1,,,,,,,,,,,,,,,,,,,,,,,,,,,,,,,,,,,,,,,,,,,,
,,,,5b72db405f561b0001342eff,B,2024-06-21_17h43.53.025,Slot Machine Game,2023.1.3,Win32,59.52380952,,,,,,,,,,,,,,,,,,,262.8415,10,0.6364,,left,1.5,,stimuli/card_0_transparent.png,420,0,10,0,10,0,1,,,,,,,,,,,,,,,,,,,,,,,,,,,,,,,,,,,,,,,,,,,,
,,,,5b72db405f561b0001342eff,B,2024-06-21_17h43.53.025,Slot Machine Game,2023.1.3,Win32,59.52380952,,,,,,,,,,,,,,,,,,,265.8006,11,0.5176,,right,1,,stimuli/card_10_transparent.png,430,10,11,0,11,0,1,,,,,,,,,,,,,,,,,,,,,,,,,,,,,,,,,,,,,,,,,,,,
,,,,5b72db405f561b0001342eff,B,2024-06-21_17h43.53.025,Slot Machine Game,2023.1.3,Win32,59.52380952,,,,,,,,,,,,,,,,,,,268.1411,12,2.5747,,up,1.5,,stimuli/card_100_transparent.png,530,100,12,0,12,0,1,,,,,,,,,,,,,,,,,,,,,,,,,,,,,,,,,,,,,,,,,,,,
,,,,5b72db405f561b0001342eff,B,2024-06-21_17h43.53.025,Slot Machine Game,2023.1.3,Win32,59.52380952,,,,,,,,,,,,,,,,,,,273.0312,13,0.4693,,up,0.5,,stimuli/card_100_transparent.png,630,100,13,0,13,0,1,,,,,,,,,,,,,,,,,,,,,,,,,,,,,,,,,,,,,,,,,,,,
,,,,5b72db405f561b0001342eff,B,2024-06-21_17h43.53.025,Slot Machine Game,2023.1.3,Win32,59.52380952,,,,,,,,,,,,,,,,,,,274.8173,14,0.3049,,up,1.5,,stimuli/card_100_transparent.png,730,100,14,0,14,0,1,,,,,,,,,,,,,,,,,,,,,,,,,,,,,,,,,,,,,,,,,,,,
,,,,5b72db405f561b0001342eff,B,2024-06-21_17h43.53.025,Slot Machine Game,2023.1.3,Win32,59.52380952,,,,,,,,,,,,,,,,,,,,,,,,,,,,,,,,,,,277.4478,,,282.4545,space,2.7306,,,,,,,,,,,,,,,,,,,,,,,,,,,,,,,,,,,,,
,,,,5b72db405f561b0001342eff,B,2024-06-21_17h43.53.025,Slot Machine Game,2023.1.3,Win32,59.52380952,,,,,,,,,,,,,,,,,,,,,,,,,,,,,,,,,,,,,,,,,,285.2276,2,"[2,4,8,0,1,3,9,6,8,5]",space,2.7582,,,,,,,,,,,,,,,,,,,,,,,,,,,,,,,
,,,,5b72db405f561b0001342eff,B,2024-06-21_17h43.53.025,Slot Machine Game,2023.1.3,Win32,59.52380952,,,,,,,,,,,,,,,,,,,,,,,,,,,100,,,,,,,,,,,,,,,,,,,,,1,3,"[15,15]","[[3,1,2],[3,1,2]]",288.058,0,up,0.3181,,1,0.3,"[3,1,2]",0.20212659,stimuli/card_100_transparent.png,100,0,0,0,0,1,,,,,,,,,,
,,,,5b72db405f561b0001342eff,B,2024-06-21_17h43.53.025,Slot Machine Game,2023.1.3,Win32,59.52380952,,,,,,,,,,,,,,,,,,,,,,,,,,,200,,,,,,,,,,,,,,,,,,,,,1,3,,,290.2116,1,up,0.6204,,0.5,0.3,"[3,1,2]",0.4010029,stimuli/card_100_transparent.png,100,1,0,1,0,1,,,,,,,,,,
,,,,5b72db405f561b0001342eff,B,2024-06-21_17h43.53.025,Slot Machine Game,2023.1.3,Win32,59.52380952,,,,,,,,,,,,,,,,,,,,,,,,,,,300,,,,,,,,,,,,,,,,,,,,,1,3,,,292.1499,2,up,0.403,,1.5,0.3,"[3,1,2]",0.641682864,stimuli/card_100_transparent.png,100,2,0,2,0,1,,,,,,,,,,
,,,,5b72db405f561b0001342eff,B,2024-06-21_17h43.53.025,Slot Machine Game,2023.1.3,Win32,59.52380952,,,,,,,,,,,,,,,,,,,,,,,,,,,400,,,,,,,,,,,,,,,,,,,,,1,3,,,294.8897,3,up,0.1536,,1.5,0.3,"[3,1,2]",0.585464224,stimuli/card_100_transparent.png,100,3,0,3,0,1,,,,,,,,,,
,,,,5b72db405f561b0001342eff,B,2024-06-21_17h43.53.025,Slot Machine Game,2023.1.3,Win32,59.52380952,,,,,,,,,,,,,,,,,,,,,,,,,,,500,,,,,,,,,,,,,,,,,,,,,1,3,,,297.3645,4,up,0.2899,,0.5,0.3,"[3,1,2]",0.823487923,stimuli/card_100_transparent.png,100,4,0,4,0,1,,,,,,,,,,
,,,,5b72db405f561b0001342eff,B,2024-06-21_17h43.53.025,Slot Machine Game,2023.1.3,Win32,59.52380952,,,,,,,,,,,,,,,,,,,,,,,,,,,600,,,,,,,,,,,,,,,,,,,,,1,3,,,298.9689,5,up,0.2047,,1.5,0.3,"[3,1,2]",0.506239482,stimuli/card_100_transparent.png,100,5,0,5,0,1,,,,,,,,,,
,,,,5b72db405f561b0001342eff,B,2024-06-21_17h43.53.025,Slot Machine Game,2023.1.3,Win32,59.52380952,,,,,,,,,,,,,,,,,,,,,,,,,,,700,,,,,,,,,,,,,,,,,,,,,1,3,,,301.4938,6,up,0.0848,,1.5,0.3,"[3,1,2]",0.483404065,stimuli/card_100_transparent.png,100,6,0,6,0,1,,,,,,,,,,
,,,,5b72db405f561b0001342eff,B,2024-06-21_17h43.53.025,Slot Machine Game,2023.1.3,Win32,59.52380952,,,,,,,,,,,,,,,,,,,,,,,,,,,800,,,,,,,,,,,,,,,,,,,,,1,3,,,303.9011,7,up,0.0174,,0.5,0.3,"[3,1,2]",0.561858394,stimuli/card_100_transparent.png,100,7,0,7,0,1,,,,,,,,,,
,,,,5b72db405f561b0001342eff,B,2024-06-21_17h43.53.025,Slot Machine Game,2023.1.3,Win32,59.52380952,,,,,,,,,,,,,,,,,,,,,,,,,,,900,,,,,,,,,,,,,,,,,,,,,1,3,,,305.2305,8,up,0.1522,,1.5,0.3,"[3,1,2]",0.889927585,stimuli/card_100_transparent.png,100,8,0,8,0,1,,,,,,,,,,
,,,,5b72db405f561b0001342eff,B,2024-06-21_17h43.53.025,Slot Machine Game,2023.1.3,Win32,59.52380952,,,,,,,,,,,,,,,,,,,,,,,,,,,900,,,,,,,,,,,,,,,,,,,,,1,3,,,307.6864,9,up,0.0019,,1.5,0.3,"[3,1,2]",0.004596483,stimuli/card_0_transparent.png,0,9,0,9,0,1,,,,,,,,,,
,,,,5b72db405f561b0001342eff,B,2024-06-21_17h43.53.025,Slot Machine Game,2023.1.3,Win32,59.52380952,,,,,,,,,,,,,,,,,,,,,,,,,,,1000,,,,,,,,,,,,,,,,,,,,,1,3,,,310.0073,10,up,0.7057,,1,0.3,"[3,1,2]",0.914633206,stimuli/card_100_transparent.png,100,10,0,10,0,1,,,,,,,,,,
,,,,5b72db405f561b0001342eff,B,2024-06-21_17h43.53.025,Slot Machine Game,2023.1.3,Win32,59.52380952,,,,,,,,,,,,,,,,,,,,,,,,,,,1100,,,,,,,,,,,,,,,,,,,,,1,3,,,312.5526,11,up,0.2812,,0.5,0.3,"[3,1,2]",0.780595229,stimuli/card_100_transparent.png,100,11,0,11,0,1,,,,,,,,,,
,,,,5b72db405f561b0001342eff,B,2024-06-21_17h43.53.025,Slot Machine Game,2023.1.3,Win32,59.52380952,,,,,,,,,,,,,,,,,,,,,,,,,,,1200,,,,,,,,,,,,,,,,,,,,,1,3,,,314.1705,12,up,0.146,,1,0.3,"[3,1,2]",0.622817412,stimuli/card_100_transparent.png,100,12,0,12,0,1,,,,,,,,,,
,,,,5b72db405f561b0001342eff,B,2024-06-21_17h43.53.025,Slot Machine Game,2023.1.3,Win32,59.52380952,,,,,,,,,,,,,,,,,,,,,,,,,,,1300,,,,,,,,,,,,,,,,,,,,,1,3,,,316.1379,13,up,0.18,,1,0.3,"[3,1,2]",0.876590134,stimuli/card_100_transparent.png,100,13,0,13,0,1,,,,,,,,,,
,,,,5b72db405f561b0001342eff,B,2024-06-21_17h43.53.025,Slot Machine Game,2023.1.3,Win32,59.52380952,,,,,,,,,,,,,,,,,,,,,,,,,,,1400,,,,,,,,,,,,,,,,,,,,,1,3,,,318.1305,14,up,0.3238,,1,0.3,"[3,1,2]",0.796958027,stimuli/card_100_transparent.png,100,14,0,14,0,1,,,,,,,,,,
,,,,5b72db405f561b0001342eff,B,2024-06-21_17h43.53.025,Slot Machine Game,2023.1.3,Win32,59.52380952,,,,,,,,,,,,,,,,,,,,,,,,,,,,,,,,,,,320.2766,,,,,,,,,,,,,,,,,,,,,,,,,,,,,,,,,[1400],0,0,0,0,1,,,,
,,,,5b72db405f561b0001342eff,B,2024-06-21_17h43.53.025,Slot Machine Game,2023.1.3,Win32,59.52380952,,,,,,,,,,,,,,,,,,,,,,,,,,,100,,,,,,,,,,,,,,,,,,,,,2,5,"[5,15]","[[1,2,3],[3,1,2]]",325.282,0,left,0.4018,,1,0.3,"[1,2,3]",0.888084467,stimuli/card_100_transparent.png,100,0,0,0,0,1,,,,,,,,,,
,,,,5b72db405f561b0001342eff,B,2024-06-21_17h43.53.025,Slot Machine Game,2023.1.3,Win32,59.52380952,,,,,,,,,,,,,,,,,,,,,,,,,,,200,,,,,,,,,,,,,,,,,,,,,2,5,,,327.5171,1,left,0.252,,0.5,0.3,"[1,2,3]",0.462096285,stimuli/card_100_transparent.png,100,1,0,1,0,1,,,,,,,,,,
,,,,5b72db405f561b0001342eff,B,2024-06-21_17h43.53.025,Slot Machine Game,2023.1.3,Win32,59.52380952,,,,,,,,,,,,,,,,,,,,,,,,,,,300,,,,,,,,,,,,,,,,,,,,,2,5,,,329.1007,2,left,0.31,,1.5,0.3,"[1,2,3]",0.586644064,stimuli/card_100_transparent.png,100,2,0,2,0,1,,,,,,,,,,
,,,,5b72db405f561b0001342eff,B,2024-06-21_17h43.53.025,Slot Machine Game,2023.1.3,Win32,59.52380952,,,,,,,,,,,,,,,,,,,,,,,,,,,400,,,,,,,,,,,,,,,,,,,,,2,5,,,331.7186,3,left,0.0987,,0.5,0.3,"[1,2,3]",0.437763294,stimuli/card_100_transparent.png,100,3,0,3,0,1,,,,,,,,,,
,,,,5b72db405f561b0001342eff,B,2024-06-21_17h43.53.025,Slot Machine Game,2023.1.3,Win32,59.52380952,,,,,,,,,,,,,,,,,,,,,,,,,,,500,,,,,,,,,,,,,,,,,,,,,2,5,,,333.1448,4,left,0.2332,,1.5,0.3,"[1,2,3]",0.278629165,stimuli/card_100_transparent.png,100,4,0,4,0,1,,,,,,,,,,
,,,,5b72db405f561b0001342eff,B,2024-06-21_17h43.53.025,Slot Machine Game,2023.1.3,Win32,59.52380952,,,,,,,,,,,,,,,,,,,,,,,,,,,500,,,,,,,,,,,,,,,,,,,,,2,5,,,335.7078,5,left,0.2177,,0.5,0.3,"[3,1,2]",0.9876238,stimuli/card_0_transparent.png,0,5,0,5,0,1,,,,,,,,,,
,,,,5b72db405f561b0001342eff,B,2024-06-21_17h43.53.025,Slot Machine Game,2023.1.3,Win32,59.52380952,,,,,,,,,,,,,,,,,,,,,,,,,,,500,,,,,,,,,,,,,,,,,,,,,2,5,,,337.2536,6,left,0.8674,,1,0.3,"[3,1,2]",0.272849901,stimuli/card_0_transparent.png,0,6,0,6,0,1,,,,,,,,,,
,,,,5b72db405f561b0001342eff,B,2024-06-21_17h43.53.025,Slot Machine Game,2023.1.3,Win32,59.52380952,,,,,,,,,,,,,,,,,,,,,,,,,,,500,,,,,,,,,,,,,,,,,,,,,2,5,,,339.9319,7,left,1.2899,,0.5,0.3,"[3,1,2]",0.802769874,stimuli/card_0_transparent.png,0,7,0,7,0,1,,,,,,,,,,
,,,,5b72db405f561b0001342eff,B,2024-06-21_17h43.53.025,Slot Machine Game,2023.1.3,Win32,59.52380952,,,,,,,,,,,,,,,,,,,,,,,,,,,500,,,,,,,,,,,,,,,,,,,,,2,5,,,342.5434,8,left,0.666,,1.5,0.3,"[3,1,2]",0.394374849,stimuli/card_0_transparent.png,0,8,0,8,0,1,,,,,,,,,,
,,,,5b72db405f561b0001342eff,B,2024-06-21_17h43.53.025,Slot Machine Game,2023.1.3,Win32,59.52380952,,,,,,,,,,,,,,,,,,,,,,,,,,,600,,,,,,,,,,,,,,,,,,,,,2,5,,,345.539,9,up,0.769,,1,0.3,"[3,1,2]",0.486916967,stimuli/card_100_transparent.png,100,9,0,9,0,1,,,,,,,,,,
,,,,5b72db405f561b0001342eff,B,2024-06-21_17h43.53.025,Slot Machine Game,2023.1.3,Win32,59.52380952,,,,,,,,,,,,,,,,,,,,,,,,,,,700,,,,,,,,,,,,,,,,,,,,,2,5,,,348.1402,10,up,0.7308,,1,0.3,"[3,1,2]",0.832741136,stimuli/card_100_transparent.png,100,10,0,10,0,1,,,,,,,,,,
,,,,5b72db405f561b0001342eff,B,2024-06-21_17h43.53.025,Slot Machine Game,2023.1.3,Win32,59.52380952,,,,,,,,,,,,,,,,,,,,,,,,,,,710,,,,,,,,,,,,,,,,,,,,,2,5,,,350.6931,11,up,0.2334,,1,0.3,"[3,1,2]",0.100531969,stimuli/card_10_transparent.png,10,11,0,11,0,1,,,,,,,,,,
,,,,5b72db405f561b0001342eff,B,2024-06-21_17h43.53.025,Slot Machine Game,2023.1.3,Win32,59.52380952,,,,,,,,,,,,,,,,,,,,,,,,,,,810,,,,,,,,,,,,,,,,,,,,,2,5,,,352.7432,12,up,0.9713,,1.5,0.3,"[3,1,2]",0.451348983,stimuli/card_100_transparent.png,100,12,0,12,0,1,,,,,,,,,,
,,,,5b72db405f561b0001342eff,B,2024-06-21_17h43.53.025,Slot Machine Game,2023.1.3,Win32,59.52380952,,,,,,,,,,,,,,,,,,,,,,,,,,,910,,,,,,,,,,,,,,,,,,,,,2,5,,,356.0345,13,up,0.4692,,1.5,0.3,"[3,1,2]",0.452115769,stimuli/card_100_transparent.png,100,13,0,13,0,1,,,,,,,,,,
,,,,5b72db405f561b0001342eff,B,2024-06-21_17h43.53.025,Slot Machine Game,2023.1.3,Win32,59.52380952,,,,,,,,,,,,,,,,,,,,,,,,,,,920,,,,,,,,,,,,,,,,,,,,,2,5,,,358.8134,14,up,0.3025,,0.5,0.3,"[3,1,2]",0.123489992,stimuli/card_10_transparent.png,10,14,0,14,0,1,,,,,,,,,,
,,,,5b72db405f561b0001342eff,B,2024-06-21_17h43.53.025,Slot Machine Game,2023.1.3,Win32,59.52380952,,,,,,,,,,,,,,,,,,,,,,,,,,,,,,,,,,,360.4308,,,,,,,,,,,,,,,,,,,,,,,,,,,,,,,,,"[1400,920]",1,0,1,0,1,,,,
,,,,5b72db405f561b0001342eff,B,2024-06-21_17h43.53.025,Slot Machine Game,2023.1.3,Win32,59.52380952,,,,,,,,,,,,,,,,,,,,,,,,,,,100,,,,,,,,,,,,,,,,,,,,,3,9,"[8,15]","[[3,2,1],[3,1,2]]",365.4459,0,right,0.0687,,1.5,0.3,"[3,2,1]",0.536091129,stimuli/card_100_transparent.png,100,0,0,0,0,1,,,,,,,,,,
,,,,5b72db405f561b0001342eff,B,2024-06-21_17h43.53.025,Slot Machine Game,2023.1.3,Win32,59.52380952,,,,,,,,,,,,,,,,,,,,,,,,,,,200,,,,,,,,,,,,,,,,,,,,,3,9,,,367.8386,1,right,0.0709,,1,0.3,"[3,2,1]",0.80569467,stimuli/card_100_transparent.png,100,1,0,1,0,1,,,,,,,,,,
,,,,5b72db405f561b0001342eff,B,2024-06-21_17h43.53.025,Slot Machine Game,2023.1.3,Win32,59.52380952,,,,,,,,,,,,,,,,,,,,,,,,,,,300,,,,,,,,,,,,,,,,,,,,,3,9,,,369.7516,2,right,0.6064,,1,0.3,"[3,2,1]",0.819851329,stimuli/card_100_transparent.png,100,2,0,2,0,1,,,,,,,,,,
,,,,5b72db405f561b0001342eff,B,2024-06-21_17h43.53.025,Slot Machine Game,2023.1.3,Win32,59.52380952,,,,,,,,,,,,,,,,,,,,,,,,,,,400,,,,,,,,,,,,,,,,,,,,,3,9,,,372.1847,3,right,0.4434,,0.5,0.3,"[3,2,1]",0.273557716,stimuli/card_100_transparent.png,100,3,0,3,0,1,,,,,,,,,,
,,,,5b72db405f561b0001342eff,B,2024-06-21_17h43.53.025,Slot Machine Game,2023.1.3,Win32,59.52380952,,,,,,,,,,,,,,,,,,,,,,,,,,,500,,,,,,,,,,,,,,,,,,,,,3,9,,,373.9565,4,right,0.2693,,0.5,0.3,"[3,2,1]",0.290984773,stimuli/card_100_transparent.png,100,4,0,4,0,1,,,,,,,,,,
,,,,5b72db405f561b0001342eff,B,2024-06-21_17h43.53.025,Slot Machine Game,2023.1.3,Win32,59.52380952,,,,,,,,,,,,,,,,,,,,,,,,,,,600,,,,,,,,,,,,,,,,,,,,,3,9,,,375.5777,5,right,0.4636,,0.5,0.3,"[3,2,1]",0.875433052,stimuli/card_100_transparent.png,100,5,0,5,0,1,,,,,,,,,,
,,,,5b72db405f561b0001342eff,B,2024-06-21_17h43.53.025,Slot Machine Game,2023.1.3,Win32,59.52380952,,,,,,,,,,,,,,,,,,,,,,,,,,,610,,,,,,,,,,,,,,,,,,,,,3,9,,,377.3869,6,right,0.3857,,1,0.3,"[3,2,1]",0.181197454,stimuli/card_10_transparent.png,10,6,0,6,0,1,,,,,,,,,,
,,,,5b72db405f561b0001342eff,B,2024-06-21_17h43.53.025,Slot Machine Game,2023.1.3,Win32,59.52380952,,,,,,,,,,,,,,,,,,,,,,,,,,,710,,,,,,,,,,,,,,,,,,,,,3,9,,,379.5869,7,right,0.1925,,1,0.3,"[3,2,1]",0.447291465,stimuli/card_100_transparent.png,100,7,0,7,0,1,,,,,,,,,,
,,,,5b72db405f561b0001342eff,B,2024-06-21_17h43.53.025,Slot Machine Game,2023.1.3,Win32,59.52380952,,,,,,,,,,,,,,,,,,,,,,,,,,,810,,,,,,,,,,,,,,,,,,,,,3,9,,,381.6211,8,right,0.2362,,0.5,0.3,"[3,1,2]",0.163354676,stimuli/card_100_transparent.png,100,8,0,8,0,1,,,,,,,,,,
,,,,5b72db405f561b0001342eff,B,2024-06-21_17h43.53.025,Slot Machine Game,2023.1.3,Win32,59.52380952,,,,,,,,,,,,,,,,,,,,,,,,,,,820,,,,,,,,,,,,,,,,,,,,,3,9,,,383.1841,9,right,0.0843,,0.5,0.3,"[3,1,2]",0.950829095,stimuli/card_10_transparent.png,10,9,0,9,0,1,,,,,,,,,,
,,,,5b72db405f561b0001342eff,B,2024-06-21_17h43.53.025,Slot Machine Game,2023.1.3,Win32,59.52380952,,,,,,,,,,,,,,,,,,,,,,,,,,,830,,,,,,,,,,,,,,,,,,,,,3,9,,,384.6013,10,right,0.2273,,0.5,0.3,"[3,1,2]",0.692433282,stimuli/card_10_transparent.png,10,10,0,10,0,1,,,,,,,,,,
,,,,5b72db405f561b0001342eff,B,2024-06-21_17h43.53.025,Slot Machine Game,2023.1.3,Win32,59.52380952,,,,,,,,,,,,,,,,,,,,,,,,,,,840,,,,,,,,,,,,,,,,,,,,,3,9,,,386.1423,11,right,0.9035,,1,0.3,"[3,1,2]",0.825229421,stimuli/card_10_transparent.png,10,11,0,11,0,1,,,,,,,,,,
,,,,5b72db405f561b0001342eff,B,2024-06-21_17h43.53.025,Slot Machine Game,2023.1.3,Win32,59.52380952,,,,,,,,,,,,,,,,,,,,,,,,,,,940,,,,,,,,,,,,,,,,,,,,,3,9,,,388.8594,12,up,0.5001,,0.5,0.3,"[3,1,2]",0.406599723,stimuli/card_100_transparent.png,100,12,0,12,0,1,,,,,,,,,,
,,,,5b72db405f561b0001342eff,B,2024-06-21_17h43.53.025,Slot Machine Game,2023.1.3,Win32,59.52380952,,,,,,,,,,,,,,,,,,,,,,,,,,,1040,,,,,,,,,,,,,,,,,,,,,3,9,,,390.6758,13,up,0.502,,0.5,0.3,"[3,1,2]",0.519651156,stimuli/card_100_transparent.png,100,13,0,13,0,1,,,,,,,,,,
,,,,5b72db405f561b0001342eff,B,2024-06-21_17h43.53.025,Slot Machine Game,2023.1.3,Win32,59.52380952,,,,,,,,,,,,,,,,,,,,,,,,,,,1140,,,,,,,,,,,,,,,,,,,,,3,9,,,392.4927,14,up,0.419,,1,0.3,"[3,1,2]",0.296702555,stimuli/card_100_transparent.png,100,14,0,14,0,1,,,,,,,,,,
,,,,5b72db405f561b0001342eff,B,2024-06-21_17h43.53.025,Slot Machine Game,2023.1.3,Win32,59.52380952,,,,,,,,,,,,,,,,,,,,,,,,,,,,,,,,,,,394.7276,,,,,,,,,,,,,,,,,,,,,,,,,,,,,,,,,"[1400,920,1140]",2,0,2,0,1,,,,
,,,,5b72db405f561b0001342eff,B,2024-06-21_17h43.53.025,Slot Machine Game,2023.1.3,Win32,59.52380952,,,,,,,,,,,,,,,,,,,,,,,,,,,100,,,,,,,,,,,,,,,,,,,,,4,1,"[12,15]","[[2,1,3],[2,3,1]]",399.757,0,up,0.5707,,1,0.3,"[2,1,3]",0.832811953,stimuli/card_100_transparent.png,100,0,0,0,0,1,,,,,,,,,,
,,,,5b72db405f561b0001342eff,B,2024-06-21_17h43.53.025,Slot Machine Game,2023.1.3,Win32,59.52380952,,,,,,,,,,,,,,,,,,,,,,,,,,,200,,,,,,,,,,,,,,,,,,,,,4,1,,,402.1512,1,up,0.6066,,1.5,0.3,"[2,1,3]",0.226146237,stimuli/card_100_transparent.png,100,1,0,1,0,1,,,,,,,,,,
,,,,5b72db405f561b0001342eff,B,2024-06-21_17h43.53.025,Slot Machine Game,2023.1.3,Win32,59.52380952,,,,,,,,,,,,,,,,,,,,,,,,,,,200,,,,,,,,,,,,,,,,,,,,,4,1,,,405.0758,2,up,0.5042,,0.5,0.3,"[2,1,3]",0.012958457,stimuli/card_0_transparent.png,0,2,0,2,0,1,,,,,,,,,,
,,,,5b72db405f561b0001342eff,B,2024-06-21_17h43.53.025,Slot Machine Game,2023.1.3,Win32,59.52380952,,,,,,,,,,,,,,,,,,,,,,,,,,,210,,,,,,,,,,,,,,,,,,,,,4,1,,,406.8983,3,left,0.1665,,0.5,0.3,"[2,1,3]",0.944058754,stimuli/card_10_transparent.png,10,3,0,3,0,1,,,,,,,,,,
,,,,5b72db405f561b0001342eff,B,2024-06-21_17h43.53.025,Slot Machine Game,2023.1.3,Win32,59.52380952,,,,,,,,,,,,,,,,,,,,,,,,,,,310,,,,,,,,,,,,,,,,,,,,,4,1,,,408.3811,4,up,0.7029,,0.5,0.3,"[2,1,3]",0.756155621,stimuli/card_100_transparent.png,100,4,0,4,0,1,,,,,,,,,,
,,,,5b72db405f561b0001342eff,B,2024-06-21_17h43.53.025,Slot Machine Game,2023.1.3,Win32,59.52380952,,,,,,,,,,,,,,,,,,,,,,,,,,,410,,,,,,,,,,,,,,,,,,,,,4,1,,,410.4096,5,up,0.6277,,1.5,0.3,"[2,1,3]",0.452072302,stimuli/card_100_transparent.png,100,5,0,5,0,1,,,,,,,,,,
,,,,5b72db405f561b0001342eff,B,2024-06-21_17h43.53.025,Slot Machine Game,2023.1.3,Win32,59.52380952,,,,,,,,,,,,,,,,,,,,,,,,,,,510,,,,,,,,,,,,,,,,,,,,,4,1,,,413.3581,6,up,0.0509,,1,0.3,"[2,1,3]",0.81147382,stimuli/card_100_transparent.png,100,6,0,6,0,1,,,,,,,,,,
,,,,5b72db405f561b0001342eff,B,2024-06-21_17h43.53.025,Slot Machine Game,2023.1.3,Win32,59.52380952,,,,,,,,,,,,,,,,,,,,,,,,,,,610,,,,,,,,,,,,,,,,,,,,,4,1,,,415.2359,7,up,0.1155,,0.5,0.3,"[2,1,3]",0.390147511,stimuli/card_100_transparent.png,100,7,0,7,0,1,,,,,,,,,,
,,,,5b72db405f561b0001342eff,B,2024-06-21_17h43.53.025,Slot Machine Game,2023.1.3,Win32,59.52380952,,,,,,,,,,,,,,,,,,,,,,,,,,,710,,,,,,,,,,,,,,,,,,,,,4,1,,,416.6858,8,up,0.5534,,0.5,0.3,"[2,1,3]",0.7134627,stimuli/card_100_transparent.png,100,8,0,8,0,1,,,,,,,,,,
,,,,5b72db405f561b0001342eff,B,2024-06-21_17h43.53.025,Slot Machine Game,2023.1.3,Win32,59.52380952,,,,,,,,,,,,,,,,,,,,,,,,,,,810,,,,,,,,,,,,,,,,,,,,,4,1,,,418.5608,9,up,0.2359,,0.5,0.3,"[2,1,3]",0.434360092,stimuli/card_100_transparent.png,100,9,0,9,0,1,,,,,,,,,,
,,,,5b72db405f561b0001342eff,B,2024-06-21_17h43.53.025,Slot Machine Game,2023.1.3,Win32,59.52380952,,,,,,,,,,,,,,,,,,,,,,,,,,,910,,,,,,,,,,,,,,,,,,,,,4,1,,,420.0915,10,up,0.4219,,1,0.3,"[2,1,3]",0.666187793,stimuli/card_100_transparent.png,100,10,0,10,0,1,,,,,,,,,,
,,,,5b72db405f561b0001342eff,B,2024-06-21_17h43.53.025,Slot Machine Game,2023.1.3,Win32,59.52380952,,,,,,,,,,,,,,,,,,,,,,,,,,,1010,,,,,,,,,,,,,,,,,,,,,4,1,,,422.3411,11,up,0.4373,,1.5,0.3,"[2,1,3]",0.381480224,stimuli/card_100_transparent.png,100,11,0,11,0,1,,,,,,,,,,
,,,,5b72db405f561b0001342eff,B,2024-06-21_17h43.53.025,Slot Machine Game,2023.1.3,Win32,59.52380952,,,,,,,,,,,,,,,,,,,,,,,,,,,1010,,,,,,,,,,,,,,,,,,,,,4,1,,,425.1043,12,up,0.0997,,0.5,0.3,"[2,3,1]",0.832828489,stimuli/card_0_transparent.png,0,12,0,12,0,1,,,,,,,,,,
,,,,5b72db405f561b0001342eff,B,2024-06-21_17h43.53.025,Slot Machine Game,2023.1.3,Win32,59.52380952,,,,,,,,,,,,,,,,,,,,,,,,,,,1020,,,,,,,,,,,,,,,,,,,,,4,1,,,426.5248,13,up,0.805,,1.5,0.3,"[2,3,1]",0.184245356,stimuli/card_10_transparent.png,10,13,0,13,0,1,,,,,,,,,,
,,,,5b72db405f561b0001342eff,B,2024-06-21_17h43.53.025,Slot Machine Game,2023.1.3,Win32,59.52380952,,,,,,,,,,,,,,,,,,,,,,,,,,,1120,,,,,,,,,,,,,,,,,,,,,4,1,,,429.6512,14,right,1.2214,,0.5,0.3,"[2,3,1]",0.842413386,stimuli/card_100_transparent.png,100,14,0,14,0,1,,,,,,,,,,
,,,,5b72db405f561b0001342eff,B,2024-06-21_17h43.53.025,Slot Machine Game,2023.1.3,Win32,59.52380952,,,,,,,,,,,,,,,,,,,,,,,,,,,,,,,,,,,432.1974,,,,,,,,,,,,,,,,,,,,,,,,,,,,,,,,,"[1400,920,1140,1120]",3,0,3,0,1,,,,
,,,,5b72db405f561b0001342eff,B,2024-06-21_17h43.53.025,Slot Machine Game,2023.1.3,Win32,59.52380952,,,,,,,,,,,,,,,,,,,,,,,,,,,100,,,,,,,,,,,,,,,,,,,,,5,2,"[6,15]","[[1,3,2],[3,2,1]]",437.244,0,right,0.5881,,1.5,0.3,"[1,3,2]",0.146910209,stimuli/card_100_transparent.png,100,0,0,0,0,1,,,,,,,,,,
,,,,5b72db405f561b0001342eff,B,2024-06-21_17h43.53.025,Slot Machine Game,2023.1.3,Win32,59.52380952,,,,,,,,,,,,,,,,,,,,,,,,,,,100,,,,,,,,,,,,,,,,,,,,,5,2,,,440.1832,1,right,0.397,,1.5,0.3,"[1,3,2]",0.042079432,stimuli/card_0_transparent.png,0,1,0,1,0,1,,,,,,,,,,
,,,,5b72db405f561b0001342eff,B,2024-06-21_17h43.53.025,Slot Machine Game,2023.1.3,Win32,59.52380952,,,,,,,,,,,,,,,,,,,,,,,,,,,100,,,,,,,,,,,,,,,,,,,,,5,2,,,442.9135,2,up,0.0023,,0.5,0.3,"[1,3,2]",0.215845878,stimuli/card_0_transparent.png,0,2,0,2,0,1,,,,,,,,,,
,,,,5b72db405f561b0001342eff,B,2024-06-21_17h43.53.025,Slot Machine Game,2023.1.3,Win32,59.52380952,,,,,,,,,,,,,,,,,,,,,,,,,,,200,,,,,,,,,,,,,,,,,,,,,5,2,,,444.2472,3,left,0.0866,,1.5,0.3,"[1,3,2]",0.862494241,stimuli/card_100_transparent.png,100,3,0,3,0,1,,,,,,,,,,
,,,,5b72db405f561b0001342eff,B,2024-06-21_17h43.53.025,Slot Machine Game,2023.1.3,Win32,59.52380952,,,,,,,,,,,,,,,,,,,,,,,,,,,300,,,,,,,,,,,,,,,,,,,,,5,2,,,446.653,4,left,0.5284,,1.5,0.3,"[1,3,2]",0.29838078,stimuli/card_100_transparent.png,100,4,0,4,0,1,,,,,,,,,,
,,,,5b72db405f561b0001342eff,B,2024-06-21_17h43.53.025,Slot Machine Game,2023.1.3,Win32,59.52380952,,,,,,,,,,,,,,,,,,,,,,,,,,,300,,,,,,,,,,,,,,,,,,,,,5,2,,,449.5019,5,left,0.5762,,1.5,0.3,"[1,3,2]",0.05916583,stimuli/card_0_transparent.png,0,5,0,5,0,1,,,,,,,,,,
,,,,5b72db405f561b0001342eff,B,2024-06-21_17h43.53.025,Slot Machine Game,2023.1.3,Win32,59.52380952,,,,,,,,,,,,,,,,,,,,,,,,,,,300,,,,,,,,,,,,,,,,,,,,,5,2,,,452.3887,6,left,0.1042,,1,0.3,"[3,2,1]",0.266286869,stimuli/card_0_transparent.png,0,6,0,6,0,1,,,,,,,,,,
,,,,5b72db405f561b0001342eff,B,2024-06-21_17h43.53.025,Slot Machine Game,2023.1.3,Win32,59.52380952,,,,,,,,,,,,,,,,,,,,,,,,,,,400,,,,,,,,,,,,,,,,,,,,,5,2,,,454.3212,7,right,0.2848,,1,0.3,"[3,2,1]",0.222238898,stimuli/card_100_transparent.png,100,7,0,7,0,1,,,,,,,,,,
,,,,5b72db405f561b0001342eff,B,2024-06-21_17h43.53.025,Slot Machine Game,2023.1.3,Win32,59.52380952,,,,,,,,,,,,,,,,,,,,,,,,,,,500,,,,,,,,,,,,,,,,,,,,,5,2,,,456.4344,8,right,0.4023,,0.5,0.3,"[3,2,1]",0.913887323,stimuli/card_100_transparent.png,100,8,0,8,0,1,,,,,,,,,,
,,,,5b72db405f561b0001342eff,B,2024-06-21_17h43.53.025,Slot Machine Game,2023.1.3,Win32,59.52380952,,,,,,,,,,,,,,,,,,,,,,,,,,,600,,,,,,,,,,,,,,,,,,,,,5,2,,,458.1614,9,right,0.1902,,1,0.3,"[3,2,1]",0.99434752,stimuli/card_100_transparent.png,100,9,0,9,0,1,,,,,,,,,,
,,,,5b72db405f561b0001342eff,B,2024-06-21_17h43.53.025,Slot Machine Game,2023.1.3,Win32,59.52380952,,,,,,,,,,,,,,,,,,,,,,,,,,,700,,,,,,,,,,,,,,,,,,,,,5,2,,,460.1718,10,right,0.2009,,0.5,0.3,"[3,2,1]",0.991699109,stimuli/card_100_transparent.png,100,10,0,10,0,1,,,,,,,,,,
,,,,5b72db405f561b0001342eff,B,2024-06-21_17h43.53.025,Slot Machine Game,2023.1.3,Win32,59.52380952,,,,,,,,,,,,,,,,,,,,,,,,,,,800,,,,,,,,,,,,,,,,,,,,,5,2,,,461.7077,11,right,0.0684,,1,0.3,"[3,2,1]",0.3278408,stimuli/card_100_transparent.png,100,11,0,11,0,1,,,,,,,,,,
,,,,5b72db405f561b0001342eff,B,2024-06-21_17h43.53.025,Slot Machine Game,2023.1.3,Win32,59.52380952,,,,,,,,,,,,,,,,,,,,,,,,,,,810,,,,,,,,,,,,,,,,,,,,,5,2,,,463.5887,12,right,0.0855,,0.5,0.3,"[3,2,1]",0.173991724,stimuli/card_10_transparent.png,10,12,0,12,0,1,,,,,,,,,,
,,,,5b72db405f561b0001342eff,B,2024-06-21_17h43.53.025,Slot Machine Game,2023.1.3,Win32,59.52380952,,,,,,,,,,,,,,,,,,,,,,,,,,,910,,,,,,,,,,,,,,,,,,,,,5,2,,,464.9915,13,right,0.1174,,1.5,0.3,"[3,2,1]",0.242233018,stimuli/card_100_transparent.png,100,13,0,13,0,1,,,,,,,,,,
,,,,5b72db405f561b0001342eff,B,2024-06-21_17h43.53.025,Slot Machine Game,2023.1.3,Win32,59.52380952,,,,,,,,,,,,,,,,,,,,,,,,,,,920,,,,,,,,,,,,,,,,,,,,,5,2,,,467.4221,14,right,1.4367,,1,0.3,"[3,2,1]",0.181945854,stimuli/card_10_transparent.png,10,14,0,14,0,1,,,,,,,,,,
,,,,5b72db405f561b0001342eff,B,2024-06-21_17h43.53.025,Slot Machine Game,2023.1.3,Win32,59.52380952,,,,,,,,,,,,,,,,,,,,,,,,,,,,,,,,,,,470.7051,,,,,,,,,,,,,,,,,,,,,,,,,,,,,,,,,"[1400,920,1140,1120,920]",4,0,4,0,1,,,,
,,,,5b72db405f561b0001342eff,B,2024-06-21_17h43.53.025,Slot Machine Game,2023.1.3,Win32,59.52380952,,,,,,,,,,,,,,,,,,,,,,,,,,,0,,,,,,,,,,,,,,,,,,,,,6,4,"[7,15]","[[2,3,1],[1,2,3]]",475.7433,0,up,0.2542,,1,0.3,"[2,3,1]",0.639222741,stimuli/card_0_transparent.png,0,0,0,0,0,1,,,,,,,,,,
,,,,5b72db405f561b0001342eff,B,2024-06-21_17h43.53.025,Slot Machine Game,2023.1.3,Win32,59.52380952,,,,,,,,,,,,,,,,,,,,,,,,,,,100,,,,,,,,,,,,,,,,,,,,,6,4,,,477.8143,1,left,0.7668,,1,0.3,"[2,3,1]",0.121804698,stimuli/card_100_transparent.png,100,1,0,1,0,1,,,,,,,,,,
,,,,5b72db405f561b0001342eff,B,2024-06-21_17h43.53.025,Slot Machine Game,2023.1.3,Win32,59.52380952,,,,,,,,,,,,,,,,,,,,,,,,,,,110,,,,,,,,,,,,,,,,,,,,,6,4,,,480.4065,2,left,0.1002,,0.5,0.3,"[2,3,1]",0.636196209,stimuli/card_10_transparent.png,10,2,0,2,0,1,,,,,,,,,,
,,,,5b72db405f561b0001342eff,B,2024-06-21_17h43.53.025,Slot Machine Game,2023.1.3,Win32,59.52380952,,,,,,,,,,,,,,,,,,,,,,,,,,,120,,,,,,,,,,,,,,,,,,,,,6,4,,,481.8351,3,left,0.148,,1.5,0.3,"[2,3,1]",0.432278042,stimuli/card_10_transparent.png,10,3,0,3,0,1,,,,,,,,,,
,,,,5b72db405f561b0001342eff,B,2024-06-21_17h43.53.025,Slot Machine Game,2023.1.3,Win32,59.52380952,,,,,,,,,,,,,,,,,,,,,,,,,,,220,,,,,,,,,,,,,,,,,,,,,6,4,,,484.3296,4,right,0.3356,,1.5,0.3,"[2,3,1]",0.408189165,stimuli/card_100_transparent.png,100,4,0,4,0,1,,,,,,,,,,
,,,,5b72db405f561b0001342eff,B,2024-06-21_17h43.53.025,Slot Machine Game,2023.1.3,Win32,59.52380952,,,,,,,,,,,,,,,,,,,,,,,,,,,320,,,,,,,,,,,,,,,,,,,,,6,4,,,486.9926,5,right,0.1884,,1.5,0.3,"[2,3,1]",0.505162607,stimuli/card_100_transparent.png,100,5,0,5,0,1,,,,,,,,,,
,,,,5b72db405f561b0001342eff,B,2024-06-21_17h43.53.025,Slot Machine Game,2023.1.3,Win32,59.52380952,,,,,,,,,,,,,,,,,,,,,,,,,,,420,,,,,,,,,,,,,,,,,,,,,6,4,,,489.5012,6,right,0.3354,,1.5,0.3,"[2,3,1]",0.626037311,stimuli/card_100_transparent.png,100,6,0,6,0,1,,,,,,,,,,
,,,,5b72db405f561b0001342eff,B,2024-06-21_17h43.53.025,Slot Machine Game,2023.1.3,Win32,59.52380952,,,,,,,,,,,,,,,,,,,,,,,,,,,420,,,,,,,,,,,,,,,,,,,,,6,4,,,492.1593,7,right,0.5569,,1,0.3,"[1,2,3]",0.836150519,stimuli/card_0_transparent.png,0,7,0,7,0,1,,,,,,,,,,
,,,,5b72db405f561b0001342eff,B,2024-06-21_17h43.53.025,Slot Machine Game,2023.1.3,Win32,59.52380952,,,,,,,,,,,,,,,,,,,,,,,,,,,420,,,,,,,,,,,,,,,,,,,,,6,4,,,494.5331,8,right,0.1134,,0.5,0.3,"[1,2,3]",0.970070733,stimuli/card_0_transparent.png,0,8,0,8,0,1,,,,,,,,,,
,,,,5b72db405f561b0001342eff,B,2024-06-21_17h43.53.025,Slot Machine Game,2023.1.3,Win32,59.52380952,,,,,,,,,,,,,,,,,,,,,,,,,,,430,,,,,,,,,,,,,,,,,,,,,6,4,,,495.9695,9,right,0.0348,,1,0.3,"[1,2,3]",0.193962415,stimuli/card_10_transparent.png,10,9,0,9,0,1,,,,,,,,,,
,,,,5b72db405f561b0001342eff,B,2024-06-21_17h43.53.025,Slot Machine Game,2023.1.3,Win32,59.52380952,,,,,,,,,,,,,,,,,,,,,,,,,,,440,,,,,,,,,,,,,,,,,,,,,6,4,,,497.8137,10,up,0.8226,,1.5,0.3,"[1,2,3]",0.912666799,stimuli/card_10_transparent.png,10,10,0,10,0,1,,,,,,,,,,
,,,,5b72db405f561b0001342eff,B,2024-06-21_17h43.53.025,Slot Machine Game,2023.1.3,Win32,59.52380952,,,,,,,,,,,,,,,,,,,,,,,,,,,540,,,,,,,,,,,,,,,,,,,,,6,4,,,500.9623,11,left,0.0515,,1,0.3,"[1,2,3]",0.240897622,stimuli/card_100_transparent.png,100,11,0,11,0,1,,,,,,,,,,
,,,,5b72db405f561b0001342eff,B,2024-06-21_17h43.53.025,Slot Machine Game,2023.1.3,Win32,59.52380952,,,,,,,,,,,,,,,,,,,,,,,,,,,640,,,,,,,,,,,,,,,,,,,,,6,4,,,502.8357,12,left,0.2018,,0.5,0.3,"[1,2,3]",0.28301458,stimuli/card_100_transparent.png,100,12,0,12,0,1,,,,,,,,,,
,,,,5b72db405f561b0001342eff,B,2024-06-21_17h43.53.025,Slot Machine Game,2023.1.3,Win32,59.52380952,,,,,,,,,,,,,,,,,,,,,,,,,,,740,,,,,,,,,,,,,,,,,,,,,6,4,,,504.3737,13,left,0.3316,,1,0.3,"[1,2,3]",0.718800233,stimuli/card_100_transparent.png,100,13,0,13,0,1,,,,,,,,,,
,,,,5b72db405f561b0001342eff,B,2024-06-21_17h43.53.025,Slot Machine Game,2023.1.3,Win32,59.52380952,,,,,,,,,,,,,,,,,,,,,,,,,,,750,,,,,,,,,,,,,,,,,,,,,6,4,,,506.5251,14,left,0.2836,,1,0.3,"[1,2,3]",0.185071816,stimuli/card_10_transparent.png,10,14,0,14,0,1,,,,,,,,,,
,,,,5b72db405f561b0001342eff,B,2024-06-21_17h43.53.025,Slot Machine Game,2023.1.3,Win32,59.52380952,,,,,,,,,,,,,,,,,,,,,,,,,,,,,,,,,,,508.6208,,,,,,,,,,,,,,,,,,,,,,,,,,,,,,,,,"[1400,920,1140,1120,920,750]",5,0,5,0,1,,,,
,,,,5b72db405f561b0001342eff,B,2024-06-21_17h43.53.025,Slot Machine Game,2023.1.3,Win32,59.52380952,,,,,,,,,,,,,,,,,,,,,,,,,,,100,,,,,,,,,,,,,,,,,,,,,7,10,"[10,15]","[[3,1,2],[1,3,2]]",513.6656,0,left,0.4287,,1.5,0.3,"[3,1,2]",0.038265775,stimuli/card_100_transparent.png,100,0,0,0,0,1,,,,,,,,,,
,,,,5b72db405f561b0001342eff,B,2024-06-21_17h43.53.025,Slot Machine Game,2023.1.3,Win32,59.52380952,,,,,,,,,,,,,,,,,,,,,,,,,,,110,,,,,,,,,,,,,,,,,,,,,7,10,,,516.4157,1,left,0.4646,,1.5,0.3,"[3,1,2]",0.199250571,stimuli/card_10_transparent.png,10,1,0,1,0,1,,,,,,,,,,
,,,,5b72db405f561b0001342eff,B,2024-06-21_17h43.53.025,Slot Machine Game,2023.1.3,Win32,59.52380952,,,,,,,,,,,,,,,,,,,,,,,,,,,110,,,,,,,,,,,,,,,,,,,,,7,10,,,519.2083,2,left,0.6341,,1,0.3,"[3,1,2]",0.663786773,stimuli/card_0_transparent.png,0,2,0,2,0,1,,,,,,,,,,
,,,,5b72db405f561b0001342eff,B,2024-06-21_17h43.53.025,Slot Machine Game,2023.1.3,Win32,59.52380952,,,,,,,,,,,,,,,,,,,,,,,,,,,210,,,,,,,,,,,,,,,,,,,,,7,10,,,521.666,3,right,0.1517,,1,0.3,"[3,1,2]",0.147373689,stimuli/card_100_transparent.png,100,3,0,3,0,1,,,,,,,,,,
,,,,5b72db405f561b0001342eff,B,2024-06-21_17h43.53.025,Slot Machine Game,2023.1.3,Win32,59.52380952,,,,,,,,,,,,,,,,,,,,,,,,,,,220,,,,,,,,,,,,,,,,,,,,,7,10,,,523.6389,4,right,0.4034,,0.5,0.3,"[3,1,2]",0.691135983,stimuli/card_10_transparent.png,10,4,0,4,0,1,,,,,,,,,,
,,,,5b72db405f561b0001342eff,B,2024-06-21_17h43.53.025,Slot Machine Game,2023.1.3,Win32,59.52380952,,,,,,,,,,,,,,,,,,,,,,,,,,,230,,,,,,,,,,,,,,,,,,,,,7,10,,,525.3603,5,right,0.2687,,1.5,0.3,"[3,1,2]",0.585911981,stimuli/card_10_transparent.png,10,5,0,5,0,1,,,,,,,,,,
,,,,5b72db405f561b0001342eff,B,2024-06-21_17h43.53.025,Slot Machine Game,2023.1.3,Win32,59.52380952,,,,,,,,,,,,,,,,,,,,,,,,,,,330,,,,,,,,,,,,,,,,,,,,,7,10,,,527.9507,6,up,0.5039,,0.5,0.3,"[3,1,2]",0.404231424,stimuli/card_100_transparent.png,100,6,0,6,0,1,,,,,,,,,,
,,,,5b72db405f561b0001342eff,B,2024-06-21_17h43.53.025,Slot Machine Game,2023.1.3,Win32,59.52380952,,,,,,,,,,,,,,,,,,,,,,,,,,,430,,,,,,,,,,,,,,,,,,,,,7,10,,,529.7692,7,up,0.0008,,1.5,0.3,"[3,1,2]",0.690791854,stimuli/card_100_transparent.png,100,7,0,7,0,1,,,,,,,,,,
,,,,5b72db405f561b0001342eff,B,2024-06-21_17h43.53.025,Slot Machine Game,2023.1.3,Win32,59.52380952,,,,,,,,,,,,,,,,,,,,,,,,,,,530,,,,,,,,,,,,,,,,,,,,,7,10,,,532.0801,8,up,0.416,,0.5,0.3,"[3,1,2]",0.739101291,stimuli/card_100_transparent.png,100,8,0,8,0,1,,,,,,,,,,
,,,,5b72db405f561b0001342eff,B,2024-06-21_17h43.53.025,Slot Machine Game,2023.1.3,Win32,59.52380952,,,,,,,,,,,,,,,,,,,,,,,,,,,630,,,,,,,,,,,,,,,,,,,,,7,10,,,533.8235,9,up,0.4344,,1.5,0.3,"[3,1,2]",0.865221717,stimuli/card_100_transparent.png,100,9,0,9,0,1,,,,,,,,,,
,,,,5b72db405f561b0001342eff,B,2024-06-21_17h43.53.025,Slot Machine Game,2023.1.3,Win32,59.52380952,,,,,,,,,,,,,,,,,,,,,,,,,,,630,,,,,,,,,,,,,,,,,,,,,7,10,,,536.5841,10,up,0.6626,,1.5,0.3,"[1,3,2]",0.486932931,stimuli/card_0_transparent.png,0,10,0,10,0,1,,,,,,,,,,
,,,,5b72db405f561b0001342eff,B,2024-06-21_17h43.53.025,Slot Machine Game,2023.1.3,Win32,59.52380952,,,,,,,,,,,,,,,,,,,,,,,,,,,630,,,,,,,,,,,,,,,,,,,,,7,10,,,539.5457,11,up,0.3838,,0.5,0.3,"[1,3,2]",0.737698526,stimuli/card_0_transparent.png,0,11,0,11,0,1,,,,,,,,,,
,,,,5b72db405f561b0001342eff,B,2024-06-21_17h43.53.025,Slot Machine Game,2023.1.3,Win32,59.52380952,,,,,,,,,,,,,,,,,,,,,,,,,,,730,,,,,,,,,,,,,,,,,,,,,7,10,,,541.2698,12,left,1.3885,,1,0.3,"[1,3,2]",0.4341746,stimuli/card_100_transparent.png,100,12,0,12,0,1,,,,,,,,,,
,,,,5b72db405f561b0001342eff,B,2024-06-21_17h43.53.025,Slot Machine Game,2023.1.3,Win32,59.52380952,,,,,,,,,,,,,,,,,,,,,,,,,,,830,,,,,,,,,,,,,,,,,,,,,7,10,,,544.4738,13,left,0.5845,,0.5,0.3,"[1,3,2]",0.504596551,stimuli/card_100_transparent.png,100,13,0,13,0,1,,,,,,,,,,
,,,,5b72db405f561b0001342eff,B,2024-06-21_17h43.53.025,Slot Machine Game,2023.1.3,Win32,59.52380952,,,,,,,,,,,,,,,,,,,,,,,,,,,930,,,,,,,,,,,,,,,,,,,,,7,10,,,546.3856,14,left,0.4116,,1,0.3,"[1,3,2]",0.442948635,stimuli/card_100_transparent.png,100,14,0,14,0,1,,,,,,,,,,
,,,,5b72db405f561b0001342eff,B,2024-06-21_17h43.53.025,Slot Machine Game,2023.1.3,Win32,59.52380952,,,,,,,,,,,,,,,,,,,,,,,,,,,,,,,,,,,548.6156,,,,,,,,,,,,,,,,,,,,,,,,,,,,,,,,,"[1400,920,1140,1120,920,750,930]",6,0,6,0,1,,,,
,,,,5b72db405f561b0001342eff,B,2024-06-21_17h43.53.025,Slot Machine Game,2023.1.3,Win32,59.52380952,,,,,,,,,,,,,,,,,,,,,,,,,,,0,,,,,,,,,,,,,,,,,,,,,8,7,"[9,15]","[[1,3,2],[2,3,1]]",553.639,0,up,0.9846,,0.5,0.3,"[1,3,2]",0.980696177,stimuli/card_0_transparent.png,0,0,0,0,0,1,,,,,,,,,,
,,,,5b72db405f561b0001342eff,B,2024-06-21_17h43.53.025,Slot Machine Game,2023.1.3,Win32,59.52380952,,,,,,,,,,,,,,,,,,,,,,,,,,,100,,,,,,,,,,,,,,,,,,,,,8,7,,,555.9619,1,left,1.3385,,1,0.3,"[1,3,2]",0.76340612,stimuli/card_100_transparent.png,100,1,0,1,0,1,,,,,,,,,,
,,,,5b72db405f561b0001342eff,B,2024-06-21_17h43.53.025,Slot Machine Game,2023.1.3,Win32,59.52380952,,,,,,,,,,,,,,,,,,,,,,,,,,,200,,,,,,,,,,,,,,,,,,,,,8,7,,,559.1356,2,left,0.0012,,1,0.3,"[1,3,2]",0.5802449,stimuli/card_100_transparent.png,100,2,0,2,0,1,,,,,,,,,,
,,,,5b72db405f561b0001342eff,B,2024-06-21_17h43.53.025,Slot Machine Game,2023.1.3,Win32,59.52380952,,,,,,,,,,,,,,,,,,,,,,,,,,,300,,,,,,,,,,,,,,,,,,,,,8,7,,,560.9705,3,left,0.1162,,1,0.3,"[1,3,2]",0.639207057,stimuli/card_100_transparent.png,100,3,0,3,0,1,,,,,,,,,,
,,,,5b72db405f561b0001342eff,B,2024-06-21_17h43.53.025,Slot Machine Game,2023.1.3,Win32,59.52380952,,,,,,,,,,,,,,,,,,,,,,,,,,,400,,,,,,,,,,,,,,,,,,,,,8,7,,,562.9195,4,left,0.1015,,1.5,0.3,"[1,3,2]",0.374975347,stimuli/card_100_transparent.png,100,4,0,4,0,1,,,,,,,,,,
,,,,5b72db405f561b0001342eff,B,2024-06-21_17h43.53.025,Slot Machine Game,2023.1.3,Win32,59.52380952,,,,,,,,,,,,,,,,,,,,,,,,,,,500,,,,,,,,,,,,,,,,,,,,,8,7,,,565.3533,5,left,0.3987,,1.5,0.3,"[1,3,2]",0.467973686,stimuli/card_100_transparent.png,100,5,0,5,0,1,,,,,,,,,,
,,,,5b72db405f561b0001342eff,B,2024-06-21_17h43.53.025,Slot Machine Game,2023.1.3,Win32,59.52380952,,,,,,,,,,,,,,,,,,,,,,,,,,,600,,,,,,,,,,,,,,,,,,,,,8,7,,,568.0605,6,left,0.2246,,0.5,0.3,"[1,3,2]",0.782745554,stimuli/card_100_transparent.png,100,6,0,6,0,1,,,,,,,,,,
,,,,5b72db405f561b0001342eff,B,2024-06-21_17h43.53.025,Slot Machine Game,2023.1.3,Win32,59.52380952,,,,,,,,,,,,,,,,,,,,,,,,,,,700,,,,,,,,,,,,,,,,,,,,,8,7,,,569.6005,7,left,0.5535,,0.5,0.3,"[1,3,2]",0.44328081,stimuli/card_100_transparent.png,100,7,0,7,0,1,,,,,,,,,,
,,,,5b72db405f561b0001342eff,B,2024-06-21_17h43.53.025,Slot Machine Game,2023.1.3,Win32,59.52380952,,,,,,,,,,,,,,,,,,,,,,,,,,,800,,,,,,,,,,,,,,,,,,,,,8,7,,,571.4845,8,left,0.153,,1.5,0.3,"[1,3,2]",0.797722493,stimuli/card_100_transparent.png,100,8,0,8,0,1,,,,,,,,,,
,,,,5b72db405f561b0001342eff,B,2024-06-21_17h43.53.025,Slot Machine Game,2023.1.3,Win32,59.52380952,,,,,,,,,,,,,,,,,,,,,,,,,,,810,,,,,,,,,,,,,,,,,,,,,8,7,,,573.96,9,left,0.112,,0.5,0.3,"[2,3,1]",0.356837002,stimuli/card_10_transparent.png,10,9,0,9,0,1,,,,,,,,,,
,,,,5b72db405f561b0001342eff,B,2024-06-21_17h43.53.025,Slot Machine Game,2023.1.3,Win32,59.52380952,,,,,,,,,,,,,,,,,,,,,,,,,,,820,,,,,,,,,,,,,,,,,,,,,8,7,,,575.3877,10,left,0.2336,,1.5,0.3,"[2,3,1]",0.309475633,stimuli/card_10_transparent.png,10,10,0,10,0,1,,,,,,,,,,
,,,,5b72db405f561b0001342eff,B,2024-06-21_17h43.53.025,Slot Machine Game,2023.1.3,Win32,59.52380952,,,,,,,,,,,,,,,,,,,,,,,,,,,830,,,,,,,,,,,,,,,,,,,,,8,7,,,577.9383,11,left,0.4691,,1,0.3,"[2,3,1]",0.943178564,stimuli/card_10_transparent.png,10,11,0,11,0,1,,,,,,,,,,
,,,,5b72db405f561b0001342eff,B,2024-06-21_17h43.53.025,Slot Machine Game,2023.1.3,Win32,59.52380952,,,,,,,,,,,,,,,,,,,,,,,,,,,930,,,,,,,,,,,,,,,,,,,,,8,7,,,580.2221,12,right,0.2783,,0.5,0.3,"[2,3,1]",0.394593184,stimuli/card_100_transparent.png,100,12,0,12,0,1,,,,,,,,,,
,,,,5b72db405f561b0001342eff,B,2024-06-21_17h43.53.025,Slot Machine Game,2023.1.3,Win32,59.52380952,,,,,,,,,,,,,,,,,,,,,,,,,,,930,,,,,,,,,,,,,,,,,,,,,8,7,,,581.8273,13,right,0.3519,,0.5,0.3,"[2,3,1]",0.043802541,stimuli/card_0_transparent.png,0,13,0,13,0,1,,,,,,,,,,
,,,,5b72db405f561b0001342eff,B,2024-06-21_17h43.53.025,Slot Machine Game,2023.1.3,Win32,59.52380952,,,,,,,,,,,,,,,,,,,,,,,,,,,940,,,,,,,,,,,,,,,,,,,,,8,7,,,583.4887,14,left,0.0513,,0.5,0.3,"[2,3,1]",0.624451618,stimuli/card_10_transparent.png,10,14,0,14,0,1,,,,,,,,,,
,,,,5b72db405f561b0001342eff,B,2024-06-21_17h43.53.025,Slot Machine Game,2023.1.3,Win32,59.52380952,,,,,,,,,,,,,,,,,,,,,,,,,,,,,,,,,,,584.8619,,,,,,,,,,,,,,,,,,,,,,,,,,,,,,,,,"[1400,920,1140,1120,920,750,930,940]",7,0,7,0,1,,,,
,,,,5b72db405f561b0001342eff,B,2024-06-21_17h43.53.025,Slot Machine Game,2023.1.3,Win32,59.52380952,,,,,,,,,,,,,,,,,,,,,,,,,,,0,,,,,,,,,,,,,,,,,,,,,9,9,[15],"[[3,1,2]]",589.8926,0,left,0.3667,,1,0.3,"[3,1,2]",0.628394524,stimuli/card_0_transparent.png,0,0,0,0,0,1,,,,,,,,,,
,,,,5b72db405f561b0001342eff,B,2024-06-21_17h43.53.025,Slot Machine Game,2023.1.3,Win32,59.52380952,,,,,,,,,,,,,,,,,,,,,,,,,,,100,,,,,,,,,,,,,,,,,,,,,9,9,,,592.0901,1,up,0.3526,,0.5,0.3,"[3,1,2]",0.981164379,stimuli/card_100_transparent.png,100,1,0,1,0,1,,,,,,,,,,
,,,,5b72db405f561b0001342eff,B,2024-06-21_17h43.53.025,Slot Machine Game,2023.1.3,Win32,59.52380952,,,,,,,,,,,,,,,,,,,,,,,,,,,100,,,,,,,,,,,,,,,,,,,,,9,9,,,593.7592,2,up,0.4136,,0.5,0.3,"[3,1,2]",0.005638329,stimuli/card_0_transparent.png,0,2,0,2,0,1,,,,,,,,,,
,,,,5b72db405f561b0001342eff,B,2024-06-21_17h43.53.025,Slot Machine Game,2023.1.3,Win32,59.52380952,,,,,,,,,,,,,,,,,,,,,,,,,,,200,,,,,,,,,,,,,,,,,,,,,9,9,,,595.5078,3,up,0.0514,,1.5,0.3,"[3,1,2]",0.764656668,stimuli/card_100_transparent.png,100,3,0,3,0,1,,,,,,,,,,
,,,,5b72db405f561b0001342eff,B,2024-06-21_17h43.53.025,Slot Machine Game,2023.1.3,Win32,59.52380952,,,,,,,,,,,,,,,,,,,,,,,,,,,300,,,,,,,,,,,,,,,,,,,,,9,9,,,597.8812,4,up,0.1666,,1,0.3,"[3,1,2]",0.276502374,stimuli/card_100_transparent.png,100,4,0,4,0,1,,,,,,,,,,
,,,,5b72db405f561b0001342eff,B,2024-06-21_17h43.53.025,Slot Machine Game,2023.1.3,Win32,59.52380952,,,,,,,,,,,,,,,,,,,,,,,,,,,400,,,,,,,,,,,,,,,,,,,,,9,9,,,599.8703,5,up,0.4884,,1.5,0.3,"[3,1,2]",0.34983264,stimuli/card_100_transparent.png,100,5,0,5,0,1,,,,,,,,,,
,,,,5b72db405f561b0001342eff,B,2024-06-21_17h43.53.025,Slot Machine Game,2023.1.3,Win32,59.52380952,,,,,,,,,,,,,,,,,,,,,,,,,,,400,,,,,,,,,,,,,,,,,,,,,9,9,,,602.673,6,up,0.4369,,1,0.3,"[3,1,2]",0.067177067,stimuli/card_0_transparent.png,0,6,0,6,0,1,,,,,,,,,,
,,,,5b72db405f561b0001342eff,B,2024-06-21_17h43.53.025,Slot Machine Game,2023.1.3,Win32,59.52380952,,,,,,,,,,,,,,,,,,,,,,,,,,,500,,,,,,,,,,,,,,,,,,,,,9,9,,,604.9192,7,up,0.1178,,1.5,0.3,"[3,1,2]",0.755487136,stimuli/card_100_transparent.png,100,7,0,7,0,1,,,,,,,,,,
,,,,5b72db405f561b0001342eff,B,2024-06-21_17h43.53.025,Slot Machine Game,2023.1.3,Win32,59.52380952,,,,,,,,,,,,,,,,,,,,,,,,,,,600,,,,,,,,,,,,,,,,,,,,,9,9,,,607.3717,8,up,0.4964,,1,0.3,"[3,1,2]",0.228320657,stimuli/card_100_transparent.png,100,8,0,8,0,1,,,,,,,,,,
,,,,5b72db405f561b0001342eff,B,2024-06-21_17h43.53.025,Slot Machine Game,2023.1.3,Win32,59.52380952,,,,,,,,,,,,,,,,,,,,,,,,,,,700,,,,,,,,,,,,,,,,,,,,,9,9,,,609.685,9,up,0.0998,,1.5,0.3,"[3,1,2]",0.624399764,stimuli/card_100_transparent.png,100,9,0,9,0,1,,,,,,,,,,
,,,,5b72db405f561b0001342eff,B,2024-06-21_17h43.53.025,Slot Machine Game,2023.1.3,Win32,59.52380952,,,,,,,,,,,,,,,,,,,,,,,,,,,800,,,,,,,,,,,,,,,,,,,,,9,9,,,612.1159,10,up,0.4035,,1,0.3,"[3,1,2]",0.651826704,stimuli/card_100_transparent.png,100,10,0,10,0,1,,,,,,,,,,
,,,,5b72db405f561b0001342eff,B,2024-06-21_17h43.53.025,Slot Machine Game,2023.1.3,Win32,59.52380952,,,,,,,,,,,,,,,,,,,,,,,,,,,800,,,,,,,,,,,,,,,,,,,,,9,9,,,614.3241,11,up,0.3156,,1.5,0.3,"[3,1,2]",0.092780625,stimuli/card_0_transparent.png,0,11,0,11,0,1,,,,,,,,,,
,,,,5b72db405f561b0001342eff,B,2024-06-21_17h43.53.025,Slot Machine Game,2023.1.3,Win32,59.52380952,,,,,,,,,,,,,,,,,,,,,,,,,,,900,,,,,,,,,,,,,,,,,,,,,9,9,,,616.9651,12,up,1.1872,,1,0.3,"[3,1,2]",0.670940665,stimuli/card_100_transparent.png,100,12,0,12,0,1,,,,,,,,,,
,,,,5b72db405f561b0001342eff,B,2024-06-21_17h43.53.025,Slot Machine Game,2023.1.3,Win32,59.52380952,,,,,,,,,,,,,,,,,,,,,,,,,,,900,,,,,,,,,,,,,,,,,,,,,9,9,,,619.9584,13,up,0.6316,,0.5,0.3,"[3,1,2]",0.05021879,stimuli/card_0_transparent.png,0,13,0,13,0,1,,,,,,,,,,
,,,,5b72db405f561b0001342eff,B,2024-06-21_17h43.53.025,Slot Machine Game,2023.1.3,Win32,59.52380952,,,,,,,,,,,,,,,,,,,,,,,,,,,1000,,,,,,,,,,,,,,,,,,,,,9,9,,,621.9212,14,up,0.4669,,0.5,0.3,"[3,1,2]",0.836925381,stimuli/card_100_transparent.png,100,14,0,14,0,1,,,,,,,,,,
,,,,5b72db405f561b0001342eff,B,2024-06-21_17h43.53.025,Slot Machine Game,2023.1.3,Win32,59.52380952,,,,,,,,,,,,,,,,,,,,,,,,,,,,,,,,,,,623.7132,,,,,,,,,,,,,,,,,,,,,,,,,,,,,,,,,"[1400,920,1140,1120,920,750,930,940,1000]",8,0,8,0,1,,,,
,,,,5b72db405f561b0001342eff,B,2024-06-21_17h43.53.025,Slot Machine Game,2023.1.3,Win32,59.52380952,,,,,,,,,,,,,,,,,,,,,,,,,,,100,,,,,,,,,,,,,,,,,,,,,10,6,"[4,10,15]","[[2,3,1],[1,3,2],[3,2,1]]",628.7455,0,right,0.5168,,1,0.3,"[2,3,1]",0.832747407,stimuli/card_100_transparent.png,100,0,0,0,0,1,,,,,,,,,,
,,,,5b72db405f561b0001342eff,B,2024-06-21_17h43.53.025,Slot Machine Game,2023.1.3,Win32,59.52380952,,,,,,,,,,,,,,,,,,,,,,,,,,,200,,,,,,,,,,,,,,,,,,,,,10,6,,,631.0778,1,right,0.0347,,1,0.3,"[2,3,1]",0.413343212,stimuli/card_100_transparent.png,100,1,0,1,0,1,,,,,,,,,,
,,,,5b72db405f561b0001342eff,B,2024-06-21_17h43.53.025,Slot Machine Game,2023.1.3,Win32,59.52380952,,,,,,,,,,,,,,,,,,,,,,,,,,,300,,,,,,,,,,,,,,,,,,,,,10,6,,,632.9394,2,right,0.4254,,1,0.3,"[2,3,1]",0.482759531,stimuli/card_100_transparent.png,100,2,0,2,0,1,,,,,,,,,,
,,,,5b72db405f561b0001342eff,B,2024-06-21_17h43.53.025,Slot Machine Game,2023.1.3,Win32,59.52380952,,,,,,,,,,,,,,,,,,,,,,,,,,,400,,,,,,,,,,,,,,,,,,,,,10,6,,,635.1735,3,right,0.4293,,0.5,0.3,"[2,3,1]",0.693811167,stimuli/card_100_transparent.png,100,3,0,3,0,1,,,,,,,,,,
,,,,5b72db405f561b0001342eff,B,2024-06-21_17h43.53.025,Slot Machine Game,2023.1.3,Win32,59.52380952,,,,,,,,,,,,,,,,,,,,,,,,,,,400,,,,,,,,,,,,,,,,,,,,,10,6,,,636.9337,4,right,0.7793,,0.5,0.3,"[1,3,2]",0.07149441,stimuli/card_0_transparent.png,0,4,0,4,0,1,,,,,,,,,,
,,,,5b72db405f561b0001342eff,B,2024-06-21_17h43.53.025,Slot Machine Game,2023.1.3,Win32,59.52380952,,,,,,,,,,,,,,,,,,,,,,,,,,,410,,,,,,,,,,,,,,,,,,,,,10,6,,,639.0404,5,right,0.0225,,1.5,0.3,"[1,3,2]",0.366161067,stimuli/card_10_transparent.png,10,5,0,5,0,1,,,,,,,,,,
,,,,5b72db405f561b0001342eff,B,2024-06-21_17h43.53.025,Slot Machine Game,2023.1.3,Win32,59.52380952,,,,,,,,,,,,,,,,,,,,,,,,,,,420,,,,,,,,,,,,,,,,,,,,,10,6,,,641.3758,6,right,0.4611,,0.5,0.3,"[1,3,2]",0.430667693,stimuli/card_10_transparent.png,10,6,0,6,0,1,,,,,,,,,,
,,,,5b72db405f561b0001342eff,B,2024-06-21_17h43.53.025,Slot Machine Game,2023.1.3,Win32,59.52380952,,,,,,,,,,,,,,,,,,,,,,,,,,,430,,,,,,,,,,,,,,,,,,,,,10,6,,,643.1533,7,right,0.3695,,1,0.3,"[1,3,2]",0.332787912,stimuli/card_10_transparent.png,10,7,0,7,0,1,,,,,,,,,,
,,,,5b72db405f561b0001342eff,B,2024-06-21_17h43.53.025,Slot Machine Game,2023.1.3,Win32,59.52380952,,,,,,,,,,,,,,,,,,,,,,,,,,,430,,,,,,,,,,,,,,,,,,,,,10,6,,,645.3383,8,up,0.2452,,1,0.3,"[1,3,2]",0.463012729,stimuli/card_0_transparent.png,0,8,0,8,0,1,,,,,,,,,,
,,,,5b72db405f561b0001342eff,B,2024-06-21_17h43.53.025,Slot Machine Game,2023.1.3,Win32,59.52380952,,,,,,,,,,,,,,,,,,,,,,,,,,,530,,,,,,,,,,,,,,,,,,,,,10,6,,,647.3895,9,left,0.2391,,1,0.3,"[1,3,2]",0.503437475,stimuli/card_100_transparent.png,100,9,0,9,0,1,,,,,,,,,,
,,,,5b72db405f561b0001342eff,B,2024-06-21_17h43.53.025,Slot Machine Game,2023.1.3,Win32,59.52380952,,,,,,,,,,,,,,,,,,,,,,,,,,,540,,,,,,,,,,,,,,,,,,,,,10,6,,,649.4386,10,left,0.0012,,1.5,0.3,"[3,2,1]",0.171315476,stimuli/card_10_transparent.png,10,10,0,10,0,1,,,,,,,,,,
,,,,5b72db405f561b0001342eff,B,2024-06-21_17h43.53.025,Slot Machine Game,2023.1.3,Win32,59.52380952,,,,,,,,,,,,,,,,,,,,,,,,,,,550,,,,,,,,,,,,,,,,,,,,,10,6,,,651.7727,11,left,0.501,,0.5,0.3,"[3,2,1]",0.179646997,stimuli/card_10_transparent.png,10,11,0,11,0,1,,,,,,,,,,
,,,,5b72db405f561b0001342eff,B,2024-06-21_17h43.53.025,Slot Machine Game,2023.1.3,Win32,59.52380952,,,,,,,,,,,,,,,,,,,,,,,,,,,650,,,,,,,,,,,,,,,,,,,,,10,6,,,653.5783,12,right,0.3332,,1,0.3,"[3,2,1]",0.453985571,stimuli/card_100_transparent.png,100,12,0,12,0,1,,,,,,,,,,
,,,,5b72db405f561b0001342eff,B,2024-06-21_17h43.53.025,Slot Machine Game,2023.1.3,Win32,59.52380952,,,,,,,,,,,,,,,,,,,,,,,,,,,750,,,,,,,,,,,,,,,,,,,,,10,6,,,655.7193,13,right,0.1464,,1.5,0.3,"[3,2,1]",0.654590536,stimuli/card_100_transparent.png,100,13,0,13,0,1,,,,,,,,,,
,,,,5b72db405f561b0001342eff,B,2024-06-21_17h43.53.025,Slot Machine Game,2023.1.3,Win32,59.52380952,,,,,,,,,,,,,,,,,,,,,,,,,,,850,,,,,,,,,,,,,,,,,,,,,10,6,,,658.1771,14,right,0.0289,,0.5,0.3,"[3,2,1]",0.243919681,stimuli/card_100_transparent.png,100,14,0,14,0,1,,,,,,,,,,
,,,,5b72db405f561b0001342eff,B,2024-06-21_17h43.53.025,Slot Machine Game,2023.1.3,Win32,59.52380952,,,,,,,,,,,,,,,,,,,,,,,,,,,,,,,,,,,659.536,,,,,,,,,,,,,,,,,,,,,,,,,,,,,,,,,"[1400,920,1140,1120,920,750,930,940,1000,850]",9,0,9,0,1,,,,
,,,,5b72db405f561b0001342eff,B,2024-06-21_17h43.53.025,Slot Machine Game,2023.1.3,Win32,59.52380952,,,,,,,,,,,,,,,,,,,,,,,,,,,,,,,,,,,,,,,,,,,,,,,,,,,,,,,,,,,,,,,,,,,,,,,,,,9,"[1400,920,1140,1120,920,750,930,940,1000,850]",9.2,2024-06-21_17h55.01.795
