key_resp_welcome_started,key_resp_welcome_keys,key_resp_welcome_rt,key_resp_welcome_duration,prolific_id,path_id,date,expName,psychopyVersion,OS,frameRate,key_resp_instruction1_started,key_resp_instruction1_keys,key_resp_instruction1_rt,key_resp_instruction1_duration,key_resp_instruction2_started,key_resp_instruction2_keys,key_resp_instruction2_rt,key_resp_instruction2_duration,key_resp_instruction3_started,key_resp_instruction3_keys,key_resp_instruction3_rt,key_resp_instruction3_duration,key_resp_instruction4_started,key_resp_instruction4_keys,key_resp_instruction4_rt,key_resp_instruction4_duration,practiceCondition,practice_reward_seqs,practice_trial_started,practice_trial_num,practice_resp_rt,practice_resp_duration,practice_resp_keys,prac_presentationInterval,"practice_reward_seq: 2,1,3",reward_img,cumulative_reward,trial_reward,practice_trials.thisRepN,practice_trials.thisTrialN,practice_trials.thisN,practice_trials.thisIndex,practice_trials.ran,"practice_reward_seq: 2,3,1",block_break_started,"practice_reward_seq: 1,3,2","practice_reward_seq: 3,1,2",practice_end_time,practice_end_keys,practice_end_rt,practice_end_duration,main_instruction_text_started,block_condition,block_order_indices,main_instruction_keys,main_instruction_rt,main_instruction_duration,block_number,block_assignment,current_condition,main_reward_seqs,main_trial_started,main_trial_num,main_trial_keys,main_trial_rt,main_trial_duration,main_presentationInterval,reward_presentation_time,main_reward_seq,reward_rand_val,main_reward_img,current_reward,main_trials.thisRepN,main_trials.thisTrialN,main_trials.thisN,main_trials.thisIndex,main_trials.ran,block_reward,block.thisRepN,block.thisTrialN,block.thisN,block.thisIndex,block.ran,block_reward.length,block_reward_all,reward_amount,date_end_task
0.0008,space,1.0406,,5b72e0698bca7e000103215c,A,2024-07-09_12h40.39.065,Slot Machine Game,2023.1.3,Win32,59.88023952,,,,,,,,,,,,,,,,,,,,,,,,,,,,,,,,,,,,,,,,,,,,,,,,,,,,,,,,,,,,,,,,,,,,,,,,,,,,,
,,,,5b72e0698bca7e000103215c,A,2024-07-09_12h40.39.065,Slot Machine Game,2023.1.3,Win32,59.88023952,1.0588,space,0.111,,,,,,,,,,,,,,,,,,,,,,,,,,,,,,,,,,,,,,,,,,,,,,,,,,,,,,,,,,,,,,,,,,,,,,,,,,
,,,,5b72e0698bca7e000103215c,A,2024-07-09_12h40.39.065,Slot Machine Game,2023.1.3,Win32,59.88023952,,,,,1.1925,space,3.4621,,,,,,,,,,,,,,,,,,,,,,,,,,,,,,,,,,,,,,,,,,,,,,,,,,,,,,,,,,,,,,,,,,,,,,
,,,,5b72e0698bca7e000103215c,A,2024-07-09_12h40.39.065,Slot Machine Game,2023.1.3,Win32,59.88023952,,,,,,,,,4.6753,space,1.9127,,,,,,,,,,,,,,,,,,,,,,,,,,,,,,,,,,,,,,,,,,,,,,,,,,,,,,,,,,,,,,,,,,
,,,,5b72e0698bca7e000103215c,A,2024-07-09_12h40.39.065,Slot Machine Game,2023.1.3,Win32,59.88023952,,,,,,,,,,,,,,,,,,,,,,,,,,,,,,,,,,,,,,,,,,,,,,,,,,,,,,,,,,,,,,,,,,,,,,,,,,,,,
,,,,5b72e0698bca7e000103215c,A,2024-07-09_12h40.39.065,Slot Machine Game,2023.1.3,Win32,59.88023952,,,,,,,,,,,,,148.2746,up,2.6913,,,,,,,,,,,,,,,,,,,,,,,,,,,,,,,,,,,,,,,,,,,,,,,,,,,,,,,,,,,,,,
,,,,5b72e0698bca7e000103215c,A,2024-07-09_12h40.39.065,Slot Machine Game,2023.1.3,Win32,59.88023952,,,,,,,,,,,,,,,,,"[9,15]","[[2,1,3],[2,3,1]]",150.9755,0,1.0266,,left,1.5,,stimuli/card_10_transparent.png,10,10,0,0,0,0,1,,,,,,,,,,,,,,,,,,,,,,,,,,,,,,,,,,,,,,,,,,,,
,,,,5b72e0698bca7e000103215c,A,2024-07-09_12h40.39.065,Slot Machine Game,2023.1.3,Win32,59.88023952,,,,,,,,,,,,,,,,,,,154.3237,1,0.0035,,right,1,,stimuli/card_0_transparent.png,10,0,1,0,1,0,1,,,,,,,,,,,,,,,,,,,,,,,,,,,,,,,,,,,,,,,,,,,,
,,,,5b72e0698bca7e000103215c,A,2024-07-09_12h40.39.065,Slot Machine Game,2023.1.3,Win32,59.88023952,,,,,,,,,,,,,,,,,,,156.1567,2,0.1604,,up,1.5,,stimuli/card_100_transparent.png,110,100,2,0,2,0,1,,,,,,,,,,,,,,,,,,,,,,,,,,,,,,,,,,,,,,,,,,,,
,,,,5b72e0698bca7e000103215c,A,2024-07-09_12h40.39.065,Slot Machine Game,2023.1.3,Win32,59.88023952,,,,,,,,,,,,,,,,,,,158.6398,3,0.2641,,up,1.5,,stimuli/card_100_transparent.png,210,100,3,0,3,0,1,,,,,,,,,,,,,,,,,,,,,,,,,,,,,,,,,,,,,,,,,,,,
,,,,5b72e0698bca7e000103215c,A,2024-07-09_12h40.39.065,Slot Machine Game,2023.1.3,Win32,59.88023952,,,,,,,,,,,,,,,,,,,161.2233,4,0.0214,,up,0.5,,stimuli/card_100_transparent.png,310,100,4,0,4,0,1,,,,,,,,,,,,,,,,,,,,,,,,,,,,,,,,,,,,,,,,,,,,
,,,,5b72e0698bca7e000103215c,A,2024-07-09_12h40.39.065,Slot Machine Game,2023.1.3,Win32,59.88023952,,,,,,,,,,,,,,,,,,,162.573,5,0.0132,,up,1.5,,stimuli/card_100_transparent.png,410,100,5,0,5,0,1,,,,,,,,,,,,,,,,,,,,,,,,,,,,,,,,,,,,,,,,,,,,
,,,,5b72e0698bca7e000103215c,A,2024-07-09_12h40.39.065,Slot Machine Game,2023.1.3,Win32,59.88023952,,,,,,,,,,,,,,,,,,,164.9064,6,0.0718,,up,0.5,,stimuli/card_100_transparent.png,510,100,6,0,6,0,1,,,,,,,,,,,,,,,,,,,,,,,,,,,,,,,,,,,,,,,,,,,,
,,,,5b72e0698bca7e000103215c,A,2024-07-09_12h40.39.065,Slot Machine Game,2023.1.3,Win32,59.88023952,,,,,,,,,,,,,,,,,,,166.3066,7,0.1283,,up,0.5,,stimuli/card_10_transparent.png,520,10,7,0,7,0,1,,,,,,,,,,,,,,,,,,,,,,,,,,,,,,,,,,,,,,,,,,,,
,,,,5b72e0698bca7e000103215c,A,2024-07-09_12h40.39.065,Slot Machine Game,2023.1.3,Win32,59.88023952,,,,,,,,,,,,,,,,,,,167.7563,8,0.2919,,left,1,,stimuli/card_0_transparent.png,520,0,8,0,8,0,1,,,,,,,,,,,,,,,,,,,,,,,,,,,,,,,,,,,,,,,,,,,,
,,,,5b72e0698bca7e000103215c,A,2024-07-09_12h40.39.065,Slot Machine Game,2023.1.3,Win32,59.88023952,,,,,,,,,,,,,,,,,,,169.8729,9,0.0947,,right,1.5,,stimuli/card_100_transparent.png,620,100,9,0,9,0,1,,,,,,,,,,,,,,,,,,,,,,,,,,,,,,,,,,,,,,,,,,,,
,,,,5b72e0698bca7e000103215c,A,2024-07-09_12h40.39.065,Slot Machine Game,2023.1.3,Win32,59.88023952,,,,,,,,,,,,,,,,,,,172.2896,10,0.2309,,right,1,,stimuli/card_100_transparent.png,720,100,10,0,10,0,1,,,,,,,,,,,,,,,,,,,,,,,,,,,,,,,,,,,,,,,,,,,,
,,,,5b72e0698bca7e000103215c,A,2024-07-09_12h40.39.065,Slot Machine Game,2023.1.3,Win32,59.88023952,,,,,,,,,,,,,,,,,,,174.3397,11,0.1625,,right,0.5,,stimuli/card_100_transparent.png,820,100,11,0,11,0,1,,,,,,,,,,,,,,,,,,,,,,,,,,,,,,,,,,,,,,,,,,,,
,,,,5b72e0698bca7e000103215c,A,2024-07-09_12h40.39.065,Slot Machine Game,2023.1.3,Win32,59.88023952,,,,,,,,,,,,,,,,,,,175.8227,12,0.4166,,right,1,,stimuli/card_100_transparent.png,920,100,12,0,12,0,1,,,,,,,,,,,,,,,,,,,,,,,,,,,,,,,,,,,,,,,,,,,,
,,,,5b72e0698bca7e000103215c,A,2024-07-09_12h40.39.065,Slot Machine Game,2023.1.3,Win32,59.88023952,,,,,,,,,,,,,,,,,,,178.0561,13,0.2899,,right,1,,stimuli/card_100_transparent.png,1020,100,13,0,13,0,1,,,,,,,,,,,,,,,,,,,,,,,,,,,,,,,,,,,,,,,,,,,,
,,,,5b72e0698bca7e000103215c,A,2024-07-09_12h40.39.065,Slot Machine Game,2023.1.3,Win32,59.88023952,,,,,,,,,,,,,,,,,,,180.1727,14,0.071,,right,0.5,,stimuli/card_0_transparent.png,1020,0,14,0,14,0,1,,,,,,,,,,,,,,,,,,,,,,,,,,,,,,,,,,,,,,,,,,,,
,,,,5b72e0698bca7e000103215c,A,2024-07-09_12h40.39.065,Slot Machine Game,2023.1.3,Win32,59.88023952,,,,,,,,,,,,,,,,,"[6,15]","[[1,3,2],[3,1,2]]",186.5799,0,0.3418,,up,1,,stimuli/card_0_transparent.png,0,0,0,0,0,0,1,,181.5791,,,,,,,,,,,,,,,,,,,,,,,,,,,,,,,,,,,,,,,,,,
,,,,5b72e0698bca7e000103215c,A,2024-07-09_12h40.39.065,Slot Machine Game,2023.1.3,Win32,59.88023952,,,,,,,,,,,,,,,,,,,188.7393,1,0.3071,,left,1.5,,stimuli/card_100_transparent.png,100,100,1,0,1,0,1,,,,,,,,,,,,,,,,,,,,,,,,,,,,,,,,,,,,,,,,,,,,
,,,,5b72e0698bca7e000103215c,A,2024-07-09_12h40.39.065,Slot Machine Game,2023.1.3,Win32,59.88023952,,,,,,,,,,,,,,,,,,,191.3725,2,0.1386,,left,1.5,,stimuli/card_100_transparent.png,200,100,2,0,2,0,1,,,,,,,,,,,,,,,,,,,,,,,,,,,,,,,,,,,,,,,,,,,,
,,,,5b72e0698bca7e000103215c,A,2024-07-09_12h40.39.065,Slot Machine Game,2023.1.3,Win32,59.88023952,,,,,,,,,,,,,,,,,,,193.823,3,0.2535,,left,0.5,,stimuli/card_100_transparent.png,300,100,3,0,3,0,1,,,,,,,,,,,,,,,,,,,,,,,,,,,,,,,,,,,,,,,,,,,,
,,,,5b72e0698bca7e000103215c,A,2024-07-09_12h40.39.065,Slot Machine Game,2023.1.3,Win32,59.88023952,,,,,,,,,,,,,,,,,,,195.406,4,0.0663,,left,1.5,,stimuli/card_100_transparent.png,400,100,4,0,4,0,1,,,,,,,,,,,,,,,,,,,,,,,,,,,,,,,,,,,,,,,,,,,,
,,,,5b72e0698bca7e000103215c,A,2024-07-09_12h40.39.065,Slot Machine Game,2023.1.3,Win32,59.88023952,,,,,,,,,,,,,,,,,,,197.8059,5,0.1786,,left,1,,stimuli/card_100_transparent.png,500,100,5,0,5,0,1,,,,,,,,,,,,,,,,,,,,,,,,,,,,,,,,,,,,,,,,,,,,
,,,,5b72e0698bca7e000103215c,A,2024-07-09_12h40.39.065,Slot Machine Game,2023.1.3,Win32,59.88023952,,,,,,,,,,,,,,,,,,,199.806,6,0.1337,,right,0.5,,stimuli/card_10_transparent.png,510,10,6,0,6,0,1,,,,,,,,,,,,,,,,,,,,,,,,,,,,,,,,,,,,,,,,,,,,
,,,,5b72e0698bca7e000103215c,A,2024-07-09_12h40.39.065,Slot Machine Game,2023.1.3,Win32,59.88023952,,,,,,,,,,,,,,,,,,,201.2728,7,0.386,,up,1,,stimuli/card_0_transparent.png,510,0,7,0,7,0,1,,,,,,,,,,,,,,,,,,,,,,,,,,,,,,,,,,,,,,,,,,,,
,,,,5b72e0698bca7e000103215c,A,2024-07-09_12h40.39.065,Slot Machine Game,2023.1.3,Win32,59.88023952,,,,,,,,,,,,,,,,,,,203.4893,8,0.5573,,right,0.5,,stimuli/card_10_transparent.png,520,10,8,0,8,0,1,,,,,,,,,,,,,,,,,,,,,,,,,,,,,,,,,,,,,,,,,,,,
,,,,5b72e0698bca7e000103215c,A,2024-07-09_12h40.39.065,Slot Machine Game,2023.1.3,Win32,59.88023952,,,,,,,,,,,,,,,,,,,205.3725,9,0.1481,,left,1.5,,stimuli/card_100_transparent.png,620,100,9,0,9,0,1,,,,,,,,,,,,,,,,,,,,,,,,,,,,,,,,,,,,,,,,,,,,
,,,,5b72e0698bca7e000103215c,A,2024-07-09_12h40.39.065,Slot Machine Game,2023.1.3,Win32,59.88023952,,,,,,,,,,,,,,,,,,,207.8392,10,0.2295,,left,1,,stimuli/card_0_transparent.png,620,0,10,0,10,0,1,,,,,,,,,,,,,,,,,,,,,,,,,,,,,,,,,,,,,,,,,,,,
,,,,5b72e0698bca7e000103215c,A,2024-07-09_12h40.39.065,Slot Machine Game,2023.1.3,Win32,59.88023952,,,,,,,,,,,,,,,,,,,209.8891,11,0.2675,,right,0.5,,stimuli/card_10_transparent.png,630,10,11,0,11,0,1,,,,,,,,,,,,,,,,,,,,,,,,,,,,,,,,,,,,,,,,,,,,
,,,,5b72e0698bca7e000103215c,A,2024-07-09_12h40.39.065,Slot Machine Game,2023.1.3,Win32,59.88023952,,,,,,,,,,,,,,,,,,,211.4892,12,0.2775,,up,1,,stimuli/card_100_transparent.png,730,100,12,0,12,0,1,,,,,,,,,,,,,,,,,,,,,,,,,,,,,,,,,,,,,,,,,,,,
,,,,5b72e0698bca7e000103215c,A,2024-07-09_12h40.39.065,Slot Machine Game,2023.1.3,Win32,59.88023952,,,,,,,,,,,,,,,,,,,213.589,13,0.1577,,up,0.5,,stimuli/card_100_transparent.png,830,100,13,0,13,0,1,,,,,,,,,,,,,,,,,,,,,,,,,,,,,,,,,,,,,,,,,,,,
,,,,5b72e0698bca7e000103215c,A,2024-07-09_12h40.39.065,Slot Machine Game,2023.1.3,Win32,59.88023952,,,,,,,,,,,,,,,,,,,215.0724,14,0.0703,,up,0.5,,stimuli/card_100_transparent.png,930,100,14,0,14,0,1,,,,,,,,,,,,,,,,,,,,,,,,,,,,,,,,,,,,,,,,,,,,
,,,,5b72e0698bca7e000103215c,A,2024-07-09_12h40.39.065,Slot Machine Game,2023.1.3,Win32,59.88023952,,,,,,,,,,,,,,,,,,,,,,,,,,,,,,,,,,,216.4724,,,221.4728,space,2.2038,,,,,,,,,,,,,,,,,,,,,,,,,,,,,,,,,,,,,
,,,,5b72e0698bca7e000103215c,A,2024-07-09_12h40.39.065,Slot Machine Game,2023.1.3,Win32,59.88023952,,,,,,,,,,,,,,,,,,,,,,,,,,,,,,,,,,,,,,,,,,223.6894,3,"[0,4,6,3,5,7,8,1,9,2]",space,1.9546,,,,,,,,,,,,,,,,,,,,,,,,,,,,,,,
,,,,5b72e0698bca7e000103215c,A,2024-07-09_12h40.39.065,Slot Machine Game,2023.1.3,Win32,59.88023952,,,,,,,,,,,,,,,,,,,,,,,,,,,0,,,,,,,,,,,,,,,,,,,,,1,1,"[12,15]","[[2,1,3],[2,3,1]]",225.6646,0,left,0.1467,,0.5,0.3,"[2,1,3]",0.014586134,stimuli/card_0_transparent.png,0,0,0,0,0,1,,,,,,,,,,
,,,,5b72e0698bca7e000103215c,A,2024-07-09_12h40.39.065,Slot Machine Game,2023.1.3,Win32,59.88023952,,,,,,,,,,,,,,,,,,,,,,,,,,,0,,,,,,,,,,,,,,,,,,,,,1,1,,,227.1223,1,right,0.2886,,0.5,0.3,"[2,1,3]",0.571285943,stimuli/card_0_transparent.png,0,1,0,1,0,1,,,,,,,,,,
,,,,5b72e0698bca7e000103215c,A,2024-07-09_12h40.39.065,Slot Machine Game,2023.1.3,Win32,59.88023952,,,,,,,,,,,,,,,,,,,,,,,,,,,10,,,,,,,,,,,,,,,,,,,,,1,1,,,228.7387,2,up,0.1502,,0.5,0.3,"[2,1,3]",0.190777377,stimuli/card_10_transparent.png,10,2,0,2,0,1,,,,,,,,,,
,,,,5b72e0698bca7e000103215c,A,2024-07-09_12h40.39.065,Slot Machine Game,2023.1.3,Win32,59.88023952,,,,,,,,,,,,,,,,,,,,,,,,,,,20,,,,,,,,,,,,,,,,,,,,,1,1,,,230.2057,3,left,0.0706,,1.5,0.3,"[2,1,3]",0.461775774,stimuli/card_10_transparent.png,10,3,0,3,0,1,,,,,,,,,,
,,,,5b72e0698bca7e000103215c,A,2024-07-09_12h40.39.065,Slot Machine Game,2023.1.3,Win32,59.88023952,,,,,,,,,,,,,,,,,,,,,,,,,,,20,,,,,,,,,,,,,,,,,,,,,1,1,,,232.6055,4,right,0.195,,1,0.3,"[2,1,3]",0.644636836,stimuli/card_0_transparent.png,0,4,0,4,0,1,,,,,,,,,,
,,,,5b72e0698bca7e000103215c,A,2024-07-09_12h40.39.065,Slot Machine Game,2023.1.3,Win32,59.88023952,,,,,,,,,,,,,,,,,,,,,,,,,,,20,,,,,,,,,,,,,,,,,,,,,1,1,,,234.6221,5,right,0.1669,,1.5,0.3,"[2,1,3]",0.406567584,stimuli/card_0_transparent.png,0,5,0,5,0,1,,,,,,,,,,
,,,,5b72e0698bca7e000103215c,A,2024-07-09_12h40.39.065,Slot Machine Game,2023.1.3,Win32,59.88023952,,,,,,,,,,,,,,,,,,,,,,,,,,,30,,,,,,,,,,,,,,,,,,,,,1,1,,,237.1222,6,up,0.4921,,1.5,0.3,"[2,1,3]",0.12827796,stimuli/card_10_transparent.png,10,6,0,6,0,1,,,,,,,,,,
,,,,5b72e0698bca7e000103215c,A,2024-07-09_12h40.39.065,Slot Machine Game,2023.1.3,Win32,59.88023952,,,,,,,,,,,,,,,,,,,,,,,,,,,40,,,,,,,,,,,,,,,,,,,,,1,1,,,239.9387,7,left,1.1896,,1.5,0.3,"[2,1,3]",0.519555123,stimuli/card_10_transparent.png,10,7,0,7,0,1,,,,,,,,,,
,,,,5b72e0698bca7e000103215c,A,2024-07-09_12h40.39.065,Slot Machine Game,2023.1.3,Win32,59.88023952,,,,,,,,,,,,,,,,,,,,,,,,,,,140,,,,,,,,,,,,,,,,,,,,,1,1,,,243.4553,8,up,0.093,,1,0.3,"[2,1,3]",0.386684485,stimuli/card_100_transparent.png,100,8,0,8,0,1,,,,,,,,,,
,,,,5b72e0698bca7e000103215c,A,2024-07-09_12h40.39.065,Slot Machine Game,2023.1.3,Win32,59.88023952,,,,,,,,,,,,,,,,,,,,,,,,,,,150,,,,,,,,,,,,,,,,,,,,,1,1,,,245.3721,9,up,0.2241,,1,0.3,"[2,1,3]",0.152476214,stimuli/card_10_transparent.png,10,9,0,9,0,1,,,,,,,,,,
,,,,5b72e0698bca7e000103215c,A,2024-07-09_12h40.39.065,Slot Machine Game,2023.1.3,Win32,59.88023952,,,,,,,,,,,,,,,,,,,,,,,,,,,150,,,,,,,,,,,,,,,,,,,,,1,1,,,247.422,10,right,0.1121,,1,0.3,"[2,1,3]",0.279183176,stimuli/card_0_transparent.png,0,10,0,10,0,1,,,,,,,,,,
,,,,5b72e0698bca7e000103215c,A,2024-07-09_12h40.39.065,Slot Machine Game,2023.1.3,Win32,59.88023952,,,,,,,,,,,,,,,,,,,,,,,,,,,160,,,,,,,,,,,,,,,,,,,,,1,1,,,249.3552,11,left,0.1867,,0.5,0.3,"[2,1,3]",0.227151088,stimuli/card_10_transparent.png,10,11,0,11,0,1,,,,,,,,,,
,,,,5b72e0698bca7e000103215c,A,2024-07-09_12h40.39.065,Slot Machine Game,2023.1.3,Win32,59.88023952,,,,,,,,,,,,,,,,,,,,,,,,,,,160,,,,,,,,,,,,,,,,,,,,,1,1,,,250.8719,12,up,0.1949,,0.5,0.3,"[2,3,1]",0.667439187,stimuli/card_0_transparent.png,0,12,0,12,0,1,,,,,,,,,,
,,,,5b72e0698bca7e000103215c,A,2024-07-09_12h40.39.065,Slot Machine Game,2023.1.3,Win32,59.88023952,,,,,,,,,,,,,,,,,,,,,,,,,,,160,,,,,,,,,,,,,,,,,,,,,1,1,,,252.3888,13,right,0.1579,,1.5,0.3,"[2,3,1]",0.078409968,stimuli/card_0_transparent.png,0,13,0,13,0,1,,,,,,,,,,
,,,,5b72e0698bca7e000103215c,A,2024-07-09_12h40.39.065,Slot Machine Game,2023.1.3,Win32,59.88023952,,,,,,,,,,,,,,,,,,,,,,,,,,,170,,,,,,,,,,,,,,,,,,,,,1,1,,,254.8722,14,left,0.1437,,1,0.3,"[2,3,1]",0.905180756,stimuli/card_10_transparent.png,10,14,0,14,0,1,,,,,,,,,,
,,,,5b72e0698bca7e000103215c,A,2024-07-09_12h40.39.065,Slot Machine Game,2023.1.3,Win32,59.88023952,,,,,,,,,,,,,,,,,,,,,,,,,,,,,,,,,,,256.8389,,,,,,,,,,,,,,,,,,,,,,,,,,,,,,,,,[170],0,0,0,0,1,,,,
,,,,5b72e0698bca7e000103215c,A,2024-07-09_12h40.39.065,Slot Machine Game,2023.1.3,Win32,59.88023952,,,,,,,,,,,,,,,,,,,,,,,,,,,100,,,,,,,,,,,,,,,,,,,,,2,5,"[5,15]","[[1,2,3],[3,1,2]]",261.8465,0,left,0.804,,1,0.3,"[1,2,3]",0.255004747,stimuli/card_100_transparent.png,100,0,0,0,0,1,,,,,,,,,,
,,,,5b72e0698bca7e000103215c,A,2024-07-09_12h40.39.065,Slot Machine Game,2023.1.3,Win32,59.88023952,,,,,,,,,,,,,,,,,,,,,,,,,,,200,,,,,,,,,,,,,,,,,,,,,2,5,,,264.4718,1,left,0.6899,,1.5,0.3,"[1,2,3]",0.568764019,stimuli/card_100_transparent.png,100,1,0,1,0,1,,,,,,,,,,
,,,,5b72e0698bca7e000103215c,A,2024-07-09_12h40.39.065,Slot Machine Game,2023.1.3,Win32,59.88023952,,,,,,,,,,,,,,,,,,,,,,,,,,,300,,,,,,,,,,,,,,,,,,,,,2,5,,,267.4885,2,left,0.1038,,1.5,0.3,"[1,2,3]",0.317044071,stimuli/card_100_transparent.png,100,2,0,2,0,1,,,,,,,,,,
,,,,5b72e0698bca7e000103215c,A,2024-07-09_12h40.39.065,Slot Machine Game,2023.1.3,Win32,59.88023952,,,,,,,,,,,,,,,,,,,,,,,,,,,400,,,,,,,,,,,,,,,,,,,,,2,5,,,269.9216,3,left,0.2899,,1,0.3,"[1,2,3]",0.409314824,stimuli/card_100_transparent.png,100,3,0,3,0,1,,,,,,,,,,
,,,,5b72e0698bca7e000103215c,A,2024-07-09_12h40.39.065,Slot Machine Game,2023.1.3,Win32,59.88023952,,,,,,,,,,,,,,,,,,,,,,,,,,,500,,,,,,,,,,,,,,,,,,,,,2,5,,,272.0386,4,left,0.5953,,0.5,0.3,"[1,2,3]",0.216854106,stimuli/card_100_transparent.png,100,4,0,4,0,1,,,,,,,,,,
,,,,5b72e0698bca7e000103215c,A,2024-07-09_12h40.39.065,Slot Machine Game,2023.1.3,Win32,59.88023952,,,,,,,,,,,,,,,,,,,,,,,,,,,500,,,,,,,,,,,,,,,,,,,,,2,5,,,273.9551,5,left,0.6469,,0.5,0.3,"[3,1,2]",0.773420912,stimuli/card_0_transparent.png,0,5,0,5,0,1,,,,,,,,,,
,,,,5b72e0698bca7e000103215c,A,2024-07-09_12h40.39.065,Slot Machine Game,2023.1.3,Win32,59.88023952,,,,,,,,,,,,,,,,,,,,,,,,,,,510,,,,,,,,,,,,,,,,,,,,,2,5,,,275.9215,6,right,0.9892,,0.5,0.3,"[3,1,2]",0.629707953,stimuli/card_10_transparent.png,10,6,0,6,0,1,,,,,,,,,,
,,,,5b72e0698bca7e000103215c,A,2024-07-09_12h40.39.065,Slot Machine Game,2023.1.3,Win32,59.88023952,,,,,,,,,,,,,,,,,,,,,,,,,,,610,,,,,,,,,,,,,,,,,,,,,2,5,,,278.2217,7,up,0.3905,,1,0.3,"[3,1,2]",0.817031993,stimuli/card_100_transparent.png,100,7,0,7,0,1,,,,,,,,,,
,,,,5b72e0698bca7e000103215c,A,2024-07-09_12h40.39.065,Slot Machine Game,2023.1.3,Win32,59.88023952,,,,,,,,,,,,,,,,,,,,,,,,,,,610,,,,,,,,,,,,,,,,,,,,,2,5,,,280.4383,8,up,0.2669,,1.5,0.3,"[3,1,2]",0.02814045,stimuli/card_0_transparent.png,0,8,0,8,0,1,,,,,,,,,,
,,,,5b72e0698bca7e000103215c,A,2024-07-09_12h40.39.065,Slot Machine Game,2023.1.3,Win32,59.88023952,,,,,,,,,,,,,,,,,,,,,,,,,,,610,,,,,,,,,,,,,,,,,,,,,2,5,,,283.0382,9,left,0.0544,,0.5,0.3,"[3,1,2]",0.264043691,stimuli/card_0_transparent.png,0,9,0,9,0,1,,,,,,,,,,
,,,,5b72e0698bca7e000103215c,A,2024-07-09_12h40.39.065,Slot Machine Game,2023.1.3,Win32,59.88023952,,,,,,,,,,,,,,,,,,,,,,,,,,,620,,,,,,,,,,,,,,,,,,,,,2,5,,,284.4053,10,right,0.1813,,1,0.3,"[3,1,2]",0.475382961,stimuli/card_10_transparent.png,10,10,0,10,0,1,,,,,,,,,,
,,,,5b72e0698bca7e000103215c,A,2024-07-09_12h40.39.065,Slot Machine Game,2023.1.3,Win32,59.88023952,,,,,,,,,,,,,,,,,,,,,,,,,,,720,,,,,,,,,,,,,,,,,,,,,2,5,,,286.4048,11,up,0.334,,1.5,0.3,"[3,1,2]",0.231302328,stimuli/card_100_transparent.png,100,11,0,11,0,1,,,,,,,,,,
,,,,5b72e0698bca7e000103215c,A,2024-07-09_12h40.39.065,Slot Machine Game,2023.1.3,Win32,59.88023952,,,,,,,,,,,,,,,,,,,,,,,,,,,730,,,,,,,,,,,,,,,,,,,,,2,5,,,289.0715,12,up,0.3228,,1,0.3,"[3,1,2]",0.110662402,stimuli/card_10_transparent.png,10,12,0,12,0,1,,,,,,,,,,
,,,,5b72e0698bca7e000103215c,A,2024-07-09_12h40.39.065,Slot Machine Game,2023.1.3,Win32,59.88023952,,,,,,,,,,,,,,,,,,,,,,,,,,,740,,,,,,,,,,,,,,,,,,,,,2,5,,,291.2214,13,right,0.311,,1,0.3,"[3,1,2]",0.52885057,stimuli/card_10_transparent.png,10,13,0,13,0,1,,,,,,,,,,
,,,,5b72e0698bca7e000103215c,A,2024-07-09_12h40.39.065,Slot Machine Game,2023.1.3,Win32,59.88023952,,,,,,,,,,,,,,,,,,,,,,,,,,,740,,,,,,,,,,,,,,,,,,,,,2,5,,,293.3549,14,left,0.3341,,1,0.3,"[3,1,2]",0.942264212,stimuli/card_0_transparent.png,0,14,0,14,0,1,,,,,,,,,,
,,,,5b72e0698bca7e000103215c,A,2024-07-09_12h40.39.065,Slot Machine Game,2023.1.3,Win32,59.88023952,,,,,,,,,,,,,,,,,,,,,,,,,,,,,,,,,,,295.5217,,,,,,,,,,,,,,,,,,,,,,,,,,,,,,,,,"[170,740]",1,0,1,0,1,,,,
,,,,5b72e0698bca7e000103215c,A,2024-07-09_12h40.39.065,Slot Machine Game,2023.1.3,Win32,59.88023952,,,,,,,,,,,,,,,,,,,,,,,,,,,10,,,,,,,,,,,,,,,,,,,,,3,7,"[9,15]","[[1,3,2],[2,3,1]]",300.5286,0,right,0.197,,1.5,0.3,"[1,3,2]",0.563683351,stimuli/card_10_transparent.png,10,0,0,0,0,1,,,,,,,,,,
,,,,5b72e0698bca7e000103215c,A,2024-07-09_12h40.39.065,Slot Machine Game,2023.1.3,Win32,59.88023952,,,,,,,,,,,,,,,,,,,,,,,,,,,110,,,,,,,,,,,,,,,,,,,,,3,7,,,303.038,1,left,0.5389,,1.5,0.3,"[1,3,2]",0.977947773,stimuli/card_100_transparent.png,100,1,0,1,0,1,,,,,,,,,,
,,,,5b72e0698bca7e000103215c,A,2024-07-09_12h40.39.065,Slot Machine Game,2023.1.3,Win32,59.88023952,,,,,,,,,,,,,,,,,,,,,,,,,,,120,,,,,,,,,,,,,,,,,,,,,3,7,,,305.8879,2,left,0.0485,,0.5,0.3,"[1,3,2]",0.131361853,stimuli/card_10_transparent.png,10,2,0,2,0,1,,,,,,,,,,
,,,,5b72e0698bca7e000103215c,A,2024-07-09_12h40.39.065,Slot Machine Game,2023.1.3,Win32,59.88023952,,,,,,,,,,,,,,,,,,,,,,,,,,,130,,,,,,,,,,,,,,,,,,,,,3,7,,,307.2544,3,left,1.1043,,1.5,0.3,"[1,3,2]",0.153023949,stimuli/card_10_transparent.png,10,3,0,3,0,1,,,,,,,,,,
,,,,5b72e0698bca7e000103215c,A,2024-07-09_12h40.39.065,Slot Machine Game,2023.1.3,Win32,59.88023952,,,,,,,,,,,,,,,,,,,,,,,,,,,130,,,,,,,,,,,,,,,,,,,,,3,7,,,310.6711,4,up,0.3596,,0.5,0.3,"[1,3,2]",0.217152379,stimuli/card_0_transparent.png,0,4,0,4,0,1,,,,,,,,,,
,,,,5b72e0698bca7e000103215c,A,2024-07-09_12h40.39.065,Slot Machine Game,2023.1.3,Win32,59.88023952,,,,,,,,,,,,,,,,,,,,,,,,,,,130,,,,,,,,,,,,,,,,,,,,,3,7,,,312.3379,5,right,0.2205,,1.5,0.3,"[1,3,2]",0.089024729,stimuli/card_0_transparent.png,0,5,0,5,0,1,,,,,,,,,,
,,,,5b72e0698bca7e000103215c,A,2024-07-09_12h40.39.065,Slot Machine Game,2023.1.3,Win32,59.88023952,,,,,,,,,,,,,,,,,,,,,,,,,,,230,,,,,,,,,,,,,,,,,,,,,3,7,,,314.8878,6,left,0.5009,,1.5,0.3,"[1,3,2]",0.292995764,stimuli/card_100_transparent.png,100,6,0,6,0,1,,,,,,,,,,
,,,,5b72e0698bca7e000103215c,A,2024-07-09_12h40.39.065,Slot Machine Game,2023.1.3,Win32,59.88023952,,,,,,,,,,,,,,,,,,,,,,,,,,,330,,,,,,,,,,,,,,,,,,,,,3,7,,,317.7214,7,left,0.295,,1.5,0.3,"[1,3,2]",0.769555474,stimuli/card_100_transparent.png,100,7,0,7,0,1,,,,,,,,,,
,,,,5b72e0698bca7e000103215c,A,2024-07-09_12h40.39.065,Slot Machine Game,2023.1.3,Win32,59.88023952,,,,,,,,,,,,,,,,,,,,,,,,,,,430,,,,,,,,,,,,,,,,,,,,,3,7,,,320.3377,8,left,1.0086,,0.5,0.3,"[1,3,2]",0.202374899,stimuli/card_100_transparent.png,100,8,0,8,0,1,,,,,,,,,,
,,,,5b72e0698bca7e000103215c,A,2024-07-09_12h40.39.065,Slot Machine Game,2023.1.3,Win32,59.88023952,,,,,,,,,,,,,,,,,,,,,,,,,,,440,,,,,,,,,,,,,,,,,,,,,3,7,,,322.6711,9,left,0.0936,,1.5,0.3,"[2,3,1]",0.598670877,stimuli/card_10_transparent.png,10,9,0,9,0,1,,,,,,,,,,
,,,,5b72e0698bca7e000103215c,A,2024-07-09_12h40.39.065,Slot Machine Game,2023.1.3,Win32,59.88023952,,,,,,,,,,,,,,,,,,,,,,,,,,,440,,,,,,,,,,,,,,,,,,,,,3,7,,,325.0876,10,up,0.3472,,1,0.3,"[2,3,1]",0.505193742,stimuli/card_0_transparent.png,0,10,0,10,0,1,,,,,,,,,,
,,,,5b72e0698bca7e000103215c,A,2024-07-09_12h40.39.065,Slot Machine Game,2023.1.3,Win32,59.88023952,,,,,,,,,,,,,,,,,,,,,,,,,,,540,,,,,,,,,,,,,,,,,,,,,3,7,,,327.2545,11,right,1.9388,,0.5,0.3,"[2,3,1]",0.492730379,stimuli/card_100_transparent.png,100,11,0,11,0,1,,,,,,,,,,
,,,,5b72e0698bca7e000103215c,A,2024-07-09_12h40.39.065,Slot Machine Game,2023.1.3,Win32,59.88023952,,,,,,,,,,,,,,,,,,,,,,,,,,,640,,,,,,,,,,,,,,,,,,,,,3,7,,,330.5212,12,right,0.0471,,0.5,0.3,"[2,3,1]",0.491672886,stimuli/card_100_transparent.png,100,12,0,12,0,1,,,,,,,,,,
,,,,5b72e0698bca7e000103215c,A,2024-07-09_12h40.39.065,Slot Machine Game,2023.1.3,Win32,59.88023952,,,,,,,,,,,,,,,,,,,,,,,,,,,740,,,,,,,,,,,,,,,,,,,,,3,7,,,331.8877,13,right,0.343,,0.5,0.3,"[2,3,1]",0.782751409,stimuli/card_100_transparent.png,100,13,0,13,0,1,,,,,,,,,,
,,,,5b72e0698bca7e000103215c,A,2024-07-09_12h40.39.065,Slot Machine Game,2023.1.3,Win32,59.88023952,,,,,,,,,,,,,,,,,,,,,,,,,,,840,,,,,,,,,,,,,,,,,,,,,3,7,,,333.5543,14,right,0.0565,,1,0.3,"[2,3,1]",0.565835936,stimuli/card_100_transparent.png,100,14,0,14,0,1,,,,,,,,,,
,,,,5b72e0698bca7e000103215c,A,2024-07-09_12h40.39.065,Slot Machine Game,2023.1.3,Win32,59.88023952,,,,,,,,,,,,,,,,,,,,,,,,,,,,,,,,,,,335.421,,,,,,,,,,,,,,,,,,,,,,,,,,,,,,,,,"[170,740,840]",2,0,2,0,1,,,,
,,,,5b72e0698bca7e000103215c,A,2024-07-09_12h40.39.065,Slot Machine Game,2023.1.3,Win32,59.88023952,,,,,,,,,,,,,,,,,,,,,,,,,,,10,,,,,,,,,,,,,,,,,,,,,4,4,"[7,15]","[[2,3,1],[1,2,3]]",340.4282,0,right,0.4553,,0.5,0.3,"[2,3,1]",0.143088891,stimuli/card_10_transparent.png,10,0,0,0,0,1,,,,,,,,,,
,,,,5b72e0698bca7e000103215c,A,2024-07-09_12h40.39.065,Slot Machine Game,2023.1.3,Win32,59.88023952,,,,,,,,,,,,,,,,,,,,,,,,,,,20,,,,,,,,,,,,,,,,,,,,,4,4,,,342.2042,1,left,0.172,,0.5,0.3,"[2,3,1]",0.908427352,stimuli/card_10_transparent.png,10,1,0,1,0,1,,,,,,,,,,
,,,,5b72e0698bca7e000103215c,A,2024-07-09_12h40.39.065,Slot Machine Game,2023.1.3,Win32,59.88023952,,,,,,,,,,,,,,,,,,,,,,,,,,,120,,,,,,,,,,,,,,,,,,,,,4,4,,,343.7045,2,up,0.4999,,1,0.3,"[2,3,1]",0.048153913,stimuli/card_100_transparent.png,100,2,0,2,0,1,,,,,,,,,,
,,,,5b72e0698bca7e000103215c,A,2024-07-09_12h40.39.065,Slot Machine Game,2023.1.3,Win32,59.88023952,,,,,,,,,,,,,,,,,,,,,,,,,,,120,,,,,,,,,,,,,,,,,,,,,4,4,,,346.0373,3,up,0.1335,,1.5,0.3,"[2,3,1]",0.954437616,stimuli/card_0_transparent.png,0,3,0,3,0,1,,,,,,,,,,
,,,,5b72e0698bca7e000103215c,A,2024-07-09_12h40.39.065,Slot Machine Game,2023.1.3,Win32,59.88023952,,,,,,,,,,,,,,,,,,,,,,,,,,,220,,,,,,,,,,,,,,,,,,,,,4,4,,,348.4874,4,right,0.4429,,0.5,0.3,"[2,3,1]",0.964109569,stimuli/card_100_transparent.png,100,4,0,4,0,1,,,,,,,,,,
,,,,5b72e0698bca7e000103215c,A,2024-07-09_12h40.39.065,Slot Machine Game,2023.1.3,Win32,59.88023952,,,,,,,,,,,,,,,,,,,,,,,,,,,320,,,,,,,,,,,,,,,,,,,,,4,4,,,350.2541,5,right,0.246,,0.5,0.3,"[2,3,1]",0.653462091,stimuli/card_100_transparent.png,100,5,0,5,0,1,,,,,,,,,,
,,,,5b72e0698bca7e000103215c,A,2024-07-09_12h40.39.065,Slot Machine Game,2023.1.3,Win32,59.88023952,,,,,,,,,,,,,,,,,,,,,,,,,,,420,,,,,,,,,,,,,,,,,,,,,4,4,,,351.8206,6,right,0.1037,,0.5,0.3,"[2,3,1]",0.967426945,stimuli/card_100_transparent.png,100,6,0,6,0,1,,,,,,,,,,
,,,,5b72e0698bca7e000103215c,A,2024-07-09_12h40.39.065,Slot Machine Game,2023.1.3,Win32,59.88023952,,,,,,,,,,,,,,,,,,,,,,,,,,,420,,,,,,,,,,,,,,,,,,,,,4,4,,,353.2541,7,right,0.4384,,1,0.3,"[1,2,3]",0.810870926,stimuli/card_0_transparent.png,0,7,0,7,0,1,,,,,,,,,,
,,,,5b72e0698bca7e000103215c,A,2024-07-09_12h40.39.065,Slot Machine Game,2023.1.3,Win32,59.88023952,,,,,,,,,,,,,,,,,,,,,,,,,,,420,,,,,,,,,,,,,,,,,,,,,4,4,,,355.5207,8,up,0.5394,,1,0.3,"[1,2,3]",0.022518199,stimuli/card_0_transparent.png,0,8,0,8,0,1,,,,,,,,,,
,,,,5b72e0698bca7e000103215c,A,2024-07-09_12h40.39.065,Slot Machine Game,2023.1.3,Win32,59.88023952,,,,,,,,,,,,,,,,,,,,,,,,,,,520,,,,,,,,,,,,,,,,,,,,,4,4,,,357.8874,9,left,0.3513,,1,0.3,"[1,2,3]",0.995573459,stimuli/card_100_transparent.png,100,9,0,9,0,1,,,,,,,,,,
,,,,5b72e0698bca7e000103215c,A,2024-07-09_12h40.39.065,Slot Machine Game,2023.1.3,Win32,59.88023952,,,,,,,,,,,,,,,,,,,,,,,,,,,520,,,,,,,,,,,,,,,,,,,,,4,4,,,360.0705,10,left,0.3198,,1.5,0.3,"[1,2,3]",0.07068243,stimuli/card_0_transparent.png,0,10,0,10,0,1,,,,,,,,,,
,,,,5b72e0698bca7e000103215c,A,2024-07-09_12h40.39.065,Slot Machine Game,2023.1.3,Win32,59.88023952,,,,,,,,,,,,,,,,,,,,,,,,,,,520,,,,,,,,,,,,,,,,,,,,,4,4,,,362.7206,11,right,0.2556,,1,0.3,"[1,2,3]",0.660903352,stimuli/card_0_transparent.png,0,11,0,11,0,1,,,,,,,,,,
,,,,5b72e0698bca7e000103215c,A,2024-07-09_12h40.39.065,Slot Machine Game,2023.1.3,Win32,59.88023952,,,,,,,,,,,,,,,,,,,,,,,,,,,530,,,,,,,,,,,,,,,,,,,,,4,4,,,364.8038,12,up,0.0561,,1,0.3,"[1,2,3]",0.418940142,stimuli/card_10_transparent.png,10,12,0,12,0,1,,,,,,,,,,
,,,,5b72e0698bca7e000103215c,A,2024-07-09_12h40.39.065,Slot Machine Game,2023.1.3,Win32,59.88023952,,,,,,,,,,,,,,,,,,,,,,,,,,,630,,,,,,,,,,,,,,,,,,,,,4,4,,,366.6872,13,left,0.1772,,1,0.3,"[1,2,3]",0.942618488,stimuli/card_100_transparent.png,100,13,0,13,0,1,,,,,,,,,,
,,,,5b72e0698bca7e000103215c,A,2024-07-09_12h40.39.065,Slot Machine Game,2023.1.3,Win32,59.88023952,,,,,,,,,,,,,,,,,,,,,,,,,,,730,,,,,,,,,,,,,,,,,,,,,4,4,,,368.6705,14,left,0.06,,1,0.3,"[1,2,3]",0.635610464,stimuli/card_100_transparent.png,100,14,0,14,0,1,,,,,,,,,,
,,,,5b72e0698bca7e000103215c,A,2024-07-09_12h40.39.065,Slot Machine Game,2023.1.3,Win32,59.88023952,,,,,,,,,,,,,,,,,,,,,,,,,,,,,,,,,,,370.5538,,,,,,,,,,,,,,,,,,,,,,,,,,,,,,,,,"[170,740,840,730]",3,0,3,0,1,,,,
,,,,5b72e0698bca7e000103215c,A,2024-07-09_12h40.39.065,Slot Machine Game,2023.1.3,Win32,59.88023952,,,,,,,,,,,,,,,,,,,,,,,,,,,100,,,,,,,,,,,,,,,,,,,,,5,6,"[4,10,15]","[[2,3,1],[1,3,2],[3,2,1]]",375.5614,0,right,2.1263,,0.5,0.3,"[2,3,1]",0.391523782,stimuli/card_100_transparent.png,100,0,0,0,0,1,,,,,,,,,,
,,,,5b72e0698bca7e000103215c,A,2024-07-09_12h40.39.065,Slot Machine Game,2023.1.3,Win32,59.88023952,,,,,,,,,,,,,,,,,,,,,,,,,,,200,,,,,,,,,,,,,,,,,,,,,5,6,,,379.0037,1,right,0.2763,,1,0.3,"[2,3,1]",0.686867919,stimuli/card_100_transparent.png,100,1,0,1,0,1,,,,,,,,,,
,,,,5b72e0698bca7e000103215c,A,2024-07-09_12h40.39.065,Slot Machine Game,2023.1.3,Win32,59.88023952,,,,,,,,,,,,,,,,,,,,,,,,,,,300,,,,,,,,,,,,,,,,,,,,,5,6,,,381.1038,2,right,0.1462,,1.5,0.3,"[2,3,1]",0.881564339,stimuli/card_100_transparent.png,100,2,0,2,0,1,,,,,,,,,,
,,,,5b72e0698bca7e000103215c,A,2024-07-09_12h40.39.065,Slot Machine Game,2023.1.3,Win32,59.88023952,,,,,,,,,,,,,,,,,,,,,,,,,,,300,,,,,,,,,,,,,,,,,,,,,5,6,,,383.5704,3,right,0.1958,,1,0.3,"[2,3,1]",0.067711521,stimuli/card_0_transparent.png,0,3,0,3,0,1,,,,,,,,,,
,,,,5b72e0698bca7e000103215c,A,2024-07-09_12h40.39.065,Slot Machine Game,2023.1.3,Win32,59.88023952,,,,,,,,,,,,,,,,,,,,,,,,,,,310,,,,,,,,,,,,,,,,,,,,,5,6,,,385.5868,4,right,0.1556,,0.5,0.3,"[1,3,2]",0.209143397,stimuli/card_10_transparent.png,10,4,0,4,0,1,,,,,,,,,,
,,,,5b72e0698bca7e000103215c,A,2024-07-09_12h40.39.065,Slot Machine Game,2023.1.3,Win32,59.88023952,,,,,,,,,,,,,,,,,,,,,,,,,,,320,,,,,,,,,,,,,,,,,,,,,5,6,,,387.0536,5,right,0.2226,,1,0.3,"[1,3,2]",0.979638418,stimuli/card_10_transparent.png,10,5,0,5,0,1,,,,,,,,,,
,,,,5b72e0698bca7e000103215c,A,2024-07-09_12h40.39.065,Slot Machine Game,2023.1.3,Win32,59.88023952,,,,,,,,,,,,,,,,,,,,,,,,,,,330,,,,,,,,,,,,,,,,,,,,,5,6,,,389.1035,6,right,0.0174,,0.5,0.3,"[1,3,2]",0.943032651,stimuli/card_10_transparent.png,10,6,0,6,0,1,,,,,,,,,,
,,,,5b72e0698bca7e000103215c,A,2024-07-09_12h40.39.065,Slot Machine Game,2023.1.3,Win32,59.88023952,,,,,,,,,,,,,,,,,,,,,,,,,,,340,,,,,,,,,,,,,,,,,,,,,5,6,,,390.4536,7,right,0.1311,,0.5,0.3,"[1,3,2]",0.994842214,stimuli/card_10_transparent.png,10,7,0,7,0,1,,,,,,,,,,
,,,,5b72e0698bca7e000103215c,A,2024-07-09_12h40.39.065,Slot Machine Game,2023.1.3,Win32,59.88023952,,,,,,,,,,,,,,,,,,,,,,,,,,,340,,,,,,,,,,,,,,,,,,,,,5,6,,,391.9035,8,right,0.1091,,1.5,0.3,"[1,3,2]",0.065018307,stimuli/card_0_transparent.png,0,8,0,8,0,1,,,,,,,,,,
,,,,5b72e0698bca7e000103215c,A,2024-07-09_12h40.39.065,Slot Machine Game,2023.1.3,Win32,59.88023952,,,,,,,,,,,,,,,,,,,,,,,,,,,350,,,,,,,,,,,,,,,,,,,,,5,6,,,394.3207,9,right,0.142,,1.5,0.3,"[1,3,2]",0.33439672,stimuli/card_10_transparent.png,10,9,0,9,0,1,,,,,,,,,,
,,,,5b72e0698bca7e000103215c,A,2024-07-09_12h40.39.065,Slot Machine Game,2023.1.3,Win32,59.88023952,,,,,,,,,,,,,,,,,,,,,,,,,,,360,,,,,,,,,,,,,,,,,,,,,5,6,,,396.7871,10,right,0.2034,,1,0.3,"[3,2,1]",0.151140668,stimuli/card_10_transparent.png,10,10,0,10,0,1,,,,,,,,,,
,,,,5b72e0698bca7e000103215c,A,2024-07-09_12h40.39.065,Slot Machine Game,2023.1.3,Win32,59.88023952,,,,,,,,,,,,,,,,,,,,,,,,,,,460,,,,,,,,,,,,,,,,,,,,,5,6,,,398.8201,11,right,0.1103,,1.5,0.3,"[3,2,1]",0.359336342,stimuli/card_100_transparent.png,100,11,0,11,0,1,,,,,,,,,,
,,,,5b72e0698bca7e000103215c,A,2024-07-09_12h40.39.065,Slot Machine Game,2023.1.3,Win32,59.88023952,,,,,,,,,,,,,,,,,,,,,,,,,,,560,,,,,,,,,,,,,,,,,,,,,5,6,,,401.2538,12,right,0.1228,,1.5,0.3,"[3,2,1]",0.411127684,stimuli/card_100_transparent.png,100,12,0,12,0,1,,,,,,,,,,
,,,,5b72e0698bca7e000103215c,A,2024-07-09_12h40.39.065,Slot Machine Game,2023.1.3,Win32,59.88023952,,,,,,,,,,,,,,,,,,,,,,,,,,,660,,,,,,,,,,,,,,,,,,,,,5,6,,,403.7035,13,right,0.1608,,1.5,0.3,"[3,2,1]",0.56691981,stimuli/card_100_transparent.png,100,13,0,13,0,1,,,,,,,,,,
,,,,5b72e0698bca7e000103215c,A,2024-07-09_12h40.39.065,Slot Machine Game,2023.1.3,Win32,59.88023952,,,,,,,,,,,,,,,,,,,,,,,,,,,760,,,,,,,,,,,,,,,,,,,,,5,6,,,406.1867,14,right,0.1792,,1,0.3,"[3,2,1]",0.941926827,stimuli/card_100_transparent.png,100,14,0,14,0,1,,,,,,,,,,
,,,,5b72e0698bca7e000103215c,A,2024-07-09_12h40.39.065,Slot Machine Game,2023.1.3,Win32,59.88023952,,,,,,,,,,,,,,,,,,,,,,,,,,,,,,,,,,,408.1867,,,,,,,,,,,,,,,,,,,,,,,,,,,,,,,,,"[170,740,840,730,760]",4,0,4,0,1,,,,
,,,,5b72e0698bca7e000103215c,A,2024-07-09_12h40.39.065,Slot Machine Game,2023.1.3,Win32,59.88023952,,,,,,,,,,,,,,,,,,,,,,,,,,,10,,,,,,,,,,,,,,,,,,,,,6,8,"[11,15]","[[2,1,3],[1,2,3]]",413.1939,0,left,0.2097,,1,0.3,"[2,1,3]",0.808501649,stimuli/card_10_transparent.png,10,0,0,0,0,1,,,,,,,,,,
,,,,5b72e0698bca7e000103215c,A,2024-07-09_12h40.39.065,Slot Machine Game,2023.1.3,Win32,59.88023952,,,,,,,,,,,,,,,,,,,,,,,,,,,10,,,,,,,,,,,,,,,,,,,,,6,8,,,415.2199,1,right,0.2961,,1,0.3,"[2,1,3]",0.460092994,stimuli/card_0_transparent.png,0,1,0,1,0,1,,,,,,,,,,
,,,,5b72e0698bca7e000103215c,A,2024-07-09_12h40.39.065,Slot Machine Game,2023.1.3,Win32,59.88023952,,,,,,,,,,,,,,,,,,,,,,,,,,,10,,,,,,,,,,,,,,,,,,,,,6,8,,,417.3366,2,up,0.2856,,0.5,0.3,"[2,1,3]",0.06237441,stimuli/card_0_transparent.png,0,2,0,2,0,1,,,,,,,,,,
,,,,5b72e0698bca7e000103215c,A,2024-07-09_12h40.39.065,Slot Machine Game,2023.1.3,Win32,59.88023952,,,,,,,,,,,,,,,,,,,,,,,,,,,20,,,,,,,,,,,,,,,,,,,,,6,8,,,418.9532,3,left,0.2193,,1.5,0.3,"[2,1,3]",0.574227259,stimuli/card_10_transparent.png,10,3,0,3,0,1,,,,,,,,,,
,,,,5b72e0698bca7e000103215c,A,2024-07-09_12h40.39.065,Slot Machine Game,2023.1.3,Win32,59.88023952,,,,,,,,,,,,,,,,,,,,,,,,,,,20,,,,,,,,,,,,,,,,,,,,,6,8,,,421.5032,4,left,0.0512,,1.5,0.3,"[2,1,3]",0.08893411,stimuli/card_0_transparent.png,0,4,0,4,0,1,,,,,,,,,,
,,,,5b72e0698bca7e000103215c,A,2024-07-09_12h40.39.065,Slot Machine Game,2023.1.3,Win32,59.88023952,,,,,,,,,,,,,,,,,,,,,,,,,,,20,,,,,,,,,,,,,,,,,,,,,6,8,,,423.8866,5,right,0.0618,,1,0.3,"[2,1,3]",0.617364745,stimuli/card_0_transparent.png,0,5,0,5,0,1,,,,,,,,,,
,,,,5b72e0698bca7e000103215c,A,2024-07-09_12h40.39.065,Slot Machine Game,2023.1.3,Win32,59.88023952,,,,,,,,,,,,,,,,,,,,,,,,,,,120,,,,,,,,,,,,,,,,,,,,,6,8,,,425.7697,6,up,0.7977,,1,0.3,"[2,1,3]",0.55464762,stimuli/card_100_transparent.png,100,6,0,6,0,1,,,,,,,,,,
,,,,5b72e0698bca7e000103215c,A,2024-07-09_12h40.39.065,Slot Machine Game,2023.1.3,Win32,59.88023952,,,,,,,,,,,,,,,,,,,,,,,,,,,220,,,,,,,,,,,,,,,,,,,,,6,8,,,428.3864,7,up,0.0143,,1.5,0.3,"[2,1,3]",0.392322797,stimuli/card_100_transparent.png,100,7,0,7,0,1,,,,,,,,,,
,,,,5b72e0698bca7e000103215c,A,2024-07-09_12h40.39.065,Slot Machine Game,2023.1.3,Win32,59.88023952,,,,,,,,,,,,,,,,,,,,,,,,,,,320,,,,,,,,,,,,,,,,,,,,,6,8,,,430.7197,8,up,0.0548,,1,0.3,"[2,1,3]",0.639265149,stimuli/card_100_transparent.png,100,8,0,8,0,1,,,,,,,,,,
,,,,5b72e0698bca7e000103215c,A,2024-07-09_12h40.39.065,Slot Machine Game,2023.1.3,Win32,59.88023952,,,,,,,,,,,,,,,,,,,,,,,,,,,420,,,,,,,,,,,,,,,,,,,,,6,8,,,432.603,9,up,0.2674,,0.5,0.3,"[2,1,3]",0.603689439,stimuli/card_100_transparent.png,100,9,0,9,0,1,,,,,,,,,,
,,,,5b72e0698bca7e000103215c,A,2024-07-09_12h40.39.065,Slot Machine Game,2023.1.3,Win32,59.88023952,,,,,,,,,,,,,,,,,,,,,,,,,,,520,,,,,,,,,,,,,,,,,,,,,6,8,,,434.203,10,up,0.1351,,1.5,0.3,"[2,1,3]",0.446983471,stimuli/card_100_transparent.png,100,10,0,10,0,1,,,,,,,,,,
,,,,5b72e0698bca7e000103215c,A,2024-07-09_12h40.39.065,Slot Machine Game,2023.1.3,Win32,59.88023952,,,,,,,,,,,,,,,,,,,,,,,,,,,530,,,,,,,,,,,,,,,,,,,,,6,8,,,436.6696,11,up,0.0667,,0.5,0.3,"[1,2,3]",0.615699155,stimuli/card_10_transparent.png,10,11,0,11,0,1,,,,,,,,,,
,,,,5b72e0698bca7e000103215c,A,2024-07-09_12h40.39.065,Slot Machine Game,2023.1.3,Win32,59.88023952,,,,,,,,,,,,,,,,,,,,,,,,,,,630,,,,,,,,,,,,,,,,,,,,,6,8,,,438.0697,12,left,0.4144,,0.5,0.3,"[1,2,3]",0.506410976,stimuli/card_100_transparent.png,100,12,0,12,0,1,,,,,,,,,,
,,,,5b72e0698bca7e000103215c,A,2024-07-09_12h40.39.065,Slot Machine Game,2023.1.3,Win32,59.88023952,,,,,,,,,,,,,,,,,,,,,,,,,,,630,,,,,,,,,,,,,,,,,,,,,6,8,,,439.8029,13,right,0.3375,,1,0.3,"[1,2,3]",0.873329977,stimuli/card_0_transparent.png,0,13,0,13,0,1,,,,,,,,,,
,,,,5b72e0698bca7e000103215c,A,2024-07-09_12h40.39.065,Slot Machine Game,2023.1.3,Win32,59.88023952,,,,,,,,,,,,,,,,,,,,,,,,,,,730,,,,,,,,,,,,,,,,,,,,,6,8,,,441.9696,14,left,0.0452,,0.5,0.3,"[1,2,3]",0.903262666,stimuli/card_100_transparent.png,100,14,0,14,0,1,,,,,,,,,,
,,,,5b72e0698bca7e000103215c,A,2024-07-09_12h40.39.065,Slot Machine Game,2023.1.3,Win32,59.88023952,,,,,,,,,,,,,,,,,,,,,,,,,,,,,,,,,,,443.3361,,,,,,,,,,,,,,,,,,,,,,,,,,,,,,,,,"[170,740,840,730,760,730]",5,0,5,0,1,,,,
,,,,5b72e0698bca7e000103215c,A,2024-07-09_12h40.39.065,Slot Machine Game,2023.1.3,Win32,59.88023952,,,,,,,,,,,,,,,,,,,,,,,,,,,10,,,,,,,,,,,,,,,,,,,,,7,9,"[8,15]","[[3,2,1],[3,1,2]]",448.343,0,up,0.0166,,1,0.3,"[3,2,1]",0.566169246,stimuli/card_10_transparent.png,10,0,0,0,0,1,,,,,,,,,,
,,,,5b72e0698bca7e000103215c,A,2024-07-09_12h40.39.065,Slot Machine Game,2023.1.3,Win32,59.88023952,,,,,,,,,,,,,,,,,,,,,,,,,,,10,,,,,,,,,,,,,,,,,,,,,7,9,,,450.1861,1,left,0.178,,0.5,0.3,"[3,2,1]",0.963492684,stimuli/card_0_transparent.png,0,1,0,1,0,1,,,,,,,,,,
,,,,5b72e0698bca7e000103215c,A,2024-07-09_12h40.39.065,Slot Machine Game,2023.1.3,Win32,59.88023952,,,,,,,,,,,,,,,,,,,,,,,,,,,110,,,,,,,,,,,,,,,,,,,,,7,9,,,451.6861,2,right,0.1139,,1,0.3,"[3,2,1]",0.235147152,stimuli/card_100_transparent.png,100,2,0,2,0,1,,,,,,,,,,
,,,,5b72e0698bca7e000103215c,A,2024-07-09_12h40.39.065,Slot Machine Game,2023.1.3,Win32,59.88023952,,,,,,,,,,,,,,,,,,,,,,,,,,,210,,,,,,,,,,,,,,,,,,,,,7,9,,,453.6195,3,right,0.0809,,1.5,0.3,"[3,2,1]",0.697285691,stimuli/card_100_transparent.png,100,3,0,3,0,1,,,,,,,,,,
,,,,5b72e0698bca7e000103215c,A,2024-07-09_12h40.39.065,Slot Machine Game,2023.1.3,Win32,59.88023952,,,,,,,,,,,,,,,,,,,,,,,,,,,210,,,,,,,,,,,,,,,,,,,,,7,9,,,456.0196,4,left,0.5113,,0.5,0.3,"[3,2,1]",0.802286325,stimuli/card_0_transparent.png,0,4,0,4,0,1,,,,,,,,,,
,,,,5b72e0698bca7e000103215c,A,2024-07-09_12h40.39.065,Slot Machine Game,2023.1.3,Win32,59.88023952,,,,,,,,,,,,,,,,,,,,,,,,,,,220,,,,,,,,,,,,,,,,,,,,,7,9,,,457.8528,5,up,0.1417,,1.5,0.3,"[3,2,1]",0.67952067,stimuli/card_10_transparent.png,10,5,0,5,0,1,,,,,,,,,,
,,,,5b72e0698bca7e000103215c,A,2024-07-09_12h40.39.065,Slot Machine Game,2023.1.3,Win32,59.88023952,,,,,,,,,,,,,,,,,,,,,,,,,,,230,,,,,,,,,,,,,,,,,,,,,7,9,,,460.3193,6,right,0.1337,,1,0.3,"[3,2,1]",0.185000414,stimuli/card_10_transparent.png,10,6,0,6,0,1,,,,,,,,,,
,,,,5b72e0698bca7e000103215c,A,2024-07-09_12h40.39.065,Slot Machine Game,2023.1.3,Win32,59.88023952,,,,,,,,,,,,,,,,,,,,,,,,,,,230,,,,,,,,,,,,,,,,,,,,,7,9,,,462.286,7,left,0.1144,,1,0.3,"[3,2,1]",0.744958526,stimuli/card_0_transparent.png,0,7,0,7,0,1,,,,,,,,,,
,,,,5b72e0698bca7e000103215c,A,2024-07-09_12h40.39.065,Slot Machine Game,2023.1.3,Win32,59.88023952,,,,,,,,,,,,,,,,,,,,,,,,,,,240,,,,,,,,,,,,,,,,,,,,,7,9,,,464.2192,8,up,0.0049,,0.5,0.3,"[3,1,2]",0.136473278,stimuli/card_10_transparent.png,10,8,0,8,0,1,,,,,,,,,,
,,,,5b72e0698bca7e000103215c,A,2024-07-09_12h40.39.065,Slot Machine Game,2023.1.3,Win32,59.88023952,,,,,,,,,,,,,,,,,,,,,,,,,,,250,,,,,,,,,,,,,,,,,,,,,7,9,,,465.5525,9,right,0.085,,1,0.3,"[3,1,2]",0.655815584,stimuli/card_10_transparent.png,10,9,0,9,0,1,,,,,,,,,,
,,,,5b72e0698bca7e000103215c,A,2024-07-09_12h40.39.065,Slot Machine Game,2023.1.3,Win32,59.88023952,,,,,,,,,,,,,,,,,,,,,,,,,,,250,,,,,,,,,,,,,,,,,,,,,7,9,,,467.4692,10,left,0.0094,,1,0.3,"[3,1,2]",0.582413712,stimuli/card_0_transparent.png,0,10,0,10,0,1,,,,,,,,,,
,,,,5b72e0698bca7e000103215c,A,2024-07-09_12h40.39.065,Slot Machine Game,2023.1.3,Win32,59.88023952,,,,,,,,,,,,,,,,,,,,,,,,,,,350,,,,,,,,,,,,,,,,,,,,,7,9,,,469.2859,11,up,0.0962,,1,0.3,"[3,1,2]",0.821281524,stimuli/card_100_transparent.png,100,11,0,11,0,1,,,,,,,,,,
,,,,5b72e0698bca7e000103215c,A,2024-07-09_12h40.39.065,Slot Machine Game,2023.1.3,Win32,59.88023952,,,,,,,,,,,,,,,,,,,,,,,,,,,450,,,,,,,,,,,,,,,,,,,,,7,9,,,471.2026,12,up,0.0356,,1.5,0.3,"[3,1,2]",0.815695129,stimuli/card_100_transparent.png,100,12,0,12,0,1,,,,,,,,,,
,,,,5b72e0698bca7e000103215c,A,2024-07-09_12h40.39.065,Slot Machine Game,2023.1.3,Win32,59.88023952,,,,,,,,,,,,,,,,,,,,,,,,,,,550,,,,,,,,,,,,,,,,,,,,,7,9,,,473.5691,13,up,0.0228,,1.5,0.3,"[3,1,2]",0.775021657,stimuli/card_100_transparent.png,100,13,0,13,0,1,,,,,,,,,,
,,,,5b72e0698bca7e000103215c,A,2024-07-09_12h40.39.065,Slot Machine Game,2023.1.3,Win32,59.88023952,,,,,,,,,,,,,,,,,,,,,,,,,,,650,,,,,,,,,,,,,,,,,,,,,7,9,,,475.9191,14,up,0.141,,1,0.3,"[3,1,2]",0.986108138,stimuli/card_100_transparent.png,100,14,0,14,0,1,,,,,,,,,,
,,,,5b72e0698bca7e000103215c,A,2024-07-09_12h40.39.065,Slot Machine Game,2023.1.3,Win32,59.88023952,,,,,,,,,,,,,,,,,,,,,,,,,,,,,,,,,,,477.8857,,,,,,,,,,,,,,,,,,,,,,,,,,,,,,,,,"[170,740,840,730,760,730,650]",6,0,6,0,1,,,,
,,,,5b72e0698bca7e000103215c,A,2024-07-09_12h40.39.065,Slot Machine Game,2023.1.3,Win32,59.88023952,,,,,,,,,,,,,,,,,,,,,,,,,,,100,,,,,,,,,,,,,,,,,,,,,8,2,"[6,15]","[[1,3,2],[3,2,1]]",482.893,0,left,0.3484,,1.5,0.3,"[1,3,2]",0.60514469,stimuli/card_100_transparent.png,100,0,0,0,0,1,,,,,,,,,,
,,,,5b72e0698bca7e000103215c,A,2024-07-09_12h40.39.065,Slot Machine Game,2023.1.3,Win32,59.88023952,,,,,,,,,,,,,,,,,,,,,,,,,,,200,,,,,,,,,,,,,,,,,,,,,8,2,,,485.5524,1,left,0.217,,0.5,0.3,"[1,3,2]",0.58167771,stimuli/card_100_transparent.png,100,1,0,1,0,1,,,,,,,,,,
,,,,5b72e0698bca7e000103215c,A,2024-07-09_12h40.39.065,Slot Machine Game,2023.1.3,Win32,59.88023952,,,,,,,,,,,,,,,,,,,,,,,,,,,300,,,,,,,,,,,,,,,,,,,,,8,2,,,487.1025,2,left,0.1216,,1,0.3,"[1,3,2]",0.944331299,stimuli/card_100_transparent.png,100,2,0,2,0,1,,,,,,,,,,
,,,,5b72e0698bca7e000103215c,A,2024-07-09_12h40.39.065,Slot Machine Game,2023.1.3,Win32,59.88023952,,,,,,,,,,,,,,,,,,,,,,,,,,,400,,,,,,,,,,,,,,,,,,,,,8,2,,,489.0523,3,left,0.1159,,0.5,0.3,"[1,3,2]",0.423792074,stimuli/card_100_transparent.png,100,3,0,3,0,1,,,,,,,,,,
,,,,5b72e0698bca7e000103215c,A,2024-07-09_12h40.39.065,Slot Machine Game,2023.1.3,Win32,59.88023952,,,,,,,,,,,,,,,,,,,,,,,,,,,500,,,,,,,,,,,,,,,,,,,,,8,2,,,490.4856,4,left,0.0847,,1,0.3,"[1,3,2]",0.375288298,stimuli/card_100_transparent.png,100,4,0,4,0,1,,,,,,,,,,
,,,,5b72e0698bca7e000103215c,A,2024-07-09_12h40.39.065,Slot Machine Game,2023.1.3,Win32,59.88023952,,,,,,,,,,,,,,,,,,,,,,,,,,,510,,,,,,,,,,,,,,,,,,,,,8,2,,,492.4022,5,right,0.008,,0.5,0.3,"[1,3,2]",0.778450958,stimuli/card_10_transparent.png,10,5,0,5,0,1,,,,,,,,,,
,,,,5b72e0698bca7e000103215c,A,2024-07-09_12h40.39.065,Slot Machine Game,2023.1.3,Win32,59.88023952,,,,,,,,,,,,,,,,,,,,,,,,,,,610,,,,,,,,,,,,,,,,,,,,,8,2,,,493.7357,6,up,0.3106,,1.5,0.3,"[3,2,1]",0.109902036,stimuli/card_100_transparent.png,100,6,0,6,0,1,,,,,,,,,,
,,,,5b72e0698bca7e000103215c,A,2024-07-09_12h40.39.065,Slot Machine Game,2023.1.3,Win32,59.88023952,,,,,,,,,,,,,,,,,,,,,,,,,,,620,,,,,,,,,,,,,,,,,,,,,8,2,,,496.3691,7,up,0.1392,,1,0.3,"[3,2,1]",0.488925824,stimuli/card_10_transparent.png,10,7,0,7,0,1,,,,,,,,,,
,,,,5b72e0698bca7e000103215c,A,2024-07-09_12h40.39.065,Slot Machine Game,2023.1.3,Win32,59.88023952,,,,,,,,,,,,,,,,,,,,,,,,,,,720,,,,,,,,,,,,,,,,,,,,,8,2,,,498.3354,8,left,0.8688,,0.5,0.3,"[3,2,1]",0.072647027,stimuli/card_100_transparent.png,100,8,0,8,0,1,,,,,,,,,,
,,,,5b72e0698bca7e000103215c,A,2024-07-09_12h40.39.065,Slot Machine Game,2023.1.3,Win32,59.88023952,,,,,,,,,,,,,,,,,,,,,,,,,,,720,,,,,,,,,,,,,,,,,,,,,8,2,,,500.5358,9,left,0.0886,,0.5,0.3,"[3,2,1]",0.459325345,stimuli/card_0_transparent.png,0,9,0,9,0,1,,,,,,,,,,
,,,,5b72e0698bca7e000103215c,A,2024-07-09_12h40.39.065,Slot Machine Game,2023.1.3,Win32,59.88023952,,,,,,,,,,,,,,,,,,,,,,,,,,,820,,,,,,,,,,,,,,,,,,,,,8,2,,,501.9521,10,right,0.2334,,1.5,0.3,"[3,2,1]",0.991583282,stimuli/card_100_transparent.png,100,10,0,10,0,1,,,,,,,,,,
,,,,5b72e0698bca7e000103215c,A,2024-07-09_12h40.39.065,Slot Machine Game,2023.1.3,Win32,59.88023952,,,,,,,,,,,,,,,,,,,,,,,,,,,920,,,,,,,,,,,,,,,,,,,,,8,2,,,504.5189,11,right,0.035,,1.5,0.3,"[3,2,1]",0.372630408,stimuli/card_100_transparent.png,100,11,0,11,0,1,,,,,,,,,,
,,,,5b72e0698bca7e000103215c,A,2024-07-09_12h40.39.065,Slot Machine Game,2023.1.3,Win32,59.88023952,,,,,,,,,,,,,,,,,,,,,,,,,,,920,,,,,,,,,,,,,,,,,,,,,8,2,,,506.8688,12,right,0.8131,,1,0.3,"[3,2,1]",0.076313161,stimuli/card_0_transparent.png,0,12,0,12,0,1,,,,,,,,,,
,,,,5b72e0698bca7e000103215c,A,2024-07-09_12h40.39.065,Slot Machine Game,2023.1.3,Win32,59.88023952,,,,,,,,,,,,,,,,,,,,,,,,,,,930,,,,,,,,,,,,,,,,,,,,,8,2,,,509.502,13,up,0.3102,,1.5,0.3,"[3,2,1]",0.224121286,stimuli/card_10_transparent.png,10,13,0,13,0,1,,,,,,,,,,
,,,,5b72e0698bca7e000103215c,A,2024-07-09_12h40.39.065,Slot Machine Game,2023.1.3,Win32,59.88023952,,,,,,,,,,,,,,,,,,,,,,,,,,,930,,,,,,,,,,,,,,,,,,,,,8,2,,,512.1352,14,left,0.1056,,0.5,0.3,"[3,2,1]",0.761479354,stimuli/card_0_transparent.png,0,14,0,14,0,1,,,,,,,,,,
,,,,5b72e0698bca7e000103215c,A,2024-07-09_12h40.39.065,Slot Machine Game,2023.1.3,Win32,59.88023952,,,,,,,,,,,,,,,,,,,,,,,,,,,,,,,,,,,513.552,,,,,,,,,,,,,,,,,,,,,,,,,,,,,,,,,"[170,740,840,730,760,730,650,930]",7,0,7,0,1,,,,
,,,,5b72e0698bca7e000103215c,A,2024-07-09_12h40.39.065,Slot Machine Game,2023.1.3,Win32,59.88023952,,,,,,,,,,,,,,,,,,,,,,,,,,,10,,,,,,,,,,,,,,,,,,,,,9,10,"[10,15]","[[3,1,2],[1,3,2]]",518.559,0,right,3.2281,,1.5,0.3,"[3,1,2]",0.996366597,stimuli/card_10_transparent.png,10,0,0,0,0,1,,,,,,,,,,
,,,,5b72e0698bca7e000103215c,A,2024-07-09_12h40.39.065,Slot Machine Game,2023.1.3,Win32,59.88023952,,,,,,,,,,,,,,,,,,,,,,,,,,,10,,,,,,,,,,,,,,,,,,,,,9,10,,,524.1018,1,left,0.4351,,1,0.3,"[3,1,2]",0.679322987,stimuli/card_0_transparent.png,0,1,0,1,0,1,,,,,,,,,,
,,,,5b72e0698bca7e000103215c,A,2024-07-09_12h40.39.065,Slot Machine Game,2023.1.3,Win32,59.88023952,,,,,,,,,,,,,,,,,,,,,,,,,,,110,,,,,,,,,,,,,,,,,,,,,9,10,,,526.3685,2,up,0.0919,,0.5,0.3,"[3,1,2]",0.261306404,stimuli/card_100_transparent.png,100,2,0,2,0,1,,,,,,,,,,
,,,,5b72e0698bca7e000103215c,A,2024-07-09_12h40.39.065,Slot Machine Game,2023.1.3,Win32,59.88023952,,,,,,,,,,,,,,,,,,,,,,,,,,,210,,,,,,,,,,,,,,,,,,,,,9,10,,,527.785,3,up,0.1853,,1,0.3,"[3,1,2]",0.717183063,stimuli/card_100_transparent.png,100,3,0,3,0,1,,,,,,,,,,
,,,,5b72e0698bca7e000103215c,A,2024-07-09_12h40.39.065,Slot Machine Game,2023.1.3,Win32,59.88023952,,,,,,,,,,,,,,,,,,,,,,,,,,,310,,,,,,,,,,,,,,,,,,,,,9,10,,,529.8018,4,up,0.3641,,1.5,0.3,"[3,1,2]",0.766483866,stimuli/card_100_transparent.png,100,4,0,4,0,1,,,,,,,,,,
,,,,5b72e0698bca7e000103215c,A,2024-07-09_12h40.39.065,Slot Machine Game,2023.1.3,Win32,59.88023952,,,,,,,,,,,,,,,,,,,,,,,,,,,410,,,,,,,,,,,,,,,,,,,,,9,10,,,532.485,5,up,0.4471,,1,0.3,"[3,1,2]",0.926664395,stimuli/card_100_transparent.png,100,5,0,5,0,1,,,,,,,,,,
,,,,5b72e0698bca7e000103215c,A,2024-07-09_12h40.39.065,Slot Machine Game,2023.1.3,Win32,59.88023952,,,,,,,,,,,,,,,,,,,,,,,,,,,420,,,,,,,,,,,,,,,,,,,,,9,10,,,534.7516,6,up,0.0407,,1.5,0.3,"[3,1,2]",0.149035232,stimuli/card_10_transparent.png,10,6,0,6,0,1,,,,,,,,,,
,,,,5b72e0698bca7e000103215c,A,2024-07-09_12h40.39.065,Slot Machine Game,2023.1.3,Win32,59.88023952,,,,,,,,,,,,,,,,,,,,,,,,,,,430,,,,,,,,,,,,,,,,,,,,,9,10,,,537.1183,7,right,0.4052,,1,0.3,"[3,1,2]",0.669529909,stimuli/card_10_transparent.png,10,7,0,7,0,1,,,,,,,,,,
,,,,5b72e0698bca7e000103215c,A,2024-07-09_12h40.39.065,Slot Machine Game,2023.1.3,Win32,59.88023952,,,,,,,,,,,,,,,,,,,,,,,,,,,430,,,,,,,,,,,,,,,,,,,,,9,10,,,539.3515,8,left,0.1506,,1,0.3,"[3,1,2]",0.854290997,stimuli/card_0_transparent.png,0,8,0,8,0,1,,,,,,,,,,
,,,,5b72e0698bca7e000103215c,A,2024-07-09_12h40.39.065,Slot Machine Game,2023.1.3,Win32,59.88023952,,,,,,,,,,,,,,,,,,,,,,,,,,,530,,,,,,,,,,,,,,,,,,,,,9,10,,,541.335,9,up,0.4232,,0.5,0.3,"[3,1,2]",0.645980511,stimuli/card_100_transparent.png,100,9,0,9,0,1,,,,,,,,,,
,,,,5b72e0698bca7e000103215c,A,2024-07-09_12h40.39.065,Slot Machine Game,2023.1.3,Win32,59.88023952,,,,,,,,,,,,,,,,,,,,,,,,,,,540,,,,,,,,,,,,,,,,,,,,,9,10,,,543.0849,10,right,0.4374,,0.5,0.3,"[1,3,2]",0.885382813,stimuli/card_10_transparent.png,10,10,0,10,0,1,,,,,,,,,,
,,,,5b72e0698bca7e000103215c,A,2024-07-09_12h40.39.065,Slot Machine Game,2023.1.3,Win32,59.88023952,,,,,,,,,,,,,,,,,,,,,,,,,,,540,,,,,,,,,,,,,,,,,,,,,9,10,,,544.8515,11,up,0.2554,,0.5,0.3,"[1,3,2]",0.817678707,stimuli/card_0_transparent.png,0,11,0,11,0,1,,,,,,,,,,
,,,,5b72e0698bca7e000103215c,A,2024-07-09_12h40.39.065,Slot Machine Game,2023.1.3,Win32,59.88023952,,,,,,,,,,,,,,,,,,,,,,,,,,,640,,,,,,,,,,,,,,,,,,,,,9,10,,,546.4348,12,left,0.2532,,1.5,0.3,"[1,3,2]",0.633454276,stimuli/card_100_transparent.png,100,12,0,12,0,1,,,,,,,,,,
,,,,5b72e0698bca7e000103215c,A,2024-07-09_12h40.39.065,Slot Machine Game,2023.1.3,Win32,59.88023952,,,,,,,,,,,,,,,,,,,,,,,,,,,740,,,,,,,,,,,,,,,,,,,,,9,10,,,549.018,13,left,0.6178,,1.5,0.3,"[1,3,2]",0.454701794,stimuli/card_100_transparent.png,100,13,0,13,0,1,,,,,,,,,,
,,,,5b72e0698bca7e000103215c,A,2024-07-09_12h40.39.065,Slot Machine Game,2023.1.3,Win32,59.88023952,,,,,,,,,,,,,,,,,,,,,,,,,,,840,,,,,,,,,,,,,,,,,,,,,9,10,,,551.9514,14,left,0.1146,,1.5,0.3,"[1,3,2]",0.798183243,stimuli/card_100_transparent.png,100,14,0,14,0,1,,,,,,,,,,
,,,,5b72e0698bca7e000103215c,A,2024-07-09_12h40.39.065,Slot Machine Game,2023.1.3,Win32,59.88023952,,,,,,,,,,,,,,,,,,,,,,,,,,,,,,,,,,,554.3848,,,,,,,,,,,,,,,,,,,,,,,,,,,,,,,,,"[170,740,840,730,760,730,650,930,840]",8,0,8,0,1,,,,
,,,,5b72e0698bca7e000103215c,A,2024-07-09_12h40.39.065,Slot Machine Game,2023.1.3,Win32,59.88023952,,,,,,,,,,,,,,,,,,,,,,,,,,,0,,,,,,,,,,,,,,,,,,,,,10,3,"[15,15]","[[3,1,2],[3,1,2]]",559.3913,0,left,0.3718,,0.5,0.3,"[3,1,2]",0.664242911,stimuli/card_0_transparent.png,0,0,0,0,0,1,,,,,,,,,,
,,,,5b72e0698bca7e000103215c,A,2024-07-09_12h40.39.065,Slot Machine Game,2023.1.3,Win32,59.88023952,,,,,,,,,,,,,,,,,,,,,,,,,,,10,,,,,,,,,,,,,,,,,,,,,10,3,,,561.085,1,right,0.0075,,1.5,0.3,"[3,1,2]",0.559696912,stimuli/card_10_transparent.png,10,1,0,1,0,1,,,,,,,,,,
,,,,5b72e0698bca7e000103215c,A,2024-07-09_12h40.39.065,Slot Machine Game,2023.1.3,Win32,59.88023952,,,,,,,,,,,,,,,,,,,,,,,,,,,110,,,,,,,,,,,,,,,,,,,,,10,3,,,563.4183,2,up,0.3245,,0.5,0.3,"[3,1,2]",0.364834654,stimuli/card_100_transparent.png,100,2,0,2,0,1,,,,,,,,,,
,,,,5b72e0698bca7e000103215c,A,2024-07-09_12h40.39.065,Slot Machine Game,2023.1.3,Win32,59.88023952,,,,,,,,,,,,,,,,,,,,,,,,,,,210,,,,,,,,,,,,,,,,,,,,,10,3,,,565.0685,3,up,0.5739,,1.5,0.3,"[3,1,2]",0.473940681,stimuli/card_100_transparent.png,100,3,0,3,0,1,,,,,,,,,,
,,,,5b72e0698bca7e000103215c,A,2024-07-09_12h40.39.065,Slot Machine Game,2023.1.3,Win32,59.88023952,,,,,,,,,,,,,,,,,,,,,,,,,,,310,,,,,,,,,,,,,,,,,,,,,10,3,,,567.968,4,up,0.03,,0.5,0.3,"[3,1,2]",0.53432106,stimuli/card_100_transparent.png,100,4,0,4,0,1,,,,,,,,,,
,,,,5b72e0698bca7e000103215c,A,2024-07-09_12h40.39.065,Slot Machine Game,2023.1.3,Win32,59.88023952,,,,,,,,,,,,,,,,,,,,,,,,,,,410,,,,,,,,,,,,,,,,,,,,,10,3,,,569.3183,5,up,0.2217,,0.5,0.3,"[3,1,2]",0.34303534,stimuli/card_100_transparent.png,100,5,0,5,0,1,,,,,,,,,,
,,,,5b72e0698bca7e000103215c,A,2024-07-09_12h40.39.065,Slot Machine Game,2023.1.3,Win32,59.88023952,,,,,,,,,,,,,,,,,,,,,,,,,,,420,,,,,,,,,,,,,,,,,,,,,10,3,,,570.8679,6,up,0.3084,,1.5,0.3,"[3,1,2]",0.151853511,stimuli/card_10_transparent.png,10,6,0,6,0,1,,,,,,,,,,
,,,,5b72e0698bca7e000103215c,A,2024-07-09_12h40.39.065,Slot Machine Game,2023.1.3,Win32,59.88023952,,,,,,,,,,,,,,,,,,,,,,,,,,,430,,,,,,,,,,,,,,,,,,,,,10,3,,,573.4847,7,right,0.2873,,1,0.3,"[3,1,2]",0.445510132,stimuli/card_10_transparent.png,10,7,0,7,0,1,,,,,,,,,,
,,,,5b72e0698bca7e000103215c,A,2024-07-09_12h40.39.065,Slot Machine Game,2023.1.3,Win32,59.88023952,,,,,,,,,,,,,,,,,,,,,,,,,,,440,,,,,,,,,,,,,,,,,,,,,10,3,,,575.6011,8,left,0.4367,,1,0.3,"[3,1,2]",0.198602814,stimuli/card_10_transparent.png,10,8,0,8,0,1,,,,,,,,,,
,,,,5b72e0698bca7e000103215c,A,2024-07-09_12h40.39.065,Slot Machine Game,2023.1.3,Win32,59.88023952,,,,,,,,,,,,,,,,,,,,,,,,,,,540,,,,,,,,,,,,,,,,,,,,,10,3,,,577.8681,9,up,0.3984,,1.5,0.3,"[3,1,2]",0.477037137,stimuli/card_100_transparent.png,100,9,0,9,0,1,,,,,,,,,,
,,,,5b72e0698bca7e000103215c,A,2024-07-09_12h40.39.065,Slot Machine Game,2023.1.3,Win32,59.88023952,,,,,,,,,,,,,,,,,,,,,,,,,,,540,,,,,,,,,,,,,,,,,,,,,10,3,,,580.5845,10,up,0.3056,,0.5,0.3,"[3,1,2]",0.019139805,stimuli/card_0_transparent.png,0,10,0,10,0,1,,,,,,,,,,
,,,,5b72e0698bca7e000103215c,A,2024-07-09_12h40.39.065,Slot Machine Game,2023.1.3,Win32,59.88023952,,,,,,,,,,,,,,,,,,,,,,,,,,,550,,,,,,,,,,,,,,,,,,,,,10,3,,,582.2178,11,right,0.4701,,1.5,0.3,"[3,1,2]",0.673958705,stimuli/card_10_transparent.png,10,11,0,11,0,1,,,,,,,,,,
,,,,5b72e0698bca7e000103215c,A,2024-07-09_12h40.39.065,Slot Machine Game,2023.1.3,Win32,59.88023952,,,,,,,,,,,,,,,,,,,,,,,,,,,560,,,,,,,,,,,,,,,,,,,,,10,3,,,585.0177,12,right,0.4141,,0.5,0.3,"[3,1,2]",0.647941126,stimuli/card_10_transparent.png,10,12,0,12,0,1,,,,,,,,,,
,,,,5b72e0698bca7e000103215c,A,2024-07-09_12h40.39.065,Slot Machine Game,2023.1.3,Win32,59.88023952,,,,,,,,,,,,,,,,,,,,,,,,,,,560,,,,,,,,,,,,,,,,,,,,,10,3,,,586.7512,13,left,0.0969,,1.5,0.3,"[3,1,2]",0.447723076,stimuli/card_0_transparent.png,0,13,0,13,0,1,,,,,,,,,,
,,,,5b72e0698bca7e000103215c,A,2024-07-09_12h40.39.065,Slot Machine Game,2023.1.3,Win32,59.88023952,,,,,,,,,,,,,,,,,,,,,,,,,,,660,,,,,,,,,,,,,,,,,,,,,10,3,,,589.1676,14,up,0.1864,,0.5,0.3,"[3,1,2]",0.377922545,stimuli/card_100_transparent.png,100,14,0,14,0,1,,,,,,,,,,
,,,,5b72e0698bca7e000103215c,A,2024-07-09_12h40.39.065,Slot Machine Game,2023.1.3,Win32,59.88023952,,,,,,,,,,,,,,,,,,,,,,,,,,,,,,,,,,,590.6845,,,,,,,,,,,,,,,,,,,,,,,,,,,,,,,,,"[170,740,840,730,760,730,650,930,840,660]",9,0,9,0,1,,,,
,,,,5b72e0698bca7e000103215c,A,2024-07-09_12h40.39.065,Slot Machine Game,2023.1.3,Win32,59.88023952,,,,,,,,,,,,,,,,,,,,,,,,,,,,,,,,,,,,,,,,,,,,,,,,,,,,,,,,,,,,,,,,,,,,,,,,,,9,"[170,740,840,730,760,730,650,930,840,660]",6.5,2024-07-09_12h50.38.813
