key_resp_welcome_started,key_resp_welcome_keys,key_resp_welcome_rt,key_resp_welcome_duration,prolific_id,path_id,date,expName,psychopyVersion,OS,frameRate,key_resp_instruction1_started,key_resp_instruction1_keys,key_resp_instruction1_rt,key_resp_instruction1_duration,key_resp_instruction2_started,key_resp_instruction2_keys,key_resp_instruction2_rt,key_resp_instruction2_duration,key_resp_instruction3_started,key_resp_instruction3_keys,key_resp_instruction3_rt,key_resp_instruction3_duration,key_resp_instruction4_started,key_resp_instruction4_keys,key_resp_instruction4_rt,key_resp_instruction4_duration,practiceCondition,practice_reward_seqs,practice_trial_started,practice_trial_num,practice_resp_rt,practice_resp_duration,practice_resp_keys,prac_presentationInterval,"practice_reward_seq: 2,1,3",reward_img,cumulative_reward,trial_reward,practice_trials.thisRepN,practice_trials.thisTrialN,practice_trials.thisN,practice_trials.thisIndex,practice_trials.ran,"practice_reward_seq: 2,3,1",block_break_started,"practice_reward_seq: 1,3,2","practice_reward_seq: 3,1,2",practice_end_time,practice_end_keys,practice_end_rt,practice_end_duration,main_instruction_text_started,block_condition,block_order_indices,main_instruction_keys,main_instruction_rt,main_instruction_duration,block_number,block_assignment,current_condition,main_reward_seqs,main_trial_started,main_trial_num,main_trial_keys,main_trial_rt,main_trial_duration,main_presentationInterval,reward_presentation_time,main_reward_seq,reward_rand_val,main_reward_img,current_reward,main_trials.thisRepN,main_trials.thisTrialN,main_trials.thisN,main_trials.thisIndex,main_trials.ran,block_reward,block.thisRepN,block.thisTrialN,block.thisN,block.thisIndex,block.ran,block_reward.length,block_reward_all,reward_amount,date_end_task
0.0006,space,3.0752,,5ba961b460f3d500016a2970,B,2024-06-22_12h25.57.705,Slot Machine Game,2023.1.3,Win32,59.17159763,,,,,,,,,,,,,,,,,,,,,,,,,,,,,,,,,,,,,,,,,,,,,,,,,,,,,,,,,,,,,,,,,,,,,,,,,,,,,
,,,,5ba961b460f3d500016a2970,B,2024-06-22_12h25.57.705,Slot Machine Game,2023.1.3,Win32,59.17159763,3.0938,space,16.7849,,,,,,,,,,,,,,,,,,,,,,,,,,,,,,,,,,,,,,,,,,,,,,,,,,,,,,,,,,,,,,,,,,,,,,,,,,
,,,,5ba961b460f3d500016a2970,B,2024-06-22_12h25.57.705,Slot Machine Game,2023.1.3,Win32,59.17159763,,,,,19.9107,space,47.158,,,,,,,,,,,,,,,,,,,,,,,,,,,,,,,,,,,,,,,,,,,,,,,,,,,,,,,,,,,,,,,,,,,,,,
,,,,5ba961b460f3d500016a2970,B,2024-06-22_12h25.57.705,Slot Machine Game,2023.1.3,Win32,59.17159763,,,,,,,,,67.0932,space,19.9193,,,,,,,,,,,,,,,,,,,,,,,,,,,,,,,,,,,,,,,,,,,,,,,,,,,,,,,,,,,,,,,,,,
,,,,5ba961b460f3d500016a2970,B,2024-06-22_12h25.57.705,Slot Machine Game,2023.1.3,Win32,59.17159763,,,,,,,,,,,,,,,,,,,,,,,,,,,,,,,,,,,,,,,,,,,,,,,,,,,,,,,,,,,,,,,,,,,,,,,,,,,,,
,,,,5ba961b460f3d500016a2970,B,2024-06-22_12h25.57.705,Slot Machine Game,2023.1.3,Win32,59.17159763,,,,,,,,,,,,,228.8468,space,3.4014,,,,,,,,,,,,,,,,,,,,,,,,,,,,,,,,,,,,,,,,,,,,,,,,,,,,,,,,,,,,,,
,,,,5ba961b460f3d500016a2970,B,2024-06-22_12h25.57.705,Slot Machine Game,2023.1.3,Win32,59.17159763,,,,,,,,,,,,,,,,,"[9,15]","[[2,1,3],[2,3,1]]",232.2754,0,1.4163,,left,1.5,,stimuli/card_100_transparent.png,100,100,0,0,0,0,1,,,,,,,,,,,,,,,,,,,,,,,,,,,,,,,,,,,,,,,,,,,,
,,,,5ba961b460f3d500016a2970,B,2024-06-22_12h25.57.705,Slot Machine Game,2023.1.3,Win32,59.17159763,,,,,,,,,,,,,,,,,,,236.0237,1,0.8568,,left,0.5,,stimuli/card_10_transparent.png,110,10,1,0,1,0,1,,,,,,,,,,,,,,,,,,,,,,,,,,,,,,,,,,,,,,,,,,,,
,,,,5ba961b460f3d500016a2970,B,2024-06-22_12h25.57.705,Slot Machine Game,2023.1.3,Win32,59.17159763,,,,,,,,,,,,,,,,,,,238.2065,2,0.4584,,left,0.5,,stimuli/card_10_transparent.png,120,10,2,0,2,0,1,,,,,,,,,,,,,,,,,,,,,,,,,,,,,,,,,,,,,,,,,,,,
,,,,5ba961b460f3d500016a2970,B,2024-06-22_12h25.57.705,Slot Machine Game,2023.1.3,Win32,59.17159763,,,,,,,,,,,,,,,,,,,239.9896,3,1.0787,,up,1.5,,stimuli/card_100_transparent.png,220,100,3,0,3,0,1,,,,,,,,,,,,,,,,,,,,,,,,,,,,,,,,,,,,,,,,,,,,
,,,,5ba961b460f3d500016a2970,B,2024-06-22_12h25.57.705,Slot Machine Game,2023.1.3,Win32,59.17159763,,,,,,,,,,,,,,,,,,,243.3896,4,0.1562,,up,1.5,,stimuli/card_100_transparent.png,320,100,4,0,4,0,1,,,,,,,,,,,,,,,,,,,,,,,,,,,,,,,,,,,,,,,,,,,,
,,,,5ba961b460f3d500016a2970,B,2024-06-22_12h25.57.705,Slot Machine Game,2023.1.3,Win32,59.17159763,,,,,,,,,,,,,,,,,,,245.8732,5,0.1059,,up,1,,stimuli/card_10_transparent.png,330,10,5,0,5,0,1,,,,,,,,,,,,,,,,,,,,,,,,,,,,,,,,,,,,,,,,,,,,
,,,,5ba961b460f3d500016a2970,B,2024-06-22_12h25.57.705,Slot Machine Game,2023.1.3,Win32,59.17159763,,,,,,,,,,,,,,,,,,,247.8106,6,0.2677,,up,1.5,,stimuli/card_100_transparent.png,430,100,6,0,6,0,1,,,,,,,,,,,,,,,,,,,,,,,,,,,,,,,,,,,,,,,,,,,,
,,,,5ba961b460f3d500016a2970,B,2024-06-22_12h25.57.705,Slot Machine Game,2023.1.3,Win32,59.17159763,,,,,,,,,,,,,,,,,,,250.406,7,0.7996,,up,1,,stimuli/card_100_transparent.png,530,100,7,0,7,0,1,,,,,,,,,,,,,,,,,,,,,,,,,,,,,,,,,,,,,,,,,,,,
,,,,5ba961b460f3d500016a2970,B,2024-06-22_12h25.57.705,Slot Machine Game,2023.1.3,Win32,59.17159763,,,,,,,,,,,,,,,,,,,253.0273,8,0.7826,,up,1.5,,stimuli/card_100_transparent.png,630,100,8,0,8,0,1,,,,,,,,,,,,,,,,,,,,,,,,,,,,,,,,,,,,,,,,,,,,
,,,,5ba961b460f3d500016a2970,B,2024-06-22_12h25.57.705,Slot Machine Game,2023.1.3,Win32,59.17159763,,,,,,,,,,,,,,,,,,,256.1224,9,0.0097,,up,1,,stimuli/card_10_transparent.png,640,10,9,0,9,0,1,,,,,,,,,,,,,,,,,,,,,,,,,,,,,,,,,,,,,,,,,,,,
,,,,5ba961b460f3d500016a2970,B,2024-06-22_12h25.57.705,Slot Machine Game,2023.1.3,Win32,59.17159763,,,,,,,,,,,,,,,,,,,257.9396,10,0.2703,,up,1.5,,stimuli/card_0_transparent.png,640,0,10,0,10,0,1,,,,,,,,,,,,,,,,,,,,,,,,,,,,,,,,,,,,,,,,,,,,
,,,,5ba961b460f3d500016a2970,B,2024-06-22_12h25.57.705,Slot Machine Game,2023.1.3,Win32,59.17159763,,,,,,,,,,,,,,,,,,,260.5393,11,0.5337,,up,1,,stimuli/card_0_transparent.png,640,0,11,0,11,0,1,,,,,,,,,,,,,,,,,,,,,,,,,,,,,,,,,,,,,,,,,,,,
,,,,5ba961b460f3d500016a2970,B,2024-06-22_12h25.57.705,Slot Machine Game,2023.1.3,Win32,59.17159763,,,,,,,,,,,,,,,,,,,262.9102,12,1.5064,,up,1,,stimuli/card_0_transparent.png,640,0,12,0,12,0,1,,,,,,,,,,,,,,,,,,,,,,,,,,,,,,,,,,,,,,,,,,,,
,,,,5ba961b460f3d500016a2970,B,2024-06-22_12h25.57.705,Slot Machine Game,2023.1.3,Win32,59.17159763,,,,,,,,,,,,,,,,,,,266.2394,13,0.0237,,up,1.5,,stimuli/card_0_transparent.png,640,0,13,0,13,0,1,,,,,,,,,,,,,,,,,,,,,,,,,,,,,,,,,,,,,,,,,,,,
,,,,5ba961b460f3d500016a2970,B,2024-06-22_12h25.57.705,Slot Machine Game,2023.1.3,Win32,59.17159763,,,,,,,,,,,,,,,,,,,268.6054,14,2.1922,,right,1.5,,stimuli/card_100_transparent.png,740,100,14,0,14,0,1,,,,,,,,,,,,,,,,,,,,,,,,,,,,,,,,,,,,,,,,,,,,
,,,,5ba961b460f3d500016a2970,B,2024-06-22_12h25.57.705,Slot Machine Game,2023.1.3,Win32,59.17159763,,,,,,,,,,,,,,,,,"[6,15]","[[1,3,2],[3,1,2]]",278.1326,0,0.7933,,right,0.5,,stimuli/card_10_transparent.png,10,10,0,0,0,0,1,,273.133,,,,,,,,,,,,,,,,,,,,,,,,,,,,,,,,,,,,,,,,,,
,,,,5ba961b460f3d500016a2970,B,2024-06-22_12h25.57.705,Slot Machine Game,2023.1.3,Win32,59.17159763,,,,,,,,,,,,,,,,,,,280.2553,1,1.551,,up,1.5,,stimuli/card_0_transparent.png,10,0,1,0,1,0,1,,,,,,,,,,,,,,,,,,,,,,,,,,,,,,,,,,,,,,,,,,,,
,,,,5ba961b460f3d500016a2970,B,2024-06-22_12h25.57.705,Slot Machine Game,2023.1.3,Win32,59.17159763,,,,,,,,,,,,,,,,,,,284.1391,2,4.0487,,left,1.5,,stimuli/card_10_transparent.png,20,10,2,0,2,0,1,,,,,,,,,,,,,,,,,,,,,,,,,,,,,,,,,,,,,,,,,,,,
,,,,5ba961b460f3d500016a2970,B,2024-06-22_12h25.57.705,Slot Machine Game,2023.1.3,Win32,59.17159763,,,,,,,,,,,,,,,,,,,290.5055,3,0.1649,,left,0.5,,stimuli/card_100_transparent.png,120,100,3,0,3,0,1,,,,,,,,,,,,,,,,,,,,,,,,,,,,,,,,,,,,,,,,,,,,
,,,,5ba961b460f3d500016a2970,B,2024-06-22_12h25.57.705,Slot Machine Game,2023.1.3,Win32,59.17159763,,,,,,,,,,,,,,,,,,,291.9888,4,0.1177,,left,1.5,,stimuli/card_100_transparent.png,220,100,4,0,4,0,1,,,,,,,,,,,,,,,,,,,,,,,,,,,,,,,,,,,,,,,,,,,,
,,,,5ba961b460f3d500016a2970,B,2024-06-22_12h25.57.705,Slot Machine Game,2023.1.3,Win32,59.17159763,,,,,,,,,,,,,,,,,,,294.4389,5,0.2499,,left,0.5,,stimuli/card_0_transparent.png,220,0,5,0,5,0,1,,,,,,,,,,,,,,,,,,,,,,,,,,,,,,,,,,,,,,,,,,,,
,,,,5ba961b460f3d500016a2970,B,2024-06-22_12h25.57.705,Slot Machine Game,2023.1.3,Win32,59.17159763,,,,,,,,,,,,,,,,,,,296.0054,6,1.3649,,right,0.5,,stimuli/card_10_transparent.png,230,10,6,0,6,0,1,,,,,,,,,,,,,,,,,,,,,,,,,,,,,,,,,,,,,,,,,,,,
,,,,5ba961b460f3d500016a2970,B,2024-06-22_12h25.57.705,Slot Machine Game,2023.1.3,Win32,59.17159763,,,,,,,,,,,,,,,,,,,298.6722,7,0.0059,,right,1.5,,stimuli/card_0_transparent.png,230,0,7,0,7,0,1,,,,,,,,,,,,,,,,,,,,,,,,,,,,,,,,,,,,,,,,,,,,
,,,,5ba961b460f3d500016a2970,B,2024-06-22_12h25.57.705,Slot Machine Game,2023.1.3,Win32,59.17159763,,,,,,,,,,,,,,,,,,,301.0051,8,2.782,,up,1.5,,stimuli/card_0_transparent.png,230,0,8,0,8,0,1,,,,,,,,,,,,,,,,,,,,,,,,,,,,,,,,,,,,,,,,,,,,
,,,,5ba961b460f3d500016a2970,B,2024-06-22_12h25.57.705,Slot Machine Game,2023.1.3,Win32,59.17159763,,,,,,,,,,,,,,,,,,,306.1054,9,0.0991,,left,0.5,,stimuli/card_0_transparent.png,230,0,9,0,9,0,1,,,,,,,,,,,,,,,,,,,,,,,,,,,,,,,,,,,,,,,,,,,,
,,,,5ba961b460f3d500016a2970,B,2024-06-22_12h25.57.705,Slot Machine Game,2023.1.3,Win32,59.17159763,,,,,,,,,,,,,,,,,,,307.522,10,1.3541,,left,0.5,,stimuli/card_0_transparent.png,230,0,10,0,10,0,1,,,,,,,,,,,,,,,,,,,,,,,,,,,,,,,,,,,,,,,,,,,,
,,,,5ba961b460f3d500016a2970,B,2024-06-22_12h25.57.705,Slot Machine Game,2023.1.3,Win32,59.17159763,,,,,,,,,,,,,,,,,,,310.2217,11,0.0187,,left,1.5,,stimuli/card_0_transparent.png,230,0,11,0,11,0,1,,,,,,,,,,,,,,,,,,,,,,,,,,,,,,,,,,,,,,,,,,,,
,,,,5ba961b460f3d500016a2970,B,2024-06-22_12h25.57.705,Slot Machine Game,2023.1.3,Win32,59.17159763,,,,,,,,,,,,,,,,,,,312.5924,12,1.4684,,up,0.5,,stimuli/card_100_transparent.png,330,100,12,0,12,0,1,,,,,,,,,,,,,,,,,,,,,,,,,,,,,,,,,,,,,,,,,,,,
,,,,5ba961b460f3d500016a2970,B,2024-06-22_12h25.57.705,Slot Machine Game,2023.1.3,Win32,59.17159763,,,,,,,,,,,,,,,,,,,315.3884,13,1.6231,,up,1,,stimuli/card_100_transparent.png,430,100,13,0,13,0,1,,,,,,,,,,,,,,,,,,,,,,,,,,,,,,,,,,,,,,,,,,,,
,,,,5ba961b460f3d500016a2970,B,2024-06-22_12h25.57.705,Slot Machine Game,2023.1.3,Win32,59.17159763,,,,,,,,,,,,,,,,,,,318.843,14,1.3733,,up,0.5,,stimuli/card_100_transparent.png,530,100,14,0,14,0,1,,,,,,,,,,,,,,,,,,,,,,,,,,,,,,,,,,,,,,,,,,,,
,,,,5ba961b460f3d500016a2970,B,2024-06-22_12h25.57.705,Slot Machine Game,2023.1.3,Win32,59.17159763,,,,,,,,,,,,,,,,,,,,,,,,,,,,,,,,,,,321.555,,,326.5603,space,4.6511,,,,,,,,,,,,,,,,,,,,,,,,,,,,,,,,,,,,,
,,,,5ba961b460f3d500016a2970,B,2024-06-22_12h25.57.705,Slot Machine Game,2023.1.3,Win32,59.17159763,,,,,,,,,,,,,,,,,,,,,,,,,,,,,,,,,,,,,,,,,,331.2387,2,"[2,4,8,0,1,3,9,6,8,5]",space,4.1011,,,,,,,,,,,,,,,,,,,,,,,,,,,,,,,
,,,,5ba961b460f3d500016a2970,B,2024-06-22_12h25.57.705,Slot Machine Game,2023.1.3,Win32,59.17159763,,,,,,,,,,,,,,,,,,,,,,,,,,,100,,,,,,,,,,,,,,,,,,,,,1,3,"[15,15]","[[3,1,2],[3,1,2]]",335.3829,0,up,1.1084,,0.5,0.3,"[3,1,2]",0.946928824,stimuli/card_100_transparent.png,100,0,0,0,0,1,,,,,,,,,,
,,,,5ba961b460f3d500016a2970,B,2024-06-22_12h25.57.705,Slot Machine Game,2023.1.3,Win32,59.17159763,,,,,,,,,,,,,,,,,,,,,,,,,,,200,,,,,,,,,,,,,,,,,,,,,1,3,,,337.8215,1,up,1.3508,,1,0.3,"[3,1,2]",0.425339477,stimuli/card_100_transparent.png,100,1,0,1,0,1,,,,,,,,,,
,,,,5ba961b460f3d500016a2970,B,2024-06-22_12h25.57.705,Slot Machine Game,2023.1.3,Win32,59.17159763,,,,,,,,,,,,,,,,,,,,,,,,,,,210,,,,,,,,,,,,,,,,,,,,,1,3,,,341.0045,2,up,0.6825,,1.5,0.3,"[3,1,2]",0.169427711,stimuli/card_10_transparent.png,10,2,0,2,0,1,,,,,,,,,,
,,,,5ba961b460f3d500016a2970,B,2024-06-22_12h25.57.705,Slot Machine Game,2023.1.3,Win32,59.17159763,,,,,,,,,,,,,,,,,,,,,,,,,,,220,,,,,,,,,,,,,,,,,,,,,1,3,,,344.0042,3,up,1.1458,,0.5,0.3,"[3,1,2]",0.151026134,stimuli/card_10_transparent.png,10,3,0,3,0,1,,,,,,,,,,
,,,,5ba961b460f3d500016a2970,B,2024-06-22_12h25.57.705,Slot Machine Game,2023.1.3,Win32,59.17159763,,,,,,,,,,,,,,,,,,,,,,,,,,,320,,,,,,,,,,,,,,,,,,,,,1,3,,,346.4714,4,up,0.3887,,1.5,0.3,"[3,1,2]",0.303020429,stimuli/card_100_transparent.png,100,4,0,4,0,1,,,,,,,,,,
,,,,5ba961b460f3d500016a2970,B,2024-06-22_12h25.57.705,Slot Machine Game,2023.1.3,Win32,59.17159763,,,,,,,,,,,,,,,,,,,,,,,,,,,420,,,,,,,,,,,,,,,,,,,,,1,3,,,349.1879,5,up,0.0436,,1.5,0.3,"[3,1,2]",0.400889158,stimuli/card_100_transparent.png,100,5,0,5,0,1,,,,,,,,,,
,,,,5ba961b460f3d500016a2970,B,2024-06-22_12h25.57.705,Slot Machine Game,2023.1.3,Win32,59.17159763,,,,,,,,,,,,,,,,,,,,,,,,,,,520,,,,,,,,,,,,,,,,,,,,,1,3,,,351.5376,6,up,0.4366,,1,0.3,"[3,1,2]",0.914897321,stimuli/card_100_transparent.png,100,6,0,6,0,1,,,,,,,,,,
,,,,5ba961b460f3d500016a2970,B,2024-06-22_12h25.57.705,Slot Machine Game,2023.1.3,Win32,59.17159763,,,,,,,,,,,,,,,,,,,,,,,,,,,620,,,,,,,,,,,,,,,,,,,,,1,3,,,353.7878,7,up,0.212,,1,0.3,"[3,1,2]",0.848112871,stimuli/card_100_transparent.png,100,7,0,7,0,1,,,,,,,,,,
,,,,5ba961b460f3d500016a2970,B,2024-06-22_12h25.57.705,Slot Machine Game,2023.1.3,Win32,59.17159763,,,,,,,,,,,,,,,,,,,,,,,,,,,630,,,,,,,,,,,,,,,,,,,,,1,3,,,355.8199,8,up,0.0121,,1,0.3,"[3,1,2]",0.166454368,stimuli/card_10_transparent.png,10,8,0,8,0,1,,,,,,,,,,
,,,,5ba961b460f3d500016a2970,B,2024-06-22_12h25.57.705,Slot Machine Game,2023.1.3,Win32,59.17159763,,,,,,,,,,,,,,,,,,,,,,,,,,,730,,,,,,,,,,,,,,,,,,,,,1,3,,,357.6703,9,up,0.2839,,1.5,0.3,"[3,1,2]",0.84580803,stimuli/card_100_transparent.png,100,9,0,9,0,1,,,,,,,,,,
,,,,5ba961b460f3d500016a2970,B,2024-06-22_12h25.57.705,Slot Machine Game,2023.1.3,Win32,59.17159763,,,,,,,,,,,,,,,,,,,,,,,,,,,730,,,,,,,,,,,,,,,,,,,,,1,3,,,360.2701,10,up,0.3162,,1.5,0.3,"[3,1,2]",0.025067092,stimuli/card_0_transparent.png,0,10,0,10,0,1,,,,,,,,,,
,,,,5ba961b460f3d500016a2970,B,2024-06-22_12h25.57.705,Slot Machine Game,2023.1.3,Win32,59.17159763,,,,,,,,,,,,,,,,,,,,,,,,,,,830,,,,,,,,,,,,,,,,,,,,,1,3,,,362.9036,11,up,0.0536,,0.5,0.3,"[3,1,2]",0.586231305,stimuli/card_100_transparent.png,100,11,0,11,0,1,,,,,,,,,,
,,,,5ba961b460f3d500016a2970,B,2024-06-22_12h25.57.705,Slot Machine Game,2023.1.3,Win32,59.17159763,,,,,,,,,,,,,,,,,,,,,,,,,,,840,,,,,,,,,,,,,,,,,,,,,1,3,,,364.2869,12,up,0.2484,,1.5,0.3,"[3,1,2]",0.115491197,stimuli/card_10_transparent.png,10,12,0,12,0,1,,,,,,,,,,
,,,,5ba961b460f3d500016a2970,B,2024-06-22_12h25.57.705,Slot Machine Game,2023.1.3,Win32,59.17159763,,,,,,,,,,,,,,,,,,,,,,,,,,,940,,,,,,,,,,,,,,,,,,,,,1,3,,,366.87,13,up,0.5376,,0.5,0.3,"[3,1,2]",0.261417567,stimuli/card_100_transparent.png,100,13,0,13,0,1,,,,,,,,,,
,,,,5ba961b460f3d500016a2970,B,2024-06-22_12h25.57.705,Slot Machine Game,2023.1.3,Win32,59.17159763,,,,,,,,,,,,,,,,,,,,,,,,,,,1040,,,,,,,,,,,,,,,,,,,,,1,3,,,368.7202,14,up,0.6048,,0.5,0.3,"[3,1,2]",0.379505539,stimuli/card_100_transparent.png,100,14,0,14,0,1,,,,,,,,,,
,,,,5ba961b460f3d500016a2970,B,2024-06-22_12h25.57.705,Slot Machine Game,2023.1.3,Win32,59.17159763,,,,,,,,,,,,,,,,,,,,,,,,,,,,,,,,,,,370.6372,,,,,,,,,,,,,,,,,,,,,,,,,,,,,,,,,[1040],0,0,0,0,1,,,,
,,,,5ba961b460f3d500016a2970,B,2024-06-22_12h25.57.705,Slot Machine Game,2023.1.3,Win32,59.17159763,,,,,,,,,,,,,,,,,,,,,,,,,,,100,,,,,,,,,,,,,,,,,,,,,2,5,"[5,15]","[[1,2,3],[3,1,2]]",375.6474,0,left,0.9179,,1,0.3,"[1,2,3]",0.589031035,stimuli/card_100_transparent.png,100,0,0,0,0,1,,,,,,,,,,
,,,,5ba961b460f3d500016a2970,B,2024-06-22_12h25.57.705,Slot Machine Game,2023.1.3,Win32,59.17159763,,,,,,,,,,,,,,,,,,,,,,,,,,,100,,,,,,,,,,,,,,,,,,,,,2,5,,,378.3868,1,right,0.4,,0.5,0.3,"[1,2,3]",0.677607431,stimuli/card_0_transparent.png,0,1,0,1,0,1,,,,,,,,,,
,,,,5ba961b460f3d500016a2970,B,2024-06-22_12h25.57.705,Slot Machine Game,2023.1.3,Win32,59.17159763,,,,,,,,,,,,,,,,,,,,,,,,,,,100,,,,,,,,,,,,,,,,,,,,,2,5,,,380.12,2,left,1.5193,,1,0.3,"[1,2,3]",0.056223302,stimuli/card_0_transparent.png,0,2,0,2,0,1,,,,,,,,,,
,,,,5ba961b460f3d500016a2970,B,2024-06-22_12h25.57.705,Slot Machine Game,2023.1.3,Win32,59.17159763,,,,,,,,,,,,,,,,,,,,,,,,,,,100,,,,,,,,,,,,,,,,,,,,,2,5,,,383.4533,3,left,2.1035,,0.5,0.3,"[1,2,3]",0.081260458,stimuli/card_0_transparent.png,0,3,0,3,0,1,,,,,,,,,,
,,,,5ba961b460f3d500016a2970,B,2024-06-22_12h25.57.705,Slot Machine Game,2023.1.3,Win32,59.17159763,,,,,,,,,,,,,,,,,,,,,,,,,,,100,,,,,,,,,,,,,,,,,,,,,2,5,,,386.8862,4,up,0.0362,,0.5,0.3,"[1,2,3]",0.069985299,stimuli/card_0_transparent.png,0,4,0,4,0,1,,,,,,,,,,
,,,,5ba961b460f3d500016a2970,B,2024-06-22_12h25.57.705,Slot Machine Game,2023.1.3,Win32,59.17159763,,,,,,,,,,,,,,,,,,,,,,,,,,,200,,,,,,,,,,,,,,,,,,,,,2,5,,,388.2532,5,up,0.039,,0.5,0.3,"[3,1,2]",0.701135938,stimuli/card_100_transparent.png,100,5,0,5,0,1,,,,,,,,,,
,,,,5ba961b460f3d500016a2970,B,2024-06-22_12h25.57.705,Slot Machine Game,2023.1.3,Win32,59.17159763,,,,,,,,,,,,,,,,,,,,,,,,,,,300,,,,,,,,,,,,,,,,,,,,,2,5,,,389.6198,6,up,1.4847,,0.5,0.3,"[3,1,2]",0.259918673,stimuli/card_100_transparent.png,100,6,0,6,0,1,,,,,,,,,,
,,,,5ba961b460f3d500016a2970,B,2024-06-22_12h25.57.705,Slot Machine Game,2023.1.3,Win32,59.17159763,,,,,,,,,,,,,,,,,,,,,,,,,,,310,,,,,,,,,,,,,,,,,,,,,2,5,,,392.4367,7,up,0.117,,0.5,0.3,"[3,1,2]",0.15014603,stimuli/card_10_transparent.png,10,7,0,7,0,1,,,,,,,,,,
,,,,5ba961b460f3d500016a2970,B,2024-06-22_12h25.57.705,Slot Machine Game,2023.1.3,Win32,59.17159763,,,,,,,,,,,,,,,,,,,,,,,,,,,410,,,,,,,,,,,,,,,,,,,,,2,5,,,393.8866,8,up,0.2885,,1,0.3,"[3,1,2]",0.716740969,stimuli/card_100_transparent.png,100,8,0,8,0,1,,,,,,,,,,
,,,,5ba961b460f3d500016a2970,B,2024-06-22_12h25.57.705,Slot Machine Game,2023.1.3,Win32,59.17159763,,,,,,,,,,,,,,,,,,,,,,,,,,,510,,,,,,,,,,,,,,,,,,,,,2,5,,,396.0034,9,up,0.561,,1.5,0.3,"[3,1,2]",0.557903747,stimuli/card_100_transparent.png,100,9,0,9,0,1,,,,,,,,,,
,,,,5ba961b460f3d500016a2970,B,2024-06-22_12h25.57.705,Slot Machine Game,2023.1.3,Win32,59.17159763,,,,,,,,,,,,,,,,,,,,,,,,,,,520,,,,,,,,,,,,,,,,,,,,,2,5,,,398.8858,10,up,0.4117,,1,0.3,"[3,1,2]",0.123384211,stimuli/card_10_transparent.png,10,10,0,10,0,1,,,,,,,,,,
,,,,5ba961b460f3d500016a2970,B,2024-06-22_12h25.57.705,Slot Machine Game,2023.1.3,Win32,59.17159763,,,,,,,,,,,,,,,,,,,,,,,,,,,620,,,,,,,,,,,,,,,,,,,,,2,5,,,401.1029,11,up,0.487,,1,0.3,"[3,1,2]",0.996414246,stimuli/card_100_transparent.png,100,11,0,11,0,1,,,,,,,,,,
,,,,5ba961b460f3d500016a2970,B,2024-06-22_12h25.57.705,Slot Machine Game,2023.1.3,Win32,59.17159763,,,,,,,,,,,,,,,,,,,,,,,,,,,720,,,,,,,,,,,,,,,,,,,,,2,5,,,403.4031,12,up,0.0596,,0.5,0.3,"[3,1,2]",0.479675608,stimuli/card_100_transparent.png,100,12,0,12,0,1,,,,,,,,,,
,,,,5ba961b460f3d500016a2970,B,2024-06-22_12h25.57.705,Slot Machine Game,2023.1.3,Win32,59.17159763,,,,,,,,,,,,,,,,,,,,,,,,,,,820,,,,,,,,,,,,,,,,,,,,,2,5,,,404.786,13,up,0.4842,,0.5,0.3,"[3,1,2]",0.540671569,stimuli/card_100_transparent.png,100,13,0,13,0,1,,,,,,,,,,
,,,,5ba961b460f3d500016a2970,B,2024-06-22_12h25.57.705,Slot Machine Game,2023.1.3,Win32,59.17159763,,,,,,,,,,,,,,,,,,,,,,,,,,,920,,,,,,,,,,,,,,,,,,,,,2,5,,,406.6031,14,up,0.3038,,0.5,0.3,"[3,1,2]",0.87040952,stimuli/card_100_transparent.png,100,14,0,14,0,1,,,,,,,,,,
,,,,5ba961b460f3d500016a2970,B,2024-06-22_12h25.57.705,Slot Machine Game,2023.1.3,Win32,59.17159763,,,,,,,,,,,,,,,,,,,,,,,,,,,,,,,,,,,408.2361,,,,,,,,,,,,,,,,,,,,,,,,,,,,,,,,,"[1040,920]",1,0,1,0,1,,,,
,,,,5ba961b460f3d500016a2970,B,2024-06-22_12h25.57.705,Slot Machine Game,2023.1.3,Win32,59.17159763,,,,,,,,,,,,,,,,,,,,,,,,,,,10,,,,,,,,,,,,,,,,,,,,,3,9,"[8,15]","[[3,2,1],[3,1,2]]",413.2449,0,up,0.0247,,1,0.3,"[3,2,1]",0.655634271,stimuli/card_10_transparent.png,10,0,0,0,0,1,,,,,,,,,,
,,,,5ba961b460f3d500016a2970,B,2024-06-22_12h25.57.705,Slot Machine Game,2023.1.3,Win32,59.17159763,,,,,,,,,,,,,,,,,,,,,,,,,,,10,,,,,,,,,,,,,,,,,,,,,3,9,,,415.0859,1,left,0.0221,,1,0.3,"[3,2,1]",0.646852193,stimuli/card_0_transparent.png,0,1,0,1,0,1,,,,,,,,,,
,,,,5ba961b460f3d500016a2970,B,2024-06-22_12h25.57.705,Slot Machine Game,2023.1.3,Win32,59.17159763,,,,,,,,,,,,,,,,,,,,,,,,,,,10,,,,,,,,,,,,,,,,,,,,,3,9,,,416.9192,2,right,0.3093,,0.5,0.3,"[3,2,1]",0.018747768,stimuli/card_0_transparent.png,0,2,0,2,0,1,,,,,,,,,,
,,,,5ba961b460f3d500016a2970,B,2024-06-22_12h25.57.705,Slot Machine Game,2023.1.3,Win32,59.17159763,,,,,,,,,,,,,,,,,,,,,,,,,,,10,,,,,,,,,,,,,,,,,,,,,3,9,,,418.5362,3,left,1.2931,,1,0.3,"[3,2,1]",0.641248911,stimuli/card_0_transparent.png,0,3,0,3,0,1,,,,,,,,,,
,,,,5ba961b460f3d500016a2970,B,2024-06-22_12h25.57.705,Slot Machine Game,2023.1.3,Win32,59.17159763,,,,,,,,,,,,,,,,,,,,,,,,,,,110,,,,,,,,,,,,,,,,,,,,,3,9,,,421.6529,4,right,0.1807,,1.5,0.3,"[3,2,1]",0.8672542,stimuli/card_100_transparent.png,100,4,0,4,0,1,,,,,,,,,,
,,,,5ba961b460f3d500016a2970,B,2024-06-22_12h25.57.705,Slot Machine Game,2023.1.3,Win32,59.17159763,,,,,,,,,,,,,,,,,,,,,,,,,,,210,,,,,,,,,,,,,,,,,,,,,3,9,,,424.1525,5,right,2.5995,,1.5,0.3,"[3,2,1]",0.238515758,stimuli/card_100_transparent.png,100,5,0,5,0,1,,,,,,,,,,
,,,,5ba961b460f3d500016a2970,B,2024-06-22_12h25.57.705,Slot Machine Game,2023.1.3,Win32,59.17159763,,,,,,,,,,,,,,,,,,,,,,,,,,,310,,,,,,,,,,,,,,,,,,,,,3,9,,,429.0693,6,right,1.6353,,1.5,0.3,"[3,2,1]",0.924119606,stimuli/card_100_transparent.png,100,6,0,6,0,1,,,,,,,,,,
,,,,5ba961b460f3d500016a2970,B,2024-06-22_12h25.57.705,Slot Machine Game,2023.1.3,Win32,59.17159763,,,,,,,,,,,,,,,,,,,,,,,,,,,410,,,,,,,,,,,,,,,,,,,,,3,9,,,433.0358,7,right,0.4261,,1,0.3,"[3,2,1]",0.656566757,stimuli/card_100_transparent.png,100,7,0,7,0,1,,,,,,,,,,
,,,,5ba961b460f3d500016a2970,B,2024-06-22_12h25.57.705,Slot Machine Game,2023.1.3,Win32,59.17159763,,,,,,,,,,,,,,,,,,,,,,,,,,,420,,,,,,,,,,,,,,,,,,,,,3,9,,,435.2856,8,right,1.5385,,0.5,0.3,"[3,1,2]",0.227953894,stimuli/card_10_transparent.png,10,8,0,8,0,1,,,,,,,,,,
,,,,5ba961b460f3d500016a2970,B,2024-06-22_12h25.57.705,Slot Machine Game,2023.1.3,Win32,59.17159763,,,,,,,,,,,,,,,,,,,,,,,,,,,420,,,,,,,,,,,,,,,,,,,,,3,9,,,438.1523,9,right,0.5589,,1,0.3,"[3,1,2]",0.046040266,stimuli/card_0_transparent.png,0,9,0,9,0,1,,,,,,,,,,
,,,,5ba961b460f3d500016a2970,B,2024-06-22_12h25.57.705,Slot Machine Game,2023.1.3,Win32,59.17159763,,,,,,,,,,,,,,,,,,,,,,,,,,,520,,,,,,,,,,,,,,,,,,,,,3,9,,,440.519,10,right,2.0443,,1.5,0.3,"[3,1,2]",0.104706277,stimuli/card_100_transparent.png,100,10,0,10,0,1,,,,,,,,,,
,,,,5ba961b460f3d500016a2970,B,2024-06-22_12h25.57.705,Slot Machine Game,2023.1.3,Win32,59.17159763,,,,,,,,,,,,,,,,,,,,,,,,,,,530,,,,,,,,,,,,,,,,,,,,,3,9,,,444.8854,11,right,0.9584,,1,0.3,"[3,1,2]",0.53523662,stimuli/card_10_transparent.png,10,11,0,11,0,1,,,,,,,,,,
,,,,5ba961b460f3d500016a2970,B,2024-06-22_12h25.57.705,Slot Machine Game,2023.1.3,Win32,59.17159763,,,,,,,,,,,,,,,,,,,,,,,,,,,540,,,,,,,,,,,,,,,,,,,,,3,9,,,447.6522,12,right,0.6566,,0.5,0.3,"[3,1,2]",0.821929697,stimuli/card_10_transparent.png,10,12,0,12,0,1,,,,,,,,,,
,,,,5ba961b460f3d500016a2970,B,2024-06-22_12h25.57.705,Slot Machine Game,2023.1.3,Win32,59.17159763,,,,,,,,,,,,,,,,,,,,,,,,,,,550,,,,,,,,,,,,,,,,,,,,,3,9,,,449.619,13,right,0.5095,,0.5,0.3,"[3,1,2]",0.593310526,stimuli/card_10_transparent.png,10,13,0,13,0,1,,,,,,,,,,
,,,,5ba961b460f3d500016a2970,B,2024-06-22_12h25.57.705,Slot Machine Game,2023.1.3,Win32,59.17159763,,,,,,,,,,,,,,,,,,,,,,,,,,,560,,,,,,,,,,,,,,,,,,,,,3,9,,,451.4527,14,right,0.5016,,1.5,0.3,"[3,1,2]",0.817203466,stimuli/card_10_transparent.png,10,14,0,14,0,1,,,,,,,,,,
,,,,5ba961b460f3d500016a2970,B,2024-06-22_12h25.57.705,Slot Machine Game,2023.1.3,Win32,59.17159763,,,,,,,,,,,,,,,,,,,,,,,,,,,,,,,,,,,454.2854,,,,,,,,,,,,,,,,,,,,,,,,,,,,,,,,,"[1040,920,560]",2,0,2,0,1,,,,
,,,,5ba961b460f3d500016a2970,B,2024-06-22_12h25.57.705,Slot Machine Game,2023.1.3,Win32,59.17159763,,,,,,,,,,,,,,,,,,,,,,,,,,,0,,,,,,,,,,,,,,,,,,,,,4,1,"[12,15]","[[2,1,3],[2,3,1]]",459.2953,0,right,0.8066,,1.5,0.3,"[2,1,3]",0.840962397,stimuli/card_0_transparent.png,0,0,0,0,0,1,,,,,,,,,,
,,,,5ba961b460f3d500016a2970,B,2024-06-22_12h25.57.705,Slot Machine Game,2023.1.3,Win32,59.17159763,,,,,,,,,,,,,,,,,,,,,,,,,,,0,,,,,,,,,,,,,,,,,,,,,4,1,,,462.4183,1,up,2.7728,,1.5,0.3,"[2,1,3]",0.029854915,stimuli/card_0_transparent.png,0,1,0,1,0,1,,,,,,,,,,
,,,,5ba961b460f3d500016a2970,B,2024-06-22_12h25.57.705,Slot Machine Game,2023.1.3,Win32,59.17159763,,,,,,,,,,,,,,,,,,,,,,,,,,,0,,,,,,,,,,,,,,,,,,,,,4,1,,,467.5018,2,right,0.0232,,1.5,0.3,"[2,1,3]",0.67017237,stimuli/card_0_transparent.png,0,2,0,2,0,1,,,,,,,,,,
,,,,5ba961b460f3d500016a2970,B,2024-06-22_12h25.57.705,Slot Machine Game,2023.1.3,Win32,59.17159763,,,,,,,,,,,,,,,,,,,,,,,,,,,100,,,,,,,,,,,,,,,,,,,,,4,1,,,469.8354,3,up,1.3505,,1.5,0.3,"[2,1,3]",0.359087272,stimuli/card_100_transparent.png,100,3,0,3,0,1,,,,,,,,,,
,,,,5ba961b460f3d500016a2970,B,2024-06-22_12h25.57.705,Slot Machine Game,2023.1.3,Win32,59.17159763,,,,,,,,,,,,,,,,,,,,,,,,,,,110,,,,,,,,,,,,,,,,,,,,,4,1,,,473.5186,4,up,0.1541,,1,0.3,"[2,1,3]",0.111316902,stimuli/card_10_transparent.png,10,4,0,4,0,1,,,,,,,,,,
,,,,5ba961b460f3d500016a2970,B,2024-06-22_12h25.57.705,Slot Machine Game,2023.1.3,Win32,59.17159763,,,,,,,,,,,,,,,,,,,,,,,,,,,110,,,,,,,,,,,,,,,,,,,,,4,1,,,475.5019,5,up,0.4198,,0.5,0.3,"[2,1,3]",0.002633973,stimuli/card_0_transparent.png,0,5,0,5,0,1,,,,,,,,,,
,,,,5ba961b460f3d500016a2970,B,2024-06-22_12h25.57.705,Slot Machine Game,2023.1.3,Win32,59.17159763,,,,,,,,,,,,,,,,,,,,,,,,,,,120,,,,,,,,,,,,,,,,,,,,,4,1,,,477.2514,6,up,0.4032,,1.5,0.3,"[2,1,3]",0.118123753,stimuli/card_10_transparent.png,10,6,0,6,0,1,,,,,,,,,,
,,,,5ba961b460f3d500016a2970,B,2024-06-22_12h25.57.705,Slot Machine Game,2023.1.3,Win32,59.17159763,,,,,,,,,,,,,,,,,,,,,,,,,,,130,,,,,,,,,,,,,,,,,,,,,4,1,,,479.9687,7,left,0.693,,0.5,0.3,"[2,1,3]",0.495384234,stimuli/card_10_transparent.png,10,7,0,7,0,1,,,,,,,,,,
,,,,5ba961b460f3d500016a2970,B,2024-06-22_12h25.57.705,Slot Machine Game,2023.1.3,Win32,59.17159763,,,,,,,,,,,,,,,,,,,,,,,,,,,230,,,,,,,,,,,,,,,,,,,,,4,1,,,481.9847,8,up,2.0103,,1,0.3,"[2,1,3]",0.708609416,stimuli/card_100_transparent.png,100,8,0,8,0,1,,,,,,,,,,
,,,,5ba961b460f3d500016a2970,B,2024-06-22_12h25.57.705,Slot Machine Game,2023.1.3,Win32,59.17159763,,,,,,,,,,,,,,,,,,,,,,,,,,,330,,,,,,,,,,,,,,,,,,,,,4,1,,,485.8187,9,up,1.6874,,1,0.3,"[2,1,3]",0.422046625,stimuli/card_100_transparent.png,100,9,0,9,0,1,,,,,,,,,,
,,,,5ba961b460f3d500016a2970,B,2024-06-22_12h25.57.705,Slot Machine Game,2023.1.3,Win32,59.17159763,,,,,,,,,,,,,,,,,,,,,,,,,,,430,,,,,,,,,,,,,,,,,,,,,4,1,,,489.335,10,up,0.4167,,1,0.3,"[2,1,3]",0.206156827,stimuli/card_100_transparent.png,100,10,0,10,0,1,,,,,,,,,,
,,,,5ba961b460f3d500016a2970,B,2024-06-22_12h25.57.705,Slot Machine Game,2023.1.3,Win32,59.17159763,,,,,,,,,,,,,,,,,,,,,,,,,,,530,,,,,,,,,,,,,,,,,,,,,4,1,,,491.5849,11,up,0.6236,,0.5,0.3,"[2,1,3]",0.760389916,stimuli/card_100_transparent.png,100,11,0,11,0,1,,,,,,,,,,
,,,,5ba961b460f3d500016a2970,B,2024-06-22_12h25.57.705,Slot Machine Game,2023.1.3,Win32,59.17159763,,,,,,,,,,,,,,,,,,,,,,,,,,,530,,,,,,,,,,,,,,,,,,,,,4,1,,,493.5342,12,up,0.7171,,0.5,0.3,"[2,3,1]",0.48874851,stimuli/card_0_transparent.png,0,12,0,12,0,1,,,,,,,,,,
,,,,5ba961b460f3d500016a2970,B,2024-06-22_12h25.57.705,Slot Machine Game,2023.1.3,Win32,59.17159763,,,,,,,,,,,,,,,,,,,,,,,,,,,540,,,,,,,,,,,,,,,,,,,,,4,1,,,495.5684,13,up,0.4547,,1.5,0.3,"[2,3,1]",0.179161023,stimuli/card_10_transparent.png,10,13,0,13,0,1,,,,,,,,,,
,,,,5ba961b460f3d500016a2970,B,2024-06-22_12h25.57.705,Slot Machine Game,2023.1.3,Win32,59.17159763,,,,,,,,,,,,,,,,,,,,,,,,,,,540,,,,,,,,,,,,,,,,,,,,,4,1,,,498.3513,14,up,1.5443,,1.5,0.3,"[2,3,1]",0.984342473,stimuli/card_0_transparent.png,0,14,0,14,0,1,,,,,,,,,,
,,,,5ba961b460f3d500016a2970,B,2024-06-22_12h25.57.705,Slot Machine Game,2023.1.3,Win32,59.17159763,,,,,,,,,,,,,,,,,,,,,,,,,,,,,,,,,,,502.2012,,,,,,,,,,,,,,,,,,,,,,,,,,,,,,,,,"[1040,920,560,540]",3,0,3,0,1,,,,
,,,,5ba961b460f3d500016a2970,B,2024-06-22_12h25.57.705,Slot Machine Game,2023.1.3,Win32,59.17159763,,,,,,,,,,,,,,,,,,,,,,,,,,,0,,,,,,,,,,,,,,,,,,,,,5,2,"[6,15]","[[1,3,2],[3,2,1]]",507.2113,0,up,1.1683,,0.5,0.3,"[1,3,2]",0.873772433,stimuli/card_0_transparent.png,0,0,0,0,0,1,,,,,,,,,,
,,,,5ba961b460f3d500016a2970,B,2024-06-22_12h25.57.705,Slot Machine Game,2023.1.3,Win32,59.17159763,,,,,,,,,,,,,,,,,,,,,,,,,,,100,,,,,,,,,,,,,,,,,,,,,5,2,,,509.7014,1,up,0.3772,,0.5,0.3,"[1,3,2]",0.091361522,stimuli/card_100_transparent.png,100,1,0,1,0,1,,,,,,,,,,
,,,,5ba961b460f3d500016a2970,B,2024-06-22_12h25.57.705,Slot Machine Game,2023.1.3,Win32,59.17159763,,,,,,,,,,,,,,,,,,,,,,,,,,,100,,,,,,,,,,,,,,,,,,,,,5,2,,,511.4012,2,up,0.3857,,0.5,0.3,"[1,3,2]",0.579778283,stimuli/card_0_transparent.png,0,2,0,2,0,1,,,,,,,,,,
,,,,5ba961b460f3d500016a2970,B,2024-06-22_12h25.57.705,Slot Machine Game,2023.1.3,Win32,59.17159763,,,,,,,,,,,,,,,,,,,,,,,,,,,100,,,,,,,,,,,,,,,,,,,,,5,2,,,513.101,3,up,0.1246,,1.5,0.3,"[1,3,2]",0.378096482,stimuli/card_0_transparent.png,0,3,0,3,0,1,,,,,,,,,,
,,,,5ba961b460f3d500016a2970,B,2024-06-22_12h25.57.705,Slot Machine Game,2023.1.3,Win32,59.17159763,,,,,,,,,,,,,,,,,,,,,,,,,,,200,,,,,,,,,,,,,,,,,,,,,5,2,,,515.5337,4,left,2.3001,,1.5,0.3,"[1,3,2]",0.810397547,stimuli/card_100_transparent.png,100,4,0,4,0,1,,,,,,,,,,
,,,,5ba961b460f3d500016a2970,B,2024-06-22_12h25.57.705,Slot Machine Game,2023.1.3,Win32,59.17159763,,,,,,,,,,,,,,,,,,,,,,,,,,,200,,,,,,,,,,,,,,,,,,,,,5,2,,,520.1514,5,left,0.8942,,1,0.3,"[1,3,2]",0.090484029,stimuli/card_0_transparent.png,0,5,0,5,0,1,,,,,,,,,,
,,,,5ba961b460f3d500016a2970,B,2024-06-22_12h25.57.705,Slot Machine Game,2023.1.3,Win32,59.17159763,,,,,,,,,,,,,,,,,,,,,,,,,,,200,,,,,,,,,,,,,,,,,,,,,5,2,,,522.8673,6,left,0.7177,,0.5,0.3,"[3,2,1]",0.349579491,stimuli/card_0_transparent.png,0,6,0,6,0,1,,,,,,,,,,
,,,,5ba961b460f3d500016a2970,B,2024-06-22_12h25.57.705,Slot Machine Game,2023.1.3,Win32,59.17159763,,,,,,,,,,,,,,,,,,,,,,,,,,,200,,,,,,,,,,,,,,,,,,,,,5,2,,,524.9173,7,left,1.4733,,0.5,0.3,"[3,2,1]",0.978725999,stimuli/card_0_transparent.png,0,7,0,7,0,1,,,,,,,,,,
,,,,5ba961b460f3d500016a2970,B,2024-06-22_12h25.57.705,Slot Machine Game,2023.1.3,Win32,59.17159763,,,,,,,,,,,,,,,,,,,,,,,,,,,210,,,,,,,,,,,,,,,,,,,,,5,2,,,527.7013,8,up,0.8353,,1,0.3,"[3,2,1]",0.966975871,stimuli/card_10_transparent.png,10,8,0,8,0,1,,,,,,,,,,
,,,,5ba961b460f3d500016a2970,B,2024-06-22_12h25.57.705,Slot Machine Game,2023.1.3,Win32,59.17159763,,,,,,,,,,,,,,,,,,,,,,,,,,,210,,,,,,,,,,,,,,,,,,,,,5,2,,,530.3674,9,up,0.0084,,0.5,0.3,"[3,2,1]",0.073270177,stimuli/card_0_transparent.png,0,9,0,9,0,1,,,,,,,,,,
,,,,5ba961b460f3d500016a2970,B,2024-06-22_12h25.57.705,Slot Machine Game,2023.1.3,Win32,59.17159763,,,,,,,,,,,,,,,,,,,,,,,,,,,310,,,,,,,,,,,,,,,,,,,,,5,2,,,531.7009,10,right,0.1664,,1.5,0.3,"[3,2,1]",0.764018109,stimuli/card_100_transparent.png,100,10,0,10,0,1,,,,,,,,,,
,,,,5ba961b460f3d500016a2970,B,2024-06-22_12h25.57.705,Slot Machine Game,2023.1.3,Win32,59.17159763,,,,,,,,,,,,,,,,,,,,,,,,,,,410,,,,,,,,,,,,,,,,,,,,,5,2,,,534.1842,11,right,2.3862,,1,0.3,"[3,2,1]",0.445155831,stimuli/card_100_transparent.png,100,11,0,11,0,1,,,,,,,,,,
,,,,5ba961b460f3d500016a2970,B,2024-06-22_12h25.57.705,Slot Machine Game,2023.1.3,Win32,59.17159763,,,,,,,,,,,,,,,,,,,,,,,,,,,510,,,,,,,,,,,,,,,,,,,,,5,2,,,538.4008,12,right,0.8408,,0.5,0.3,"[3,2,1]",0.984102319,stimuli/card_100_transparent.png,100,12,0,12,0,1,,,,,,,,,,
,,,,5ba961b460f3d500016a2970,B,2024-06-22_12h25.57.705,Slot Machine Game,2023.1.3,Win32,59.17159763,,,,,,,,,,,,,,,,,,,,,,,,,,,610,,,,,,,,,,,,,,,,,,,,,5,2,,,540.5671,13,right,0.4017,,1.5,0.3,"[3,2,1]",0.872098037,stimuli/card_100_transparent.png,100,13,0,13,0,1,,,,,,,,,,
,,,,5ba961b460f3d500016a2970,B,2024-06-22_12h25.57.705,Slot Machine Game,2023.1.3,Win32,59.17159763,,,,,,,,,,,,,,,,,,,,,,,,,,,710,,,,,,,,,,,,,,,,,,,,,5,2,,,543.2838,14,right,0.034,,0.5,0.3,"[3,2,1]",0.555012257,stimuli/card_100_transparent.png,100,14,0,14,0,1,,,,,,,,,,
,,,,5ba961b460f3d500016a2970,B,2024-06-22_12h25.57.705,Slot Machine Game,2023.1.3,Win32,59.17159763,,,,,,,,,,,,,,,,,,,,,,,,,,,,,,,,,,,544.6505,,,,,,,,,,,,,,,,,,,,,,,,,,,,,,,,,"[1040,920,560,540,710]",4,0,4,0,1,,,,
,,,,5ba961b460f3d500016a2970,B,2024-06-22_12h25.57.705,Slot Machine Game,2023.1.3,Win32,59.17159763,,,,,,,,,,,,,,,,,,,,,,,,,,,100,,,,,,,,,,,,,,,,,,,,,6,4,"[7,15]","[[2,3,1],[1,2,3]]",549.6603,0,right,3.9069,,0.5,0.3,"[2,3,1]",0.910670698,stimuli/card_100_transparent.png,100,0,0,0,0,1,,,,,,,,,,
,,,,5ba961b460f3d500016a2970,B,2024-06-22_12h25.57.705,Slot Machine Game,2023.1.3,Win32,59.17159763,,,,,,,,,,,,,,,,,,,,,,,,,,,200,,,,,,,,,,,,,,,,,,,,,6,4,,,554.8836,1,right,0.6729,,0.5,0.3,"[2,3,1]",0.647009409,stimuli/card_100_transparent.png,100,1,0,1,0,1,,,,,,,,,,
,,,,5ba961b460f3d500016a2970,B,2024-06-22_12h25.57.705,Slot Machine Game,2023.1.3,Win32,59.17159763,,,,,,,,,,,,,,,,,,,,,,,,,,,300,,,,,,,,,,,,,,,,,,,,,6,4,,,556.8666,2,right,0.2225,,1.5,0.3,"[2,3,1]",0.694284181,stimuli/card_100_transparent.png,100,2,0,2,0,1,,,,,,,,,,
,,,,5ba961b460f3d500016a2970,B,2024-06-22_12h25.57.705,Slot Machine Game,2023.1.3,Win32,59.17159763,,,,,,,,,,,,,,,,,,,,,,,,,,,310,,,,,,,,,,,,,,,,,,,,,6,4,,,559.4003,3,right,0.4364,,1.5,0.3,"[2,3,1]",0.133490104,stimuli/card_10_transparent.png,10,3,0,3,0,1,,,,,,,,,,
,,,,5ba961b460f3d500016a2970,B,2024-06-22_12h25.57.705,Slot Machine Game,2023.1.3,Win32,59.17159763,,,,,,,,,,,,,,,,,,,,,,,,,,,410,,,,,,,,,,,,,,,,,,,,,6,4,,,562.1672,4,right,1.6858,,1.5,0.3,"[2,3,1]",0.460071507,stimuli/card_100_transparent.png,100,4,0,4,0,1,,,,,,,,,,
,,,,5ba961b460f3d500016a2970,B,2024-06-22_12h25.57.705,Slot Machine Game,2023.1.3,Win32,59.17159763,,,,,,,,,,,,,,,,,,,,,,,,,,,510,,,,,,,,,,,,,,,,,,,,,6,4,,,566.1833,5,right,0.6048,,1,0.3,"[2,3,1]",0.296136784,stimuli/card_100_transparent.png,100,5,0,5,0,1,,,,,,,,,,
,,,,5ba961b460f3d500016a2970,B,2024-06-22_12h25.57.705,Slot Machine Game,2023.1.3,Win32,59.17159763,,,,,,,,,,,,,,,,,,,,,,,,,,,610,,,,,,,,,,,,,,,,,,,,,6,4,,,568.5996,6,right,0.6595,,1,0.3,"[2,3,1]",0.550024677,stimuli/card_100_transparent.png,100,6,0,6,0,1,,,,,,,,,,
,,,,5ba961b460f3d500016a2970,B,2024-06-22_12h25.57.705,Slot Machine Game,2023.1.3,Win32,59.17159763,,,,,,,,,,,,,,,,,,,,,,,,,,,610,,,,,,,,,,,,,,,,,,,,,6,4,,,571.0672,7,right,0.217,,0.5,0.3,"[1,2,3]",0.215430797,stimuli/card_0_transparent.png,0,7,0,7,0,1,,,,,,,,,,
,,,,5ba961b460f3d500016a2970,B,2024-06-22_12h25.57.705,Slot Machine Game,2023.1.3,Win32,59.17159763,,,,,,,,,,,,,,,,,,,,,,,,,,,610,,,,,,,,,,,,,,,,,,,,,6,4,,,572.6167,8,right,0.3367,,1,0.3,"[1,2,3]",0.289527782,stimuli/card_0_transparent.png,0,8,0,8,0,1,,,,,,,,,,
,,,,5ba961b460f3d500016a2970,B,2024-06-22_12h25.57.705,Slot Machine Game,2023.1.3,Win32,59.17159763,,,,,,,,,,,,,,,,,,,,,,,,,,,610,,,,,,,,,,,,,,,,,,,,,6,4,,,574.7668,9,right,0.1007,,0.5,0.3,"[1,2,3]",0.834127146,stimuli/card_0_transparent.png,0,9,0,9,0,1,,,,,,,,,,
,,,,5ba961b460f3d500016a2970,B,2024-06-22_12h25.57.705,Slot Machine Game,2023.1.3,Win32,59.17159763,,,,,,,,,,,,,,,,,,,,,,,,,,,620,,,,,,,,,,,,,,,,,,,,,6,4,,,576.2,10,up,1.9351,,0.5,0.3,"[1,2,3]",0.751259834,stimuli/card_10_transparent.png,10,10,0,10,0,1,,,,,,,,,,
,,,,5ba961b460f3d500016a2970,B,2024-06-22_12h25.57.705,Slot Machine Game,2023.1.3,Win32,59.17159763,,,,,,,,,,,,,,,,,,,,,,,,,,,630,,,,,,,,,,,,,,,,,,,,,6,4,,,579.4669,11,up,0.2909,,1.5,0.3,"[1,2,3]",0.329699552,stimuli/card_10_transparent.png,10,11,0,11,0,1,,,,,,,,,,
,,,,5ba961b460f3d500016a2970,B,2024-06-22_12h25.57.705,Slot Machine Game,2023.1.3,Win32,59.17159763,,,,,,,,,,,,,,,,,,,,,,,,,,,640,,,,,,,,,,,,,,,,,,,,,6,4,,,582.083,12,up,0.401,,1,0.3,"[1,2,3]",0.307890593,stimuli/card_10_transparent.png,10,12,0,12,0,1,,,,,,,,,,
,,,,5ba961b460f3d500016a2970,B,2024-06-22_12h25.57.705,Slot Machine Game,2023.1.3,Win32,59.17159763,,,,,,,,,,,,,,,,,,,,,,,,,,,650,,,,,,,,,,,,,,,,,,,,,6,4,,,584.2998,13,up,0.1646,,1.5,0.3,"[1,2,3]",0.912193582,stimuli/card_10_transparent.png,10,13,0,13,0,1,,,,,,,,,,
,,,,5ba961b460f3d500016a2970,B,2024-06-22_12h25.57.705,Slot Machine Game,2023.1.3,Win32,59.17159763,,,,,,,,,,,,,,,,,,,,,,,,,,,650,,,,,,,,,,,,,,,,,,,,,6,4,,,586.7833,14,right,0.5667,,0.5,0.3,"[1,2,3]",0.481252506,stimuli/card_0_transparent.png,0,14,0,14,0,1,,,,,,,,,,
,,,,5ba961b460f3d500016a2970,B,2024-06-22_12h25.57.705,Slot Machine Game,2023.1.3,Win32,59.17159763,,,,,,,,,,,,,,,,,,,,,,,,,,,,,,,,,,,588.6832,,,,,,,,,,,,,,,,,,,,,,,,,,,,,,,,,"[1040,920,560,540,710,650]",5,0,5,0,1,,,,
,,,,5ba961b460f3d500016a2970,B,2024-06-22_12h25.57.705,Slot Machine Game,2023.1.3,Win32,59.17159763,,,,,,,,,,,,,,,,,,,,,,,,,,,0,,,,,,,,,,,,,,,,,,,,,7,10,"[10,15]","[[3,1,2],[1,3,2]]",593.6953,0,left,0.3698,,1,0.3,"[3,1,2]",0.408575021,stimuli/card_0_transparent.png,0,0,0,0,0,1,,,,,,,,,,
,,,,5ba961b460f3d500016a2970,B,2024-06-22_12h25.57.705,Slot Machine Game,2023.1.3,Win32,59.17159763,,,,,,,,,,,,,,,,,,,,,,,,,,,100,,,,,,,,,,,,,,,,,,,,,7,10,,,595.8831,1,up,3.5345,,1.5,0.3,"[3,1,2]",0.229982695,stimuli/card_100_transparent.png,100,1,0,1,0,1,,,,,,,,,,
,,,,5ba961b460f3d500016a2970,B,2024-06-22_12h25.57.705,Slot Machine Game,2023.1.3,Win32,59.17159763,,,,,,,,,,,,,,,,,,,,,,,,,,,100,,,,,,,,,,,,,,,,,,,,,7,10,,,601.7498,2,right,0.2783,,1,0.3,"[3,1,2]",0.029376953,stimuli/card_0_transparent.png,0,2,0,2,0,1,,,,,,,,,,
,,,,5ba961b460f3d500016a2970,B,2024-06-22_12h25.57.705,Slot Machine Game,2023.1.3,Win32,59.17159763,,,,,,,,,,,,,,,,,,,,,,,,,,,200,,,,,,,,,,,,,,,,,,,,,7,10,,,603.85,3,up,0.3328,,1,0.3,"[3,1,2]",0.381322991,stimuli/card_100_transparent.png,100,3,0,3,0,1,,,,,,,,,,
,,,,5ba961b460f3d500016a2970,B,2024-06-22_12h25.57.705,Slot Machine Game,2023.1.3,Win32,59.17159763,,,,,,,,,,,,,,,,,,,,,,,,,,,300,,,,,,,,,,,,,,,,,,,,,7,10,,,606.0162,4,up,0.3194,,1,0.3,"[3,1,2]",0.271986902,stimuli/card_100_transparent.png,100,4,0,4,0,1,,,,,,,,,,
,,,,5ba961b460f3d500016a2970,B,2024-06-22_12h25.57.705,Slot Machine Game,2023.1.3,Win32,59.17159763,,,,,,,,,,,,,,,,,,,,,,,,,,,400,,,,,,,,,,,,,,,,,,,,,7,10,,,608.1663,5,up,0.6181,,1,0.3,"[3,1,2]",0.372746911,stimuli/card_100_transparent.png,100,5,0,5,0,1,,,,,,,,,,
,,,,5ba961b460f3d500016a2970,B,2024-06-22_12h25.57.705,Slot Machine Game,2023.1.3,Win32,59.17159763,,,,,,,,,,,,,,,,,,,,,,,,,,,500,,,,,,,,,,,,,,,,,,,,,7,10,,,610.6161,6,up,0.3886,,1.5,0.3,"[3,1,2]",0.443027115,stimuli/card_100_transparent.png,100,6,0,6,0,1,,,,,,,,,,
,,,,5ba961b460f3d500016a2970,B,2024-06-22_12h25.57.705,Slot Machine Game,2023.1.3,Win32,59.17159763,,,,,,,,,,,,,,,,,,,,,,,,,,,600,,,,,,,,,,,,,,,,,,,,,7,10,,,613.3328,7,up,0.1677,,0.5,0.3,"[3,1,2]",0.245821477,stimuli/card_100_transparent.png,100,7,0,7,0,1,,,,,,,,,,
,,,,5ba961b460f3d500016a2970,B,2024-06-22_12h25.57.705,Slot Machine Game,2023.1.3,Win32,59.17159763,,,,,,,,,,,,,,,,,,,,,,,,,,,700,,,,,,,,,,,,,,,,,,,,,7,10,,,614.8327,8,up,0.5049,,1.5,0.3,"[3,1,2]",0.89804714,stimuli/card_100_transparent.png,100,8,0,8,0,1,,,,,,,,,,
,,,,5ba961b460f3d500016a2970,B,2024-06-22_12h25.57.705,Slot Machine Game,2023.1.3,Win32,59.17159763,,,,,,,,,,,,,,,,,,,,,,,,,,,800,,,,,,,,,,,,,,,,,,,,,7,10,,,617.666,9,up,0.6929,,1.5,0.3,"[3,1,2]",0.275424533,stimuli/card_100_transparent.png,100,9,0,9,0,1,,,,,,,,,,
,,,,5ba961b460f3d500016a2970,B,2024-06-22_12h25.57.705,Slot Machine Game,2023.1.3,Win32,59.17159763,,,,,,,,,,,,,,,,,,,,,,,,,,,800,,,,,,,,,,,,,,,,,,,,,7,10,,,620.6826,10,up,0.1356,,1.5,0.3,"[1,3,2]",0.601724876,stimuli/card_0_transparent.png,0,10,0,10,0,1,,,,,,,,,,
,,,,5ba961b460f3d500016a2970,B,2024-06-22_12h25.57.705,Slot Machine Game,2023.1.3,Win32,59.17159763,,,,,,,,,,,,,,,,,,,,,,,,,,,800,,,,,,,,,,,,,,,,,,,,,7,10,,,623.149,11,up,0.0277,,1.5,0.3,"[1,3,2]",0.239133866,stimuli/card_0_transparent.png,0,11,0,11,0,1,,,,,,,,,,
,,,,5ba961b460f3d500016a2970,B,2024-06-22_12h25.57.705,Slot Machine Game,2023.1.3,Win32,59.17159763,,,,,,,,,,,,,,,,,,,,,,,,,,,900,,,,,,,,,,,,,,,,,,,,,7,10,,,625.499,12,up,0.3422,,0.5,0.3,"[1,3,2]",0.090168521,stimuli/card_100_transparent.png,100,12,0,12,0,1,,,,,,,,,,
,,,,5ba961b460f3d500016a2970,B,2024-06-22_12h25.57.705,Slot Machine Game,2023.1.3,Win32,59.17159763,,,,,,,,,,,,,,,,,,,,,,,,,,,900,,,,,,,,,,,,,,,,,,,,,7,10,,,627.1491,13,up,1.9184,,1.5,0.3,"[1,3,2]",0.209785409,stimuli/card_0_transparent.png,0,13,0,13,0,1,,,,,,,,,,
,,,,5ba961b460f3d500016a2970,B,2024-06-22_12h25.57.705,Slot Machine Game,2023.1.3,Win32,59.17159763,,,,,,,,,,,,,,,,,,,,,,,,,,,900,,,,,,,,,,,,,,,,,,,,,7,10,,,631.382,14,up,0.0343,,0.5,0.3,"[1,3,2]",0.412513504,stimuli/card_0_transparent.png,0,14,0,14,0,1,,,,,,,,,,
,,,,5ba961b460f3d500016a2970,B,2024-06-22_12h25.57.705,Slot Machine Game,2023.1.3,Win32,59.17159763,,,,,,,,,,,,,,,,,,,,,,,,,,,,,,,,,,,632.7324,,,,,,,,,,,,,,,,,,,,,,,,,,,,,,,,,"[1040,920,560,540,710,650,900]",6,0,6,0,1,,,,
,,,,5ba961b460f3d500016a2970,B,2024-06-22_12h25.57.705,Slot Machine Game,2023.1.3,Win32,59.17159763,,,,,,,,,,,,,,,,,,,,,,,,,,,0,,,,,,,,,,,,,,,,,,,,,8,7,"[9,15]","[[1,3,2],[2,3,1]]",637.7436,0,up,0.4195,,1,0.3,"[1,3,2]",0.991416931,stimuli/card_0_transparent.png,0,0,0,0,0,1,,,,,,,,,,
,,,,5ba961b460f3d500016a2970,B,2024-06-22_12h25.57.705,Slot Machine Game,2023.1.3,Win32,59.17159763,,,,,,,,,,,,,,,,,,,,,,,,,,,100,,,,,,,,,,,,,,,,,,,,,8,7,,,639.9827,1,left,0.0782,,0.5,0.3,"[1,3,2]",0.216603016,stimuli/card_100_transparent.png,100,1,0,1,0,1,,,,,,,,,,
,,,,5ba961b460f3d500016a2970,B,2024-06-22_12h25.57.705,Slot Machine Game,2023.1.3,Win32,59.17159763,,,,,,,,,,,,,,,,,,,,,,,,,,,110,,,,,,,,,,,,,,,,,,,,,8,7,,,641.3821,2,right,1.7889,,1.5,0.3,"[1,3,2]",0.700033577,stimuli/card_10_transparent.png,10,2,0,2,0,1,,,,,,,,,,
,,,,5ba961b460f3d500016a2970,B,2024-06-22_12h25.57.705,Slot Machine Game,2023.1.3,Win32,59.17159763,,,,,,,,,,,,,,,,,,,,,,,,,,,110,,,,,,,,,,,,,,,,,,,,,8,7,,,645.4986,3,up,0.2703,,1.5,0.3,"[1,3,2]",0.595886293,stimuli/card_0_transparent.png,0,3,0,3,0,1,,,,,,,,,,
,,,,5ba961b460f3d500016a2970,B,2024-06-22_12h25.57.705,Slot Machine Game,2023.1.3,Win32,59.17159763,,,,,,,,,,,,,,,,,,,,,,,,,,,210,,,,,,,,,,,,,,,,,,,,,8,7,,,648.0824,4,left,0.1227,,0.5,0.3,"[1,3,2]",0.214386103,stimuli/card_100_transparent.png,100,4,0,4,0,1,,,,,,,,,,
,,,,5ba961b460f3d500016a2970,B,2024-06-22_12h25.57.705,Slot Machine Game,2023.1.3,Win32,59.17159763,,,,,,,,,,,,,,,,,,,,,,,,,,,220,,,,,,,,,,,,,,,,,,,,,8,7,,,649.5319,5,right,0.6152,,0.5,0.3,"[1,3,2]",0.974898813,stimuli/card_10_transparent.png,10,5,0,5,0,1,,,,,,,,,,
,,,,5ba961b460f3d500016a2970,B,2024-06-22_12h25.57.705,Slot Machine Game,2023.1.3,Win32,59.17159763,,,,,,,,,,,,,,,,,,,,,,,,,,,220,,,,,,,,,,,,,,,,,,,,,8,7,,,651.4652,6,up,0.1604,,1.5,0.3,"[1,3,2]",0.924777703,stimuli/card_0_transparent.png,0,6,0,6,0,1,,,,,,,,,,
,,,,5ba961b460f3d500016a2970,B,2024-06-22_12h25.57.705,Slot Machine Game,2023.1.3,Win32,59.17159763,,,,,,,,,,,,,,,,,,,,,,,,,,,320,,,,,,,,,,,,,,,,,,,,,8,7,,,653.949,7,left,0.8551,,1,0.3,"[1,3,2]",0.347881181,stimuli/card_100_transparent.png,100,7,0,7,0,1,,,,,,,,,,
,,,,5ba961b460f3d500016a2970,B,2024-06-22_12h25.57.705,Slot Machine Game,2023.1.3,Win32,59.17159763,,,,,,,,,,,,,,,,,,,,,,,,,,,320,,,,,,,,,,,,,,,,,,,,,8,7,,,656.632,8,up,0.0171,,0.5,0.3,"[1,3,2]",0.433853207,stimuli/card_0_transparent.png,0,8,0,8,0,1,,,,,,,,,,
,,,,5ba961b460f3d500016a2970,B,2024-06-22_12h25.57.705,Slot Machine Game,2023.1.3,Win32,59.17159763,,,,,,,,,,,,,,,,,,,,,,,,,,,330,,,,,,,,,,,,,,,,,,,,,8,7,,,657.9822,9,right,1.1714,,1,0.3,"[2,3,1]",0.168201552,stimuli/card_10_transparent.png,10,9,0,9,0,1,,,,,,,,,,
,,,,5ba961b460f3d500016a2970,B,2024-06-22_12h25.57.705,Slot Machine Game,2023.1.3,Win32,59.17159763,,,,,,,,,,,,,,,,,,,,,,,,,,,330,,,,,,,,,,,,,,,,,,,,,8,7,,,660.9819,10,left,0.3506,,0.5,0.3,"[2,3,1]",0.044772271,stimuli/card_0_transparent.png,0,10,0,10,0,1,,,,,,,,,,
,,,,5ba961b460f3d500016a2970,B,2024-06-22_12h25.57.705,Slot Machine Game,2023.1.3,Win32,59.17159763,,,,,,,,,,,,,,,,,,,,,,,,,,,340,,,,,,,,,,,,,,,,,,,,,8,7,,,662.6488,11,up,0.9441,,1,0.3,"[2,3,1]",0.118867468,stimuli/card_10_transparent.png,10,11,0,11,0,1,,,,,,,,,,
,,,,5ba961b460f3d500016a2970,B,2024-06-22_12h25.57.705,Slot Machine Game,2023.1.3,Win32,59.17159763,,,,,,,,,,,,,,,,,,,,,,,,,,,350,,,,,,,,,,,,,,,,,,,,,8,7,,,665.4152,12,right,0.6835,,1,0.3,"[2,3,1]",0.150638017,stimuli/card_10_transparent.png,10,12,0,12,0,1,,,,,,,,,,
,,,,5ba961b460f3d500016a2970,B,2024-06-22_12h25.57.705,Slot Machine Game,2023.1.3,Win32,59.17159763,,,,,,,,,,,,,,,,,,,,,,,,,,,450,,,,,,,,,,,,,,,,,,,,,8,7,,,667.932,13,right,0.0439,,0.5,0.3,"[2,3,1]",0.921092842,stimuli/card_100_transparent.png,100,13,0,13,0,1,,,,,,,,,,
,,,,5ba961b460f3d500016a2970,B,2024-06-22_12h25.57.705,Slot Machine Game,2023.1.3,Win32,59.17159763,,,,,,,,,,,,,,,,,,,,,,,,,,,550,,,,,,,,,,,,,,,,,,,,,8,7,,,669.2985,14,right,1.2445,,1,0.3,"[2,3,1]",0.589708788,stimuli/card_100_transparent.png,100,14,0,14,0,1,,,,,,,,,,
,,,,5ba961b460f3d500016a2970,B,2024-06-22_12h25.57.705,Slot Machine Game,2023.1.3,Win32,59.17159763,,,,,,,,,,,,,,,,,,,,,,,,,,,,,,,,,,,672.3653,,,,,,,,,,,,,,,,,,,,,,,,,,,,,,,,,"[1040,920,560,540,710,650,900,550]",7,0,7,0,1,,,,
,,,,5ba961b460f3d500016a2970,B,2024-06-22_12h25.57.705,Slot Machine Game,2023.1.3,Win32,59.17159763,,,,,,,,,,,,,,,,,,,,,,,,,,,10,,,,,,,,,,,,,,,,,,,,,9,9,[15],"[[3,1,2]]",677.3768,0,right,1.1001,,1.5,0.3,"[3,1,2]",0.488127734,stimuli/card_10_transparent.png,10,0,0,0,0,1,,,,,,,,,,
,,,,5ba961b460f3d500016a2970,B,2024-06-22_12h25.57.705,Slot Machine Game,2023.1.3,Win32,59.17159763,,,,,,,,,,,,,,,,,,,,,,,,,,,10,,,,,,,,,,,,,,,,,,,,,9,9,,,680.7978,1,left,0.9914,,0.5,0.3,"[3,1,2]",0.245875721,stimuli/card_0_transparent.png,0,1,0,1,0,1,,,,,,,,,,
,,,,5ba961b460f3d500016a2970,B,2024-06-22_12h25.57.705,Slot Machine Game,2023.1.3,Win32,59.17159763,,,,,,,,,,,,,,,,,,,,,,,,,,,110,,,,,,,,,,,,,,,,,,,,,9,9,,,683.0981,2,up,2.183,,1.5,0.3,"[3,1,2]",0.819552447,stimuli/card_100_transparent.png,100,2,0,2,0,1,,,,,,,,,,
,,,,5ba961b460f3d500016a2970,B,2024-06-22_12h25.57.705,Slot Machine Game,2023.1.3,Win32,59.17159763,,,,,,,,,,,,,,,,,,,,,,,,,,,210,,,,,,,,,,,,,,,,,,,,,9,9,,,687.5981,3,up,0.0857,,0.5,0.3,"[3,1,2]",0.676343713,stimuli/card_100_transparent.png,100,3,0,3,0,1,,,,,,,,,,
,,,,5ba961b460f3d500016a2970,B,2024-06-22_12h25.57.705,Slot Machine Game,2023.1.3,Win32,59.17159763,,,,,,,,,,,,,,,,,,,,,,,,,,,310,,,,,,,,,,,,,,,,,,,,,9,9,,,689.0144,4,up,0.3999,,1,0.3,"[3,1,2]",0.945373791,stimuli/card_100_transparent.png,100,4,0,4,0,1,,,,,,,,,,
,,,,5ba961b460f3d500016a2970,B,2024-06-22_12h25.57.705,Slot Machine Game,2023.1.3,Win32,59.17159763,,,,,,,,,,,,,,,,,,,,,,,,,,,310,,,,,,,,,,,,,,,,,,,,,9,9,,,691.2313,5,up,3.195,,0.5,0.3,"[3,1,2]",0.098740538,stimuli/card_0_transparent.png,0,5,0,5,0,1,,,,,,,,,,
,,,,5ba961b460f3d500016a2970,B,2024-06-22_12h25.57.705,Slot Machine Game,2023.1.3,Win32,59.17159763,,,,,,,,,,,,,,,,,,,,,,,,,,,410,,,,,,,,,,,,,,,,,,,,,9,9,,,695.7481,6,up,1.0939,,0.5,0.3,"[3,1,2]",0.678488252,stimuli/card_100_transparent.png,100,6,0,6,0,1,,,,,,,,,,
,,,,5ba961b460f3d500016a2970,B,2024-06-22_12h25.57.705,Slot Machine Game,2023.1.3,Win32,59.17159763,,,,,,,,,,,,,,,,,,,,,,,,,,,420,,,,,,,,,,,,,,,,,,,,,9,9,,,698.1645,7,right,0.1715,,1.5,0.3,"[3,1,2]",0.909752935,stimuli/card_10_transparent.png,10,7,0,7,0,1,,,,,,,,,,
,,,,5ba961b460f3d500016a2970,B,2024-06-22_12h25.57.705,Slot Machine Game,2023.1.3,Win32,59.17159763,,,,,,,,,,,,,,,,,,,,,,,,,,,430,,,,,,,,,,,,,,,,,,,,,9,9,,,700.6647,8,right,0.1739,,0.5,0.3,"[3,1,2]",0.482898681,stimuli/card_10_transparent.png,10,8,0,8,0,1,,,,,,,,,,
,,,,5ba961b460f3d500016a2970,B,2024-06-22_12h25.57.705,Slot Machine Game,2023.1.3,Win32,59.17159763,,,,,,,,,,,,,,,,,,,,,,,,,,,430,,,,,,,,,,,,,,,,,,,,,9,9,,,702.1644,9,right,0.283,,0.5,0.3,"[3,1,2]",0.0513264,stimuli/card_0_transparent.png,0,9,0,9,0,1,,,,,,,,,,
,,,,5ba961b460f3d500016a2970,B,2024-06-22_12h25.57.705,Slot Machine Game,2023.1.3,Win32,59.17159763,,,,,,,,,,,,,,,,,,,,,,,,,,,530,,,,,,,,,,,,,,,,,,,,,9,9,,,703.7647,10,up,1.0017,,0.5,0.3,"[3,1,2]",0.659179391,stimuli/card_100_transparent.png,100,10,0,10,0,1,,,,,,,,,,
,,,,5ba961b460f3d500016a2970,B,2024-06-22_12h25.57.705,Slot Machine Game,2023.1.3,Win32,59.17159763,,,,,,,,,,,,,,,,,,,,,,,,,,,630,,,,,,,,,,,,,,,,,,,,,9,9,,,706.0976,11,up,0.4667,,0.5,0.3,"[3,1,2]",0.444895696,stimuli/card_100_transparent.png,100,11,0,11,0,1,,,,,,,,,,
,,,,5ba961b460f3d500016a2970,B,2024-06-22_12h25.57.705,Slot Machine Game,2023.1.3,Win32,59.17159763,,,,,,,,,,,,,,,,,,,,,,,,,,,730,,,,,,,,,,,,,,,,,,,,,9,9,,,707.8979,12,up,0.9592,,0.5,0.3,"[3,1,2]",0.64994056,stimuli/card_100_transparent.png,100,12,0,12,0,1,,,,,,,,,,
,,,,5ba961b460f3d500016a2970,B,2024-06-22_12h25.57.705,Slot Machine Game,2023.1.3,Win32,59.17159763,,,,,,,,,,,,,,,,,,,,,,,,,,,830,,,,,,,,,,,,,,,,,,,,,9,9,,,710.1809,13,up,0.2829,,1,0.3,"[3,1,2]",0.536995137,stimuli/card_100_transparent.png,100,13,0,13,0,1,,,,,,,,,,
,,,,5ba961b460f3d500016a2970,B,2024-06-22_12h25.57.705,Slot Machine Game,2023.1.3,Win32,59.17159763,,,,,,,,,,,,,,,,,,,,,,,,,,,930,,,,,,,,,,,,,,,,,,,,,9,9,,,712.2979,14,up,0.1336,,1.5,0.3,"[3,1,2]",0.617523284,stimuli/card_100_transparent.png,100,14,0,14,0,1,,,,,,,,,,
,,,,5ba961b460f3d500016a2970,B,2024-06-22_12h25.57.705,Slot Machine Game,2023.1.3,Win32,59.17159763,,,,,,,,,,,,,,,,,,,,,,,,,,,,,,,,,,,714.7638,,,,,,,,,,,,,,,,,,,,,,,,,,,,,,,,,"[1040,920,560,540,710,650,900,550,930]",8,0,8,0,1,,,,
,,,,5ba961b460f3d500016a2970,B,2024-06-22_12h25.57.705,Slot Machine Game,2023.1.3,Win32,59.17159763,,,,,,,,,,,,,,,,,,,,,,,,,,,10,,,,,,,,,,,,,,,,,,,,,10,6,"[4,10,15]","[[2,3,1],[1,3,2],[3,2,1]]",719.7761,0,left,0.7019,,1.5,0.3,"[2,3,1]",0.934455939,stimuli/card_10_transparent.png,10,0,0,0,0,1,,,,,,,,,,
,,,,5ba961b460f3d500016a2970,B,2024-06-22_12h25.57.705,Slot Machine Game,2023.1.3,Win32,59.17159763,,,,,,,,,,,,,,,,,,,,,,,,,,,10,,,,,,,,,,,,,,,,,,,,,10,6,,,722.7976,1,up,0.0714,,1.5,0.3,"[2,3,1]",0.756541681,stimuli/card_0_transparent.png,0,1,0,1,0,1,,,,,,,,,,
,,,,5ba961b460f3d500016a2970,B,2024-06-22_12h25.57.705,Slot Machine Game,2023.1.3,Win32,59.17159763,,,,,,,,,,,,,,,,,,,,,,,,,,,10,,,,,,,,,,,,,,,,,,,,,10,6,,,725.1975,2,up,0.6703,,0.5,0.3,"[2,3,1]",0.380042044,stimuli/card_0_transparent.png,0,2,0,2,0,1,,,,,,,,,,
,,,,5ba961b460f3d500016a2970,B,2024-06-22_12h25.57.705,Slot Machine Game,2023.1.3,Win32,59.17159763,,,,,,,,,,,,,,,,,,,,,,,,,,,10,,,,,,,,,,,,,,,,,,,,,10,6,,,727.1975,3,right,1.5146,,1.5,0.3,"[2,3,1]",0.028688014,stimuli/card_0_transparent.png,0,3,0,3,0,1,,,,,,,,,,
,,,,5ba961b460f3d500016a2970,B,2024-06-22_12h25.57.705,Slot Machine Game,2023.1.3,Win32,59.17159763,,,,,,,,,,,,,,,,,,,,,,,,,,,20,,,,,,,,,,,,,,,,,,,,,10,6,,,731.0473,4,right,0.0524,,1.5,0.3,"[1,3,2]",0.31642591,stimuli/card_10_transparent.png,10,4,0,4,0,1,,,,,,,,,,
,,,,5ba961b460f3d500016a2970,B,2024-06-22_12h25.57.705,Slot Machine Game,2023.1.3,Win32,59.17159763,,,,,,,,,,,,,,,,,,,,,,,,,,,120,,,,,,,,,,,,,,,,,,,,,10,6,,,733.4305,5,left,0.2339,,0.5,0.3,"[1,3,2]",0.966151705,stimuli/card_100_transparent.png,100,5,0,5,0,1,,,,,,,,,,
,,,,5ba961b460f3d500016a2970,B,2024-06-22_12h25.57.705,Slot Machine Game,2023.1.3,Win32,59.17159763,,,,,,,,,,,,,,,,,,,,,,,,,,,120,,,,,,,,,,,,,,,,,,,,,10,6,,,734.9809,6,up,0.3513,,1.5,0.3,"[1,3,2]",0.780771353,stimuli/card_0_transparent.png,0,6,0,6,0,1,,,,,,,,,,
,,,,5ba961b460f3d500016a2970,B,2024-06-22_12h25.57.705,Slot Machine Game,2023.1.3,Win32,59.17159763,,,,,,,,,,,,,,,,,,,,,,,,,,,220,,,,,,,,,,,,,,,,,,,,,10,6,,,737.6641,7,left,1.1198,,0.5,0.3,"[1,3,2]",0.546176109,stimuli/card_100_transparent.png,100,7,0,7,0,1,,,,,,,,,,
,,,,5ba961b460f3d500016a2970,B,2024-06-22_12h25.57.705,Slot Machine Game,2023.1.3,Win32,59.17159763,,,,,,,,,,,,,,,,,,,,,,,,,,,320,,,,,,,,,,,,,,,,,,,,,10,6,,,740.1143,8,left,0.5656,,1,0.3,"[1,3,2]",0.268278289,stimuli/card_100_transparent.png,100,8,0,8,0,1,,,,,,,,,,
,,,,5ba961b460f3d500016a2970,B,2024-06-22_12h25.57.705,Slot Machine Game,2023.1.3,Win32,59.17159763,,,,,,,,,,,,,,,,,,,,,,,,,,,330,,,,,,,,,,,,,,,,,,,,,10,6,,,742.5139,9,left,1.6168,,0.5,0.3,"[1,3,2]",0.102264445,stimuli/card_10_transparent.png,10,9,0,9,0,1,,,,,,,,,,
,,,,5ba961b460f3d500016a2970,B,2024-06-22_12h25.57.705,Slot Machine Game,2023.1.3,Win32,59.17159763,,,,,,,,,,,,,,,,,,,,,,,,,,,330,,,,,,,,,,,,,,,,,,,,,10,6,,,745.4639,10,left,0.193,,1.5,0.3,"[3,2,1]",0.905722632,stimuli/card_0_transparent.png,0,10,0,10,0,1,,,,,,,,,,
,,,,5ba961b460f3d500016a2970,B,2024-06-22_12h25.57.705,Slot Machine Game,2023.1.3,Win32,59.17159763,,,,,,,,,,,,,,,,,,,,,,,,,,,330,,,,,,,,,,,,,,,,,,,,,10,6,,,747.9805,11,left,0.1501,,1.5,0.3,"[3,2,1]",0.946820599,stimuli/card_0_transparent.png,0,11,0,11,0,1,,,,,,,,,,
,,,,5ba961b460f3d500016a2970,B,2024-06-22_12h25.57.705,Slot Machine Game,2023.1.3,Win32,59.17159763,,,,,,,,,,,,,,,,,,,,,,,,,,,330,,,,,,,,,,,,,,,,,,,,,10,6,,,750.4474,12,left,0.3368,,1,0.3,"[3,2,1]",0.402271486,stimuli/card_0_transparent.png,0,12,0,12,0,1,,,,,,,,,,
,,,,5ba961b460f3d500016a2970,B,2024-06-22_12h25.57.705,Slot Machine Game,2023.1.3,Win32,59.17159763,,,,,,,,,,,,,,,,,,,,,,,,,,,430,,,,,,,,,,,,,,,,,,,,,10,6,,,752.6134,13,right,0.7187,,0.5,0.3,"[3,2,1]",0.738964272,stimuli/card_100_transparent.png,100,13,0,13,0,1,,,,,,,,,,
,,,,5ba961b460f3d500016a2970,B,2024-06-22_12h25.57.705,Slot Machine Game,2023.1.3,Win32,59.17159763,,,,,,,,,,,,,,,,,,,,,,,,,,,530,,,,,,,,,,,,,,,,,,,,,10,6,,,754.6635,14,right,0.8622,,0.5,0.3,"[3,2,1]",0.682489666,stimuli/card_100_transparent.png,100,14,0,14,0,1,,,,,,,,,,
,,,,5ba961b460f3d500016a2970,B,2024-06-22_12h25.57.705,Slot Machine Game,2023.1.3,Win32,59.17159763,,,,,,,,,,,,,,,,,,,,,,,,,,,,,,,,,,,756.8469,,,,,,,,,,,,,,,,,,,,,,,,,,,,,,,,,"[1040,920,560,540,710,650,900,550,930,530]",9,0,9,0,1,,,,
,,,,5ba961b460f3d500016a2970,B,2024-06-22_12h25.57.705,Slot Machine Game,2023.1.3,Win32,59.17159763,,,,,,,,,,,,,,,,,,,,,,,,,,,,,,,,,,,,,,,,,,,,,,,,,,,,,,,,,,,,,,,,,,,,,,,,,,9,"[1040,920,560,540,710,650,900,550,930,530]",5.5,2024-06-22_12h38.43.720
