key_resp_welcome_started,key_resp_welcome_keys,key_resp_welcome_rt,key_resp_welcome_duration,prolific_id,path_id,date,expName,psychopyVersion,OS,frameRate,key_resp_instruction1_started,key_resp_instruction1_keys,key_resp_instruction1_rt,key_resp_instruction1_duration,key_resp_instruction2_started,key_resp_instruction2_keys,key_resp_instruction2_rt,key_resp_instruction2_duration,key_resp_instruction3_started,key_resp_instruction3_keys,key_resp_instruction3_rt,key_resp_instruction3_duration,key_resp_instruction4_started,key_resp_instruction4_keys,key_resp_instruction4_rt,key_resp_instruction4_duration,practiceCondition,practice_reward_seqs,practice_trial_started,practice_trial_num,practice_resp_rt,practice_resp_duration,practice_resp_keys,prac_presentationInterval,"practice_reward_seq: 2,1,3",reward_img,cumulative_reward,trial_reward,practice_trials.thisRepN,practice_trials.thisTrialN,practice_trials.thisN,practice_trials.thisIndex,practice_trials.ran,"practice_reward_seq: 2,3,1",block_break_started,"practice_reward_seq: 1,3,2","practice_reward_seq: 3,1,2",practice_end_time,practice_end_keys,practice_end_rt,practice_end_duration,main_instruction_text_started,block_condition,block_order_indices,main_instruction_keys,main_instruction_rt,main_instruction_duration,block_number,block_assignment,current_condition,main_reward_seqs,main_trial_started,main_trial_num,main_trial_keys,main_trial_rt,main_trial_duration,main_presentationInterval,reward_presentation_time,main_reward_seq,reward_rand_val,main_reward_img,current_reward,main_trials.thisRepN,main_trials.thisTrialN,main_trials.thisN,main_trials.thisIndex,main_trials.ran,block_reward,block.thisRepN,block.thisTrialN,block.thisN,block.thisIndex,block.ran,block_reward.length,block_reward_all,reward_amount,date_end_task
0.0007,space,4.7296,,5bfff7c02213be0001c2c7cf,A,2024-07-02_20h17.58.814,Slot Machine Game,2023.1.3,Win32,59.88023952,,,,,,,,,,,,,,,,,,,,,,,,,,,,,,,,,,,,,,,,,,,,,,,,,,,,,,,,,,,,,,,,,,,,,,,,,,,,,
,,,,5bfff7c02213be0001c2c7cf,A,2024-07-02_20h17.58.814,Slot Machine Game,2023.1.3,Win32,59.88023952,4.7469,space,12.5881,,,,,,,,,,,,,,,,,,,,,,,,,,,,,,,,,,,,,,,,,,,,,,,,,,,,,,,,,,,,,,,,,,,,,,,,,,
,,,,5bfff7c02213be0001c2c7cf,A,2024-07-02_20h17.58.814,Slot Machine Game,2023.1.3,Win32,59.88023952,,,,,17.3598,space,27.8662,,,,,,,,,,,,,,,,,,,,,,,,,,,,,,,,,,,,,,,,,,,,,,,,,,,,,,,,,,,,,,,,,,,,,,
,,,,5bfff7c02213be0001c2c7cf,A,2024-07-02_20h17.58.814,Slot Machine Game,2023.1.3,Win32,59.88023952,,,,,,,,,45.2708,space,5.5465,,,,,,,,,,,,,,,,,,,,,,,,,,,,,,,,,,,,,,,,,,,,,,,,,,,,,,,,,,,,,,,,,,
,,,,5bfff7c02213be0001c2c7cf,A,2024-07-02_20h17.58.814,Slot Machine Game,2023.1.3,Win32,59.88023952,,,,,,,,,,,,,,,,,,,,,,,,,,,,,,,,,,,,,,,,,,,,,,,,,,,,,,,,,,,,,,,,,,,,,,,,,,,,,
,,,,5bfff7c02213be0001c2c7cf,A,2024-07-02_20h17.58.814,Slot Machine Game,2023.1.3,Win32,59.88023952,,,,,,,,,,,,,193.0162,space,1.9598,,,,,,,,,,,,,,,,,,,,,,,,,,,,,,,,,,,,,,,,,,,,,,,,,,,,,,,,,,,,,,
,,,,5bfff7c02213be0001c2c7cf,A,2024-07-02_20h17.58.814,Slot Machine Game,2023.1.3,Win32,59.88023952,,,,,,,,,,,,,,,,,"[9,15]","[[2,1,3],[2,3,1]]",195.0021,0,4.1373,,left,1,,stimuli/card_10_transparent.png,10,10,0,0,0,0,1,,,,,,,,,,,,,,,,,,,,,,,,,,,,,,,,,,,,,,,,,,,,
,,,,5bfff7c02213be0001c2c7cf,A,2024-07-02_20h17.58.814,Slot Machine Game,2023.1.3,Win32,59.88023952,,,,,,,,,,,,,,,,,,,200.9756,1,0.4509,,up,1.5,,stimuli/card_0_transparent.png,10,0,1,0,1,0,1,,,,,,,,,,,,,,,,,,,,,,,,,,,,,,,,,,,,,,,,,,,,
,,,,5bfff7c02213be0001c2c7cf,A,2024-07-02_20h17.58.814,Slot Machine Game,2023.1.3,Win32,59.88023952,,,,,,,,,,,,,,,,,,,203.7558,2,0.5555,,right,1.5,,stimuli/card_100_transparent.png,110,100,2,0,2,0,1,,,,,,,,,,,,,,,,,,,,,,,,,,,,,,,,,,,,,,,,,,,,
,,,,5bfff7c02213be0001c2c7cf,A,2024-07-02_20h17.58.814,Slot Machine Game,2023.1.3,Win32,59.88023952,,,,,,,,,,,,,,,,,,,206.6362,3,0.1096,,right,1,,stimuli/card_0_transparent.png,110,0,3,0,3,0,1,,,,,,,,,,,,,,,,,,,,,,,,,,,,,,,,,,,,,,,,,,,,
,,,,5bfff7c02213be0001c2c7cf,A,2024-07-02_20h17.58.814,Slot Machine Game,2023.1.3,Win32,59.88023952,,,,,,,,,,,,,,,,,,,208.5683,4,0.0664,,right,0.5,,stimuli/card_0_transparent.png,110,0,4,0,4,0,1,,,,,,,,,,,,,,,,,,,,,,,,,,,,,,,,,,,,,,,,,,,,
,,,,5bfff7c02213be0001c2c7cf,A,2024-07-02_20h17.58.814,Slot Machine Game,2023.1.3,Win32,59.88023952,,,,,,,,,,,,,,,,,,,209.967,5,0.3577,,left,0.5,,stimuli/card_10_transparent.png,120,10,5,0,5,0,1,,,,,,,,,,,,,,,,,,,,,,,,,,,,,,,,,,,,,,,,,,,,
,,,,5bfff7c02213be0001c2c7cf,A,2024-07-02_20h17.58.814,Slot Machine Game,2023.1.3,Win32,59.88023952,,,,,,,,,,,,,,,,,,,211.6484,6,0.6168,,left,1.5,,stimuli/card_100_transparent.png,220,100,6,0,6,0,1,,,,,,,,,,,,,,,,,,,,,,,,,,,,,,,,,,,,,,,,,,,,
,,,,5bfff7c02213be0001c2c7cf,A,2024-07-02_20h17.58.814,Slot Machine Game,2023.1.3,Win32,59.88023952,,,,,,,,,,,,,,,,,,,214.5956,7,1.2331,,left,0.5,,stimuli/card_10_transparent.png,230,10,7,0,7,0,1,,,,,,,,,,,,,,,,,,,,,,,,,,,,,,,,,,,,,,,,,,,,
,,,,5bfff7c02213be0001c2c7cf,A,2024-07-02_20h17.58.814,Slot Machine Game,2023.1.3,Win32,59.88023952,,,,,,,,,,,,,,,,,,,217.1601,8,0.665,,left,0.5,,stimuli/card_10_transparent.png,240,10,8,0,8,0,1,,,,,,,,,,,,,,,,,,,,,,,,,,,,,,,,,,,,,,,,,,,,
,,,,5bfff7c02213be0001c2c7cf,A,2024-07-02_20h17.58.814,Slot Machine Game,2023.1.3,Win32,59.88023952,,,,,,,,,,,,,,,,,,,219.1582,9,0.1351,,left,0.5,,stimuli/card_10_transparent.png,250,10,9,0,9,0,1,,,,,,,,,,,,,,,,,,,,,,,,,,,,,,,,,,,,,,,,,,,,
,,,,5bfff7c02213be0001c2c7cf,A,2024-07-02_20h17.58.814,Slot Machine Game,2023.1.3,Win32,59.88023952,,,,,,,,,,,,,,,,,,,220.6236,10,0.249,,left,1.5,,stimuli/card_10_transparent.png,260,10,10,0,10,0,1,,,,,,,,,,,,,,,,,,,,,,,,,,,,,,,,,,,,,,,,,,,,
,,,,5bfff7c02213be0001c2c7cf,A,2024-07-02_20h17.58.814,Slot Machine Game,2023.1.3,Win32,59.88023952,,,,,,,,,,,,,,,,,,,223.2045,11,0.5001,,up,0.5,,stimuli/card_0_transparent.png,260,0,11,0,11,0,1,,,,,,,,,,,,,,,,,,,,,,,,,,,,,,,,,,,,,,,,,,,,
,,,,5bfff7c02213be0001c2c7cf,A,2024-07-02_20h17.58.814,Slot Machine Game,2023.1.3,Win32,59.88023952,,,,,,,,,,,,,,,,,,,225.0363,12,0.235,,up,1.5,,stimuli/card_0_transparent.png,260,0,12,0,12,0,1,,,,,,,,,,,,,,,,,,,,,,,,,,,,,,,,,,,,,,,,,,,,
,,,,5bfff7c02213be0001c2c7cf,A,2024-07-02_20h17.58.814,Slot Machine Game,2023.1.3,Win32,59.88023952,,,,,,,,,,,,,,,,,,,227.6006,13,0.1607,,right,1.5,,stimuli/card_100_transparent.png,360,100,13,0,13,0,1,,,,,,,,,,,,,,,,,,,,,,,,,,,,,,,,,,,,,,,,,,,,
,,,,5bfff7c02213be0001c2c7cf,A,2024-07-02_20h17.58.814,Slot Machine Game,2023.1.3,Win32,59.88023952,,,,,,,,,,,,,,,,,,,230.0816,14,0.219,,right,0.5,,stimuli/card_10_transparent.png,370,10,14,0,14,0,1,,,,,,,,,,,,,,,,,,,,,,,,,,,,,,,,,,,,,,,,,,,,
,,,,5bfff7c02213be0001c2c7cf,A,2024-07-02_20h17.58.814,Slot Machine Game,2023.1.3,Win32,59.88023952,,,,,,,,,,,,,,,,,"[6,15]","[[1,3,2],[3,1,2]]",236.6572,0,1.2427,,left,0.5,,stimuli/card_100_transparent.png,100,100,0,0,0,0,1,,231.6427,,,,,,,,,,,,,,,,,,,,,,,,,,,,,,,,,,,,,,,,,,
,,,,5bfff7c02213be0001c2c7cf,A,2024-07-02_20h17.58.814,Slot Machine Game,2023.1.3,Win32,59.88023952,,,,,,,,,,,,,,,,,,,239.2234,1,0.45,,left,1,,stimuli/card_100_transparent.png,200,100,1,0,1,0,1,,,,,,,,,,,,,,,,,,,,,,,,,,,,,,,,,,,,,,,,,,,,
,,,,5bfff7c02213be0001c2c7cf,A,2024-07-02_20h17.58.814,Slot Machine Game,2023.1.3,Win32,59.88023952,,,,,,,,,,,,,,,,,,,241.4881,2,0.3748,,left,1.5,,stimuli/card_100_transparent.png,300,100,2,0,2,0,1,,,,,,,,,,,,,,,,,,,,,,,,,,,,,,,,,,,,,,,,,,,,
,,,,5bfff7c02213be0001c2c7cf,A,2024-07-02_20h17.58.814,Slot Machine Game,2023.1.3,Win32,59.88023952,,,,,,,,,,,,,,,,,,,244.2026,3,0.2741,,left,1,,stimuli/card_100_transparent.png,400,100,3,0,3,0,1,,,,,,,,,,,,,,,,,,,,,,,,,,,,,,,,,,,,,,,,,,,,
,,,,5bfff7c02213be0001c2c7cf,A,2024-07-02_20h17.58.814,Slot Machine Game,2023.1.3,Win32,59.88023952,,,,,,,,,,,,,,,,,,,246.3169,4,0.4083,,left,1,,stimuli/card_100_transparent.png,500,100,4,0,4,0,1,,,,,,,,,,,,,,,,,,,,,,,,,,,,,,,,,,,,,,,,,,,,
,,,,5bfff7c02213be0001c2c7cf,A,2024-07-02_20h17.58.814,Slot Machine Game,2023.1.3,Win32,59.88023952,,,,,,,,,,,,,,,,,,,248.5651,5,0.0121,,left,1,,stimuli/card_100_transparent.png,600,100,5,0,5,0,1,,,,,,,,,,,,,,,,,,,,,,,,,,,,,,,,,,,,,,,,,,,,
,,,,5bfff7c02213be0001c2c7cf,A,2024-07-02_20h17.58.814,Slot Machine Game,2023.1.3,Win32,59.88023952,,,,,,,,,,,,,,,,,,,250.4131,6,0.0334,,left,1.5,,stimuli/card_0_transparent.png,600,0,6,0,6,0,1,,,,,,,,,,,,,,,,,,,,,,,,,,,,,,,,,,,,,,,,,,,,
,,,,5bfff7c02213be0001c2c7cf,A,2024-07-02_20h17.58.814,Slot Machine Game,2023.1.3,Win32,59.88023952,,,,,,,,,,,,,,,,,,,252.7779,7,0.2005,,left,0.5,,stimuli/card_100_transparent.png,700,100,7,0,7,0,1,,,,,,,,,,,,,,,,,,,,,,,,,,,,,,,,,,,,,,,,,,,,
,,,,5bfff7c02213be0001c2c7cf,A,2024-07-02_20h17.58.814,Slot Machine Game,2023.1.3,Win32,59.88023952,,,,,,,,,,,,,,,,,,,254.3102,8,0.3137,,left,0.5,,stimuli/card_0_transparent.png,700,0,8,0,8,0,1,,,,,,,,,,,,,,,,,,,,,,,,,,,,,,,,,,,,,,,,,,,,
,,,,5bfff7c02213be0001c2c7cf,A,2024-07-02_20h17.58.814,Slot Machine Game,2023.1.3,Win32,59.88023952,,,,,,,,,,,,,,,,,,,255.9583,9,0.3395,,left,1.5,,stimuli/card_0_transparent.png,700,0,9,0,9,0,1,,,,,,,,,,,,,,,,,,,,,,,,,,,,,,,,,,,,,,,,,,,,
,,,,5bfff7c02213be0001c2c7cf,A,2024-07-02_20h17.58.814,Slot Machine Game,2023.1.3,Win32,59.88023952,,,,,,,,,,,,,,,,,,,258.6395,10,0.2214,,left,0.5,,stimuli/card_0_transparent.png,700,0,10,0,10,0,1,,,,,,,,,,,,,,,,,,,,,,,,,,,,,,,,,,,,,,,,,,,,
,,,,5bfff7c02213be0001c2c7cf,A,2024-07-02_20h17.58.814,Slot Machine Game,2023.1.3,Win32,59.88023952,,,,,,,,,,,,,,,,,,,260.1876,11,0.2618,,left,0.5,,stimuli/card_0_transparent.png,700,0,11,0,11,0,1,,,,,,,,,,,,,,,,,,,,,,,,,,,,,,,,,,,,,,,,,,,,
,,,,5bfff7c02213be0001c2c7cf,A,2024-07-02_20h17.58.814,Slot Machine Game,2023.1.3,Win32,59.88023952,,,,,,,,,,,,,,,,,,,261.7861,12,0.3175,,left,1,,stimuli/card_10_transparent.png,710,10,12,0,12,0,1,,,,,,,,,,,,,,,,,,,,,,,,,,,,,,,,,,,,,,,,,,,,
,,,,5bfff7c02213be0001c2c7cf,A,2024-07-02_20h17.58.814,Slot Machine Game,2023.1.3,Win32,59.88023952,,,,,,,,,,,,,,,,,,,263.9509,13,0.0881,,left,0.5,,stimuli/card_10_transparent.png,720,10,13,0,13,0,1,,,,,,,,,,,,,,,,,,,,,,,,,,,,,,,,,,,,,,,,,,,,
,,,,5bfff7c02213be0001c2c7cf,A,2024-07-02_20h17.58.814,Slot Machine Game,2023.1.3,Win32,59.88023952,,,,,,,,,,,,,,,,,,,265.3663,14,0.0006,,left,1,,stimuli/card_0_transparent.png,720,0,14,0,14,0,1,,,,,,,,,,,,,,,,,,,,,,,,,,,,,,,,,,,,,,,,,,,,
,,,,5bfff7c02213be0001c2c7cf,A,2024-07-02_20h17.58.814,Slot Machine Game,2023.1.3,Win32,59.88023952,,,,,,,,,,,,,,,,,,,,,,,,,,,,,,,,,,,267.1986,,,272.1974,space,1.4588,,,,,,,,,,,,,,,,,,,,,,,,,,,,,,,,,,,,,
,,,,5bfff7c02213be0001c2c7cf,A,2024-07-02_20h17.58.814,Slot Machine Game,2023.1.3,Win32,59.88023952,,,,,,,,,,,,,,,,,,,,,,,,,,,,,,,,,,,,,,,,,,273.6764,2,"[2,4,8,0,1,3,9,6,8,5]",space,1.2933,,,,,,,,,,,,,,,,,,,,,,,,,,,,,,,
,,,,5bfff7c02213be0001c2c7cf,A,2024-07-02_20h17.58.814,Slot Machine Game,2023.1.3,Win32,59.88023952,,,,,,,,,,,,,,,,,,,,,,,,,,,0,,,,,,,,,,,,,,,,,,,,,1,3,"[15,15]","[[3,1,2],[3,1,2]]",275.0074,0,left,0.4402,,1.5,0.3,"[3,1,2]",0.983838387,stimuli/card_0_transparent.png,0,0,0,0,0,1,,,,,,,,,,
,,,,5bfff7c02213be0001c2c7cf,A,2024-07-02_20h17.58.814,Slot Machine Game,2023.1.3,Win32,59.88023952,,,,,,,,,,,,,,,,,,,,,,,,,,,0,,,,,,,,,,,,,,,,,,,,,1,3,,,277.772,1,left,0.3943,,1,0.3,"[3,1,2]",0.416844491,stimuli/card_0_transparent.png,0,1,0,1,0,1,,,,,,,,,,
,,,,5bfff7c02213be0001c2c7cf,A,2024-07-02_20h17.58.814,Slot Machine Game,2023.1.3,Win32,59.88023952,,,,,,,,,,,,,,,,,,,,,,,,,,,0,,,,,,,,,,,,,,,,,,,,,1,3,,,279.9864,2,up,0.0674,,1,0.3,"[3,1,2]",0.020225888,stimuli/card_0_transparent.png,0,2,0,2,0,1,,,,,,,,,,
,,,,5bfff7c02213be0001c2c7cf,A,2024-07-02_20h17.58.814,Slot Machine Game,2023.1.3,Win32,59.88023952,,,,,,,,,,,,,,,,,,,,,,,,,,,100,,,,,,,,,,,,,,,,,,,,,1,3,,,281.8847,3,right,0.6121,,0.5,0.3,"[3,1,2]",0.140115786,stimuli/card_100_transparent.png,100,3,0,3,0,1,,,,,,,,,,
,,,,5bfff7c02213be0001c2c7cf,A,2024-07-02_20h17.58.814,Slot Machine Game,2023.1.3,Win32,59.88023952,,,,,,,,,,,,,,,,,,,,,,,,,,,110,,,,,,,,,,,,,,,,,,,,,1,3,,,283.8162,4,right,0.193,,1.5,0.3,"[3,1,2]",0.922402864,stimuli/card_10_transparent.png,10,4,0,4,0,1,,,,,,,,,,
,,,,5bfff7c02213be0001c2c7cf,A,2024-07-02_20h17.58.814,Slot Machine Game,2023.1.3,Win32,59.88023952,,,,,,,,,,,,,,,,,,,,,,,,,,,120,,,,,,,,,,,,,,,,,,,,,1,3,,,286.3306,5,right,0.1539,,1,0.3,"[3,1,2]",0.26818194,stimuli/card_10_transparent.png,10,5,0,5,0,1,,,,,,,,,,
,,,,5bfff7c02213be0001c2c7cf,A,2024-07-02_20h17.58.814,Slot Machine Game,2023.1.3,Win32,59.88023952,,,,,,,,,,,,,,,,,,,,,,,,,,,130,,,,,,,,,,,,,,,,,,,,,1,3,,,288.3121,6,right,0.1023,,0.5,0.3,"[3,1,2]",0.53446804,stimuli/card_10_transparent.png,10,6,0,6,0,1,,,,,,,,,,
,,,,5bfff7c02213be0001c2c7cf,A,2024-07-02_20h17.58.814,Slot Machine Game,2023.1.3,Win32,59.88023952,,,,,,,,,,,,,,,,,,,,,,,,,,,140,,,,,,,,,,,,,,,,,,,,,1,3,,,289.7441,7,right,0.1661,,1,0.3,"[3,1,2]",0.543286273,stimuli/card_10_transparent.png,10,7,0,7,0,1,,,,,,,,,,
,,,,5bfff7c02213be0001c2c7cf,A,2024-07-02_20h17.58.814,Slot Machine Game,2023.1.3,Win32,59.88023952,,,,,,,,,,,,,,,,,,,,,,,,,,,140,,,,,,,,,,,,,,,,,,,,,1,3,,,291.7424,8,left,0.1584,,1.5,0.3,"[3,1,2]",0.681526156,stimuli/card_0_transparent.png,0,8,0,8,0,1,,,,,,,,,,
,,,,5bfff7c02213be0001c2c7cf,A,2024-07-02_20h17.58.814,Slot Machine Game,2023.1.3,Win32,59.88023952,,,,,,,,,,,,,,,,,,,,,,,,,,,240,,,,,,,,,,,,,,,,,,,,,1,3,,,294.2234,9,left,0.4113,,1.5,0.3,"[3,1,2]",0.038152822,stimuli/card_100_transparent.png,100,9,0,9,0,1,,,,,,,,,,
,,,,5bfff7c02213be0001c2c7cf,A,2024-07-02_20h17.58.814,Slot Machine Game,2023.1.3,Win32,59.88023952,,,,,,,,,,,,,,,,,,,,,,,,,,,240,,,,,,,,,,,,,,,,,,,,,1,3,,,296.9544,10,left,0.1594,,0.5,0.3,"[3,1,2]",0.929264415,stimuli/card_0_transparent.png,0,10,0,10,0,1,,,,,,,,,,
,,,,5bfff7c02213be0001c2c7cf,A,2024-07-02_20h17.58.814,Slot Machine Game,2023.1.3,Win32,59.88023952,,,,,,,,,,,,,,,,,,,,,,,,,,,240,,,,,,,,,,,,,,,,,,,,,1,3,,,298.4365,11,left,0.4518,,1,0.3,"[3,1,2]",0.476464129,stimuli/card_0_transparent.png,0,11,0,11,0,1,,,,,,,,,,
,,,,5bfff7c02213be0001c2c7cf,A,2024-07-02_20h17.58.814,Slot Machine Game,2023.1.3,Win32,59.88023952,,,,,,,,,,,,,,,,,,,,,,,,,,,340,,,,,,,,,,,,,,,,,,,,,1,3,,,300.7175,12,right,0.1667,,1.5,0.3,"[3,1,2]",0.127943468,stimuli/card_100_transparent.png,100,12,0,12,0,1,,,,,,,,,,
,,,,5bfff7c02213be0001c2c7cf,A,2024-07-02_20h17.58.814,Slot Machine Game,2023.1.3,Win32,59.88023952,,,,,,,,,,,,,,,,,,,,,,,,,,,350,,,,,,,,,,,,,,,,,,,,,1,3,,,303.2153,13,right,0.2509,,1.5,0.3,"[3,1,2]",0.486278736,stimuli/card_10_transparent.png,10,13,0,13,0,1,,,,,,,,,,
,,,,5bfff7c02213be0001c2c7cf,A,2024-07-02_20h17.58.814,Slot Machine Game,2023.1.3,Win32,59.88023952,,,,,,,,,,,,,,,,,,,,,,,,,,,360,,,,,,,,,,,,,,,,,,,,,1,3,,,305.7964,14,right,0.3226,,1.5,0.3,"[3,1,2]",0.424419848,stimuli/card_10_transparent.png,10,14,0,14,0,1,,,,,,,,,,
,,,,5bfff7c02213be0001c2c7cf,A,2024-07-02_20h17.58.814,Slot Machine Game,2023.1.3,Win32,59.88023952,,,,,,,,,,,,,,,,,,,,,,,,,,,,,,,,,,,308.444,,,,,,,,,,,,,,,,,,,,,,,,,,,,,,,,,[360],0,0,0,0,1,,,,
,,,,5bfff7c02213be0001c2c7cf,A,2024-07-02_20h17.58.814,Slot Machine Game,2023.1.3,Win32,59.88023952,,,,,,,,,,,,,,,,,,,,,,,,,,,10,,,,,,,,,,,,,,,,,,,,,2,5,"[5,15]","[[1,2,3],[3,1,2]]",313.4539,0,up,1.0068,,1.5,0.3,"[1,2,3]",0.347473804,stimuli/card_10_transparent.png,10,0,0,0,0,1,,,,,,,,,,
,,,,5bfff7c02213be0001c2c7cf,A,2024-07-02_20h17.58.814,Slot Machine Game,2023.1.3,Win32,59.88023952,,,,,,,,,,,,,,,,,,,,,,,,,,,110,,,,,,,,,,,,,,,,,,,,,2,5,,,316.7696,1,left,0.6394,,0.5,0.3,"[1,2,3]",0.41849257,stimuli/card_100_transparent.png,100,1,0,1,0,1,,,,,,,,,,
,,,,5bfff7c02213be0001c2c7cf,A,2024-07-02_20h17.58.814,Slot Machine Game,2023.1.3,Win32,59.88023952,,,,,,,,,,,,,,,,,,,,,,,,,,,210,,,,,,,,,,,,,,,,,,,,,2,5,,,318.7345,2,left,0.2453,,1,0.3,"[1,2,3]",0.963910966,stimuli/card_100_transparent.png,100,2,0,2,0,1,,,,,,,,,,
,,,,5bfff7c02213be0001c2c7cf,A,2024-07-02_20h17.58.814,Slot Machine Game,2023.1.3,Win32,59.88023952,,,,,,,,,,,,,,,,,,,,,,,,,,,210,,,,,,,,,,,,,,,,,,,,,2,5,,,320.7993,3,left,0.2521,,1.5,0.3,"[1,2,3]",0.036092415,stimuli/card_0_transparent.png,0,3,0,3,0,1,,,,,,,,,,
,,,,5bfff7c02213be0001c2c7cf,A,2024-07-02_20h17.58.814,Slot Machine Game,2023.1.3,Win32,59.88023952,,,,,,,,,,,,,,,,,,,,,,,,,,,310,,,,,,,,,,,,,,,,,,,,,2,5,,,323.3803,4,left,0.2504,,1.5,0.3,"[1,2,3]",0.871046092,stimuli/card_100_transparent.png,100,4,0,4,0,1,,,,,,,,,,
,,,,5bfff7c02213be0001c2c7cf,A,2024-07-02_20h17.58.814,Slot Machine Game,2023.1.3,Win32,59.88023952,,,,,,,,,,,,,,,,,,,,,,,,,,,310,,,,,,,,,,,,,,,,,,,,,2,5,,,325.9617,5,left,0.4351,,1.5,0.3,"[3,1,2]",0.742724641,stimuli/card_0_transparent.png,0,5,0,5,0,1,,,,,,,,,,
,,,,5bfff7c02213be0001c2c7cf,A,2024-07-02_20h17.58.814,Slot Machine Game,2023.1.3,Win32,59.88023952,,,,,,,,,,,,,,,,,,,,,,,,,,,310,,,,,,,,,,,,,,,,,,,,,2,5,,,328.7254,6,left,0.3525,,1,0.3,"[3,1,2]",0.938969591,stimuli/card_0_transparent.png,0,6,0,6,0,1,,,,,,,,,,
,,,,5bfff7c02213be0001c2c7cf,A,2024-07-02_20h17.58.814,Slot Machine Game,2023.1.3,Win32,59.88023952,,,,,,,,,,,,,,,,,,,,,,,,,,,320,,,,,,,,,,,,,,,,,,,,,2,5,,,330.9067,7,left,0.1082,,1,0.3,"[3,1,2]",0.175849482,stimuli/card_10_transparent.png,10,7,0,7,0,1,,,,,,,,,,
,,,,5bfff7c02213be0001c2c7cf,A,2024-07-02_20h17.58.814,Slot Machine Game,2023.1.3,Win32,59.88023952,,,,,,,,,,,,,,,,,,,,,,,,,,,330,,,,,,,,,,,,,,,,,,,,,2,5,,,332.8384,8,right,1.0196,,0.5,0.3,"[3,1,2]",0.219217184,stimuli/card_10_transparent.png,10,8,0,8,0,1,,,,,,,,,,
,,,,5bfff7c02213be0001c2c7cf,A,2024-07-02_20h17.58.814,Slot Machine Game,2023.1.3,Win32,59.88023952,,,,,,,,,,,,,,,,,,,,,,,,,,,340,,,,,,,,,,,,,,,,,,,,,2,5,,,335.1864,9,right,0.0009,,1,0.3,"[3,1,2]",0.917530458,stimuli/card_10_transparent.png,10,9,0,9,0,1,,,,,,,,,,
,,,,5bfff7c02213be0001c2c7cf,A,2024-07-02_20h17.58.814,Slot Machine Game,2023.1.3,Win32,59.88023952,,,,,,,,,,,,,,,,,,,,,,,,,,,350,,,,,,,,,,,,,,,,,,,,,2,5,,,337.0179,10,right,0.1328,,1.5,0.3,"[3,1,2]",0.764801813,stimuli/card_10_transparent.png,10,10,0,10,0,1,,,,,,,,,,
,,,,5bfff7c02213be0001c2c7cf,A,2024-07-02_20h17.58.814,Slot Machine Game,2023.1.3,Win32,59.88023952,,,,,,,,,,,,,,,,,,,,,,,,,,,450,,,,,,,,,,,,,,,,,,,,,2,5,,,339.4823,11,up,0.4073,,1,0.3,"[3,1,2]",0.874728864,stimuli/card_100_transparent.png,100,11,0,11,0,1,,,,,,,,,,
,,,,5bfff7c02213be0001c2c7cf,A,2024-07-02_20h17.58.814,Slot Machine Game,2023.1.3,Win32,59.88023952,,,,,,,,,,,,,,,,,,,,,,,,,,,550,,,,,,,,,,,,,,,,,,,,,2,5,,,341.7137,12,up,0.1164,,1,0.3,"[3,1,2]",0.237629722,stimuli/card_100_transparent.png,100,12,0,12,0,1,,,,,,,,,,
,,,,5bfff7c02213be0001c2c7cf,A,2024-07-02_20h17.58.814,Slot Machine Game,2023.1.3,Win32,59.88023952,,,,,,,,,,,,,,,,,,,,,,,,,,,650,,,,,,,,,,,,,,,,,,,,,2,5,,,343.6619,13,up,0.1015,,0.5,0.3,"[3,1,2]",0.476721558,stimuli/card_100_transparent.png,100,13,0,13,0,1,,,,,,,,,,
,,,,5bfff7c02213be0001c2c7cf,A,2024-07-02_20h17.58.814,Slot Machine Game,2023.1.3,Win32,59.88023952,,,,,,,,,,,,,,,,,,,,,,,,,,,750,,,,,,,,,,,,,,,,,,,,,2,5,,,345.094,14,up,0.4171,,0.5,0.3,"[3,1,2]",0.466816813,stimuli/card_100_transparent.png,100,14,0,14,0,1,,,,,,,,,,
,,,,5bfff7c02213be0001c2c7cf,A,2024-07-02_20h17.58.814,Slot Machine Game,2023.1.3,Win32,59.88023952,,,,,,,,,,,,,,,,,,,,,,,,,,,,,,,,,,,346.8424,,,,,,,,,,,,,,,,,,,,,,,,,,,,,,,,,"[360,750]",1,0,1,0,1,,,,
,,,,5bfff7c02213be0001c2c7cf,A,2024-07-02_20h17.58.814,Slot Machine Game,2023.1.3,Win32,59.88023952,,,,,,,,,,,,,,,,,,,,,,,,,,,0,,,,,,,,,,,,,,,,,,,,,3,9,"[8,15]","[[3,2,1],[3,1,2]]",351.8522,0,left,0.6769,,1.5,0.3,"[3,2,1]",0.201288058,stimuli/card_0_transparent.png,0,0,0,0,0,1,,,,,,,,,,
,,,,5bfff7c02213be0001c2c7cf,A,2024-07-02_20h17.58.814,Slot Machine Game,2023.1.3,Win32,59.88023952,,,,,,,,,,,,,,,,,,,,,,,,,,,10,,,,,,,,,,,,,,,,,,,,,3,9,,,354.8352,1,up,0.247,,1.5,0.3,"[3,2,1]",0.268136921,stimuli/card_10_transparent.png,10,1,0,1,0,1,,,,,,,,,,
,,,,5bfff7c02213be0001c2c7cf,A,2024-07-02_20h17.58.814,Slot Machine Game,2023.1.3,Win32,59.88023952,,,,,,,,,,,,,,,,,,,,,,,,,,,110,,,,,,,,,,,,,,,,,,,,,3,9,,,357.4166,2,right,0.1505,,1,0.3,"[3,2,1]",0.777799738,stimuli/card_100_transparent.png,100,2,0,2,0,1,,,,,,,,,,
,,,,5bfff7c02213be0001c2c7cf,A,2024-07-02_20h17.58.814,Slot Machine Game,2023.1.3,Win32,59.88023952,,,,,,,,,,,,,,,,,,,,,,,,,,,110,,,,,,,,,,,,,,,,,,,,,3,9,,,359.3978,3,right,0.133,,0.5,0.3,"[3,2,1]",0.078792807,stimuli/card_0_transparent.png,0,3,0,3,0,1,,,,,,,,,,
,,,,5bfff7c02213be0001c2c7cf,A,2024-07-02_20h17.58.814,Slot Machine Game,2023.1.3,Win32,59.88023952,,,,,,,,,,,,,,,,,,,,,,,,,,,120,,,,,,,,,,,,,,,,,,,,,3,9,,,360.8464,4,up,0.1174,,1,0.3,"[3,2,1]",0.708411559,stimuli/card_10_transparent.png,10,4,0,4,0,1,,,,,,,,,,
,,,,5bfff7c02213be0001c2c7cf,A,2024-07-02_20h17.58.814,Slot Machine Game,2023.1.3,Win32,59.88023952,,,,,,,,,,,,,,,,,,,,,,,,,,,220,,,,,,,,,,,,,,,,,,,,,3,9,,,362.795,5,left,0.5055,,0.5,0.3,"[3,2,1]",0.052575538,stimuli/card_100_transparent.png,100,5,0,5,0,1,,,,,,,,,,
,,,,5bfff7c02213be0001c2c7cf,A,2024-07-02_20h17.58.814,Slot Machine Game,2023.1.3,Win32,59.88023952,,,,,,,,,,,,,,,,,,,,,,,,,,,220,,,,,,,,,,,,,,,,,,,,,3,9,,,364.6429,6,left,0.2589,,1,0.3,"[3,2,1]",0.87472102,stimuli/card_0_transparent.png,0,6,0,6,0,1,,,,,,,,,,
,,,,5bfff7c02213be0001c2c7cf,A,2024-07-02_20h17.58.814,Slot Machine Game,2023.1.3,Win32,59.88023952,,,,,,,,,,,,,,,,,,,,,,,,,,,220,,,,,,,,,,,,,,,,,,,,,3,9,,,366.7245,7,left,0.7498,,1.5,0.3,"[3,2,1]",0.387751462,stimuli/card_0_transparent.png,0,7,0,7,0,1,,,,,,,,,,
,,,,5bfff7c02213be0001c2c7cf,A,2024-07-02_20h17.58.814,Slot Machine Game,2023.1.3,Win32,59.88023952,,,,,,,,,,,,,,,,,,,,,,,,,,,220,,,,,,,,,,,,,,,,,,,,,3,9,,,369.805,8,left,0.5168,,0.5,0.3,"[3,1,2]",0.466437712,stimuli/card_0_transparent.png,0,8,0,8,0,1,,,,,,,,,,
,,,,5bfff7c02213be0001c2c7cf,A,2024-07-02_20h17.58.814,Slot Machine Game,2023.1.3,Win32,59.88023952,,,,,,,,,,,,,,,,,,,,,,,,,,,220,,,,,,,,,,,,,,,,,,,,,3,9,,,371.6533,9,up,0.1889,,0.5,0.3,"[3,1,2]",0.09887579,stimuli/card_0_transparent.png,0,9,0,9,0,1,,,,,,,,,,
,,,,5bfff7c02213be0001c2c7cf,A,2024-07-02_20h17.58.814,Slot Machine Game,2023.1.3,Win32,59.88023952,,,,,,,,,,,,,,,,,,,,,,,,,,,230,,,,,,,,,,,,,,,,,,,,,3,9,,,373.1852,10,left,0.4933,,1,0.3,"[3,1,2]",0.112906501,stimuli/card_10_transparent.png,10,10,0,10,0,1,,,,,,,,,,
,,,,5bfff7c02213be0001c2c7cf,A,2024-07-02_20h17.58.814,Slot Machine Game,2023.1.3,Win32,59.88023952,,,,,,,,,,,,,,,,,,,,,,,,,,,230,,,,,,,,,,,,,,,,,,,,,3,9,,,375.4997,11,left,0.2199,,1,0.3,"[3,1,2]",0.509747238,stimuli/card_0_transparent.png,0,11,0,11,0,1,,,,,,,,,,
,,,,5bfff7c02213be0001c2c7cf,A,2024-07-02_20h17.58.814,Slot Machine Game,2023.1.3,Win32,59.88023952,,,,,,,,,,,,,,,,,,,,,,,,,,,240,,,,,,,,,,,,,,,,,,,,,3,9,,,377.548,12,right,0.1762,,0.5,0.3,"[3,1,2]",0.917062437,stimuli/card_10_transparent.png,10,12,0,12,0,1,,,,,,,,,,
,,,,5bfff7c02213be0001c2c7cf,A,2024-07-02_20h17.58.814,Slot Machine Game,2023.1.3,Win32,59.88023952,,,,,,,,,,,,,,,,,,,,,,,,,,,250,,,,,,,,,,,,,,,,,,,,,3,9,,,379.0466,13,right,0.2838,,1.5,0.3,"[3,1,2]",0.671672223,stimuli/card_10_transparent.png,10,13,0,13,0,1,,,,,,,,,,
,,,,5bfff7c02213be0001c2c7cf,A,2024-07-02_20h17.58.814,Slot Machine Game,2023.1.3,Win32,59.88023952,,,,,,,,,,,,,,,,,,,,,,,,,,,350,,,,,,,,,,,,,,,,,,,,,3,9,,,381.6608,14,up,0.1764,,0.5,0.3,"[3,1,2]",0.762645053,stimuli/card_100_transparent.png,100,14,0,14,0,1,,,,,,,,,,
,,,,5bfff7c02213be0001c2c7cf,A,2024-07-02_20h17.58.814,Slot Machine Game,2023.1.3,Win32,59.88023952,,,,,,,,,,,,,,,,,,,,,,,,,,,,,,,,,,,383.1767,,,,,,,,,,,,,,,,,,,,,,,,,,,,,,,,,"[360,750,350]",2,0,2,0,1,,,,
,,,,5bfff7c02213be0001c2c7cf,A,2024-07-02_20h17.58.814,Slot Machine Game,2023.1.3,Win32,59.88023952,,,,,,,,,,,,,,,,,,,,,,,,,,,10,,,,,,,,,,,,,,,,,,,,,4,1,"[12,15]","[[2,1,3],[2,3,1]]",388.1858,0,left,0.3243,,0.5,0.3,"[2,1,3]",0.284160466,stimuli/card_10_transparent.png,10,0,0,0,0,1,,,,,,,,,,
,,,,5bfff7c02213be0001c2c7cf,A,2024-07-02_20h17.58.814,Slot Machine Game,2023.1.3,Win32,59.88023952,,,,,,,,,,,,,,,,,,,,,,,,,,,20,,,,,,,,,,,,,,,,,,,,,4,1,,,389.8371,1,left,0.1855,,1.5,0.3,"[2,1,3]",0.546930482,stimuli/card_10_transparent.png,10,1,0,1,0,1,,,,,,,,,,
,,,,5bfff7c02213be0001c2c7cf,A,2024-07-02_20h17.58.814,Slot Machine Game,2023.1.3,Win32,59.88023952,,,,,,,,,,,,,,,,,,,,,,,,,,,120,,,,,,,,,,,,,,,,,,,,,4,1,,,392.3681,2,up,0.289,,1.5,0.3,"[2,1,3]",0.403146632,stimuli/card_100_transparent.png,100,2,0,2,0,1,,,,,,,,,,
,,,,5bfff7c02213be0001c2c7cf,A,2024-07-02_20h17.58.814,Slot Machine Game,2023.1.3,Win32,59.88023952,,,,,,,,,,,,,,,,,,,,,,,,,,,220,,,,,,,,,,,,,,,,,,,,,4,1,,,394.982,3,up,0.3337,,1,0.3,"[2,1,3]",0.870255959,stimuli/card_100_transparent.png,100,3,0,3,0,1,,,,,,,,,,
,,,,5bfff7c02213be0001c2c7cf,A,2024-07-02_20h17.58.814,Slot Machine Game,2023.1.3,Win32,59.88023952,,,,,,,,,,,,,,,,,,,,,,,,,,,320,,,,,,,,,,,,,,,,,,,,,4,1,,,397.1468,4,up,0.1195,,0.5,0.3,"[2,1,3]",0.578944489,stimuli/card_100_transparent.png,100,4,0,4,0,1,,,,,,,,,,
,,,,5bfff7c02213be0001c2c7cf,A,2024-07-02_20h17.58.814,Slot Machine Game,2023.1.3,Win32,59.88023952,,,,,,,,,,,,,,,,,,,,,,,,,,,420,,,,,,,,,,,,,,,,,,,,,4,1,,,398.6122,5,up,0.1743,,0.5,0.3,"[2,1,3]",0.46008681,stimuli/card_100_transparent.png,100,5,0,5,0,1,,,,,,,,,,
,,,,5bfff7c02213be0001c2c7cf,A,2024-07-02_20h17.58.814,Slot Machine Game,2023.1.3,Win32,59.88023952,,,,,,,,,,,,,,,,,,,,,,,,,,,520,,,,,,,,,,,,,,,,,,,,,4,1,,,400.1108,6,up,0.0013,,0.5,0.3,"[2,1,3]",0.205783129,stimuli/card_100_transparent.png,100,6,0,6,0,1,,,,,,,,,,
,,,,5bfff7c02213be0001c2c7cf,A,2024-07-02_20h17.58.814,Slot Machine Game,2023.1.3,Win32,59.88023952,,,,,,,,,,,,,,,,,,,,,,,,,,,620,,,,,,,,,,,,,,,,,,,,,4,1,,,401.4432,7,up,0.5087,,1.5,0.3,"[2,1,3]",0.723997888,stimuli/card_100_transparent.png,100,7,0,7,0,1,,,,,,,,,,
,,,,5bfff7c02213be0001c2c7cf,A,2024-07-02_20h17.58.814,Slot Machine Game,2023.1.3,Win32,59.88023952,,,,,,,,,,,,,,,,,,,,,,,,,,,620,,,,,,,,,,,,,,,,,,,,,4,1,,,404.2907,8,up,0.3054,,1,0.3,"[2,1,3]",0.071552065,stimuli/card_0_transparent.png,0,8,0,8,0,1,,,,,,,,,,
,,,,5bfff7c02213be0001c2c7cf,A,2024-07-02_20h17.58.814,Slot Machine Game,2023.1.3,Win32,59.88023952,,,,,,,,,,,,,,,,,,,,,,,,,,,720,,,,,,,,,,,,,,,,,,,,,4,1,,,406.4217,9,up,0.4266,,1.5,0.3,"[2,1,3]",0.786875661,stimuli/card_100_transparent.png,100,9,0,9,0,1,,,,,,,,,,
,,,,5bfff7c02213be0001c2c7cf,A,2024-07-02_20h17.58.814,Slot Machine Game,2023.1.3,Win32,59.88023952,,,,,,,,,,,,,,,,,,,,,,,,,,,820,,,,,,,,,,,,,,,,,,,,,4,1,,,409.1859,10,up,0.1515,,1,0.3,"[2,1,3]",0.448806632,stimuli/card_100_transparent.png,100,10,0,10,0,1,,,,,,,,,,
,,,,5bfff7c02213be0001c2c7cf,A,2024-07-02_20h17.58.814,Slot Machine Game,2023.1.3,Win32,59.88023952,,,,,,,,,,,,,,,,,,,,,,,,,,,920,,,,,,,,,,,,,,,,,,,,,4,1,,,411.1674,11,up,0.2837,,0.5,0.3,"[2,1,3]",0.519614422,stimuli/card_100_transparent.png,100,11,0,11,0,1,,,,,,,,,,
,,,,5bfff7c02213be0001c2c7cf,A,2024-07-02_20h17.58.814,Slot Machine Game,2023.1.3,Win32,59.88023952,,,,,,,,,,,,,,,,,,,,,,,,,,,920,,,,,,,,,,,,,,,,,,,,,4,1,,,412.7993,12,up,0.1705,,1,0.3,"[2,3,1]",0.823487417,stimuli/card_0_transparent.png,0,12,0,12,0,1,,,,,,,,,,
,,,,5bfff7c02213be0001c2c7cf,A,2024-07-02_20h17.58.814,Slot Machine Game,2023.1.3,Win32,59.88023952,,,,,,,,,,,,,,,,,,,,,,,,,,,920,,,,,,,,,,,,,,,,,,,,,4,1,,,414.8141,13,up,0.0739,,1,0.3,"[2,3,1]",0.47195985,stimuli/card_0_transparent.png,0,13,0,13,0,1,,,,,,,,,,
,,,,5bfff7c02213be0001c2c7cf,A,2024-07-02_20h17.58.814,Slot Machine Game,2023.1.3,Win32,59.88023952,,,,,,,,,,,,,,,,,,,,,,,,,,,1020,,,,,,,,,,,,,,,,,,,,,4,1,,,416.7294,14,right,0.1335,,1,0.3,"[2,3,1]",0.973773126,stimuli/card_100_transparent.png,100,14,0,14,0,1,,,,,,,,,,
,,,,5bfff7c02213be0001c2c7cf,A,2024-07-02_20h17.58.814,Slot Machine Game,2023.1.3,Win32,59.88023952,,,,,,,,,,,,,,,,,,,,,,,,,,,,,,,,,,,418.6968,,,,,,,,,,,,,,,,,,,,,,,,,,,,,,,,,"[360,750,350,1020]",3,0,3,0,1,,,,
,,,,5bfff7c02213be0001c2c7cf,A,2024-07-02_20h17.58.814,Slot Machine Game,2023.1.3,Win32,59.88023952,,,,,,,,,,,,,,,,,,,,,,,,,,,100,,,,,,,,,,,,,,,,,,,,,5,2,"[6,15]","[[1,3,2],[3,2,1]]",423.7037,0,up,0.7448,,1.5,0.3,"[1,3,2]",0.013971961,stimuli/card_100_transparent.png,100,0,0,0,0,1,,,,,,,,,,
,,,,5bfff7c02213be0001c2c7cf,A,2024-07-02_20h17.58.814,Slot Machine Game,2023.1.3,Win32,59.88023952,,,,,,,,,,,,,,,,,,,,,,,,,,,100,,,,,,,,,,,,,,,,,,,,,5,2,,,426.7532,1,up,0.8009,,1,0.3,"[1,3,2]",0.721826344,stimuli/card_0_transparent.png,0,1,0,1,0,1,,,,,,,,,,
,,,,5bfff7c02213be0001c2c7cf,A,2024-07-02_20h17.58.814,Slot Machine Game,2023.1.3,Win32,59.88023952,,,,,,,,,,,,,,,,,,,,,,,,,,,200,,,,,,,,,,,,,,,,,,,,,5,2,,,429.4012,2,left,0.484,,1.5,0.3,"[1,3,2]",0.604006859,stimuli/card_100_transparent.png,100,2,0,2,0,1,,,,,,,,,,
,,,,5bfff7c02213be0001c2c7cf,A,2024-07-02_20h17.58.814,Slot Machine Game,2023.1.3,Win32,59.88023952,,,,,,,,,,,,,,,,,,,,,,,,,,,300,,,,,,,,,,,,,,,,,,,,,5,2,,,432.2319,3,left,0.06,,0.5,0.3,"[1,3,2]",0.869784032,stimuli/card_100_transparent.png,100,3,0,3,0,1,,,,,,,,,,
,,,,5bfff7c02213be0001c2c7cf,A,2024-07-02_20h17.58.814,Slot Machine Game,2023.1.3,Win32,59.88023952,,,,,,,,,,,,,,,,,,,,,,,,,,,400,,,,,,,,,,,,,,,,,,,,,5,2,,,433.6137,4,left,0.0186,,1.5,0.3,"[1,3,2]",0.435386367,stimuli/card_100_transparent.png,100,4,0,4,0,1,,,,,,,,,,
,,,,5bfff7c02213be0001c2c7cf,A,2024-07-02_20h17.58.814,Slot Machine Game,2023.1.3,Win32,59.88023952,,,,,,,,,,,,,,,,,,,,,,,,,,,500,,,,,,,,,,,,,,,,,,,,,5,2,,,435.9617,5,left,0.2674,,1,0.3,"[1,3,2]",0.651454007,stimuli/card_100_transparent.png,100,5,0,5,0,1,,,,,,,,,,
,,,,5bfff7c02213be0001c2c7cf,A,2024-07-02_20h17.58.814,Slot Machine Game,2023.1.3,Win32,59.88023952,,,,,,,,,,,,,,,,,,,,,,,,,,,500,,,,,,,,,,,,,,,,,,,,,5,2,,,438.0598,6,left,0.1347,,0.5,0.3,"[3,2,1]",0.296310396,stimuli/card_0_transparent.png,0,6,0,6,0,1,,,,,,,,,,
,,,,5bfff7c02213be0001c2c7cf,A,2024-07-02_20h17.58.814,Slot Machine Game,2023.1.3,Win32,59.88023952,,,,,,,,,,,,,,,,,,,,,,,,,,,500,,,,,,,,,,,,,,,,,,,,,5,2,,,439.5421,7,left,0.0516,,0.5,0.3,"[3,2,1]",0.892552851,stimuli/card_0_transparent.png,0,7,0,7,0,1,,,,,,,,,,
,,,,5bfff7c02213be0001c2c7cf,A,2024-07-02_20h17.58.814,Slot Machine Game,2023.1.3,Win32,59.88023952,,,,,,,,,,,,,,,,,,,,,,,,,,,510,,,,,,,,,,,,,,,,,,,,,5,2,,,440.9407,8,up,0.2577,,1.5,0.3,"[3,2,1]",0.347209389,stimuli/card_10_transparent.png,10,8,0,8,0,1,,,,,,,,,,
,,,,5bfff7c02213be0001c2c7cf,A,2024-07-02_20h17.58.814,Slot Machine Game,2023.1.3,Win32,59.88023952,,,,,,,,,,,,,,,,,,,,,,,,,,,520,,,,,,,,,,,,,,,,,,,,,5,2,,,443.538,9,right,0.3178,,0.5,0.3,"[3,2,1]",0.118766841,stimuli/card_10_transparent.png,10,9,0,9,0,1,,,,,,,,,,
,,,,5bfff7c02213be0001c2c7cf,A,2024-07-02_20h17.58.814,Slot Machine Game,2023.1.3,Win32,59.88023952,,,,,,,,,,,,,,,,,,,,,,,,,,,620,,,,,,,,,,,,,,,,,,,,,5,2,,,445.187,10,right,0.6339,,1.5,0.3,"[3,2,1]",0.474124637,stimuli/card_100_transparent.png,100,10,0,10,0,1,,,,,,,,,,
,,,,5bfff7c02213be0001c2c7cf,A,2024-07-02_20h17.58.814,Slot Machine Game,2023.1.3,Win32,59.88023952,,,,,,,,,,,,,,,,,,,,,,,,,,,720,,,,,,,,,,,,,,,,,,,,,5,2,,,448.1676,11,right,0.3504,,0.5,0.3,"[3,2,1]",0.241008437,stimuli/card_100_transparent.png,100,11,0,11,0,1,,,,,,,,,,
,,,,5bfff7c02213be0001c2c7cf,A,2024-07-02_20h17.58.814,Slot Machine Game,2023.1.3,Win32,59.88023952,,,,,,,,,,,,,,,,,,,,,,,,,,,720,,,,,,,,,,,,,,,,,,,,,5,2,,,449.8656,12,right,0.0269,,1.5,0.3,"[3,2,1]",0.056577776,stimuli/card_0_transparent.png,0,12,0,12,0,1,,,,,,,,,,
,,,,5bfff7c02213be0001c2c7cf,A,2024-07-02_20h17.58.814,Slot Machine Game,2023.1.3,Win32,59.88023952,,,,,,,,,,,,,,,,,,,,,,,,,,,730,,,,,,,,,,,,,,,,,,,,,5,2,,,452.2302,13,up,0.3558,,1.5,0.3,"[3,2,1]",0.48230607,stimuli/card_10_transparent.png,10,13,0,13,0,1,,,,,,,,,,
,,,,5bfff7c02213be0001c2c7cf,A,2024-07-02_20h17.58.814,Slot Machine Game,2023.1.3,Win32,59.88023952,,,,,,,,,,,,,,,,,,,,,,,,,,,740,,,,,,,,,,,,,,,,,,,,,5,2,,,454.9282,14,up,0.3767,,1.5,0.3,"[3,2,1]",0.602605469,stimuli/card_10_transparent.png,10,14,0,14,0,1,,,,,,,,,,
,,,,5bfff7c02213be0001c2c7cf,A,2024-07-02_20h17.58.814,Slot Machine Game,2023.1.3,Win32,59.88023952,,,,,,,,,,,,,,,,,,,,,,,,,,,,,,,,,,,457.6255,,,,,,,,,,,,,,,,,,,,,,,,,,,,,,,,,"[360,750,350,1020,740]",4,0,4,0,1,,,,
,,,,5bfff7c02213be0001c2c7cf,A,2024-07-02_20h17.58.814,Slot Machine Game,2023.1.3,Win32,59.88023952,,,,,,,,,,,,,,,,,,,,,,,,,,,10,,,,,,,,,,,,,,,,,,,,,6,4,"[7,15]","[[2,3,1],[1,2,3]]",462.6348,0,left,0.467,,0.5,0.3,"[2,3,1]",0.498101218,stimuli/card_10_transparent.png,10,0,0,0,0,1,,,,,,,,,,
,,,,5bfff7c02213be0001c2c7cf,A,2024-07-02_20h17.58.814,Slot Machine Game,2023.1.3,Win32,59.88023952,,,,,,,,,,,,,,,,,,,,,,,,,,,20,,,,,,,,,,,,,,,,,,,,,6,4,,,464.4191,1,left,0.4893,,1,0.3,"[2,3,1]",0.790576596,stimuli/card_10_transparent.png,10,1,0,1,0,1,,,,,,,,,,
,,,,5bfff7c02213be0001c2c7cf,A,2024-07-02_20h17.58.814,Slot Machine Game,2023.1.3,Win32,59.88023952,,,,,,,,,,,,,,,,,,,,,,,,,,,30,,,,,,,,,,,,,,,,,,,,,6,4,,,466.7336,2,left,0.1425,,0.5,0.3,"[2,3,1]",0.809029464,stimuli/card_10_transparent.png,10,2,0,2,0,1,,,,,,,,,,
,,,,5bfff7c02213be0001c2c7cf,A,2024-07-02_20h17.58.814,Slot Machine Game,2023.1.3,Win32,59.88023952,,,,,,,,,,,,,,,,,,,,,,,,,,,40,,,,,,,,,,,,,,,,,,,,,6,4,,,468.2157,3,left,0.5161,,1.5,0.3,"[2,3,1]",0.663145498,stimuli/card_10_transparent.png,10,3,0,3,0,1,,,,,,,,,,
,,,,5bfff7c02213be0001c2c7cf,A,2024-07-02_20h17.58.814,Slot Machine Game,2023.1.3,Win32,59.88023952,,,,,,,,,,,,,,,,,,,,,,,,,,,40,,,,,,,,,,,,,,,,,,,,,6,4,,,471.0464,4,up,0.3078,,1.5,0.3,"[2,3,1]",0.983274207,stimuli/card_0_transparent.png,0,4,0,4,0,1,,,,,,,,,,
,,,,5bfff7c02213be0001c2c7cf,A,2024-07-02_20h17.58.814,Slot Machine Game,2023.1.3,Win32,59.88023952,,,,,,,,,,,,,,,,,,,,,,,,,,,140,,,,,,,,,,,,,,,,,,,,,6,4,,,473.694,5,right,0.2553,,1,0.3,"[2,3,1]",0.883319323,stimuli/card_100_transparent.png,100,5,0,5,0,1,,,,,,,,,,
,,,,5bfff7c02213be0001c2c7cf,A,2024-07-02_20h17.58.814,Slot Machine Game,2023.1.3,Win32,59.88023952,,,,,,,,,,,,,,,,,,,,,,,,,,,240,,,,,,,,,,,,,,,,,,,,,6,4,,,475.7932,6,right,0.2568,,1.5,0.3,"[2,3,1]",0.353282497,stimuli/card_100_transparent.png,100,6,0,6,0,1,,,,,,,,,,
,,,,5bfff7c02213be0001c2c7cf,A,2024-07-02_20h17.58.814,Slot Machine Game,2023.1.3,Win32,59.88023952,,,,,,,,,,,,,,,,,,,,,,,,,,,240,,,,,,,,,,,,,,,,,,,,,6,4,,,478.373,7,right,0.178,,0.5,0.3,"[1,2,3]",0.21104912,stimuli/card_0_transparent.png,0,7,0,7,0,1,,,,,,,,,,
,,,,5bfff7c02213be0001c2c7cf,A,2024-07-02_20h17.58.814,Slot Machine Game,2023.1.3,Win32,59.88023952,,,,,,,,,,,,,,,,,,,,,,,,,,,240,,,,,,,,,,,,,,,,,,,,,6,4,,,479.8884,8,right,0.6323,,1,0.3,"[1,2,3]",0.989562787,stimuli/card_0_transparent.png,0,8,0,8,0,1,,,,,,,,,,
,,,,5bfff7c02213be0001c2c7cf,A,2024-07-02_20h17.58.814,Slot Machine Game,2023.1.3,Win32,59.88023952,,,,,,,,,,,,,,,,,,,,,,,,,,,340,,,,,,,,,,,,,,,,,,,,,6,4,,,482.3362,9,left,0.3133,,0.5,0.3,"[1,2,3]",0.67170994,stimuli/card_100_transparent.png,100,9,0,9,0,1,,,,,,,,,,
,,,,5bfff7c02213be0001c2c7cf,A,2024-07-02_20h17.58.814,Slot Machine Game,2023.1.3,Win32,59.88023952,,,,,,,,,,,,,,,,,,,,,,,,,,,350,,,,,,,,,,,,,,,,,,,,,6,4,,,483.9847,10,left,0.2126,,0.5,0.3,"[1,2,3]",0.118023509,stimuli/card_10_transparent.png,10,10,0,10,0,1,,,,,,,,,,
,,,,5bfff7c02213be0001c2c7cf,A,2024-07-02_20h17.58.814,Slot Machine Game,2023.1.3,Win32,59.88023952,,,,,,,,,,,,,,,,,,,,,,,,,,,360,,,,,,,,,,,,,,,,,,,,,6,4,,,485.5333,11,left,0.3876,,1,0.3,"[1,2,3]",0.189375129,stimuli/card_10_transparent.png,10,11,0,11,0,1,,,,,,,,,,
,,,,5bfff7c02213be0001c2c7cf,A,2024-07-02_20h17.58.814,Slot Machine Game,2023.1.3,Win32,59.88023952,,,,,,,,,,,,,,,,,,,,,,,,,,,460,,,,,,,,,,,,,,,,,,,,,6,4,,,487.7646,12,left,0.1863,,1.5,0.3,"[1,2,3]",0.800051822,stimuli/card_100_transparent.png,100,12,0,12,0,1,,,,,,,,,,
,,,,5bfff7c02213be0001c2c7cf,A,2024-07-02_20h17.58.814,Slot Machine Game,2023.1.3,Win32,59.88023952,,,,,,,,,,,,,,,,,,,,,,,,,,,560,,,,,,,,,,,,,,,,,,,,,6,4,,,490.296,13,left,0.3736,,1,0.3,"[1,2,3]",0.667166347,stimuli/card_100_transparent.png,100,13,0,13,0,1,,,,,,,,,,
,,,,5bfff7c02213be0001c2c7cf,A,2024-07-02_20h17.58.814,Slot Machine Game,2023.1.3,Win32,59.88023952,,,,,,,,,,,,,,,,,,,,,,,,,,,570,,,,,,,,,,,,,,,,,,,,,6,4,,,492.5103,14,left,0.3856,,0.5,0.3,"[1,2,3]",0.181136821,stimuli/card_10_transparent.png,10,14,0,14,0,1,,,,,,,,,,
,,,,5bfff7c02213be0001c2c7cf,A,2024-07-02_20h17.58.814,Slot Machine Game,2023.1.3,Win32,59.88023952,,,,,,,,,,,,,,,,,,,,,,,,,,,,,,,,,,,494.2421,,,,,,,,,,,,,,,,,,,,,,,,,,,,,,,,,"[360,750,350,1020,740,570]",5,0,5,0,1,,,,
,,,,5bfff7c02213be0001c2c7cf,A,2024-07-02_20h17.58.814,Slot Machine Game,2023.1.3,Win32,59.88023952,,,,,,,,,,,,,,,,,,,,,,,,,,,,,,,,,,,,,,,,,,,,,,,,7,10,"[10,15]","[[3,1,2],[1,3,2]]",499.2514,0,,,,0.5,0.3,,,,,0,0,0,0,1,,,,,,,,,,
,,,,5bfff7c02213be0001c2c7cf,A,2024-07-02_20h17.58.814,Slot Machine Game,2023.1.3,Win32,59.88023952,,,,,,,,,,,,,,,,,,,,,,,,,,,,,,,,,,,,,,,,,,,,,,,,7,10,,,504.7693,1,,,,0.5,0.3,,,,,1,0,1,0,1,,,,,,,,,,
,,,,5bfff7c02213be0001c2c7cf,A,2024-07-02_20h17.58.814,Slot Machine Game,2023.1.3,Win32,59.88023952,,,,,,,,,,,,,,,,,,,,,,,,,,,10,,,,,,,,,,,,,,,,,,,,,7,10,,,510.278,2,left,3.8638,,0.5,0.3,"[3,1,2]",0.169832641,stimuli/card_10_transparent.png,10,2,0,2,0,1,,,,,,,,,,
,,,,5bfff7c02213be0001c2c7cf,A,2024-07-02_20h17.58.814,Slot Machine Game,2023.1.3,Win32,59.88023952,,,,,,,,,,,,,,,,,,,,,,,,,,,10,,,,,,,,,,,,,,,,,,,,,7,10,,,515.4894,3,left,0.3176,,1.5,0.3,"[3,1,2]",0.50841857,stimuli/card_0_transparent.png,0,3,0,3,0,1,,,,,,,,,,
,,,,5bfff7c02213be0001c2c7cf,A,2024-07-02_20h17.58.814,Slot Machine Game,2023.1.3,Win32,59.88023952,,,,,,,,,,,,,,,,,,,,,,,,,,,10,,,,,,,,,,,,,,,,,,,,,7,10,,,518.1371,4,left,2.7473,,0.5,0.3,"[3,1,2]",0.755549319,stimuli/card_0_transparent.png,0,4,0,4,0,1,,,,,,,,,,
,,,,5bfff7c02213be0001c2c7cf,A,2024-07-02_20h17.58.814,Slot Machine Game,2023.1.3,Win32,59.88023952,,,,,,,,,,,,,,,,,,,,,,,,,,,10,,,,,,,,,,,,,,,,,,,,,7,10,,,522.2,5,left,2.1573,,1.5,0.3,"[3,1,2]",0.636652654,stimuli/card_0_transparent.png,0,5,0,5,0,1,,,,,,,,,,
,,,,5bfff7c02213be0001c2c7cf,A,2024-07-02_20h17.58.814,Slot Machine Game,2023.1.3,Win32,59.88023952,,,,,,,,,,,,,,,,,,,,,,,,,,,110,,,,,,,,,,,,,,,,,,,,,7,10,,,526.6964,6,up,0.333,,1.5,0.3,"[3,1,2]",0.798585038,stimuli/card_100_transparent.png,100,6,0,6,0,1,,,,,,,,,,
,,,,5bfff7c02213be0001c2c7cf,A,2024-07-02_20h17.58.814,Slot Machine Game,2023.1.3,Win32,59.88023952,,,,,,,,,,,,,,,,,,,,,,,,,,,210,,,,,,,,,,,,,,,,,,,,,7,10,,,529.3602,7,up,0.1357,,0.5,0.3,"[3,1,2]",0.486101016,stimuli/card_100_transparent.png,100,7,0,7,0,1,,,,,,,,,,
,,,,5bfff7c02213be0001c2c7cf,A,2024-07-02_20h17.58.814,Slot Machine Game,2023.1.3,Win32,59.88023952,,,,,,,,,,,,,,,,,,,,,,,,,,,210,,,,,,,,,,,,,,,,,,,,,7,10,,,530.8422,8,up,0.0006,,1,0.3,"[3,1,2]",0.069913383,stimuli/card_0_transparent.png,0,8,0,8,0,1,,,,,,,,,,
,,,,5bfff7c02213be0001c2c7cf,A,2024-07-02_20h17.58.814,Slot Machine Game,2023.1.3,Win32,59.88023952,,,,,,,,,,,,,,,,,,,,,,,,,,,310,,,,,,,,,,,,,,,,,,,,,7,10,,,532.6738,9,up,0.2161,,0.5,0.3,"[3,1,2]",0.666133712,stimuli/card_100_transparent.png,100,9,0,9,0,1,,,,,,,,,,
,,,,5bfff7c02213be0001c2c7cf,A,2024-07-02_20h17.58.814,Slot Machine Game,2023.1.3,Win32,59.88023952,,,,,,,,,,,,,,,,,,,,,,,,,,,310,,,,,,,,,,,,,,,,,,,,,7,10,,,534.2057,10,up,0.2931,,1.5,0.3,"[1,3,2]",0.70217441,stimuli/card_0_transparent.png,0,10,0,10,0,1,,,,,,,,,,
,,,,5bfff7c02213be0001c2c7cf,A,2024-07-02_20h17.58.814,Slot Machine Game,2023.1.3,Win32,59.88023952,,,,,,,,,,,,,,,,,,,,,,,,,,,310,,,,,,,,,,,,,,,,,,,,,7,10,,,536.8369,11,up,0.1172,,1.5,0.3,"[1,3,2]",0.96406372,stimuli/card_0_transparent.png,0,11,0,11,0,1,,,,,,,,,,
,,,,5bfff7c02213be0001c2c7cf,A,2024-07-02_20h17.58.814,Slot Machine Game,2023.1.3,Win32,59.88023952,,,,,,,,,,,,,,,,,,,,,,,,,,,310,,,,,,,,,,,,,,,,,,,,,7,10,,,539.3011,12,up,0.1423,,0.5,0.3,"[1,3,2]",0.955400979,stimuli/card_0_transparent.png,0,12,0,12,0,1,,,,,,,,,,
,,,,5bfff7c02213be0001c2c7cf,A,2024-07-02_20h17.58.814,Slot Machine Game,2023.1.3,Win32,59.88023952,,,,,,,,,,,,,,,,,,,,,,,,,,,310,,,,,,,,,,,,,,,,,,,,,7,10,,,540.7664,13,right,0.2728,,1,0.3,"[1,3,2]",0.083609786,stimuli/card_0_transparent.png,0,13,0,13,0,1,,,,,,,,,,
,,,,5bfff7c02213be0001c2c7cf,A,2024-07-02_20h17.58.814,Slot Machine Game,2023.1.3,Win32,59.88023952,,,,,,,,,,,,,,,,,,,,,,,,,,,320,,,,,,,,,,,,,,,,,,,,,7,10,,,542.865,14,right,0.0111,,0.5,0.3,"[1,3,2]",0.261097345,stimuli/card_10_transparent.png,10,14,0,14,0,1,,,,,,,,,,
,,,,5bfff7c02213be0001c2c7cf,A,2024-07-02_20h17.58.814,Slot Machine Game,2023.1.3,Win32,59.88023952,,,,,,,,,,,,,,,,,,,,,,,,,,,,,,,,,,,544.1967,,,,,,,,,,,,,,,,,,,,,,,,,,,,,,,,,"[360,750,350,1020,740,570,320]",6,0,6,0,1,,,,
,,,,5bfff7c02213be0001c2c7cf,A,2024-07-02_20h17.58.814,Slot Machine Game,2023.1.3,Win32,59.88023952,,,,,,,,,,,,,,,,,,,,,,,,,,,100,,,,,,,,,,,,,,,,,,,,,8,7,"[9,15]","[[1,3,2],[2,3,1]]",549.2063,0,left,0.4329,,1,0.3,"[1,3,2]",0.792139425,stimuli/card_100_transparent.png,100,0,0,0,0,1,,,,,,,,,,
,,,,5bfff7c02213be0001c2c7cf,A,2024-07-02_20h17.58.814,Slot Machine Game,2023.1.3,Win32,59.88023952,,,,,,,,,,,,,,,,,,,,,,,,,,,110,,,,,,,,,,,,,,,,,,,,,8,7,,,551.4403,1,left,0.1217,,0.5,0.3,"[1,3,2]",0.131558868,stimuli/card_10_transparent.png,10,1,0,1,0,1,,,,,,,,,,
,,,,5bfff7c02213be0001c2c7cf,A,2024-07-02_20h17.58.814,Slot Machine Game,2023.1.3,Win32,59.88023952,,,,,,,,,,,,,,,,,,,,,,,,,,,210,,,,,,,,,,,,,,,,,,,,,8,7,,,552.9061,2,left,0.1617,,1,0.3,"[1,3,2]",0.850647049,stimuli/card_100_transparent.png,100,2,0,2,0,1,,,,,,,,,,
,,,,5bfff7c02213be0001c2c7cf,A,2024-07-02_20h17.58.814,Slot Machine Game,2023.1.3,Win32,59.88023952,,,,,,,,,,,,,,,,,,,,,,,,,,,310,,,,,,,,,,,,,,,,,,,,,8,7,,,554.9038,3,left,0.2685,,0.5,0.3,"[1,3,2]",0.656621741,stimuli/card_100_transparent.png,100,3,0,3,0,1,,,,,,,,,,
,,,,5bfff7c02213be0001c2c7cf,A,2024-07-02_20h17.58.814,Slot Machine Game,2023.1.3,Win32,59.88023952,,,,,,,,,,,,,,,,,,,,,,,,,,,410,,,,,,,,,,,,,,,,,,,,,8,7,,,556.519,4,left,0.4253,,1.5,0.3,"[1,3,2]",0.248400721,stimuli/card_100_transparent.png,100,4,0,4,0,1,,,,,,,,,,
,,,,5bfff7c02213be0001c2c7cf,A,2024-07-02_20h17.58.814,Slot Machine Game,2023.1.3,Win32,59.88023952,,,,,,,,,,,,,,,,,,,,,,,,,,,410,,,,,,,,,,,,,,,,,,,,,8,7,,,559.2665,5,left,0.1017,,1.5,0.3,"[1,3,2]",0.024904705,stimuli/card_0_transparent.png,0,5,0,5,0,1,,,,,,,,,,
,,,,5bfff7c02213be0001c2c7cf,A,2024-07-02_20h17.58.814,Slot Machine Game,2023.1.3,Win32,59.88023952,,,,,,,,,,,,,,,,,,,,,,,,,,,510,,,,,,,,,,,,,,,,,,,,,8,7,,,561.6977,6,left,0.4695,,1,0.3,"[1,3,2]",0.888603889,stimuli/card_100_transparent.png,100,6,0,6,0,1,,,,,,,,,,
,,,,5bfff7c02213be0001c2c7cf,A,2024-07-02_20h17.58.814,Slot Machine Game,2023.1.3,Win32,59.88023952,,,,,,,,,,,,,,,,,,,,,,,,,,,510,,,,,,,,,,,,,,,,,,,,,8,7,,,564.012,7,left,0.9108,,1.5,0.3,"[1,3,2]",0.019725113,stimuli/card_0_transparent.png,0,7,0,7,0,1,,,,,,,,,,
,,,,5bfff7c02213be0001c2c7cf,A,2024-07-02_20h17.58.814,Slot Machine Game,2023.1.3,Win32,59.88023952,,,,,,,,,,,,,,,,,,,,,,,,,,,610,,,,,,,,,,,,,,,,,,,,,8,7,,,567.2629,8,left,0.1414,,1.5,0.3,"[1,3,2]",0.981864696,stimuli/card_100_transparent.png,100,8,0,8,0,1,,,,,,,,,,
,,,,5bfff7c02213be0001c2c7cf,A,2024-07-02_20h17.58.814,Slot Machine Game,2023.1.3,Win32,59.88023952,,,,,,,,,,,,,,,,,,,,,,,,,,,620,,,,,,,,,,,,,,,,,,,,,8,7,,,569.7402,9,left,0.0111,,0.5,0.3,"[2,3,1]",0.629933044,stimuli/card_10_transparent.png,10,9,0,9,0,1,,,,,,,,,,
,,,,5bfff7c02213be0001c2c7cf,A,2024-07-02_20h17.58.814,Slot Machine Game,2023.1.3,Win32,59.88023952,,,,,,,,,,,,,,,,,,,,,,,,,,,720,,,,,,,,,,,,,,,,,,,,,8,7,,,571.089,10,left,1.1385,,1.5,0.3,"[2,3,1]",0.109862863,stimuli/card_100_transparent.png,100,10,0,10,0,1,,,,,,,,,,
,,,,5bfff7c02213be0001c2c7cf,A,2024-07-02_20h17.58.814,Slot Machine Game,2023.1.3,Win32,59.88023952,,,,,,,,,,,,,,,,,,,,,,,,,,,820,,,,,,,,,,,,,,,,,,,,,8,7,,,574.5696,11,left,0.315,,1.5,0.3,"[2,3,1]",0.198641122,stimuli/card_100_transparent.png,100,11,0,11,0,1,,,,,,,,,,
,,,,5bfff7c02213be0001c2c7cf,A,2024-07-02_20h17.58.814,Slot Machine Game,2023.1.3,Win32,59.88023952,,,,,,,,,,,,,,,,,,,,,,,,,,,830,,,,,,,,,,,,,,,,,,,,,8,7,,,577.2001,12,left,0.1966,,1,0.3,"[2,3,1]",0.500421063,stimuli/card_10_transparent.png,10,12,0,12,0,1,,,,,,,,,,
,,,,5bfff7c02213be0001c2c7cf,A,2024-07-02_20h17.58.814,Slot Machine Game,2023.1.3,Win32,59.88023952,,,,,,,,,,,,,,,,,,,,,,,,,,,840,,,,,,,,,,,,,,,,,,,,,8,7,,,579.2317,13,left,0.0501,,1,0.3,"[2,3,1]",0.526941595,stimuli/card_10_transparent.png,10,13,0,13,0,1,,,,,,,,,,
,,,,5bfff7c02213be0001c2c7cf,A,2024-07-02_20h17.58.814,Slot Machine Game,2023.1.3,Win32,59.88023952,,,,,,,,,,,,,,,,,,,,,,,,,,,850,,,,,,,,,,,,,,,,,,,,,8,7,,,581.0966,14,left,0.6919,,0.5,0.3,"[2,3,1]",0.466519789,stimuli/card_10_transparent.png,10,14,0,14,0,1,,,,,,,,,,
,,,,5bfff7c02213be0001c2c7cf,A,2024-07-02_20h17.58.814,Slot Machine Game,2023.1.3,Win32,59.88023952,,,,,,,,,,,,,,,,,,,,,,,,,,,,,,,,,,,583.1114,,,,,,,,,,,,,,,,,,,,,,,,,,,,,,,,,"[360,750,350,1020,740,570,320,850]",7,0,7,0,1,,,,
,,,,5bfff7c02213be0001c2c7cf,A,2024-07-02_20h17.58.814,Slot Machine Game,2023.1.3,Win32,59.88023952,,,,,,,,,,,,,,,,,,,,,,,,,,,10,,,,,,,,,,,,,,,,,,,,,9,9,[15],"[[3,1,2]]",588.1207,0,left,0.6774,,1.5,0.3,"[3,1,2]",0.128848747,stimuli/card_10_transparent.png,10,0,0,0,0,1,,,,,,,,,,
,,,,5bfff7c02213be0001c2c7cf,A,2024-07-02_20h17.58.814,Slot Machine Game,2023.1.3,Win32,59.88023952,,,,,,,,,,,,,,,,,,,,,,,,,,,10,,,,,,,,,,,,,,,,,,,,,9,9,,,591.1212,1,left,0.0007,,1,0.3,"[3,1,2]",0.71780933,stimuli/card_0_transparent.png,0,1,0,1,0,1,,,,,,,,,,
,,,,5bfff7c02213be0001c2c7cf,A,2024-07-02_20h17.58.814,Slot Machine Game,2023.1.3,Win32,59.88023952,,,,,,,,,,,,,,,,,,,,,,,,,,,110,,,,,,,,,,,,,,,,,,,,,9,9,,,592.9525,2,up,0.3954,,1.5,0.3,"[3,1,2]",0.353536035,stimuli/card_100_transparent.png,100,2,0,2,0,1,,,,,,,,,,
,,,,5bfff7c02213be0001c2c7cf,A,2024-07-02_20h17.58.814,Slot Machine Game,2023.1.3,Win32,59.88023952,,,,,,,,,,,,,,,,,,,,,,,,,,,210,,,,,,,,,,,,,,,,,,,,,9,9,,,595.6834,3,up,0.0213,,1.5,0.3,"[3,1,2]",0.254043893,stimuli/card_100_transparent.png,100,3,0,3,0,1,,,,,,,,,,
,,,,5bfff7c02213be0001c2c7cf,A,2024-07-02_20h17.58.814,Slot Machine Game,2023.1.3,Win32,59.88023952,,,,,,,,,,,,,,,,,,,,,,,,,,,310,,,,,,,,,,,,,,,,,,,,,9,9,,,598.0312,4,up,0.2111,,0.5,0.3,"[3,1,2]",0.359952117,stimuli/card_100_transparent.png,100,4,0,4,0,1,,,,,,,,,,
,,,,5bfff7c02213be0001c2c7cf,A,2024-07-02_20h17.58.814,Slot Machine Game,2023.1.3,Win32,59.88023952,,,,,,,,,,,,,,,,,,,,,,,,,,,410,,,,,,,,,,,,,,,,,,,,,9,9,,,599.5632,5,up,0.3515,,1.5,0.3,"[3,1,2]",0.474884221,stimuli/card_100_transparent.png,100,5,0,5,0,1,,,,,,,,,,
,,,,5bfff7c02213be0001c2c7cf,A,2024-07-02_20h17.58.814,Slot Machine Game,2023.1.3,Win32,59.88023952,,,,,,,,,,,,,,,,,,,,,,,,,,,510,,,,,,,,,,,,,,,,,,,,,9,9,,,602.2612,6,up,0.3738,,0.5,0.3,"[3,1,2]",0.734437216,stimuli/card_100_transparent.png,100,6,0,6,0,1,,,,,,,,,,
,,,,5bfff7c02213be0001c2c7cf,A,2024-07-02_20h17.58.814,Slot Machine Game,2023.1.3,Win32,59.88023952,,,,,,,,,,,,,,,,,,,,,,,,,,,610,,,,,,,,,,,,,,,,,,,,,9,9,,,603.9591,7,up,0.0933,,0.5,0.3,"[3,1,2]",0.418702954,stimuli/card_100_transparent.png,100,7,0,7,0,1,,,,,,,,,,
,,,,5bfff7c02213be0001c2c7cf,A,2024-07-02_20h17.58.814,Slot Machine Game,2023.1.3,Win32,59.88023952,,,,,,,,,,,,,,,,,,,,,,,,,,,710,,,,,,,,,,,,,,,,,,,,,9,9,,,605.3911,8,up,0.1539,,0.5,0.3,"[3,1,2]",0.989946346,stimuli/card_100_transparent.png,100,8,0,8,0,1,,,,,,,,,,
,,,,5bfff7c02213be0001c2c7cf,A,2024-07-02_20h17.58.814,Slot Machine Game,2023.1.3,Win32,59.88023952,,,,,,,,,,,,,,,,,,,,,,,,,,,720,,,,,,,,,,,,,,,,,,,,,9,9,,,606.8898,9,up,0.0838,,0.5,0.3,"[3,1,2]",0.178450061,stimuli/card_10_transparent.png,10,9,0,9,0,1,,,,,,,,,,
,,,,5bfff7c02213be0001c2c7cf,A,2024-07-02_20h17.58.814,Slot Machine Game,2023.1.3,Win32,59.88023952,,,,,,,,,,,,,,,,,,,,,,,,,,,820,,,,,,,,,,,,,,,,,,,,,9,9,,,608.3052,10,up,0.2254,,1,0.3,"[3,1,2]",0.957592647,stimuli/card_100_transparent.png,100,10,0,10,0,1,,,,,,,,,,
,,,,5bfff7c02213be0001c2c7cf,A,2024-07-02_20h17.58.814,Slot Machine Game,2023.1.3,Win32,59.88023952,,,,,,,,,,,,,,,,,,,,,,,,,,,820,,,,,,,,,,,,,,,,,,,,,9,9,,,610.37,11,left,1.0379,,1,0.3,"[3,1,2]",0.631564997,stimuli/card_0_transparent.png,0,11,0,11,0,1,,,,,,,,,,
,,,,5bfff7c02213be0001c2c7cf,A,2024-07-02_20h17.58.814,Slot Machine Game,2023.1.3,Win32,59.88023952,,,,,,,,,,,,,,,,,,,,,,,,,,,920,,,,,,,,,,,,,,,,,,,,,9,9,,,613.2512,12,up,0.4663,,1,0.3,"[3,1,2]",0.998801321,stimuli/card_100_transparent.png,100,12,0,12,0,1,,,,,,,,,,
,,,,5bfff7c02213be0001c2c7cf,A,2024-07-02_20h17.58.814,Slot Machine Game,2023.1.3,Win32,59.88023952,,,,,,,,,,,,,,,,,,,,,,,,,,,1020,,,,,,,,,,,,,,,,,,,,,9,9,,,615.5487,13,up,0.2547,,1,0.3,"[3,1,2]",0.225811091,stimuli/card_100_transparent.png,100,13,0,13,0,1,,,,,,,,,,
,,,,5bfff7c02213be0001c2c7cf,A,2024-07-02_20h17.58.814,Slot Machine Game,2023.1.3,Win32,59.88023952,,,,,,,,,,,,,,,,,,,,,,,,,,,1030,,,,,,,,,,,,,,,,,,,,,9,9,,,617.63,14,up,0.7006,,0.5,0.3,"[3,1,2]",0.161035667,stimuli/card_10_transparent.png,10,14,0,14,0,1,,,,,,,,,,
,,,,5bfff7c02213be0001c2c7cf,A,2024-07-02_20h17.58.814,Slot Machine Game,2023.1.3,Win32,59.88023952,,,,,,,,,,,,,,,,,,,,,,,,,,,,,,,,,,,619.6783,,,,,,,,,,,,,,,,,,,,,,,,,,,,,,,,,"[360,750,350,1020,740,570,320,850,1030]",8,0,8,0,1,,,,
,,,,5bfff7c02213be0001c2c7cf,A,2024-07-02_20h17.58.814,Slot Machine Game,2023.1.3,Win32,59.88023952,,,,,,,,,,,,,,,,,,,,,,,,,,,10,,,,,,,,,,,,,,,,,,,,,10,6,"[4,10,15]","[[2,3,1],[1,3,2],[3,2,1]]",624.6874,0,left,0.3833,,1.5,0.3,"[2,3,1]",0.379994977,stimuli/card_10_transparent.png,10,0,0,0,0,1,,,,,,,,,,
,,,,5bfff7c02213be0001c2c7cf,A,2024-07-02_20h17.58.814,Slot Machine Game,2023.1.3,Win32,59.88023952,,,,,,,,,,,,,,,,,,,,,,,,,,,20,,,,,,,,,,,,,,,,,,,,,10,6,,,627.3918,1,left,0.2818,,1,0.3,"[2,3,1]",0.696199599,stimuli/card_10_transparent.png,10,1,0,1,0,1,,,,,,,,,,
,,,,5bfff7c02213be0001c2c7cf,A,2024-07-02_20h17.58.814,Slot Machine Game,2023.1.3,Win32,59.88023952,,,,,,,,,,,,,,,,,,,,,,,,,,,30,,,,,,,,,,,,,,,,,,,,,10,6,,,629.4862,2,left,0.4046,,1.5,0.3,"[2,3,1]",0.450019017,stimuli/card_10_transparent.png,10,2,0,2,0,1,,,,,,,,,,
,,,,5bfff7c02213be0001c2c7cf,A,2024-07-02_20h17.58.814,Slot Machine Game,2023.1.3,Win32,59.88023952,,,,,,,,,,,,,,,,,,,,,,,,,,,130,,,,,,,,,,,,,,,,,,,,,10,6,,,632.2335,3,left,0.5268,,0.5,0.3,"[2,3,1]",0.159852314,stimuli/card_100_transparent.png,100,3,0,3,0,1,,,,,,,,,,
,,,,5bfff7c02213be0001c2c7cf,A,2024-07-02_20h17.58.814,Slot Machine Game,2023.1.3,Win32,59.88023952,,,,,,,,,,,,,,,,,,,,,,,,,,,230,,,,,,,,,,,,,,,,,,,,,10,6,,,634.0819,4,left,0.0835,,1,0.3,"[1,3,2]",0.614609489,stimuli/card_100_transparent.png,100,4,0,4,0,1,,,,,,,,,,
,,,,5bfff7c02213be0001c2c7cf,A,2024-07-02_20h17.58.814,Slot Machine Game,2023.1.3,Win32,59.88023952,,,,,,,,,,,,,,,,,,,,,,,,,,,230,,,,,,,,,,,,,,,,,,,,,10,6,,,635.9805,5,left,0.1493,,1,0.3,"[1,3,2]",0.041092281,stimuli/card_0_transparent.png,0,5,0,5,0,1,,,,,,,,,,
,,,,5bfff7c02213be0001c2c7cf,A,2024-07-02_20h17.58.814,Slot Machine Game,2023.1.3,Win32,59.88023952,,,,,,,,,,,,,,,,,,,,,,,,,,,330,,,,,,,,,,,,,,,,,,,,,10,6,,,637.9621,6,left,0.4255,,1.5,0.3,"[1,3,2]",0.527570776,stimuli/card_100_transparent.png,100,6,0,6,0,1,,,,,,,,,,
,,,,5bfff7c02213be0001c2c7cf,A,2024-07-02_20h17.58.814,Slot Machine Game,2023.1.3,Win32,59.88023952,,,,,,,,,,,,,,,,,,,,,,,,,,,430,,,,,,,,,,,,,,,,,,,,,10,6,,,640.7258,7,left,0.405,,0.5,0.3,"[1,3,2]",0.68091908,stimuli/card_100_transparent.png,100,7,0,7,0,1,,,,,,,,,,
,,,,5bfff7c02213be0001c2c7cf,A,2024-07-02_20h17.58.814,Slot Machine Game,2023.1.3,Win32,59.88023952,,,,,,,,,,,,,,,,,,,,,,,,,,,440,,,,,,,,,,,,,,,,,,,,,10,6,,,642.4577,8,left,0.2109,,1.5,0.3,"[1,3,2]",0.197854807,stimuli/card_10_transparent.png,10,8,0,8,0,1,,,,,,,,,,
,,,,5bfff7c02213be0001c2c7cf,A,2024-07-02_20h17.58.814,Slot Machine Game,2023.1.3,Win32,59.88023952,,,,,,,,,,,,,,,,,,,,,,,,,,,540,,,,,,,,,,,,,,,,,,,,,10,6,,,645.0052,9,left,0.2605,,1,0.3,"[1,3,2]",0.780012766,stimuli/card_100_transparent.png,100,9,0,9,0,1,,,,,,,,,,
,,,,5bfff7c02213be0001c2c7cf,A,2024-07-02_20h17.58.814,Slot Machine Game,2023.1.3,Win32,59.88023952,,,,,,,,,,,,,,,,,,,,,,,,,,,540,,,,,,,,,,,,,,,,,,,,,10,6,,,647.0867,10,left,0.4714,,0.5,0.3,"[3,2,1]",0.528206758,stimuli/card_0_transparent.png,0,10,0,10,0,1,,,,,,,,,,
,,,,5bfff7c02213be0001c2c7cf,A,2024-07-02_20h17.58.814,Slot Machine Game,2023.1.3,Win32,59.88023952,,,,,,,,,,,,,,,,,,,,,,,,,,,540,,,,,,,,,,,,,,,,,,,,,10,6,,,648.9018,11,left,0.1011,,0.5,0.3,"[3,2,1]",0.446749897,stimuli/card_0_transparent.png,0,11,0,11,0,1,,,,,,,,,,
,,,,5bfff7c02213be0001c2c7cf,A,2024-07-02_20h17.58.814,Slot Machine Game,2023.1.3,Win32,59.88023952,,,,,,,,,,,,,,,,,,,,,,,,,,,540,,,,,,,,,,,,,,,,,,,,,10,6,,,650.3338,12,left,1.1334,,1,0.3,"[3,2,1]",0.340289279,stimuli/card_0_transparent.png,0,12,0,12,0,1,,,,,,,,,,
,,,,5bfff7c02213be0001c2c7cf,A,2024-07-02_20h17.58.814,Slot Machine Game,2023.1.3,Win32,59.88023952,,,,,,,,,,,,,,,,,,,,,,,,,,,550,,,,,,,,,,,,,,,,,,,,,10,6,,,653.2979,13,up,0.1147,,1,0.3,"[3,2,1]",0.865484822,stimuli/card_10_transparent.png,10,13,0,13,0,1,,,,,,,,,,
,,,,5bfff7c02213be0001c2c7cf,A,2024-07-02_20h17.58.814,Slot Machine Game,2023.1.3,Win32,59.88023952,,,,,,,,,,,,,,,,,,,,,,,,,,,560,,,,,,,,,,,,,,,,,,,,,10,6,,,655.246,14,up,0.3131,,1.5,0.3,"[3,2,1]",0.370359457,stimuli/card_10_transparent.png,10,14,0,14,0,1,,,,,,,,,,
,,,,5bfff7c02213be0001c2c7cf,A,2024-07-02_20h17.58.814,Slot Machine Game,2023.1.3,Win32,59.88023952,,,,,,,,,,,,,,,,,,,,,,,,,,,,,,,,,,,657.8936,,,,,,,,,,,,,,,,,,,,,,,,,,,,,,,,,"[360,750,350,1020,740,570,320,850,1030,560]",9,0,9,0,1,,,,
,,,,5bfff7c02213be0001c2c7cf,A,2024-07-02_20h17.58.814,Slot Machine Game,2023.1.3,Win32,59.88023952,,,,,,,,,,,,,,,,,,,,,,,,,,,,,,,,,,,,,,,,,,,,,,,,,,,,,,,,,,,,,,,,,,,,,,,,,,9,"[360,750,350,1020,740,570,320,850,1030,560]",5.7,2024-07-02_20h29.05.884
