key_resp_welcome_started,key_resp_welcome_keys,key_resp_welcome_rt,key_resp_welcome_duration,prolific_id,path_id,date,expName,psychopyVersion,OS,frameRate,key_resp_instruction1_started,key_resp_instruction1_keys,key_resp_instruction1_rt,key_resp_instruction1_duration,key_resp_instruction2_started,key_resp_instruction2_keys,key_resp_instruction2_rt,key_resp_instruction2_duration,key_resp_instruction3_started,key_resp_instruction3_keys,key_resp_instruction3_rt,key_resp_instruction3_duration,key_resp_instruction4_started,key_resp_instruction4_keys,key_resp_instruction4_rt,key_resp_instruction4_duration,practiceCondition,practice_reward_seqs,practice_trial_started,practice_trial_num,practice_resp_rt,practice_resp_duration,practice_resp_keys,prac_presentationInterval,"practice_reward_seq: 2,1,3",reward_img,cumulative_reward,trial_reward,practice_trials.thisRepN,practice_trials.thisTrialN,practice_trials.thisN,practice_trials.thisIndex,practice_trials.ran,"practice_reward_seq: 2,3,1",block_break_started,"practice_reward_seq: 1,3,2","practice_reward_seq: 3,1,2",practice_end_time,practice_end_keys,practice_end_rt,practice_end_duration,main_instruction_text_started,block_condition,block_order_indices,main_instruction_keys,main_instruction_rt,main_instruction_duration,block_number,block_assignment,current_condition,main_reward_seqs,main_trial_started,main_trial_num,main_trial_keys,main_trial_rt,main_trial_duration,main_presentationInterval,reward_presentation_time,main_reward_seq,reward_rand_val,main_reward_img,current_reward,main_trials.thisRepN,main_trials.thisTrialN,main_trials.thisN,main_trials.thisIndex,main_trials.ran,block_reward,block.thisRepN,block.thisTrialN,block.thisN,block.thisIndex,block.ran,block_reward.length,block_reward_all,reward_amount,date_end_task
0.001,space,2.2697,,5c43fb651ddd660001c9de3a,A,2024-07-02_20h00.19.031,Slot Machine Game,2023.1.3,Win32,60.24096386,,,,,,,,,,,,,,,,,,,,,,,,,,,,,,,,,,,,,,,,,,,,,,,,,,,,,,,,,,,,,,,,,,,,,,,,,,,,,
,,,,5c43fb651ddd660001c9de3a,A,2024-07-02_20h00.19.031,Slot Machine Game,2023.1.3,Win32,60.24096386,2.3124,space,6.8349,,,,,,,,,,,,,,,,,,,,,,,,,,,,,,,,,,,,,,,,,,,,,,,,,,,,,,,,,,,,,,,,,,,,,,,,,,
,,,,5c43fb651ddd660001c9de3a,A,2024-07-02_20h00.19.031,Slot Machine Game,2023.1.3,Win32,60.24096386,,,,,9.1919,space,37.6702,,,,,,,,,,,,,,,,,,,,,,,,,,,,,,,,,,,,,,,,,,,,,,,,,,,,,,,,,,,,,,,,,,,,,,
,,,,5c43fb651ddd660001c9de3a,A,2024-07-02_20h00.19.031,Slot Machine Game,2023.1.3,Win32,60.24096386,,,,,,,,,46.9929,space,7.1237,,,,,,,,,,,,,,,,,,,,,,,,,,,,,,,,,,,,,,,,,,,,,,,,,,,,,,,,,,,,,,,,,,
,,,,5c43fb651ddd660001c9de3a,A,2024-07-02_20h00.19.031,Slot Machine Game,2023.1.3,Win32,60.24096386,,,,,,,,,,,,,,,,,,,,,,,,,,,,,,,,,,,,,,,,,,,,,,,,,,,,,,,,,,,,,,,,,,,,,,,,,,,,,
,,,,5c43fb651ddd660001c9de3a,A,2024-07-02_20h00.19.031,Slot Machine Game,2023.1.3,Win32,60.24096386,,,,,,,,,,,,,197.4146,space,8.1956,,,,,,,,,,,,,,,,,,,,,,,,,,,,,,,,,,,,,,,,,,,,,,,,,,,,,,,,,,,,,,
,,,,5c43fb651ddd660001c9de3a,A,2024-07-02_20h00.19.031,Slot Machine Game,2023.1.3,Win32,60.24096386,,,,,,,,,,,,,,,,,"[9,15]","[[2,1,3],[2,3,1]]",205.6759,0,0.4199,,up,1,,stimuli/card_100_transparent.png,100,100,0,0,0,0,1,,,,,,,,,,,,,,,,,,,,,,,,,,,,,,,,,,,,,,,,,,,,
,,,,5c43fb651ddd660001c9de3a,A,2024-07-02_20h00.19.031,Slot Machine Game,2023.1.3,Win32,60.24096386,,,,,,,,,,,,,,,,,,,207.9703,1,0.8213,,up,1.5,,stimuli/card_100_transparent.png,200,100,1,0,1,0,1,,,,,,,,,,,,,,,,,,,,,,,,,,,,,,,,,,,,,,,,,,,,
,,,,5c43fb651ddd660001c9de3a,A,2024-07-02_20h00.19.031,Slot Machine Game,2023.1.3,Win32,60.24096386,,,,,,,,,,,,,,,,,,,211.103,2,0.3185,,up,0.5,,stimuli/card_100_transparent.png,300,100,2,0,2,0,1,,,,,,,,,,,,,,,,,,,,,,,,,,,,,,,,,,,,,,,,,,,,
,,,,5c43fb651ddd660001c9de3a,A,2024-07-02_20h00.19.031,Slot Machine Game,2023.1.3,Win32,60.24096386,,,,,,,,,,,,,,,,,,,212.7389,3,0.039,,up,1.5,,stimuli/card_0_transparent.png,300,0,3,0,3,0,1,,,,,,,,,,,,,,,,,,,,,,,,,,,,,,,,,,,,,,,,,,,,
,,,,5c43fb651ddd660001c9de3a,A,2024-07-02_20h00.19.031,Slot Machine Game,2023.1.3,Win32,60.24096386,,,,,,,,,,,,,,,,,,,215.1074,4,0.1523,,up,0.5,,stimuli/card_10_transparent.png,310,10,4,0,4,0,1,,,,,,,,,,,,,,,,,,,,,,,,,,,,,,,,,,,,,,,,,,,,
,,,,5c43fb651ddd660001c9de3a,A,2024-07-02_20h00.19.031,Slot Machine Game,2023.1.3,Win32,60.24096386,,,,,,,,,,,,,,,,,,,216.592,5,0.2009,,up,1,,stimuli/card_100_transparent.png,410,100,5,0,5,0,1,,,,,,,,,,,,,,,,,,,,,,,,,,,,,,,,,,,,,,,,,,,,
,,,,5c43fb651ddd660001c9de3a,A,2024-07-02_20h00.19.031,Slot Machine Game,2023.1.3,Win32,60.24096386,,,,,,,,,,,,,,,,,,,218.6433,6,0.3654,,up,1,,stimuli/card_100_transparent.png,510,100,6,0,6,0,1,,,,,,,,,,,,,,,,,,,,,,,,,,,,,,,,,,,,,,,,,,,,
,,,,5c43fb651ddd660001c9de3a,A,2024-07-02_20h00.19.031,Slot Machine Game,2023.1.3,Win32,60.24096386,,,,,,,,,,,,,,,,,,,220.801,7,0.2972,,up,0.5,,stimuli/card_0_transparent.png,510,0,7,0,7,0,1,,,,,,,,,,,,,,,,,,,,,,,,,,,,,,,,,,,,,,,,,,,,
,,,,5c43fb651ddd660001c9de3a,A,2024-07-02_20h00.19.031,Slot Machine Game,2023.1.3,Win32,60.24096386,,,,,,,,,,,,,,,,,,,222.4136,8,0.24,,up,1,,stimuli/card_100_transparent.png,610,100,8,0,8,0,1,,,,,,,,,,,,,,,,,,,,,,,,,,,,,,,,,,,,,,,,,,,,
,,,,5c43fb651ddd660001c9de3a,A,2024-07-02_20h00.19.031,Slot Machine Game,2023.1.3,Win32,60.24096386,,,,,,,,,,,,,,,,,,,224.5019,9,0.0957,,up,0.5,,stimuli/card_0_transparent.png,610,0,9,0,9,0,1,,,,,,,,,,,,,,,,,,,,,,,,,,,,,,,,,,,,,,,,,,,,
,,,,5c43fb651ddd660001c9de3a,A,2024-07-02_20h00.19.031,Slot Machine Game,2023.1.3,Win32,60.24096386,,,,,,,,,,,,,,,,,,,225.9325,10,0.1888,,right,0.5,,stimuli/card_100_transparent.png,710,100,10,0,10,0,1,,,,,,,,,,,,,,,,,,,,,,,,,,,,,,,,,,,,,,,,,,,,
,,,,5c43fb651ddd660001c9de3a,A,2024-07-02_20h00.19.031,Slot Machine Game,2023.1.3,Win32,60.24096386,,,,,,,,,,,,,,,,,,,227.4732,11,0.3316,,right,0.5,,stimuli/card_100_transparent.png,810,100,11,0,11,0,1,,,,,,,,,,,,,,,,,,,,,,,,,,,,,,,,,,,,,,,,,,,,
,,,,5c43fb651ddd660001c9de3a,A,2024-07-02_20h00.19.031,Slot Machine Game,2023.1.3,Win32,60.24096386,,,,,,,,,,,,,,,,,,,229.1637,12,0.3087,,right,0.5,,stimuli/card_100_transparent.png,910,100,12,0,12,0,1,,,,,,,,,,,,,,,,,,,,,,,,,,,,,,,,,,,,,,,,,,,,
,,,,5c43fb651ddd660001c9de3a,A,2024-07-02_20h00.19.031,Slot Machine Game,2023.1.3,Win32,60.24096386,,,,,,,,,,,,,,,,,,,230.7795,13,0.5995,,right,1.5,,stimuli/card_100_transparent.png,1010,100,13,0,13,0,1,,,,,,,,,,,,,,,,,,,,,,,,,,,,,,,,,,,,,,,,,,,,
,,,,5c43fb651ddd660001c9de3a,A,2024-07-02_20h00.19.031,Slot Machine Game,2023.1.3,Win32,60.24096386,,,,,,,,,,,,,,,,,,,233.6975,14,0.4326,,right,0.5,,stimuli/card_100_transparent.png,1110,100,14,0,14,0,1,,,,,,,,,,,,,,,,,,,,,,,,,,,,,,,,,,,,,,,,,,,,
,,,,5c43fb651ddd660001c9de3a,A,2024-07-02_20h00.19.031,Slot Machine Game,2023.1.3,Win32,60.24096386,,,,,,,,,,,,,,,,,"[6,15]","[[1,3,2],[3,1,2]]",240.4926,0,0.2832,,up,0.5,,stimuli/card_0_transparent.png,0,0,0,0,0,0,1,,235.4775,,,,,,,,,,,,,,,,,,,,,,,,,,,,,,,,,,,,,,,,,,
,,,,5c43fb651ddd660001c9de3a,A,2024-07-02_20h00.19.031,Slot Machine Game,2023.1.3,Win32,60.24096386,,,,,,,,,,,,,,,,,,,242.1063,1,0.6541,,right,1,,stimuli/card_10_transparent.png,10,10,1,0,1,0,1,,,,,,,,,,,,,,,,,,,,,,,,,,,,,,,,,,,,,,,,,,,,
,,,,5c43fb651ddd660001c9de3a,A,2024-07-02_20h00.19.031,Slot Machine Game,2023.1.3,Win32,60.24096386,,,,,,,,,,,,,,,,,,,244.5863,2,0.5886,,left,1.5,,stimuli/card_100_transparent.png,110,100,2,0,2,0,1,,,,,,,,,,,,,,,,,,,,,,,,,,,,,,,,,,,,,,,,,,,,
,,,,5c43fb651ddd660001c9de3a,A,2024-07-02_20h00.19.031,Slot Machine Game,2023.1.3,Win32,60.24096386,,,,,,,,,,,,,,,,,,,247.4893,3,0.0007,,left,1.5,,stimuli/card_100_transparent.png,210,100,3,0,3,0,1,,,,,,,,,,,,,,,,,,,,,,,,,,,,,,,,,,,,,,,,,,,,
,,,,5c43fb651ddd660001c9de3a,A,2024-07-02_20h00.19.031,Slot Machine Game,2023.1.3,Win32,60.24096386,,,,,,,,,,,,,,,,,,,249.8179,4,3.0386,,left,1.5,,stimuli/card_100_transparent.png,310,100,4,0,4,0,1,,,,,,,,,,,,,,,,,,,,,,,,,,,,,,,,,,,,,,,,,,,,
,,,,5c43fb651ddd660001c9de3a,A,2024-07-02_20h00.19.031,Slot Machine Game,2023.1.3,Win32,60.24096386,,,,,,,,,,,,,,,,,,,255.1672,5,0.1927,,left,1.5,,stimuli/card_100_transparent.png,410,100,5,0,5,0,1,,,,,,,,,,,,,,,,,,,,,,,,,,,,,,,,,,,,,,,,,,,,
,,,,5c43fb651ddd660001c9de3a,A,2024-07-02_20h00.19.031,Slot Machine Game,2023.1.3,Win32,60.24096386,,,,,,,,,,,,,,,,,,,257.6471,6,1.2477,,left,1,,stimuli/card_0_transparent.png,410,0,6,0,6,0,1,,,,,,,,,,,,,,,,,,,,,,,,,,,,,,,,,,,,,,,,,,,,
,,,,5c43fb651ddd660001c9de3a,A,2024-07-02_20h00.19.031,Slot Machine Game,2023.1.3,Win32,60.24096386,,,,,,,,,,,,,,,,,,,260.7153,7,0.121,,left,1.5,,stimuli/card_0_transparent.png,410,0,7,0,7,0,1,,,,,,,,,,,,,,,,,,,,,,,,,,,,,,,,,,,,,,,,,,,,
,,,,5c43fb651ddd660001c9de3a,A,2024-07-02_20h00.19.031,Slot Machine Game,2023.1.3,Win32,60.24096386,,,,,,,,,,,,,,,,,,,263.1567,8,0.2533,,right,1.5,,stimuli/card_0_transparent.png,410,0,8,0,8,0,1,,,,,,,,,,,,,,,,,,,,,,,,,,,,,,,,,,,,,,,,,,,,
,,,,5c43fb651ddd660001c9de3a,A,2024-07-02_20h00.19.031,Slot Machine Game,2023.1.3,Win32,60.24096386,,,,,,,,,,,,,,,,,,,265.7717,9,2.291,,up,1,,stimuli/card_100_transparent.png,510,100,9,0,9,0,1,,,,,,,,,,,,,,,,,,,,,,,,,,,,,,,,,,,,,,,,,,,,
,,,,5c43fb651ddd660001c9de3a,A,2024-07-02_20h00.19.031,Slot Machine Game,2023.1.3,Win32,60.24096386,,,,,,,,,,,,,,,,,,,269.8823,10,0.3827,,up,1,,stimuli/card_0_transparent.png,510,0,10,0,10,0,1,,,,,,,,,,,,,,,,,,,,,,,,,,,,,,,,,,,,,,,,,,,,
,,,,5c43fb651ddd660001c9de3a,A,2024-07-02_20h00.19.031,Slot Machine Game,2023.1.3,Win32,60.24096386,,,,,,,,,,,,,,,,,,,272.0712,11,0.4632,,up,0.5,,stimuli/card_100_transparent.png,610,100,11,0,11,0,1,,,,,,,,,,,,,,,,,,,,,,,,,,,,,,,,,,,,,,,,,,,,
,,,,5c43fb651ddd660001c9de3a,A,2024-07-02_20h00.19.031,Slot Machine Game,2023.1.3,Win32,60.24096386,,,,,,,,,,,,,,,,,,,273.8876,12,0.0856,,up,0.5,,stimuli/card_10_transparent.png,620,10,12,0,12,0,1,,,,,,,,,,,,,,,,,,,,,,,,,,,,,,,,,,,,,,,,,,,,
,,,,5c43fb651ddd660001c9de3a,A,2024-07-02_20h00.19.031,Slot Machine Game,2023.1.3,Win32,60.24096386,,,,,,,,,,,,,,,,,,,275.2803,13,0.0374,,up,1,,stimuli/card_100_transparent.png,720,100,13,0,13,0,1,,,,,,,,,,,,,,,,,,,,,,,,,,,,,,,,,,,,,,,,,,,,
,,,,5c43fb651ddd660001c9de3a,A,2024-07-02_20h00.19.031,Slot Machine Game,2023.1.3,Win32,60.24096386,,,,,,,,,,,,,,,,,,,277.1785,14,0.2447,,up,0.5,,stimuli/card_100_transparent.png,820,100,14,0,14,0,1,,,,,,,,,,,,,,,,,,,,,,,,,,,,,,,,,,,,,,,,,,,,
,,,,5c43fb651ddd660001c9de3a,A,2024-07-02_20h00.19.031,Slot Machine Game,2023.1.3,Win32,60.24096386,,,,,,,,,,,,,,,,,,,,,,,,,,,,,,,,,,,278.72,,,283.7135,space,1.9311,,,,,,,,,,,,,,,,,,,,,,,,,,,,,,,,,,,,,
,,,,5c43fb651ddd660001c9de3a,A,2024-07-02_20h00.19.031,Slot Machine Game,2023.1.3,Win32,60.24096386,,,,,,,,,,,,,,,,,,,,,,,,,,,,,,,,,,,,,,,,,,285.6768,3,"[0,4,6,3,5,7,8,1,9,2]",space,1.6411,,,,,,,,,,,,,,,,,,,,,,,,,,,,,,,
,,,,5c43fb651ddd660001c9de3a,A,2024-07-02_20h00.19.031,Slot Machine Game,2023.1.3,Win32,60.24096386,,,,,,,,,,,,,,,,,,,,,,,,,,,100,,,,,,,,,,,,,,,,,,,,,1,1,"[12,15]","[[2,1,3],[2,3,1]]",287.4012,0,up,0.0524,,1.5,0.3,"[2,1,3]",0.900658482,stimuli/card_100_transparent.png,100,0,0,0,0,1,,,,,,,,,,
,,,,5c43fb651ddd660001c9de3a,A,2024-07-02_20h00.19.031,Slot Machine Game,2023.1.3,Win32,60.24096386,,,,,,,,,,,,,,,,,,,,,,,,,,,110,,,,,,,,,,,,,,,,,,,,,1,1,,,289.7962,1,up,0.1197,,1,0.3,"[2,1,3]",0.13843369,stimuli/card_10_transparent.png,10,1,0,1,0,1,,,,,,,,,,
,,,,5c43fb651ddd660001c9de3a,A,2024-07-02_20h00.19.031,Slot Machine Game,2023.1.3,Win32,60.24096386,,,,,,,,,,,,,,,,,,,,,,,,,,,210,,,,,,,,,,,,,,,,,,,,,1,1,,,291.7433,2,up,0.1504,,1.5,0.3,"[2,1,3]",0.617918496,stimuli/card_100_transparent.png,100,2,0,2,0,1,,,,,,,,,,
,,,,5c43fb651ddd660001c9de3a,A,2024-07-02_20h00.19.031,Slot Machine Game,2023.1.3,Win32,60.24096386,,,,,,,,,,,,,,,,,,,,,,,,,,,310,,,,,,,,,,,,,,,,,,,,,1,1,,,294.1945,3,up,0.1378,,1.5,0.3,"[2,1,3]",0.215717725,stimuli/card_100_transparent.png,100,3,0,3,0,1,,,,,,,,,,
,,,,5c43fb651ddd660001c9de3a,A,2024-07-02_20h00.19.031,Slot Machine Game,2023.1.3,Win32,60.24096386,,,,,,,,,,,,,,,,,,,,,,,,,,,410,,,,,,,,,,,,,,,,,,,,,1,1,,,296.6742,4,up,0.9449,,0.5,0.3,"[2,1,3]",0.222847125,stimuli/card_100_transparent.png,100,4,0,4,0,1,,,,,,,,,,
,,,,5c43fb651ddd660001c9de3a,A,2024-07-02_20h00.19.031,Slot Machine Game,2023.1.3,Win32,60.24096386,,,,,,,,,,,,,,,,,,,,,,,,,,,510,,,,,,,,,,,,,,,,,,,,,1,1,,,298.9514,5,up,0.1407,,1.5,0.3,"[2,1,3]",0.553222311,stimuli/card_100_transparent.png,100,5,0,5,0,1,,,,,,,,,,
,,,,5c43fb651ddd660001c9de3a,A,2024-07-02_20h00.19.031,Slot Machine Game,2023.1.3,Win32,60.24096386,,,,,,,,,,,,,,,,,,,,,,,,,,,510,,,,,,,,,,,,,,,,,,,,,1,1,,,301.4055,6,up,2.5836,,0.5,0.3,"[2,1,3]",0.093408562,stimuli/card_0_transparent.png,0,6,0,6,0,1,,,,,,,,,,
,,,,5c43fb651ddd660001c9de3a,A,2024-07-02_20h00.19.031,Slot Machine Game,2023.1.3,Win32,60.24096386,,,,,,,,,,,,,,,,,,,,,,,,,,,510,,,,,,,,,,,,,,,,,,,,,1,1,,,305.3043,7,up,0.1397,,0.5,0.3,"[2,1,3]",0.0853404,stimuli/card_0_transparent.png,0,7,0,7,0,1,,,,,,,,,,
,,,,5c43fb651ddd660001c9de3a,A,2024-07-02_20h00.19.031,Slot Machine Game,2023.1.3,Win32,60.24096386,,,,,,,,,,,,,,,,,,,,,,,,,,,510,,,,,,,,,,,,,,,,,,,,,1,1,,,306.7458,8,right,1.3687,,0.5,0.3,"[2,1,3]",0.681216786,stimuli/card_0_transparent.png,0,8,0,8,0,1,,,,,,,,,,
,,,,5c43fb651ddd660001c9de3a,A,2024-07-02_20h00.19.031,Slot Machine Game,2023.1.3,Win32,60.24096386,,,,,,,,,,,,,,,,,,,,,,,,,,,510,,,,,,,,,,,,,,,,,,,,,1,1,,,309.4547,9,right,0.1508,,1.5,0.3,"[2,1,3]",0.23694244,stimuli/card_0_transparent.png,0,9,0,9,0,1,,,,,,,,,,
,,,,5c43fb651ddd660001c9de3a,A,2024-07-02_20h00.19.031,Slot Machine Game,2023.1.3,Win32,60.24096386,,,,,,,,,,,,,,,,,,,,,,,,,,,610,,,,,,,,,,,,,,,,,,,,,1,1,,,311.9482,10,left,0.2797,,0.5,0.3,"[2,1,3]",0.128190664,stimuli/card_100_transparent.png,100,10,0,10,0,1,,,,,,,,,,
,,,,5c43fb651ddd660001c9de3a,A,2024-07-02_20h00.19.031,Slot Machine Game,2023.1.3,Win32,60.24096386,,,,,,,,,,,,,,,,,,,,,,,,,,,610,,,,,,,,,,,,,,,,,,,,,1,1,,,313.5545,11,left,0.1014,,0.5,0.3,"[2,1,3]",0.062014109,stimuli/card_0_transparent.png,0,11,0,11,0,1,,,,,,,,,,
,,,,5c43fb651ddd660001c9de3a,A,2024-07-02_20h00.19.031,Slot Machine Game,2023.1.3,Win32,60.24096386,,,,,,,,,,,,,,,,,,,,,,,,,,,620,,,,,,,,,,,,,,,,,,,,,1,1,,,314.9383,12,left,0.2327,,0.5,0.3,"[2,3,1]",0.429468673,stimuli/card_10_transparent.png,10,12,0,12,0,1,,,,,,,,,,
,,,,5c43fb651ddd660001c9de3a,A,2024-07-02_20h00.19.031,Slot Machine Game,2023.1.3,Win32,60.24096386,,,,,,,,,,,,,,,,,,,,,,,,,,,630,,,,,,,,,,,,,,,,,,,,,1,1,,,316.4891,13,left,0.2771,,0.5,0.3,"[2,3,1]",0.250740098,stimuli/card_10_transparent.png,10,13,0,13,0,1,,,,,,,,,,
,,,,5c43fb651ddd660001c9de3a,A,2024-07-02_20h00.19.031,Slot Machine Game,2023.1.3,Win32,60.24096386,,,,,,,,,,,,,,,,,,,,,,,,,,,730,,,,,,,,,,,,,,,,,,,,,1,1,,,318.0839,14,right,0.3396,,1,0.3,"[2,3,1]",0.741527503,stimuli/card_100_transparent.png,100,14,0,14,0,1,,,,,,,,,,
,,,,5c43fb651ddd660001c9de3a,A,2024-07-02_20h00.19.031,Slot Machine Game,2023.1.3,Win32,60.24096386,,,,,,,,,,,,,,,,,,,,,,,,,,,,,,,,,,,320.2606,,,,,,,,,,,,,,,,,,,,,,,,,,,,,,,,,[730],0,0,0,0,1,,,,
,,,,5c43fb651ddd660001c9de3a,A,2024-07-02_20h00.19.031,Slot Machine Game,2023.1.3,Win32,60.24096386,,,,,,,,,,,,,,,,,,,,,,,,,,,0,,,,,,,,,,,,,,,,,,,,,2,5,"[5,15]","[[1,2,3],[3,1,2]]",325.2999,0,right,0.9452,,0.5,0.3,"[1,2,3]",0.646198881,stimuli/card_0_transparent.png,0,0,0,0,0,1,,,,,,,,,,
,,,,5c43fb651ddd660001c9de3a,A,2024-07-02_20h00.19.031,Slot Machine Game,2023.1.3,Win32,60.24096386,,,,,,,,,,,,,,,,,,,,,,,,,,,10,,,,,,,,,,,,,,,,,,,,,2,5,,,327.5669,1,up,0.7178,,0.5,0.3,"[1,2,3]",0.477200853,stimuli/card_10_transparent.png,10,1,0,1,0,1,,,,,,,,,,
,,,,5c43fb651ddd660001c9de3a,A,2024-07-02_20h00.19.031,Slot Machine Game,2023.1.3,Win32,60.24096386,,,,,,,,,,,,,,,,,,,,,,,,,,,110,,,,,,,,,,,,,,,,,,,,,2,5,,,329.6042,2,left,1.8716,,1,0.3,"[1,2,3]",0.432722654,stimuli/card_100_transparent.png,100,2,0,2,0,1,,,,,,,,,,
,,,,5c43fb651ddd660001c9de3a,A,2024-07-02_20h00.19.031,Slot Machine Game,2023.1.3,Win32,60.24096386,,,,,,,,,,,,,,,,,,,,,,,,,,,210,,,,,,,,,,,,,,,,,,,,,2,5,,,333.2542,3,left,0.0007,,1,0.3,"[1,2,3]",0.40712531,stimuli/card_100_transparent.png,100,3,0,3,0,1,,,,,,,,,,
,,,,5c43fb651ddd660001c9de3a,A,2024-07-02_20h00.19.031,Slot Machine Game,2023.1.3,Win32,60.24096386,,,,,,,,,,,,,,,,,,,,,,,,,,,310,,,,,,,,,,,,,,,,,,,,,2,5,,,335.0874,4,left,0.0193,,1,0.3,"[1,2,3]",0.998642338,stimuli/card_100_transparent.png,100,4,0,4,0,1,,,,,,,,,,
,,,,5c43fb651ddd660001c9de3a,A,2024-07-02_20h00.19.031,Slot Machine Game,2023.1.3,Win32,60.24096386,,,,,,,,,,,,,,,,,,,,,,,,,,,310,,,,,,,,,,,,,,,,,,,,,2,5,,,336.9209,5,left,0.857,,1.5,0.3,"[3,1,2]",0.691330376,stimuli/card_0_transparent.png,0,5,0,5,0,1,,,,,,,,,,
,,,,5c43fb651ddd660001c9de3a,A,2024-07-02_20h00.19.031,Slot Machine Game,2023.1.3,Win32,60.24096386,,,,,,,,,,,,,,,,,,,,,,,,,,,310,,,,,,,,,,,,,,,,,,,,,2,5,,,340.0843,6,left,0.4706,,1.5,0.3,"[3,1,2]",0.584026675,stimuli/card_0_transparent.png,0,6,0,6,0,1,,,,,,,,,,
,,,,5c43fb651ddd660001c9de3a,A,2024-07-02_20h00.19.031,Slot Machine Game,2023.1.3,Win32,60.24096386,,,,,,,,,,,,,,,,,,,,,,,,,,,320,,,,,,,,,,,,,,,,,,,,,2,5,,,342.8631,7,right,0.1842,,1.5,0.3,"[3,1,2]",0.785493448,stimuli/card_10_transparent.png,10,7,0,7,0,1,,,,,,,,,,
,,,,5c43fb651ddd660001c9de3a,A,2024-07-02_20h00.19.031,Slot Machine Game,2023.1.3,Win32,60.24096386,,,,,,,,,,,,,,,,,,,,,,,,,,,420,,,,,,,,,,,,,,,,,,,,,2,5,,,345.4203,8,right,0.2283,,1.5,0.3,"[3,1,2]",0.154047501,stimuli/card_100_transparent.png,100,8,0,8,0,1,,,,,,,,,,
,,,,5c43fb651ddd660001c9de3a,A,2024-07-02_20h00.19.031,Slot Machine Game,2023.1.3,Win32,60.24096386,,,,,,,,,,,,,,,,,,,,,,,,,,,430,,,,,,,,,,,,,,,,,,,,,2,5,,,347.9549,9,right,0.0195,,1.5,0.3,"[3,1,2]",0.788648375,stimuli/card_10_transparent.png,10,9,0,9,0,1,,,,,,,,,,
,,,,5c43fb651ddd660001c9de3a,A,2024-07-02_20h00.19.031,Slot Machine Game,2023.1.3,Win32,60.24096386,,,,,,,,,,,,,,,,,,,,,,,,,,,530,,,,,,,,,,,,,,,,,,,,,2,5,,,350.3093,10,up,0.2881,,1,0.3,"[3,1,2]",0.619388824,stimuli/card_100_transparent.png,100,10,0,10,0,1,,,,,,,,,,
,,,,5c43fb651ddd660001c9de3a,A,2024-07-02_20h00.19.031,Slot Machine Game,2023.1.3,Win32,60.24096386,,,,,,,,,,,,,,,,,,,,,,,,,,,630,,,,,,,,,,,,,,,,,,,,,2,5,,,352.4404,11,up,0.0008,,0.5,0.3,"[3,1,2]",0.737434997,stimuli/card_100_transparent.png,100,11,0,11,0,1,,,,,,,,,,
,,,,5c43fb651ddd660001c9de3a,A,2024-07-02_20h00.19.031,Slot Machine Game,2023.1.3,Win32,60.24096386,,,,,,,,,,,,,,,,,,,,,,,,,,,730,,,,,,,,,,,,,,,,,,,,,2,5,,,353.7598,12,up,0.4598,,0.5,0.3,"[3,1,2]",0.358426795,stimuli/card_100_transparent.png,100,12,0,12,0,1,,,,,,,,,,
,,,,5c43fb651ddd660001c9de3a,A,2024-07-02_20h00.19.031,Slot Machine Game,2023.1.3,Win32,60.24096386,,,,,,,,,,,,,,,,,,,,,,,,,,,830,,,,,,,,,,,,,,,,,,,,,2,5,,,355.5359,13,up,0.3638,,1.5,0.3,"[3,1,2]",0.656287091,stimuli/card_100_transparent.png,100,13,0,13,0,1,,,,,,,,,,
,,,,5c43fb651ddd660001c9de3a,A,2024-07-02_20h00.19.031,Slot Machine Game,2023.1.3,Win32,60.24096386,,,,,,,,,,,,,,,,,,,,,,,,,,,930,,,,,,,,,,,,,,,,,,,,,2,5,,,358.2494,14,up,0.1662,,1,0.3,"[3,1,2]",0.443834358,stimuli/card_100_transparent.png,100,14,0,14,0,1,,,,,,,,,,
,,,,5c43fb651ddd660001c9de3a,A,2024-07-02_20h00.19.031,Slot Machine Game,2023.1.3,Win32,60.24096386,,,,,,,,,,,,,,,,,,,,,,,,,,,,,,,,,,,360.2277,,,,,,,,,,,,,,,,,,,,,,,,,,,,,,,,,"[730,930]",1,0,1,0,1,,,,
,,,,5c43fb651ddd660001c9de3a,A,2024-07-02_20h00.19.031,Slot Machine Game,2023.1.3,Win32,60.24096386,,,,,,,,,,,,,,,,,,,,,,,,,,,0,,,,,,,,,,,,,,,,,,,,,3,7,"[9,15]","[[1,3,2],[2,3,1]]",365.2456,0,up,0.0418,,1.5,0.3,"[1,3,2]",0.671617882,stimuli/card_0_transparent.png,0,0,0,0,0,1,,,,,,,,,,
,,,,5c43fb651ddd660001c9de3a,A,2024-07-02_20h00.19.031,Slot Machine Game,2023.1.3,Win32,60.24096386,,,,,,,,,,,,,,,,,,,,,,,,,,,10,,,,,,,,,,,,,,,,,,,,,3,7,,,367.5981,1,right,0.5677,,1.5,0.3,"[1,3,2]",0.576982971,stimuli/card_10_transparent.png,10,1,0,1,0,1,,,,,,,,,,
,,,,5c43fb651ddd660001c9de3a,A,2024-07-02_20h00.19.031,Slot Machine Game,2023.1.3,Win32,60.24096386,,,,,,,,,,,,,,,,,,,,,,,,,,,20,,,,,,,,,,,,,,,,,,,,,3,7,,,370.5048,2,right,0.6032,,1.5,0.3,"[1,3,2]",0.230851533,stimuli/card_10_transparent.png,10,2,0,2,0,1,,,,,,,,,,
,,,,5c43fb651ddd660001c9de3a,A,2024-07-02_20h00.19.031,Slot Machine Game,2023.1.3,Win32,60.24096386,,,,,,,,,,,,,,,,,,,,,,,,,,,120,,,,,,,,,,,,,,,,,,,,,3,7,,,373.4369,3,left,0.2767,,0.5,0.3,"[1,3,2]",0.574485853,stimuli/card_100_transparent.png,100,3,0,3,0,1,,,,,,,,,,
,,,,5c43fb651ddd660001c9de3a,A,2024-07-02_20h00.19.031,Slot Machine Game,2023.1.3,Win32,60.24096386,,,,,,,,,,,,,,,,,,,,,,,,,,,220,,,,,,,,,,,,,,,,,,,,,3,7,,,375.0227,4,left,0.302,,1.5,0.3,"[1,3,2]",0.390319726,stimuli/card_100_transparent.png,100,4,0,4,0,1,,,,,,,,,,
,,,,5c43fb651ddd660001c9de3a,A,2024-07-02_20h00.19.031,Slot Machine Game,2023.1.3,Win32,60.24096386,,,,,,,,,,,,,,,,,,,,,,,,,,,320,,,,,,,,,,,,,,,,,,,,,3,7,,,377.6586,5,left,0.2462,,1,0.3,"[1,3,2]",0.806986825,stimuli/card_100_transparent.png,100,5,0,5,0,1,,,,,,,,,,
,,,,5c43fb651ddd660001c9de3a,A,2024-07-02_20h00.19.031,Slot Machine Game,2023.1.3,Win32,60.24096386,,,,,,,,,,,,,,,,,,,,,,,,,,,420,,,,,,,,,,,,,,,,,,,,,3,7,,,379.7392,6,left,0.0614,,0.5,0.3,"[1,3,2]",0.546261838,stimuli/card_100_transparent.png,100,6,0,6,0,1,,,,,,,,,,
,,,,5c43fb651ddd660001c9de3a,A,2024-07-02_20h00.19.031,Slot Machine Game,2023.1.3,Win32,60.24096386,,,,,,,,,,,,,,,,,,,,,,,,,,,520,,,,,,,,,,,,,,,,,,,,,3,7,,,381.1079,7,left,0.0625,,1.5,0.3,"[1,3,2]",0.438392557,stimuli/card_100_transparent.png,100,7,0,7,0,1,,,,,,,,,,
,,,,5c43fb651ddd660001c9de3a,A,2024-07-02_20h00.19.031,Slot Machine Game,2023.1.3,Win32,60.24096386,,,,,,,,,,,,,,,,,,,,,,,,,,,620,,,,,,,,,,,,,,,,,,,,,3,7,,,383.4772,8,left,0.238,,1,0.3,"[1,3,2]",0.604926502,stimuli/card_100_transparent.png,100,8,0,8,0,1,,,,,,,,,,
,,,,5c43fb651ddd660001c9de3a,A,2024-07-02_20h00.19.031,Slot Machine Game,2023.1.3,Win32,60.24096386,,,,,,,,,,,,,,,,,,,,,,,,,,,630,,,,,,,,,,,,,,,,,,,,,3,7,,,385.507,9,left,0.2454,,1.5,0.3,"[2,3,1]",0.616128172,stimuli/card_10_transparent.png,10,9,0,9,0,1,,,,,,,,,,
,,,,5c43fb651ddd660001c9de3a,A,2024-07-02_20h00.19.031,Slot Machine Game,2023.1.3,Win32,60.24096386,,,,,,,,,,,,,,,,,,,,,,,,,,,640,,,,,,,,,,,,,,,,,,,,,3,7,,,388.0688,10,left,0.4355,,1,0.3,"[2,3,1]",0.427985957,stimuli/card_10_transparent.png,10,10,0,10,0,1,,,,,,,,,,
,,,,5c43fb651ddd660001c9de3a,A,2024-07-02_20h00.19.031,Slot Machine Game,2023.1.3,Win32,60.24096386,,,,,,,,,,,,,,,,,,,,,,,,,,,740,,,,,,,,,,,,,,,,,,,,,3,7,,,390.347,11,up,0.09,,0.5,0.3,"[2,3,1]",0.081997678,stimuli/card_100_transparent.png,100,11,0,11,0,1,,,,,,,,,,
,,,,5c43fb651ddd660001c9de3a,A,2024-07-02_20h00.19.031,Slot Machine Game,2023.1.3,Win32,60.24096386,,,,,,,,,,,,,,,,,,,,,,,,,,,840,,,,,,,,,,,,,,,,,,,,,3,7,,,391.7953,12,up,0.1697,,1.5,0.3,"[2,3,1]",0.090282902,stimuli/card_100_transparent.png,100,12,0,12,0,1,,,,,,,,,,
,,,,5c43fb651ddd660001c9de3a,A,2024-07-02_20h00.19.031,Slot Machine Game,2023.1.3,Win32,60.24096386,,,,,,,,,,,,,,,,,,,,,,,,,,,840,,,,,,,,,,,,,,,,,,,,,3,7,,,394.285,13,up,3.9574,,1.5,0.3,"[2,3,1]",0.488101189,stimuli/card_0_transparent.png,0,13,0,13,0,1,,,,,,,,,,
,,,,5c43fb651ddd660001c9de3a,A,2024-07-02_20h00.19.031,Slot Machine Game,2023.1.3,Win32,60.24096386,,,,,,,,,,,,,,,,,,,,,,,,,,,840,,,,,,,,,,,,,,,,,,,,,3,7,,,400.5729,14,up,0.2247,,1,0.3,"[2,3,1]",0.357605496,stimuli/card_0_transparent.png,0,14,0,14,0,1,,,,,,,,,,
,,,,5c43fb651ddd660001c9de3a,A,2024-07-02_20h00.19.031,Slot Machine Game,2023.1.3,Win32,60.24096386,,,,,,,,,,,,,,,,,,,,,,,,,,,,,,,,,,,402.6034,,,,,,,,,,,,,,,,,,,,,,,,,,,,,,,,,"[730,930,840]",2,0,2,0,1,,,,
,,,,5c43fb651ddd660001c9de3a,A,2024-07-02_20h00.19.031,Slot Machine Game,2023.1.3,Win32,60.24096386,,,,,,,,,,,,,,,,,,,,,,,,,,,10,,,,,,,,,,,,,,,,,,,,,4,4,"[7,15]","[[2,3,1],[1,2,3]]",407.6201,0,up,0.0009,,1.5,0.3,"[2,3,1]",0.112149909,stimuli/card_10_transparent.png,10,0,0,0,0,1,,,,,,,,,,
,,,,5c43fb651ddd660001c9de3a,A,2024-07-02_20h00.19.031,Slot Machine Game,2023.1.3,Win32,60.24096386,,,,,,,,,,,,,,,,,,,,,,,,,,,110,,,,,,,,,,,,,,,,,,,,,4,4,,,409.9284,1,right,0.1829,,1,0.3,"[2,3,1]",0.359954821,stimuli/card_100_transparent.png,100,1,0,1,0,1,,,,,,,,,,
,,,,5c43fb651ddd660001c9de3a,A,2024-07-02_20h00.19.031,Slot Machine Game,2023.1.3,Win32,60.24096386,,,,,,,,,,,,,,,,,,,,,,,,,,,210,,,,,,,,,,,,,,,,,,,,,4,4,,,411.9476,2,right,0.1373,,1.5,0.3,"[2,3,1]",0.477226852,stimuli/card_100_transparent.png,100,2,0,2,0,1,,,,,,,,,,
,,,,5c43fb651ddd660001c9de3a,A,2024-07-02_20h00.19.031,Slot Machine Game,2023.1.3,Win32,60.24096386,,,,,,,,,,,,,,,,,,,,,,,,,,,310,,,,,,,,,,,,,,,,,,,,,4,4,,,414.4401,3,right,0.0828,,1.5,0.3,"[2,3,1]",0.465454072,stimuli/card_100_transparent.png,100,3,0,3,0,1,,,,,,,,,,
,,,,5c43fb651ddd660001c9de3a,A,2024-07-02_20h00.19.031,Slot Machine Game,2023.1.3,Win32,60.24096386,,,,,,,,,,,,,,,,,,,,,,,,,,,320,,,,,,,,,,,,,,,,,,,,,4,4,,,416.8328,4,right,0.1508,,1.5,0.3,"[2,3,1]",0.143748389,stimuli/card_10_transparent.png,10,4,0,4,0,1,,,,,,,,,,
,,,,5c43fb651ddd660001c9de3a,A,2024-07-02_20h00.19.031,Slot Machine Game,2023.1.3,Win32,60.24096386,,,,,,,,,,,,,,,,,,,,,,,,,,,420,,,,,,,,,,,,,,,,,,,,,4,4,,,419.3134,5,right,0.5082,,0.5,0.3,"[2,3,1]",0.232348465,stimuli/card_100_transparent.png,100,5,0,5,0,1,,,,,,,,,,
,,,,5c43fb651ddd660001c9de3a,A,2024-07-02_20h00.19.031,Slot Machine Game,2023.1.3,Win32,60.24096386,,,,,,,,,,,,,,,,,,,,,,,,,,,520,,,,,,,,,,,,,,,,,,,,,4,4,,,421.0997,6,right,0.1569,,1.5,0.3,"[2,3,1]",0.21737227,stimuli/card_100_transparent.png,100,6,0,6,0,1,,,,,,,,,,
,,,,5c43fb651ddd660001c9de3a,A,2024-07-02_20h00.19.031,Slot Machine Game,2023.1.3,Win32,60.24096386,,,,,,,,,,,,,,,,,,,,,,,,,,,520,,,,,,,,,,,,,,,,,,,,,4,4,,,423.5489,7,right,0.0994,,1.5,0.3,"[1,2,3]",0.306833595,stimuli/card_0_transparent.png,0,7,0,7,0,1,,,,,,,,,,
,,,,5c43fb651ddd660001c9de3a,A,2024-07-02_20h00.19.031,Slot Machine Game,2023.1.3,Win32,60.24096386,,,,,,,,,,,,,,,,,,,,,,,,,,,530,,,,,,,,,,,,,,,,,,,,,4,4,,,425.9857,8,up,0.7562,,1.5,0.3,"[1,2,3]",0.50408998,stimuli/card_10_transparent.png,10,8,0,8,0,1,,,,,,,,,,
,,,,5c43fb651ddd660001c9de3a,A,2024-07-02_20h00.19.031,Slot Machine Game,2023.1.3,Win32,60.24096386,,,,,,,,,,,,,,,,,,,,,,,,,,,530,,,,,,,,,,,,,,,,,,,,,4,4,,,429.0656,9,up,2.173,,0.5,0.3,"[1,2,3]",0.094748222,stimuli/card_0_transparent.png,0,9,0,9,0,1,,,,,,,,,,
,,,,5c43fb651ddd660001c9de3a,A,2024-07-02_20h00.19.031,Slot Machine Game,2023.1.3,Win32,60.24096386,,,,,,,,,,,,,,,,,,,,,,,,,,,630,,,,,,,,,,,,,,,,,,,,,4,4,,,432.5682,10,left,0.4018,,1.5,0.3,"[1,2,3]",0.438975196,stimuli/card_100_transparent.png,100,10,0,10,0,1,,,,,,,,,,
,,,,5c43fb651ddd660001c9de3a,A,2024-07-02_20h00.19.031,Slot Machine Game,2023.1.3,Win32,60.24096386,,,,,,,,,,,,,,,,,,,,,,,,,,,730,,,,,,,,,,,,,,,,,,,,,4,4,,,435.293,11,left,0.2035,,0.5,0.3,"[1,2,3]",0.329978,stimuli/card_100_transparent.png,100,11,0,11,0,1,,,,,,,,,,
,,,,5c43fb651ddd660001c9de3a,A,2024-07-02_20h00.19.031,Slot Machine Game,2023.1.3,Win32,60.24096386,,,,,,,,,,,,,,,,,,,,,,,,,,,830,,,,,,,,,,,,,,,,,,,,,4,4,,,436.8345,12,left,0.7511,,1.5,0.3,"[1,2,3]",0.45224606,stimuli/card_100_transparent.png,100,12,0,12,0,1,,,,,,,,,,
,,,,5c43fb651ddd660001c9de3a,A,2024-07-02_20h00.19.031,Slot Machine Game,2023.1.3,Win32,60.24096386,,,,,,,,,,,,,,,,,,,,,,,,,,,930,,,,,,,,,,,,,,,,,,,,,4,4,,,439.9203,13,left,0.1533,,0.5,0.3,"[1,2,3]",0.324307343,stimuli/card_100_transparent.png,100,13,0,13,0,1,,,,,,,,,,
,,,,5c43fb651ddd660001c9de3a,A,2024-07-02_20h00.19.031,Slot Machine Game,2023.1.3,Win32,60.24096386,,,,,,,,,,,,,,,,,,,,,,,,,,,1030,,,,,,,,,,,,,,,,,,,,,4,4,,,441.3853,14,left,0.0202,,1.5,0.3,"[1,2,3]",0.623734996,stimuli/card_100_transparent.png,100,14,0,14,0,1,,,,,,,,,,
,,,,5c43fb651ddd660001c9de3a,A,2024-07-02_20h00.19.031,Slot Machine Game,2023.1.3,Win32,60.24096386,,,,,,,,,,,,,,,,,,,,,,,,,,,,,,,,,,,443.739,,,,,,,,,,,,,,,,,,,,,,,,,,,,,,,,,"[730,930,840,1030]",3,0,3,0,1,,,,
,,,,5c43fb651ddd660001c9de3a,A,2024-07-02_20h00.19.031,Slot Machine Game,2023.1.3,Win32,60.24096386,,,,,,,,,,,,,,,,,,,,,,,,,,,10,,,,,,,,,,,,,,,,,,,,,5,6,"[4,10,15]","[[2,3,1],[1,3,2],[3,2,1]]",448.7641,0,left,0.3009,,1,0.3,"[2,3,1]",0.940652955,stimuli/card_10_transparent.png,10,0,0,0,0,1,,,,,,,,,,
,,,,5c43fb651ddd660001c9de3a,A,2024-07-02_20h00.19.031,Slot Machine Game,2023.1.3,Win32,60.24096386,,,,,,,,,,,,,,,,,,,,,,,,,,,10,,,,,,,,,,,,,,,,,,,,,5,6,,,450.8775,1,right,0.2708,,0.5,0.3,"[2,3,1]",0.080194343,stimuli/card_0_transparent.png,0,1,0,1,0,1,,,,,,,,,,
,,,,5c43fb651ddd660001c9de3a,A,2024-07-02_20h00.19.031,Slot Machine Game,2023.1.3,Win32,60.24096386,,,,,,,,,,,,,,,,,,,,,,,,,,,10,,,,,,,,,,,,,,,,,,,,,5,6,,,452.4693,2,up,0.0581,,1,0.3,"[2,3,1]",0.995293771,stimuli/card_0_transparent.png,0,2,0,2,0,1,,,,,,,,,,
,,,,5c43fb651ddd660001c9de3a,A,2024-07-02_20h00.19.031,Slot Machine Game,2023.1.3,Win32,60.24096386,,,,,,,,,,,,,,,,,,,,,,,,,,,110,,,,,,,,,,,,,,,,,,,,,5,6,,,454.3342,3,right,0.0254,,1.5,0.3,"[2,3,1]",0.551920612,stimuli/card_100_transparent.png,100,3,0,3,0,1,,,,,,,,,,
,,,,5c43fb651ddd660001c9de3a,A,2024-07-02_20h00.19.031,Slot Machine Game,2023.1.3,Win32,60.24096386,,,,,,,,,,,,,,,,,,,,,,,,,,,120,,,,,,,,,,,,,,,,,,,,,5,6,,,456.6929,4,right,0.11,,0.5,0.3,"[1,3,2]",0.252168006,stimuli/card_10_transparent.png,10,4,0,4,0,1,,,,,,,,,,
,,,,5c43fb651ddd660001c9de3a,A,2024-07-02_20h00.19.031,Slot Machine Game,2023.1.3,Win32,60.24096386,,,,,,,,,,,,,,,,,,,,,,,,,,,130,,,,,,,,,,,,,,,,,,,,,5,6,,,458.1142,5,right,0.207,,1.5,0.3,"[1,3,2]",0.537498253,stimuli/card_10_transparent.png,10,5,0,5,0,1,,,,,,,,,,
,,,,5c43fb651ddd660001c9de3a,A,2024-07-02_20h00.19.031,Slot Machine Game,2023.1.3,Win32,60.24096386,,,,,,,,,,,,,,,,,,,,,,,,,,,130,,,,,,,,,,,,,,,,,,,,,5,6,,,460.6696,6,up,0.0445,,1,0.3,"[1,3,2]",0.896085392,stimuli/card_0_transparent.png,0,6,0,6,0,1,,,,,,,,,,
,,,,5c43fb651ddd660001c9de3a,A,2024-07-02_20h00.19.031,Slot Machine Game,2023.1.3,Win32,60.24096386,,,,,,,,,,,,,,,,,,,,,,,,,,,230,,,,,,,,,,,,,,,,,,,,,5,6,,,462.5167,7,left,0.0817,,0.5,0.3,"[1,3,2]",0.382874454,stimuli/card_100_transparent.png,100,7,0,7,0,1,,,,,,,,,,
,,,,5c43fb651ddd660001c9de3a,A,2024-07-02_20h00.19.031,Slot Machine Game,2023.1.3,Win32,60.24096386,,,,,,,,,,,,,,,,,,,,,,,,,,,330,,,,,,,,,,,,,,,,,,,,,5,6,,,463.9175,8,left,0.1006,,1.5,0.3,"[1,3,2]",0.658550516,stimuli/card_100_transparent.png,100,8,0,8,0,1,,,,,,,,,,
,,,,5c43fb651ddd660001c9de3a,A,2024-07-02_20h00.19.031,Slot Machine Game,2023.1.3,Win32,60.24096386,,,,,,,,,,,,,,,,,,,,,,,,,,,340,,,,,,,,,,,,,,,,,,,,,5,6,,,466.3353,9,left,0.2078,,1,0.3,"[1,3,2]",0.197261449,stimuli/card_10_transparent.png,10,9,0,9,0,1,,,,,,,,,,
,,,,5c43fb651ddd660001c9de3a,A,2024-07-02_20h00.19.031,Slot Machine Game,2023.1.3,Win32,60.24096386,,,,,,,,,,,,,,,,,,,,,,,,,,,340,,,,,,,,,,,,,,,,,,,,,5,6,,,468.3912,10,left,0.4829,,0.5,0.3,"[3,2,1]",0.843841895,stimuli/card_0_transparent.png,0,10,0,10,0,1,,,,,,,,,,
,,,,5c43fb651ddd660001c9de3a,A,2024-07-02_20h00.19.031,Slot Machine Game,2023.1.3,Win32,60.24096386,,,,,,,,,,,,,,,,,,,,,,,,,,,350,,,,,,,,,,,,,,,,,,,,,5,6,,,470.1707,11,up,0.3685,,1.5,0.3,"[3,2,1]",0.367848451,stimuli/card_10_transparent.png,10,11,0,11,0,1,,,,,,,,,,
,,,,5c43fb651ddd660001c9de3a,A,2024-07-02_20h00.19.031,Slot Machine Game,2023.1.3,Win32,60.24096386,,,,,,,,,,,,,,,,,,,,,,,,,,,350,,,,,,,,,,,,,,,,,,,,,5,6,,,472.8385,12,right,0.3824,,1,0.3,"[3,2,1]",0.056884508,stimuli/card_0_transparent.png,0,12,0,12,0,1,,,,,,,,,,
,,,,5c43fb651ddd660001c9de3a,A,2024-07-02_20h00.19.031,Slot Machine Game,2023.1.3,Win32,60.24096386,,,,,,,,,,,,,,,,,,,,,,,,,,,360,,,,,,,,,,,,,,,,,,,,,5,6,,,475.052,13,up,0.2033,,1,0.3,"[3,2,1]",0.675623794,stimuli/card_10_transparent.png,10,13,0,13,0,1,,,,,,,,,,
,,,,5c43fb651ddd660001c9de3a,A,2024-07-02_20h00.19.031,Slot Machine Game,2023.1.3,Win32,60.24096386,,,,,,,,,,,,,,,,,,,,,,,,,,,360,,,,,,,,,,,,,,,,,,,,,5,6,,,477.0562,14,left,0.3223,,1,0.3,"[3,2,1]",0.334375224,stimuli/card_0_transparent.png,0,14,0,14,0,1,,,,,,,,,,
,,,,5c43fb651ddd660001c9de3a,A,2024-07-02_20h00.19.031,Slot Machine Game,2023.1.3,Win32,60.24096386,,,,,,,,,,,,,,,,,,,,,,,,,,,,,,,,,,,479.2234,,,,,,,,,,,,,,,,,,,,,,,,,,,,,,,,,"[730,930,840,1030,360]",4,0,4,0,1,,,,
,,,,5c43fb651ddd660001c9de3a,A,2024-07-02_20h00.19.031,Slot Machine Game,2023.1.3,Win32,60.24096386,,,,,,,,,,,,,,,,,,,,,,,,,,,10,,,,,,,,,,,,,,,,,,,,,6,8,"[11,15]","[[2,1,3],[1,2,3]]",484.2418,0,left,0.0144,,0.5,0.3,"[2,1,3]",0.495612561,stimuli/card_10_transparent.png,10,0,0,0,0,1,,,,,,,,,,
,,,,5c43fb651ddd660001c9de3a,A,2024-07-02_20h00.19.031,Slot Machine Game,2023.1.3,Win32,60.24096386,,,,,,,,,,,,,,,,,,,,,,,,,,,10,,,,,,,,,,,,,,,,,,,,,6,8,,,485.563,1,right,0.1842,,1.5,0.3,"[2,1,3]",0.902353799,stimuli/card_0_transparent.png,0,1,0,1,0,1,,,,,,,,,,
,,,,5c43fb651ddd660001c9de3a,A,2024-07-02_20h00.19.031,Slot Machine Game,2023.1.3,Win32,60.24096386,,,,,,,,,,,,,,,,,,,,,,,,,,,10,,,,,,,,,,,,,,,,,,,,,6,8,,,488.0254,2,up,0.1398,,1.5,0.3,"[2,1,3]",0.009515925,stimuli/card_0_transparent.png,0,2,0,2,0,1,,,,,,,,,,
,,,,5c43fb651ddd660001c9de3a,A,2024-07-02_20h00.19.031,Slot Machine Game,2023.1.3,Win32,60.24096386,,,,,,,,,,,,,,,,,,,,,,,,,,,20,,,,,,,,,,,,,,,,,,,,,6,8,,,490.4973,3,right,0.0584,,1,0.3,"[2,1,3]",0.108654665,stimuli/card_10_transparent.png,10,3,0,3,0,1,,,,,,,,,,
,,,,5c43fb651ddd660001c9de3a,A,2024-07-02_20h00.19.031,Slot Machine Game,2023.1.3,Win32,60.24096386,,,,,,,,,,,,,,,,,,,,,,,,,,,20,,,,,,,,,,,,,,,,,,,,,6,8,,,492.3718,4,right,0.7828,,1,0.3,"[2,1,3]",0.791898088,stimuli/card_0_transparent.png,0,4,0,4,0,1,,,,,,,,,,
,,,,5c43fb651ddd660001c9de3a,A,2024-07-02_20h00.19.031,Slot Machine Game,2023.1.3,Win32,60.24096386,,,,,,,,,,,,,,,,,,,,,,,,,,,30,,,,,,,,,,,,,,,,,,,,,6,8,,,494.9788,5,left,0.7795,,1.5,0.3,"[2,1,3]",0.217899932,stimuli/card_10_transparent.png,10,5,0,5,0,1,,,,,,,,,,
,,,,5c43fb651ddd660001c9de3a,A,2024-07-02_20h00.19.031,Slot Machine Game,2023.1.3,Win32,60.24096386,,,,,,,,,,,,,,,,,,,,,,,,,,,130,,,,,,,,,,,,,,,,,,,,,6,8,,,498.07,6,up,0.0008,,1,0.3,"[2,1,3]",0.62216783,stimuli/card_100_transparent.png,100,6,0,6,0,1,,,,,,,,,,
,,,,5c43fb651ddd660001c9de3a,A,2024-07-02_20h00.19.031,Slot Machine Game,2023.1.3,Win32,60.24096386,,,,,,,,,,,,,,,,,,,,,,,,,,,230,,,,,,,,,,,,,,,,,,,,,6,8,,,499.8892,7,up,0.1214,,0.5,0.3,"[2,1,3]",0.61832429,stimuli/card_100_transparent.png,100,7,0,7,0,1,,,,,,,,,,
,,,,5c43fb651ddd660001c9de3a,A,2024-07-02_20h00.19.031,Slot Machine Game,2023.1.3,Win32,60.24096386,,,,,,,,,,,,,,,,,,,,,,,,,,,240,,,,,,,,,,,,,,,,,,,,,6,8,,,501.2986,8,up,0.0596,,0.5,0.3,"[2,1,3]",0.105436168,stimuli/card_10_transparent.png,10,8,0,8,0,1,,,,,,,,,,
,,,,5c43fb651ddd660001c9de3a,A,2024-07-02_20h00.19.031,Slot Machine Game,2023.1.3,Win32,60.24096386,,,,,,,,,,,,,,,,,,,,,,,,,,,340,,,,,,,,,,,,,,,,,,,,,6,8,,,502.666,9,up,0.3131,,1.5,0.3,"[2,1,3]",0.296419845,stimuli/card_100_transparent.png,100,9,0,9,0,1,,,,,,,,,,
,,,,5c43fb651ddd660001c9de3a,A,2024-07-02_20h00.19.031,Slot Machine Game,2023.1.3,Win32,60.24096386,,,,,,,,,,,,,,,,,,,,,,,,,,,440,,,,,,,,,,,,,,,,,,,,,6,8,,,505.3299,10,up,0.3434,,1.5,0.3,"[2,1,3]",0.76343089,stimuli/card_100_transparent.png,100,10,0,10,0,1,,,,,,,,,,
,,,,5c43fb651ddd660001c9de3a,A,2024-07-02_20h00.19.031,Slot Machine Game,2023.1.3,Win32,60.24096386,,,,,,,,,,,,,,,,,,,,,,,,,,,450,,,,,,,,,,,,,,,,,,,,,6,8,,,508.0221,11,up,0.2189,,1.5,0.3,"[1,2,3]",0.753758769,stimuli/card_10_transparent.png,10,11,0,11,0,1,,,,,,,,,,
,,,,5c43fb651ddd660001c9de3a,A,2024-07-02_20h00.19.031,Slot Machine Game,2023.1.3,Win32,60.24096386,,,,,,,,,,,,,,,,,,,,,,,,,,,460,,,,,,,,,,,,,,,,,,,,,6,8,,,510.5883,12,up,0.0582,,1,0.3,"[1,2,3]",0.544136504,stimuli/card_10_transparent.png,10,12,0,12,0,1,,,,,,,,,,
,,,,5c43fb651ddd660001c9de3a,A,2024-07-02_20h00.19.031,Slot Machine Game,2023.1.3,Win32,60.24096386,,,,,,,,,,,,,,,,,,,,,,,,,,,460,,,,,,,,,,,,,,,,,,,,,6,8,,,512.4562,13,right,0.2357,,1,0.3,"[1,2,3]",0.945539349,stimuli/card_0_transparent.png,0,13,0,13,0,1,,,,,,,,,,
,,,,5c43fb651ddd660001c9de3a,A,2024-07-02_20h00.19.031,Slot Machine Game,2023.1.3,Win32,60.24096386,,,,,,,,,,,,,,,,,,,,,,,,,,,560,,,,,,,,,,,,,,,,,,,,,6,8,,,514.5368,14,left,0.0326,,1.5,0.3,"[1,2,3]",0.86321485,stimuli/card_100_transparent.png,100,14,0,14,0,1,,,,,,,,,,
,,,,5c43fb651ddd660001c9de3a,A,2024-07-02_20h00.19.031,Slot Machine Game,2023.1.3,Win32,60.24096386,,,,,,,,,,,,,,,,,,,,,,,,,,,,,,,,,,,516.8944,,,,,,,,,,,,,,,,,,,,,,,,,,,,,,,,,"[730,930,840,1030,360,560]",5,0,5,0,1,,,,
,,,,5c43fb651ddd660001c9de3a,A,2024-07-02_20h00.19.031,Slot Machine Game,2023.1.3,Win32,60.24096386,,,,,,,,,,,,,,,,,,,,,,,,,,,0,,,,,,,,,,,,,,,,,,,,,7,9,"[8,15]","[[3,2,1],[3,1,2]]",521.926,0,left,0.0805,,1.5,0.3,"[3,2,1]",0.611769047,stimuli/card_0_transparent.png,0,0,0,0,0,1,,,,,,,,,,
,,,,5c43fb651ddd660001c9de3a,A,2024-07-02_20h00.19.031,Slot Machine Game,2023.1.3,Win32,60.24096386,,,,,,,,,,,,,,,,,,,,,,,,,,,10,,,,,,,,,,,,,,,,,,,,,7,9,,,524.3103,1,up,0.3868,,1.5,0.3,"[3,2,1]",0.911228996,stimuli/card_10_transparent.png,10,1,0,1,0,1,,,,,,,,,,
,,,,5c43fb651ddd660001c9de3a,A,2024-07-02_20h00.19.031,Slot Machine Game,2023.1.3,Win32,60.24096386,,,,,,,,,,,,,,,,,,,,,,,,,,,20,,,,,,,,,,,,,,,,,,,,,7,9,,,526.9852,2,up,0.0585,,1,0.3,"[3,2,1]",0.838809338,stimuli/card_10_transparent.png,10,2,0,2,0,1,,,,,,,,,,
,,,,5c43fb651ddd660001c9de3a,A,2024-07-02_20h00.19.031,Slot Machine Game,2023.1.3,Win32,60.24096386,,,,,,,,,,,,,,,,,,,,,,,,,,,120,,,,,,,,,,,,,,,,,,,,,7,9,,,528.8502,3,right,0.2283,,1,0.3,"[3,2,1]",0.73006821,stimuli/card_100_transparent.png,100,3,0,3,0,1,,,,,,,,,,
,,,,5c43fb651ddd660001c9de3a,A,2024-07-02_20h00.19.031,Slot Machine Game,2023.1.3,Win32,60.24096386,,,,,,,,,,,,,,,,,,,,,,,,,,,220,,,,,,,,,,,,,,,,,,,,,7,9,,,530.8844,4,right,0.3207,,1.5,0.3,"[3,2,1]",0.546556298,stimuli/card_100_transparent.png,100,4,0,4,0,1,,,,,,,,,,
,,,,5c43fb651ddd660001c9de3a,A,2024-07-02_20h00.19.031,Slot Machine Game,2023.1.3,Win32,60.24096386,,,,,,,,,,,,,,,,,,,,,,,,,,,320,,,,,,,,,,,,,,,,,,,,,7,9,,,533.5383,5,right,0.4983,,1.5,0.3,"[3,2,1]",0.403129108,stimuli/card_100_transparent.png,100,5,0,5,0,1,,,,,,,,,,
,,,,5c43fb651ddd660001c9de3a,A,2024-07-02_20h00.19.031,Slot Machine Game,2023.1.3,Win32,60.24096386,,,,,,,,,,,,,,,,,,,,,,,,,,,420,,,,,,,,,,,,,,,,,,,,,7,9,,,536.3373,6,right,0.6379,,0.5,0.3,"[3,2,1]",0.371233126,stimuli/card_100_transparent.png,100,6,0,6,0,1,,,,,,,,,,
,,,,5c43fb651ddd660001c9de3a,A,2024-07-02_20h00.19.031,Slot Machine Game,2023.1.3,Win32,60.24096386,,,,,,,,,,,,,,,,,,,,,,,,,,,520,,,,,,,,,,,,,,,,,,,,,7,9,,,538.3523,7,right,0.6652,,1,0.3,"[3,2,1]",0.870802143,stimuli/card_100_transparent.png,100,7,0,7,0,1,,,,,,,,,,
,,,,5c43fb651ddd660001c9de3a,A,2024-07-02_20h00.19.031,Slot Machine Game,2023.1.3,Win32,60.24096386,,,,,,,,,,,,,,,,,,,,,,,,,,,620,,,,,,,,,,,,,,,,,,,,,7,9,,,540.821,8,right,0.0804,,0.5,0.3,"[3,1,2]",0.142338844,stimuli/card_100_transparent.png,100,8,0,8,0,1,,,,,,,,,,
,,,,5c43fb651ddd660001c9de3a,A,2024-07-02_20h00.19.031,Slot Machine Game,2023.1.3,Win32,60.24096386,,,,,,,,,,,,,,,,,,,,,,,,,,,630,,,,,,,,,,,,,,,,,,,,,7,9,,,542.2133,9,right,0.1594,,0.5,0.3,"[3,1,2]",0.775389654,stimuli/card_10_transparent.png,10,9,0,9,0,1,,,,,,,,,,
,,,,5c43fb651ddd660001c9de3a,A,2024-07-02_20h00.19.031,Slot Machine Game,2023.1.3,Win32,60.24096386,,,,,,,,,,,,,,,,,,,,,,,,,,,630,,,,,,,,,,,,,,,,,,,,,7,9,,,543.7091,10,right,0.3375,,0.5,0.3,"[3,1,2]",0.048391333,stimuli/card_0_transparent.png,0,10,0,10,0,1,,,,,,,,,,
,,,,5c43fb651ddd660001c9de3a,A,2024-07-02_20h00.19.031,Slot Machine Game,2023.1.3,Win32,60.24096386,,,,,,,,,,,,,,,,,,,,,,,,,,,630,,,,,,,,,,,,,,,,,,,,,7,9,,,545.3602,11,left,0.2278,,1,0.3,"[3,1,2]",0.887996162,stimuli/card_0_transparent.png,0,11,0,11,0,1,,,,,,,,,,
,,,,5c43fb651ddd660001c9de3a,A,2024-07-02_20h00.19.031,Slot Machine Game,2023.1.3,Win32,60.24096386,,,,,,,,,,,,,,,,,,,,,,,,,,,730,,,,,,,,,,,,,,,,,,,,,7,9,,,547.3928,12,up,0.2212,,1,0.3,"[3,1,2]",0.299517423,stimuli/card_100_transparent.png,100,12,0,12,0,1,,,,,,,,,,
,,,,5c43fb651ddd660001c9de3a,A,2024-07-02_20h00.19.031,Slot Machine Game,2023.1.3,Win32,60.24096386,,,,,,,,,,,,,,,,,,,,,,,,,,,830,,,,,,,,,,,,,,,,,,,,,7,9,,,549.4312,13,up,0.225,,1.5,0.3,"[3,1,2]",0.377464981,stimuli/card_100_transparent.png,100,13,0,13,0,1,,,,,,,,,,
,,,,5c43fb651ddd660001c9de3a,A,2024-07-02_20h00.19.031,Slot Machine Game,2023.1.3,Win32,60.24096386,,,,,,,,,,,,,,,,,,,,,,,,,,,840,,,,,,,,,,,,,,,,,,,,,7,9,,,551.9797,14,up,0.2821,,1.5,0.3,"[3,1,2]",0.173130219,stimuli/card_10_transparent.png,10,14,0,14,0,1,,,,,,,,,,
,,,,5c43fb651ddd660001c9de3a,A,2024-07-02_20h00.19.031,Slot Machine Game,2023.1.3,Win32,60.24096386,,,,,,,,,,,,,,,,,,,,,,,,,,,,,,,,,,,554.6002,,,,,,,,,,,,,,,,,,,,,,,,,,,,,,,,,"[730,930,840,1030,360,560,840]",6,0,6,0,1,,,,
,,,,5c43fb651ddd660001c9de3a,A,2024-07-02_20h00.19.031,Slot Machine Game,2023.1.3,Win32,60.24096386,,,,,,,,,,,,,,,,,,,,,,,,,,,10,,,,,,,,,,,,,,,,,,,,,8,2,"[6,15]","[[1,3,2],[3,2,1]]",559.6265,0,right,0.2771,,1.5,0.3,"[1,3,2]",0.429428647,stimuli/card_10_transparent.png,10,0,0,0,0,1,,,,,,,,,,
,,,,5c43fb651ddd660001c9de3a,A,2024-07-02_20h00.19.031,Slot Machine Game,2023.1.3,Win32,60.24096386,,,,,,,,,,,,,,,,,,,,,,,,,,,20,,,,,,,,,,,,,,,,,,,,,8,2,,,562.217,1,right,0.0661,,1,0.3,"[1,3,2]",0.727596695,stimuli/card_10_transparent.png,10,1,0,1,0,1,,,,,,,,,,
,,,,5c43fb651ddd660001c9de3a,A,2024-07-02_20h00.19.031,Slot Machine Game,2023.1.3,Win32,60.24096386,,,,,,,,,,,,,,,,,,,,,,,,,,,120,,,,,,,,,,,,,,,,,,,,,8,2,,,564.1233,2,left,0.0008,,1,0.3,"[1,3,2]",0.965246348,stimuli/card_100_transparent.png,100,2,0,2,0,1,,,,,,,,,,
,,,,5c43fb651ddd660001c9de3a,A,2024-07-02_20h00.19.031,Slot Machine Game,2023.1.3,Win32,60.24096386,,,,,,,,,,,,,,,,,,,,,,,,,,,220,,,,,,,,,,,,,,,,,,,,,8,2,,,565.9143,3,left,0.2431,,1.5,0.3,"[1,3,2]",0.460869837,stimuli/card_100_transparent.png,100,3,0,3,0,1,,,,,,,,,,
,,,,5c43fb651ddd660001c9de3a,A,2024-07-02_20h00.19.031,Slot Machine Game,2023.1.3,Win32,60.24096386,,,,,,,,,,,,,,,,,,,,,,,,,,,320,,,,,,,,,,,,,,,,,,,,,8,2,,,568.4659,4,left,0.4355,,1,0.3,"[1,3,2]",0.482196739,stimuli/card_100_transparent.png,100,4,0,4,0,1,,,,,,,,,,
,,,,5c43fb651ddd660001c9de3a,A,2024-07-02_20h00.19.031,Slot Machine Game,2023.1.3,Win32,60.24096386,,,,,,,,,,,,,,,,,,,,,,,,,,,420,,,,,,,,,,,,,,,,,,,,,8,2,,,570.7212,5,left,0.2142,,1,0.3,"[1,3,2]",0.996663209,stimuli/card_100_transparent.png,100,5,0,5,0,1,,,,,,,,,,
,,,,5c43fb651ddd660001c9de3a,A,2024-07-02_20h00.19.031,Slot Machine Game,2023.1.3,Win32,60.24096386,,,,,,,,,,,,,,,,,,,,,,,,,,,420,,,,,,,,,,,,,,,,,,,,,8,2,,,572.7744,6,left,0.5039,,1,0.3,"[3,2,1]",0.872715441,stimuli/card_0_transparent.png,0,6,0,6,0,1,,,,,,,,,,
,,,,5c43fb651ddd660001c9de3a,A,2024-07-02_20h00.19.031,Slot Machine Game,2023.1.3,Win32,60.24096386,,,,,,,,,,,,,,,,,,,,,,,,,,,420,,,,,,,,,,,,,,,,,,,,,8,2,,,575.1046,7,left,0.2237,,0.5,0.3,"[3,2,1]",0.829407007,stimuli/card_0_transparent.png,0,7,0,7,0,1,,,,,,,,,,
,,,,5c43fb651ddd660001c9de3a,A,2024-07-02_20h00.19.031,Slot Machine Game,2023.1.3,Win32,60.24096386,,,,,,,,,,,,,,,,,,,,,,,,,,,420,,,,,,,,,,,,,,,,,,,,,8,2,,,576.6382,8,left,0.2416,,0.5,0.3,"[3,2,1]",0.878881952,stimuli/card_0_transparent.png,0,8,0,8,0,1,,,,,,,,,,
,,,,5c43fb651ddd660001c9de3a,A,2024-07-02_20h00.19.031,Slot Machine Game,2023.1.3,Win32,60.24096386,,,,,,,,,,,,,,,,,,,,,,,,,,,430,,,,,,,,,,,,,,,,,,,,,8,2,,,578.1873,9,up,0.4822,,1,0.3,"[3,2,1]",0.684238572,stimuli/card_10_transparent.png,10,9,0,9,0,1,,,,,,,,,,
,,,,5c43fb651ddd660001c9de3a,A,2024-07-02_20h00.19.031,Slot Machine Game,2023.1.3,Win32,60.24096386,,,,,,,,,,,,,,,,,,,,,,,,,,,430,,,,,,,,,,,,,,,,,,,,,8,2,,,580.4994,10,right,0.264,,1.5,0.3,"[3,2,1]",0.039668812,stimuli/card_0_transparent.png,0,10,0,10,0,1,,,,,,,,,,
,,,,5c43fb651ddd660001c9de3a,A,2024-07-02_20h00.19.031,Slot Machine Game,2023.1.3,Win32,60.24096386,,,,,,,,,,,,,,,,,,,,,,,,,,,430,,,,,,,,,,,,,,,,,,,,,8,2,,,583.0995,11,left,0.0008,,1.5,0.3,"[3,2,1]",0.89348343,stimuli/card_0_transparent.png,0,11,0,11,0,1,,,,,,,,,,
,,,,5c43fb651ddd660001c9de3a,A,2024-07-02_20h00.19.031,Slot Machine Game,2023.1.3,Win32,60.24096386,,,,,,,,,,,,,,,,,,,,,,,,,,,430,,,,,,,,,,,,,,,,,,,,,8,2,,,585.4331,12,right,0.1591,,1.5,0.3,"[3,2,1]",0.013944648,stimuli/card_0_transparent.png,0,12,0,12,0,1,,,,,,,,,,
,,,,5c43fb651ddd660001c9de3a,A,2024-07-02_20h00.19.031,Slot Machine Game,2023.1.3,Win32,60.24096386,,,,,,,,,,,,,,,,,,,,,,,,,,,440,,,,,,,,,,,,,,,,,,,,,8,2,,,587.9189,13,up,0.2494,,0.5,0.3,"[3,2,1]",0.73193485,stimuli/card_10_transparent.png,10,13,0,13,0,1,,,,,,,,,,
,,,,5c43fb651ddd660001c9de3a,A,2024-07-02_20h00.19.031,Slot Machine Game,2023.1.3,Win32,60.24096386,,,,,,,,,,,,,,,,,,,,,,,,,,,440,,,,,,,,,,,,,,,,,,,,,8,2,,,589.4676,14,up,0.1626,,0.5,0.3,"[3,2,1]",0.05669316,stimuli/card_0_transparent.png,0,14,0,14,0,1,,,,,,,,,,
,,,,5c43fb651ddd660001c9de3a,A,2024-07-02_20h00.19.031,Slot Machine Game,2023.1.3,Win32,60.24096386,,,,,,,,,,,,,,,,,,,,,,,,,,,,,,,,,,,590.9704,,,,,,,,,,,,,,,,,,,,,,,,,,,,,,,,,"[730,930,840,1030,360,560,840,440]",7,0,7,0,1,,,,
,,,,5c43fb651ddd660001c9de3a,A,2024-07-02_20h00.19.031,Slot Machine Game,2023.1.3,Win32,60.24096386,,,,,,,,,,,,,,,,,,,,,,,,,,,10,,,,,,,,,,,,,,,,,,,,,9,10,"[10,15]","[[3,1,2],[1,3,2]]",595.9993,0,up,0.0816,,1.5,0.3,"[3,1,2]",0.139954328,stimuli/card_10_transparent.png,10,0,0,0,0,1,,,,,,,,,,
,,,,5c43fb651ddd660001c9de3a,A,2024-07-02_20h00.19.031,Slot Machine Game,2023.1.3,Win32,60.24096386,,,,,,,,,,,,,,,,,,,,,,,,,,,20,,,,,,,,,,,,,,,,,,,,,9,10,,,598.3992,1,right,0.2715,,0.5,0.3,"[3,1,2]",0.660491926,stimuli/card_10_transparent.png,10,1,0,1,0,1,,,,,,,,,,
,,,,5c43fb651ddd660001c9de3a,A,2024-07-02_20h00.19.031,Slot Machine Game,2023.1.3,Win32,60.24096386,,,,,,,,,,,,,,,,,,,,,,,,,,,20,,,,,,,,,,,,,,,,,,,,,9,10,,,599.986,2,left,0.2914,,1,0.3,"[3,1,2]",0.999609213,stimuli/card_0_transparent.png,0,2,0,2,0,1,,,,,,,,,,
,,,,5c43fb651ddd660001c9de3a,A,2024-07-02_20h00.19.031,Slot Machine Game,2023.1.3,Win32,60.24096386,,,,,,,,,,,,,,,,,,,,,,,,,,,30,,,,,,,,,,,,,,,,,,,,,9,10,,,602.1243,3,right,0.0543,,1.5,0.3,"[3,1,2]",0.938528054,stimuli/card_10_transparent.png,10,3,0,3,0,1,,,,,,,,,,
,,,,5c43fb651ddd660001c9de3a,A,2024-07-02_20h00.19.031,Slot Machine Game,2023.1.3,Win32,60.24096386,,,,,,,,,,,,,,,,,,,,,,,,,,,130,,,,,,,,,,,,,,,,,,,,,9,10,,,604.4902,4,up,0.182,,1,0.3,"[3,1,2]",0.478985421,stimuli/card_100_transparent.png,100,4,0,4,0,1,,,,,,,,,,
,,,,5c43fb651ddd660001c9de3a,A,2024-07-02_20h00.19.031,Slot Machine Game,2023.1.3,Win32,60.24096386,,,,,,,,,,,,,,,,,,,,,,,,,,,230,,,,,,,,,,,,,,,,,,,,,9,10,,,606.4868,5,up,0.1701,,0.5,0.3,"[3,1,2]",0.428778053,stimuli/card_100_transparent.png,100,5,0,5,0,1,,,,,,,,,,
,,,,5c43fb651ddd660001c9de3a,A,2024-07-02_20h00.19.031,Slot Machine Game,2023.1.3,Win32,60.24096386,,,,,,,,,,,,,,,,,,,,,,,,,,,330,,,,,,,,,,,,,,,,,,,,,9,10,,,607.9781,6,up,0.2324,,0.5,0.3,"[3,1,2]",0.98794373,stimuli/card_100_transparent.png,100,6,0,6,0,1,,,,,,,,,,
,,,,5c43fb651ddd660001c9de3a,A,2024-07-02_20h00.19.031,Slot Machine Game,2023.1.3,Win32,60.24096386,,,,,,,,,,,,,,,,,,,,,,,,,,,340,,,,,,,,,,,,,,,,,,,,,9,10,,,609.5031,7,up,0.0977,,1,0.3,"[3,1,2]",0.137292222,stimuli/card_10_transparent.png,10,7,0,7,0,1,,,,,,,,,,
,,,,5c43fb651ddd660001c9de3a,A,2024-07-02_20h00.19.031,Slot Machine Game,2023.1.3,Win32,60.24096386,,,,,,,,,,,,,,,,,,,,,,,,,,,440,,,,,,,,,,,,,,,,,,,,,9,10,,,611.4431,8,up,0.0767,,1,0.3,"[3,1,2]",0.29740321,stimuli/card_100_transparent.png,100,8,0,8,0,1,,,,,,,,,,
,,,,5c43fb651ddd660001c9de3a,A,2024-07-02_20h00.19.031,Slot Machine Game,2023.1.3,Win32,60.24096386,,,,,,,,,,,,,,,,,,,,,,,,,,,540,,,,,,,,,,,,,,,,,,,,,9,10,,,613.3417,9,up,0.0439,,0.5,0.3,"[3,1,2]",0.555981444,stimuli/card_100_transparent.png,100,9,0,9,0,1,,,,,,,,,,
,,,,5c43fb651ddd660001c9de3a,A,2024-07-02_20h00.19.031,Slot Machine Game,2023.1.3,Win32,60.24096386,,,,,,,,,,,,,,,,,,,,,,,,,,,640,,,,,,,,,,,,,,,,,,,,,9,10,,,614.7102,10,up,0.1174,,1,0.3,"[1,3,2]",0.05856143,stimuli/card_100_transparent.png,100,10,0,10,0,1,,,,,,,,,,
,,,,5c43fb651ddd660001c9de3a,A,2024-07-02_20h00.19.031,Slot Machine Game,2023.1.3,Win32,60.24096386,,,,,,,,,,,,,,,,,,,,,,,,,,,640,,,,,,,,,,,,,,,,,,,,,9,10,,,616.6444,11,up,0.0612,,1.5,0.3,"[1,3,2]",0.538615393,stimuli/card_0_transparent.png,0,11,0,11,0,1,,,,,,,,,,
,,,,5c43fb651ddd660001c9de3a,A,2024-07-02_20h00.19.031,Slot Machine Game,2023.1.3,Win32,60.24096386,,,,,,,,,,,,,,,,,,,,,,,,,,,640,,,,,,,,,,,,,,,,,,,,,9,10,,,619.0413,12,up,1.5216,,1,0.3,"[1,3,2]",0.44095392,stimuli/card_0_transparent.png,0,12,0,12,0,1,,,,,,,,,,
,,,,5c43fb651ddd660001c9de3a,A,2024-07-02_20h00.19.031,Slot Machine Game,2023.1.3,Win32,60.24096386,,,,,,,,,,,,,,,,,,,,,,,,,,,650,,,,,,,,,,,,,,,,,,,,,9,10,,,622.3764,13,up,0.1324,,1,0.3,"[1,3,2]",0.104156122,stimuli/card_10_transparent.png,10,13,0,13,0,1,,,,,,,,,,
,,,,5c43fb651ddd660001c9de3a,A,2024-07-02_20h00.19.031,Slot Machine Game,2023.1.3,Win32,60.24096386,,,,,,,,,,,,,,,,,,,,,,,,,,,750,,,,,,,,,,,,,,,,,,,,,9,10,,,624.2979,14,left,0.3238,,0.5,0.3,"[1,3,2]",0.291400446,stimuli/card_100_transparent.png,100,14,0,14,0,1,,,,,,,,,,
,,,,5c43fb651ddd660001c9de3a,A,2024-07-02_20h00.19.031,Slot Machine Game,2023.1.3,Win32,60.24096386,,,,,,,,,,,,,,,,,,,,,,,,,,,,,,,,,,,625.9671,,,,,,,,,,,,,,,,,,,,,,,,,,,,,,,,,"[730,930,840,1030,360,560,840,440,750]",8,0,8,0,1,,,,
,,,,5c43fb651ddd660001c9de3a,A,2024-07-02_20h00.19.031,Slot Machine Game,2023.1.3,Win32,60.24096386,,,,,,,,,,,,,,,,,,,,,,,,,,,0,,,,,,,,,,,,,,,,,,,,,10,3,"[15,15]","[[3,1,2],[3,1,2]]",630.9636,0,left,0.751,,1,0.3,"[3,1,2]",0.741350341,stimuli/card_0_transparent.png,0,0,0,0,0,1,,,,,,,,,,
,,,,5c43fb651ddd660001c9de3a,A,2024-07-02_20h00.19.031,Slot Machine Game,2023.1.3,Win32,60.24096386,,,,,,,,,,,,,,,,,,,,,,,,,,,100,,,,,,,,,,,,,,,,,,,,,10,3,,,633.5235,1,up,0.1842,,1.5,0.3,"[3,1,2]",0.771771283,stimuli/card_100_transparent.png,100,1,0,1,0,1,,,,,,,,,,
,,,,5c43fb651ddd660001c9de3a,A,2024-07-02_20h00.19.031,Slot Machine Game,2023.1.3,Win32,60.24096386,,,,,,,,,,,,,,,,,,,,,,,,,,,200,,,,,,,,,,,,,,,,,,,,,10,3,,,636.0348,2,up,0.0199,,1,0.3,"[3,1,2]",0.636311028,stimuli/card_100_transparent.png,100,2,0,2,0,1,,,,,,,,,,
,,,,5c43fb651ddd660001c9de3a,A,2024-07-02_20h00.19.031,Slot Machine Game,2023.1.3,Win32,60.24096386,,,,,,,,,,,,,,,,,,,,,,,,,,,300,,,,,,,,,,,,,,,,,,,,,10,3,,,637.8717,3,up,0.4326,,1,0.3,"[3,1,2]",0.584453858,stimuli/card_100_transparent.png,100,3,0,3,0,1,,,,,,,,,,
,,,,5c43fb651ddd660001c9de3a,A,2024-07-02_20h00.19.031,Slot Machine Game,2023.1.3,Win32,60.24096386,,,,,,,,,,,,,,,,,,,,,,,,,,,400,,,,,,,,,,,,,,,,,,,,,10,3,,,640.123,4,up,0.1823,,1.5,0.3,"[3,1,2]",0.61307059,stimuli/card_100_transparent.png,100,4,0,4,0,1,,,,,,,,,,
,,,,5c43fb651ddd660001c9de3a,A,2024-07-02_20h00.19.031,Slot Machine Game,2023.1.3,Win32,60.24096386,,,,,,,,,,,,,,,,,,,,,,,,,,,500,,,,,,,,,,,,,,,,,,,,,10,3,,,642.6381,5,up,0.0611,,1.5,0.3,"[3,1,2]",0.632199265,stimuli/card_100_transparent.png,100,5,0,5,0,1,,,,,,,,,,
,,,,5c43fb651ddd660001c9de3a,A,2024-07-02_20h00.19.031,Slot Machine Game,2023.1.3,Win32,60.24096386,,,,,,,,,,,,,,,,,,,,,,,,,,,600,,,,,,,,,,,,,,,,,,,,,10,3,,,645.0087,6,up,0.3395,,0.5,0.3,"[3,1,2]",0.986401137,stimuli/card_100_transparent.png,100,6,0,6,0,1,,,,,,,,,,
,,,,5c43fb651ddd660001c9de3a,A,2024-07-02_20h00.19.031,Slot Machine Game,2023.1.3,Win32,60.24096386,,,,,,,,,,,,,,,,,,,,,,,,,,,700,,,,,,,,,,,,,,,,,,,,,10,3,,,646.6745,7,up,0.2426,,1,0.3,"[3,1,2]",0.8966028,stimuli/card_100_transparent.png,100,7,0,7,0,1,,,,,,,,,,
,,,,5c43fb651ddd660001c9de3a,A,2024-07-02_20h00.19.031,Slot Machine Game,2023.1.3,Win32,60.24096386,,,,,,,,,,,,,,,,,,,,,,,,,,,800,,,,,,,,,,,,,,,,,,,,,10,3,,,648.7437,8,up,0.0953,,1.5,0.3,"[3,1,2]",0.595340435,stimuli/card_100_transparent.png,100,8,0,8,0,1,,,,,,,,,,
,,,,5c43fb651ddd660001c9de3a,A,2024-07-02_20h00.19.031,Slot Machine Game,2023.1.3,Win32,60.24096386,,,,,,,,,,,,,,,,,,,,,,,,,,,900,,,,,,,,,,,,,,,,,,,,,10,3,,,651.1656,9,up,1.3942,,1.5,0.3,"[3,1,2]",0.976347643,stimuli/card_100_transparent.png,100,9,0,9,0,1,,,,,,,,,,
,,,,5c43fb651ddd660001c9de3a,A,2024-07-02_20h00.19.031,Slot Machine Game,2023.1.3,Win32,60.24096386,,,,,,,,,,,,,,,,,,,,,,,,,,,1000,,,,,,,,,,,,,,,,,,,,,10,3,,,654.8872,10,up,0.1814,,0.5,0.3,"[3,1,2]",0.935253882,stimuli/card_100_transparent.png,100,10,0,10,0,1,,,,,,,,,,
,,,,5c43fb651ddd660001c9de3a,A,2024-07-02_20h00.19.031,Slot Machine Game,2023.1.3,Win32,60.24096386,,,,,,,,,,,,,,,,,,,,,,,,,,,1010,,,,,,,,,,,,,,,,,,,,,10,3,,,656.3663,11,up,0.306,,0.5,0.3,"[3,1,2]",0.120216347,stimuli/card_10_transparent.png,10,11,0,11,0,1,,,,,,,,,,
,,,,5c43fb651ddd660001c9de3a,A,2024-07-02_20h00.19.031,Slot Machine Game,2023.1.3,Win32,60.24096386,,,,,,,,,,,,,,,,,,,,,,,,,,,1110,,,,,,,,,,,,,,,,,,,,,10,3,,,658.0146,12,up,0.0622,,1,0.3,"[3,1,2]",0.973166404,stimuli/card_100_transparent.png,100,12,0,12,0,1,,,,,,,,,,
,,,,5c43fb651ddd660001c9de3a,A,2024-07-02_20h00.19.031,Slot Machine Game,2023.1.3,Win32,60.24096386,,,,,,,,,,,,,,,,,,,,,,,,,,,1120,,,,,,,,,,,,,,,,,,,,,10,3,,,659.8972,13,up,0.1008,,1,0.3,"[3,1,2]",0.17163364,stimuli/card_10_transparent.png,10,13,0,13,0,1,,,,,,,,,,
,,,,5c43fb651ddd660001c9de3a,A,2024-07-02_20h00.19.031,Slot Machine Game,2023.1.3,Win32,60.24096386,,,,,,,,,,,,,,,,,,,,,,,,,,,1130,,,,,,,,,,,,,,,,,,,,,10,3,,,661.8647,14,up,0.1891,,0.5,0.3,"[3,1,2]",0.197330118,stimuli/card_10_transparent.png,10,14,0,14,0,1,,,,,,,,,,
,,,,5c43fb651ddd660001c9de3a,A,2024-07-02_20h00.19.031,Slot Machine Game,2023.1.3,Win32,60.24096386,,,,,,,,,,,,,,,,,,,,,,,,,,,,,,,,,,,663.3719,,,,,,,,,,,,,,,,,,,,,,,,,,,,,,,,,"[730,930,840,1030,360,560,840,440,750,1130]",9,0,9,0,1,,,,
,,,,5c43fb651ddd660001c9de3a,A,2024-07-02_20h00.19.031,Slot Machine Game,2023.1.3,Win32,60.24096386,,,,,,,,,,,,,,,,,,,,,,,,,,,,,,,,,,,,,,,,,,,,,,,,,,,,,,,,,,,,,,,,,,,,,,,,,,9,"[730,930,840,1030,360,560,840,440,750,1130]",8.4,2024-07-02_20h11.31.788
