key_resp_welcome_started,key_resp_welcome_keys,key_resp_welcome_rt,key_resp_welcome_duration,prolific_id,path_id,date,expName,psychopyVersion,OS,frameRate,key_resp_instruction1_started,key_resp_instruction1_keys,key_resp_instruction1_rt,key_resp_instruction1_duration,key_resp_instruction2_started,key_resp_instruction2_keys,key_resp_instruction2_rt,key_resp_instruction2_duration,key_resp_instruction3_started,key_resp_instruction3_keys,key_resp_instruction3_rt,key_resp_instruction3_duration,key_resp_instruction4_started,key_resp_instruction4_keys,key_resp_instruction4_rt,key_resp_instruction4_duration,practiceCondition,practice_reward_seqs,practice_trial_started,practice_trial_num,practice_resp_rt,practice_resp_duration,practice_resp_keys,prac_presentationInterval,"practice_reward_seq: 2,1,3",reward_img,cumulative_reward,trial_reward,practice_trials.thisRepN,practice_trials.thisTrialN,practice_trials.thisN,practice_trials.thisIndex,practice_trials.ran,"practice_reward_seq: 2,3,1",block_break_started,"practice_reward_seq: 1,3,2","practice_reward_seq: 3,1,2",practice_end_time,practice_end_keys,practice_end_rt,practice_end_duration,main_instruction_text_started,block_condition,block_order_indices,main_instruction_keys,main_instruction_rt,main_instruction_duration,block_number,block_assignment,current_condition,main_reward_seqs,main_trial_started,main_trial_num,main_trial_keys,main_trial_rt,main_trial_duration,main_presentationInterval,reward_presentation_time,main_reward_seq,reward_rand_val,main_reward_img,current_reward,main_trials.thisRepN,main_trials.thisTrialN,main_trials.thisN,main_trials.thisIndex,main_trials.ran,block_reward,block.thisRepN,block.thisTrialN,block.thisN,block.thisIndex,block.ran,block_reward.length,block_reward_all,reward_amount,date_end_task
0.0002,space,1.8857,,5c5924c553fba80001bd7ad9,A,2024-07-02_13h11.38.300,Slot Machine Game,2023.1.3,Win32,119.047619,,,,,,,,,,,,,,,,,,,,,,,,,,,,,,,,,,,,,,,,,,,,,,,,,,,,,,,,,,,,,,,,,,,,,,,,,,,,,
,,,,5c5924c553fba80001bd7ad9,A,2024-07-02_13h11.38.300,Slot Machine Game,2023.1.3,Win32,119.047619,1.8938,space,6.0526,,,,,,,,,,,,,,,,,,,,,,,,,,,,,,,,,,,,,,,,,,,,,,,,,,,,,,,,,,,,,,,,,,,,,,,,,,
,,,,5c5924c553fba80001bd7ad9,A,2024-07-02_13h11.38.300,Slot Machine Game,2023.1.3,Win32,119.047619,,,,,7.9591,space,19.9725,,,,,,,,,,,,,,,,,,,,,,,,,,,,,,,,,,,,,,,,,,,,,,,,,,,,,,,,,,,,,,,,,,,,,,
,,,,5c5924c553fba80001bd7ad9,A,2024-07-02_13h11.38.300,Slot Machine Game,2023.1.3,Win32,119.047619,,,,,,,,,27.9755,space,7.4336,,,,,,,,,,,,,,,,,,,,,,,,,,,,,,,,,,,,,,,,,,,,,,,,,,,,,,,,,,,,,,,,,,
,,,,5c5924c553fba80001bd7ad9,A,2024-07-02_13h11.38.300,Slot Machine Game,2023.1.3,Win32,119.047619,,,,,,,,,,,,,,,,,,,,,,,,,,,,,,,,,,,,,,,,,,,,,,,,,,,,,,,,,,,,,,,,,,,,,,,,,,,,,
,,,,5c5924c553fba80001bd7ad9,A,2024-07-02_13h11.38.300,Slot Machine Game,2023.1.3,Win32,119.047619,,,,,,,,,,,,,177.1399,space,2.9461,,,,,,,,,,,,,,,,,,,,,,,,,,,,,,,,,,,,,,,,,,,,,,,,,,,,,,,,,,,,,,
,,,,5c5924c553fba80001bd7ad9,A,2024-07-02_13h11.38.300,Slot Machine Game,2023.1.3,Win32,119.047619,,,,,,,,,,,,,,,,,"[9,15]","[[2,1,3],[2,3,1]]",180.0991,0,0.701,,left,1,,stimuli/card_10_transparent.png,10,10,0,0,0,0,1,,,,,,,,,,,,,,,,,,,,,,,,,,,,,,,,,,,,,,,,,,,,
,,,,5c5924c553fba80001bd7ad9,A,2024-07-02_13h11.38.300,Slot Machine Game,2023.1.3,Win32,119.047619,,,,,,,,,,,,,,,,,,,182.6626,1,0.5506,,up,0.5,,stimuli/card_100_transparent.png,110,100,1,0,1,0,1,,,,,,,,,,,,,,,,,,,,,,,,,,,,,,,,,,,,,,,,,,,,
,,,,5c5924c553fba80001bd7ad9,A,2024-07-02_13h11.38.300,Slot Machine Game,2023.1.3,Win32,119.047619,,,,,,,,,,,,,,,,,,,184.5292,2,0.4153,,up,1.5,,stimuli/card_100_transparent.png,210,100,2,0,2,0,1,,,,,,,,,,,,,,,,,,,,,,,,,,,,,,,,,,,,,,,,,,,,
,,,,5c5924c553fba80001bd7ad9,A,2024-07-02_13h11.38.300,Slot Machine Game,2023.1.3,Win32,119.047619,,,,,,,,,,,,,,,,,,,187.2621,3,0.3342,,up,0.5,,stimuli/card_100_transparent.png,310,100,3,0,3,0,1,,,,,,,,,,,,,,,,,,,,,,,,,,,,,,,,,,,,,,,,,,,,
,,,,5c5924c553fba80001bd7ad9,A,2024-07-02_13h11.38.300,Slot Machine Game,2023.1.3,Win32,119.047619,,,,,,,,,,,,,,,,,,,188.9291,4,0.2156,,up,1.5,,stimuli/card_100_transparent.png,410,100,4,0,4,0,1,,,,,,,,,,,,,,,,,,,,,,,,,,,,,,,,,,,,,,,,,,,,
,,,,5c5924c553fba80001bd7ad9,A,2024-07-02_13h11.38.300,Slot Machine Game,2023.1.3,Win32,119.047619,,,,,,,,,,,,,,,,,,,191.4629,5,0.1166,,up,0.5,,stimuli/card_100_transparent.png,510,100,5,0,5,0,1,,,,,,,,,,,,,,,,,,,,,,,,,,,,,,,,,,,,,,,,,,,,
,,,,5c5924c553fba80001bd7ad9,A,2024-07-02_13h11.38.300,Slot Machine Game,2023.1.3,Win32,119.047619,,,,,,,,,,,,,,,,,,,192.9021,6,0.3653,,up,1,,stimuli/card_0_transparent.png,510,0,6,0,6,0,1,,,,,,,,,,,,,,,,,,,,,,,,,,,,,,,,,,,,,,,,,,,,
,,,,5c5924c553fba80001bd7ad9,A,2024-07-02_13h11.38.300,Slot Machine Game,2023.1.3,Win32,119.047619,,,,,,,,,,,,,,,,,,,195.079,7,0.7822,,right,1,,stimuli/card_0_transparent.png,510,0,7,0,7,0,1,,,,,,,,,,,,,,,,,,,,,,,,,,,,,,,,,,,,,,,,,,,,
,,,,5c5924c553fba80001bd7ad9,A,2024-07-02_13h11.38.300,Slot Machine Game,2023.1.3,Win32,119.047619,,,,,,,,,,,,,,,,,,,197.6519,8,0.9667,,left,1,,stimuli/card_10_transparent.png,520,10,8,0,8,0,1,,,,,,,,,,,,,,,,,,,,,,,,,,,,,,,,,,,,,,,,,,,,
,,,,5c5924c553fba80001bd7ad9,A,2024-07-02_13h11.38.300,Slot Machine Game,2023.1.3,Win32,119.047619,,,,,,,,,,,,,,,,,,,200.4291,9,0.6168,,left,1.5,,stimuli/card_0_transparent.png,520,0,9,0,9,0,1,,,,,,,,,,,,,,,,,,,,,,,,,,,,,,,,,,,,,,,,,,,,
,,,,5c5924c553fba80001bd7ad9,A,2024-07-02_13h11.38.300,Slot Machine Game,2023.1.3,Win32,119.047619,,,,,,,,,,,,,,,,,,,203.3798,10,0.25,,left,0.5,,stimuli/card_10_transparent.png,530,10,10,0,10,0,1,,,,,,,,,,,,,,,,,,,,,,,,,,,,,,,,,,,,,,,,,,,,
,,,,5c5924c553fba80001bd7ad9,A,2024-07-02_13h11.38.300,Slot Machine Game,2023.1.3,Win32,119.047619,,,,,,,,,,,,,,,,,,,204.9468,11,0.0005,,up,1,,stimuli/card_0_transparent.png,530,0,11,0,11,0,1,,,,,,,,,,,,,,,,,,,,,,,,,,,,,,,,,,,,,,,,,,,,
,,,,5c5924c553fba80001bd7ad9,A,2024-07-02_13h11.38.300,Slot Machine Game,2023.1.3,Win32,119.047619,,,,,,,,,,,,,,,,,,,206.7964,12,0.0896,,up,0.5,,stimuli/card_0_transparent.png,530,0,12,0,12,0,1,,,,,,,,,,,,,,,,,,,,,,,,,,,,,,,,,,,,,,,,,,,,
,,,,5c5924c553fba80001bd7ad9,A,2024-07-02_13h11.38.300,Slot Machine Game,2023.1.3,Win32,119.047619,,,,,,,,,,,,,,,,,,,208.2133,13,0.5505,,right,1,,stimuli/card_100_transparent.png,630,100,13,0,13,0,1,,,,,,,,,,,,,,,,,,,,,,,,,,,,,,,,,,,,,,,,,,,,
,,,,5c5924c553fba80001bd7ad9,A,2024-07-02_13h11.38.300,Slot Machine Game,2023.1.3,Win32,119.047619,,,,,,,,,,,,,,,,,,,210.5958,14,0.7495,,right,1,,stimuli/card_100_transparent.png,730,100,14,0,14,0,1,,,,,,,,,,,,,,,,,,,,,,,,,,,,,,,,,,,,,,,,,,,,
,,,,5c5924c553fba80001bd7ad9,A,2024-07-02_13h11.38.300,Slot Machine Game,2023.1.3,Win32,119.047619,,,,,,,,,,,,,,,,,"[6,15]","[[1,3,2],[3,1,2]]",218.173,0,0.3854,,right,0.5,,stimuli/card_10_transparent.png,10,10,0,0,0,0,1,,213.1735,,,,,,,,,,,,,,,,,,,,,,,,,,,,,,,,,,,,,,,,,,
,,,,5c5924c553fba80001bd7ad9,A,2024-07-02_13h11.38.300,Slot Machine Game,2023.1.3,Win32,119.047619,,,,,,,,,,,,,,,,,,,219.8985,1,1.2334,,right,1,,stimuli/card_10_transparent.png,20,10,1,0,1,0,1,,,,,,,,,,,,,,,,,,,,,,,,,,,,,,,,,,,,,,,,,,,,
,,,,5c5924c553fba80001bd7ad9,A,2024-07-02_13h11.38.300,Slot Machine Game,2023.1.3,Win32,119.047619,,,,,,,,,,,,,,,,,,,222.9654,2,0.1831,,up,1.5,,stimuli/card_10_transparent.png,30,10,2,0,2,0,1,,,,,,,,,,,,,,,,,,,,,,,,,,,,,,,,,,,,,,,,,,,,
,,,,5c5924c553fba80001bd7ad9,A,2024-07-02_13h11.38.300,Slot Machine Game,2023.1.3,Win32,119.047619,,,,,,,,,,,,,,,,,,,225.4654,3,0.0664,,up,1,,stimuli/card_0_transparent.png,30,0,3,0,3,0,1,,,,,,,,,,,,,,,,,,,,,,,,,,,,,,,,,,,,,,,,,,,,
,,,,5c5924c553fba80001bd7ad9,A,2024-07-02_13h11.38.300,Slot Machine Game,2023.1.3,Win32,119.047619,,,,,,,,,,,,,,,,,,,227.3822,4,0.3157,,left,1.5,,stimuli/card_0_transparent.png,30,0,4,0,4,0,1,,,,,,,,,,,,,,,,,,,,,,,,,,,,,,,,,,,,,,,,,,,,
,,,,5c5924c553fba80001bd7ad9,A,2024-07-02_13h11.38.300,Slot Machine Game,2023.1.3,Win32,119.047619,,,,,,,,,,,,,,,,,,,230.0159,5,1.0339,,left,1,,stimuli/card_100_transparent.png,130,100,5,0,5,0,1,,,,,,,,,,,,,,,,,,,,,,,,,,,,,,,,,,,,,,,,,,,,
,,,,5c5924c553fba80001bd7ad9,A,2024-07-02_13h11.38.300,Slot Machine Game,2023.1.3,Win32,119.047619,,,,,,,,,,,,,,,,,,,232.8817,6,1.0005,,left,1,,stimuli/card_0_transparent.png,130,0,6,0,6,0,1,,,,,,,,,,,,,,,,,,,,,,,,,,,,,,,,,,,,,,,,,,,,
,,,,5c5924c553fba80001bd7ad9,A,2024-07-02_13h11.38.300,Slot Machine Game,2023.1.3,Win32,119.047619,,,,,,,,,,,,,,,,,,,235.6994,7,0.1548,,left,1,,stimuli/card_0_transparent.png,130,0,7,0,7,0,1,,,,,,,,,,,,,,,,,,,,,,,,,,,,,,,,,,,,,,,,,,,,
,,,,5c5924c553fba80001bd7ad9,A,2024-07-02_13h11.38.300,Slot Machine Game,2023.1.3,Win32,119.047619,,,,,,,,,,,,,,,,,,,237.6992,8,0.6004,,left,1,,stimuli/card_0_transparent.png,130,0,8,0,8,0,1,,,,,,,,,,,,,,,,,,,,,,,,,,,,,,,,,,,,,,,,,,,,
,,,,5c5924c553fba80001bd7ad9,A,2024-07-02_13h11.38.300,Slot Machine Game,2023.1.3,Win32,119.047619,,,,,,,,,,,,,,,,,,,240.1326,9,0.1002,,up,1,,stimuli/card_100_transparent.png,230,100,9,0,9,0,1,,,,,,,,,,,,,,,,,,,,,,,,,,,,,,,,,,,,,,,,,,,,
,,,,5c5924c553fba80001bd7ad9,A,2024-07-02_13h11.38.300,Slot Machine Game,2023.1.3,Win32,119.047619,,,,,,,,,,,,,,,,,,,242.0654,10,0.2008,,up,0.5,,stimuli/card_10_transparent.png,240,10,10,0,10,0,1,,,,,,,,,,,,,,,,,,,,,,,,,,,,,,,,,,,,,,,,,,,,
,,,,5c5924c553fba80001bd7ad9,A,2024-07-02_13h11.38.300,Slot Machine Game,2023.1.3,Win32,119.047619,,,,,,,,,,,,,,,,,,,243.5821,11,1.55,,up,0.5,,stimuli/card_100_transparent.png,340,100,11,0,11,0,1,,,,,,,,,,,,,,,,,,,,,,,,,,,,,,,,,,,,,,,,,,,,
,,,,5c5924c553fba80001bd7ad9,A,2024-07-02_13h11.38.300,Slot Machine Game,2023.1.3,Win32,119.047619,,,,,,,,,,,,,,,,,,,246.4491,12,1.0839,,up,1.5,,stimuli/card_100_transparent.png,440,100,12,0,12,0,1,,,,,,,,,,,,,,,,,,,,,,,,,,,,,,,,,,,,,,,,,,,,
,,,,5c5924c553fba80001bd7ad9,A,2024-07-02_13h11.38.300,Slot Machine Game,2023.1.3,Win32,119.047619,,,,,,,,,,,,,,,,,,,249.8491,13,0.534,,up,1.5,,stimuli/card_10_transparent.png,450,10,13,0,13,0,1,,,,,,,,,,,,,,,,,,,,,,,,,,,,,,,,,,,,,,,,,,,,
,,,,5c5924c553fba80001bd7ad9,A,2024-07-02_13h11.38.300,Slot Machine Game,2023.1.3,Win32,119.047619,,,,,,,,,,,,,,,,,,,252.6991,14,0.4666,,up,1,,stimuli/card_100_transparent.png,550,100,14,0,14,0,1,,,,,,,,,,,,,,,,,,,,,,,,,,,,,,,,,,,,,,,,,,,,
,,,,5c5924c553fba80001bd7ad9,A,2024-07-02_13h11.38.300,Slot Machine Game,2023.1.3,Win32,119.047619,,,,,,,,,,,,,,,,,,,,,,,,,,,,,,,,,,,255.0003,,,260.0007,space,1.9834,,,,,,,,,,,,,,,,,,,,,,,,,,,,,,,,,,,,,
,,,,5c5924c553fba80001bd7ad9,A,2024-07-02_13h11.38.300,Slot Machine Game,2023.1.3,Win32,119.047619,,,,,,,,,,,,,,,,,,,,,,,,,,,,,,,,,,,,,,,,,,262.0173,3,"[0,4,6,3,5,7,8,1,9,2]",space,1.632,,,,,,,,,,,,,,,,,,,,,,,,,,,,,,,
,,,,5c5924c553fba80001bd7ad9,A,2024-07-02_13h11.38.300,Slot Machine Game,2023.1.3,Win32,119.047619,,,,,,,,,,,,,,,,,,,,,,,,,,,100,,,,,,,,,,,,,,,,,,,,,1,1,"[12,15]","[[2,1,3],[2,3,1]]",263.6916,0,up,0.6994,,1,0.3,"[2,1,3]",0.374684973,stimuli/card_100_transparent.png,100,0,0,0,0,1,,,,,,,,,,
,,,,5c5924c553fba80001bd7ad9,A,2024-07-02_13h11.38.300,Slot Machine Game,2023.1.3,Win32,119.047619,,,,,,,,,,,,,,,,,,,,,,,,,,,200,,,,,,,,,,,,,,,,,,,,,1,1,,,266.2316,1,up,0.1504,,1.5,0.3,"[2,1,3]",0.733986825,stimuli/card_100_transparent.png,100,1,0,1,0,1,,,,,,,,,,
,,,,5c5924c553fba80001bd7ad9,A,2024-07-02_13h11.38.300,Slot Machine Game,2023.1.3,Win32,119.047619,,,,,,,,,,,,,,,,,,,,,,,,,,,200,,,,,,,,,,,,,,,,,,,,,1,1,,,268.7,2,up,0.6994,,1,0.3,"[2,1,3]",0.048465757,stimuli/card_0_transparent.png,0,2,0,2,0,1,,,,,,,,,,
,,,,5c5924c553fba80001bd7ad9,A,2024-07-02_13h11.38.300,Slot Machine Game,2023.1.3,Win32,119.047619,,,,,,,,,,,,,,,,,,,,,,,,,,,210,,,,,,,,,,,,,,,,,,,,,1,1,,,271.2334,3,up,0.2344,,1.5,0.3,"[2,1,3]",0.161943418,stimuli/card_10_transparent.png,10,3,0,3,0,1,,,,,,,,,,
,,,,5c5924c553fba80001bd7ad9,A,2024-07-02_13h11.38.300,Slot Machine Game,2023.1.3,Win32,119.047619,,,,,,,,,,,,,,,,,,,,,,,,,,,310,,,,,,,,,,,,,,,,,,,,,1,1,,,273.7997,4,up,0.5675,,1,0.3,"[2,1,3]",0.497254996,stimuli/card_100_transparent.png,100,4,0,4,0,1,,,,,,,,,,
,,,,5c5924c553fba80001bd7ad9,A,2024-07-02_13h11.38.300,Slot Machine Game,2023.1.3,Win32,119.047619,,,,,,,,,,,,,,,,,,,,,,,,,,,410,,,,,,,,,,,,,,,,,,,,,1,1,,,276.1997,5,up,0.3495,,0.5,0.3,"[2,1,3]",0.678858269,stimuli/card_100_transparent.png,100,5,0,5,0,1,,,,,,,,,,
,,,,5c5924c553fba80001bd7ad9,A,2024-07-02_13h11.38.300,Slot Machine Game,2023.1.3,Win32,119.047619,,,,,,,,,,,,,,,,,,,,,,,,,,,510,,,,,,,,,,,,,,,,,,,,,1,1,,,277.85,6,up,0.1506,,0.5,0.3,"[2,1,3]",0.919965797,stimuli/card_100_transparent.png,100,6,0,6,0,1,,,,,,,,,,
,,,,5c5924c553fba80001bd7ad9,A,2024-07-02_13h11.38.300,Slot Machine Game,2023.1.3,Win32,119.047619,,,,,,,,,,,,,,,,,,,,,,,,,,,610,,,,,,,,,,,,,,,,,,,,,1,1,,,279.3336,7,up,0.0171,,0.5,0.3,"[2,1,3]",0.884823007,stimuli/card_100_transparent.png,100,7,0,7,0,1,,,,,,,,,,
,,,,5c5924c553fba80001bd7ad9,A,2024-07-02_13h11.38.300,Slot Machine Game,2023.1.3,Win32,119.047619,,,,,,,,,,,,,,,,,,,,,,,,,,,710,,,,,,,,,,,,,,,,,,,,,1,1,,,280.6663,8,up,0.1492,,0.5,0.3,"[2,1,3]",0.800338032,stimuli/card_100_transparent.png,100,8,0,8,0,1,,,,,,,,,,
,,,,5c5924c553fba80001bd7ad9,A,2024-07-02_13h11.38.300,Slot Machine Game,2023.1.3,Win32,119.047619,,,,,,,,,,,,,,,,,,,,,,,,,,,810,,,,,,,,,,,,,,,,,,,,,1,1,,,282.1505,9,up,0.1334,,1.5,0.3,"[2,1,3]",0.961626527,stimuli/card_100_transparent.png,100,9,0,9,0,1,,,,,,,,,,
,,,,5c5924c553fba80001bd7ad9,A,2024-07-02_13h11.38.300,Slot Machine Game,2023.1.3,Win32,119.047619,,,,,,,,,,,,,,,,,,,,,,,,,,,810,,,,,,,,,,,,,,,,,,,,,1,1,,,284.6173,10,up,0.6507,,1.5,0.3,"[2,1,3]",0.034284129,stimuli/card_0_transparent.png,0,10,0,10,0,1,,,,,,,,,,
,,,,5c5924c553fba80001bd7ad9,A,2024-07-02_13h11.38.300,Slot Machine Game,2023.1.3,Win32,119.047619,,,,,,,,,,,,,,,,,,,,,,,,,,,810,,,,,,,,,,,,,,,,,,,,,1,1,,,287.6165,11,right,0.4823,,1.5,0.3,"[2,1,3]",0.703400057,stimuli/card_0_transparent.png,0,11,0,11,0,1,,,,,,,,,,
,,,,5c5924c553fba80001bd7ad9,A,2024-07-02_13h11.38.300,Slot Machine Game,2023.1.3,Win32,119.047619,,,,,,,,,,,,,,,,,,,,,,,,,,,910,,,,,,,,,,,,,,,,,,,,,1,1,,,290.4174,12,right,0.1011,,0.5,0.3,"[2,3,1]",0.310185515,stimuli/card_100_transparent.png,100,12,0,12,0,1,,,,,,,,,,
,,,,5c5924c553fba80001bd7ad9,A,2024-07-02_13h11.38.300,Slot Machine Game,2023.1.3,Win32,119.047619,,,,,,,,,,,,,,,,,,,,,,,,,,,1010,,,,,,,,,,,,,,,,,,,,,1,1,,,291.8497,13,right,0.2996,,1,0.3,"[2,3,1]",0.321507764,stimuli/card_100_transparent.png,100,13,0,13,0,1,,,,,,,,,,
,,,,5c5924c553fba80001bd7ad9,A,2024-07-02_13h11.38.300,Slot Machine Game,2023.1.3,Win32,119.047619,,,,,,,,,,,,,,,,,,,,,,,,,,,1010,,,,,,,,,,,,,,,,,,,,,1,1,,,293.9507,14,right,0.2456,,0.5,0.3,"[2,3,1]",0.082338935,stimuli/card_0_transparent.png,0,14,0,14,0,1,,,,,,,,,,
,,,,5c5924c553fba80001bd7ad9,A,2024-07-02_13h11.38.300,Slot Machine Game,2023.1.3,Win32,119.047619,,,,,,,,,,,,,,,,,,,,,,,,,,,,,,,,,,,295.5067,,,,,,,,,,,,,,,,,,,,,,,,,,,,,,,,,[1010],0,0,0,0,1,,,,
,,,,5c5924c553fba80001bd7ad9,A,2024-07-02_13h11.38.300,Slot Machine Game,2023.1.3,Win32,119.047619,,,,,,,,,,,,,,,,,,,,,,,,,,,0,,,,,,,,,,,,,,,,,,,,,2,5,"[5,15]","[[1,2,3],[3,1,2]]",300.5224,0,right,1.0491,,1.5,0.3,"[1,2,3]",0.41437337,stimuli/card_0_transparent.png,0,0,0,0,0,1,,,,,,,,,,
,,,,5c5924c553fba80001bd7ad9,A,2024-07-02_13h11.38.300,Slot Machine Game,2023.1.3,Win32,119.047619,,,,,,,,,,,,,,,,,,,,,,,,,,,10,,,,,,,,,,,,,,,,,,,,,2,5,,,303.9009,1,right,0.2346,,0.5,0.3,"[1,2,3]",0.168666763,stimuli/card_10_transparent.png,10,1,0,1,0,1,,,,,,,,,,
,,,,5c5924c553fba80001bd7ad9,A,2024-07-02_13h11.38.300,Slot Machine Game,2023.1.3,Win32,119.047619,,,,,,,,,,,,,,,,,,,,,,,,,,,10,,,,,,,,,,,,,,,,,,,,,2,5,,,305.4671,2,right,0.2669,,1,0.3,"[1,2,3]",0.39874985,stimuli/card_0_transparent.png,0,2,0,2,0,1,,,,,,,,,,
,,,,5c5924c553fba80001bd7ad9,A,2024-07-02_13h11.38.300,Slot Machine Game,2023.1.3,Win32,119.047619,,,,,,,,,,,,,,,,,,,,,,,,,,,110,,,,,,,,,,,,,,,,,,,,,2,5,,,307.5338,3,left,0.0682,,1.5,0.3,"[1,2,3]",0.315875636,stimuli/card_100_transparent.png,100,3,0,3,0,1,,,,,,,,,,
,,,,5c5924c553fba80001bd7ad9,A,2024-07-02_13h11.38.300,Slot Machine Game,2023.1.3,Win32,119.047619,,,,,,,,,,,,,,,,,,,,,,,,,,,210,,,,,,,,,,,,,,,,,,,,,2,5,,,309.9176,4,left,1.1,,1,0.3,"[1,2,3]",0.595001018,stimuli/card_100_transparent.png,100,4,0,4,0,1,,,,,,,,,,
,,,,5c5924c553fba80001bd7ad9,A,2024-07-02_13h11.38.300,Slot Machine Game,2023.1.3,Win32,119.047619,,,,,,,,,,,,,,,,,,,,,,,,,,,210,,,,,,,,,,,,,,,,,,,,,2,5,,,312.8678,5,left,0.317,,1,0.3,"[3,1,2]",0.481613103,stimuli/card_0_transparent.png,0,5,0,5,0,1,,,,,,,,,,
,,,,5c5924c553fba80001bd7ad9,A,2024-07-02_13h11.38.300,Slot Machine Game,2023.1.3,Win32,119.047619,,,,,,,,,,,,,,,,,,,,,,,,,,,210,,,,,,,,,,,,,,,,,,,,,2,5,,,315.0014,6,left,0.0337,,1,0.3,"[3,1,2]",0.750292688,stimuli/card_0_transparent.png,0,6,0,6,0,1,,,,,,,,,,
,,,,5c5924c553fba80001bd7ad9,A,2024-07-02_13h11.38.300,Slot Machine Game,2023.1.3,Win32,119.047619,,,,,,,,,,,,,,,,,,,,,,,,,,,220,,,,,,,,,,,,,,,,,,,,,2,5,,,316.8679,7,left,0.4845,,0.5,0.3,"[3,1,2]",0.120482444,stimuli/card_10_transparent.png,10,7,0,7,0,1,,,,,,,,,,
,,,,5c5924c553fba80001bd7ad9,A,2024-07-02_13h11.38.300,Slot Machine Game,2023.1.3,Win32,119.047619,,,,,,,,,,,,,,,,,,,,,,,,,,,320,,,,,,,,,,,,,,,,,,,,,2,5,,,318.7005,8,up,0.5165,,1,0.3,"[3,1,2]",0.368781703,stimuli/card_100_transparent.png,100,8,0,8,0,1,,,,,,,,,,
,,,,5c5924c553fba80001bd7ad9,A,2024-07-02_13h11.38.300,Slot Machine Game,2023.1.3,Win32,119.047619,,,,,,,,,,,,,,,,,,,,,,,,,,,320,,,,,,,,,,,,,,,,,,,,,2,5,,,321.0353,9,up,0.3672,,0.5,0.3,"[3,1,2]",0.040712999,stimuli/card_0_transparent.png,0,9,0,9,0,1,,,,,,,,,,
,,,,5c5924c553fba80001bd7ad9,A,2024-07-02_13h11.38.300,Slot Machine Game,2023.1.3,Win32,119.047619,,,,,,,,,,,,,,,,,,,,,,,,,,,320,,,,,,,,,,,,,,,,,,,,,2,5,,,322.735,10,up,0.3332,,1.5,0.3,"[3,1,2]",0.00846469,stimuli/card_0_transparent.png,0,10,0,10,0,1,,,,,,,,,,
,,,,5c5924c553fba80001bd7ad9,A,2024-07-02_13h11.38.300,Slot Machine Game,2023.1.3,Win32,119.047619,,,,,,,,,,,,,,,,,,,,,,,,,,,330,,,,,,,,,,,,,,,,,,,,,2,5,,,325.4016,11,right,0.6827,,1.5,0.3,"[3,1,2]",0.9680964,stimuli/card_10_transparent.png,10,11,0,11,0,1,,,,,,,,,,
,,,,5c5924c553fba80001bd7ad9,A,2024-07-02_13h11.38.300,Slot Machine Game,2023.1.3,Win32,119.047619,,,,,,,,,,,,,,,,,,,,,,,,,,,340,,,,,,,,,,,,,,,,,,,,,2,5,,,328.4351,12,right,0.6309,,1,0.3,"[3,1,2]",0.539669857,stimuli/card_10_transparent.png,10,12,0,12,0,1,,,,,,,,,,
,,,,5c5924c553fba80001bd7ad9,A,2024-07-02_13h11.38.300,Slot Machine Game,2023.1.3,Win32,119.047619,,,,,,,,,,,,,,,,,,,,,,,,,,,340,,,,,,,,,,,,,,,,,,,,,2,5,,,330.8853,13,left,0.5174,,1.5,0.3,"[3,1,2]",0.653658379,stimuli/card_0_transparent.png,0,13,0,13,0,1,,,,,,,,,,
,,,,5c5924c553fba80001bd7ad9,A,2024-07-02_13h11.38.300,Slot Machine Game,2023.1.3,Win32,119.047619,,,,,,,,,,,,,,,,,,,,,,,,,,,340,,,,,,,,,,,,,,,,,,,,,2,5,,,333.7347,14,left,0.4472,,1,0.3,"[3,1,2]",0.899395213,stimuli/card_0_transparent.png,0,14,0,14,0,1,,,,,,,,,,
,,,,5c5924c553fba80001bd7ad9,A,2024-07-02_13h11.38.300,Slot Machine Game,2023.1.3,Win32,119.047619,,,,,,,,,,,,,,,,,,,,,,,,,,,,,,,,,,,335.985,,,,,,,,,,,,,,,,,,,,,,,,,,,,,,,,,"[1010,340]",1,0,1,0,1,,,,
,,,,5c5924c553fba80001bd7ad9,A,2024-07-02_13h11.38.300,Slot Machine Game,2023.1.3,Win32,119.047619,,,,,,,,,,,,,,,,,,,,,,,,,,,100,,,,,,,,,,,,,,,,,,,,,3,7,"[9,15]","[[1,3,2],[2,3,1]]",340.994,0,left,0.0004,,1.5,0.3,"[1,3,2]",0.437220729,stimuli/card_100_transparent.png,100,0,0,0,0,1,,,,,,,,,,
,,,,5c5924c553fba80001bd7ad9,A,2024-07-02_13h11.38.300,Slot Machine Game,2023.1.3,Win32,119.047619,,,,,,,,,,,,,,,,,,,,,,,,,,,200,,,,,,,,,,,,,,,,,,,,,3,7,,,343.3191,1,left,0.1503,,1.5,0.3,"[1,3,2]",0.901116665,stimuli/card_100_transparent.png,100,1,0,1,0,1,,,,,,,,,,
,,,,5c5924c553fba80001bd7ad9,A,2024-07-02_13h11.38.300,Slot Machine Game,2023.1.3,Win32,119.047619,,,,,,,,,,,,,,,,,,,,,,,,,,,300,,,,,,,,,,,,,,,,,,,,,3,7,,,345.7688,2,left,0.0505,,1,0.3,"[1,3,2]",0.332050927,stimuli/card_100_transparent.png,100,2,0,2,0,1,,,,,,,,,,
,,,,5c5924c553fba80001bd7ad9,A,2024-07-02_13h11.38.300,Slot Machine Game,2023.1.3,Win32,119.047619,,,,,,,,,,,,,,,,,,,,,,,,,,,400,,,,,,,,,,,,,,,,,,,,,3,7,,,347.6354,3,left,0.2008,,0.5,0.3,"[1,3,2]",0.965337684,stimuli/card_100_transparent.png,100,3,0,3,0,1,,,,,,,,,,
,,,,5c5924c553fba80001bd7ad9,A,2024-07-02_13h11.38.300,Slot Machine Game,2023.1.3,Win32,119.047619,,,,,,,,,,,,,,,,,,,,,,,,,,,500,,,,,,,,,,,,,,,,,,,,,3,7,,,349.1519,4,left,0.101,,1.5,0.3,"[1,3,2]",0.275594355,stimuli/card_100_transparent.png,100,4,0,4,0,1,,,,,,,,,,
,,,,5c5924c553fba80001bd7ad9,A,2024-07-02_13h11.38.300,Slot Machine Game,2023.1.3,Win32,119.047619,,,,,,,,,,,,,,,,,,,,,,,,,,,600,,,,,,,,,,,,,,,,,,,,,3,7,,,351.5843,5,left,0.0324,,1.5,0.3,"[1,3,2]",0.64497308,stimuli/card_100_transparent.png,100,5,0,5,0,1,,,,,,,,,,
,,,,5c5924c553fba80001bd7ad9,A,2024-07-02_13h11.38.300,Slot Machine Game,2023.1.3,Win32,119.047619,,,,,,,,,,,,,,,,,,,,,,,,,,,700,,,,,,,,,,,,,,,,,,,,,3,7,,,353.9514,6,left,0.8512,,0.5,0.3,"[1,3,2]",0.327921493,stimuli/card_100_transparent.png,100,6,0,6,0,1,,,,,,,,,,
,,,,5c5924c553fba80001bd7ad9,A,2024-07-02_13h11.38.300,Slot Machine Game,2023.1.3,Win32,119.047619,,,,,,,,,,,,,,,,,,,,,,,,,,,710,,,,,,,,,,,,,,,,,,,,,3,7,,,356.1016,7,left,0.3507,,1,0.3,"[1,3,2]",0.188367158,stimuli/card_10_transparent.png,10,7,0,7,0,1,,,,,,,,,,
,,,,5c5924c553fba80001bd7ad9,A,2024-07-02_13h11.38.300,Slot Machine Game,2023.1.3,Win32,119.047619,,,,,,,,,,,,,,,,,,,,,,,,,,,810,,,,,,,,,,,,,,,,,,,,,3,7,,,358.2855,8,left,0.3505,,0.5,0.3,"[1,3,2]",0.766018115,stimuli/card_100_transparent.png,100,8,0,8,0,1,,,,,,,,,,
,,,,5c5924c553fba80001bd7ad9,A,2024-07-02_13h11.38.300,Slot Machine Game,2023.1.3,Win32,119.047619,,,,,,,,,,,,,,,,,,,,,,,,,,,820,,,,,,,,,,,,,,,,,,,,,3,7,,,359.9682,9,left,0.4673,,1,0.3,"[2,3,1]",0.38910625,stimuli/card_10_transparent.png,10,9,0,9,0,1,,,,,,,,,,
,,,,5c5924c553fba80001bd7ad9,A,2024-07-02_13h11.38.300,Slot Machine Game,2023.1.3,Win32,119.047619,,,,,,,,,,,,,,,,,,,,,,,,,,,820,,,,,,,,,,,,,,,,,,,,,3,7,,,362.2519,10,left,0.0838,,1.5,0.3,"[2,3,1]",0.014545032,stimuli/card_0_transparent.png,0,10,0,10,0,1,,,,,,,,,,
,,,,5c5924c553fba80001bd7ad9,A,2024-07-02_13h11.38.300,Slot Machine Game,2023.1.3,Win32,119.047619,,,,,,,,,,,,,,,,,,,,,,,,,,,820,,,,,,,,,,,,,,,,,,,,,3,7,,,364.6517,11,left,0.5018,,1,0.3,"[2,3,1]",0.073980499,stimuli/card_0_transparent.png,0,11,0,11,0,1,,,,,,,,,,
,,,,5c5924c553fba80001bd7ad9,A,2024-07-02_13h11.38.300,Slot Machine Game,2023.1.3,Win32,119.047619,,,,,,,,,,,,,,,,,,,,,,,,,,,820,,,,,,,,,,,,,,,,,,,,,3,7,,,366.968,12,up,0.4343,,1,0.3,"[2,3,1]",0.515767072,stimuli/card_0_transparent.png,0,12,0,12,0,1,,,,,,,,,,
,,,,5c5924c553fba80001bd7ad9,A,2024-07-02_13h11.38.300,Slot Machine Game,2023.1.3,Win32,119.047619,,,,,,,,,,,,,,,,,,,,,,,,,,,920,,,,,,,,,,,,,,,,,,,,,3,7,,,369.202,13,right,0.2833,,1,0.3,"[2,3,1]",0.221821757,stimuli/card_100_transparent.png,100,13,0,13,0,1,,,,,,,,,,
,,,,5c5924c553fba80001bd7ad9,A,2024-07-02_13h11.38.300,Slot Machine Game,2023.1.3,Win32,119.047619,,,,,,,,,,,,,,,,,,,,,,,,,,,1020,,,,,,,,,,,,,,,,,,,,,3,7,,,371.3184,14,right,0.0972,,1,0.3,"[2,3,1]",0.344404589,stimuli/card_100_transparent.png,100,14,0,14,0,1,,,,,,,,,,
,,,,5c5924c553fba80001bd7ad9,A,2024-07-02_13h11.38.300,Slot Machine Game,2023.1.3,Win32,119.047619,,,,,,,,,,,,,,,,,,,,,,,,,,,,,,,,,,,373.2018,,,,,,,,,,,,,,,,,,,,,,,,,,,,,,,,,"[1010,340,1020]",2,0,2,0,1,,,,
,,,,5c5924c553fba80001bd7ad9,A,2024-07-02_13h11.38.300,Slot Machine Game,2023.1.3,Win32,119.047619,,,,,,,,,,,,,,,,,,,,,,,,,,,100,,,,,,,,,,,,,,,,,,,,,4,4,"[7,15]","[[2,3,1],[1,2,3]]",378.2109,0,right,0.5168,,1,0.3,"[2,3,1]",0.502353125,stimuli/card_100_transparent.png,100,0,0,0,0,1,,,,,,,,,,
,,,,5c5924c553fba80001bd7ad9,A,2024-07-02_13h11.38.300,Slot Machine Game,2023.1.3,Win32,119.047619,,,,,,,,,,,,,,,,,,,,,,,,,,,100,,,,,,,,,,,,,,,,,,,,,4,4,,,380.5517,1,right,0.2841,,1.5,0.3,"[2,3,1]",0.050550979,stimuli/card_0_transparent.png,0,1,0,1,0,1,,,,,,,,,,
,,,,5c5924c553fba80001bd7ad9,A,2024-07-02_13h11.38.300,Slot Machine Game,2023.1.3,Win32,119.047619,,,,,,,,,,,,,,,,,,,,,,,,,,,200,,,,,,,,,,,,,,,,,,,,,4,4,,,383.1525,2,right,0.6003,,0.5,0.3,"[2,3,1]",0.656158774,stimuli/card_100_transparent.png,100,2,0,2,0,1,,,,,,,,,,
,,,,5c5924c553fba80001bd7ad9,A,2024-07-02_13h11.38.300,Slot Machine Game,2023.1.3,Win32,119.047619,,,,,,,,,,,,,,,,,,,,,,,,,,,300,,,,,,,,,,,,,,,,,,,,,4,4,,,385.0861,3,right,0.4844,,1.5,0.3,"[2,3,1]",0.491202853,stimuli/card_100_transparent.png,100,3,0,3,0,1,,,,,,,,,,
,,,,5c5924c553fba80001bd7ad9,A,2024-07-02_13h11.38.300,Slot Machine Game,2023.1.3,Win32,119.047619,,,,,,,,,,,,,,,,,,,,,,,,,,,400,,,,,,,,,,,,,,,,,,,,,4,4,,,387.8884,4,right,0.117,,0.5,0.3,"[2,3,1]",0.555647112,stimuli/card_100_transparent.png,100,4,0,4,0,1,,,,,,,,,,
,,,,5c5924c553fba80001bd7ad9,A,2024-07-02_13h11.38.300,Slot Machine Game,2023.1.3,Win32,119.047619,,,,,,,,,,,,,,,,,,,,,,,,,,,500,,,,,,,,,,,,,,,,,,,,,4,4,,,389.3364,5,right,0.2663,,1.5,0.3,"[2,3,1]",0.220564655,stimuli/card_100_transparent.png,100,5,0,5,0,1,,,,,,,,,,
,,,,5c5924c553fba80001bd7ad9,A,2024-07-02_13h11.38.300,Slot Machine Game,2023.1.3,Win32,119.047619,,,,,,,,,,,,,,,,,,,,,,,,,,,600,,,,,,,,,,,,,,,,,,,,,4,4,,,391.9197,6,right,0.5472,,0.5,0.3,"[2,3,1]",0.224301354,stimuli/card_100_transparent.png,100,6,0,6,0,1,,,,,,,,,,
,,,,5c5924c553fba80001bd7ad9,A,2024-07-02_13h11.38.300,Slot Machine Game,2023.1.3,Win32,119.047619,,,,,,,,,,,,,,,,,,,,,,,,,,,600,,,,,,,,,,,,,,,,,,,,,4,4,,,393.8027,7,right,0.1474,,1.5,0.3,"[1,2,3]",0.33608039,stimuli/card_0_transparent.png,0,7,0,7,0,1,,,,,,,,,,
,,,,5c5924c553fba80001bd7ad9,A,2024-07-02_13h11.38.300,Slot Machine Game,2023.1.3,Win32,119.047619,,,,,,,,,,,,,,,,,,,,,,,,,,,600,,,,,,,,,,,,,,,,,,,,,4,4,,,396.2528,8,right,0.0344,,1.5,0.3,"[1,2,3]",0.44039378,stimuli/card_0_transparent.png,0,8,0,8,0,1,,,,,,,,,,
,,,,5c5924c553fba80001bd7ad9,A,2024-07-02_13h11.38.300,Slot Machine Game,2023.1.3,Win32,119.047619,,,,,,,,,,,,,,,,,,,,,,,,,,,610,,,,,,,,,,,,,,,,,,,,,4,4,,,398.6032,9,up,0.0336,,1,0.3,"[1,2,3]",0.600429718,stimuli/card_10_transparent.png,10,9,0,9,0,1,,,,,,,,,,
,,,,5c5924c553fba80001bd7ad9,A,2024-07-02_13h11.38.300,Slot Machine Game,2023.1.3,Win32,119.047619,,,,,,,,,,,,,,,,,,,,,,,,,,,620,,,,,,,,,,,,,,,,,,,,,4,4,,,400.4685,10,up,0.1693,,0.5,0.3,"[1,2,3]",0.893632201,stimuli/card_10_transparent.png,10,10,0,10,0,1,,,,,,,,,,
,,,,5c5924c553fba80001bd7ad9,A,2024-07-02_13h11.38.300,Slot Machine Game,2023.1.3,Win32,119.047619,,,,,,,,,,,,,,,,,,,,,,,,,,,620,,,,,,,,,,,,,,,,,,,,,4,4,,,401.9533,11,up,0.283,,1.5,0.3,"[1,2,3]",0.012664218,stimuli/card_0_transparent.png,0,11,0,11,0,1,,,,,,,,,,
,,,,5c5924c553fba80001bd7ad9,A,2024-07-02_13h11.38.300,Slot Machine Game,2023.1.3,Win32,119.047619,,,,,,,,,,,,,,,,,,,,,,,,,,,720,,,,,,,,,,,,,,,,,,,,,4,4,,,404.5615,12,left,0.297,,1,0.3,"[1,2,3]",0.683767552,stimuli/card_100_transparent.png,100,12,0,12,0,1,,,,,,,,,,
,,,,5c5924c553fba80001bd7ad9,A,2024-07-02_13h11.38.300,Slot Machine Game,2023.1.3,Win32,119.047619,,,,,,,,,,,,,,,,,,,,,,,,,,,820,,,,,,,,,,,,,,,,,,,,,4,4,,,406.67,13,left,0.1997,,0.5,0.3,"[1,2,3]",0.717998043,stimuli/card_100_transparent.png,100,13,0,13,0,1,,,,,,,,,,
,,,,5c5924c553fba80001bd7ad9,A,2024-07-02_13h11.38.300,Slot Machine Game,2023.1.3,Win32,119.047619,,,,,,,,,,,,,,,,,,,,,,,,,,,920,,,,,,,,,,,,,,,,,,,,,4,4,,,408.2034,14,left,0.2507,,1,0.3,"[1,2,3]",0.965503118,stimuli/card_100_transparent.png,100,14,0,14,0,1,,,,,,,,,,
,,,,5c5924c553fba80001bd7ad9,A,2024-07-02_13h11.38.300,Slot Machine Game,2023.1.3,Win32,119.047619,,,,,,,,,,,,,,,,,,,,,,,,,,,,,,,,,,,410.2699,,,,,,,,,,,,,,,,,,,,,,,,,,,,,,,,,"[1010,340,1020,920]",3,0,3,0,1,,,,
,,,,5c5924c553fba80001bd7ad9,A,2024-07-02_13h11.38.300,Slot Machine Game,2023.1.3,Win32,119.047619,,,,,,,,,,,,,,,,,,,,,,,,,,,10,,,,,,,,,,,,,,,,,,,,,5,6,"[4,10,15]","[[2,3,1],[1,3,2],[3,2,1]]",415.2777,0,up,0.4666,,1,0.3,"[2,3,1]",0.147518555,stimuli/card_10_transparent.png,10,0,0,0,0,1,,,,,,,,,,
,,,,5c5924c553fba80001bd7ad9,A,2024-07-02_13h11.38.300,Slot Machine Game,2023.1.3,Win32,119.047619,,,,,,,,,,,,,,,,,,,,,,,,,,,20,,,,,,,,,,,,,,,,,,,,,5,6,,,417.5701,1,up,0.517,,0.5,0.3,"[2,3,1]",0.136495137,stimuli/card_10_transparent.png,10,1,0,1,0,1,,,,,,,,,,
,,,,5c5924c553fba80001bd7ad9,A,2024-07-02_13h11.38.300,Slot Machine Game,2023.1.3,Win32,119.047619,,,,,,,,,,,,,,,,,,,,,,,,,,,20,,,,,,,,,,,,,,,,,,,,,5,6,,,419.4196,2,up,0.233,,1,0.3,"[2,3,1]",0.473166224,stimuli/card_0_transparent.png,0,2,0,2,0,1,,,,,,,,,,
,,,,5c5924c553fba80001bd7ad9,A,2024-07-02_13h11.38.300,Slot Machine Game,2023.1.3,Win32,119.047619,,,,,,,,,,,,,,,,,,,,,,,,,,,120,,,,,,,,,,,,,,,,,,,,,5,6,,,421.4705,3,right,0.3999,,1,0.3,"[2,3,1]",0.890420526,stimuli/card_100_transparent.png,100,3,0,3,0,1,,,,,,,,,,
,,,,5c5924c553fba80001bd7ad9,A,2024-07-02_13h11.38.300,Slot Machine Game,2023.1.3,Win32,119.047619,,,,,,,,,,,,,,,,,,,,,,,,,,,130,,,,,,,,,,,,,,,,,,,,,5,6,,,423.6627,4,right,0.1349,,0.5,0.3,"[1,3,2]",0.565606969,stimuli/card_10_transparent.png,10,4,0,4,0,1,,,,,,,,,,
,,,,5c5924c553fba80001bd7ad9,A,2024-07-02_13h11.38.300,Slot Machine Game,2023.1.3,Win32,119.047619,,,,,,,,,,,,,,,,,,,,,,,,,,,140,,,,,,,,,,,,,,,,,,,,,5,6,,,425.1533,5,right,0.1827,,1,0.3,"[1,3,2]",0.96634347,stimuli/card_10_transparent.png,10,5,0,5,0,1,,,,,,,,,,
,,,,5c5924c553fba80001bd7ad9,A,2024-07-02_13h11.38.300,Slot Machine Game,2023.1.3,Win32,119.047619,,,,,,,,,,,,,,,,,,,,,,,,,,,240,,,,,,,,,,,,,,,,,,,,,5,6,,,427.1372,6,left,0.4997,,1,0.3,"[1,3,2]",0.508669741,stimuli/card_100_transparent.png,100,6,0,6,0,1,,,,,,,,,,
,,,,5c5924c553fba80001bd7ad9,A,2024-07-02_13h11.38.300,Slot Machine Game,2023.1.3,Win32,119.047619,,,,,,,,,,,,,,,,,,,,,,,,,,,340,,,,,,,,,,,,,,,,,,,,,5,6,,,429.4871,7,left,0.1002,,1,0.3,"[1,3,2]",0.620314064,stimuli/card_100_transparent.png,100,7,0,7,0,1,,,,,,,,,,
,,,,5c5924c553fba80001bd7ad9,A,2024-07-02_13h11.38.300,Slot Machine Game,2023.1.3,Win32,119.047619,,,,,,,,,,,,,,,,,,,,,,,,,,,440,,,,,,,,,,,,,,,,,,,,,5,6,,,431.4198,8,left,0.3672,,0.5,0.3,"[1,3,2]",0.603546623,stimuli/card_100_transparent.png,100,8,0,8,0,1,,,,,,,,,,
,,,,5c5924c553fba80001bd7ad9,A,2024-07-02_13h11.38.300,Slot Machine Game,2023.1.3,Win32,119.047619,,,,,,,,,,,,,,,,,,,,,,,,,,,450,,,,,,,,,,,,,,,,,,,,,5,6,,,433.1044,9,left,0.0507,,0.5,0.3,"[1,3,2]",0.137446955,stimuli/card_10_transparent.png,10,9,0,9,0,1,,,,,,,,,,
,,,,5c5924c553fba80001bd7ad9,A,2024-07-02_13h11.38.300,Slot Machine Game,2023.1.3,Win32,119.047619,,,,,,,,,,,,,,,,,,,,,,,,,,,460,,,,,,,,,,,,,,,,,,,,,5,6,,,434.4876,10,left,1.767,,1,0.3,"[3,2,1]",0.169390612,stimuli/card_10_transparent.png,10,10,0,10,0,1,,,,,,,,,,
,,,,5c5924c553fba80001bd7ad9,A,2024-07-02_13h11.38.300,Slot Machine Game,2023.1.3,Win32,119.047619,,,,,,,,,,,,,,,,,,,,,,,,,,,470,,,,,,,,,,,,,,,,,,,,,5,6,,,438.0897,11,right,0.4171,,1.5,0.3,"[3,2,1]",0.153819907,stimuli/card_10_transparent.png,10,11,0,11,0,1,,,,,,,,,,
,,,,5c5924c553fba80001bd7ad9,A,2024-07-02_13h11.38.300,Slot Machine Game,2023.1.3,Win32,119.047619,,,,,,,,,,,,,,,,,,,,,,,,,,,480,,,,,,,,,,,,,,,,,,,,,5,6,,,440.8377,12,up,1.6498,,1.5,0.3,"[3,2,1]",0.53596848,stimuli/card_10_transparent.png,10,12,0,12,0,1,,,,,,,,,,
,,,,5c5924c553fba80001bd7ad9,A,2024-07-02_13h11.38.300,Slot Machine Game,2023.1.3,Win32,119.047619,,,,,,,,,,,,,,,,,,,,,,,,,,,490,,,,,,,,,,,,,,,,,,,,,5,6,,,444.8376,13,up,0.0661,,1,0.3,"[3,2,1]",0.263474903,stimuli/card_10_transparent.png,10,13,0,13,0,1,,,,,,,,,,
,,,,5c5924c553fba80001bd7ad9,A,2024-07-02_13h11.38.300,Slot Machine Game,2023.1.3,Win32,119.047619,,,,,,,,,,,,,,,,,,,,,,,,,,,590,,,,,,,,,,,,,,,,,,,,,5,6,,,446.7235,14,right,2.8521,,1.5,0.3,"[3,2,1]",0.992165805,stimuli/card_100_transparent.png,100,14,0,14,0,1,,,,,,,,,,
,,,,5c5924c553fba80001bd7ad9,A,2024-07-02_13h11.38.300,Slot Machine Game,2023.1.3,Win32,119.047619,,,,,,,,,,,,,,,,,,,,,,,,,,,,,,,,,,,451.9205,,,,,,,,,,,,,,,,,,,,,,,,,,,,,,,,,"[1010,340,1020,920,590]",4,0,4,0,1,,,,
,,,,5c5924c553fba80001bd7ad9,A,2024-07-02_13h11.38.300,Slot Machine Game,2023.1.3,Win32,119.047619,,,,,,,,,,,,,,,,,,,,,,,,,,,0,,,,,,,,,,,,,,,,,,,,,6,8,"[11,15]","[[2,1,3],[1,2,3]]",456.9289,0,right,0.6502,,1.5,0.3,"[2,1,3]",0.277515216,stimuli/card_0_transparent.png,0,0,0,0,0,1,,,,,,,,,,
,,,,5c5924c553fba80001bd7ad9,A,2024-07-02_13h11.38.300,Slot Machine Game,2023.1.3,Win32,119.047619,,,,,,,,,,,,,,,,,,,,,,,,,,,0,,,,,,,,,,,,,,,,,,,,,6,8,,,459.9048,1,right,0.166,,0.5,0.3,"[2,1,3]",0.819358298,stimuli/card_0_transparent.png,0,1,0,1,0,1,,,,,,,,,,
,,,,5c5924c553fba80001bd7ad9,A,2024-07-02_13h11.38.300,Slot Machine Game,2023.1.3,Win32,119.047619,,,,,,,,,,,,,,,,,,,,,,,,,,,100,,,,,,,,,,,,,,,,,,,,,6,8,,,461.3717,2,up,0.4337,,1,0.3,"[2,1,3]",0.786372725,stimuli/card_100_transparent.png,100,2,0,2,0,1,,,,,,,,,,
,,,,5c5924c553fba80001bd7ad9,A,2024-07-02_13h11.38.300,Slot Machine Game,2023.1.3,Win32,119.047619,,,,,,,,,,,,,,,,,,,,,,,,,,,200,,,,,,,,,,,,,,,,,,,,,6,8,,,463.6382,3,up,0.0333,,0.5,0.3,"[2,1,3]",0.202451936,stimuli/card_100_transparent.png,100,3,0,3,0,1,,,,,,,,,,
,,,,5c5924c553fba80001bd7ad9,A,2024-07-02_13h11.38.300,Slot Machine Game,2023.1.3,Win32,119.047619,,,,,,,,,,,,,,,,,,,,,,,,,,,300,,,,,,,,,,,,,,,,,,,,,6,8,,,465.0053,4,up,0.4162,,1,0.3,"[2,1,3]",0.984386958,stimuli/card_100_transparent.png,100,4,0,4,0,1,,,,,,,,,,
,,,,5c5924c553fba80001bd7ad9,A,2024-07-02_13h11.38.300,Slot Machine Game,2023.1.3,Win32,119.047619,,,,,,,,,,,,,,,,,,,,,,,,,,,400,,,,,,,,,,,,,,,,,,,,,6,8,,,467.255,5,up,0.4998,,1.5,0.3,"[2,1,3]",0.474102668,stimuli/card_100_transparent.png,100,5,0,5,0,1,,,,,,,,,,
,,,,5c5924c553fba80001bd7ad9,A,2024-07-02_13h11.38.300,Slot Machine Game,2023.1.3,Win32,119.047619,,,,,,,,,,,,,,,,,,,,,,,,,,,500,,,,,,,,,,,,,,,,,,,,,6,8,,,470.088,6,up,0.0665,,0.5,0.3,"[2,1,3]",0.789253549,stimuli/card_100_transparent.png,100,6,0,6,0,1,,,,,,,,,,
,,,,5c5924c553fba80001bd7ad9,A,2024-07-02_13h11.38.300,Slot Machine Game,2023.1.3,Win32,119.047619,,,,,,,,,,,,,,,,,,,,,,,,,,,600,,,,,,,,,,,,,,,,,,,,,6,8,,,471.4712,7,up,0.7169,,1.5,0.3,"[2,1,3]",0.600626531,stimuli/card_100_transparent.png,100,7,0,7,0,1,,,,,,,,,,
,,,,5c5924c553fba80001bd7ad9,A,2024-07-02_13h11.38.300,Slot Machine Game,2023.1.3,Win32,119.047619,,,,,,,,,,,,,,,,,,,,,,,,,,,700,,,,,,,,,,,,,,,,,,,,,6,8,,,474.5034,8,up,2.5334,,1,0.3,"[2,1,3]",0.625589454,stimuli/card_100_transparent.png,100,8,0,8,0,1,,,,,,,,,,
,,,,5c5924c553fba80001bd7ad9,A,2024-07-02_13h11.38.300,Slot Machine Game,2023.1.3,Win32,119.047619,,,,,,,,,,,,,,,,,,,,,,,,,,,710,,,,,,,,,,,,,,,,,,,,,6,8,,,478.8401,9,up,0.8495,,1,0.3,"[2,1,3]",0.148084038,stimuli/card_10_transparent.png,10,9,0,9,0,1,,,,,,,,,,
,,,,5c5924c553fba80001bd7ad9,A,2024-07-02_13h11.38.300,Slot Machine Game,2023.1.3,Win32,119.047619,,,,,,,,,,,,,,,,,,,,,,,,,,,720,,,,,,,,,,,,,,,,,,,,,6,8,,,481.5053,10,left,0.3169,,1.5,0.3,"[2,1,3]",0.286294558,stimuli/card_10_transparent.png,10,10,0,10,0,1,,,,,,,,,,
,,,,5c5924c553fba80001bd7ad9,A,2024-07-02_13h11.38.300,Slot Machine Game,2023.1.3,Win32,119.047619,,,,,,,,,,,,,,,,,,,,,,,,,,,820,,,,,,,,,,,,,,,,,,,,,6,8,,,484.1382,11,left,0.3842,,1,0.3,"[1,2,3]",0.641348673,stimuli/card_100_transparent.png,100,11,0,11,0,1,,,,,,,,,,
,,,,5c5924c553fba80001bd7ad9,A,2024-07-02_13h11.38.300,Slot Machine Game,2023.1.3,Win32,119.047619,,,,,,,,,,,,,,,,,,,,,,,,,,,830,,,,,,,,,,,,,,,,,,,,,6,8,,,486.3548,12,left,0.1,,1.5,0.3,"[1,2,3]",0.138806005,stimuli/card_10_transparent.png,10,12,0,12,0,1,,,,,,,,,,
,,,,5c5924c553fba80001bd7ad9,A,2024-07-02_13h11.38.300,Slot Machine Game,2023.1.3,Win32,119.047619,,,,,,,,,,,,,,,,,,,,,,,,,,,930,,,,,,,,,,,,,,,,,,,,,6,8,,,488.7719,13,left,2.9672,,0.5,0.3,"[1,2,3]",0.561525416,stimuli/card_100_transparent.png,100,13,0,13,0,1,,,,,,,,,,
,,,,5c5924c553fba80001bd7ad9,A,2024-07-02_13h11.38.300,Slot Machine Game,2023.1.3,Win32,119.047619,,,,,,,,,,,,,,,,,,,,,,,,,,,940,,,,,,,,,,,,,,,,,,,,,6,8,,,493.056,14,left,0.3504,,1.5,0.3,"[1,2,3]",0.14439349,stimuli/card_10_transparent.png,10,14,0,14,0,1,,,,,,,,,,
,,,,5c5924c553fba80001bd7ad9,A,2024-07-02_13h11.38.300,Slot Machine Game,2023.1.3,Win32,119.047619,,,,,,,,,,,,,,,,,,,,,,,,,,,,,,,,,,,495.7089,,,,,,,,,,,,,,,,,,,,,,,,,,,,,,,,,"[1010,340,1020,920,590,940]",5,0,5,0,1,,,,
,,,,5c5924c553fba80001bd7ad9,A,2024-07-02_13h11.38.300,Slot Machine Game,2023.1.3,Win32,119.047619,,,,,,,,,,,,,,,,,,,,,,,,,,,10,,,,,,,,,,,,,,,,,,,,,7,9,"[8,15]","[[3,2,1],[3,1,2]]",500.7138,0,up,0.3497,,1.5,0.3,"[3,2,1]",0.91362394,stimuli/card_10_transparent.png,10,0,0,0,0,1,,,,,,,,,,
,,,,5c5924c553fba80001bd7ad9,A,2024-07-02_13h11.38.300,Slot Machine Game,2023.1.3,Win32,119.047619,,,,,,,,,,,,,,,,,,,,,,,,,,,20,,,,,,,,,,,,,,,,,,,,,7,9,,,503.4061,1,up,0.0337,,1,0.3,"[3,2,1]",0.664329539,stimuli/card_10_transparent.png,10,1,0,1,0,1,,,,,,,,,,
,,,,5c5924c553fba80001bd7ad9,A,2024-07-02_13h11.38.300,Slot Machine Game,2023.1.3,Win32,119.047619,,,,,,,,,,,,,,,,,,,,,,,,,,,120,,,,,,,,,,,,,,,,,,,,,7,9,,,505.2728,2,right,2.9836,,1.5,0.3,"[3,2,1]",0.589735984,stimuli/card_100_transparent.png,100,2,0,2,0,1,,,,,,,,,,
,,,,5c5924c553fba80001bd7ad9,A,2024-07-02_13h11.38.300,Slot Machine Game,2023.1.3,Win32,119.047619,,,,,,,,,,,,,,,,,,,,,,,,,,,220,,,,,,,,,,,,,,,,,,,,,7,9,,,510.5729,3,right,2.3839,,1,0.3,"[3,2,1]",0.317447735,stimuli/card_100_transparent.png,100,3,0,3,0,1,,,,,,,,,,
,,,,5c5924c553fba80001bd7ad9,A,2024-07-02_13h11.38.300,Slot Machine Game,2023.1.3,Win32,119.047619,,,,,,,,,,,,,,,,,,,,,,,,,,,320,,,,,,,,,,,,,,,,,,,,,7,9,,,514.8064,4,right,0.4172,,1.5,0.3,"[3,2,1]",0.746878982,stimuli/card_100_transparent.png,100,4,0,4,0,1,,,,,,,,,,
,,,,5c5924c553fba80001bd7ad9,A,2024-07-02_13h11.38.300,Slot Machine Game,2023.1.3,Win32,119.047619,,,,,,,,,,,,,,,,,,,,,,,,,,,420,,,,,,,,,,,,,,,,,,,,,7,9,,,517.5723,5,right,0.3841,,0.5,0.3,"[3,2,1]",0.859977025,stimuli/card_100_transparent.png,100,5,0,5,0,1,,,,,,,,,,
,,,,5c5924c553fba80001bd7ad9,A,2024-07-02_13h11.38.300,Slot Machine Game,2023.1.3,Win32,119.047619,,,,,,,,,,,,,,,,,,,,,,,,,,,520,,,,,,,,,,,,,,,,,,,,,7,9,,,519.2735,6,right,0.3164,,1.5,0.3,"[3,2,1]",0.519028367,stimuli/card_100_transparent.png,100,6,0,6,0,1,,,,,,,,,,
,,,,5c5924c553fba80001bd7ad9,A,2024-07-02_13h11.38.300,Slot Machine Game,2023.1.3,Win32,119.047619,,,,,,,,,,,,,,,,,,,,,,,,,,,520,,,,,,,,,,,,,,,,,,,,,7,9,,,521.9401,7,right,2.7002,,1,0.3,"[3,2,1]",0.06161087,stimuli/card_0_transparent.png,0,7,0,7,0,1,,,,,,,,,,
,,,,5c5924c553fba80001bd7ad9,A,2024-07-02_13h11.38.300,Slot Machine Game,2023.1.3,Win32,119.047619,,,,,,,,,,,,,,,,,,,,,,,,,,,520,,,,,,,,,,,,,,,,,,,,,7,9,,,526.4734,8,left,0.0501,,1.5,0.3,"[3,1,2]",0.590256486,stimuli/card_0_transparent.png,0,8,0,8,0,1,,,,,,,,,,
,,,,5c5924c553fba80001bd7ad9,A,2024-07-02_13h11.38.300,Slot Machine Game,2023.1.3,Win32,119.047619,,,,,,,,,,,,,,,,,,,,,,,,,,,620,,,,,,,,,,,,,,,,,,,,,7,9,,,528.84,9,left,1.2169,,0.5,0.3,"[3,1,2]",0.076724008,stimuli/card_100_transparent.png,100,9,0,9,0,1,,,,,,,,,,
,,,,5c5924c553fba80001bd7ad9,A,2024-07-02_13h11.38.300,Slot Machine Game,2023.1.3,Win32,119.047619,,,,,,,,,,,,,,,,,,,,,,,,,,,720,,,,,,,,,,,,,,,,,,,,,7,9,,,531.39,10,left,0.735,,1.5,0.3,"[3,1,2]",0.042583206,stimuli/card_100_transparent.png,100,10,0,10,0,1,,,,,,,,,,
,,,,5c5924c553fba80001bd7ad9,A,2024-07-02_13h11.38.300,Slot Machine Game,2023.1.3,Win32,119.047619,,,,,,,,,,,,,,,,,,,,,,,,,,,820,,,,,,,,,,,,,,,,,,,,,7,9,,,534.4904,11,left,0.1004,,1,0.3,"[3,1,2]",0.024429504,stimuli/card_100_transparent.png,100,11,0,11,0,1,,,,,,,,,,
,,,,5c5924c553fba80001bd7ad9,A,2024-07-02_13h11.38.300,Slot Machine Game,2023.1.3,Win32,119.047619,,,,,,,,,,,,,,,,,,,,,,,,,,,820,,,,,,,,,,,,,,,,,,,,,7,9,,,536.4062,12,left,0.0663,,1,0.3,"[3,1,2]",0.952742853,stimuli/card_0_transparent.png,0,12,0,12,0,1,,,,,,,,,,
,,,,5c5924c553fba80001bd7ad9,A,2024-07-02_13h11.38.300,Slot Machine Game,2023.1.3,Win32,119.047619,,,,,,,,,,,,,,,,,,,,,,,,,,,820,,,,,,,,,,,,,,,,,,,,,7,9,,,538.2907,13,left,0.3667,,0.5,0.3,"[3,1,2]",0.586019064,stimuli/card_0_transparent.png,0,13,0,13,0,1,,,,,,,,,,
,,,,5c5924c553fba80001bd7ad9,A,2024-07-02_13h11.38.300,Slot Machine Game,2023.1.3,Win32,119.047619,,,,,,,,,,,,,,,,,,,,,,,,,,,920,,,,,,,,,,,,,,,,,,,,,7,9,,,539.9899,14,up,1.0498,,1,0.3,"[3,1,2]",0.403700034,stimuli/card_100_transparent.png,100,14,0,14,0,1,,,,,,,,,,
,,,,5c5924c553fba80001bd7ad9,A,2024-07-02_13h11.38.300,Slot Machine Game,2023.1.3,Win32,119.047619,,,,,,,,,,,,,,,,,,,,,,,,,,,,,,,,,,,542.8735,,,,,,,,,,,,,,,,,,,,,,,,,,,,,,,,,"[1010,340,1020,920,590,940,920]",6,0,6,0,1,,,,
,,,,5c5924c553fba80001bd7ad9,A,2024-07-02_13h11.38.300,Slot Machine Game,2023.1.3,Win32,119.047619,,,,,,,,,,,,,,,,,,,,,,,,,,,100,,,,,,,,,,,,,,,,,,,,,8,2,"[6,15]","[[1,3,2],[3,2,1]]",547.8815,0,up,0.0502,,1.5,0.3,"[1,3,2]",0.07429908,stimuli/card_100_transparent.png,100,0,0,0,0,1,,,,,,,,,,
,,,,5c5924c553fba80001bd7ad9,A,2024-07-02_13h11.38.300,Slot Machine Game,2023.1.3,Win32,119.047619,,,,,,,,,,,,,,,,,,,,,,,,,,,100,,,,,,,,,,,,,,,,,,,,,8,2,,,550.2574,1,up,0.033,,1.5,0.3,"[1,3,2]",0.591353816,stimuli/card_0_transparent.png,0,1,0,1,0,1,,,,,,,,,,
,,,,5c5924c553fba80001bd7ad9,A,2024-07-02_13h11.38.300,Slot Machine Game,2023.1.3,Win32,119.047619,,,,,,,,,,,,,,,,,,,,,,,,,,,100,,,,,,,,,,,,,,,,,,,,,8,2,,,552.6403,2,up,0.517,,1,0.3,"[1,3,2]",0.263016785,stimuli/card_0_transparent.png,0,2,0,2,0,1,,,,,,,,,,
,,,,5c5924c553fba80001bd7ad9,A,2024-07-02_13h11.38.300,Slot Machine Game,2023.1.3,Win32,119.047619,,,,,,,,,,,,,,,,,,,,,,,,,,,100,,,,,,,,,,,,,,,,,,,,,8,2,,,554.974,3,right,2.8994,,0.5,0.3,"[1,3,2]",0.048226651,stimuli/card_0_transparent.png,0,3,0,3,0,1,,,,,,,,,,
,,,,5c5924c553fba80001bd7ad9,A,2024-07-02_13h11.38.300,Slot Machine Game,2023.1.3,Win32,119.047619,,,,,,,,,,,,,,,,,,,,,,,,,,,110,,,,,,,,,,,,,,,,,,,,,8,2,,,559.2077,4,right,0.2168,,1.5,0.3,"[1,3,2]",0.996385829,stimuli/card_10_transparent.png,10,4,0,4,0,1,,,,,,,,,,
,,,,5c5924c553fba80001bd7ad9,A,2024-07-02_13h11.38.300,Slot Machine Game,2023.1.3,Win32,119.047619,,,,,,,,,,,,,,,,,,,,,,,,,,,120,,,,,,,,,,,,,,,,,,,,,8,2,,,561.7578,5,right,0.0964,,0.5,0.3,"[1,3,2]",0.3506381,stimuli/card_10_transparent.png,10,5,0,5,0,1,,,,,,,,,,
,,,,5c5924c553fba80001bd7ad9,A,2024-07-02_13h11.38.300,Slot Machine Game,2023.1.3,Win32,119.047619,,,,,,,,,,,,,,,,,,,,,,,,,,,120,,,,,,,,,,,,,,,,,,,,,8,2,,,563.1573,6,left,0.0174,,0.5,0.3,"[3,2,1]",0.276859659,stimuli/card_0_transparent.png,0,6,0,6,0,1,,,,,,,,,,
,,,,5c5924c553fba80001bd7ad9,A,2024-07-02_13h11.38.300,Slot Machine Game,2023.1.3,Win32,119.047619,,,,,,,,,,,,,,,,,,,,,,,,,,,130,,,,,,,,,,,,,,,,,,,,,8,2,,,564.4913,7,up,0.2339,,0.5,0.3,"[3,2,1]",0.442046777,stimuli/card_10_transparent.png,10,7,0,7,0,1,,,,,,,,,,
,,,,5c5924c553fba80001bd7ad9,A,2024-07-02_13h11.38.300,Slot Machine Game,2023.1.3,Win32,119.047619,,,,,,,,,,,,,,,,,,,,,,,,,,,130,,,,,,,,,,,,,,,,,,,,,8,2,,,566.058,8,up,0.0662,,1.5,0.3,"[3,2,1]",0.034822325,stimuli/card_0_transparent.png,0,8,0,8,0,1,,,,,,,,,,
,,,,5c5924c553fba80001bd7ad9,A,2024-07-02_13h11.38.300,Slot Machine Game,2023.1.3,Win32,119.047619,,,,,,,,,,,,,,,,,,,,,,,,,,,130,,,,,,,,,,,,,,,,,,,,,8,2,,,568.4412,9,left,2.2677,,1,0.3,"[3,2,1]",0.856860247,stimuli/card_0_transparent.png,0,9,0,9,0,1,,,,,,,,,,
,,,,5c5924c553fba80001bd7ad9,A,2024-07-02_13h11.38.300,Slot Machine Game,2023.1.3,Win32,119.047619,,,,,,,,,,,,,,,,,,,,,,,,,,,130,,,,,,,,,,,,,,,,,,,,,8,2,,,572.5447,10,left,0.1504,,1.5,0.3,"[3,2,1]",0.726616583,stimuli/card_0_transparent.png,0,10,0,10,0,1,,,,,,,,,,
,,,,5c5924c553fba80001bd7ad9,A,2024-07-02_13h11.38.300,Slot Machine Game,2023.1.3,Win32,119.047619,,,,,,,,,,,,,,,,,,,,,,,,,,,230,,,,,,,,,,,,,,,,,,,,,8,2,,,575.0242,11,right,0.1836,,0.5,0.3,"[3,2,1]",0.543641388,stimuli/card_100_transparent.png,100,11,0,11,0,1,,,,,,,,,,
,,,,5c5924c553fba80001bd7ad9,A,2024-07-02_13h11.38.300,Slot Machine Game,2023.1.3,Win32,119.047619,,,,,,,,,,,,,,,,,,,,,,,,,,,330,,,,,,,,,,,,,,,,,,,,,8,2,,,576.528,12,right,0.2497,,1,0.3,"[3,2,1]",0.862733573,stimuli/card_100_transparent.png,100,12,0,12,0,1,,,,,,,,,,
,,,,5c5924c553fba80001bd7ad9,A,2024-07-02_13h11.38.300,Slot Machine Game,2023.1.3,Win32,119.047619,,,,,,,,,,,,,,,,,,,,,,,,,,,430,,,,,,,,,,,,,,,,,,,,,8,2,,,578.607,13,right,0.0004,,1,0.3,"[3,2,1]",0.267177248,stimuli/card_100_transparent.png,100,13,0,13,0,1,,,,,,,,,,
,,,,5c5924c553fba80001bd7ad9,A,2024-07-02_13h11.38.300,Slot Machine Game,2023.1.3,Win32,119.047619,,,,,,,,,,,,,,,,,,,,,,,,,,,530,,,,,,,,,,,,,,,,,,,,,8,2,,,580.4279,14,right,0.4824,,1,0.3,"[3,2,1]",0.437113219,stimuli/card_100_transparent.png,100,14,0,14,0,1,,,,,,,,,,
,,,,5c5924c553fba80001bd7ad9,A,2024-07-02_13h11.38.300,Slot Machine Game,2023.1.3,Win32,119.047619,,,,,,,,,,,,,,,,,,,,,,,,,,,,,,,,,,,582.7416,,,,,,,,,,,,,,,,,,,,,,,,,,,,,,,,,"[1010,340,1020,920,590,940,920,530]",7,0,7,0,1,,,,
,,,,5c5924c553fba80001bd7ad9,A,2024-07-02_13h11.38.300,Slot Machine Game,2023.1.3,Win32,119.047619,,,,,,,,,,,,,,,,,,,,,,,,,,,100,,,,,,,,,,,,,,,,,,,,,9,10,"[10,15]","[[3,1,2],[1,3,2]]",587.7618,0,up,0.4351,,0.5,0.3,"[3,1,2]",0.741978954,stimuli/card_100_transparent.png,100,0,0,0,0,1,,,,,,,,,,
,,,,5c5924c553fba80001bd7ad9,A,2024-07-02_13h11.38.300,Slot Machine Game,2023.1.3,Win32,119.047619,,,,,,,,,,,,,,,,,,,,,,,,,,,200,,,,,,,,,,,,,,,,,,,,,9,10,,,589.5416,1,up,0.4804,,1.5,0.3,"[3,1,2]",0.44193034,stimuli/card_100_transparent.png,100,1,0,1,0,1,,,,,,,,,,
,,,,5c5924c553fba80001bd7ad9,A,2024-07-02_13h11.38.300,Slot Machine Game,2023.1.3,Win32,119.047619,,,,,,,,,,,,,,,,,,,,,,,,,,,300,,,,,,,,,,,,,,,,,,,,,9,10,,,592.3287,2,up,0.3,,1.5,0.3,"[3,1,2]",0.866106185,stimuli/card_100_transparent.png,100,2,0,2,0,1,,,,,,,,,,
,,,,5c5924c553fba80001bd7ad9,A,2024-07-02_13h11.38.300,Slot Machine Game,2023.1.3,Win32,119.047619,,,,,,,,,,,,,,,,,,,,,,,,,,,310,,,,,,,,,,,,,,,,,,,,,9,10,,,594.9588,3,up,0.6514,,1.5,0.3,"[3,1,2]",0.170252205,stimuli/card_10_transparent.png,10,3,0,3,0,1,,,,,,,,,,
,,,,5c5924c553fba80001bd7ad9,A,2024-07-02_13h11.38.300,Slot Machine Game,2023.1.3,Win32,119.047619,,,,,,,,,,,,,,,,,,,,,,,,,,,410,,,,,,,,,,,,,,,,,,,,,9,10,,,597.9588,4,up,0.1668,,1.5,0.3,"[3,1,2]",0.87613238,stimuli/card_100_transparent.png,100,4,0,4,0,1,,,,,,,,,,
,,,,5c5924c553fba80001bd7ad9,A,2024-07-02_13h11.38.300,Slot Machine Game,2023.1.3,Win32,119.047619,,,,,,,,,,,,,,,,,,,,,,,,,,,510,,,,,,,,,,,,,,,,,,,,,9,10,,,600.4575,5,up,0.0839,,1.5,0.3,"[3,1,2]",0.667137831,stimuli/card_100_transparent.png,100,5,0,5,0,1,,,,,,,,,,
,,,,5c5924c553fba80001bd7ad9,A,2024-07-02_13h11.38.300,Slot Machine Game,2023.1.3,Win32,119.047619,,,,,,,,,,,,,,,,,,,,,,,,,,,610,,,,,,,,,,,,,,,,,,,,,9,10,,,602.8756,6,up,0.0004,,0.5,0.3,"[3,1,2]",0.857449667,stimuli/card_100_transparent.png,100,6,0,6,0,1,,,,,,,,,,
,,,,5c5924c553fba80001bd7ad9,A,2024-07-02_13h11.38.300,Slot Machine Game,2023.1.3,Win32,119.047619,,,,,,,,,,,,,,,,,,,,,,,,,,,710,,,,,,,,,,,,,,,,,,,,,9,10,,,604.2085,7,up,0.1994,,1,0.3,"[3,1,2]",0.924508162,stimuli/card_100_transparent.png,100,7,0,7,0,1,,,,,,,,,,
,,,,5c5924c553fba80001bd7ad9,A,2024-07-02_13h11.38.300,Slot Machine Game,2023.1.3,Win32,119.047619,,,,,,,,,,,,,,,,,,,,,,,,,,,810,,,,,,,,,,,,,,,,,,,,,9,10,,,606.2259,8,up,0.4667,,1.5,0.3,"[3,1,2]",0.87928316,stimuli/card_100_transparent.png,100,8,0,8,0,1,,,,,,,,,,
,,,,5c5924c553fba80001bd7ad9,A,2024-07-02_13h11.38.300,Slot Machine Game,2023.1.3,Win32,119.047619,,,,,,,,,,,,,,,,,,,,,,,,,,,810,,,,,,,,,,,,,,,,,,,,,9,10,,,609.009,9,up,0.0172,,1,0.3,"[3,1,2]",0.071836814,stimuli/card_0_transparent.png,0,9,0,9,0,1,,,,,,,,,,
,,,,5c5924c553fba80001bd7ad9,A,2024-07-02_13h11.38.300,Slot Machine Game,2023.1.3,Win32,119.047619,,,,,,,,,,,,,,,,,,,,,,,,,,,820,,,,,,,,,,,,,,,,,,,,,9,10,,,610.8256,10,right,1.5005,,1,0.3,"[1,3,2]",0.220239967,stimuli/card_10_transparent.png,10,10,0,10,0,1,,,,,,,,,,
,,,,5c5924c553fba80001bd7ad9,A,2024-07-02_13h11.38.300,Slot Machine Game,2023.1.3,Win32,119.047619,,,,,,,,,,,,,,,,,,,,,,,,,,,830,,,,,,,,,,,,,,,,,,,,,9,10,,,614.1594,11,right,0.1661,,1,0.3,"[1,3,2]",0.882564939,stimuli/card_10_transparent.png,10,11,0,11,0,1,,,,,,,,,,
,,,,5c5924c553fba80001bd7ad9,A,2024-07-02_13h11.38.300,Slot Machine Game,2023.1.3,Win32,119.047619,,,,,,,,,,,,,,,,,,,,,,,,,,,930,,,,,,,,,,,,,,,,,,,,,9,10,,,616.1759,12,left,0.4509,,0.5,0.3,"[1,3,2]",0.349236483,stimuli/card_100_transparent.png,100,12,0,12,0,1,,,,,,,,,,
,,,,5c5924c553fba80001bd7ad9,A,2024-07-02_13h11.38.300,Slot Machine Game,2023.1.3,Win32,119.047619,,,,,,,,,,,,,,,,,,,,,,,,,,,1030,,,,,,,,,,,,,,,,,,,,,9,10,,,617.9593,13,left,0.4164,,1,0.3,"[1,3,2]",0.393052613,stimuli/card_100_transparent.png,100,13,0,13,0,1,,,,,,,,,,
,,,,5c5924c553fba80001bd7ad9,A,2024-07-02_13h11.38.300,Slot Machine Game,2023.1.3,Win32,119.047619,,,,,,,,,,,,,,,,,,,,,,,,,,,1130,,,,,,,,,,,,,,,,,,,,,9,10,,,620.1966,14,left,0.1832,,1,0.3,"[1,3,2]",0.488330184,stimuli/card_100_transparent.png,100,14,0,14,0,1,,,,,,,,,,
,,,,5c5924c553fba80001bd7ad9,A,2024-07-02_13h11.38.300,Slot Machine Game,2023.1.3,Win32,119.047619,,,,,,,,,,,,,,,,,,,,,,,,,,,,,,,,,,,622.2262,,,,,,,,,,,,,,,,,,,,,,,,,,,,,,,,,"[1010,340,1020,920,590,940,920,530,1130]",8,0,8,0,1,,,,
,,,,5c5924c553fba80001bd7ad9,A,2024-07-02_13h11.38.300,Slot Machine Game,2023.1.3,Win32,119.047619,,,,,,,,,,,,,,,,,,,,,,,,,,,100,,,,,,,,,,,,,,,,,,,,,10,3,"[15,15]","[[3,1,2],[3,1,2]]",627.2333,0,up,0.1333,,1.5,0.3,"[3,1,2]",0.720245499,stimuli/card_100_transparent.png,100,0,0,0,0,1,,,,,,,,,,
,,,,5c5924c553fba80001bd7ad9,A,2024-07-02_13h11.38.300,Slot Machine Game,2023.1.3,Win32,119.047619,,,,,,,,,,,,,,,,,,,,,,,,,,,200,,,,,,,,,,,,,,,,,,,,,10,3,,,629.7094,1,up,0.1833,,1.5,0.3,"[3,1,2]",0.581331119,stimuli/card_100_transparent.png,100,1,0,1,0,1,,,,,,,,,,
,,,,5c5924c553fba80001bd7ad9,A,2024-07-02_13h11.38.300,Slot Machine Game,2023.1.3,Win32,119.047619,,,,,,,,,,,,,,,,,,,,,,,,,,,300,,,,,,,,,,,,,,,,,,,,,10,3,,,632.227,2,up,0.4852,,0.5,0.3,"[3,1,2]",0.293761248,stimuli/card_100_transparent.png,100,2,0,2,0,1,,,,,,,,,,
,,,,5c5924c553fba80001bd7ad9,A,2024-07-02_13h11.38.300,Slot Machine Game,2023.1.3,Win32,119.047619,,,,,,,,,,,,,,,,,,,,,,,,,,,400,,,,,,,,,,,,,,,,,,,,,10,3,,,634.0764,3,up,0.2827,,0.5,0.3,"[3,1,2]",0.42930987,stimuli/card_100_transparent.png,100,3,0,3,0,1,,,,,,,,,,
,,,,5c5924c553fba80001bd7ad9,A,2024-07-02_13h11.38.300,Slot Machine Game,2023.1.3,Win32,119.047619,,,,,,,,,,,,,,,,,,,,,,,,,,,500,,,,,,,,,,,,,,,,,,,,,10,3,,,635.7095,4,up,0.1821,,0.5,0.3,"[3,1,2]",0.207389156,stimuli/card_100_transparent.png,100,4,0,4,0,1,,,,,,,,,,
,,,,5c5924c553fba80001bd7ad9,A,2024-07-02_13h11.38.300,Slot Machine Game,2023.1.3,Win32,119.047619,,,,,,,,,,,,,,,,,,,,,,,,,,,600,,,,,,,,,,,,,,,,,,,,,10,3,,,637.2098,5,up,0.1484,,1,0.3,"[3,1,2]",0.821187413,stimuli/card_100_transparent.png,100,5,0,5,0,1,,,,,,,,,,
,,,,5c5924c553fba80001bd7ad9,A,2024-07-02_13h11.38.300,Slot Machine Game,2023.1.3,Win32,119.047619,,,,,,,,,,,,,,,,,,,,,,,,,,,700,,,,,,,,,,,,,,,,,,,,,10,3,,,639.1919,6,up,0.1001,,0.5,0.3,"[3,1,2]",0.950088401,stimuli/card_100_transparent.png,100,6,0,6,0,1,,,,,,,,,,
,,,,5c5924c553fba80001bd7ad9,A,2024-07-02_13h11.38.300,Slot Machine Game,2023.1.3,Win32,119.047619,,,,,,,,,,,,,,,,,,,,,,,,,,,800,,,,,,,,,,,,,,,,,,,,,10,3,,,640.6107,7,up,0.2003,,0.5,0.3,"[3,1,2]",0.970461053,stimuli/card_100_transparent.png,100,7,0,7,0,1,,,,,,,,,,
,,,,5c5924c553fba80001bd7ad9,A,2024-07-02_13h11.38.300,Slot Machine Game,2023.1.3,Win32,119.047619,,,,,,,,,,,,,,,,,,,,,,,,,,,900,,,,,,,,,,,,,,,,,,,,,10,3,,,642.1433,8,up,0.1169,,1.5,0.3,"[3,1,2]",0.254389342,stimuli/card_100_transparent.png,100,8,0,8,0,1,,,,,,,,,,
,,,,5c5924c553fba80001bd7ad9,A,2024-07-02_13h11.38.300,Slot Machine Game,2023.1.3,Win32,119.047619,,,,,,,,,,,,,,,,,,,,,,,,,,,1000,,,,,,,,,,,,,,,,,,,,,10,3,,,644.6088,9,up,2.5001,,1,0.3,"[3,1,2]",0.906414969,stimuli/card_100_transparent.png,100,9,0,9,0,1,,,,,,,,,,
,,,,5c5924c553fba80001bd7ad9,A,2024-07-02_13h11.38.300,Slot Machine Game,2023.1.3,Win32,119.047619,,,,,,,,,,,,,,,,,,,,,,,,,,,1100,,,,,,,,,,,,,,,,,,,,,10,3,,,648.9434,10,up,0.1503,,1,0.3,"[3,1,2]",0.928418084,stimuli/card_100_transparent.png,100,10,0,10,0,1,,,,,,,,,,
,,,,5c5924c553fba80001bd7ad9,A,2024-07-02_13h11.38.300,Slot Machine Game,2023.1.3,Win32,119.047619,,,,,,,,,,,,,,,,,,,,,,,,,,,1110,,,,,,,,,,,,,,,,,,,,,10,3,,,650.9266,11,up,0.0169,,1.5,0.3,"[3,1,2]",0.18881991,stimuli/card_10_transparent.png,10,11,0,11,0,1,,,,,,,,,,
,,,,5c5924c553fba80001bd7ad9,A,2024-07-02_13h11.38.300,Slot Machine Game,2023.1.3,Win32,119.047619,,,,,,,,,,,,,,,,,,,,,,,,,,,1210,,,,,,,,,,,,,,,,,,,,,10,3,,,653.3106,12,up,0.0005,,0.5,0.3,"[3,1,2]",0.967166371,stimuli/card_100_transparent.png,100,12,0,12,0,1,,,,,,,,,,
,,,,5c5924c553fba80001bd7ad9,A,2024-07-02_13h11.38.300,Slot Machine Game,2023.1.3,Win32,119.047619,,,,,,,,,,,,,,,,,,,,,,,,,,,1310,,,,,,,,,,,,,,,,,,,,,10,3,,,654.6435,13,up,2.9,,1,0.3,"[3,1,2]",0.72621451,stimuli/card_100_transparent.png,100,13,0,13,0,1,,,,,,,,,,
,,,,5c5924c553fba80001bd7ad9,A,2024-07-02_13h11.38.300,Slot Machine Game,2023.1.3,Win32,119.047619,,,,,,,,,,,,,,,,,,,,,,,,,,,1410,,,,,,,,,,,,,,,,,,,,,10,3,,,659.3771,14,up,0.5473,,1,0.3,"[3,1,2]",0.441620063,stimuli/card_100_transparent.png,100,14,0,14,0,1,,,,,,,,,,
,,,,5c5924c553fba80001bd7ad9,A,2024-07-02_13h11.38.300,Slot Machine Game,2023.1.3,Win32,119.047619,,,,,,,,,,,,,,,,,,,,,,,,,,,,,,,,,,,661.7603,,,,,,,,,,,,,,,,,,,,,,,,,,,,,,,,,"[1010,340,1020,920,590,940,920,530,1130,1410]",9,0,9,0,1,,,,
,,,,5c5924c553fba80001bd7ad9,A,2024-07-02_13h11.38.300,Slot Machine Game,2023.1.3,Win32,119.047619,,,,,,,,,,,,,,,,,,,,,,,,,,,,,,,,,,,,,,,,,,,,,,,,,,,,,,,,,,,,,,,,,,,,,,,,,,9,"[1010,340,1020,920,590,940,920,530,1130,1410]",10.1,2024-07-02_13h22.49.161
