key_resp_welcome_started,key_resp_welcome_keys,key_resp_welcome_rt,key_resp_welcome_duration,prolific_id,path_id,date,expName,psychopyVersion,OS,frameRate,key_resp_instruction1_started,key_resp_instruction1_keys,key_resp_instruction1_rt,key_resp_instruction1_duration,key_resp_instruction2_started,key_resp_instruction2_keys,key_resp_instruction2_rt,key_resp_instruction2_duration,key_resp_instruction3_started,key_resp_instruction3_keys,key_resp_instruction3_rt,key_resp_instruction3_duration,key_resp_instruction4_started,key_resp_instruction4_keys,key_resp_instruction4_rt,key_resp_instruction4_duration,practiceCondition,practice_reward_seqs,practice_trial_started,practice_trial_num,practice_resp_rt,practice_resp_duration,practice_resp_keys,prac_presentationInterval,"practice_reward_seq: 2,1,3",reward_img,cumulative_reward,trial_reward,practice_trials.thisRepN,practice_trials.thisTrialN,practice_trials.thisN,practice_trials.thisIndex,practice_trials.ran,"practice_reward_seq: 2,3,1",block_break_started,"practice_reward_seq: 1,3,2","practice_reward_seq: 3,1,2",practice_end_time,practice_end_keys,practice_end_rt,practice_end_duration,main_instruction_text_started,block_condition,block_order_indices,main_instruction_keys,main_instruction_rt,main_instruction_duration,block_number,block_assignment,current_condition,main_reward_seqs,main_trial_started,main_trial_num,main_trial_keys,main_trial_rt,main_trial_duration,main_presentationInterval,reward_presentation_time,main_reward_seq,reward_rand_val,main_reward_img,current_reward,main_trials.thisRepN,main_trials.thisTrialN,main_trials.thisN,main_trials.thisIndex,main_trials.ran,block_reward,block.thisRepN,block.thisTrialN,block.thisN,block.thisIndex,block.ran,block_reward.length,block_reward_all,reward_amount,date_end_task
0.0004,space,4.4738,,5c7ee0e760ad890001151526,A,2024-07-08_15h01.08.105,Slot Machine Game,2023.1.3,Win32,59.88023952,,,,,,,,,,,,,,,,,,,,,,,,,,,,,,,,,,,,,,,,,,,,,,,,,,,,,,,,,,,,,,,,,,,,,,,,,,,,,
,,,,5c7ee0e760ad890001151526,A,2024-07-08_15h01.08.105,Slot Machine Game,2023.1.3,Win32,59.88023952,4.494,space,11.3908,,,,,,,,,,,,,,,,,,,,,,,,,,,,,,,,,,,,,,,,,,,,,,,,,,,,,,,,,,,,,,,,,,,,,,,,,,
,,,,5c7ee0e760ad890001151526,A,2024-07-08_15h01.08.105,Slot Machine Game,2023.1.3,Win32,59.88023952,,,,,15.9171,loption,37.3349,,,,,,,,,,,,,,,,,,,,,,,,,,,,,,,,,,,,,,,,,,,,,,,,,,,,,,,,,,,,,,,,,,,,,,
,,,,5c7ee0e760ad890001151526,A,2024-07-08_15h01.08.105,Slot Machine Game,2023.1.3,Win32,59.88023952,,,,,,,,,53.3048,loption,2.9225,,,,,,,,,,,,,,,,,,,,,,,,,,,,,,,,,,,,,,,,,,,,,,,,,,,,,,,,,,,,,,,,,,
,,,,5c7ee0e760ad890001151526,A,2024-07-08_15h01.08.105,Slot Machine Game,2023.1.3,Win32,59.88023952,,,,,,,,,,,,,,,,,,,,,,,,,,,,,,,,,,,,,,,,,,,,,,,,,,,,,,,,,,,,,,,,,,,,,,,,,,,,,
,,,,5c7ee0e760ad890001151526,A,2024-07-08_15h01.08.105,Slot Machine Game,2023.1.3,Win32,59.88023952,,,,,,,,,,,,,198.0163,up,4.1382,,,,,,,,,,,,,,,,,,,,,,,,,,,,,,,,,,,,,,,,,,,,,,,,,,,,,,,,,,,,,,
,,,,5c7ee0e760ad890001151526,A,2024-07-08_15h01.08.105,Slot Machine Game,2023.1.3,Win32,59.88023952,,,,,,,,,,,,,,,,,"[9,15]","[[2,1,3],[2,3,1]]",202.2023,0,0.8074,,left,1,,stimuli/card_10_transparent.png,10,10,0,0,0,0,1,,,,,,,,,,,,,,,,,,,,,,,,,,,,,,,,,,,,,,,,,,,,
,,,,5c7ee0e760ad890001151526,A,2024-07-08_15h01.08.105,Slot Machine Game,2023.1.3,Win32,59.88023952,,,,,,,,,,,,,,,,,,,204.8668,1,0.3428,,left,1.5,,stimuli/card_10_transparent.png,20,10,1,0,1,0,1,,,,,,,,,,,,,,,,,,,,,,,,,,,,,,,,,,,,,,,,,,,,
,,,,5c7ee0e760ad890001151526,A,2024-07-08_15h01.08.105,Slot Machine Game,2023.1.3,Win32,59.88023952,,,,,,,,,,,,,,,,,,,207.5413,2,0.0291,,left,1.5,,stimuli/card_10_transparent.png,30,10,2,0,2,0,1,,,,,,,,,,,,,,,,,,,,,,,,,,,,,,,,,,,,,,,,,,,,
,,,,5c7ee0e760ad890001151526,A,2024-07-08_15h01.08.105,Slot Machine Game,2023.1.3,Win32,59.88023952,,,,,,,,,,,,,,,,,,,209.9004,3,2.7754,,left,0.5,,stimuli/card_10_transparent.png,40,10,3,0,3,0,1,,,,,,,,,,,,,,,,,,,,,,,,,,,,,,,,,,,,,,,,,,,,
,,,,5c7ee0e760ad890001151526,A,2024-07-08_15h01.08.105,Slot Machine Game,2023.1.3,Win32,59.88023952,,,,,,,,,,,,,,,,,,,214.0065,4,1.9018,,up,1,,stimuli/card_100_transparent.png,140,100,4,0,4,0,1,,,,,,,,,,,,,,,,,,,,,,,,,,,,,,,,,,,,,,,,,,,,
,,,,5c7ee0e760ad890001151526,A,2024-07-08_15h01.08.105,Slot Machine Game,2023.1.3,Win32,59.88023952,,,,,,,,,,,,,,,,,,,217.7547,5,0.4967,,up,0.5,,stimuli/card_100_transparent.png,240,100,5,0,5,0,1,,,,,,,,,,,,,,,,,,,,,,,,,,,,,,,,,,,,,,,,,,,,
,,,,5c7ee0e760ad890001151526,A,2024-07-08_15h01.08.105,Slot Machine Game,2023.1.3,Win32,59.88023952,,,,,,,,,,,,,,,,,,,219.6348,6,0.1339,,up,1,,stimuli/card_100_transparent.png,340,100,6,0,6,0,1,,,,,,,,,,,,,,,,,,,,,,,,,,,,,,,,,,,,,,,,,,,,
,,,,5c7ee0e760ad890001151526,A,2024-07-08_15h01.08.105,Slot Machine Game,2023.1.3,Win32,59.88023952,,,,,,,,,,,,,,,,,,,221.6052,7,0.0945,,up,1.5,,stimuli/card_100_transparent.png,440,100,7,0,7,0,1,,,,,,,,,,,,,,,,,,,,,,,,,,,,,,,,,,,,,,,,,,,,
,,,,5c7ee0e760ad890001151526,A,2024-07-08_15h01.08.105,Slot Machine Game,2023.1.3,Win32,59.88023952,,,,,,,,,,,,,,,,,,,224.0246,8,1.9818,,up,0.5,,stimuli/card_100_transparent.png,540,100,8,0,8,0,1,,,,,,,,,,,,,,,,,,,,,,,,,,,,,,,,,,,,,,,,,,,,
,,,,5c7ee0e760ad890001151526,A,2024-07-08_15h01.08.105,Slot Machine Game,2023.1.3,Win32,59.88023952,,,,,,,,,,,,,,,,,,,227.3322,9,0.2164,,up,0.5,,stimuli/card_0_transparent.png,540,0,9,0,9,0,1,,,,,,,,,,,,,,,,,,,,,,,,,,,,,,,,,,,,,,,,,,,,
,,,,5c7ee0e760ad890001151526,A,2024-07-08_15h01.08.105,Slot Machine Game,2023.1.3,Win32,59.88023952,,,,,,,,,,,,,,,,,,,228.8578,10,0.0787,,up,1.5,,stimuli/card_0_transparent.png,540,0,10,0,10,0,1,,,,,,,,,,,,,,,,,,,,,,,,,,,,,,,,,,,,,,,,,,,,
,,,,5c7ee0e760ad890001151526,A,2024-07-08_15h01.08.105,Slot Machine Game,2023.1.3,Win32,59.88023952,,,,,,,,,,,,,,,,,,,231.2625,11,0.1296,,right,0.5,,stimuli/card_0_transparent.png,540,0,11,0,11,0,1,,,,,,,,,,,,,,,,,,,,,,,,,,,,,,,,,,,,,,,,,,,,
,,,,5c7ee0e760ad890001151526,A,2024-07-08_15h01.08.105,Slot Machine Game,2023.1.3,Win32,59.88023952,,,,,,,,,,,,,,,,,,,232.7073,12,0.5095,,right,1.5,,stimuli/card_10_transparent.png,550,10,12,0,12,0,1,,,,,,,,,,,,,,,,,,,,,,,,,,,,,,,,,,,,,,,,,,,,
,,,,5c7ee0e760ad890001151526,A,2024-07-08_15h01.08.105,Slot Machine Game,2023.1.3,Win32,59.88023952,,,,,,,,,,,,,,,,,,,235.5573,13,0.462,,up,1.5,,stimuli/card_0_transparent.png,550,0,13,0,13,0,1,,,,,,,,,,,,,,,,,,,,,,,,,,,,,,,,,,,,,,,,,,,,
,,,,5c7ee0e760ad890001151526,A,2024-07-08_15h01.08.105,Slot Machine Game,2023.1.3,Win32,59.88023952,,,,,,,,,,,,,,,,,,,238.3694,14,0.0221,,left,1,,stimuli/card_10_transparent.png,560,10,14,0,14,0,1,,,,,,,,,,,,,,,,,,,,,,,,,,,,,,,,,,,,,,,,,,,,
,,,,5c7ee0e760ad890001151526,A,2024-07-08_15h01.08.105,Slot Machine Game,2023.1.3,Win32,59.88023952,,,,,,,,,,,,,,,,,"[6,15]","[[1,3,2],[3,1,2]]",245.2336,0,0.6605,,left,0.5,,stimuli/card_100_transparent.png,100,100,0,0,0,0,1,,240.2266,,,,,,,,,,,,,,,,,,,,,,,,,,,,,,,,,,,,,,,,,,
,,,,5c7ee0e760ad890001151526,A,2024-07-08_15h01.08.105,Slot Machine Game,2023.1.3,Win32,59.88023952,,,,,,,,,,,,,,,,,,,247.1883,1,0.3008,,left,1,,stimuli/card_100_transparent.png,200,100,1,0,1,0,1,,,,,,,,,,,,,,,,,,,,,,,,,,,,,,,,,,,,,,,,,,,,
,,,,5c7ee0e760ad890001151526,A,2024-07-08_15h01.08.105,Slot Machine Game,2023.1.3,Win32,59.88023952,,,,,,,,,,,,,,,,,,,249.2991,2,2.4899,,left,1,,stimuli/card_100_transparent.png,300,100,2,0,2,0,1,,,,,,,,,,,,,,,,,,,,,,,,,,,,,,,,,,,,,,,,,,,,
,,,,5c7ee0e760ad890001151526,A,2024-07-08_15h01.08.105,Slot Machine Game,2023.1.3,Win32,59.88023952,,,,,,,,,,,,,,,,,,,253.6497,3,0.0006,,left,0.5,,stimuli/card_0_transparent.png,300,0,3,0,3,0,1,,,,,,,,,,,,,,,,,,,,,,,,,,,,,,,,,,,,,,,,,,,,
,,,,5c7ee0e760ad890001151526,A,2024-07-08_15h01.08.105,Slot Machine Game,2023.1.3,Win32,59.88023952,,,,,,,,,,,,,,,,,,,254.9738,4,0.3285,,left,0.5,,stimuli/card_100_transparent.png,400,100,4,0,4,0,1,,,,,,,,,,,,,,,,,,,,,,,,,,,,,,,,,,,,,,,,,,,,
,,,,5c7ee0e760ad890001151526,A,2024-07-08_15h01.08.105,Slot Machine Game,2023.1.3,Win32,59.88023952,,,,,,,,,,,,,,,,,,,256.5893,5,0.1219,,left,0.5,,stimuli/card_100_transparent.png,500,100,5,0,5,0,1,,,,,,,,,,,,,,,,,,,,,,,,,,,,,,,,,,,,,,,,,,,,
,,,,5c7ee0e760ad890001151526,A,2024-07-08_15h01.08.105,Slot Machine Game,2023.1.3,Win32,59.88023952,,,,,,,,,,,,,,,,,,,258.0163,6,0.0793,,left,1.5,,stimuli/card_0_transparent.png,500,0,6,0,6,0,1,,,,,,,,,,,,,,,,,,,,,,,,,,,,,,,,,,,,,,,,,,,,
,,,,5c7ee0e760ad890001151526,A,2024-07-08_15h01.08.105,Slot Machine Game,2023.1.3,Win32,59.88023952,,,,,,,,,,,,,,,,,,,260.3982,7,0.1966,,left,1,,stimuli/card_0_transparent.png,500,0,7,0,7,0,1,,,,,,,,,,,,,,,,,,,,,,,,,,,,,,,,,,,,,,,,,,,,
,,,,5c7ee0e760ad890001151526,A,2024-07-08_15h01.08.105,Slot Machine Game,2023.1.3,Win32,59.88023952,,,,,,,,,,,,,,,,,,,262.4327,8,0.26,,up,0.5,,stimuli/card_100_transparent.png,600,100,8,0,8,0,1,,,,,,,,,,,,,,,,,,,,,,,,,,,,,,,,,,,,,,,,,,,,
,,,,5c7ee0e760ad890001151526,A,2024-07-08_15h01.08.105,Slot Machine Game,2023.1.3,Win32,59.88023952,,,,,,,,,,,,,,,,,,,264.0226,9,0.0935,,up,1,,stimuli/card_100_transparent.png,700,100,9,0,9,0,1,,,,,,,,,,,,,,,,,,,,,,,,,,,,,,,,,,,,,,,,,,,,
,,,,5c7ee0e760ad890001151526,A,2024-07-08_15h01.08.105,Slot Machine Game,2023.1.3,Win32,59.88023952,,,,,,,,,,,,,,,,,,,265.987,10,0.0005,,up,0.5,,stimuli/card_100_transparent.png,800,100,10,0,10,0,1,,,,,,,,,,,,,,,,,,,,,,,,,,,,,,,,,,,,,,,,,,,,
,,,,5c7ee0e760ad890001151526,A,2024-07-08_15h01.08.105,Slot Machine Game,2023.1.3,Win32,59.88023952,,,,,,,,,,,,,,,,,,,267.316,11,0.0005,,up,0.5,,stimuli/card_100_transparent.png,900,100,11,0,11,0,1,,,,,,,,,,,,,,,,,,,,,,,,,,,,,,,,,,,,,,,,,,,,
,,,,5c7ee0e760ad890001151526,A,2024-07-08_15h01.08.105,Slot Machine Game,2023.1.3,Win32,59.88023952,,,,,,,,,,,,,,,,,,,268.6554,12,1.4602,,up,1.5,,stimuli/card_10_transparent.png,910,10,12,0,12,0,1,,,,,,,,,,,,,,,,,,,,,,,,,,,,,,,,,,,,,,,,,,,,
,,,,5c7ee0e760ad890001151526,A,2024-07-08_15h01.08.105,Slot Machine Game,2023.1.3,Win32,59.88023952,,,,,,,,,,,,,,,,,,,272.4692,13,0.2002,,up,0.5,,stimuli/card_100_transparent.png,1010,100,13,0,13,0,1,,,,,,,,,,,,,,,,,,,,,,,,,,,,,,,,,,,,,,,,,,,,
,,,,5c7ee0e760ad890001151526,A,2024-07-08_15h01.08.105,Slot Machine Game,2023.1.3,Win32,59.88023952,,,,,,,,,,,,,,,,,,,273.9758,14,0.2011,,up,1.5,,stimuli/card_100_transparent.png,1110,100,14,0,14,0,1,,,,,,,,,,,,,,,,,,,,,,,,,,,,,,,,,,,,,,,,,,,,
,,,,5c7ee0e760ad890001151526,A,2024-07-08_15h01.08.105,Slot Machine Game,2023.1.3,Win32,59.88023952,,,,,,,,,,,,,,,,,,,,,,,,,,,,,,,,,,,276.5,,,281.4883,space,4.6689,,,,,,,,,,,,,,,,,,,,,,,,,,,,,,,,,,,,,
,,,,5c7ee0e760ad890001151526,A,2024-07-08_15h01.08.105,Slot Machine Game,2023.1.3,Win32,59.88023952,,,,,,,,,,,,,,,,,,,,,,,,,,,,,,,,,,,,,,,,,,286.2019,1,"[0,1,2,3,4,5,6,7,8,9]",space,7.3505,,,,,,,,,,,,,,,,,,,,,,,,,,,,,,,
,,,,5c7ee0e760ad890001151526,A,2024-07-08_15h01.08.105,Slot Machine Game,2023.1.3,Win32,59.88023952,,,,,,,,,,,,,,,,,,,,,,,,,,,0,,,,,,,,,,,,,,,,,,,,,1,1,"[12,15]","[[2,1,3],[2,3,1]]",293.6117,0,right,0.1494,,0.5,0.3,"[2,1,3]",0.213945483,stimuli/card_0_transparent.png,0,0,0,0,0,1,,,,,,,,,,
,,,,5c7ee0e760ad890001151526,A,2024-07-08_15h01.08.105,Slot Machine Game,2023.1.3,Win32,59.88023952,,,,,,,,,,,,,,,,,,,,,,,,,,,100,,,,,,,,,,,,,,,,,,,,,1,1,,,295.122,1,up,0.3007,,1,0.3,"[2,1,3]",0.276648355,stimuli/card_100_transparent.png,100,1,0,1,0,1,,,,,,,,,,
,,,,5c7ee0e760ad890001151526,A,2024-07-08_15h01.08.105,Slot Machine Game,2023.1.3,Win32,59.88023952,,,,,,,,,,,,,,,,,,,,,,,,,,,100,,,,,,,,,,,,,,,,,,,,,1,1,,,297.2486,2,up,0.0257,,0.5,0.3,"[2,1,3]",0.001777095,stimuli/card_0_transparent.png,0,2,0,2,0,1,,,,,,,,,,
,,,,5c7ee0e760ad890001151526,A,2024-07-08_15h01.08.105,Slot Machine Game,2023.1.3,Win32,59.88023952,,,,,,,,,,,,,,,,,,,,,,,,,,,200,,,,,,,,,,,,,,,,,,,,,1,1,,,298.5931,3,up,0.0006,,1,0.3,"[2,1,3]",0.374243145,stimuli/card_100_transparent.png,100,3,0,3,0,1,,,,,,,,,,
,,,,5c7ee0e760ad890001151526,A,2024-07-08_15h01.08.105,Slot Machine Game,2023.1.3,Win32,59.88023952,,,,,,,,,,,,,,,,,,,,,,,,,,,300,,,,,,,,,,,,,,,,,,,,,1,1,,,300.4402,4,up,0.722,,1.5,0.3,"[2,1,3]",0.756375209,stimuli/card_100_transparent.png,100,4,0,4,0,1,,,,,,,,,,
,,,,5c7ee0e760ad890001151526,A,2024-07-08_15h01.08.105,Slot Machine Game,2023.1.3,Win32,59.88023952,,,,,,,,,,,,,,,,,,,,,,,,,,,400,,,,,,,,,,,,,,,,,,,,,1,1,,,303.4821,5,up,0.029,,1.5,0.3,"[2,1,3]",0.991759287,stimuli/card_100_transparent.png,100,5,0,5,0,1,,,,,,,,,,
,,,,5c7ee0e760ad890001151526,A,2024-07-08_15h01.08.105,Slot Machine Game,2023.1.3,Win32,59.88023952,,,,,,,,,,,,,,,,,,,,,,,,,,,500,,,,,,,,,,,,,,,,,,,,,1,1,,,305.8252,6,up,0.0005,,0.5,0.3,"[2,1,3]",0.367352833,stimuli/card_100_transparent.png,100,6,0,6,0,1,,,,,,,,,,
,,,,5c7ee0e760ad890001151526,A,2024-07-08_15h01.08.105,Slot Machine Game,2023.1.3,Win32,59.88023952,,,,,,,,,,,,,,,,,,,,,,,,,,,600,,,,,,,,,,,,,,,,,,,,,1,1,,,307.1211,7,up,0.0006,,1.5,0.3,"[2,1,3]",0.244362907,stimuli/card_100_transparent.png,100,7,0,7,0,1,,,,,,,,,,
,,,,5c7ee0e760ad890001151526,A,2024-07-08_15h01.08.105,Slot Machine Game,2023.1.3,Win32,59.88023952,,,,,,,,,,,,,,,,,,,,,,,,,,,700,,,,,,,,,,,,,,,,,,,,,1,1,,,309.4517,8,up,0.066,,0.5,0.3,"[2,1,3]",0.542804091,stimuli/card_100_transparent.png,100,8,0,8,0,1,,,,,,,,,,
,,,,5c7ee0e760ad890001151526,A,2024-07-08_15h01.08.105,Slot Machine Game,2023.1.3,Win32,59.88023952,,,,,,,,,,,,,,,,,,,,,,,,,,,800,,,,,,,,,,,,,,,,,,,,,1,1,,,310.8544,9,up,0.0006,,1.5,0.3,"[2,1,3]",0.726848711,stimuli/card_100_transparent.png,100,9,0,9,0,1,,,,,,,,,,
,,,,5c7ee0e760ad890001151526,A,2024-07-08_15h01.08.105,Slot Machine Game,2023.1.3,Win32,59.88023952,,,,,,,,,,,,,,,,,,,,,,,,,,,900,,,,,,,,,,,,,,,,,,,,,1,1,,,313.2045,10,up,0.0223,,0.5,0.3,"[2,1,3]",0.891590058,stimuli/card_100_transparent.png,100,10,0,10,0,1,,,,,,,,,,
,,,,5c7ee0e760ad890001151526,A,2024-07-08_15h01.08.105,Slot Machine Game,2023.1.3,Win32,59.88023952,,,,,,,,,,,,,,,,,,,,,,,,,,,900,,,,,,,,,,,,,,,,,,,,,1,1,,,314.5402,11,up,0.0936,,1,0.3,"[2,1,3]",0.012626343,stimuli/card_0_transparent.png,0,11,0,11,0,1,,,,,,,,,,
,,,,5c7ee0e760ad890001151526,A,2024-07-08_15h01.08.105,Slot Machine Game,2023.1.3,Win32,59.88023952,,,,,,,,,,,,,,,,,,,,,,,,,,,900,,,,,,,,,,,,,,,,,,,,,1,1,,,316.4641,12,up,0.0792,,1.5,0.3,"[2,3,1]",0.256431092,stimuli/card_0_transparent.png,0,12,0,12,0,1,,,,,,,,,,
,,,,5c7ee0e760ad890001151526,A,2024-07-08_15h01.08.105,Slot Machine Game,2023.1.3,Win32,59.88023952,,,,,,,,,,,,,,,,,,,,,,,,,,,910,,,,,,,,,,,,,,,,,,,,,1,1,,,318.8735,13,left,0.6289,,1,0.3,"[2,3,1]",0.265588833,stimuli/card_10_transparent.png,10,13,0,13,0,1,,,,,,,,,,
,,,,5c7ee0e760ad890001151526,A,2024-07-08_15h01.08.105,Slot Machine Game,2023.1.3,Win32,59.88023952,,,,,,,,,,,,,,,,,,,,,,,,,,,910,,,,,,,,,,,,,,,,,,,,,1,1,,,321.3162,14,left,0.2005,,0.5,0.3,"[2,3,1]",0.009827621,stimuli/card_0_transparent.png,0,14,0,14,0,1,,,,,,,,,,
,,,,5c7ee0e760ad890001151526,A,2024-07-08_15h01.08.105,Slot Machine Game,2023.1.3,Win32,59.88023952,,,,,,,,,,,,,,,,,,,,,,,,,,,,,,,,,,,322.8112,,,,,,,,,,,,,,,,,,,,,,,,,,,,,,,,,[910],0,0,0,0,1,,,,
,,,,5c7ee0e760ad890001151526,A,2024-07-08_15h01.08.105,Slot Machine Game,2023.1.3,Win32,59.88023952,,,,,,,,,,,,,,,,,,,,,,,,,,,100,,,,,,,,,,,,,,,,,,,,,2,2,"[6,15]","[[1,3,2],[3,2,1]]",327.8158,0,left,0.8208,,0.5,0.3,"[1,3,2]",0.680095733,stimuli/card_100_transparent.png,100,0,0,0,0,1,,,,,,,,,,
,,,,5c7ee0e760ad890001151526,A,2024-07-08_15h01.08.105,Slot Machine Game,2023.1.3,Win32,59.88023952,,,,,,,,,,,,,,,,,,,,,,,,,,,200,,,,,,,,,,,,,,,,,,,,,2,2,,,329.9548,1,left,0.27,,1.5,0.3,"[1,3,2]",0.526513689,stimuli/card_100_transparent.png,100,1,0,1,0,1,,,,,,,,,,
,,,,5c7ee0e760ad890001151526,A,2024-07-08_15h01.08.105,Slot Machine Game,2023.1.3,Win32,59.88023952,,,,,,,,,,,,,,,,,,,,,,,,,,,300,,,,,,,,,,,,,,,,,,,,,2,2,,,332.5817,2,left,0.7486,,1.5,0.3,"[1,3,2]",0.309971228,stimuli/card_100_transparent.png,100,2,0,2,0,1,,,,,,,,,,
,,,,5c7ee0e760ad890001151526,A,2024-07-08_15h01.08.105,Slot Machine Game,2023.1.3,Win32,59.88023952,,,,,,,,,,,,,,,,,,,,,,,,,,,400,,,,,,,,,,,,,,,,,,,,,2,2,,,335.6569,3,left,0.0006,,1.5,0.3,"[1,3,2]",0.588656312,stimuli/card_100_transparent.png,100,3,0,3,0,1,,,,,,,,,,
,,,,5c7ee0e760ad890001151526,A,2024-07-08_15h01.08.105,Slot Machine Game,2023.1.3,Win32,59.88023952,,,,,,,,,,,,,,,,,,,,,,,,,,,500,,,,,,,,,,,,,,,,,,,,,2,2,,,337.9778,4,left,0.5428,,1,0.3,"[1,3,2]",0.719371167,stimuli/card_100_transparent.png,100,4,0,4,0,1,,,,,,,,,,
,,,,5c7ee0e760ad890001151526,A,2024-07-08_15h01.08.105,Slot Machine Game,2023.1.3,Win32,59.88023952,,,,,,,,,,,,,,,,,,,,,,,,,,,510,,,,,,,,,,,,,,,,,,,,,2,2,,,340.3517,5,left,0.0601,,0.5,0.3,"[1,3,2]",0.157625406,stimuli/card_10_transparent.png,10,5,0,5,0,1,,,,,,,,,,
,,,,5c7ee0e760ad890001151526,A,2024-07-08_15h01.08.105,Slot Machine Game,2023.1.3,Win32,59.88023952,,,,,,,,,,,,,,,,,,,,,,,,,,,510,,,,,,,,,,,,,,,,,,,,,2,2,,,341.7208,6,left,0.1374,,1,0.3,"[3,2,1]",0.462224485,stimuli/card_0_transparent.png,0,6,0,6,0,1,,,,,,,,,,
,,,,5c7ee0e760ad890001151526,A,2024-07-08_15h01.08.105,Slot Machine Game,2023.1.3,Win32,59.88023952,,,,,,,,,,,,,,,,,,,,,,,,,,,510,,,,,,,,,,,,,,,,,,,,,2,2,,,343.6731,7,left,0.0255,,1,0.3,"[3,2,1]",0.589587838,stimuli/card_0_transparent.png,0,7,0,7,0,1,,,,,,,,,,
,,,,5c7ee0e760ad890001151526,A,2024-07-08_15h01.08.105,Slot Machine Game,2023.1.3,Win32,59.88023952,,,,,,,,,,,,,,,,,,,,,,,,,,,520,,,,,,,,,,,,,,,,,,,,,2,2,,,345.5231,8,up,0.5054,,0.5,0.3,"[3,2,1]",0.262859344,stimuli/card_10_transparent.png,10,8,0,8,0,1,,,,,,,,,,
,,,,5c7ee0e760ad890001151526,A,2024-07-08_15h01.08.105,Slot Machine Game,2023.1.3,Win32,59.88023952,,,,,,,,,,,,,,,,,,,,,,,,,,,620,,,,,,,,,,,,,,,,,,,,,2,2,,,347.3547,9,right,0.0662,,1,0.3,"[3,2,1]",0.807950743,stimuli/card_100_transparent.png,100,9,0,9,0,1,,,,,,,,,,
,,,,5c7ee0e760ad890001151526,A,2024-07-08_15h01.08.105,Slot Machine Game,2023.1.3,Win32,59.88023952,,,,,,,,,,,,,,,,,,,,,,,,,,,720,,,,,,,,,,,,,,,,,,,,,2,2,,,349.2544,10,right,0.0005,,1,0.3,"[3,2,1]",0.467787997,stimuli/card_100_transparent.png,100,10,0,10,0,1,,,,,,,,,,
,,,,5c7ee0e760ad890001151526,A,2024-07-08_15h01.08.105,Slot Machine Game,2023.1.3,Win32,59.88023952,,,,,,,,,,,,,,,,,,,,,,,,,,,820,,,,,,,,,,,,,,,,,,,,,2,2,,,351.0538,11,right,0.2885,,1,0.3,"[3,2,1]",0.388774328,stimuli/card_100_transparent.png,100,11,0,11,0,1,,,,,,,,,,
,,,,5c7ee0e760ad890001151526,A,2024-07-08_15h01.08.105,Slot Machine Game,2023.1.3,Win32,59.88023952,,,,,,,,,,,,,,,,,,,,,,,,,,,830,,,,,,,,,,,,,,,,,,,,,2,2,,,353.1711,12,right,0.2662,,0.5,0.3,"[3,2,1]",0.133325021,stimuli/card_10_transparent.png,10,12,0,12,0,1,,,,,,,,,,
,,,,5c7ee0e760ad890001151526,A,2024-07-08_15h01.08.105,Slot Machine Game,2023.1.3,Win32,59.88023952,,,,,,,,,,,,,,,,,,,,,,,,,,,930,,,,,,,,,,,,,,,,,,,,,2,2,,,354.7815,13,right,0.0519,,1.5,0.3,"[3,2,1]",0.563419021,stimuli/card_100_transparent.png,100,13,0,13,0,1,,,,,,,,,,
,,,,5c7ee0e760ad890001151526,A,2024-07-08_15h01.08.105,Slot Machine Game,2023.1.3,Win32,59.88023952,,,,,,,,,,,,,,,,,,,,,,,,,,,1030,,,,,,,,,,,,,,,,,,,,,2,2,,,357.1568,14,right,0.2774,,0.5,0.3,"[3,2,1]",0.532810577,stimuli/card_100_transparent.png,100,14,0,14,0,1,,,,,,,,,,
,,,,5c7ee0e760ad890001151526,A,2024-07-08_15h01.08.105,Slot Machine Game,2023.1.3,Win32,59.88023952,,,,,,,,,,,,,,,,,,,,,,,,,,,,,,,,,,,358.7537,,,,,,,,,,,,,,,,,,,,,,,,,,,,,,,,,"[910,1030]",1,0,1,0,1,,,,
,,,,5c7ee0e760ad890001151526,A,2024-07-08_15h01.08.105,Slot Machine Game,2023.1.3,Win32,59.88023952,,,,,,,,,,,,,,,,,,,,,,,,,,,100,,,,,,,,,,,,,,,,,,,,,3,3,"[15,15]","[[3,1,2],[3,1,2]]",363.7518,0,up,0.5183,,1.5,0.3,"[3,1,2]",0.783007805,stimuli/card_100_transparent.png,100,0,0,0,0,1,,,,,,,,,,
,,,,5c7ee0e760ad890001151526,A,2024-07-08_15h01.08.105,Slot Machine Game,2023.1.3,Win32,59.88023952,,,,,,,,,,,,,,,,,,,,,,,,,,,200,,,,,,,,,,,,,,,,,,,,,3,3,,,366.5875,1,up,0.05,,1,0.3,"[3,1,2]",0.926457109,stimuli/card_100_transparent.png,100,1,0,1,0,1,,,,,,,,,,
,,,,5c7ee0e760ad890001151526,A,2024-07-08_15h01.08.105,Slot Machine Game,2023.1.3,Win32,59.88023952,,,,,,,,,,,,,,,,,,,,,,,,,,,300,,,,,,,,,,,,,,,,,,,,,3,3,,,368.4684,2,up,0.0006,,1,0.3,"[3,1,2]",0.691985483,stimuli/card_100_transparent.png,100,2,0,2,0,1,,,,,,,,,,
,,,,5c7ee0e760ad890001151526,A,2024-07-08_15h01.08.105,Slot Machine Game,2023.1.3,Win32,59.88023952,,,,,,,,,,,,,,,,,,,,,,,,,,,300,,,,,,,,,,,,,,,,,,,,,3,3,,,370.2982,3,up,0.3671,,1,0.3,"[3,1,2]",0.006187132,stimuli/card_0_transparent.png,0,3,0,3,0,1,,,,,,,,,,
,,,,5c7ee0e760ad890001151526,A,2024-07-08_15h01.08.105,Slot Machine Game,2023.1.3,Win32,59.88023952,,,,,,,,,,,,,,,,,,,,,,,,,,,300,,,,,,,,,,,,,,,,,,,,,3,3,,,372.5097,4,up,0.2007,,0.5,0.3,"[3,1,2]",0.09648741,stimuli/card_0_transparent.png,0,4,0,4,0,1,,,,,,,,,,
,,,,5c7ee0e760ad890001151526,A,2024-07-08_15h01.08.105,Slot Machine Game,2023.1.3,Win32,59.88023952,,,,,,,,,,,,,,,,,,,,,,,,,,,310,,,,,,,,,,,,,,,,,,,,,3,3,,,374.0246,5,right,0.0752,,1,0.3,"[3,1,2]",0.539212337,stimuli/card_10_transparent.png,10,5,0,5,0,1,,,,,,,,,,
,,,,5c7ee0e760ad890001151526,A,2024-07-08_15h01.08.105,Slot Machine Game,2023.1.3,Win32,59.88023952,,,,,,,,,,,,,,,,,,,,,,,,,,,320,,,,,,,,,,,,,,,,,,,,,3,3,,,375.9306,6,right,0.0503,,1.5,0.3,"[3,1,2]",0.399267674,stimuli/card_10_transparent.png,10,6,0,6,0,1,,,,,,,,,,
,,,,5c7ee0e760ad890001151526,A,2024-07-08_15h01.08.105,Slot Machine Game,2023.1.3,Win32,59.88023952,,,,,,,,,,,,,,,,,,,,,,,,,,,330,,,,,,,,,,,,,,,,,,,,,3,3,,,378.3154,7,left,0.2926,,1,0.3,"[3,1,2]",0.112392544,stimuli/card_10_transparent.png,10,7,0,7,0,1,,,,,,,,,,
,,,,5c7ee0e760ad890001151526,A,2024-07-08_15h01.08.105,Slot Machine Game,2023.1.3,Win32,59.88023952,,,,,,,,,,,,,,,,,,,,,,,,,,,330,,,,,,,,,,,,,,,,,,,,,3,3,,,380.4322,8,left,0.0005,,1.5,0.3,"[3,1,2]",0.622965249,stimuli/card_0_transparent.png,0,8,0,8,0,1,,,,,,,,,,
,,,,5c7ee0e760ad890001151526,A,2024-07-08_15h01.08.105,Slot Machine Game,2023.1.3,Win32,59.88023952,,,,,,,,,,,,,,,,,,,,,,,,,,,430,,,,,,,,,,,,,,,,,,,,,3,3,,,382.7895,9,up,0.4393,,1,0.3,"[3,1,2]",0.825558162,stimuli/card_100_transparent.png,100,9,0,9,0,1,,,,,,,,,,
,,,,5c7ee0e760ad890001151526,A,2024-07-08_15h01.08.105,Slot Machine Game,2023.1.3,Win32,59.88023952,,,,,,,,,,,,,,,,,,,,,,,,,,,530,,,,,,,,,,,,,,,,,,,,,3,3,,,385.0541,10,up,0.1723,,1,0.3,"[3,1,2]",0.694297182,stimuli/card_100_transparent.png,100,10,0,10,0,1,,,,,,,,,,
,,,,5c7ee0e760ad890001151526,A,2024-07-08_15h01.08.105,Slot Machine Game,2023.1.3,Win32,59.88023952,,,,,,,,,,,,,,,,,,,,,,,,,,,630,,,,,,,,,,,,,,,,,,,,,3,3,,,387.0397,11,up,0.0008,,0.5,0.3,"[3,1,2]",0.413930395,stimuli/card_100_transparent.png,100,11,0,11,0,1,,,,,,,,,,
,,,,5c7ee0e760ad890001151526,A,2024-07-08_15h01.08.105,Slot Machine Game,2023.1.3,Win32,59.88023952,,,,,,,,,,,,,,,,,,,,,,,,,,,730,,,,,,,,,,,,,,,,,,,,,3,3,,,388.3544,12,up,0.2411,,1,0.3,"[3,1,2]",0.780077105,stimuli/card_100_transparent.png,100,12,0,12,0,1,,,,,,,,,,
,,,,5c7ee0e760ad890001151526,A,2024-07-08_15h01.08.105,Slot Machine Game,2023.1.3,Win32,59.88023952,,,,,,,,,,,,,,,,,,,,,,,,,,,830,,,,,,,,,,,,,,,,,,,,,3,3,,,390.4321,13,up,0.2006,,0.5,0.3,"[3,1,2]",0.950750605,stimuli/card_100_transparent.png,100,13,0,13,0,1,,,,,,,,,,
,,,,5c7ee0e760ad890001151526,A,2024-07-08_15h01.08.105,Slot Machine Game,2023.1.3,Win32,59.88023952,,,,,,,,,,,,,,,,,,,,,,,,,,,930,,,,,,,,,,,,,,,,,,,,,3,3,,,391.9563,14,up,0.2939,,1,0.3,"[3,1,2]",0.498015416,stimuli/card_100_transparent.png,100,14,0,14,0,1,,,,,,,,,,
,,,,5c7ee0e760ad890001151526,A,2024-07-08_15h01.08.105,Slot Machine Game,2023.1.3,Win32,59.88023952,,,,,,,,,,,,,,,,,,,,,,,,,,,,,,,,,,,394.0885,,,,,,,,,,,,,,,,,,,,,,,,,,,,,,,,,"[910,1030,930]",2,0,2,0,1,,,,
,,,,5c7ee0e760ad890001151526,A,2024-07-08_15h01.08.105,Slot Machine Game,2023.1.3,Win32,59.88023952,,,,,,,,,,,,,,,,,,,,,,,,,,,10,,,,,,,,,,,,,,,,,,,,,4,4,"[7,15]","[[2,3,1],[1,2,3]]",399.1,0,left,0.4503,,0.5,0.3,"[2,3,1]",0.890707339,stimuli/card_10_transparent.png,10,0,0,0,0,1,,,,,,,,,,
,,,,5c7ee0e760ad890001151526,A,2024-07-08_15h01.08.105,Slot Machine Game,2023.1.3,Win32,59.88023952,,,,,,,,,,,,,,,,,,,,,,,,,,,10,,,,,,,,,,,,,,,,,,,,,4,4,,,400.8596,1,up,0.0005,,0.5,0.3,"[2,3,1]",0.494377353,stimuli/card_0_transparent.png,0,1,0,1,0,1,,,,,,,,,,
,,,,5c7ee0e760ad890001151526,A,2024-07-08_15h01.08.105,Slot Machine Game,2023.1.3,Win32,59.88023952,,,,,,,,,,,,,,,,,,,,,,,,,,,110,,,,,,,,,,,,,,,,,,,,,4,4,,,402.1895,2,right,0.3177,,1,0.3,"[2,3,1]",0.949582086,stimuli/card_100_transparent.png,100,2,0,2,0,1,,,,,,,,,,
,,,,5c7ee0e760ad890001151526,A,2024-07-08_15h01.08.105,Slot Machine Game,2023.1.3,Win32,59.88023952,,,,,,,,,,,,,,,,,,,,,,,,,,,210,,,,,,,,,,,,,,,,,,,,,4,4,,,404.3466,3,right,0.0266,,0.5,0.3,"[2,3,1]",0.210789025,stimuli/card_100_transparent.png,100,3,0,3,0,1,,,,,,,,,,
,,,,5c7ee0e760ad890001151526,A,2024-07-08_15h01.08.105,Slot Machine Game,2023.1.3,Win32,59.88023952,,,,,,,,,,,,,,,,,,,,,,,,,,,310,,,,,,,,,,,,,,,,,,,,,4,4,,,405.7211,4,right,0.0007,,0.5,0.3,"[2,3,1]",0.901568125,stimuli/card_100_transparent.png,100,4,0,4,0,1,,,,,,,,,,
,,,,5c7ee0e760ad890001151526,A,2024-07-08_15h01.08.105,Slot Machine Game,2023.1.3,Win32,59.88023952,,,,,,,,,,,,,,,,,,,,,,,,,,,410,,,,,,,,,,,,,,,,,,,,,4,4,,,407.0656,5,right,0.3806,,0.5,0.3,"[2,3,1]",0.911576044,stimuli/card_100_transparent.png,100,5,0,5,0,1,,,,,,,,,,
,,,,5c7ee0e760ad890001151526,A,2024-07-08_15h01.08.105,Slot Machine Game,2023.1.3,Win32,59.88023952,,,,,,,,,,,,,,,,,,,,,,,,,,,510,,,,,,,,,,,,,,,,,,,,,4,4,,,408.767,6,right,0.1498,,1,0.3,"[2,3,1]",0.484387883,stimuli/card_100_transparent.png,100,6,0,6,0,1,,,,,,,,,,
,,,,5c7ee0e760ad890001151526,A,2024-07-08_15h01.08.105,Slot Machine Game,2023.1.3,Win32,59.88023952,,,,,,,,,,,,,,,,,,,,,,,,,,,510,,,,,,,,,,,,,,,,,,,,,4,4,,,410.7542,7,right,0.0663,,1,0.3,"[1,2,3]",0.253946819,stimuli/card_0_transparent.png,0,7,0,7,0,1,,,,,,,,,,
,,,,5c7ee0e760ad890001151526,A,2024-07-08_15h01.08.105,Slot Machine Game,2023.1.3,Win32,59.88023952,,,,,,,,,,,,,,,,,,,,,,,,,,,510,,,,,,,,,,,,,,,,,,,,,4,4,,,412.6769,8,right,0.2999,,1.5,0.3,"[1,2,3]",0.213261682,stimuli/card_0_transparent.png,0,8,0,8,0,1,,,,,,,,,,
,,,,5c7ee0e760ad890001151526,A,2024-07-08_15h01.08.105,Slot Machine Game,2023.1.3,Win32,59.88023952,,,,,,,,,,,,,,,,,,,,,,,,,,,520,,,,,,,,,,,,,,,,,,,,,4,4,,,415.2931,9,up,0.2245,,1,0.3,"[1,2,3]",0.941829243,stimuli/card_10_transparent.png,10,9,0,9,0,1,,,,,,,,,,
,,,,5c7ee0e760ad890001151526,A,2024-07-08_15h01.08.105,Slot Machine Game,2023.1.3,Win32,59.88023952,,,,,,,,,,,,,,,,,,,,,,,,,,,620,,,,,,,,,,,,,,,,,,,,,4,4,,,417.3469,10,left,0.0695,,1,0.3,"[1,2,3]",0.74491499,stimuli/card_100_transparent.png,100,10,0,10,0,1,,,,,,,,,,
,,,,5c7ee0e760ad890001151526,A,2024-07-08_15h01.08.105,Slot Machine Game,2023.1.3,Win32,59.88023952,,,,,,,,,,,,,,,,,,,,,,,,,,,720,,,,,,,,,,,,,,,,,,,,,4,4,,,419.237,11,left,0.3571,,1.5,0.3,"[1,2,3]",0.707537966,stimuli/card_100_transparent.png,100,11,0,11,0,1,,,,,,,,,,
,,,,5c7ee0e760ad890001151526,A,2024-07-08_15h01.08.105,Slot Machine Game,2023.1.3,Win32,59.88023952,,,,,,,,,,,,,,,,,,,,,,,,,,,820,,,,,,,,,,,,,,,,,,,,,4,4,,,421.9368,12,left,0.1165,,1,0.3,"[1,2,3]",0.90750074,stimuli/card_100_transparent.png,100,12,0,12,0,1,,,,,,,,,,
,,,,5c7ee0e760ad890001151526,A,2024-07-08_15h01.08.105,Slot Machine Game,2023.1.3,Win32,59.88023952,,,,,,,,,,,,,,,,,,,,,,,,,,,820,,,,,,,,,,,,,,,,,,,,,4,4,,,423.8894,13,left,0.1003,,0.5,0.3,"[1,2,3]",0.081049798,stimuli/card_0_transparent.png,0,13,0,13,0,1,,,,,,,,,,
,,,,5c7ee0e760ad890001151526,A,2024-07-08_15h01.08.105,Slot Machine Game,2023.1.3,Win32,59.88023952,,,,,,,,,,,,,,,,,,,,,,,,,,,920,,,,,,,,,,,,,,,,,,,,,4,4,,,425.3016,14,left,0.2292,,1.5,0.3,"[1,2,3]",0.359605506,stimuli/card_100_transparent.png,100,14,0,14,0,1,,,,,,,,,,
,,,,5c7ee0e760ad890001151526,A,2024-07-08_15h01.08.105,Slot Machine Game,2023.1.3,Win32,59.88023952,,,,,,,,,,,,,,,,,,,,,,,,,,,,,,,,,,,427.8366,,,,,,,,,,,,,,,,,,,,,,,,,,,,,,,,,"[910,1030,930,920]",3,0,3,0,1,,,,
,,,,5c7ee0e760ad890001151526,A,2024-07-08_15h01.08.105,Slot Machine Game,2023.1.3,Win32,59.88023952,,,,,,,,,,,,,,,,,,,,,,,,,,,100,,,,,,,,,,,,,,,,,,,,,5,5,"[5,15]","[[1,2,3],[3,1,2]]",432.8413,0,left,0.6529,,0.5,0.3,"[1,2,3]",0.608016674,stimuli/card_100_transparent.png,100,0,0,0,0,1,,,,,,,,,,
,,,,5c7ee0e760ad890001151526,A,2024-07-08_15h01.08.105,Slot Machine Game,2023.1.3,Win32,59.88023952,,,,,,,,,,,,,,,,,,,,,,,,,,,200,,,,,,,,,,,,,,,,,,,,,5,5,,,434.8484,1,left,0.234,,0.5,0.3,"[1,2,3]",0.979288717,stimuli/card_100_transparent.png,100,1,0,1,0,1,,,,,,,,,,
,,,,5c7ee0e760ad890001151526,A,2024-07-08_15h01.08.105,Slot Machine Game,2023.1.3,Win32,59.88023952,,,,,,,,,,,,,,,,,,,,,,,,,,,300,,,,,,,,,,,,,,,,,,,,,5,5,,,436.4514,2,left,0.1983,,1.5,0.3,"[1,2,3]",0.997384157,stimuli/card_100_transparent.png,100,2,0,2,0,1,,,,,,,,,,
,,,,5c7ee0e760ad890001151526,A,2024-07-08_15h01.08.105,Slot Machine Game,2023.1.3,Win32,59.88023952,,,,,,,,,,,,,,,,,,,,,,,,,,,400,,,,,,,,,,,,,,,,,,,,,5,5,,,438.9891,3,left,0.1501,,1,0.3,"[1,2,3]",0.967903086,stimuli/card_100_transparent.png,100,3,0,3,0,1,,,,,,,,,,
,,,,5c7ee0e760ad890001151526,A,2024-07-08_15h01.08.105,Slot Machine Game,2023.1.3,Win32,59.88023952,,,,,,,,,,,,,,,,,,,,,,,,,,,500,,,,,,,,,,,,,,,,,,,,,5,5,,,440.9542,4,left,0.2011,,1,0.3,"[1,2,3]",0.736225862,stimuli/card_100_transparent.png,100,4,0,4,0,1,,,,,,,,,,
,,,,5c7ee0e760ad890001151526,A,2024-07-08_15h01.08.105,Slot Machine Game,2023.1.3,Win32,59.88023952,,,,,,,,,,,,,,,,,,,,,,,,,,,500,,,,,,,,,,,,,,,,,,,,,5,5,,,442.9723,5,left,0.0005,,1.5,0.3,"[3,1,2]",0.636478171,stimuli/card_0_transparent.png,0,5,0,5,0,1,,,,,,,,,,
,,,,5c7ee0e760ad890001151526,A,2024-07-08_15h01.08.105,Slot Machine Game,2023.1.3,Win32,59.88023952,,,,,,,,,,,,,,,,,,,,,,,,,,,510,,,,,,,,,,,,,,,,,,,,,5,5,,,445.281,6,left,0.1508,,1.5,0.3,"[3,1,2]",0.100466522,stimuli/card_10_transparent.png,10,6,0,6,0,1,,,,,,,,,,
,,,,5c7ee0e760ad890001151526,A,2024-07-08_15h01.08.105,Slot Machine Game,2023.1.3,Win32,59.88023952,,,,,,,,,,,,,,,,,,,,,,,,,,,520,,,,,,,,,,,,,,,,,,,,,5,5,,,447.7207,7,left,0.2838,,1,0.3,"[3,1,2]",0.194666106,stimuli/card_10_transparent.png,10,7,0,7,0,1,,,,,,,,,,
,,,,5c7ee0e760ad890001151526,A,2024-07-08_15h01.08.105,Slot Machine Game,2023.1.3,Win32,59.88023952,,,,,,,,,,,,,,,,,,,,,,,,,,,620,,,,,,,,,,,,,,,,,,,,,5,5,,,449.8141,8,up,0.1239,,0.5,0.3,"[3,1,2]",0.243117955,stimuli/card_100_transparent.png,100,8,0,8,0,1,,,,,,,,,,
,,,,5c7ee0e760ad890001151526,A,2024-07-08_15h01.08.105,Slot Machine Game,2023.1.3,Win32,59.88023952,,,,,,,,,,,,,,,,,,,,,,,,,,,720,,,,,,,,,,,,,,,,,,,,,5,5,,,451.2812,9,up,0.0924,,0.5,0.3,"[3,1,2]",0.648777077,stimuli/card_100_transparent.png,100,9,0,9,0,1,,,,,,,,,,
,,,,5c7ee0e760ad890001151526,A,2024-07-08_15h01.08.105,Slot Machine Game,2023.1.3,Win32,59.88023952,,,,,,,,,,,,,,,,,,,,,,,,,,,820,,,,,,,,,,,,,,,,,,,,,5,5,,,452.7034,10,up,0.0316,,1,0.3,"[3,1,2]",0.695044574,stimuli/card_100_transparent.png,100,10,0,10,0,1,,,,,,,,,,
,,,,5c7ee0e760ad890001151526,A,2024-07-08_15h01.08.105,Slot Machine Game,2023.1.3,Win32,59.88023952,,,,,,,,,,,,,,,,,,,,,,,,,,,820,,,,,,,,,,,,,,,,,,,,,5,5,,,454.5548,11,up,0.0255,,1.5,0.3,"[3,1,2]",0.05396939,stimuli/card_0_transparent.png,0,11,0,11,0,1,,,,,,,,,,
,,,,5c7ee0e760ad890001151526,A,2024-07-08_15h01.08.105,Slot Machine Game,2023.1.3,Win32,59.88023952,,,,,,,,,,,,,,,,,,,,,,,,,,,920,,,,,,,,,,,,,,,,,,,,,5,5,,,456.8889,12,up,0.1499,,0.5,0.3,"[3,1,2]",0.98098072,stimuli/card_100_transparent.png,100,12,0,12,0,1,,,,,,,,,,
,,,,5c7ee0e760ad890001151526,A,2024-07-08_15h01.08.105,Slot Machine Game,2023.1.3,Win32,59.88023952,,,,,,,,,,,,,,,,,,,,,,,,,,,1020,,,,,,,,,,,,,,,,,,,,,5,5,,,458.3644,13,up,0.0007,,1.5,0.3,"[3,1,2]",0.670152752,stimuli/card_100_transparent.png,100,13,0,13,0,1,,,,,,,,,,
,,,,5c7ee0e760ad890001151526,A,2024-07-08_15h01.08.105,Slot Machine Game,2023.1.3,Win32,59.88023952,,,,,,,,,,,,,,,,,,,,,,,,,,,1120,,,,,,,,,,,,,,,,,,,,,5,5,,,460.6923,14,up,0.1818,,0.5,0.3,"[3,1,2]",0.234343252,stimuli/card_100_transparent.png,100,14,0,14,0,1,,,,,,,,,,
,,,,5c7ee0e760ad890001151526,A,2024-07-08_15h01.08.105,Slot Machine Game,2023.1.3,Win32,59.88023952,,,,,,,,,,,,,,,,,,,,,,,,,,,,,,,,,,,462.1707,,,,,,,,,,,,,,,,,,,,,,,,,,,,,,,,,"[910,1030,930,920,1120]",4,0,4,0,1,,,,
,,,,5c7ee0e760ad890001151526,A,2024-07-08_15h01.08.105,Slot Machine Game,2023.1.3,Win32,59.88023952,,,,,,,,,,,,,,,,,,,,,,,,,,,100,,,,,,,,,,,,,,,,,,,,,6,6,"[4,10,15]","[[2,3,1],[1,3,2],[3,2,1]]",467.1738,0,right,0.0925,,1,0.3,"[2,3,1]",0.709931948,stimuli/card_100_transparent.png,100,0,0,0,0,1,,,,,,,,,,
,,,,5c7ee0e760ad890001151526,A,2024-07-08_15h01.08.105,Slot Machine Game,2023.1.3,Win32,59.88023952,,,,,,,,,,,,,,,,,,,,,,,,,,,200,,,,,,,,,,,,,,,,,,,,,6,6,,,469.0909,1,right,0.0795,,0.5,0.3,"[2,3,1]",0.804819614,stimuli/card_100_transparent.png,100,1,0,1,0,1,,,,,,,,,,
,,,,5c7ee0e760ad890001151526,A,2024-07-08_15h01.08.105,Slot Machine Game,2023.1.3,Win32,59.88023952,,,,,,,,,,,,,,,,,,,,,,,,,,,200,,,,,,,,,,,,,,,,,,,,,6,6,,,470.5056,2,right,0.169,,1.5,0.3,"[2,3,1]",0.048007505,stimuli/card_0_transparent.png,0,2,0,2,0,1,,,,,,,,,,
,,,,5c7ee0e760ad890001151526,A,2024-07-08_15h01.08.105,Slot Machine Game,2023.1.3,Win32,59.88023952,,,,,,,,,,,,,,,,,,,,,,,,,,,210,,,,,,,,,,,,,,,,,,,,,6,6,,,473.0055,3,left,0.3005,,0.5,0.3,"[2,3,1]",0.738346181,stimuli/card_10_transparent.png,10,3,0,3,0,1,,,,,,,,,,
,,,,5c7ee0e760ad890001151526,A,2024-07-08_15h01.08.105,Slot Machine Game,2023.1.3,Win32,59.88023952,,,,,,,,,,,,,,,,,,,,,,,,,,,310,,,,,,,,,,,,,,,,,,,,,6,6,,,474.6342,4,up,0.4673,,0.5,0.3,"[1,3,2]",0.096603956,stimuli/card_100_transparent.png,100,4,0,4,0,1,,,,,,,,,,
,,,,5c7ee0e760ad890001151526,A,2024-07-08_15h01.08.105,Slot Machine Game,2023.1.3,Win32,59.88023952,,,,,,,,,,,,,,,,,,,,,,,,,,,320,,,,,,,,,,,,,,,,,,,,,6,6,,,476.437,5,up,0.2998,,1,0.3,"[1,3,2]",0.185071657,stimuli/card_10_transparent.png,10,5,0,5,0,1,,,,,,,,,,
,,,,5c7ee0e760ad890001151526,A,2024-07-08_15h01.08.105,Slot Machine Game,2023.1.3,Win32,59.88023952,,,,,,,,,,,,,,,,,,,,,,,,,,,330,,,,,,,,,,,,,,,,,,,,,6,6,,,478.5389,6,up,0.2835,,0.5,0.3,"[1,3,2]",0.159402731,stimuli/card_10_transparent.png,10,6,0,6,0,1,,,,,,,,,,
,,,,5c7ee0e760ad890001151526,A,2024-07-08_15h01.08.105,Slot Machine Game,2023.1.3,Win32,59.88023952,,,,,,,,,,,,,,,,,,,,,,,,,,,340,,,,,,,,,,,,,,,,,,,,,6,6,,,480.147,7,right,0.0234,,1.5,0.3,"[1,3,2]",0.362822124,stimuli/card_10_transparent.png,10,7,0,7,0,1,,,,,,,,,,
,,,,5c7ee0e760ad890001151526,A,2024-07-08_15h01.08.105,Slot Machine Game,2023.1.3,Win32,59.88023952,,,,,,,,,,,,,,,,,,,,,,,,,,,350,,,,,,,,,,,,,,,,,,,,,6,6,,,482.4962,8,left,0.5323,,1,0.3,"[1,3,2]",0.168834931,stimuli/card_10_transparent.png,10,8,0,8,0,1,,,,,,,,,,
,,,,5c7ee0e760ad890001151526,A,2024-07-08_15h01.08.105,Slot Machine Game,2023.1.3,Win32,59.88023952,,,,,,,,,,,,,,,,,,,,,,,,,,,350,,,,,,,,,,,,,,,,,,,,,6,6,,,484.8555,9,up,0.2394,,0.5,0.3,"[1,3,2]",0.816807242,stimuli/card_0_transparent.png,0,9,0,9,0,1,,,,,,,,,,
,,,,5c7ee0e760ad890001151526,A,2024-07-08_15h01.08.105,Slot Machine Game,2023.1.3,Win32,59.88023952,,,,,,,,,,,,,,,,,,,,,,,,,,,450,,,,,,,,,,,,,,,,,,,,,6,6,,,486.4301,10,right,0.2204,,0.5,0.3,"[3,2,1]",0.924950861,stimuli/card_100_transparent.png,100,10,0,10,0,1,,,,,,,,,,
,,,,5c7ee0e760ad890001151526,A,2024-07-08_15h01.08.105,Slot Machine Game,2023.1.3,Win32,59.88023952,,,,,,,,,,,,,,,,,,,,,,,,,,,550,,,,,,,,,,,,,,,,,,,,,6,6,,,487.9835,11,right,0.0994,,0.5,0.3,"[3,2,1]",0.793089529,stimuli/card_100_transparent.png,100,11,0,11,0,1,,,,,,,,,,
,,,,5c7ee0e760ad890001151526,A,2024-07-08_15h01.08.105,Slot Machine Game,2023.1.3,Win32,59.88023952,,,,,,,,,,,,,,,,,,,,,,,,,,,650,,,,,,,,,,,,,,,,,,,,,6,6,,,489.4341,12,right,0.0003,,1.5,0.3,"[3,2,1]",0.581590014,stimuli/card_100_transparent.png,100,12,0,12,0,1,,,,,,,,,,
,,,,5c7ee0e760ad890001151526,A,2024-07-08_15h01.08.105,Slot Machine Game,2023.1.3,Win32,59.88023952,,,,,,,,,,,,,,,,,,,,,,,,,,,650,,,,,,,,,,,,,,,,,,,,,6,6,,,491.7812,13,right,0.1276,,1,0.3,"[3,2,1]",0.010127172,stimuli/card_0_transparent.png,0,13,0,13,0,1,,,,,,,,,,
,,,,5c7ee0e760ad890001151526,A,2024-07-08_15h01.08.105,Slot Machine Game,2023.1.3,Win32,59.88023952,,,,,,,,,,,,,,,,,,,,,,,,,,,660,,,,,,,,,,,,,,,,,,,,,6,6,,,493.7384,14,right,0.1399,,1.5,0.3,"[3,2,1]",0.158187851,stimuli/card_10_transparent.png,10,14,0,14,0,1,,,,,,,,,,
,,,,5c7ee0e760ad890001151526,A,2024-07-08_15h01.08.105,Slot Machine Game,2023.1.3,Win32,59.88023952,,,,,,,,,,,,,,,,,,,,,,,,,,,,,,,,,,,496.2071,,,,,,,,,,,,,,,,,,,,,,,,,,,,,,,,,"[910,1030,930,920,1120,660]",5,0,5,0,1,,,,
,,,,5c7ee0e760ad890001151526,A,2024-07-08_15h01.08.105,Slot Machine Game,2023.1.3,Win32,59.88023952,,,,,,,,,,,,,,,,,,,,,,,,,,,100,,,,,,,,,,,,,,,,,,,,,7,7,"[9,15]","[[1,3,2],[2,3,1]]",501.2103,0,left,0.8625,,0.5,0.3,"[1,3,2]",0.889752359,stimuli/card_100_transparent.png,100,0,0,0,0,1,,,,,,,,,,
,,,,5c7ee0e760ad890001151526,A,2024-07-08_15h01.08.105,Slot Machine Game,2023.1.3,Win32,59.88023952,,,,,,,,,,,,,,,,,,,,,,,,,,,200,,,,,,,,,,,,,,,,,,,,,7,7,,,503.4305,1,left,0.1718,,1.5,0.3,"[1,3,2]",0.766262628,stimuli/card_100_transparent.png,100,1,0,1,0,1,,,,,,,,,,
,,,,5c7ee0e760ad890001151526,A,2024-07-08_15h01.08.105,Slot Machine Game,2023.1.3,Win32,59.88023952,,,,,,,,,,,,,,,,,,,,,,,,,,,300,,,,,,,,,,,,,,,,,,,,,7,7,,,505.9536,2,left,0.1165,,1,0.3,"[1,3,2]",0.624335978,stimuli/card_100_transparent.png,100,2,0,2,0,1,,,,,,,,,,
,,,,5c7ee0e760ad890001151526,A,2024-07-08_15h01.08.105,Slot Machine Game,2023.1.3,Win32,59.88023952,,,,,,,,,,,,,,,,,,,,,,,,,,,400,,,,,,,,,,,,,,,,,,,,,7,7,,,507.8877,3,left,0.1194,,0.5,0.3,"[1,3,2]",0.993612564,stimuli/card_100_transparent.png,100,3,0,3,0,1,,,,,,,,,,
,,,,5c7ee0e760ad890001151526,A,2024-07-08_15h01.08.105,Slot Machine Game,2023.1.3,Win32,59.88023952,,,,,,,,,,,,,,,,,,,,,,,,,,,500,,,,,,,,,,,,,,,,,,,,,7,7,,,509.3312,4,left,0.0513,,1.5,0.3,"[1,3,2]",0.796929195,stimuli/card_100_transparent.png,100,4,0,4,0,1,,,,,,,,,,
,,,,5c7ee0e760ad890001151526,A,2024-07-08_15h01.08.105,Slot Machine Game,2023.1.3,Win32,59.88023952,,,,,,,,,,,,,,,,,,,,,,,,,,,500,,,,,,,,,,,,,,,,,,,,,7,7,,,511.6703,5,left,0.0982,,1,0.3,"[1,3,2]",0.067965428,stimuli/card_0_transparent.png,0,5,0,5,0,1,,,,,,,,,,
,,,,5c7ee0e760ad890001151526,A,2024-07-08_15h01.08.105,Slot Machine Game,2023.1.3,Win32,59.88023952,,,,,,,,,,,,,,,,,,,,,,,,,,,500,,,,,,,,,,,,,,,,,,,,,7,7,,,513.6027,6,up,0.1592,,1.5,0.3,"[1,3,2]",0.790770313,stimuli/card_0_transparent.png,0,6,0,6,0,1,,,,,,,,,,
,,,,5c7ee0e760ad890001151526,A,2024-07-08_15h01.08.105,Slot Machine Game,2023.1.3,Win32,59.88023952,,,,,,,,,,,,,,,,,,,,,,,,,,,510,,,,,,,,,,,,,,,,,,,,,7,7,,,516.0894,7,right,0.0545,,1,0.3,"[1,3,2]",0.238840315,stimuli/card_10_transparent.png,10,7,0,7,0,1,,,,,,,,,,
,,,,5c7ee0e760ad890001151526,A,2024-07-08_15h01.08.105,Slot Machine Game,2023.1.3,Win32,59.88023952,,,,,,,,,,,,,,,,,,,,,,,,,,,610,,,,,,,,,,,,,,,,,,,,,7,7,,,517.9802,8,left,0.2153,,0.5,0.3,"[1,3,2]",0.969552732,stimuli/card_100_transparent.png,100,8,0,8,0,1,,,,,,,,,,
,,,,5c7ee0e760ad890001151526,A,2024-07-08_15h01.08.105,Slot Machine Game,2023.1.3,Win32,59.88023952,,,,,,,,,,,,,,,,,,,,,,,,,,,620,,,,,,,,,,,,,,,,,,,,,7,7,,,519.5155,9,left,0.2758,,1.5,0.3,"[2,3,1]",0.59227739,stimuli/card_10_transparent.png,10,9,0,9,0,1,,,,,,,,,,
,,,,5c7ee0e760ad890001151526,A,2024-07-08_15h01.08.105,Slot Machine Game,2023.1.3,Win32,59.88023952,,,,,,,,,,,,,,,,,,,,,,,,,,,630,,,,,,,,,,,,,,,,,,,,,7,7,,,522.1221,10,left,0.0474,,1,0.3,"[2,3,1]",0.499662823,stimuli/card_10_transparent.png,10,10,0,10,0,1,,,,,,,,,,
,,,,5c7ee0e760ad890001151526,A,2024-07-08_15h01.08.105,Slot Machine Game,2023.1.3,Win32,59.88023952,,,,,,,,,,,,,,,,,,,,,,,,,,,640,,,,,,,,,,,,,,,,,,,,,7,7,,,524.0019,11,left,0.0004,,1,0.3,"[2,3,1]",0.330521787,stimuli/card_10_transparent.png,10,11,0,11,0,1,,,,,,,,,,
,,,,5c7ee0e760ad890001151526,A,2024-07-08_15h01.08.105,Slot Machine Game,2023.1.3,Win32,59.88023952,,,,,,,,,,,,,,,,,,,,,,,,,,,650,,,,,,,,,,,,,,,,,,,,,7,7,,,525.7803,12,up,0.1744,,1,0.3,"[2,3,1]",0.166292058,stimuli/card_10_transparent.png,10,12,0,12,0,1,,,,,,,,,,
,,,,5c7ee0e760ad890001151526,A,2024-07-08_15h01.08.105,Slot Machine Game,2023.1.3,Win32,59.88023952,,,,,,,,,,,,,,,,,,,,,,,,,,,750,,,,,,,,,,,,,,,,,,,,,7,7,,,527.7961,13,right,0.0558,,1.5,0.3,"[2,3,1]",0.772800368,stimuli/card_100_transparent.png,100,13,0,13,0,1,,,,,,,,,,
,,,,5c7ee0e760ad890001151526,A,2024-07-08_15h01.08.105,Slot Machine Game,2023.1.3,Win32,59.88023952,,,,,,,,,,,,,,,,,,,,,,,,,,,850,,,,,,,,,,,,,,,,,,,,,7,7,,,530.1983,14,right,0.1791,,1.5,0.3,"[2,3,1]",0.27364402,stimuli/card_100_transparent.png,100,14,0,14,0,1,,,,,,,,,,
,,,,5c7ee0e760ad890001151526,A,2024-07-08_15h01.08.105,Slot Machine Game,2023.1.3,Win32,59.88023952,,,,,,,,,,,,,,,,,,,,,,,,,,,,,,,,,,,532.7039,,,,,,,,,,,,,,,,,,,,,,,,,,,,,,,,,"[910,1030,930,920,1120,660,850]",6,0,6,0,1,,,,
,,,,5c7ee0e760ad890001151526,A,2024-07-08_15h01.08.105,Slot Machine Game,2023.1.3,Win32,59.88023952,,,,,,,,,,,,,,,,,,,,,,,,,,,100,,,,,,,,,,,,,,,,,,,,,8,8,"[11,15]","[[2,1,3],[1,2,3]]",537.7099,0,right,0.6799,,0.5,0.3,"[2,1,3]",0.035126498,stimuli/card_100_transparent.png,100,0,0,0,0,1,,,,,,,,,,
,,,,5c7ee0e760ad890001151526,A,2024-07-08_15h01.08.105,Slot Machine Game,2023.1.3,Win32,59.88023952,,,,,,,,,,,,,,,,,,,,,,,,,,,200,,,,,,,,,,,,,,,,,,,,,8,8,,,539.7154,1,right,0.0009,,1,0.3,"[2,1,3]",0.071164662,stimuli/card_100_transparent.png,100,1,0,1,0,1,,,,,,,,,,
,,,,5c7ee0e760ad890001151526,A,2024-07-08_15h01.08.105,Slot Machine Game,2023.1.3,Win32,59.88023952,,,,,,,,,,,,,,,,,,,,,,,,,,,200,,,,,,,,,,,,,,,,,,,,,8,8,,,541.5295,2,right,0.0256,,1,0.3,"[2,1,3]",0.531282661,stimuli/card_0_transparent.png,0,2,0,2,0,1,,,,,,,,,,
,,,,5c7ee0e760ad890001151526,A,2024-07-08_15h01.08.105,Slot Machine Game,2023.1.3,Win32,59.88023952,,,,,,,,,,,,,,,,,,,,,,,,,,,200,,,,,,,,,,,,,,,,,,,,,8,8,,,543.3698,3,right,0.2597,,1,0.3,"[2,1,3]",0.206572273,stimuli/card_0_transparent.png,0,3,0,3,0,1,,,,,,,,,,
,,,,5c7ee0e760ad890001151526,A,2024-07-08_15h01.08.105,Slot Machine Game,2023.1.3,Win32,59.88023952,,,,,,,,,,,,,,,,,,,,,,,,,,,300,,,,,,,,,,,,,,,,,,,,,8,8,,,545.479,4,up,0.2234,,1,0.3,"[2,1,3]",0.87943049,stimuli/card_100_transparent.png,100,4,0,4,0,1,,,,,,,,,,
,,,,5c7ee0e760ad890001151526,A,2024-07-08_15h01.08.105,Slot Machine Game,2023.1.3,Win32,59.88023952,,,,,,,,,,,,,,,,,,,,,,,,,,,300,,,,,,,,,,,,,,,,,,,,,8,8,,,547.5326,5,up,0.1991,,1.5,0.3,"[2,1,3]",0.05742431,stimuli/card_0_transparent.png,0,5,0,5,0,1,,,,,,,,,,
,,,,5c7ee0e760ad890001151526,A,2024-07-08_15h01.08.105,Slot Machine Game,2023.1.3,Win32,59.88023952,,,,,,,,,,,,,,,,,,,,,,,,,,,400,,,,,,,,,,,,,,,,,,,,,8,8,,,550.0668,6,up,0.1999,,1.5,0.3,"[2,1,3]",0.726371585,stimuli/card_100_transparent.png,100,6,0,6,0,1,,,,,,,,,,
,,,,5c7ee0e760ad890001151526,A,2024-07-08_15h01.08.105,Slot Machine Game,2023.1.3,Win32,59.88023952,,,,,,,,,,,,,,,,,,,,,,,,,,,410,,,,,,,,,,,,,,,,,,,,,8,8,,,552.5569,7,up,0.1691,,1,0.3,"[2,1,3]",0.12606719,stimuli/card_10_transparent.png,10,7,0,7,0,1,,,,,,,,,,
,,,,5c7ee0e760ad890001151526,A,2024-07-08_15h01.08.105,Slot Machine Game,2023.1.3,Win32,59.88023952,,,,,,,,,,,,,,,,,,,,,,,,,,,510,,,,,,,,,,,,,,,,,,,,,8,8,,,554.5455,8,up,0.0255,,0.5,0.3,"[2,1,3]",0.300072593,stimuli/card_100_transparent.png,100,8,0,8,0,1,,,,,,,,,,
,,,,5c7ee0e760ad890001151526,A,2024-07-08_15h01.08.105,Slot Machine Game,2023.1.3,Win32,59.88023952,,,,,,,,,,,,,,,,,,,,,,,,,,,610,,,,,,,,,,,,,,,,,,,,,8,8,,,555.9194,9,up,0.0722,,0.5,0.3,"[2,1,3]",0.414883748,stimuli/card_100_transparent.png,100,9,0,9,0,1,,,,,,,,,,
,,,,5c7ee0e760ad890001151526,A,2024-07-08_15h01.08.105,Slot Machine Game,2023.1.3,Win32,59.88023952,,,,,,,,,,,,,,,,,,,,,,,,,,,710,,,,,,,,,,,,,,,,,,,,,8,8,,,557.2934,10,up,0.0252,,0.5,0.3,"[2,1,3]",0.997012341,stimuli/card_100_transparent.png,100,10,0,10,0,1,,,,,,,,,,
,,,,5c7ee0e760ad890001151526,A,2024-07-08_15h01.08.105,Slot Machine Game,2023.1.3,Win32,59.88023952,,,,,,,,,,,,,,,,,,,,,,,,,,,720,,,,,,,,,,,,,,,,,,,,,8,8,,,558.6029,11,up,0.0005,,1,0.3,"[1,2,3]",0.743747569,stimuli/card_10_transparent.png,10,11,0,11,0,1,,,,,,,,,,
,,,,5c7ee0e760ad890001151526,A,2024-07-08_15h01.08.105,Slot Machine Game,2023.1.3,Win32,59.88023952,,,,,,,,,,,,,,,,,,,,,,,,,,,730,,,,,,,,,,,,,,,,,,,,,8,8,,,560.4455,12,up,0.0517,,1.5,0.3,"[1,2,3]",0.510525053,stimuli/card_10_transparent.png,10,12,0,12,0,1,,,,,,,,,,
,,,,5c7ee0e760ad890001151526,A,2024-07-08_15h01.08.105,Slot Machine Game,2023.1.3,Win32,59.88023952,,,,,,,,,,,,,,,,,,,,,,,,,,,830,,,,,,,,,,,,,,,,,,,,,8,8,,,562.8201,13,up,0.1064,,1.5,0.3,"[1,2,3]",0.145553044,stimuli/card_100_transparent.png,100,13,0,13,0,1,,,,,,,,,,
,,,,5c7ee0e760ad890001151526,A,2024-07-08_15h01.08.105,Slot Machine Game,2023.1.3,Win32,59.88023952,,,,,,,,,,,,,,,,,,,,,,,,,,,840,,,,,,,,,,,,,,,,,,,,,8,8,,,565.2375,14,up,0.0007,,1.5,0.3,"[1,2,3]",0.710679693,stimuli/card_10_transparent.png,10,14,0,14,0,1,,,,,,,,,,
,,,,5c7ee0e760ad890001151526,A,2024-07-08_15h01.08.105,Slot Machine Game,2023.1.3,Win32,59.88023952,,,,,,,,,,,,,,,,,,,,,,,,,,,,,,,,,,,567.5958,,,,,,,,,,,,,,,,,,,,,,,,,,,,,,,,,"[910,1030,930,920,1120,660,850,840]",7,0,7,0,1,,,,
,,,,5c7ee0e760ad890001151526,A,2024-07-08_15h01.08.105,Slot Machine Game,2023.1.3,Win32,59.88023952,,,,,,,,,,,,,,,,,,,,,,,,,,,0,,,,,,,,,,,,,,,,,,,,,9,9,"[8,15]","[[3,2,1],[3,1,2]]",572.5961,0,left,0.0519,,1,0.3,"[3,2,1]",0.901920816,stimuli/card_0_transparent.png,0,0,0,0,0,1,,,,,,,,,,
,,,,5c7ee0e760ad890001151526,A,2024-07-08_15h01.08.105,Slot Machine Game,2023.1.3,Win32,59.88023952,,,,,,,,,,,,,,,,,,,,,,,,,,,10,,,,,,,,,,,,,,,,,,,,,9,9,,,574.4457,1,up,0.0005,,1.5,0.3,"[3,2,1]",0.711668838,stimuli/card_10_transparent.png,10,1,0,1,0,1,,,,,,,,,,
,,,,5c7ee0e760ad890001151526,A,2024-07-08_15h01.08.105,Slot Machine Game,2023.1.3,Win32,59.88023952,,,,,,,,,,,,,,,,,,,,,,,,,,,110,,,,,,,,,,,,,,,,,,,,,9,9,,,576.7638,2,right,0.388,,1.5,0.3,"[3,2,1]",0.490408685,stimuli/card_100_transparent.png,100,2,0,2,0,1,,,,,,,,,,
,,,,5c7ee0e760ad890001151526,A,2024-07-08_15h01.08.105,Slot Machine Game,2023.1.3,Win32,59.88023952,,,,,,,,,,,,,,,,,,,,,,,,,,,210,,,,,,,,,,,,,,,,,,,,,9,9,,,579.4995,3,right,0.0968,,1,0.3,"[3,2,1]",0.762953412,stimuli/card_100_transparent.png,100,3,0,3,0,1,,,,,,,,,,
,,,,5c7ee0e760ad890001151526,A,2024-07-08_15h01.08.105,Slot Machine Game,2023.1.3,Win32,59.88023952,,,,,,,,,,,,,,,,,,,,,,,,,,,310,,,,,,,,,,,,,,,,,,,,,9,9,,,581.417,4,right,0.4132,,0.5,0.3,"[3,2,1]",0.992689785,stimuli/card_100_transparent.png,100,4,0,4,0,1,,,,,,,,,,
,,,,5c7ee0e760ad890001151526,A,2024-07-08_15h01.08.105,Slot Machine Game,2023.1.3,Win32,59.88023952,,,,,,,,,,,,,,,,,,,,,,,,,,,410,,,,,,,,,,,,,,,,,,,,,9,9,,,583.1837,5,right,0.1672,,1.5,0.3,"[3,2,1]",0.974051829,stimuli/card_100_transparent.png,100,5,0,5,0,1,,,,,,,,,,
,,,,5c7ee0e760ad890001151526,A,2024-07-08_15h01.08.105,Slot Machine Game,2023.1.3,Win32,59.88023952,,,,,,,,,,,,,,,,,,,,,,,,,,,510,,,,,,,,,,,,,,,,,,,,,9,9,,,585.7181,6,right,0.0005,,1,0.3,"[3,2,1]",0.466796895,stimuli/card_100_transparent.png,100,6,0,6,0,1,,,,,,,,,,
,,,,5c7ee0e760ad890001151526,A,2024-07-08_15h01.08.105,Slot Machine Game,2023.1.3,Win32,59.88023952,,,,,,,,,,,,,,,,,,,,,,,,,,,610,,,,,,,,,,,,,,,,,,,,,9,9,,,587.5546,7,right,0.0913,,0.5,0.3,"[3,2,1]",0.54151224,stimuli/card_100_transparent.png,100,7,0,7,0,1,,,,,,,,,,
,,,,5c7ee0e760ad890001151526,A,2024-07-08_15h01.08.105,Slot Machine Game,2023.1.3,Win32,59.88023952,,,,,,,,,,,,,,,,,,,,,,,,,,,620,,,,,,,,,,,,,,,,,,,,,9,9,,,588.9846,8,right,0.1233,,1,0.3,"[3,1,2]",0.959050893,stimuli/card_10_transparent.png,10,8,0,8,0,1,,,,,,,,,,
,,,,5c7ee0e760ad890001151526,A,2024-07-08_15h01.08.105,Slot Machine Game,2023.1.3,Win32,59.88023952,,,,,,,,,,,,,,,,,,,,,,,,,,,630,,,,,,,,,,,,,,,,,,,,,9,9,,,590.97,9,right,0.0257,,1,0.3,"[3,1,2]",0.591099339,stimuli/card_10_transparent.png,10,9,0,9,0,1,,,,,,,,,,
,,,,5c7ee0e760ad890001151526,A,2024-07-08_15h01.08.105,Slot Machine Game,2023.1.3,Win32,59.88023952,,,,,,,,,,,,,,,,,,,,,,,,,,,730,,,,,,,,,,,,,,,,,,,,,9,9,,,592.7998,10,up,0.0224,,1,0.3,"[3,1,2]",0.514094772,stimuli/card_100_transparent.png,100,10,0,10,0,1,,,,,,,,,,
,,,,5c7ee0e760ad890001151526,A,2024-07-08_15h01.08.105,Slot Machine Game,2023.1.3,Win32,59.88023952,,,,,,,,,,,,,,,,,,,,,,,,,,,830,,,,,,,,,,,,,,,,,,,,,9,9,,,594.6699,11,up,0.084,,1,0.3,"[3,1,2]",0.904592034,stimuli/card_100_transparent.png,100,11,0,11,0,1,,,,,,,,,,
,,,,5c7ee0e760ad890001151526,A,2024-07-08_15h01.08.105,Slot Machine Game,2023.1.3,Win32,59.88023952,,,,,,,,,,,,,,,,,,,,,,,,,,,830,,,,,,,,,,,,,,,,,,,,,9,9,,,596.6023,12,up,0.0006,,1,0.3,"[3,1,2]",0.024377893,stimuli/card_0_transparent.png,0,12,0,12,0,1,,,,,,,,,,
,,,,5c7ee0e760ad890001151526,A,2024-07-08_15h01.08.105,Slot Machine Game,2023.1.3,Win32,59.88023952,,,,,,,,,,,,,,,,,,,,,,,,,,,930,,,,,,,,,,,,,,,,,,,,,9,9,,,598.4277,13,up,0.0908,,1.5,0.3,"[3,1,2]",0.706332736,stimuli/card_100_transparent.png,100,13,0,13,0,1,,,,,,,,,,
,,,,5c7ee0e760ad890001151526,A,2024-07-08_15h01.08.105,Slot Machine Game,2023.1.3,Win32,59.88023952,,,,,,,,,,,,,,,,,,,,,,,,,,,1030,,,,,,,,,,,,,,,,,,,,,9,9,,,600.858,14,up,0.1275,,0.5,0.3,"[3,1,2]",0.96145373,stimuli/card_100_transparent.png,100,14,0,14,0,1,,,,,,,,,,
,,,,5c7ee0e760ad890001151526,A,2024-07-08_15h01.08.105,Slot Machine Game,2023.1.3,Win32,59.88023952,,,,,,,,,,,,,,,,,,,,,,,,,,,,,,,,,,,602.3045,,,,,,,,,,,,,,,,,,,,,,,,,,,,,,,,,"[910,1030,930,920,1120,660,850,840,1030]",8,0,8,0,1,,,,
,,,,5c7ee0e760ad890001151526,A,2024-07-08_15h01.08.105,Slot Machine Game,2023.1.3,Win32,59.88023952,,,,,,,,,,,,,,,,,,,,,,,,,,,100,,,,,,,,,,,,,,,,,,,,,10,10,"[10,15]","[[3,1,2],[1,3,2]]",607.3037,0,up,0.1274,,1,0.3,"[3,1,2]",0.82901545,stimuli/card_100_transparent.png,100,0,0,0,0,1,,,,,,,,,,
,,,,5c7ee0e760ad890001151526,A,2024-07-08_15h01.08.105,Slot Machine Game,2023.1.3,Win32,59.88023952,,,,,,,,,,,,,,,,,,,,,,,,,,,100,,,,,,,,,,,,,,,,,,,,,10,10,,,609.2827,1,up,0.0706,,1,0.3,"[3,1,2]",0.016441897,stimuli/card_0_transparent.png,0,1,0,1,0,1,,,,,,,,,,
,,,,5c7ee0e760ad890001151526,A,2024-07-08_15h01.08.105,Slot Machine Game,2023.1.3,Win32,59.88023952,,,,,,,,,,,,,,,,,,,,,,,,,,,200,,,,,,,,,,,,,,,,,,,,,10,10,,,611.1864,2,up,0.0704,,0.5,0.3,"[3,1,2]",0.742401441,stimuli/card_100_transparent.png,100,2,0,2,0,1,,,,,,,,,,
,,,,5c7ee0e760ad890001151526,A,2024-07-08_15h01.08.105,Slot Machine Game,2023.1.3,Win32,59.88023952,,,,,,,,,,,,,,,,,,,,,,,,,,,210,,,,,,,,,,,,,,,,,,,,,10,10,,,612.5693,3,up,0.0504,,1.5,0.3,"[3,1,2]",0.126428051,stimuli/card_10_transparent.png,10,3,0,3,0,1,,,,,,,,,,
,,,,5c7ee0e760ad890001151526,A,2024-07-08_15h01.08.105,Slot Machine Game,2023.1.3,Win32,59.88023952,,,,,,,,,,,,,,,,,,,,,,,,,,,210,,,,,,,,,,,,,,,,,,,,,10,10,,,614.9522,4,up,0.5911,,1.5,0.3,"[3,1,2]",0.060450148,stimuli/card_0_transparent.png,0,4,0,4,0,1,,,,,,,,,,
,,,,5c7ee0e760ad890001151526,A,2024-07-08_15h01.08.105,Slot Machine Game,2023.1.3,Win32,59.88023952,,,,,,,,,,,,,,,,,,,,,,,,,,,210,,,,,,,,,,,,,,,,,,,,,10,10,,,617.8985,5,left,0.245,,1,0.3,"[3,1,2]",0.428740508,stimuli/card_0_transparent.png,0,5,0,5,0,1,,,,,,,,,,
,,,,5c7ee0e760ad890001151526,A,2024-07-08_15h01.08.105,Slot Machine Game,2023.1.3,Win32,59.88023952,,,,,,,,,,,,,,,,,,,,,,,,,,,220,,,,,,,,,,,,,,,,,,,,,10,10,,,619.9763,6,right,0.0006,,0.5,0.3,"[3,1,2]",0.745047548,stimuli/card_10_transparent.png,10,6,0,6,0,1,,,,,,,,,,
,,,,5c7ee0e760ad890001151526,A,2024-07-08_15h01.08.105,Slot Machine Game,2023.1.3,Win32,59.88023952,,,,,,,,,,,,,,,,,,,,,,,,,,,320,,,,,,,,,,,,,,,,,,,,,10,10,,,621.3046,7,up,0.2942,,1.5,0.3,"[3,1,2]",0.386044993,stimuli/card_100_transparent.png,100,7,0,7,0,1,,,,,,,,,,
,,,,5c7ee0e760ad890001151526,A,2024-07-08_15h01.08.105,Slot Machine Game,2023.1.3,Win32,59.88023952,,,,,,,,,,,,,,,,,,,,,,,,,,,420,,,,,,,,,,,,,,,,,,,,,10,10,,,623.9184,8,up,0.0005,,1,0.3,"[3,1,2]",0.693481238,stimuli/card_100_transparent.png,100,8,0,8,0,1,,,,,,,,,,
,,,,5c7ee0e760ad890001151526,A,2024-07-08_15h01.08.105,Slot Machine Game,2023.1.3,Win32,59.88023952,,,,,,,,,,,,,,,,,,,,,,,,,,,520,,,,,,,,,,,,,,,,,,,,,10,10,,,625.7785,9,up,0.3761,,0.5,0.3,"[3,1,2]",0.710641537,stimuli/card_100_transparent.png,100,9,0,9,0,1,,,,,,,,,,
,,,,5c7ee0e760ad890001151526,A,2024-07-08_15h01.08.105,Slot Machine Game,2023.1.3,Win32,59.88023952,,,,,,,,,,,,,,,,,,,,,,,,,,,520,,,,,,,,,,,,,,,,,,,,,10,10,,,627.4641,10,up,0.1156,,1.5,0.3,"[1,3,2]",0.227625633,stimuli/card_0_transparent.png,0,10,0,10,0,1,,,,,,,,,,
,,,,5c7ee0e760ad890001151526,A,2024-07-08_15h01.08.105,Slot Machine Game,2023.1.3,Win32,59.88023952,,,,,,,,,,,,,,,,,,,,,,,,,,,520,,,,,,,,,,,,,,,,,,,,,10,10,,,629.9045,11,up,0.0294,,1,0.3,"[1,3,2]",0.886527866,stimuli/card_0_transparent.png,0,11,0,11,0,1,,,,,,,,,,
,,,,5c7ee0e760ad890001151526,A,2024-07-08_15h01.08.105,Slot Machine Game,2023.1.3,Win32,59.88023952,,,,,,,,,,,,,,,,,,,,,,,,,,,530,,,,,,,,,,,,,,,,,,,,,10,10,,,631.7544,12,right,0.316,,1.5,0.3,"[1,3,2]",0.671020703,stimuli/card_10_transparent.png,10,12,0,12,0,1,,,,,,,,,,
,,,,5c7ee0e760ad890001151526,A,2024-07-08_15h01.08.105,Slot Machine Game,2023.1.3,Win32,59.88023952,,,,,,,,,,,,,,,,,,,,,,,,,,,630,,,,,,,,,,,,,,,,,,,,,10,10,,,634.4136,13,left,0.1124,,0.5,0.3,"[1,3,2]",0.798654468,stimuli/card_100_transparent.png,100,13,0,13,0,1,,,,,,,,,,
,,,,5c7ee0e760ad890001151526,A,2024-07-08_15h01.08.105,Slot Machine Game,2023.1.3,Win32,59.88023952,,,,,,,,,,,,,,,,,,,,,,,,,,,630,,,,,,,,,,,,,,,,,,,,,10,10,,,635.8639,14,left,0.1002,,0.5,0.3,"[1,3,2]",0.041531784,stimuli/card_0_transparent.png,0,14,0,14,0,1,,,,,,,,,,
,,,,5c7ee0e760ad890001151526,A,2024-07-08_15h01.08.105,Slot Machine Game,2023.1.3,Win32,59.88023952,,,,,,,,,,,,,,,,,,,,,,,,,,,,,,,,,,,637.2735,,,,,,,,,,,,,,,,,,,,,,,,,,,,,,,,,"[910,1030,930,920,1120,660,850,840,1030,630]",9,0,9,0,1,,,,
,,,,5c7ee0e760ad890001151526,A,2024-07-08_15h01.08.105,Slot Machine Game,2023.1.3,Win32,59.88023952,,,,,,,,,,,,,,,,,,,,,,,,,,,,,,,,,,,,,,,,,,,,,,,,,,,,,,,,,,,,,,,,,,,,,,,,,,9,"[910,1030,930,920,1120,660,850,840,1030,630]",9.1,2024-07-08_15h11.54.528
