key_resp_welcome_started,key_resp_welcome_keys,key_resp_welcome_rt,key_resp_welcome_duration,prolific_id,path_id,date,expName,psychopyVersion,OS,frameRate,key_resp_instruction1_started,key_resp_instruction1_keys,key_resp_instruction1_rt,key_resp_instruction1_duration,key_resp_instruction2_started,key_resp_instruction2_keys,key_resp_instruction2_rt,key_resp_instruction2_duration,key_resp_instruction3_started,key_resp_instruction3_keys,key_resp_instruction3_rt,key_resp_instruction3_duration,key_resp_instruction4_started,key_resp_instruction4_keys,key_resp_instruction4_rt,key_resp_instruction4_duration,practiceCondition,practice_reward_seqs,practice_trial_started,practice_trial_num,practice_resp_rt,practice_resp_duration,practice_resp_keys,prac_presentationInterval,"practice_reward_seq: 2,1,3",reward_img,cumulative_reward,trial_reward,practice_trials.thisRepN,practice_trials.thisTrialN,practice_trials.thisN,practice_trials.thisIndex,practice_trials.ran,"practice_reward_seq: 2,3,1",block_break_started,"practice_reward_seq: 1,3,2","practice_reward_seq: 3,1,2",practice_end_time,practice_end_keys,practice_end_rt,practice_end_duration,main_instruction_text_started,block_condition,block_order_indices,main_instruction_keys,main_instruction_rt,main_instruction_duration,block_number,block_assignment,current_condition,main_reward_seqs,main_trial_started,main_trial_num,main_trial_keys,main_trial_rt,main_trial_duration,main_presentationInterval,reward_presentation_time,main_reward_seq,reward_rand_val,main_reward_img,current_reward,main_trials.thisRepN,main_trials.thisTrialN,main_trials.thisN,main_trials.thisIndex,main_trials.ran,block_reward,block.thisRepN,block.thisTrialN,block.thisN,block.thisIndex,block.ran,block_reward.length,block_reward_all,reward_amount,date_end_task
0.0003,right,4.3787,,5d05aa4b28d214001d06bb93,A,2024-07-02_02h27.48.415,Slot Machine Game,2023.1.3,Win32,120.4819277,,,,,,,,,,,,,,,,,,,,,,,,,,,,,,,,,,,,,,,,,,,,,,,,,,,,,,,,,,,,,,,,,,,,,,,,,,,,,
,,,,5d05aa4b28d214001d06bb93,A,2024-07-02_02h27.48.415,Slot Machine Game,2023.1.3,Win32,120.4819277,4.3837,right,11.9071,,,,,,,,,,,,,,,,,,,,,,,,,,,,,,,,,,,,,,,,,,,,,,,,,,,,,,,,,,,,,,,,,,,,,,,,,,
,,,,5d05aa4b28d214001d06bb93,A,2024-07-02_02h27.48.415,Slot Machine Game,2023.1.3,Win32,120.4819277,,,,,16.3014,right,33.7261,,,,,,,,,,,,,,,,,,,,,,,,,,,,,,,,,,,,,,,,,,,,,,,,,,,,,,,,,,,,,,,,,,,,,,
,,,,5d05aa4b28d214001d06bb93,A,2024-07-02_02h27.48.415,Slot Machine Game,2023.1.3,Win32,120.4819277,,,,,,,,,50.0481,right,7.2634,,,,,,,,,,,,,,,,,,,,,,,,,,,,,,,,,,,,,,,,,,,,,,,,,,,,,,,,,,,,,,,,,,
,,,,5d05aa4b28d214001d06bb93,A,2024-07-02_02h27.48.415,Slot Machine Game,2023.1.3,Win32,120.4819277,,,,,,,,,,,,,,,,,,,,,,,,,,,,,,,,,,,,,,,,,,,,,,,,,,,,,,,,,,,,,,,,,,,,,,,,,,,,,
,,,,5d05aa4b28d214001d06bb93,A,2024-07-02_02h27.48.415,Slot Machine Game,2023.1.3,Win32,120.4819277,,,,,,,,,,,,,198.9908,right,4.9826,,,,,,,,,,,,,,,,,,,,,,,,,,,,,,,,,,,,,,,,,,,,,,,,,,,,,,,,,,,,,,
,,,,5d05aa4b28d214001d06bb93,A,2024-07-02_02h27.48.415,Slot Machine Game,2023.1.3,Win32,120.4819277,,,,,,,,,,,,,,,,,"[9,15]","[[2,1,3],[2,3,1]]",203.994,0,1.7906,,left,0.5,,stimuli/card_10_transparent.png,10,10,0,0,0,0,1,,,,,,,,,,,,,,,,,,,,,,,,,,,,,,,,,,,,,,,,,,,,
,,,,5d05aa4b28d214001d06bb93,A,2024-07-02_02h27.48.415,Slot Machine Game,2023.1.3,Win32,120.4819277,,,,,,,,,,,,,,,,,,,207.0872,1,2.3929,,up,1.5,,stimuli/card_100_transparent.png,110,100,1,0,1,0,1,,,,,,,,,,,,,,,,,,,,,,,,,,,,,,,,,,,,,,,,,,,,
,,,,5d05aa4b28d214001d06bb93,A,2024-07-02_02h27.48.415,Slot Machine Game,2023.1.3,Win32,120.4819277,,,,,,,,,,,,,,,,,,,211.796,2,0.2469,,up,0.5,,stimuli/card_100_transparent.png,210,100,2,0,2,0,1,,,,,,,,,,,,,,,,,,,,,,,,,,,,,,,,,,,,,,,,,,,,
,,,,5d05aa4b28d214001d06bb93,A,2024-07-02_02h27.48.415,Slot Machine Game,2023.1.3,Win32,120.4819277,,,,,,,,,,,,,,,,,,,213.3462,3,0.4143,,up,1.5,,stimuli/card_100_transparent.png,310,100,3,0,3,0,1,,,,,,,,,,,,,,,,,,,,,,,,,,,,,,,,,,,,,,,,,,,,
,,,,5d05aa4b28d214001d06bb93,A,2024-07-02_02h27.48.415,Slot Machine Game,2023.1.3,Win32,120.4819277,,,,,,,,,,,,,,,,,,,216.0717,4,0.293,,up,0.5,,stimuli/card_100_transparent.png,410,100,4,0,4,0,1,,,,,,,,,,,,,,,,,,,,,,,,,,,,,,,,,,,,,,,,,,,,
,,,,5d05aa4b28d214001d06bb93,A,2024-07-02_02h27.48.415,Slot Machine Game,2023.1.3,Win32,120.4819277,,,,,,,,,,,,,,,,,,,217.6802,5,0.4122,,up,1.5,,stimuli/card_100_transparent.png,510,100,5,0,5,0,1,,,,,,,,,,,,,,,,,,,,,,,,,,,,,,,,,,,,,,,,,,,,
,,,,5d05aa4b28d214001d06bb93,A,2024-07-02_02h27.48.415,Slot Machine Game,2023.1.3,Win32,120.4819277,,,,,,,,,,,,,,,,,,,220.4055,6,0.0853,,up,1,,stimuli/card_100_transparent.png,610,100,6,0,6,0,1,,,,,,,,,,,,,,,,,,,,,,,,,,,,,,,,,,,,,,,,,,,,
,,,,5d05aa4b28d214001d06bb93,A,2024-07-02_02h27.48.415,Slot Machine Game,2023.1.3,Win32,120.4819277,,,,,,,,,,,,,,,,,,,222.2975,7,1.0627,,up,1,,stimuli/card_100_transparent.png,710,100,7,0,7,0,1,,,,,,,,,,,,,,,,,,,,,,,,,,,,,,,,,,,,,,,,,,,,
,,,,5d05aa4b28d214001d06bb93,A,2024-07-02_02h27.48.415,Slot Machine Game,2023.1.3,Win32,120.4819277,,,,,,,,,,,,,,,,,,,225.1729,8,0.1276,,up,0.5,,stimuli/card_100_transparent.png,810,100,8,0,8,0,1,,,,,,,,,,,,,,,,,,,,,,,,,,,,,,,,,,,,,,,,,,,,
,,,,5d05aa4b28d214001d06bb93,A,2024-07-02_02h27.48.415,Slot Machine Game,2023.1.3,Win32,120.4819277,,,,,,,,,,,,,,,,,,,226.6065,9,0.2548,,up,1,,stimuli/card_0_transparent.png,810,0,9,0,9,0,1,,,,,,,,,,,,,,,,,,,,,,,,,,,,,,,,,,,,,,,,,,,,
,,,,5d05aa4b28d214001d06bb93,A,2024-07-02_02h27.48.415,Slot Machine Game,2023.1.3,Win32,120.4819277,,,,,,,,,,,,,,,,,,,228.6734,10,0.0857,,up,1.5,,stimuli/card_100_transparent.png,910,100,10,0,10,0,1,,,,,,,,,,,,,,,,,,,,,,,,,,,,,,,,,,,,,,,,,,,,
,,,,5d05aa4b28d214001d06bb93,A,2024-07-02_02h27.48.415,Slot Machine Game,2023.1.3,Win32,120.4819277,,,,,,,,,,,,,,,,,,,231.0654,11,0.4897,,up,0.5,,stimuli/card_0_transparent.png,910,0,11,0,11,0,1,,,,,,,,,,,,,,,,,,,,,,,,,,,,,,,,,,,,,,,,,,,,
,,,,5d05aa4b28d214001d06bb93,A,2024-07-02_02h27.48.415,Slot Machine Game,2023.1.3,Win32,120.4819277,,,,,,,,,,,,,,,,,,,232.8573,12,0.5753,,up,1,,stimuli/card_0_transparent.png,910,0,12,0,12,0,1,,,,,,,,,,,,,,,,,,,,,,,,,,,,,,,,,,,,,,,,,,,,
,,,,5d05aa4b28d214001d06bb93,A,2024-07-02_02h27.48.415,Slot Machine Game,2023.1.3,Win32,120.4819277,,,,,,,,,,,,,,,,,,,235.2411,13,0.3369,,left,1,,stimuli/card_10_transparent.png,920,10,13,0,13,0,1,,,,,,,,,,,,,,,,,,,,,,,,,,,,,,,,,,,,,,,,,,,,
,,,,5d05aa4b28d214001d06bb93,A,2024-07-02_02h27.48.415,Slot Machine Game,2023.1.3,Win32,120.4819277,,,,,,,,,,,,,,,,,,,237.3914,14,0.3064,,right,1,,stimuli/card_0_transparent.png,920,0,14,0,14,0,1,,,,,,,,,,,,,,,,,,,,,,,,,,,,,,,,,,,,,,,,,,,,
,,,,5d05aa4b28d214001d06bb93,A,2024-07-02_02h27.48.415,Slot Machine Game,2023.1.3,Win32,120.4819277,,,,,,,,,,,,,,,,,"[6,15]","[[1,3,2],[3,1,2]]",244.5154,0,2.7455,,left,1.5,,stimuli/card_0_transparent.png,0,0,0,0,0,0,1,,239.5139,,,,,,,,,,,,,,,,,,,,,,,,,,,,,,,,,,,,,,,,,,
,,,,5d05aa4b28d214001d06bb93,A,2024-07-02_02h27.48.415,Slot Machine Game,2023.1.3,Win32,120.4819277,,,,,,,,,,,,,,,,,,,249.5681,1,0.5093,,up,0.5,,stimuli/card_0_transparent.png,0,0,1,0,1,0,1,,,,,,,,,,,,,,,,,,,,,,,,,,,,,,,,,,,,,,,,,,,,
,,,,5d05aa4b28d214001d06bb93,A,2024-07-02_02h27.48.415,Slot Machine Game,2023.1.3,Win32,120.4819277,,,,,,,,,,,,,,,,,,,251.3851,2,0.8709,,right,1.5,,stimuli/card_100_transparent.png,100,100,2,0,2,0,1,,,,,,,,,,,,,,,,,,,,,,,,,,,,,,,,,,,,,,,,,,,,
,,,,5d05aa4b28d214001d06bb93,A,2024-07-02_02h27.48.415,Slot Machine Game,2023.1.3,Win32,120.4819277,,,,,,,,,,,,,,,,,,,254.5605,3,0.0237,,right,0.5,,stimuli/card_10_transparent.png,110,10,3,0,3,0,1,,,,,,,,,,,,,,,,,,,,,,,,,,,,,,,,,,,,,,,,,,,,
,,,,5d05aa4b28d214001d06bb93,A,2024-07-02_02h27.48.415,Slot Machine Game,2023.1.3,Win32,120.4819277,,,,,,,,,,,,,,,,,,,255.8858,4,0.1433,,right,1,,stimuli/card_10_transparent.png,120,10,4,0,4,0,1,,,,,,,,,,,,,,,,,,,,,,,,,,,,,,,,,,,,,,,,,,,,
,,,,5d05aa4b28d214001d06bb93,A,2024-07-02_02h27.48.415,Slot Machine Game,2023.1.3,Win32,120.4819277,,,,,,,,,,,,,,,,,,,257.8443,5,0.7234,,left,1,,stimuli/card_100_transparent.png,220,100,5,0,5,0,1,,,,,,,,,,,,,,,,,,,,,,,,,,,,,,,,,,,,,,,,,,,,
,,,,5d05aa4b28d214001d06bb93,A,2024-07-02_02h27.48.415,Slot Machine Game,2023.1.3,Win32,120.4819277,,,,,,,,,,,,,,,,,,,260.378,6,0.0016,,left,0.5,,stimuli/card_0_transparent.png,220,0,6,0,6,0,1,,,,,,,,,,,,,,,,,,,,,,,,,,,,,,,,,,,,,,,,,,,,
,,,,5d05aa4b28d214001d06bb93,A,2024-07-02_02h27.48.415,Slot Machine Game,2023.1.3,Win32,120.4819277,,,,,,,,,,,,,,,,,,,261.6865,7,0.0367,,left,0.5,,stimuli/card_0_transparent.png,220,0,7,0,7,0,1,,,,,,,,,,,,,,,,,,,,,,,,,,,,,,,,,,,,,,,,,,,,
,,,,5d05aa4b28d214001d06bb93,A,2024-07-02_02h27.48.415,Slot Machine Game,2023.1.3,Win32,120.4819277,,,,,,,,,,,,,,,,,,,263.0285,8,0.4279,,right,1,,stimuli/card_0_transparent.png,220,0,8,0,8,0,1,,,,,,,,,,,,,,,,,,,,,,,,,,,,,,,,,,,,,,,,,,,,
,,,,5d05aa4b28d214001d06bb93,A,2024-07-02_02h27.48.415,Slot Machine Game,2023.1.3,Win32,120.4819277,,,,,,,,,,,,,,,,,,,265.2621,9,0.1309,,left,0.5,,stimuli/card_100_transparent.png,320,100,9,0,9,0,1,,,,,,,,,,,,,,,,,,,,,,,,,,,,,,,,,,,,,,,,,,,,
,,,,5d05aa4b28d214001d06bb93,A,2024-07-02_02h27.48.415,Slot Machine Game,2023.1.3,Win32,120.4819277,,,,,,,,,,,,,,,,,,,266.704,10,0.0206,,left,0.5,,stimuli/card_10_transparent.png,330,10,10,0,10,0,1,,,,,,,,,,,,,,,,,,,,,,,,,,,,,,,,,,,,,,,,,,,,
,,,,5d05aa4b28d214001d06bb93,A,2024-07-02_02h27.48.415,Slot Machine Game,2023.1.3,Win32,120.4819277,,,,,,,,,,,,,,,,,,,268.0375,11,0.4963,,left,1,,stimuli/card_0_transparent.png,330,0,11,0,11,0,1,,,,,,,,,,,,,,,,,,,,,,,,,,,,,,,,,,,,,,,,,,,,
,,,,5d05aa4b28d214001d06bb93,A,2024-07-02_02h27.48.415,Slot Machine Game,2023.1.3,Win32,120.4819277,,,,,,,,,,,,,,,,,,,270.3378,12,0.6481,,up,0.5,,stimuli/card_100_transparent.png,430,100,12,0,12,0,1,,,,,,,,,,,,,,,,,,,,,,,,,,,,,,,,,,,,,,,,,,,,
,,,,5d05aa4b28d214001d06bb93,A,2024-07-02_02h27.48.415,Slot Machine Game,2023.1.3,Win32,120.4819277,,,,,,,,,,,,,,,,,,,272.2881,13,0.3207,,up,1,,stimuli/card_100_transparent.png,530,100,13,0,13,0,1,,,,,,,,,,,,,,,,,,,,,,,,,,,,,,,,,,,,,,,,,,,,
,,,,5d05aa4b28d214001d06bb93,A,2024-07-02_02h27.48.415,Slot Machine Game,2023.1.3,Win32,120.4819277,,,,,,,,,,,,,,,,,,,274.4134,14,0.2261,,up,0.5,,stimuli/card_0_transparent.png,530,0,14,0,14,0,1,,,,,,,,,,,,,,,,,,,,,,,,,,,,,,,,,,,,,,,,,,,,
,,,,5d05aa4b28d214001d06bb93,A,2024-07-02_02h27.48.415,Slot Machine Game,2023.1.3,Win32,120.4819277,,,,,,,,,,,,,,,,,,,,,,,,,,,,,,,,,,,275.947,,,280.948,space,5.7552,,,,,,,,,,,,,,,,,,,,,,,,,,,,,,,,,,,,,
,,,,5d05aa4b28d214001d06bb93,A,2024-07-02_02h27.48.415,Slot Machine Game,2023.1.3,Win32,120.4819277,,,,,,,,,,,,,,,,,,,,,,,,,,,,,,,,,,,,,,,,,,286.7075,3,"[0,4,6,3,5,7,8,1,9,2]",space,1.4583,,,,,,,,,,,,,,,,,,,,,,,,,,,,,,,
,,,,5d05aa4b28d214001d06bb93,A,2024-07-02_02h27.48.415,Slot Machine Game,2023.1.3,Win32,120.4819277,,,,,,,,,,,,,,,,,,,,,,,,,,,10,,,,,,,,,,,,,,,,,,,,,1,1,"[12,15]","[[2,1,3],[2,3,1]]",288.1812,0,left,0.4346,,0.5,0.3,"[2,1,3]",0.950262889,stimuli/card_10_transparent.png,10,0,0,0,0,1,,,,,,,,,,
,,,,5d05aa4b28d214001d06bb93,A,2024-07-02_02h27.48.415,Slot Machine Game,2023.1.3,Win32,120.4819277,,,,,,,,,,,,,,,,,,,,,,,,,,,110,,,,,,,,,,,,,,,,,,,,,1,1,,,289.9243,1,up,2.4605,,0.5,0.3,"[2,1,3]",0.790014406,stimuli/card_100_transparent.png,100,1,0,1,0,1,,,,,,,,,,
,,,,5d05aa4b28d214001d06bb93,A,2024-07-02_02h27.48.415,Slot Machine Game,2023.1.3,Win32,120.4819277,,,,,,,,,,,,,,,,,,,,,,,,,,,110,,,,,,,,,,,,,,,,,,,,,1,1,,,293.6995,2,up,0.0173,,1.5,0.3,"[2,1,3]",0.065419806,stimuli/card_0_transparent.png,0,2,0,2,0,1,,,,,,,,,,
,,,,5d05aa4b28d214001d06bb93,A,2024-07-02_02h27.48.415,Slot Machine Game,2023.1.3,Win32,120.4819277,,,,,,,,,,,,,,,,,,,,,,,,,,,110,,,,,,,,,,,,,,,,,,,,,1,1,,,296.025,3,up,0.5016,,1.5,0.3,"[2,1,3]",0.086423012,stimuli/card_0_transparent.png,0,3,0,3,0,1,,,,,,,,,,
,,,,5d05aa4b28d214001d06bb93,A,2024-07-02_02h27.48.415,Slot Machine Game,2023.1.3,Win32,120.4819277,,,,,,,,,,,,,,,,,,,,,,,,,,,120,,,,,,,,,,,,,,,,,,,,,1,1,,,298.8419,4,left,0.4584,,1.5,0.3,"[2,1,3]",0.751734265,stimuli/card_10_transparent.png,10,4,0,4,0,1,,,,,,,,,,
,,,,5d05aa4b28d214001d06bb93,A,2024-07-02_02h27.48.415,Slot Machine Game,2023.1.3,Win32,120.4819277,,,,,,,,,,,,,,,,,,,,,,,,,,,120,,,,,,,,,,,,,,,,,,,,,1,1,,,301.6091,5,right,0.0424,,1,0.3,"[2,1,3]",0.3683108,stimuli/card_0_transparent.png,0,5,0,5,0,1,,,,,,,,,,
,,,,5d05aa4b28d214001d06bb93,A,2024-07-02_02h27.48.415,Slot Machine Game,2023.1.3,Win32,120.4819277,,,,,,,,,,,,,,,,,,,,,,,,,,,220,,,,,,,,,,,,,,,,,,,,,1,1,,,303.4677,6,right,0.2547,,0.5,0.3,"[2,1,3]",0.082442675,stimuli/card_100_transparent.png,100,6,0,6,0,1,,,,,,,,,,
,,,,5d05aa4b28d214001d06bb93,A,2024-07-02_02h27.48.415,Slot Machine Game,2023.1.3,Win32,120.4819277,,,,,,,,,,,,,,,,,,,,,,,,,,,230,,,,,,,,,,,,,,,,,,,,,1,1,,,305.0263,7,right,0.4618,,0.5,0.3,"[2,1,3]",0.161555343,stimuli/card_10_transparent.png,10,7,0,7,0,1,,,,,,,,,,
,,,,5d05aa4b28d214001d06bb93,A,2024-07-02_02h27.48.415,Slot Machine Game,2023.1.3,Win32,120.4819277,,,,,,,,,,,,,,,,,,,,,,,,,,,230,,,,,,,,,,,,,,,,,,,,,1,1,,,306.8015,8,right,0.191,,0.5,0.3,"[2,1,3]",0.575115865,stimuli/card_0_transparent.png,0,8,0,8,0,1,,,,,,,,,,
,,,,5d05aa4b28d214001d06bb93,A,2024-07-02_02h27.48.415,Slot Machine Game,2023.1.3,Win32,120.4819277,,,,,,,,,,,,,,,,,,,,,,,,,,,230,,,,,,,,,,,,,,,,,,,,,1,1,,,308.2933,9,up,0.2528,,1.5,0.3,"[2,1,3]",0.062244105,stimuli/card_0_transparent.png,0,9,0,9,0,1,,,,,,,,,,
,,,,5d05aa4b28d214001d06bb93,A,2024-07-02_02h27.48.415,Slot Machine Game,2023.1.3,Win32,120.4819277,,,,,,,,,,,,,,,,,,,,,,,,,,,240,,,,,,,,,,,,,,,,,,,,,1,1,,,310.8604,10,left,0.1709,,1.5,0.3,"[2,1,3]",0.784424919,stimuli/card_10_transparent.png,10,10,0,10,0,1,,,,,,,,,,
,,,,5d05aa4b28d214001d06bb93,A,2024-07-02_02h27.48.415,Slot Machine Game,2023.1.3,Win32,120.4819277,,,,,,,,,,,,,,,,,,,,,,,,,,,240,,,,,,,,,,,,,,,,,,,,,1,1,,,313.3357,11,right,0.3398,,1.5,0.3,"[2,1,3]",0.70875711,stimuli/card_0_transparent.png,0,11,0,11,0,1,,,,,,,,,,
,,,,5d05aa4b28d214001d06bb93,A,2024-07-02_02h27.48.415,Slot Machine Game,2023.1.3,Win32,120.4819277,,,,,,,,,,,,,,,,,,,,,,,,,,,240,,,,,,,,,,,,,,,,,,,,,1,1,,,315.9778,12,up,0.0268,,1,0.3,"[2,3,1]",0.895084736,stimuli/card_0_transparent.png,0,12,0,12,0,1,,,,,,,,,,
,,,,5d05aa4b28d214001d06bb93,A,2024-07-02_02h27.48.415,Slot Machine Game,2023.1.3,Win32,120.4819277,,,,,,,,,,,,,,,,,,,,,,,,,,,340,,,,,,,,,,,,,,,,,,,,,1,1,,,317.8197,13,right,0.3107,,1.5,0.3,"[2,3,1]",0.866879805,stimuli/card_100_transparent.png,100,13,0,13,0,1,,,,,,,,,,
,,,,5d05aa4b28d214001d06bb93,A,2024-07-02_02h27.48.415,Slot Machine Game,2023.1.3,Win32,120.4819277,,,,,,,,,,,,,,,,,,,,,,,,,,,350,,,,,,,,,,,,,,,,,,,,,1,1,,,320.4452,14,right,0.0796,,1.5,0.3,"[2,3,1]",0.187856344,stimuli/card_10_transparent.png,10,14,0,14,0,1,,,,,,,,,,
,,,,5d05aa4b28d214001d06bb93,A,2024-07-02_02h27.48.415,Slot Machine Game,2023.1.3,Win32,120.4819277,,,,,,,,,,,,,,,,,,,,,,,,,,,,,,,,,,,322.8372,,,,,,,,,,,,,,,,,,,,,,,,,,,,,,,,,[350],0,0,0,0,1,,,,
,,,,5d05aa4b28d214001d06bb93,A,2024-07-02_02h27.48.415,Slot Machine Game,2023.1.3,Win32,120.4819277,,,,,,,,,,,,,,,,,,,,,,,,,,,10,,,,,,,,,,,,,,,,,,,,,2,5,"[5,15]","[[1,2,3],[3,1,2]]",327.8439,0,up,0.4008,,1.5,0.3,"[1,2,3]",0.370200594,stimuli/card_10_transparent.png,10,0,0,0,0,1,,,,,,,,,,
,,,,5d05aa4b28d214001d06bb93,A,2024-07-02_02h27.48.415,Slot Machine Game,2023.1.3,Win32,120.4819277,,,,,,,,,,,,,,,,,,,,,,,,,,,20,,,,,,,,,,,,,,,,,,,,,2,5,,,330.555,1,up,2.1929,,0.5,0.3,"[1,2,3]",0.728255014,stimuli/card_10_transparent.png,10,1,0,1,0,1,,,,,,,,,,
,,,,5d05aa4b28d214001d06bb93,A,2024-07-02_02h27.48.415,Slot Machine Game,2023.1.3,Win32,120.4819277,,,,,,,,,,,,,,,,,,,,,,,,,,,30,,,,,,,,,,,,,,,,,,,,,2,5,,,334.0638,2,up,0.3234,,1,0.3,"[1,2,3]",0.530328588,stimuli/card_10_transparent.png,10,2,0,2,0,1,,,,,,,,,,
,,,,5d05aa4b28d214001d06bb93,A,2024-07-02_02h27.48.415,Slot Machine Game,2023.1.3,Win32,120.4819277,,,,,,,,,,,,,,,,,,,,,,,,,,,130,,,,,,,,,,,,,,,,,,,,,2,5,,,336.1974,3,left,0.0438,,0.5,0.3,"[1,2,3]",0.575557033,stimuli/card_100_transparent.png,100,3,0,3,0,1,,,,,,,,,,
,,,,5d05aa4b28d214001d06bb93,A,2024-07-02_02h27.48.415,Slot Machine Game,2023.1.3,Win32,120.4819277,,,,,,,,,,,,,,,,,,,,,,,,,,,230,,,,,,,,,,,,,,,,,,,,,2,5,,,337.5476,4,left,0.4193,,0.5,0.3,"[1,2,3]",0.86927009,stimuli/card_100_transparent.png,100,4,0,4,0,1,,,,,,,,,,
,,,,5d05aa4b28d214001d06bb93,A,2024-07-02_02h27.48.415,Slot Machine Game,2023.1.3,Win32,120.4819277,,,,,,,,,,,,,,,,,,,,,,,,,,,230,,,,,,,,,,,,,,,,,,,,,2,5,,,339.2728,5,left,0.3292,,1.5,0.3,"[3,1,2]",0.975924915,stimuli/card_0_transparent.png,0,5,0,5,0,1,,,,,,,,,,
,,,,5d05aa4b28d214001d06bb93,A,2024-07-02_02h27.48.415,Slot Machine Game,2023.1.3,Win32,120.4819277,,,,,,,,,,,,,,,,,,,,,,,,,,,240,,,,,,,,,,,,,,,,,,,,,2,5,,,341.9066,6,left,0.0143,,0.5,0.3,"[3,1,2]",0.193319914,stimuli/card_10_transparent.png,10,6,0,6,0,1,,,,,,,,,,
,,,,5d05aa4b28d214001d06bb93,A,2024-07-02_02h27.48.415,Slot Machine Game,2023.1.3,Win32,120.4819277,,,,,,,,,,,,,,,,,,,,,,,,,,,240,,,,,,,,,,,,,,,,,,,,,2,5,,,343.2234,7,left,0.1726,,1,0.3,"[3,1,2]",0.279130795,stimuli/card_0_transparent.png,0,7,0,7,0,1,,,,,,,,,,
,,,,5d05aa4b28d214001d06bb93,A,2024-07-02_02h27.48.415,Slot Machine Game,2023.1.3,Win32,120.4819277,,,,,,,,,,,,,,,,,,,,,,,,,,,250,,,,,,,,,,,,,,,,,,,,,2,5,,,345.1987,8,right,0.2849,,1.5,0.3,"[3,1,2]",0.554959197,stimuli/card_10_transparent.png,10,8,0,8,0,1,,,,,,,,,,
,,,,5d05aa4b28d214001d06bb93,A,2024-07-02_02h27.48.415,Slot Machine Game,2023.1.3,Win32,120.4819277,,,,,,,,,,,,,,,,,,,,,,,,,,,260,,,,,,,,,,,,,,,,,,,,,2,5,,,347.7907,9,right,0.7407,,1,0.3,"[3,1,2]",0.631720344,stimuli/card_10_transparent.png,10,9,0,9,0,1,,,,,,,,,,
,,,,5d05aa4b28d214001d06bb93,A,2024-07-02_02h27.48.415,Slot Machine Game,2023.1.3,Win32,120.4819277,,,,,,,,,,,,,,,,,,,,,,,,,,,360,,,,,,,,,,,,,,,,,,,,,2,5,,,350.3412,10,up,0.4062,,1.5,0.3,"[3,1,2]",0.238901549,stimuli/card_100_transparent.png,100,10,0,10,0,1,,,,,,,,,,
,,,,5d05aa4b28d214001d06bb93,A,2024-07-02_02h27.48.415,Slot Machine Game,2023.1.3,Win32,120.4819277,,,,,,,,,,,,,,,,,,,,,,,,,,,460,,,,,,,,,,,,,,,,,,,,,2,5,,,353.0583,11,up,0.0616,,0.5,0.3,"[3,1,2]",0.433568404,stimuli/card_100_transparent.png,100,11,0,11,0,1,,,,,,,,,,
,,,,5d05aa4b28d214001d06bb93,A,2024-07-02_02h27.48.415,Slot Machine Game,2023.1.3,Win32,120.4819277,,,,,,,,,,,,,,,,,,,,,,,,,,,560,,,,,,,,,,,,,,,,,,,,,2,5,,,354.4333,12,up,0.3567,,1,0.3,"[3,1,2]",0.657465533,stimuli/card_100_transparent.png,100,12,0,12,0,1,,,,,,,,,,
,,,,5d05aa4b28d214001d06bb93,A,2024-07-02_02h27.48.415,Slot Machine Game,2023.1.3,Win32,120.4819277,,,,,,,,,,,,,,,,,,,,,,,,,,,660,,,,,,,,,,,,,,,,,,,,,2,5,,,356.592,13,up,0.2473,,0.5,0.3,"[3,1,2]",0.363662807,stimuli/card_100_transparent.png,100,13,0,13,0,1,,,,,,,,,,
,,,,5d05aa4b28d214001d06bb93,A,2024-07-02_02h27.48.415,Slot Machine Game,2023.1.3,Win32,120.4819277,,,,,,,,,,,,,,,,,,,,,,,,,,,760,,,,,,,,,,,,,,,,,,,,,2,5,,,358.1423,14,up,0.2197,,1.5,0.3,"[3,1,2]",0.429186577,stimuli/card_100_transparent.png,100,14,0,14,0,1,,,,,,,,,,
,,,,5d05aa4b28d214001d06bb93,A,2024-07-02_02h27.48.415,Slot Machine Game,2023.1.3,Win32,120.4819277,,,,,,,,,,,,,,,,,,,,,,,,,,,,,,,,,,,360.6759,,,,,,,,,,,,,,,,,,,,,,,,,,,,,,,,,"[350,760]",1,0,1,0,1,,,,
,,,,5d05aa4b28d214001d06bb93,A,2024-07-02_02h27.48.415,Slot Machine Game,2023.1.3,Win32,120.4819277,,,,,,,,,,,,,,,,,,,,,,,,,,,100,,,,,,,,,,,,,,,,,,,,,3,7,"[9,15]","[[1,3,2],[2,3,1]]",365.6831,0,left,1.4826,,0.5,0.3,"[1,3,2]",0.489309469,stimuli/card_100_transparent.png,100,0,0,0,0,1,,,,,,,,,,
,,,,5d05aa4b28d214001d06bb93,A,2024-07-02_02h27.48.415,Slot Machine Game,2023.1.3,Win32,120.4819277,,,,,,,,,,,,,,,,,,,,,,,,,,,110,,,,,,,,,,,,,,,,,,,,,3,7,,,368.4688,1,left,0.3148,,1.5,0.3,"[1,3,2]",0.177803363,stimuli/card_10_transparent.png,10,1,0,1,0,1,,,,,,,,,,
,,,,5d05aa4b28d214001d06bb93,A,2024-07-02_02h27.48.415,Slot Machine Game,2023.1.3,Win32,120.4819277,,,,,,,,,,,,,,,,,,,,,,,,,,,210,,,,,,,,,,,,,,,,,,,,,3,7,,,371.0858,2,left,0.3888,,1.5,0.3,"[1,3,2]",0.305387815,stimuli/card_100_transparent.png,100,2,0,2,0,1,,,,,,,,,,
,,,,5d05aa4b28d214001d06bb93,A,2024-07-02_02h27.48.415,Slot Machine Game,2023.1.3,Win32,120.4819277,,,,,,,,,,,,,,,,,,,,,,,,,,,220,,,,,,,,,,,,,,,,,,,,,3,7,,,373.7862,3,left,0.0172,,1,0.3,"[1,3,2]",0.149087825,stimuli/card_10_transparent.png,10,3,0,3,0,1,,,,,,,,,,
,,,,5d05aa4b28d214001d06bb93,A,2024-07-02_02h27.48.415,Slot Machine Game,2023.1.3,Win32,120.4819277,,,,,,,,,,,,,,,,,,,,,,,,,,,320,,,,,,,,,,,,,,,,,,,,,3,7,,,375.6115,4,left,0.3439,,0.5,0.3,"[1,3,2]",0.731269315,stimuli/card_100_transparent.png,100,4,0,4,0,1,,,,,,,,,,
,,,,5d05aa4b28d214001d06bb93,A,2024-07-02_02h27.48.415,Slot Machine Game,2023.1.3,Win32,120.4819277,,,,,,,,,,,,,,,,,,,,,,,,,,,330,,,,,,,,,,,,,,,,,,,,,3,7,,,377.2617,5,left,0.1008,,1.5,0.3,"[1,3,2]",0.127286121,stimuli/card_10_transparent.png,10,5,0,5,0,1,,,,,,,,,,
,,,,5d05aa4b28d214001d06bb93,A,2024-07-02_02h27.48.415,Slot Machine Game,2023.1.3,Win32,120.4819277,,,,,,,,,,,,,,,,,,,,,,,,,,,430,,,,,,,,,,,,,,,,,,,,,3,7,,,379.6704,6,left,0.0606,,1,0.3,"[1,3,2]",0.531270764,stimuli/card_100_transparent.png,100,6,0,6,0,1,,,,,,,,,,
,,,,5d05aa4b28d214001d06bb93,A,2024-07-02_02h27.48.415,Slot Machine Game,2023.1.3,Win32,120.4819277,,,,,,,,,,,,,,,,,,,,,,,,,,,530,,,,,,,,,,,,,,,,,,,,,3,7,,,381.5457,7,left,0.4323,,0.5,0.3,"[1,3,2]",0.23443409,stimuli/card_100_transparent.png,100,7,0,7,0,1,,,,,,,,,,
,,,,5d05aa4b28d214001d06bb93,A,2024-07-02_02h27.48.415,Slot Machine Game,2023.1.3,Win32,120.4819277,,,,,,,,,,,,,,,,,,,,,,,,,,,630,,,,,,,,,,,,,,,,,,,,,3,7,,,383.2876,8,left,0.4163,,1,0.3,"[1,3,2]",0.818442759,stimuli/card_100_transparent.png,100,8,0,8,0,1,,,,,,,,,,
,,,,5d05aa4b28d214001d06bb93,A,2024-07-02_02h27.48.415,Slot Machine Game,2023.1.3,Win32,120.4819277,,,,,,,,,,,,,,,,,,,,,,,,,,,640,,,,,,,,,,,,,,,,,,,,,3,7,,,385.5129,9,left,0.387,,1.5,0.3,"[2,3,1]",0.689917424,stimuli/card_10_transparent.png,10,9,0,9,0,1,,,,,,,,,,
,,,,5d05aa4b28d214001d06bb93,A,2024-07-02_02h27.48.415,Slot Machine Game,2023.1.3,Win32,120.4819277,,,,,,,,,,,,,,,,,,,,,,,,,,,650,,,,,,,,,,,,,,,,,,,,,3,7,,,388.2133,10,left,0.3419,,1.5,0.3,"[2,3,1]",0.539500091,stimuli/card_10_transparent.png,10,10,0,10,0,1,,,,,,,,,,
,,,,5d05aa4b28d214001d06bb93,A,2024-07-02_02h27.48.415,Slot Machine Game,2023.1.3,Win32,120.4819277,,,,,,,,,,,,,,,,,,,,,,,,,,,660,,,,,,,,,,,,,,,,,,,,,3,7,,,390.8637,11,left,0.6355,,0.5,0.3,"[2,3,1]",0.705902701,stimuli/card_10_transparent.png,10,11,0,11,0,1,,,,,,,,,,
,,,,5d05aa4b28d214001d06bb93,A,2024-07-02_02h27.48.415,Slot Machine Game,2023.1.3,Win32,120.4819277,,,,,,,,,,,,,,,,,,,,,,,,,,,760,,,,,,,,,,,,,,,,,,,,,3,7,,,392.8057,12,right,0.3551,,0.5,0.3,"[2,3,1]",0.999246297,stimuli/card_100_transparent.png,100,12,0,12,0,1,,,,,,,,,,
,,,,5d05aa4b28d214001d06bb93,A,2024-07-02_02h27.48.415,Slot Machine Game,2023.1.3,Win32,120.4819277,,,,,,,,,,,,,,,,,,,,,,,,,,,860,,,,,,,,,,,,,,,,,,,,,3,7,,,394.4643,13,right,0.2936,,1,0.3,"[2,3,1]",0.906250408,stimuli/card_100_transparent.png,100,13,0,13,0,1,,,,,,,,,,
,,,,5d05aa4b28d214001d06bb93,A,2024-07-02_02h27.48.415,Slot Machine Game,2023.1.3,Win32,120.4819277,,,,,,,,,,,,,,,,,,,,,,,,,,,960,,,,,,,,,,,,,,,,,,,,,3,7,,,396.5729,14,right,0.1881,,0.5,0.3,"[2,3,1]",0.567428871,stimuli/card_100_transparent.png,100,14,0,14,0,1,,,,,,,,,,
,,,,5d05aa4b28d214001d06bb93,A,2024-07-02_02h27.48.415,Slot Machine Game,2023.1.3,Win32,120.4819277,,,,,,,,,,,,,,,,,,,,,,,,,,,,,,,,,,,398.0731,,,,,,,,,,,,,,,,,,,,,,,,,,,,,,,,,"[350,760,960]",2,0,2,0,1,,,,
,,,,5d05aa4b28d214001d06bb93,A,2024-07-02_02h27.48.415,Slot Machine Game,2023.1.3,Win32,120.4819277,,,,,,,,,,,,,,,,,,,,,,,,,,,0,,,,,,,,,,,,,,,,,,,,,4,4,"[7,15]","[[2,3,1],[1,2,3]]",403.08,0,up,1.0559,,0.5,0.3,"[2,3,1]",0.731722008,stimuli/card_0_transparent.png,0,0,0,0,0,1,,,,,,,,,,
,,,,5d05aa4b28d214001d06bb93,A,2024-07-02_02h27.48.415,Slot Machine Game,2023.1.3,Win32,120.4819277,,,,,,,,,,,,,,,,,,,,,,,,,,,100,,,,,,,,,,,,,,,,,,,,,4,4,,,405.4409,1,right,0.2728,,0.5,0.3,"[2,3,1]",0.568987616,stimuli/card_100_transparent.png,100,1,0,1,0,1,,,,,,,,,,
,,,,5d05aa4b28d214001d06bb93,A,2024-07-02_02h27.48.415,Slot Machine Game,2023.1.3,Win32,120.4819277,,,,,,,,,,,,,,,,,,,,,,,,,,,200,,,,,,,,,,,,,,,,,,,,,4,4,,,407.0245,2,right,0.2844,,1,0.3,"[2,3,1]",0.271183769,stimuli/card_100_transparent.png,100,2,0,2,0,1,,,,,,,,,,
,,,,5d05aa4b28d214001d06bb93,A,2024-07-02_02h27.48.415,Slot Machine Game,2023.1.3,Win32,120.4819277,,,,,,,,,,,,,,,,,,,,,,,,,,,300,,,,,,,,,,,,,,,,,,,,,4,4,,,409.1248,3,right,0.1169,,0.5,0.3,"[2,3,1]",0.825524194,stimuli/card_100_transparent.png,100,3,0,3,0,1,,,,,,,,,,
,,,,5d05aa4b28d214001d06bb93,A,2024-07-02_02h27.48.415,Slot Machine Game,2023.1.3,Win32,120.4819277,,,,,,,,,,,,,,,,,,,,,,,,,,,310,,,,,,,,,,,,,,,,,,,,,4,4,,,410.5582,4,right,0.1667,,1.5,0.3,"[2,3,1]",0.148280426,stimuli/card_10_transparent.png,10,4,0,4,0,1,,,,,,,,,,
,,,,5d05aa4b28d214001d06bb93,A,2024-07-02_02h27.48.415,Slot Machine Game,2023.1.3,Win32,120.4819277,,,,,,,,,,,,,,,,,,,,,,,,,,,410,,,,,,,,,,,,,,,,,,,,,4,4,,,413.0335,5,right,1.1377,,1,0.3,"[2,3,1]",0.634989747,stimuli/card_100_transparent.png,100,5,0,5,0,1,,,,,,,,,,
,,,,5d05aa4b28d214001d06bb93,A,2024-07-02_02h27.48.415,Slot Machine Game,2023.1.3,Win32,120.4819277,,,,,,,,,,,,,,,,,,,,,,,,,,,510,,,,,,,,,,,,,,,,,,,,,4,4,,,415.9757,6,right,0.1294,,0.5,0.3,"[2,3,1]",0.834678943,stimuli/card_100_transparent.png,100,6,0,6,0,1,,,,,,,,,,
,,,,5d05aa4b28d214001d06bb93,A,2024-07-02_02h27.48.415,Slot Machine Game,2023.1.3,Win32,120.4819277,,,,,,,,,,,,,,,,,,,,,,,,,,,510,,,,,,,,,,,,,,,,,,,,,4,4,,,417.4091,7,right,0.1148,,0.5,0.3,"[1,2,3]",0.235385998,stimuli/card_0_transparent.png,0,7,0,7,0,1,,,,,,,,,,
,,,,5d05aa4b28d214001d06bb93,A,2024-07-02_02h27.48.415,Slot Machine Game,2023.1.3,Win32,120.4819277,,,,,,,,,,,,,,,,,,,,,,,,,,,520,,,,,,,,,,,,,,,,,,,,,4,4,,,418.8261,8,right,0.7337,,0.5,0.3,"[1,2,3]",0.174770393,stimuli/card_10_transparent.png,10,8,0,8,0,1,,,,,,,,,,
,,,,5d05aa4b28d214001d06bb93,A,2024-07-02_02h27.48.415,Slot Machine Game,2023.1.3,Win32,120.4819277,,,,,,,,,,,,,,,,,,,,,,,,,,,530,,,,,,,,,,,,,,,,,,,,,4,4,,,420.8681,9,up,0.2341,,0.5,0.3,"[1,2,3]",0.643043593,stimuli/card_10_transparent.png,10,9,0,9,0,1,,,,,,,,,,
,,,,5d05aa4b28d214001d06bb93,A,2024-07-02_02h27.48.415,Slot Machine Game,2023.1.3,Win32,120.4819277,,,,,,,,,,,,,,,,,,,,,,,,,,,540,,,,,,,,,,,,,,,,,,,,,4,4,,,422.4099,10,up,0.1224,,0.5,0.3,"[1,2,3]",0.996621733,stimuli/card_10_transparent.png,10,10,0,10,0,1,,,,,,,,,,
,,,,5d05aa4b28d214001d06bb93,A,2024-07-02_02h27.48.415,Slot Machine Game,2023.1.3,Win32,120.4819277,,,,,,,,,,,,,,,,,,,,,,,,,,,640,,,,,,,,,,,,,,,,,,,,,4,4,,,423.8351,11,left,0.3741,,1,0.3,"[1,2,3]",0.32173262,stimuli/card_100_transparent.png,100,11,0,11,0,1,,,,,,,,,,
,,,,5d05aa4b28d214001d06bb93,A,2024-07-02_02h27.48.415,Slot Machine Game,2023.1.3,Win32,120.4819277,,,,,,,,,,,,,,,,,,,,,,,,,,,740,,,,,,,,,,,,,,,,,,,,,4,4,,,426.0105,12,left,0.3286,,1.5,0.3,"[1,2,3]",0.204951013,stimuli/card_100_transparent.png,100,12,0,12,0,1,,,,,,,,,,
,,,,5d05aa4b28d214001d06bb93,A,2024-07-02_02h27.48.415,Slot Machine Game,2023.1.3,Win32,120.4819277,,,,,,,,,,,,,,,,,,,,,,,,,,,840,,,,,,,,,,,,,,,,,,,,,4,4,,,428.6525,13,left,0.2224,,1,0.3,"[1,2,3]",0.868779372,stimuli/card_100_transparent.png,100,13,0,13,0,1,,,,,,,,,,
,,,,5d05aa4b28d214001d06bb93,A,2024-07-02_02h27.48.415,Slot Machine Game,2023.1.3,Win32,120.4819277,,,,,,,,,,,,,,,,,,,,,,,,,,,940,,,,,,,,,,,,,,,,,,,,,4,4,,,430.6778,14,left,0.0003,,0.5,0.3,"[1,2,3]",0.374250607,stimuli/card_100_transparent.png,100,14,0,14,0,1,,,,,,,,,,
,,,,5d05aa4b28d214001d06bb93,A,2024-07-02_02h27.48.415,Slot Machine Game,2023.1.3,Win32,120.4819277,,,,,,,,,,,,,,,,,,,,,,,,,,,,,,,,,,,431.9866,,,,,,,,,,,,,,,,,,,,,,,,,,,,,,,,,"[350,760,960,940]",3,0,3,0,1,,,,
,,,,5d05aa4b28d214001d06bb93,A,2024-07-02_02h27.48.415,Slot Machine Game,2023.1.3,Win32,120.4819277,,,,,,,,,,,,,,,,,,,,,,,,,,,10,,,,,,,,,,,,,,,,,,,,,5,6,"[4,10,15]","[[2,3,1],[1,3,2],[3,2,1]]",436.9933,0,right,0.6044,,1,0.3,"[2,3,1]",0.153602584,stimuli/card_10_transparent.png,10,0,0,0,0,1,,,,,,,,,,
,,,,5d05aa4b28d214001d06bb93,A,2024-07-02_02h27.48.415,Slot Machine Game,2023.1.3,Win32,120.4819277,,,,,,,,,,,,,,,,,,,,,,,,,,,20,,,,,,,,,,,,,,,,,,,,,5,6,,,439.4041,1,left,0.5011,,0.5,0.3,"[2,3,1]",0.883419965,stimuli/card_10_transparent.png,10,1,0,1,0,1,,,,,,,,,,
,,,,5d05aa4b28d214001d06bb93,A,2024-07-02_02h27.48.415,Slot Machine Game,2023.1.3,Win32,120.4819277,,,,,,,,,,,,,,,,,,,,,,,,,,,30,,,,,,,,,,,,,,,,,,,,,5,6,,,441.2127,2,left,0.0237,,1,0.3,"[2,3,1]",0.807235306,stimuli/card_10_transparent.png,10,2,0,2,0,1,,,,,,,,,,
,,,,5d05aa4b28d214001d06bb93,A,2024-07-02_02h27.48.415,Slot Machine Game,2023.1.3,Win32,120.4819277,,,,,,,,,,,,,,,,,,,,,,,,,,,30,,,,,,,,,,,,,,,,,,,,,5,6,,,443.0379,3,up,0.635,,1,0.3,"[2,3,1]",0.455860623,stimuli/card_0_transparent.png,0,3,0,3,0,1,,,,,,,,,,
,,,,5d05aa4b28d214001d06bb93,A,2024-07-02_02h27.48.415,Slot Machine Game,2023.1.3,Win32,120.4819277,,,,,,,,,,,,,,,,,,,,,,,,,,,40,,,,,,,,,,,,,,,,,,,,,5,6,,,445.48,4,right,0.1089,,1.5,0.3,"[1,3,2]",0.949413953,stimuli/card_10_transparent.png,10,4,0,4,0,1,,,,,,,,,,
,,,,5d05aa4b28d214001d06bb93,A,2024-07-02_02h27.48.415,Slot Machine Game,2023.1.3,Win32,120.4819277,,,,,,,,,,,,,,,,,,,,,,,,,,,50,,,,,,,,,,,,,,,,,,,,,5,6,,,447.897,5,right,0.4538,,1.5,0.3,"[1,3,2]",0.575021634,stimuli/card_10_transparent.png,10,5,0,5,0,1,,,,,,,,,,
,,,,5d05aa4b28d214001d06bb93,A,2024-07-02_02h27.48.415,Slot Machine Game,2023.1.3,Win32,120.4819277,,,,,,,,,,,,,,,,,,,,,,,,,,,150,,,,,,,,,,,,,,,,,,,,,5,6,,,450.6641,6,left,0.0082,,0.5,0.3,"[1,3,2]",0.935258539,stimuli/card_100_transparent.png,100,6,0,6,0,1,,,,,,,,,,
,,,,5d05aa4b28d214001d06bb93,A,2024-07-02_02h27.48.415,Slot Machine Game,2023.1.3,Win32,120.4819277,,,,,,,,,,,,,,,,,,,,,,,,,,,150,,,,,,,,,,,,,,,,,,,,,5,6,,,451.9809,7,left,0.1281,,0.5,0.3,"[1,3,2]",0.057492375,stimuli/card_0_transparent.png,0,7,0,7,0,1,,,,,,,,,,
,,,,5d05aa4b28d214001d06bb93,A,2024-07-02_02h27.48.415,Slot Machine Game,2023.1.3,Win32,120.4819277,,,,,,,,,,,,,,,,,,,,,,,,,,,250,,,,,,,,,,,,,,,,,,,,,5,6,,,453.4144,8,left,0.0235,,0.5,0.3,"[1,3,2]",0.603975373,stimuli/card_100_transparent.png,100,8,0,8,0,1,,,,,,,,,,
,,,,5d05aa4b28d214001d06bb93,A,2024-07-02_02h27.48.415,Slot Machine Game,2023.1.3,Win32,120.4819277,,,,,,,,,,,,,,,,,,,,,,,,,,,260,,,,,,,,,,,,,,,,,,,,,5,6,,,454.7398,9,left,0.5015,,1.5,0.3,"[1,3,2]",0.143074516,stimuli/card_10_transparent.png,10,9,0,9,0,1,,,,,,,,,,
,,,,5d05aa4b28d214001d06bb93,A,2024-07-02_02h27.48.415,Slot Machine Game,2023.1.3,Win32,120.4819277,,,,,,,,,,,,,,,,,,,,,,,,,,,260,,,,,,,,,,,,,,,,,,,,,5,6,,,457.5567,10,left,0.3326,,1,0.3,"[3,2,1]",0.491464498,stimuli/card_0_transparent.png,0,10,0,10,0,1,,,,,,,,,,
,,,,5d05aa4b28d214001d06bb93,A,2024-07-02_02h27.48.415,Slot Machine Game,2023.1.3,Win32,120.4819277,,,,,,,,,,,,,,,,,,,,,,,,,,,360,,,,,,,,,,,,,,,,,,,,,5,6,,,459.6903,11,right,0.1822,,1.5,0.3,"[3,2,1]",0.765992647,stimuli/card_100_transparent.png,100,11,0,11,0,1,,,,,,,,,,
,,,,5d05aa4b28d214001d06bb93,A,2024-07-02_02h27.48.415,Slot Machine Game,2023.1.3,Win32,120.4819277,,,,,,,,,,,,,,,,,,,,,,,,,,,370,,,,,,,,,,,,,,,,,,,,,5,6,,,462.1824,12,right,0.0607,,1.5,0.3,"[3,2,1]",0.162266506,stimuli/card_10_transparent.png,10,12,0,12,0,1,,,,,,,,,,
,,,,5d05aa4b28d214001d06bb93,A,2024-07-02_02h27.48.415,Slot Machine Game,2023.1.3,Win32,120.4819277,,,,,,,,,,,,,,,,,,,,,,,,,,,380,,,,,,,,,,,,,,,,,,,,,5,6,,,464.5578,13,right,0.4221,,1,0.3,"[3,2,1]",0.188724844,stimuli/card_10_transparent.png,10,13,0,13,0,1,,,,,,,,,,
,,,,5d05aa4b28d214001d06bb93,A,2024-07-02_02h27.48.415,Slot Machine Game,2023.1.3,Win32,120.4819277,,,,,,,,,,,,,,,,,,,,,,,,,,,380,,,,,,,,,,,,,,,,,,,,,5,6,,,466.7914,14,left,0.6703,,1,0.3,"[3,2,1]",0.928288618,stimuli/card_0_transparent.png,0,14,0,14,0,1,,,,,,,,,,
,,,,5d05aa4b28d214001d06bb93,A,2024-07-02_02h27.48.415,Slot Machine Game,2023.1.3,Win32,120.4819277,,,,,,,,,,,,,,,,,,,,,,,,,,,,,,,,,,,469.2668,,,,,,,,,,,,,,,,,,,,,,,,,,,,,,,,,"[350,760,960,940,380]",4,0,4,0,1,,,,
,,,,5d05aa4b28d214001d06bb93,A,2024-07-02_02h27.48.415,Slot Machine Game,2023.1.3,Win32,120.4819277,,,,,,,,,,,,,,,,,,,,,,,,,,,0,,,,,,,,,,,,,,,,,,,,,6,8,"[11,15]","[[2,1,3],[1,2,3]]",474.2736,0,right,0.0852,,1.5,0.3,"[2,1,3]",0.401607451,stimuli/card_0_transparent.png,0,0,0,0,0,1,,,,,,,,,,
,,,,5d05aa4b28d214001d06bb93,A,2024-07-02_02h27.48.415,Slot Machine Game,2023.1.3,Win32,120.4819277,,,,,,,,,,,,,,,,,,,,,,,,,,,100,,,,,,,,,,,,,,,,,,,,,6,8,,,476.6678,1,up,0.2139,,1.5,0.3,"[2,1,3]",0.627806953,stimuli/card_100_transparent.png,100,1,0,1,0,1,,,,,,,,,,
,,,,5d05aa4b28d214001d06bb93,A,2024-07-02_02h27.48.415,Slot Machine Game,2023.1.3,Win32,120.4819277,,,,,,,,,,,,,,,,,,,,,,,,,,,200,,,,,,,,,,,,,,,,,,,,,6,8,,,479.1848,2,up,0.1674,,1.5,0.3,"[2,1,3]",0.203607726,stimuli/card_100_transparent.png,100,2,0,2,0,1,,,,,,,,,,
,,,,5d05aa4b28d214001d06bb93,A,2024-07-02_02h27.48.415,Slot Machine Game,2023.1.3,Win32,120.4819277,,,,,,,,,,,,,,,,,,,,,,,,,,,210,,,,,,,,,,,,,,,,,,,,,6,8,,,481.6686,3,up,0.2109,,0.5,0.3,"[2,1,3]",0.144869691,stimuli/card_10_transparent.png,10,3,0,3,0,1,,,,,,,,,,
,,,,5d05aa4b28d214001d06bb93,A,2024-07-02_02h27.48.415,Slot Machine Game,2023.1.3,Win32,120.4819277,,,,,,,,,,,,,,,,,,,,,,,,,,,310,,,,,,,,,,,,,,,,,,,,,6,8,,,483.1938,4,up,0.1486,,1.5,0.3,"[2,1,3]",0.927162665,stimuli/card_100_transparent.png,100,4,0,4,0,1,,,,,,,,,,
,,,,5d05aa4b28d214001d06bb93,A,2024-07-02_02h27.48.415,Slot Machine Game,2023.1.3,Win32,120.4819277,,,,,,,,,,,,,,,,,,,,,,,,,,,410,,,,,,,,,,,,,,,,,,,,,6,8,,,485.6441,5,up,0.1104,,1,0.3,"[2,1,3]",0.639343127,stimuli/card_100_transparent.png,100,5,0,5,0,1,,,,,,,,,,
,,,,5d05aa4b28d214001d06bb93,A,2024-07-02_02h27.48.415,Slot Machine Game,2023.1.3,Win32,120.4819277,,,,,,,,,,,,,,,,,,,,,,,,,,,510,,,,,,,,,,,,,,,,,,,,,6,8,,,487.5611,6,up,0.0383,,0.5,0.3,"[2,1,3]",0.370349745,stimuli/card_100_transparent.png,100,6,0,6,0,1,,,,,,,,,,
,,,,5d05aa4b28d214001d06bb93,A,2024-07-02_02h27.48.415,Slot Machine Game,2023.1.3,Win32,120.4819277,,,,,,,,,,,,,,,,,,,,,,,,,,,610,,,,,,,,,,,,,,,,,,,,,6,8,,,488.9113,7,up,0.2903,,1.5,0.3,"[2,1,3]",0.931266459,stimuli/card_100_transparent.png,100,7,0,7,0,1,,,,,,,,,,
,,,,5d05aa4b28d214001d06bb93,A,2024-07-02_02h27.48.415,Slot Machine Game,2023.1.3,Win32,120.4819277,,,,,,,,,,,,,,,,,,,,,,,,,,,710,,,,,,,,,,,,,,,,,,,,,6,8,,,491.5116,8,up,0.164,,0.5,0.3,"[2,1,3]",0.447661939,stimuli/card_100_transparent.png,100,8,0,8,0,1,,,,,,,,,,
,,,,5d05aa4b28d214001d06bb93,A,2024-07-02_02h27.48.415,Slot Machine Game,2023.1.3,Win32,120.4819277,,,,,,,,,,,,,,,,,,,,,,,,,,,810,,,,,,,,,,,,,,,,,,,,,6,8,,,492.9786,9,up,0.3712,,0.5,0.3,"[2,1,3]",0.52504025,stimuli/card_100_transparent.png,100,9,0,9,0,1,,,,,,,,,,
,,,,5d05aa4b28d214001d06bb93,A,2024-07-02_02h27.48.415,Slot Machine Game,2023.1.3,Win32,120.4819277,,,,,,,,,,,,,,,,,,,,,,,,,,,910,,,,,,,,,,,,,,,,,,,,,6,8,,,494.6621,10,up,0.109,,1.5,0.3,"[2,1,3]",0.565400108,stimuli/card_100_transparent.png,100,10,0,10,0,1,,,,,,,,,,
,,,,5d05aa4b28d214001d06bb93,A,2024-07-02_02h27.48.415,Slot Machine Game,2023.1.3,Win32,120.4819277,,,,,,,,,,,,,,,,,,,,,,,,,,,920,,,,,,,,,,,,,,,,,,,,,6,8,,,497.0793,11,up,0.0636,,0.5,0.3,"[1,2,3]",0.219279958,stimuli/card_10_transparent.png,10,11,0,11,0,1,,,,,,,,,,
,,,,5d05aa4b28d214001d06bb93,A,2024-07-02_02h27.48.415,Slot Machine Game,2023.1.3,Win32,120.4819277,,,,,,,,,,,,,,,,,,,,,,,,,,,920,,,,,,,,,,,,,,,,,,,,,6,8,,,498.4545,12,right,0.8377,,1.5,0.3,"[1,2,3]",0.830086472,stimuli/card_0_transparent.png,0,12,0,12,0,1,,,,,,,,,,
,,,,5d05aa4b28d214001d06bb93,A,2024-07-02_02h27.48.415,Slot Machine Game,2023.1.3,Win32,120.4819277,,,,,,,,,,,,,,,,,,,,,,,,,,,1020,,,,,,,,,,,,,,,,,,,,,6,8,,,501.6048,13,left,0.8228,,1,0.3,"[1,2,3]",0.927153662,stimuli/card_100_transparent.png,100,13,0,13,0,1,,,,,,,,,,
,,,,5d05aa4b28d214001d06bb93,A,2024-07-02_02h27.48.415,Slot Machine Game,2023.1.3,Win32,120.4819277,,,,,,,,,,,,,,,,,,,,,,,,,,,1120,,,,,,,,,,,,,,,,,,,,,6,8,,,504.2301,14,left,0.1258,,1,0.3,"[1,2,3]",0.653430084,stimuli/card_100_transparent.png,100,14,0,14,0,1,,,,,,,,,,
,,,,5d05aa4b28d214001d06bb93,A,2024-07-02_02h27.48.415,Slot Machine Game,2023.1.3,Win32,120.4819277,,,,,,,,,,,,,,,,,,,,,,,,,,,,,,,,,,,506.1639,,,,,,,,,,,,,,,,,,,,,,,,,,,,,,,,,"[350,760,960,940,380,1120]",5,0,5,0,1,,,,
,,,,5d05aa4b28d214001d06bb93,A,2024-07-02_02h27.48.415,Slot Machine Game,2023.1.3,Win32,120.4819277,,,,,,,,,,,,,,,,,,,,,,,,,,,10,,,,,,,,,,,,,,,,,,,,,7,9,"[8,15]","[[3,2,1],[3,1,2]]",511.1706,0,up,0.2428,,0.5,0.3,"[3,2,1]",0.427055234,stimuli/card_10_transparent.png,10,0,0,0,0,1,,,,,,,,,,
,,,,5d05aa4b28d214001d06bb93,A,2024-07-02_02h27.48.415,Slot Machine Game,2023.1.3,Win32,120.4819277,,,,,,,,,,,,,,,,,,,,,,,,,,,10,,,,,,,,,,,,,,,,,,,,,7,9,,,512.723,1,left,0.2505,,0.5,0.3,"[3,2,1]",0.420575038,stimuli/card_0_transparent.png,0,1,0,1,0,1,,,,,,,,,,
,,,,5d05aa4b28d214001d06bb93,A,2024-07-02_02h27.48.415,Slot Machine Game,2023.1.3,Win32,120.4819277,,,,,,,,,,,,,,,,,,,,,,,,,,,110,,,,,,,,,,,,,,,,,,,,,7,9,,,514.2816,2,right,0.2309,,1,0.3,"[3,2,1]",0.438036039,stimuli/card_100_transparent.png,100,2,0,2,0,1,,,,,,,,,,
,,,,5d05aa4b28d214001d06bb93,A,2024-07-02_02h27.48.415,Slot Machine Game,2023.1.3,Win32,120.4819277,,,,,,,,,,,,,,,,,,,,,,,,,,,210,,,,,,,,,,,,,,,,,,,,,7,9,,,516.3153,3,right,0.22,,0.5,0.3,"[3,2,1]",0.39537588,stimuli/card_100_transparent.png,100,3,0,3,0,1,,,,,,,,,,
,,,,5d05aa4b28d214001d06bb93,A,2024-07-02_02h27.48.415,Slot Machine Game,2023.1.3,Win32,120.4819277,,,,,,,,,,,,,,,,,,,,,,,,,,,310,,,,,,,,,,,,,,,,,,,,,7,9,,,517.8488,4,right,0.1508,,0.5,0.3,"[3,2,1]",0.350117951,stimuli/card_100_transparent.png,100,4,0,4,0,1,,,,,,,,,,
,,,,5d05aa4b28d214001d06bb93,A,2024-07-02_02h27.48.415,Slot Machine Game,2023.1.3,Win32,120.4819277,,,,,,,,,,,,,,,,,,,,,,,,,,,410,,,,,,,,,,,,,,,,,,,,,7,9,,,519.3074,5,right,0.5603,,1,0.3,"[3,2,1]",0.683376255,stimuli/card_100_transparent.png,100,5,0,5,0,1,,,,,,,,,,
,,,,5d05aa4b28d214001d06bb93,A,2024-07-02_02h27.48.415,Slot Machine Game,2023.1.3,Win32,120.4819277,,,,,,,,,,,,,,,,,,,,,,,,,,,410,,,,,,,,,,,,,,,,,,,,,7,9,,,521.6827,6,right,0.4142,,1,0.3,"[3,2,1]",0.031245703,stimuli/card_0_transparent.png,0,6,0,6,0,1,,,,,,,,,,
,,,,5d05aa4b28d214001d06bb93,A,2024-07-02_02h27.48.415,Slot Machine Game,2023.1.3,Win32,120.4819277,,,,,,,,,,,,,,,,,,,,,,,,,,,410,,,,,,,,,,,,,,,,,,,,,7,9,,,523.8997,7,left,0.6588,,1,0.3,"[3,2,1]",0.457318403,stimuli/card_0_transparent.png,0,7,0,7,0,1,,,,,,,,,,
,,,,5d05aa4b28d214001d06bb93,A,2024-07-02_02h27.48.415,Slot Machine Game,2023.1.3,Win32,120.4819277,,,,,,,,,,,,,,,,,,,,,,,,,,,420,,,,,,,,,,,,,,,,,,,,,7,9,,,526.3667,8,up,0.4267,,1,0.3,"[3,1,2]",0.196058526,stimuli/card_10_transparent.png,10,8,0,8,0,1,,,,,,,,,,
,,,,5d05aa4b28d214001d06bb93,A,2024-07-02_02h27.48.415,Slot Machine Game,2023.1.3,Win32,120.4819277,,,,,,,,,,,,,,,,,,,,,,,,,,,430,,,,,,,,,,,,,,,,,,,,,7,9,,,528.6004,9,up,0.1765,,1,0.3,"[3,1,2]",0.157071557,stimuli/card_10_transparent.png,10,9,0,9,0,1,,,,,,,,,,
,,,,5d05aa4b28d214001d06bb93,A,2024-07-02_02h27.48.415,Slot Machine Game,2023.1.3,Win32,120.4819277,,,,,,,,,,,,,,,,,,,,,,,,,,,430,,,,,,,,,,,,,,,,,,,,,7,9,,,530.5925,10,right,0.0776,,1,0.3,"[3,1,2]",0.054106297,stimuli/card_0_transparent.png,0,10,0,10,0,1,,,,,,,,,,
,,,,5d05aa4b28d214001d06bb93,A,2024-07-02_02h27.48.415,Slot Machine Game,2023.1.3,Win32,120.4819277,,,,,,,,,,,,,,,,,,,,,,,,,,,440,,,,,,,,,,,,,,,,,,,,,7,9,,,532.4843,11,right,0.0025,,1,0.3,"[3,1,2]",0.579669824,stimuli/card_10_transparent.png,10,11,0,11,0,1,,,,,,,,,,
,,,,5d05aa4b28d214001d06bb93,A,2024-07-02_02h27.48.415,Slot Machine Game,2023.1.3,Win32,120.4819277,,,,,,,,,,,,,,,,,,,,,,,,,,,440,,,,,,,,,,,,,,,,,,,,,7,9,,,534.3012,12,left,0.0139,,1,0.3,"[3,1,2]",0.866212239,stimuli/card_0_transparent.png,0,12,0,12,0,1,,,,,,,,,,
,,,,5d05aa4b28d214001d06bb93,A,2024-07-02_02h27.48.415,Slot Machine Game,2023.1.3,Win32,120.4819277,,,,,,,,,,,,,,,,,,,,,,,,,,,440,,,,,,,,,,,,,,,,,,,,,7,9,,,536.1267,13,up,0.1711,,1.5,0.3,"[3,1,2]",0.042940764,stimuli/card_0_transparent.png,0,13,0,13,0,1,,,,,,,,,,
,,,,5d05aa4b28d214001d06bb93,A,2024-07-02_02h27.48.415,Slot Machine Game,2023.1.3,Win32,120.4819277,,,,,,,,,,,,,,,,,,,,,,,,,,,450,,,,,,,,,,,,,,,,,,,,,7,9,,,538.6102,14,right,0.1814,,1.5,0.3,"[3,1,2]",0.257844884,stimuli/card_10_transparent.png,10,14,0,14,0,1,,,,,,,,,,
,,,,5d05aa4b28d214001d06bb93,A,2024-07-02_02h27.48.415,Slot Machine Game,2023.1.3,Win32,120.4819277,,,,,,,,,,,,,,,,,,,,,,,,,,,,,,,,,,,541.0939,,,,,,,,,,,,,,,,,,,,,,,,,,,,,,,,,"[350,760,960,940,380,1120,450]",6,0,6,0,1,,,,
,,,,5d05aa4b28d214001d06bb93,A,2024-07-02_02h27.48.415,Slot Machine Game,2023.1.3,Win32,120.4819277,,,,,,,,,,,,,,,,,,,,,,,,,,,10,,,,,,,,,,,,,,,,,,,,,8,2,"[6,15]","[[1,3,2],[3,2,1]]",546.1011,0,right,0.0669,,1.5,0.3,"[1,3,2]",0.611478093,stimuli/card_10_transparent.png,10,0,0,0,0,1,,,,,,,,,,
,,,,5d05aa4b28d214001d06bb93,A,2024-07-02_02h27.48.415,Slot Machine Game,2023.1.3,Win32,120.4819277,,,,,,,,,,,,,,,,,,,,,,,,,,,110,,,,,,,,,,,,,,,,,,,,,8,2,,,548.4784,1,left,0.161,,1,0.3,"[1,3,2]",0.548259662,stimuli/card_100_transparent.png,100,1,0,1,0,1,,,,,,,,,,
,,,,5d05aa4b28d214001d06bb93,A,2024-07-02_02h27.48.415,Slot Machine Game,2023.1.3,Win32,120.4819277,,,,,,,,,,,,,,,,,,,,,,,,,,,210,,,,,,,,,,,,,,,,,,,,,8,2,,,550.4536,2,left,0.1467,,1.5,0.3,"[1,3,2]",0.439252501,stimuli/card_100_transparent.png,100,2,0,2,0,1,,,,,,,,,,
,,,,5d05aa4b28d214001d06bb93,A,2024-07-02_02h27.48.415,Slot Machine Game,2023.1.3,Win32,120.4819277,,,,,,,,,,,,,,,,,,,,,,,,,,,310,,,,,,,,,,,,,,,,,,,,,8,2,,,552.904,3,left,0.0775,,0.5,0.3,"[1,3,2]",0.236855037,stimuli/card_100_transparent.png,100,3,0,3,0,1,,,,,,,,,,
,,,,5d05aa4b28d214001d06bb93,A,2024-07-02_02h27.48.415,Slot Machine Game,2023.1.3,Win32,120.4819277,,,,,,,,,,,,,,,,,,,,,,,,,,,410,,,,,,,,,,,,,,,,,,,,,8,2,,,554.2958,4,left,0.1497,,1,0.3,"[1,3,2]",0.785350849,stimuli/card_100_transparent.png,100,4,0,4,0,1,,,,,,,,,,
,,,,5d05aa4b28d214001d06bb93,A,2024-07-02_02h27.48.415,Slot Machine Game,2023.1.3,Win32,120.4819277,,,,,,,,,,,,,,,,,,,,,,,,,,,510,,,,,,,,,,,,,,,,,,,,,8,2,,,556.2628,5,left,0.2605,,1.5,0.3,"[1,3,2]",0.462769677,stimuli/card_100_transparent.png,100,5,0,5,0,1,,,,,,,,,,
,,,,5d05aa4b28d214001d06bb93,A,2024-07-02_02h27.48.415,Slot Machine Game,2023.1.3,Win32,120.4819277,,,,,,,,,,,,,,,,,,,,,,,,,,,510,,,,,,,,,,,,,,,,,,,,,8,2,,,558.8381,6,left,0.0692,,1.5,0.3,"[3,2,1]",0.522031224,stimuli/card_0_transparent.png,0,6,0,6,0,1,,,,,,,,,,
,,,,5d05aa4b28d214001d06bb93,A,2024-07-02_02h27.48.415,Slot Machine Game,2023.1.3,Win32,120.4819277,,,,,,,,,,,,,,,,,,,,,,,,,,,610,,,,,,,,,,,,,,,,,,,,,8,2,,,561.2218,7,right,0.248,,1.5,0.3,"[3,2,1]",0.226996344,stimuli/card_100_transparent.png,100,7,0,7,0,1,,,,,,,,,,
,,,,5d05aa4b28d214001d06bb93,A,2024-07-02_02h27.48.415,Slot Machine Game,2023.1.3,Win32,120.4819277,,,,,,,,,,,,,,,,,,,,,,,,,,,610,,,,,,,,,,,,,,,,,,,,,8,2,,,563.7806,8,right,0.6028,,1.5,0.3,"[3,2,1]",0.056744784,stimuli/card_0_transparent.png,0,8,0,8,0,1,,,,,,,,,,
,,,,5d05aa4b28d214001d06bb93,A,2024-07-02_02h27.48.415,Slot Machine Game,2023.1.3,Win32,120.4819277,,,,,,,,,,,,,,,,,,,,,,,,,,,710,,,,,,,,,,,,,,,,,,,,,8,2,,,566.6976,9,right,0.1645,,0.5,0.3,"[3,2,1]",0.674970688,stimuli/card_100_transparent.png,100,9,0,9,0,1,,,,,,,,,,
,,,,5d05aa4b28d214001d06bb93,A,2024-07-02_02h27.48.415,Slot Machine Game,2023.1.3,Win32,120.4819277,,,,,,,,,,,,,,,,,,,,,,,,,,,810,,,,,,,,,,,,,,,,,,,,,8,2,,,568.1645,10,right,0.1194,,0.5,0.3,"[3,2,1]",0.449573628,stimuli/card_100_transparent.png,100,10,0,10,0,1,,,,,,,,,,
,,,,5d05aa4b28d214001d06bb93,A,2024-07-02_02h27.48.415,Slot Machine Game,2023.1.3,Win32,120.4819277,,,,,,,,,,,,,,,,,,,,,,,,,,,910,,,,,,,,,,,,,,,,,,,,,8,2,,,569.5897,11,right,0.0654,,1,0.3,"[3,2,1]",0.419735849,stimuli/card_100_transparent.png,100,11,0,11,0,1,,,,,,,,,,
,,,,5d05aa4b28d214001d06bb93,A,2024-07-02_02h27.48.415,Slot Machine Game,2023.1.3,Win32,120.4819277,,,,,,,,,,,,,,,,,,,,,,,,,,,1010,,,,,,,,,,,,,,,,,,,,,8,2,,,571.465,12,right,0.3267,,1,0.3,"[3,2,1]",0.640039996,stimuli/card_100_transparent.png,100,12,0,12,0,1,,,,,,,,,,
,,,,5d05aa4b28d214001d06bb93,A,2024-07-02_02h27.48.415,Slot Machine Game,2023.1.3,Win32,120.4819277,,,,,,,,,,,,,,,,,,,,,,,,,,,1110,,,,,,,,,,,,,,,,,,,,,8,2,,,573.5986,13,right,0.1197,,1.5,0.3,"[3,2,1]",0.781301219,stimuli/card_100_transparent.png,100,13,0,13,0,1,,,,,,,,,,
,,,,5d05aa4b28d214001d06bb93,A,2024-07-02_02h27.48.415,Slot Machine Game,2023.1.3,Win32,120.4819277,,,,,,,,,,,,,,,,,,,,,,,,,,,1110,,,,,,,,,,,,,,,,,,,,,8,2,,,576.0323,14,right,0.3257,,1,0.3,"[3,2,1]",0.040824819,stimuli/card_0_transparent.png,0,14,0,14,0,1,,,,,,,,,,
,,,,5d05aa4b28d214001d06bb93,A,2024-07-02_02h27.48.415,Slot Machine Game,2023.1.3,Win32,120.4819277,,,,,,,,,,,,,,,,,,,,,,,,,,,,,,,,,,,578.166,,,,,,,,,,,,,,,,,,,,,,,,,,,,,,,,,"[350,760,960,940,380,1120,450,1110]",7,0,7,0,1,,,,
,,,,5d05aa4b28d214001d06bb93,A,2024-07-02_02h27.48.415,Slot Machine Game,2023.1.3,Win32,120.4819277,,,,,,,,,,,,,,,,,,,,,,,,,,,100,,,,,,,,,,,,,,,,,,,,,9,10,"[10,15]","[[3,1,2],[1,3,2]]",583.1726,0,up,0.4747,,0.5,0.3,"[3,1,2]",0.286349473,stimuli/card_100_transparent.png,100,0,0,0,0,1,,,,,,,,,,
,,,,5d05aa4b28d214001d06bb93,A,2024-07-02_02h27.48.415,Slot Machine Game,2023.1.3,Win32,120.4819277,,,,,,,,,,,,,,,,,,,,,,,,,,,100,,,,,,,,,,,,,,,,,,,,,9,10,,,584.9586,1,up,0.2124,,1.5,0.3,"[3,1,2]",0.061473073,stimuli/card_0_transparent.png,0,1,0,1,0,1,,,,,,,,,,
,,,,5d05aa4b28d214001d06bb93,A,2024-07-02_02h27.48.415,Slot Machine Game,2023.1.3,Win32,120.4819277,,,,,,,,,,,,,,,,,,,,,,,,,,,100,,,,,,,,,,,,,,,,,,,,,9,10,,,587.4758,2,up,0.0927,,0.5,0.3,"[3,1,2]",0.014193327,stimuli/card_0_transparent.png,0,2,0,2,0,1,,,,,,,,,,
,,,,5d05aa4b28d214001d06bb93,A,2024-07-02_02h27.48.415,Slot Machine Game,2023.1.3,Win32,120.4819277,,,,,,,,,,,,,,,,,,,,,,,,,,,100,,,,,,,,,,,,,,,,,,,,,9,10,,,588.8842,3,up,0.415,,1,0.3,"[3,1,2]",0.094673456,stimuli/card_0_transparent.png,0,3,0,3,0,1,,,,,,,,,,
,,,,5d05aa4b28d214001d06bb93,A,2024-07-02_02h27.48.415,Slot Machine Game,2023.1.3,Win32,120.4819277,,,,,,,,,,,,,,,,,,,,,,,,,,,100,,,,,,,,,,,,,,,,,,,,,9,10,,,591.1096,4,left,0.2204,,1.5,0.3,"[3,1,2]",0.259423935,stimuli/card_0_transparent.png,0,4,0,4,0,1,,,,,,,,,,
,,,,5d05aa4b28d214001d06bb93,A,2024-07-02_02h27.48.415,Slot Machine Game,2023.1.3,Win32,120.4819277,,,,,,,,,,,,,,,,,,,,,,,,,,,110,,,,,,,,,,,,,,,,,,,,,9,10,,,593.6432,5,right,0.2567,,1.5,0.3,"[3,1,2]",0.63996352,stimuli/card_10_transparent.png,10,5,0,5,0,1,,,,,,,,,,
,,,,5d05aa4b28d214001d06bb93,A,2024-07-02_02h27.48.415,Slot Machine Game,2023.1.3,Win32,120.4819277,,,,,,,,,,,,,,,,,,,,,,,,,,,120,,,,,,,,,,,,,,,,,,,,,9,10,,,596.2019,6,right,0.0149,,1.5,0.3,"[3,1,2]",0.756742086,stimuli/card_10_transparent.png,10,6,0,6,0,1,,,,,,,,,,
,,,,5d05aa4b28d214001d06bb93,A,2024-07-02_02h27.48.415,Slot Machine Game,2023.1.3,Win32,120.4819277,,,,,,,,,,,,,,,,,,,,,,,,,,,220,,,,,,,,,,,,,,,,,,,,,9,10,,,598.5188,7,up,0.0266,,1,0.3,"[3,1,2]",0.315973283,stimuli/card_100_transparent.png,100,7,0,7,0,1,,,,,,,,,,
,,,,5d05aa4b28d214001d06bb93,A,2024-07-02_02h27.48.415,Slot Machine Game,2023.1.3,Win32,120.4819277,,,,,,,,,,,,,,,,,,,,,,,,,,,320,,,,,,,,,,,,,,,,,,,,,9,10,,,600.3525,8,up,0.139,,1.5,0.3,"[3,1,2]",0.283400857,stimuli/card_100_transparent.png,100,8,0,8,0,1,,,,,,,,,,
,,,,5d05aa4b28d214001d06bb93,A,2024-07-02_02h27.48.415,Slot Machine Game,2023.1.3,Win32,120.4819277,,,,,,,,,,,,,,,,,,,,,,,,,,,320,,,,,,,,,,,,,,,,,,,,,9,10,,,602.7945,9,up,0.1164,,1,0.3,"[3,1,2]",0.027743581,stimuli/card_0_transparent.png,0,9,0,9,0,1,,,,,,,,,,
,,,,5d05aa4b28d214001d06bb93,A,2024-07-02_02h27.48.415,Slot Machine Game,2023.1.3,Win32,120.4819277,,,,,,,,,,,,,,,,,,,,,,,,,,,420,,,,,,,,,,,,,,,,,,,,,9,10,,,604.7198,10,up,0.0519,,1.5,0.3,"[1,3,2]",0.092847336,stimuli/card_100_transparent.png,100,10,0,10,0,1,,,,,,,,,,
,,,,5d05aa4b28d214001d06bb93,A,2024-07-02_02h27.48.415,Slot Machine Game,2023.1.3,Win32,120.4819277,,,,,,,,,,,,,,,,,,,,,,,,,,,420,,,,,,,,,,,,,,,,,,,,,9,10,,,607.0785,11,up,0.1009,,1.5,0.3,"[1,3,2]",0.324476835,stimuli/card_0_transparent.png,0,11,0,11,0,1,,,,,,,,,,
,,,,5d05aa4b28d214001d06bb93,A,2024-07-02_02h27.48.415,Slot Machine Game,2023.1.3,Win32,120.4819277,,,,,,,,,,,,,,,,,,,,,,,,,,,420,,,,,,,,,,,,,,,,,,,,,9,10,,,609.4955,12,up,0.1175,,1.5,0.3,"[1,3,2]",0.280060746,stimuli/card_0_transparent.png,0,12,0,12,0,1,,,,,,,,,,
,,,,5d05aa4b28d214001d06bb93,A,2024-07-02_02h27.48.415,Slot Machine Game,2023.1.3,Win32,120.4819277,,,,,,,,,,,,,,,,,,,,,,,,,,,420,,,,,,,,,,,,,,,,,,,,,9,10,,,611.9209,13,up,0.2266,,1.5,0.3,"[1,3,2]",0.859409849,stimuli/card_0_transparent.png,0,13,0,13,0,1,,,,,,,,,,
,,,,5d05aa4b28d214001d06bb93,A,2024-07-02_02h27.48.415,Slot Machine Game,2023.1.3,Win32,120.4819277,,,,,,,,,,,,,,,,,,,,,,,,,,,430,,,,,,,,,,,,,,,,,,,,,9,10,,,614.4629,14,right,0.2183,,0.5,0.3,"[1,3,2]",0.532617009,stimuli/card_10_transparent.png,10,14,0,14,0,1,,,,,,,,,,
,,,,5d05aa4b28d214001d06bb93,A,2024-07-02_02h27.48.415,Slot Machine Game,2023.1.3,Win32,120.4819277,,,,,,,,,,,,,,,,,,,,,,,,,,,,,,,,,,,615.9881,,,,,,,,,,,,,,,,,,,,,,,,,,,,,,,,,"[350,760,960,940,380,1120,450,1110,430]",8,0,8,0,1,,,,
,,,,5d05aa4b28d214001d06bb93,A,2024-07-02_02h27.48.415,Slot Machine Game,2023.1.3,Win32,120.4819277,,,,,,,,,,,,,,,,,,,,,,,,,,,10,,,,,,,,,,,,,,,,,,,,,10,3,"[15,15]","[[3,1,2],[3,1,2]]",620.995,0,right,0.5891,,1,0.3,"[3,1,2]",0.225957731,stimuli/card_10_transparent.png,10,0,0,0,0,1,,,,,,,,,,
,,,,5d05aa4b28d214001d06bb93,A,2024-07-02_02h27.48.415,Slot Machine Game,2023.1.3,Win32,120.4819277,,,,,,,,,,,,,,,,,,,,,,,,,,,10,,,,,,,,,,,,,,,,,,,,,10,3,,,623.3892,1,left,0.006,,0.5,0.3,"[3,1,2]",0.288286864,stimuli/card_0_transparent.png,0,1,0,1,0,1,,,,,,,,,,
,,,,5d05aa4b28d214001d06bb93,A,2024-07-02_02h27.48.415,Slot Machine Game,2023.1.3,Win32,120.4819277,,,,,,,,,,,,,,,,,,,,,,,,,,,110,,,,,,,,,,,,,,,,,,,,,10,3,,,624.706,2,up,0.0214,,1.5,0.3,"[3,1,2]",0.840705095,stimuli/card_100_transparent.png,100,2,0,2,0,1,,,,,,,,,,
,,,,5d05aa4b28d214001d06bb93,A,2024-07-02_02h27.48.415,Slot Machine Game,2023.1.3,Win32,120.4819277,,,,,,,,,,,,,,,,,,,,,,,,,,,210,,,,,,,,,,,,,,,,,,,,,10,3,,,627.0313,3,up,0.1942,,0.5,0.3,"[3,1,2]",0.219072912,stimuli/card_100_transparent.png,100,3,0,3,0,1,,,,,,,,,,
,,,,5d05aa4b28d214001d06bb93,A,2024-07-02_02h27.48.415,Slot Machine Game,2023.1.3,Win32,120.4819277,,,,,,,,,,,,,,,,,,,,,,,,,,,220,,,,,,,,,,,,,,,,,,,,,10,3,,,628.5317,4,up,0.1526,,1,0.3,"[3,1,2]",0.116989672,stimuli/card_10_transparent.png,10,4,0,4,0,1,,,,,,,,,,
,,,,5d05aa4b28d214001d06bb93,A,2024-07-02_02h27.48.415,Slot Machine Game,2023.1.3,Win32,120.4819277,,,,,,,,,,,,,,,,,,,,,,,,,,,320,,,,,,,,,,,,,,,,,,,,,10,3,,,630.4986,5,up,0.3944,,0.5,0.3,"[3,1,2]",0.418972177,stimuli/card_100_transparent.png,100,5,0,5,0,1,,,,,,,,,,
,,,,5d05aa4b28d214001d06bb93,A,2024-07-02_02h27.48.415,Slot Machine Game,2023.1.3,Win32,120.4819277,,,,,,,,,,,,,,,,,,,,,,,,,,,330,,,,,,,,,,,,,,,,,,,,,10,3,,,632.1988,6,up,0.2275,,1.5,0.3,"[3,1,2]",0.159007978,stimuli/card_10_transparent.png,10,6,0,6,0,1,,,,,,,,,,
,,,,5d05aa4b28d214001d06bb93,A,2024-07-02_02h27.48.415,Slot Machine Game,2023.1.3,Win32,120.4819277,,,,,,,,,,,,,,,,,,,,,,,,,,,430,,,,,,,,,,,,,,,,,,,,,10,3,,,634.7326,7,up,0.2848,,1,0.3,"[3,1,2]",0.468886749,stimuli/card_100_transparent.png,100,7,0,7,0,1,,,,,,,,,,
,,,,5d05aa4b28d214001d06bb93,A,2024-07-02_02h27.48.415,Slot Machine Game,2023.1.3,Win32,120.4819277,,,,,,,,,,,,,,,,,,,,,,,,,,,530,,,,,,,,,,,,,,,,,,,,,10,3,,,636.8329,8,up,0.0117,,1,0.3,"[3,1,2]",0.691527801,stimuli/card_100_transparent.png,100,8,0,8,0,1,,,,,,,,,,
,,,,5d05aa4b28d214001d06bb93,A,2024-07-02_02h27.48.415,Slot Machine Game,2023.1.3,Win32,120.4819277,,,,,,,,,,,,,,,,,,,,,,,,,,,630,,,,,,,,,,,,,,,,,,,,,10,3,,,638.6497,9,up,0.3732,,1,0.3,"[3,1,2]",0.885950572,stimuli/card_100_transparent.png,100,9,0,9,0,1,,,,,,,,,,
,,,,5d05aa4b28d214001d06bb93,A,2024-07-02_02h27.48.415,Slot Machine Game,2023.1.3,Win32,120.4819277,,,,,,,,,,,,,,,,,,,,,,,,,,,730,,,,,,,,,,,,,,,,,,,,,10,3,,,640.825,10,up,0.078,,0.5,0.3,"[3,1,2]",0.308996765,stimuli/card_100_transparent.png,100,10,0,10,0,1,,,,,,,,,,
,,,,5d05aa4b28d214001d06bb93,A,2024-07-02_02h27.48.415,Slot Machine Game,2023.1.3,Win32,120.4819277,,,,,,,,,,,,,,,,,,,,,,,,,,,730,,,,,,,,,,,,,,,,,,,,,10,3,,,642.2086,11,up,0.0992,,1,0.3,"[3,1,2]",0.055897094,stimuli/card_0_transparent.png,0,11,0,11,0,1,,,,,,,,,,
,,,,5d05aa4b28d214001d06bb93,A,2024-07-02_02h27.48.415,Slot Machine Game,2023.1.3,Win32,120.4819277,,,,,,,,,,,,,,,,,,,,,,,,,,,830,,,,,,,,,,,,,,,,,,,,,10,3,,,644.1173,12,up,0.5499,,1,0.3,"[3,1,2]",0.510147313,stimuli/card_100_transparent.png,100,12,0,12,0,1,,,,,,,,,,
,,,,5d05aa4b28d214001d06bb93,A,2024-07-02_02h27.48.415,Slot Machine Game,2023.1.3,Win32,120.4819277,,,,,,,,,,,,,,,,,,,,,,,,,,,930,,,,,,,,,,,,,,,,,,,,,10,3,,,646.4842,13,up,0.0381,,1.5,0.3,"[3,1,2]",0.511014074,stimuli/card_100_transparent.png,100,13,0,13,0,1,,,,,,,,,,
,,,,5d05aa4b28d214001d06bb93,A,2024-07-02_02h27.48.415,Slot Machine Game,2023.1.3,Win32,120.4819277,,,,,,,,,,,,,,,,,,,,,,,,,,,930,,,,,,,,,,,,,,,,,,,,,10,3,,,648.8346,14,up,0.1426,,1,0.3,"[3,1,2]",0.026103989,stimuli/card_0_transparent.png,0,14,0,14,0,1,,,,,,,,,,
,,,,5d05aa4b28d214001d06bb93,A,2024-07-02_02h27.48.415,Slot Machine Game,2023.1.3,Win32,120.4819277,,,,,,,,,,,,,,,,,,,,,,,,,,,,,,,,,,,650.7932,,,,,,,,,,,,,,,,,,,,,,,,,,,,,,,,,"[350,760,960,940,380,1120,450,1110,430,930]",9,0,9,0,1,,,,
,,,,5d05aa4b28d214001d06bb93,A,2024-07-02_02h27.48.415,Slot Machine Game,2023.1.3,Win32,120.4819277,,,,,,,,,,,,,,,,,,,,,,,,,,,,,,,,,,,,,,,,,,,,,,,,,,,,,,,,,,,,,,,,,,,,,,,,,,9,"[350,760,960,940,380,1120,450,1110,430,930]",9.6,2024-07-02_02h38.48.266
