key_resp_welcome_started,key_resp_welcome_keys,key_resp_welcome_rt,key_resp_welcome_duration,prolific_id,path_id,date,expName,psychopyVersion,OS,frameRate,key_resp_instruction1_started,key_resp_instruction1_keys,key_resp_instruction1_rt,key_resp_instruction1_duration,key_resp_instruction2_started,key_resp_instruction2_keys,key_resp_instruction2_rt,key_resp_instruction2_duration,key_resp_instruction3_started,key_resp_instruction3_keys,key_resp_instruction3_rt,key_resp_instruction3_duration,key_resp_instruction4_started,key_resp_instruction4_keys,key_resp_instruction4_rt,key_resp_instruction4_duration,practiceCondition,practice_reward_seqs,practice_trial_started,practice_trial_num,practice_resp_rt,practice_resp_duration,practice_resp_keys,prac_presentationInterval,"practice_reward_seq: 2,1,3",reward_img,cumulative_reward,trial_reward,practice_trials.thisRepN,practice_trials.thisTrialN,practice_trials.thisN,practice_trials.thisIndex,practice_trials.ran,"practice_reward_seq: 2,3,1",block_break_started,"practice_reward_seq: 1,3,2","practice_reward_seq: 3,1,2",practice_end_time,practice_end_keys,practice_end_rt,practice_end_duration,main_instruction_text_started,block_condition,block_order_indices,main_instruction_keys,main_instruction_rt,main_instruction_duration,block_number,block_assignment,current_condition,main_reward_seqs,main_trial_started,main_trial_num,main_trial_keys,main_trial_rt,main_trial_duration,main_presentationInterval,reward_presentation_time,main_reward_seq,reward_rand_val,main_reward_img,current_reward,main_trials.thisRepN,main_trials.thisTrialN,main_trials.thisN,main_trials.thisIndex,main_trials.ran,block_reward,block.thisRepN,block.thisTrialN,block.thisN,block.thisIndex,block.ran,block_reward.length,block_reward_all,reward_amount,date_end_task
0.0001,down,8.4797,,5d26b931a7d5390018bc5612,A,2024-07-08_17h22.58.195,Slot Machine Game,2023.1.3,Win32,14.99250375,,,,,,,,,,,,,,,,,,,,,,,,,,,,,,,,,,,,,,,,,,,,,,,,,,,,,,,,,,,,,,,,,,,,,,,,,,,,,
,,,,5d26b931a7d5390018bc5612,A,2024-07-08_17h22.58.195,Slot Machine Game,2023.1.3,Win32,14.99250375,8.5392,right,79.4202,,,,,,,,,,,,,,,,,,,,,,,,,,,,,,,,,,,,,,,,,,,,,,,,,,,,,,,,,,,,,,,,,,,,,,,,,,
,,,,5d26b931a7d5390018bc5612,A,2024-07-08_17h22.58.195,Slot Machine Game,2023.1.3,Win32,14.99250375,,,,,88.0485,right,15.9256,,,,,,,,,,,,,,,,,,,,,,,,,,,,,,,,,,,,,,,,,,,,,,,,,,,,,,,,,,,,,,,,,,,,,,
,,,,5d26b931a7d5390018bc5612,A,2024-07-08_17h22.58.195,Slot Machine Game,2023.1.3,Win32,14.99250375,,,,,,,,,104.076,right,4.7309,,,,,,,,,,,,,,,,,,,,,,,,,,,,,,,,,,,,,,,,,,,,,,,,,,,,,,,,,,,,,,,,,,
,,,,5d26b931a7d5390018bc5612,A,2024-07-08_17h22.58.195,Slot Machine Game,2023.1.3,Win32,14.99250375,,,,,,,,,,,,,,,,,,,,,,,,,,,,,,,,,,,,,,,,,,,,,,,,,,,,,,,,,,,,,,,,,,,,,,,,,,,,,
,,,,5d26b931a7d5390018bc5612,A,2024-07-08_17h22.58.195,Slot Machine Game,2023.1.3,Win32,14.99250375,,,,,,,,,,,,,251.8398,space,4.4531,,,,,,,,,,,,,,,,,,,,,,,,,,,,,,,,,,,,,,,,,,,,,,,,,,,,,,,,,,,,,,
,,,,5d26b931a7d5390018bc5612,A,2024-07-08_17h22.58.195,Slot Machine Game,2023.1.3,Win32,14.99250375,,,,,,,,,,,,,,,,,"[9,15]","[[2,1,3],[2,3,1]]",256.3565,0,0.3934,,left,1,,stimuli/card_10_transparent.png,10,10,0,0,0,0,1,,,,,,,,,,,,,,,,,,,,,,,,,,,,,,,,,,,,,,,,,,,,
,,,,5d26b931a7d5390018bc5612,A,2024-07-08_17h22.58.195,Slot Machine Game,2023.1.3,Win32,14.99250375,,,,,,,,,,,,,,,,,,,258.6293,1,0.8123,,left,1.5,,stimuli/card_10_transparent.png,20,10,1,0,1,0,1,,,,,,,,,,,,,,,,,,,,,,,,,,,,,,,,,,,,,,,,,,,,
,,,,5d26b931a7d5390018bc5612,A,2024-07-08_17h22.58.195,Slot Machine Game,2023.1.3,Win32,14.99250375,,,,,,,,,,,,,,,,,,,261.822,2,2.4793,,up,1,,stimuli/card_100_transparent.png,120,100,2,0,2,0,1,,,,,,,,,,,,,,,,,,,,,,,,,,,,,,,,,,,,,,,,,,,,
,,,,5d26b931a7d5390018bc5612,A,2024-07-08_17h22.58.195,Slot Machine Game,2023.1.3,Win32,14.99250375,,,,,,,,,,,,,,,,,,,266.1856,3,0.1372,,up,1.5,,stimuli/card_100_transparent.png,220,100,3,0,3,0,1,,,,,,,,,,,,,,,,,,,,,,,,,,,,,,,,,,,,,,,,,,,,
,,,,5d26b931a7d5390018bc5612,A,2024-07-08_17h22.58.195,Slot Machine Game,2023.1.3,Win32,14.99250375,,,,,,,,,,,,,,,,,,,268.6783,4,2.1002,,up,1.5,,stimuli/card_100_transparent.png,320,100,4,0,4,0,1,,,,,,,,,,,,,,,,,,,,,,,,,,,,,,,,,,,,,,,,,,,,
,,,,5d26b931a7d5390018bc5612,A,2024-07-08_17h22.58.195,Slot Machine Game,2023.1.3,Win32,14.99250375,,,,,,,,,,,,,,,,,,,273.1181,5,0.141,,up,1.5,,stimuli/card_100_transparent.png,420,100,5,0,5,0,1,,,,,,,,,,,,,,,,,,,,,,,,,,,,,,,,,,,,,,,,,,,,
,,,,5d26b931a7d5390018bc5612,A,2024-07-08_17h22.58.195,Slot Machine Game,2023.1.3,Win32,14.99250375,,,,,,,,,,,,,,,,,,,275.5853,6,1.405,,up,1,,stimuli/card_10_transparent.png,430,10,6,0,6,0,1,,,,,,,,,,,,,,,,,,,,,,,,,,,,,,,,,,,,,,,,,,,,
,,,,5d26b931a7d5390018bc5612,A,2024-07-08_17h22.58.195,Slot Machine Game,2023.1.3,Win32,14.99250375,,,,,,,,,,,,,,,,,,,278.8284,7,0.5239,,right,0.5,,stimuli/card_0_transparent.png,430,0,7,0,7,0,1,,,,,,,,,,,,,,,,,,,,,,,,,,,,,,,,,,,,,,,,,,,,
,,,,5d26b931a7d5390018bc5612,A,2024-07-08_17h22.58.195,Slot Machine Game,2023.1.3,Win32,14.99250375,,,,,,,,,,,,,,,,,,,280.7421,8,0.0712,,up,0.5,,stimuli/card_100_transparent.png,530,100,8,0,8,0,1,,,,,,,,,,,,,,,,,,,,,,,,,,,,,,,,,,,,,,,,,,,,
,,,,5d26b931a7d5390018bc5612,A,2024-07-08_17h22.58.195,Slot Machine Game,2023.1.3,Win32,14.99250375,,,,,,,,,,,,,,,,,,,282.216,9,1.6044,,up,0.5,,stimuli/card_0_transparent.png,530,0,9,0,9,0,1,,,,,,,,,,,,,,,,,,,,,,,,,,,,,,,,,,,,,,,,,,,,
,,,,5d26b931a7d5390018bc5612,A,2024-07-08_17h22.58.195,Slot Machine Game,2023.1.3,Win32,14.99250375,,,,,,,,,,,,,,,,,,,285.212,10,0.458,,left,0.5,,stimuli/card_10_transparent.png,540,10,10,0,10,0,1,,,,,,,,,,,,,,,,,,,,,,,,,,,,,,,,,,,,,,,,,,,,
,,,,5d26b931a7d5390018bc5612,A,2024-07-08_17h22.58.195,Slot Machine Game,2023.1.3,Win32,14.99250375,,,,,,,,,,,,,,,,,,,287.0363,11,1.2079,,up,1,,stimuli/card_0_transparent.png,540,0,11,0,11,0,1,,,,,,,,,,,,,,,,,,,,,,,,,,,,,,,,,,,,,,,,,,,,
,,,,5d26b931a7d5390018bc5612,A,2024-07-08_17h22.58.195,Slot Machine Game,2023.1.3,Win32,14.99250375,,,,,,,,,,,,,,,,,,,290.1345,12,0.2646,,up,1.5,,stimuli/card_0_transparent.png,540,0,12,0,12,0,1,,,,,,,,,,,,,,,,,,,,,,,,,,,,,,,,,,,,,,,,,,,,
,,,,5d26b931a7d5390018bc5612,A,2024-07-08_17h22.58.195,Slot Machine Game,2023.1.3,Win32,14.99250375,,,,,,,,,,,,,,,,,,,292.7535,13,0.0054,,right,0.5,,stimuli/card_100_transparent.png,640,100,13,0,13,0,1,,,,,,,,,,,,,,,,,,,,,,,,,,,,,,,,,,,,,,,,,,,,
,,,,5d26b931a7d5390018bc5612,A,2024-07-08_17h22.58.195,Slot Machine Game,2023.1.3,Win32,14.99250375,,,,,,,,,,,,,,,,,,,294.1554,14,0.2178,,right,1,,stimuli/card_100_transparent.png,740,100,14,0,14,0,1,,,,,,,,,,,,,,,,,,,,,,,,,,,,,,,,,,,,,,,,,,,,
,,,,5d26b931a7d5390018bc5612,A,2024-07-08_17h22.58.195,Slot Machine Game,2023.1.3,Win32,14.99250375,,,,,,,,,,,,,,,,,"[6,15]","[[1,3,2],[3,1,2]]",301.2329,0,1.6947,,up,0.5,,stimuli/card_0_transparent.png,0,0,0,0,0,0,1,,296.2331,,,,,,,,,,,,,,,,,,,,,,,,,,,,,,,,,,,,,,,,,,
,,,,5d26b931a7d5390018bc5612,A,2024-07-08_17h22.58.195,Slot Machine Game,2023.1.3,Win32,14.99250375,,,,,,,,,,,,,,,,,,,304.2396,1,0.0051,,right,1.5,,stimuli/card_100_transparent.png,100,100,1,0,1,0,1,,,,,,,,,,,,,,,,,,,,,,,,,,,,,,,,,,,,,,,,,,,,
,,,,5d26b931a7d5390018bc5612,A,2024-07-08_17h22.58.195,Slot Machine Game,2023.1.3,Win32,14.99250375,,,,,,,,,,,,,,,,,,,306.5615,2,0.1308,,right,0.5,,stimuli/card_10_transparent.png,110,10,2,0,2,0,1,,,,,,,,,,,,,,,,,,,,,,,,,,,,,,,,,,,,,,,,,,,,
,,,,5d26b931a7d5390018bc5612,A,2024-07-08_17h22.58.195,Slot Machine Game,2023.1.3,Win32,14.99250375,,,,,,,,,,,,,,,,,,,308.0308,3,0.1318,,right,1,,stimuli/card_100_transparent.png,210,100,3,0,3,0,1,,,,,,,,,,,,,,,,,,,,,,,,,,,,,,,,,,,,,,,,,,,,
,,,,5d26b931a7d5390018bc5612,A,2024-07-08_17h22.58.195,Slot Machine Game,2023.1.3,Win32,14.99250375,,,,,,,,,,,,,,,,,,,310.0348,4,0.9568,,right,0.5,,stimuli/card_10_transparent.png,220,10,4,0,4,0,1,,,,,,,,,,,,,,,,,,,,,,,,,,,,,,,,,,,,,,,,,,,,
,,,,5d26b931a7d5390018bc5612,A,2024-07-08_17h22.58.195,Slot Machine Game,2023.1.3,Win32,14.99250375,,,,,,,,,,,,,,,,,,,312.3408,5,0.0053,,right,1,,stimuli/card_100_transparent.png,320,100,5,0,5,0,1,,,,,,,,,,,,,,,,,,,,,,,,,,,,,,,,,,,,,,,,,,,,
,,,,5d26b931a7d5390018bc5612,A,2024-07-08_17h22.58.195,Slot Machine Game,2023.1.3,Win32,14.99250375,,,,,,,,,,,,,,,,,,,314.1938,6,0.6214,,right,0.5,,stimuli/card_10_transparent.png,330,10,6,0,6,0,1,,,,,,,,,,,,,,,,,,,,,,,,,,,,,,,,,,,,,,,,,,,,
,,,,5d26b931a7d5390018bc5612,A,2024-07-08_17h22.58.195,Slot Machine Game,2023.1.3,Win32,14.99250375,,,,,,,,,,,,,,,,,,,316.2128,7,0.1446,,right,0.5,,stimuli/card_10_transparent.png,340,10,7,0,7,0,1,,,,,,,,,,,,,,,,,,,,,,,,,,,,,,,,,,,,,,,,,,,,
,,,,5d26b931a7d5390018bc5612,A,2024-07-08_17h22.58.195,Slot Machine Game,2023.1.3,Win32,14.99250375,,,,,,,,,,,,,,,,,,,317.7708,8,0.1375,,right,1.5,,stimuli/card_10_transparent.png,350,10,8,0,8,0,1,,,,,,,,,,,,,,,,,,,,,,,,,,,,,,,,,,,,,,,,,,,,
,,,,5d26b931a7d5390018bc5612,A,2024-07-08_17h22.58.195,Slot Machine Game,2023.1.3,Win32,14.99250375,,,,,,,,,,,,,,,,,,,320.2738,9,0.9187,,left,1,,stimuli/card_100_transparent.png,450,100,9,0,9,0,1,,,,,,,,,,,,,,,,,,,,,,,,,,,,,,,,,,,,,,,,,,,,
,,,,5d26b931a7d5390018bc5612,A,2024-07-08_17h22.58.195,Slot Machine Game,2023.1.3,Win32,14.99250375,,,,,,,,,,,,,,,,,,,323.0701,10,0.0051,,left,1,,stimuli/card_0_transparent.png,450,0,10,0,10,0,1,,,,,,,,,,,,,,,,,,,,,,,,,,,,,,,,,,,,,,,,,,,,
,,,,5d26b931a7d5390018bc5612,A,2024-07-08_17h22.58.195,Slot Machine Game,2023.1.3,Win32,14.99250375,,,,,,,,,,,,,,,,,,,324.9322,11,0.0053,,left,1,,stimuli/card_0_transparent.png,450,0,11,0,11,0,1,,,,,,,,,,,,,,,,,,,,,,,,,,,,,,,,,,,,,,,,,,,,
,,,,5d26b931a7d5390018bc5612,A,2024-07-08_17h22.58.195,Slot Machine Game,2023.1.3,Win32,14.99250375,,,,,,,,,,,,,,,,,,,326.7581,12,0.4177,,up,1,,stimuli/card_100_transparent.png,550,100,12,0,12,0,1,,,,,,,,,,,,,,,,,,,,,,,,,,,,,,,,,,,,,,,,,,,,
,,,,5d26b931a7d5390018bc5612,A,2024-07-08_17h22.58.195,Slot Machine Game,2023.1.3,Win32,14.99250375,,,,,,,,,,,,,,,,,,,329.063,13,0.6024,,up,0.5,,stimuli/card_100_transparent.png,650,100,13,0,13,0,1,,,,,,,,,,,,,,,,,,,,,,,,,,,,,,,,,,,,,,,,,,,,
,,,,5d26b931a7d5390018bc5612,A,2024-07-08_17h22.58.195,Slot Machine Game,2023.1.3,Win32,14.99250375,,,,,,,,,,,,,,,,,,,331.0254,14,0.3518,,up,0.5,,stimuli/card_0_transparent.png,650,0,14,0,14,0,1,,,,,,,,,,,,,,,,,,,,,,,,,,,,,,,,,,,,,,,,,,,,
,,,,5d26b931a7d5390018bc5612,A,2024-07-08_17h22.58.195,Slot Machine Game,2023.1.3,Win32,14.99250375,,,,,,,,,,,,,,,,,,,,,,,,,,,,,,,,,,,332.7665,,,337.7407,space,3.1752,,,,,,,,,,,,,,,,,,,,,,,,,,,,,,,,,,,,,
,,,,5d26b931a7d5390018bc5612,A,2024-07-08_17h22.58.195,Slot Machine Game,2023.1.3,Win32,14.99250375,,,,,,,,,,,,,,,,,,,,,,,,,,,,,,,,,,,,,,,,,,340.9785,2,"[2,4,8,0,1,3,9,6,8,5]",space,1.759,,,,,,,,,,,,,,,,,,,,,,,,,,,,,,,
,,,,5d26b931a7d5390018bc5612,A,2024-07-08_17h22.58.195,Slot Machine Game,2023.1.3,Win32,14.99250375,,,,,,,,,,,,,,,,,,,,,,,,,,,0,,,,,,,,,,,,,,,,,,,,,1,3,"[15,15]","[[3,1,2],[3,1,2]]",342.8109,0,left,0.2208,,1,0.3,"[3,1,2]",0.711940078,stimuli/card_0_transparent.png,0,0,0,0,0,1,,,,,,,,,,
,,,,5d26b931a7d5390018bc5612,A,2024-07-08_17h22.58.195,Slot Machine Game,2023.1.3,Win32,14.99250375,,,,,,,,,,,,,,,,,,,,,,,,,,,100,,,,,,,,,,,,,,,,,,,,,1,3,,,344.8811,1,up,0.0051,,0.5,0.3,"[3,1,2]",0.634688063,stimuli/card_100_transparent.png,100,1,0,1,0,1,,,,,,,,,,
,,,,5d26b931a7d5390018bc5612,A,2024-07-08_17h22.58.195,Slot Machine Game,2023.1.3,Win32,14.99250375,,,,,,,,,,,,,,,,,,,,,,,,,,,100,,,,,,,,,,,,,,,,,,,,,1,3,,,346.2435,2,up,0.7987,,0.5,0.3,"[3,1,2]",0.085915673,stimuli/card_0_transparent.png,0,2,0,2,0,1,,,,,,,,,,
,,,,5d26b931a7d5390018bc5612,A,2024-07-08_17h22.58.195,Slot Machine Game,2023.1.3,Win32,14.99250375,,,,,,,,,,,,,,,,,,,,,,,,,,,110,,,,,,,,,,,,,,,,,,,,,1,3,,,348.3591,3,right,0.0799,,0.5,0.3,"[3,1,2]",0.640472258,stimuli/card_10_transparent.png,10,3,0,3,0,1,,,,,,,,,,
,,,,5d26b931a7d5390018bc5612,A,2024-07-08_17h22.58.195,Slot Machine Game,2023.1.3,Win32,14.99250375,,,,,,,,,,,,,,,,,,,,,,,,,,,110,,,,,,,,,,,,,,,,,,,,,1,3,,,349.7811,4,up,0.4068,,0.5,0.3,"[3,1,2]",0.031696555,stimuli/card_0_transparent.png,0,4,0,4,0,1,,,,,,,,,,
,,,,5d26b931a7d5390018bc5612,A,2024-07-08_17h22.58.195,Slot Machine Game,2023.1.3,Win32,14.99250375,,,,,,,,,,,,,,,,,,,,,,,,,,,210,,,,,,,,,,,,,,,,,,,,,1,3,,,351.5417,5,up,0.0051,,1,0.3,"[3,1,2]",0.300942671,stimuli/card_100_transparent.png,100,5,0,5,0,1,,,,,,,,,,
,,,,5d26b931a7d5390018bc5612,A,2024-07-08_17h22.58.195,Slot Machine Game,2023.1.3,Win32,14.99250375,,,,,,,,,,,,,,,,,,,,,,,,,,,310,,,,,,,,,,,,,,,,,,,,,1,3,,,353.4628,6,up,0.3388,,0.5,0.3,"[3,1,2]",0.774251194,stimuli/card_100_transparent.png,100,6,0,6,0,1,,,,,,,,,,
,,,,5d26b931a7d5390018bc5612,A,2024-07-08_17h22.58.195,Slot Machine Game,2023.1.3,Win32,14.99250375,,,,,,,,,,,,,,,,,,,,,,,,,,,310,,,,,,,,,,,,,,,,,,,,,1,3,,,355.1955,7,up,0.4142,,0.5,0.3,"[3,1,2]",0.040417539,stimuli/card_0_transparent.png,0,7,0,7,0,1,,,,,,,,,,
,,,,5d26b931a7d5390018bc5612,A,2024-07-08_17h22.58.195,Slot Machine Game,2023.1.3,Win32,14.99250375,,,,,,,,,,,,,,,,,,,,,,,,,,,410,,,,,,,,,,,,,,,,,,,,,1,3,,,357.0337,8,up,0.2762,,0.5,0.3,"[3,1,2]",0.414808192,stimuli/card_100_transparent.png,100,8,0,8,0,1,,,,,,,,,,
,,,,5d26b931a7d5390018bc5612,A,2024-07-08_17h22.58.195,Slot Machine Game,2023.1.3,Win32,14.99250375,,,,,,,,,,,,,,,,,,,,,,,,,,,510,,,,,,,,,,,,,,,,,,,,,1,3,,,358.706,9,up,0.2886,,0.5,0.3,"[3,1,2]",0.362083087,stimuli/card_100_transparent.png,100,9,0,9,0,1,,,,,,,,,,
,,,,5d26b931a7d5390018bc5612,A,2024-07-08_17h22.58.195,Slot Machine Game,2023.1.3,Win32,14.99250375,,,,,,,,,,,,,,,,,,,,,,,,,,,510,,,,,,,,,,,,,,,,,,,,,1,3,,,360.4228,10,up,0.0773,,1.5,0.3,"[3,1,2]",0.073128064,stimuli/card_0_transparent.png,0,10,0,10,0,1,,,,,,,,,,
,,,,5d26b931a7d5390018bc5612,A,2024-07-08_17h22.58.195,Slot Machine Game,2023.1.3,Win32,14.99250375,,,,,,,,,,,,,,,,,,,,,,,,,,,610,,,,,,,,,,,,,,,,,,,,,1,3,,,362.8577,11,up,0.2118,,1,0.3,"[3,1,2]",0.577425237,stimuli/card_100_transparent.png,100,11,0,11,0,1,,,,,,,,,,
,,,,5d26b931a7d5390018bc5612,A,2024-07-08_17h22.58.195,Slot Machine Game,2023.1.3,Win32,14.99250375,,,,,,,,,,,,,,,,,,,,,,,,,,,710,,,,,,,,,,,,,,,,,,,,,1,3,,,364.9952,12,up,0.1291,,0.5,0.3,"[3,1,2]",0.220759698,stimuli/card_100_transparent.png,100,12,0,12,0,1,,,,,,,,,,
,,,,5d26b931a7d5390018bc5612,A,2024-07-08_17h22.58.195,Slot Machine Game,2023.1.3,Win32,14.99250375,,,,,,,,,,,,,,,,,,,,,,,,,,,810,,,,,,,,,,,,,,,,,,,,,1,3,,,366.4754,13,up,0.0804,,1.5,0.3,"[3,1,2]",0.247629393,stimuli/card_100_transparent.png,100,13,0,13,0,1,,,,,,,,,,
,,,,5d26b931a7d5390018bc5612,A,2024-07-08_17h22.58.195,Slot Machine Game,2023.1.3,Win32,14.99250375,,,,,,,,,,,,,,,,,,,,,,,,,,,910,,,,,,,,,,,,,,,,,,,,,1,3,,,368.879,14,up,0.0049,,1,0.3,"[3,1,2]",0.716336476,stimuli/card_100_transparent.png,100,14,0,14,0,1,,,,,,,,,,
,,,,5d26b931a7d5390018bc5612,A,2024-07-08_17h22.58.195,Slot Machine Game,2023.1.3,Win32,14.99250375,,,,,,,,,,,,,,,,,,,,,,,,,,,,,,,,,,,370.7479,,,,,,,,,,,,,,,,,,,,,,,,,,,,,,,,,[910],0,0,0,0,1,,,,
,,,,5d26b931a7d5390018bc5612,A,2024-07-08_17h22.58.195,Slot Machine Game,2023.1.3,Win32,14.99250375,,,,,,,,,,,,,,,,,,,,,,,,,,,100,,,,,,,,,,,,,,,,,,,,,2,5,"[5,15]","[[1,2,3],[3,1,2]]",375.7265,0,left,0.6786,,0.5,0.3,"[1,2,3]",0.923803143,stimuli/card_100_transparent.png,100,0,0,0,0,1,,,,,,,,,,
,,,,5d26b931a7d5390018bc5612,A,2024-07-08_17h22.58.195,Slot Machine Game,2023.1.3,Win32,14.99250375,,,,,,,,,,,,,,,,,,,,,,,,,,,200,,,,,,,,,,,,,,,,,,,,,2,5,,,377.7419,1,left,0.336,,1,0.3,"[1,2,3]",0.522196645,stimuli/card_100_transparent.png,100,1,0,1,0,1,,,,,,,,,,
,,,,5d26b931a7d5390018bc5612,A,2024-07-08_17h22.58.195,Slot Machine Game,2023.1.3,Win32,14.99250375,,,,,,,,,,,,,,,,,,,,,,,,,,,300,,,,,,,,,,,,,,,,,,,,,2,5,,,379.9278,2,left,0.2771,,0.5,0.3,"[1,2,3]",0.496318661,stimuli/card_100_transparent.png,100,2,0,2,0,1,,,,,,,,,,
,,,,5d26b931a7d5390018bc5612,A,2024-07-08_17h22.58.195,Slot Machine Game,2023.1.3,Win32,14.99250375,,,,,,,,,,,,,,,,,,,,,,,,,,,400,,,,,,,,,,,,,,,,,,,,,2,5,,,381.5697,3,left,0.3971,,0.5,0.3,"[1,2,3]",0.372059987,stimuli/card_100_transparent.png,100,3,0,3,0,1,,,,,,,,,,
,,,,5d26b931a7d5390018bc5612,A,2024-07-08_17h22.58.195,Slot Machine Game,2023.1.3,Win32,14.99250375,,,,,,,,,,,,,,,,,,,,,,,,,,,500,,,,,,,,,,,,,,,,,,,,,2,5,,,383.3549,4,left,0.005,,1.5,0.3,"[1,2,3]",0.778283376,stimuli/card_100_transparent.png,100,4,0,4,0,1,,,,,,,,,,
,,,,5d26b931a7d5390018bc5612,A,2024-07-08_17h22.58.195,Slot Machine Game,2023.1.3,Win32,14.99250375,,,,,,,,,,,,,,,,,,,,,,,,,,,500,,,,,,,,,,,,,,,,,,,,,2,5,,,385.6995,5,left,0.0775,,1,0.3,"[3,1,2]",0.907703121,stimuli/card_0_transparent.png,0,5,0,5,0,1,,,,,,,,,,
,,,,5d26b931a7d5390018bc5612,A,2024-07-08_17h22.58.195,Slot Machine Game,2023.1.3,Win32,14.99250375,,,,,,,,,,,,,,,,,,,,,,,,,,,600,,,,,,,,,,,,,,,,,,,,,2,5,,,387.6383,6,up,0.0053,,1.5,0.3,"[3,1,2]",0.524596182,stimuli/card_100_transparent.png,100,6,0,6,0,1,,,,,,,,,,
,,,,5d26b931a7d5390018bc5612,A,2024-07-08_17h22.58.195,Slot Machine Game,2023.1.3,Win32,14.99250375,,,,,,,,,,,,,,,,,,,,,,,,,,,700,,,,,,,,,,,,,,,,,,,,,2,5,,,390.0258,7,up,0.005,,0.5,0.3,"[3,1,2]",0.229585964,stimuli/card_100_transparent.png,100,7,0,7,0,1,,,,,,,,,,
,,,,5d26b931a7d5390018bc5612,A,2024-07-08_17h22.58.195,Slot Machine Game,2023.1.3,Win32,14.99250375,,,,,,,,,,,,,,,,,,,,,,,,,,,800,,,,,,,,,,,,,,,,,,,,,2,5,,,391.4327,8,up,0.5324,,0.5,0.3,"[3,1,2]",0.628199877,stimuli/card_100_transparent.png,100,8,0,8,0,1,,,,,,,,,,
,,,,5d26b931a7d5390018bc5612,A,2024-07-08_17h22.58.195,Slot Machine Game,2023.1.3,Win32,14.99250375,,,,,,,,,,,,,,,,,,,,,,,,,,,900,,,,,,,,,,,,,,,,,,,,,2,5,,,393.3287,9,up,0.0694,,1,0.3,"[3,1,2]",0.972812765,stimuli/card_100_transparent.png,100,9,0,9,0,1,,,,,,,,,,
,,,,5d26b931a7d5390018bc5612,A,2024-07-08_17h22.58.195,Slot Machine Game,2023.1.3,Win32,14.99250375,,,,,,,,,,,,,,,,,,,,,,,,,,,900,,,,,,,,,,,,,,,,,,,,,2,5,,,395.2099,10,up,0.6736,,1,0.3,"[3,1,2]",0.076513122,stimuli/card_0_transparent.png,0,10,0,10,0,1,,,,,,,,,,
,,,,5d26b931a7d5390018bc5612,A,2024-07-08_17h22.58.195,Slot Machine Game,2023.1.3,Win32,14.99250375,,,,,,,,,,,,,,,,,,,,,,,,,,,900,,,,,,,,,,,,,,,,,,,,,2,5,,,397.7717,11,right,0.3463,,0.5,0.3,"[3,1,2]",0.034225728,stimuli/card_0_transparent.png,0,11,0,11,0,1,,,,,,,,,,
,,,,5d26b931a7d5390018bc5612,A,2024-07-08_17h22.58.195,Slot Machine Game,2023.1.3,Win32,14.99250375,,,,,,,,,,,,,,,,,,,,,,,,,,,900,,,,,,,,,,,,,,,,,,,,,2,5,,,399.4704,12,left,0.3365,,1.5,0.3,"[3,1,2]",0.259443106,stimuli/card_0_transparent.png,0,12,0,12,0,1,,,,,,,,,,
,,,,5d26b931a7d5390018bc5612,A,2024-07-08_17h22.58.195,Slot Machine Game,2023.1.3,Win32,14.99250375,,,,,,,,,,,,,,,,,,,,,,,,,,,1000,,,,,,,,,,,,,,,,,,,,,2,5,,,402.1655,13,up,0.2691,,1,0.3,"[3,1,2]",0.980470565,stimuli/card_100_transparent.png,100,13,0,13,0,1,,,,,,,,,,
,,,,5d26b931a7d5390018bc5612,A,2024-07-08_17h22.58.195,Slot Machine Game,2023.1.3,Win32,14.99250375,,,,,,,,,,,,,,,,,,,,,,,,,,,1010,,,,,,,,,,,,,,,,,,,,,2,5,,,404.2955,14,up,0.2264,,0.5,0.3,"[3,1,2]",0.114048334,stimuli/card_10_transparent.png,10,14,0,14,0,1,,,,,,,,,,
,,,,5d26b931a7d5390018bc5612,A,2024-07-08_17h22.58.195,Slot Machine Game,2023.1.3,Win32,14.99250375,,,,,,,,,,,,,,,,,,,,,,,,,,,,,,,,,,,405.8646,,,,,,,,,,,,,,,,,,,,,,,,,,,,,,,,,"[910,1010]",1,0,1,0,1,,,,
,,,,5d26b931a7d5390018bc5612,A,2024-07-08_17h22.58.195,Slot Machine Game,2023.1.3,Win32,14.99250375,,,,,,,,,,,,,,,,,,,,,,,,,,,10,,,,,,,,,,,,,,,,,,,,,3,9,"[8,15]","[[3,2,1],[3,1,2]]",410.8663,0,up,0.1932,,1.5,0.3,"[3,2,1]",0.312982148,stimuli/card_10_transparent.png,10,0,0,0,0,1,,,,,,,,,,
,,,,5d26b931a7d5390018bc5612,A,2024-07-08_17h22.58.195,Slot Machine Game,2023.1.3,Win32,14.99250375,,,,,,,,,,,,,,,,,,,,,,,,,,,110,,,,,,,,,,,,,,,,,,,,,3,9,,,413.4063,1,right,0.4169,,1.5,0.3,"[3,2,1]",0.430568787,stimuli/card_100_transparent.png,100,1,0,1,0,1,,,,,,,,,,
,,,,5d26b931a7d5390018bc5612,A,2024-07-08_17h22.58.195,Slot Machine Game,2023.1.3,Win32,14.99250375,,,,,,,,,,,,,,,,,,,,,,,,,,,110,,,,,,,,,,,,,,,,,,,,,3,9,,,416.1769,2,right,0.2704,,1,0.3,"[3,2,1]",0.057065479,stimuli/card_0_transparent.png,0,2,0,2,0,1,,,,,,,,,,
,,,,5d26b931a7d5390018bc5612,A,2024-07-08_17h22.58.195,Slot Machine Game,2023.1.3,Win32,14.99250375,,,,,,,,,,,,,,,,,,,,,,,,,,,210,,,,,,,,,,,,,,,,,,,,,3,9,,,418.3192,3,right,0.1323,,1,0.3,"[3,2,1]",0.723171865,stimuli/card_100_transparent.png,100,3,0,3,0,1,,,,,,,,,,
,,,,5d26b931a7d5390018bc5612,A,2024-07-08_17h22.58.195,Slot Machine Game,2023.1.3,Win32,14.99250375,,,,,,,,,,,,,,,,,,,,,,,,,,,310,,,,,,,,,,,,,,,,,,,,,3,9,,,420.3343,4,right,0.0756,,0.5,0.3,"[3,2,1]",0.600659148,stimuli/card_100_transparent.png,100,4,0,4,0,1,,,,,,,,,,
,,,,5d26b931a7d5390018bc5612,A,2024-07-08_17h22.58.195,Slot Machine Game,2023.1.3,Win32,14.99250375,,,,,,,,,,,,,,,,,,,,,,,,,,,410,,,,,,,,,,,,,,,,,,,,,3,9,,,421.7884,5,right,0.5907,,0.5,0.3,"[3,2,1]",0.772435321,stimuli/card_100_transparent.png,100,5,0,5,0,1,,,,,,,,,,
,,,,5d26b931a7d5390018bc5612,A,2024-07-08_17h22.58.195,Slot Machine Game,2023.1.3,Win32,14.99250375,,,,,,,,,,,,,,,,,,,,,,,,,,,420,,,,,,,,,,,,,,,,,,,,,3,9,,,423.7186,6,right,0.5355,,0.5,0.3,"[3,2,1]",0.147688844,stimuli/card_10_transparent.png,10,6,0,6,0,1,,,,,,,,,,
,,,,5d26b931a7d5390018bc5612,A,2024-07-08_17h22.58.195,Slot Machine Game,2023.1.3,Win32,14.99250375,,,,,,,,,,,,,,,,,,,,,,,,,,,520,,,,,,,,,,,,,,,,,,,,,3,9,,,425.5805,7,right,0.0055,,1,0.3,"[3,2,1]",0.581882449,stimuli/card_100_transparent.png,100,7,0,7,0,1,,,,,,,,,,
,,,,5d26b931a7d5390018bc5612,A,2024-07-08_17h22.58.195,Slot Machine Game,2023.1.3,Win32,14.99250375,,,,,,,,,,,,,,,,,,,,,,,,,,,530,,,,,,,,,,,,,,,,,,,,,3,9,,,427.41,8,right,0.0051,,0.5,0.3,"[3,1,2]",0.48927625,stimuli/card_10_transparent.png,10,8,0,8,0,1,,,,,,,,,,
,,,,5d26b931a7d5390018bc5612,A,2024-07-08_17h22.58.195,Slot Machine Game,2023.1.3,Win32,14.99250375,,,,,,,,,,,,,,,,,,,,,,,,,,,630,,,,,,,,,,,,,,,,,,,,,3,9,,,428.7803,9,left,0.005,,0.5,0.3,"[3,1,2]",0.074496905,stimuli/card_100_transparent.png,100,9,0,9,0,1,,,,,,,,,,
,,,,5d26b931a7d5390018bc5612,A,2024-07-08_17h22.58.195,Slot Machine Game,2023.1.3,Win32,14.99250375,,,,,,,,,,,,,,,,,,,,,,,,,,,630,,,,,,,,,,,,,,,,,,,,,3,9,,,430.1483,10,left,0.7439,,1,0.3,"[3,1,2]",0.458094956,stimuli/card_0_transparent.png,0,10,0,10,0,1,,,,,,,,,,
,,,,5d26b931a7d5390018bc5612,A,2024-07-08_17h22.58.195,Slot Machine Game,2023.1.3,Win32,14.99250375,,,,,,,,,,,,,,,,,,,,,,,,,,,630,,,,,,,,,,,,,,,,,,,,,3,9,,,432.7294,11,left,0.0776,,0.5,0.3,"[3,1,2]",0.611480434,stimuli/card_0_transparent.png,0,11,0,11,0,1,,,,,,,,,,
,,,,5d26b931a7d5390018bc5612,A,2024-07-08_17h22.58.195,Slot Machine Game,2023.1.3,Win32,14.99250375,,,,,,,,,,,,,,,,,,,,,,,,,,,640,,,,,,,,,,,,,,,,,,,,,3,9,,,434.2181,12,up,0.5312,,1.5,0.3,"[3,1,2]",0.196575562,stimuli/card_10_transparent.png,10,12,0,12,0,1,,,,,,,,,,
,,,,5d26b931a7d5390018bc5612,A,2024-07-08_17h22.58.195,Slot Machine Game,2023.1.3,Win32,14.99250375,,,,,,,,,,,,,,,,,,,,,,,,,,,640,,,,,,,,,,,,,,,,,,,,,3,9,,,437.1362,13,left,0.2739,,1.5,0.3,"[3,1,2]",0.968631653,stimuli/card_0_transparent.png,0,13,0,13,0,1,,,,,,,,,,
,,,,5d26b931a7d5390018bc5612,A,2024-07-08_17h22.58.195,Slot Machine Game,2023.1.3,Win32,14.99250375,,,,,,,,,,,,,,,,,,,,,,,,,,,740,,,,,,,,,,,,,,,,,,,,,3,9,,,439.8175,14,right,0.5991,,0.5,0.3,"[3,1,2]",0.10591124,stimuli/card_100_transparent.png,100,14,0,14,0,1,,,,,,,,,,
,,,,5d26b931a7d5390018bc5612,A,2024-07-08_17h22.58.195,Slot Machine Game,2023.1.3,Win32,14.99250375,,,,,,,,,,,,,,,,,,,,,,,,,,,,,,,,,,,441.7523,,,,,,,,,,,,,,,,,,,,,,,,,,,,,,,,,"[910,1010,740]",2,0,2,0,1,,,,
,,,,5d26b931a7d5390018bc5612,A,2024-07-08_17h22.58.195,Slot Machine Game,2023.1.3,Win32,14.99250375,,,,,,,,,,,,,,,,,,,,,,,,,,,100,,,,,,,,,,,,,,,,,,,,,4,1,"[12,15]","[[2,1,3],[2,3,1]]",446.7478,0,up,0.1912,,1,0.3,"[2,1,3]",0.544415824,stimuli/card_100_transparent.png,100,0,0,0,0,1,,,,,,,,,,
,,,,5d26b931a7d5390018bc5612,A,2024-07-08_17h22.58.195,Slot Machine Game,2023.1.3,Win32,14.99250375,,,,,,,,,,,,,,,,,,,,,,,,,,,200,,,,,,,,,,,,,,,,,,,,,4,1,,,448.7799,1,up,0.4736,,1,0.3,"[2,1,3]",0.378988691,stimuli/card_100_transparent.png,100,1,0,1,0,1,,,,,,,,,,
,,,,5d26b931a7d5390018bc5612,A,2024-07-08_17h22.58.195,Slot Machine Game,2023.1.3,Win32,14.99250375,,,,,,,,,,,,,,,,,,,,,,,,,,,300,,,,,,,,,,,,,,,,,,,,,4,1,,,451.1002,2,up,0.4123,,1,0.3,"[2,1,3]",0.563088469,stimuli/card_100_transparent.png,100,2,0,2,0,1,,,,,,,,,,
,,,,5d26b931a7d5390018bc5612,A,2024-07-08_17h22.58.195,Slot Machine Game,2023.1.3,Win32,14.99250375,,,,,,,,,,,,,,,,,,,,,,,,,,,400,,,,,,,,,,,,,,,,,,,,,4,1,,,453.4348,3,up,0.7452,,1,0.3,"[2,1,3]",0.754123827,stimuli/card_100_transparent.png,100,3,0,3,0,1,,,,,,,,,,
,,,,5d26b931a7d5390018bc5612,A,2024-07-08_17h22.58.195,Slot Machine Game,2023.1.3,Win32,14.99250375,,,,,,,,,,,,,,,,,,,,,,,,,,,500,,,,,,,,,,,,,,,,,,,,,4,1,,,456.0488,4,up,0.0049,,0.5,0.3,"[2,1,3]",0.417899486,stimuli/card_100_transparent.png,100,4,0,4,0,1,,,,,,,,,,
,,,,5d26b931a7d5390018bc5612,A,2024-07-08_17h22.58.195,Slot Machine Game,2023.1.3,Win32,14.99250375,,,,,,,,,,,,,,,,,,,,,,,,,,,600,,,,,,,,,,,,,,,,,,,,,4,1,,,457.4114,5,up,0.0053,,1,0.3,"[2,1,3]",0.474517653,stimuli/card_100_transparent.png,100,5,0,5,0,1,,,,,,,,,,
,,,,5d26b931a7d5390018bc5612,A,2024-07-08_17h22.58.195,Slot Machine Game,2023.1.3,Win32,14.99250375,,,,,,,,,,,,,,,,,,,,,,,,,,,610,,,,,,,,,,,,,,,,,,,,,4,1,,,459.241,6,left,0.5987,,1.5,0.3,"[2,1,3]",0.965642626,stimuli/card_10_transparent.png,10,6,0,6,0,1,,,,,,,,,,
,,,,5d26b931a7d5390018bc5612,A,2024-07-08_17h22.58.195,Slot Machine Game,2023.1.3,Win32,14.99250375,,,,,,,,,,,,,,,,,,,,,,,,,,,710,,,,,,,,,,,,,,,,,,,,,4,1,,,462.1963,7,up,0.0663,,1,0.3,"[2,1,3]",0.485392208,stimuli/card_100_transparent.png,100,7,0,7,0,1,,,,,,,,,,
,,,,5d26b931a7d5390018bc5612,A,2024-07-08_17h22.58.195,Slot Machine Game,2023.1.3,Win32,14.99250375,,,,,,,,,,,,,,,,,,,,,,,,,,,810,,,,,,,,,,,,,,,,,,,,,4,1,,,464.0883,8,up,0.0054,,1.5,0.3,"[2,1,3]",0.547985214,stimuli/card_100_transparent.png,100,8,0,8,0,1,,,,,,,,,,
,,,,5d26b931a7d5390018bc5612,A,2024-07-08_17h22.58.195,Slot Machine Game,2023.1.3,Win32,14.99250375,,,,,,,,,,,,,,,,,,,,,,,,,,,910,,,,,,,,,,,,,,,,,,,,,4,1,,,466.4508,9,up,0.0055,,1,0.3,"[2,1,3]",0.258788857,stimuli/card_100_transparent.png,100,9,0,9,0,1,,,,,,,,,,
,,,,5d26b931a7d5390018bc5612,A,2024-07-08_17h22.58.195,Slot Machine Game,2023.1.3,Win32,14.99250375,,,,,,,,,,,,,,,,,,,,,,,,,,,920,,,,,,,,,,,,,,,,,,,,,4,1,,,468.2431,10,up,0.0052,,1.5,0.3,"[2,1,3]",0.151349406,stimuli/card_10_transparent.png,10,10,0,10,0,1,,,,,,,,,,
,,,,5d26b931a7d5390018bc5612,A,2024-07-08_17h22.58.195,Slot Machine Game,2023.1.3,Win32,14.99250375,,,,,,,,,,,,,,,,,,,,,,,,,,,930,,,,,,,,,,,,,,,,,,,,,4,1,,,470.6218,11,right,0.0682,,1.5,0.3,"[2,1,3]",0.137608139,stimuli/card_10_transparent.png,10,11,0,11,0,1,,,,,,,,,,
,,,,5d26b931a7d5390018bc5612,A,2024-07-08_17h22.58.195,Slot Machine Game,2023.1.3,Win32,14.99250375,,,,,,,,,,,,,,,,,,,,,,,,,,,930,,,,,,,,,,,,,,,,,,,,,4,1,,,473.0267,12,up,0.0047,,1.5,0.3,"[2,3,1]",0.487069669,stimuli/card_0_transparent.png,0,12,0,12,0,1,,,,,,,,,,
,,,,5d26b931a7d5390018bc5612,A,2024-07-08_17h22.58.195,Slot Machine Game,2023.1.3,Win32,14.99250375,,,,,,,,,,,,,,,,,,,,,,,,,,,940,,,,,,,,,,,,,,,,,,,,,4,1,,,475.3849,13,left,0.2972,,1,0.3,"[2,3,1]",0.924452175,stimuli/card_10_transparent.png,10,13,0,13,0,1,,,,,,,,,,
,,,,5d26b931a7d5390018bc5612,A,2024-07-08_17h22.58.195,Slot Machine Game,2023.1.3,Win32,14.99250375,,,,,,,,,,,,,,,,,,,,,,,,,,,950,,,,,,,,,,,,,,,,,,,,,4,1,,,477.5502,14,left,0.1536,,1,0.3,"[2,3,1]",0.995573912,stimuli/card_10_transparent.png,10,14,0,14,0,1,,,,,,,,,,
,,,,5d26b931a7d5390018bc5612,A,2024-07-08_17h22.58.195,Slot Machine Game,2023.1.3,Win32,14.99250375,,,,,,,,,,,,,,,,,,,,,,,,,,,,,,,,,,,479.5972,,,,,,,,,,,,,,,,,,,,,,,,,,,,,,,,,"[910,1010,740,950]",3,0,3,0,1,,,,
,,,,5d26b931a7d5390018bc5612,A,2024-07-08_17h22.58.195,Slot Machine Game,2023.1.3,Win32,14.99250375,,,,,,,,,,,,,,,,,,,,,,,,,,,0,,,,,,,,,,,,,,,,,,,,,5,2,"[6,15]","[[1,3,2],[3,2,1]]",484.5794,0,up,0.3491,,0.5,0.3,"[1,3,2]",0.798672974,stimuli/card_0_transparent.png,0,0,0,0,0,1,,,,,,,,,,
,,,,5d26b931a7d5390018bc5612,A,2024-07-08_17h22.58.195,Slot Machine Game,2023.1.3,Win32,14.99250375,,,,,,,,,,,,,,,,,,,,,,,,,,,100,,,,,,,,,,,,,,,,,,,,,5,2,,,486.3204,1,left,0.4915,,0.5,0.3,"[1,3,2]",0.884468938,stimuli/card_100_transparent.png,100,1,0,1,0,1,,,,,,,,,,
,,,,5d26b931a7d5390018bc5612,A,2024-07-08_17h22.58.195,Slot Machine Game,2023.1.3,Win32,14.99250375,,,,,,,,,,,,,,,,,,,,,,,,,,,110,,,,,,,,,,,,,,,,,,,,,5,2,,,488.1207,2,left,0.3411,,1.5,0.3,"[1,3,2]",0.121771611,stimuli/card_10_transparent.png,10,2,0,2,0,1,,,,,,,,,,
,,,,5d26b931a7d5390018bc5612,A,2024-07-08_17h22.58.195,Slot Machine Game,2023.1.3,Win32,14.99250375,,,,,,,,,,,,,,,,,,,,,,,,,,,210,,,,,,,,,,,,,,,,,,,,,5,2,,,490.7966,3,left,0.0053,,1.5,0.3,"[1,3,2]",0.39842172,stimuli/card_100_transparent.png,100,3,0,3,0,1,,,,,,,,,,
,,,,5d26b931a7d5390018bc5612,A,2024-07-08_17h22.58.195,Slot Machine Game,2023.1.3,Win32,14.99250375,,,,,,,,,,,,,,,,,,,,,,,,,,,310,,,,,,,,,,,,,,,,,,,,,5,2,,,493.1897,4,left,0.0742,,1,0.3,"[1,3,2]",0.67712148,stimuli/card_100_transparent.png,100,4,0,4,0,1,,,,,,,,,,
,,,,5d26b931a7d5390018bc5612,A,2024-07-08_17h22.58.195,Slot Machine Game,2023.1.3,Win32,14.99250375,,,,,,,,,,,,,,,,,,,,,,,,,,,320,,,,,,,,,,,,,,,,,,,,,5,2,,,495.0988,5,left,0.3491,,0.5,0.3,"[1,3,2]",0.10983901,stimuli/card_10_transparent.png,10,5,0,5,0,1,,,,,,,,,,
,,,,5d26b931a7d5390018bc5612,A,2024-07-08_17h22.58.195,Slot Machine Game,2023.1.3,Win32,14.99250375,,,,,,,,,,,,,,,,,,,,,,,,,,,320,,,,,,,,,,,,,,,,,,,,,5,2,,,496.7954,6,left,0.1383,,1.5,0.3,"[3,2,1]",0.609520582,stimuli/card_0_transparent.png,0,6,0,6,0,1,,,,,,,,,,
,,,,5d26b931a7d5390018bc5612,A,2024-07-08_17h22.58.195,Slot Machine Game,2023.1.3,Win32,14.99250375,,,,,,,,,,,,,,,,,,,,,,,,,,,420,,,,,,,,,,,,,,,,,,,,,5,2,,,499.3142,7,right,0.1435,,1.5,0.3,"[3,2,1]",0.992347341,stimuli/card_100_transparent.png,100,7,0,7,0,1,,,,,,,,,,
,,,,5d26b931a7d5390018bc5612,A,2024-07-08_17h22.58.195,Slot Machine Game,2023.1.3,Win32,14.99250375,,,,,,,,,,,,,,,,,,,,,,,,,,,520,,,,,,,,,,,,,,,,,,,,,5,2,,,501.8304,8,right,0.0787,,1,0.3,"[3,2,1]",0.956472331,stimuli/card_100_transparent.png,100,8,0,8,0,1,,,,,,,,,,
,,,,5d26b931a7d5390018bc5612,A,2024-07-08_17h22.58.195,Slot Machine Game,2023.1.3,Win32,14.99250375,,,,,,,,,,,,,,,,,,,,,,,,,,,620,,,,,,,,,,,,,,,,,,,,,5,2,,,503.7549,9,right,0.3502,,1,0.3,"[3,2,1]",0.490027533,stimuli/card_100_transparent.png,100,9,0,9,0,1,,,,,,,,,,
,,,,5d26b931a7d5390018bc5612,A,2024-07-08_17h22.58.195,Slot Machine Game,2023.1.3,Win32,14.99250375,,,,,,,,,,,,,,,,,,,,,,,,,,,630,,,,,,,,,,,,,,,,,,,,,5,2,,,505.9303,10,right,0.0053,,1.5,0.3,"[3,2,1]",0.147390599,stimuli/card_10_transparent.png,10,10,0,10,0,1,,,,,,,,,,
,,,,5d26b931a7d5390018bc5612,A,2024-07-08_17h22.58.195,Slot Machine Game,2023.1.3,Win32,14.99250375,,,,,,,,,,,,,,,,,,,,,,,,,,,630,,,,,,,,,,,,,,,,,,,,,5,2,,,508.263,11,right,0.6279,,0.5,0.3,"[3,2,1]",0.018886969,stimuli/card_0_transparent.png,0,11,0,11,0,1,,,,,,,,,,
,,,,5d26b931a7d5390018bc5612,A,2024-07-08_17h22.58.195,Slot Machine Game,2023.1.3,Win32,14.99250375,,,,,,,,,,,,,,,,,,,,,,,,,,,640,,,,,,,,,,,,,,,,,,,,,5,2,,,510.2872,12,left,0.1376,,1,0.3,"[3,2,1]",0.188974689,stimuli/card_10_transparent.png,10,12,0,12,0,1,,,,,,,,,,
,,,,5d26b931a7d5390018bc5612,A,2024-07-08_17h22.58.195,Slot Machine Game,2023.1.3,Win32,14.99250375,,,,,,,,,,,,,,,,,,,,,,,,,,,650,,,,,,,,,,,,,,,,,,,,,5,2,,,512.3154,13,up,0.6836,,1.5,0.3,"[3,2,1]",0.851403037,stimuli/card_10_transparent.png,10,13,0,13,0,1,,,,,,,,,,
,,,,5d26b931a7d5390018bc5612,A,2024-07-08_17h22.58.195,Slot Machine Game,2023.1.3,Win32,14.99250375,,,,,,,,,,,,,,,,,,,,,,,,,,,650,,,,,,,,,,,,,,,,,,,,,5,2,,,515.3661,14,left,0.2014,,1,0.3,"[3,2,1]",0.977308231,stimuli/card_0_transparent.png,0,14,0,14,0,1,,,,,,,,,,
,,,,5d26b931a7d5390018bc5612,A,2024-07-08_17h22.58.195,Slot Machine Game,2023.1.3,Win32,14.99250375,,,,,,,,,,,,,,,,,,,,,,,,,,,,,,,,,,,517.4437,,,,,,,,,,,,,,,,,,,,,,,,,,,,,,,,,"[910,1010,740,950,650]",4,0,4,0,1,,,,
,,,,5d26b931a7d5390018bc5612,A,2024-07-08_17h22.58.195,Slot Machine Game,2023.1.3,Win32,14.99250375,,,,,,,,,,,,,,,,,,,,,,,,,,,,,,,,,,,,,,,,,,,,,,,,6,4,"[7,15]","[[2,3,1],[1,2,3]]",522.4047,0,,,,1,0.3,,,,,0,0,0,0,1,,,,,,,,,,
,,,,5d26b931a7d5390018bc5612,A,2024-07-08_17h22.58.195,Slot Machine Game,2023.1.3,Win32,14.99250375,,,,,,,,,,,,,,,,,,,,,,,,,,,100,,,,,,,,,,,,,,,,,,,,,6,4,,,527.9258,1,right,0.6568,,1.5,0.3,"[2,3,1]",0.290140017,stimuli/card_100_transparent.png,100,1,0,1,0,1,,,,,,,,,,
,,,,5d26b931a7d5390018bc5612,A,2024-07-08_17h22.58.195,Slot Machine Game,2023.1.3,Win32,14.99250375,,,,,,,,,,,,,,,,,,,,,,,,,,,200,,,,,,,,,,,,,,,,,,,,,6,4,,,530.9316,2,right,0.4201,,1.5,0.3,"[2,3,1]",0.445885169,stimuli/card_100_transparent.png,100,2,0,2,0,1,,,,,,,,,,
,,,,5d26b931a7d5390018bc5612,A,2024-07-08_17h22.58.195,Slot Machine Game,2023.1.3,Win32,14.99250375,,,,,,,,,,,,,,,,,,,,,,,,,,,300,,,,,,,,,,,,,,,,,,,,,6,4,,,533.6618,3,right,0.1473,,0.5,0.3,"[2,3,1]",0.343338779,stimuli/card_100_transparent.png,100,3,0,3,0,1,,,,,,,,,,
,,,,5d26b931a7d5390018bc5612,A,2024-07-08_17h22.58.195,Slot Machine Game,2023.1.3,Win32,14.99250375,,,,,,,,,,,,,,,,,,,,,,,,,,,400,,,,,,,,,,,,,,,,,,,,,6,4,,,535.1782,4,right,0.0052,,0.5,0.3,"[2,3,1]",0.401729008,stimuli/card_100_transparent.png,100,4,0,4,0,1,,,,,,,,,,
,,,,5d26b931a7d5390018bc5612,A,2024-07-08_17h22.58.195,Slot Machine Game,2023.1.3,Win32,14.99250375,,,,,,,,,,,,,,,,,,,,,,,,,,,400,,,,,,,,,,,,,,,,,,,,,6,4,,,536.5343,5,right,0.0053,,1.5,0.3,"[2,3,1]",0.093234718,stimuli/card_0_transparent.png,0,5,0,5,0,1,,,,,,,,,,
,,,,5d26b931a7d5390018bc5612,A,2024-07-08_17h22.58.195,Slot Machine Game,2023.1.3,Win32,14.99250375,,,,,,,,,,,,,,,,,,,,,,,,,,,500,,,,,,,,,,,,,,,,,,,,,6,4,,,538.9586,6,right,0.2032,,1,0.3,"[2,3,1]",0.299085018,stimuli/card_100_transparent.png,100,6,0,6,0,1,,,,,,,,,,
,,,,5d26b931a7d5390018bc5612,A,2024-07-08_17h22.58.195,Slot Machine Game,2023.1.3,Win32,14.99250375,,,,,,,,,,,,,,,,,,,,,,,,,,,510,,,,,,,,,,,,,,,,,,,,,6,4,,,540.9575,7,right,0.0757,,1,0.3,"[1,2,3]",0.196212633,stimuli/card_10_transparent.png,10,7,0,7,0,1,,,,,,,,,,
,,,,5d26b931a7d5390018bc5612,A,2024-07-08_17h22.58.195,Slot Machine Game,2023.1.3,Win32,14.99250375,,,,,,,,,,,,,,,,,,,,,,,,,,,510,,,,,,,,,,,,,,,,,,,,,6,4,,,542.8788,8,right,0.0751,,1.5,0.3,"[1,2,3]",0.538252048,stimuli/card_0_transparent.png,0,8,0,8,0,1,,,,,,,,,,
,,,,5d26b931a7d5390018bc5612,A,2024-07-08_17h22.58.195,Slot Machine Game,2023.1.3,Win32,14.99250375,,,,,,,,,,,,,,,,,,,,,,,,,,,520,,,,,,,,,,,,,,,,,,,,,6,4,,,545.3236,9,up,0.0681,,0.5,0.3,"[1,2,3]",0.660337115,stimuli/card_10_transparent.png,10,9,0,9,0,1,,,,,,,,,,
,,,,5d26b931a7d5390018bc5612,A,2024-07-08_17h22.58.195,Slot Machine Game,2023.1.3,Win32,14.99250375,,,,,,,,,,,,,,,,,,,,,,,,,,,620,,,,,,,,,,,,,,,,,,,,,6,4,,,546.7614,10,left,0.0053,,0.5,0.3,"[1,2,3]",0.478828528,stimuli/card_100_transparent.png,100,10,0,10,0,1,,,,,,,,,,
,,,,5d26b931a7d5390018bc5612,A,2024-07-08_17h22.58.195,Slot Machine Game,2023.1.3,Win32,14.99250375,,,,,,,,,,,,,,,,,,,,,,,,,,,720,,,,,,,,,,,,,,,,,,,,,6,4,,,548.1134,11,left,0.0791,,0.5,0.3,"[1,2,3]",0.562278957,stimuli/card_100_transparent.png,100,11,0,11,0,1,,,,,,,,,,
,,,,5d26b931a7d5390018bc5612,A,2024-07-08_17h22.58.195,Slot Machine Game,2023.1.3,Win32,14.99250375,,,,,,,,,,,,,,,,,,,,,,,,,,,820,,,,,,,,,,,,,,,,,,,,,6,4,,,549.5317,12,left,0.0054,,1.5,0.3,"[1,2,3]",0.247546203,stimuli/card_100_transparent.png,100,12,0,12,0,1,,,,,,,,,,
,,,,5d26b931a7d5390018bc5612,A,2024-07-08_17h22.58.195,Slot Machine Game,2023.1.3,Win32,14.99250375,,,,,,,,,,,,,,,,,,,,,,,,,,,920,,,,,,,,,,,,,,,,,,,,,6,4,,,551.9006,13,left,0.078,,0.5,0.3,"[1,2,3]",0.265763435,stimuli/card_100_transparent.png,100,13,0,13,0,1,,,,,,,,,,
,,,,5d26b931a7d5390018bc5612,A,2024-07-08_17h22.58.195,Slot Machine Game,2023.1.3,Win32,14.99250375,,,,,,,,,,,,,,,,,,,,,,,,,,,930,,,,,,,,,,,,,,,,,,,,,6,4,,,553.3082,14,left,0.1358,,0.5,0.3,"[1,2,3]",0.145631822,stimuli/card_10_transparent.png,10,14,0,14,0,1,,,,,,,,,,
,,,,5d26b931a7d5390018bc5612,A,2024-07-08_17h22.58.195,Slot Machine Game,2023.1.3,Win32,14.99250375,,,,,,,,,,,,,,,,,,,,,,,,,,,,,,,,,,,554.7702,,,,,,,,,,,,,,,,,,,,,,,,,,,,,,,,,"[910,1010,740,950,650,930]",5,0,5,0,1,,,,
,,,,5d26b931a7d5390018bc5612,A,2024-07-08_17h22.58.195,Slot Machine Game,2023.1.3,Win32,14.99250375,,,,,,,,,,,,,,,,,,,,,,,,,,,10,,,,,,,,,,,,,,,,,,,,,7,10,"[10,15]","[[3,1,2],[1,3,2]]",559.763,0,right,0.6331,,1,0.3,"[3,1,2]",0.336063485,stimuli/card_10_transparent.png,10,0,0,0,0,1,,,,,,,,,,
,,,,5d26b931a7d5390018bc5612,A,2024-07-08_17h22.58.195,Slot Machine Game,2023.1.3,Win32,14.99250375,,,,,,,,,,,,,,,,,,,,,,,,,,,110,,,,,,,,,,,,,,,,,,,,,7,10,,,562.2081,1,up,1.0069,,1.5,0.3,"[3,1,2]",0.54805243,stimuli/card_100_transparent.png,100,1,0,1,0,1,,,,,,,,,,
,,,,5d26b931a7d5390018bc5612,A,2024-07-08_17h22.58.195,Slot Machine Game,2023.1.3,Win32,14.99250375,,,,,,,,,,,,,,,,,,,,,,,,,,,210,,,,,,,,,,,,,,,,,,,,,7,10,,,565.5462,2,up,0.0691,,0.5,0.3,"[3,1,2]",0.69394296,stimuli/card_100_transparent.png,100,2,0,2,0,1,,,,,,,,,,
,,,,5d26b931a7d5390018bc5612,A,2024-07-08_17h22.58.195,Slot Machine Game,2023.1.3,Win32,14.99250375,,,,,,,,,,,,,,,,,,,,,,,,,,,310,,,,,,,,,,,,,,,,,,,,,7,10,,,566.9617,3,up,0.0055,,1,0.3,"[3,1,2]",0.33915356,stimuli/card_100_transparent.png,100,3,0,3,0,1,,,,,,,,,,
,,,,5d26b931a7d5390018bc5612,A,2024-07-08_17h22.58.195,Slot Machine Game,2023.1.3,Win32,14.99250375,,,,,,,,,,,,,,,,,,,,,,,,,,,410,,,,,,,,,,,,,,,,,,,,,7,10,,,568.7815,4,up,0.0073,,0.5,0.3,"[3,1,2]",0.457007792,stimuli/card_100_transparent.png,100,4,0,4,0,1,,,,,,,,,,
,,,,5d26b931a7d5390018bc5612,A,2024-07-08_17h22.58.195,Slot Machine Game,2023.1.3,Win32,14.99250375,,,,,,,,,,,,,,,,,,,,,,,,,,,510,,,,,,,,,,,,,,,,,,,,,7,10,,,570.1239,5,up,0.9365,,0.5,0.3,"[3,1,2]",0.925785747,stimuli/card_100_transparent.png,100,5,0,5,0,1,,,,,,,,,,
,,,,5d26b931a7d5390018bc5612,A,2024-07-08_17h22.58.195,Slot Machine Game,2023.1.3,Win32,14.99250375,,,,,,,,,,,,,,,,,,,,,,,,,,,610,,,,,,,,,,,,,,,,,,,,,7,10,,,572.3934,6,up,0.0052,,1.5,0.3,"[3,1,2]",0.308619906,stimuli/card_100_transparent.png,100,6,0,6,0,1,,,,,,,,,,
,,,,5d26b931a7d5390018bc5612,A,2024-07-08_17h22.58.195,Slot Machine Game,2023.1.3,Win32,14.99250375,,,,,,,,,,,,,,,,,,,,,,,,,,,610,,,,,,,,,,,,,,,,,,,,,7,10,,,574.7297,7,up,0.0773,,0.5,0.3,"[3,1,2]",0.064902157,stimuli/card_0_transparent.png,0,7,0,7,0,1,,,,,,,,,,
,,,,5d26b931a7d5390018bc5612,A,2024-07-08_17h22.58.195,Slot Machine Game,2023.1.3,Win32,14.99250375,,,,,,,,,,,,,,,,,,,,,,,,,,,710,,,,,,,,,,,,,,,,,,,,,7,10,,,576.1777,8,up,0.0678,,1.5,0.3,"[3,1,2]",0.706585916,stimuli/card_100_transparent.png,100,8,0,8,0,1,,,,,,,,,,
,,,,5d26b931a7d5390018bc5612,A,2024-07-08_17h22.58.195,Slot Machine Game,2023.1.3,Win32,14.99250375,,,,,,,,,,,,,,,,,,,,,,,,,,,810,,,,,,,,,,,,,,,,,,,,,7,10,,,578.6158,9,up,0.0055,,0.5,0.3,"[3,1,2]",0.481416316,stimuli/card_100_transparent.png,100,9,0,9,0,1,,,,,,,,,,
,,,,5d26b931a7d5390018bc5612,A,2024-07-08_17h22.58.195,Slot Machine Game,2023.1.3,Win32,14.99250375,,,,,,,,,,,,,,,,,,,,,,,,,,,810,,,,,,,,,,,,,,,,,,,,,7,10,,,579.9793,10,up,0.0683,,1,0.3,"[1,3,2]",0.250623071,stimuli/card_0_transparent.png,0,10,0,10,0,1,,,,,,,,,,
,,,,5d26b931a7d5390018bc5612,A,2024-07-08_17h22.58.195,Slot Machine Game,2023.1.3,Win32,14.99250375,,,,,,,,,,,,,,,,,,,,,,,,,,,810,,,,,,,,,,,,,,,,,,,,,7,10,,,581.9273,11,up,0.218,,0.5,0.3,"[1,3,2]",0.243801288,stimuli/card_0_transparent.png,0,11,0,11,0,1,,,,,,,,,,
,,,,5d26b931a7d5390018bc5612,A,2024-07-08_17h22.58.195,Slot Machine Game,2023.1.3,Win32,14.99250375,,,,,,,,,,,,,,,,,,,,,,,,,,,810,,,,,,,,,,,,,,,,,,,,,7,10,,,583.513,12,left,0.9671,,1,0.3,"[1,3,2]",0.098371564,stimuli/card_0_transparent.png,0,12,0,12,0,1,,,,,,,,,,
,,,,5d26b931a7d5390018bc5612,A,2024-07-08_17h22.58.195,Slot Machine Game,2023.1.3,Win32,14.99250375,,,,,,,,,,,,,,,,,,,,,,,,,,,820,,,,,,,,,,,,,,,,,,,,,7,10,,,586.3989,13,right,0.0053,,0.5,0.3,"[1,3,2]",0.240327648,stimuli/card_10_transparent.png,10,13,0,13,0,1,,,,,,,,,,
,,,,5d26b931a7d5390018bc5612,A,2024-07-08_17h22.58.195,Slot Machine Game,2023.1.3,Win32,14.99250375,,,,,,,,,,,,,,,,,,,,,,,,,,,820,,,,,,,,,,,,,,,,,,,,,7,10,,,587.739,14,up,0.0715,,1,0.3,"[1,3,2]",0.440635896,stimuli/card_0_transparent.png,0,14,0,14,0,1,,,,,,,,,,
,,,,5d26b931a7d5390018bc5612,A,2024-07-08_17h22.58.195,Slot Machine Game,2023.1.3,Win32,14.99250375,,,,,,,,,,,,,,,,,,,,,,,,,,,,,,,,,,,589.6278,,,,,,,,,,,,,,,,,,,,,,,,,,,,,,,,,"[910,1010,740,950,650,930,820]",6,0,6,0,1,,,,
,,,,5d26b931a7d5390018bc5612,A,2024-07-08_17h22.58.195,Slot Machine Game,2023.1.3,Win32,14.99250375,,,,,,,,,,,,,,,,,,,,,,,,,,,0,,,,,,,,,,,,,,,,,,,,,8,7,"[9,15]","[[1,3,2],[2,3,1]]",594.5983,0,up,0.0788,,1.5,0.3,"[1,3,2]",0.358294002,stimuli/card_0_transparent.png,0,0,0,0,0,1,,,,,,,,,,
,,,,5d26b931a7d5390018bc5612,A,2024-07-08_17h22.58.195,Slot Machine Game,2023.1.3,Win32,14.99250375,,,,,,,,,,,,,,,,,,,,,,,,,,,100,,,,,,,,,,,,,,,,,,,,,8,7,,,597.0336,1,left,0.0688,,0.5,0.3,"[1,3,2]",0.99297066,stimuli/card_100_transparent.png,100,1,0,1,0,1,,,,,,,,,,
,,,,5d26b931a7d5390018bc5612,A,2024-07-08_17h22.58.195,Slot Machine Game,2023.1.3,Win32,14.99250375,,,,,,,,,,,,,,,,,,,,,,,,,,,110,,,,,,,,,,,,,,,,,,,,,8,7,,,598.4599,2,left,0.398,,1,0.3,"[1,3,2]",0.198141384,stimuli/card_10_transparent.png,10,2,0,2,0,1,,,,,,,,,,
,,,,5d26b931a7d5390018bc5612,A,2024-07-08_17h22.58.195,Slot Machine Game,2023.1.3,Win32,14.99250375,,,,,,,,,,,,,,,,,,,,,,,,,,,210,,,,,,,,,,,,,,,,,,,,,8,7,,,600.7314,3,left,0.0055,,0.5,0.3,"[1,3,2]",0.697374073,stimuli/card_100_transparent.png,100,3,0,3,0,1,,,,,,,,,,
,,,,5d26b931a7d5390018bc5612,A,2024-07-08_17h22.58.195,Slot Machine Game,2023.1.3,Win32,14.99250375,,,,,,,,,,,,,,,,,,,,,,,,,,,310,,,,,,,,,,,,,,,,,,,,,8,7,,,602.0878,4,left,0.28,,1.5,0.3,"[1,3,2]",0.272150184,stimuli/card_100_transparent.png,100,4,0,4,0,1,,,,,,,,,,
,,,,5d26b931a7d5390018bc5612,A,2024-07-08_17h22.58.195,Slot Machine Game,2023.1.3,Win32,14.99250375,,,,,,,,,,,,,,,,,,,,,,,,,,,410,,,,,,,,,,,,,,,,,,,,,8,7,,,604.7489,5,left,0.0789,,1.5,0.3,"[1,3,2]",0.465524645,stimuli/card_100_transparent.png,100,5,0,5,0,1,,,,,,,,,,
,,,,5d26b931a7d5390018bc5612,A,2024-07-08_17h22.58.195,Slot Machine Game,2023.1.3,Win32,14.99250375,,,,,,,,,,,,,,,,,,,,,,,,,,,420,,,,,,,,,,,,,,,,,,,,,8,7,,,607.1971,6,left,0.0051,,1.5,0.3,"[1,3,2]",0.127915085,stimuli/card_10_transparent.png,10,6,0,6,0,1,,,,,,,,,,
,,,,5d26b931a7d5390018bc5612,A,2024-07-08_17h22.58.195,Slot Machine Game,2023.1.3,Win32,14.99250375,,,,,,,,,,,,,,,,,,,,,,,,,,,520,,,,,,,,,,,,,,,,,,,,,8,7,,,609.5587,7,left,0.006,,1,0.3,"[1,3,2]",0.399998566,stimuli/card_100_transparent.png,100,7,0,7,0,1,,,,,,,,,,
,,,,5d26b931a7d5390018bc5612,A,2024-07-08_17h22.58.195,Slot Machine Game,2023.1.3,Win32,14.99250375,,,,,,,,,,,,,,,,,,,,,,,,,,,620,,,,,,,,,,,,,,,,,,,,,8,7,,,611.4571,8,left,0.0729,,1,0.3,"[1,3,2]",0.337468422,stimuli/card_100_transparent.png,100,8,0,8,0,1,,,,,,,,,,
,,,,5d26b931a7d5390018bc5612,A,2024-07-08_17h22.58.195,Slot Machine Game,2023.1.3,Win32,14.99250375,,,,,,,,,,,,,,,,,,,,,,,,,,,630,,,,,,,,,,,,,,,,,,,,,8,7,,,613.4001,9,left,0.0052,,1.5,0.3,"[2,3,1]",0.615424883,stimuli/card_10_transparent.png,10,9,0,9,0,1,,,,,,,,,,
,,,,5d26b931a7d5390018bc5612,A,2024-07-08_17h22.58.195,Slot Machine Game,2023.1.3,Win32,14.99250375,,,,,,,,,,,,,,,,,,,,,,,,,,,730,,,,,,,,,,,,,,,,,,,,,8,7,,,615.7781,10,right,0.2804,,0.5,0.3,"[2,3,1]",0.761627086,stimuli/card_100_transparent.png,100,10,0,10,0,1,,,,,,,,,,
,,,,5d26b931a7d5390018bc5612,A,2024-07-08_17h22.58.195,Slot Machine Game,2023.1.3,Win32,14.99250375,,,,,,,,,,,,,,,,,,,,,,,,,,,730,,,,,,,,,,,,,,,,,,,,,8,7,,,617.4334,11,right,0.0736,,1.5,0.3,"[2,3,1]",0.044030088,stimuli/card_0_transparent.png,0,11,0,11,0,1,,,,,,,,,,
,,,,5d26b931a7d5390018bc5612,A,2024-07-08_17h22.58.195,Slot Machine Game,2023.1.3,Win32,14.99250375,,,,,,,,,,,,,,,,,,,,,,,,,,,730,,,,,,,,,,,,,,,,,,,,,8,7,,,619.9016,12,left,0.0662,,1,0.3,"[2,3,1]",0.024761488,stimuli/card_0_transparent.png,0,12,0,12,0,1,,,,,,,,,,
,,,,5d26b931a7d5390018bc5612,A,2024-07-08_17h22.58.195,Slot Machine Game,2023.1.3,Win32,14.99250375,,,,,,,,,,,,,,,,,,,,,,,,,,,730,,,,,,,,,,,,,,,,,,,,,8,7,,,621.8479,13,up,0.0761,,1,0.3,"[2,3,1]",0.56147719,stimuli/card_0_transparent.png,0,13,0,13,0,1,,,,,,,,,,
,,,,5d26b931a7d5390018bc5612,A,2024-07-08_17h22.58.195,Slot Machine Game,2023.1.3,Win32,14.99250375,,,,,,,,,,,,,,,,,,,,,,,,,,,740,,,,,,,,,,,,,,,,,,,,,8,7,,,623.781,14,left,0.0724,,1.5,0.3,"[2,3,1]",0.375552795,stimuli/card_10_transparent.png,10,14,0,14,0,1,,,,,,,,,,
,,,,5d26b931a7d5390018bc5612,A,2024-07-08_17h22.58.195,Slot Machine Game,2023.1.3,Win32,14.99250375,,,,,,,,,,,,,,,,,,,,,,,,,,,,,,,,,,,626.2279,,,,,,,,,,,,,,,,,,,,,,,,,,,,,,,,,"[910,1010,740,950,650,930,820,740]",7,0,7,0,1,,,,
,,,,5d26b931a7d5390018bc5612,A,2024-07-08_17h22.58.195,Slot Machine Game,2023.1.3,Win32,14.99250375,,,,,,,,,,,,,,,,,,,,,,,,,,,100,,,,,,,,,,,,,,,,,,,,,9,9,[15],"[[3,1,2]]",631.1911,0,up,0.964,,1.5,0.3,"[3,1,2]",0.555619607,stimuli/card_100_transparent.png,100,0,0,0,0,1,,,,,,,,,,
,,,,5d26b931a7d5390018bc5612,A,2024-07-08_17h22.58.195,Slot Machine Game,2023.1.3,Win32,14.99250375,,,,,,,,,,,,,,,,,,,,,,,,,,,200,,,,,,,,,,,,,,,,,,,,,9,9,,,634.5945,1,up,0.0653,,0.5,0.3,"[3,1,2]",0.670253424,stimuli/card_100_transparent.png,100,1,0,1,0,1,,,,,,,,,,
,,,,5d26b931a7d5390018bc5612,A,2024-07-08_17h22.58.195,Slot Machine Game,2023.1.3,Win32,14.99250375,,,,,,,,,,,,,,,,,,,,,,,,,,,300,,,,,,,,,,,,,,,,,,,,,9,9,,,636.0075,2,up,0.806,,1,0.3,"[3,1,2]",0.751546616,stimuli/card_100_transparent.png,100,2,0,2,0,1,,,,,,,,,,
,,,,5d26b931a7d5390018bc5612,A,2024-07-08_17h22.58.195,Slot Machine Game,2023.1.3,Win32,14.99250375,,,,,,,,,,,,,,,,,,,,,,,,,,,400,,,,,,,,,,,,,,,,,,,,,9,9,,,638.6724,3,up,0.0714,,1.5,0.3,"[3,1,2]",0.91328332,stimuli/card_100_transparent.png,100,3,0,3,0,1,,,,,,,,,,
,,,,5d26b931a7d5390018bc5612,A,2024-07-08_17h22.58.195,Slot Machine Game,2023.1.3,Win32,14.99250375,,,,,,,,,,,,,,,,,,,,,,,,,,,500,,,,,,,,,,,,,,,,,,,,,9,9,,,641.0661,4,up,1.0505,,1.5,0.3,"[3,1,2]",0.730431187,stimuli/card_100_transparent.png,100,4,0,4,0,1,,,,,,,,,,
,,,,5d26b931a7d5390018bc5612,A,2024-07-08_17h22.58.195,Slot Machine Game,2023.1.3,Win32,14.99250375,,,,,,,,,,,,,,,,,,,,,,,,,,,500,,,,,,,,,,,,,,,,,,,,,9,9,,,644.4664,5,left,0.0743,,1.5,0.3,"[3,1,2]",0.472038289,stimuli/card_0_transparent.png,0,5,0,5,0,1,,,,,,,,,,
,,,,5d26b931a7d5390018bc5612,A,2024-07-08_17h22.58.195,Slot Machine Game,2023.1.3,Win32,14.99250375,,,,,,,,,,,,,,,,,,,,,,,,,,,510,,,,,,,,,,,,,,,,,,,,,9,9,,,646.8763,6,up,0.0705,,0.5,0.3,"[3,1,2]",0.172064079,stimuli/card_10_transparent.png,10,6,0,6,0,1,,,,,,,,,,
,,,,5d26b931a7d5390018bc5612,A,2024-07-08_17h22.58.195,Slot Machine Game,2023.1.3,Win32,14.99250375,,,,,,,,,,,,,,,,,,,,,,,,,,,510,,,,,,,,,,,,,,,,,,,,,9,9,,,648.2856,7,right,0.0054,,1.5,0.3,"[3,1,2]",0.071293461,stimuli/card_0_transparent.png,0,7,0,7,0,1,,,,,,,,,,
,,,,5d26b931a7d5390018bc5612,A,2024-07-08_17h22.58.195,Slot Machine Game,2023.1.3,Win32,14.99250375,,,,,,,,,,,,,,,,,,,,,,,,,,,610,,,,,,,,,,,,,,,,,,,,,9,9,,,650.6713,8,up,0.1345,,0.5,0.3,"[3,1,2]",0.857020248,stimuli/card_100_transparent.png,100,8,0,8,0,1,,,,,,,,,,
,,,,5d26b931a7d5390018bc5612,A,2024-07-08_17h22.58.195,Slot Machine Game,2023.1.3,Win32,14.99250375,,,,,,,,,,,,,,,,,,,,,,,,,,,620,,,,,,,,,,,,,,,,,,,,,9,9,,,652.1581,9,up,0.0065,,0.5,0.3,"[3,1,2]",0.190487989,stimuli/card_10_transparent.png,10,9,0,9,0,1,,,,,,,,,,
,,,,5d26b931a7d5390018bc5612,A,2024-07-08_17h22.58.195,Slot Machine Game,2023.1.3,Win32,14.99250375,,,,,,,,,,,,,,,,,,,,,,,,,,,620,,,,,,,,,,,,,,,,,,,,,9,9,,,653.4895,10,left,0.6041,,1,0.3,"[3,1,2]",0.752970767,stimuli/card_0_transparent.png,0,10,0,10,0,1,,,,,,,,,,
,,,,5d26b931a7d5390018bc5612,A,2024-07-08_17h22.58.195,Slot Machine Game,2023.1.3,Win32,14.99250375,,,,,,,,,,,,,,,,,,,,,,,,,,,720,,,,,,,,,,,,,,,,,,,,,9,9,,,655.9537,11,up,0.0833,,1.5,0.3,"[3,1,2]",0.838720202,stimuli/card_100_transparent.png,100,11,0,11,0,1,,,,,,,,,,
,,,,5d26b931a7d5390018bc5612,A,2024-07-08_17h22.58.195,Slot Machine Game,2023.1.3,Win32,14.99250375,,,,,,,,,,,,,,,,,,,,,,,,,,,820,,,,,,,,,,,,,,,,,,,,,9,9,,,658.4656,12,up,0.0055,,0.5,0.3,"[3,1,2]",0.22267305,stimuli/card_100_transparent.png,100,12,0,12,0,1,,,,,,,,,,
,,,,5d26b931a7d5390018bc5612,A,2024-07-08_17h22.58.195,Slot Machine Game,2023.1.3,Win32,14.99250375,,,,,,,,,,,,,,,,,,,,,,,,,,,920,,,,,,,,,,,,,,,,,,,,,9,9,,,659.8508,13,up,0.0053,,1,0.3,"[3,1,2]",0.993300033,stimuli/card_100_transparent.png,100,13,0,13,0,1,,,,,,,,,,
,,,,5d26b931a7d5390018bc5612,A,2024-07-08_17h22.58.195,Slot Machine Game,2023.1.3,Win32,14.99250375,,,,,,,,,,,,,,,,,,,,,,,,,,,1020,,,,,,,,,,,,,,,,,,,,,9,9,,,661.7026,14,up,0.0055,,0.5,0.3,"[3,1,2]",0.273725023,stimuli/card_100_transparent.png,100,14,0,14,0,1,,,,,,,,,,
,,,,5d26b931a7d5390018bc5612,A,2024-07-08_17h22.58.195,Slot Machine Game,2023.1.3,Win32,14.99250375,,,,,,,,,,,,,,,,,,,,,,,,,,,,,,,,,,,663.0493,,,,,,,,,,,,,,,,,,,,,,,,,,,,,,,,,"[910,1010,740,950,650,930,820,740,1020]",8,0,8,0,1,,,,
,,,,5d26b931a7d5390018bc5612,A,2024-07-08_17h22.58.195,Slot Machine Game,2023.1.3,Win32,14.99250375,,,,,,,,,,,,,,,,,,,,,,,,,,,100,,,,,,,,,,,,,,,,,,,,,10,6,"[4,10,15]","[[2,3,1],[1,3,2],[3,2,1]]",668.0432,0,right,0.0054,,1.5,0.3,"[2,3,1]",0.587177205,stimuli/card_100_transparent.png,100,0,0,0,0,1,,,,,,,,,,
,,,,5d26b931a7d5390018bc5612,A,2024-07-08_17h22.58.195,Slot Machine Game,2023.1.3,Win32,14.99250375,,,,,,,,,,,,,,,,,,,,,,,,,,,200,,,,,,,,,,,,,,,,,,,,,10,6,,,670.3886,1,right,0.0721,,1,0.3,"[2,3,1]",0.964470294,stimuli/card_100_transparent.png,100,1,0,1,0,1,,,,,,,,,,
,,,,5d26b931a7d5390018bc5612,A,2024-07-08_17h22.58.195,Slot Machine Game,2023.1.3,Win32,14.99250375,,,,,,,,,,,,,,,,,,,,,,,,,,,300,,,,,,,,,,,,,,,,,,,,,10,6,,,672.309,2,right,0.4849,,0.5,0.3,"[2,3,1]",0.269062357,stimuli/card_100_transparent.png,100,2,0,2,0,1,,,,,,,,,,
,,,,5d26b931a7d5390018bc5612,A,2024-07-08_17h22.58.195,Slot Machine Game,2023.1.3,Win32,14.99250375,,,,,,,,,,,,,,,,,,,,,,,,,,,400,,,,,,,,,,,,,,,,,,,,,10,6,,,674.1683,3,right,0.079,,0.5,0.3,"[2,3,1]",0.988000627,stimuli/card_100_transparent.png,100,3,0,3,0,1,,,,,,,,,,
,,,,5d26b931a7d5390018bc5612,A,2024-07-08_17h22.58.195,Slot Machine Game,2023.1.3,Win32,14.99250375,,,,,,,,,,,,,,,,,,,,,,,,,,,410,,,,,,,,,,,,,,,,,,,,,10,6,,,675.5853,4,right,0.0054,,0.5,0.3,"[1,3,2]",0.58993176,stimuli/card_10_transparent.png,10,4,0,4,0,1,,,,,,,,,,
,,,,5d26b931a7d5390018bc5612,A,2024-07-08_17h22.58.195,Slot Machine Game,2023.1.3,Win32,14.99250375,,,,,,,,,,,,,,,,,,,,,,,,,,,420,,,,,,,,,,,,,,,,,,,,,10,6,,,676.9594,5,right,0.0801,,1,0.3,"[1,3,2]",0.226342803,stimuli/card_10_transparent.png,10,5,0,5,0,1,,,,,,,,,,
,,,,5d26b931a7d5390018bc5612,A,2024-07-08_17h22.58.195,Slot Machine Game,2023.1.3,Win32,14.99250375,,,,,,,,,,,,,,,,,,,,,,,,,,,430,,,,,,,,,,,,,,,,,,,,,10,6,,,678.8748,6,right,0.005,,0.5,0.3,"[1,3,2]",0.828023894,stimuli/card_10_transparent.png,10,6,0,6,0,1,,,,,,,,,,
,,,,5d26b931a7d5390018bc5612,A,2024-07-08_17h22.58.195,Slot Machine Game,2023.1.3,Win32,14.99250375,,,,,,,,,,,,,,,,,,,,,,,,,,,430,,,,,,,,,,,,,,,,,,,,,10,6,,,680.2499,7,up,0.0799,,1.5,0.3,"[1,3,2]",0.722635946,stimuli/card_0_transparent.png,0,7,0,7,0,1,,,,,,,,,,
,,,,5d26b931a7d5390018bc5612,A,2024-07-08_17h22.58.195,Slot Machine Game,2023.1.3,Win32,14.99250375,,,,,,,,,,,,,,,,,,,,,,,,,,,530,,,,,,,,,,,,,,,,,,,,,10,6,,,682.6787,8,left,0.1445,,1,0.3,"[1,3,2]",0.824019417,stimuli/card_100_transparent.png,100,8,0,8,0,1,,,,,,,,,,
,,,,5d26b931a7d5390018bc5612,A,2024-07-08_17h22.58.195,Slot Machine Game,2023.1.3,Win32,14.99250375,,,,,,,,,,,,,,,,,,,,,,,,,,,630,,,,,,,,,,,,,,,,,,,,,10,6,,,684.689,9,left,0.0056,,1.5,0.3,"[1,3,2]",0.746230806,stimuli/card_100_transparent.png,100,9,0,9,0,1,,,,,,,,,,
,,,,5d26b931a7d5390018bc5612,A,2024-07-08_17h22.58.195,Slot Machine Game,2023.1.3,Win32,14.99250375,,,,,,,,,,,,,,,,,,,,,,,,,,,730,,,,,,,,,,,,,,,,,,,,,10,6,,,687.0776,10,left,0.0054,,0.5,0.3,"[3,2,1]",0.027438844,stimuli/card_100_transparent.png,100,10,0,10,0,1,,,,,,,,,,
,,,,5d26b931a7d5390018bc5612,A,2024-07-08_17h22.58.195,Slot Machine Game,2023.1.3,Win32,14.99250375,,,,,,,,,,,,,,,,,,,,,,,,,,,730,,,,,,,,,,,,,,,,,,,,,10,6,,,688.4563,11,left,0.0703,,0.5,0.3,"[3,2,1]",0.535818663,stimuli/card_0_transparent.png,0,11,0,11,0,1,,,,,,,,,,
,,,,5d26b931a7d5390018bc5612,A,2024-07-08_17h22.58.195,Slot Machine Game,2023.1.3,Win32,14.99250375,,,,,,,,,,,,,,,,,,,,,,,,,,,730,,,,,,,,,,,,,,,,,,,,,10,6,,,689.9076,12,left,0.0054,,0.5,0.3,"[3,2,1]",0.525702262,stimuli/card_0_transparent.png,0,12,0,12,0,1,,,,,,,,,,
,,,,5d26b931a7d5390018bc5612,A,2024-07-08_17h22.58.195,Slot Machine Game,2023.1.3,Win32,14.99250375,,,,,,,,,,,,,,,,,,,,,,,,,,,730,,,,,,,,,,,,,,,,,,,,,10,6,,,691.2866,13,left,0.4128,,0.5,0.3,"[3,2,1]",0.230222301,stimuli/card_0_transparent.png,0,13,0,13,0,1,,,,,,,,,,
,,,,5d26b931a7d5390018bc5612,A,2024-07-08_17h22.58.195,Slot Machine Game,2023.1.3,Win32,14.99250375,,,,,,,,,,,,,,,,,,,,,,,,,,,740,,,,,,,,,,,,,,,,,,,,,10,6,,,693.0596,14,right,0.1431,,1,0.3,"[3,2,1]",0.138580829,stimuli/card_10_transparent.png,10,14,0,14,0,1,,,,,,,,,,
,,,,5d26b931a7d5390018bc5612,A,2024-07-08_17h22.58.195,Slot Machine Game,2023.1.3,Win32,14.99250375,,,,,,,,,,,,,,,,,,,,,,,,,,,,,,,,,,,695.0208,,,,,,,,,,,,,,,,,,,,,,,,,,,,,,,,,"[910,1010,740,950,650,930,820,740,1020,740]",9,0,9,0,1,,,,
,,,,5d26b931a7d5390018bc5612,A,2024-07-08_17h22.58.195,Slot Machine Game,2023.1.3,Win32,14.99250375,,,,,,,,,,,,,,,,,,,,,,,,,,,,,,,,,,,,,,,,,,,,,,,,,,,,,,,,,,,,,,,,,,,,,,,,,,9,"[910,1010,740,950,650,930,820,740,1020,740]",9.5,2024-07-08_17h34.42.449
