key_resp_welcome_started,key_resp_welcome_keys,key_resp_welcome_rt,key_resp_welcome_duration,prolific_id,path_id,date,expName,psychopyVersion,OS,frameRate,key_resp_instruction1_started,key_resp_instruction1_keys,key_resp_instruction1_rt,key_resp_instruction1_duration,key_resp_instruction2_started,key_resp_instruction2_keys,key_resp_instruction2_rt,key_resp_instruction2_duration,key_resp_instruction3_started,key_resp_instruction3_keys,key_resp_instruction3_rt,key_resp_instruction3_duration,key_resp_instruction4_started,key_resp_instruction4_keys,key_resp_instruction4_rt,key_resp_instruction4_duration,practiceCondition,practice_reward_seqs,practice_trial_started,practice_trial_num,practice_resp_rt,practice_resp_duration,practice_resp_keys,prac_presentationInterval,"practice_reward_seq: 2,1,3",reward_img,cumulative_reward,trial_reward,practice_trials.thisRepN,practice_trials.thisTrialN,practice_trials.thisN,practice_trials.thisIndex,practice_trials.ran,"practice_reward_seq: 2,3,1",block_break_started,"practice_reward_seq: 1,3,2","practice_reward_seq: 3,1,2",practice_end_time,practice_end_keys,practice_end_rt,practice_end_duration,main_instruction_text_started,block_condition,block_order_indices,main_instruction_keys,main_instruction_rt,main_instruction_duration,block_number,block_assignment,current_condition,main_reward_seqs,main_trial_started,main_trial_num,main_trial_keys,main_trial_rt,main_trial_duration,main_presentationInterval,reward_presentation_time,main_reward_seq,reward_rand_val,main_reward_img,current_reward,main_trials.thisRepN,main_trials.thisTrialN,main_trials.thisN,main_trials.thisIndex,main_trials.ran,block_reward,block.thisRepN,block.thisTrialN,block.thisN,block.thisIndex,block.ran,block_reward.length,block_reward_all,reward_amount,date_end_task
0.0005,space,3.0613,,5d30a692d6cd7d0001b359ff,A,2024-07-11_15h31.29.238,Slot Machine Game,2023.1.3,MacIntel,61.72839506,,,,,,,,,,,,,,,,,,,,,,,,,,,,,,,,,,,,,,,,,,,,,,,,,,,,,,,,,,,,,,,,,,,,,,,,,,,,,
,,,,5d30a692d6cd7d0001b359ff,A,2024-07-11_15h31.29.238,Slot Machine Game,2023.1.3,MacIntel,61.72839506,3.0793,space,19.9779,,,,,,,,,,,,,,,,,,,,,,,,,,,,,,,,,,,,,,,,,,,,,,,,,,,,,,,,,,,,,,,,,,,,,,,,,,
,,,,5d30a692d6cd7d0001b359ff,A,2024-07-11_15h31.29.238,Slot Machine Game,2023.1.3,MacIntel,61.72839506,,,,,23.1016,space,32.588,,,,,,,,,,,,,,,,,,,,,,,,,,,,,,,,,,,,,,,,,,,,,,,,,,,,,,,,,,,,,,,,,,,,,,
,,,,5d30a692d6cd7d0001b359ff,A,2024-07-11_15h31.29.238,Slot Machine Game,2023.1.3,MacIntel,61.72839506,,,,,,,,,55.7475,space,9.8546,,,,,,,,,,,,,,,,,,,,,,,,,,,,,,,,,,,,,,,,,,,,,,,,,,,,,,,,,,,,,,,,,,
,,,,5d30a692d6cd7d0001b359ff,A,2024-07-11_15h31.29.238,Slot Machine Game,2023.1.3,MacIntel,61.72839506,,,,,,,,,,,,,,,,,,,,,,,,,,,,,,,,,,,,,,,,,,,,,,,,,,,,,,,,,,,,,,,,,,,,,,,,,,,,,
,,,,5d30a692d6cd7d0001b359ff,A,2024-07-11_15h31.29.238,Slot Machine Game,2023.1.3,MacIntel,61.72839506,,,,,,,,,,,,,207.508,space,4.5501,,,,,,,,,,,,,,,,,,,,,,,,,,,,,,,,,,,,,,,,,,,,,,,,,,,,,,,,,,,,,,
,,,,5d30a692d6cd7d0001b359ff,A,2024-07-11_15h31.29.238,Slot Machine Game,2023.1.3,MacIntel,61.72839506,,,,,,,,,,,,,,,,,"[9,15]","[[2,1,3],[2,3,1]]",212.1336,0,0.9094,,left,1.5,,stimuli/card_10_transparent.png,10,10,0,0,0,0,1,,,,,,,,,,,,,,,,,,,,,,,,,,,,,,,,,,,,,,,,,,,,
,,,,5d30a692d6cd7d0001b359ff,A,2024-07-11_15h31.29.238,Slot Machine Game,2023.1.3,MacIntel,61.72839506,,,,,,,,,,,,,,,,,,,215.4132,1,0.9498,,up,1.5,,stimuli/card_10_transparent.png,20,10,1,0,1,0,1,,,,,,,,,,,,,,,,,,,,,,,,,,,,,,,,,,,,,,,,,,,,
,,,,5d30a692d6cd7d0001b359ff,A,2024-07-11_15h31.29.238,Slot Machine Game,2023.1.3,MacIntel,61.72839506,,,,,,,,,,,,,,,,,,,218.7766,2,1.3281,,right,0.5,,stimuli/card_0_transparent.png,20,0,2,0,2,0,1,,,,,,,,,,,,,,,,,,,,,,,,,,,,,,,,,,,,,,,,,,,,
,,,,5d30a692d6cd7d0001b359ff,A,2024-07-11_15h31.29.238,Slot Machine Game,2023.1.3,MacIntel,61.72839506,,,,,,,,,,,,,,,,,,,221.47,3,0.2926,,left,1,,stimuli/card_10_transparent.png,30,10,3,0,3,0,1,,,,,,,,,,,,,,,,,,,,,,,,,,,,,,,,,,,,,,,,,,,,
,,,,5d30a692d6cd7d0001b359ff,A,2024-07-11_15h31.29.238,Slot Machine Game,2023.1.3,MacIntel,61.72839506,,,,,,,,,,,,,,,,,,,223.5516,4,0.3104,,up,0.5,,stimuli/card_100_transparent.png,130,100,4,0,4,0,1,,,,,,,,,,,,,,,,,,,,,,,,,,,,,,,,,,,,,,,,,,,,
,,,,5d30a692d6cd7d0001b359ff,A,2024-07-11_15h31.29.238,Slot Machine Game,2023.1.3,MacIntel,61.72839506,,,,,,,,,,,,,,,,,,,225.242,5,0.1883,,up,0.5,,stimuli/card_100_transparent.png,230,100,5,0,5,0,1,,,,,,,,,,,,,,,,,,,,,,,,,,,,,,,,,,,,,,,,,,,,
,,,,5d30a692d6cd7d0001b359ff,A,2024-07-11_15h31.29.238,Slot Machine Game,2023.1.3,MacIntel,61.72839506,,,,,,,,,,,,,,,,,,,226.7924,6,0.0735,,up,1,,stimuli/card_0_transparent.png,230,0,6,0,6,0,1,,,,,,,,,,,,,,,,,,,,,,,,,,,,,,,,,,,,,,,,,,,,
,,,,5d30a692d6cd7d0001b359ff,A,2024-07-11_15h31.29.238,Slot Machine Game,2023.1.3,MacIntel,61.72839506,,,,,,,,,,,,,,,,,,,228.6706,7,0.1472,,left,0.5,,stimuli/card_10_transparent.png,240,10,7,0,7,0,1,,,,,,,,,,,,,,,,,,,,,,,,,,,,,,,,,,,,,,,,,,,,
,,,,5d30a692d6cd7d0001b359ff,A,2024-07-11_15h31.29.238,Slot Machine Game,2023.1.3,MacIntel,61.72839506,,,,,,,,,,,,,,,,,,,230.1952,8,0.9927,,up,1.5,,stimuli/card_100_transparent.png,340,100,8,0,8,0,1,,,,,,,,,,,,,,,,,,,,,,,,,,,,,,,,,,,,,,,,,,,,
,,,,5d30a692d6cd7d0001b359ff,A,2024-07-11_15h31.29.238,Slot Machine Game,2023.1.3,MacIntel,61.72839506,,,,,,,,,,,,,,,,,,,233.5319,9,0.4855,,up,0.5,,stimuli/card_0_transparent.png,340,0,9,0,9,0,1,,,,,,,,,,,,,,,,,,,,,,,,,,,,,,,,,,,,,,,,,,,,
,,,,5d30a692d6cd7d0001b359ff,A,2024-07-11_15h31.29.238,Slot Machine Game,2023.1.3,MacIntel,61.72839506,,,,,,,,,,,,,,,,,,,235.4087,10,0.177,,up,1,,stimuli/card_0_transparent.png,340,0,10,0,10,0,1,,,,,,,,,,,,,,,,,,,,,,,,,,,,,,,,,,,,,,,,,,,,
,,,,5d30a692d6cd7d0001b359ff,A,2024-07-11_15h31.29.238,Slot Machine Game,2023.1.3,MacIntel,61.72839506,,,,,,,,,,,,,,,,,,,237.4426,11,0.0004,,left,1,,stimuli/card_10_transparent.png,350,10,11,0,11,0,1,,,,,,,,,,,,,,,,,,,,,,,,,,,,,,,,,,,,,,,,,,,,
,,,,5d30a692d6cd7d0001b359ff,A,2024-07-11_15h31.29.238,Slot Machine Game,2023.1.3,MacIntel,61.72839506,,,,,,,,,,,,,,,,,,,239.2867,12,0.5056,,right,0.5,,stimuli/card_100_transparent.png,450,100,12,0,12,0,1,,,,,,,,,,,,,,,,,,,,,,,,,,,,,,,,,,,,,,,,,,,,
,,,,5d30a692d6cd7d0001b359ff,A,2024-07-11_15h31.29.238,Slot Machine Game,2023.1.3,MacIntel,61.72839506,,,,,,,,,,,,,,,,,,,241.1258,13,0.073,,right,1.5,,stimuli/card_100_transparent.png,550,100,13,0,13,0,1,,,,,,,,,,,,,,,,,,,,,,,,,,,,,,,,,,,,,,,,,,,,
,,,,5d30a692d6cd7d0001b359ff,A,2024-07-11_15h31.29.238,Slot Machine Game,2023.1.3,MacIntel,61.72839506,,,,,,,,,,,,,,,,,,,243.5765,14,0.0844,,right,1.5,,stimuli/card_100_transparent.png,650,100,14,0,14,0,1,,,,,,,,,,,,,,,,,,,,,,,,,,,,,,,,,,,,,,,,,,,,
,,,,5d30a692d6cd7d0001b359ff,A,2024-07-11_15h31.29.238,Slot Machine Game,2023.1.3,MacIntel,61.72839506,,,,,,,,,,,,,,,,,"[6,15]","[[1,3,2],[3,1,2]]",251.0083,0,0.9978,,right,0.5,,stimuli/card_10_transparent.png,10,10,0,0,0,0,1,,245.9938,,,,,,,,,,,,,,,,,,,,,,,,,,,,,,,,,,,,,,,,,,
,,,,5d30a692d6cd7d0001b359ff,A,2024-07-11_15h31.29.238,Slot Machine Game,2023.1.3,MacIntel,61.72839506,,,,,,,,,,,,,,,,,,,253.3207,1,2.7774,,right,1,,stimuli/card_0_transparent.png,10,0,1,0,1,0,1,,,,,,,,,,,,,,,,,,,,,,,,,,,,,,,,,,,,,,,,,,,,
,,,,5d30a692d6cd7d0001b359ff,A,2024-07-11_15h31.29.238,Slot Machine Game,2023.1.3,MacIntel,61.72839506,,,,,,,,,,,,,,,,,,,257.9096,2,1.0929,,left,1.5,,stimuli/card_100_transparent.png,110,100,2,0,2,0,1,,,,,,,,,,,,,,,,,,,,,,,,,,,,,,,,,,,,,,,,,,,,
,,,,5d30a692d6cd7d0001b359ff,A,2024-07-11_15h31.29.238,Slot Machine Game,2023.1.3,MacIntel,61.72839506,,,,,,,,,,,,,,,,,,,261.3763,3,0.3661,,left,1,,stimuli/card_100_transparent.png,210,100,3,0,3,0,1,,,,,,,,,,,,,,,,,,,,,,,,,,,,,,,,,,,,,,,,,,,,
,,,,5d30a692d6cd7d0001b359ff,A,2024-07-11_15h31.29.238,Slot Machine Game,2023.1.3,MacIntel,61.72839506,,,,,,,,,,,,,,,,,,,263.6615,4,0.3278,,left,0.5,,stimuli/card_100_transparent.png,310,100,4,0,4,0,1,,,,,,,,,,,,,,,,,,,,,,,,,,,,,,,,,,,,,,,,,,,,
,,,,5d30a692d6cd7d0001b359ff,A,2024-07-11_15h31.29.238,Slot Machine Game,2023.1.3,MacIntel,61.72839506,,,,,,,,,,,,,,,,,,,265.3279,5,0.2443,,left,1,,stimuli/card_100_transparent.png,410,100,5,0,5,0,1,,,,,,,,,,,,,,,,,,,,,,,,,,,,,,,,,,,,,,,,,,,,
,,,,5d30a692d6cd7d0001b359ff,A,2024-07-11_15h31.29.238,Slot Machine Game,2023.1.3,MacIntel,61.72839506,,,,,,,,,,,,,,,,,,,267.4418,6,0.1555,,left,0.5,,stimuli/card_0_transparent.png,410,0,6,0,6,0,1,,,,,,,,,,,,,,,,,,,,,,,,,,,,,,,,,,,,,,,,,,,,
,,,,5d30a692d6cd7d0001b359ff,A,2024-07-11_15h31.29.238,Slot Machine Game,2023.1.3,MacIntel,61.72839506,,,,,,,,,,,,,,,,,,,268.9478,7,0.5777,,left,0.5,,stimuli/card_10_transparent.png,420,10,7,0,7,0,1,,,,,,,,,,,,,,,,,,,,,,,,,,,,,,,,,,,,,,,,,,,,
,,,,5d30a692d6cd7d0001b359ff,A,2024-07-11_15h31.29.238,Slot Machine Game,2023.1.3,MacIntel,61.72839506,,,,,,,,,,,,,,,,,,,270.8915,8,0.9543,,up,1.5,,stimuli/card_100_transparent.png,520,100,8,0,8,0,1,,,,,,,,,,,,,,,,,,,,,,,,,,,,,,,,,,,,,,,,,,,,
,,,,5d30a692d6cd7d0001b359ff,A,2024-07-11_15h31.29.238,Slot Machine Game,2023.1.3,MacIntel,61.72839506,,,,,,,,,,,,,,,,,,,274.1412,9,0.1214,,up,0.5,,stimuli/card_100_transparent.png,620,100,9,0,9,0,1,,,,,,,,,,,,,,,,,,,,,,,,,,,,,,,,,,,,,,,,,,,,
,,,,5d30a692d6cd7d0001b359ff,A,2024-07-11_15h31.29.238,Slot Machine Game,2023.1.3,MacIntel,61.72839506,,,,,,,,,,,,,,,,,,,275.5918,10,0.2602,,up,1.5,,stimuli/card_100_transparent.png,720,100,10,0,10,0,1,,,,,,,,,,,,,,,,,,,,,,,,,,,,,,,,,,,,,,,,,,,,
,,,,5d30a692d6cd7d0001b359ff,A,2024-07-11_15h31.29.238,Slot Machine Game,2023.1.3,MacIntel,61.72839506,,,,,,,,,,,,,,,,,,,278.208,11,0.4777,,up,1.5,,stimuli/card_100_transparent.png,820,100,11,0,11,0,1,,,,,,,,,,,,,,,,,,,,,,,,,,,,,,,,,,,,,,,,,,,,
,,,,5d30a692d6cd7d0001b359ff,A,2024-07-11_15h31.29.238,Slot Machine Game,2023.1.3,MacIntel,61.72839506,,,,,,,,,,,,,,,,,,,281.0575,12,0.1468,,up,0.5,,stimuli/card_100_transparent.png,920,100,12,0,12,0,1,,,,,,,,,,,,,,,,,,,,,,,,,,,,,,,,,,,,,,,,,,,,
,,,,5d30a692d6cd7d0001b359ff,A,2024-07-11_15h31.29.238,Slot Machine Game,2023.1.3,MacIntel,61.72839506,,,,,,,,,,,,,,,,,,,282.4708,13,0.2388,,up,1,,stimuli/card_100_transparent.png,1020,100,13,0,13,0,1,,,,,,,,,,,,,,,,,,,,,,,,,,,,,,,,,,,,,,,,,,,,
,,,,5d30a692d6cd7d0001b359ff,A,2024-07-11_15h31.29.238,Slot Machine Game,2023.1.3,MacIntel,61.72839506,,,,,,,,,,,,,,,,,,,284.5612,14,0.0144,,up,0.5,,stimuli/card_100_transparent.png,1120,100,14,0,14,0,1,,,,,,,,,,,,,,,,,,,,,,,,,,,,,,,,,,,,,,,,,,,,
,,,,5d30a692d6cd7d0001b359ff,A,2024-07-11_15h31.29.238,Slot Machine Game,2023.1.3,MacIntel,61.72839506,,,,,,,,,,,,,,,,,,,,,,,,,,,,,,,,,,,285.9085,,,290.9526,space,4.0431,,,,,,,,,,,,,,,,,,,,,,,,,,,,,,,,,,,,,
,,,,5d30a692d6cd7d0001b359ff,A,2024-07-11_15h31.29.238,Slot Machine Game,2023.1.3,MacIntel,61.72839506,,,,,,,,,,,,,,,,,,,,,,,,,,,,,,,,,,,,,,,,,,295.0429,2,"[2,4,8,0,1,3,9,6,8,5]",space,2.3143,,,,,,,,,,,,,,,,,,,,,,,,,,,,,,,
,,,,5d30a692d6cd7d0001b359ff,A,2024-07-11_15h31.29.238,Slot Machine Game,2023.1.3,MacIntel,61.72839506,,,,,,,,,,,,,,,,,,,,,,,,,,,100,,,,,,,,,,,,,,,,,,,,,1,3,"[15,15]","[[3,1,2],[3,1,2]]",297.3919,0,up,0.6206,,0.5,0.3,"[3,1,2]",0.985999243,stimuli/card_100_transparent.png,100,0,0,0,0,1,,,,,,,,,,
,,,,5d30a692d6cd7d0001b359ff,A,2024-07-11_15h31.29.238,Slot Machine Game,2023.1.3,MacIntel,61.72839506,,,,,,,,,,,,,,,,,,,,,,,,,,,110,,,,,,,,,,,,,,,,,,,,,1,3,,,299.4016,1,up,0.0005,,1,0.3,"[3,1,2]",0.116959752,stimuli/card_10_transparent.png,10,1,0,1,0,1,,,,,,,,,,
,,,,5d30a692d6cd7d0001b359ff,A,2024-07-11_15h31.29.238,Slot Machine Game,2023.1.3,MacIntel,61.72839506,,,,,,,,,,,,,,,,,,,,,,,,,,,110,,,,,,,,,,,,,,,,,,,,,1,3,,,301.2032,2,left,0.217,,1,0.3,"[3,1,2]",0.38638495,stimuli/card_0_transparent.png,0,2,0,2,0,1,,,,,,,,,,
,,,,5d30a692d6cd7d0001b359ff,A,2024-07-11_15h31.29.238,Slot Machine Game,2023.1.3,MacIntel,61.72839506,,,,,,,,,,,,,,,,,,,,,,,,,,,120,,,,,,,,,,,,,,,,,,,,,1,3,,,303.2835,3,right,1.0867,,1,0.3,"[3,1,2]",0.205319026,stimuli/card_10_transparent.png,10,3,0,3,0,1,,,,,,,,,,
,,,,5d30a692d6cd7d0001b359ff,A,2024-07-11_15h31.29.238,Slot Machine Game,2023.1.3,MacIntel,61.72839506,,,,,,,,,,,,,,,,,,,,,,,,,,,220,,,,,,,,,,,,,,,,,,,,,1,3,,,306.2255,4,up,0.7278,,1.5,0.3,"[3,1,2]",0.301736659,stimuli/card_100_transparent.png,100,4,0,4,0,1,,,,,,,,,,
,,,,5d30a692d6cd7d0001b359ff,A,2024-07-11_15h31.29.238,Slot Machine Game,2023.1.3,MacIntel,61.72839506,,,,,,,,,,,,,,,,,,,,,,,,,,,220,,,,,,,,,,,,,,,,,,,,,1,3,,,309.2527,5,up,0.831,,1,0.3,"[3,1,2]",0.031074261,stimuli/card_0_transparent.png,0,5,0,5,0,1,,,,,,,,,,
,,,,5d30a692d6cd7d0001b359ff,A,2024-07-11_15h31.29.238,Slot Machine Game,2023.1.3,MacIntel,61.72839506,,,,,,,,,,,,,,,,,,,,,,,,,,,320,,,,,,,,,,,,,,,,,,,,,1,3,,,311.9145,6,up,0.528,,1.5,0.3,"[3,1,2]",0.784041656,stimuli/card_100_transparent.png,100,6,0,6,0,1,,,,,,,,,,
,,,,5d30a692d6cd7d0001b359ff,A,2024-07-11_15h31.29.238,Slot Machine Game,2023.1.3,MacIntel,61.72839506,,,,,,,,,,,,,,,,,,,,,,,,,,,420,,,,,,,,,,,,,,,,,,,,,1,3,,,314.8042,7,up,0.089,,1.5,0.3,"[3,1,2]",0.287788319,stimuli/card_100_transparent.png,100,7,0,7,0,1,,,,,,,,,,
,,,,5d30a692d6cd7d0001b359ff,A,2024-07-11_15h31.29.238,Slot Machine Game,2023.1.3,MacIntel,61.72839506,,,,,,,,,,,,,,,,,,,,,,,,,,,520,,,,,,,,,,,,,,,,,,,,,1,3,,,317.1662,8,up,0.0727,,0.5,0.3,"[3,1,2]",0.898006526,stimuli/card_100_transparent.png,100,8,0,8,0,1,,,,,,,,,,
,,,,5d30a692d6cd7d0001b359ff,A,2024-07-11_15h31.29.238,Slot Machine Game,2023.1.3,MacIntel,61.72839506,,,,,,,,,,,,,,,,,,,,,,,,,,,530,,,,,,,,,,,,,,,,,,,,,1,3,,,318.6174,9,up,0.0721,,1,0.3,"[3,1,2]",0.16313812,stimuli/card_10_transparent.png,10,9,0,9,0,1,,,,,,,,,,
,,,,5d30a692d6cd7d0001b359ff,A,2024-07-11_15h31.29.238,Slot Machine Game,2023.1.3,MacIntel,61.72839506,,,,,,,,,,,,,,,,,,,,,,,,,,,630,,,,,,,,,,,,,,,,,,,,,1,3,,,320.5503,10,up,0.3717,,0.5,0.3,"[3,1,2]",0.229222696,stimuli/card_100_transparent.png,100,10,0,10,0,1,,,,,,,,,,
,,,,5d30a692d6cd7d0001b359ff,A,2024-07-11_15h31.29.238,Slot Machine Game,2023.1.3,MacIntel,61.72839506,,,,,,,,,,,,,,,,,,,,,,,,,,,730,,,,,,,,,,,,,,,,,,,,,1,3,,,322.2369,11,up,0.168,,1.5,0.3,"[3,1,2]",0.489605018,stimuli/card_100_transparent.png,100,11,0,11,0,1,,,,,,,,,,
,,,,5d30a692d6cd7d0001b359ff,A,2024-07-11_15h31.29.238,Slot Machine Game,2023.1.3,MacIntel,61.72839506,,,,,,,,,,,,,,,,,,,,,,,,,,,830,,,,,,,,,,,,,,,,,,,,,1,3,,,324.7431,12,up,0.0448,,1,0.3,"[3,1,2]",0.225092622,stimuli/card_100_transparent.png,100,12,0,12,0,1,,,,,,,,,,
,,,,5d30a692d6cd7d0001b359ff,A,2024-07-11_15h31.29.238,Slot Machine Game,2023.1.3,MacIntel,61.72839506,,,,,,,,,,,,,,,,,,,,,,,,,,,930,,,,,,,,,,,,,,,,,,,,,1,3,,,326.5751,13,up,0.0343,,1,0.3,"[3,1,2]",0.293156633,stimuli/card_100_transparent.png,100,13,0,13,0,1,,,,,,,,,,
,,,,5d30a692d6cd7d0001b359ff,A,2024-07-11_15h31.29.238,Slot Machine Game,2023.1.3,MacIntel,61.72839506,,,,,,,,,,,,,,,,,,,,,,,,,,,1030,,,,,,,,,,,,,,,,,,,,,1,3,,,328.4001,14,up,0.0774,,1.5,0.3,"[3,1,2]",0.605702997,stimuli/card_100_transparent.png,100,14,0,14,0,1,,,,,,,,,,
,,,,5d30a692d6cd7d0001b359ff,A,2024-07-11_15h31.29.238,Slot Machine Game,2023.1.3,MacIntel,61.72839506,,,,,,,,,,,,,,,,,,,,,,,,,,,,,,,,,,,330.808,,,,,,,,,,,,,,,,,,,,,,,,,,,,,,,,,[1030],0,0,0,0,1,,,,
,,,,5d30a692d6cd7d0001b359ff,A,2024-07-11_15h31.29.238,Slot Machine Game,2023.1.3,MacIntel,61.72839506,,,,,,,,,,,,,,,,,,,,,,,,,,,0,,,,,,,,,,,,,,,,,,,,,2,5,"[5,15]","[[1,2,3],[3,1,2]]",335.7789,0,left,0.0965,,0.5,0.3,"[1,2,3]",0.065596078,stimuli/card_0_transparent.png,0,0,0,0,0,1,,,,,,,,,,
,,,,5d30a692d6cd7d0001b359ff,A,2024-07-11_15h31.29.238,Slot Machine Game,2023.1.3,MacIntel,61.72839506,,,,,,,,,,,,,,,,,,,,,,,,,,,0,,,,,,,,,,,,,,,,,,,,,2,5,,,337.1436,1,left,0.2723,,1,0.3,"[1,2,3]",0.03187138,stimuli/card_0_transparent.png,0,1,0,1,0,1,,,,,,,,,,
,,,,5d30a692d6cd7d0001b359ff,A,2024-07-11_15h31.29.238,Slot Machine Game,2023.1.3,MacIntel,61.72839506,,,,,,,,,,,,,,,,,,,,,,,,,,,10,,,,,,,,,,,,,,,,,,,,,2,5,,,339.2538,2,up,0.7503,,1,0.3,"[1,2,3]",0.554235221,stimuli/card_10_transparent.png,10,2,0,2,0,1,,,,,,,,,,
,,,,5d30a692d6cd7d0001b359ff,A,2024-07-11_15h31.29.238,Slot Machine Game,2023.1.3,MacIntel,61.72839506,,,,,,,,,,,,,,,,,,,,,,,,,,,10,,,,,,,,,,,,,,,,,,,,,2,5,,,341.8411,3,right,0.7051,,1,0.3,"[1,2,3]",0.850353366,stimuli/card_0_transparent.png,0,3,0,3,0,1,,,,,,,,,,
,,,,5d30a692d6cd7d0001b359ff,A,2024-07-11_15h31.29.238,Slot Machine Game,2023.1.3,MacIntel,61.72839506,,,,,,,,,,,,,,,,,,,,,,,,,,,20,,,,,,,,,,,,,,,,,,,,,2,5,,,344.3872,4,up,0.0751,,1,0.3,"[1,2,3]",0.337150932,stimuli/card_10_transparent.png,10,4,0,4,0,1,,,,,,,,,,
,,,,5d30a692d6cd7d0001b359ff,A,2024-07-11_15h31.29.238,Slot Machine Game,2023.1.3,MacIntel,61.72839506,,,,,,,,,,,,,,,,,,,,,,,,,,,20,,,,,,,,,,,,,,,,,,,,,2,5,,,346.2752,5,right,0.7447,,1.5,0.3,"[3,1,2]",0.098695155,stimuli/card_0_transparent.png,0,5,0,5,0,1,,,,,,,,,,
,,,,5d30a692d6cd7d0001b359ff,A,2024-07-11_15h31.29.238,Slot Machine Game,2023.1.3,MacIntel,61.72839506,,,,,,,,,,,,,,,,,,,,,,,,,,,20,,,,,,,,,,,,,,,,,,,,,2,5,,,349.3739,6,left,0.0841,,1,0.3,"[3,1,2]",0.245128113,stimuli/card_0_transparent.png,0,6,0,6,0,1,,,,,,,,,,
,,,,5d30a692d6cd7d0001b359ff,A,2024-07-11_15h31.29.238,Slot Machine Game,2023.1.3,MacIntel,61.72839506,,,,,,,,,,,,,,,,,,,,,,,,,,,120,,,,,,,,,,,,,,,,,,,,,2,5,,,351.3177,7,left,0.1874,,1.5,0.3,"[3,1,2]",0.084367851,stimuli/card_100_transparent.png,100,7,0,7,0,1,,,,,,,,,,
,,,,5d30a692d6cd7d0001b359ff,A,2024-07-11_15h31.29.238,Slot Machine Game,2023.1.3,MacIntel,61.72839506,,,,,,,,,,,,,,,,,,,,,,,,,,,120,,,,,,,,,,,,,,,,,,,,,2,5,,,353.8305,8,left,0.1555,,1,0.3,"[3,1,2]",0.401408549,stimuli/card_0_transparent.png,0,8,0,8,0,1,,,,,,,,,,
,,,,5d30a692d6cd7d0001b359ff,A,2024-07-11_15h31.29.238,Slot Machine Game,2023.1.3,MacIntel,61.72839506,,,,,,,,,,,,,,,,,,,,,,,,,,,120,,,,,,,,,,,,,,,,,,,,,2,5,,,355.8753,9,left,0.2394,,1,0.3,"[3,1,2]",0.675102146,stimuli/card_0_transparent.png,0,9,0,9,0,1,,,,,,,,,,
,,,,5d30a692d6cd7d0001b359ff,A,2024-07-11_15h31.29.238,Slot Machine Game,2023.1.3,MacIntel,61.72839506,,,,,,,,,,,,,,,,,,,,,,,,,,,220,,,,,,,,,,,,,,,,,,,,,2,5,,,357.9204,10,up,0.7339,,1.5,0.3,"[3,1,2]",0.85610792,stimuli/card_100_transparent.png,100,10,0,10,0,1,,,,,,,,,,
,,,,5d30a692d6cd7d0001b359ff,A,2024-07-11_15h31.29.238,Slot Machine Game,2023.1.3,MacIntel,61.72839506,,,,,,,,,,,,,,,,,,,,,,,,,,,320,,,,,,,,,,,,,,,,,,,,,2,5,,,360.9713,11,up,0.0986,,1,0.3,"[3,1,2]",0.697115288,stimuli/card_100_transparent.png,100,11,0,11,0,1,,,,,,,,,,
,,,,5d30a692d6cd7d0001b359ff,A,2024-07-11_15h31.29.238,Slot Machine Game,2023.1.3,MacIntel,61.72839506,,,,,,,,,,,,,,,,,,,,,,,,,,,330,,,,,,,,,,,,,,,,,,,,,2,5,,,362.9239,12,up,0.0007,,1,0.3,"[3,1,2]",0.1576463,stimuli/card_10_transparent.png,10,12,0,12,0,1,,,,,,,,,,
,,,,5d30a692d6cd7d0001b359ff,A,2024-07-11_15h31.29.238,Slot Machine Game,2023.1.3,MacIntel,61.72839506,,,,,,,,,,,,,,,,,,,,,,,,,,,330,,,,,,,,,,,,,,,,,,,,,2,5,,,364.7969,13,right,0.4734,,0.5,0.3,"[3,1,2]",0.072285678,stimuli/card_0_transparent.png,0,13,0,13,0,1,,,,,,,,,,
,,,,5d30a692d6cd7d0001b359ff,A,2024-07-11_15h31.29.238,Slot Machine Game,2023.1.3,MacIntel,61.72839506,,,,,,,,,,,,,,,,,,,,,,,,,,,340,,,,,,,,,,,,,,,,,,,,,2,5,,,366.619,14,right,0.1565,,1.5,0.3,"[3,1,2]",0.381316143,stimuli/card_10_transparent.png,10,14,0,14,0,1,,,,,,,,,,
,,,,5d30a692d6cd7d0001b359ff,A,2024-07-11_15h31.29.238,Slot Machine Game,2023.1.3,MacIntel,61.72839506,,,,,,,,,,,,,,,,,,,,,,,,,,,,,,,,,,,369.1239,,,,,,,,,,,,,,,,,,,,,,,,,,,,,,,,,"[1030,340]",1,0,1,0,1,,,,
,,,,5d30a692d6cd7d0001b359ff,A,2024-07-11_15h31.29.238,Slot Machine Game,2023.1.3,MacIntel,61.72839506,,,,,,,,,,,,,,,,,,,,,,,,,,,10,,,,,,,,,,,,,,,,,,,,,3,9,"[8,15]","[[3,2,1],[3,1,2]]",374.1354,0,up,0.5556,,1.5,0.3,"[3,2,1]",0.910470517,stimuli/card_10_transparent.png,10,0,0,0,0,1,,,,,,,,,,
,,,,5d30a692d6cd7d0001b359ff,A,2024-07-11_15h31.29.238,Slot Machine Game,2023.1.3,MacIntel,61.72839506,,,,,,,,,,,,,,,,,,,,,,,,,,,110,,,,,,,,,,,,,,,,,,,,,3,9,,,377.051,1,left,0.3813,,1.5,0.3,"[3,2,1]",0.008669863,stimuli/card_100_transparent.png,100,1,0,1,0,1,,,,,,,,,,
,,,,5d30a692d6cd7d0001b359ff,A,2024-07-11_15h31.29.238,Slot Machine Game,2023.1.3,MacIntel,61.72839506,,,,,,,,,,,,,,,,,,,,,,,,,,,110,,,,,,,,,,,,,,,,,,,,,3,9,,,379.7994,2,left,0.0721,,1,0.3,"[3,2,1]",0.334465844,stimuli/card_0_transparent.png,0,2,0,2,0,1,,,,,,,,,,
,,,,5d30a692d6cd7d0001b359ff,A,2024-07-11_15h31.29.238,Slot Machine Game,2023.1.3,MacIntel,61.72839506,,,,,,,,,,,,,,,,,,,,,,,,,,,110,,,,,,,,,,,,,,,,,,,,,3,9,,,381.6705,3,left,0.1941,,1.5,0.3,"[3,2,1]",0.382265996,stimuli/card_0_transparent.png,0,3,0,3,0,1,,,,,,,,,,
,,,,5d30a692d6cd7d0001b359ff,A,2024-07-11_15h31.29.238,Slot Machine Game,2023.1.3,MacIntel,61.72839506,,,,,,,,,,,,,,,,,,,,,,,,,,,210,,,,,,,,,,,,,,,,,,,,,3,9,,,384.2074,4,right,0.5654,,1,0.3,"[3,2,1]",0.865835803,stimuli/card_100_transparent.png,100,4,0,4,0,1,,,,,,,,,,
,,,,5d30a692d6cd7d0001b359ff,A,2024-07-11_15h31.29.238,Slot Machine Game,2023.1.3,MacIntel,61.72839506,,,,,,,,,,,,,,,,,,,,,,,,,,,310,,,,,,,,,,,,,,,,,,,,,3,9,,,386.6229,5,right,0.0857,,0.5,0.3,"[3,2,1]",0.462137421,stimuli/card_100_transparent.png,100,5,0,5,0,1,,,,,,,,,,
,,,,5d30a692d6cd7d0001b359ff,A,2024-07-11_15h31.29.238,Slot Machine Game,2023.1.3,MacIntel,61.72839506,,,,,,,,,,,,,,,,,,,,,,,,,,,410,,,,,,,,,,,,,,,,,,,,,3,9,,,387.9572,6,right,0.8054,,1.5,0.3,"[3,2,1]",0.792865916,stimuli/card_100_transparent.png,100,6,0,6,0,1,,,,,,,,,,
,,,,5d30a692d6cd7d0001b359ff,A,2024-07-11_15h31.29.238,Slot Machine Game,2023.1.3,MacIntel,61.72839506,,,,,,,,,,,,,,,,,,,,,,,,,,,510,,,,,,,,,,,,,,,,,,,,,3,9,,,391.1573,7,right,0.09,,1.5,0.3,"[3,2,1]",0.707042655,stimuli/card_100_transparent.png,100,7,0,7,0,1,,,,,,,,,,
,,,,5d30a692d6cd7d0001b359ff,A,2024-07-11_15h31.29.238,Slot Machine Game,2023.1.3,MacIntel,61.72839506,,,,,,,,,,,,,,,,,,,,,,,,,,,520,,,,,,,,,,,,,,,,,,,,,3,9,,,393.6562,8,right,0.2119,,0.5,0.3,"[3,1,2]",0.310025085,stimuli/card_10_transparent.png,10,8,0,8,0,1,,,,,,,,,,
,,,,5d30a692d6cd7d0001b359ff,A,2024-07-11_15h31.29.238,Slot Machine Game,2023.1.3,MacIntel,61.72839506,,,,,,,,,,,,,,,,,,,,,,,,,,,530,,,,,,,,,,,,,,,,,,,,,3,9,,,395.1763,9,right,0.5012,,0.5,0.3,"[3,1,2]",0.905390566,stimuli/card_10_transparent.png,10,9,0,9,0,1,,,,,,,,,,
,,,,5d30a692d6cd7d0001b359ff,A,2024-07-11_15h31.29.238,Slot Machine Game,2023.1.3,MacIntel,61.72839506,,,,,,,,,,,,,,,,,,,,,,,,,,,630,,,,,,,,,,,,,,,,,,,,,3,9,,,396.993,10,up,0.2774,,1.5,0.3,"[3,1,2]",0.788169713,stimuli/card_100_transparent.png,100,10,0,10,0,1,,,,,,,,,,
,,,,5d30a692d6cd7d0001b359ff,A,2024-07-11_15h31.29.238,Slot Machine Game,2023.1.3,MacIntel,61.72839506,,,,,,,,,,,,,,,,,,,,,,,,,,,730,,,,,,,,,,,,,,,,,,,,,3,9,,,399.6069,11,up,0.1054,,1.5,0.3,"[3,1,2]",0.254081416,stimuli/card_100_transparent.png,100,11,0,11,0,1,,,,,,,,,,
,,,,5d30a692d6cd7d0001b359ff,A,2024-07-11_15h31.29.238,Slot Machine Game,2023.1.3,MacIntel,61.72839506,,,,,,,,,,,,,,,,,,,,,,,,,,,830,,,,,,,,,,,,,,,,,,,,,3,9,,,402.0692,12,up,0.1795,,0.5,0.3,"[3,1,2]",0.77711721,stimuli/card_100_transparent.png,100,12,0,12,0,1,,,,,,,,,,
,,,,5d30a692d6cd7d0001b359ff,A,2024-07-11_15h31.29.238,Slot Machine Game,2023.1.3,MacIntel,61.72839506,,,,,,,,,,,,,,,,,,,,,,,,,,,930,,,,,,,,,,,,,,,,,,,,,3,9,,,403.559,13,up,0.1433,,0.5,0.3,"[3,1,2]",0.366690367,stimuli/card_100_transparent.png,100,13,0,13,0,1,,,,,,,,,,
,,,,5d30a692d6cd7d0001b359ff,A,2024-07-11_15h31.29.238,Slot Machine Game,2023.1.3,MacIntel,61.72839506,,,,,,,,,,,,,,,,,,,,,,,,,,,930,,,,,,,,,,,,,,,,,,,,,3,9,,,404.9524,14,up,0.1214,,0.5,0.3,"[3,1,2]",0.067245484,stimuli/card_0_transparent.png,0,14,0,14,0,1,,,,,,,,,,
,,,,5d30a692d6cd7d0001b359ff,A,2024-07-11_15h31.29.238,Slot Machine Game,2023.1.3,MacIntel,61.72839506,,,,,,,,,,,,,,,,,,,,,,,,,,,,,,,,,,,406.3838,,,,,,,,,,,,,,,,,,,,,,,,,,,,,,,,,"[1030,340,930]",2,0,2,0,1,,,,
,,,,5d30a692d6cd7d0001b359ff,A,2024-07-11_15h31.29.238,Slot Machine Game,2023.1.3,MacIntel,61.72839506,,,,,,,,,,,,,,,,,,,,,,,,,,,100,,,,,,,,,,,,,,,,,,,,,4,1,"[12,15]","[[2,1,3],[2,3,1]]",411.3894,0,right,1.0117,,1,0.3,"[2,1,3]",0.017193261,stimuli/card_100_transparent.png,100,0,0,0,0,1,,,,,,,,,,
,,,,5d30a692d6cd7d0001b359ff,A,2024-07-11_15h31.29.238,Slot Machine Game,2023.1.3,MacIntel,61.72839506,,,,,,,,,,,,,,,,,,,,,,,,,,,100,,,,,,,,,,,,,,,,,,,,,4,1,,,414.3063,1,right,0.0852,,0.5,0.3,"[2,1,3]",0.389056142,stimuli/card_0_transparent.png,0,1,0,1,0,1,,,,,,,,,,
,,,,5d30a692d6cd7d0001b359ff,A,2024-07-11_15h31.29.238,Slot Machine Game,2023.1.3,MacIntel,61.72839506,,,,,,,,,,,,,,,,,,,,,,,,,,,100,,,,,,,,,,,,,,,,,,,,,4,1,,,415.732,2,right,0.294,,0.5,0.3,"[2,1,3]",0.526474332,stimuli/card_0_transparent.png,0,2,0,2,0,1,,,,,,,,,,
,,,,5d30a692d6cd7d0001b359ff,A,2024-07-11_15h31.29.238,Slot Machine Game,2023.1.3,MacIntel,61.72839506,,,,,,,,,,,,,,,,,,,,,,,,,,,110,,,,,,,,,,,,,,,,,,,,,4,1,,,417.4894,3,up,0.622,,0.5,0.3,"[2,1,3]",0.195132443,stimuli/card_10_transparent.png,10,3,0,3,0,1,,,,,,,,,,
,,,,5d30a692d6cd7d0001b359ff,A,2024-07-11_15h31.29.238,Slot Machine Game,2023.1.3,MacIntel,61.72839506,,,,,,,,,,,,,,,,,,,,,,,,,,,120,,,,,,,,,,,,,,,,,,,,,4,1,,,419.4225,4,left,0.0006,,1,0.3,"[2,1,3]",0.760507758,stimuli/card_10_transparent.png,10,4,0,4,0,1,,,,,,,,,,
,,,,5d30a692d6cd7d0001b359ff,A,2024-07-11_15h31.29.238,Slot Machine Game,2023.1.3,MacIntel,61.72839506,,,,,,,,,,,,,,,,,,,,,,,,,,,130,,,,,,,,,,,,,,,,,,,,,4,1,,,421.2562,5,left,0.0004,,0.5,0.3,"[2,1,3]",0.341325125,stimuli/card_10_transparent.png,10,5,0,5,0,1,,,,,,,,,,
,,,,5d30a692d6cd7d0001b359ff,A,2024-07-11_15h31.29.238,Slot Machine Game,2023.1.3,MacIntel,61.72839506,,,,,,,,,,,,,,,,,,,,,,,,,,,230,,,,,,,,,,,,,,,,,,,,,4,1,,,422.595,6,up,0.1137,,0.5,0.3,"[2,1,3]",0.41229179,stimuli/card_100_transparent.png,100,6,0,6,0,1,,,,,,,,,,
,,,,5d30a692d6cd7d0001b359ff,A,2024-07-11_15h31.29.238,Slot Machine Game,2023.1.3,MacIntel,61.72839506,,,,,,,,,,,,,,,,,,,,,,,,,,,240,,,,,,,,,,,,,,,,,,,,,4,1,,,424.0559,7,up,0.0128,,0.5,0.3,"[2,1,3]",0.199911411,stimuli/card_10_transparent.png,10,7,0,7,0,1,,,,,,,,,,
,,,,5d30a692d6cd7d0001b359ff,A,2024-07-11_15h31.29.238,Slot Machine Game,2023.1.3,MacIntel,61.72839506,,,,,,,,,,,,,,,,,,,,,,,,,,,240,,,,,,,,,,,,,,,,,,,,,4,1,,,425.3926,8,right,0.5204,,0.5,0.3,"[2,1,3]",0.852438558,stimuli/card_0_transparent.png,0,8,0,8,0,1,,,,,,,,,,
,,,,5d30a692d6cd7d0001b359ff,A,2024-07-11_15h31.29.238,Slot Machine Game,2023.1.3,MacIntel,61.72839506,,,,,,,,,,,,,,,,,,,,,,,,,,,340,,,,,,,,,,,,,,,,,,,,,4,1,,,427.2062,9,up,0.2172,,0.5,0.3,"[2,1,3]",0.201675134,stimuli/card_100_transparent.png,100,9,0,9,0,1,,,,,,,,,,
,,,,5d30a692d6cd7d0001b359ff,A,2024-07-11_15h31.29.238,Slot Machine Game,2023.1.3,MacIntel,61.72839506,,,,,,,,,,,,,,,,,,,,,,,,,,,340,,,,,,,,,,,,,,,,,,,,,4,1,,,428.7558,10,right,0.2173,,0.5,0.3,"[2,1,3]",0.50792074,stimuli/card_0_transparent.png,0,10,0,10,0,1,,,,,,,,,,
,,,,5d30a692d6cd7d0001b359ff,A,2024-07-11_15h31.29.238,Slot Machine Game,2023.1.3,MacIntel,61.72839506,,,,,,,,,,,,,,,,,,,,,,,,,,,440,,,,,,,,,,,,,,,,,,,,,4,1,,,430.3791,11,up,0.4722,,1,0.3,"[2,1,3]",0.936249361,stimuli/card_100_transparent.png,100,11,0,11,0,1,,,,,,,,,,
,,,,5d30a692d6cd7d0001b359ff,A,2024-07-11_15h31.29.238,Slot Machine Game,2023.1.3,MacIntel,61.72839506,,,,,,,,,,,,,,,,,,,,,,,,,,,440,,,,,,,,,,,,,,,,,,,,,4,1,,,432.6418,12,up,0.1108,,1.5,0.3,"[2,3,1]",0.580639192,stimuli/card_0_transparent.png,0,12,0,12,0,1,,,,,,,,,,
,,,,5d30a692d6cd7d0001b359ff,A,2024-07-11_15h31.29.238,Slot Machine Game,2023.1.3,MacIntel,61.72839506,,,,,,,,,,,,,,,,,,,,,,,,,,,540,,,,,,,,,,,,,,,,,,,,,4,1,,,435.0901,13,right,0.5693,,1.5,0.3,"[2,3,1]",0.516337509,stimuli/card_100_transparent.png,100,13,0,13,0,1,,,,,,,,,,
,,,,5d30a692d6cd7d0001b359ff,A,2024-07-11_15h31.29.238,Slot Machine Game,2023.1.3,MacIntel,61.72839506,,,,,,,,,,,,,,,,,,,,,,,,,,,640,,,,,,,,,,,,,,,,,,,,,4,1,,,438.0565,14,right,0.2385,,0.5,0.3,"[2,3,1]",0.635083928,stimuli/card_100_transparent.png,100,14,0,14,0,1,,,,,,,,,,
,,,,5d30a692d6cd7d0001b359ff,A,2024-07-11_15h31.29.238,Slot Machine Game,2023.1.3,MacIntel,61.72839506,,,,,,,,,,,,,,,,,,,,,,,,,,,,,,,,,,,439.5925,,,,,,,,,,,,,,,,,,,,,,,,,,,,,,,,,"[1030,340,930,640]",3,0,3,0,1,,,,
,,,,5d30a692d6cd7d0001b359ff,A,2024-07-11_15h31.29.238,Slot Machine Game,2023.1.3,MacIntel,61.72839506,,,,,,,,,,,,,,,,,,,,,,,,,,,100,,,,,,,,,,,,,,,,,,,,,5,2,"[6,15]","[[1,3,2],[3,2,1]]",444.6062,0,left,1.1395,,1,0.3,"[1,3,2]",0.628552862,stimuli/card_100_transparent.png,100,0,0,0,0,1,,,,,,,,,,
,,,,5d30a692d6cd7d0001b359ff,A,2024-07-11_15h31.29.238,Slot Machine Game,2023.1.3,MacIntel,61.72839506,,,,,,,,,,,,,,,,,,,,,,,,,,,200,,,,,,,,,,,,,,,,,,,,,5,2,,,447.5394,1,left,0.4611,,0.5,0.3,"[1,3,2]",0.575690633,stimuli/card_100_transparent.png,100,1,0,1,0,1,,,,,,,,,,
,,,,5d30a692d6cd7d0001b359ff,A,2024-07-11_15h31.29.238,Slot Machine Game,2023.1.3,MacIntel,61.72839506,,,,,,,,,,,,,,,,,,,,,,,,,,,300,,,,,,,,,,,,,,,,,,,,,5,2,,,449.3391,2,left,0.346,,1.5,0.3,"[1,3,2]",0.667427968,stimuli/card_100_transparent.png,100,2,0,2,0,1,,,,,,,,,,
,,,,5d30a692d6cd7d0001b359ff,A,2024-07-11_15h31.29.238,Slot Machine Game,2023.1.3,MacIntel,61.72839506,,,,,,,,,,,,,,,,,,,,,,,,,,,400,,,,,,,,,,,,,,,,,,,,,5,2,,,452.0068,3,left,0.1714,,1,0.3,"[1,3,2]",0.964730172,stimuli/card_100_transparent.png,100,3,0,3,0,1,,,,,,,,,,
,,,,5d30a692d6cd7d0001b359ff,A,2024-07-11_15h31.29.238,Slot Machine Game,2023.1.3,MacIntel,61.72839506,,,,,,,,,,,,,,,,,,,,,,,,,,,500,,,,,,,,,,,,,,,,,,,,,5,2,,,454.0391,4,left,0.1741,,1,0.3,"[1,3,2]",0.89038652,stimuli/card_100_transparent.png,100,4,0,4,0,1,,,,,,,,,,
,,,,5d30a692d6cd7d0001b359ff,A,2024-07-11_15h31.29.238,Slot Machine Game,2023.1.3,MacIntel,61.72839506,,,,,,,,,,,,,,,,,,,,,,,,,,,600,,,,,,,,,,,,,,,,,,,,,5,2,,,456.0843,5,left,0.1215,,1,0.3,"[1,3,2]",0.996380032,stimuli/card_100_transparent.png,100,5,0,5,0,1,,,,,,,,,,
,,,,5d30a692d6cd7d0001b359ff,A,2024-07-11_15h31.29.238,Slot Machine Game,2023.1.3,MacIntel,61.72839506,,,,,,,,,,,,,,,,,,,,,,,,,,,600,,,,,,,,,,,,,,,,,,,,,5,2,,,458.0486,6,left,0.1119,,1,0.3,"[3,2,1]",0.792739554,stimuli/card_0_transparent.png,0,6,0,6,0,1,,,,,,,,,,
,,,,5d30a692d6cd7d0001b359ff,A,2024-07-11_15h31.29.238,Slot Machine Game,2023.1.3,MacIntel,61.72839506,,,,,,,,,,,,,,,,,,,,,,,,,,,600,,,,,,,,,,,,,,,,,,,,,5,2,,,460.0125,7,left,0.2389,,1.5,0.3,"[3,2,1]",0.73683128,stimuli/card_0_transparent.png,0,7,0,7,0,1,,,,,,,,,,
,,,,5d30a692d6cd7d0001b359ff,A,2024-07-11_15h31.29.238,Slot Machine Game,2023.1.3,MacIntel,61.72839506,,,,,,,,,,,,,,,,,,,,,,,,,,,610,,,,,,,,,,,,,,,,,,,,,5,2,,,462.5754,8,up,0.1559,,1,0.3,"[3,2,1]",0.444675164,stimuli/card_10_transparent.png,10,8,0,8,0,1,,,,,,,,,,
,,,,5d30a692d6cd7d0001b359ff,A,2024-07-11_15h31.29.238,Slot Machine Game,2023.1.3,MacIntel,61.72839506,,,,,,,,,,,,,,,,,,,,,,,,,,,710,,,,,,,,,,,,,,,,,,,,,5,2,,,464.6007,9,right,0.0739,,1,0.3,"[3,2,1]",0.646066274,stimuli/card_100_transparent.png,100,9,0,9,0,1,,,,,,,,,,
,,,,5d30a692d6cd7d0001b359ff,A,2024-07-11_15h31.29.238,Slot Machine Game,2023.1.3,MacIntel,61.72839506,,,,,,,,,,,,,,,,,,,,,,,,,,,810,,,,,,,,,,,,,,,,,,,,,5,2,,,466.5289,10,right,0.1103,,0.5,0.3,"[3,2,1]",0.294216846,stimuli/card_100_transparent.png,100,10,0,10,0,1,,,,,,,,,,
,,,,5d30a692d6cd7d0001b359ff,A,2024-07-11_15h31.29.238,Slot Machine Game,2023.1.3,MacIntel,61.72839506,,,,,,,,,,,,,,,,,,,,,,,,,,,910,,,,,,,,,,,,,,,,,,,,,5,2,,,467.9623,11,right,0.2047,,1,0.3,"[3,2,1]",0.218868873,stimuli/card_100_transparent.png,100,11,0,11,0,1,,,,,,,,,,
,,,,5d30a692d6cd7d0001b359ff,A,2024-07-11_15h31.29.238,Slot Machine Game,2023.1.3,MacIntel,61.72839506,,,,,,,,,,,,,,,,,,,,,,,,,,,1010,,,,,,,,,,,,,,,,,,,,,5,2,,,470.0161,12,right,1.0031,,0.5,0.3,"[3,2,1]",0.660444112,stimuli/card_100_transparent.png,100,12,0,12,0,1,,,,,,,,,,
,,,,5d30a692d6cd7d0001b359ff,A,2024-07-11_15h31.29.238,Slot Machine Game,2023.1.3,MacIntel,61.72839506,,,,,,,,,,,,,,,,,,,,,,,,,,,1020,,,,,,,,,,,,,,,,,,,,,5,2,,,472.3586,13,right,0.1205,,0.5,0.3,"[3,2,1]",0.106866914,stimuli/card_10_transparent.png,10,13,0,13,0,1,,,,,,,,,,
,,,,5d30a692d6cd7d0001b359ff,A,2024-07-11_15h31.29.238,Slot Machine Game,2023.1.3,MacIntel,61.72839506,,,,,,,,,,,,,,,,,,,,,,,,,,,1020,,,,,,,,,,,,,,,,,,,,,5,2,,,473.8373,14,left,0.183,,0.5,0.3,"[3,2,1]",0.298767211,stimuli/card_0_transparent.png,0,14,0,14,0,1,,,,,,,,,,
,,,,5d30a692d6cd7d0001b359ff,A,2024-07-11_15h31.29.238,Slot Machine Game,2023.1.3,MacIntel,61.72839506,,,,,,,,,,,,,,,,,,,,,,,,,,,,,,,,,,,475.3459,,,,,,,,,,,,,,,,,,,,,,,,,,,,,,,,,"[1030,340,930,640,1020]",4,0,4,0,1,,,,
,,,,5d30a692d6cd7d0001b359ff,A,2024-07-11_15h31.29.238,Slot Machine Game,2023.1.3,MacIntel,61.72839506,,,,,,,,,,,,,,,,,,,,,,,,,,,0,,,,,,,,,,,,,,,,,,,,,6,4,"[7,15]","[[2,3,1],[1,2,3]]",480.3653,0,up,0.7952,,1,0.3,"[2,3,1]",0.297213513,stimuli/card_0_transparent.png,0,0,0,0,0,1,,,,,,,,,,
,,,,5d30a692d6cd7d0001b359ff,A,2024-07-11_15h31.29.238,Slot Machine Game,2023.1.3,MacIntel,61.72839506,,,,,,,,,,,,,,,,,,,,,,,,,,,10,,,,,,,,,,,,,,,,,,,,,6,4,,,482.9514,1,left,0.0646,,0.5,0.3,"[2,3,1]",0.331854617,stimuli/card_10_transparent.png,10,1,0,1,0,1,,,,,,,,,,
,,,,5d30a692d6cd7d0001b359ff,A,2024-07-11_15h31.29.238,Slot Machine Game,2023.1.3,MacIntel,61.72839506,,,,,,,,,,,,,,,,,,,,,,,,,,,110,,,,,,,,,,,,,,,,,,,,,6,4,,,484.3146,2,right,0.0643,,1.5,0.3,"[2,3,1]",0.381436689,stimuli/card_100_transparent.png,100,2,0,2,0,1,,,,,,,,,,
,,,,5d30a692d6cd7d0001b359ff,A,2024-07-11_15h31.29.238,Slot Machine Game,2023.1.3,MacIntel,61.72839506,,,,,,,,,,,,,,,,,,,,,,,,,,,210,,,,,,,,,,,,,,,,,,,,,6,4,,,486.7419,3,right,0.5811,,0.5,0.3,"[2,3,1]",0.868912335,stimuli/card_100_transparent.png,100,3,0,3,0,1,,,,,,,,,,
,,,,5d30a692d6cd7d0001b359ff,A,2024-07-11_15h31.29.238,Slot Machine Game,2023.1.3,MacIntel,61.72839506,,,,,,,,,,,,,,,,,,,,,,,,,,,310,,,,,,,,,,,,,,,,,,,,,6,4,,,488.6496,4,right,0.3513,,0.5,0.3,"[2,3,1]",0.931975185,stimuli/card_100_transparent.png,100,4,0,4,0,1,,,,,,,,,,
,,,,5d30a692d6cd7d0001b359ff,A,2024-07-11_15h31.29.238,Slot Machine Game,2023.1.3,MacIntel,61.72839506,,,,,,,,,,,,,,,,,,,,,,,,,,,410,,,,,,,,,,,,,,,,,,,,,6,4,,,490.4253,5,right,0.1341,,1.5,0.3,"[2,3,1]",0.299808295,stimuli/card_100_transparent.png,100,5,0,5,0,1,,,,,,,,,,
,,,,5d30a692d6cd7d0001b359ff,A,2024-07-11_15h31.29.238,Slot Machine Game,2023.1.3,MacIntel,61.72839506,,,,,,,,,,,,,,,,,,,,,,,,,,,510,,,,,,,,,,,,,,,,,,,,,6,4,,,492.9005,6,right,0.0723,,1.5,0.3,"[2,3,1]",0.303846112,stimuli/card_100_transparent.png,100,6,0,6,0,1,,,,,,,,,,
,,,,5d30a692d6cd7d0001b359ff,A,2024-07-11_15h31.29.238,Slot Machine Game,2023.1.3,MacIntel,61.72839506,,,,,,,,,,,,,,,,,,,,,,,,,,,510,,,,,,,,,,,,,,,,,,,,,6,4,,,495.3194,7,right,0.0718,,1.5,0.3,"[1,2,3]",0.24042197,stimuli/card_0_transparent.png,0,7,0,7,0,1,,,,,,,,,,
,,,,5d30a692d6cd7d0001b359ff,A,2024-07-11_15h31.29.238,Slot Machine Game,2023.1.3,MacIntel,61.72839506,,,,,,,,,,,,,,,,,,,,,,,,,,,510,,,,,,,,,,,,,,,,,,,,,6,4,,,497.7282,8,right,0.4441,,0.5,0.3,"[1,2,3]",0.642941075,stimuli/card_0_transparent.png,0,8,0,8,0,1,,,,,,,,,,
,,,,5d30a692d6cd7d0001b359ff,A,2024-07-11_15h31.29.238,Slot Machine Game,2023.1.3,MacIntel,61.72839506,,,,,,,,,,,,,,,,,,,,,,,,,,,520,,,,,,,,,,,,,,,,,,,,,6,4,,,499.4947,9,up,0.0983,,0.5,0.3,"[1,2,3]",0.852569007,stimuli/card_10_transparent.png,10,9,0,9,0,1,,,,,,,,,,
,,,,5d30a692d6cd7d0001b359ff,A,2024-07-11_15h31.29.238,Slot Machine Game,2023.1.3,MacIntel,61.72839506,,,,,,,,,,,,,,,,,,,,,,,,,,,620,,,,,,,,,,,,,,,,,,,,,6,4,,,500.8643,10,left,0.0594,,1,0.3,"[1,2,3]",0.797692843,stimuli/card_100_transparent.png,100,10,0,10,0,1,,,,,,,,,,
,,,,5d30a692d6cd7d0001b359ff,A,2024-07-11_15h31.29.238,Slot Machine Game,2023.1.3,MacIntel,61.72839506,,,,,,,,,,,,,,,,,,,,,,,,,,,720,,,,,,,,,,,,,,,,,,,,,6,4,,,502.7621,11,left,0.718,,1.5,0.3,"[1,2,3]",0.70568963,stimuli/card_100_transparent.png,100,11,0,11,0,1,,,,,,,,,,
,,,,5d30a692d6cd7d0001b359ff,A,2024-07-11_15h31.29.238,Slot Machine Game,2023.1.3,MacIntel,61.72839506,,,,,,,,,,,,,,,,,,,,,,,,,,,820,,,,,,,,,,,,,,,,,,,,,6,4,,,505.8577,12,left,0.1966,,1,0.3,"[1,2,3]",0.44074206,stimuli/card_100_transparent.png,100,12,0,12,0,1,,,,,,,,,,
,,,,5d30a692d6cd7d0001b359ff,A,2024-07-11_15h31.29.238,Slot Machine Game,2023.1.3,MacIntel,61.72839506,,,,,,,,,,,,,,,,,,,,,,,,,,,830,,,,,,,,,,,,,,,,,,,,,6,4,,,507.8672,13,left,0.402,,0.5,0.3,"[1,2,3]",0.127638389,stimuli/card_10_transparent.png,10,13,0,13,0,1,,,,,,,,,,
,,,,5d30a692d6cd7d0001b359ff,A,2024-07-11_15h31.29.238,Slot Machine Game,2023.1.3,MacIntel,61.72839506,,,,,,,,,,,,,,,,,,,,,,,,,,,830,,,,,,,,,,,,,,,,,,,,,6,4,,,509.5845,14,right,0.111,,1.5,0.3,"[1,2,3]",0.832710995,stimuli/card_0_transparent.png,0,14,0,14,0,1,,,,,,,,,,
,,,,5d30a692d6cd7d0001b359ff,A,2024-07-11_15h31.29.238,Slot Machine Game,2023.1.3,MacIntel,61.72839506,,,,,,,,,,,,,,,,,,,,,,,,,,,,,,,,,,,512.0885,,,,,,,,,,,,,,,,,,,,,,,,,,,,,,,,,"[1030,340,930,640,1020,830]",5,0,5,0,1,,,,
,,,,5d30a692d6cd7d0001b359ff,A,2024-07-11_15h31.29.238,Slot Machine Game,2023.1.3,MacIntel,61.72839506,,,,,,,,,,,,,,,,,,,,,,,,,,,100,,,,,,,,,,,,,,,,,,,,,7,10,"[10,15]","[[3,1,2],[1,3,2]]",517.0989,0,up,0.2083,,0.5,0.3,"[3,1,2]",0.985804011,stimuli/card_100_transparent.png,100,0,0,0,0,1,,,,,,,,,,
,,,,5d30a692d6cd7d0001b359ff,A,2024-07-11_15h31.29.238,Slot Machine Game,2023.1.3,MacIntel,61.72839506,,,,,,,,,,,,,,,,,,,,,,,,,,,200,,,,,,,,,,,,,,,,,,,,,7,10,,,518.65,1,up,0.1404,,1,0.3,"[3,1,2]",0.819010654,stimuli/card_100_transparent.png,100,1,0,1,0,1,,,,,,,,,,
,,,,5d30a692d6cd7d0001b359ff,A,2024-07-11_15h31.29.238,Slot Machine Game,2023.1.3,MacIntel,61.72839506,,,,,,,,,,,,,,,,,,,,,,,,,,,300,,,,,,,,,,,,,,,,,,,,,7,10,,,520.5839,2,up,0.1105,,0.5,0.3,"[3,1,2]",0.853478919,stimuli/card_100_transparent.png,100,2,0,2,0,1,,,,,,,,,,
,,,,5d30a692d6cd7d0001b359ff,A,2024-07-11_15h31.29.238,Slot Machine Game,2023.1.3,MacIntel,61.72839506,,,,,,,,,,,,,,,,,,,,,,,,,,,310,,,,,,,,,,,,,,,,,,,,,7,10,,,521.9474,3,up,0.8608,,1.5,0.3,"[3,1,2]",0.100583097,stimuli/card_10_transparent.png,10,3,0,3,0,1,,,,,,,,,,
,,,,5d30a692d6cd7d0001b359ff,A,2024-07-11_15h31.29.238,Slot Machine Game,2023.1.3,MacIntel,61.72839506,,,,,,,,,,,,,,,,,,,,,,,,,,,320,,,,,,,,,,,,,,,,,,,,,7,10,,,525.1272,4,right,0.6729,,1.5,0.3,"[3,1,2]",0.292123288,stimuli/card_10_transparent.png,10,4,0,4,0,1,,,,,,,,,,
,,,,5d30a692d6cd7d0001b359ff,A,2024-07-11_15h31.29.238,Slot Machine Game,2023.1.3,MacIntel,61.72839506,,,,,,,,,,,,,,,,,,,,,,,,,,,320,,,,,,,,,,,,,,,,,,,,,7,10,,,528.1247,5,left,0.9231,,1,0.3,"[3,1,2]",0.621643456,stimuli/card_0_transparent.png,0,5,0,5,0,1,,,,,,,,,,
,,,,5d30a692d6cd7d0001b359ff,A,2024-07-11_15h31.29.238,Slot Machine Game,2023.1.3,MacIntel,61.72839506,,,,,,,,,,,,,,,,,,,,,,,,,,,420,,,,,,,,,,,,,,,,,,,,,7,10,,,530.9197,6,up,0.6573,,1.5,0.3,"[3,1,2]",0.281612289,stimuli/card_100_transparent.png,100,6,0,6,0,1,,,,,,,,,,
,,,,5d30a692d6cd7d0001b359ff,A,2024-07-11_15h31.29.238,Slot Machine Game,2023.1.3,MacIntel,61.72839506,,,,,,,,,,,,,,,,,,,,,,,,,,,520,,,,,,,,,,,,,,,,,,,,,7,10,,,533.9668,7,up,0.1506,,1.5,0.3,"[3,1,2]",0.578519889,stimuli/card_100_transparent.png,100,7,0,7,0,1,,,,,,,,,,
,,,,5d30a692d6cd7d0001b359ff,A,2024-07-11_15h31.29.238,Slot Machine Game,2023.1.3,MacIntel,61.72839506,,,,,,,,,,,,,,,,,,,,,,,,,,,620,,,,,,,,,,,,,,,,,,,,,7,10,,,536.5215,8,up,0.05,,1.5,0.3,"[3,1,2]",0.543317395,stimuli/card_100_transparent.png,100,8,0,8,0,1,,,,,,,,,,
,,,,5d30a692d6cd7d0001b359ff,A,2024-07-11_15h31.29.238,Slot Machine Game,2023.1.3,MacIntel,61.72839506,,,,,,,,,,,,,,,,,,,,,,,,,,,720,,,,,,,,,,,,,,,,,,,,,7,10,,,538.9549,9,up,0.0122,,0.5,0.3,"[3,1,2]",0.651028872,stimuli/card_100_transparent.png,100,9,0,9,0,1,,,,,,,,,,
,,,,5d30a692d6cd7d0001b359ff,A,2024-07-11_15h31.29.238,Slot Machine Game,2023.1.3,MacIntel,61.72839506,,,,,,,,,,,,,,,,,,,,,,,,,,,720,,,,,,,,,,,,,,,,,,,,,7,10,,,540.2968,10,up,0.39,,1.5,0.3,"[1,3,2]",0.725216013,stimuli/card_0_transparent.png,0,10,0,10,0,1,,,,,,,,,,
,,,,5d30a692d6cd7d0001b359ff,A,2024-07-11_15h31.29.238,Slot Machine Game,2023.1.3,MacIntel,61.72839506,,,,,,,,,,,,,,,,,,,,,,,,,,,730,,,,,,,,,,,,,,,,,,,,,7,10,,,543.0167,11,right,0.3659,,0.5,0.3,"[1,3,2]",0.708583971,stimuli/card_10_transparent.png,10,11,0,11,0,1,,,,,,,,,,
,,,,5d30a692d6cd7d0001b359ff,A,2024-07-11_15h31.29.238,Slot Machine Game,2023.1.3,MacIntel,61.72839506,,,,,,,,,,,,,,,,,,,,,,,,,,,730,,,,,,,,,,,,,,,,,,,,,7,10,,,544.6673,12,up,0.7713,,1.5,0.3,"[1,3,2]",0.655965549,stimuli/card_0_transparent.png,0,12,0,12,0,1,,,,,,,,,,
,,,,5d30a692d6cd7d0001b359ff,A,2024-07-11_15h31.29.238,Slot Machine Game,2023.1.3,MacIntel,61.72839506,,,,,,,,,,,,,,,,,,,,,,,,,,,830,,,,,,,,,,,,,,,,,,,,,7,10,,,547.8078,13,left,0.0505,,0.5,0.3,"[1,3,2]",0.983282973,stimuli/card_100_transparent.png,100,13,0,13,0,1,,,,,,,,,,
,,,,5d30a692d6cd7d0001b359ff,A,2024-07-11_15h31.29.238,Slot Machine Game,2023.1.3,MacIntel,61.72839506,,,,,,,,,,,,,,,,,,,,,,,,,,,840,,,,,,,,,,,,,,,,,,,,,7,10,,,549.1608,14,left,0.1443,,1.5,0.3,"[1,3,2]",0.112809312,stimuli/card_10_transparent.png,10,14,0,14,0,1,,,,,,,,,,
,,,,5d30a692d6cd7d0001b359ff,A,2024-07-11_15h31.29.238,Slot Machine Game,2023.1.3,MacIntel,61.72839506,,,,,,,,,,,,,,,,,,,,,,,,,,,,,,,,,,,551.5656,,,,,,,,,,,,,,,,,,,,,,,,,,,,,,,,,"[1030,340,930,640,1020,830,840]",6,0,6,0,1,,,,
,,,,5d30a692d6cd7d0001b359ff,A,2024-07-11_15h31.29.238,Slot Machine Game,2023.1.3,MacIntel,61.72839506,,,,,,,,,,,,,,,,,,,,,,,,,,,0,,,,,,,,,,,,,,,,,,,,,8,7,"[9,15]","[[1,3,2],[2,3,1]]",556.572,0,up,0.4271,,1.5,0.3,"[1,3,2]",0.371801962,stimuli/card_0_transparent.png,0,0,0,0,0,1,,,,,,,,,,
,,,,5d30a692d6cd7d0001b359ff,A,2024-07-11_15h31.29.238,Slot Machine Game,2023.1.3,MacIntel,61.72839506,,,,,,,,,,,,,,,,,,,,,,,,,,,100,,,,,,,,,,,,,,,,,,,,,8,7,,,559.3551,1,left,0.0865,,1.5,0.3,"[1,3,2]",0.88415569,stimuli/card_100_transparent.png,100,1,0,1,0,1,,,,,,,,,,
,,,,5d30a692d6cd7d0001b359ff,A,2024-07-11_15h31.29.238,Slot Machine Game,2023.1.3,MacIntel,61.72839506,,,,,,,,,,,,,,,,,,,,,,,,,,,200,,,,,,,,,,,,,,,,,,,,,8,7,,,561.7484,2,left,0.0842,,1.5,0.3,"[1,3,2]",0.465766956,stimuli/card_100_transparent.png,100,2,0,2,0,1,,,,,,,,,,
,,,,5d30a692d6cd7d0001b359ff,A,2024-07-11_15h31.29.238,Slot Machine Game,2023.1.3,MacIntel,61.72839506,,,,,,,,,,,,,,,,,,,,,,,,,,,300,,,,,,,,,,,,,,,,,,,,,8,7,,,564.2273,3,left,0.7562,,1,0.3,"[1,3,2]",0.298768963,stimuli/card_100_transparent.png,100,3,0,3,0,1,,,,,,,,,,
,,,,5d30a692d6cd7d0001b359ff,A,2024-07-11_15h31.29.238,Slot Machine Game,2023.1.3,MacIntel,61.72839506,,,,,,,,,,,,,,,,,,,,,,,,,,,400,,,,,,,,,,,,,,,,,,,,,8,7,,,566.8444,4,left,0.3123,,1.5,0.3,"[1,3,2]",0.621276282,stimuli/card_100_transparent.png,100,4,0,4,0,1,,,,,,,,,,
,,,,5d30a692d6cd7d0001b359ff,A,2024-07-11_15h31.29.238,Slot Machine Game,2023.1.3,MacIntel,61.72839506,,,,,,,,,,,,,,,,,,,,,,,,,,,400,,,,,,,,,,,,,,,,,,,,,8,7,,,569.5173,5,left,0.2995,,1,0.3,"[1,3,2]",0.024642014,stimuli/card_0_transparent.png,0,5,0,5,0,1,,,,,,,,,,
,,,,5d30a692d6cd7d0001b359ff,A,2024-07-11_15h31.29.238,Slot Machine Game,2023.1.3,MacIntel,61.72839506,,,,,,,,,,,,,,,,,,,,,,,,,,,400,,,,,,,,,,,,,,,,,,,,,8,7,,,571.6711,6,right,0.0996,,0.5,0.3,"[1,3,2]",0.049354804,stimuli/card_0_transparent.png,0,6,0,6,0,1,,,,,,,,,,
,,,,5d30a692d6cd7d0001b359ff,A,2024-07-11_15h31.29.238,Slot Machine Game,2023.1.3,MacIntel,61.72839506,,,,,,,,,,,,,,,,,,,,,,,,,,,400,,,,,,,,,,,,,,,,,,,,,8,7,,,573.0711,7,up,0.1747,,1.5,0.3,"[1,3,2]",0.609305188,stimuli/card_0_transparent.png,0,7,0,7,0,1,,,,,,,,,,
,,,,5d30a692d6cd7d0001b359ff,A,2024-07-11_15h31.29.238,Slot Machine Game,2023.1.3,MacIntel,61.72839506,,,,,,,,,,,,,,,,,,,,,,,,,,,500,,,,,,,,,,,,,,,,,,,,,8,7,,,575.6049,8,left,0.5183,,1.5,0.3,"[1,3,2]",0.9331208,stimuli/card_100_transparent.png,100,8,0,8,0,1,,,,,,,,,,
,,,,5d30a692d6cd7d0001b359ff,A,2024-07-11_15h31.29.238,Slot Machine Game,2023.1.3,MacIntel,61.72839506,,,,,,,,,,,,,,,,,,,,,,,,,,,510,,,,,,,,,,,,,,,,,,,,,8,7,,,578.5193,9,left,0.0638,,1,0.3,"[2,3,1]",0.562669624,stimuli/card_10_transparent.png,10,9,0,9,0,1,,,,,,,,,,
,,,,5d30a692d6cd7d0001b359ff,A,2024-07-11_15h31.29.238,Slot Machine Game,2023.1.3,MacIntel,61.72839506,,,,,,,,,,,,,,,,,,,,,,,,,,,610,,,,,,,,,,,,,,,,,,,,,8,7,,,580.3849,10,right,0.6875,,1.5,0.3,"[2,3,1]",0.320124681,stimuli/card_100_transparent.png,100,10,0,10,0,1,,,,,,,,,,
,,,,5d30a692d6cd7d0001b359ff,A,2024-07-11_15h31.29.238,Slot Machine Game,2023.1.3,MacIntel,61.72839506,,,,,,,,,,,,,,,,,,,,,,,,,,,620,,,,,,,,,,,,,,,,,,,,,8,7,,,583.4603,11,right,0.2448,,1,0.3,"[2,3,1]",0.161587238,stimuli/card_10_transparent.png,10,11,0,11,0,1,,,,,,,,,,
,,,,5d30a692d6cd7d0001b359ff,A,2024-07-11_15h31.29.238,Slot Machine Game,2023.1.3,MacIntel,61.72839506,,,,,,,,,,,,,,,,,,,,,,,,,,,630,,,,,,,,,,,,,,,,,,,,,8,7,,,585.5163,12,left,0.0713,,1.5,0.3,"[2,3,1]",0.956168676,stimuli/card_10_transparent.png,10,12,0,12,0,1,,,,,,,,,,
,,,,5d30a692d6cd7d0001b359ff,A,2024-07-11_15h31.29.238,Slot Machine Game,2023.1.3,MacIntel,61.72839506,,,,,,,,,,,,,,,,,,,,,,,,,,,630,,,,,,,,,,,,,,,,,,,,,8,7,,,587.9544,13,up,0.3663,,1.5,0.3,"[2,3,1]",0.345390257,stimuli/card_0_transparent.png,0,13,0,13,0,1,,,,,,,,,,
,,,,5d30a692d6cd7d0001b359ff,A,2024-07-11_15h31.29.238,Slot Machine Game,2023.1.3,MacIntel,61.72839506,,,,,,,,,,,,,,,,,,,,,,,,,,,730,,,,,,,,,,,,,,,,,,,,,8,7,,,590.5994,14,right,0.1935,,1,0.3,"[2,3,1]",0.399366187,stimuli/card_100_transparent.png,100,14,0,14,0,1,,,,,,,,,,
,,,,5d30a692d6cd7d0001b359ff,A,2024-07-11_15h31.29.238,Slot Machine Game,2023.1.3,MacIntel,61.72839506,,,,,,,,,,,,,,,,,,,,,,,,,,,,,,,,,,,592.5903,,,,,,,,,,,,,,,,,,,,,,,,,,,,,,,,,"[1030,340,930,640,1020,830,840,730]",7,0,7,0,1,,,,
,,,,5d30a692d6cd7d0001b359ff,A,2024-07-11_15h31.29.238,Slot Machine Game,2023.1.3,MacIntel,61.72839506,,,,,,,,,,,,,,,,,,,,,,,,,,,0,,,,,,,,,,,,,,,,,,,,,9,9,[15],"[[3,1,2]]",597.6643,0,up,0.4202,,1.5,0.3,"[3,1,2]",0.088446589,stimuli/card_0_transparent.png,0,0,0,0,0,1,,,,,,,,,,
,,,,5d30a692d6cd7d0001b359ff,A,2024-07-11_15h31.29.238,Slot Machine Game,2023.1.3,MacIntel,61.72839506,,,,,,,,,,,,,,,,,,,,,,,,,,,10,,,,,,,,,,,,,,,,,,,,,9,9,,,600.4937,1,right,0.5918,,0.5,0.3,"[3,1,2]",0.98061286,stimuli/card_10_transparent.png,10,1,0,1,0,1,,,,,,,,,,
,,,,5d30a692d6cd7d0001b359ff,A,2024-07-11_15h31.29.238,Slot Machine Game,2023.1.3,MacIntel,61.72839506,,,,,,,,,,,,,,,,,,,,,,,,,,,110,,,,,,,,,,,,,,,,,,,,,9,9,,,602.4059,2,left,0.6977,,0.5,0.3,"[3,1,2]",0.037959567,stimuli/card_100_transparent.png,100,2,0,2,0,1,,,,,,,,,,
,,,,5d30a692d6cd7d0001b359ff,A,2024-07-11_15h31.29.238,Slot Machine Game,2023.1.3,MacIntel,61.72839506,,,,,,,,,,,,,,,,,,,,,,,,,,,110,,,,,,,,,,,,,,,,,,,,,9,9,,,604.4044,3,left,0.1054,,1,0.3,"[3,1,2]",0.86151248,stimuli/card_0_transparent.png,0,3,0,3,0,1,,,,,,,,,,
,,,,5d30a692d6cd7d0001b359ff,A,2024-07-11_15h31.29.238,Slot Machine Game,2023.1.3,MacIntel,61.72839506,,,,,,,,,,,,,,,,,,,,,,,,,,,110,,,,,,,,,,,,,,,,,,,,,9,9,,,606.3965,4,left,0.8466,,0.5,0.3,"[3,1,2]",0.292638878,stimuli/card_0_transparent.png,0,4,0,4,0,1,,,,,,,,,,
,,,,5d30a692d6cd7d0001b359ff,A,2024-07-11_15h31.29.238,Slot Machine Game,2023.1.3,MacIntel,61.72839506,,,,,,,,,,,,,,,,,,,,,,,,,,,110,,,,,,,,,,,,,,,,,,,,,9,9,,,608.5481,5,right,0.0005,,0.5,0.3,"[3,1,2]",0.017655495,stimuli/card_0_transparent.png,0,5,0,5,0,1,,,,,,,,,,
,,,,5d30a692d6cd7d0001b359ff,A,2024-07-11_15h31.29.238,Slot Machine Game,2023.1.3,MacIntel,61.72839506,,,,,,,,,,,,,,,,,,,,,,,,,,,120,,,,,,,,,,,,,,,,,,,,,9,9,,,609.8682,6,up,0.6342,,1.5,0.3,"[3,1,2]",0.105952482,stimuli/card_10_transparent.png,10,6,0,6,0,1,,,,,,,,,,
,,,,5d30a692d6cd7d0001b359ff,A,2024-07-11_15h31.29.238,Slot Machine Game,2023.1.3,MacIntel,61.72839506,,,,,,,,,,,,,,,,,,,,,,,,,,,220,,,,,,,,,,,,,,,,,,,,,9,9,,,612.8464,7,up,0.2201,,0.5,0.3,"[3,1,2]",0.814529524,stimuli/card_100_transparent.png,100,7,0,7,0,1,,,,,,,,,,
,,,,5d30a692d6cd7d0001b359ff,A,2024-07-11_15h31.29.238,Slot Machine Game,2023.1.3,MacIntel,61.72839506,,,,,,,,,,,,,,,,,,,,,,,,,,,220,,,,,,,,,,,,,,,,,,,,,9,9,,,614.3988,8,up,0.2519,,1,0.3,"[3,1,2]",0.064182196,stimuli/card_0_transparent.png,0,8,0,8,0,1,,,,,,,,,,
,,,,5d30a692d6cd7d0001b359ff,A,2024-07-11_15h31.29.238,Slot Machine Game,2023.1.3,MacIntel,61.72839506,,,,,,,,,,,,,,,,,,,,,,,,,,,220,,,,,,,,,,,,,,,,,,,,,9,9,,,616.4979,9,left,0.1644,,0.5,0.3,"[3,1,2]",0.457492024,stimuli/card_0_transparent.png,0,9,0,9,0,1,,,,,,,,,,
,,,,5d30a692d6cd7d0001b359ff,A,2024-07-11_15h31.29.238,Slot Machine Game,2023.1.3,MacIntel,61.72839506,,,,,,,,,,,,,,,,,,,,,,,,,,,230,,,,,,,,,,,,,,,,,,,,,9,9,,,618.015,10,right,0.0816,,1,0.3,"[3,1,2]",0.847825047,stimuli/card_10_transparent.png,10,10,0,10,0,1,,,,,,,,,,
,,,,5d30a692d6cd7d0001b359ff,A,2024-07-11_15h31.29.238,Slot Machine Game,2023.1.3,MacIntel,61.72839506,,,,,,,,,,,,,,,,,,,,,,,,,,,330,,,,,,,,,,,,,,,,,,,,,9,9,,,619.9542,11,up,0.2958,,1.5,0.3,"[3,1,2]",0.535684895,stimuli/card_100_transparent.png,100,11,0,11,0,1,,,,,,,,,,
,,,,5d30a692d6cd7d0001b359ff,A,2024-07-11_15h31.29.238,Slot Machine Game,2023.1.3,MacIntel,61.72839506,,,,,,,,,,,,,,,,,,,,,,,,,,,340,,,,,,,,,,,,,,,,,,,,,9,9,,,622.6038,12,up,0.1691,,1.5,0.3,"[3,1,2]",0.115274114,stimuli/card_10_transparent.png,10,12,0,12,0,1,,,,,,,,,,
,,,,5d30a692d6cd7d0001b359ff,A,2024-07-11_15h31.29.238,Slot Machine Game,2023.1.3,MacIntel,61.72839506,,,,,,,,,,,,,,,,,,,,,,,,,,,340,,,,,,,,,,,,,,,,,,,,,9,9,,,625.1978,13,left,0.013,,0.5,0.3,"[3,1,2]",0.238755598,stimuli/card_0_transparent.png,0,13,0,13,0,1,,,,,,,,,,
,,,,5d30a692d6cd7d0001b359ff,A,2024-07-11_15h31.29.238,Slot Machine Game,2023.1.3,MacIntel,61.72839506,,,,,,,,,,,,,,,,,,,,,,,,,,,350,,,,,,,,,,,,,,,,,,,,,9,9,,,626.5877,14,right,0.0916,,0.5,0.3,"[3,1,2]",0.553307767,stimuli/card_10_transparent.png,10,14,0,14,0,1,,,,,,,,,,
,,,,5d30a692d6cd7d0001b359ff,A,2024-07-11_15h31.29.238,Slot Machine Game,2023.1.3,MacIntel,61.72839506,,,,,,,,,,,,,,,,,,,,,,,,,,,,,,,,,,,627.9331,,,,,,,,,,,,,,,,,,,,,,,,,,,,,,,,,"[1030,340,930,640,1020,830,840,730,350]",8,0,8,0,1,,,,
,,,,5d30a692d6cd7d0001b359ff,A,2024-07-11_15h31.29.238,Slot Machine Game,2023.1.3,MacIntel,61.72839506,,,,,,,,,,,,,,,,,,,,,,,,,,,0,,,,,,,,,,,,,,,,,,,,,10,6,"[4,10,15]","[[2,3,1],[1,3,2],[3,2,1]]",632.9643,0,up,1.167,,0.5,0.3,"[2,3,1]",0.73241783,stimuli/card_0_transparent.png,0,0,0,0,0,1,,,,,,,,,,
,,,,5d30a692d6cd7d0001b359ff,A,2024-07-11_15h31.29.238,Slot Machine Game,2023.1.3,MacIntel,61.72839506,,,,,,,,,,,,,,,,,,,,,,,,,,,0,,,,,,,,,,,,,,,,,,,,,10,6,,,635.5369,1,left,0.05,,1,0.3,"[2,3,1]",0.014649773,stimuli/card_0_transparent.png,0,1,0,1,0,1,,,,,,,,,,
,,,,5d30a692d6cd7d0001b359ff,A,2024-07-11_15h31.29.238,Slot Machine Game,2023.1.3,MacIntel,61.72839506,,,,,,,,,,,,,,,,,,,,,,,,,,,10,,,,,,,,,,,,,,,,,,,,,10,6,,,637.4536,2,left,0.212,,1,0.3,"[2,3,1]",0.52515447,stimuli/card_10_transparent.png,10,2,0,2,0,1,,,,,,,,,,
,,,,5d30a692d6cd7d0001b359ff,A,2024-07-11_15h31.29.238,Slot Machine Game,2023.1.3,MacIntel,61.72839506,,,,,,,,,,,,,,,,,,,,,,,,,,,20,,,,,,,,,,,,,,,,,,,,,10,6,,,639.5368,3,right,0.0839,,1.5,0.3,"[2,3,1]",0.175171554,stimuli/card_10_transparent.png,10,3,0,3,0,1,,,,,,,,,,
,,,,5d30a692d6cd7d0001b359ff,A,2024-07-11_15h31.29.238,Slot Machine Game,2023.1.3,MacIntel,61.72839506,,,,,,,,,,,,,,,,,,,,,,,,,,,20,,,,,,,,,,,,,,,,,,,,,10,6,,,641.993,4,up,0.0608,,1.5,0.3,"[1,3,2]",0.536272176,stimuli/card_0_transparent.png,0,4,0,4,0,1,,,,,,,,,,
,,,,5d30a692d6cd7d0001b359ff,A,2024-07-11_15h31.29.238,Slot Machine Game,2023.1.3,MacIntel,61.72839506,,,,,,,,,,,,,,,,,,,,,,,,,,,20,,,,,,,,,,,,,,,,,,,,,10,6,,,644.4134,5,up,0.1941,,1.5,0.3,"[1,3,2]",0.575211365,stimuli/card_0_transparent.png,0,5,0,5,0,1,,,,,,,,,,
,,,,5d30a692d6cd7d0001b359ff,A,2024-07-11_15h31.29.238,Slot Machine Game,2023.1.3,MacIntel,61.72839506,,,,,,,,,,,,,,,,,,,,,,,,,,,120,,,,,,,,,,,,,,,,,,,,,10,6,,,646.9396,6,left,0.6501,,1.5,0.3,"[1,3,2]",0.942041373,stimuli/card_100_transparent.png,100,6,0,6,0,1,,,,,,,,,,
,,,,5d30a692d6cd7d0001b359ff,A,2024-07-11_15h31.29.238,Slot Machine Game,2023.1.3,MacIntel,61.72839506,,,,,,,,,,,,,,,,,,,,,,,,,,,220,,,,,,,,,,,,,,,,,,,,,10,6,,,649.9762,7,left,0.2039,,0.5,0.3,"[1,3,2]",0.41727135,stimuli/card_100_transparent.png,100,7,0,7,0,1,,,,,,,,,,
,,,,5d30a692d6cd7d0001b359ff,A,2024-07-11_15h31.29.238,Slot Machine Game,2023.1.3,MacIntel,61.72839506,,,,,,,,,,,,,,,,,,,,,,,,,,,320,,,,,,,,,,,,,,,,,,,,,10,6,,,651.5323,8,left,0.0263,,1,0.3,"[1,3,2]",0.273678504,stimuli/card_100_transparent.png,100,8,0,8,0,1,,,,,,,,,,
,,,,5d30a692d6cd7d0001b359ff,A,2024-07-11_15h31.29.238,Slot Machine Game,2023.1.3,MacIntel,61.72839506,,,,,,,,,,,,,,,,,,,,,,,,,,,420,,,,,,,,,,,,,,,,,,,,,10,6,,,653.5138,9,left,0.0338,,1.5,0.3,"[1,3,2]",0.436392487,stimuli/card_100_transparent.png,100,9,0,9,0,1,,,,,,,,,,
,,,,5d30a692d6cd7d0001b359ff,A,2024-07-11_15h31.29.238,Slot Machine Game,2023.1.3,MacIntel,61.72839506,,,,,,,,,,,,,,,,,,,,,,,,,,,420,,,,,,,,,,,,,,,,,,,,,10,6,,,655.8162,10,left,0.0593,,1.5,0.3,"[3,2,1]",0.626525785,stimuli/card_0_transparent.png,0,10,0,10,0,1,,,,,,,,,,
,,,,5d30a692d6cd7d0001b359ff,A,2024-07-11_15h31.29.238,Slot Machine Game,2023.1.3,MacIntel,61.72839506,,,,,,,,,,,,,,,,,,,,,,,,,,,520,,,,,,,,,,,,,,,,,,,,,10,6,,,658.199,11,right,0.3718,,0.5,0.3,"[3,2,1]",0.771895461,stimuli/card_100_transparent.png,100,11,0,11,0,1,,,,,,,,,,
,,,,5d30a692d6cd7d0001b359ff,A,2024-07-11_15h31.29.238,Slot Machine Game,2023.1.3,MacIntel,61.72839506,,,,,,,,,,,,,,,,,,,,,,,,,,,620,,,,,,,,,,,,,,,,,,,,,10,6,,,659.9643,12,right,0.0844,,1.5,0.3,"[3,2,1]",0.927172641,stimuli/card_100_transparent.png,100,12,0,12,0,1,,,,,,,,,,
,,,,5d30a692d6cd7d0001b359ff,A,2024-07-11_15h31.29.238,Slot Machine Game,2023.1.3,MacIntel,61.72839506,,,,,,,,,,,,,,,,,,,,,,,,,,,720,,,,,,,,,,,,,,,,,,,,,10,6,,,662.4055,13,right,0.0716,,1.5,0.3,"[3,2,1]",0.41780798,stimuli/card_100_transparent.png,100,13,0,13,0,1,,,,,,,,,,
,,,,5d30a692d6cd7d0001b359ff,A,2024-07-11_15h31.29.238,Slot Machine Game,2023.1.3,MacIntel,61.72839506,,,,,,,,,,,,,,,,,,,,,,,,,,,820,,,,,,,,,,,,,,,,,,,,,10,6,,,664.7825,14,right,0.0006,,1.5,0.3,"[3,2,1]",0.46538186,stimuli/card_100_transparent.png,100,14,0,14,0,1,,,,,,,,,,
,,,,5d30a692d6cd7d0001b359ff,A,2024-07-11_15h31.29.238,Slot Machine Game,2023.1.3,MacIntel,61.72839506,,,,,,,,,,,,,,,,,,,,,,,,,,,,,,,,,,,667.1401,,,,,,,,,,,,,,,,,,,,,,,,,,,,,,,,,"[1030,340,930,640,1020,830,840,730,350,820]",9,0,9,0,1,,,,
,,,,5d30a692d6cd7d0001b359ff,A,2024-07-11_15h31.29.238,Slot Machine Game,2023.1.3,MacIntel,61.72839506,,,,,,,,,,,,,,,,,,,,,,,,,,,,,,,,,,,,,,,,,,,,,,,,,,,,,,,,,,,,,,,,,,,,,,,,,,9,"[1030,340,930,640,1020,830,840,730,350,820]",3.4,2024-07-11_15h42.45.499
