key_resp_welcome_started,key_resp_welcome_keys,key_resp_welcome_rt,key_resp_welcome_duration,prolific_id,path_id,date,expName,psychopyVersion,OS,frameRate,key_resp_instruction1_started,key_resp_instruction1_keys,key_resp_instruction1_rt,key_resp_instruction1_duration,key_resp_instruction2_started,key_resp_instruction2_keys,key_resp_instruction2_rt,key_resp_instruction2_duration,key_resp_instruction3_started,key_resp_instruction3_keys,key_resp_instruction3_rt,key_resp_instruction3_duration,key_resp_instruction4_started,key_resp_instruction4_keys,key_resp_instruction4_rt,key_resp_instruction4_duration,practiceCondition,practice_reward_seqs,practice_trial_started,practice_trial_num,practice_resp_rt,practice_resp_duration,practice_resp_keys,prac_presentationInterval,"practice_reward_seq: 2,1,3",reward_img,cumulative_reward,trial_reward,practice_trials.thisRepN,practice_trials.thisTrialN,practice_trials.thisN,practice_trials.thisIndex,practice_trials.ran,"practice_reward_seq: 2,3,1",block_break_started,"practice_reward_seq: 1,3,2","practice_reward_seq: 3,1,2",practice_end_time,practice_end_keys,practice_end_rt,practice_end_duration,main_instruction_text_started,block_condition,block_order_indices,main_instruction_keys,main_instruction_rt,main_instruction_duration,block_number,block_assignment,current_condition,main_reward_seqs,main_trial_started,main_trial_num,main_trial_keys,main_trial_rt,main_trial_duration,main_presentationInterval,reward_presentation_time,main_reward_seq,reward_rand_val,main_reward_img,current_reward,main_trials.thisRepN,main_trials.thisTrialN,main_trials.thisN,main_trials.thisIndex,main_trials.ran,block_reward,block.thisRepN,block.thisTrialN,block.thisN,block.thisIndex,block.ran,block_reward.length,block_reward_all,reward_amount,date_end_task
0.001,space,2.3009,,5dd984381096ea907a3272f2,B,2024-06-22_18h45.18.048,Slot Machine Game,2023.1.3,MacIntel,58.13953488,,,,,,,,,,,,,,,,,,,,,,,,,,,,,,,,,,,,,,,,,,,,,,,,,,,,,,,,,,,,,,,,,,,,,,,,,,,,,
,,,,5dd984381096ea907a3272f2,B,2024-06-22_18h45.18.048,Slot Machine Game,2023.1.3,MacIntel,58.13953488,2.3234,space,8.804,,,,,,,,,,,,,,,,,,,,,,,,,,,,,,,,,,,,,,,,,,,,,,,,,,,,,,,,,,,,,,,,,,,,,,,,,,
,,,,5dd984381096ea907a3272f2,B,2024-06-22_18h45.18.048,Slot Machine Game,2023.1.3,MacIntel,58.13953488,,,,,11.1518,space,38.7376,,,,,,,,,,,,,,,,,,,,,,,,,,,,,,,,,,,,,,,,,,,,,,,,,,,,,,,,,,,,,,,,,,,,,,
,,,,5dd984381096ea907a3272f2,B,2024-06-22_18h45.18.048,Slot Machine Game,2023.1.3,MacIntel,58.13953488,,,,,,,,,49.9254,space,7.9713,,,,,,,,,,,,,,,,,,,,,,,,,,,,,,,,,,,,,,,,,,,,,,,,,,,,,,,,,,,,,,,,,,
,,,,5dd984381096ea907a3272f2,B,2024-06-22_18h45.18.048,Slot Machine Game,2023.1.3,MacIntel,58.13953488,,,,,,,,,,,,,,,,,,,,,,,,,,,,,,,,,,,,,,,,,,,,,,,,,,,,,,,,,,,,,,,,,,,,,,,,,,,,,
,,,,5dd984381096ea907a3272f2,B,2024-06-22_18h45.18.048,Slot Machine Game,2023.1.3,MacIntel,58.13953488,,,,,,,,,,,,,199.7273,space,3.761,,,,,,,,,,,,,,,,,,,,,,,,,,,,,,,,,,,,,,,,,,,,,,,,,,,,,,,,,,,,,,
,,,,5dd984381096ea907a3272f2,B,2024-06-22_18h45.18.048,Slot Machine Game,2023.1.3,MacIntel,58.13953488,,,,,,,,,,,,,,,,,"[9,15]","[[2,1,3],[2,3,1]]",203.5107,0,0.5614,,left,0.5,,stimuli/card_10_transparent.png,10,10,0,0,0,0,1,,,,,,,,,,,,,,,,,,,,,,,,,,,,,,,,,,,,,,,,,,,,
,,,,5dd984381096ea907a3272f2,B,2024-06-22_18h45.18.048,Slot Machine Game,2023.1.3,MacIntel,58.13953488,,,,,,,,,,,,,,,,,,,205.4049,1,0.2326,,left,0.5,,stimuli/card_10_transparent.png,20,10,1,0,1,0,1,,,,,,,,,,,,,,,,,,,,,,,,,,,,,,,,,,,,,,,,,,,,
,,,,5dd984381096ea907a3272f2,B,2024-06-22_18h45.18.048,Slot Machine Game,2023.1.3,MacIntel,58.13953488,,,,,,,,,,,,,,,,,,,206.9544,2,0.2357,,left,1.5,,stimuli/card_100_transparent.png,120,100,2,0,2,0,1,,,,,,,,,,,,,,,,,,,,,,,,,,,,,,,,,,,,,,,,,,,,
,,,,5dd984381096ea907a3272f2,B,2024-06-22_18h45.18.048,Slot Machine Game,2023.1.3,MacIntel,58.13953488,,,,,,,,,,,,,,,,,,,209.5194,3,0.4497,,left,1,,stimuli/card_10_transparent.png,130,10,3,0,3,0,1,,,,,,,,,,,,,,,,,,,,,,,,,,,,,,,,,,,,,,,,,,,,
,,,,5dd984381096ea907a3272f2,B,2024-06-22_18h45.18.048,Slot Machine Game,2023.1.3,MacIntel,58.13953488,,,,,,,,,,,,,,,,,,,211.8007,4,0.1042,,left,1.5,,stimuli/card_10_transparent.png,140,10,4,0,4,0,1,,,,,,,,,,,,,,,,,,,,,,,,,,,,,,,,,,,,,,,,,,,,
,,,,5dd984381096ea907a3272f2,B,2024-06-22_18h45.18.048,Slot Machine Game,2023.1.3,MacIntel,58.13953488,,,,,,,,,,,,,,,,,,,214.2333,5,1.2616,,up,1.5,,stimuli/card_10_transparent.png,150,10,5,0,5,0,1,,,,,,,,,,,,,,,,,,,,,,,,,,,,,,,,,,,,,,,,,,,,
,,,,5dd984381096ea907a3272f2,B,2024-06-22_18h45.18.048,Slot Machine Game,2023.1.3,MacIntel,58.13953488,,,,,,,,,,,,,,,,,,,217.8309,6,0.6479,,right,1.5,,stimuli/card_0_transparent.png,150,0,6,0,6,0,1,,,,,,,,,,,,,,,,,,,,,,,,,,,,,,,,,,,,,,,,,,,,
,,,,5dd984381096ea907a3272f2,B,2024-06-22_18h45.18.048,Slot Machine Game,2023.1.3,MacIntel,58.13953488,,,,,,,,,,,,,,,,,,,220.8121,7,0.0232,,right,1.5,,stimuli/card_100_transparent.png,250,100,7,0,7,0,1,,,,,,,,,,,,,,,,,,,,,,,,,,,,,,,,,,,,,,,,,,,,
,,,,5dd984381096ea907a3272f2,B,2024-06-22_18h45.18.048,Slot Machine Game,2023.1.3,MacIntel,58.13953488,,,,,,,,,,,,,,,,,,,223.1597,8,0.1858,,right,1,,stimuli/card_0_transparent.png,250,0,8,0,8,0,1,,,,,,,,,,,,,,,,,,,,,,,,,,,,,,,,,,,,,,,,,,,,
,,,,5dd984381096ea907a3272f2,B,2024-06-22_18h45.18.048,Slot Machine Game,2023.1.3,MacIntel,58.13953488,,,,,,,,,,,,,,,,,,,225.1755,9,1.5559,,right,1,,stimuli/card_100_transparent.png,350,100,9,0,9,0,1,,,,,,,,,,,,,,,,,,,,,,,,,,,,,,,,,,,,,,,,,,,,
,,,,5dd984381096ea907a3272f2,B,2024-06-22_18h45.18.048,Slot Machine Game,2023.1.3,MacIntel,58.13953488,,,,,,,,,,,,,,,,,,,228.5564,10,0.3367,,right,1,,stimuli/card_100_transparent.png,450,100,10,0,10,0,1,,,,,,,,,,,,,,,,,,,,,,,,,,,,,,,,,,,,,,,,,,,,
,,,,5dd984381096ea907a3272f2,B,2024-06-22_18h45.18.048,Slot Machine Game,2023.1.3,MacIntel,58.13953488,,,,,,,,,,,,,,,,,,,230.7223,11,0.1024,,right,0.5,,stimuli/card_10_transparent.png,460,10,11,0,11,0,1,,,,,,,,,,,,,,,,,,,,,,,,,,,,,,,,,,,,,,,,,,,,
,,,,5dd984381096ea907a3272f2,B,2024-06-22_18h45.18.048,Slot Machine Game,2023.1.3,MacIntel,58.13953488,,,,,,,,,,,,,,,,,,,232.1538,12,0.5675,,right,1.5,,stimuli/card_0_transparent.png,460,0,12,0,12,0,1,,,,,,,,,,,,,,,,,,,,,,,,,,,,,,,,,,,,,,,,,,,,
,,,,5dd984381096ea907a3272f2,B,2024-06-22_18h45.18.048,Slot Machine Game,2023.1.3,MacIntel,58.13953488,,,,,,,,,,,,,,,,,,,235.0523,13,0.2929,,up,1,,stimuli/card_100_transparent.png,560,100,13,0,13,0,1,,,,,,,,,,,,,,,,,,,,,,,,,,,,,,,,,,,,,,,,,,,,
,,,,5dd984381096ea907a3272f2,B,2024-06-22_18h45.18.048,Slot Machine Game,2023.1.3,MacIntel,58.13953488,,,,,,,,,,,,,,,,,,,237.167,14,0.14,,up,0.5,,stimuli/card_0_transparent.png,560,0,14,0,14,0,1,,,,,,,,,,,,,,,,,,,,,,,,,,,,,,,,,,,,,,,,,,,,
,,,,5dd984381096ea907a3272f2,B,2024-06-22_18h45.18.048,Slot Machine Game,2023.1.3,MacIntel,58.13953488,,,,,,,,,,,,,,,,,"[6,15]","[[1,3,2],[3,1,2]]",243.6493,0,0.5044,,left,1.5,,stimuli/card_100_transparent.png,100,100,0,0,0,0,1,,238.6363,,,,,,,,,,,,,,,,,,,,,,,,,,,,,,,,,,,,,,,,,,
,,,,5dd984381096ea907a3272f2,B,2024-06-22_18h45.18.048,Slot Machine Game,2023.1.3,MacIntel,58.13953488,,,,,,,,,,,,,,,,,,,246.4784,1,0.0504,,left,1,,stimuli/card_100_transparent.png,200,100,1,0,1,0,1,,,,,,,,,,,,,,,,,,,,,,,,,,,,,,,,,,,,,,,,,,,,
,,,,5dd984381096ea907a3272f2,B,2024-06-22_18h45.18.048,Slot Machine Game,2023.1.3,MacIntel,58.13953488,,,,,,,,,,,,,,,,,,,248.36,2,0.5556,,left,0.5,,stimuli/card_100_transparent.png,300,100,2,0,2,0,1,,,,,,,,,,,,,,,,,,,,,,,,,,,,,,,,,,,,,,,,,,,,
,,,,5dd984381096ea907a3272f2,B,2024-06-22_18h45.18.048,Slot Machine Game,2023.1.3,MacIntel,58.13953488,,,,,,,,,,,,,,,,,,,250.2259,3,0.3508,,left,0.5,,stimuli/card_100_transparent.png,400,100,3,0,3,0,1,,,,,,,,,,,,,,,,,,,,,,,,,,,,,,,,,,,,,,,,,,,,
,,,,5dd984381096ea907a3272f2,B,2024-06-22_18h45.18.048,Slot Machine Game,2023.1.3,MacIntel,58.13953488,,,,,,,,,,,,,,,,,,,251.908,4,0.1507,,left,0.5,,stimuli/card_100_transparent.png,500,100,4,0,4,0,1,,,,,,,,,,,,,,,,,,,,,,,,,,,,,,,,,,,,,,,,,,,,
,,,,5dd984381096ea907a3272f2,B,2024-06-22_18h45.18.048,Slot Machine Game,2023.1.3,MacIntel,58.13953488,,,,,,,,,,,,,,,,,,,253.3896,5,0.3345,,left,1,,stimuli/card_100_transparent.png,600,100,5,0,5,0,1,,,,,,,,,,,,,,,,,,,,,,,,,,,,,,,,,,,,,,,,,,,,
,,,,5dd984381096ea907a3272f2,B,2024-06-22_18h45.18.048,Slot Machine Game,2023.1.3,MacIntel,58.13953488,,,,,,,,,,,,,,,,,,,255.5382,6,0.1007,,left,1,,stimuli/card_10_transparent.png,610,10,6,0,6,0,1,,,,,,,,,,,,,,,,,,,,,,,,,,,,,,,,,,,,,,,,,,,,
,,,,5dd984381096ea907a3272f2,B,2024-06-22_18h45.18.048,Slot Machine Game,2023.1.3,MacIntel,58.13953488,,,,,,,,,,,,,,,,,,,257.4537,7,0.3827,,left,1,,stimuli/card_0_transparent.png,610,0,7,0,7,0,1,,,,,,,,,,,,,,,,,,,,,,,,,,,,,,,,,,,,,,,,,,,,
,,,,5dd984381096ea907a3272f2,B,2024-06-22_18h45.18.048,Slot Machine Game,2023.1.3,MacIntel,58.13953488,,,,,,,,,,,,,,,,,,,259.6687,8,0.1497,,up,1,,stimuli/card_100_transparent.png,710,100,8,0,8,0,1,,,,,,,,,,,,,,,,,,,,,,,,,,,,,,,,,,,,,,,,,,,,
,,,,5dd984381096ea907a3272f2,B,2024-06-22_18h45.18.048,Slot Machine Game,2023.1.3,MacIntel,58.13953488,,,,,,,,,,,,,,,,,,,261.635,9,0.3872,,up,1.5,,stimuli/card_100_transparent.png,810,100,9,0,9,0,1,,,,,,,,,,,,,,,,,,,,,,,,,,,,,,,,,,,,,,,,,,,,
,,,,5dd984381096ea907a3272f2,B,2024-06-22_18h45.18.048,Slot Machine Game,2023.1.3,MacIntel,58.13953488,,,,,,,,,,,,,,,,,,,264.3492,10,0.035,,up,1,,stimuli/card_100_transparent.png,910,100,10,0,10,0,1,,,,,,,,,,,,,,,,,,,,,,,,,,,,,,,,,,,,,,,,,,,,
,,,,5dd984381096ea907a3272f2,B,2024-06-22_18h45.18.048,Slot Machine Game,2023.1.3,MacIntel,58.13953488,,,,,,,,,,,,,,,,,,,266.2143,11,0.0345,,up,1,,stimuli/card_100_transparent.png,1010,100,11,0,11,0,1,,,,,,,,,,,,,,,,,,,,,,,,,,,,,,,,,,,,,,,,,,,,
,,,,5dd984381096ea907a3272f2,B,2024-06-22_18h45.18.048,Slot Machine Game,2023.1.3,MacIntel,58.13953488,,,,,,,,,,,,,,,,,,,268.0632,12,0.2518,,up,0.5,,stimuli/card_100_transparent.png,1110,100,12,0,12,0,1,,,,,,,,,,,,,,,,,,,,,,,,,,,,,,,,,,,,,,,,,,,,
,,,,5dd984381096ea907a3272f2,B,2024-06-22_18h45.18.048,Slot Machine Game,2023.1.3,MacIntel,58.13953488,,,,,,,,,,,,,,,,,,,269.6454,13,0.2016,,up,0.5,,stimuli/card_100_transparent.png,1210,100,13,0,13,0,1,,,,,,,,,,,,,,,,,,,,,,,,,,,,,,,,,,,,,,,,,,,,
,,,,5dd984381096ea907a3272f2,B,2024-06-22_18h45.18.048,Slot Machine Game,2023.1.3,MacIntel,58.13953488,,,,,,,,,,,,,,,,,,,271.1786,14,0.252,,up,1.5,,stimuli/card_100_transparent.png,1310,100,14,0,14,0,1,,,,,,,,,,,,,,,,,,,,,,,,,,,,,,,,,,,,,,,,,,,,
,,,,5dd984381096ea907a3272f2,B,2024-06-22_18h45.18.048,Slot Machine Game,2023.1.3,MacIntel,58.13953488,,,,,,,,,,,,,,,,,,,,,,,,,,,,,,,,,,,273.7603,,,278.7579,space,2.3583,,,,,,,,,,,,,,,,,,,,,,,,,,,,,,,,,,,,,
,,,,5dd984381096ea907a3272f2,B,2024-06-22_18h45.18.048,Slot Machine Game,2023.1.3,MacIntel,58.13953488,,,,,,,,,,,,,,,,,,,,,,,,,,,,,,,,,,,,,,,,,,281.1394,1,"[0,1,2,3,4,5,6,7,8,9]",space,1.9124,,,,,,,,,,,,,,,,,,,,,,,,,,,,,,,
,,,,5dd984381096ea907a3272f2,B,2024-06-22_18h45.18.048,Slot Machine Game,2023.1.3,MacIntel,58.13953488,,,,,,,,,,,,,,,,,,,,,,,,,,,10,,,,,,,,,,,,,,,,,,,,,1,1,"[12,15]","[[2,1,3],[2,3,1]]",283.0883,0,left,0.0173,,1.5,0.3,"[2,1,3]",0.887619097,stimuli/card_10_transparent.png,10,0,0,0,0,1,,,,,,,,,,
,,,,5dd984381096ea907a3272f2,B,2024-06-22_18h45.18.048,Slot Machine Game,2023.1.3,MacIntel,58.13953488,,,,,,,,,,,,,,,,,,,,,,,,,,,10,,,,,,,,,,,,,,,,,,,,,1,1,,,285.4362,1,left,0.2343,,1.5,0.3,"[2,1,3]",0.062274796,stimuli/card_0_transparent.png,0,1,0,1,0,1,,,,,,,,,,
,,,,5dd984381096ea907a3272f2,B,2024-06-22_18h45.18.048,Slot Machine Game,2023.1.3,MacIntel,58.13953488,,,,,,,,,,,,,,,,,,,,,,,,,,,110,,,,,,,,,,,,,,,,,,,,,1,1,,,288.0002,2,up,0.6494,,1.5,0.3,"[2,1,3]",0.319540731,stimuli/card_100_transparent.png,100,2,0,2,0,1,,,,,,,,,,
,,,,5dd984381096ea907a3272f2,B,2024-06-22_18h45.18.048,Slot Machine Game,2023.1.3,MacIntel,58.13953488,,,,,,,,,,,,,,,,,,,,,,,,,,,210,,,,,,,,,,,,,,,,,,,,,1,1,,,290.9817,3,up,0.1705,,1,0.3,"[2,1,3]",0.568646002,stimuli/card_100_transparent.png,100,3,0,3,0,1,,,,,,,,,,
,,,,5dd984381096ea907a3272f2,B,2024-06-22_18h45.18.048,Slot Machine Game,2023.1.3,MacIntel,58.13953488,,,,,,,,,,,,,,,,,,,,,,,,,,,310,,,,,,,,,,,,,,,,,,,,,1,1,,,292.981,4,up,0.0022,,0.5,0.3,"[2,1,3]",0.73247185,stimuli/card_100_transparent.png,100,4,0,4,0,1,,,,,,,,,,
,,,,5dd984381096ea907a3272f2,B,2024-06-22_18h45.18.048,Slot Machine Game,2023.1.3,MacIntel,58.13953488,,,,,,,,,,,,,,,,,,,,,,,,,,,410,,,,,,,,,,,,,,,,,,,,,1,1,,,294.3135,5,up,0.219,,1.5,0.3,"[2,1,3]",0.401740722,stimuli/card_100_transparent.png,100,5,0,5,0,1,,,,,,,,,,
,,,,5dd984381096ea907a3272f2,B,2024-06-22_18h45.18.048,Slot Machine Game,2023.1.3,MacIntel,58.13953488,,,,,,,,,,,,,,,,,,,,,,,,,,,510,,,,,,,,,,,,,,,,,,,,,1,1,,,296.862,6,up,0.3022,,1,0.3,"[2,1,3]",0.308735566,stimuli/card_100_transparent.png,100,6,0,6,0,1,,,,,,,,,,
,,,,5dd984381096ea907a3272f2,B,2024-06-22_18h45.18.048,Slot Machine Game,2023.1.3,MacIntel,58.13953488,,,,,,,,,,,,,,,,,,,,,,,,,,,610,,,,,,,,,,,,,,,,,,,,,1,1,,,298.9933,7,up,0.2811,,1,0.3,"[2,1,3]",0.97370818,stimuli/card_100_transparent.png,100,7,0,7,0,1,,,,,,,,,,
,,,,5dd984381096ea907a3272f2,B,2024-06-22_18h45.18.048,Slot Machine Game,2023.1.3,MacIntel,58.13953488,,,,,,,,,,,,,,,,,,,,,,,,,,,710,,,,,,,,,,,,,,,,,,,,,1,1,,,301.1084,8,up,0.0244,,1.5,0.3,"[2,1,3]",0.347941428,stimuli/card_100_transparent.png,100,8,0,8,0,1,,,,,,,,,,
,,,,5dd984381096ea907a3272f2,B,2024-06-22_18h45.18.048,Slot Machine Game,2023.1.3,MacIntel,58.13953488,,,,,,,,,,,,,,,,,,,,,,,,,,,810,,,,,,,,,,,,,,,,,,,,,1,1,,,303.4397,9,up,0.1169,,0.5,0.3,"[2,1,3]",0.501693956,stimuli/card_100_transparent.png,100,9,0,9,0,1,,,,,,,,,,
,,,,5dd984381096ea907a3272f2,B,2024-06-22_18h45.18.048,Slot Machine Game,2023.1.3,MacIntel,58.13953488,,,,,,,,,,,,,,,,,,,,,,,,,,,910,,,,,,,,,,,,,,,,,,,,,1,1,,,304.873,10,up,0.0005,,1.5,0.3,"[2,1,3]",0.92849011,stimuli/card_100_transparent.png,100,10,0,10,0,1,,,,,,,,,,
,,,,5dd984381096ea907a3272f2,B,2024-06-22_18h45.18.048,Slot Machine Game,2023.1.3,MacIntel,58.13953488,,,,,,,,,,,,,,,,,,,,,,,,,,,910,,,,,,,,,,,,,,,,,,,,,1,1,,,307.2048,11,up,0.2746,,1.5,0.3,"[2,1,3]",0.098758603,stimuli/card_0_transparent.png,0,11,0,11,0,1,,,,,,,,,,
,,,,5dd984381096ea907a3272f2,B,2024-06-22_18h45.18.048,Slot Machine Game,2023.1.3,MacIntel,58.13953488,,,,,,,,,,,,,,,,,,,,,,,,,,,910,,,,,,,,,,,,,,,,,,,,,1,1,,,309.8027,12,up,0.6351,,1.5,0.3,"[2,3,1]",0.529653004,stimuli/card_0_transparent.png,0,12,0,12,0,1,,,,,,,,,,
,,,,5dd984381096ea907a3272f2,B,2024-06-22_18h45.18.048,Slot Machine Game,2023.1.3,MacIntel,58.13953488,,,,,,,,,,,,,,,,,,,,,,,,,,,1010,,,,,,,,,,,,,,,,,,,,,1,1,,,312.7674,13,right,0.2333,,1,0.3,"[2,3,1]",0.918081284,stimuli/card_100_transparent.png,100,13,0,13,0,1,,,,,,,,,,
,,,,5dd984381096ea907a3272f2,B,2024-06-22_18h45.18.048,Slot Machine Game,2023.1.3,MacIntel,58.13953488,,,,,,,,,,,,,,,,,,,,,,,,,,,1110,,,,,,,,,,,,,,,,,,,,,1,1,,,314.8164,14,right,0.0679,,0.5,0.3,"[2,3,1]",0.765046009,stimuli/card_100_transparent.png,100,14,0,14,0,1,,,,,,,,,,
,,,,5dd984381096ea907a3272f2,B,2024-06-22_18h45.18.048,Slot Machine Game,2023.1.3,MacIntel,58.13953488,,,,,,,,,,,,,,,,,,,,,,,,,,,,,,,,,,,316.2179,,,,,,,,,,,,,,,,,,,,,,,,,,,,,,,,,[1110],0,0,0,0,1,,,,
,,,,5dd984381096ea907a3272f2,B,2024-06-22_18h45.18.048,Slot Machine Game,2023.1.3,MacIntel,58.13953488,,,,,,,,,,,,,,,,,,,,,,,,,,,100,,,,,,,,,,,,,,,,,,,,,2,2,"[6,15]","[[1,3,2],[3,2,1]]",321.2327,0,left,0.3987,,1,0.3,"[1,3,2]",0.631953608,stimuli/card_100_transparent.png,100,0,0,0,0,1,,,,,,,,,,
,,,,5dd984381096ea907a3272f2,B,2024-06-22_18h45.18.048,Slot Machine Game,2023.1.3,MacIntel,58.13953488,,,,,,,,,,,,,,,,,,,,,,,,,,,200,,,,,,,,,,,,,,,,,,,,,2,2,,,323.4608,1,left,0.0178,,0.5,0.3,"[1,3,2]",0.910224595,stimuli/card_100_transparent.png,100,1,0,1,0,1,,,,,,,,,,
,,,,5dd984381096ea907a3272f2,B,2024-06-22_18h45.18.048,Slot Machine Game,2023.1.3,MacIntel,58.13953488,,,,,,,,,,,,,,,,,,,,,,,,,,,200,,,,,,,,,,,,,,,,,,,,,2,2,,,324.8095,2,left,0.2829,,1,0.3,"[1,3,2]",0.048614455,stimuli/card_0_transparent.png,0,2,0,2,0,1,,,,,,,,,,
,,,,5dd984381096ea907a3272f2,B,2024-06-22_18h45.18.048,Slot Machine Game,2023.1.3,MacIntel,58.13953488,,,,,,,,,,,,,,,,,,,,,,,,,,,300,,,,,,,,,,,,,,,,,,,,,2,2,,,326.9245,3,left,0.3248,,1.5,0.3,"[1,3,2]",0.609723011,stimuli/card_100_transparent.png,100,3,0,3,0,1,,,,,,,,,,
,,,,5dd984381096ea907a3272f2,B,2024-06-22_18h45.18.048,Slot Machine Game,2023.1.3,MacIntel,58.13953488,,,,,,,,,,,,,,,,,,,,,,,,,,,400,,,,,,,,,,,,,,,,,,,,,2,2,,,329.5563,4,left,0.0674,,1.5,0.3,"[1,3,2]",0.728149155,stimuli/card_100_transparent.png,100,4,0,4,0,1,,,,,,,,,,
,,,,5dd984381096ea907a3272f2,B,2024-06-22_18h45.18.048,Slot Machine Game,2023.1.3,MacIntel,58.13953488,,,,,,,,,,,,,,,,,,,,,,,,,,,410,,,,,,,,,,,,,,,,,,,,,2,2,,,331.9552,5,left,0.0359,,1.5,0.3,"[1,3,2]",0.197067433,stimuli/card_10_transparent.png,10,5,0,5,0,1,,,,,,,,,,
,,,,5dd984381096ea907a3272f2,B,2024-06-22_18h45.18.048,Slot Machine Game,2023.1.3,MacIntel,58.13953488,,,,,,,,,,,,,,,,,,,,,,,,,,,410,,,,,,,,,,,,,,,,,,,,,2,2,,,334.3199,6,left,0.3167,,1.5,0.3,"[3,2,1]",0.802909408,stimuli/card_0_transparent.png,0,6,0,6,0,1,,,,,,,,,,
,,,,5dd984381096ea907a3272f2,B,2024-06-22_18h45.18.048,Slot Machine Game,2023.1.3,MacIntel,58.13953488,,,,,,,,,,,,,,,,,,,,,,,,,,,510,,,,,,,,,,,,,,,,,,,,,2,2,,,336.9687,7,up,0.3168,,1,0.3,"[3,2,1]",0.139911599,stimuli/card_100_transparent.png,100,7,0,7,0,1,,,,,,,,,,
,,,,5dd984381096ea907a3272f2,B,2024-06-22_18h45.18.048,Slot Machine Game,2023.1.3,MacIntel,58.13953488,,,,,,,,,,,,,,,,,,,,,,,,,,,520,,,,,,,,,,,,,,,,,,,,,2,2,,,339.1171,8,up,0.2159,,0.5,0.3,"[3,2,1]",0.919078937,stimuli/card_10_transparent.png,10,8,0,8,0,1,,,,,,,,,,
,,,,5dd984381096ea907a3272f2,B,2024-06-22_18h45.18.048,Slot Machine Game,2023.1.3,MacIntel,58.13953488,,,,,,,,,,,,,,,,,,,,,,,,,,,530,,,,,,,,,,,,,,,,,,,,,2,2,,,340.666,9,up,0.2203,,1,0.3,"[3,2,1]",0.785734219,stimuli/card_10_transparent.png,10,9,0,9,0,1,,,,,,,,,,
,,,,5dd984381096ea907a3272f2,B,2024-06-22_18h45.18.048,Slot Machine Game,2023.1.3,MacIntel,58.13953488,,,,,,,,,,,,,,,,,,,,,,,,,,,630,,,,,,,,,,,,,,,,,,,,,2,2,,,342.714,10,up,0.359,,1,0.3,"[3,2,1]",0.19391173,stimuli/card_100_transparent.png,100,10,0,10,0,1,,,,,,,,,,
,,,,5dd984381096ea907a3272f2,B,2024-06-22_18h45.18.048,Slot Machine Game,2023.1.3,MacIntel,58.13953488,,,,,,,,,,,,,,,,,,,,,,,,,,,640,,,,,,,,,,,,,,,,,,,,,2,2,,,344.8968,11,up,0.0538,,1,0.3,"[3,2,1]",0.839970415,stimuli/card_10_transparent.png,10,11,0,11,0,1,,,,,,,,,,
,,,,5dd984381096ea907a3272f2,B,2024-06-22_18h45.18.048,Slot Machine Game,2023.1.3,MacIntel,58.13953488,,,,,,,,,,,,,,,,,,,,,,,,,,,650,,,,,,,,,,,,,,,,,,,,,2,2,,,346.7756,12,up,0.2659,,1,0.3,"[3,2,1]",0.256341337,stimuli/card_10_transparent.png,10,12,0,12,0,1,,,,,,,,,,
,,,,5dd984381096ea907a3272f2,B,2024-06-22_18h45.18.048,Slot Machine Game,2023.1.3,MacIntel,58.13953488,,,,,,,,,,,,,,,,,,,,,,,,,,,750,,,,,,,,,,,,,,,,,,,,,2,2,,,348.8604,13,right,0.2174,,0.5,0.3,"[3,2,1]",0.327953602,stimuli/card_100_transparent.png,100,13,0,13,0,1,,,,,,,,,,
,,,,5dd984381096ea907a3272f2,B,2024-06-22_18h45.18.048,Slot Machine Game,2023.1.3,MacIntel,58.13953488,,,,,,,,,,,,,,,,,,,,,,,,,,,760,,,,,,,,,,,,,,,,,,,,,2,2,,,350.4095,14,right,0.1087,,0.5,0.3,"[3,2,1]",0.110874573,stimuli/card_10_transparent.png,10,14,0,14,0,1,,,,,,,,,,
,,,,5dd984381096ea907a3272f2,B,2024-06-22_18h45.18.048,Slot Machine Game,2023.1.3,MacIntel,58.13953488,,,,,,,,,,,,,,,,,,,,,,,,,,,,,,,,,,,351.8417,,,,,,,,,,,,,,,,,,,,,,,,,,,,,,,,,"[1110,760]",1,0,1,0,1,,,,
,,,,5dd984381096ea907a3272f2,B,2024-06-22_18h45.18.048,Slot Machine Game,2023.1.3,MacIntel,58.13953488,,,,,,,,,,,,,,,,,,,,,,,,,,,0,,,,,,,,,,,,,,,,,,,,,3,3,"[15,15]","[[3,1,2],[3,1,2]]",356.8596,0,left,0.1692,,1,0.3,"[3,1,2]",0.923706352,stimuli/card_0_transparent.png,0,0,0,0,0,1,,,,,,,,,,
,,,,5dd984381096ea907a3272f2,B,2024-06-22_18h45.18.048,Slot Machine Game,2023.1.3,MacIntel,58.13953488,,,,,,,,,,,,,,,,,,,,,,,,,,,0,,,,,,,,,,,,,,,,,,,,,3,3,,,358.8534,1,left,0.0594,,1.5,0.3,"[3,1,2]",0.488393204,stimuli/card_0_transparent.png,0,1,0,1,0,1,,,,,,,,,,
,,,,5dd984381096ea907a3272f2,B,2024-06-22_18h45.18.048,Slot Machine Game,2023.1.3,MacIntel,58.13953488,,,,,,,,,,,,,,,,,,,,,,,,,,,0,,,,,,,,,,,,,,,,,,,,,3,3,,,361.2357,2,up,0.3011,,0.5,0.3,"[3,1,2]",0.074120322,stimuli/card_0_transparent.png,0,2,0,2,0,1,,,,,,,,,,
,,,,5dd984381096ea907a3272f2,B,2024-06-22_18h45.18.048,Slot Machine Game,2023.1.3,MacIntel,58.13953488,,,,,,,,,,,,,,,,,,,,,,,,,,,100,,,,,,,,,,,,,,,,,,,,,3,3,,,362.8667,3,up,0.0335,,1,0.3,"[3,1,2]",0.547280765,stimuli/card_100_transparent.png,100,3,0,3,0,1,,,,,,,,,,
,,,,5dd984381096ea907a3272f2,B,2024-06-22_18h45.18.048,Slot Machine Game,2023.1.3,MacIntel,58.13953488,,,,,,,,,,,,,,,,,,,,,,,,,,,200,,,,,,,,,,,,,,,,,,,,,3,3,,,364.7333,4,up,0.0348,,1.5,0.3,"[3,1,2]",0.792672631,stimuli/card_100_transparent.png,100,4,0,4,0,1,,,,,,,,,,
,,,,5dd984381096ea907a3272f2,B,2024-06-22_18h45.18.048,Slot Machine Game,2023.1.3,MacIntel,58.13953488,,,,,,,,,,,,,,,,,,,,,,,,,,,210,,,,,,,,,,,,,,,,,,,,,3,3,,,367.0981,5,up,0.2041,,0.5,0.3,"[3,1,2]",0.148209409,stimuli/card_10_transparent.png,10,5,0,5,0,1,,,,,,,,,,
,,,,5dd984381096ea907a3272f2,B,2024-06-22_18h45.18.048,Slot Machine Game,2023.1.3,MacIntel,58.13953488,,,,,,,,,,,,,,,,,,,,,,,,,,,310,,,,,,,,,,,,,,,,,,,,,3,3,,,368.6303,6,up,0.352,,1,0.3,"[3,1,2]",0.291126238,stimuli/card_100_transparent.png,100,6,0,6,0,1,,,,,,,,,,
,,,,5dd984381096ea907a3272f2,B,2024-06-22_18h45.18.048,Slot Machine Game,2023.1.3,MacIntel,58.13953488,,,,,,,,,,,,,,,,,,,,,,,,,,,410,,,,,,,,,,,,,,,,,,,,,3,3,,,370.8117,7,up,0.0343,,0.5,0.3,"[3,1,2]",0.691466085,stimuli/card_100_transparent.png,100,7,0,7,0,1,,,,,,,,,,
,,,,5dd984381096ea907a3272f2,B,2024-06-22_18h45.18.048,Slot Machine Game,2023.1.3,MacIntel,58.13953488,,,,,,,,,,,,,,,,,,,,,,,,,,,410,,,,,,,,,,,,,,,,,,,,,3,3,,,372.1784,8,up,0.238,,1,0.3,"[3,1,2]",0.066093068,stimuli/card_0_transparent.png,0,8,0,8,0,1,,,,,,,,,,
,,,,5dd984381096ea907a3272f2,B,2024-06-22_18h45.18.048,Slot Machine Game,2023.1.3,MacIntel,58.13953488,,,,,,,,,,,,,,,,,,,,,,,,,,,510,,,,,,,,,,,,,,,,,,,,,3,3,,,374.2434,9,up,0.3258,,0.5,0.3,"[3,1,2]",0.404476343,stimuli/card_100_transparent.png,100,9,0,9,0,1,,,,,,,,,,
,,,,5dd984381096ea907a3272f2,B,2024-06-22_18h45.18.048,Slot Machine Game,2023.1.3,MacIntel,58.13953488,,,,,,,,,,,,,,,,,,,,,,,,,,,610,,,,,,,,,,,,,,,,,,,,,3,3,,,375.8928,10,up,0.6014,,1,0.3,"[3,1,2]",0.568433571,stimuli/card_100_transparent.png,100,10,0,10,0,1,,,,,,,,,,
,,,,5dd984381096ea907a3272f2,B,2024-06-22_18h45.18.048,Slot Machine Game,2023.1.3,MacIntel,58.13953488,,,,,,,,,,,,,,,,,,,,,,,,,,,610,,,,,,,,,,,,,,,,,,,,,3,3,,,378.3246,11,up,0.0211,,1.5,0.3,"[3,1,2]",0.082592269,stimuli/card_0_transparent.png,0,11,0,11,0,1,,,,,,,,,,
,,,,5dd984381096ea907a3272f2,B,2024-06-22_18h45.18.048,Slot Machine Game,2023.1.3,MacIntel,58.13953488,,,,,,,,,,,,,,,,,,,,,,,,,,,710,,,,,,,,,,,,,,,,,,,,,3,3,,,380.673,12,up,0.0052,,1.5,0.3,"[3,1,2]",0.513520416,stimuli/card_100_transparent.png,100,12,0,12,0,1,,,,,,,,,,
,,,,5dd984381096ea907a3272f2,B,2024-06-22_18h45.18.048,Slot Machine Game,2023.1.3,MacIntel,58.13953488,,,,,,,,,,,,,,,,,,,,,,,,,,,810,,,,,,,,,,,,,,,,,,,,,3,3,,,383.0042,13,up,0.0499,,1.5,0.3,"[3,1,2]",0.667519511,stimuli/card_100_transparent.png,100,13,0,13,0,1,,,,,,,,,,
,,,,5dd984381096ea907a3272f2,B,2024-06-22_18h45.18.048,Slot Machine Game,2023.1.3,MacIntel,58.13953488,,,,,,,,,,,,,,,,,,,,,,,,,,,910,,,,,,,,,,,,,,,,,,,,,3,3,,,385.3858,14,up,0.0098,,1.5,0.3,"[3,1,2]",0.719965214,stimuli/card_100_transparent.png,100,14,0,14,0,1,,,,,,,,,,
,,,,5dd984381096ea907a3272f2,B,2024-06-22_18h45.18.048,Slot Machine Game,2023.1.3,MacIntel,58.13953488,,,,,,,,,,,,,,,,,,,,,,,,,,,,,,,,,,,387.7182,,,,,,,,,,,,,,,,,,,,,,,,,,,,,,,,,"[1110,760,910]",2,0,2,0,1,,,,
,,,,5dd984381096ea907a3272f2,B,2024-06-22_18h45.18.048,Slot Machine Game,2023.1.3,MacIntel,58.13953488,,,,,,,,,,,,,,,,,,,,,,,,,,,10,,,,,,,,,,,,,,,,,,,,,4,4,"[7,15]","[[2,3,1],[1,2,3]]",392.7345,0,left,0.3204,,1.5,0.3,"[2,3,1]",0.385486503,stimuli/card_10_transparent.png,10,0,0,0,0,1,,,,,,,,,,
,,,,5dd984381096ea907a3272f2,B,2024-06-22_18h45.18.048,Slot Machine Game,2023.1.3,MacIntel,58.13953488,,,,,,,,,,,,,,,,,,,,,,,,,,,20,,,,,,,,,,,,,,,,,,,,,4,4,,,395.3792,1,left,0.0845,,1,0.3,"[2,3,1]",0.744305553,stimuli/card_10_transparent.png,10,1,0,1,0,1,,,,,,,,,,
,,,,5dd984381096ea907a3272f2,B,2024-06-22_18h45.18.048,Slot Machine Game,2023.1.3,MacIntel,58.13953488,,,,,,,,,,,,,,,,,,,,,,,,,,,30,,,,,,,,,,,,,,,,,,,,,4,4,,,397.2941,2,up,0.1061,,0.5,0.3,"[2,3,1]",0.127307987,stimuli/card_10_transparent.png,10,2,0,2,0,1,,,,,,,,,,
,,,,5dd984381096ea907a3272f2,B,2024-06-22_18h45.18.048,Slot Machine Game,2023.1.3,MacIntel,58.13953488,,,,,,,,,,,,,,,,,,,,,,,,,,,40,,,,,,,,,,,,,,,,,,,,,4,4,,,398.7271,3,up,0.0498,,1,0.3,"[2,3,1]",0.170257261,stimuli/card_10_transparent.png,10,3,0,3,0,1,,,,,,,,,,
,,,,5dd984381096ea907a3272f2,B,2024-06-22_18h45.18.048,Slot Machine Game,2023.1.3,MacIntel,58.13953488,,,,,,,,,,,,,,,,,,,,,,,,,,,140,,,,,,,,,,,,,,,,,,,,,4,4,,,400.6094,4,right,0.3161,,1,0.3,"[2,3,1]",0.986512146,stimuli/card_100_transparent.png,100,4,0,4,0,1,,,,,,,,,,
,,,,5dd984381096ea907a3272f2,B,2024-06-22_18h45.18.048,Slot Machine Game,2023.1.3,MacIntel,58.13953488,,,,,,,,,,,,,,,,,,,,,,,,,,,240,,,,,,,,,,,,,,,,,,,,,4,4,,,402.7581,5,right,0.2718,,1.5,0.3,"[2,3,1]",0.668767657,stimuli/card_100_transparent.png,100,5,0,5,0,1,,,,,,,,,,
,,,,5dd984381096ea907a3272f2,B,2024-06-22_18h45.18.048,Slot Machine Game,2023.1.3,MacIntel,58.13953488,,,,,,,,,,,,,,,,,,,,,,,,,,,340,,,,,,,,,,,,,,,,,,,,,4,4,,,405.356,6,right,0.3176,,0.5,0.3,"[2,3,1]",0.819566525,stimuli/card_100_transparent.png,100,6,0,6,0,1,,,,,,,,,,
,,,,5dd984381096ea907a3272f2,B,2024-06-22_18h45.18.048,Slot Machine Game,2023.1.3,MacIntel,58.13953488,,,,,,,,,,,,,,,,,,,,,,,,,,,340,,,,,,,,,,,,,,,,,,,,,4,4,,,407.0048,7,right,0.2057,,1,0.3,"[1,2,3]",0.727254046,stimuli/card_0_transparent.png,0,7,0,7,0,1,,,,,,,,,,
,,,,5dd984381096ea907a3272f2,B,2024-06-22_18h45.18.048,Slot Machine Game,2023.1.3,MacIntel,58.13953488,,,,,,,,,,,,,,,,,,,,,,,,,,,340,,,,,,,,,,,,,,,,,,,,,4,4,,,409.0366,8,right,0.3001,,0.5,0.3,"[1,2,3]",0.479343752,stimuli/card_0_transparent.png,0,8,0,8,0,1,,,,,,,,,,
,,,,5dd984381096ea907a3272f2,B,2024-06-22_18h45.18.048,Slot Machine Game,2023.1.3,MacIntel,58.13953488,,,,,,,,,,,,,,,,,,,,,,,,,,,350,,,,,,,,,,,,,,,,,,,,,4,4,,,410.6685,9,up,0.3671,,0.5,0.3,"[1,2,3]",0.889370287,stimuli/card_10_transparent.png,10,9,0,9,0,1,,,,,,,,,,
,,,,5dd984381096ea907a3272f2,B,2024-06-22_18h45.18.048,Slot Machine Game,2023.1.3,MacIntel,58.13953488,,,,,,,,,,,,,,,,,,,,,,,,,,,360,,,,,,,,,,,,,,,,,,,,,4,4,,,412.3513,10,up,0.1687,,1.5,0.3,"[1,2,3]",0.695096915,stimuli/card_10_transparent.png,10,10,0,10,0,1,,,,,,,,,,
,,,,5dd984381096ea907a3272f2,B,2024-06-22_18h45.18.048,Slot Machine Game,2023.1.3,MacIntel,58.13953488,,,,,,,,,,,,,,,,,,,,,,,,,,,460,,,,,,,,,,,,,,,,,,,,,4,4,,,414.8494,11,left,0.2194,,0.5,0.3,"[1,2,3]",0.572365299,stimuli/card_100_transparent.png,100,11,0,11,0,1,,,,,,,,,,
,,,,5dd984381096ea907a3272f2,B,2024-06-22_18h45.18.048,Slot Machine Game,2023.1.3,MacIntel,58.13953488,,,,,,,,,,,,,,,,,,,,,,,,,,,560,,,,,,,,,,,,,,,,,,,,,4,4,,,416.3991,12,left,0.0849,,0.5,0.3,"[1,2,3]",0.674397613,stimuli/card_100_transparent.png,100,12,0,12,0,1,,,,,,,,,,
,,,,5dd984381096ea907a3272f2,B,2024-06-22_18h45.18.048,Slot Machine Game,2023.1.3,MacIntel,58.13953488,,,,,,,,,,,,,,,,,,,,,,,,,,,660,,,,,,,,,,,,,,,,,,,,,4,4,,,417.8144,13,left,0.1239,,1,0.3,"[1,2,3]",0.782379877,stimuli/card_100_transparent.png,100,13,0,13,0,1,,,,,,,,,,
,,,,5dd984381096ea907a3272f2,B,2024-06-22_18h45.18.048,Slot Machine Game,2023.1.3,MacIntel,58.13953488,,,,,,,,,,,,,,,,,,,,,,,,,,,760,,,,,,,,,,,,,,,,,,,,,4,4,,,419.7626,14,left,0.1328,,1.5,0.3,"[1,2,3]",0.783007484,stimuli/card_100_transparent.png,100,14,0,14,0,1,,,,,,,,,,
,,,,5dd984381096ea907a3272f2,B,2024-06-22_18h45.18.048,Slot Machine Game,2023.1.3,MacIntel,58.13953488,,,,,,,,,,,,,,,,,,,,,,,,,,,,,,,,,,,422.2119,,,,,,,,,,,,,,,,,,,,,,,,,,,,,,,,,"[1110,760,910,760]",3,0,3,0,1,,,,
,,,,5dd984381096ea907a3272f2,B,2024-06-22_18h45.18.048,Slot Machine Game,2023.1.3,MacIntel,58.13953488,,,,,,,,,,,,,,,,,,,,,,,,,,,100,,,,,,,,,,,,,,,,,,,,,5,5,"[5,15]","[[1,2,3],[3,1,2]]",427.2288,0,left,0.0344,,0.5,0.3,"[1,2,3]",0.411526075,stimuli/card_100_transparent.png,100,0,0,0,0,1,,,,,,,,,,
,,,,5dd984381096ea907a3272f2,B,2024-06-22_18h45.18.048,Slot Machine Game,2023.1.3,MacIntel,58.13953488,,,,,,,,,,,,,,,,,,,,,,,,,,,200,,,,,,,,,,,,,,,,,,,,,5,5,,,428.5912,1,left,0.0666,,1.5,0.3,"[1,2,3]",0.421565143,stimuli/card_100_transparent.png,100,1,0,1,0,1,,,,,,,,,,
,,,,5dd984381096ea907a3272f2,B,2024-06-22_18h45.18.048,Slot Machine Game,2023.1.3,MacIntel,58.13953488,,,,,,,,,,,,,,,,,,,,,,,,,,,200,,,,,,,,,,,,,,,,,,,,,5,5,,,430.9895,2,left,0.016,,1,0.3,"[1,2,3]",0.069364529,stimuli/card_0_transparent.png,0,2,0,2,0,1,,,,,,,,,,
,,,,5dd984381096ea907a3272f2,B,2024-06-22_18h45.18.048,Slot Machine Game,2023.1.3,MacIntel,58.13953488,,,,,,,,,,,,,,,,,,,,,,,,,,,300,,,,,,,,,,,,,,,,,,,,,5,5,,,432.8373,3,left,0.0157,,1.5,0.3,"[1,2,3]",0.803013572,stimuli/card_100_transparent.png,100,3,0,3,0,1,,,,,,,,,,
,,,,5dd984381096ea907a3272f2,B,2024-06-22_18h45.18.048,Slot Machine Game,2023.1.3,MacIntel,58.13953488,,,,,,,,,,,,,,,,,,,,,,,,,,,400,,,,,,,,,,,,,,,,,,,,,5,5,,,435.1696,4,left,0.1538,,1.5,0.3,"[1,2,3]",0.395571632,stimuli/card_100_transparent.png,100,4,0,4,0,1,,,,,,,,,,
,,,,5dd984381096ea907a3272f2,B,2024-06-22_18h45.18.048,Slot Machine Game,2023.1.3,MacIntel,58.13953488,,,,,,,,,,,,,,,,,,,,,,,,,,,400,,,,,,,,,,,,,,,,,,,,,5,5,,,437.6519,5,left,0.0688,,1.5,0.3,"[3,1,2]",0.912666117,stimuli/card_0_transparent.png,0,5,0,5,0,1,,,,,,,,,,
,,,,5dd984381096ea907a3272f2,B,2024-06-22_18h45.18.048,Slot Machine Game,2023.1.3,MacIntel,58.13953488,,,,,,,,,,,,,,,,,,,,,,,,,,,400,,,,,,,,,,,,,,,,,,,,,5,5,,,440.05,6,left,0.0856,,1.5,0.3,"[3,1,2]",0.353775542,stimuli/card_0_transparent.png,0,6,0,6,0,1,,,,,,,,,,
,,,,5dd984381096ea907a3272f2,B,2024-06-22_18h45.18.048,Slot Machine Game,2023.1.3,MacIntel,58.13953488,,,,,,,,,,,,,,,,,,,,,,,,,,,500,,,,,,,,,,,,,,,,,,,,,5,5,,,442.4647,7,up,0.1579,,1,0.3,"[3,1,2]",0.258270331,stimuli/card_100_transparent.png,100,7,0,7,0,1,,,,,,,,,,
,,,,5dd984381096ea907a3272f2,B,2024-06-22_18h45.18.048,Slot Machine Game,2023.1.3,MacIntel,58.13953488,,,,,,,,,,,,,,,,,,,,,,,,,,,600,,,,,,,,,,,,,,,,,,,,,5,5,,,444.4304,8,up,0.1331,,0.5,0.3,"[3,1,2]",0.653259608,stimuli/card_100_transparent.png,100,8,0,8,0,1,,,,,,,,,,
,,,,5dd984381096ea907a3272f2,B,2024-06-22_18h45.18.048,Slot Machine Game,2023.1.3,MacIntel,58.13953488,,,,,,,,,,,,,,,,,,,,,,,,,,,700,,,,,,,,,,,,,,,,,,,,,5,5,,,445.8952,9,up,0.0998,,1,0.3,"[3,1,2]",0.741151646,stimuli/card_100_transparent.png,100,9,0,9,0,1,,,,,,,,,,
,,,,5dd984381096ea907a3272f2,B,2024-06-22_18h45.18.048,Slot Machine Game,2023.1.3,MacIntel,58.13953488,,,,,,,,,,,,,,,,,,,,,,,,,,,800,,,,,,,,,,,,,,,,,,,,,5,5,,,447.8115,10,up,0.0802,,1.5,0.3,"[3,1,2]",0.261961374,stimuli/card_100_transparent.png,100,10,0,10,0,1,,,,,,,,,,
,,,,5dd984381096ea907a3272f2,B,2024-06-22_18h45.18.048,Slot Machine Game,2023.1.3,MacIntel,58.13953488,,,,,,,,,,,,,,,,,,,,,,,,,,,810,,,,,,,,,,,,,,,,,,,,,5,5,,,450.21,11,up,0.0488,,1.5,0.3,"[3,1,2]",0.155533871,stimuli/card_10_transparent.png,10,11,0,11,0,1,,,,,,,,,,
,,,,5dd984381096ea907a3272f2,B,2024-06-22_18h45.18.048,Slot Machine Game,2023.1.3,MacIntel,58.13953488,,,,,,,,,,,,,,,,,,,,,,,,,,,820,,,,,,,,,,,,,,,,,,,,,5,5,,,452.592,12,up,0.2851,,0.5,0.3,"[3,1,2]",0.17814175,stimuli/card_10_transparent.png,10,12,0,12,0,1,,,,,,,,,,
,,,,5dd984381096ea907a3272f2,B,2024-06-22_18h45.18.048,Slot Machine Game,2023.1.3,MacIntel,58.13953488,,,,,,,,,,,,,,,,,,,,,,,,,,,830,,,,,,,,,,,,,,,,,,,,,5,5,,,454.2063,13,right,0.051,,1,0.3,"[3,1,2]",0.834920924,stimuli/card_10_transparent.png,10,13,0,13,0,1,,,,,,,,,,
,,,,5dd984381096ea907a3272f2,B,2024-06-22_18h45.18.048,Slot Machine Game,2023.1.3,MacIntel,58.13953488,,,,,,,,,,,,,,,,,,,,,,,,,,,830,,,,,,,,,,,,,,,,,,,,,5,5,,,456.0887,14,right,0.1154,,1.5,0.3,"[3,1,2]",0.050768855,stimuli/card_0_transparent.png,0,14,0,14,0,1,,,,,,,,,,
,,,,5dd984381096ea907a3272f2,B,2024-06-22_18h45.18.048,Slot Machine Game,2023.1.3,MacIntel,58.13953488,,,,,,,,,,,,,,,,,,,,,,,,,,,,,,,,,,,458.5208,,,,,,,,,,,,,,,,,,,,,,,,,,,,,,,,,"[1110,760,910,760,830]",4,0,4,0,1,,,,
,,,,5dd984381096ea907a3272f2,B,2024-06-22_18h45.18.048,Slot Machine Game,2023.1.3,MacIntel,58.13953488,,,,,,,,,,,,,,,,,,,,,,,,,,,10,,,,,,,,,,,,,,,,,,,,,6,6,"[4,10,15]","[[2,3,1],[1,3,2],[3,2,1]]",463.5384,0,left,0.0012,,1.5,0.3,"[2,3,1]",0.674515142,stimuli/card_10_transparent.png,10,0,0,0,0,1,,,,,,,,,,
,,,,5dd984381096ea907a3272f2,B,2024-06-22_18h45.18.048,Slot Machine Game,2023.1.3,MacIntel,58.13953488,,,,,,,,,,,,,,,,,,,,,,,,,,,10,,,,,,,,,,,,,,,,,,,,,6,6,,,465.8655,1,left,0.0377,,1.5,0.3,"[2,3,1]",0.05083419,stimuli/card_0_transparent.png,0,1,0,1,0,1,,,,,,,,,,
,,,,5dd984381096ea907a3272f2,B,2024-06-22_18h45.18.048,Slot Machine Game,2023.1.3,MacIntel,58.13953488,,,,,,,,,,,,,,,,,,,,,,,,,,,10,,,,,,,,,,,,,,,,,,,,,6,6,,,468.2314,2,up,0.1861,,0.5,0.3,"[2,3,1]",0.451947382,stimuli/card_0_transparent.png,0,2,0,2,0,1,,,,,,,,,,
,,,,5dd984381096ea907a3272f2,B,2024-06-22_18h45.18.048,Slot Machine Game,2023.1.3,MacIntel,58.13953488,,,,,,,,,,,,,,,,,,,,,,,,,,,10,,,,,,,,,,,,,,,,,,,,,6,6,,,469.7464,3,up,0.1525,,1.5,0.3,"[2,3,1]",0.626201752,stimuli/card_0_transparent.png,0,3,0,3,0,1,,,,,,,,,,
,,,,5dd984381096ea907a3272f2,B,2024-06-22_18h45.18.048,Slot Machine Game,2023.1.3,MacIntel,58.13953488,,,,,,,,,,,,,,,,,,,,,,,,,,,110,,,,,,,,,,,,,,,,,,,,,6,6,,,472.228,4,right,0.0647,,1,0.3,"[1,3,2]",0.162381511,stimuli/card_100_transparent.png,100,4,0,4,0,1,,,,,,,,,,
,,,,5dd984381096ea907a3272f2,B,2024-06-22_18h45.18.048,Slot Machine Game,2023.1.3,MacIntel,58.13953488,,,,,,,,,,,,,,,,,,,,,,,,,,,120,,,,,,,,,,,,,,,,,,,,,6,6,,,474.1109,5,right,0.0669,,1.5,0.3,"[1,3,2]",0.279215554,stimuli/card_10_transparent.png,10,5,0,5,0,1,,,,,,,,,,
,,,,5dd984381096ea907a3272f2,B,2024-06-22_18h45.18.048,Slot Machine Game,2023.1.3,MacIntel,58.13953488,,,,,,,,,,,,,,,,,,,,,,,,,,,130,,,,,,,,,,,,,,,,,,,,,6,6,,,476.5086,6,right,0.0731,,1.5,0.3,"[1,3,2]",0.987917932,stimuli/card_10_transparent.png,10,6,0,6,0,1,,,,,,,,,,
,,,,5dd984381096ea907a3272f2,B,2024-06-22_18h45.18.048,Slot Machine Game,2023.1.3,MacIntel,58.13953488,,,,,,,,,,,,,,,,,,,,,,,,,,,130,,,,,,,,,,,,,,,,,,,,,6,6,,,478.9046,7,up,0.4021,,1.5,0.3,"[1,3,2]",0.639412276,stimuli/card_0_transparent.png,0,7,0,7,0,1,,,,,,,,,,
,,,,5dd984381096ea907a3272f2,B,2024-06-22_18h45.18.048,Slot Machine Game,2023.1.3,MacIntel,58.13953488,,,,,,,,,,,,,,,,,,,,,,,,,,,140,,,,,,,,,,,,,,,,,,,,,6,6,,,481.6225,8,right,0.1828,,0.5,0.3,"[1,3,2]",0.999630391,stimuli/card_10_transparent.png,10,8,0,8,0,1,,,,,,,,,,
,,,,5dd984381096ea907a3272f2,B,2024-06-22_18h45.18.048,Slot Machine Game,2023.1.3,MacIntel,58.13953488,,,,,,,,,,,,,,,,,,,,,,,,,,,140,,,,,,,,,,,,,,,,,,,,,6,6,,,483.1381,9,up,0.308,,1.5,0.3,"[1,3,2]",0.768779389,stimuli/card_0_transparent.png,0,9,0,9,0,1,,,,,,,,,,
,,,,5dd984381096ea907a3272f2,B,2024-06-22_18h45.18.048,Slot Machine Game,2023.1.3,MacIntel,58.13953488,,,,,,,,,,,,,,,,,,,,,,,,,,,140,,,,,,,,,,,,,,,,,,,,,6,6,,,485.7687,10,left,0.1196,,1.5,0.3,"[3,2,1]",0.991469963,stimuli/card_0_transparent.png,0,10,0,10,0,1,,,,,,,,,,
,,,,5dd984381096ea907a3272f2,B,2024-06-22_18h45.18.048,Slot Machine Game,2023.1.3,MacIntel,58.13953488,,,,,,,,,,,,,,,,,,,,,,,,,,,140,,,,,,,,,,,,,,,,,,,,,6,6,,,488.2013,11,left,0.1548,,0.5,0.3,"[3,2,1]",0.44918329,stimuli/card_0_transparent.png,0,11,0,11,0,1,,,,,,,,,,
,,,,5dd984381096ea907a3272f2,B,2024-06-22_18h45.18.048,Slot Machine Game,2023.1.3,MacIntel,58.13953488,,,,,,,,,,,,,,,,,,,,,,,,,,,150,,,,,,,,,,,,,,,,,,,,,6,6,,,489.6832,12,up,0.0725,,1,0.3,"[3,2,1]",0.32507495,stimuli/card_10_transparent.png,10,12,0,12,0,1,,,,,,,,,,
,,,,5dd984381096ea907a3272f2,B,2024-06-22_18h45.18.048,Slot Machine Game,2023.1.3,MacIntel,58.13953488,,,,,,,,,,,,,,,,,,,,,,,,,,,150,,,,,,,,,,,,,,,,,,,,,6,6,,,491.5654,13,right,0.0193,,0.5,0.3,"[3,2,1]",0.004979733,stimuli/card_0_transparent.png,0,13,0,13,0,1,,,,,,,,,,
,,,,5dd984381096ea907a3272f2,B,2024-06-22_18h45.18.048,Slot Machine Game,2023.1.3,MacIntel,58.13953488,,,,,,,,,,,,,,,,,,,,,,,,,,,250,,,,,,,,,,,,,,,,,,,,,6,6,,,492.9149,14,right,0.2749,,1.5,0.3,"[3,2,1]",0.507980493,stimuli/card_100_transparent.png,100,14,0,14,0,1,,,,,,,,,,
,,,,5dd984381096ea907a3272f2,B,2024-06-22_18h45.18.048,Slot Machine Game,2023.1.3,MacIntel,58.13953488,,,,,,,,,,,,,,,,,,,,,,,,,,,,,,,,,,,495.5135,,,,,,,,,,,,,,,,,,,,,,,,,,,,,,,,,"[1110,760,910,760,830,250]",5,0,5,0,1,,,,
,,,,5dd984381096ea907a3272f2,B,2024-06-22_18h45.18.048,Slot Machine Game,2023.1.3,MacIntel,58.13953488,,,,,,,,,,,,,,,,,,,,,,,,,,,100,,,,,,,,,,,,,,,,,,,,,7,7,"[9,15]","[[1,3,2],[2,3,1]]",500.5306,0,left,0.0023,,0.5,0.3,"[1,3,2]",0.208655439,stimuli/card_100_transparent.png,100,0,0,0,0,1,,,,,,,,,,
,,,,5dd984381096ea907a3272f2,B,2024-06-22_18h45.18.048,Slot Machine Game,2023.1.3,MacIntel,58.13953488,,,,,,,,,,,,,,,,,,,,,,,,,,,110,,,,,,,,,,,,,,,,,,,,,7,7,,,501.8594,1,left,0.1914,,0.5,0.3,"[1,3,2]",0.18774426,stimuli/card_10_transparent.png,10,1,0,1,0,1,,,,,,,,,,
,,,,5dd984381096ea907a3272f2,B,2024-06-22_18h45.18.048,Slot Machine Game,2023.1.3,MacIntel,58.13953488,,,,,,,,,,,,,,,,,,,,,,,,,,,210,,,,,,,,,,,,,,,,,,,,,7,7,,,503.3749,2,left,0.0159,,1,0.3,"[1,3,2]",0.245582048,stimuli/card_100_transparent.png,100,2,0,2,0,1,,,,,,,,,,
,,,,5dd984381096ea907a3272f2,B,2024-06-22_18h45.18.048,Slot Machine Game,2023.1.3,MacIntel,58.13953488,,,,,,,,,,,,,,,,,,,,,,,,,,,220,,,,,,,,,,,,,,,,,,,,,7,7,,,505.2239,3,left,0.1754,,1.5,0.3,"[1,3,2]",0.143509501,stimuli/card_10_transparent.png,10,3,0,3,0,1,,,,,,,,,,
,,,,5dd984381096ea907a3272f2,B,2024-06-22_18h45.18.048,Slot Machine Game,2023.1.3,MacIntel,58.13953488,,,,,,,,,,,,,,,,,,,,,,,,,,,320,,,,,,,,,,,,,,,,,,,,,7,7,,,507.7217,4,left,0.0004,,1,0.3,"[1,3,2]",0.918382725,stimuli/card_100_transparent.png,100,4,0,4,0,1,,,,,,,,,,
,,,,5dd984381096ea907a3272f2,B,2024-06-22_18h45.18.048,Slot Machine Game,2023.1.3,MacIntel,58.13953488,,,,,,,,,,,,,,,,,,,,,,,,,,,420,,,,,,,,,,,,,,,,,,,,,7,7,,,509.5543,5,left,0.0244,,1.5,0.3,"[1,3,2]",0.574367238,stimuli/card_100_transparent.png,100,5,0,5,0,1,,,,,,,,,,
,,,,5dd984381096ea907a3272f2,B,2024-06-22_18h45.18.048,Slot Machine Game,2023.1.3,MacIntel,58.13953488,,,,,,,,,,,,,,,,,,,,,,,,,,,430,,,,,,,,,,,,,,,,,,,,,7,7,,,511.9018,6,left,0.1187,,1.5,0.3,"[1,3,2]",0.153865255,stimuli/card_10_transparent.png,10,6,0,6,0,1,,,,,,,,,,
,,,,5dd984381096ea907a3272f2,B,2024-06-22_18h45.18.048,Slot Machine Game,2023.1.3,MacIntel,58.13953488,,,,,,,,,,,,,,,,,,,,,,,,,,,530,,,,,,,,,,,,,,,,,,,,,7,7,,,514.351,7,left,0.3883,,1.5,0.3,"[1,3,2]",0.766418904,stimuli/card_100_transparent.png,100,7,0,7,0,1,,,,,,,,,,
,,,,5dd984381096ea907a3272f2,B,2024-06-22_18h45.18.048,Slot Machine Game,2023.1.3,MacIntel,58.13953488,,,,,,,,,,,,,,,,,,,,,,,,,,,630,,,,,,,,,,,,,,,,,,,,,7,7,,,517.0659,8,left,0.2868,,1.5,0.3,"[1,3,2]",0.700805639,stimuli/card_100_transparent.png,100,8,0,8,0,1,,,,,,,,,,
,,,,5dd984381096ea907a3272f2,B,2024-06-22_18h45.18.048,Slot Machine Game,2023.1.3,MacIntel,58.13953488,,,,,,,,,,,,,,,,,,,,,,,,,,,640,,,,,,,,,,,,,,,,,,,,,7,7,,,519.6798,9,left,0.0161,,1,0.3,"[2,3,1]",0.445113257,stimuli/card_10_transparent.png,10,9,0,9,0,1,,,,,,,,,,
,,,,5dd984381096ea907a3272f2,B,2024-06-22_18h45.18.048,Slot Machine Game,2023.1.3,MacIntel,58.13953488,,,,,,,,,,,,,,,,,,,,,,,,,,,650,,,,,,,,,,,,,,,,,,,,,7,7,,,521.5285,10,left,0.1352,,1,0.3,"[2,3,1]",0.472813063,stimuli/card_10_transparent.png,10,10,0,10,0,1,,,,,,,,,,
,,,,5dd984381096ea907a3272f2,B,2024-06-22_18h45.18.048,Slot Machine Game,2023.1.3,MacIntel,58.13953488,,,,,,,,,,,,,,,,,,,,,,,,,,,750,,,,,,,,,,,,,,,,,,,,,7,7,,,523.4939,11,up,0.0008,,1,0.3,"[2,3,1]",0.000427367,stimuli/card_100_transparent.png,100,11,0,11,0,1,,,,,,,,,,
,,,,5dd984381096ea907a3272f2,B,2024-06-22_18h45.18.048,Slot Machine Game,2023.1.3,MacIntel,58.13953488,,,,,,,,,,,,,,,,,,,,,,,,,,,750,,,,,,,,,,,,,,,,,,,,,7,7,,,525.3269,12,up,0.0588,,1.5,0.3,"[2,3,1]",0.368530835,stimuli/card_0_transparent.png,0,12,0,12,0,1,,,,,,,,,,
,,,,5dd984381096ea907a3272f2,B,2024-06-22_18h45.18.048,Slot Machine Game,2023.1.3,MacIntel,58.13953488,,,,,,,,,,,,,,,,,,,,,,,,,,,750,,,,,,,,,,,,,,,,,,,,,7,7,,,527.7085,13,up,0.2412,,1.5,0.3,"[2,3,1]",0.70669475,stimuli/card_0_transparent.png,0,13,0,13,0,1,,,,,,,,,,
,,,,5dd984381096ea907a3272f2,B,2024-06-22_18h45.18.048,Slot Machine Game,2023.1.3,MacIntel,58.13953488,,,,,,,,,,,,,,,,,,,,,,,,,,,760,,,,,,,,,,,,,,,,,,,,,7,7,,,530.2735,14,left,0.1344,,1.5,0.3,"[2,3,1]",0.822689721,stimuli/card_10_transparent.png,10,14,0,14,0,1,,,,,,,,,,
,,,,5dd984381096ea907a3272f2,B,2024-06-22_18h45.18.048,Slot Machine Game,2023.1.3,MacIntel,58.13953488,,,,,,,,,,,,,,,,,,,,,,,,,,,,,,,,,,,532.7389,,,,,,,,,,,,,,,,,,,,,,,,,,,,,,,,,"[1110,760,910,760,830,250,760]",6,0,6,0,1,,,,
,,,,5dd984381096ea907a3272f2,B,2024-06-22_18h45.18.048,Slot Machine Game,2023.1.3,MacIntel,58.13953488,,,,,,,,,,,,,,,,,,,,,,,,,,,100,,,,,,,,,,,,,,,,,,,,,8,8,"[11,15]","[[2,1,3],[1,2,3]]",537.755,0,left,0.1711,,0.5,0.3,"[2,1,3]",0.16172049,stimuli/card_100_transparent.png,100,0,0,0,0,1,,,,,,,,,,
,,,,5dd984381096ea907a3272f2,B,2024-06-22_18h45.18.048,Slot Machine Game,2023.1.3,MacIntel,58.13953488,,,,,,,,,,,,,,,,,,,,,,,,,,,110,,,,,,,,,,,,,,,,,,,,,8,8,,,539.2511,1,left,0.1712,,0.5,0.3,"[2,1,3]",0.758042056,stimuli/card_10_transparent.png,10,1,0,1,0,1,,,,,,,,,,
,,,,5dd984381096ea907a3272f2,B,2024-06-22_18h45.18.048,Slot Machine Game,2023.1.3,MacIntel,58.13953488,,,,,,,,,,,,,,,,,,,,,,,,,,,120,,,,,,,,,,,,,,,,,,,,,8,8,,,540.75,2,left,0.1019,,1,0.3,"[2,1,3]",0.431512597,stimuli/card_10_transparent.png,10,2,0,2,0,1,,,,,,,,,,
,,,,5dd984381096ea907a3272f2,B,2024-06-22_18h45.18.048,Slot Machine Game,2023.1.3,MacIntel,58.13953488,,,,,,,,,,,,,,,,,,,,,,,,,,,130,,,,,,,,,,,,,,,,,,,,,8,8,,,542.6814,3,left,0.0836,,1.5,0.3,"[2,1,3]",0.785927818,stimuli/card_10_transparent.png,10,3,0,3,0,1,,,,,,,,,,
,,,,5dd984381096ea907a3272f2,B,2024-06-22_18h45.18.048,Slot Machine Game,2023.1.3,MacIntel,58.13953488,,,,,,,,,,,,,,,,,,,,,,,,,,,230,,,,,,,,,,,,,,,,,,,,,8,8,,,545.0973,4,up,0.1161,,1.5,0.3,"[2,1,3]",0.899019356,stimuli/card_100_transparent.png,100,4,0,4,0,1,,,,,,,,,,
,,,,5dd984381096ea907a3272f2,B,2024-06-22_18h45.18.048,Slot Machine Game,2023.1.3,MacIntel,58.13953488,,,,,,,,,,,,,,,,,,,,,,,,,,,330,,,,,,,,,,,,,,,,,,,,,8,8,,,547.5449,5,up,0.0496,,1.5,0.3,"[2,1,3]",0.519977878,stimuli/card_100_transparent.png,100,5,0,5,0,1,,,,,,,,,,
,,,,5dd984381096ea907a3272f2,B,2024-06-22_18h45.18.048,Slot Machine Game,2023.1.3,MacIntel,58.13953488,,,,,,,,,,,,,,,,,,,,,,,,,,,430,,,,,,,,,,,,,,,,,,,,,8,8,,,549.9272,6,up,0.0169,,0.5,0.3,"[2,1,3]",0.367965459,stimuli/card_100_transparent.png,100,6,0,6,0,1,,,,,,,,,,
,,,,5dd984381096ea907a3272f2,B,2024-06-22_18h45.18.048,Slot Machine Game,2023.1.3,MacIntel,58.13953488,,,,,,,,,,,,,,,,,,,,,,,,,,,530,,,,,,,,,,,,,,,,,,,,,8,8,,,551.2761,7,up,0.1736,,1,0.3,"[2,1,3]",0.806892996,stimuli/card_100_transparent.png,100,7,0,7,0,1,,,,,,,,,,
,,,,5dd984381096ea907a3272f2,B,2024-06-22_18h45.18.048,Slot Machine Game,2023.1.3,MacIntel,58.13953488,,,,,,,,,,,,,,,,,,,,,,,,,,,630,,,,,,,,,,,,,,,,,,,,,8,8,,,553.2742,8,up,0.171,,1.5,0.3,"[2,1,3]",0.564679455,stimuli/card_100_transparent.png,100,8,0,8,0,1,,,,,,,,,,
,,,,5dd984381096ea907a3272f2,B,2024-06-22_18h45.18.048,Slot Machine Game,2023.1.3,MacIntel,58.13953488,,,,,,,,,,,,,,,,,,,,,,,,,,,730,,,,,,,,,,,,,,,,,,,,,8,8,,,555.773,9,up,0.1675,,1,0.3,"[2,1,3]",0.842955855,stimuli/card_100_transparent.png,100,9,0,9,0,1,,,,,,,,,,
,,,,5dd984381096ea907a3272f2,B,2024-06-22_18h45.18.048,Slot Machine Game,2023.1.3,MacIntel,58.13953488,,,,,,,,,,,,,,,,,,,,,,,,,,,830,,,,,,,,,,,,,,,,,,,,,8,8,,,557.7718,10,up,0.0657,,1,0.3,"[2,1,3]",0.88535433,stimuli/card_100_transparent.png,100,10,0,10,0,1,,,,,,,,,,
,,,,5dd984381096ea907a3272f2,B,2024-06-22_18h45.18.048,Slot Machine Game,2023.1.3,MacIntel,58.13953488,,,,,,,,,,,,,,,,,,,,,,,,,,,840,,,,,,,,,,,,,,,,,,,,,8,8,,,559.6699,11,up,0.0174,,0.5,0.3,"[1,2,3]",0.470903695,stimuli/card_10_transparent.png,10,11,0,11,0,1,,,,,,,,,,
,,,,5dd984381096ea907a3272f2,B,2024-06-22_18h45.18.048,Slot Machine Game,2023.1.3,MacIntel,58.13953488,,,,,,,,,,,,,,,,,,,,,,,,,,,940,,,,,,,,,,,,,,,,,,,,,8,8,,,561.0189,12,up,0.2015,,1,0.3,"[1,2,3]",0.163497117,stimuli/card_100_transparent.png,100,12,0,12,0,1,,,,,,,,,,
,,,,5dd984381096ea907a3272f2,B,2024-06-22_18h45.18.048,Slot Machine Game,2023.1.3,MacIntel,58.13953488,,,,,,,,,,,,,,,,,,,,,,,,,,,950,,,,,,,,,,,,,,,,,,,,,8,8,,,563.0352,13,up,0.1848,,0.5,0.3,"[1,2,3]",0.874854415,stimuli/card_10_transparent.png,10,13,0,13,0,1,,,,,,,,,,
,,,,5dd984381096ea907a3272f2,B,2024-06-22_18h45.18.048,Slot Machine Game,2023.1.3,MacIntel,58.13953488,,,,,,,,,,,,,,,,,,,,,,,,,,,1050,,,,,,,,,,,,,,,,,,,,,8,8,,,564.5499,14,up,0.1694,,0.5,0.3,"[1,2,3]",0.175255889,stimuli/card_100_transparent.png,100,14,0,14,0,1,,,,,,,,,,
,,,,5dd984381096ea907a3272f2,B,2024-06-22_18h45.18.048,Slot Machine Game,2023.1.3,MacIntel,58.13953488,,,,,,,,,,,,,,,,,,,,,,,,,,,,,,,,,,,566.0333,,,,,,,,,,,,,,,,,,,,,,,,,,,,,,,,,"[1110,760,910,760,830,250,760,1050]",7,0,7,0,1,,,,
,,,,5dd984381096ea907a3272f2,B,2024-06-22_18h45.18.048,Slot Machine Game,2023.1.3,MacIntel,58.13953488,,,,,,,,,,,,,,,,,,,,,,,,,,,100,,,,,,,,,,,,,,,,,,,,,9,9,"[8,15]","[[3,2,1],[3,1,2]]",571.0509,0,left,0.0164,,1,0.3,"[3,2,1]",0.055200068,stimuli/card_100_transparent.png,100,0,0,0,0,1,,,,,,,,,,
,,,,5dd984381096ea907a3272f2,B,2024-06-22_18h45.18.048,Slot Machine Game,2023.1.3,MacIntel,58.13953488,,,,,,,,,,,,,,,,,,,,,,,,,,,100,,,,,,,,,,,,,,,,,,,,,9,9,,,572.8955,1,left,0.0213,,1.5,0.3,"[3,2,1]",0.802672532,stimuli/card_0_transparent.png,0,1,0,1,0,1,,,,,,,,,,
,,,,5dd984381096ea907a3272f2,B,2024-06-22_18h45.18.048,Slot Machine Game,2023.1.3,MacIntel,58.13953488,,,,,,,,,,,,,,,,,,,,,,,,,,,100,,,,,,,,,,,,,,,,,,,,,9,9,,,575.2441,2,left,0.1938,,1,0.3,"[3,2,1]",0.25597084,stimuli/card_0_transparent.png,0,2,0,2,0,1,,,,,,,,,,
,,,,5dd984381096ea907a3272f2,B,2024-06-22_18h45.18.048,Slot Machine Game,2023.1.3,MacIntel,58.13953488,,,,,,,,,,,,,,,,,,,,,,,,,,,110,,,,,,,,,,,,,,,,,,,,,9,9,,,577.2594,3,up,0.1931,,1.5,0.3,"[3,2,1]",0.621822955,stimuli/card_10_transparent.png,10,3,0,3,0,1,,,,,,,,,,
,,,,5dd984381096ea907a3272f2,B,2024-06-22_18h45.18.048,Slot Machine Game,2023.1.3,MacIntel,58.13953488,,,,,,,,,,,,,,,,,,,,,,,,,,,210,,,,,,,,,,,,,,,,,,,,,9,9,,,579.7735,4,up,0.1201,,1.5,0.3,"[3,2,1]",0.194925785,stimuli/card_100_transparent.png,100,4,0,4,0,1,,,,,,,,,,
,,,,5dd984381096ea907a3272f2,B,2024-06-22_18h45.18.048,Slot Machine Game,2023.1.3,MacIntel,58.13953488,,,,,,,,,,,,,,,,,,,,,,,,,,,310,,,,,,,,,,,,,,,,,,,,,9,9,,,582.2216,5,up,0.1001,,1,0.3,"[3,2,1]",0.198215893,stimuli/card_100_transparent.png,100,5,0,5,0,1,,,,,,,,,,
,,,,5dd984381096ea907a3272f2,B,2024-06-22_18h45.18.048,Slot Machine Game,2023.1.3,MacIntel,58.13953488,,,,,,,,,,,,,,,,,,,,,,,,,,,310,,,,,,,,,,,,,,,,,,,,,9,9,,,584.1537,6,up,0.0547,,1,0.3,"[3,2,1]",0.081155738,stimuli/card_0_transparent.png,0,6,0,6,0,1,,,,,,,,,,
,,,,5dd984381096ea907a3272f2,B,2024-06-22_18h45.18.048,Slot Machine Game,2023.1.3,MacIntel,58.13953488,,,,,,,,,,,,,,,,,,,,,,,,,,,320,,,,,,,,,,,,,,,,,,,,,9,9,,,586.0371,7,up,0.1667,,1,0.3,"[3,2,1]",0.881963439,stimuli/card_10_transparent.png,10,7,0,7,0,1,,,,,,,,,,
,,,,5dd984381096ea907a3272f2,B,2024-06-22_18h45.18.048,Slot Machine Game,2023.1.3,MacIntel,58.13953488,,,,,,,,,,,,,,,,,,,,,,,,,,,330,,,,,,,,,,,,,,,,,,,,,9,9,,,588.0351,8,up,0.2178,,0.5,0.3,"[3,1,2]",0.103263484,stimuli/card_10_transparent.png,10,8,0,8,0,1,,,,,,,,,,
,,,,5dd984381096ea907a3272f2,B,2024-06-22_18h45.18.048,Slot Machine Game,2023.1.3,MacIntel,58.13953488,,,,,,,,,,,,,,,,,,,,,,,,,,,330,,,,,,,,,,,,,,,,,,,,,9,9,,,589.5842,9,right,0.0335,,0.5,0.3,"[3,1,2]",0.035286365,stimuli/card_0_transparent.png,0,9,0,9,0,1,,,,,,,,,,
,,,,5dd984381096ea907a3272f2,B,2024-06-22_18h45.18.048,Slot Machine Game,2023.1.3,MacIntel,58.13953488,,,,,,,,,,,,,,,,,,,,,,,,,,,340,,,,,,,,,,,,,,,,,,,,,9,9,,,590.9503,10,right,0.1536,,1.5,0.3,"[3,1,2]",0.625418935,stimuli/card_10_transparent.png,10,10,0,10,0,1,,,,,,,,,,
,,,,5dd984381096ea907a3272f2,B,2024-06-22_18h45.18.048,Slot Machine Game,2023.1.3,MacIntel,58.13953488,,,,,,,,,,,,,,,,,,,,,,,,,,,340,,,,,,,,,,,,,,,,,,,,,9,9,,,593.4317,11,up,0.9185,,0.5,0.3,"[3,1,2]",0.091159409,stimuli/card_0_transparent.png,0,11,0,11,0,1,,,,,,,,,,
,,,,5dd984381096ea907a3272f2,B,2024-06-22_18h45.18.048,Slot Machine Game,2023.1.3,MacIntel,58.13953488,,,,,,,,,,,,,,,,,,,,,,,,,,,340,,,,,,,,,,,,,,,,,,,,,9,9,,,595.6804,12,left,0.1715,,0.5,0.3,"[3,1,2]",0.499487541,stimuli/card_0_transparent.png,0,12,0,12,0,1,,,,,,,,,,
,,,,5dd984381096ea907a3272f2,B,2024-06-22_18h45.18.048,Slot Machine Game,2023.1.3,MacIntel,58.13953488,,,,,,,,,,,,,,,,,,,,,,,,,,,340,,,,,,,,,,,,,,,,,,,,,9,9,,,597.1784,13,left,0.1908,,0.5,0.3,"[3,1,2]",0.247097495,stimuli/card_0_transparent.png,0,13,0,13,0,1,,,,,,,,,,
,,,,5dd984381096ea907a3272f2,B,2024-06-22_18h45.18.048,Slot Machine Game,2023.1.3,MacIntel,58.13953488,,,,,,,,,,,,,,,,,,,,,,,,,,,440,,,,,,,,,,,,,,,,,,,,,9,9,,,598.694,14,up,0.1161,,0.5,0.3,"[3,1,2]",0.592677942,stimuli/card_100_transparent.png,100,14,0,14,0,1,,,,,,,,,,
,,,,5dd984381096ea907a3272f2,B,2024-06-22_18h45.18.048,Slot Machine Game,2023.1.3,MacIntel,58.13953488,,,,,,,,,,,,,,,,,,,,,,,,,,,,,,,,,,,600.1441,,,,,,,,,,,,,,,,,,,,,,,,,,,,,,,,,"[1110,760,910,760,830,250,760,1050,440]",8,0,8,0,1,,,,
,,,,5dd984381096ea907a3272f2,B,2024-06-22_18h45.18.048,Slot Machine Game,2023.1.3,MacIntel,58.13953488,,,,,,,,,,,,,,,,,,,,,,,,,,,100,,,,,,,,,,,,,,,,,,,,,10,10,"[10,15]","[[3,1,2],[1,3,2]]",605.1593,0,left,0.166,,1.5,0.3,"[3,1,2]",0.071145227,stimuli/card_100_transparent.png,100,0,0,0,0,1,,,,,,,,,,
,,,,5dd984381096ea907a3272f2,B,2024-06-22_18h45.18.048,Slot Machine Game,2023.1.3,MacIntel,58.13953488,,,,,,,,,,,,,,,,,,,,,,,,,,,100,,,,,,,,,,,,,,,,,,,,,10,10,,,607.6548,1,left,0.134,,1.5,0.3,"[3,1,2]",0.998756453,stimuli/card_0_transparent.png,0,1,0,1,0,1,,,,,,,,,,
,,,,5dd984381096ea907a3272f2,B,2024-06-22_18h45.18.048,Slot Machine Game,2023.1.3,MacIntel,58.13953488,,,,,,,,,,,,,,,,,,,,,,,,,,,100,,,,,,,,,,,,,,,,,,,,,10,10,,,610.1036,2,left,0.0187,,1,0.3,"[3,1,2]",0.719293968,stimuli/card_0_transparent.png,0,2,0,2,0,1,,,,,,,,,,
,,,,5dd984381096ea907a3272f2,B,2024-06-22_18h45.18.048,Slot Machine Game,2023.1.3,MacIntel,58.13953488,,,,,,,,,,,,,,,,,,,,,,,,,,,100,,,,,,,,,,,,,,,,,,,,,10,10,,,611.9533,3,up,0.3172,,1,0.3,"[3,1,2]",0.093182322,stimuli/card_0_transparent.png,0,3,0,3,0,1,,,,,,,,,,
,,,,5dd984381096ea907a3272f2,B,2024-06-22_18h45.18.048,Slot Machine Game,2023.1.3,MacIntel,58.13953488,,,,,,,,,,,,,,,,,,,,,,,,,,,200,,,,,,,,,,,,,,,,,,,,,10,10,,,614.1013,4,up,0.0834,,1,0.3,"[3,1,2]",0.895549462,stimuli/card_100_transparent.png,100,4,0,4,0,1,,,,,,,,,,
,,,,5dd984381096ea907a3272f2,B,2024-06-22_18h45.18.048,Slot Machine Game,2023.1.3,MacIntel,58.13953488,,,,,,,,,,,,,,,,,,,,,,,,,,,300,,,,,,,,,,,,,,,,,,,,,10,10,,,616.0171,5,up,0.0004,,1.5,0.3,"[3,1,2]",0.58288843,stimuli/card_100_transparent.png,100,5,0,5,0,1,,,,,,,,,,
,,,,5dd984381096ea907a3272f2,B,2024-06-22_18h45.18.048,Slot Machine Game,2023.1.3,MacIntel,58.13953488,,,,,,,,,,,,,,,,,,,,,,,,,,,310,,,,,,,,,,,,,,,,,,,,,10,10,,,618.3487,6,up,0.1191,,0.5,0.3,"[3,1,2]",0.138876432,stimuli/card_10_transparent.png,10,6,0,6,0,1,,,,,,,,,,
,,,,5dd984381096ea907a3272f2,B,2024-06-22_18h45.18.048,Slot Machine Game,2023.1.3,MacIntel,58.13953488,,,,,,,,,,,,,,,,,,,,,,,,,,,310,,,,,,,,,,,,,,,,,,,,,10,10,,,619.7968,7,up,0.1346,,1.5,0.3,"[3,1,2]",0.046628112,stimuli/card_0_transparent.png,0,7,0,7,0,1,,,,,,,,,,
,,,,5dd984381096ea907a3272f2,B,2024-06-22_18h45.18.048,Slot Machine Game,2023.1.3,MacIntel,58.13953488,,,,,,,,,,,,,,,,,,,,,,,,,,,320,,,,,,,,,,,,,,,,,,,,,10,10,,,622.2628,8,right,0.0221,,0.5,0.3,"[3,1,2]",0.64702269,stimuli/card_10_transparent.png,10,8,0,8,0,1,,,,,,,,,,
,,,,5dd984381096ea907a3272f2,B,2024-06-22_18h45.18.048,Slot Machine Game,2023.1.3,MacIntel,58.13953488,,,,,,,,,,,,,,,,,,,,,,,,,,,330,,,,,,,,,,,,,,,,,,,,,10,10,,,623.6119,9,right,0.0229,,1.5,0.3,"[3,1,2]",0.654561265,stimuli/card_10_transparent.png,10,9,0,9,0,1,,,,,,,,,,
,,,,5dd984381096ea907a3272f2,B,2024-06-22_18h45.18.048,Slot Machine Game,2023.1.3,MacIntel,58.13953488,,,,,,,,,,,,,,,,,,,,,,,,,,,330,,,,,,,,,,,,,,,,,,,,,10,10,,,625.9604,10,up,0.109,,1.5,0.3,"[1,3,2]",0.824427806,stimuli/card_0_transparent.png,0,10,0,10,0,1,,,,,,,,,,
,,,,5dd984381096ea907a3272f2,B,2024-06-22_18h45.18.048,Slot Machine Game,2023.1.3,MacIntel,58.13953488,,,,,,,,,,,,,,,,,,,,,,,,,,,430,,,,,,,,,,,,,,,,,,,,,10,10,,,628.3914,11,left,0.0823,,1,0.3,"[1,3,2]",0.222471184,stimuli/card_100_transparent.png,100,11,0,11,0,1,,,,,,,,,,
,,,,5dd984381096ea907a3272f2,B,2024-06-22_18h45.18.048,Slot Machine Game,2023.1.3,MacIntel,58.13953488,,,,,,,,,,,,,,,,,,,,,,,,,,,530,,,,,,,,,,,,,,,,,,,,,10,10,,,630.3064,12,left,0.1717,,0.5,0.3,"[1,3,2]",0.734798163,stimuli/card_100_transparent.png,100,12,0,12,0,1,,,,,,,,,,
,,,,5dd984381096ea907a3272f2,B,2024-06-22_18h45.18.048,Slot Machine Game,2023.1.3,MacIntel,58.13953488,,,,,,,,,,,,,,,,,,,,,,,,,,,630,,,,,,,,,,,,,,,,,,,,,10,10,,,631.8062,13,left,0.0019,,0.5,0.3,"[1,3,2]",0.262968742,stimuli/card_100_transparent.png,100,13,0,13,0,1,,,,,,,,,,
,,,,5dd984381096ea907a3272f2,B,2024-06-22_18h45.18.048,Slot Machine Game,2023.1.3,MacIntel,58.13953488,,,,,,,,,,,,,,,,,,,,,,,,,,,730,,,,,,,,,,,,,,,,,,,,,10,10,,,633.1387,14,left,0.003,,0.5,0.3,"[1,3,2]",0.826650802,stimuli/card_100_transparent.png,100,14,0,14,0,1,,,,,,,,,,
,,,,5dd984381096ea907a3272f2,B,2024-06-22_18h45.18.048,Slot Machine Game,2023.1.3,MacIntel,58.13953488,,,,,,,,,,,,,,,,,,,,,,,,,,,,,,,,,,,634.4708,,,,,,,,,,,,,,,,,,,,,,,,,,,,,,,,,"[1110,760,910,760,830,250,760,1050,440,730]",9,0,9,0,1,,,,
,,,,5dd984381096ea907a3272f2,B,2024-06-22_18h45.18.048,Slot Machine Game,2023.1.3,MacIntel,58.13953488,,,,,,,,,,,,,,,,,,,,,,,,,,,,,,,,,,,,,,,,,,,,,,,,,,,,,,,,,,,,,,,,,,,,,,,,,,9,"[1110,760,910,760,830,250,760,1050,440,730]",4.4,2024-06-22_18h56.01.630
