key_resp_welcome_started,key_resp_welcome_keys,key_resp_welcome_rt,key_resp_welcome_duration,prolific_id,path_id,date,expName,psychopyVersion,OS,frameRate,key_resp_instruction1_started,key_resp_instruction1_keys,key_resp_instruction1_rt,key_resp_instruction1_duration,key_resp_instruction2_started,key_resp_instruction2_keys,key_resp_instruction2_rt,key_resp_instruction2_duration,key_resp_instruction3_started,key_resp_instruction3_keys,key_resp_instruction3_rt,key_resp_instruction3_duration,key_resp_instruction4_started,key_resp_instruction4_keys,key_resp_instruction4_rt,key_resp_instruction4_duration,practiceCondition,practice_reward_seqs,practice_trial_started,practice_trial_num,practice_resp_rt,practice_resp_duration,practice_resp_keys,prac_presentationInterval,"practice_reward_seq: 2,1,3",reward_img,cumulative_reward,trial_reward,practice_trials.thisRepN,practice_trials.thisTrialN,practice_trials.thisN,practice_trials.thisIndex,practice_trials.ran,"practice_reward_seq: 2,3,1",block_break_started,"practice_reward_seq: 1,3,2","practice_reward_seq: 3,1,2",practice_end_time,practice_end_keys,practice_end_rt,practice_end_duration,main_instruction_text_started,block_condition,block_order_indices,main_instruction_keys,main_instruction_rt,main_instruction_duration,block_number,block_assignment,current_condition,main_reward_seqs,main_trial_started,main_trial_num,main_trial_keys,main_trial_rt,main_trial_duration,main_presentationInterval,reward_presentation_time,main_reward_seq,reward_rand_val,main_reward_img,current_reward,main_trials.thisRepN,main_trials.thisTrialN,main_trials.thisN,main_trials.thisIndex,main_trials.ran,block_reward,block.thisRepN,block.thisTrialN,block.thisN,block.thisIndex,block.ran,block_reward.length,block_reward_all,reward_amount,date_end_task
0.001,space,1.8912,,5e14ffee6f6c63b33cf77eb3,A,2024-07-02_12h32.08.010,Slot Machine Game,2023.1.3,Linux x86_64,60.60606061,,,,,,,,,,,,,,,,,,,,,,,,,,,,,,,,,,,,,,,,,,,,,,,,,,,,,,,,,,,,,,,,,,,,,,,,,,,,,
,,,,5e14ffee6f6c63b33cf77eb3,A,2024-07-02_12h32.08.010,Slot Machine Game,2023.1.3,Linux x86_64,60.60606061,1.9259,space,4.4502,,,,,,,,,,,,,,,,,,,,,,,,,,,,,,,,,,,,,,,,,,,,,,,,,,,,,,,,,,,,,,,,,,,,,,,,,,
,,,,5e14ffee6f6c63b33cf77eb3,A,2024-07-02_12h32.08.010,Slot Machine Game,2023.1.3,Linux x86_64,60.60606061,,,,,6.4026,space,24.5935,,,,,,,,,,,,,,,,,,,,,,,,,,,,,,,,,,,,,,,,,,,,,,,,,,,,,,,,,,,,,,,,,,,,,,
,,,,5e14ffee6f6c63b33cf77eb3,A,2024-07-02_12h32.08.010,Slot Machine Game,2023.1.3,Linux x86_64,60.60606061,,,,,,,,,31.0554,space,10.0088,,,,,,,,,,,,,,,,,,,,,,,,,,,,,,,,,,,,,,,,,,,,,,,,,,,,,,,,,,,,,,,,,,
,,,,5e14ffee6f6c63b33cf77eb3,A,2024-07-02_12h32.08.010,Slot Machine Game,2023.1.3,Linux x86_64,60.60606061,,,,,,,,,,,,,,,,,,,,,,,,,,,,,,,,,,,,,,,,,,,,,,,,,,,,,,,,,,,,,,,,,,,,,,,,,,,,,
,,,,5e14ffee6f6c63b33cf77eb3,A,2024-07-02_12h32.08.010,Slot Machine Game,2023.1.3,Linux x86_64,60.60606061,,,,,,,,,,,,,183.2036,space,4.7172,,,,,,,,,,,,,,,,,,,,,,,,,,,,,,,,,,,,,,,,,,,,,,,,,,,,,,,,,,,,,,
,,,,5e14ffee6f6c63b33cf77eb3,A,2024-07-02_12h32.08.010,Slot Machine Game,2023.1.3,Linux x86_64,60.60606061,,,,,,,,,,,,,,,,,"[9,15]","[[2,1,3],[2,3,1]]",187.9778,0,0.7965,,left,0.5,,stimuli/card_10_transparent.png,10,10,0,0,0,0,1,,,,,,,,,,,,,,,,,,,,,,,,,,,,,,,,,,,,,,,,,,,,
,,,,5e14ffee6f6c63b33cf77eb3,A,2024-07-02_12h32.08.010,Slot Machine Game,2023.1.3,Linux x86_64,60.60606061,,,,,,,,,,,,,,,,,,,190.0992,1,0.2172,,up,1,,stimuli/card_100_transparent.png,110,100,1,0,1,0,1,,,,,,,,,,,,,,,,,,,,,,,,,,,,,,,,,,,,,,,,,,,,
,,,,5e14ffee6f6c63b33cf77eb3,A,2024-07-02_12h32.08.010,Slot Machine Game,2023.1.3,Linux x86_64,60.60606061,,,,,,,,,,,,,,,,,,,192.1446,2,2.6191,,up,1,,stimuli/card_100_transparent.png,210,100,2,0,2,0,1,,,,,,,,,,,,,,,,,,,,,,,,,,,,,,,,,,,,,,,,,,,,
,,,,5e14ffee6f6c63b33cf77eb3,A,2024-07-02_12h32.08.010,Slot Machine Game,2023.1.3,Linux x86_64,60.60606061,,,,,,,,,,,,,,,,,,,196.5889,3,0.5659,,up,1.5,,stimuli/card_100_transparent.png,310,100,3,0,3,0,1,,,,,,,,,,,,,,,,,,,,,,,,,,,,,,,,,,,,,,,,,,,,
,,,,5e14ffee6f6c63b33cf77eb3,A,2024-07-02_12h32.08.010,Slot Machine Game,2023.1.3,Linux x86_64,60.60606061,,,,,,,,,,,,,,,,,,,199.4849,4,1.1996,,up,1,,stimuli/card_100_transparent.png,410,100,4,0,4,0,1,,,,,,,,,,,,,,,,,,,,,,,,,,,,,,,,,,,,,,,,,,,,
,,,,5e14ffee6f6c63b33cf77eb3,A,2024-07-02_12h32.08.010,Slot Machine Game,2023.1.3,Linux x86_64,60.60606061,,,,,,,,,,,,,,,,,,,202.5142,5,0.9318,,up,0.5,,stimuli/card_100_transparent.png,510,100,5,0,5,0,1,,,,,,,,,,,,,,,,,,,,,,,,,,,,,,,,,,,,,,,,,,,,
,,,,5e14ffee6f6c63b33cf77eb3,A,2024-07-02_12h32.08.010,Slot Machine Game,2023.1.3,Linux x86_64,60.60606061,,,,,,,,,,,,,,,,,,,204.7774,6,0.4845,,up,0.5,,stimuli/card_100_transparent.png,610,100,6,0,6,0,1,,,,,,,,,,,,,,,,,,,,,,,,,,,,,,,,,,,,,,,,,,,,
,,,,5e14ffee6f6c63b33cf77eb3,A,2024-07-02_12h32.08.010,Slot Machine Game,2023.1.3,Linux x86_64,60.60606061,,,,,,,,,,,,,,,,,,,206.5918,7,0.42,,up,0.5,,stimuli/card_0_transparent.png,610,0,7,0,7,0,1,,,,,,,,,,,,,,,,,,,,,,,,,,,,,,,,,,,,,,,,,,,,
,,,,5e14ffee6f6c63b33cf77eb3,A,2024-07-02_12h32.08.010,Slot Machine Game,2023.1.3,Linux x86_64,60.60606061,,,,,,,,,,,,,,,,,,,208.3389,8,0.3359,,right,0.5,,stimuli/card_0_transparent.png,610,0,8,0,8,0,1,,,,,,,,,,,,,,,,,,,,,,,,,,,,,,,,,,,,,,,,,,,,
,,,,5e14ffee6f6c63b33cf77eb3,A,2024-07-02_12h32.08.010,Slot Machine Game,2023.1.3,Linux x86_64,60.60606061,,,,,,,,,,,,,,,,,,,210.004,9,0.3209,,left,0.5,,stimuli/card_10_transparent.png,620,10,9,0,9,0,1,,,,,,,,,,,,,,,,,,,,,,,,,,,,,,,,,,,,,,,,,,,,
,,,,5e14ffee6f6c63b33cf77eb3,A,2024-07-02_12h32.08.010,Slot Machine Game,2023.1.3,Linux x86_64,60.60606061,,,,,,,,,,,,,,,,,,,211.6512,10,0.0337,,left,0.5,,stimuli/card_0_transparent.png,620,0,10,0,10,0,1,,,,,,,,,,,,,,,,,,,,,,,,,,,,,,,,,,,,,,,,,,,,
,,,,5e14ffee6f6c63b33cf77eb3,A,2024-07-02_12h32.08.010,Slot Machine Game,2023.1.3,Linux x86_64,60.60606061,,,,,,,,,,,,,,,,,,,213.0156,11,0.302,,right,0.5,,stimuli/card_100_transparent.png,720,100,11,0,11,0,1,,,,,,,,,,,,,,,,,,,,,,,,,,,,,,,,,,,,,,,,,,,,
,,,,5e14ffee6f6c63b33cf77eb3,A,2024-07-02_12h32.08.010,Slot Machine Game,2023.1.3,Linux x86_64,60.60606061,,,,,,,,,,,,,,,,,,,214.6471,12,0.0987,,right,1.5,,stimuli/card_100_transparent.png,820,100,12,0,12,0,1,,,,,,,,,,,,,,,,,,,,,,,,,,,,,,,,,,,,,,,,,,,,
,,,,5e14ffee6f6c63b33cf77eb3,A,2024-07-02_12h32.08.010,Slot Machine Game,2023.1.3,Linux x86_64,60.60606061,,,,,,,,,,,,,,,,,,,217.077,13,0.188,,right,0.5,,stimuli/card_100_transparent.png,920,100,13,0,13,0,1,,,,,,,,,,,,,,,,,,,,,,,,,,,,,,,,,,,,,,,,,,,,
,,,,5e14ffee6f6c63b33cf77eb3,A,2024-07-02_12h32.08.010,Slot Machine Game,2023.1.3,Linux x86_64,60.60606061,,,,,,,,,,,,,,,,,,,218.5913,14,0.3505,,right,0.5,,stimuli/card_100_transparent.png,1020,100,14,0,14,0,1,,,,,,,,,,,,,,,,,,,,,,,,,,,,,,,,,,,,,,,,,,,,
,,,,5e14ffee6f6c63b33cf77eb3,A,2024-07-02_12h32.08.010,Slot Machine Game,2023.1.3,Linux x86_64,60.60606061,,,,,,,,,,,,,,,,,"[6,15]","[[1,3,2],[3,1,2]]",225.3121,0,0.3346,,left,1.5,,stimuli/card_100_transparent.png,100,100,0,0,0,0,1,,220.2984,,,,,,,,,,,,,,,,,,,,,,,,,,,,,,,,,,,,,,,,,,
,,,,5e14ffee6f6c63b33cf77eb3,A,2024-07-02_12h32.08.010,Slot Machine Game,2023.1.3,Linux x86_64,60.60606061,,,,,,,,,,,,,,,,,,,227.9786,1,2.4999,,left,0.5,,stimuli/card_100_transparent.png,200,100,1,0,1,0,1,,,,,,,,,,,,,,,,,,,,,,,,,,,,,,,,,,,,,,,,,,,,
,,,,5e14ffee6f6c63b33cf77eb3,A,2024-07-02_12h32.08.010,Slot Machine Game,2023.1.3,Linux x86_64,60.60606061,,,,,,,,,,,,,,,,,,,231.8075,2,0.2846,,left,0.5,,stimuli/card_100_transparent.png,300,100,2,0,2,0,1,,,,,,,,,,,,,,,,,,,,,,,,,,,,,,,,,,,,,,,,,,,,
,,,,5e14ffee6f6c63b33cf77eb3,A,2024-07-02_12h32.08.010,Slot Machine Game,2023.1.3,Linux x86_64,60.60606061,,,,,,,,,,,,,,,,,,,233.4208,3,1.6636,,left,1.5,,stimuli/card_100_transparent.png,400,100,3,0,3,0,1,,,,,,,,,,,,,,,,,,,,,,,,,,,,,,,,,,,,,,,,,,,,
,,,,5e14ffee6f6c63b33cf77eb3,A,2024-07-02_12h32.08.010,Slot Machine Game,2023.1.3,Linux x86_64,60.60606061,,,,,,,,,,,,,,,,,,,237.4157,4,2.9866,,left,1.5,,stimuli/card_100_transparent.png,500,100,4,0,4,0,1,,,,,,,,,,,,,,,,,,,,,,,,,,,,,,,,,,,,,,,,,,,,
,,,,5e14ffee6f6c63b33cf77eb3,A,2024-07-02_12h32.08.010,Slot Machine Game,2023.1.3,Linux x86_64,60.60606061,,,,,,,,,,,,,,,,,,,242.7247,5,0.0345,,left,1,,stimuli/card_100_transparent.png,600,100,5,0,5,0,1,,,,,,,,,,,,,,,,,,,,,,,,,,,,,,,,,,,,,,,,,,,,
,,,,5e14ffee6f6c63b33cf77eb3,A,2024-07-02_12h32.08.010,Slot Machine Game,2023.1.3,Linux x86_64,60.60606061,,,,,,,,,,,,,,,,,,,244.5889,6,3.0602,,left,1.5,,stimuli/card_100_transparent.png,700,100,6,0,6,0,1,,,,,,,,,,,,,,,,,,,,,,,,,,,,,,,,,,,,,,,,,,,,
,,,,5e14ffee6f6c63b33cf77eb3,A,2024-07-02_12h32.08.010,Slot Machine Game,2023.1.3,Linux x86_64,60.60606061,,,,,,,,,,,,,,,,,,,249.9821,7,3.0974,,left,1,,stimuli/card_0_transparent.png,700,0,7,0,7,0,1,,,,,,,,,,,,,,,,,,,,,,,,,,,,,,,,,,,,,,,,,,,,
,,,,5e14ffee6f6c63b33cf77eb3,A,2024-07-02_12h32.08.010,Slot Machine Game,2023.1.3,Linux x86_64,60.60606061,,,,,,,,,,,,,,,,,,,254.9079,8,0.5156,,up,0.5,,stimuli/card_100_transparent.png,800,100,8,0,8,0,1,,,,,,,,,,,,,,,,,,,,,,,,,,,,,,,,,,,,,,,,,,,,
,,,,5e14ffee6f6c63b33cf77eb3,A,2024-07-02_12h32.08.010,Slot Machine Game,2023.1.3,Linux x86_64,60.60606061,,,,,,,,,,,,,,,,,,,256.7556,9,1.4,,up,1.5,,stimuli/card_100_transparent.png,900,100,9,0,9,0,1,,,,,,,,,,,,,,,,,,,,,,,,,,,,,,,,,,,,,,,,,,,,
,,,,5e14ffee6f6c63b33cf77eb3,A,2024-07-02_12h32.08.010,Slot Machine Game,2023.1.3,Linux x86_64,60.60606061,,,,,,,,,,,,,,,,,,,260.4837,10,0.0712,,up,1.5,,stimuli/card_0_transparent.png,900,0,10,0,10,0,1,,,,,,,,,,,,,,,,,,,,,,,,,,,,,,,,,,,,,,,,,,,,
,,,,5e14ffee6f6c63b33cf77eb3,A,2024-07-02_12h32.08.010,Slot Machine Game,2023.1.3,Linux x86_64,60.60606061,,,,,,,,,,,,,,,,,,,262.8804,11,0.1009,,right,1.5,,stimuli/card_0_transparent.png,900,0,11,0,11,0,1,,,,,,,,,,,,,,,,,,,,,,,,,,,,,,,,,,,,,,,,,,,,
,,,,5e14ffee6f6c63b33cf77eb3,A,2024-07-02_12h32.08.010,Slot Machine Game,2023.1.3,Linux x86_64,60.60606061,,,,,,,,,,,,,,,,,,,265.3097,12,0.5661,,up,0.5,,stimuli/card_100_transparent.png,1000,100,12,0,12,0,1,,,,,,,,,,,,,,,,,,,,,,,,,,,,,,,,,,,,,,,,,,,,
,,,,5e14ffee6f6c63b33cf77eb3,A,2024-07-02_12h32.08.010,Slot Machine Game,2023.1.3,Linux x86_64,60.60606061,,,,,,,,,,,,,,,,,,,267.2087,13,0.3504,,up,1,,stimuli/card_100_transparent.png,1100,100,13,0,13,0,1,,,,,,,,,,,,,,,,,,,,,,,,,,,,,,,,,,,,,,,,,,,,
,,,,5e14ffee6f6c63b33cf77eb3,A,2024-07-02_12h32.08.010,Slot Machine Game,2023.1.3,Linux x86_64,60.60606061,,,,,,,,,,,,,,,,,,,269.3882,14,0.1711,,up,1.5,,stimuli/card_100_transparent.png,1200,100,14,0,14,0,1,,,,,,,,,,,,,,,,,,,,,,,,,,,,,,,,,,,,,,,,,,,,
,,,,5e14ffee6f6c63b33cf77eb3,A,2024-07-02_12h32.08.010,Slot Machine Game,2023.1.3,Linux x86_64,60.60606061,,,,,,,,,,,,,,,,,,,,,,,,,,,,,,,,,,,271.8844,,,276.8793,space,1.918,,,,,,,,,,,,,,,,,,,,,,,,,,,,,,,,,,,,,
,,,,5e14ffee6f6c63b33cf77eb3,A,2024-07-02_12h32.08.010,Slot Machine Game,2023.1.3,Linux x86_64,60.60606061,,,,,,,,,,,,,,,,,,,,,,,,,,,,,,,,,,,,,,,,,,278.8259,1,"[0,1,2,3,4,5,6,7,8,9]",space,2.4579,,,,,,,,,,,,,,,,,,,,,,,,,,,,,,,
,,,,5e14ffee6f6c63b33cf77eb3,A,2024-07-02_12h32.08.010,Slot Machine Game,2023.1.3,Linux x86_64,60.60606061,,,,,,,,,,,,,,,,,,,,,,,,,,,10,,,,,,,,,,,,,,,,,,,,,1,1,"[12,15]","[[2,1,3],[2,3,1]]",281.3224,0,up,0.1355,,1,0.3,"[2,1,3]",0.194078097,stimuli/card_10_transparent.png,10,0,0,0,0,1,,,,,,,,,,
,,,,5e14ffee6f6c63b33cf77eb3,A,2024-07-02_12h32.08.010,Slot Machine Game,2023.1.3,Linux x86_64,60.60606061,,,,,,,,,,,,,,,,,,,,,,,,,,,20,,,,,,,,,,,,,,,,,,,,,1,1,,,283.2867,1,left,0.2163,,1,0.3,"[2,1,3]",0.503420408,stimuli/card_10_transparent.png,10,1,0,1,0,1,,,,,,,,,,
,,,,5e14ffee6f6c63b33cf77eb3,A,2024-07-02_12h32.08.010,Slot Machine Game,2023.1.3,Linux x86_64,60.60606061,,,,,,,,,,,,,,,,,,,,,,,,,,,30,,,,,,,,,,,,,,,,,,,,,1,1,,,285.3327,2,left,0.8819,,1,0.3,"[2,1,3]",0.214473113,stimuli/card_10_transparent.png,10,2,0,2,0,1,,,,,,,,,,
,,,,5e14ffee6f6c63b33cf77eb3,A,2024-07-02_12h32.08.010,Slot Machine Game,2023.1.3,Linux x86_64,60.60606061,,,,,,,,,,,,,,,,,,,,,,,,,,,130,,,,,,,,,,,,,,,,,,,,,1,1,,,288.0455,3,up,0.0237,,1.5,0.3,"[2,1,3]",0.638713159,stimuli/card_100_transparent.png,100,3,0,3,0,1,,,,,,,,,,
,,,,5e14ffee6f6c63b33cf77eb3,A,2024-07-02_12h32.08.010,Slot Machine Game,2023.1.3,Linux x86_64,60.60606061,,,,,,,,,,,,,,,,,,,,,,,,,,,230,,,,,,,,,,,,,,,,,,,,,1,1,,,290.4088,4,up,2.4474,,0.5,0.3,"[2,1,3]",0.678476359,stimuli/card_100_transparent.png,100,4,0,4,0,1,,,,,,,,,,
,,,,5e14ffee6f6c63b33cf77eb3,A,2024-07-02_12h32.08.010,Slot Machine Game,2023.1.3,Linux x86_64,60.60606061,,,,,,,,,,,,,,,,,,,,,,,,,,,330,,,,,,,,,,,,,,,,,,,,,1,1,,,294.1712,5,up,0.3298,,1.5,0.3,"[2,1,3]",0.786021089,stimuli/card_100_transparent.png,100,5,0,5,0,1,,,,,,,,,,
,,,,5e14ffee6f6c63b33cf77eb3,A,2024-07-02_12h32.08.010,Slot Machine Game,2023.1.3,Linux x86_64,60.60606061,,,,,,,,,,,,,,,,,,,,,,,,,,,330,,,,,,,,,,,,,,,,,,,,,1,1,,,296.8335,6,up,2.898,,1.5,0.3,"[2,1,3]",0.083805608,stimuli/card_0_transparent.png,0,6,0,6,0,1,,,,,,,,,,
,,,,5e14ffee6f6c63b33cf77eb3,A,2024-07-02_12h32.08.010,Slot Machine Game,2023.1.3,Linux x86_64,60.60606061,,,,,,,,,,,,,,,,,,,,,,,,,,,330,,,,,,,,,,,,,,,,,,,,,1,1,,,302.0596,7,right,2.6817,,1.5,0.3,"[2,1,3]",0.580644631,stimuli/card_0_transparent.png,0,7,0,7,0,1,,,,,,,,,,
,,,,5e14ffee6f6c63b33cf77eb3,A,2024-07-02_12h32.08.010,Slot Machine Game,2023.1.3,Linux x86_64,60.60606061,,,,,,,,,,,,,,,,,,,,,,,,,,,430,,,,,,,,,,,,,,,,,,,,,1,1,,,307.069,8,up,0.4341,,1.5,0.3,"[2,1,3]",0.53021298,stimuli/card_100_transparent.png,100,8,0,8,0,1,,,,,,,,,,
,,,,5e14ffee6f6c63b33cf77eb3,A,2024-07-02_12h32.08.010,Slot Machine Game,2023.1.3,Linux x86_64,60.60606061,,,,,,,,,,,,,,,,,,,,,,,,,,,530,,,,,,,,,,,,,,,,,,,,,1,1,,,309.8322,9,up,0.2687,,0.5,0.3,"[2,1,3]",0.919445656,stimuli/card_100_transparent.png,100,9,0,9,0,1,,,,,,,,,,
,,,,5e14ffee6f6c63b33cf77eb3,A,2024-07-02_12h32.08.010,Slot Machine Game,2023.1.3,Linux x86_64,60.60606061,,,,,,,,,,,,,,,,,,,,,,,,,,,630,,,,,,,,,,,,,,,,,,,,,1,1,,,311.4293,10,up,0.033,,0.5,0.3,"[2,1,3]",0.227448085,stimuli/card_100_transparent.png,100,10,0,10,0,1,,,,,,,,,,
,,,,5e14ffee6f6c63b33cf77eb3,A,2024-07-02_12h32.08.010,Slot Machine Game,2023.1.3,Linux x86_64,60.60606061,,,,,,,,,,,,,,,,,,,,,,,,,,,730,,,,,,,,,,,,,,,,,,,,,1,1,,,312.7948,11,up,0.0663,,1,0.3,"[2,1,3]",0.34824648,stimuli/card_100_transparent.png,100,11,0,11,0,1,,,,,,,,,,
,,,,5e14ffee6f6c63b33cf77eb3,A,2024-07-02_12h32.08.010,Slot Machine Game,2023.1.3,Linux x86_64,60.60606061,,,,,,,,,,,,,,,,,,,,,,,,,,,740,,,,,,,,,,,,,,,,,,,,,1,1,,,314.6931,12,up,0.0496,,1.5,0.3,"[2,3,1]",0.120969408,stimuli/card_10_transparent.png,10,12,0,12,0,1,,,,,,,,,,
,,,,5e14ffee6f6c63b33cf77eb3,A,2024-07-02_12h32.08.010,Slot Machine Game,2023.1.3,Linux x86_64,60.60606061,,,,,,,,,,,,,,,,,,,,,,,,,,,840,,,,,,,,,,,,,,,,,,,,,1,1,,,317.0721,13,right,0.1024,,0.5,0.3,"[2,3,1]",0.760061134,stimuli/card_100_transparent.png,100,13,0,13,0,1,,,,,,,,,,
,,,,5e14ffee6f6c63b33cf77eb3,A,2024-07-02_12h32.08.010,Slot Machine Game,2023.1.3,Linux x86_64,60.60606061,,,,,,,,,,,,,,,,,,,,,,,,,,,850,,,,,,,,,,,,,,,,,,,,,1,1,,,318.5033,14,right,0.0021,,1.5,0.3,"[2,3,1]",0.199114922,stimuli/card_10_transparent.png,10,14,0,14,0,1,,,,,,,,,,
,,,,5e14ffee6f6c63b33cf77eb3,A,2024-07-02_12h32.08.010,Slot Machine Game,2023.1.3,Linux x86_64,60.60606061,,,,,,,,,,,,,,,,,,,,,,,,,,,,,,,,,,,320.8338,,,,,,,,,,,,,,,,,,,,,,,,,,,,,,,,,[850],0,0,0,0,1,,,,
,,,,5e14ffee6f6c63b33cf77eb3,A,2024-07-02_12h32.08.010,Slot Machine Game,2023.1.3,Linux x86_64,60.60606061,,,,,,,,,,,,,,,,,,,,,,,,,,,0,,,,,,,,,,,,,,,,,,,,,2,2,"[6,15]","[[1,3,2],[3,2,1]]",325.8554,0,up,0.3725,,1,0.3,"[1,3,2]",0.968718609,stimuli/card_0_transparent.png,0,0,0,0,0,1,,,,,,,,,,
,,,,5e14ffee6f6c63b33cf77eb3,A,2024-07-02_12h32.08.010,Slot Machine Game,2023.1.3,Linux x86_64,60.60606061,,,,,,,,,,,,,,,,,,,,,,,,,,,100,,,,,,,,,,,,,,,,,,,,,2,2,,,328.0406,1,left,0.0851,,1.5,0.3,"[1,3,2]",0.600378615,stimuli/card_100_transparent.png,100,1,0,1,0,1,,,,,,,,,,
,,,,5e14ffee6f6c63b33cf77eb3,A,2024-07-02_12h32.08.010,Slot Machine Game,2023.1.3,Linux x86_64,60.60606061,,,,,,,,,,,,,,,,,,,,,,,,,,,200,,,,,,,,,,,,,,,,,,,,,2,2,,,330.4541,2,left,1.539,,0.5,0.3,"[1,3,2]",0.8636953,stimuli/card_100_transparent.png,100,2,0,2,0,1,,,,,,,,,,
,,,,5e14ffee6f6c63b33cf77eb3,A,2024-07-02_12h32.08.010,Slot Machine Game,2023.1.3,Linux x86_64,60.60606061,,,,,,,,,,,,,,,,,,,,,,,,,,,300,,,,,,,,,,,,,,,,,,,,,2,2,,,333.316,3,left,0.2365,,1,0.3,"[1,3,2]",0.64187216,stimuli/card_100_transparent.png,100,3,0,3,0,1,,,,,,,,,,
,,,,5e14ffee6f6c63b33cf77eb3,A,2024-07-02_12h32.08.010,Slot Machine Game,2023.1.3,Linux x86_64,60.60606061,,,,,,,,,,,,,,,,,,,,,,,,,,,300,,,,,,,,,,,,,,,,,,,,,2,2,,,335.38,4,left,0.0376,,1.5,0.3,"[1,3,2]",0.062369832,stimuli/card_0_transparent.png,0,4,0,4,0,1,,,,,,,,,,
,,,,5e14ffee6f6c63b33cf77eb3,A,2024-07-02_12h32.08.010,Slot Machine Game,2023.1.3,Linux x86_64,60.60606061,,,,,,,,,,,,,,,,,,,,,,,,,,,300,,,,,,,,,,,,,,,,,,,,,2,2,,,337.7435,5,up,0.4232,,1,0.3,"[1,3,2]",0.567031868,stimuli/card_0_transparent.png,0,5,0,5,0,1,,,,,,,,,,
,,,,5e14ffee6f6c63b33cf77eb3,A,2024-07-02_12h32.08.010,Slot Machine Game,2023.1.3,Linux x86_64,60.60606061,,,,,,,,,,,,,,,,,,,,,,,,,,,300,,,,,,,,,,,,,,,,,,,,,2,2,,,339.9905,6,left,1.3981,,1.5,0.3,"[3,2,1]",0.621042111,stimuli/card_0_transparent.png,0,6,0,6,0,1,,,,,,,,,,
,,,,5e14ffee6f6c63b33cf77eb3,A,2024-07-02_12h32.08.010,Slot Machine Game,2023.1.3,Linux x86_64,60.60606061,,,,,,,,,,,,,,,,,,,,,,,,,,,310,,,,,,,,,,,,,,,,,,,,,2,2,,,343.7184,7,up,0.0667,,0.5,0.3,"[3,2,1]",0.774197747,stimuli/card_10_transparent.png,10,7,0,7,0,1,,,,,,,,,,
,,,,5e14ffee6f6c63b33cf77eb3,A,2024-07-02_12h32.08.010,Slot Machine Game,2023.1.3,Linux x86_64,60.60606061,,,,,,,,,,,,,,,,,,,,,,,,,,,320,,,,,,,,,,,,,,,,,,,,,2,2,,,345.1167,8,right,0.0346,,0.5,0.3,"[3,2,1]",0.136467085,stimuli/card_10_transparent.png,10,8,0,8,0,1,,,,,,,,,,
,,,,5e14ffee6f6c63b33cf77eb3,A,2024-07-02_12h32.08.010,Slot Machine Game,2023.1.3,Linux x86_64,60.60606061,,,,,,,,,,,,,,,,,,,,,,,,,,,420,,,,,,,,,,,,,,,,,,,,,2,2,,,346.4815,9,right,1.3668,,1,0.3,"[3,2,1]",0.240409325,stimuli/card_100_transparent.png,100,9,0,9,0,1,,,,,,,,,,
,,,,5e14ffee6f6c63b33cf77eb3,A,2024-07-02_12h32.08.010,Slot Machine Game,2023.1.3,Linux x86_64,60.60606061,,,,,,,,,,,,,,,,,,,,,,,,,,,430,,,,,,,,,,,,,,,,,,,,,2,2,,,349.6772,10,right,0.1686,,1,0.3,"[3,2,1]",0.131450592,stimuli/card_10_transparent.png,10,10,0,10,0,1,,,,,,,,,,
,,,,5e14ffee6f6c63b33cf77eb3,A,2024-07-02_12h32.08.010,Slot Machine Game,2023.1.3,Linux x86_64,60.60606061,,,,,,,,,,,,,,,,,,,,,,,,,,,530,,,,,,,,,,,,,,,,,,,,,2,2,,,351.6772,11,right,0.0682,,1,0.3,"[3,2,1]",0.356400472,stimuli/card_100_transparent.png,100,11,0,11,0,1,,,,,,,,,,
,,,,5e14ffee6f6c63b33cf77eb3,A,2024-07-02_12h32.08.010,Slot Machine Game,2023.1.3,Linux x86_64,60.60606061,,,,,,,,,,,,,,,,,,,,,,,,,,,630,,,,,,,,,,,,,,,,,,,,,2,2,,,353.572,12,right,0.1512,,1,0.3,"[3,2,1]",0.637458382,stimuli/card_100_transparent.png,100,12,0,12,0,1,,,,,,,,,,
,,,,5e14ffee6f6c63b33cf77eb3,A,2024-07-02_12h32.08.010,Slot Machine Game,2023.1.3,Linux x86_64,60.60606061,,,,,,,,,,,,,,,,,,,,,,,,,,,730,,,,,,,,,,,,,,,,,,,,,2,2,,,355.5523,13,right,0.0859,,1.5,0.3,"[3,2,1]",0.73132597,stimuli/card_100_transparent.png,100,13,0,13,0,1,,,,,,,,,,
,,,,5e14ffee6f6c63b33cf77eb3,A,2024-07-02_12h32.08.010,Slot Machine Game,2023.1.3,Linux x86_64,60.60606061,,,,,,,,,,,,,,,,,,,,,,,,,,,740,,,,,,,,,,,,,,,,,,,,,2,2,,,357.9657,14,right,0.1444,,1,0.3,"[3,2,1]",0.19424057,stimuli/card_10_transparent.png,10,14,0,14,0,1,,,,,,,,,,
,,,,5e14ffee6f6c63b33cf77eb3,A,2024-07-02_12h32.08.010,Slot Machine Game,2023.1.3,Linux x86_64,60.60606061,,,,,,,,,,,,,,,,,,,,,,,,,,,,,,,,,,,359.9471,,,,,,,,,,,,,,,,,,,,,,,,,,,,,,,,,"[850,740]",1,0,1,0,1,,,,
,,,,5e14ffee6f6c63b33cf77eb3,A,2024-07-02_12h32.08.010,Slot Machine Game,2023.1.3,Linux x86_64,60.60606061,,,,,,,,,,,,,,,,,,,,,,,,,,,0,,,,,,,,,,,,,,,,,,,,,3,3,"[15,15]","[[3,1,2],[3,1,2]]",364.9713,0,left,0.0997,,1,0.3,"[3,1,2]",0.928910912,stimuli/card_0_transparent.png,0,0,0,0,0,1,,,,,,,,,,
,,,,5e14ffee6f6c63b33cf77eb3,A,2024-07-02_12h32.08.010,Slot Machine Game,2023.1.3,Linux x86_64,60.60606061,,,,,,,,,,,,,,,,,,,,,,,,,,,100,,,,,,,,,,,,,,,,,,,,,3,3,,,366.8868,1,up,0.2014,,1,0.3,"[3,1,2]",0.37803458,stimuli/card_100_transparent.png,100,1,0,1,0,1,,,,,,,,,,
,,,,5e14ffee6f6c63b33cf77eb3,A,2024-07-02_12h32.08.010,Slot Machine Game,2023.1.3,Linux x86_64,60.60606061,,,,,,,,,,,,,,,,,,,,,,,,,,,200,,,,,,,,,,,,,,,,,,,,,3,3,,,368.9174,2,up,0.0184,,0.5,0.3,"[3,1,2]",0.685539943,stimuli/card_100_transparent.png,100,2,0,2,0,1,,,,,,,,,,
,,,,5e14ffee6f6c63b33cf77eb3,A,2024-07-02_12h32.08.010,Slot Machine Game,2023.1.3,Linux x86_64,60.60606061,,,,,,,,,,,,,,,,,,,,,,,,,,,300,,,,,,,,,,,,,,,,,,,,,3,3,,,370.2658,3,up,0.9347,,0.5,0.3,"[3,1,2]",0.888498719,stimuli/card_100_transparent.png,100,3,0,3,0,1,,,,,,,,,,
,,,,5e14ffee6f6c63b33cf77eb3,A,2024-07-02_12h32.08.010,Slot Machine Game,2023.1.3,Linux x86_64,60.60606061,,,,,,,,,,,,,,,,,,,,,,,,,,,400,,,,,,,,,,,,,,,,,,,,,3,3,,,372.5292,4,up,0.112,,1.5,0.3,"[3,1,2]",0.579064812,stimuli/card_100_transparent.png,100,4,0,4,0,1,,,,,,,,,,
,,,,5e14ffee6f6c63b33cf77eb3,A,2024-07-02_12h32.08.010,Slot Machine Game,2023.1.3,Linux x86_64,60.60606061,,,,,,,,,,,,,,,,,,,,,,,,,,,500,,,,,,,,,,,,,,,,,,,,,3,3,,,374.9758,5,up,2.0166,,0.5,0.3,"[3,1,2]",0.955942444,stimuli/card_100_transparent.png,100,5,0,5,0,1,,,,,,,,,,
,,,,5e14ffee6f6c63b33cf77eb3,A,2024-07-02_12h32.08.010,Slot Machine Game,2023.1.3,Linux x86_64,60.60606061,,,,,,,,,,,,,,,,,,,,,,,,,,,600,,,,,,,,,,,,,,,,,,,,,3,3,,,378.3211,6,up,0.1486,,1,0.3,"[3,1,2]",0.720484606,stimuli/card_100_transparent.png,100,6,0,6,0,1,,,,,,,,,,
,,,,5e14ffee6f6c63b33cf77eb3,A,2024-07-02_12h32.08.010,Slot Machine Game,2023.1.3,Linux x86_64,60.60606061,,,,,,,,,,,,,,,,,,,,,,,,,,,700,,,,,,,,,,,,,,,,,,,,,3,3,,,380.2853,7,up,0.4178,,0.5,0.3,"[3,1,2]",0.486114361,stimuli/card_100_transparent.png,100,7,0,7,0,1,,,,,,,,,,
,,,,5e14ffee6f6c63b33cf77eb3,A,2024-07-02_12h32.08.010,Slot Machine Game,2023.1.3,Linux x86_64,60.60606061,,,,,,,,,,,,,,,,,,,,,,,,,,,800,,,,,,,,,,,,,,,,,,,,,3,3,,,382.0333,8,up,0.2699,,1.5,0.3,"[3,1,2]",0.603244793,stimuli/card_100_transparent.png,100,8,0,8,0,1,,,,,,,,,,
,,,,5e14ffee6f6c63b33cf77eb3,A,2024-07-02_12h32.08.010,Slot Machine Game,2023.1.3,Linux x86_64,60.60606061,,,,,,,,,,,,,,,,,,,,,,,,,,,900,,,,,,,,,,,,,,,,,,,,,3,3,,,384.646,9,up,0.0837,,1,0.3,"[3,1,2]",0.60433537,stimuli/card_100_transparent.png,100,9,0,9,0,1,,,,,,,,,,
,,,,5e14ffee6f6c63b33cf77eb3,A,2024-07-02_12h32.08.010,Slot Machine Game,2023.1.3,Linux x86_64,60.60606061,,,,,,,,,,,,,,,,,,,,,,,,,,,910,,,,,,,,,,,,,,,,,,,,,3,3,,,386.5598,10,up,0.0514,,0.5,0.3,"[3,1,2]",0.112158156,stimuli/card_10_transparent.png,10,10,0,10,0,1,,,,,,,,,,
,,,,5e14ffee6f6c63b33cf77eb3,A,2024-07-02_12h32.08.010,Slot Machine Game,2023.1.3,Linux x86_64,60.60606061,,,,,,,,,,,,,,,,,,,,,,,,,,,910,,,,,,,,,,,,,,,,,,,,,3,3,,,387.9416,11,left,0.1884,,0.5,0.3,"[3,1,2]",0.978642544,stimuli/card_0_transparent.png,0,11,0,11,0,1,,,,,,,,,,
,,,,5e14ffee6f6c63b33cf77eb3,A,2024-07-02_12h32.08.010,Slot Machine Game,2023.1.3,Linux x86_64,60.60606061,,,,,,,,,,,,,,,,,,,,,,,,,,,920,,,,,,,,,,,,,,,,,,,,,3,3,,,389.4568,12,right,1.9309,,1.5,0.3,"[3,1,2]",0.216352043,stimuli/card_10_transparent.png,10,12,0,12,0,1,,,,,,,,,,
,,,,5e14ffee6f6c63b33cf77eb3,A,2024-07-02_12h32.08.010,Slot Machine Game,2023.1.3,Linux x86_64,60.60606061,,,,,,,,,,,,,,,,,,,,,,,,,,,930,,,,,,,,,,,,,,,,,,,,,3,3,,,393.717,13,right,0.5673,,1.5,0.3,"[3,1,2]",0.468451823,stimuli/card_10_transparent.png,10,13,0,13,0,1,,,,,,,,,,
,,,,5e14ffee6f6c63b33cf77eb3,A,2024-07-02_12h32.08.010,Slot Machine Game,2023.1.3,Linux x86_64,60.60606061,,,,,,,,,,,,,,,,,,,,,,,,,,,930,,,,,,,,,,,,,,,,,,,,,3,3,,,396.613,14,left,0.2337,,1,0.3,"[3,1,2]",0.549866631,stimuli/card_0_transparent.png,0,14,0,14,0,1,,,,,,,,,,
,,,,5e14ffee6f6c63b33cf77eb3,A,2024-07-02_12h32.08.010,Slot Machine Game,2023.1.3,Linux x86_64,60.60606061,,,,,,,,,,,,,,,,,,,,,,,,,,,,,,,,,,,398.6765,,,,,,,,,,,,,,,,,,,,,,,,,,,,,,,,,"[850,740,930]",2,0,2,0,1,,,,
,,,,5e14ffee6f6c63b33cf77eb3,A,2024-07-02_12h32.08.010,Slot Machine Game,2023.1.3,Linux x86_64,60.60606061,,,,,,,,,,,,,,,,,,,,,,,,,,,0,,,,,,,,,,,,,,,,,,,,,4,4,"[7,15]","[[2,3,1],[1,2,3]]",403.6983,0,up,0.7496,,1,0.3,"[2,3,1]",0.737840722,stimuli/card_0_transparent.png,0,0,0,0,0,1,,,,,,,,,,
,,,,5e14ffee6f6c63b33cf77eb3,A,2024-07-02_12h32.08.010,Slot Machine Game,2023.1.3,Linux x86_64,60.60606061,,,,,,,,,,,,,,,,,,,,,,,,,,,10,,,,,,,,,,,,,,,,,,,,,4,4,,,406.2664,1,left,0.1749,,0.5,0.3,"[2,3,1]",0.585137423,stimuli/card_10_transparent.png,10,1,0,1,0,1,,,,,,,,,,
,,,,5e14ffee6f6c63b33cf77eb3,A,2024-07-02_12h32.08.010,Slot Machine Game,2023.1.3,Linux x86_64,60.60606061,,,,,,,,,,,,,,,,,,,,,,,,,,,10,,,,,,,,,,,,,,,,,,,,,4,4,,,407.7638,2,right,0.1011,,0.5,0.3,"[2,3,1]",0.093968223,stimuli/card_0_transparent.png,0,2,0,2,0,1,,,,,,,,,,
,,,,5e14ffee6f6c63b33cf77eb3,A,2024-07-02_12h32.08.010,Slot Machine Game,2023.1.3,Linux x86_64,60.60606061,,,,,,,,,,,,,,,,,,,,,,,,,,,110,,,,,,,,,,,,,,,,,,,,,4,4,,,409.1951,3,right,0.1999,,1,0.3,"[2,3,1]",0.519867431,stimuli/card_100_transparent.png,100,3,0,3,0,1,,,,,,,,,,
,,,,5e14ffee6f6c63b33cf77eb3,A,2024-07-02_12h32.08.010,Slot Machine Game,2023.1.3,Linux x86_64,60.60606061,,,,,,,,,,,,,,,,,,,,,,,,,,,210,,,,,,,,,,,,,,,,,,,,,4,4,,,411.2266,4,right,0.8336,,1.5,0.3,"[2,3,1]",0.855992185,stimuli/card_100_transparent.png,100,4,0,4,0,1,,,,,,,,,,
,,,,5e14ffee6f6c63b33cf77eb3,A,2024-07-02_12h32.08.010,Slot Machine Game,2023.1.3,Linux x86_64,60.60606061,,,,,,,,,,,,,,,,,,,,,,,,,,,220,,,,,,,,,,,,,,,,,,,,,4,4,,,414.3876,5,right,0.2886,,0.5,0.3,"[2,3,1]",0.102386232,stimuli/card_10_transparent.png,10,5,0,5,0,1,,,,,,,,,,
,,,,5e14ffee6f6c63b33cf77eb3,A,2024-07-02_12h32.08.010,Slot Machine Game,2023.1.3,Linux x86_64,60.60606061,,,,,,,,,,,,,,,,,,,,,,,,,,,320,,,,,,,,,,,,,,,,,,,,,4,4,,,416.0019,6,right,0.0374,,1,0.3,"[2,3,1]",0.33930435,stimuli/card_100_transparent.png,100,6,0,6,0,1,,,,,,,,,,
,,,,5e14ffee6f6c63b33cf77eb3,A,2024-07-02_12h32.08.010,Slot Machine Game,2023.1.3,Linux x86_64,60.60606061,,,,,,,,,,,,,,,,,,,,,,,,,,,320,,,,,,,,,,,,,,,,,,,,,4,4,,,417.8658,7,right,0.8163,,1,0.3,"[1,2,3]",0.432954514,stimuli/card_0_transparent.png,0,7,0,7,0,1,,,,,,,,,,
,,,,5e14ffee6f6c63b33cf77eb3,A,2024-07-02_12h32.08.010,Slot Machine Game,2023.1.3,Linux x86_64,60.60606061,,,,,,,,,,,,,,,,,,,,,,,,,,,320,,,,,,,,,,,,,,,,,,,,,4,4,,,420.5126,8,right,0.023,,1,0.3,"[1,2,3]",0.966804236,stimuli/card_0_transparent.png,0,8,0,8,0,1,,,,,,,,,,
,,,,5e14ffee6f6c63b33cf77eb3,A,2024-07-02_12h32.08.010,Slot Machine Game,2023.1.3,Linux x86_64,60.60606061,,,,,,,,,,,,,,,,,,,,,,,,,,,420,,,,,,,,,,,,,,,,,,,,,4,4,,,422.3599,9,left,1.2492,,1.5,0.3,"[1,2,3]",0.641287991,stimuli/card_100_transparent.png,100,9,0,9,0,1,,,,,,,,,,
,,,,5e14ffee6f6c63b33cf77eb3,A,2024-07-02_12h32.08.010,Slot Machine Game,2023.1.3,Linux x86_64,60.60606061,,,,,,,,,,,,,,,,,,,,,,,,,,,520,,,,,,,,,,,,,,,,,,,,,4,4,,,425.9388,10,left,0.9196,,1,0.3,"[1,2,3]",0.959929091,stimuli/card_100_transparent.png,100,10,0,10,0,1,,,,,,,,,,
,,,,5e14ffee6f6c63b33cf77eb3,A,2024-07-02_12h32.08.010,Slot Machine Game,2023.1.3,Linux x86_64,60.60606061,,,,,,,,,,,,,,,,,,,,,,,,,,,620,,,,,,,,,,,,,,,,,,,,,4,4,,,428.6848,11,left,0.0676,,1,0.3,"[1,2,3]",0.491435394,stimuli/card_100_transparent.png,100,11,0,11,0,1,,,,,,,,,,
,,,,5e14ffee6f6c63b33cf77eb3,A,2024-07-02_12h32.08.010,Slot Machine Game,2023.1.3,Linux x86_64,60.60606061,,,,,,,,,,,,,,,,,,,,,,,,,,,620,,,,,,,,,,,,,,,,,,,,,4,4,,,430.5821,12,left,0.3016,,1.5,0.3,"[1,2,3]",0.051864833,stimuli/card_0_transparent.png,0,12,0,12,0,1,,,,,,,,,,
,,,,5e14ffee6f6c63b33cf77eb3,A,2024-07-02_12h32.08.010,Slot Machine Game,2023.1.3,Linux x86_64,60.60606061,,,,,,,,,,,,,,,,,,,,,,,,,,,720,,,,,,,,,,,,,,,,,,,,,4,4,,,433.2125,13,left,0.2356,,1.5,0.3,"[1,2,3]",0.82068291,stimuli/card_100_transparent.png,100,13,0,13,0,1,,,,,,,,,,
,,,,5e14ffee6f6c63b33cf77eb3,A,2024-07-02_12h32.08.010,Slot Machine Game,2023.1.3,Linux x86_64,60.60606061,,,,,,,,,,,,,,,,,,,,,,,,,,,820,,,,,,,,,,,,,,,,,,,,,4,4,,,435.7743,14,left,0.215,,0.5,0.3,"[1,2,3]",0.371245444,stimuli/card_100_transparent.png,100,14,0,14,0,1,,,,,,,,,,
,,,,5e14ffee6f6c63b33cf77eb3,A,2024-07-02_12h32.08.010,Slot Machine Game,2023.1.3,Linux x86_64,60.60606061,,,,,,,,,,,,,,,,,,,,,,,,,,,,,,,,,,,437.3226,,,,,,,,,,,,,,,,,,,,,,,,,,,,,,,,,"[850,740,930,820]",3,0,3,0,1,,,,
,,,,5e14ffee6f6c63b33cf77eb3,A,2024-07-02_12h32.08.010,Slot Machine Game,2023.1.3,Linux x86_64,60.60606061,,,,,,,,,,,,,,,,,,,,,,,,,,,10,,,,,,,,,,,,,,,,,,,,,5,5,"[5,15]","[[1,2,3],[3,1,2]]",442.344,0,up,1.7042,,0.5,0.3,"[1,2,3]",0.512013667,stimuli/card_10_transparent.png,10,0,0,0,0,1,,,,,,,,,,
,,,,5e14ffee6f6c63b33cf77eb3,A,2024-07-02_12h32.08.010,Slot Machine Game,2023.1.3,Linux x86_64,60.60606061,,,,,,,,,,,,,,,,,,,,,,,,,,,20,,,,,,,,,,,,,,,,,,,,,5,5,,,445.3614,1,up,0.1006,,1.5,0.3,"[1,2,3]",0.294399044,stimuli/card_10_transparent.png,10,1,0,1,0,1,,,,,,,,,,
,,,,5e14ffee6f6c63b33cf77eb3,A,2024-07-02_12h32.08.010,Slot Machine Game,2023.1.3,Linux x86_64,60.60606061,,,,,,,,,,,,,,,,,,,,,,,,,,,20,,,,,,,,,,,,,,,,,,,,,5,5,,,447.7918,2,right,0.372,,0.5,0.3,"[1,2,3]",0.969570225,stimuli/card_0_transparent.png,0,2,0,2,0,1,,,,,,,,,,
,,,,5e14ffee6f6c63b33cf77eb3,A,2024-07-02_12h32.08.010,Slot Machine Game,2023.1.3,Linux x86_64,60.60606061,,,,,,,,,,,,,,,,,,,,,,,,,,,120,,,,,,,,,,,,,,,,,,,,,5,5,,,449.4887,3,left,0.4723,,1,0.3,"[1,2,3]",0.837769823,stimuli/card_100_transparent.png,100,3,0,3,0,1,,,,,,,,,,
,,,,5e14ffee6f6c63b33cf77eb3,A,2024-07-02_12h32.08.010,Slot Machine Game,2023.1.3,Linux x86_64,60.60606061,,,,,,,,,,,,,,,,,,,,,,,,,,,220,,,,,,,,,,,,,,,,,,,,,5,5,,,451.7863,4,left,0.0728,,1,0.3,"[1,2,3]",0.513530162,stimuli/card_100_transparent.png,100,4,0,4,0,1,,,,,,,,,,
,,,,5e14ffee6f6c63b33cf77eb3,A,2024-07-02_12h32.08.010,Slot Machine Game,2023.1.3,Linux x86_64,60.60606061,,,,,,,,,,,,,,,,,,,,,,,,,,,220,,,,,,,,,,,,,,,,,,,,,5,5,,,453.6834,5,left,0.2074,,1,0.3,"[3,1,2]",0.342673416,stimuli/card_0_transparent.png,0,5,0,5,0,1,,,,,,,,,,
,,,,5e14ffee6f6c63b33cf77eb3,A,2024-07-02_12h32.08.010,Slot Machine Game,2023.1.3,Linux x86_64,60.60606061,,,,,,,,,,,,,,,,,,,,,,,,,,,220,,,,,,,,,,,,,,,,,,,,,5,5,,,455.7137,6,left,0.1674,,0.5,0.3,"[3,1,2]",0.3933356,stimuli/card_0_transparent.png,0,6,0,6,0,1,,,,,,,,,,
,,,,5e14ffee6f6c63b33cf77eb3,A,2024-07-02_12h32.08.010,Slot Machine Game,2023.1.3,Linux x86_64,60.60606061,,,,,,,,,,,,,,,,,,,,,,,,,,,230,,,,,,,,,,,,,,,,,,,,,5,5,,,457.2118,7,right,0.1848,,0.5,0.3,"[3,1,2]",0.827568721,stimuli/card_10_transparent.png,10,7,0,7,0,1,,,,,,,,,,
,,,,5e14ffee6f6c63b33cf77eb3,A,2024-07-02_12h32.08.010,Slot Machine Game,2023.1.3,Linux x86_64,60.60606061,,,,,,,,,,,,,,,,,,,,,,,,,,,240,,,,,,,,,,,,,,,,,,,,,5,5,,,458.7265,8,right,0.3875,,0.5,0.3,"[3,1,2]",0.285372676,stimuli/card_10_transparent.png,10,8,0,8,0,1,,,,,,,,,,
,,,,5e14ffee6f6c63b33cf77eb3,A,2024-07-02_12h32.08.010,Slot Machine Game,2023.1.3,Linux x86_64,60.60606061,,,,,,,,,,,,,,,,,,,,,,,,,,,340,,,,,,,,,,,,,,,,,,,,,5,5,,,460.4404,9,up,1.6045,,1,0.3,"[3,1,2]",0.524199163,stimuli/card_100_transparent.png,100,9,0,9,0,1,,,,,,,,,,
,,,,5e14ffee6f6c63b33cf77eb3,A,2024-07-02_12h32.08.010,Slot Machine Game,2023.1.3,Linux x86_64,60.60606061,,,,,,,,,,,,,,,,,,,,,,,,,,,440,,,,,,,,,,,,,,,,,,,,,5,5,,,463.8693,10,up,0.1491,,1,0.3,"[3,1,2]",0.745259922,stimuli/card_100_transparent.png,100,10,0,10,0,1,,,,,,,,,,
,,,,5e14ffee6f6c63b33cf77eb3,A,2024-07-02_12h32.08.010,Slot Machine Game,2023.1.3,Linux x86_64,60.60606061,,,,,,,,,,,,,,,,,,,,,,,,,,,540,,,,,,,,,,,,,,,,,,,,,5,5,,,465.8498,11,up,1.0846,,1,0.3,"[3,1,2]",0.888362742,stimuli/card_100_transparent.png,100,11,0,11,0,1,,,,,,,,,,
,,,,5e14ffee6f6c63b33cf77eb3,A,2024-07-02_12h32.08.010,Slot Machine Game,2023.1.3,Linux x86_64,60.60606061,,,,,,,,,,,,,,,,,,,,,,,,,,,640,,,,,,,,,,,,,,,,,,,,,5,5,,,468.7623,12,up,0.6008,,1.5,0.3,"[3,1,2]",0.468551795,stimuli/card_100_transparent.png,100,12,0,12,0,1,,,,,,,,,,
,,,,5e14ffee6f6c63b33cf77eb3,A,2024-07-02_12h32.08.010,Slot Machine Game,2023.1.3,Linux x86_64,60.60606061,,,,,,,,,,,,,,,,,,,,,,,,,,,740,,,,,,,,,,,,,,,,,,,,,5,5,,,471.692,13,up,0.2034,,0.5,0.3,"[3,1,2]",0.855107131,stimuli/card_100_transparent.png,100,13,0,13,0,1,,,,,,,,,,
,,,,5e14ffee6f6c63b33cf77eb3,A,2024-07-02_12h32.08.010,Slot Machine Game,2023.1.3,Linux x86_64,60.60606061,,,,,,,,,,,,,,,,,,,,,,,,,,,840,,,,,,,,,,,,,,,,,,,,,5,5,,,473.2241,14,up,1.1672,,1,0.3,"[3,1,2]",0.374654653,stimuli/card_100_transparent.png,100,14,0,14,0,1,,,,,,,,,,
,,,,5e14ffee6f6c63b33cf77eb3,A,2024-07-02_12h32.08.010,Slot Machine Game,2023.1.3,Linux x86_64,60.60606061,,,,,,,,,,,,,,,,,,,,,,,,,,,,,,,,,,,476.2193,,,,,,,,,,,,,,,,,,,,,,,,,,,,,,,,,"[850,740,930,820,840]",4,0,4,0,1,,,,
,,,,5e14ffee6f6c63b33cf77eb3,A,2024-07-02_12h32.08.010,Slot Machine Game,2023.1.3,Linux x86_64,60.60606061,,,,,,,,,,,,,,,,,,,,,,,,,,,10,,,,,,,,,,,,,,,,,,,,,6,6,"[4,10,15]","[[2,3,1],[1,3,2],[3,2,1]]",481.2461,0,left,2.5955,,1,0.3,"[2,3,1]",0.527438922,stimuli/card_10_transparent.png,10,0,0,0,0,1,,,,,,,,,,
,,,,5e14ffee6f6c63b33cf77eb3,A,2024-07-02_12h32.08.010,Slot Machine Game,2023.1.3,Linux x86_64,60.60606061,,,,,,,,,,,,,,,,,,,,,,,,,,,10,,,,,,,,,,,,,,,,,,,,,6,6,,,485.6728,1,up,0.0082,,1,0.3,"[2,3,1]",0.244957103,stimuli/card_0_transparent.png,0,1,0,1,0,1,,,,,,,,,,
,,,,5e14ffee6f6c63b33cf77eb3,A,2024-07-02_12h32.08.010,Slot Machine Game,2023.1.3,Linux x86_64,60.60606061,,,,,,,,,,,,,,,,,,,,,,,,,,,10,,,,,,,,,,,,,,,,,,,,,6,6,,,487.5037,2,right,2.068,,0.5,0.3,"[2,3,1]",0.097765928,stimuli/card_0_transparent.png,0,2,0,2,0,1,,,,,,,,,,
,,,,5e14ffee6f6c63b33cf77eb3,A,2024-07-02_12h32.08.010,Slot Machine Game,2023.1.3,Linux x86_64,60.60606061,,,,,,,,,,,,,,,,,,,,,,,,,,,110,,,,,,,,,,,,,,,,,,,,,6,6,,,490.899,3,right,0.0016,,1.5,0.3,"[2,3,1]",0.934754381,stimuli/card_100_transparent.png,100,3,0,3,0,1,,,,,,,,,,
,,,,5e14ffee6f6c63b33cf77eb3,A,2024-07-02_12h32.08.010,Slot Machine Game,2023.1.3,Linux x86_64,60.60606061,,,,,,,,,,,,,,,,,,,,,,,,,,,120,,,,,,,,,,,,,,,,,,,,,6,6,,,493.2283,4,right,0.0987,,0.5,0.3,"[1,3,2]",0.247313005,stimuli/card_10_transparent.png,10,4,0,4,0,1,,,,,,,,,,
,,,,5e14ffee6f6c63b33cf77eb3,A,2024-07-02_12h32.08.010,Slot Machine Game,2023.1.3,Linux x86_64,60.60606061,,,,,,,,,,,,,,,,,,,,,,,,,,,130,,,,,,,,,,,,,,,,,,,,,6,6,,,494.66,5,right,0.0547,,1,0.3,"[1,3,2]",0.372107158,stimuli/card_10_transparent.png,10,5,0,5,0,1,,,,,,,,,,
,,,,5e14ffee6f6c63b33cf77eb3,A,2024-07-02_12h32.08.010,Slot Machine Game,2023.1.3,Linux x86_64,60.60606061,,,,,,,,,,,,,,,,,,,,,,,,,,,230,,,,,,,,,,,,,,,,,,,,,6,6,,,496.5413,6,left,0.0679,,1.5,0.3,"[1,3,2]",0.3898564,stimuli/card_100_transparent.png,100,6,0,6,0,1,,,,,,,,,,
,,,,5e14ffee6f6c63b33cf77eb3,A,2024-07-02_12h32.08.010,Slot Machine Game,2023.1.3,Linux x86_64,60.60606061,,,,,,,,,,,,,,,,,,,,,,,,,,,330,,,,,,,,,,,,,,,,,,,,,6,6,,,498.9379,7,left,0.2666,,1.5,0.3,"[1,3,2]",0.720312135,stimuli/card_100_transparent.png,100,7,0,7,0,1,,,,,,,,,,
,,,,5e14ffee6f6c63b33cf77eb3,A,2024-07-02_12h32.08.010,Slot Machine Game,2023.1.3,Linux x86_64,60.60606061,,,,,,,,,,,,,,,,,,,,,,,,,,,430,,,,,,,,,,,,,,,,,,,,,6,6,,,501.5339,8,left,2.6118,,1,0.3,"[1,3,2]",0.392744582,stimuli/card_100_transparent.png,100,8,0,8,0,1,,,,,,,,,,
,,,,5e14ffee6f6c63b33cf77eb3,A,2024-07-02_12h32.08.010,Slot Machine Game,2023.1.3,Linux x86_64,60.60606061,,,,,,,,,,,,,,,,,,,,,,,,,,,530,,,,,,,,,,,,,,,,,,,,,6,6,,,505.978,9,left,2.203,,1,0.3,"[1,3,2]",0.64285823,stimuli/card_100_transparent.png,100,9,0,9,0,1,,,,,,,,,,
,,,,5e14ffee6f6c63b33cf77eb3,A,2024-07-02_12h32.08.010,Slot Machine Game,2023.1.3,Linux x86_64,60.60606061,,,,,,,,,,,,,,,,,,,,,,,,,,,530,,,,,,,,,,,,,,,,,,,,,6,6,,,510.0054,10,left,1.5795,,1,0.3,"[3,2,1]",0.778325782,stimuli/card_0_transparent.png,0,10,0,10,0,1,,,,,,,,,,
,,,,5e14ffee6f6c63b33cf77eb3,A,2024-07-02_12h32.08.010,Slot Machine Game,2023.1.3,Linux x86_64,60.60606061,,,,,,,,,,,,,,,,,,,,,,,,,,,540,,,,,,,,,,,,,,,,,,,,,6,6,,,513.4174,11,up,1.4808,,1,0.3,"[3,2,1]",0.381249803,stimuli/card_10_transparent.png,10,11,0,11,0,1,,,,,,,,,,
,,,,5e14ffee6f6c63b33cf77eb3,A,2024-07-02_12h32.08.010,Slot Machine Game,2023.1.3,Linux x86_64,60.60606061,,,,,,,,,,,,,,,,,,,,,,,,,,,640,,,,,,,,,,,,,,,,,,,,,6,6,,,516.7311,12,right,1.8422,,0.5,0.3,"[3,2,1]",0.465982676,stimuli/card_100_transparent.png,100,12,0,12,0,1,,,,,,,,,,
,,,,5e14ffee6f6c63b33cf77eb3,A,2024-07-02_12h32.08.010,Slot Machine Game,2023.1.3,Linux x86_64,60.60606061,,,,,,,,,,,,,,,,,,,,,,,,,,,740,,,,,,,,,,,,,,,,,,,,,6,6,,,519.8922,13,right,0.153,,1,0.3,"[3,2,1]",0.334459342,stimuli/card_100_transparent.png,100,13,0,13,0,1,,,,,,,,,,
,,,,5e14ffee6f6c63b33cf77eb3,A,2024-07-02_12h32.08.010,Slot Machine Game,2023.1.3,Linux x86_64,60.60606061,,,,,,,,,,,,,,,,,,,,,,,,,,,840,,,,,,,,,,,,,,,,,,,,,6,6,,,521.873,14,right,2.0157,,1.5,0.3,"[3,2,1]",0.266041386,stimuli/card_100_transparent.png,100,14,0,14,0,1,,,,,,,,,,
,,,,5e14ffee6f6c63b33cf77eb3,A,2024-07-02_12h32.08.010,Slot Machine Game,2023.1.3,Linux x86_64,60.60606061,,,,,,,,,,,,,,,,,,,,,,,,,,,,,,,,,,,526.2173,,,,,,,,,,,,,,,,,,,,,,,,,,,,,,,,,"[850,740,930,820,840,840]",5,0,5,0,1,,,,
,,,,5e14ffee6f6c63b33cf77eb3,A,2024-07-02_12h32.08.010,Slot Machine Game,2023.1.3,Linux x86_64,60.60606061,,,,,,,,,,,,,,,,,,,,,,,,,,,0,,,,,,,,,,,,,,,,,,,,,7,7,"[9,15]","[[1,3,2],[2,3,1]]",531.2393,0,up,4.0275,,0.5,0.3,"[1,3,2]",0.905935599,stimuli/card_0_transparent.png,0,0,0,0,0,1,,,,,,,,,,
,,,,5e14ffee6f6c63b33cf77eb3,A,2024-07-02_12h32.08.010,Slot Machine Game,2023.1.3,Linux x86_64,60.60606061,,,,,,,,,,,,,,,,,,,,,,,,,,,10,,,,,,,,,,,,,,,,,,,,,7,7,,,536.5853,1,right,0.6333,,1,0.3,"[1,3,2]",0.878628187,stimuli/card_10_transparent.png,10,1,0,1,0,1,,,,,,,,,,
,,,,5e14ffee6f6c63b33cf77eb3,A,2024-07-02_12h32.08.010,Slot Machine Game,2023.1.3,Linux x86_64,60.60606061,,,,,,,,,,,,,,,,,,,,,,,,,,,110,,,,,,,,,,,,,,,,,,,,,7,7,,,539.0485,2,left,1.6538,,1,0.3,"[1,3,2]",0.270171887,stimuli/card_100_transparent.png,100,2,0,2,0,1,,,,,,,,,,
,,,,5e14ffee6f6c63b33cf77eb3,A,2024-07-02_12h32.08.010,Slot Machine Game,2023.1.3,Linux x86_64,60.60606061,,,,,,,,,,,,,,,,,,,,,,,,,,,210,,,,,,,,,,,,,,,,,,,,,7,7,,,542.5278,3,left,0.1339,,1.5,0.3,"[1,3,2]",0.902969173,stimuli/card_100_transparent.png,100,3,0,3,0,1,,,,,,,,,,
,,,,5e14ffee6f6c63b33cf77eb3,A,2024-07-02_12h32.08.010,Slot Machine Game,2023.1.3,Linux x86_64,60.60606061,,,,,,,,,,,,,,,,,,,,,,,,,,,310,,,,,,,,,,,,,,,,,,,,,7,7,,,544.9904,4,left,0.0222,,1,0.3,"[1,3,2]",0.850375821,stimuli/card_100_transparent.png,100,4,0,4,0,1,,,,,,,,,,
,,,,5e14ffee6f6c63b33cf77eb3,A,2024-07-02_12h32.08.010,Slot Machine Game,2023.1.3,Linux x86_64,60.60606061,,,,,,,,,,,,,,,,,,,,,,,,,,,410,,,,,,,,,,,,,,,,,,,,,7,7,,,546.8379,5,left,0.5834,,0.5,0.3,"[1,3,2]",0.43422481,stimuli/card_100_transparent.png,100,5,0,5,0,1,,,,,,,,,,
,,,,5e14ffee6f6c63b33cf77eb3,A,2024-07-02_12h32.08.010,Slot Machine Game,2023.1.3,Linux x86_64,60.60606061,,,,,,,,,,,,,,,,,,,,,,,,,,,510,,,,,,,,,,,,,,,,,,,,,7,7,,,548.7525,6,left,0.0222,,0.5,0.3,"[1,3,2]",0.733408996,stimuli/card_100_transparent.png,100,6,0,6,0,1,,,,,,,,,,
,,,,5e14ffee6f6c63b33cf77eb3,A,2024-07-02_12h32.08.010,Slot Machine Game,2023.1.3,Linux x86_64,60.60606061,,,,,,,,,,,,,,,,,,,,,,,,,,,610,,,,,,,,,,,,,,,,,,,,,7,7,,,550.1,7,left,0.4519,,0.5,0.3,"[1,3,2]",0.548537588,stimuli/card_100_transparent.png,100,7,0,7,0,1,,,,,,,,,,
,,,,5e14ffee6f6c63b33cf77eb3,A,2024-07-02_12h32.08.010,Slot Machine Game,2023.1.3,Linux x86_64,60.60606061,,,,,,,,,,,,,,,,,,,,,,,,,,,710,,,,,,,,,,,,,,,,,,,,,7,7,,,551.8808,8,left,0.4358,,0.5,0.3,"[1,3,2]",0.82813221,stimuli/card_100_transparent.png,100,8,0,8,0,1,,,,,,,,,,
,,,,5e14ffee6f6c63b33cf77eb3,A,2024-07-02_12h32.08.010,Slot Machine Game,2023.1.3,Linux x86_64,60.60606061,,,,,,,,,,,,,,,,,,,,,,,,,,,720,,,,,,,,,,,,,,,,,,,,,7,7,,,553.6452,9,left,0.0337,,1.5,0.3,"[2,3,1]",0.620113813,stimuli/card_10_transparent.png,10,9,0,9,0,1,,,,,,,,,,
,,,,5e14ffee6f6c63b33cf77eb3,A,2024-07-02_12h32.08.010,Slot Machine Game,2023.1.3,Linux x86_64,60.60606061,,,,,,,,,,,,,,,,,,,,,,,,,,,730,,,,,,,,,,,,,,,,,,,,,7,7,,,556.0092,10,left,0.5693,,1.5,0.3,"[2,3,1]",0.740157238,stimuli/card_10_transparent.png,10,10,0,10,0,1,,,,,,,,,,
,,,,5e14ffee6f6c63b33cf77eb3,A,2024-07-02_12h32.08.010,Slot Machine Game,2023.1.3,Linux x86_64,60.60606061,,,,,,,,,,,,,,,,,,,,,,,,,,,730,,,,,,,,,,,,,,,,,,,,,7,7,,,558.9044,11,up,0.0017,,1,0.3,"[2,3,1]",0.823247795,stimuli/card_0_transparent.png,0,11,0,11,0,1,,,,,,,,,,
,,,,5e14ffee6f6c63b33cf77eb3,A,2024-07-02_12h32.08.010,Slot Machine Game,2023.1.3,Linux x86_64,60.60606061,,,,,,,,,,,,,,,,,,,,,,,,,,,830,,,,,,,,,,,,,,,,,,,,,7,7,,,560.7353,12,right,0.5608,,0.5,0.3,"[2,3,1]",0.509278569,stimuli/card_100_transparent.png,100,12,0,12,0,1,,,,,,,,,,
,,,,5e14ffee6f6c63b33cf77eb3,A,2024-07-02_12h32.08.010,Slot Machine Game,2023.1.3,Linux x86_64,60.60606061,,,,,,,,,,,,,,,,,,,,,,,,,,,930,,,,,,,,,,,,,,,,,,,,,7,7,,,562.6332,13,right,0.8482,,0.5,0.3,"[2,3,1]",0.709432491,stimuli/card_100_transparent.png,100,13,0,13,0,1,,,,,,,,,,
,,,,5e14ffee6f6c63b33cf77eb3,A,2024-07-02_12h32.08.010,Slot Machine Game,2023.1.3,Linux x86_64,60.60606061,,,,,,,,,,,,,,,,,,,,,,,,,,,940,,,,,,,,,,,,,,,,,,,,,7,7,,,564.813,14,right,0.4554,,1.5,0.3,"[2,3,1]",0.193930171,stimuli/card_10_transparent.png,10,14,0,14,0,1,,,,,,,,,,
,,,,5e14ffee6f6c63b33cf77eb3,A,2024-07-02_12h32.08.010,Slot Machine Game,2023.1.3,Linux x86_64,60.60606061,,,,,,,,,,,,,,,,,,,,,,,,,,,,,,,,,,,567.5933,,,,,,,,,,,,,,,,,,,,,,,,,,,,,,,,,"[850,740,930,820,840,840,940]",6,0,6,0,1,,,,
,,,,5e14ffee6f6c63b33cf77eb3,A,2024-07-02_12h32.08.010,Slot Machine Game,2023.1.3,Linux x86_64,60.60606061,,,,,,,,,,,,,,,,,,,,,,,,,,,,,,,,,,,,,,,,,,,,,,,,8,8,"[11,15]","[[2,1,3],[1,2,3]]",572.6172,0,,,,0.5,0.3,,,,,0,0,0,0,1,,,,,,,,,,
,,,,5e14ffee6f6c63b33cf77eb3,A,2024-07-02_12h32.08.010,Slot Machine Game,2023.1.3,Linux x86_64,60.60606061,,,,,,,,,,,,,,,,,,,,,,,,,,,100,,,,,,,,,,,,,,,,,,,,,8,8,,,578.14,1,up,0.1348,,1,0.3,"[2,1,3]",0.247489655,stimuli/card_100_transparent.png,100,1,0,1,0,1,,,,,,,,,,
,,,,5e14ffee6f6c63b33cf77eb3,A,2024-07-02_12h32.08.010,Slot Machine Game,2023.1.3,Linux x86_64,60.60606061,,,,,,,,,,,,,,,,,,,,,,,,,,,200,,,,,,,,,,,,,,,,,,,,,8,8,,,580.0924,2,up,0.0394,,0.5,0.3,"[2,1,3]",0.41690963,stimuli/card_100_transparent.png,100,2,0,2,0,1,,,,,,,,,,
,,,,5e14ffee6f6c63b33cf77eb3,A,2024-07-02_12h32.08.010,Slot Machine Game,2023.1.3,Linux x86_64,60.60606061,,,,,,,,,,,,,,,,,,,,,,,,,,,300,,,,,,,,,,,,,,,,,,,,,8,8,,,581.4571,3,up,0.004,,1,0.3,"[2,1,3]",0.613532947,stimuli/card_100_transparent.png,100,3,0,3,0,1,,,,,,,,,,
,,,,5e14ffee6f6c63b33cf77eb3,A,2024-07-02_12h32.08.010,Slot Machine Game,2023.1.3,Linux x86_64,60.60606061,,,,,,,,,,,,,,,,,,,,,,,,,,,400,,,,,,,,,,,,,,,,,,,,,8,8,,,583.2878,4,up,0.401,,1,0.3,"[2,1,3]",0.246506792,stimuli/card_100_transparent.png,100,4,0,4,0,1,,,,,,,,,,
,,,,5e14ffee6f6c63b33cf77eb3,A,2024-07-02_12h32.08.010,Slot Machine Game,2023.1.3,Linux x86_64,60.60606061,,,,,,,,,,,,,,,,,,,,,,,,,,,500,,,,,,,,,,,,,,,,,,,,,8,8,,,585.5181,5,up,0.3838,,1.5,0.3,"[2,1,3]",0.206037756,stimuli/card_100_transparent.png,100,5,0,5,0,1,,,,,,,,,,
,,,,5e14ffee6f6c63b33cf77eb3,A,2024-07-02_12h32.08.010,Slot Machine Game,2023.1.3,Linux x86_64,60.60606061,,,,,,,,,,,,,,,,,,,,,,,,,,,600,,,,,,,,,,,,,,,,,,,,,8,8,,,588.2307,6,up,0.0028,,0.5,0.3,"[2,1,3]",0.627921069,stimuli/card_100_transparent.png,100,6,0,6,0,1,,,,,,,,,,
,,,,5e14ffee6f6c63b33cf77eb3,A,2024-07-02_12h32.08.010,Slot Machine Game,2023.1.3,Linux x86_64,60.60606061,,,,,,,,,,,,,,,,,,,,,,,,,,,700,,,,,,,,,,,,,,,,,,,,,8,8,,,589.5623,7,up,0.4363,,0.5,0.3,"[2,1,3]",0.983001004,stimuli/card_100_transparent.png,100,7,0,7,0,1,,,,,,,,,,
,,,,5e14ffee6f6c63b33cf77eb3,A,2024-07-02_12h32.08.010,Slot Machine Game,2023.1.3,Linux x86_64,60.60606061,,,,,,,,,,,,,,,,,,,,,,,,,,,800,,,,,,,,,,,,,,,,,,,,,8,8,,,591.326,8,up,1.25,,1.5,0.3,"[2,1,3]",0.654188619,stimuli/card_100_transparent.png,100,8,0,8,0,1,,,,,,,,,,
,,,,5e14ffee6f6c63b33cf77eb3,A,2024-07-02_12h32.08.010,Slot Machine Game,2023.1.3,Linux x86_64,60.60606061,,,,,,,,,,,,,,,,,,,,,,,,,,,900,,,,,,,,,,,,,,,,,,,,,8,8,,,594.9049,9,up,0.5171,,0.5,0.3,"[2,1,3]",0.765837566,stimuli/card_100_transparent.png,100,9,0,9,0,1,,,,,,,,,,
,,,,5e14ffee6f6c63b33cf77eb3,A,2024-07-02_12h32.08.010,Slot Machine Game,2023.1.3,Linux x86_64,60.60606061,,,,,,,,,,,,,,,,,,,,,,,,,,,1000,,,,,,,,,,,,,,,,,,,,,8,8,,,596.753,10,up,0.1014,,0.5,0.3,"[2,1,3]",0.677727629,stimuli/card_100_transparent.png,100,10,0,10,0,1,,,,,,,,,,
,,,,5e14ffee6f6c63b33cf77eb3,A,2024-07-02_12h32.08.010,Slot Machine Game,2023.1.3,Linux x86_64,60.60606061,,,,,,,,,,,,,,,,,,,,,,,,,,,1010,,,,,,,,,,,,,,,,,,,,,8,8,,,598.1841,11,up,0.5088,,1.5,0.3,"[1,2,3]",0.351404078,stimuli/card_10_transparent.png,10,11,0,11,0,1,,,,,,,,,,
,,,,5e14ffee6f6c63b33cf77eb3,A,2024-07-02_12h32.08.010,Slot Machine Game,2023.1.3,Linux x86_64,60.60606061,,,,,,,,,,,,,,,,,,,,,,,,,,,1110,,,,,,,,,,,,,,,,,,,,,8,8,,,601.0136,12,left,0.1508,,1.5,0.3,"[1,2,3]",0.479934565,stimuli/card_100_transparent.png,100,12,0,12,0,1,,,,,,,,,,
,,,,5e14ffee6f6c63b33cf77eb3,A,2024-07-02_12h32.08.010,Slot Machine Game,2023.1.3,Linux x86_64,60.60606061,,,,,,,,,,,,,,,,,,,,,,,,,,,1210,,,,,,,,,,,,,,,,,,,,,8,8,,,603.4937,13,left,0.2117,,0.5,0.3,"[1,2,3]",0.286996378,stimuli/card_100_transparent.png,100,13,0,13,0,1,,,,,,,,,,
,,,,5e14ffee6f6c63b33cf77eb3,A,2024-07-02_12h32.08.010,Slot Machine Game,2023.1.3,Linux x86_64,60.60606061,,,,,,,,,,,,,,,,,,,,,,,,,,,1310,,,,,,,,,,,,,,,,,,,,,8,8,,,605.024,14,left,0.1849,,1.5,0.3,"[1,2,3]",0.990806108,stimuli/card_100_transparent.png,100,14,0,14,0,1,,,,,,,,,,
,,,,5e14ffee6f6c63b33cf77eb3,A,2024-07-02_12h32.08.010,Slot Machine Game,2023.1.3,Linux x86_64,60.60606061,,,,,,,,,,,,,,,,,,,,,,,,,,,,,,,,,,,607.5376,,,,,,,,,,,,,,,,,,,,,,,,,,,,,,,,,"[850,740,930,820,840,840,940,1310]",7,0,7,0,1,,,,
,,,,5e14ffee6f6c63b33cf77eb3,A,2024-07-02_12h32.08.010,Slot Machine Game,2023.1.3,Linux x86_64,60.60606061,,,,,,,,,,,,,,,,,,,,,,,,,,,0,,,,,,,,,,,,,,,,,,,,,9,9,"[8,15]","[[3,2,1],[3,1,2]]",612.56,0,right,0.1698,,0.5,0.3,"[3,2,1]",0.05328581,stimuli/card_0_transparent.png,0,0,0,0,0,1,,,,,,,,,,
,,,,5e14ffee6f6c63b33cf77eb3,A,2024-07-02_12h32.08.010,Slot Machine Game,2023.1.3,Linux x86_64,60.60606061,,,,,,,,,,,,,,,,,,,,,,,,,,,10,,,,,,,,,,,,,,,,,,,,,9,9,,,614.0449,1,up,1.2385,,0.5,0.3,"[3,2,1]",0.647014705,stimuli/card_10_transparent.png,10,1,0,1,0,1,,,,,,,,,,
,,,,5e14ffee6f6c63b33cf77eb3,A,2024-07-02_12h32.08.010,Slot Machine Game,2023.1.3,Linux x86_64,60.60606061,,,,,,,,,,,,,,,,,,,,,,,,,,,10,,,,,,,,,,,,,,,,,,,,,9,9,,,616.6086,2,left,0.1679,,0.5,0.3,"[3,2,1]",0.739317104,stimuli/card_0_transparent.png,0,2,0,2,0,1,,,,,,,,,,
,,,,5e14ffee6f6c63b33cf77eb3,A,2024-07-02_12h32.08.010,Slot Machine Game,2023.1.3,Linux x86_64,60.60606061,,,,,,,,,,,,,,,,,,,,,,,,,,,20,,,,,,,,,,,,,,,,,,,,,9,9,,,618.1061,3,up,0.0017,,1.5,0.3,"[3,2,1]",0.497677451,stimuli/card_10_transparent.png,10,3,0,3,0,1,,,,,,,,,,
,,,,5e14ffee6f6c63b33cf77eb3,A,2024-07-02_12h32.08.010,Slot Machine Game,2023.1.3,Linux x86_64,60.60606061,,,,,,,,,,,,,,,,,,,,,,,,,,,20,,,,,,,,,,,,,,,,,,,,,9,9,,,620.4369,4,left,1.4366,,0.5,0.3,"[3,2,1]",0.684883547,stimuli/card_0_transparent.png,0,4,0,4,0,1,,,,,,,,,,
,,,,5e14ffee6f6c63b33cf77eb3,A,2024-07-02_12h32.08.010,Slot Machine Game,2023.1.3,Linux x86_64,60.60606061,,,,,,,,,,,,,,,,,,,,,,,,,,,120,,,,,,,,,,,,,,,,,,,,,9,9,,,623.1995,5,right,0.4652,,0.5,0.3,"[3,2,1]",0.797701747,stimuli/card_100_transparent.png,100,5,0,5,0,1,,,,,,,,,,
,,,,5e14ffee6f6c63b33cf77eb3,A,2024-07-02_12h32.08.010,Slot Machine Game,2023.1.3,Linux x86_64,60.60606061,,,,,,,,,,,,,,,,,,,,,,,,,,,220,,,,,,,,,,,,,,,,,,,,,9,9,,,624.9968,6,right,0.1345,,0.5,0.3,"[3,2,1]",0.717817127,stimuli/card_100_transparent.png,100,6,0,6,0,1,,,,,,,,,,
,,,,5e14ffee6f6c63b33cf77eb3,A,2024-07-02_12h32.08.010,Slot Machine Game,2023.1.3,Linux x86_64,60.60606061,,,,,,,,,,,,,,,,,,,,,,,,,,,320,,,,,,,,,,,,,,,,,,,,,9,9,,,626.4619,7,right,0.3855,,1.5,0.3,"[3,2,1]",0.516497829,stimuli/card_100_transparent.png,100,7,0,7,0,1,,,,,,,,,,
,,,,5e14ffee6f6c63b33cf77eb3,A,2024-07-02_12h32.08.010,Slot Machine Game,2023.1.3,Linux x86_64,60.60606061,,,,,,,,,,,,,,,,,,,,,,,,,,,330,,,,,,,,,,,,,,,,,,,,,9,9,,,629.1743,8,right,0.6208,,1,0.3,"[3,1,2]",0.505383909,stimuli/card_10_transparent.png,10,8,0,8,0,1,,,,,,,,,,
,,,,5e14ffee6f6c63b33cf77eb3,A,2024-07-02_12h32.08.010,Slot Machine Game,2023.1.3,Linux x86_64,60.60606061,,,,,,,,,,,,,,,,,,,,,,,,,,,430,,,,,,,,,,,,,,,,,,,,,9,9,,,631.6213,9,right,0.4334,,0.5,0.3,"[3,1,2]",0.132593187,stimuli/card_100_transparent.png,100,9,0,9,0,1,,,,,,,,,,
,,,,5e14ffee6f6c63b33cf77eb3,A,2024-07-02_12h32.08.010,Slot Machine Game,2023.1.3,Linux x86_64,60.60606061,,,,,,,,,,,,,,,,,,,,,,,,,,,440,,,,,,,,,,,,,,,,,,,,,9,9,,,633.3854,10,right,0.0523,,1,0.3,"[3,1,2]",0.938622864,stimuli/card_10_transparent.png,10,10,0,10,0,1,,,,,,,,,,
,,,,5e14ffee6f6c63b33cf77eb3,A,2024-07-02_12h32.08.010,Slot Machine Game,2023.1.3,Linux x86_64,60.60606061,,,,,,,,,,,,,,,,,,,,,,,,,,,440,,,,,,,,,,,,,,,,,,,,,9,9,,,635.2659,11,right,1.6504,,0.5,0.3,"[3,1,2]",0.002044171,stimuli/card_0_transparent.png,0,11,0,11,0,1,,,,,,,,,,
,,,,5e14ffee6f6c63b33cf77eb3,A,2024-07-02_12h32.08.010,Slot Machine Game,2023.1.3,Linux x86_64,60.60606061,,,,,,,,,,,,,,,,,,,,,,,,,,,440,,,,,,,,,,,,,,,,,,,,,9,9,,,638.2452,12,left,0.6905,,1,0.3,"[3,1,2]",0.462410911,stimuli/card_0_transparent.png,0,12,0,12,0,1,,,,,,,,,,
,,,,5e14ffee6f6c63b33cf77eb3,A,2024-07-02_12h32.08.010,Slot Machine Game,2023.1.3,Linux x86_64,60.60606061,,,,,,,,,,,,,,,,,,,,,,,,,,,540,,,,,,,,,,,,,,,,,,,,,9,9,,,640.7583,13,up,1.1655,,1,0.3,"[3,1,2]",0.591465168,stimuli/card_100_transparent.png,100,13,0,13,0,1,,,,,,,,,,
,,,,5e14ffee6f6c63b33cf77eb3,A,2024-07-02_12h32.08.010,Slot Machine Game,2023.1.3,Linux x86_64,60.60606061,,,,,,,,,,,,,,,,,,,,,,,,,,,640,,,,,,,,,,,,,,,,,,,,,9,9,,,643.7553,14,up,0.4169,,1,0.3,"[3,1,2]",0.933169853,stimuli/card_100_transparent.png,100,14,0,14,0,1,,,,,,,,,,
,,,,5e14ffee6f6c63b33cf77eb3,A,2024-07-02_12h32.08.010,Slot Machine Game,2023.1.3,Linux x86_64,60.60606061,,,,,,,,,,,,,,,,,,,,,,,,,,,,,,,,,,,646.0009,,,,,,,,,,,,,,,,,,,,,,,,,,,,,,,,,"[850,740,930,820,840,840,940,1310,640]",8,0,8,0,1,,,,
,,,,5e14ffee6f6c63b33cf77eb3,A,2024-07-02_12h32.08.010,Slot Machine Game,2023.1.3,Linux x86_64,60.60606061,,,,,,,,,,,,,,,,,,,,,,,,,,,10,,,,,,,,,,,,,,,,,,,,,10,10,"[10,15]","[[3,1,2],[1,3,2]]",651.0203,0,up,0.1215,,0.5,0.3,"[3,1,2]",0.179276345,stimuli/card_10_transparent.png,10,0,0,0,0,1,,,,,,,,,,
,,,,5e14ffee6f6c63b33cf77eb3,A,2024-07-02_12h32.08.010,Slot Machine Game,2023.1.3,Linux x86_64,60.60606061,,,,,,,,,,,,,,,,,,,,,,,,,,,10,,,,,,,,,,,,,,,,,,,,,10,10,,,652.4592,1,left,0.3195,,1,0.3,"[3,1,2]",0.527736213,stimuli/card_0_transparent.png,0,1,0,1,0,1,,,,,,,,,,
,,,,5e14ffee6f6c63b33cf77eb3,A,2024-07-02_12h32.08.010,Slot Machine Game,2023.1.3,Linux x86_64,60.60606061,,,,,,,,,,,,,,,,,,,,,,,,,,,10,,,,,,,,,,,,,,,,,,,,,10,10,,,654.6058,2,left,0.0163,,0.5,0.3,"[3,1,2]",0.883773138,stimuli/card_0_transparent.png,0,2,0,2,0,1,,,,,,,,,,
,,,,5e14ffee6f6c63b33cf77eb3,A,2024-07-02_12h32.08.010,Slot Machine Game,2023.1.3,Linux x86_64,60.60606061,,,,,,,,,,,,,,,,,,,,,,,,,,,20,,,,,,,,,,,,,,,,,,,,,10,10,,,655.9542,3,right,0.0179,,1,0.3,"[3,1,2]",0.777123773,stimuli/card_10_transparent.png,10,3,0,3,0,1,,,,,,,,,,
,,,,5e14ffee6f6c63b33cf77eb3,A,2024-07-02_12h32.08.010,Slot Machine Game,2023.1.3,Linux x86_64,60.60606061,,,,,,,,,,,,,,,,,,,,,,,,,,,30,,,,,,,,,,,,,,,,,,,,,10,10,,,657.8017,4,right,0.0182,,1.5,0.3,"[3,1,2]",0.606708135,stimuli/card_10_transparent.png,10,4,0,4,0,1,,,,,,,,,,
,,,,5e14ffee6f6c63b33cf77eb3,A,2024-07-02_12h32.08.010,Slot Machine Game,2023.1.3,Linux x86_64,60.60606061,,,,,,,,,,,,,,,,,,,,,,,,,,,130,,,,,,,,,,,,,,,,,,,,,10,10,,,660.1481,5,up,0.4484,,1.5,0.3,"[3,1,2]",0.562444765,stimuli/card_100_transparent.png,100,5,0,5,0,1,,,,,,,,,,
,,,,5e14ffee6f6c63b33cf77eb3,A,2024-07-02_12h32.08.010,Slot Machine Game,2023.1.3,Linux x86_64,60.60606061,,,,,,,,,,,,,,,,,,,,,,,,,,,230,,,,,,,,,,,,,,,,,,,,,10,10,,,662.9274,6,up,0.5723,,1,0.3,"[3,1,2]",0.741652678,stimuli/card_100_transparent.png,100,6,0,6,0,1,,,,,,,,,,
,,,,5e14ffee6f6c63b33cf77eb3,A,2024-07-02_12h32.08.010,Slot Machine Game,2023.1.3,Linux x86_64,60.60606061,,,,,,,,,,,,,,,,,,,,,,,,,,,240,,,,,,,,,,,,,,,,,,,,,10,10,,,665.3243,7,up,0.4496,,0.5,0.3,"[3,1,2]",0.104886731,stimuli/card_10_transparent.png,10,7,0,7,0,1,,,,,,,,,,
,,,,5e14ffee6f6c63b33cf77eb3,A,2024-07-02_12h32.08.010,Slot Machine Game,2023.1.3,Linux x86_64,60.60606061,,,,,,,,,,,,,,,,,,,,,,,,,,,340,,,,,,,,,,,,,,,,,,,,,10,10,,,667.1052,8,up,0.04,,1,0.3,"[3,1,2]",0.443993066,stimuli/card_100_transparent.png,100,8,0,8,0,1,,,,,,,,,,
,,,,5e14ffee6f6c63b33cf77eb3,A,2024-07-02_12h32.08.010,Slot Machine Game,2023.1.3,Linux x86_64,60.60606061,,,,,,,,,,,,,,,,,,,,,,,,,,,440,,,,,,,,,,,,,,,,,,,,,10,10,,,668.9692,9,up,1.58,,0.5,0.3,"[3,1,2]",0.327375903,stimuli/card_100_transparent.png,100,9,0,9,0,1,,,,,,,,,,
,,,,5e14ffee6f6c63b33cf77eb3,A,2024-07-02_12h32.08.010,Slot Machine Game,2023.1.3,Linux x86_64,60.60606061,,,,,,,,,,,,,,,,,,,,,,,,,,,440,,,,,,,,,,,,,,,,,,,,,10,10,,,671.8819,10,up,0.4903,,0.5,0.3,"[1,3,2]",0.943247632,stimuli/card_0_transparent.png,0,10,0,10,0,1,,,,,,,,,,
,,,,5e14ffee6f6c63b33cf77eb3,A,2024-07-02_12h32.08.010,Slot Machine Game,2023.1.3,Linux x86_64,60.60606061,,,,,,,,,,,,,,,,,,,,,,,,,,,540,,,,,,,,,,,,,,,,,,,,,10,10,,,673.696,11,up,0.3659,,0.5,0.3,"[1,3,2]",0.033939709,stimuli/card_100_transparent.png,100,11,0,11,0,1,,,,,,,,,,
,,,,5e14ffee6f6c63b33cf77eb3,A,2024-07-02_12h32.08.010,Slot Machine Game,2023.1.3,Linux x86_64,60.60606061,,,,,,,,,,,,,,,,,,,,,,,,,,,540,,,,,,,,,,,,,,,,,,,,,10,10,,,675.3941,12,up,0.4347,,0.5,0.3,"[1,3,2]",0.691274353,stimuli/card_0_transparent.png,0,12,0,12,0,1,,,,,,,,,,
,,,,5e14ffee6f6c63b33cf77eb3,A,2024-07-02_12h32.08.010,Slot Machine Game,2023.1.3,Linux x86_64,60.60606061,,,,,,,,,,,,,,,,,,,,,,,,,,,540,,,,,,,,,,,,,,,,,,,,,10,10,,,677.1578,13,up,0.3209,,1,0.3,"[1,3,2]",0.946133959,stimuli/card_0_transparent.png,0,13,0,13,0,1,,,,,,,,,,
,,,,5e14ffee6f6c63b33cf77eb3,A,2024-07-02_12h32.08.010,Slot Machine Game,2023.1.3,Linux x86_64,60.60606061,,,,,,,,,,,,,,,,,,,,,,,,,,,550,,,,,,,,,,,,,,,,,,,,,10,10,,,679.3052,14,right,0.1172,,1,0.3,"[1,3,2]",0.59607115,stimuli/card_10_transparent.png,10,14,0,14,0,1,,,,,,,,,,
,,,,5e14ffee6f6c63b33cf77eb3,A,2024-07-02_12h32.08.010,Slot Machine Game,2023.1.3,Linux x86_64,60.60606061,,,,,,,,,,,,,,,,,,,,,,,,,,,,,,,,,,,681.2529,,,,,,,,,,,,,,,,,,,,,,,,,,,,,,,,,"[850,740,930,820,840,840,940,1310,640,550]",9,0,9,0,1,,,,
,,,,5e14ffee6f6c63b33cf77eb3,A,2024-07-02_12h32.08.010,Slot Machine Game,2023.1.3,Linux x86_64,60.60606061,,,,,,,,,,,,,,,,,,,,,,,,,,,,,,,,,,,,,,,,,,,,,,,,,,,,,,,,,,,,,,,,,,,,,,,,,,9,"[850,740,930,820,840,840,940,1310,640,550]",7.4,2024-07-02_12h43.38.575
