key_resp_welcome_started,key_resp_welcome_keys,key_resp_welcome_rt,key_resp_welcome_duration,prolific_id,path_id,date,expName,psychopyVersion,OS,frameRate,key_resp_instruction1_started,key_resp_instruction1_keys,key_resp_instruction1_rt,key_resp_instruction1_duration,key_resp_instruction2_started,key_resp_instruction2_keys,key_resp_instruction2_rt,key_resp_instruction2_duration,key_resp_instruction3_started,key_resp_instruction3_keys,key_resp_instruction3_rt,key_resp_instruction3_duration,key_resp_instruction4_started,key_resp_instruction4_keys,key_resp_instruction4_rt,key_resp_instruction4_duration,practiceCondition,practice_reward_seqs,practice_trial_started,practice_trial_num,prac_presentationInterval,"practice_reward_seq: 2,1,3",practice_trials.thisRepN,practice_trials.thisTrialN,practice_trials.thisN,practice_trials.thisIndex,practice_trials.ran,practice_resp_rt,practice_resp_duration,practice_resp_keys,reward_img,cumulative_reward,trial_reward,"practice_reward_seq: 2,3,1",block_break_started,"practice_reward_seq: 1,3,2","practice_reward_seq: 3,1,2",practice_end_time,practice_end_keys,practice_end_rt,practice_end_duration,main_instruction_text_started,block_condition,block_order_indices,main_instruction_keys,main_instruction_rt,main_instruction_duration,block_number,block_assignment,current_condition,main_reward_seqs,main_trial_started,main_trial_num,main_trial_keys,main_trial_rt,main_trial_duration,main_presentationInterval,reward_presentation_time,main_reward_seq,reward_rand_val,main_reward_img,current_reward,main_trials.thisRepN,main_trials.thisTrialN,main_trials.thisN,main_trials.thisIndex,main_trials.ran,block_reward,block.thisRepN,block.thisTrialN,block.thisN,block.thisIndex,block.ran,block_reward.length,block_reward_all,reward_amount,date_end_task
0.0004,left,1.8756,,5e90a1eaad04060882d17a3d,A,2024-07-10_20h27.13.831,Slot Machine Game,2023.1.3,MacIntel,60.24096386,,,,,,,,,,,,,,,,,,,,,,,,,,,,,,,,,,,,,,,,,,,,,,,,,,,,,,,,,,,,,,,,,,,,,,,,,,,,,
,,,,5e90a1eaad04060882d17a3d,A,2024-07-10_20h27.13.831,Slot Machine Game,2023.1.3,MacIntel,60.24096386,1.8917,left,2.8719,,,,,,,,,,,,,,,,,,,,,,,,,,,,,,,,,,,,,,,,,,,,,,,,,,,,,,,,,,,,,,,,,,,,,,,,,,
,,,,5e90a1eaad04060882d17a3d,A,2024-07-10_20h27.13.831,Slot Machine Game,2023.1.3,MacIntel,60.24096386,,,,,4.7924,left,1.3689,,,,,,,,,,,,,,,,,,,,,,,,,,,,,,,,,,,,,,,,,,,,,,,,,,,,,,,,,,,,,,,,,,,,,,
,,,,5e90a1eaad04060882d17a3d,A,2024-07-10_20h27.13.831,Slot Machine Game,2023.1.3,MacIntel,60.24096386,,,,,,,,,6.1918,left,3.7321,,,,,,,,,,,,,,,,,,,,,,,,,,,,,,,,,,,,,,,,,,,,,,,,,,,,,,,,,,,,,,,,,,
,,,,5e90a1eaad04060882d17a3d,A,2024-07-10_20h27.13.831,Slot Machine Game,2023.1.3,MacIntel,60.24096386,,,,,,,,,,,,,,,,,,,,,,,,,,,,,,,,,,,,,,,,,,,,,,,,,,,,,,,,,,,,,,,,,,,,,,,,,,,,,
,,,,5e90a1eaad04060882d17a3d,A,2024-07-10_20h27.13.831,Slot Machine Game,2023.1.3,MacIntel,60.24096386,,,,,,,,,,,,,151.6312,right,2.2922,,,,,,,,,,,,,,,,,,,,,,,,,,,,,,,,,,,,,,,,,,,,,,,,,,,,,,,,,,,,,,
,,,,5e90a1eaad04060882d17a3d,A,2024-07-10_20h27.13.831,Slot Machine Game,2023.1.3,MacIntel,60.24096386,,,,,,,,,,,,,,,,,"[9,15]","[[2,1,3],[2,3,1]]",153.948,0,1.5,,0,0,0,0,1,,,,,,,,,,,,,,,,,,,,,,,,,,,,,,,,,,,,,,,,,,,,,,,,,,
,,,,5e90a1eaad04060882d17a3d,A,2024-07-10_20h27.13.831,Slot Machine Game,2023.1.3,MacIntel,60.24096386,,,,,,,,,,,,,,,,,,,159.4729,1,0.5,,1,0,1,0,1,,,,,,,,,,,,,,,,,,,,,,,,,,,,,,,,,,,,,,,,,,,,,,,,,,
,,,,5e90a1eaad04060882d17a3d,A,2024-07-10_20h27.13.831,Slot Machine Game,2023.1.3,MacIntel,60.24096386,,,,,,,,,,,,,,,,,,,164.9821,2,1.5,,2,0,2,0,1,,,,,,,,,,,,,,,,,,,,,,,,,,,,,,,,,,,,,,,,,,,,,,,,,,
,,,,5e90a1eaad04060882d17a3d,A,2024-07-10_20h27.13.831,Slot Machine Game,2023.1.3,MacIntel,60.24096386,,,,,,,,,,,,,,,,,,,170.4986,3,0.5,,3,0,3,0,1,2.2331,,left,stimuli/card_10_transparent.png,10,10,,,,,,,,,,,,,,,,,,,,,,,,,,,,,,,,,,,,,,,,,,,,
,,,,5e90a1eaad04060882d17a3d,A,2024-07-10_20h27.13.831,Slot Machine Game,2023.1.3,MacIntel,60.24096386,,,,,,,,,,,,,,,,,,,174.0649,4,1.5,,4,0,4,0,1,0.2862,,right,stimuli/card_0_transparent.png,10,0,,,,,,,,,,,,,,,,,,,,,,,,,,,,,,,,,,,,,,,,,,,,
,,,,5e90a1eaad04060882d17a3d,A,2024-07-10_20h27.13.831,Slot Machine Game,2023.1.3,MacIntel,60.24096386,,,,,,,,,,,,,,,,,,,176.6818,5,1,,5,0,5,0,1,0.0994,,up,stimuli/card_100_transparent.png,110,100,,,,,,,,,,,,,,,,,,,,,,,,,,,,,,,,,,,,,,,,,,,,
,,,,5e90a1eaad04060882d17a3d,A,2024-07-10_20h27.13.831,Slot Machine Game,2023.1.3,MacIntel,60.24096386,,,,,,,,,,,,,,,,,,,178.6151,6,1,,6,0,6,0,1,0.3463,,up,stimuli/card_100_transparent.png,210,100,,,,,,,,,,,,,,,,,,,,,,,,,,,,,,,,,,,,,,,,,,,,
,,,,5e90a1eaad04060882d17a3d,A,2024-07-10_20h27.13.831,Slot Machine Game,2023.1.3,MacIntel,60.24096386,,,,,,,,,,,,,,,,,,,180.7818,7,1.5,,7,0,7,0,1,0.5331,,up,stimuli/card_100_transparent.png,310,100,,,,,,,,,,,,,,,,,,,,,,,,,,,,,,,,,,,,,,,,,,,,
,,,,5e90a1eaad04060882d17a3d,A,2024-07-10_20h27.13.831,Slot Machine Game,2023.1.3,MacIntel,60.24096386,,,,,,,,,,,,,,,,,,,183.6486,8,1,,8,0,8,0,1,0.3117,,up,stimuli/card_100_transparent.png,410,100,,,,,,,,,,,,,,,,,,,,,,,,,,,,,,,,,,,,,,,,,,,,
,,,,5e90a1eaad04060882d17a3d,A,2024-07-10_20h27.13.831,Slot Machine Game,2023.1.3,MacIntel,60.24096386,,,,,,,,,,,,,,,,,,,185.7821,9,0.5,,9,0,9,0,1,0.1674,,up,stimuli/card_0_transparent.png,410,0,,,,,,,,,,,,,,,,,,,,,,,,,,,,,,,,,,,,,,,,,,,,
,,,,5e90a1eaad04060882d17a3d,A,2024-07-10_20h27.13.831,Slot Machine Game,2023.1.3,MacIntel,60.24096386,,,,,,,,,,,,,,,,,,,187.2822,10,1,,10,0,10,0,1,0.0339,,left,stimuli/card_10_transparent.png,420,10,,,,,,,,,,,,,,,,,,,,,,,,,,,,,,,,,,,,,,,,,,,,
,,,,5e90a1eaad04060882d17a3d,A,2024-07-10_20h27.13.831,Slot Machine Game,2023.1.3,MacIntel,60.24096386,,,,,,,,,,,,,,,,,,,189.1478,11,1,,11,0,11,0,1,0.1658,,right,stimuli/card_100_transparent.png,520,100,,,,,,,,,,,,,,,,,,,,,,,,,,,,,,,,,,,,,,,,,,,,
,,,,5e90a1eaad04060882d17a3d,A,2024-07-10_20h27.13.831,Slot Machine Game,2023.1.3,MacIntel,60.24096386,,,,,,,,,,,,,,,,,,,191.1318,12,1.5,,12,0,12,0,1,0.3435,,right,stimuli/card_100_transparent.png,620,100,,,,,,,,,,,,,,,,,,,,,,,,,,,,,,,,,,,,,,,,,,,,
,,,,5e90a1eaad04060882d17a3d,A,2024-07-10_20h27.13.831,Slot Machine Game,2023.1.3,MacIntel,60.24096386,,,,,,,,,,,,,,,,,,,193.7824,13,1,,13,0,13,0,1,0.0999,,right,stimuli/card_100_transparent.png,720,100,,,,,,,,,,,,,,,,,,,,,,,,,,,,,,,,,,,,,,,,,,,,
,,,,5e90a1eaad04060882d17a3d,A,2024-07-10_20h27.13.831,Slot Machine Game,2023.1.3,MacIntel,60.24096386,,,,,,,,,,,,,,,,,,,195.7158,14,1,,14,0,14,0,1,0.0003,,right,stimuli/card_0_transparent.png,720,0,,,,,,,,,,,,,,,,,,,,,,,,,,,,,,,,,,,,,,,,,,,,
,,,,5e90a1eaad04060882d17a3d,A,2024-07-10_20h27.13.831,Slot Machine Game,2023.1.3,MacIntel,60.24096386,,,,,,,,,,,,,,,,,"[6,15]","[[1,3,2],[3,1,2]]",202.5502,0,0.5,,0,0,0,0,1,0.6938,,up,stimuli/card_0_transparent.png,0,0,,197.5496,,,,,,,,,,,,,,,,,,,,,,,,,,,,,,,,,,,,,,,,,,
,,,,5e90a1eaad04060882d17a3d,A,2024-07-10_20h27.13.831,Slot Machine Game,2023.1.3,MacIntel,60.24096386,,,,,,,,,,,,,,,,,,,204.5662,1,0.5,,1,0,1,0,1,0.4013,,up,stimuli/card_0_transparent.png,0,0,,,,,,,,,,,,,,,,,,,,,,,,,,,,,,,,,,,,,,,,,,,,
,,,,5e90a1eaad04060882d17a3d,A,2024-07-10_20h27.13.831,Slot Machine Game,2023.1.3,MacIntel,60.24096386,,,,,,,,,,,,,,,,,,,206.2986,2,1.5,,2,0,2,0,1,0.0877,,right,stimuli/card_10_transparent.png,10,10,,,,,,,,,,,,,,,,,,,,,,,,,,,,,,,,,,,,,,,,,,,,
,,,,5e90a1eaad04060882d17a3d,A,2024-07-10_20h27.13.831,Slot Machine Game,2023.1.3,MacIntel,60.24096386,,,,,,,,,,,,,,,,,,,208.6998,3,0.5,,3,0,3,0,1,0.2892,,left,stimuli/card_0_transparent.png,10,0,,,,,,,,,,,,,,,,,,,,,,,,,,,,,,,,,,,,,,,,,,,,
,,,,5e90a1eaad04060882d17a3d,A,2024-07-10_20h27.13.831,Slot Machine Game,2023.1.3,MacIntel,60.24096386,,,,,,,,,,,,,,,,,,,210.3164,4,1,,4,0,4,0,1,0.4321,,right,stimuli/card_10_transparent.png,20,10,,,,,,,,,,,,,,,,,,,,,,,,,,,,,,,,,,,,,,,,,,,,
,,,,5e90a1eaad04060882d17a3d,A,2024-07-10_20h27.13.831,Slot Machine Game,2023.1.3,MacIntel,60.24096386,,,,,,,,,,,,,,,,,,,212.5831,5,1,,5,0,5,0,1,0.2153,,up,stimuli/card_100_transparent.png,120,100,,,,,,,,,,,,,,,,,,,,,,,,,,,,,,,,,,,,,,,,,,,,
,,,,5e90a1eaad04060882d17a3d,A,2024-07-10_20h27.13.831,Slot Machine Game,2023.1.3,MacIntel,60.24096386,,,,,,,,,,,,,,,,,,,214.6331,6,1.5,,6,0,6,0,1,0.0658,,up,stimuli/card_100_transparent.png,220,100,,,,,,,,,,,,,,,,,,,,,,,,,,,,,,,,,,,,,,,,,,,,
,,,,5e90a1eaad04060882d17a3d,A,2024-07-10_20h27.13.831,Slot Machine Game,2023.1.3,MacIntel,60.24096386,,,,,,,,,,,,,,,,,,,217.0334,7,1.5,,7,0,7,0,1,0.0005,,up,stimuli/card_100_transparent.png,320,100,,,,,,,,,,,,,,,,,,,,,,,,,,,,,,,,,,,,,,,,,,,,
,,,,5e90a1eaad04060882d17a3d,A,2024-07-10_20h27.13.831,Slot Machine Game,2023.1.3,MacIntel,60.24096386,,,,,,,,,,,,,,,,,,,219.3667,8,1,,8,0,8,0,1,0.3613,,up,stimuli/card_100_transparent.png,420,100,,,,,,,,,,,,,,,,,,,,,,,,,,,,,,,,,,,,,,,,,,,,
,,,,5e90a1eaad04060882d17a3d,A,2024-07-10_20h27.13.831,Slot Machine Game,2023.1.3,MacIntel,60.24096386,,,,,,,,,,,,,,,,,,,221.5498,9,1,,9,0,9,0,1,0.2992,,up,stimuli/card_100_transparent.png,520,100,,,,,,,,,,,,,,,,,,,,,,,,,,,,,,,,,,,,,,,,,,,,
,,,,5e90a1eaad04060882d17a3d,A,2024-07-10_20h27.13.831,Slot Machine Game,2023.1.3,MacIntel,60.24096386,,,,,,,,,,,,,,,,,,,223.6669,10,0.5,,10,0,10,0,1,0.26,,up,stimuli/card_100_transparent.png,620,100,,,,,,,,,,,,,,,,,,,,,,,,,,,,,,,,,,,,,,,,,,,,
,,,,5e90a1eaad04060882d17a3d,A,2024-07-10_20h27.13.831,Slot Machine Game,2023.1.3,MacIntel,60.24096386,,,,,,,,,,,,,,,,,,,225.2503,11,0.5,,11,0,11,0,1,0.0346,,up,stimuli/card_10_transparent.png,630,10,,,,,,,,,,,,,,,,,,,,,,,,,,,,,,,,,,,,,,,,,,,,
,,,,5e90a1eaad04060882d17a3d,A,2024-07-10_20h27.13.831,Slot Machine Game,2023.1.3,MacIntel,60.24096386,,,,,,,,,,,,,,,,,,,226.617,12,1.5,,12,0,12,0,1,0.0866,,left,stimuli/card_0_transparent.png,630,0,,,,,,,,,,,,,,,,,,,,,,,,,,,,,,,,,,,,,,,,,,,,
,,,,5e90a1eaad04060882d17a3d,A,2024-07-10_20h27.13.831,Slot Machine Game,2023.1.3,MacIntel,60.24096386,,,,,,,,,,,,,,,,,,,229.0328,13,1.5,,13,0,13,0,1,0.0003,,right,stimuli/card_10_transparent.png,640,10,,,,,,,,,,,,,,,,,,,,,,,,,,,,,,,,,,,,,,,,,,,,
,,,,5e90a1eaad04060882d17a3d,A,2024-07-10_20h27.13.831,Slot Machine Game,2023.1.3,MacIntel,60.24096386,,,,,,,,,,,,,,,,,,,231.3503,14,1,,14,0,14,0,1,0.1008,,up,stimuli/card_100_transparent.png,740,100,,,,,,,,,,,,,,,,,,,,,,,,,,,,,,,,,,,,,,,,,,,,
,,,,5e90a1eaad04060882d17a3d,A,2024-07-10_20h27.13.831,Slot Machine Game,2023.1.3,MacIntel,60.24096386,,,,,,,,,,,,,,,,,,,,,,,,,,,,,,,,,,,233.284,,,238.2844,space,1.2039,,,,,,,,,,,,,,,,,,,,,,,,,,,,,,,,,,,,,
,,,,5e90a1eaad04060882d17a3d,A,2024-07-10_20h27.13.831,Slot Machine Game,2023.1.3,MacIntel,60.24096386,,,,,,,,,,,,,,,,,,,,,,,,,,,,,,,,,,,,,,,,,,239.5183,2,"[2,4,8,0,1,3,9,6,8,5]",space,1.6221,,,,,,,,,,,,,,,,,,,,,,,,,,,,,,,
,,,,5e90a1eaad04060882d17a3d,A,2024-07-10_20h27.13.831,Slot Machine Game,2023.1.3,MacIntel,60.24096386,,,,,,,,,,,,,,,,,,,,,,,,,,,,,,,,100,,,,,,,,,,,,,,,,1,3,"[15,15]","[[3,1,2],[3,1,2]]",241.172,0,up,0.6332,,1.5,0.3,"[3,1,2]",0.213571986,stimuli/card_100_transparent.png,100,0,0,0,0,1,,,,,,,,,,
,,,,5e90a1eaad04060882d17a3d,A,2024-07-10_20h27.13.831,Slot Machine Game,2023.1.3,MacIntel,60.24096386,,,,,,,,,,,,,,,,,,,,,,,,,,,,,,,,200,,,,,,,,,,,,,,,,1,3,,,244.134,1,up,0.2538,,0.5,0.3,"[3,1,2]",0.869125714,stimuli/card_100_transparent.png,100,1,0,1,0,1,,,,,,,,,,
,,,,5e90a1eaad04060882d17a3d,A,2024-07-10_20h27.13.831,Slot Machine Game,2023.1.3,MacIntel,60.24096386,,,,,,,,,,,,,,,,,,,,,,,,,,,,,,,,200,,,,,,,,,,,,,,,,1,3,,,245.7001,2,up,0.2824,,0.5,0.3,"[3,1,2]",0.023956466,stimuli/card_0_transparent.png,0,2,0,2,0,1,,,,,,,,,,
,,,,5e90a1eaad04060882d17a3d,A,2024-07-10_20h27.13.831,Slot Machine Game,2023.1.3,MacIntel,60.24096386,,,,,,,,,,,,,,,,,,,,,,,,,,,,,,,,200,,,,,,,,,,,,,,,,1,3,,,247.3011,3,left,0.2606,,0.5,0.3,"[3,1,2]",0.421265041,stimuli/card_0_transparent.png,0,3,0,3,0,1,,,,,,,,,,
,,,,5e90a1eaad04060882d17a3d,A,2024-07-10_20h27.13.831,Slot Machine Game,2023.1.3,MacIntel,60.24096386,,,,,,,,,,,,,,,,,,,,,,,,,,,,,,,,210,,,,,,,,,,,,,,,,1,3,,,248.8845,4,right,0.7612,,1.5,0.3,"[3,1,2]",0.276430226,stimuli/card_10_transparent.png,10,4,0,4,0,1,,,,,,,,,,
,,,,5e90a1eaad04060882d17a3d,A,2024-07-10_20h27.13.831,Slot Machine Game,2023.1.3,MacIntel,60.24096386,,,,,,,,,,,,,,,,,,,,,,,,,,,,,,,,310,,,,,,,,,,,,,,,,1,3,,,251.967,5,up,0.0841,,1,0.3,"[3,1,2]",0.696082298,stimuli/card_100_transparent.png,100,5,0,5,0,1,,,,,,,,,,
,,,,5e90a1eaad04060882d17a3d,A,2024-07-10_20h27.13.831,Slot Machine Game,2023.1.3,MacIntel,60.24096386,,,,,,,,,,,,,,,,,,,,,,,,,,,,,,,,410,,,,,,,,,,,,,,,,1,3,,,253.8681,6,up,0.1148,,1,0.3,"[3,1,2]",0.562861996,stimuli/card_100_transparent.png,100,6,0,6,0,1,,,,,,,,,,
,,,,5e90a1eaad04060882d17a3d,A,2024-07-10_20h27.13.831,Slot Machine Game,2023.1.3,MacIntel,60.24096386,,,,,,,,,,,,,,,,,,,,,,,,,,,,,,,,410,,,,,,,,,,,,,,,,1,3,,,255.8171,7,up,0.2984,,1,0.3,"[3,1,2]",0.032600272,stimuli/card_0_transparent.png,0,7,0,7,0,1,,,,,,,,,,
,,,,5e90a1eaad04060882d17a3d,A,2024-07-10_20h27.13.831,Slot Machine Game,2023.1.3,MacIntel,60.24096386,,,,,,,,,,,,,,,,,,,,,,,,,,,,,,,,420,,,,,,,,,,,,,,,,1,3,,,257.9349,8,right,0.3167,,0.5,0.3,"[3,1,2]",0.894006939,stimuli/card_10_transparent.png,10,8,0,8,0,1,,,,,,,,,,
,,,,5e90a1eaad04060882d17a3d,A,2024-07-10_20h27.13.831,Slot Machine Game,2023.1.3,MacIntel,60.24096386,,,,,,,,,,,,,,,,,,,,,,,,,,,,,,,,520,,,,,,,,,,,,,,,,1,3,,,259.585,9,up,0.8327,,1,0.3,"[3,1,2]",0.261726516,stimuli/card_100_transparent.png,100,9,0,9,0,1,,,,,,,,,,
,,,,5e90a1eaad04060882d17a3d,A,2024-07-10_20h27.13.831,Slot Machine Game,2023.1.3,MacIntel,60.24096386,,,,,,,,,,,,,,,,,,,,,,,,,,,,,,,,620,,,,,,,,,,,,,,,,1,3,,,262.2517,10,up,0.1498,,1.5,0.3,"[3,1,2]",0.690434709,stimuli/card_100_transparent.png,100,10,0,10,0,1,,,,,,,,,,
,,,,5e90a1eaad04060882d17a3d,A,2024-07-10_20h27.13.831,Slot Machine Game,2023.1.3,MacIntel,60.24096386,,,,,,,,,,,,,,,,,,,,,,,,,,,,,,,,720,,,,,,,,,,,,,,,,1,3,,,264.7351,11,up,0.4684,,0.5,0.3,"[3,1,2]",0.704057128,stimuli/card_100_transparent.png,100,11,0,11,0,1,,,,,,,,,,
,,,,5e90a1eaad04060882d17a3d,A,2024-07-10_20h27.13.831,Slot Machine Game,2023.1.3,MacIntel,60.24096386,,,,,,,,,,,,,,,,,,,,,,,,,,,,,,,,820,,,,,,,,,,,,,,,,1,3,,,266.5353,12,up,0.1008,,1,0.3,"[3,1,2]",0.785040138,stimuli/card_100_transparent.png,100,12,0,12,0,1,,,,,,,,,,
,,,,5e90a1eaad04060882d17a3d,A,2024-07-10_20h27.13.831,Slot Machine Game,2023.1.3,MacIntel,60.24096386,,,,,,,,,,,,,,,,,,,,,,,,,,,,,,,,920,,,,,,,,,,,,,,,,1,3,,,268.4676,13,up,0.3188,,0.5,0.3,"[3,1,2]",0.525429773,stimuli/card_100_transparent.png,100,13,0,13,0,1,,,,,,,,,,
,,,,5e90a1eaad04060882d17a3d,A,2024-07-10_20h27.13.831,Slot Machine Game,2023.1.3,MacIntel,60.24096386,,,,,,,,,,,,,,,,,,,,,,,,,,,,,,,,930,,,,,,,,,,,,,,,,1,3,,,270.1177,14,up,0.144,,1,0.3,"[3,1,2]",0.182114476,stimuli/card_10_transparent.png,10,14,0,14,0,1,,,,,,,,,,
,,,,5e90a1eaad04060882d17a3d,A,2024-07-10_20h27.13.831,Slot Machine Game,2023.1.3,MacIntel,60.24096386,,,,,,,,,,,,,,,,,,,,,,,,,,,,,,,,,,,272.0689,,,,,,,,,,,,,,,,,,,,,,,,,,,,,,,,,[930],0,0,0,0,1,,,,
,,,,5e90a1eaad04060882d17a3d,A,2024-07-10_20h27.13.831,Slot Machine Game,2023.1.3,MacIntel,60.24096386,,,,,,,,,,,,,,,,,,,,,,,,,,,,,,,,100,,,,,,,,,,,,,,,,2,5,"[5,15]","[[1,2,3],[3,1,2]]",277.0706,0,left,0.2695,,1.5,0.3,"[1,2,3]",0.380419223,stimuli/card_100_transparent.png,100,0,0,0,0,1,,,,,,,,,,
,,,,5e90a1eaad04060882d17a3d,A,2024-07-10_20h27.13.831,Slot Machine Game,2023.1.3,MacIntel,60.24096386,,,,,,,,,,,,,,,,,,,,,,,,,,,,,,,,100,,,,,,,,,,,,,,,,2,5,,,279.6691,1,left,0.0018,,0.5,0.3,"[1,2,3]",0.018497048,stimuli/card_0_transparent.png,0,1,0,1,0,1,,,,,,,,,,
,,,,5e90a1eaad04060882d17a3d,A,2024-07-10_20h27.13.831,Slot Machine Game,2023.1.3,MacIntel,60.24096386,,,,,,,,,,,,,,,,,,,,,,,,,,,,,,,,200,,,,,,,,,,,,,,,,2,5,,,281.0025,2,left,0.6325,,1.5,0.3,"[1,2,3]",0.245468679,stimuli/card_100_transparent.png,100,2,0,2,0,1,,,,,,,,,,
,,,,5e90a1eaad04060882d17a3d,A,2024-07-10_20h27.13.831,Slot Machine Game,2023.1.3,MacIntel,60.24096386,,,,,,,,,,,,,,,,,,,,,,,,,,,,,,,,300,,,,,,,,,,,,,,,,2,5,,,283.9693,3,left,0.051,,1.5,0.3,"[1,2,3]",0.456856444,stimuli/card_100_transparent.png,100,3,0,3,0,1,,,,,,,,,,
,,,,5e90a1eaad04060882d17a3d,A,2024-07-10_20h27.13.831,Slot Machine Game,2023.1.3,MacIntel,60.24096386,,,,,,,,,,,,,,,,,,,,,,,,,,,,,,,,300,,,,,,,,,,,,,,,,2,5,,,286.3518,4,left,0.1002,,0.5,0.3,"[1,2,3]",0.084555648,stimuli/card_0_transparent.png,0,4,0,4,0,1,,,,,,,,,,
,,,,5e90a1eaad04060882d17a3d,A,2024-07-10_20h27.13.831,Slot Machine Game,2023.1.3,MacIntel,60.24096386,,,,,,,,,,,,,,,,,,,,,,,,,,,,,,,,400,,,,,,,,,,,,,,,,2,5,,,287.7695,5,up,0.0004,,1.5,0.3,"[3,1,2]",0.522054484,stimuli/card_100_transparent.png,100,5,0,5,0,1,,,,,,,,,,
,,,,5e90a1eaad04060882d17a3d,A,2024-07-10_20h27.13.831,Slot Machine Game,2023.1.3,MacIntel,60.24096386,,,,,,,,,,,,,,,,,,,,,,,,,,,,,,,,500,,,,,,,,,,,,,,,,2,5,,,290.1029,6,up,0.3827,,0.5,0.3,"[3,1,2]",0.607279342,stimuli/card_100_transparent.png,100,6,0,6,0,1,,,,,,,,,,
,,,,5e90a1eaad04060882d17a3d,A,2024-07-10_20h27.13.831,Slot Machine Game,2023.1.3,MacIntel,60.24096386,,,,,,,,,,,,,,,,,,,,,,,,,,,,,,,,600,,,,,,,,,,,,,,,,2,5,,,291.8188,7,up,0.0104,,0.5,0.3,"[3,1,2]",0.442835645,stimuli/card_100_transparent.png,100,7,0,7,0,1,,,,,,,,,,
,,,,5e90a1eaad04060882d17a3d,A,2024-07-10_20h27.13.831,Slot Machine Game,2023.1.3,MacIntel,60.24096386,,,,,,,,,,,,,,,,,,,,,,,,,,,,,,,,700,,,,,,,,,,,,,,,,2,5,,,293.1364,8,up,0.2988,,0.5,0.3,"[3,1,2]",0.352464922,stimuli/card_100_transparent.png,100,8,0,8,0,1,,,,,,,,,,
,,,,5e90a1eaad04060882d17a3d,A,2024-07-10_20h27.13.831,Slot Machine Game,2023.1.3,MacIntel,60.24096386,,,,,,,,,,,,,,,,,,,,,,,,,,,,,,,,700,,,,,,,,,,,,,,,,2,5,,,294.7698,9,up,0.1333,,1,0.3,"[3,1,2]",0.076475884,stimuli/card_0_transparent.png,0,9,0,9,0,1,,,,,,,,,,
,,,,5e90a1eaad04060882d17a3d,A,2024-07-10_20h27.13.831,Slot Machine Game,2023.1.3,MacIntel,60.24096386,,,,,,,,,,,,,,,,,,,,,,,,,,,,,,,,710,,,,,,,,,,,,,,,,2,5,,,296.7355,10,right,0.2937,,0.5,0.3,"[3,1,2]",0.504254176,stimuli/card_10_transparent.png,10,10,0,10,0,1,,,,,,,,,,
,,,,5e90a1eaad04060882d17a3d,A,2024-07-10_20h27.13.831,Slot Machine Game,2023.1.3,MacIntel,60.24096386,,,,,,,,,,,,,,,,,,,,,,,,,,,,,,,,720,,,,,,,,,,,,,,,,2,5,,,298.3366,11,up,0.2318,,1.5,0.3,"[3,1,2]",0.187941965,stimuli/card_10_transparent.png,10,11,0,11,0,1,,,,,,,,,,
,,,,5e90a1eaad04060882d17a3d,A,2024-07-10_20h27.13.831,Slot Machine Game,2023.1.3,MacIntel,60.24096386,,,,,,,,,,,,,,,,,,,,,,,,,,,,,,,,720,,,,,,,,,,,,,,,,2,5,,,300.9034,12,left,0.3669,,1,0.3,"[3,1,2]",0.511297567,stimuli/card_0_transparent.png,0,12,0,12,0,1,,,,,,,,,,
,,,,5e90a1eaad04060882d17a3d,A,2024-07-10_20h27.13.831,Slot Machine Game,2023.1.3,MacIntel,60.24096386,,,,,,,,,,,,,,,,,,,,,,,,,,,,,,,,820,,,,,,,,,,,,,,,,2,5,,,303.1031,13,up,0.038,,0.5,0.3,"[3,1,2]",0.793068422,stimuli/card_100_transparent.png,100,13,0,13,0,1,,,,,,,,,,
,,,,5e90a1eaad04060882d17a3d,A,2024-07-10_20h27.13.831,Slot Machine Game,2023.1.3,MacIntel,60.24096386,,,,,,,,,,,,,,,,,,,,,,,,,,,,,,,,920,,,,,,,,,,,,,,,,2,5,,,304.4526,14,up,0.1509,,1.5,0.3,"[3,1,2]",0.209074507,stimuli/card_100_transparent.png,100,14,0,14,0,1,,,,,,,,,,
,,,,5e90a1eaad04060882d17a3d,A,2024-07-10_20h27.13.831,Slot Machine Game,2023.1.3,MacIntel,60.24096386,,,,,,,,,,,,,,,,,,,,,,,,,,,,,,,,,,,306.9203,,,,,,,,,,,,,,,,,,,,,,,,,,,,,,,,,"[930,920]",1,0,1,0,1,,,,
,,,,5e90a1eaad04060882d17a3d,A,2024-07-10_20h27.13.831,Slot Machine Game,2023.1.3,MacIntel,60.24096386,,,,,,,,,,,,,,,,,,,,,,,,,,,,,,,,10,,,,,,,,,,,,,,,,3,9,"[8,15]","[[3,2,1],[3,1,2]]",311.9217,0,up,0.2521,,1.5,0.3,"[3,2,1]",0.276411842,stimuli/card_10_transparent.png,10,0,0,0,0,1,,,,,,,,,,
,,,,5e90a1eaad04060882d17a3d,A,2024-07-10_20h27.13.831,Slot Machine Game,2023.1.3,MacIntel,60.24096386,,,,,,,,,,,,,,,,,,,,,,,,,,,,,,,,110,,,,,,,,,,,,,,,,3,9,,,314.504,1,right,0.2852,,1.5,0.3,"[3,2,1]",0.927829066,stimuli/card_100_transparent.png,100,1,0,1,0,1,,,,,,,,,,
,,,,5e90a1eaad04060882d17a3d,A,2024-07-10_20h27.13.831,Slot Machine Game,2023.1.3,MacIntel,60.24096386,,,,,,,,,,,,,,,,,,,,,,,,,,,,,,,,210,,,,,,,,,,,,,,,,3,9,,,317.1197,2,right,0.0842,,1,0.3,"[3,2,1]",0.487773037,stimuli/card_100_transparent.png,100,2,0,2,0,1,,,,,,,,,,
,,,,5e90a1eaad04060882d17a3d,A,2024-07-10_20h27.13.831,Slot Machine Game,2023.1.3,MacIntel,60.24096386,,,,,,,,,,,,,,,,,,,,,,,,,,,,,,,,310,,,,,,,,,,,,,,,,3,9,,,319.0374,3,right,0.033,,1.5,0.3,"[3,2,1]",0.373106118,stimuli/card_100_transparent.png,100,3,0,3,0,1,,,,,,,,,,
,,,,5e90a1eaad04060882d17a3d,A,2024-07-10_20h27.13.831,Slot Machine Game,2023.1.3,MacIntel,60.24096386,,,,,,,,,,,,,,,,,,,,,,,,,,,,,,,,320,,,,,,,,,,,,,,,,3,9,,,321.4043,4,right,0.3814,,1.5,0.3,"[3,2,1]",0.163293721,stimuli/card_10_transparent.png,10,4,0,4,0,1,,,,,,,,,,
,,,,5e90a1eaad04060882d17a3d,A,2024-07-10_20h27.13.831,Slot Machine Game,2023.1.3,MacIntel,60.24096386,,,,,,,,,,,,,,,,,,,,,,,,,,,,,,,,330,,,,,,,,,,,,,,,,3,9,,,324.1201,5,left,0.0335,,1,0.3,"[3,2,1]",0.141544403,stimuli/card_10_transparent.png,10,5,0,5,0,1,,,,,,,,,,
,,,,5e90a1eaad04060882d17a3d,A,2024-07-10_20h27.13.831,Slot Machine Game,2023.1.3,MacIntel,60.24096386,,,,,,,,,,,,,,,,,,,,,,,,,,,,,,,,330,,,,,,,,,,,,,,,,3,9,,,325.9701,6,right,0.3175,,0.5,0.3,"[3,2,1]",0.028378631,stimuli/card_0_transparent.png,0,6,0,6,0,1,,,,,,,,,,
,,,,5e90a1eaad04060882d17a3d,A,2024-07-10_20h27.13.831,Slot Machine Game,2023.1.3,MacIntel,60.24096386,,,,,,,,,,,,,,,,,,,,,,,,,,,,,,,,340,,,,,,,,,,,,,,,,3,9,,,327.6036,7,up,0.2099,,0.5,0.3,"[3,2,1]",0.35203851,stimuli/card_10_transparent.png,10,7,0,7,0,1,,,,,,,,,,
,,,,5e90a1eaad04060882d17a3d,A,2024-07-10_20h27.13.831,Slot Machine Game,2023.1.3,MacIntel,60.24096386,,,,,,,,,,,,,,,,,,,,,,,,,,,,,,,,440,,,,,,,,,,,,,,,,3,9,,,329.1203,8,up,0.0219,,1.5,0.3,"[3,1,2]",0.913762505,stimuli/card_100_transparent.png,100,8,0,8,0,1,,,,,,,,,,
,,,,5e90a1eaad04060882d17a3d,A,2024-07-10_20h27.13.831,Slot Machine Game,2023.1.3,MacIntel,60.24096386,,,,,,,,,,,,,,,,,,,,,,,,,,,,,,,,540,,,,,,,,,,,,,,,,3,9,,,331.4547,9,up,0.1539,,1,0.3,"[3,1,2]",0.647379259,stimuli/card_100_transparent.png,100,9,0,9,0,1,,,,,,,,,,
,,,,5e90a1eaad04060882d17a3d,A,2024-07-10_20h27.13.831,Slot Machine Game,2023.1.3,MacIntel,60.24096386,,,,,,,,,,,,,,,,,,,,,,,,,,,,,,,,640,,,,,,,,,,,,,,,,3,9,,,333.4381,10,up,0.1935,,1,0.3,"[3,1,2]",0.918024629,stimuli/card_100_transparent.png,100,10,0,10,0,1,,,,,,,,,,
,,,,5e90a1eaad04060882d17a3d,A,2024-07-10_20h27.13.831,Slot Machine Game,2023.1.3,MacIntel,60.24096386,,,,,,,,,,,,,,,,,,,,,,,,,,,,,,,,740,,,,,,,,,,,,,,,,3,9,,,335.4548,11,up,0.5979,,1,0.3,"[3,1,2]",0.303710086,stimuli/card_100_transparent.png,100,11,0,11,0,1,,,,,,,,,,
,,,,5e90a1eaad04060882d17a3d,A,2024-07-10_20h27.13.831,Slot Machine Game,2023.1.3,MacIntel,60.24096386,,,,,,,,,,,,,,,,,,,,,,,,,,,,,,,,840,,,,,,,,,,,,,,,,3,9,,,337.8883,12,up,0.1173,,1.5,0.3,"[3,1,2]",0.374241665,stimuli/card_100_transparent.png,100,12,0,12,0,1,,,,,,,,,,
,,,,5e90a1eaad04060882d17a3d,A,2024-07-10_20h27.13.831,Slot Machine Game,2023.1.3,MacIntel,60.24096386,,,,,,,,,,,,,,,,,,,,,,,,,,,,,,,,940,,,,,,,,,,,,,,,,3,9,,,340.3383,13,up,0.2329,,1.5,0.3,"[3,1,2]",0.596131264,stimuli/card_100_transparent.png,100,13,0,13,0,1,,,,,,,,,,
,,,,5e90a1eaad04060882d17a3d,A,2024-07-10_20h27.13.831,Slot Machine Game,2023.1.3,MacIntel,60.24096386,,,,,,,,,,,,,,,,,,,,,,,,,,,,,,,,1040,,,,,,,,,,,,,,,,3,9,,,342.9051,14,up,0.3334,,1,0.3,"[3,1,2]",0.252100282,stimuli/card_100_transparent.png,100,14,0,14,0,1,,,,,,,,,,
,,,,5e90a1eaad04060882d17a3d,A,2024-07-10_20h27.13.831,Slot Machine Game,2023.1.3,MacIntel,60.24096386,,,,,,,,,,,,,,,,,,,,,,,,,,,,,,,,,,,345.072,,,,,,,,,,,,,,,,,,,,,,,,,,,,,,,,,"[930,920,1040]",2,0,2,0,1,,,,
,,,,5e90a1eaad04060882d17a3d,A,2024-07-10_20h27.13.831,Slot Machine Game,2023.1.3,MacIntel,60.24096386,,,,,,,,,,,,,,,,,,,,,,,,,,,,,,,,0,,,,,,,,,,,,,,,,4,1,"[12,15]","[[2,1,3],[2,3,1]]",350.0725,0,up,0.1693,,0.5,0.3,"[2,1,3]",0.063843058,stimuli/card_0_transparent.png,0,0,0,0,0,1,,,,,,,,,,
,,,,5e90a1eaad04060882d17a3d,A,2024-07-10_20h27.13.831,Slot Machine Game,2023.1.3,MacIntel,60.24096386,,,,,,,,,,,,,,,,,,,,,,,,,,,,,,,,10,,,,,,,,,,,,,,,,4,1,,,351.5722,1,left,0.2829,,0.5,0.3,"[2,1,3]",0.939880713,stimuli/card_10_transparent.png,10,1,0,1,0,1,,,,,,,,,,
,,,,5e90a1eaad04060882d17a3d,A,2024-07-10_20h27.13.831,Slot Machine Game,2023.1.3,MacIntel,60.24096386,,,,,,,,,,,,,,,,,,,,,,,,,,,,,,,,20,,,,,,,,,,,,,,,,4,1,,,353.189,2,left,0.1157,,1.5,0.3,"[2,1,3]",0.35245851,stimuli/card_10_transparent.png,10,2,0,2,0,1,,,,,,,,,,
,,,,5e90a1eaad04060882d17a3d,A,2024-07-10_20h27.13.831,Slot Machine Game,2023.1.3,MacIntel,60.24096386,,,,,,,,,,,,,,,,,,,,,,,,,,,,,,,,20,,,,,,,,,,,,,,,,4,1,,,355.6391,3,right,0.284,,1,0.3,"[2,1,3]",0.96373822,stimuli/card_0_transparent.png,0,3,0,3,0,1,,,,,,,,,,
,,,,5e90a1eaad04060882d17a3d,A,2024-07-10_20h27.13.831,Slot Machine Game,2023.1.3,MacIntel,60.24096386,,,,,,,,,,,,,,,,,,,,,,,,,,,,,,,,120,,,,,,,,,,,,,,,,4,1,,,357.7558,4,up,0.2002,,0.5,0.3,"[2,1,3]",0.786117452,stimuli/card_100_transparent.png,100,4,0,4,0,1,,,,,,,,,,
,,,,5e90a1eaad04060882d17a3d,A,2024-07-10_20h27.13.831,Slot Machine Game,2023.1.3,MacIntel,60.24096386,,,,,,,,,,,,,,,,,,,,,,,,,,,,,,,,220,,,,,,,,,,,,,,,,4,1,,,359.2892,5,up,0.2559,,0.5,0.3,"[2,1,3]",0.34047252,stimuli/card_100_transparent.png,100,5,0,5,0,1,,,,,,,,,,
,,,,5e90a1eaad04060882d17a3d,A,2024-07-10_20h27.13.831,Slot Machine Game,2023.1.3,MacIntel,60.24096386,,,,,,,,,,,,,,,,,,,,,,,,,,,,,,,,230,,,,,,,,,,,,,,,,4,1,,,360.8727,6,up,0.1504,,1,0.3,"[2,1,3]",0.19387556,stimuli/card_10_transparent.png,10,6,0,6,0,1,,,,,,,,,,
,,,,5e90a1eaad04060882d17a3d,A,2024-07-10_20h27.13.831,Slot Machine Game,2023.1.3,MacIntel,60.24096386,,,,,,,,,,,,,,,,,,,,,,,,,,,,,,,,230,,,,,,,,,,,,,,,,4,1,,,362.8561,7,right,0.2672,,1,0.3,"[2,1,3]",0.315644865,stimuli/card_0_transparent.png,0,7,0,7,0,1,,,,,,,,,,
,,,,5e90a1eaad04060882d17a3d,A,2024-07-10_20h27.13.831,Slot Machine Game,2023.1.3,MacIntel,60.24096386,,,,,,,,,,,,,,,,,,,,,,,,,,,,,,,,240,,,,,,,,,,,,,,,,4,1,,,364.9562,8,left,0.0004,,0.5,0.3,"[2,1,3]",0.98638804,stimuli/card_10_transparent.png,10,8,0,8,0,1,,,,,,,,,,
,,,,5e90a1eaad04060882d17a3d,A,2024-07-10_20h27.13.831,Slot Machine Game,2023.1.3,MacIntel,60.24096386,,,,,,,,,,,,,,,,,,,,,,,,,,,,,,,,340,,,,,,,,,,,,,,,,4,1,,,366.2895,9,up,0.2021,,1.5,0.3,"[2,1,3]",0.798389309,stimuli/card_100_transparent.png,100,9,0,9,0,1,,,,,,,,,,
,,,,5e90a1eaad04060882d17a3d,A,2024-07-10_20h27.13.831,Slot Machine Game,2023.1.3,MacIntel,60.24096386,,,,,,,,,,,,,,,,,,,,,,,,,,,,,,,,440,,,,,,,,,,,,,,,,4,1,,,368.822,10,up,0.1496,,0.5,0.3,"[2,1,3]",0.224627955,stimuli/card_100_transparent.png,100,10,0,10,0,1,,,,,,,,,,
,,,,5e90a1eaad04060882d17a3d,A,2024-07-10_20h27.13.831,Slot Machine Game,2023.1.3,MacIntel,60.24096386,,,,,,,,,,,,,,,,,,,,,,,,,,,,,,,,540,,,,,,,,,,,,,,,,4,1,,,370.2897,11,up,0.0666,,0.5,0.3,"[2,1,3]",0.643193194,stimuli/card_100_transparent.png,100,11,0,11,0,1,,,,,,,,,,
,,,,5e90a1eaad04060882d17a3d,A,2024-07-10_20h27.13.831,Slot Machine Game,2023.1.3,MacIntel,60.24096386,,,,,,,,,,,,,,,,,,,,,,,,,,,,,,,,540,,,,,,,,,,,,,,,,4,1,,,371.6898,12,up,0.0443,,1,0.3,"[2,3,1]",0.705520478,stimuli/card_0_transparent.png,0,12,0,12,0,1,,,,,,,,,,
,,,,5e90a1eaad04060882d17a3d,A,2024-07-10_20h27.13.831,Slot Machine Game,2023.1.3,MacIntel,60.24096386,,,,,,,,,,,,,,,,,,,,,,,,,,,,,,,,550,,,,,,,,,,,,,,,,4,1,,,373.5565,13,left,0.2699,,1,0.3,"[2,3,1]",0.678371381,stimuli/card_10_transparent.png,10,13,0,13,0,1,,,,,,,,,,
,,,,5e90a1eaad04060882d17a3d,A,2024-07-10_20h27.13.831,Slot Machine Game,2023.1.3,MacIntel,60.24096386,,,,,,,,,,,,,,,,,,,,,,,,,,,,,,,,560,,,,,,,,,,,,,,,,4,1,,,375.6556,14,up,0.0348,,1,0.3,"[2,3,1]",0.142352691,stimuli/card_10_transparent.png,10,14,0,14,0,1,,,,,,,,,,
,,,,5e90a1eaad04060882d17a3d,A,2024-07-10_20h27.13.831,Slot Machine Game,2023.1.3,MacIntel,60.24096386,,,,,,,,,,,,,,,,,,,,,,,,,,,,,,,,,,,377.5233,,,,,,,,,,,,,,,,,,,,,,,,,,,,,,,,,"[930,920,1040,560]",3,0,3,0,1,,,,
,,,,5e90a1eaad04060882d17a3d,A,2024-07-10_20h27.13.831,Slot Machine Game,2023.1.3,MacIntel,60.24096386,,,,,,,,,,,,,,,,,,,,,,,,,,,,,,,,100,,,,,,,,,,,,,,,,5,2,"[6,15]","[[1,3,2],[3,2,1]]",382.5249,0,right,0.1833,,1,0.3,"[1,3,2]",0.120714628,stimuli/card_100_transparent.png,100,0,0,0,0,1,,,,,,,,,,
,,,,5e90a1eaad04060882d17a3d,A,2024-07-10_20h27.13.831,Slot Machine Game,2023.1.3,MacIntel,60.24096386,,,,,,,,,,,,,,,,,,,,,,,,,,,,,,,,110,,,,,,,,,,,,,,,,5,2,,,384.5402,1,right,0.4006,,1.5,0.3,"[1,3,2]",0.478109941,stimuli/card_10_transparent.png,10,1,0,1,0,1,,,,,,,,,,
,,,,5e90a1eaad04060882d17a3d,A,2024-07-10_20h27.13.831,Slot Machine Game,2023.1.3,MacIntel,60.24096386,,,,,,,,,,,,,,,,,,,,,,,,,,,,,,,,120,,,,,,,,,,,,,,,,5,2,,,387.2736,2,right,0.2,,1.5,0.3,"[1,3,2]",0.521750369,stimuli/card_10_transparent.png,10,2,0,2,0,1,,,,,,,,,,
,,,,5e90a1eaad04060882d17a3d,A,2024-07-10_20h27.13.831,Slot Machine Game,2023.1.3,MacIntel,60.24096386,,,,,,,,,,,,,,,,,,,,,,,,,,,,,,,,120,,,,,,,,,,,,,,,,5,2,,,389.8072,3,up,0.2003,,0.5,0.3,"[1,3,2]",0.86165779,stimuli/card_0_transparent.png,0,3,0,3,0,1,,,,,,,,,,
,,,,5e90a1eaad04060882d17a3d,A,2024-07-10_20h27.13.831,Slot Machine Game,2023.1.3,MacIntel,60.24096386,,,,,,,,,,,,,,,,,,,,,,,,,,,,,,,,130,,,,,,,,,,,,,,,,5,2,,,391.3406,4,right,0.2702,,0.5,0.3,"[1,3,2]",0.902760992,stimuli/card_10_transparent.png,10,4,0,4,0,1,,,,,,,,,,
,,,,5e90a1eaad04060882d17a3d,A,2024-07-10_20h27.13.831,Slot Machine Game,2023.1.3,MacIntel,60.24096386,,,,,,,,,,,,,,,,,,,,,,,,,,,,,,,,230,,,,,,,,,,,,,,,,5,2,,,392.9406,5,left,0.1015,,1.5,0.3,"[1,3,2]",0.851972451,stimuli/card_100_transparent.png,100,5,0,5,0,1,,,,,,,,,,
,,,,5e90a1eaad04060882d17a3d,A,2024-07-10_20h27.13.831,Slot Machine Game,2023.1.3,MacIntel,60.24096386,,,,,,,,,,,,,,,,,,,,,,,,,,,,,,,,230,,,,,,,,,,,,,,,,5,2,,,395.3741,6,left,0.0436,,1.5,0.3,"[3,2,1]",0.984085,stimuli/card_0_transparent.png,0,6,0,6,0,1,,,,,,,,,,
,,,,5e90a1eaad04060882d17a3d,A,2024-07-10_20h27.13.831,Slot Machine Game,2023.1.3,MacIntel,60.24096386,,,,,,,,,,,,,,,,,,,,,,,,,,,,,,,,230,,,,,,,,,,,,,,,,5,2,,,397.74,7,left,0.1356,,1.5,0.3,"[3,2,1]",0.757629823,stimuli/card_0_transparent.png,0,7,0,7,0,1,,,,,,,,,,
,,,,5e90a1eaad04060882d17a3d,A,2024-07-10_20h27.13.831,Slot Machine Game,2023.1.3,MacIntel,60.24096386,,,,,,,,,,,,,,,,,,,,,,,,,,,,,,,,240,,,,,,,,,,,,,,,,5,2,,,400.191,8,up,0.384,,0.5,0.3,"[3,2,1]",0.525324975,stimuli/card_10_transparent.png,10,8,0,8,0,1,,,,,,,,,,
,,,,5e90a1eaad04060882d17a3d,A,2024-07-10_20h27.13.831,Slot Machine Game,2023.1.3,MacIntel,60.24096386,,,,,,,,,,,,,,,,,,,,,,,,,,,,,,,,340,,,,,,,,,,,,,,,,5,2,,,401.9067,9,right,0.0168,,1,0.3,"[3,2,1]",0.258667981,stimuli/card_100_transparent.png,100,9,0,9,0,1,,,,,,,,,,
,,,,5e90a1eaad04060882d17a3d,A,2024-07-10_20h27.13.831,Slot Machine Game,2023.1.3,MacIntel,60.24096386,,,,,,,,,,,,,,,,,,,,,,,,,,,,,,,,440,,,,,,,,,,,,,,,,5,2,,,403.7411,10,right,0.0214,,1,0.3,"[3,2,1]",0.276437566,stimuli/card_100_transparent.png,100,10,0,10,0,1,,,,,,,,,,
,,,,5e90a1eaad04060882d17a3d,A,2024-07-10_20h27.13.831,Slot Machine Game,2023.1.3,MacIntel,60.24096386,,,,,,,,,,,,,,,,,,,,,,,,,,,,,,,,540,,,,,,,,,,,,,,,,5,2,,,405.5911,11,right,0.1987,,1.5,0.3,"[3,2,1]",0.54257017,stimuli/card_100_transparent.png,100,11,0,11,0,1,,,,,,,,,,
,,,,5e90a1eaad04060882d17a3d,A,2024-07-10_20h27.13.831,Slot Machine Game,2023.1.3,MacIntel,60.24096386,,,,,,,,,,,,,,,,,,,,,,,,,,,,,,,,640,,,,,,,,,,,,,,,,5,2,,,408.1246,12,right,0.0659,,1,0.3,"[3,2,1]",0.407596754,stimuli/card_100_transparent.png,100,12,0,12,0,1,,,,,,,,,,
,,,,5e90a1eaad04060882d17a3d,A,2024-07-10_20h27.13.831,Slot Machine Game,2023.1.3,MacIntel,60.24096386,,,,,,,,,,,,,,,,,,,,,,,,,,,,,,,,740,,,,,,,,,,,,,,,,5,2,,,410.0237,13,right,0.3669,,0.5,0.3,"[3,2,1]",0.663454831,stimuli/card_100_transparent.png,100,13,0,13,0,1,,,,,,,,,,
,,,,5e90a1eaad04060882d17a3d,A,2024-07-10_20h27.13.831,Slot Machine Game,2023.1.3,MacIntel,60.24096386,,,,,,,,,,,,,,,,,,,,,,,,,,,,,,,,840,,,,,,,,,,,,,,,,5,2,,,411.7081,14,right,0.0509,,0.5,0.3,"[3,2,1]",0.698612838,stimuli/card_100_transparent.png,100,14,0,14,0,1,,,,,,,,,,
,,,,5e90a1eaad04060882d17a3d,A,2024-07-10_20h27.13.831,Slot Machine Game,2023.1.3,MacIntel,60.24096386,,,,,,,,,,,,,,,,,,,,,,,,,,,,,,,,,,,413.0916,,,,,,,,,,,,,,,,,,,,,,,,,,,,,,,,,"[930,920,1040,560,840]",4,0,4,0,1,,,,
,,,,5e90a1eaad04060882d17a3d,A,2024-07-10_20h27.13.831,Slot Machine Game,2023.1.3,MacIntel,60.24096386,,,,,,,,,,,,,,,,,,,,,,,,,,,,,,,,0,,,,,,,,,,,,,,,,6,4,"[7,15]","[[2,3,1],[1,2,3]]",418.0931,0,up,0.1111,,0.5,0.3,"[2,3,1]",0.75928119,stimuli/card_0_transparent.png,0,0,0,0,0,1,,,,,,,,,,
,,,,5e90a1eaad04060882d17a3d,A,2024-07-10_20h27.13.831,Slot Machine Game,2023.1.3,MacIntel,60.24096386,,,,,,,,,,,,,,,,,,,,,,,,,,,,,,,,100,,,,,,,,,,,,,,,,6,4,,,419.525,1,right,0.0517,,0.5,0.3,"[2,3,1]",0.745537575,stimuli/card_100_transparent.png,100,1,0,1,0,1,,,,,,,,,,
,,,,5e90a1eaad04060882d17a3d,A,2024-07-10_20h27.13.831,Slot Machine Game,2023.1.3,MacIntel,60.24096386,,,,,,,,,,,,,,,,,,,,,,,,,,,,,,,,200,,,,,,,,,,,,,,,,6,4,,,420.9085,2,right,0.0832,,0.5,0.3,"[2,3,1]",0.200022682,stimuli/card_100_transparent.png,100,2,0,2,0,1,,,,,,,,,,
,,,,5e90a1eaad04060882d17a3d,A,2024-07-10_20h27.13.831,Slot Machine Game,2023.1.3,MacIntel,60.24096386,,,,,,,,,,,,,,,,,,,,,,,,,,,,,,,,300,,,,,,,,,,,,,,,,6,4,,,422.3252,3,right,0.1831,,0.5,0.3,"[2,3,1]",0.887435265,stimuli/card_100_transparent.png,100,3,0,3,0,1,,,,,,,,,,
,,,,5e90a1eaad04060882d17a3d,A,2024-07-10_20h27.13.831,Slot Machine Game,2023.1.3,MacIntel,60.24096386,,,,,,,,,,,,,,,,,,,,,,,,,,,,,,,,400,,,,,,,,,,,,,,,,6,4,,,423.8421,4,right,0.1378,,0.5,0.3,"[2,3,1]",0.361889362,stimuli/card_100_transparent.png,100,4,0,4,0,1,,,,,,,,,,
,,,,5e90a1eaad04060882d17a3d,A,2024-07-10_20h27.13.831,Slot Machine Game,2023.1.3,MacIntel,60.24096386,,,,,,,,,,,,,,,,,,,,,,,,,,,,,,,,400,,,,,,,,,,,,,,,,6,4,,,425.3088,5,right,0.2594,,1.5,0.3,"[2,3,1]",0.070660815,stimuli/card_0_transparent.png,0,5,0,5,0,1,,,,,,,,,,
,,,,5e90a1eaad04060882d17a3d,A,2024-07-10_20h27.13.831,Slot Machine Game,2023.1.3,MacIntel,60.24096386,,,,,,,,,,,,,,,,,,,,,,,,,,,,,,,,500,,,,,,,,,,,,,,,,6,4,,,427.8921,6,right,0.5366,,1.5,0.3,"[2,3,1]",0.578676731,stimuli/card_100_transparent.png,100,6,0,6,0,1,,,,,,,,,,
,,,,5e90a1eaad04060882d17a3d,A,2024-07-10_20h27.13.831,Slot Machine Game,2023.1.3,MacIntel,60.24096386,,,,,,,,,,,,,,,,,,,,,,,,,,,,,,,,500,,,,,,,,,,,,,,,,6,4,,,430.7591,7,right,0.0659,,1,0.3,"[1,2,3]",0.614157973,stimuli/card_0_transparent.png,0,7,0,7,0,1,,,,,,,,,,
,,,,5e90a1eaad04060882d17a3d,A,2024-07-10_20h27.13.831,Slot Machine Game,2023.1.3,MacIntel,60.24096386,,,,,,,,,,,,,,,,,,,,,,,,,,,,,,,,510,,,,,,,,,,,,,,,,6,4,,,432.659,8,up,0.4013,,0.5,0.3,"[1,2,3]",0.946159058,stimuli/card_10_transparent.png,10,8,0,8,0,1,,,,,,,,,,
,,,,5e90a1eaad04060882d17a3d,A,2024-07-10_20h27.13.831,Slot Machine Game,2023.1.3,MacIntel,60.24096386,,,,,,,,,,,,,,,,,,,,,,,,,,,,,,,,520,,,,,,,,,,,,,,,,6,4,,,434.3924,9,up,0.5365,,1.5,0.3,"[1,2,3]",0.832013704,stimuli/card_10_transparent.png,10,9,0,9,0,1,,,,,,,,,,
,,,,5e90a1eaad04060882d17a3d,A,2024-07-10_20h27.13.831,Slot Machine Game,2023.1.3,MacIntel,60.24096386,,,,,,,,,,,,,,,,,,,,,,,,,,,,,,,,520,,,,,,,,,,,,,,,,6,4,,,437.2591,10,right,0.1491,,0.5,0.3,"[1,2,3]",0.566798623,stimuli/card_0_transparent.png,0,10,0,10,0,1,,,,,,,,,,
,,,,5e90a1eaad04060882d17a3d,A,2024-07-10_20h27.13.831,Slot Machine Game,2023.1.3,MacIntel,60.24096386,,,,,,,,,,,,,,,,,,,,,,,,,,,,,,,,620,,,,,,,,,,,,,,,,6,4,,,438.7425,11,left,0.0324,,1,0.3,"[1,2,3]",0.333549225,stimuli/card_100_transparent.png,100,11,0,11,0,1,,,,,,,,,,
,,,,5e90a1eaad04060882d17a3d,A,2024-07-10_20h27.13.831,Slot Machine Game,2023.1.3,MacIntel,60.24096386,,,,,,,,,,,,,,,,,,,,,,,,,,,,,,,,720,,,,,,,,,,,,,,,,6,4,,,440.6094,12,left,0.3182,,1.5,0.3,"[1,2,3]",0.436989295,stimuli/card_100_transparent.png,100,12,0,12,0,1,,,,,,,,,,
,,,,5e90a1eaad04060882d17a3d,A,2024-07-10_20h27.13.831,Slot Machine Game,2023.1.3,MacIntel,60.24096386,,,,,,,,,,,,,,,,,,,,,,,,,,,,,,,,820,,,,,,,,,,,,,,,,6,4,,,443.259,13,left,0.2162,,1,0.3,"[1,2,3]",0.392976574,stimuli/card_100_transparent.png,100,13,0,13,0,1,,,,,,,,,,
,,,,5e90a1eaad04060882d17a3d,A,2024-07-10_20h27.13.831,Slot Machine Game,2023.1.3,MacIntel,60.24096386,,,,,,,,,,,,,,,,,,,,,,,,,,,,,,,,920,,,,,,,,,,,,,,,,6,4,,,445.2928,14,left,0.1166,,1.5,0.3,"[1,2,3]",0.342996311,stimuli/card_100_transparent.png,100,14,0,14,0,1,,,,,,,,,,
,,,,5e90a1eaad04060882d17a3d,A,2024-07-10_20h27.13.831,Slot Machine Game,2023.1.3,MacIntel,60.24096386,,,,,,,,,,,,,,,,,,,,,,,,,,,,,,,,,,,447.743,,,,,,,,,,,,,,,,,,,,,,,,,,,,,,,,,"[930,920,1040,560,840,920]",5,0,5,0,1,,,,
,,,,5e90a1eaad04060882d17a3d,A,2024-07-10_20h27.13.831,Slot Machine Game,2023.1.3,MacIntel,60.24096386,,,,,,,,,,,,,,,,,,,,,,,,,,,,,,,,0,,,,,,,,,,,,,,,,7,10,"[10,15]","[[3,1,2],[1,3,2]]",452.7434,0,left,0.1357,,1,0.3,"[3,1,2]",0.92869315,stimuli/card_0_transparent.png,0,0,0,0,0,1,,,,,,,,,,
,,,,5e90a1eaad04060882d17a3d,A,2024-07-10_20h27.13.831,Slot Machine Game,2023.1.3,MacIntel,60.24096386,,,,,,,,,,,,,,,,,,,,,,,,,,,,,,,,0,,,,,,,,,,,,,,,,7,10,,,454.71,1,up,0.2835,,1,0.3,"[3,1,2]",0.045465641,stimuli/card_0_transparent.png,0,1,0,1,0,1,,,,,,,,,,
,,,,5e90a1eaad04060882d17a3d,A,2024-07-10_20h27.13.831,Slot Machine Game,2023.1.3,MacIntel,60.24096386,,,,,,,,,,,,,,,,,,,,,,,,,,,,,,,,100,,,,,,,,,,,,,,,,7,10,,,456.8257,2,right,0.0515,,1.5,0.3,"[3,1,2]",0.101994751,stimuli/card_100_transparent.png,100,2,0,2,0,1,,,,,,,,,,
,,,,5e90a1eaad04060882d17a3d,A,2024-07-10_20h27.13.831,Slot Machine Game,2023.1.3,MacIntel,60.24096386,,,,,,,,,,,,,,,,,,,,,,,,,,,,,,,,100,,,,,,,,,,,,,,,,7,10,,,459.2103,3,right,0.0321,,1,0.3,"[3,1,2]",0.070797993,stimuli/card_0_transparent.png,0,3,0,3,0,1,,,,,,,,,,
,,,,5e90a1eaad04060882d17a3d,A,2024-07-10_20h27.13.831,Slot Machine Game,2023.1.3,MacIntel,60.24096386,,,,,,,,,,,,,,,,,,,,,,,,,,,,,,,,100,,,,,,,,,,,,,,,,7,10,,,461.0758,4,left,0.1106,,1.5,0.3,"[3,1,2]",0.477735606,stimuli/card_0_transparent.png,0,4,0,4,0,1,,,,,,,,,,
,,,,5e90a1eaad04060882d17a3d,A,2024-07-10_20h27.13.831,Slot Machine Game,2023.1.3,MacIntel,60.24096386,,,,,,,,,,,,,,,,,,,,,,,,,,,,,,,,110,,,,,,,,,,,,,,,,7,10,,,463.4937,5,right,0.3121,,1.5,0.3,"[3,1,2]",0.316114637,stimuli/card_10_transparent.png,10,5,0,5,0,1,,,,,,,,,,
,,,,5e90a1eaad04060882d17a3d,A,2024-07-10_20h27.13.831,Slot Machine Game,2023.1.3,MacIntel,60.24096386,,,,,,,,,,,,,,,,,,,,,,,,,,,,,,,,210,,,,,,,,,,,,,,,,7,10,,,466.1272,6,up,0.0995,,0.5,0.3,"[3,1,2]",0.385965722,stimuli/card_100_transparent.png,100,6,0,6,0,1,,,,,,,,,,
,,,,5e90a1eaad04060882d17a3d,A,2024-07-10_20h27.13.831,Slot Machine Game,2023.1.3,MacIntel,60.24096386,,,,,,,,,,,,,,,,,,,,,,,,,,,,,,,,310,,,,,,,,,,,,,,,,7,10,,,467.5605,7,up,0.1154,,1,0.3,"[3,1,2]",0.785066456,stimuli/card_100_transparent.png,100,7,0,7,0,1,,,,,,,,,,
,,,,5e90a1eaad04060882d17a3d,A,2024-07-10_20h27.13.831,Slot Machine Game,2023.1.3,MacIntel,60.24096386,,,,,,,,,,,,,,,,,,,,,,,,,,,,,,,,410,,,,,,,,,,,,,,,,7,10,,,469.5096,8,up,0.0653,,1.5,0.3,"[3,1,2]",0.884274888,stimuli/card_100_transparent.png,100,8,0,8,0,1,,,,,,,,,,
,,,,5e90a1eaad04060882d17a3d,A,2024-07-10_20h27.13.831,Slot Machine Game,2023.1.3,MacIntel,60.24096386,,,,,,,,,,,,,,,,,,,,,,,,,,,,,,,,510,,,,,,,,,,,,,,,,7,10,,,471.894,9,up,0.0716,,1,0.3,"[3,1,2]",0.750883655,stimuli/card_100_transparent.png,100,9,0,9,0,1,,,,,,,,,,
,,,,5e90a1eaad04060882d17a3d,A,2024-07-10_20h27.13.831,Slot Machine Game,2023.1.3,MacIntel,60.24096386,,,,,,,,,,,,,,,,,,,,,,,,,,,,,,,,510,,,,,,,,,,,,,,,,7,10,,,473.7942,10,up,0.2002,,1,0.3,"[1,3,2]",0.526071528,stimuli/card_0_transparent.png,0,10,0,10,0,1,,,,,,,,,,
,,,,5e90a1eaad04060882d17a3d,A,2024-07-10_20h27.13.831,Slot Machine Game,2023.1.3,MacIntel,60.24096386,,,,,,,,,,,,,,,,,,,,,,,,,,,,,,,,520,,,,,,,,,,,,,,,,7,10,,,475.8275,11,right,0.3163,,0.5,0.3,"[1,3,2]",0.736052753,stimuli/card_10_transparent.png,10,11,0,11,0,1,,,,,,,,,,
,,,,5e90a1eaad04060882d17a3d,A,2024-07-10_20h27.13.831,Slot Machine Game,2023.1.3,MacIntel,60.24096386,,,,,,,,,,,,,,,,,,,,,,,,,,,,,,,,520,,,,,,,,,,,,,,,,7,10,,,477.4776,12,left,0.3207,,1,0.3,"[1,3,2]",0.05799319,stimuli/card_0_transparent.png,0,12,0,12,0,1,,,,,,,,,,
,,,,5e90a1eaad04060882d17a3d,A,2024-07-10_20h27.13.831,Slot Machine Game,2023.1.3,MacIntel,60.24096386,,,,,,,,,,,,,,,,,,,,,,,,,,,,,,,,530,,,,,,,,,,,,,,,,7,10,,,479.6278,13,right,0.2829,,0.5,0.3,"[1,3,2]",0.264267936,stimuli/card_10_transparent.png,10,13,0,13,0,1,,,,,,,,,,
,,,,5e90a1eaad04060882d17a3d,A,2024-07-10_20h27.13.831,Slot Machine Game,2023.1.3,MacIntel,60.24096386,,,,,,,,,,,,,,,,,,,,,,,,,,,,,,,,530,,,,,,,,,,,,,,,,7,10,,,481.2444,14,up,0.3503,,1,0.3,"[1,3,2]",0.685344611,stimuli/card_0_transparent.png,0,14,0,14,0,1,,,,,,,,,,
,,,,5e90a1eaad04060882d17a3d,A,2024-07-10_20h27.13.831,Slot Machine Game,2023.1.3,MacIntel,60.24096386,,,,,,,,,,,,,,,,,,,,,,,,,,,,,,,,,,,483.4279,,,,,,,,,,,,,,,,,,,,,,,,,,,,,,,,,"[930,920,1040,560,840,920,530]",6,0,6,0,1,,,,
,,,,5e90a1eaad04060882d17a3d,A,2024-07-10_20h27.13.831,Slot Machine Game,2023.1.3,MacIntel,60.24096386,,,,,,,,,,,,,,,,,,,,,,,,,,,,,,,,10,,,,,,,,,,,,,,,,8,7,"[9,15]","[[1,3,2],[2,3,1]]",488.4286,0,right,3.0206,,1.5,0.3,"[1,3,2]",0.25277986,stimuli/card_10_transparent.png,10,0,0,0,0,1,,,,,,,,,,
,,,,5e90a1eaad04060882d17a3d,A,2024-07-10_20h27.13.831,Slot Machine Game,2023.1.3,MacIntel,60.24096386,,,,,,,,,,,,,,,,,,,,,,,,,,,,,,,,20,,,,,,,,,,,,,,,,8,7,,,493.7783,1,right,1.3455,,0.5,0.3,"[1,3,2]",0.321975031,stimuli/card_10_transparent.png,10,1,0,1,0,1,,,,,,,,,,
,,,,5e90a1eaad04060882d17a3d,A,2024-07-10_20h27.13.831,Slot Machine Game,2023.1.3,MacIntel,60.24096386,,,,,,,,,,,,,,,,,,,,,,,,,,,,,,,,30,,,,,,,,,,,,,,,,8,7,,,496.4451,2,right,0.5211,,1.5,0.3,"[1,3,2]",0.716651455,stimuli/card_10_transparent.png,10,2,0,2,0,1,,,,,,,,,,
,,,,5e90a1eaad04060882d17a3d,A,2024-07-10_20h27.13.831,Slot Machine Game,2023.1.3,MacIntel,60.24096386,,,,,,,,,,,,,,,,,,,,,,,,,,,,,,,,40,,,,,,,,,,,,,,,,8,7,,,499.2952,3,right,0.0004,,0.5,0.3,"[1,3,2]",0.38672018,stimuli/card_10_transparent.png,10,3,0,3,0,1,,,,,,,,,,
,,,,5e90a1eaad04060882d17a3d,A,2024-07-10_20h27.13.831,Slot Machine Game,2023.1.3,MacIntel,60.24096386,,,,,,,,,,,,,,,,,,,,,,,,,,,,,,,,50,,,,,,,,,,,,,,,,8,7,,,500.6283,4,right,0.2835,,1,0.3,"[1,3,2]",0.838499556,stimuli/card_10_transparent.png,10,4,0,4,0,1,,,,,,,,,,
,,,,5e90a1eaad04060882d17a3d,A,2024-07-10_20h27.13.831,Slot Machine Game,2023.1.3,MacIntel,60.24096386,,,,,,,,,,,,,,,,,,,,,,,,,,,,,,,,60,,,,,,,,,,,,,,,,8,7,,,502.7289,5,right,0.0167,,1,0.3,"[1,3,2]",0.785708258,stimuli/card_10_transparent.png,10,5,0,5,0,1,,,,,,,,,,
,,,,5e90a1eaad04060882d17a3d,A,2024-07-10_20h27.13.831,Slot Machine Game,2023.1.3,MacIntel,60.24096386,,,,,,,,,,,,,,,,,,,,,,,,,,,,,,,,70,,,,,,,,,,,,,,,,8,7,,,504.5787,6,right,0.2856,,1,0.3,"[1,3,2]",0.912949757,stimuli/card_10_transparent.png,10,6,0,6,0,1,,,,,,,,,,
,,,,5e90a1eaad04060882d17a3d,A,2024-07-10_20h27.13.831,Slot Machine Game,2023.1.3,MacIntel,60.24096386,,,,,,,,,,,,,,,,,,,,,,,,,,,,,,,,70,,,,,,,,,,,,,,,,8,7,,,506.6955,7,right,0.2536,,0.5,0.3,"[1,3,2]",0.063061086,stimuli/card_0_transparent.png,0,7,0,7,0,1,,,,,,,,,,
,,,,5e90a1eaad04060882d17a3d,A,2024-07-10_20h27.13.831,Slot Machine Game,2023.1.3,MacIntel,60.24096386,,,,,,,,,,,,,,,,,,,,,,,,,,,,,,,,80,,,,,,,,,,,,,,,,8,7,,,508.2779,8,right,0.5169,,1.5,0.3,"[1,3,2]",0.283324705,stimuli/card_10_transparent.png,10,8,0,8,0,1,,,,,,,,,,
,,,,5e90a1eaad04060882d17a3d,A,2024-07-10_20h27.13.831,Slot Machine Game,2023.1.3,MacIntel,60.24096386,,,,,,,,,,,,,,,,,,,,,,,,,,,,,,,,90,,,,,,,,,,,,,,,,8,7,,,511.1124,9,right,0.2337,,1,0.3,"[2,3,1]",0.134209489,stimuli/card_10_transparent.png,10,9,0,9,0,1,,,,,,,,,,
,,,,5e90a1eaad04060882d17a3d,A,2024-07-10_20h27.13.831,Slot Machine Game,2023.1.3,MacIntel,60.24096386,,,,,,,,,,,,,,,,,,,,,,,,,,,,,,,,190,,,,,,,,,,,,,,,,8,7,,,513.1791,10,right,0.4329,,1,0.3,"[2,3,1]",0.963026673,stimuli/card_100_transparent.png,100,10,0,10,0,1,,,,,,,,,,
,,,,5e90a1eaad04060882d17a3d,A,2024-07-10_20h27.13.831,Slot Machine Game,2023.1.3,MacIntel,60.24096386,,,,,,,,,,,,,,,,,,,,,,,,,,,,,,,,290,,,,,,,,,,,,,,,,8,7,,,515.446,11,right,0.2184,,1.5,0.3,"[2,3,1]",0.656589121,stimuli/card_100_transparent.png,100,11,0,11,0,1,,,,,,,,,,
,,,,5e90a1eaad04060882d17a3d,A,2024-07-10_20h27.13.831,Slot Machine Game,2023.1.3,MacIntel,60.24096386,,,,,,,,,,,,,,,,,,,,,,,,,,,,,,,,390,,,,,,,,,,,,,,,,8,7,,,517.9959,12,right,0.366,,0.5,0.3,"[2,3,1]",0.855044647,stimuli/card_100_transparent.png,100,12,0,12,0,1,,,,,,,,,,
,,,,5e90a1eaad04060882d17a3d,A,2024-07-10_20h27.13.831,Slot Machine Game,2023.1.3,MacIntel,60.24096386,,,,,,,,,,,,,,,,,,,,,,,,,,,,,,,,490,,,,,,,,,,,,,,,,8,7,,,519.6951,13,right,0.5002,,0.5,0.3,"[2,3,1]",0.70357543,stimuli/card_100_transparent.png,100,13,0,13,0,1,,,,,,,,,,
,,,,5e90a1eaad04060882d17a3d,A,2024-07-10_20h27.13.831,Slot Machine Game,2023.1.3,MacIntel,60.24096386,,,,,,,,,,,,,,,,,,,,,,,,,,,,,,,,590,,,,,,,,,,,,,,,,8,7,,,521.5128,14,right,0.284,,0.5,0.3,"[2,3,1]",0.234350982,stimuli/card_100_transparent.png,100,14,0,14,0,1,,,,,,,,,,
,,,,5e90a1eaad04060882d17a3d,A,2024-07-10_20h27.13.831,Slot Machine Game,2023.1.3,MacIntel,60.24096386,,,,,,,,,,,,,,,,,,,,,,,,,,,,,,,,,,,523.1286,,,,,,,,,,,,,,,,,,,,,,,,,,,,,,,,,"[930,920,1040,560,840,920,530,590]",7,0,7,0,1,,,,
,,,,5e90a1eaad04060882d17a3d,A,2024-07-10_20h27.13.831,Slot Machine Game,2023.1.3,MacIntel,60.24096386,,,,,,,,,,,,,,,,,,,,,,,,,,,,,,,,10,,,,,,,,,,,,,,,,9,9,[15],"[[3,1,2]]",528.1308,0,right,0.1491,,1,0.3,"[3,1,2]",0.844161935,stimuli/card_10_transparent.png,10,0,0,0,0,1,,,,,,,,,,
,,,,5e90a1eaad04060882d17a3d,A,2024-07-10_20h27.13.831,Slot Machine Game,2023.1.3,MacIntel,60.24096386,,,,,,,,,,,,,,,,,,,,,,,,,,,,,,,,10,,,,,,,,,,,,,,,,9,9,,,530.1131,1,right,0.2202,,1,0.3,"[3,1,2]",0.072566073,stimuli/card_0_transparent.png,0,1,0,1,0,1,,,,,,,,,,
,,,,5e90a1eaad04060882d17a3d,A,2024-07-10_20h27.13.831,Slot Machine Game,2023.1.3,MacIntel,60.24096386,,,,,,,,,,,,,,,,,,,,,,,,,,,,,,,,20,,,,,,,,,,,,,,,,9,9,,,532.1618,2,right,0.6839,,0.5,0.3,"[3,1,2]",0.36308623,stimuli/card_10_transparent.png,10,2,0,2,0,1,,,,,,,,,,
,,,,5e90a1eaad04060882d17a3d,A,2024-07-10_20h27.13.831,Slot Machine Game,2023.1.3,MacIntel,60.24096386,,,,,,,,,,,,,,,,,,,,,,,,,,,,,,,,30,,,,,,,,,,,,,,,,9,9,,,534.1626,3,right,1.6,,1,0.3,"[3,1,2]",0.932357045,stimuli/card_10_transparent.png,10,3,0,3,0,1,,,,,,,,,,
,,,,5e90a1eaad04060882d17a3d,A,2024-07-10_20h27.13.831,Slot Machine Game,2023.1.3,MacIntel,60.24096386,,,,,,,,,,,,,,,,,,,,,,,,,,,,,,,,30,,,,,,,,,,,,,,,,9,9,,,537.5793,4,right,0.5825,,1,0.3,"[3,1,2]",0.017750331,stimuli/card_0_transparent.png,0,4,0,4,0,1,,,,,,,,,,
,,,,5e90a1eaad04060882d17a3d,A,2024-07-10_20h27.13.831,Slot Machine Game,2023.1.3,MacIntel,60.24096386,,,,,,,,,,,,,,,,,,,,,,,,,,,,,,,,40,,,,,,,,,,,,,,,,9,9,,,539.9793,5,right,0.9357,,0.5,0.3,"[3,1,2]",0.571231211,stimuli/card_10_transparent.png,10,5,0,5,0,1,,,,,,,,,,
,,,,5e90a1eaad04060882d17a3d,A,2024-07-10_20h27.13.831,Slot Machine Game,2023.1.3,MacIntel,60.24096386,,,,,,,,,,,,,,,,,,,,,,,,,,,,,,,,50,,,,,,,,,,,,,,,,9,9,,,542.247,6,right,1.1181,,0.5,0.3,"[3,1,2]",0.905538,stimuli/card_10_transparent.png,10,6,0,6,0,1,,,,,,,,,,
,,,,5e90a1eaad04060882d17a3d,A,2024-07-10_20h27.13.831,Slot Machine Game,2023.1.3,MacIntel,60.24096386,,,,,,,,,,,,,,,,,,,,,,,,,,,,,,,,60,,,,,,,,,,,,,,,,9,9,,,544.6969,7,right,0.2003,,1.5,0.3,"[3,1,2]",0.341154984,stimuli/card_10_transparent.png,10,7,0,7,0,1,,,,,,,,,,
,,,,5e90a1eaad04060882d17a3d,A,2024-07-10_20h27.13.831,Slot Machine Game,2023.1.3,MacIntel,60.24096386,,,,,,,,,,,,,,,,,,,,,,,,,,,,,,,,160,,,,,,,,,,,,,,,,9,9,,,547.2306,8,up,0.1663,,1,0.3,"[3,1,2]",0.898159173,stimuli/card_100_transparent.png,100,8,0,8,0,1,,,,,,,,,,
,,,,5e90a1eaad04060882d17a3d,A,2024-07-10_20h27.13.831,Slot Machine Game,2023.1.3,MacIntel,60.24096386,,,,,,,,,,,,,,,,,,,,,,,,,,,,,,,,260,,,,,,,,,,,,,,,,9,9,,,549.2307,9,up,0.1997,,0.5,0.3,"[3,1,2]",0.525057357,stimuli/card_100_transparent.png,100,9,0,9,0,1,,,,,,,,,,
,,,,5e90a1eaad04060882d17a3d,A,2024-07-10_20h27.13.831,Slot Machine Game,2023.1.3,MacIntel,60.24096386,,,,,,,,,,,,,,,,,,,,,,,,,,,,,,,,360,,,,,,,,,,,,,,,,9,9,,,550.7641,10,up,0.2938,,0.5,0.3,"[3,1,2]",0.625053489,stimuli/card_100_transparent.png,100,10,0,10,0,1,,,,,,,,,,
,,,,5e90a1eaad04060882d17a3d,A,2024-07-10_20h27.13.831,Slot Machine Game,2023.1.3,MacIntel,60.24096386,,,,,,,,,,,,,,,,,,,,,,,,,,,,,,,,460,,,,,,,,,,,,,,,,9,9,,,552.3807,11,up,4.3109,,1,0.3,"[3,1,2]",0.4714131,stimuli/card_100_transparent.png,100,11,0,11,0,1,,,,,,,,,,
,,,,5e90a1eaad04060882d17a3d,A,2024-07-10_20h27.13.831,Slot Machine Game,2023.1.3,MacIntel,60.24096386,,,,,,,,,,,,,,,,,,,,,,,,,,,,,,,,470,,,,,,,,,,,,,,,,9,9,,,558.5143,12,up,0.235,,1.5,0.3,"[3,1,2]",0.100722259,stimuli/card_10_transparent.png,10,12,0,12,0,1,,,,,,,,,,
,,,,5e90a1eaad04060882d17a3d,A,2024-07-10_20h27.13.831,Slot Machine Game,2023.1.3,MacIntel,60.24096386,,,,,,,,,,,,,,,,,,,,,,,,,,,,,,,,470,,,,,,,,,,,,,,,,9,9,,,561.0812,13,left,3.8162,,1,0.3,"[3,1,2]",0.490206746,stimuli/card_0_transparent.png,0,13,0,13,0,1,,,,,,,,,,
,,,,5e90a1eaad04060882d17a3d,A,2024-07-10_20h27.13.831,Slot Machine Game,2023.1.3,MacIntel,60.24096386,,,,,,,,,,,,,,,,,,,,,,,,,,,,,,,,470,,,,,,,,,,,,,,,,9,9,,,566.7314,14,up,0.1656,,1.5,0.3,"[3,1,2]",0.019167868,stimuli/card_0_transparent.png,0,14,0,14,0,1,,,,,,,,,,
,,,,5e90a1eaad04060882d17a3d,A,2024-07-10_20h27.13.831,Slot Machine Game,2023.1.3,MacIntel,60.24096386,,,,,,,,,,,,,,,,,,,,,,,,,,,,,,,,,,,569.2305,,,,,,,,,,,,,,,,,,,,,,,,,,,,,,,,,"[930,920,1040,560,840,920,530,590,470]",8,0,8,0,1,,,,
,,,,5e90a1eaad04060882d17a3d,A,2024-07-10_20h27.13.831,Slot Machine Game,2023.1.3,MacIntel,60.24096386,,,,,,,,,,,,,,,,,,,,,,,,,,,,,,,,10,,,,,,,,,,,,,,,,10,6,"[4,10,15]","[[2,3,1],[1,3,2],[3,2,1]]",574.2333,0,right,0.3494,,1,0.3,"[2,3,1]",0.115233453,stimuli/card_10_transparent.png,10,0,0,0,0,1,,,,,,,,,,
,,,,5e90a1eaad04060882d17a3d,A,2024-07-10_20h27.13.831,Slot Machine Game,2023.1.3,MacIntel,60.24096386,,,,,,,,,,,,,,,,,,,,,,,,,,,,,,,,110,,,,,,,,,,,,,,,,10,6,,,576.415,1,right,0.0659,,0.5,0.3,"[2,3,1]",0.796285979,stimuli/card_100_transparent.png,100,1,0,1,0,1,,,,,,,,,,
,,,,5e90a1eaad04060882d17a3d,A,2024-07-10_20h27.13.831,Slot Machine Game,2023.1.3,MacIntel,60.24096386,,,,,,,,,,,,,,,,,,,,,,,,,,,,,,,,210,,,,,,,,,,,,,,,,10,6,,,577.8151,2,right,0.1278,,1.5,0.3,"[2,3,1]",0.485155941,stimuli/card_100_transparent.png,100,2,0,2,0,1,,,,,,,,,,
,,,,5e90a1eaad04060882d17a3d,A,2024-07-10_20h27.13.831,Slot Machine Game,2023.1.3,MacIntel,60.24096386,,,,,,,,,,,,,,,,,,,,,,,,,,,,,,,,310,,,,,,,,,,,,,,,,10,6,,,580.2647,3,right,0.5685,,0.5,0.3,"[2,3,1]",0.423053872,stimuli/card_100_transparent.png,100,3,0,3,0,1,,,,,,,,,,
,,,,5e90a1eaad04060882d17a3d,A,2024-07-10_20h27.13.831,Slot Machine Game,2023.1.3,MacIntel,60.24096386,,,,,,,,,,,,,,,,,,,,,,,,,,,,,,,,320,,,,,,,,,,,,,,,,10,6,,,582.1654,4,right,0.145,,1.5,0.3,"[1,3,2]",0.403207658,stimuli/card_10_transparent.png,10,4,0,4,0,1,,,,,,,,,,
,,,,5e90a1eaad04060882d17a3d,A,2024-07-10_20h27.13.831,Slot Machine Game,2023.1.3,MacIntel,60.24096386,,,,,,,,,,,,,,,,,,,,,,,,,,,,,,,,320,,,,,,,,,,,,,,,,10,6,,,584.6322,5,right,2.2,,0.5,0.3,"[1,3,2]",0.002985883,stimuli/card_0_transparent.png,0,5,0,5,0,1,,,,,,,,,,
,,,,5e90a1eaad04060882d17a3d,A,2024-07-10_20h27.13.831,Slot Machine Game,2023.1.3,MacIntel,60.24096386,,,,,,,,,,,,,,,,,,,,,,,,,,,,,,,,330,,,,,,,,,,,,,,,,10,6,,,588.1656,6,right,1.3204,,0.5,0.3,"[1,3,2]",0.401320497,stimuli/card_10_transparent.png,10,6,0,6,0,1,,,,,,,,,,
,,,,5e90a1eaad04060882d17a3d,A,2024-07-10_20h27.13.831,Slot Machine Game,2023.1.3,MacIntel,60.24096386,,,,,,,,,,,,,,,,,,,,,,,,,,,,,,,,330,,,,,,,,,,,,,,,,10,6,,,590.8157,7,right,1.9168,,1,0.3,"[1,3,2]",0.03296505,stimuli/card_0_transparent.png,0,7,0,7,0,1,,,,,,,,,,
,,,,5e90a1eaad04060882d17a3d,A,2024-07-10_20h27.13.831,Slot Machine Game,2023.1.3,MacIntel,60.24096386,,,,,,,,,,,,,,,,,,,,,,,,,,,,,,,,340,,,,,,,,,,,,,,,,10,6,,,594.5659,8,right,0.9548,,1.5,0.3,"[1,3,2]",0.95403532,stimuli/card_10_transparent.png,10,8,0,8,0,1,,,,,,,,,,
,,,,5e90a1eaad04060882d17a3d,A,2024-07-10_20h27.13.831,Slot Machine Game,2023.1.3,MacIntel,60.24096386,,,,,,,,,,,,,,,,,,,,,,,,,,,,,,,,350,,,,,,,,,,,,,,,,10,6,,,597.8484,9,right,0.9501,,1.5,0.3,"[1,3,2]",0.284570263,stimuli/card_10_transparent.png,10,9,0,9,0,1,,,,,,,,,,
,,,,5e90a1eaad04060882d17a3d,A,2024-07-10_20h27.13.831,Slot Machine Game,2023.1.3,MacIntel,60.24096386,,,,,,,,,,,,,,,,,,,,,,,,,,,,,,,,360,,,,,,,,,,,,,,,,10,6,,,601.1163,10,up,0.1662,,1.5,0.3,"[3,2,1]",0.24310741,stimuli/card_10_transparent.png,10,10,0,10,0,1,,,,,,,,,,
,,,,5e90a1eaad04060882d17a3d,A,2024-07-10_20h27.13.831,Slot Machine Game,2023.1.3,MacIntel,60.24096386,,,,,,,,,,,,,,,,,,,,,,,,,,,,,,,,360,,,,,,,,,,,,,,,,10,6,,,603.6164,11,left,0.7674,,1.5,0.3,"[3,2,1]",0.492987123,stimuli/card_0_transparent.png,0,11,0,11,0,1,,,,,,,,,,
,,,,5e90a1eaad04060882d17a3d,A,2024-07-10_20h27.13.831,Slot Machine Game,2023.1.3,MacIntel,60.24096386,,,,,,,,,,,,,,,,,,,,,,,,,,,,,,,,460,,,,,,,,,,,,,,,,10,6,,,606.7166,12,right,0.0672,,1,0.3,"[3,2,1]",0.276881965,stimuli/card_100_transparent.png,100,12,0,12,0,1,,,,,,,,,,
,,,,5e90a1eaad04060882d17a3d,A,2024-07-10_20h27.13.831,Slot Machine Game,2023.1.3,MacIntel,60.24096386,,,,,,,,,,,,,,,,,,,,,,,,,,,,,,,,560,,,,,,,,,,,,,,,,10,6,,,608.6157,13,right,0.1776,,0.5,0.3,"[3,2,1]",0.846936296,stimuli/card_100_transparent.png,100,13,0,13,0,1,,,,,,,,,,
,,,,5e90a1eaad04060882d17a3d,A,2024-07-10_20h27.13.831,Slot Machine Game,2023.1.3,MacIntel,60.24096386,,,,,,,,,,,,,,,,,,,,,,,,,,,,,,,,660,,,,,,,,,,,,,,,,10,6,,,610.1,14,right,0.5601,,1,0.3,"[3,2,1]",0.910755679,stimuli/card_100_transparent.png,100,14,0,14,0,1,,,,,,,,,,
,,,,5e90a1eaad04060882d17a3d,A,2024-07-10_20h27.13.831,Slot Machine Game,2023.1.3,MacIntel,60.24096386,,,,,,,,,,,,,,,,,,,,,,,,,,,,,,,,,,,612.4835,,,,,,,,,,,,,,,,,,,,,,,,,,,,,,,,,"[930,920,1040,560,840,920,530,590,470,660]",9,0,9,0,1,,,,
,,,,5e90a1eaad04060882d17a3d,A,2024-07-10_20h27.13.831,Slot Machine Game,2023.1.3,MacIntel,60.24096386,,,,,,,,,,,,,,,,,,,,,,,,,,,,,,,,,,,,,,,,,,,,,,,,,,,,,,,,,,,,,,,,,,,,,,,,,,9,"[930,920,1040,560,840,920,530,590,470,660]",5.3,2024-07-10_20h37.35.347
