key_resp_welcome_started,key_resp_welcome_keys,key_resp_welcome_rt,key_resp_welcome_duration,prolific_id,path_id,date,expName,psychopyVersion,OS,frameRate,key_resp_instruction1_started,key_resp_instruction1_keys,key_resp_instruction1_rt,key_resp_instruction1_duration,key_resp_instruction2_started,key_resp_instruction2_keys,key_resp_instruction2_rt,key_resp_instruction2_duration,key_resp_instruction3_started,key_resp_instruction3_keys,key_resp_instruction3_rt,key_resp_instruction3_duration,key_resp_instruction4_started,key_resp_instruction4_keys,key_resp_instruction4_rt,key_resp_instruction4_duration,practiceCondition,practice_reward_seqs,practice_trial_started,practice_trial_num,practice_resp_rt,practice_resp_duration,practice_resp_keys,prac_presentationInterval,"practice_reward_seq: 2,1,3",reward_img,cumulative_reward,trial_reward,practice_trials.thisRepN,practice_trials.thisTrialN,practice_trials.thisN,practice_trials.thisIndex,practice_trials.ran,"practice_reward_seq: 2,3,1",block_break_started,"practice_reward_seq: 1,3,2","practice_reward_seq: 3,1,2",practice_end_time,practice_end_keys,practice_end_rt,practice_end_duration,main_instruction_text_started,block_condition,block_order_indices,main_instruction_keys,main_instruction_rt,main_instruction_duration,block_number,block_assignment,current_condition,main_reward_seqs,main_trial_started,main_trial_num,main_trial_keys,main_trial_rt,main_trial_duration,main_presentationInterval,reward_presentation_time,main_reward_seq,reward_rand_val,main_reward_img,current_reward,main_trials.thisRepN,main_trials.thisTrialN,main_trials.thisN,main_trials.thisIndex,main_trials.ran,block_reward,block.thisRepN,block.thisTrialN,block.thisN,block.thisIndex,block.ran,block_reward.length,block_reward_all,reward_amount,date_end_task
1E-04,return,1.77,,5eb14f940be27c23a52be442,A,2024-07-12_18h31.56.883,Slot Machine Game,2023.1.3,Win32,163.9344262,,,,,,,,,,,,,,,,,,,,,,,,,,,,,,,,,,,,,,,,,,,,,,,,,,,,,,,,,,,,,,,,,,,,,,,,,,,,,
,,,,5eb14f940be27c23a52be442,A,2024-07-12_18h31.56.883,Slot Machine Game,2023.1.3,Win32,163.9344262,1.7793,space,5.2262,,,,,,,,,,,,,,,,,,,,,,,,,,,,,,,,,,,,,,,,,,,,,,,,,,,,,,,,,,,,,,,,,,,,,,,,,,
,,,,5eb14f940be27c23a52be442,A,2024-07-12_18h31.56.883,Slot Machine Game,2023.1.3,Win32,163.9344262,,,,,7.0115,space,0.0039,,,,,,,,,,,,,,,,,,,,,,,,,,,,,,,,,,,,,,,,,,,,,,,,,,,,,,,,,,,,,,,,,,,,,,
,,,,5eb14f940be27c23a52be442,A,2024-07-12_18h31.56.883,Slot Machine Game,2023.1.3,Win32,163.9344262,,,,,,,,,7.035,space,6.8781,,,,,,,,,,,,,,,,,,,,,,,,,,,,,,,,,,,,,,,,,,,,,,,,,,,,,,,,,,,,,,,,,,
,,,,5eb14f940be27c23a52be442,A,2024-07-12_18h31.56.883,Slot Machine Game,2023.1.3,Win32,163.9344262,,,,,,,,,,,,,,,,,,,,,,,,,,,,,,,,,,,,,,,,,,,,,,,,,,,,,,,,,,,,,,,,,,,,,,,,,,,,,
,,,,5eb14f940be27c23a52be442,A,2024-07-12_18h31.56.883,Slot Machine Game,2023.1.3,Win32,163.9344262,,,,,,,,,,,,,155.5537,space,3.2906,,,,,,,,,,,,,,,,,,,,,,,,,,,,,,,,,,,,,,,,,,,,,,,,,,,,,,,,,,,,,,
,,,,5eb14f940be27c23a52be442,A,2024-07-12_18h31.56.883,Slot Machine Game,2023.1.3,Win32,163.9344262,,,,,,,,,,,,,,,,,"[9,15]","[[2,1,3],[2,3,1]]",158.8569,0,0.8278,,left,1.5,,stimuli/card_10_transparent.png,10,10,0,0,0,0,1,,,,,,,,,,,,,,,,,,,,,,,,,,,,,,,,,,,,,,,,,,,,
,,,,5eb14f940be27c23a52be442,A,2024-07-12_18h31.56.883,Slot Machine Game,2023.1.3,Win32,163.9344262,,,,,,,,,,,,,,,,,,,161.9868,1,0.2805,,right,1.5,,stimuli/card_100_transparent.png,110,100,1,0,1,0,1,,,,,,,,,,,,,,,,,,,,,,,,,,,,,,,,,,,,,,,,,,,,
,,,,5eb14f940be27c23a52be442,A,2024-07-12_18h31.56.883,Slot Machine Game,2023.1.3,Win32,163.9344262,,,,,,,,,,,,,,,,,,,164.572,2,0.7115,,right,1.5,,stimuli/card_0_transparent.png,110,0,2,0,2,0,1,,,,,,,,,,,,,,,,,,,,,,,,,,,,,,,,,,,,,,,,,,,,
,,,,5eb14f940be27c23a52be442,A,2024-07-12_18h31.56.883,Slot Machine Game,2023.1.3,Win32,163.9344262,,,,,,,,,,,,,,,,,,,167.5882,3,0.6391,,right,0.5,,stimuli/card_0_transparent.png,110,0,3,0,3,0,1,,,,,,,,,,,,,,,,,,,,,,,,,,,,,,,,,,,,,,,,,,,,
,,,,5eb14f940be27c23a52be442,A,2024-07-12_18h31.56.883,Slot Machine Game,2023.1.3,Win32,163.9344262,,,,,,,,,,,,,,,,,,,169.5303,4,0.0011,,up,0.5,,stimuli/card_100_transparent.png,210,100,4,0,4,0,1,,,,,,,,,,,,,,,,,,,,,,,,,,,,,,,,,,,,,,,,,,,,
,,,,5eb14f940be27c23a52be442,A,2024-07-12_18h31.56.883,Slot Machine Game,2023.1.3,Win32,163.9344262,,,,,,,,,,,,,,,,,,,170.8351,5,0.0881,,up,1,,stimuli/card_100_transparent.png,310,100,5,0,5,0,1,,,,,,,,,,,,,,,,,,,,,,,,,,,,,,,,,,,,,,,,,,,,
,,,,5eb14f940be27c23a52be442,A,2024-07-12_18h31.56.883,Slot Machine Game,2023.1.3,Win32,163.9344262,,,,,,,,,,,,,,,,,,,172.7288,6,0.0423,,up,1.5,,stimuli/card_10_transparent.png,320,10,6,0,6,0,1,,,,,,,,,,,,,,,,,,,,,,,,,,,,,,,,,,,,,,,,,,,,
,,,,5eb14f940be27c23a52be442,A,2024-07-12_18h31.56.883,Slot Machine Game,2023.1.3,Win32,163.9344262,,,,,,,,,,,,,,,,,,,175.0772,7,0.1658,,up,0.5,,stimuli/card_100_transparent.png,420,100,7,0,7,0,1,,,,,,,,,,,,,,,,,,,,,,,,,,,,,,,,,,,,,,,,,,,,
,,,,5eb14f940be27c23a52be442,A,2024-07-12_18h31.56.883,Slot Machine Game,2023.1.3,Win32,163.9344262,,,,,,,,,,,,,,,,,,,176.5459,8,0.2094,,up,1.5,,stimuli/card_10_transparent.png,430,10,8,0,8,0,1,,,,,,,,,,,,,,,,,,,,,,,,,,,,,,,,,,,,,,,,,,,,
,,,,5eb14f940be27c23a52be442,A,2024-07-12_18h31.56.883,Slot Machine Game,2023.1.3,Win32,163.9344262,,,,,,,,,,,,,,,,,,,179.0585,9,0.128,,up,0.5,,stimuli/card_0_transparent.png,430,0,9,0,9,0,1,,,,,,,,,,,,,,,,,,,,,,,,,,,,,,,,,,,,,,,,,,,,
,,,,5eb14f940be27c23a52be442,A,2024-07-12_18h31.56.883,Slot Machine Game,2023.1.3,Win32,163.9344262,,,,,,,,,,,,,,,,,,,180.4908,10,0.2078,,left,1.5,,stimuli/card_10_transparent.png,440,10,10,0,10,0,1,,,,,,,,,,,,,,,,,,,,,,,,,,,,,,,,,,,,,,,,,,,,
,,,,5eb14f940be27c23a52be442,A,2024-07-12_18h31.56.883,Slot Machine Game,2023.1.3,Win32,163.9344262,,,,,,,,,,,,,,,,,,,183.0033,11,0.0558,,right,1.5,,stimuli/card_100_transparent.png,540,100,11,0,11,0,1,,,,,,,,,,,,,,,,,,,,,,,,,,,,,,,,,,,,,,,,,,,,
,,,,5eb14f940be27c23a52be442,A,2024-07-12_18h31.56.883,Slot Machine Game,2023.1.3,Win32,163.9344262,,,,,,,,,,,,,,,,,,,185.364,12,0.2386,,right,1,,stimuli/card_100_transparent.png,640,100,12,0,12,0,1,,,,,,,,,,,,,,,,,,,,,,,,,,,,,,,,,,,,,,,,,,,,
,,,,5eb14f940be27c23a52be442,A,2024-07-12_18h31.56.883,Slot Machine Game,2023.1.3,Win32,163.9344262,,,,,,,,,,,,,,,,,,,187.4094,13,0.0417,,right,1.5,,stimuli/card_0_transparent.png,640,0,13,0,13,0,1,,,,,,,,,,,,,,,,,,,,,,,,,,,,,,,,,,,,,,,,,,,,
,,,,5eb14f940be27c23a52be442,A,2024-07-12_18h31.56.883,Slot Machine Game,2023.1.3,Win32,163.9344262,,,,,,,,,,,,,,,,,,,189.752,14,0.0267,,right,1,,stimuli/card_100_transparent.png,740,100,14,0,14,0,1,,,,,,,,,,,,,,,,,,,,,,,,,,,,,,,,,,,,,,,,,,,,
,,,,5eb14f940be27c23a52be442,A,2024-07-12_18h31.56.883,Slot Machine Game,2023.1.3,Win32,163.9344262,,,,,,,,,,,,,,,,,"[6,15]","[[1,3,2],[3,1,2]]",196.5906,0,1.3395,,left,0.5,,stimuli/card_0_transparent.png,0,0,0,0,0,0,1,,191.5897,,,,,,,,,,,,,,,,,,,,,,,,,,,,,,,,,,,,,,,,,,
,,,,5eb14f940be27c23a52be442,A,2024-07-12_18h31.56.883,Slot Machine Game,2023.1.3,Win32,163.9344262,,,,,,,,,,,,,,,,,,,199.2316,1,0.1955,,right,1,,stimuli/card_0_transparent.png,0,0,1,0,1,0,1,,,,,,,,,,,,,,,,,,,,,,,,,,,,,,,,,,,,,,,,,,,,
,,,,5eb14f940be27c23a52be442,A,2024-07-12_18h31.56.883,Slot Machine Game,2023.1.3,Win32,163.9344262,,,,,,,,,,,,,,,,,,,201.2343,2,0.2407,,up,1,,stimuli/card_0_transparent.png,0,0,2,0,2,0,1,,,,,,,,,,,,,,,,,,,,,,,,,,,,,,,,,,,,,,,,,,,,
,,,,5eb14f940be27c23a52be442,A,2024-07-12_18h31.56.883,Slot Machine Game,2023.1.3,Win32,163.9344262,,,,,,,,,,,,,,,,,,,203.2795,3,0.2746,,up,0.5,,stimuli/card_0_transparent.png,0,0,3,0,3,0,1,,,,,,,,,,,,,,,,,,,,,,,,,,,,,,,,,,,,,,,,,,,,
,,,,5eb14f940be27c23a52be442,A,2024-07-12_18h31.56.883,Slot Machine Game,2023.1.3,Win32,163.9344262,,,,,,,,,,,,,,,,,,,204.8575,4,0.0092,,left,0.5,,stimuli/card_100_transparent.png,100,100,4,0,4,0,1,,,,,,,,,,,,,,,,,,,,,,,,,,,,,,,,,,,,,,,,,,,,
,,,,5eb14f940be27c23a52be442,A,2024-07-12_18h31.56.883,Slot Machine Game,2023.1.3,Win32,163.9344262,,,,,,,,,,,,,,,,,,,206.1688,5,0.0748,,left,1.5,,stimuli/card_0_transparent.png,100,0,5,0,5,0,1,,,,,,,,,,,,,,,,,,,,,,,,,,,,,,,,,,,,,,,,,,,,
,,,,5eb14f940be27c23a52be442,A,2024-07-12_18h31.56.883,Slot Machine Game,2023.1.3,Win32,163.9344262,,,,,,,,,,,,,,,,,,,208.5475,6,0.2228,,right,1,,stimuli/card_100_transparent.png,200,100,6,0,6,0,1,,,,,,,,,,,,,,,,,,,,,,,,,,,,,,,,,,,,,,,,,,,,
,,,,5eb14f940be27c23a52be442,A,2024-07-12_18h31.56.883,Slot Machine Game,2023.1.3,Win32,163.9344262,,,,,,,,,,,,,,,,,,,210.5744,7,0.085,,right,1,,stimuli/card_10_transparent.png,210,10,7,0,7,0,1,,,,,,,,,,,,,,,,,,,,,,,,,,,,,,,,,,,,,,,,,,,,
,,,,5eb14f940be27c23a52be442,A,2024-07-12_18h31.56.883,Slot Machine Game,2023.1.3,Win32,163.9344262,,,,,,,,,,,,,,,,,,,212.4679,8,0.031,,right,0.5,,stimuli/card_10_transparent.png,220,10,8,0,8,0,1,,,,,,,,,,,,,,,,,,,,,,,,,,,,,,,,,,,,,,,,,,,,
,,,,5eb14f940be27c23a52be442,A,2024-07-12_18h31.56.883,Slot Machine Game,2023.1.3,Win32,163.9344262,,,,,,,,,,,,,,,,,,,213.8031,9,0.2151,,up,1,,stimuli/card_0_transparent.png,220,0,9,0,9,0,1,,,,,,,,,,,,,,,,,,,,,,,,,,,,,,,,,,,,,,,,,,,,
,,,,5eb14f940be27c23a52be442,A,2024-07-12_18h31.56.883,Slot Machine Game,2023.1.3,Win32,163.9344262,,,,,,,,,,,,,,,,,,,215.8241,10,0.1546,,left,1.5,,stimuli/card_0_transparent.png,220,0,10,0,10,0,1,,,,,,,,,,,,,,,,,,,,,,,,,,,,,,,,,,,,,,,,,,,,
,,,,5eb14f940be27c23a52be442,A,2024-07-12_18h31.56.883,Slot Machine Game,2023.1.3,Win32,163.9344262,,,,,,,,,,,,,,,,,,,218.2819,11,0.1292,,up,1,,stimuli/card_100_transparent.png,320,100,11,0,11,0,1,,,,,,,,,,,,,,,,,,,,,,,,,,,,,,,,,,,,,,,,,,,,
,,,,5eb14f940be27c23a52be442,A,2024-07-12_18h31.56.883,Slot Machine Game,2023.1.3,Win32,163.9344262,,,,,,,,,,,,,,,,,,,220.2179,12,0.065,,up,0.5,,stimuli/card_100_transparent.png,420,100,12,0,12,0,1,,,,,,,,,,,,,,,,,,,,,,,,,,,,,,,,,,,,,,,,,,,,
,,,,5eb14f940be27c23a52be442,A,2024-07-12_18h31.56.883,Slot Machine Game,2023.1.3,Win32,163.9344262,,,,,,,,,,,,,,,,,,,221.5834,13,0.1074,,up,1,,stimuli/card_100_transparent.png,520,100,13,0,13,0,1,,,,,,,,,,,,,,,,,,,,,,,,,,,,,,,,,,,,,,,,,,,,
,,,,5eb14f940be27c23a52be442,A,2024-07-12_18h31.56.883,Slot Machine Game,2023.1.3,Win32,163.9344262,,,,,,,,,,,,,,,,,,,223.4951,14,0.0679,,up,1,,stimuli/card_100_transparent.png,620,100,14,0,14,0,1,,,,,,,,,,,,,,,,,,,,,,,,,,,,,,,,,,,,,,,,,,,,
,,,,5eb14f940be27c23a52be442,A,2024-07-12_18h31.56.883,Slot Machine Game,2023.1.3,Win32,163.9344262,,,,,,,,,,,,,,,,,,,,,,,,,,,,,,,,,,,225.3705,,,230.3717,space,2.1389,,,,,,,,,,,,,,,,,,,,,,,,,,,,,,,,,,,,,
,,,,5eb14f940be27c23a52be442,A,2024-07-12_18h31.56.883,Slot Machine Game,2023.1.3,Win32,163.9344262,,,,,,,,,,,,,,,,,,,,,,,,,,,,,,,,,,,,,,,,,,232.5199,1,"[0,1,2,3,4,5,6,7,8,9]",space,2.0475,,,,,,,,,,,,,,,,,,,,,,,,,,,,,,,
,,,,5eb14f940be27c23a52be442,A,2024-07-12_18h31.56.883,Slot Machine Game,2023.1.3,Win32,163.9344262,,,,,,,,,,,,,,,,,,,,,,,,,,,10,,,,,,,,,,,,,,,,,,,,,1,1,"[12,15]","[[2,1,3],[2,3,1]]",234.5827,0,left,0.2115,,1,0.3,"[2,1,3]",0.429060406,stimuli/card_10_transparent.png,10,0,0,0,0,1,,,,,,,,,,
,,,,5eb14f940be27c23a52be442,A,2024-07-12_18h31.56.883,Slot Machine Game,2023.1.3,Win32,163.9344262,,,,,,,,,,,,,,,,,,,,,,,,,,,110,,,,,,,,,,,,,,,,,,,,,1,1,,,236.598,1,up,0.1414,,1,0.3,"[2,1,3]",0.274834476,stimuli/card_100_transparent.png,100,1,0,1,0,1,,,,,,,,,,
,,,,5eb14f940be27c23a52be442,A,2024-07-12_18h31.56.883,Slot Machine Game,2023.1.3,Win32,163.9344262,,,,,,,,,,,,,,,,,,,,,,,,,,,210,,,,,,,,,,,,,,,,,,,,,1,1,,,238.5461,2,up,0.0081,,1,0.3,"[2,1,3]",0.493742506,stimuli/card_100_transparent.png,100,2,0,2,0,1,,,,,,,,,,
,,,,5eb14f940be27c23a52be442,A,2024-07-12_18h31.56.883,Slot Machine Game,2023.1.3,Win32,163.9344262,,,,,,,,,,,,,,,,,,,,,,,,,,,310,,,,,,,,,,,,,,,,,,,,,1,1,,,240.3606,3,up,0.1542,,1.5,0.3,"[2,1,3]",0.984434162,stimuli/card_100_transparent.png,100,3,0,3,0,1,,,,,,,,,,
,,,,5eb14f940be27c23a52be442,A,2024-07-12_18h31.56.883,Slot Machine Game,2023.1.3,Win32,163.9344262,,,,,,,,,,,,,,,,,,,,,,,,,,,410,,,,,,,,,,,,,,,,,,,,,1,1,,,242.8186,4,up,0.0313,,1.5,0.3,"[2,1,3]",0.641164057,stimuli/card_100_transparent.png,100,4,0,4,0,1,,,,,,,,,,
,,,,5eb14f940be27c23a52be442,A,2024-07-12_18h31.56.883,Slot Machine Game,2023.1.3,Win32,163.9344262,,,,,,,,,,,,,,,,,,,,,,,,,,,510,,,,,,,,,,,,,,,,,,,,,1,1,,,245.1552,5,up,0.079,,0.5,0.3,"[2,1,3]",0.808628354,stimuli/card_100_transparent.png,100,5,0,5,0,1,,,,,,,,,,
,,,,5eb14f940be27c23a52be442,A,2024-07-12_18h31.56.883,Slot Machine Game,2023.1.3,Win32,163.9344262,,,,,,,,,,,,,,,,,,,,,,,,,,,610,,,,,,,,,,,,,,,,,,,,,1,1,,,246.5393,6,up,0.0159,,0.5,0.3,"[2,1,3]",0.454584783,stimuli/card_100_transparent.png,100,6,0,6,0,1,,,,,,,,,,
,,,,5eb14f940be27c23a52be442,A,2024-07-12_18h31.56.883,Slot Machine Game,2023.1.3,Win32,163.9344262,,,,,,,,,,,,,,,,,,,,,,,,,,,610,,,,,,,,,,,,,,,,,,,,,1,1,,,247.8559,7,up,0.0894,,1,0.3,"[2,1,3]",0.097049711,stimuli/card_0_transparent.png,0,7,0,7,0,1,,,,,,,,,,
,,,,5eb14f940be27c23a52be442,A,2024-07-12_18h31.56.883,Slot Machine Game,2023.1.3,Win32,163.9344262,,,,,,,,,,,,,,,,,,,,,,,,,,,620,,,,,,,,,,,,,,,,,,,,,1,1,,,249.7554,8,left,0.0231,,0.5,0.3,"[2,1,3]",0.724238841,stimuli/card_10_transparent.png,10,8,0,8,0,1,,,,,,,,,,
,,,,5eb14f940be27c23a52be442,A,2024-07-12_18h31.56.883,Slot Machine Game,2023.1.3,Win32,163.9344262,,,,,,,,,,,,,,,,,,,,,,,,,,,620,,,,,,,,,,,,,,,,,,,,,1,1,,,251.0783,9,right,0.1426,,1.5,0.3,"[2,1,3]",0.466763141,stimuli/card_0_transparent.png,0,9,0,9,0,1,,,,,,,,,,
,,,,5eb14f940be27c23a52be442,A,2024-07-12_18h31.56.883,Slot Machine Game,2023.1.3,Win32,163.9344262,,,,,,,,,,,,,,,,,,,,,,,,,,,620,,,,,,,,,,,,,,,,,,,,,1,1,,,253.5302,10,up,0.2084,,0.5,0.3,"[2,1,3]",0.09362224,stimuli/card_0_transparent.png,0,10,0,10,0,1,,,,,,,,,,
,,,,5eb14f940be27c23a52be442,A,2024-07-12_18h31.56.883,Slot Machine Game,2023.1.3,Win32,163.9344262,,,,,,,,,,,,,,,,,,,,,,,,,,,620,,,,,,,,,,,,,,,,,,,,,1,1,,,255.0415,11,right,0.0166,,0.5,0.3,"[2,1,3]",0.686304205,stimuli/card_0_transparent.png,0,11,0,11,0,1,,,,,,,,,,
,,,,5eb14f940be27c23a52be442,A,2024-07-12_18h31.56.883,Slot Machine Game,2023.1.3,Win32,163.9344262,,,,,,,,,,,,,,,,,,,,,,,,,,,630,,,,,,,,,,,,,,,,,,,,,1,1,,,256.3583,12,left,0.2464,,0.5,0.3,"[2,3,1]",0.898404274,stimuli/card_10_transparent.png,10,12,0,12,0,1,,,,,,,,,,
,,,,5eb14f940be27c23a52be442,A,2024-07-12_18h31.56.883,Slot Machine Game,2023.1.3,Win32,163.9344262,,,,,,,,,,,,,,,,,,,,,,,,,,,630,,,,,,,,,,,,,,,,,,,,,1,1,,,257.9126,13,left,0.4987,,1.5,0.3,"[2,3,1]",0.041353025,stimuli/card_0_transparent.png,0,13,0,13,0,1,,,,,,,,,,
,,,,5eb14f940be27c23a52be442,A,2024-07-12_18h31.56.883,Slot Machine Game,2023.1.3,Win32,163.9344262,,,,,,,,,,,,,,,,,,,,,,,,,,,630,,,,,,,,,,,,,,,,,,,,,1,1,,,260.7158,14,up,0.0647,,1.5,0.3,"[2,3,1]",0.462771269,stimuli/card_0_transparent.png,0,14,0,14,0,1,,,,,,,,,,
,,,,5eb14f940be27c23a52be442,A,2024-07-12_18h31.56.883,Slot Machine Game,2023.1.3,Win32,163.9344262,,,,,,,,,,,,,,,,,,,,,,,,,,,,,,,,,,,263.0888,,,,,,,,,,,,,,,,,,,,,,,,,,,,,,,,,[630],0,0,0,0,1,,,,
,,,,5eb14f940be27c23a52be442,A,2024-07-12_18h31.56.883,Slot Machine Game,2023.1.3,Win32,163.9344262,,,,,,,,,,,,,,,,,,,,,,,,,,,100,,,,,,,,,,,,,,,,,,,,,2,2,"[6,15]","[[1,3,2],[3,2,1]]",268.0955,0,left,0.8071,,1.5,0.3,"[1,3,2]",0.28439698,stimuli/card_100_transparent.png,100,0,0,0,0,1,,,,,,,,,,
,,,,5eb14f940be27c23a52be442,A,2024-07-12_18h31.56.883,Slot Machine Game,2023.1.3,Win32,163.9344262,,,,,,,,,,,,,,,,,,,,,,,,,,,200,,,,,,,,,,,,,,,,,,,,,2,2,,,271.203,1,left,0.0656,,1.5,0.3,"[1,3,2]",0.564022674,stimuli/card_100_transparent.png,100,1,0,1,0,1,,,,,,,,,,
,,,,5eb14f940be27c23a52be442,A,2024-07-12_18h31.56.883,Slot Machine Game,2023.1.3,Win32,163.9344262,,,,,,,,,,,,,,,,,,,,,,,,,,,300,,,,,,,,,,,,,,,,,,,,,2,2,,,273.5759,2,left,0.0745,,1.5,0.3,"[1,3,2]",0.853563991,stimuli/card_100_transparent.png,100,2,0,2,0,1,,,,,,,,,,
,,,,5eb14f940be27c23a52be442,A,2024-07-12_18h31.56.883,Slot Machine Game,2023.1.3,Win32,163.9344262,,,,,,,,,,,,,,,,,,,,,,,,,,,300,,,,,,,,,,,,,,,,,,,,,2,2,,,275.9549,3,left,0.0181,,0.5,0.3,"[1,3,2]",0.072957976,stimuli/card_0_transparent.png,0,3,0,3,0,1,,,,,,,,,,
,,,,5eb14f940be27c23a52be442,A,2024-07-12_18h31.56.883,Slot Machine Game,2023.1.3,Win32,163.9344262,,,,,,,,,,,,,,,,,,,,,,,,,,,400,,,,,,,,,,,,,,,,,,,,,2,2,,,277.2719,4,left,0.1051,,0.5,0.3,"[1,3,2]",0.996024827,stimuli/card_100_transparent.png,100,4,0,4,0,1,,,,,,,,,,
,,,,5eb14f940be27c23a52be442,A,2024-07-12_18h31.56.883,Slot Machine Game,2023.1.3,Win32,163.9344262,,,,,,,,,,,,,,,,,,,,,,,,,,,410,,,,,,,,,,,,,,,,,,,,,2,2,,,278.6798,5,left,0.0894,,1,0.3,"[1,3,2]",0.135989605,stimuli/card_10_transparent.png,10,5,0,5,0,1,,,,,,,,,,
,,,,5eb14f940be27c23a52be442,A,2024-07-12_18h31.56.883,Slot Machine Game,2023.1.3,Win32,163.9344262,,,,,,,,,,,,,,,,,,,,,,,,,,,510,,,,,,,,,,,,,,,,,,,,,2,2,,,280.5734,6,left,0.3041,,1,0.3,"[3,2,1]",0.017728291,stimuli/card_100_transparent.png,100,6,0,6,0,1,,,,,,,,,,
,,,,5eb14f940be27c23a52be442,A,2024-07-12_18h31.56.883,Slot Machine Game,2023.1.3,Win32,163.9344262,,,,,,,,,,,,,,,,,,,,,,,,,,,510,,,,,,,,,,,,,,,,,,,,,2,2,,,282.6913,7,left,0.0468,,0.5,0.3,"[3,2,1]",0.714764797,stimuli/card_0_transparent.png,0,7,0,7,0,1,,,,,,,,,,
,,,,5eb14f940be27c23a52be442,A,2024-07-12_18h31.56.883,Slot Machine Game,2023.1.3,Win32,163.9344262,,,,,,,,,,,,,,,,,,,,,,,,,,,510,,,,,,,,,,,,,,,,,,,,,2,2,,,284.0387,8,left,0.0296,,1,0.3,"[3,2,1]",0.250673473,stimuli/card_0_transparent.png,0,8,0,8,0,1,,,,,,,,,,
,,,,5eb14f940be27c23a52be442,A,2024-07-12_18h31.56.883,Slot Machine Game,2023.1.3,Win32,163.9344262,,,,,,,,,,,,,,,,,,,,,,,,,,,520,,,,,,,,,,,,,,,,,,,,,2,2,,,285.8716,9,up,0.3646,,0.5,0.3,"[3,2,1]",0.844224397,stimuli/card_10_transparent.png,10,9,0,9,0,1,,,,,,,,,,
,,,,5eb14f940be27c23a52be442,A,2024-07-12_18h31.56.883,Slot Machine Game,2023.1.3,Win32,163.9344262,,,,,,,,,,,,,,,,,,,,,,,,,,,520,,,,,,,,,,,,,,,,,,,,,2,2,,,287.5466,10,right,0.273,,1,0.3,"[3,2,1]",0.036567295,stimuli/card_0_transparent.png,0,10,0,10,0,1,,,,,,,,,,
,,,,5eb14f940be27c23a52be442,A,2024-07-12_18h31.56.883,Slot Machine Game,2023.1.3,Win32,163.9344262,,,,,,,,,,,,,,,,,,,,,,,,,,,530,,,,,,,,,,,,,,,,,,,,,2,2,,,289.6161,11,right,0.0921,,1.5,0.3,"[3,2,1]",0.121770257,stimuli/card_10_transparent.png,10,11,0,11,0,1,,,,,,,,,,
,,,,5eb14f940be27c23a52be442,A,2024-07-12_18h31.56.883,Slot Machine Game,2023.1.3,Win32,163.9344262,,,,,,,,,,,,,,,,,,,,,,,,,,,540,,,,,,,,,,,,,,,,,,,,,2,2,,,292.0197,12,up,0.2252,,0.5,0.3,"[3,2,1]",0.64732107,stimuli/card_10_transparent.png,10,12,0,12,0,1,,,,,,,,,,
,,,,5eb14f940be27c23a52be442,A,2024-07-12_18h31.56.883,Slot Machine Game,2023.1.3,Win32,163.9344262,,,,,,,,,,,,,,,,,,,,,,,,,,,640,,,,,,,,,,,,,,,,,,,,,2,2,,,293.5548,13,left,0.0425,,1.5,0.3,"[3,2,1]",0.023896508,stimuli/card_100_transparent.png,100,13,0,13,0,1,,,,,,,,,,
,,,,5eb14f940be27c23a52be442,A,2024-07-12_18h31.56.883,Slot Machine Game,2023.1.3,Win32,163.9344262,,,,,,,,,,,,,,,,,,,,,,,,,,,640,,,,,,,,,,,,,,,,,,,,,2,2,,,295.8974,14,left,0.0509,,1,0.3,"[3,2,1]",0.371747757,stimuli/card_0_transparent.png,0,14,0,14,0,1,,,,,,,,,,
,,,,5eb14f940be27c23a52be442,A,2024-07-12_18h31.56.883,Slot Machine Game,2023.1.3,Win32,163.9344262,,,,,,,,,,,,,,,,,,,,,,,,,,,,,,,,,,,297.7606,,,,,,,,,,,,,,,,,,,,,,,,,,,,,,,,,"[630,640]",1,0,1,0,1,,,,
,,,,5eb14f940be27c23a52be442,A,2024-07-12_18h31.56.883,Slot Machine Game,2023.1.3,Win32,163.9344262,,,,,,,,,,,,,,,,,,,,,,,,,,,100,,,,,,,,,,,,,,,,,,,,,3,3,"[15,15]","[[3,1,2],[3,1,2]]",302.7668,0,left,0.4909,,1,0.3,"[3,1,2]",0.030612323,stimuli/card_100_transparent.png,100,0,0,0,0,1,,,,,,,,,,
,,,,5eb14f940be27c23a52be442,A,2024-07-12_18h31.56.883,Slot Machine Game,2023.1.3,Win32,163.9344262,,,,,,,,,,,,,,,,,,,,,,,,,,,200,,,,,,,,,,,,,,,,,,,,,3,3,,,305.0615,1,left,0.0684,,1,0.3,"[3,1,2]",0.0362925,stimuli/card_100_transparent.png,100,1,0,1,0,1,,,,,,,,,,
,,,,5eb14f940be27c23a52be442,A,2024-07-12_18h31.56.883,Slot Machine Game,2023.1.3,Win32,163.9344262,,,,,,,,,,,,,,,,,,,,,,,,,,,200,,,,,,,,,,,,,,,,,,,,,3,3,,,306.9368,2,left,0.0811,,1.5,0.3,"[3,1,2]",0.497146681,stimuli/card_0_transparent.png,0,2,0,2,0,1,,,,,,,,,,
,,,,5eb14f940be27c23a52be442,A,2024-07-12_18h31.56.883,Slot Machine Game,2023.1.3,Win32,163.9344262,,,,,,,,,,,,,,,,,,,,,,,,,,,200,,,,,,,,,,,,,,,,,,,,,3,3,,,309.3229,3,left,0.0109,,1.5,0.3,"[3,1,2]",0.873537877,stimuli/card_0_transparent.png,0,3,0,3,0,1,,,,,,,,,,
,,,,5eb14f940be27c23a52be442,A,2024-07-12_18h31.56.883,Slot Machine Game,2023.1.3,Win32,163.9344262,,,,,,,,,,,,,,,,,,,,,,,,,,,200,,,,,,,,,,,,,,,,,,,,,3,3,,,311.6402,4,up,0.0187,,1,0.3,"[3,1,2]",0.020759971,stimuli/card_0_transparent.png,0,4,0,4,0,1,,,,,,,,,,
,,,,5eb14f940be27c23a52be442,A,2024-07-12_18h31.56.883,Slot Machine Game,2023.1.3,Win32,163.9344262,,,,,,,,,,,,,,,,,,,,,,,,,,,200,,,,,,,,,,,,,,,,,,,,,3,3,,,313.4669,5,right,0.2799,,1,0.3,"[3,1,2]",0.024040295,stimuli/card_0_transparent.png,0,5,0,5,0,1,,,,,,,,,,
,,,,5eb14f940be27c23a52be442,A,2024-07-12_18h31.56.883,Slot Machine Game,2023.1.3,Win32,163.9344262,,,,,,,,,,,,,,,,,,,,,,,,,,,300,,,,,,,,,,,,,,,,,,,,,3,3,,,315.5546,6,up,0.1037,,1.5,0.3,"[3,1,2]",0.623232754,stimuli/card_100_transparent.png,100,6,0,6,0,1,,,,,,,,,,
,,,,5eb14f940be27c23a52be442,A,2024-07-12_18h31.56.883,Slot Machine Game,2023.1.3,Win32,163.9344262,,,,,,,,,,,,,,,,,,,,,,,,,,,400,,,,,,,,,,,,,,,,,,,,,3,3,,,317.964,7,up,0.11,,0.5,0.3,"[3,1,2]",0.730108638,stimuli/card_100_transparent.png,100,7,0,7,0,1,,,,,,,,,,
,,,,5eb14f940be27c23a52be442,A,2024-07-12_18h31.56.883,Slot Machine Game,2023.1.3,Win32,163.9344262,,,,,,,,,,,,,,,,,,,,,,,,,,,500,,,,,,,,,,,,,,,,,,,,,3,3,,,319.378,8,up,0.0246,,0.5,0.3,"[3,1,2]",0.342487908,stimuli/card_100_transparent.png,100,8,0,8,0,1,,,,,,,,,,
,,,,5eb14f940be27c23a52be442,A,2024-07-12_18h31.56.883,Slot Machine Game,2023.1.3,Win32,163.9344262,,,,,,,,,,,,,,,,,,,,,,,,,,,500,,,,,,,,,,,,,,,,,,,,,3,3,,,320.7071,9,up,0.0624,,1.5,0.3,"[3,1,2]",0.048368159,stimuli/card_0_transparent.png,0,9,0,9,0,1,,,,,,,,,,
,,,,5eb14f940be27c23a52be442,A,2024-07-12_18h31.56.883,Slot Machine Game,2023.1.3,Win32,163.9344262,,,,,,,,,,,,,,,,,,,,,,,,,,,500,,,,,,,,,,,,,,,,,,,,,3,3,,,323.0742,10,up,0.063,,1.5,0.3,"[3,1,2]",0.050590018,stimuli/card_0_transparent.png,0,10,0,10,0,1,,,,,,,,,,
,,,,5eb14f940be27c23a52be442,A,2024-07-12_18h31.56.883,Slot Machine Game,2023.1.3,Win32,163.9344262,,,,,,,,,,,,,,,,,,,,,,,,,,,510,,,,,,,,,,,,,,,,,,,,,3,3,,,325.441,11,right,0.1048,,1.5,0.3,"[3,1,2]",0.814096506,stimuli/card_10_transparent.png,10,11,0,11,0,1,,,,,,,,,,
,,,,5eb14f940be27c23a52be442,A,2024-07-12_18h31.56.883,Slot Machine Game,2023.1.3,Win32,163.9344262,,,,,,,,,,,,,,,,,,,,,,,,,,,510,,,,,,,,,,,,,,,,,,,,,3,3,,,327.8502,12,left,0.0153,,1,0.3,"[3,1,2]",0.453282447,stimuli/card_0_transparent.png,0,12,0,12,0,1,,,,,,,,,,
,,,,5eb14f940be27c23a52be442,A,2024-07-12_18h31.56.883,Slot Machine Game,2023.1.3,Win32,163.9344262,,,,,,,,,,,,,,,,,,,,,,,,,,,510,,,,,,,,,,,,,,,,,,,,,3,3,,,329.6709,13,left,0.179,,1.5,0.3,"[3,1,2]",0.627230553,stimuli/card_0_transparent.png,0,13,0,13,0,1,,,,,,,,,,
,,,,5eb14f940be27c23a52be442,A,2024-07-12_18h31.56.883,Slot Machine Game,2023.1.3,Win32,163.9344262,,,,,,,,,,,,,,,,,,,,,,,,,,,520,,,,,,,,,,,,,,,,,,,,,3,3,,,332.1532,14,right,0.1438,,1.5,0.3,"[3,1,2]",0.600929917,stimuli/card_10_transparent.png,10,14,0,14,0,1,,,,,,,,,,
,,,,5eb14f940be27c23a52be442,A,2024-07-12_18h31.56.883,Slot Machine Game,2023.1.3,Win32,163.9344262,,,,,,,,,,,,,,,,,,,,,,,,,,,,,,,,,,,334.5989,,,,,,,,,,,,,,,,,,,,,,,,,,,,,,,,,"[630,640,520]",2,0,2,0,1,,,,
,,,,5eb14f940be27c23a52be442,A,2024-07-12_18h31.56.883,Slot Machine Game,2023.1.3,Win32,163.9344262,,,,,,,,,,,,,,,,,,,,,,,,,,,,,,,,,,,,,,,,,,,,,,,,4,4,"[7,15]","[[2,3,1],[1,2,3]]",339.6003,0,,,,1.5,0.3,,,,,0,0,0,0,1,,,,,,,,,,
,,,,5eb14f940be27c23a52be442,A,2024-07-12_18h31.56.883,Slot Machine Game,2023.1.3,Win32,163.9344262,,,,,,,,,,,,,,,,,,,,,,,,,,,10,,,,,,,,,,,,,,,,,,,,,4,4,,,345.1053,1,left,0.0275,,1.5,0.3,"[2,3,1]",0.201111343,stimuli/card_10_transparent.png,10,1,0,1,0,1,,,,,,,,,,
,,,,5eb14f940be27c23a52be442,A,2024-07-12_18h31.56.883,Slot Machine Game,2023.1.3,Win32,163.9344262,,,,,,,,,,,,,,,,,,,,,,,,,,,10,,,,,,,,,,,,,,,,,,,,,4,4,,,347.4408,2,up,0.1065,,1,0.3,"[2,3,1]",0.711228377,stimuli/card_0_transparent.png,0,2,0,2,0,1,,,,,,,,,,
,,,,5eb14f940be27c23a52be442,A,2024-07-12_18h31.56.883,Slot Machine Game,2023.1.3,Win32,163.9344262,,,,,,,,,,,,,,,,,,,,,,,,,,,110,,,,,,,,,,,,,,,,,,,,,4,4,,,349.3586,3,right,0.0827,,0.5,0.3,"[2,3,1]",0.726877717,stimuli/card_100_transparent.png,100,3,0,3,0,1,,,,,,,,,,
,,,,5eb14f940be27c23a52be442,A,2024-07-12_18h31.56.883,Slot Machine Game,2023.1.3,Win32,163.9344262,,,,,,,,,,,,,,,,,,,,,,,,,,,210,,,,,,,,,,,,,,,,,,,,,4,4,,,350.7422,4,right,0.0773,,1,0.3,"[2,3,1]",0.536557516,stimuli/card_100_transparent.png,100,4,0,4,0,1,,,,,,,,,,
,,,,5eb14f940be27c23a52be442,A,2024-07-12_18h31.56.883,Slot Machine Game,2023.1.3,Win32,163.9344262,,,,,,,,,,,,,,,,,,,,,,,,,,,310,,,,,,,,,,,,,,,,,,,,,4,4,,,352.6236,5,right,0.0004,,1,0.3,"[2,3,1]",0.302672588,stimuli/card_100_transparent.png,100,5,0,5,0,1,,,,,,,,,,
,,,,5eb14f940be27c23a52be442,A,2024-07-12_18h31.56.883,Slot Machine Game,2023.1.3,Win32,163.9344262,,,,,,,,,,,,,,,,,,,,,,,,,,,320,,,,,,,,,,,,,,,,,,,,,4,4,,,354.4322,6,right,0.0673,,1.5,0.3,"[2,3,1]",0.166887582,stimuli/card_10_transparent.png,10,6,0,6,0,1,,,,,,,,,,
,,,,5eb14f940be27c23a52be442,A,2024-07-12_18h31.56.883,Slot Machine Game,2023.1.3,Win32,163.9344262,,,,,,,,,,,,,,,,,,,,,,,,,,,330,,,,,,,,,,,,,,,,,,,,,4,4,,,356.8112,7,up,0.1175,,0.5,0.3,"[1,2,3]",0.507666299,stimuli/card_10_transparent.png,10,7,0,7,0,1,,,,,,,,,,
,,,,5eb14f940be27c23a52be442,A,2024-07-12_18h31.56.883,Slot Machine Game,2023.1.3,Win32,163.9344262,,,,,,,,,,,,,,,,,,,,,,,,,,,430,,,,,,,,,,,,,,,,,,,,,4,4,,,358.2373,8,left,0.0002,,0.5,0.3,"[1,2,3]",0.552556054,stimuli/card_100_transparent.png,100,8,0,8,0,1,,,,,,,,,,
,,,,5eb14f940be27c23a52be442,A,2024-07-12_18h31.56.883,Slot Machine Game,2023.1.3,Win32,163.9344262,,,,,,,,,,,,,,,,,,,,,,,,,,,530,,,,,,,,,,,,,,,,,,,,,4,4,,,359.5483,9,left,0.045,,1,0.3,"[1,2,3]",0.212873607,stimuli/card_100_transparent.png,100,9,0,9,0,1,,,,,,,,,,
,,,,5eb14f940be27c23a52be442,A,2024-07-12_18h31.56.883,Slot Machine Game,2023.1.3,Win32,163.9344262,,,,,,,,,,,,,,,,,,,,,,,,,,,540,,,,,,,,,,,,,,,,,,,,,4,4,,,361.3993,10,left,0.0101,,1,0.3,"[1,2,3]",0.146922642,stimuli/card_10_transparent.png,10,10,0,10,0,1,,,,,,,,,,
,,,,5eb14f940be27c23a52be442,A,2024-07-12_18h31.56.883,Slot Machine Game,2023.1.3,Win32,163.9344262,,,,,,,,,,,,,,,,,,,,,,,,,,,640,,,,,,,,,,,,,,,,,,,,,4,4,,,363.214,11,left,0.1553,,0.5,0.3,"[1,2,3]",0.508555525,stimuli/card_100_transparent.png,100,11,0,11,0,1,,,,,,,,,,
,,,,5eb14f940be27c23a52be442,A,2024-07-12_18h31.56.883,Slot Machine Game,2023.1.3,Win32,163.9344262,,,,,,,,,,,,,,,,,,,,,,,,,,,650,,,,,,,,,,,,,,,,,,,,,4,4,,,364.6705,12,left,0.1307,,1,0.3,"[1,2,3]",0.181629417,stimuli/card_10_transparent.png,10,12,0,12,0,1,,,,,,,,,,
,,,,5eb14f940be27c23a52be442,A,2024-07-12_18h31.56.883,Slot Machine Game,2023.1.3,Win32,163.9344262,,,,,,,,,,,,,,,,,,,,,,,,,,,750,,,,,,,,,,,,,,,,,,,,,4,4,,,366.6065,13,left,0.3067,,1.5,0.3,"[1,2,3]",0.593725124,stimuli/card_100_transparent.png,100,13,0,13,0,1,,,,,,,,,,
,,,,5eb14f940be27c23a52be442,A,2024-07-12_18h31.56.883,Slot Machine Game,2023.1.3,Win32,163.9344262,,,,,,,,,,,,,,,,,,,,,,,,,,,850,,,,,,,,,,,,,,,,,,,,,4,4,,,369.2161,14,left,0.1134,,1.5,0.3,"[1,2,3]",0.826055728,stimuli/card_100_transparent.png,100,14,0,14,0,1,,,,,,,,,,
,,,,5eb14f940be27c23a52be442,A,2024-07-12_18h31.56.883,Slot Machine Game,2023.1.3,Win32,163.9344262,,,,,,,,,,,,,,,,,,,,,,,,,,,,,,,,,,,371.6322,,,,,,,,,,,,,,,,,,,,,,,,,,,,,,,,,"[630,640,520,850]",3,0,3,0,1,,,,
,,,,5eb14f940be27c23a52be442,A,2024-07-12_18h31.56.883,Slot Machine Game,2023.1.3,Win32,163.9344262,,,,,,,,,,,,,,,,,,,,,,,,,,,100,,,,,,,,,,,,,,,,,,,,,5,5,"[5,15]","[[1,2,3],[3,1,2]]",376.6377,0,left,2.7707,,1,0.3,"[1,2,3]",0.767606442,stimuli/card_100_transparent.png,100,0,0,0,0,1,,,,,,,,,,
,,,,5eb14f940be27c23a52be442,A,2024-07-12_18h31.56.883,Slot Machine Game,2023.1.3,Win32,163.9344262,,,,,,,,,,,,,,,,,,,,,,,,,,,200,,,,,,,,,,,,,,,,,,,,,5,5,,,381.2145,1,left,0.107,,1.5,0.3,"[1,2,3]",0.430163506,stimuli/card_100_transparent.png,100,1,0,1,0,1,,,,,,,,,,
,,,,5eb14f940be27c23a52be442,A,2024-07-12_18h31.56.883,Slot Machine Game,2023.1.3,Win32,163.9344262,,,,,,,,,,,,,,,,,,,,,,,,,,,300,,,,,,,,,,,,,,,,,,,,,5,5,,,383.6237,2,left,0.1772,,1.5,0.3,"[1,2,3]",0.94848579,stimuli/card_100_transparent.png,100,2,0,2,0,1,,,,,,,,,,
,,,,5eb14f940be27c23a52be442,A,2024-07-12_18h31.56.883,Slot Machine Game,2023.1.3,Win32,163.9344262,,,,,,,,,,,,,,,,,,,,,,,,,,,400,,,,,,,,,,,,,,,,,,,,,5,5,,,386.1061,3,left,0.055,,0.5,0.3,"[1,2,3]",0.828519249,stimuli/card_100_transparent.png,100,3,0,3,0,1,,,,,,,,,,
,,,,5eb14f940be27c23a52be442,A,2024-07-12_18h31.56.883,Slot Machine Game,2023.1.3,Win32,163.9344262,,,,,,,,,,,,,,,,,,,,,,,,,,,410,,,,,,,,,,,,,,,,,,,,,5,5,,,387.4653,4,left,0.1675,,0.5,0.3,"[1,2,3]",0.164823857,stimuli/card_10_transparent.png,10,4,0,4,0,1,,,,,,,,,,
,,,,5eb14f940be27c23a52be442,A,2024-07-12_18h31.56.883,Slot Machine Game,2023.1.3,Win32,163.9344262,,,,,,,,,,,,,,,,,,,,,,,,,,,410,,,,,,,,,,,,,,,,,,,,,5,5,,,388.9341,5,left,0.0917,,1,0.3,"[3,1,2]",0.452761901,stimuli/card_0_transparent.png,0,5,0,5,0,1,,,,,,,,,,
,,,,5eb14f940be27c23a52be442,A,2024-07-12_18h31.56.883,Slot Machine Game,2023.1.3,Win32,163.9344262,,,,,,,,,,,,,,,,,,,,,,,,,,,510,,,,,,,,,,,,,,,,,,,,,5,5,,,390.8342,6,up,0.1519,,1,0.3,"[3,1,2]",0.435579706,stimuli/card_100_transparent.png,100,6,0,6,0,1,,,,,,,,,,
,,,,5eb14f940be27c23a52be442,A,2024-07-12_18h31.56.883,Slot Machine Game,2023.1.3,Win32,163.9344262,,,,,,,,,,,,,,,,,,,,,,,,,,,610,,,,,,,,,,,,,,,,,,,,,5,5,,,392.7939,7,up,0.0469,,1.5,0.3,"[3,1,2]",0.221083846,stimuli/card_100_transparent.png,100,7,0,7,0,1,,,,,,,,,,
,,,,5eb14f940be27c23a52be442,A,2024-07-12_18h31.56.883,Slot Machine Game,2023.1.3,Win32,163.9344262,,,,,,,,,,,,,,,,,,,,,,,,,,,710,,,,,,,,,,,,,,,,,,,,,5,5,,,395.1426,8,up,0.1306,,1,0.3,"[3,1,2]",0.731084244,stimuli/card_100_transparent.png,100,8,0,8,0,1,,,,,,,,,,
,,,,5eb14f940be27c23a52be442,A,2024-07-12_18h31.56.883,Slot Machine Game,2023.1.3,Win32,163.9344262,,,,,,,,,,,,,,,,,,,,,,,,,,,720,,,,,,,,,,,,,,,,,,,,,5,5,,,397.0785,9,up,0.075,,1.5,0.3,"[3,1,2]",0.142654096,stimuli/card_10_transparent.png,10,9,0,9,0,1,,,,,,,,,,
,,,,5eb14f940be27c23a52be442,A,2024-07-12_18h31.56.883,Slot Machine Game,2023.1.3,Win32,163.9344262,,,,,,,,,,,,,,,,,,,,,,,,,,,820,,,,,,,,,,,,,,,,,,,,,5,5,,,399.4576,10,up,0.0236,,1.5,0.3,"[3,1,2]",0.55025889,stimuli/card_100_transparent.png,100,10,0,10,0,1,,,,,,,,,,
,,,,5eb14f940be27c23a52be442,A,2024-07-12_18h31.56.883,Slot Machine Game,2023.1.3,Win32,163.9344262,,,,,,,,,,,,,,,,,,,,,,,,,,,830,,,,,,,,,,,,,,,,,,,,,5,5,,,401.7819,11,up,0.0987,,1.5,0.3,"[3,1,2]",0.173815418,stimuli/card_10_transparent.png,10,11,0,11,0,1,,,,,,,,,,
,,,,5eb14f940be27c23a52be442,A,2024-07-12_18h31.56.883,Slot Machine Game,2023.1.3,Win32,163.9344262,,,,,,,,,,,,,,,,,,,,,,,,,,,930,,,,,,,,,,,,,,,,,,,,,5,5,,,404.1852,12,up,0.1434,,1,0.3,"[3,1,2]",0.614348183,stimuli/card_100_transparent.png,100,12,0,12,0,1,,,,,,,,,,
,,,,5eb14f940be27c23a52be442,A,2024-07-12_18h31.56.883,Slot Machine Game,2023.1.3,Win32,163.9344262,,,,,,,,,,,,,,,,,,,,,,,,,,,1030,,,,,,,,,,,,,,,,,,,,,5,5,,,406.1333,13,up,0.0278,,1.5,0.3,"[3,1,2]",0.506013391,stimuli/card_100_transparent.png,100,13,0,13,0,1,,,,,,,,,,
,,,,5eb14f940be27c23a52be442,A,2024-07-12_18h31.56.883,Slot Machine Game,2023.1.3,Win32,163.9344262,,,,,,,,,,,,,,,,,,,,,,,,,,,1030,,,,,,,,,,,,,,,,,,,,,5,5,,,408.4638,14,up,0.009,,1.5,0.3,"[3,1,2]",0.090508717,stimuli/card_0_transparent.png,0,14,0,14,0,1,,,,,,,,,,
,,,,5eb14f940be27c23a52be442,A,2024-07-12_18h31.56.883,Slot Machine Game,2023.1.3,Win32,163.9344262,,,,,,,,,,,,,,,,,,,,,,,,,,,,,,,,,,,410.7763,,,,,,,,,,,,,,,,,,,,,,,,,,,,,,,,,"[630,640,520,850,1030]",4,0,4,0,1,,,,
,,,,5eb14f940be27c23a52be442,A,2024-07-12_18h31.56.883,Slot Machine Game,2023.1.3,Win32,163.9344262,,,,,,,,,,,,,,,,,,,,,,,,,,,100,,,,,,,,,,,,,,,,,,,,,6,6,"[4,10,15]","[[2,3,1],[1,3,2],[3,2,1]]",415.7825,0,left,0.2573,,1.5,0.3,"[2,3,1]",0.187192026,stimuli/card_100_transparent.png,100,0,0,0,0,1,,,,,,,,,,
,,,,5eb14f940be27c23a52be442,A,2024-07-12_18h31.56.883,Slot Machine Game,2023.1.3,Win32,163.9344262,,,,,,,,,,,,,,,,,,,,,,,,,,,110,,,,,,,,,,,,,,,,,,,,,6,6,,,418.3441,1,left,0.0576,,1.5,0.3,"[2,3,1]",0.762259382,stimuli/card_10_transparent.png,10,1,0,1,0,1,,,,,,,,,,
,,,,5eb14f940be27c23a52be442,A,2024-07-12_18h31.56.883,Slot Machine Game,2023.1.3,Win32,163.9344262,,,,,,,,,,,,,,,,,,,,,,,,,,,110,,,,,,,,,,,,,,,,,,,,,6,6,,,420.705,2,left,0.0396,,1.5,0.3,"[2,3,1]",0.066309345,stimuli/card_0_transparent.png,0,2,0,2,0,1,,,,,,,,,,
,,,,5eb14f940be27c23a52be442,A,2024-07-12_18h31.56.883,Slot Machine Game,2023.1.3,Win32,163.9344262,,,,,,,,,,,,,,,,,,,,,,,,,,,120,,,,,,,,,,,,,,,,,,,,,6,6,,,423.0475,3,up,0.5929,,1.5,0.3,"[2,3,1]",0.187037531,stimuli/card_10_transparent.png,10,3,0,3,0,1,,,,,,,,,,
,,,,5eb14f940be27c23a52be442,A,2024-07-12_18h31.56.883,Slot Machine Game,2023.1.3,Win32,163.9344262,,,,,,,,,,,,,,,,,,,,,,,,,,,130,,,,,,,,,,,,,,,,,,,,,6,6,,,425.9424,4,right,0.0258,,1,0.3,"[1,3,2]",0.300264492,stimuli/card_10_transparent.png,10,4,0,4,0,1,,,,,,,,,,
,,,,5eb14f940be27c23a52be442,A,2024-07-12_18h31.56.883,Slot Machine Game,2023.1.3,Win32,163.9344262,,,,,,,,,,,,,,,,,,,,,,,,,,,230,,,,,,,,,,,,,,,,,,,,,6,6,,,427.7751,5,up,0.0185,,1.5,0.3,"[1,3,2]",0.096515728,stimuli/card_100_transparent.png,100,5,0,5,0,1,,,,,,,,,,
,,,,5eb14f940be27c23a52be442,A,2024-07-12_18h31.56.883,Slot Machine Game,2023.1.3,Win32,163.9344262,,,,,,,,,,,,,,,,,,,,,,,,,,,230,,,,,,,,,,,,,,,,,,,,,6,6,,,430.0995,6,up,0.1169,,1.5,0.3,"[1,3,2]",0.625622074,stimuli/card_0_transparent.png,0,6,0,6,0,1,,,,,,,,,,
,,,,5eb14f940be27c23a52be442,A,2024-07-12_18h31.56.883,Slot Machine Game,2023.1.3,Win32,163.9344262,,,,,,,,,,,,,,,,,,,,,,,,,,,230,,,,,,,,,,,,,,,,,,,,,6,6,,,432.5212,7,up,0.1112,,1,0.3,"[1,3,2]",0.833977816,stimuli/card_0_transparent.png,0,7,0,7,0,1,,,,,,,,,,
,,,,5eb14f940be27c23a52be442,A,2024-07-12_18h31.56.883,Slot Machine Game,2023.1.3,Win32,163.9344262,,,,,,,,,,,,,,,,,,,,,,,,,,,240,,,,,,,,,,,,,,,,,,,,,6,6,,,434.4392,8,right,0.0096,,1.5,0.3,"[1,3,2]",0.583595869,stimuli/card_10_transparent.png,10,8,0,8,0,1,,,,,,,,,,
,,,,5eb14f940be27c23a52be442,A,2024-07-12_18h31.56.883,Slot Machine Game,2023.1.3,Win32,163.9344262,,,,,,,,,,,,,,,,,,,,,,,,,,,340,,,,,,,,,,,,,,,,,,,,,6,6,,,436.7512,9,right,0.0173,,1,0.3,"[1,3,2]",0.135368091,stimuli/card_100_transparent.png,100,9,0,9,0,1,,,,,,,,,,
,,,,5eb14f940be27c23a52be442,A,2024-07-12_18h31.56.883,Slot Machine Game,2023.1.3,Win32,163.9344262,,,,,,,,,,,,,,,,,,,,,,,,,,,440,,,,,,,,,,,,,,,,,,,,,6,6,,,438.5718,10,right,0.0923,,1.5,0.3,"[3,2,1]",0.264066557,stimuli/card_100_transparent.png,100,10,0,10,0,1,,,,,,,,,,
,,,,5eb14f940be27c23a52be442,A,2024-07-12_18h31.56.883,Slot Machine Game,2023.1.3,Win32,163.9344262,,,,,,,,,,,,,,,,,,,,,,,,,,,450,,,,,,,,,,,,,,,,,,,,,6,6,,,440.9689,11,right,0.1032,,0.5,0.3,"[3,2,1]",0.170061758,stimuli/card_10_transparent.png,10,11,0,11,0,1,,,,,,,,,,
,,,,5eb14f940be27c23a52be442,A,2024-07-12_18h31.56.883,Slot Machine Game,2023.1.3,Win32,163.9344262,,,,,,,,,,,,,,,,,,,,,,,,,,,550,,,,,,,,,,,,,,,,,,,,,6,6,,,442.3771,12,right,0.0156,,1.5,0.3,"[3,2,1]",0.832337995,stimuli/card_100_transparent.png,100,12,0,12,0,1,,,,,,,,,,
,,,,5eb14f940be27c23a52be442,A,2024-07-12_18h31.56.883,Slot Machine Game,2023.1.3,Win32,163.9344262,,,,,,,,,,,,,,,,,,,,,,,,,,,650,,,,,,,,,,,,,,,,,,,,,6,6,,,444.6955,13,right,0.1125,,1,0.3,"[3,2,1]",0.916534035,stimuli/card_100_transparent.png,100,13,0,13,0,1,,,,,,,,,,
,,,,5eb14f940be27c23a52be442,A,2024-07-12_18h31.56.883,Slot Machine Game,2023.1.3,Win32,163.9344262,,,,,,,,,,,,,,,,,,,,,,,,,,,650,,,,,,,,,,,,,,,,,,,,,6,6,,,446.6133,14,right,0.0352,,1.5,0.3,"[3,2,1]",0.072950378,stimuli/card_0_transparent.png,0,14,0,14,0,1,,,,,,,,,,
,,,,5eb14f940be27c23a52be442,A,2024-07-12_18h31.56.883,Slot Machine Game,2023.1.3,Win32,163.9344262,,,,,,,,,,,,,,,,,,,,,,,,,,,,,,,,,,,448.9497,,,,,,,,,,,,,,,,,,,,,,,,,,,,,,,,,"[630,640,520,850,1030,650]",5,0,5,0,1,,,,
,,,,5eb14f940be27c23a52be442,A,2024-07-12_18h31.56.883,Slot Machine Game,2023.1.3,Win32,163.9344262,,,,,,,,,,,,,,,,,,,,,,,,,,,100,,,,,,,,,,,,,,,,,,,,,7,7,"[9,15]","[[1,3,2],[2,3,1]]",453.9557,0,left,0.1401,,0.5,0.3,"[1,3,2]",0.889126151,stimuli/card_100_transparent.png,100,0,0,0,0,1,,,,,,,,,,
,,,,5eb14f940be27c23a52be442,A,2024-07-12_18h31.56.883,Slot Machine Game,2023.1.3,Win32,163.9344262,,,,,,,,,,,,,,,,,,,,,,,,,,,100,,,,,,,,,,,,,,,,,,,,,7,7,,,455.4009,1,left,0.1196,,1.5,0.3,"[1,3,2]",0.000165586,stimuli/card_0_transparent.png,0,1,0,1,0,1,,,,,,,,,,
,,,,5eb14f940be27c23a52be442,A,2024-07-12_18h31.56.883,Slot Machine Game,2023.1.3,Win32,163.9344262,,,,,,,,,,,,,,,,,,,,,,,,,,,200,,,,,,,,,,,,,,,,,,,,,7,7,,,457.8224,2,left,0.2338,,1,0.3,"[1,3,2]",0.79555623,stimuli/card_100_transparent.png,100,2,0,2,0,1,,,,,,,,,,
,,,,5eb14f940be27c23a52be442,A,2024-07-12_18h31.56.883,Slot Machine Game,2023.1.3,Win32,163.9344262,,,,,,,,,,,,,,,,,,,,,,,,,,,210,,,,,,,,,,,,,,,,,,,,,7,7,,,459.8618,3,left,0.1057,,1,0.3,"[1,3,2]",0.12448963,stimuli/card_10_transparent.png,10,3,0,3,0,1,,,,,,,,,,
,,,,5eb14f940be27c23a52be442,A,2024-07-12_18h31.56.883,Slot Machine Game,2023.1.3,Win32,163.9344262,,,,,,,,,,,,,,,,,,,,,,,,,,,310,,,,,,,,,,,,,,,,,,,,,7,7,,,461.7734,4,left,0.163,,0.5,0.3,"[1,3,2]",0.820663187,stimuli/card_100_transparent.png,100,4,0,4,0,1,,,,,,,,,,
,,,,5eb14f940be27c23a52be442,A,2024-07-12_18h31.56.883,Slot Machine Game,2023.1.3,Win32,163.9344262,,,,,,,,,,,,,,,,,,,,,,,,,,,410,,,,,,,,,,,,,,,,,,,,,7,7,,,463.242,5,left,0.1427,,0.5,0.3,"[1,3,2]",0.477410626,stimuli/card_100_transparent.png,100,5,0,5,0,1,,,,,,,,,,
,,,,5eb14f940be27c23a52be442,A,2024-07-12_18h31.56.883,Slot Machine Game,2023.1.3,Win32,163.9344262,,,,,,,,,,,,,,,,,,,,,,,,,,,510,,,,,,,,,,,,,,,,,,,,,7,7,,,464.6864,6,left,0.0094,,1.5,0.3,"[1,3,2]",0.958636923,stimuli/card_100_transparent.png,100,6,0,6,0,1,,,,,,,,,,
,,,,5eb14f940be27c23a52be442,A,2024-07-12_18h31.56.883,Slot Machine Game,2023.1.3,Win32,163.9344262,,,,,,,,,,,,,,,,,,,,,,,,,,,520,,,,,,,,,,,,,,,,,,,,,7,7,,,466.9986,7,left,0.0494,,1,0.3,"[1,3,2]",0.138198278,stimuli/card_10_transparent.png,10,7,0,7,0,1,,,,,,,,,,
,,,,5eb14f940be27c23a52be442,A,2024-07-12_18h31.56.883,Slot Machine Game,2023.1.3,Win32,163.9344262,,,,,,,,,,,,,,,,,,,,,,,,,,,620,,,,,,,,,,,,,,,,,,,,,7,7,,,468.8558,8,left,0.2889,,1.5,0.3,"[1,3,2]",0.580720352,stimuli/card_100_transparent.png,100,8,0,8,0,1,,,,,,,,,,
,,,,5eb14f940be27c23a52be442,A,2024-07-12_18h31.56.883,Slot Machine Game,2023.1.3,Win32,163.9344262,,,,,,,,,,,,,,,,,,,,,,,,,,,630,,,,,,,,,,,,,,,,,,,,,7,7,,,471.4472,9,left,0.033,,1,0.3,"[2,3,1]",0.411547483,stimuli/card_10_transparent.png,10,9,0,9,0,1,,,,,,,,,,
,,,,5eb14f940be27c23a52be442,A,2024-07-12_18h31.56.883,Slot Machine Game,2023.1.3,Win32,163.9344262,,,,,,,,,,,,,,,,,,,,,,,,,,,640,,,,,,,,,,,,,,,,,,,,,7,7,,,473.286,10,left,0.1213,,1,0.3,"[2,3,1]",0.382644376,stimuli/card_10_transparent.png,10,10,0,10,0,1,,,,,,,,,,
,,,,5eb14f940be27c23a52be442,A,2024-07-12_18h31.56.883,Slot Machine Game,2023.1.3,Win32,163.9344262,,,,,,,,,,,,,,,,,,,,,,,,,,,640,,,,,,,,,,,,,,,,,,,,,7,7,,,475.2159,11,up,0.0004,,1,0.3,"[2,3,1]",0.928201083,stimuli/card_0_transparent.png,0,11,0,11,0,1,,,,,,,,,,
,,,,5eb14f940be27c23a52be442,A,2024-07-12_18h31.56.883,Slot Machine Game,2023.1.3,Win32,163.9344262,,,,,,,,,,,,,,,,,,,,,,,,,,,740,,,,,,,,,,,,,,,,,,,,,7,7,,,477.0245,12,right,0.0633,,0.5,0.3,"[2,3,1]",0.465061391,stimuli/card_100_transparent.png,100,12,0,12,0,1,,,,,,,,,,
,,,,5eb14f940be27c23a52be442,A,2024-07-12_18h31.56.883,Slot Machine Game,2023.1.3,Win32,163.9344262,,,,,,,,,,,,,,,,,,,,,,,,,,,750,,,,,,,,,,,,,,,,,,,,,7,7,,,478.3902,13,right,0.1379,,1,0.3,"[2,3,1]",0.114765382,stimuli/card_10_transparent.png,10,13,0,13,0,1,,,,,,,,,,
,,,,5eb14f940be27c23a52be442,A,2024-07-12_18h31.56.883,Slot Machine Game,2023.1.3,Win32,163.9344262,,,,,,,,,,,,,,,,,,,,,,,,,,,850,,,,,,,,,,,,,,,,,,,,,7,7,,,480.3263,14,right,0.1142,,0.5,0.3,"[2,3,1]",0.903342939,stimuli/card_100_transparent.png,100,14,0,14,0,1,,,,,,,,,,
,,,,5eb14f940be27c23a52be442,A,2024-07-12_18h31.56.883,Slot Machine Game,2023.1.3,Win32,163.9344262,,,,,,,,,,,,,,,,,,,,,,,,,,,,,,,,,,,481.74,,,,,,,,,,,,,,,,,,,,,,,,,,,,,,,,,"[630,640,520,850,1030,650,850]",6,0,6,0,1,,,,
,,,,5eb14f940be27c23a52be442,A,2024-07-12_18h31.56.883,Slot Machine Game,2023.1.3,Win32,163.9344262,,,,,,,,,,,,,,,,,,,,,,,,,,,0,,,,,,,,,,,,,,,,,,,,,8,8,"[11,15]","[[2,1,3],[1,2,3]]",486.7464,0,right,0.1458,,1,0.3,"[2,1,3]",0.547047126,stimuli/card_0_transparent.png,0,0,0,0,0,1,,,,,,,,,,
,,,,5eb14f940be27c23a52be442,A,2024-07-12_18h31.56.883,Slot Machine Game,2023.1.3,Win32,163.9344262,,,,,,,,,,,,,,,,,,,,,,,,,,,10,,,,,,,,,,,,,,,,,,,,,8,8,,,488.695,1,left,0.1937,,1,0.3,"[2,1,3]",0.223967885,stimuli/card_10_transparent.png,10,1,0,1,0,1,,,,,,,,,,
,,,,5eb14f940be27c23a52be442,A,2024-07-12_18h31.56.883,Slot Machine Game,2023.1.3,Win32,163.9344262,,,,,,,,,,,,,,,,,,,,,,,,,,,110,,,,,,,,,,,,,,,,,,,,,8,8,,,490.6918,2,up,0.0759,,1.5,0.3,"[2,1,3]",0.298232767,stimuli/card_100_transparent.png,100,2,0,2,0,1,,,,,,,,,,
,,,,5eb14f940be27c23a52be442,A,2024-07-12_18h31.56.883,Slot Machine Game,2023.1.3,Win32,163.9344262,,,,,,,,,,,,,,,,,,,,,,,,,,,210,,,,,,,,,,,,,,,,,,,,,8,8,,,493.0707,3,up,0.0675,,1.5,0.3,"[2,1,3]",0.550247574,stimuli/card_100_transparent.png,100,3,0,3,0,1,,,,,,,,,,
,,,,5eb14f940be27c23a52be442,A,2024-07-12_18h31.56.883,Slot Machine Game,2023.1.3,Win32,163.9344262,,,,,,,,,,,,,,,,,,,,,,,,,,,310,,,,,,,,,,,,,,,,,,,,,8,8,,,495.4499,4,up,0.0312,,0.5,0.3,"[2,1,3]",0.70917917,stimuli/card_100_transparent.png,100,4,0,4,0,1,,,,,,,,,,
,,,,5eb14f940be27c23a52be442,A,2024-07-12_18h31.56.883,Slot Machine Game,2023.1.3,Win32,163.9344262,,,,,,,,,,,,,,,,,,,,,,,,,,,410,,,,,,,,,,,,,,,,,,,,,8,8,,,496.785,5,up,0.0255,,1.5,0.3,"[2,1,3]",0.946466326,stimuli/card_100_transparent.png,100,5,0,5,0,1,,,,,,,,,,
,,,,5eb14f940be27c23a52be442,A,2024-07-12_18h31.56.883,Slot Machine Game,2023.1.3,Win32,163.9344262,,,,,,,,,,,,,,,,,,,,,,,,,,,510,,,,,,,,,,,,,,,,,,,,,8,8,,,499.1215,6,up,0.0306,,1.5,0.3,"[2,1,3]",0.93757091,stimuli/card_100_transparent.png,100,6,0,6,0,1,,,,,,,,,,
,,,,5eb14f940be27c23a52be442,A,2024-07-12_18h31.56.883,Slot Machine Game,2023.1.3,Win32,163.9344262,,,,,,,,,,,,,,,,,,,,,,,,,,,610,,,,,,,,,,,,,,,,,,,,,8,8,,,501.458,7,up,0.3532,,1.5,0.3,"[2,1,3]",0.884245116,stimuli/card_100_transparent.png,100,7,0,7,0,1,,,,,,,,,,
,,,,5eb14f940be27c23a52be442,A,2024-07-12_18h31.56.883,Slot Machine Game,2023.1.3,Win32,163.9344262,,,,,,,,,,,,,,,,,,,,,,,,,,,610,,,,,,,,,,,,,,,,,,,,,8,8,,,504.1223,8,up,0.104,,1,0.3,"[2,1,3]",0.039134576,stimuli/card_0_transparent.png,0,8,0,8,0,1,,,,,,,,,,
,,,,5eb14f940be27c23a52be442,A,2024-07-12_18h31.56.883,Slot Machine Game,2023.1.3,Win32,163.9344262,,,,,,,,,,,,,,,,,,,,,,,,,,,710,,,,,,,,,,,,,,,,,,,,,8,8,,,506.04,9,up,0.0316,,0.5,0.3,"[2,1,3]",0.936157094,stimuli/card_100_transparent.png,100,9,0,9,0,1,,,,,,,,,,
,,,,5eb14f940be27c23a52be442,A,2024-07-12_18h31.56.883,Slot Machine Game,2023.1.3,Win32,163.9344262,,,,,,,,,,,,,,,,,,,,,,,,,,,810,,,,,,,,,,,,,,,,,,,,,8,8,,,507.3751,10,up,0.073,,1,0.3,"[2,1,3]",0.634554844,stimuli/card_100_transparent.png,100,10,0,10,0,1,,,,,,,,,,
,,,,5eb14f940be27c23a52be442,A,2024-07-12_18h31.56.883,Slot Machine Game,2023.1.3,Win32,163.9344262,,,,,,,,,,,,,,,,,,,,,,,,,,,820,,,,,,,,,,,,,,,,,,,,,8,8,,,509.2566,11,up,0.0792,,1.5,0.3,"[1,2,3]",0.311739228,stimuli/card_10_transparent.png,10,11,0,11,0,1,,,,,,,,,,
,,,,5eb14f940be27c23a52be442,A,2024-07-12_18h31.56.883,Slot Machine Game,2023.1.3,Win32,163.9344262,,,,,,,,,,,,,,,,,,,,,,,,,,,830,,,,,,,,,,,,,,,,,,,,,8,8,,,511.6416,12,up,0.0139,,1.5,0.3,"[1,2,3]",0.816456842,stimuli/card_10_transparent.png,10,12,0,12,0,1,,,,,,,,,,
,,,,5eb14f940be27c23a52be442,A,2024-07-12_18h31.56.883,Slot Machine Game,2023.1.3,Win32,163.9344262,,,,,,,,,,,,,,,,,,,,,,,,,,,930,,,,,,,,,,,,,,,,,,,,,8,8,,,513.9599,13,left,1E-04,,1.5,0.3,"[1,2,3]",0.840632663,stimuli/card_100_transparent.png,100,13,0,13,0,1,,,,,,,,,,
,,,,5eb14f940be27c23a52be442,A,2024-07-12_18h31.56.883,Slot Machine Game,2023.1.3,Win32,163.9344262,,,,,,,,,,,,,,,,,,,,,,,,,,,940,,,,,,,,,,,,,,,,,,,,,8,8,,,516.2661,14,left,0.0632,,1.5,0.3,"[1,2,3]",0.185597444,stimuli/card_10_transparent.png,10,14,0,14,0,1,,,,,,,,,,
,,,,5eb14f940be27c23a52be442,A,2024-07-12_18h31.56.883,Slot Machine Game,2023.1.3,Win32,163.9344262,,,,,,,,,,,,,,,,,,,,,,,,,,,,,,,,,,,518.6392,,,,,,,,,,,,,,,,,,,,,,,,,,,,,,,,,"[630,640,520,850,1030,650,850,940]",7,0,7,0,1,,,,
,,,,5eb14f940be27c23a52be442,A,2024-07-12_18h31.56.883,Slot Machine Game,2023.1.3,Win32,163.9344262,,,,,,,,,,,,,,,,,,,,,,,,,,,0,,,,,,,,,,,,,,,,,,,,,9,9,"[8,15]","[[3,2,1],[3,1,2]]",523.6408,0,left,0.154,,1,0.3,"[3,2,1]",0.964368379,stimuli/card_0_transparent.png,0,0,0,0,0,1,,,,,,,,,,
,,,,5eb14f940be27c23a52be442,A,2024-07-12_18h31.56.883,Slot Machine Game,2023.1.3,Win32,163.9344262,,,,,,,,,,,,,,,,,,,,,,,,,,,0,,,,,,,,,,,,,,,,,,,,,9,9,,,525.6003,1,right,0.1615,,0.5,0.3,"[3,2,1]",0.029449336,stimuli/card_0_transparent.png,0,1,0,1,0,1,,,,,,,,,,
,,,,5eb14f940be27c23a52be442,A,2024-07-12_18h31.56.883,Slot Machine Game,2023.1.3,Win32,163.9344262,,,,,,,,,,,,,,,,,,,,,,,,,,,10,,,,,,,,,,,,,,,,,,,,,9,9,,,527.0688,2,up,0.093,,1,0.3,"[3,2,1]",0.523431774,stimuli/card_10_transparent.png,10,2,0,2,0,1,,,,,,,,,,
,,,,5eb14f940be27c23a52be442,A,2024-07-12_18h31.56.883,Slot Machine Game,2023.1.3,Win32,163.9344262,,,,,,,,,,,,,,,,,,,,,,,,,,,110,,,,,,,,,,,,,,,,,,,,,9,9,,,528.9746,3,right,0.0355,,1.5,0.3,"[3,2,1]",0.390526322,stimuli/card_100_transparent.png,100,3,0,3,0,1,,,,,,,,,,
,,,,5eb14f940be27c23a52be442,A,2024-07-12_18h31.56.883,Slot Machine Game,2023.1.3,Win32,163.9344262,,,,,,,,,,,,,,,,,,,,,,,,,,,110,,,,,,,,,,,,,,,,,,,,,9,9,,,531.3171,4,right,0.0446,,1.5,0.3,"[3,2,1]",0.066817609,stimuli/card_0_transparent.png,0,4,0,4,0,1,,,,,,,,,,
,,,,5eb14f940be27c23a52be442,A,2024-07-12_18h31.56.883,Slot Machine Game,2023.1.3,Win32,163.9344262,,,,,,,,,,,,,,,,,,,,,,,,,,,210,,,,,,,,,,,,,,,,,,,,,9,9,,,533.6718,5,right,0.0002,,1,0.3,"[3,2,1]",0.623142022,stimuli/card_100_transparent.png,100,5,0,5,0,1,,,,,,,,,,
,,,,5eb14f940be27c23a52be442,A,2024-07-12_18h31.56.883,Slot Machine Game,2023.1.3,Win32,163.9344262,,,,,,,,,,,,,,,,,,,,,,,,,,,310,,,,,,,,,,,,,,,,,,,,,9,9,,,535.4803,6,right,0.0555,,1,0.3,"[3,2,1]",0.755715752,stimuli/card_100_transparent.png,100,6,0,6,0,1,,,,,,,,,,
,,,,5eb14f940be27c23a52be442,A,2024-07-12_18h31.56.883,Slot Machine Game,2023.1.3,Win32,163.9344262,,,,,,,,,,,,,,,,,,,,,,,,,,,320,,,,,,,,,,,,,,,,,,,,,9,9,,,537.3437,7,right,0.0019,,1,0.3,"[3,2,1]",0.163661563,stimuli/card_10_transparent.png,10,7,0,7,0,1,,,,,,,,,,
,,,,5eb14f940be27c23a52be442,A,2024-07-12_18h31.56.883,Slot Machine Game,2023.1.3,Win32,163.9344262,,,,,,,,,,,,,,,,,,,,,,,,,,,330,,,,,,,,,,,,,,,,,,,,,9,9,,,539.1582,8,right,0.6959,,1,0.3,"[3,1,2]",0.8513376,stimuli/card_10_transparent.png,10,8,0,8,0,1,,,,,,,,,,
,,,,5eb14f940be27c23a52be442,A,2024-07-12_18h31.56.883,Slot Machine Game,2023.1.3,Win32,163.9344262,,,,,,,,,,,,,,,,,,,,,,,,,,,430,,,,,,,,,,,,,,,,,,,,,9,9,,,541.6646,9,up,0.2225,,1.5,0.3,"[3,1,2]",0.311670825,stimuli/card_100_transparent.png,100,9,0,9,0,1,,,,,,,,,,
,,,,5eb14f940be27c23a52be442,A,2024-07-12_18h31.56.883,Slot Machine Game,2023.1.3,Win32,163.9344262,,,,,,,,,,,,,,,,,,,,,,,,,,,530,,,,,,,,,,,,,,,,,,,,,9,9,,,544.1893,10,up,0.067,,0.5,0.3,"[3,1,2]",0.26264432,stimuli/card_100_transparent.png,100,10,0,10,0,1,,,,,,,,,,
,,,,5eb14f940be27c23a52be442,A,2024-07-12_18h31.56.883,Slot Machine Game,2023.1.3,Win32,163.9344262,,,,,,,,,,,,,,,,,,,,,,,,,,,630,,,,,,,,,,,,,,,,,,,,,9,9,,,545.5608,11,up,0.0889,,1.5,0.3,"[3,1,2]",0.826281688,stimuli/card_100_transparent.png,100,11,0,11,0,1,,,,,,,,,,
,,,,5eb14f940be27c23a52be442,A,2024-07-12_18h31.56.883,Slot Machine Game,2023.1.3,Win32,163.9344262,,,,,,,,,,,,,,,,,,,,,,,,,,,730,,,,,,,,,,,,,,,,,,,,,9,9,,,547.9581,12,up,0.1215,,1,0.3,"[3,1,2]",0.798283027,stimuli/card_100_transparent.png,100,12,0,12,0,1,,,,,,,,,,
,,,,5eb14f940be27c23a52be442,A,2024-07-12_18h31.56.883,Slot Machine Game,2023.1.3,Win32,163.9344262,,,,,,,,,,,,,,,,,,,,,,,,,,,830,,,,,,,,,,,,,,,,,,,,,9,9,,,549.888,13,up,0.0797,,1.5,0.3,"[3,1,2]",0.666901915,stimuli/card_100_transparent.png,100,13,0,13,0,1,,,,,,,,,,
,,,,5eb14f940be27c23a52be442,A,2024-07-12_18h31.56.883,Slot Machine Game,2023.1.3,Win32,163.9344262,,,,,,,,,,,,,,,,,,,,,,,,,,,930,,,,,,,,,,,,,,,,,,,,,9,9,,,552.2731,14,up,0.136,,1,0.3,"[3,1,2]",0.94672396,stimuli/card_100_transparent.png,100,14,0,14,0,1,,,,,,,,,,
,,,,5eb14f940be27c23a52be442,A,2024-07-12_18h31.56.883,Slot Machine Game,2023.1.3,Win32,163.9344262,,,,,,,,,,,,,,,,,,,,,,,,,,,,,,,,,,,554.2213,,,,,,,,,,,,,,,,,,,,,,,,,,,,,,,,,"[630,640,520,850,1030,650,850,940,930]",8,0,8,0,1,,,,
,,,,5eb14f940be27c23a52be442,A,2024-07-12_18h31.56.883,Slot Machine Game,2023.1.3,Win32,163.9344262,,,,,,,,,,,,,,,,,,,,,,,,,,,100,,,,,,,,,,,,,,,,,,,,,10,10,"[10,15]","[[3,1,2],[1,3,2]]",559.2275,0,left,0.0133,,0.5,0.3,"[3,1,2]",0.006229491,stimuli/card_100_transparent.png,100,0,0,0,0,1,,,,,,,,,,
,,,,5eb14f940be27c23a52be442,A,2024-07-12_18h31.56.883,Slot Machine Game,2023.1.3,Win32,163.9344262,,,,,,,,,,,,,,,,,,,,,,,,,,,100,,,,,,,,,,,,,,,,,,,,,10,10,,,560.5511,1,left,0.5763,,1.5,0.3,"[3,1,2]",0.630474481,stimuli/card_0_transparent.png,0,1,0,1,0,1,,,,,,,,,,
,,,,5eb14f940be27c23a52be442,A,2024-07-12_18h31.56.883,Slot Machine Game,2023.1.3,Win32,163.9344262,,,,,,,,,,,,,,,,,,,,,,,,,,,100,,,,,,,,,,,,,,,,,,,,,10,10,,,563.4278,2,left,0.3338,,1,0.3,"[3,1,2]",0.753523123,stimuli/card_0_transparent.png,0,2,0,2,0,1,,,,,,,,,,
,,,,5eb14f940be27c23a52be442,A,2024-07-12_18h31.56.883,Slot Machine Game,2023.1.3,Win32,163.9344262,,,,,,,,,,,,,,,,,,,,,,,,,,,200,,,,,,,,,,,,,,,,,,,,,10,10,,,565.5704,3,up,0.1633,,1,0.3,"[3,1,2]",0.256974357,stimuli/card_100_transparent.png,100,3,0,3,0,1,,,,,,,,,,
,,,,5eb14f940be27c23a52be442,A,2024-07-12_18h31.56.883,Slot Machine Game,2023.1.3,Win32,163.9344262,,,,,,,,,,,,,,,,,,,,,,,,,,,200,,,,,,,,,,,,,,,,,,,,,10,10,,,567.5365,4,up,0.0122,,1.5,0.3,"[3,1,2]",0.023899635,stimuli/card_0_transparent.png,0,4,0,4,0,1,,,,,,,,,,
,,,,5eb14f940be27c23a52be442,A,2024-07-12_18h31.56.883,Slot Machine Game,2023.1.3,Win32,163.9344262,,,,,,,,,,,,,,,,,,,,,,,,,,,210,,,,,,,,,,,,,,,,,,,,,10,10,,,569.8548,5,right,0.1223,,1,0.3,"[3,1,2]",0.395071382,stimuli/card_10_transparent.png,10,5,0,5,0,1,,,,,,,,,,
,,,,5eb14f940be27c23a52be442,A,2024-07-12_18h31.56.883,Slot Machine Game,2023.1.3,Win32,163.9344262,,,,,,,,,,,,,,,,,,,,,,,,,,,210,,,,,,,,,,,,,,,,,,,,,10,10,,,571.7908,6,right,0.1309,,1,0.3,"[3,1,2]",0.025140314,stimuli/card_0_transparent.png,0,6,0,6,0,1,,,,,,,,,,
,,,,5eb14f940be27c23a52be442,A,2024-07-12_18h31.56.883,Slot Machine Game,2023.1.3,Win32,163.9344262,,,,,,,,,,,,,,,,,,,,,,,,,,,310,,,,,,,,,,,,,,,,,,,,,10,10,,,573.7274,7,up,0.0106,,0.5,0.3,"[3,1,2]",0.927143205,stimuli/card_100_transparent.png,100,7,0,7,0,1,,,,,,,,,,
,,,,5eb14f940be27c23a52be442,A,2024-07-12_18h31.56.883,Slot Machine Game,2023.1.3,Win32,163.9344262,,,,,,,,,,,,,,,,,,,,,,,,,,,410,,,,,,,,,,,,,,,,,,,,,10,10,,,575.0438,8,up,0.0595,,1.5,0.3,"[3,1,2]",0.34559814,stimuli/card_100_transparent.png,100,8,0,8,0,1,,,,,,,,,,
,,,,5eb14f940be27c23a52be442,A,2024-07-12_18h31.56.883,Slot Machine Game,2023.1.3,Win32,163.9344262,,,,,,,,,,,,,,,,,,,,,,,,,,,510,,,,,,,,,,,,,,,,,,,,,10,10,,,577.4046,9,up,0.0488,,1.5,0.3,"[3,1,2]",0.803688453,stimuli/card_100_transparent.png,100,9,0,9,0,1,,,,,,,,,,
,,,,5eb14f940be27c23a52be442,A,2024-07-12_18h31.56.883,Slot Machine Game,2023.1.3,Win32,163.9344262,,,,,,,,,,,,,,,,,,,,,,,,,,,510,,,,,,,,,,,,,,,,,,,,,10,10,,,579.76,10,up,0.002,,0.5,0.3,"[1,3,2]",0.276128251,stimuli/card_0_transparent.png,0,10,0,10,0,1,,,,,,,,,,
,,,,5eb14f940be27c23a52be442,A,2024-07-12_18h31.56.883,Slot Machine Game,2023.1.3,Win32,163.9344262,,,,,,,,,,,,,,,,,,,,,,,,,,,520,,,,,,,,,,,,,,,,,,,,,10,10,,,581.0702,11,up,0.001,,1.5,0.3,"[1,3,2]",0.182646821,stimuli/card_10_transparent.png,10,11,0,11,0,1,,,,,,,,,,
,,,,5eb14f940be27c23a52be442,A,2024-07-12_18h31.56.883,Slot Machine Game,2023.1.3,Win32,163.9344262,,,,,,,,,,,,,,,,,,,,,,,,,,,520,,,,,,,,,,,,,,,,,,,,,10,10,,,583.3768,12,left,0.0172,,0.5,0.3,"[1,3,2]",0.092582845,stimuli/card_0_transparent.png,0,12,0,12,0,1,,,,,,,,,,
,,,,5eb14f940be27c23a52be442,A,2024-07-12_18h31.56.883,Slot Machine Game,2023.1.3,Win32,163.9344262,,,,,,,,,,,,,,,,,,,,,,,,,,,530,,,,,,,,,,,,,,,,,,,,,10,10,,,584.6993,13,right,0.0366,,1.5,0.3,"[1,3,2]",0.668100055,stimuli/card_10_transparent.png,10,13,0,13,0,1,,,,,,,,,,
,,,,5eb14f940be27c23a52be442,A,2024-07-12_18h31.56.883,Slot Machine Game,2023.1.3,Win32,163.9344262,,,,,,,,,,,,,,,,,,,,,,,,,,,540,,,,,,,,,,,,,,,,,,,,,10,10,,,587.0422,14,right,0.036,,0.5,0.3,"[1,3,2]",0.350185483,stimuli/card_10_transparent.png,10,14,0,14,0,1,,,,,,,,,,
,,,,5eb14f940be27c23a52be442,A,2024-07-12_18h31.56.883,Slot Machine Game,2023.1.3,Win32,163.9344262,,,,,,,,,,,,,,,,,,,,,,,,,,,,,,,,,,,588.3832,,,,,,,,,,,,,,,,,,,,,,,,,,,,,,,,,"[630,640,520,850,1030,650,850,940,930,540]",9,0,9,0,1,,,,
,,,,5eb14f940be27c23a52be442,A,2024-07-12_18h31.56.883,Slot Machine Game,2023.1.3,Win32,163.9344262,,,,,,,,,,,,,,,,,,,,,,,,,,,,,,,,,,,,,,,,,,,,,,,,,,,,,,,,,,,,,,,,,,,,,,,,,,9,"[630,640,520,850,1030,650,850,940,930,540]",5.2,2024-07-12_18h41.54.335
