key_resp_welcome_started,key_resp_welcome_keys,key_resp_welcome_rt,key_resp_welcome_duration,prolific_id,path_id,date,expName,psychopyVersion,OS,frameRate,key_resp_instruction1_started,key_resp_instruction1_keys,key_resp_instruction1_rt,key_resp_instruction1_duration,key_resp_instruction2_started,key_resp_instruction2_keys,key_resp_instruction2_rt,key_resp_instruction2_duration,key_resp_instruction3_started,key_resp_instruction3_keys,key_resp_instruction3_rt,key_resp_instruction3_duration,key_resp_instruction4_started,key_resp_instruction4_keys,key_resp_instruction4_rt,key_resp_instruction4_duration,practiceCondition,practice_reward_seqs,practice_trial_started,practice_trial_num,practice_resp_rt,practice_resp_duration,practice_resp_keys,prac_presentationInterval,"practice_reward_seq: 2,1,3",reward_img,cumulative_reward,trial_reward,practice_trials.thisRepN,practice_trials.thisTrialN,practice_trials.thisN,practice_trials.thisIndex,practice_trials.ran,"practice_reward_seq: 2,3,1",block_break_started,"practice_reward_seq: 1,3,2","practice_reward_seq: 3,1,2",practice_end_time,practice_end_keys,practice_end_rt,practice_end_duration,main_instruction_text_started,block_condition,block_order_indices,main_instruction_keys,main_instruction_rt,main_instruction_duration,block_number,block_assignment,current_condition,main_reward_seqs,main_trial_started,main_trial_num,main_trial_keys,main_trial_rt,main_trial_duration,main_presentationInterval,reward_presentation_time,main_reward_seq,reward_rand_val,main_reward_img,current_reward,main_trials.thisRepN,main_trials.thisTrialN,main_trials.thisN,main_trials.thisIndex,main_trials.ran,block_reward,block.thisRepN,block.thisTrialN,block.thisN,block.thisIndex,block.ran,block_reward.length,block_reward_all,reward_amount,date_end_task
0.0056,return,2.5469,,5ecd65ba7e5f5c0b391090a6,B,2024-06-28_14h40.40.049,Slot Machine Game,2023.1.3,Win32,59.88023952,,,,,,,,,,,,,,,,,,,,,,,,,,,,,,,,,,,,,,,,,,,,,,,,,,,,,,,,,,,,,,,,,,,,,,,,,,,,,
,,,,5ecd65ba7e5f5c0b391090a6,B,2024-06-28_14h40.40.049,Slot Machine Game,2023.1.3,Win32,59.88023952,2.5818,return,5.9534,,,,,,,,,,,,,,,,,,,,,,,,,,,,,,,,,,,,,,,,,,,,,,,,,,,,,,,,,,,,,,,,,,,,,,,,,,
,,,,5ecd65ba7e5f5c0b391090a6,B,2024-06-28_14h40.40.049,Slot Machine Game,2023.1.3,Win32,59.88023952,,,,,8.5658,return,17.3077,,,,,,,,,,,,,,,,,,,,,,,,,,,,,,,,,,,,,,,,,,,,,,,,,,,,,,,,,,,,,,,,,,,,,,
,,,,5ecd65ba7e5f5c0b391090a6,B,2024-06-28_14h40.40.049,Slot Machine Game,2023.1.3,Win32,59.88023952,,,,,,,,,25.9322,return,5.8165,,,,,,,,,,,,,,,,,,,,,,,,,,,,,,,,,,,,,,,,,,,,,,,,,,,,,,,,,,,,,,,,,,
,,,,5ecd65ba7e5f5c0b391090a6,B,2024-06-28_14h40.40.049,Slot Machine Game,2023.1.3,Win32,59.88023952,,,,,,,,,,,,,,,,,,,,,,,,,,,,,,,,,,,,,,,,,,,,,,,,,,,,,,,,,,,,,,,,,,,,,,,,,,,,,
,,,,5ecd65ba7e5f5c0b391090a6,B,2024-06-28_14h40.40.049,Slot Machine Game,2023.1.3,Win32,59.88023952,,,,,,,,,,,,,173.5315,left,5.5313,,,,,,,,,,,,,,,,,,,,,,,,,,,,,,,,,,,,,,,,,,,,,,,,,,,,,,,,,,,,,,
,,,,5ecd65ba7e5f5c0b391090a6,B,2024-06-28_14h40.40.049,Slot Machine Game,2023.1.3,Win32,59.88023952,,,,,,,,,,,,,,,,,"[9,15]","[[2,1,3],[2,3,1]]",179.0943,0,1.412,,up,1,,stimuli/card_100_transparent.png,100,100,0,0,0,0,1,,,,,,,,,,,,,,,,,,,,,,,,,,,,,,,,,,,,,,,,,,,,
,,,,5ecd65ba7e5f5c0b391090a6,B,2024-06-28_14h40.40.049,Slot Machine Game,2023.1.3,Win32,59.88023952,,,,,,,,,,,,,,,,,,,182.3398,1,0.6839,,up,1,,stimuli/card_100_transparent.png,200,100,1,0,1,0,1,,,,,,,,,,,,,,,,,,,,,,,,,,,,,,,,,,,,,,,,,,,,
,,,,5ecd65ba7e5f5c0b391090a6,B,2024-06-28_14h40.40.049,Slot Machine Game,2023.1.3,Win32,59.88023952,,,,,,,,,,,,,,,,,,,184.8319,2,0.2439,,up,1,,stimuli/card_100_transparent.png,300,100,2,0,2,0,1,,,,,,,,,,,,,,,,,,,,,,,,,,,,,,,,,,,,,,,,,,,,
,,,,5ecd65ba7e5f5c0b391090a6,B,2024-06-28_14h40.40.049,Slot Machine Game,2023.1.3,Win32,59.88023952,,,,,,,,,,,,,,,,,,,186.8987,3,2.3381,,up,1,,stimuli/card_10_transparent.png,310,10,3,0,3,0,1,,,,,,,,,,,,,,,,,,,,,,,,,,,,,,,,,,,,,,,,,,,,
,,,,5ecd65ba7e5f5c0b391090a6,B,2024-06-28_14h40.40.049,Slot Machine Game,2023.1.3,Win32,59.88023952,,,,,,,,,,,,,,,,,,,191.0653,4,0.8438,,left,1.5,,stimuli/card_0_transparent.png,310,0,4,0,4,0,1,,,,,,,,,,,,,,,,,,,,,,,,,,,,,,,,,,,,,,,,,,,,
,,,,5ecd65ba7e5f5c0b391090a6,B,2024-06-28_14h40.40.049,Slot Machine Game,2023.1.3,Win32,59.88023952,,,,,,,,,,,,,,,,,,,194.2485,5,0.1449,,right,1,,stimuli/card_0_transparent.png,310,0,5,0,5,0,1,,,,,,,,,,,,,,,,,,,,,,,,,,,,,,,,,,,,,,,,,,,,
,,,,5ecd65ba7e5f5c0b391090a6,B,2024-06-28_14h40.40.049,Slot Machine Game,2023.1.3,Win32,59.88023952,,,,,,,,,,,,,,,,,,,196.2153,6,0.3337,,right,1.5,,stimuli/card_100_transparent.png,410,100,6,0,6,0,1,,,,,,,,,,,,,,,,,,,,,,,,,,,,,,,,,,,,,,,,,,,,
,,,,5ecd65ba7e5f5c0b391090a6,B,2024-06-28_14h40.40.049,Slot Machine Game,2023.1.3,Win32,59.88023952,,,,,,,,,,,,,,,,,,,198.8545,7,3.6109,,right,1.5,,stimuli/card_0_transparent.png,410,0,7,0,7,0,1,,,,,,,,,,,,,,,,,,,,,,,,,,,,,,,,,,,,,,,,,,,,
,,,,5ecd65ba7e5f5c0b391090a6,B,2024-06-28_14h40.40.049,Slot Machine Game,2023.1.3,Win32,59.88023952,,,,,,,,,,,,,,,,,,,204.788,8,0.3408,,right,1.5,,stimuli/card_0_transparent.png,410,0,8,0,8,0,1,,,,,,,,,,,,,,,,,,,,,,,,,,,,,,,,,,,,,,,,,,,,
,,,,5ecd65ba7e5f5c0b391090a6,B,2024-06-28_14h40.40.049,Slot Machine Game,2023.1.3,Win32,59.88023952,,,,,,,,,,,,,,,,,,,207.4541,9,0.3504,,right,0.5,,stimuli/card_10_transparent.png,420,10,9,0,9,0,1,,,,,,,,,,,,,,,,,,,,,,,,,,,,,,,,,,,,,,,,,,,,
,,,,5ecd65ba7e5f5c0b391090a6,B,2024-06-28_14h40.40.049,Slot Machine Game,2023.1.3,Win32,59.88023952,,,,,,,,,,,,,,,,,,,209.132,10,0.0851,,up,0.5,,stimuli/card_0_transparent.png,420,0,10,0,10,0,1,,,,,,,,,,,,,,,,,,,,,,,,,,,,,,,,,,,,,,,,,,,,
,,,,5ecd65ba7e5f5c0b391090a6,B,2024-06-28_14h40.40.049,Slot Machine Game,2023.1.3,Win32,59.88023952,,,,,,,,,,,,,,,,,,,210.5319,11,0.0912,,up,1.5,,stimuli/card_0_transparent.png,420,0,11,0,11,0,1,,,,,,,,,,,,,,,,,,,,,,,,,,,,,,,,,,,,,,,,,,,,
,,,,5ecd65ba7e5f5c0b391090a6,B,2024-06-28_14h40.40.049,Slot Machine Game,2023.1.3,Win32,59.88023952,,,,,,,,,,,,,,,,,,,212.9485,12,0.0561,,left,1,,stimuli/card_10_transparent.png,430,10,12,0,12,0,1,,,,,,,,,,,,,,,,,,,,,,,,,,,,,,,,,,,,,,,,,,,,
,,,,5ecd65ba7e5f5c0b391090a6,B,2024-06-28_14h40.40.049,Slot Machine Game,2023.1.3,Win32,59.88023952,,,,,,,,,,,,,,,,,,,214.8488,13,2.7461,,left,1.5,,stimuli/card_10_transparent.png,440,10,13,0,13,0,1,,,,,,,,,,,,,,,,,,,,,,,,,,,,,,,,,,,,,,,,,,,,
,,,,5ecd65ba7e5f5c0b391090a6,B,2024-06-28_14h40.40.049,Slot Machine Game,2023.1.3,Win32,59.88023952,,,,,,,,,,,,,,,,,,,219.9151,14,0.265,,left,1.5,,stimuli/card_100_transparent.png,540,100,14,0,14,0,1,,,,,,,,,,,,,,,,,,,,,,,,,,,,,,,,,,,,,,,,,,,,
,,,,5ecd65ba7e5f5c0b391090a6,B,2024-06-28_14h40.40.049,Slot Machine Game,2023.1.3,Win32,59.88023952,,,,,,,,,,,,,,,,,"[6,15]","[[1,3,2],[3,1,2]]",227.5257,0,0.3181,,up,1.5,,stimuli/card_0_transparent.png,0,0,0,0,0,0,1,,222.5221,,,,,,,,,,,,,,,,,,,,,,,,,,,,,,,,,,,,,,,,,,
,,,,5ecd65ba7e5f5c0b391090a6,B,2024-06-28_14h40.40.049,Slot Machine Game,2023.1.3,Win32,59.88023952,,,,,,,,,,,,,,,,,,,230.182,1,0.7016,,up,1.5,,stimuli/card_10_transparent.png,10,10,1,0,1,0,1,,,,,,,,,,,,,,,,,,,,,,,,,,,,,,,,,,,,,,,,,,,,
,,,,5ecd65ba7e5f5c0b391090a6,B,2024-06-28_14h40.40.049,Slot Machine Game,2023.1.3,Win32,59.88023952,,,,,,,,,,,,,,,,,,,233.215,2,1.6575,,right,0.5,,stimuli/card_10_transparent.png,20,10,2,0,2,0,1,,,,,,,,,,,,,,,,,,,,,,,,,,,,,,,,,,,,,,,,,,,,
,,,,5ecd65ba7e5f5c0b391090a6,B,2024-06-28_14h40.40.049,Slot Machine Game,2023.1.3,Win32,59.88023952,,,,,,,,,,,,,,,,,,,236.2061,3,3.5391,,left,1,,stimuli/card_100_transparent.png,120,100,3,0,3,0,1,,,,,,,,,,,,,,,,,,,,,,,,,,,,,,,,,,,,,,,,,,,,
,,,,5ecd65ba7e5f5c0b391090a6,B,2024-06-28_14h40.40.049,Slot Machine Game,2023.1.3,Win32,59.88023952,,,,,,,,,,,,,,,,,,,241.5649,4,0.2044,,left,1,,stimuli/card_100_transparent.png,220,100,4,0,4,0,1,,,,,,,,,,,,,,,,,,,,,,,,,,,,,,,,,,,,,,,,,,,,
,,,,5ecd65ba7e5f5c0b391090a6,B,2024-06-28_14h40.40.049,Slot Machine Game,2023.1.3,Win32,59.88023952,,,,,,,,,,,,,,,,,,,243.5819,5,0.1515,,left,1.5,,stimuli/card_10_transparent.png,230,10,5,0,5,0,1,,,,,,,,,,,,,,,,,,,,,,,,,,,,,,,,,,,,,,,,,,,,
,,,,5ecd65ba7e5f5c0b391090a6,B,2024-06-28_14h40.40.049,Slot Machine Game,2023.1.3,Win32,59.88023952,,,,,,,,,,,,,,,,,,,246.0487,6,0.3202,,left,1,,stimuli/card_0_transparent.png,230,0,6,0,6,0,1,,,,,,,,,,,,,,,,,,,,,,,,,,,,,,,,,,,,,,,,,,,,
,,,,5ecd65ba7e5f5c0b391090a6,B,2024-06-28_14h40.40.049,Slot Machine Game,2023.1.3,Win32,59.88023952,,,,,,,,,,,,,,,,,,,248.2151,7,0.167,,left,0.5,,stimuli/card_0_transparent.png,230,0,7,0,7,0,1,,,,,,,,,,,,,,,,,,,,,,,,,,,,,,,,,,,,,,,,,,,,
,,,,5ecd65ba7e5f5c0b391090a6,B,2024-06-28_14h40.40.049,Slot Machine Game,2023.1.3,Win32,59.88023952,,,,,,,,,,,,,,,,,,,249.732,8,0.0254,,up,1,,stimuli/card_100_transparent.png,330,100,8,0,8,0,1,,,,,,,,,,,,,,,,,,,,,,,,,,,,,,,,,,,,,,,,,,,,
,,,,5ecd65ba7e5f5c0b391090a6,B,2024-06-28_14h40.40.049,Slot Machine Game,2023.1.3,Win32,59.88023952,,,,,,,,,,,,,,,,,,,251.5818,9,0.7736,,up,1.5,,stimuli/card_100_transparent.png,430,100,9,0,9,0,1,,,,,,,,,,,,,,,,,,,,,,,,,,,,,,,,,,,,,,,,,,,,
,,,,5ecd65ba7e5f5c0b391090a6,B,2024-06-28_14h40.40.049,Slot Machine Game,2023.1.3,Win32,59.88023952,,,,,,,,,,,,,,,,,,,254.6985,10,0.0922,,up,0.5,,stimuli/card_100_transparent.png,530,100,10,0,10,0,1,,,,,,,,,,,,,,,,,,,,,,,,,,,,,,,,,,,,,,,,,,,,
,,,,5ecd65ba7e5f5c0b391090a6,B,2024-06-28_14h40.40.049,Slot Machine Game,2023.1.3,Win32,59.88023952,,,,,,,,,,,,,,,,,,,256.1152,11,1.4462,,up,1.5,,stimuli/card_100_transparent.png,630,100,11,0,11,0,1,,,,,,,,,,,,,,,,,,,,,,,,,,,,,,,,,,,,,,,,,,,,
,,,,5ecd65ba7e5f5c0b391090a6,B,2024-06-28_14h40.40.049,Slot Machine Game,2023.1.3,Win32,59.88023952,,,,,,,,,,,,,,,,,,,259.8821,12,1.8006,,up,0.5,,stimuli/card_100_transparent.png,730,100,12,0,12,0,1,,,,,,,,,,,,,,,,,,,,,,,,,,,,,,,,,,,,,,,,,,,,
,,,,5ecd65ba7e5f5c0b391090a6,B,2024-06-28_14h40.40.049,Slot Machine Game,2023.1.3,Win32,59.88023952,,,,,,,,,,,,,,,,,,,262.9986,13,1.0501,,up,1.5,,stimuli/card_10_transparent.png,740,10,13,0,13,0,1,,,,,,,,,,,,,,,,,,,,,,,,,,,,,,,,,,,,,,,,,,,,
,,,,5ecd65ba7e5f5c0b391090a6,B,2024-06-28_14h40.40.049,Slot Machine Game,2023.1.3,Win32,59.88023952,,,,,,,,,,,,,,,,,,,266.3819,14,0.5218,,right,0.5,,stimuli/card_0_transparent.png,740,0,14,0,14,0,1,,,,,,,,,,,,,,,,,,,,,,,,,,,,,,,,,,,,,,,,,,,,
,,,,5ecd65ba7e5f5c0b391090a6,B,2024-06-28_14h40.40.049,Slot Machine Game,2023.1.3,Win32,59.88023952,,,,,,,,,,,,,,,,,,,,,,,,,,,,,,,,,,,268.2392,,,273.2325,space,3.5333,,,,,,,,,,,,,,,,,,,,,,,,,,,,,,,,,,,,,
,,,,5ecd65ba7e5f5c0b391090a6,B,2024-06-28_14h40.40.049,Slot Machine Game,2023.1.3,Win32,59.88023952,,,,,,,,,,,,,,,,,,,,,,,,,,,,,,,,,,,,,,,,,,276.7909,3,"[0,4,6,3,5,7,8,1,9,2]",space,3.3226,,,,,,,,,,,,,,,,,,,,,,,,,,,,,,,
,,,,5ecd65ba7e5f5c0b391090a6,B,2024-06-28_14h40.40.049,Slot Machine Game,2023.1.3,Win32,59.88023952,,,,,,,,,,,,,,,,,,,,,,,,,,,100,,,,,,,,,,,,,,,,,,,,,1,1,"[12,15]","[[2,1,3],[2,3,1]]",280.1431,0,up,0.5338,,1.5,0.3,"[2,1,3]",0.887956862,stimuli/card_100_transparent.png,100,0,0,0,0,1,,,,,,,,,,
,,,,5ecd65ba7e5f5c0b391090a6,B,2024-06-28_14h40.40.049,Slot Machine Game,2023.1.3,Win32,59.88023952,,,,,,,,,,,,,,,,,,,,,,,,,,,200,,,,,,,,,,,,,,,,,,,,,1,1,,,283.0155,1,up,0.1565,,1,0.3,"[2,1,3]",0.720315792,stimuli/card_100_transparent.png,100,1,0,1,0,1,,,,,,,,,,
,,,,5ecd65ba7e5f5c0b391090a6,B,2024-06-28_14h40.40.049,Slot Machine Game,2023.1.3,Win32,59.88023952,,,,,,,,,,,,,,,,,,,,,,,,,,,300,,,,,,,,,,,,,,,,,,,,,1,1,,,284.999,2,up,3.4445,,1.5,0.3,"[2,1,3]",0.31616226,stimuli/card_100_transparent.png,100,2,0,2,0,1,,,,,,,,,,
,,,,5ecd65ba7e5f5c0b391090a6,B,2024-06-28_14h40.40.049,Slot Machine Game,2023.1.3,Win32,59.88023952,,,,,,,,,,,,,,,,,,,,,,,,,,,400,,,,,,,,,,,,,,,,,,,,,1,1,,,290.7654,3,up,0.2578,,1,0.3,"[2,1,3]",0.627207571,stimuli/card_100_transparent.png,100,3,0,3,0,1,,,,,,,,,,
,,,,5ecd65ba7e5f5c0b391090a6,B,2024-06-28_14h40.40.049,Slot Machine Game,2023.1.3,Win32,59.88023952,,,,,,,,,,,,,,,,,,,,,,,,,,,500,,,,,,,,,,,,,,,,,,,,,1,1,,,292.8396,4,up,0.2696,,1,0.3,"[2,1,3]",0.920229461,stimuli/card_100_transparent.png,100,4,0,4,0,1,,,,,,,,,,
,,,,5ecd65ba7e5f5c0b391090a6,B,2024-06-28_14h40.40.049,Slot Machine Game,2023.1.3,Win32,59.88023952,,,,,,,,,,,,,,,,,,,,,,,,,,,600,,,,,,,,,,,,,,,,,,,,,1,1,,,294.9322,5,up,0.084,,0.5,0.3,"[2,1,3]",0.453969224,stimuli/card_100_transparent.png,100,5,0,5,0,1,,,,,,,,,,
,,,,5ecd65ba7e5f5c0b391090a6,B,2024-06-28_14h40.40.049,Slot Machine Game,2023.1.3,Win32,59.88023952,,,,,,,,,,,,,,,,,,,,,,,,,,,700,,,,,,,,,,,,,,,,,,,,,1,1,,,296.3486,6,up,0.6005,,1.5,0.3,"[2,1,3]",0.745399478,stimuli/card_100_transparent.png,100,6,0,6,0,1,,,,,,,,,,
,,,,5ecd65ba7e5f5c0b391090a6,B,2024-06-28_14h40.40.049,Slot Machine Game,2023.1.3,Win32,59.88023952,,,,,,,,,,,,,,,,,,,,,,,,,,,710,,,,,,,,,,,,,,,,,,,,,1,1,,,299.2892,7,up,0.0682,,1,0.3,"[2,1,3]",0.103963998,stimuli/card_10_transparent.png,10,7,0,7,0,1,,,,,,,,,,
,,,,5ecd65ba7e5f5c0b391090a6,B,2024-06-28_14h40.40.049,Slot Machine Game,2023.1.3,Win32,59.88023952,,,,,,,,,,,,,,,,,,,,,,,,,,,720,,,,,,,,,,,,,,,,,,,,,1,1,,,301.1893,8,left,0.1677,,1.5,0.3,"[2,1,3]",0.936410203,stimuli/card_10_transparent.png,10,8,0,8,0,1,,,,,,,,,,
,,,,5ecd65ba7e5f5c0b391090a6,B,2024-06-28_14h40.40.049,Slot Machine Game,2023.1.3,Win32,59.88023952,,,,,,,,,,,,,,,,,,,,,,,,,,,730,,,,,,,,,,,,,,,,,,,,,1,1,,,303.6658,9,left,0.1003,,0.5,0.3,"[2,1,3]",0.391553233,stimuli/card_10_transparent.png,10,9,0,9,0,1,,,,,,,,,,
,,,,5ecd65ba7e5f5c0b391090a6,B,2024-06-28_14h40.40.049,Slot Machine Game,2023.1.3,Win32,59.88023952,,,,,,,,,,,,,,,,,,,,,,,,,,,730,,,,,,,,,,,,,,,,,,,,,1,1,,,305.0818,10,left,2.0507,,0.5,0.3,"[2,1,3]",0.037099747,stimuli/card_0_transparent.png,0,10,0,10,0,1,,,,,,,,,,
,,,,5ecd65ba7e5f5c0b391090a6,B,2024-06-28_14h40.40.049,Slot Machine Game,2023.1.3,Win32,59.88023952,,,,,,,,,,,,,,,,,,,,,,,,,,,730,,,,,,,,,,,,,,,,,,,,,1,1,,,308.4321,11,right,2.1336,,1,0.3,"[2,1,3]",0.372633453,stimuli/card_0_transparent.png,0,11,0,11,0,1,,,,,,,,,,
,,,,5ecd65ba7e5f5c0b391090a6,B,2024-06-28_14h40.40.049,Slot Machine Game,2023.1.3,Win32,59.88023952,,,,,,,,,,,,,,,,,,,,,,,,,,,730,,,,,,,,,,,,,,,,,,,,,1,1,,,312.4229,12,up,4.2831,,0.5,0.3,"[2,3,1]",0.204136654,stimuli/card_0_transparent.png,0,12,0,12,0,1,,,,,,,,,,
,,,,5ecd65ba7e5f5c0b391090a6,B,2024-06-28_14h40.40.049,Slot Machine Game,2023.1.3,Win32,59.88023952,,,,,,,,,,,,,,,,,,,,,,,,,,,730,,,,,,,,,,,,,,,,,,,,,1,1,,,318.0319,13,up,0.7498,,1.5,0.3,"[2,3,1]",0.660363451,stimuli/card_0_transparent.png,0,13,0,13,0,1,,,,,,,,,,
,,,,5ecd65ba7e5f5c0b391090a6,B,2024-06-28_14h40.40.049,Slot Machine Game,2023.1.3,Win32,59.88023952,,,,,,,,,,,,,,,,,,,,,,,,,,,730,,,,,,,,,,,,,,,,,,,,,1,1,,,321.1155,14,up,0.5005,,1.5,0.3,"[2,3,1]",0.610351146,stimuli/card_0_transparent.png,0,14,0,14,0,1,,,,,,,,,,
,,,,5ecd65ba7e5f5c0b391090a6,B,2024-06-28_14h40.40.049,Slot Machine Game,2023.1.3,Win32,59.88023952,,,,,,,,,,,,,,,,,,,,,,,,,,,,,,,,,,,323.9489,,,,,,,,,,,,,,,,,,,,,,,,,,,,,,,,,[730],0,0,0,0,1,,,,
,,,,5ecd65ba7e5f5c0b391090a6,B,2024-06-28_14h40.40.049,Slot Machine Game,2023.1.3,Win32,59.88023952,,,,,,,,,,,,,,,,,,,,,,,,,,,10,,,,,,,,,,,,,,,,,,,,,2,5,"[5,15]","[[1,2,3],[3,1,2]]",328.9569,0,up,0.5059,,1,0.3,"[1,2,3]",0.855700751,stimuli/card_10_transparent.png,10,0,0,0,0,1,,,,,,,,,,
,,,,5ecd65ba7e5f5c0b391090a6,B,2024-06-28_14h40.40.049,Slot Machine Game,2023.1.3,Win32,59.88023952,,,,,,,,,,,,,,,,,,,,,,,,,,,110,,,,,,,,,,,,,,,,,,,,,2,5,,,331.282,1,up,0.4134,,0.5,0.3,"[1,2,3]",0.15400539,stimuli/card_100_transparent.png,100,1,0,1,0,1,,,,,,,,,,
,,,,5ecd65ba7e5f5c0b391090a6,B,2024-06-28_14h40.40.049,Slot Machine Game,2023.1.3,Win32,59.88023952,,,,,,,,,,,,,,,,,,,,,,,,,,,120,,,,,,,,,,,,,,,,,,,,,2,5,,,333.0154,2,up,0.2495,,1,0.3,"[1,2,3]",0.87517646,stimuli/card_10_transparent.png,10,2,0,2,0,1,,,,,,,,,,
,,,,5ecd65ba7e5f5c0b391090a6,B,2024-06-28_14h40.40.049,Slot Machine Game,2023.1.3,Win32,59.88023952,,,,,,,,,,,,,,,,,,,,,,,,,,,130,,,,,,,,,,,,,,,,,,,,,2,5,,,335.0819,3,up,0.3062,,1,0.3,"[1,2,3]",0.408262374,stimuli/card_10_transparent.png,10,3,0,3,0,1,,,,,,,,,,
,,,,5ecd65ba7e5f5c0b391090a6,B,2024-06-28_14h40.40.049,Slot Machine Game,2023.1.3,Win32,59.88023952,,,,,,,,,,,,,,,,,,,,,,,,,,,130,,,,,,,,,,,,,,,,,,,,,2,5,,,337.1989,4,right,0.9831,,1,0.3,"[1,2,3]",0.305091655,stimuli/card_0_transparent.png,0,4,0,4,0,1,,,,,,,,,,
,,,,5ecd65ba7e5f5c0b391090a6,B,2024-06-28_14h40.40.049,Slot Machine Game,2023.1.3,Win32,59.88023952,,,,,,,,,,,,,,,,,,,,,,,,,,,130,,,,,,,,,,,,,,,,,,,,,2,5,,,339.9988,5,left,0.0513,,1.5,0.3,"[3,1,2]",0.843814313,stimuli/card_0_transparent.png,0,5,0,5,0,1,,,,,,,,,,
,,,,5ecd65ba7e5f5c0b391090a6,B,2024-06-28_14h40.40.049,Slot Machine Game,2023.1.3,Win32,59.88023952,,,,,,,,,,,,,,,,,,,,,,,,,,,130,,,,,,,,,,,,,,,,,,,,,2,5,,,342.382,6,left,0.1672,,1,0.3,"[3,1,2]",0.260520471,stimuli/card_0_transparent.png,0,6,0,6,0,1,,,,,,,,,,
,,,,5ecd65ba7e5f5c0b391090a6,B,2024-06-28_14h40.40.049,Slot Machine Game,2023.1.3,Win32,59.88023952,,,,,,,,,,,,,,,,,,,,,,,,,,,140,,,,,,,,,,,,,,,,,,,,,2,5,,,344.3653,7,right,3.372,,1,0.3,"[3,1,2]",0.530053329,stimuli/card_10_transparent.png,10,7,0,7,0,1,,,,,,,,,,
,,,,5ecd65ba7e5f5c0b391090a6,B,2024-06-28_14h40.40.049,Slot Machine Game,2023.1.3,Win32,59.88023952,,,,,,,,,,,,,,,,,,,,,,,,,,,240,,,,,,,,,,,,,,,,,,,,,2,5,,,349.5653,8,up,0.636,,1,0.3,"[3,1,2]",0.442045278,stimuli/card_100_transparent.png,100,8,0,8,0,1,,,,,,,,,,
,,,,5ecd65ba7e5f5c0b391090a6,B,2024-06-28_14h40.40.049,Slot Machine Game,2023.1.3,Win32,59.88023952,,,,,,,,,,,,,,,,,,,,,,,,,,,240,,,,,,,,,,,,,,,,,,,,,2,5,,,352.0322,9,up,0.2381,,1.5,0.3,"[3,1,2]",0.070976357,stimuli/card_0_transparent.png,0,9,0,9,0,1,,,,,,,,,,
,,,,5ecd65ba7e5f5c0b391090a6,B,2024-06-28_14h40.40.049,Slot Machine Game,2023.1.3,Win32,59.88023952,,,,,,,,,,,,,,,,,,,,,,,,,,,250,,,,,,,,,,,,,,,,,,,,,2,5,,,354.5881,10,right,0.7858,,0.5,0.3,"[3,1,2]",0.985244743,stimuli/card_10_transparent.png,10,10,0,10,0,1,,,,,,,,,,
,,,,5ecd65ba7e5f5c0b391090a6,B,2024-06-28_14h40.40.049,Slot Machine Game,2023.1.3,Win32,59.88023952,,,,,,,,,,,,,,,,,,,,,,,,,,,260,,,,,,,,,,,,,,,,,,,,,2,5,,,356.6988,11,right,0.1004,,0.5,0.3,"[3,1,2]",0.495008798,stimuli/card_10_transparent.png,10,11,0,11,0,1,,,,,,,,,,
,,,,5ecd65ba7e5f5c0b391090a6,B,2024-06-28_14h40.40.049,Slot Machine Game,2023.1.3,Win32,59.88023952,,,,,,,,,,,,,,,,,,,,,,,,,,,270,,,,,,,,,,,,,,,,,,,,,2,5,,,358.1319,12,right,4.2669,,0.5,0.3,"[3,1,2]",0.609877694,stimuli/card_10_transparent.png,10,12,0,12,0,1,,,,,,,,,,
,,,,5ecd65ba7e5f5c0b391090a6,B,2024-06-28_14h40.40.049,Slot Machine Game,2023.1.3,Win32,59.88023952,,,,,,,,,,,,,,,,,,,,,,,,,,,280,,,,,,,,,,,,,,,,,,,,,2,5,,,363.7321,13,right,0.2958,,1.5,0.3,"[3,1,2]",0.970644086,stimuli/card_10_transparent.png,10,13,0,13,0,1,,,,,,,,,,
,,,,5ecd65ba7e5f5c0b391090a6,B,2024-06-28_14h40.40.049,Slot Machine Game,2023.1.3,Win32,59.88023952,,,,,,,,,,,,,,,,,,,,,,,,,,,290,,,,,,,,,,,,,,,,,,,,,2,5,,,366.3652,14,right,0.2543,,0.5,0.3,"[3,1,2]",0.658562827,stimuli/card_10_transparent.png,10,14,0,14,0,1,,,,,,,,,,
,,,,5ecd65ba7e5f5c0b391090a6,B,2024-06-28_14h40.40.049,Slot Machine Game,2023.1.3,Win32,59.88023952,,,,,,,,,,,,,,,,,,,,,,,,,,,,,,,,,,,367.9322,,,,,,,,,,,,,,,,,,,,,,,,,,,,,,,,,"[730,290]",1,0,1,0,1,,,,
,,,,5ecd65ba7e5f5c0b391090a6,B,2024-06-28_14h40.40.049,Slot Machine Game,2023.1.3,Win32,59.88023952,,,,,,,,,,,,,,,,,,,,,,,,,,,0,,,,,,,,,,,,,,,,,,,,,3,7,"[9,15]","[[1,3,2],[2,3,1]]",372.94,0,up,0.8738,,1,0.3,"[1,3,2]",0.847709873,stimuli/card_0_transparent.png,0,0,0,0,0,1,,,,,,,,,,
,,,,5ecd65ba7e5f5c0b391090a6,B,2024-06-28_14h40.40.049,Slot Machine Game,2023.1.3,Win32,59.88023952,,,,,,,,,,,,,,,,,,,,,,,,,,,100,,,,,,,,,,,,,,,,,,,,,3,7,,,375.6486,1,left,0.0004,,1.5,0.3,"[1,3,2]",0.387707408,stimuli/card_100_transparent.png,100,1,0,1,0,1,,,,,,,,,,
,,,,5ecd65ba7e5f5c0b391090a6,B,2024-06-28_14h40.40.049,Slot Machine Game,2023.1.3,Win32,59.88023952,,,,,,,,,,,,,,,,,,,,,,,,,,,200,,,,,,,,,,,,,,,,,,,,,3,7,,,377.9554,2,left,0.0832,,1.5,0.3,"[1,3,2]",0.627173803,stimuli/card_100_transparent.png,100,2,0,2,0,1,,,,,,,,,,
,,,,5ecd65ba7e5f5c0b391090a6,B,2024-06-28_14h40.40.049,Slot Machine Game,2023.1.3,Win32,59.88023952,,,,,,,,,,,,,,,,,,,,,,,,,,,300,,,,,,,,,,,,,,,,,,,,,3,7,,,380.3486,3,left,1.1235,,1,0.3,"[1,3,2]",0.45496602,stimuli/card_100_transparent.png,100,3,0,3,0,1,,,,,,,,,,
,,,,5ecd65ba7e5f5c0b391090a6,B,2024-06-28_14h40.40.049,Slot Machine Game,2023.1.3,Win32,59.88023952,,,,,,,,,,,,,,,,,,,,,,,,,,,400,,,,,,,,,,,,,,,,,,,,,3,7,,,383.2883,4,left,2.2336,,1.5,0.3,"[1,3,2]",0.74486697,stimuli/card_100_transparent.png,100,4,0,4,0,1,,,,,,,,,,
,,,,5ecd65ba7e5f5c0b391090a6,B,2024-06-28_14h40.40.049,Slot Machine Game,2023.1.3,Win32,59.88023952,,,,,,,,,,,,,,,,,,,,,,,,,,,500,,,,,,,,,,,,,,,,,,,,,3,7,,,387.8486,5,left,0.0837,,0.5,0.3,"[1,3,2]",0.503525286,stimuli/card_100_transparent.png,100,5,0,5,0,1,,,,,,,,,,
,,,,5ecd65ba7e5f5c0b391090a6,B,2024-06-28_14h40.40.049,Slot Machine Game,2023.1.3,Win32,59.88023952,,,,,,,,,,,,,,,,,,,,,,,,,,,600,,,,,,,,,,,,,,,,,,,,,3,7,,,389.2544,6,left,0.3,,1.5,0.3,"[1,3,2]",0.796471116,stimuli/card_100_transparent.png,100,6,0,6,0,1,,,,,,,,,,
,,,,5ecd65ba7e5f5c0b391090a6,B,2024-06-28_14h40.40.049,Slot Machine Game,2023.1.3,Win32,59.88023952,,,,,,,,,,,,,,,,,,,,,,,,,,,700,,,,,,,,,,,,,,,,,,,,,3,7,,,391.8989,7,left,0.0899,,0.5,0.3,"[1,3,2]",0.774886751,stimuli/card_100_transparent.png,100,7,0,7,0,1,,,,,,,,,,
,,,,5ecd65ba7e5f5c0b391090a6,B,2024-06-28_14h40.40.049,Slot Machine Game,2023.1.3,Win32,59.88023952,,,,,,,,,,,,,,,,,,,,,,,,,,,800,,,,,,,,,,,,,,,,,,,,,3,7,,,393.2986,8,left,0.2333,,0.5,0.3,"[1,3,2]",0.829837004,stimuli/card_100_transparent.png,100,8,0,8,0,1,,,,,,,,,,
,,,,5ecd65ba7e5f5c0b391090a6,B,2024-06-28_14h40.40.049,Slot Machine Game,2023.1.3,Win32,59.88023952,,,,,,,,,,,,,,,,,,,,,,,,,,,800,,,,,,,,,,,,,,,,,,,,,3,7,,,394.8651,9,left,0.3854,,1,0.3,"[2,3,1]",0.068860731,stimuli/card_0_transparent.png,0,9,0,9,0,1,,,,,,,,,,
,,,,5ecd65ba7e5f5c0b391090a6,B,2024-06-28_14h40.40.049,Slot Machine Game,2023.1.3,Win32,59.88023952,,,,,,,,,,,,,,,,,,,,,,,,,,,900,,,,,,,,,,,,,,,,,,,,,3,7,,,397.0558,10,right,0.2167,,0.5,0.3,"[2,3,1]",0.452674322,stimuli/card_100_transparent.png,100,10,0,10,0,1,,,,,,,,,,
,,,,5ecd65ba7e5f5c0b391090a6,B,2024-06-28_14h40.40.049,Slot Machine Game,2023.1.3,Win32,59.88023952,,,,,,,,,,,,,,,,,,,,,,,,,,,910,,,,,,,,,,,,,,,,,,,,,3,7,,,398.5821,11,right,0.1664,,1,0.3,"[2,3,1]",0.169878456,stimuli/card_10_transparent.png,10,11,0,11,0,1,,,,,,,,,,
,,,,5ecd65ba7e5f5c0b391090a6,B,2024-06-28_14h40.40.049,Slot Machine Game,2023.1.3,Win32,59.88023952,,,,,,,,,,,,,,,,,,,,,,,,,,,920,,,,,,,,,,,,,,,,,,,,,3,7,,,400.5988,12,right,0.4002,,0.5,0.3,"[2,3,1]",0.114392339,stimuli/card_10_transparent.png,10,12,0,12,0,1,,,,,,,,,,
,,,,5ecd65ba7e5f5c0b391090a6,B,2024-06-28_14h40.40.049,Slot Machine Game,2023.1.3,Win32,59.88023952,,,,,,,,,,,,,,,,,,,,,,,,,,,930,,,,,,,,,,,,,,,,,,,,,3,7,,,402.3318,13,right,0.2168,,0.5,0.3,"[2,3,1]",0.162245039,stimuli/card_10_transparent.png,10,13,0,13,0,1,,,,,,,,,,
,,,,5ecd65ba7e5f5c0b391090a6,B,2024-06-28_14h40.40.049,Slot Machine Game,2023.1.3,Win32,59.88023952,,,,,,,,,,,,,,,,,,,,,,,,,,,1030,,,,,,,,,,,,,,,,,,,,,3,7,,,403.8652,14,right,0.0498,,0.5,0.3,"[2,3,1]",0.974007707,stimuli/card_100_transparent.png,100,14,0,14,0,1,,,,,,,,,,
,,,,5ecd65ba7e5f5c0b391090a6,B,2024-06-28_14h40.40.049,Slot Machine Game,2023.1.3,Win32,59.88023952,,,,,,,,,,,,,,,,,,,,,,,,,,,,,,,,,,,405.2488,,,,,,,,,,,,,,,,,,,,,,,,,,,,,,,,,"[730,290,1030]",2,0,2,0,1,,,,
,,,,5ecd65ba7e5f5c0b391090a6,B,2024-06-28_14h40.40.049,Slot Machine Game,2023.1.3,Win32,59.88023952,,,,,,,,,,,,,,,,,,,,,,,,,,,,,,,,,,,,,,,,,,,,,,,,4,4,"[7,15]","[[2,3,1],[1,2,3]]",410.254,0,,,,1,0.3,,,,,0,0,0,0,1,,,,,,,,,,
,,,,5ecd65ba7e5f5c0b391090a6,B,2024-06-28_14h40.40.049,Slot Machine Game,2023.1.3,Win32,59.88023952,,,,,,,,,,,,,,,,,,,,,,,,,,,0,,,,,,,,,,,,,,,,,,,,,4,4,,,415.7675,1,up,3.9504,,0.5,0.3,"[2,3,1]",0.952281905,stimuli/card_0_transparent.png,0,1,0,1,0,1,,,,,,,,,,
,,,,5ecd65ba7e5f5c0b391090a6,B,2024-06-28_14h40.40.049,Slot Machine Game,2023.1.3,Win32,59.88023952,,,,,,,,,,,,,,,,,,,,,,,,,,,0,,,,,,,,,,,,,,,,,,,,,4,4,,,421.0653,2,up,1.1067,,1,0.3,"[2,3,1]",0.910942404,stimuli/card_0_transparent.png,0,2,0,2,0,1,,,,,,,,,,
,,,,5ecd65ba7e5f5c0b391090a6,B,2024-06-28_14h40.40.049,Slot Machine Game,2023.1.3,Win32,59.88023952,,,,,,,,,,,,,,,,,,,,,,,,,,,0,,,,,,,,,,,,,,,,,,,,,4,4,,,423.982,3,up,0.0004,,0.5,0.3,"[2,3,1]",0.491081671,stimuli/card_0_transparent.png,0,3,0,3,0,1,,,,,,,,,,
,,,,5ecd65ba7e5f5c0b391090a6,B,2024-06-28_14h40.40.049,Slot Machine Game,2023.1.3,Win32,59.88023952,,,,,,,,,,,,,,,,,,,,,,,,,,,0,,,,,,,,,,,,,,,,,,,,,4,4,,,425.299,4,up,1.4048,,0.5,0.3,"[2,3,1]",0.424215356,stimuli/card_0_transparent.png,0,4,0,4,0,1,,,,,,,,,,
,,,,5ecd65ba7e5f5c0b391090a6,B,2024-06-28_14h40.40.049,Slot Machine Game,2023.1.3,Win32,59.88023952,,,,,,,,,,,,,,,,,,,,,,,,,,,100,,,,,,,,,,,,,,,,,,,,,4,4,,,428.0397,5,right,1.7093,,0.5,0.3,"[2,3,1]",0.815626019,stimuli/card_100_transparent.png,100,5,0,5,0,1,,,,,,,,,,
,,,,5ecd65ba7e5f5c0b391090a6,B,2024-06-28_14h40.40.049,Slot Machine Game,2023.1.3,Win32,59.88023952,,,,,,,,,,,,,,,,,,,,,,,,,,,200,,,,,,,,,,,,,,,,,,,,,4,4,,,431.0731,6,right,0.2819,,1,0.3,"[2,3,1]",0.340269322,stimuli/card_100_transparent.png,100,6,0,6,0,1,,,,,,,,,,
,,,,5ecd65ba7e5f5c0b391090a6,B,2024-06-28_14h40.40.049,Slot Machine Game,2023.1.3,Win32,59.88023952,,,,,,,,,,,,,,,,,,,,,,,,,,,,,,,,,,,,,,,,,,,,,,,,4,4,,,433.1734,7,,,,1,0.3,,,,,7,0,7,0,1,,,,,,,,,,
,,,,5ecd65ba7e5f5c0b391090a6,B,2024-06-28_14h40.40.049,Slot Machine Game,2023.1.3,Win32,59.88023952,,,,,,,,,,,,,,,,,,,,,,,,,,,200,,,,,,,,,,,,,,,,,,,,,4,4,,,438.6836,8,right,1.7677,,1,0.3,"[1,2,3]",0.892576,stimuli/card_0_transparent.png,0,8,0,8,0,1,,,,,,,,,,
,,,,5ecd65ba7e5f5c0b391090a6,B,2024-06-28_14h40.40.049,Slot Machine Game,2023.1.3,Win32,59.88023952,,,,,,,,,,,,,,,,,,,,,,,,,,,200,,,,,,,,,,,,,,,,,,,,,4,4,,,442.282,9,right,0.6733,,1.5,0.3,"[1,2,3]",0.367601546,stimuli/card_0_transparent.png,0,9,0,9,0,1,,,,,,,,,,
,,,,5ecd65ba7e5f5c0b391090a6,B,2024-06-28_14h40.40.049,Slot Machine Game,2023.1.3,Win32,59.88023952,,,,,,,,,,,,,,,,,,,,,,,,,,,300,,,,,,,,,,,,,,,,,,,,,4,4,,,445.2656,10,left,3.5799,,1,0.3,"[1,2,3]",0.752015351,stimuli/card_100_transparent.png,100,10,0,10,0,1,,,,,,,,,,
,,,,5ecd65ba7e5f5c0b391090a6,B,2024-06-28_14h40.40.049,Slot Machine Game,2023.1.3,Win32,59.88023952,,,,,,,,,,,,,,,,,,,,,,,,,,,300,,,,,,,,,,,,,,,,,,,,,4,4,,,450.6655,11,left,0.1032,,1.5,0.3,"[1,2,3]",0.099742917,stimuli/card_0_transparent.png,0,11,0,11,0,1,,,,,,,,,,
,,,,5ecd65ba7e5f5c0b391090a6,B,2024-06-28_14h40.40.049,Slot Machine Game,2023.1.3,Win32,59.88023952,,,,,,,,,,,,,,,,,,,,,,,,,,,310,,,,,,,,,,,,,,,,,,,,,4,4,,,453.0821,12,up,0.6204,,1,0.3,"[1,2,3]",0.540652036,stimuli/card_10_transparent.png,10,12,0,12,0,1,,,,,,,,,,
,,,,5ecd65ba7e5f5c0b391090a6,B,2024-06-28_14h40.40.049,Slot Machine Game,2023.1.3,Win32,59.88023952,,,,,,,,,,,,,,,,,,,,,,,,,,,320,,,,,,,,,,,,,,,,,,,,,4,4,,,455.549,13,up,0.0593,,1.5,0.3,"[1,2,3]",0.406858803,stimuli/card_10_transparent.png,10,13,0,13,0,1,,,,,,,,,,
,,,,5ecd65ba7e5f5c0b391090a6,B,2024-06-28_14h40.40.049,Slot Machine Game,2023.1.3,Win32,59.88023952,,,,,,,,,,,,,,,,,,,,,,,,,,,320,,,,,,,,,,,,,,,,,,,,,4,4,,,457.9322,14,right,2.9865,,1,0.3,"[1,2,3]",0.370392165,stimuli/card_0_transparent.png,0,14,0,14,0,1,,,,,,,,,,
,,,,5ecd65ba7e5f5c0b391090a6,B,2024-06-28_14h40.40.049,Slot Machine Game,2023.1.3,Win32,59.88023952,,,,,,,,,,,,,,,,,,,,,,,,,,,,,,,,,,,462.756,,,,,,,,,,,,,,,,,,,,,,,,,,,,,,,,,"[730,290,1030,320]",3,0,3,0,1,,,,
,,,,5ecd65ba7e5f5c0b391090a6,B,2024-06-28_14h40.40.049,Slot Machine Game,2023.1.3,Win32,59.88023952,,,,,,,,,,,,,,,,,,,,,,,,,,,10,,,,,,,,,,,,,,,,,,,,,5,6,"[4,10,15]","[[2,3,1],[1,3,2],[3,2,1]]",467.7579,0,left,0.9342,,1,0.3,"[2,3,1]",0.591684071,stimuli/card_10_transparent.png,10,0,0,0,0,1,,,,,,,,,,
,,,,5ecd65ba7e5f5c0b391090a6,B,2024-06-28_14h40.40.049,Slot Machine Game,2023.1.3,Win32,59.88023952,,,,,,,,,,,,,,,,,,,,,,,,,,,10,,,,,,,,,,,,,,,,,,,,,5,6,,,470.5151,1,up,0.1858,,1.5,0.3,"[2,3,1]",0.957438096,stimuli/card_0_transparent.png,0,1,0,1,0,1,,,,,,,,,,
,,,,5ecd65ba7e5f5c0b391090a6,B,2024-06-28_14h40.40.049,Slot Machine Game,2023.1.3,Win32,59.88023952,,,,,,,,,,,,,,,,,,,,,,,,,,,20,,,,,,,,,,,,,,,,,,,,,5,6,,,473.0395,2,right,2.55,,1.5,0.3,"[2,3,1]",0.135380532,stimuli/card_10_transparent.png,10,2,0,2,0,1,,,,,,,,,,
,,,,5ecd65ba7e5f5c0b391090a6,B,2024-06-28_14h40.40.049,Slot Machine Game,2023.1.3,Win32,59.88023952,,,,,,,,,,,,,,,,,,,,,,,,,,,30,,,,,,,,,,,,,,,,,,,,,5,6,,,477.9321,3,left,0.5097,,0.5,0.3,"[2,3,1]",0.975603763,stimuli/card_10_transparent.png,10,3,0,3,0,1,,,,,,,,,,
,,,,5ecd65ba7e5f5c0b391090a6,B,2024-06-28_14h40.40.049,Slot Machine Game,2023.1.3,Win32,59.88023952,,,,,,,,,,,,,,,,,,,,,,,,,,,30,,,,,,,,,,,,,,,,,,,,,5,6,,,479.7485,4,up,0.0063,,0.5,0.3,"[1,3,2]",0.822401315,stimuli/card_0_transparent.png,0,4,0,4,0,1,,,,,,,,,,
,,,,5ecd65ba7e5f5c0b391090a6,B,2024-06-28_14h40.40.049,Slot Machine Game,2023.1.3,Win32,59.88023952,,,,,,,,,,,,,,,,,,,,,,,,,,,40,,,,,,,,,,,,,,,,,,,,,5,6,,,481.0656,5,right,1.7086,,1.5,0.3,"[1,3,2]",0.75874817,stimuli/card_10_transparent.png,10,5,0,5,0,1,,,,,,,,,,
,,,,5ecd65ba7e5f5c0b391090a6,B,2024-06-28_14h40.40.049,Slot Machine Game,2023.1.3,Win32,59.88023952,,,,,,,,,,,,,,,,,,,,,,,,,,,140,,,,,,,,,,,,,,,,,,,,,5,6,,,485.1156,6,left,1.8926,,0.5,0.3,"[1,3,2]",0.432110515,stimuli/card_100_transparent.png,100,6,0,6,0,1,,,,,,,,,,
,,,,5ecd65ba7e5f5c0b391090a6,B,2024-06-28_14h40.40.049,Slot Machine Game,2023.1.3,Win32,59.88023952,,,,,,,,,,,,,,,,,,,,,,,,,,,240,,,,,,,,,,,,,,,,,,,,,5,6,,,488.3395,7,left,0.1608,,1,0.3,"[1,3,2]",0.880680569,stimuli/card_100_transparent.png,100,7,0,7,0,1,,,,,,,,,,
,,,,5ecd65ba7e5f5c0b391090a6,B,2024-06-28_14h40.40.049,Slot Machine Game,2023.1.3,Win32,59.88023952,,,,,,,,,,,,,,,,,,,,,,,,,,,340,,,,,,,,,,,,,,,,,,,,,5,6,,,490.332,8,left,0.105,,1,0.3,"[1,3,2]",0.335173824,stimuli/card_100_transparent.png,100,8,0,8,0,1,,,,,,,,,,
,,,,5ecd65ba7e5f5c0b391090a6,B,2024-06-28_14h40.40.049,Slot Machine Game,2023.1.3,Win32,59.88023952,,,,,,,,,,,,,,,,,,,,,,,,,,,440,,,,,,,,,,,,,,,,,,,,,5,6,,,492.2488,9,left,2.6669,,1,0.3,"[1,3,2]",0.330522477,stimuli/card_100_transparent.png,100,9,0,9,0,1,,,,,,,,,,
,,,,5ecd65ba7e5f5c0b391090a6,B,2024-06-28_14h40.40.049,Slot Machine Game,2023.1.3,Win32,59.88023952,,,,,,,,,,,,,,,,,,,,,,,,,,,450,,,,,,,,,,,,,,,,,,,,,5,6,,,496.7389,10,left,0.1048,,1.5,0.3,"[3,2,1]",0.132433725,stimuli/card_10_transparent.png,10,10,0,10,0,1,,,,,,,,,,
,,,,5ecd65ba7e5f5c0b391090a6,B,2024-06-28_14h40.40.049,Slot Machine Game,2023.1.3,Win32,59.88023952,,,,,,,,,,,,,,,,,,,,,,,,,,,460,,,,,,,,,,,,,,,,,,,,,5,6,,,499.1569,11,up,0.0337,,0.5,0.3,"[3,2,1]",0.925132748,stimuli/card_10_transparent.png,10,11,0,11,0,1,,,,,,,,,,
,,,,5ecd65ba7e5f5c0b391090a6,B,2024-06-28_14h40.40.049,Slot Machine Game,2023.1.3,Win32,59.88023952,,,,,,,,,,,,,,,,,,,,,,,,,,,560,,,,,,,,,,,,,,,,,,,,,5,6,,,500.5155,12,right,0.8163,,1,0.3,"[3,2,1]",0.724269979,stimuli/card_100_transparent.png,100,12,0,12,0,1,,,,,,,,,,
,,,,5ecd65ba7e5f5c0b391090a6,B,2024-06-28_14h40.40.049,Slot Machine Game,2023.1.3,Win32,59.88023952,,,,,,,,,,,,,,,,,,,,,,,,,,,570,,,,,,,,,,,,,,,,,,,,,5,6,,,503.1488,13,right,0.0906,,0.5,0.3,"[3,2,1]",0.156590649,stimuli/card_10_transparent.png,10,13,0,13,0,1,,,,,,,,,,
,,,,5ecd65ba7e5f5c0b391090a6,B,2024-06-28_14h40.40.049,Slot Machine Game,2023.1.3,Win32,59.88023952,,,,,,,,,,,,,,,,,,,,,,,,,,,570,,,,,,,,,,,,,,,,,,,,,5,6,,,504.5489,14,left,0.2171,,0.5,0.3,"[3,2,1]",0.484538586,stimuli/card_0_transparent.png,0,14,0,14,0,1,,,,,,,,,,
,,,,5ecd65ba7e5f5c0b391090a6,B,2024-06-28_14h40.40.049,Slot Machine Game,2023.1.3,Win32,59.88023952,,,,,,,,,,,,,,,,,,,,,,,,,,,,,,,,,,,506.099,,,,,,,,,,,,,,,,,,,,,,,,,,,,,,,,,"[730,290,1030,320,570]",4,0,4,0,1,,,,
,,,,5ecd65ba7e5f5c0b391090a6,B,2024-06-28_14h40.40.049,Slot Machine Game,2023.1.3,Win32,59.88023952,,,,,,,,,,,,,,,,,,,,,,,,,,,10,,,,,,,,,,,,,,,,,,,,,6,8,"[11,15]","[[2,1,3],[1,2,3]]",511.1072,0,left,2.1334,,1,0.3,"[2,1,3]",0.955473647,stimuli/card_10_transparent.png,10,0,0,0,0,1,,,,,,,,,,
,,,,5ecd65ba7e5f5c0b391090a6,B,2024-06-28_14h40.40.049,Slot Machine Game,2023.1.3,Win32,59.88023952,,,,,,,,,,,,,,,,,,,,,,,,,,,110,,,,,,,,,,,,,,,,,,,,,6,8,,,515.0823,1,up,0.4736,,0.5,0.3,"[2,1,3]",0.784877666,stimuli/card_100_transparent.png,100,1,0,1,0,1,,,,,,,,,,
,,,,5ecd65ba7e5f5c0b391090a6,B,2024-06-28_14h40.40.049,Slot Machine Game,2023.1.3,Win32,59.88023952,,,,,,,,,,,,,,,,,,,,,,,,,,,210,,,,,,,,,,,,,,,,,,,,,6,8,,,516.8822,2,up,0.2718,,1.5,0.3,"[2,1,3]",0.990220189,stimuli/card_100_transparent.png,100,2,0,2,0,1,,,,,,,,,,
,,,,5ecd65ba7e5f5c0b391090a6,B,2024-06-28_14h40.40.049,Slot Machine Game,2023.1.3,Win32,59.88023952,,,,,,,,,,,,,,,,,,,,,,,,,,,310,,,,,,,,,,,,,,,,,,,,,6,8,,,519.4655,3,up,0.3338,,1,0.3,"[2,1,3]",0.599300037,stimuli/card_100_transparent.png,100,3,0,3,0,1,,,,,,,,,,
,,,,5ecd65ba7e5f5c0b391090a6,B,2024-06-28_14h40.40.049,Slot Machine Game,2023.1.3,Win32,59.88023952,,,,,,,,,,,,,,,,,,,,,,,,,,,320,,,,,,,,,,,,,,,,,,,,,6,8,,,521.6318,4,up,0.2316,,1,0.3,"[2,1,3]",0.174560174,stimuli/card_10_transparent.png,10,4,0,4,0,1,,,,,,,,,,
,,,,5ecd65ba7e5f5c0b391090a6,B,2024-06-28_14h40.40.049,Slot Machine Game,2023.1.3,Win32,59.88023952,,,,,,,,,,,,,,,,,,,,,,,,,,,330,,,,,,,,,,,,,,,,,,,,,6,8,,,523.6819,5,up,0.6976,,1.5,0.3,"[2,1,3]",0.187356443,stimuli/card_10_transparent.png,10,5,0,5,0,1,,,,,,,,,,
,,,,5ecd65ba7e5f5c0b391090a6,B,2024-06-28_14h40.40.049,Slot Machine Game,2023.1.3,Win32,59.88023952,,,,,,,,,,,,,,,,,,,,,,,,,,,330,,,,,,,,,,,,,,,,,,,,,6,8,,,526.6896,6,right,0.0265,,1,0.3,"[2,1,3]",0.750303233,stimuli/card_0_transparent.png,0,6,0,6,0,1,,,,,,,,,,
,,,,5ecd65ba7e5f5c0b391090a6,B,2024-06-28_14h40.40.049,Slot Machine Game,2023.1.3,Win32,59.88023952,,,,,,,,,,,,,,,,,,,,,,,,,,,430,,,,,,,,,,,,,,,,,,,,,6,8,,,528.5393,7,left,0.1764,,1.5,0.3,"[2,1,3]",0.120891267,stimuli/card_100_transparent.png,100,7,0,7,0,1,,,,,,,,,,
,,,,5ecd65ba7e5f5c0b391090a6,B,2024-06-28_14h40.40.049,Slot Machine Game,2023.1.3,Win32,59.88023952,,,,,,,,,,,,,,,,,,,,,,,,,,,440,,,,,,,,,,,,,,,,,,,,,6,8,,,531.0155,8,left,0.1891,,1,0.3,"[2,1,3]",0.557528138,stimuli/card_10_transparent.png,10,8,0,8,0,1,,,,,,,,,,
,,,,5ecd65ba7e5f5c0b391090a6,B,2024-06-28_14h40.40.049,Slot Machine Game,2023.1.3,Win32,59.88023952,,,,,,,,,,,,,,,,,,,,,,,,,,,540,,,,,,,,,,,,,,,,,,,,,6,8,,,533.0489,9,up,0.1502,,0.5,0.3,"[2,1,3]",0.343728773,stimuli/card_100_transparent.png,100,9,0,9,0,1,,,,,,,,,,
,,,,5ecd65ba7e5f5c0b391090a6,B,2024-06-28_14h40.40.049,Slot Machine Game,2023.1.3,Win32,59.88023952,,,,,,,,,,,,,,,,,,,,,,,,,,,640,,,,,,,,,,,,,,,,,,,,,6,8,,,534.5323,10,up,0.2381,,1.5,0.3,"[2,1,3]",0.990659772,stimuli/card_100_transparent.png,100,10,0,10,0,1,,,,,,,,,,
,,,,5ecd65ba7e5f5c0b391090a6,B,2024-06-28_14h40.40.049,Slot Machine Game,2023.1.3,Win32,59.88023952,,,,,,,,,,,,,,,,,,,,,,,,,,,650,,,,,,,,,,,,,,,,,,,,,6,8,,,537.1151,11,up,2.3208,,1,0.3,"[1,2,3]",0.478358033,stimuli/card_10_transparent.png,10,11,0,11,0,1,,,,,,,,,,
,,,,5ecd65ba7e5f5c0b391090a6,B,2024-06-28_14h40.40.049,Slot Machine Game,2023.1.3,Win32,59.88023952,,,,,,,,,,,,,,,,,,,,,,,,,,,650,,,,,,,,,,,,,,,,,,,,,6,8,,,541.2824,12,right,0.1374,,1,0.3,"[1,2,3]",0.260215319,stimuli/card_0_transparent.png,0,12,0,12,0,1,,,,,,,,,,
,,,,5ecd65ba7e5f5c0b391090a6,B,2024-06-28_14h40.40.049,Slot Machine Game,2023.1.3,Win32,59.88023952,,,,,,,,,,,,,,,,,,,,,,,,,,,750,,,,,,,,,,,,,,,,,,,,,6,8,,,543.2491,13,left,1.6867,,0.5,0.3,"[1,2,3]",0.477041866,stimuli/card_100_transparent.png,100,13,0,13,0,1,,,,,,,,,,
,,,,5ecd65ba7e5f5c0b391090a6,B,2024-06-28_14h40.40.049,Slot Machine Game,2023.1.3,Win32,59.88023952,,,,,,,,,,,,,,,,,,,,,,,,,,,850,,,,,,,,,,,,,,,,,,,,,6,8,,,546.282,14,left,0.3722,,0.5,0.3,"[1,2,3]",0.845942575,stimuli/card_100_transparent.png,100,14,0,14,0,1,,,,,,,,,,
,,,,5ecd65ba7e5f5c0b391090a6,B,2024-06-28_14h40.40.049,Slot Machine Game,2023.1.3,Win32,59.88023952,,,,,,,,,,,,,,,,,,,,,,,,,,,,,,,,,,,547.9734,,,,,,,,,,,,,,,,,,,,,,,,,,,,,,,,,"[730,290,1030,320,570,850]",5,0,5,0,1,,,,
,,,,5ecd65ba7e5f5c0b391090a6,B,2024-06-28_14h40.40.049,Slot Machine Game,2023.1.3,Win32,59.88023952,,,,,,,,,,,,,,,,,,,,,,,,,,,0,,,,,,,,,,,,,,,,,,,,,7,9,"[8,15]","[[3,2,1],[3,1,2]]",552.9757,0,left,0.0671,,1.5,0.3,"[3,2,1]",0.846591703,stimuli/card_0_transparent.png,0,0,0,0,0,1,,,,,,,,,,
,,,,5ecd65ba7e5f5c0b391090a6,B,2024-06-28_14h40.40.049,Slot Machine Game,2023.1.3,Win32,59.88023952,,,,,,,,,,,,,,,,,,,,,,,,,,,0,,,,,,,,,,,,,,,,,,,,,7,9,,,555.349,1,up,0.0663,,0.5,0.3,"[3,2,1]",0.030374511,stimuli/card_0_transparent.png,0,1,0,1,0,1,,,,,,,,,,
,,,,5ecd65ba7e5f5c0b391090a6,B,2024-06-28_14h40.40.049,Slot Machine Game,2023.1.3,Win32,59.88023952,,,,,,,,,,,,,,,,,,,,,,,,,,,100,,,,,,,,,,,,,,,,,,,,,7,9,,,556.7489,2,right,1.7243,,1,0.3,"[3,2,1]",0.217051473,stimuli/card_100_transparent.png,100,2,0,2,0,1,,,,,,,,,,
,,,,5ecd65ba7e5f5c0b391090a6,B,2024-06-28_14h40.40.049,Slot Machine Game,2023.1.3,Win32,59.88023952,,,,,,,,,,,,,,,,,,,,,,,,,,,200,,,,,,,,,,,,,,,,,,,,,7,9,,,560.2729,3,right,0.1547,,1.5,0.3,"[3,2,1]",0.442299008,stimuli/card_100_transparent.png,100,3,0,3,0,1,,,,,,,,,,
,,,,5ecd65ba7e5f5c0b391090a6,B,2024-06-28_14h40.40.049,Slot Machine Game,2023.1.3,Win32,59.88023952,,,,,,,,,,,,,,,,,,,,,,,,,,,210,,,,,,,,,,,,,,,,,,,,,7,9,,,562.7655,4,right,0.2671,,0.5,0.3,"[3,2,1]",0.186885864,stimuli/card_10_transparent.png,10,4,0,4,0,1,,,,,,,,,,
,,,,5ecd65ba7e5f5c0b391090a6,B,2024-06-28_14h40.40.049,Slot Machine Game,2023.1.3,Win32,59.88023952,,,,,,,,,,,,,,,,,,,,,,,,,,,210,,,,,,,,,,,,,,,,,,,,,7,9,,,564.3489,5,left,0.2084,,1,0.3,"[3,2,1]",0.244258794,stimuli/card_0_transparent.png,0,5,0,5,0,1,,,,,,,,,,
,,,,5ecd65ba7e5f5c0b391090a6,B,2024-06-28_14h40.40.049,Slot Machine Game,2023.1.3,Win32,59.88023952,,,,,,,,,,,,,,,,,,,,,,,,,,,220,,,,,,,,,,,,,,,,,,,,,7,9,,,566.3821,6,up,0.5843,,0.5,0.3,"[3,2,1]",0.338456768,stimuli/card_10_transparent.png,10,6,0,6,0,1,,,,,,,,,,
,,,,5ecd65ba7e5f5c0b391090a6,B,2024-06-28_14h40.40.049,Slot Machine Game,2023.1.3,Win32,59.88023952,,,,,,,,,,,,,,,,,,,,,,,,,,,320,,,,,,,,,,,,,,,,,,,,,7,9,,,568.2656,7,right,0.0671,,0.5,0.3,"[3,2,1]",0.38284304,stimuli/card_100_transparent.png,100,7,0,7,0,1,,,,,,,,,,
,,,,5ecd65ba7e5f5c0b391090a6,B,2024-06-28_14h40.40.049,Slot Machine Game,2023.1.3,Win32,59.88023952,,,,,,,,,,,,,,,,,,,,,,,,,,,330,,,,,,,,,,,,,,,,,,,,,7,9,,,569.6732,8,right,0.1733,,0.5,0.3,"[3,1,2]",0.767241411,stimuli/card_10_transparent.png,10,8,0,8,0,1,,,,,,,,,,
,,,,5ecd65ba7e5f5c0b391090a6,B,2024-06-28_14h40.40.049,Slot Machine Game,2023.1.3,Win32,59.88023952,,,,,,,,,,,,,,,,,,,,,,,,,,,330,,,,,,,,,,,,,,,,,,,,,7,9,,,571.1655,9,left,1.7508,,1,0.3,"[3,1,2]",0.731239449,stimuli/card_0_transparent.png,0,9,0,9,0,1,,,,,,,,,,
,,,,5ecd65ba7e5f5c0b391090a6,B,2024-06-28_14h40.40.049,Slot Machine Game,2023.1.3,Win32,59.88023952,,,,,,,,,,,,,,,,,,,,,,,,,,,330,,,,,,,,,,,,,,,,,,,,,7,9,,,574.7157,10,up,0.2416,,1,0.3,"[3,1,2]",0.091928985,stimuli/card_0_transparent.png,0,10,0,10,0,1,,,,,,,,,,
,,,,5ecd65ba7e5f5c0b391090a6,B,2024-06-28_14h40.40.049,Slot Machine Game,2023.1.3,Win32,59.88023952,,,,,,,,,,,,,,,,,,,,,,,,,,,340,,,,,,,,,,,,,,,,,,,,,7,9,,,576.7989,11,right,0.09,,0.5,0.3,"[3,1,2]",0.538730585,stimuli/card_10_transparent.png,10,11,0,11,0,1,,,,,,,,,,
,,,,5ecd65ba7e5f5c0b391090a6,B,2024-06-28_14h40.40.049,Slot Machine Game,2023.1.3,Win32,59.88023952,,,,,,,,,,,,,,,,,,,,,,,,,,,340,,,,,,,,,,,,,,,,,,,,,7,9,,,578.2157,12,left,0.1397,,1.5,0.3,"[3,1,2]",0.678183649,stimuli/card_0_transparent.png,0,12,0,12,0,1,,,,,,,,,,
,,,,5ecd65ba7e5f5c0b391090a6,B,2024-06-28_14h40.40.049,Slot Machine Game,2023.1.3,Win32,59.88023952,,,,,,,,,,,,,,,,,,,,,,,,,,,440,,,,,,,,,,,,,,,,,,,,,7,9,,,580.6819,13,up,1.9835,,0.5,0.3,"[3,1,2]",0.783702417,stimuli/card_100_transparent.png,100,13,0,13,0,1,,,,,,,,,,
,,,,5ecd65ba7e5f5c0b391090a6,B,2024-06-28_14h40.40.049,Slot Machine Game,2023.1.3,Win32,59.88023952,,,,,,,,,,,,,,,,,,,,,,,,,,,440,,,,,,,,,,,,,,,,,,,,,7,9,,,583.9993,14,up,0.1385,,1,0.3,"[3,1,2]",0.053277056,stimuli/card_0_transparent.png,0,14,0,14,0,1,,,,,,,,,,
,,,,5ecd65ba7e5f5c0b391090a6,B,2024-06-28_14h40.40.049,Slot Machine Game,2023.1.3,Win32,59.88023952,,,,,,,,,,,,,,,,,,,,,,,,,,,,,,,,,,,585.9823,,,,,,,,,,,,,,,,,,,,,,,,,,,,,,,,,"[730,290,1030,320,570,850,440]",6,0,6,0,1,,,,
,,,,5ecd65ba7e5f5c0b391090a6,B,2024-06-28_14h40.40.049,Slot Machine Game,2023.1.3,Win32,59.88023952,,,,,,,,,,,,,,,,,,,,,,,,,,,100,,,,,,,,,,,,,,,,,,,,,8,2,"[6,15]","[[1,3,2],[3,2,1]]",590.993,0,left,0.358,,1,0.3,"[1,3,2]",0.85918898,stimuli/card_100_transparent.png,100,0,0,0,0,1,,,,,,,,,,
,,,,5ecd65ba7e5f5c0b391090a6,B,2024-06-28_14h40.40.049,Slot Machine Game,2023.1.3,Win32,59.88023952,,,,,,,,,,,,,,,,,,,,,,,,,,,200,,,,,,,,,,,,,,,,,,,,,8,2,,,593.1657,1,left,0.1469,,1.5,0.3,"[1,3,2]",0.644056999,stimuli/card_100_transparent.png,100,1,0,1,0,1,,,,,,,,,,
,,,,5ecd65ba7e5f5c0b391090a6,B,2024-06-28_14h40.40.049,Slot Machine Game,2023.1.3,Win32,59.88023952,,,,,,,,,,,,,,,,,,,,,,,,,,,300,,,,,,,,,,,,,,,,,,,,,8,2,,,595.6327,2,left,0.16,,1,0.3,"[1,3,2]",0.226047627,stimuli/card_100_transparent.png,100,2,0,2,0,1,,,,,,,,,,
,,,,5ecd65ba7e5f5c0b391090a6,B,2024-06-28_14h40.40.049,Slot Machine Game,2023.1.3,Win32,59.88023952,,,,,,,,,,,,,,,,,,,,,,,,,,,400,,,,,,,,,,,,,,,,,,,,,8,2,,,597.6155,3,left,0.0497,,1,0.3,"[1,3,2]",0.282689095,stimuli/card_100_transparent.png,100,3,0,3,0,1,,,,,,,,,,
,,,,5ecd65ba7e5f5c0b391090a6,B,2024-06-28_14h40.40.049,Slot Machine Game,2023.1.3,Win32,59.88023952,,,,,,,,,,,,,,,,,,,,,,,,,,,500,,,,,,,,,,,,,,,,,,,,,8,2,,,599.4733,4,left,0.0778,,1.5,0.3,"[1,3,2]",0.257894147,stimuli/card_100_transparent.png,100,4,0,4,0,1,,,,,,,,,,
,,,,5ecd65ba7e5f5c0b391090a6,B,2024-06-28_14h40.40.049,Slot Machine Game,2023.1.3,Win32,59.88023952,,,,,,,,,,,,,,,,,,,,,,,,,,,600,,,,,,,,,,,,,,,,,,,,,8,2,,,601.882,5,left,0.0167,,0.5,0.3,"[1,3,2]",0.74181258,stimuli/card_100_transparent.png,100,5,0,5,0,1,,,,,,,,,,
,,,,5ecd65ba7e5f5c0b391090a6,B,2024-06-28_14h40.40.049,Slot Machine Game,2023.1.3,Win32,59.88023952,,,,,,,,,,,,,,,,,,,,,,,,,,,600,,,,,,,,,,,,,,,,,,,,,8,2,,,603.2156,6,left,0.1112,,1,0.3,"[3,2,1]",0.454160645,stimuli/card_0_transparent.png,0,6,0,6,0,1,,,,,,,,,,
,,,,5ecd65ba7e5f5c0b391090a6,B,2024-06-28_14h40.40.049,Slot Machine Game,2023.1.3,Win32,59.88023952,,,,,,,,,,,,,,,,,,,,,,,,,,,610,,,,,,,,,,,,,,,,,,,,,8,2,,,605.1562,7,up,1.4259,,1.5,0.3,"[3,2,1]",0.878428969,stimuli/card_10_transparent.png,10,7,0,7,0,1,,,,,,,,,,
,,,,5ecd65ba7e5f5c0b391090a6,B,2024-06-28_14h40.40.049,Slot Machine Game,2023.1.3,Win32,59.88023952,,,,,,,,,,,,,,,,,,,,,,,,,,,710,,,,,,,,,,,,,,,,,,,,,8,2,,,608.8893,8,right,0.0837,,0.5,0.3,"[3,2,1]",0.858159119,stimuli/card_100_transparent.png,100,8,0,8,0,1,,,,,,,,,,
,,,,5ecd65ba7e5f5c0b391090a6,B,2024-06-28_14h40.40.049,Slot Machine Game,2023.1.3,Win32,59.88023952,,,,,,,,,,,,,,,,,,,,,,,,,,,810,,,,,,,,,,,,,,,,,,,,,8,2,,,610.3157,9,right,0.1087,,1,0.3,"[3,2,1]",0.72443772,stimuli/card_100_transparent.png,100,9,0,9,0,1,,,,,,,,,,
,,,,5ecd65ba7e5f5c0b391090a6,B,2024-06-28_14h40.40.049,Slot Machine Game,2023.1.3,Win32,59.88023952,,,,,,,,,,,,,,,,,,,,,,,,,,,910,,,,,,,,,,,,,,,,,,,,,8,2,,,612.2656,10,right,0.0634,,0.5,0.3,"[3,2,1]",0.521323088,stimuli/card_100_transparent.png,100,10,0,10,0,1,,,,,,,,,,
,,,,5ecd65ba7e5f5c0b391090a6,B,2024-06-28_14h40.40.049,Slot Machine Game,2023.1.3,Win32,59.88023952,,,,,,,,,,,,,,,,,,,,,,,,,,,910,,,,,,,,,,,,,,,,,,,,,8,2,,,613.6655,11,right,0.2588,,0.5,0.3,"[3,2,1]",0.005102823,stimuli/card_0_transparent.png,0,11,0,11,0,1,,,,,,,,,,
,,,,5ecd65ba7e5f5c0b391090a6,B,2024-06-28_14h40.40.049,Slot Machine Game,2023.1.3,Win32,59.88023952,,,,,,,,,,,,,,,,,,,,,,,,,,,920,,,,,,,,,,,,,,,,,,,,,8,2,,,615.2488,12,left,0.0181,,1,0.3,"[3,2,1]",0.17660528,stimuli/card_10_transparent.png,10,12,0,12,0,1,,,,,,,,,,
,,,,5ecd65ba7e5f5c0b391090a6,B,2024-06-28_14h40.40.049,Slot Machine Game,2023.1.3,Win32,59.88023952,,,,,,,,,,,,,,,,,,,,,,,,,,,930,,,,,,,,,,,,,,,,,,,,,8,2,,,617.1154,13,up,0.0355,,1.5,0.3,"[3,2,1]",0.985086811,stimuli/card_10_transparent.png,10,13,0,13,0,1,,,,,,,,,,
,,,,5ecd65ba7e5f5c0b391090a6,B,2024-06-28_14h40.40.049,Slot Machine Game,2023.1.3,Win32,59.88023952,,,,,,,,,,,,,,,,,,,,,,,,,,,930,,,,,,,,,,,,,,,,,,,,,8,2,,,619.507,14,right,1.1006,,1,0.3,"[3,2,1]",0.013743468,stimuli/card_0_transparent.png,0,14,0,14,0,1,,,,,,,,,,
,,,,5ecd65ba7e5f5c0b391090a6,B,2024-06-28_14h40.40.049,Slot Machine Game,2023.1.3,Win32,59.88023952,,,,,,,,,,,,,,,,,,,,,,,,,,,,,,,,,,,622.4489,,,,,,,,,,,,,,,,,,,,,,,,,,,,,,,,,"[730,290,1030,320,570,850,440,930]",7,0,7,0,1,,,,
,,,,5ecd65ba7e5f5c0b391090a6,B,2024-06-28_14h40.40.049,Slot Machine Game,2023.1.3,Win32,59.88023952,,,,,,,,,,,,,,,,,,,,,,,,,,,10,,,,,,,,,,,,,,,,,,,,,9,10,"[10,15]","[[3,1,2],[1,3,2]]",627.4582,0,left,0.3563,,0.5,0.3,"[3,1,2]",0.177456524,stimuli/card_10_transparent.png,10,0,0,0,0,1,,,,,,,,,,
,,,,5ecd65ba7e5f5c0b391090a6,B,2024-06-28_14h40.40.049,Slot Machine Game,2023.1.3,Win32,59.88023952,,,,,,,,,,,,,,,,,,,,,,,,,,,110,,,,,,,,,,,,,,,,,,,,,9,10,,,629.149,1,up,0.0291,,0.5,0.3,"[3,1,2]",0.432719407,stimuli/card_100_transparent.png,100,1,0,1,0,1,,,,,,,,,,
,,,,5ecd65ba7e5f5c0b391090a6,B,2024-06-28_14h40.40.049,Slot Machine Game,2023.1.3,Win32,59.88023952,,,,,,,,,,,,,,,,,,,,,,,,,,,210,,,,,,,,,,,,,,,,,,,,,9,10,,,630.5068,2,up,0.0168,,0.5,0.3,"[3,1,2]",0.858802875,stimuli/card_100_transparent.png,100,2,0,2,0,1,,,,,,,,,,
,,,,5ecd65ba7e5f5c0b391090a6,B,2024-06-28_14h40.40.049,Slot Machine Game,2023.1.3,Win32,59.88023952,,,,,,,,,,,,,,,,,,,,,,,,,,,220,,,,,,,,,,,,,,,,,,,,,9,10,,,631.8323,3,up,1.2329,,0.5,0.3,"[3,1,2]",0.189942912,stimuli/card_10_transparent.png,10,3,0,3,0,1,,,,,,,,,,
,,,,5ecd65ba7e5f5c0b391090a6,B,2024-06-28_14h40.40.049,Slot Machine Game,2023.1.3,Win32,59.88023952,,,,,,,,,,,,,,,,,,,,,,,,,,,230,,,,,,,,,,,,,,,,,,,,,9,10,,,634.3824,4,right,0.0666,,0.5,0.3,"[3,1,2]",0.698185395,stimuli/card_10_transparent.png,10,4,0,4,0,1,,,,,,,,,,
,,,,5ecd65ba7e5f5c0b391090a6,B,2024-06-28_14h40.40.049,Slot Machine Game,2023.1.3,Win32,59.88023952,,,,,,,,,,,,,,,,,,,,,,,,,,,230,,,,,,,,,,,,,,,,,,,,,9,10,,,635.7825,5,left,0.4726,,1,0.3,"[3,1,2]",0.934164075,stimuli/card_0_transparent.png,0,5,0,5,0,1,,,,,,,,,,
,,,,5ecd65ba7e5f5c0b391090a6,B,2024-06-28_14h40.40.049,Slot Machine Game,2023.1.3,Win32,59.88023952,,,,,,,,,,,,,,,,,,,,,,,,,,,330,,,,,,,,,,,,,,,,,,,,,9,10,,,638.0712,6,up,0.051,,1.5,0.3,"[3,1,2]",0.366908673,stimuli/card_100_transparent.png,100,6,0,6,0,1,,,,,,,,,,
,,,,5ecd65ba7e5f5c0b391090a6,B,2024-06-28_14h40.40.049,Slot Machine Game,2023.1.3,Win32,59.88023952,,,,,,,,,,,,,,,,,,,,,,,,,,,430,,,,,,,,,,,,,,,,,,,,,9,10,,,640.4492,7,up,0.1338,,0.5,0.3,"[3,1,2]",0.367393282,stimuli/card_100_transparent.png,100,7,0,7,0,1,,,,,,,,,,
,,,,5ecd65ba7e5f5c0b391090a6,B,2024-06-28_14h40.40.049,Slot Machine Game,2023.1.3,Win32,59.88023952,,,,,,,,,,,,,,,,,,,,,,,,,,,530,,,,,,,,,,,,,,,,,,,,,9,10,,,641.8989,8,up,0.408,,1,0.3,"[3,1,2]",0.838350897,stimuli/card_100_transparent.png,100,8,0,8,0,1,,,,,,,,,,
,,,,5ecd65ba7e5f5c0b391090a6,B,2024-06-28_14h40.40.049,Slot Machine Game,2023.1.3,Win32,59.88023952,,,,,,,,,,,,,,,,,,,,,,,,,,,630,,,,,,,,,,,,,,,,,,,,,9,10,,,644.123,9,up,0.1169,,1.5,0.3,"[3,1,2]",0.830210895,stimuli/card_100_transparent.png,100,9,0,9,0,1,,,,,,,,,,
,,,,5ecd65ba7e5f5c0b391090a6,B,2024-06-28_14h40.40.049,Slot Machine Game,2023.1.3,Win32,59.88023952,,,,,,,,,,,,,,,,,,,,,,,,,,,630,,,,,,,,,,,,,,,,,,,,,9,10,,,646.5658,10,up,0.0167,,0.5,0.3,"[1,3,2]",0.65637554,stimuli/card_0_transparent.png,0,10,0,10,0,1,,,,,,,,,,
,,,,5ecd65ba7e5f5c0b391090a6,B,2024-06-28_14h40.40.049,Slot Machine Game,2023.1.3,Win32,59.88023952,,,,,,,,,,,,,,,,,,,,,,,,,,,640,,,,,,,,,,,,,,,,,,,,,9,10,,,647.9237,11,right,0.0337,,1.5,0.3,"[1,3,2]",0.549963109,stimuli/card_10_transparent.png,10,11,0,11,0,1,,,,,,,,,,
,,,,5ecd65ba7e5f5c0b391090a6,B,2024-06-28_14h40.40.049,Slot Machine Game,2023.1.3,Win32,59.88023952,,,,,,,,,,,,,,,,,,,,,,,,,,,650,,,,,,,,,,,,,,,,,,,,,9,10,,,650.266,12,left,1.4274,,0.5,0.3,"[1,3,2]",0.161180328,stimuli/card_10_transparent.png,10,12,0,12,0,1,,,,,,,,,,
,,,,5ecd65ba7e5f5c0b391090a6,B,2024-06-28_14h40.40.049,Slot Machine Game,2023.1.3,Win32,59.88023952,,,,,,,,,,,,,,,,,,,,,,,,,,,650,,,,,,,,,,,,,,,,,,,,,9,10,,,653.0157,13,up,0.0021,,1,0.3,"[1,3,2]",0.446146468,stimuli/card_0_transparent.png,0,13,0,13,0,1,,,,,,,,,,
,,,,5ecd65ba7e5f5c0b391090a6,B,2024-06-28_14h40.40.049,Slot Machine Game,2023.1.3,Win32,59.88023952,,,,,,,,,,,,,,,,,,,,,,,,,,,660,,,,,,,,,,,,,,,,,,,,,9,10,,,654.8159,14,right,1.2746,,0.5,0.3,"[1,3,2]",0.263797938,stimuli/card_10_transparent.png,10,14,0,14,0,1,,,,,,,,,,
,,,,5ecd65ba7e5f5c0b391090a6,B,2024-06-28_14h40.40.049,Slot Machine Game,2023.1.3,Win32,59.88023952,,,,,,,,,,,,,,,,,,,,,,,,,,,,,,,,,,,657.4155,,,,,,,,,,,,,,,,,,,,,,,,,,,,,,,,,"[730,290,1030,320,570,850,440,930,660]",8,0,8,0,1,,,,
,,,,5ecd65ba7e5f5c0b391090a6,B,2024-06-28_14h40.40.049,Slot Machine Game,2023.1.3,Win32,59.88023952,,,,,,,,,,,,,,,,,,,,,,,,,,,0,,,,,,,,,,,,,,,,,,,,,10,3,"[15,15]","[[3,1,2],[3,1,2]]",662.4247,0,left,0.4347,,0.5,0.3,"[3,1,2]",0.661386724,stimuli/card_0_transparent.png,0,0,0,0,0,1,,,,,,,,,,
,,,,5ecd65ba7e5f5c0b391090a6,B,2024-06-28_14h40.40.049,Slot Machine Game,2023.1.3,Win32,59.88023952,,,,,,,,,,,,,,,,,,,,,,,,,,,100,,,,,,,,,,,,,,,,,,,,,10,3,,,664.1825,1,up,0.0966,,1,0.3,"[3,1,2]",0.528504047,stimuli/card_100_transparent.png,100,1,0,1,0,1,,,,,,,,,,
,,,,5ecd65ba7e5f5c0b391090a6,B,2024-06-28_14h40.40.049,Slot Machine Game,2023.1.3,Win32,59.88023952,,,,,,,,,,,,,,,,,,,,,,,,,,,200,,,,,,,,,,,,,,,,,,,,,10,3,,,666.0899,2,up,0.2971,,0.5,0.3,"[3,1,2]",0.258419033,stimuli/card_100_transparent.png,100,2,0,2,0,1,,,,,,,,,,
,,,,5ecd65ba7e5f5c0b391090a6,B,2024-06-28_14h40.40.049,Slot Machine Game,2023.1.3,Win32,59.88023952,,,,,,,,,,,,,,,,,,,,,,,,,,,300,,,,,,,,,,,,,,,,,,,,,10,3,,,667.6991,3,up,0.1494,,1,0.3,"[3,1,2]",0.977219449,stimuli/card_100_transparent.png,100,3,0,3,0,1,,,,,,,,,,
,,,,5ecd65ba7e5f5c0b391090a6,B,2024-06-28_14h40.40.049,Slot Machine Game,2023.1.3,Win32,59.88023952,,,,,,,,,,,,,,,,,,,,,,,,,,,400,,,,,,,,,,,,,,,,,,,,,10,3,,,669.6712,4,up,0.1133,,1.5,0.3,"[3,1,2]",0.759593603,stimuli/card_100_transparent.png,100,4,0,4,0,1,,,,,,,,,,
,,,,5ecd65ba7e5f5c0b391090a6,B,2024-06-28_14h40.40.049,Slot Machine Game,2023.1.3,Win32,59.88023952,,,,,,,,,,,,,,,,,,,,,,,,,,,500,,,,,,,,,,,,,,,,,,,,,10,3,,,672.0824,5,up,0.1721,,1.5,0.3,"[3,1,2]",0.477159906,stimuli/card_100_transparent.png,100,5,0,5,0,1,,,,,,,,,,
,,,,5ecd65ba7e5f5c0b391090a6,B,2024-06-28_14h40.40.049,Slot Machine Game,2023.1.3,Win32,59.88023952,,,,,,,,,,,,,,,,,,,,,,,,,,,600,,,,,,,,,,,,,,,,,,,,,10,3,,,674.5826,6,up,0.2195,,1,0.3,"[3,1,2]",0.382249298,stimuli/card_100_transparent.png,100,6,0,6,0,1,,,,,,,,,,
,,,,5ecd65ba7e5f5c0b391090a6,B,2024-06-28_14h40.40.049,Slot Machine Game,2023.1.3,Win32,59.88023952,,,,,,,,,,,,,,,,,,,,,,,,,,,700,,,,,,,,,,,,,,,,,,,,,10,3,,,676.6391,7,up,0.1059,,1,0.3,"[3,1,2]",0.610309173,stimuli/card_100_transparent.png,100,7,0,7,0,1,,,,,,,,,,
,,,,5ecd65ba7e5f5c0b391090a6,B,2024-06-28_14h40.40.049,Slot Machine Game,2023.1.3,Win32,59.88023952,,,,,,,,,,,,,,,,,,,,,,,,,,,800,,,,,,,,,,,,,,,,,,,,,10,3,,,678.5737,8,up,0.0836,,1,0.3,"[3,1,2]",0.767515681,stimuli/card_100_transparent.png,100,8,0,8,0,1,,,,,,,,,,
,,,,5ecd65ba7e5f5c0b391090a6,B,2024-06-28_14h40.40.049,Slot Machine Game,2023.1.3,Win32,59.88023952,,,,,,,,,,,,,,,,,,,,,,,,,,,900,,,,,,,,,,,,,,,,,,,,,10,3,,,680.4822,9,up,1.2511,,1,0.3,"[3,1,2]",0.480621683,stimuli/card_100_transparent.png,100,9,0,9,0,1,,,,,,,,,,
,,,,5ecd65ba7e5f5c0b391090a6,B,2024-06-28_14h40.40.049,Slot Machine Game,2023.1.3,Win32,59.88023952,,,,,,,,,,,,,,,,,,,,,,,,,,,1000,,,,,,,,,,,,,,,,,,,,,10,3,,,683.5658,10,up,0.3612,,0.5,0.3,"[3,1,2]",0.311332606,stimuli/card_100_transparent.png,100,10,0,10,0,1,,,,,,,,,,
,,,,5ecd65ba7e5f5c0b391090a6,B,2024-06-28_14h40.40.049,Slot Machine Game,2023.1.3,Win32,59.88023952,,,,,,,,,,,,,,,,,,,,,,,,,,,1100,,,,,,,,,,,,,,,,,,,,,10,3,,,685.2489,11,up,0.2457,,1,0.3,"[3,1,2]",0.877507236,stimuli/card_100_transparent.png,100,11,0,11,0,1,,,,,,,,,,
,,,,5ecd65ba7e5f5c0b391090a6,B,2024-06-28_14h40.40.049,Slot Machine Game,2023.1.3,Win32,59.88023952,,,,,,,,,,,,,,,,,,,,,,,,,,,1200,,,,,,,,,,,,,,,,,,,,,10,3,,,687.3325,12,up,0.2722,,1.5,0.3,"[3,1,2]",0.425499834,stimuli/card_100_transparent.png,100,12,0,12,0,1,,,,,,,,,,
,,,,5ecd65ba7e5f5c0b391090a6,B,2024-06-28_14h40.40.049,Slot Machine Game,2023.1.3,Win32,59.88023952,,,,,,,,,,,,,,,,,,,,,,,,,,,1300,,,,,,,,,,,,,,,,,,,,,10,3,,,689.9324,13,up,0.2504,,1,0.3,"[3,1,2]",0.819238926,stimuli/card_100_transparent.png,100,13,0,13,0,1,,,,,,,,,,
,,,,5ecd65ba7e5f5c0b391090a6,B,2024-06-28_14h40.40.049,Slot Machine Game,2023.1.3,Win32,59.88023952,,,,,,,,,,,,,,,,,,,,,,,,,,,1400,,,,,,,,,,,,,,,,,,,,,10,3,,,691.9826,14,up,0.1507,,1.5,0.3,"[3,1,2]",0.2760965,stimuli/card_100_transparent.png,100,14,0,14,0,1,,,,,,,,,,
,,,,5ecd65ba7e5f5c0b391090a6,B,2024-06-28_14h40.40.049,Slot Machine Game,2023.1.3,Win32,59.88023952,,,,,,,,,,,,,,,,,,,,,,,,,,,,,,,,,,,694.4654,,,,,,,,,,,,,,,,,,,,,,,,,,,,,,,,,"[730,290,1030,320,570,850,440,930,660,1400]",9,0,9,0,1,,,,
,,,,5ecd65ba7e5f5c0b391090a6,B,2024-06-28_14h40.40.049,Slot Machine Game,2023.1.3,Win32,59.88023952,,,,,,,,,,,,,,,,,,,,,,,,,,,,,,,,,,,,,,,,,,,,,,,,,,,,,,,,,,,,,,,,,,,,,,,,,,9,"[730,290,1030,320,570,850,440,930,660,1400]",9.3,2024-06-28_14h52.23.724
