key_resp_welcome_started,key_resp_welcome_keys,key_resp_welcome_rt,key_resp_welcome_duration,prolific_id,path_id,date,expName,psychopyVersion,OS,frameRate,key_resp_instruction1_started,key_resp_instruction1_keys,key_resp_instruction1_rt,key_resp_instruction1_duration,key_resp_instruction2_started,key_resp_instruction2_keys,key_resp_instruction2_rt,key_resp_instruction2_duration,key_resp_instruction3_started,key_resp_instruction3_keys,key_resp_instruction3_rt,key_resp_instruction3_duration,key_resp_instruction4_started,key_resp_instruction4_keys,key_resp_instruction4_rt,key_resp_instruction4_duration,practiceCondition,practice_reward_seqs,practice_trial_started,practice_trial_num,practice_resp_rt,practice_resp_duration,practice_resp_keys,prac_presentationInterval,"practice_reward_seq: 2,1,3",reward_img,cumulative_reward,trial_reward,practice_trials.thisRepN,practice_trials.thisTrialN,practice_trials.thisN,practice_trials.thisIndex,practice_trials.ran,"practice_reward_seq: 2,3,1",block_break_started,"practice_reward_seq: 1,3,2","practice_reward_seq: 3,1,2",practice_end_time,practice_end_keys,practice_end_rt,practice_end_duration,main_instruction_text_started,block_condition,block_order_indices,main_instruction_keys,main_instruction_rt,main_instruction_duration,block_number,block_assignment,current_condition,main_reward_seqs,main_trial_started,main_trial_num,main_trial_keys,main_trial_rt,main_trial_duration,main_presentationInterval,reward_presentation_time,main_reward_seq,reward_rand_val,main_reward_img,current_reward,main_trials.thisRepN,main_trials.thisTrialN,main_trials.thisN,main_trials.thisIndex,main_trials.ran,block_reward,block.thisRepN,block.thisTrialN,block.thisN,block.thisIndex,block.ran,block_reward.length,block_reward_all,reward_amount,date_end_task
0.0001,space,5.3102,,5f5c4b9c062e0f43a15ed050,A,2024-07-01_08h58.14.277,Slot Machine Game,2023.1.3,Win32,59.88023952,,,,,,,,,,,,,,,,,,,,,,,,,,,,,,,,,,,,,,,,,,,,,,,,,,,,,,,,,,,,,,,,,,,,,,,,,,,,,
,,,,5f5c4b9c062e0f43a15ed050,A,2024-07-01_08h58.14.277,Slot Machine Game,2023.1.3,Win32,59.88023952,5.3214,space,50.2332,,,,,,,,,,,,,,,,,,,,,,,,,,,,,,,,,,,,,,,,,,,,,,,,,,,,,,,,,,,,,,,,,,,,,,,,,,
,,,,5f5c4b9c062e0f43a15ed050,A,2024-07-01_08h58.14.277,Slot Machine Game,2023.1.3,Win32,59.88023952,,,,,55.5876,space,20.9762,,,,,,,,,,,,,,,,,,,,,,,,,,,,,,,,,,,,,,,,,,,,,,,,,,,,,,,,,,,,,,,,,,,,,,
,,,,5f5c4b9c062e0f43a15ed050,A,2024-07-01_08h58.14.277,Slot Machine Game,2023.1.3,Win32,59.88023952,,,,,,,,,76.5984,space,19.0879,,,,,,,,,,,,,,,,,,,,,,,,,,,,,,,,,,,,,,,,,,,,,,,,,,,,,,,,,,,,,,,,,,
,,,,5f5c4b9c062e0f43a15ed050,A,2024-07-01_08h58.14.277,Slot Machine Game,2023.1.3,Win32,59.88023952,,,,,,,,,,,,,,,,,,,,,,,,,,,,,,,,,,,,,,,,,,,,,,,,,,,,,,,,,,,,,,,,,,,,,,,,,,,,,
,,,,5f5c4b9c062e0f43a15ed050,A,2024-07-01_08h58.14.277,Slot Machine Game,2023.1.3,Win32,59.88023952,,,,,,,,,,,,,237.4135,w,6.8254,,,,,,,,,,,,,,,,,,,,,,,,,,,,,,,,,,,,,,,,,,,,,,,,,,,,,,,,,,,,,,
,,,,5f5c4b9c062e0f43a15ed050,A,2024-07-01_08h58.14.277,Slot Machine Game,2023.1.3,Win32,59.88023952,,,,,,,,,,,,,,,,,"[9,15]","[[2,1,3],[2,3,1]]",244.2609,0,2.7699,,left,1.5,,stimuli/card_100_transparent.png,100,100,0,0,0,0,1,,,,,,,,,,,,,,,,,,,,,,,,,,,,,,,,,,,,,,,,,,,,
,,,,5f5c4b9c062e0f43a15ed050,A,2024-07-01_08h58.14.277,Slot Machine Game,2023.1.3,Win32,59.88023952,,,,,,,,,,,,,,,,,,,249.3703,1,0.0504,,left,1,,stimuli/card_10_transparent.png,110,10,1,0,1,0,1,,,,,,,,,,,,,,,,,,,,,,,,,,,,,,,,,,,,,,,,,,,,
,,,,5f5c4b9c062e0f43a15ed050,A,2024-07-01_08h58.14.277,Slot Machine Game,2023.1.3,Win32,59.88023952,,,,,,,,,,,,,,,,,,,251.2542,2,0.0002,,left,1,,stimuli/card_10_transparent.png,120,10,2,0,2,0,1,,,,,,,,,,,,,,,,,,,,,,,,,,,,,,,,,,,,,,,,,,,,
,,,,5f5c4b9c062e0f43a15ed050,A,2024-07-01_08h58.14.277,Slot Machine Game,2023.1.3,Win32,59.88023952,,,,,,,,,,,,,,,,,,,253.0725,3,1.3178,,left,1,,stimuli/card_10_transparent.png,130,10,3,0,3,0,1,,,,,,,,,,,,,,,,,,,,,,,,,,,,,,,,,,,,,,,,,,,,
,,,,5f5c4b9c062e0f43a15ed050,A,2024-07-01_08h58.14.277,Slot Machine Game,2023.1.3,Win32,59.88023952,,,,,,,,,,,,,,,,,,,256.2091,4,0.0838,,left,0.5,,stimuli/card_10_transparent.png,140,10,4,0,4,0,1,,,,,,,,,,,,,,,,,,,,,,,,,,,,,,,,,,,,,,,,,,,,
,,,,5f5c4b9c062e0f43a15ed050,A,2024-07-01_08h58.14.277,Slot Machine Game,2023.1.3,Win32,59.88023952,,,,,,,,,,,,,,,,,,,257.6104,5,0.2174,,up,1.5,,stimuli/card_0_transparent.png,140,0,5,0,5,0,1,,,,,,,,,,,,,,,,,,,,,,,,,,,,,,,,,,,,,,,,,,,,
,,,,5f5c4b9c062e0f43a15ed050,A,2024-07-01_08h58.14.277,Slot Machine Game,2023.1.3,Win32,59.88023952,,,,,,,,,,,,,,,,,,,260.1462,6,0.1505,,right,1.5,,stimuli/card_0_transparent.png,140,0,6,0,6,0,1,,,,,,,,,,,,,,,,,,,,,,,,,,,,,,,,,,,,,,,,,,,,
,,,,5f5c4b9c062e0f43a15ed050,A,2024-07-01_08h58.14.277,Slot Machine Game,2023.1.3,Win32,59.88023952,,,,,,,,,,,,,,,,,,,262.6154,7,0.0837,,right,1,,stimuli/card_0_transparent.png,140,0,7,0,7,0,1,,,,,,,,,,,,,,,,,,,,,,,,,,,,,,,,,,,,,,,,,,,,
,,,,5f5c4b9c062e0f43a15ed050,A,2024-07-01_08h58.14.277,Slot Machine Game,2023.1.3,Win32,59.88023952,,,,,,,,,,,,,,,,,,,264.5175,8,0.2338,,up,0.5,,stimuli/card_10_transparent.png,150,10,8,0,8,0,1,,,,,,,,,,,,,,,,,,,,,,,,,,,,,,,,,,,,,,,,,,,,
,,,,5f5c4b9c062e0f43a15ed050,A,2024-07-01_08h58.14.277,Slot Machine Game,2023.1.3,Win32,59.88023952,,,,,,,,,,,,,,,,,,,266.0697,9,0.2749,,left,1.5,,stimuli/card_10_transparent.png,160,10,9,0,9,0,1,,,,,,,,,,,,,,,,,,,,,,,,,,,,,,,,,,,,,,,,,,,,
,,,,5f5c4b9c062e0f43a15ed050,A,2024-07-01_08h58.14.277,Slot Machine Game,2023.1.3,Win32,59.88023952,,,,,,,,,,,,,,,,,,,268.703,10,0.2231,,left,0.5,,stimuli/card_10_transparent.png,170,10,10,0,10,0,1,,,,,,,,,,,,,,,,,,,,,,,,,,,,,,,,,,,,,,,,,,,,
,,,,5f5c4b9c062e0f43a15ed050,A,2024-07-01_08h58.14.277,Slot Machine Game,2023.1.3,Win32,59.88023952,,,,,,,,,,,,,,,,,,,270.2529,11,0.1629,,left,0.5,,stimuli/card_10_transparent.png,180,10,11,0,11,0,1,,,,,,,,,,,,,,,,,,,,,,,,,,,,,,,,,,,,,,,,,,,,
,,,,5f5c4b9c062e0f43a15ed050,A,2024-07-01_08h58.14.277,Slot Machine Game,2023.1.3,Win32,59.88023952,,,,,,,,,,,,,,,,,,,271.7365,12,0.1918,,left,0.5,,stimuli/card_10_transparent.png,190,10,12,0,12,0,1,,,,,,,,,,,,,,,,,,,,,,,,,,,,,,,,,,,,,,,,,,,,
,,,,5f5c4b9c062e0f43a15ed050,A,2024-07-01_08h58.14.277,Slot Machine Game,2023.1.3,Win32,59.88023952,,,,,,,,,,,,,,,,,,,273.253,13,0.1426,,up,0.5,,stimuli/card_0_transparent.png,190,0,13,0,13,0,1,,,,,,,,,,,,,,,,,,,,,,,,,,,,,,,,,,,,,,,,,,,,
,,,,5f5c4b9c062e0f43a15ed050,A,2024-07-01_08h58.14.277,Slot Machine Game,2023.1.3,Win32,59.88023952,,,,,,,,,,,,,,,,,,,274.7196,14,0.1896,,up,0.5,,stimuli/card_0_transparent.png,190,0,14,0,14,0,1,,,,,,,,,,,,,,,,,,,,,,,,,,,,,,,,,,,,,,,,,,,,
,,,,5f5c4b9c062e0f43a15ed050,A,2024-07-01_08h58.14.277,Slot Machine Game,2023.1.3,Win32,59.88023952,,,,,,,,,,,,,,,,,"[6,15]","[[1,3,2],[3,1,2]]",281.2437,0,0.284,,left,1.5,,stimuli/card_10_transparent.png,10,10,0,0,0,0,1,,276.2428,,,,,,,,,,,,,,,,,,,,,,,,,,,,,,,,,,,,,,,,,,
,,,,5f5c4b9c062e0f43a15ed050,A,2024-07-01_08h58.14.277,Slot Machine Game,2023.1.3,Win32,59.88023952,,,,,,,,,,,,,,,,,,,283.8529,1,0.2876,,left,1,,stimuli/card_100_transparent.png,110,100,1,0,1,0,1,,,,,,,,,,,,,,,,,,,,,,,,,,,,,,,,,,,,,,,,,,,,
,,,,5f5c4b9c062e0f43a15ed050,A,2024-07-01_08h58.14.277,Slot Machine Game,2023.1.3,Win32,59.88023952,,,,,,,,,,,,,,,,,,,285.9532,2,0.8337,,left,1.5,,stimuli/card_100_transparent.png,210,100,2,0,2,0,1,,,,,,,,,,,,,,,,,,,,,,,,,,,,,,,,,,,,,,,,,,,,
,,,,5f5c4b9c062e0f43a15ed050,A,2024-07-01_08h58.14.277,Slot Machine Game,2023.1.3,Win32,59.88023952,,,,,,,,,,,,,,,,,,,289.1196,3,0.252,,left,1.5,,stimuli/card_100_transparent.png,310,100,3,0,3,0,1,,,,,,,,,,,,,,,,,,,,,,,,,,,,,,,,,,,,,,,,,,,,
,,,,5f5c4b9c062e0f43a15ed050,A,2024-07-01_08h58.14.277,Slot Machine Game,2023.1.3,Win32,59.88023952,,,,,,,,,,,,,,,,,,,291.7029,4,0.2337,,left,1,,stimuli/card_100_transparent.png,410,100,4,0,4,0,1,,,,,,,,,,,,,,,,,,,,,,,,,,,,,,,,,,,,,,,,,,,,
,,,,5f5c4b9c062e0f43a15ed050,A,2024-07-01_08h58.14.277,Slot Machine Game,2023.1.3,Win32,59.88023952,,,,,,,,,,,,,,,,,,,293.7695,5,0.2841,,left,0.5,,stimuli/card_0_transparent.png,410,0,5,0,5,0,1,,,,,,,,,,,,,,,,,,,,,,,,,,,,,,,,,,,,,,,,,,,,
,,,,5f5c4b9c062e0f43a15ed050,A,2024-07-01_08h58.14.277,Slot Machine Game,2023.1.3,Win32,59.88023952,,,,,,,,,,,,,,,,,,,295.3864,6,0.1499,,left,1,,stimuli/card_0_transparent.png,410,0,6,0,6,0,1,,,,,,,,,,,,,,,,,,,,,,,,,,,,,,,,,,,,,,,,,,,,
,,,,5f5c4b9c062e0f43a15ed050,A,2024-07-01_08h58.14.277,Slot Machine Game,2023.1.3,Win32,59.88023952,,,,,,,,,,,,,,,,,,,297.353,7,0.1003,,left,1.5,,stimuli/card_0_transparent.png,410,0,7,0,7,0,1,,,,,,,,,,,,,,,,,,,,,,,,,,,,,,,,,,,,,,,,,,,,
,,,,5f5c4b9c062e0f43a15ed050,A,2024-07-01_08h58.14.277,Slot Machine Game,2023.1.3,Win32,59.88023952,,,,,,,,,,,,,,,,,,,299.803,8,0.1561,,left,1.5,,stimuli/card_100_transparent.png,510,100,8,0,8,0,1,,,,,,,,,,,,,,,,,,,,,,,,,,,,,,,,,,,,,,,,,,,,
,,,,5f5c4b9c062e0f43a15ed050,A,2024-07-01_08h58.14.277,Slot Machine Game,2023.1.3,Win32,59.88023952,,,,,,,,,,,,,,,,,,,302.3029,9,0.3488,,left,1,,stimuli/card_100_transparent.png,610,100,9,0,9,0,1,,,,,,,,,,,,,,,,,,,,,,,,,,,,,,,,,,,,,,,,,,,,
,,,,5f5c4b9c062e0f43a15ed050,A,2024-07-01_08h58.14.277,Slot Machine Game,2023.1.3,Win32,59.88023952,,,,,,,,,,,,,,,,,,,304.4861,10,0.1003,,left,1,,stimuli/card_0_transparent.png,610,0,10,0,10,0,1,,,,,,,,,,,,,,,,,,,,,,,,,,,,,,,,,,,,,,,,,,,,
,,,,5f5c4b9c062e0f43a15ed050,A,2024-07-01_08h58.14.277,Slot Machine Game,2023.1.3,Win32,59.88023952,,,,,,,,,,,,,,,,,,,306.4029,11,0.7097,,left,1.5,,stimuli/card_10_transparent.png,620,10,11,0,11,0,1,,,,,,,,,,,,,,,,,,,,,,,,,,,,,,,,,,,,,,,,,,,,
,,,,5f5c4b9c062e0f43a15ed050,A,2024-07-01_08h58.14.277,Slot Machine Game,2023.1.3,Win32,59.88023952,,,,,,,,,,,,,,,,,,,309.4194,12,0.3843,,left,1.5,,stimuli/card_0_transparent.png,620,0,12,0,12,0,1,,,,,,,,,,,,,,,,,,,,,,,,,,,,,,,,,,,,,,,,,,,,
,,,,5f5c4b9c062e0f43a15ed050,A,2024-07-01_08h58.14.277,Slot Machine Game,2023.1.3,Win32,59.88023952,,,,,,,,,,,,,,,,,,,312.1195,13,0.2162,,up,1,,stimuli/card_100_transparent.png,720,100,13,0,13,0,1,,,,,,,,,,,,,,,,,,,,,,,,,,,,,,,,,,,,,,,,,,,,
,,,,5f5c4b9c062e0f43a15ed050,A,2024-07-01_08h58.14.277,Slot Machine Game,2023.1.3,Win32,59.88023952,,,,,,,,,,,,,,,,,,,314.1695,14,0.0669,,up,0.5,,stimuli/card_100_transparent.png,820,100,14,0,14,0,1,,,,,,,,,,,,,,,,,,,,,,,,,,,,,,,,,,,,,,,,,,,,
,,,,5f5c4b9c062e0f43a15ed050,A,2024-07-01_08h58.14.277,Slot Machine Game,2023.1.3,Win32,59.88023952,,,,,,,,,,,,,,,,,,,,,,,,,,,,,,,,,,,315.5695,,,320.5734,space,4.7216,,,,,,,,,,,,,,,,,,,,,,,,,,,,,,,,,,,,,
,,,,5f5c4b9c062e0f43a15ed050,A,2024-07-01_08h58.14.277,Slot Machine Game,2023.1.3,Win32,59.88023952,,,,,,,,,,,,,,,,,,,,,,,,,,,,,,,,,,,,,,,,,,325.3202,3,"[0,4,6,3,5,7,8,1,9,2]",space,2.0207,,,,,,,,,,,,,,,,,,,,,,,,,,,,,,,
,,,,5f5c4b9c062e0f43a15ed050,A,2024-07-01_08h58.14.277,Slot Machine Game,2023.1.3,Win32,59.88023952,,,,,,,,,,,,,,,,,,,,,,,,,,,10,,,,,,,,,,,,,,,,,,,,,1,1,"[12,15]","[[2,1,3],[2,3,1]]",327.3773,0,left,0.0337,,1.5,0.3,"[2,1,3]",0.300536171,stimuli/card_10_transparent.png,10,0,0,0,0,1,,,,,,,,,,
,,,,5f5c4b9c062e0f43a15ed050,A,2024-07-01_08h58.14.277,Slot Machine Game,2023.1.3,Win32,59.88023952,,,,,,,,,,,,,,,,,,,,,,,,,,,20,,,,,,,,,,,,,,,,,,,,,1,1,,,329.753,1,left,0.1824,,1,0.3,"[2,1,3]",0.500813931,stimuli/card_10_transparent.png,10,1,0,1,0,1,,,,,,,,,,
,,,,5f5c4b9c062e0f43a15ed050,A,2024-07-01_08h58.14.277,Slot Machine Game,2023.1.3,Win32,59.88023952,,,,,,,,,,,,,,,,,,,,,,,,,,,120,,,,,,,,,,,,,,,,,,,,,1,1,,,331.7694,2,up,0.2492,,0.5,0.3,"[2,1,3]",0.816272302,stimuli/card_100_transparent.png,100,2,0,2,0,1,,,,,,,,,,
,,,,5f5c4b9c062e0f43a15ed050,A,2024-07-01_08h58.14.277,Slot Machine Game,2023.1.3,Win32,59.88023952,,,,,,,,,,,,,,,,,,,,,,,,,,,220,,,,,,,,,,,,,,,,,,,,,1,1,,,333.3362,3,up,0.0003,,1,0.3,"[2,1,3]",0.259584196,stimuli/card_100_transparent.png,100,3,0,3,0,1,,,,,,,,,,
,,,,5f5c4b9c062e0f43a15ed050,A,2024-07-01_08h58.14.277,Slot Machine Game,2023.1.3,Win32,59.88023952,,,,,,,,,,,,,,,,,,,,,,,,,,,230,,,,,,,,,,,,,,,,,,,,,1,1,,,335.1694,4,up,0.0161,,1,0.3,"[2,1,3]",0.193539268,stimuli/card_10_transparent.png,10,4,0,4,0,1,,,,,,,,,,
,,,,5f5c4b9c062e0f43a15ed050,A,2024-07-01_08h58.14.277,Slot Machine Game,2023.1.3,Win32,59.88023952,,,,,,,,,,,,,,,,,,,,,,,,,,,230,,,,,,,,,,,,,,,,,,,,,1,1,,,337.0194,5,up,0.9678,,1.5,0.3,"[2,1,3]",0.037802909,stimuli/card_0_transparent.png,0,5,0,5,0,1,,,,,,,,,,
,,,,5f5c4b9c062e0f43a15ed050,A,2024-07-01_08h58.14.277,Slot Machine Game,2023.1.3,Win32,59.88023952,,,,,,,,,,,,,,,,,,,,,,,,,,,330,,,,,,,,,,,,,,,,,,,,,1,1,,,340.3194,6,up,0.1892,,0.5,0.3,"[2,1,3]",0.372305438,stimuli/card_100_transparent.png,100,6,0,6,0,1,,,,,,,,,,
,,,,5f5c4b9c062e0f43a15ed050,A,2024-07-01_08h58.14.277,Slot Machine Game,2023.1.3,Win32,59.88023952,,,,,,,,,,,,,,,,,,,,,,,,,,,430,,,,,,,,,,,,,,,,,,,,,1,1,,,341.8526,7,up,0.6352,,1,0.3,"[2,1,3]",0.486811959,stimuli/card_100_transparent.png,100,7,0,7,0,1,,,,,,,,,,
,,,,5f5c4b9c062e0f43a15ed050,A,2024-07-01_08h58.14.277,Slot Machine Game,2023.1.3,Win32,59.88023952,,,,,,,,,,,,,,,,,,,,,,,,,,,430,,,,,,,,,,,,,,,,,,,,,1,1,,,344.3193,8,up,0.1838,,1,0.3,"[2,1,3]",0.078523987,stimuli/card_0_transparent.png,0,8,0,8,0,1,,,,,,,,,,
,,,,5f5c4b9c062e0f43a15ed050,A,2024-07-01_08h58.14.277,Slot Machine Game,2023.1.3,Win32,59.88023952,,,,,,,,,,,,,,,,,,,,,,,,,,,530,,,,,,,,,,,,,,,,,,,,,1,1,,,346.336,9,up,0.3008,,1.5,0.3,"[2,1,3]",0.678688175,stimuli/card_100_transparent.png,100,9,0,9,0,1,,,,,,,,,,
,,,,5f5c4b9c062e0f43a15ed050,A,2024-07-01_08h58.14.277,Slot Machine Game,2023.1.3,Win32,59.88023952,,,,,,,,,,,,,,,,,,,,,,,,,,,630,,,,,,,,,,,,,,,,,,,,,1,1,,,348.9859,10,up,0.1005,,1,0.3,"[2,1,3]",0.855104902,stimuli/card_100_transparent.png,100,10,0,10,0,1,,,,,,,,,,
,,,,5f5c4b9c062e0f43a15ed050,A,2024-07-01_08h58.14.277,Slot Machine Game,2023.1.3,Win32,59.88023952,,,,,,,,,,,,,,,,,,,,,,,,,,,730,,,,,,,,,,,,,,,,,,,,,1,1,,,350.9193,11,up,0.1207,,1,0.3,"[2,1,3]",0.971939146,stimuli/card_100_transparent.png,100,11,0,11,0,1,,,,,,,,,,
,,,,5f5c4b9c062e0f43a15ed050,A,2024-07-01_08h58.14.277,Slot Machine Game,2023.1.3,Win32,59.88023952,,,,,,,,,,,,,,,,,,,,,,,,,,,730,,,,,,,,,,,,,,,,,,,,,1,1,,,352.8859,12,up,0.2442,,1.5,0.3,"[2,3,1]",0.889912485,stimuli/card_0_transparent.png,0,12,0,12,0,1,,,,,,,,,,
,,,,5f5c4b9c062e0f43a15ed050,A,2024-07-01_08h58.14.277,Slot Machine Game,2023.1.3,Win32,59.88023952,,,,,,,,,,,,,,,,,,,,,,,,,,,730,,,,,,,,,,,,,,,,,,,,,1,1,,,355.4527,13,up,0.1241,,0.5,0.3,"[2,3,1]",0.563841859,stimuli/card_0_transparent.png,0,13,0,13,0,1,,,,,,,,,,
,,,,5f5c4b9c062e0f43a15ed050,A,2024-07-01_08h58.14.277,Slot Machine Game,2023.1.3,Win32,59.88023952,,,,,,,,,,,,,,,,,,,,,,,,,,,730,,,,,,,,,,,,,,,,,,,,,1,1,,,356.903,14,up,0.1101,,1,0.3,"[2,3,1]",0.941841954,stimuli/card_0_transparent.png,0,14,0,14,0,1,,,,,,,,,,
,,,,5f5c4b9c062e0f43a15ed050,A,2024-07-01_08h58.14.277,Slot Machine Game,2023.1.3,Win32,59.88023952,,,,,,,,,,,,,,,,,,,,,,,,,,,,,,,,,,,358.836,,,,,,,,,,,,,,,,,,,,,,,,,,,,,,,,,[730],0,0,0,0,1,,,,
,,,,5f5c4b9c062e0f43a15ed050,A,2024-07-01_08h58.14.277,Slot Machine Game,2023.1.3,Win32,59.88023952,,,,,,,,,,,,,,,,,,,,,,,,,,,10,,,,,,,,,,,,,,,,,,,,,2,5,"[5,15]","[[1,2,3],[3,1,2]]",363.8426,0,left,0.3005,,0.5,0.3,"[1,2,3]",0.146985647,stimuli/card_10_transparent.png,10,0,0,0,0,1,,,,,,,,,,
,,,,5f5c4b9c062e0f43a15ed050,A,2024-07-01_08h58.14.277,Slot Machine Game,2023.1.3,Win32,59.88023952,,,,,,,,,,,,,,,,,,,,,,,,,,,110,,,,,,,,,,,,,,,,,,,,,2,5,,,365.5003,1,left,0.5174,,1.5,0.3,"[1,2,3]",0.452067695,stimuli/card_100_transparent.png,100,1,0,1,0,1,,,,,,,,,,
,,,,5f5c4b9c062e0f43a15ed050,A,2024-07-01_08h58.14.277,Slot Machine Game,2023.1.3,Win32,59.88023952,,,,,,,,,,,,,,,,,,,,,,,,,,,210,,,,,,,,,,,,,,,,,,,,,2,5,,,368.3544,2,left,0.0002,,0.5,0.3,"[1,2,3]",0.22679782,stimuli/card_100_transparent.png,100,2,0,2,0,1,,,,,,,,,,
,,,,5f5c4b9c062e0f43a15ed050,A,2024-07-01_08h58.14.277,Slot Machine Game,2023.1.3,Win32,59.88023952,,,,,,,,,,,,,,,,,,,,,,,,,,,310,,,,,,,,,,,,,,,,,,,,,2,5,,,369.6728,3,left,0.5503,,0.5,0.3,"[1,2,3]",0.852121222,stimuli/card_100_transparent.png,100,3,0,3,0,1,,,,,,,,,,
,,,,5f5c4b9c062e0f43a15ed050,A,2024-07-01_08h58.14.277,Slot Machine Game,2023.1.3,Win32,59.88023952,,,,,,,,,,,,,,,,,,,,,,,,,,,410,,,,,,,,,,,,,,,,,,,,,2,5,,,371.5568,4,left,0.3507,,1,0.3,"[1,2,3]",0.470797539,stimuli/card_100_transparent.png,100,4,0,4,0,1,,,,,,,,,,
,,,,5f5c4b9c062e0f43a15ed050,A,2024-07-01_08h58.14.277,Slot Machine Game,2023.1.3,Win32,59.88023952,,,,,,,,,,,,,,,,,,,,,,,,,,,410,,,,,,,,,,,,,,,,,,,,,2,5,,,373.7258,5,left,0.0837,,0.5,0.3,"[3,1,2]",0.585234616,stimuli/card_0_transparent.png,0,5,0,5,0,1,,,,,,,,,,
,,,,5f5c4b9c062e0f43a15ed050,A,2024-07-01_08h58.14.277,Slot Machine Game,2023.1.3,Win32,59.88023952,,,,,,,,,,,,,,,,,,,,,,,,,,,410,,,,,,,,,,,,,,,,,,,,,2,5,,,375.1271,6,left,0.2171,,1,0.3,"[3,1,2]",0.558395203,stimuli/card_0_transparent.png,0,6,0,6,0,1,,,,,,,,,,
,,,,5f5c4b9c062e0f43a15ed050,A,2024-07-01_08h58.14.277,Slot Machine Game,2023.1.3,Win32,59.88023952,,,,,,,,,,,,,,,,,,,,,,,,,,,410,,,,,,,,,,,,,,,,,,,,,2,5,,,377.1624,7,left,0.017,,1,0.3,"[3,1,2]",0.89337244,stimuli/card_0_transparent.png,0,7,0,7,0,1,,,,,,,,,,
,,,,5f5c4b9c062e0f43a15ed050,A,2024-07-01_08h58.14.277,Slot Machine Game,2023.1.3,Win32,59.88023952,,,,,,,,,,,,,,,,,,,,,,,,,,,420,,,,,,,,,,,,,,,,,,,,,2,5,,,378.9976,8,up,0.4007,,1.5,0.3,"[3,1,2]",0.153314474,stimuli/card_10_transparent.png,10,8,0,8,0,1,,,,,,,,,,
,,,,5f5c4b9c062e0f43a15ed050,A,2024-07-01_08h58.14.277,Slot Machine Game,2023.1.3,Win32,59.88023952,,,,,,,,,,,,,,,,,,,,,,,,,,,520,,,,,,,,,,,,,,,,,,,,,2,5,,,381.7171,9,up,0.384,,1.5,0.3,"[3,1,2]",0.918267028,stimuli/card_100_transparent.png,100,9,0,9,0,1,,,,,,,,,,
,,,,5f5c4b9c062e0f43a15ed050,A,2024-07-01_08h58.14.277,Slot Machine Game,2023.1.3,Win32,59.88023952,,,,,,,,,,,,,,,,,,,,,,,,,,,620,,,,,,,,,,,,,,,,,,,,,2,5,,,384.4193,10,up,0.2129,,0.5,0.3,"[3,1,2]",0.762052701,stimuli/card_100_transparent.png,100,10,0,10,0,1,,,,,,,,,,
,,,,5f5c4b9c062e0f43a15ed050,A,2024-07-01_08h58.14.277,Slot Machine Game,2023.1.3,Win32,59.88023952,,,,,,,,,,,,,,,,,,,,,,,,,,,720,,,,,,,,,,,,,,,,,,,,,2,5,,,385.9361,11,up,1.5682,,1,0.3,"[3,1,2]",0.682505363,stimuli/card_100_transparent.png,100,11,0,11,0,1,,,,,,,,,,
,,,,5f5c4b9c062e0f43a15ed050,A,2024-07-01_08h58.14.277,Slot Machine Game,2023.1.3,Win32,59.88023952,,,,,,,,,,,,,,,,,,,,,,,,,,,820,,,,,,,,,,,,,,,,,,,,,2,5,,,389.3192,12,up,2.1564,,1.5,0.3,"[3,1,2]",0.302802004,stimuli/card_100_transparent.png,100,12,0,12,0,1,,,,,,,,,,
,,,,5f5c4b9c062e0f43a15ed050,A,2024-07-01_08h58.14.277,Slot Machine Game,2023.1.3,Win32,59.88023952,,,,,,,,,,,,,,,,,,,,,,,,,,,920,,,,,,,,,,,,,,,,,,,,,2,5,,,393.8194,13,up,0.769,,0.5,0.3,"[3,1,2]",0.297573472,stimuli/card_100_transparent.png,100,13,0,13,0,1,,,,,,,,,,
,,,,5f5c4b9c062e0f43a15ed050,A,2024-07-01_08h58.14.277,Slot Machine Game,2023.1.3,Win32,59.88023952,,,,,,,,,,,,,,,,,,,,,,,,,,,1020,,,,,,,,,,,,,,,,,,,,,2,5,,,395.9191,14,up,0.7509,,1.5,0.3,"[3,1,2]",0.512798355,stimuli/card_100_transparent.png,100,14,0,14,0,1,,,,,,,,,,
,,,,5f5c4b9c062e0f43a15ed050,A,2024-07-01_08h58.14.277,Slot Machine Game,2023.1.3,Win32,59.88023952,,,,,,,,,,,,,,,,,,,,,,,,,,,,,,,,,,,399.0024,,,,,,,,,,,,,,,,,,,,,,,,,,,,,,,,,"[730,1020]",1,0,1,0,1,,,,
,,,,5f5c4b9c062e0f43a15ed050,A,2024-07-01_08h58.14.277,Slot Machine Game,2023.1.3,Win32,59.88023952,,,,,,,,,,,,,,,,,,,,,,,,,,,,,,,,,,,,,,,,,,,,,,,,3,7,"[9,15]","[[1,3,2],[2,3,1]]",404.0095,0,,,,1.5,0.3,,,,,0,0,0,0,1,,,,,,,,,,
,,,,5f5c4b9c062e0f43a15ed050,A,2024-07-01_08h58.14.277,Slot Machine Game,2023.1.3,Win32,59.88023952,,,,,,,,,,,,,,,,,,,,,,,,,,,100,,,,,,,,,,,,,,,,,,,,,3,7,,,409.5288,1,left,2.5036,,1,0.3,"[1,3,2]",0.551917697,stimuli/card_100_transparent.png,100,1,0,1,0,1,,,,,,,,,,
,,,,5f5c4b9c062e0f43a15ed050,A,2024-07-01_08h58.14.277,Slot Machine Game,2023.1.3,Win32,59.88023952,,,,,,,,,,,,,,,,,,,,,,,,,,,200,,,,,,,,,,,,,,,,,,,,,3,7,,,413.8693,2,left,0.3839,,0.5,0.3,"[1,3,2]",0.286554552,stimuli/card_100_transparent.png,100,2,0,2,0,1,,,,,,,,,,
,,,,5f5c4b9c062e0f43a15ed050,A,2024-07-01_08h58.14.277,Slot Machine Game,2023.1.3,Win32,59.88023952,,,,,,,,,,,,,,,,,,,,,,,,,,,300,,,,,,,,,,,,,,,,,,,,,3,7,,,415.6023,3,left,0.3673,,1,0.3,"[1,3,2]",0.52672117,stimuli/card_100_transparent.png,100,3,0,3,0,1,,,,,,,,,,
,,,,5f5c4b9c062e0f43a15ed050,A,2024-07-01_08h58.14.277,Slot Machine Game,2023.1.3,Win32,59.88023952,,,,,,,,,,,,,,,,,,,,,,,,,,,400,,,,,,,,,,,,,,,,,,,,,3,7,,,417.8195,4,left,0.3672,,0.5,0.3,"[1,3,2]",0.65072646,stimuli/card_100_transparent.png,100,4,0,4,0,1,,,,,,,,,,
,,,,5f5c4b9c062e0f43a15ed050,A,2024-07-01_08h58.14.277,Slot Machine Game,2023.1.3,Win32,59.88023952,,,,,,,,,,,,,,,,,,,,,,,,,,,500,,,,,,,,,,,,,,,,,,,,,3,7,,,419.5056,5,left,0.167,,1,0.3,"[1,3,2]",0.419693674,stimuli/card_100_transparent.png,100,5,0,5,0,1,,,,,,,,,,
,,,,5f5c4b9c062e0f43a15ed050,A,2024-07-01_08h58.14.277,Slot Machine Game,2023.1.3,Win32,59.88023952,,,,,,,,,,,,,,,,,,,,,,,,,,,510,,,,,,,,,,,,,,,,,,,,,3,7,,,421.4898,6,left,0.117,,1,0.3,"[1,3,2]",0.120834449,stimuli/card_10_transparent.png,10,6,0,6,0,1,,,,,,,,,,
,,,,5f5c4b9c062e0f43a15ed050,A,2024-07-01_08h58.14.277,Slot Machine Game,2023.1.3,Win32,59.88023952,,,,,,,,,,,,,,,,,,,,,,,,,,,610,,,,,,,,,,,,,,,,,,,,,3,7,,,423.425,7,left,0.0504,,1,0.3,"[1,3,2]",0.316552382,stimuli/card_100_transparent.png,100,7,0,7,0,1,,,,,,,,,,
,,,,5f5c4b9c062e0f43a15ed050,A,2024-07-01_08h58.14.277,Slot Machine Game,2023.1.3,Win32,59.88023952,,,,,,,,,,,,,,,,,,,,,,,,,,,710,,,,,,,,,,,,,,,,,,,,,3,7,,,425.2936,8,left,0.4674,,1.5,0.3,"[1,3,2]",0.512420921,stimuli/card_100_transparent.png,100,8,0,8,0,1,,,,,,,,,,
,,,,5f5c4b9c062e0f43a15ed050,A,2024-07-01_08h58.14.277,Slot Machine Game,2023.1.3,Win32,59.88023952,,,,,,,,,,,,,,,,,,,,,,,,,,,720,,,,,,,,,,,,,,,,,,,,,3,7,,,428.0797,9,left,0.4839,,0.5,0.3,"[2,3,1]",0.449345091,stimuli/card_10_transparent.png,10,9,0,9,0,1,,,,,,,,,,
,,,,5f5c4b9c062e0f43a15ed050,A,2024-07-01_08h58.14.277,Slot Machine Game,2023.1.3,Win32,59.88023952,,,,,,,,,,,,,,,,,,,,,,,,,,,730,,,,,,,,,,,,,,,,,,,,,3,7,,,429.8815,10,left,0.2507,,1,0.3,"[2,3,1]",0.526513972,stimuli/card_10_transparent.png,10,10,0,10,0,1,,,,,,,,,,
,,,,5f5c4b9c062e0f43a15ed050,A,2024-07-01_08h58.14.277,Slot Machine Game,2023.1.3,Win32,59.88023952,,,,,,,,,,,,,,,,,,,,,,,,,,,740,,,,,,,,,,,,,,,,,,,,,3,7,,,431.9502,11,left,0.0504,,0.5,0.3,"[2,3,1]",0.681300579,stimuli/card_10_transparent.png,10,11,0,11,0,1,,,,,,,,,,
,,,,5f5c4b9c062e0f43a15ed050,A,2024-07-01_08h58.14.277,Slot Machine Game,2023.1.3,Win32,59.88023952,,,,,,,,,,,,,,,,,,,,,,,,,,,750,,,,,,,,,,,,,,,,,,,,,3,7,,,433.3189,12,left,0.1712,,1.5,0.3,"[2,3,1]",0.955966104,stimuli/card_10_transparent.png,10,12,0,12,0,1,,,,,,,,,,
,,,,5f5c4b9c062e0f43a15ed050,A,2024-07-01_08h58.14.277,Slot Machine Game,2023.1.3,Win32,59.88023952,,,,,,,,,,,,,,,,,,,,,,,,,,,750,,,,,,,,,,,,,,,,,,,,,3,7,,,435.8356,13,up,0.0255,,1,0.3,"[2,3,1]",0.508248785,stimuli/card_0_transparent.png,0,13,0,13,0,1,,,,,,,,,,
,,,,5f5c4b9c062e0f43a15ed050,A,2024-07-01_08h58.14.277,Slot Machine Game,2023.1.3,Win32,59.88023952,,,,,,,,,,,,,,,,,,,,,,,,,,,850,,,,,,,,,,,,,,,,,,,,,3,7,,,437.6857,14,right,0.4879,,0.5,0.3,"[2,3,1]",0.932660986,stimuli/card_100_transparent.png,100,14,0,14,0,1,,,,,,,,,,
,,,,5f5c4b9c062e0f43a15ed050,A,2024-07-01_08h58.14.277,Slot Machine Game,2023.1.3,Win32,59.88023952,,,,,,,,,,,,,,,,,,,,,,,,,,,,,,,,,,,439.5023,,,,,,,,,,,,,,,,,,,,,,,,,,,,,,,,,"[730,1020,850]",2,0,2,0,1,,,,
,,,,5f5c4b9c062e0f43a15ed050,A,2024-07-01_08h58.14.277,Slot Machine Game,2023.1.3,Win32,59.88023952,,,,,,,,,,,,,,,,,,,,,,,,,,,10,,,,,,,,,,,,,,,,,,,,,4,4,"[7,15]","[[2,3,1],[1,2,3]]",444.509,0,left,0.3005,,1.5,0.3,"[2,3,1]",0.860055088,stimuli/card_10_transparent.png,10,0,0,0,0,1,,,,,,,,,,
,,,,5f5c4b9c062e0f43a15ed050,A,2024-07-01_08h58.14.277,Slot Machine Game,2023.1.3,Win32,59.88023952,,,,,,,,,,,,,,,,,,,,,,,,,,,10,,,,,,,,,,,,,,,,,,,,,4,4,,,447.1191,1,up,0.3339,,1,0.3,"[2,3,1]",0.261417159,stimuli/card_0_transparent.png,0,1,0,1,0,1,,,,,,,,,,
,,,,5f5c4b9c062e0f43a15ed050,A,2024-07-01_08h58.14.277,Slot Machine Game,2023.1.3,Win32,59.88023952,,,,,,,,,,,,,,,,,,,,,,,,,,,110,,,,,,,,,,,,,,,,,,,,,4,4,,,449.3023,2,right,0.2839,,0.5,0.3,"[2,3,1]",0.680432175,stimuli/card_100_transparent.png,100,2,0,2,0,1,,,,,,,,,,
,,,,5f5c4b9c062e0f43a15ed050,A,2024-07-01_08h58.14.277,Slot Machine Game,2023.1.3,Win32,59.88023952,,,,,,,,,,,,,,,,,,,,,,,,,,,210,,,,,,,,,,,,,,,,,,,,,4,4,,,450.919,3,right,0.3113,,0.5,0.3,"[2,3,1]",0.679701824,stimuli/card_100_transparent.png,100,3,0,3,0,1,,,,,,,,,,
,,,,5f5c4b9c062e0f43a15ed050,A,2024-07-01_08h58.14.277,Slot Machine Game,2023.1.3,Win32,59.88023952,,,,,,,,,,,,,,,,,,,,,,,,,,,310,,,,,,,,,,,,,,,,,,,,,4,4,,,452.5522,4,right,0.0002,,1,0.3,"[2,3,1]",0.990010241,stimuli/card_100_transparent.png,100,4,0,4,0,1,,,,,,,,,,
,,,,5f5c4b9c062e0f43a15ed050,A,2024-07-01_08h58.14.277,Slot Machine Game,2023.1.3,Win32,59.88023952,,,,,,,,,,,,,,,,,,,,,,,,,,,410,,,,,,,,,,,,,,,,,,,,,4,4,,,454.3855,5,right,0.2574,,1,0.3,"[2,3,1]",0.368644849,stimuli/card_100_transparent.png,100,5,0,5,0,1,,,,,,,,,,
,,,,5f5c4b9c062e0f43a15ed050,A,2024-07-01_08h58.14.277,Slot Machine Game,2023.1.3,Win32,59.88023952,,,,,,,,,,,,,,,,,,,,,,,,,,,510,,,,,,,,,,,,,,,,,,,,,4,4,,,456.4522,6,right,0.2851,,1.5,0.3,"[2,3,1]",0.396988141,stimuli/card_100_transparent.png,100,6,0,6,0,1,,,,,,,,,,
,,,,5f5c4b9c062e0f43a15ed050,A,2024-07-01_08h58.14.277,Slot Machine Game,2023.1.3,Win32,59.88023952,,,,,,,,,,,,,,,,,,,,,,,,,,,510,,,,,,,,,,,,,,,,,,,,,4,4,,,459.0689,7,right,0.4387,,1.5,0.3,"[1,2,3]",0.498668756,stimuli/card_0_transparent.png,0,7,0,7,0,1,,,,,,,,,,
,,,,5f5c4b9c062e0f43a15ed050,A,2024-07-01_08h58.14.277,Slot Machine Game,2023.1.3,Win32,59.88023952,,,,,,,,,,,,,,,,,,,,,,,,,,,510,,,,,,,,,,,,,,,,,,,,,4,4,,,461.8356,8,right,0.4345,,1,0.3,"[1,2,3]",0.74708399,stimuli/card_0_transparent.png,0,8,0,8,0,1,,,,,,,,,,
,,,,5f5c4b9c062e0f43a15ed050,A,2024-07-01_08h58.14.277,Slot Machine Game,2023.1.3,Win32,59.88023952,,,,,,,,,,,,,,,,,,,,,,,,,,,610,,,,,,,,,,,,,,,,,,,,,4,4,,,464.1188,9,left,0.2341,,1.5,0.3,"[1,2,3]",0.248039624,stimuli/card_100_transparent.png,100,9,0,9,0,1,,,,,,,,,,
,,,,5f5c4b9c062e0f43a15ed050,A,2024-07-01_08h58.14.277,Slot Machine Game,2023.1.3,Win32,59.88023952,,,,,,,,,,,,,,,,,,,,,,,,,,,610,,,,,,,,,,,,,,,,,,,,,4,4,,,466.6855,10,left,0.3513,,1,0.3,"[1,2,3]",0.004479918,stimuli/card_0_transparent.png,0,10,0,10,0,1,,,,,,,,,,
,,,,5f5c4b9c062e0f43a15ed050,A,2024-07-01_08h58.14.277,Slot Machine Game,2023.1.3,Win32,59.88023952,,,,,,,,,,,,,,,,,,,,,,,,,,,710,,,,,,,,,,,,,,,,,,,,,4,4,,,468.8868,11,left,0.2504,,0.5,0.3,"[1,2,3]",0.926142909,stimuli/card_100_transparent.png,100,11,0,11,0,1,,,,,,,,,,
,,,,5f5c4b9c062e0f43a15ed050,A,2024-07-01_08h58.14.277,Slot Machine Game,2023.1.3,Win32,59.88023952,,,,,,,,,,,,,,,,,,,,,,,,,,,810,,,,,,,,,,,,,,,,,,,,,4,4,,,470.455,12,left,0.5338,,1,0.3,"[1,2,3]",0.898801045,stimuli/card_100_transparent.png,100,12,0,12,0,1,,,,,,,,,,
,,,,5f5c4b9c062e0f43a15ed050,A,2024-07-01_08h58.14.277,Slot Machine Game,2023.1.3,Win32,59.88023952,,,,,,,,,,,,,,,,,,,,,,,,,,,910,,,,,,,,,,,,,,,,,,,,,4,4,,,472.8073,13,left,0.9177,,0.5,0.3,"[1,2,3]",0.841917203,stimuli/card_100_transparent.png,100,13,0,13,0,1,,,,,,,,,,
,,,,5f5c4b9c062e0f43a15ed050,A,2024-07-01_08h58.14.277,Slot Machine Game,2023.1.3,Win32,59.88023952,,,,,,,,,,,,,,,,,,,,,,,,,,,1010,,,,,,,,,,,,,,,,,,,,,4,4,,,475.0429,14,left,0.384,,1,0.3,"[1,2,3]",0.837522577,stimuli/card_100_transparent.png,100,14,0,14,0,1,,,,,,,,,,
,,,,5f5c4b9c062e0f43a15ed050,A,2024-07-01_08h58.14.277,Slot Machine Game,2023.1.3,Win32,59.88023952,,,,,,,,,,,,,,,,,,,,,,,,,,,,,,,,,,,477.2451,,,,,,,,,,,,,,,,,,,,,,,,,,,,,,,,,"[730,1020,850,1010]",3,0,3,0,1,,,,
,,,,5f5c4b9c062e0f43a15ed050,A,2024-07-01_08h58.14.277,Slot Machine Game,2023.1.3,Win32,59.88023952,,,,,,,,,,,,,,,,,,,,,,,,,,,10,,,,,,,,,,,,,,,,,,,,,5,6,"[4,10,15]","[[2,3,1],[1,3,2],[3,2,1]]",482.2424,0,left,0.4844,,1,0.3,"[2,3,1]",0.427846881,stimuli/card_10_transparent.png,10,0,0,0,0,1,,,,,,,,,,
,,,,5f5c4b9c062e0f43a15ed050,A,2024-07-01_08h58.14.277,Slot Machine Game,2023.1.3,Win32,59.88023952,,,,,,,,,,,,,,,,,,,,,,,,,,,10,,,,,,,,,,,,,,,,,,,,,5,6,,,484.569,1,up,0.1021,,1.5,0.3,"[2,3,1]",0.455041741,stimuli/card_0_transparent.png,0,1,0,1,0,1,,,,,,,,,,
,,,,5f5c4b9c062e0f43a15ed050,A,2024-07-01_08h58.14.277,Slot Machine Game,2023.1.3,Win32,59.88023952,,,,,,,,,,,,,,,,,,,,,,,,,,,110,,,,,,,,,,,,,,,,,,,,,5,6,,,487.0022,2,right,0.0886,,0.5,0.3,"[2,3,1]",0.526116803,stimuli/card_100_transparent.png,100,2,0,2,0,1,,,,,,,,,,
,,,,5f5c4b9c062e0f43a15ed050,A,2024-07-01_08h58.14.277,Slot Machine Game,2023.1.3,Win32,59.88023952,,,,,,,,,,,,,,,,,,,,,,,,,,,210,,,,,,,,,,,,,,,,,,,,,5,6,,,488.4021,3,right,0.0232,,0.5,0.3,"[2,3,1]",0.53883672,stimuli/card_100_transparent.png,100,3,0,3,0,1,,,,,,,,,,
,,,,5f5c4b9c062e0f43a15ed050,A,2024-07-01_08h58.14.277,Slot Machine Game,2023.1.3,Win32,59.88023952,,,,,,,,,,,,,,,,,,,,,,,,,,,220,,,,,,,,,,,,,,,,,,,,,5,6,,,489.7687,4,right,0.1338,,0.5,0.3,"[1,3,2]",0.843803696,stimuli/card_10_transparent.png,10,4,0,4,0,1,,,,,,,,,,
,,,,5f5c4b9c062e0f43a15ed050,A,2024-07-01_08h58.14.277,Slot Machine Game,2023.1.3,Win32,59.88023952,,,,,,,,,,,,,,,,,,,,,,,,,,,230,,,,,,,,,,,,,,,,,,,,,5,6,,,491.2188,5,right,0.8912,,1,0.3,"[1,3,2]",0.251805655,stimuli/card_10_transparent.png,10,5,0,5,0,1,,,,,,,,,,
,,,,5f5c4b9c062e0f43a15ed050,A,2024-07-01_08h58.14.277,Slot Machine Game,2023.1.3,Win32,59.88023952,,,,,,,,,,,,,,,,,,,,,,,,,,,240,,,,,,,,,,,,,,,,,,,,,5,6,,,493.9523,6,right,0.1171,,0.5,0.3,"[1,3,2]",0.258516553,stimuli/card_10_transparent.png,10,6,0,6,0,1,,,,,,,,,,
,,,,5f5c4b9c062e0f43a15ed050,A,2024-07-01_08h58.14.277,Slot Machine Game,2023.1.3,Win32,59.88023952,,,,,,,,,,,,,,,,,,,,,,,,,,,340,,,,,,,,,,,,,,,,,,,,,5,6,,,495.402,7,left,0.2661,,0.5,0.3,"[1,3,2]",0.387312664,stimuli/card_100_transparent.png,100,7,0,7,0,1,,,,,,,,,,
,,,,5f5c4b9c062e0f43a15ed050,A,2024-07-01_08h58.14.277,Slot Machine Game,2023.1.3,Win32,59.88023952,,,,,,,,,,,,,,,,,,,,,,,,,,,440,,,,,,,,,,,,,,,,,,,,,5,6,,,496.9853,8,left,0.5343,,0.5,0.3,"[1,3,2]",0.451686861,stimuli/card_100_transparent.png,100,8,0,8,0,1,,,,,,,,,,
,,,,5f5c4b9c062e0f43a15ed050,A,2024-07-01_08h58.14.277,Slot Machine Game,2023.1.3,Win32,59.88023952,,,,,,,,,,,,,,,,,,,,,,,,,,,440,,,,,,,,,,,,,,,,,,,,,5,6,,,498.8519,9,left,0.1337,,0.5,0.3,"[1,3,2]",0.053197652,stimuli/card_0_transparent.png,0,9,0,9,0,1,,,,,,,,,,
,,,,5f5c4b9c062e0f43a15ed050,A,2024-07-01_08h58.14.277,Slot Machine Game,2023.1.3,Win32,59.88023952,,,,,,,,,,,,,,,,,,,,,,,,,,,440,,,,,,,,,,,,,,,,,,,,,5,6,,,500.3187,10,left,0.4509,,1.5,0.3,"[3,2,1]",0.948153632,stimuli/card_0_transparent.png,0,10,0,10,0,1,,,,,,,,,,
,,,,5f5c4b9c062e0f43a15ed050,A,2024-07-01_08h58.14.277,Slot Machine Game,2023.1.3,Win32,59.88023952,,,,,,,,,,,,,,,,,,,,,,,,,,,450,,,,,,,,,,,,,,,,,,,,,5,6,,,503.1048,11,up,0.4174,,0.5,0.3,"[3,2,1]",0.958616394,stimuli/card_10_transparent.png,10,11,0,11,0,1,,,,,,,,,,
,,,,5f5c4b9c062e0f43a15ed050,A,2024-07-01_08h58.14.277,Slot Machine Game,2023.1.3,Win32,59.88023952,,,,,,,,,,,,,,,,,,,,,,,,,,,550,,,,,,,,,,,,,,,,,,,,,5,6,,,504.8559,12,right,0.2673,,0.5,0.3,"[3,2,1]",0.258351532,stimuli/card_100_transparent.png,100,12,0,12,0,1,,,,,,,,,,
,,,,5f5c4b9c062e0f43a15ed050,A,2024-07-01_08h58.14.277,Slot Machine Game,2023.1.3,Win32,59.88023952,,,,,,,,,,,,,,,,,,,,,,,,,,,650,,,,,,,,,,,,,,,,,,,,,5,6,,,506.4408,13,right,0.3841,,0.5,0.3,"[3,2,1]",0.87369046,stimuli/card_100_transparent.png,100,13,0,13,0,1,,,,,,,,,,
,,,,5f5c4b9c062e0f43a15ed050,A,2024-07-01_08h58.14.277,Slot Machine Game,2023.1.3,Win32,59.88023952,,,,,,,,,,,,,,,,,,,,,,,,,,,660,,,,,,,,,,,,,,,,,,,,,5,6,,,508.1424,14,right,0.1671,,1.5,0.3,"[3,2,1]",0.125925455,stimuli/card_10_transparent.png,10,14,0,14,0,1,,,,,,,,,,
,,,,5f5c4b9c062e0f43a15ed050,A,2024-07-01_08h58.14.277,Slot Machine Game,2023.1.3,Win32,59.88023952,,,,,,,,,,,,,,,,,,,,,,,,,,,,,,,,,,,510.6282,,,,,,,,,,,,,,,,,,,,,,,,,,,,,,,,,"[730,1020,850,1010,660]",4,0,4,0,1,,,,
,,,,5f5c4b9c062e0f43a15ed050,A,2024-07-01_08h58.14.277,Slot Machine Game,2023.1.3,Win32,59.88023952,,,,,,,,,,,,,,,,,,,,,,,,,,,10,,,,,,,,,,,,,,,,,,,,,6,8,"[11,15]","[[2,1,3],[1,2,3]]",515.6234,0,left,0.1183,,1,0.3,"[2,1,3]",0.653828842,stimuli/card_10_transparent.png,10,0,0,0,0,1,,,,,,,,,,
,,,,5f5c4b9c062e0f43a15ed050,A,2024-07-01_08h58.14.277,Slot Machine Game,2023.1.3,Win32,59.88023952,,,,,,,,,,,,,,,,,,,,,,,,,,,110,,,,,,,,,,,,,,,,,,,,,6,8,,,517.5854,1,up,0.4178,,1,0.3,"[2,1,3]",0.884934526,stimuli/card_100_transparent.png,100,1,0,1,0,1,,,,,,,,,,
,,,,5f5c4b9c062e0f43a15ed050,A,2024-07-01_08h58.14.277,Slot Machine Game,2023.1.3,Win32,59.88023952,,,,,,,,,,,,,,,,,,,,,,,,,,,210,,,,,,,,,,,,,,,,,,,,,6,8,,,519.8226,2,up,0.2505,,0.5,0.3,"[2,1,3]",0.789484981,stimuli/card_100_transparent.png,100,2,0,2,0,1,,,,,,,,,,
,,,,5f5c4b9c062e0f43a15ed050,A,2024-07-01_08h58.14.277,Slot Machine Game,2023.1.3,Win32,59.88023952,,,,,,,,,,,,,,,,,,,,,,,,,,,210,,,,,,,,,,,,,,,,,,,,,6,8,,,521.4057,3,up,0.1007,,1.5,0.3,"[2,1,3]",0.03919113,stimuli/card_0_transparent.png,0,3,0,3,0,1,,,,,,,,,,
,,,,5f5c4b9c062e0f43a15ed050,A,2024-07-01_08h58.14.277,Slot Machine Game,2023.1.3,Win32,59.88023952,,,,,,,,,,,,,,,,,,,,,,,,,,,210,,,,,,,,,,,,,,,,,,,,,6,8,,,523.8247,4,right,0.3839,,1.5,0.3,"[2,1,3]",0.379599297,stimuli/card_0_transparent.png,0,4,0,4,0,1,,,,,,,,,,
,,,,5f5c4b9c062e0f43a15ed050,A,2024-07-01_08h58.14.277,Slot Machine Game,2023.1.3,Win32,59.88023952,,,,,,,,,,,,,,,,,,,,,,,,,,,220,,,,,,,,,,,,,,,,,,,,,6,8,,,526.5272,5,left,0.2842,,1,0.3,"[2,1,3]",0.80356512,stimuli/card_10_transparent.png,10,5,0,5,0,1,,,,,,,,,,
,,,,5f5c4b9c062e0f43a15ed050,A,2024-07-01_08h58.14.277,Slot Machine Game,2023.1.3,Win32,59.88023952,,,,,,,,,,,,,,,,,,,,,,,,,,,320,,,,,,,,,,,,,,,,,,,,,6,8,,,528.6294,6,up,0.4006,,1,0.3,"[2,1,3]",0.411416038,stimuli/card_100_transparent.png,100,6,0,6,0,1,,,,,,,,,,
,,,,5f5c4b9c062e0f43a15ed050,A,2024-07-01_08h58.14.277,Slot Machine Game,2023.1.3,Win32,59.88023952,,,,,,,,,,,,,,,,,,,,,,,,,,,320,,,,,,,,,,,,,,,,,,,,,6,8,,,530.8483,7,up,0.1341,,1.5,0.3,"[2,1,3]",0.006600721,stimuli/card_0_transparent.png,0,7,0,7,0,1,,,,,,,,,,
,,,,5f5c4b9c062e0f43a15ed050,A,2024-07-01_08h58.14.277,Slot Machine Game,2023.1.3,Win32,59.88023952,,,,,,,,,,,,,,,,,,,,,,,,,,,420,,,,,,,,,,,,,,,,,,,,,6,8,,,533.3008,8,up,0.2005,,1,0.3,"[2,1,3]",0.90147321,stimuli/card_100_transparent.png,100,8,0,8,0,1,,,,,,,,,,
,,,,5f5c4b9c062e0f43a15ed050,A,2024-07-01_08h58.14.277,Slot Machine Game,2023.1.3,Win32,59.88023952,,,,,,,,,,,,,,,,,,,,,,,,,,,520,,,,,,,,,,,,,,,,,,,,,6,8,,,535.3186,9,up,0.187,,1.5,0.3,"[2,1,3]",0.481918961,stimuli/card_100_transparent.png,100,9,0,9,0,1,,,,,,,,,,
,,,,5f5c4b9c062e0f43a15ed050,A,2024-07-01_08h58.14.277,Slot Machine Game,2023.1.3,Win32,59.88023952,,,,,,,,,,,,,,,,,,,,,,,,,,,530,,,,,,,,,,,,,,,,,,,,,6,8,,,537.852,10,up,0.6509,,0.5,0.3,"[2,1,3]",0.195974361,stimuli/card_10_transparent.png,10,10,0,10,0,1,,,,,,,,,,
,,,,5f5c4b9c062e0f43a15ed050,A,2024-07-01_08h58.14.277,Slot Machine Game,2023.1.3,Win32,59.88023952,,,,,,,,,,,,,,,,,,,,,,,,,,,540,,,,,,,,,,,,,,,,,,,,,6,8,,,539.8186,11,up,0.0769,,0.5,0.3,"[1,2,3]",0.389254106,stimuli/card_10_transparent.png,10,11,0,11,0,1,,,,,,,,,,
,,,,5f5c4b9c062e0f43a15ed050,A,2024-07-01_08h58.14.277,Slot Machine Game,2023.1.3,Win32,59.88023952,,,,,,,,,,,,,,,,,,,,,,,,,,,550,,,,,,,,,,,,,,,,,,,,,6,8,,,541.2351,12,up,0.0669,,0.5,0.3,"[1,2,3]",0.224020418,stimuli/card_10_transparent.png,10,12,0,12,0,1,,,,,,,,,,
,,,,5f5c4b9c062e0f43a15ed050,A,2024-07-01_08h58.14.277,Slot Machine Game,2023.1.3,Win32,59.88023952,,,,,,,,,,,,,,,,,,,,,,,,,,,650,,,,,,,,,,,,,,,,,,,,,6,8,,,542.6352,13,left,0.0336,,0.5,0.3,"[1,2,3]",0.921546912,stimuli/card_100_transparent.png,100,13,0,13,0,1,,,,,,,,,,
,,,,5f5c4b9c062e0f43a15ed050,A,2024-07-01_08h58.14.277,Slot Machine Game,2023.1.3,Win32,59.88023952,,,,,,,,,,,,,,,,,,,,,,,,,,,660,,,,,,,,,,,,,,,,,,,,,6,8,,,543.9852,14,left,1.2516,,1.5,0.3,"[1,2,3]",0.160703717,stimuli/card_10_transparent.png,10,14,0,14,0,1,,,,,,,,,,
,,,,5f5c4b9c062e0f43a15ed050,A,2024-07-01_08h58.14.277,Slot Machine Game,2023.1.3,Win32,59.88023952,,,,,,,,,,,,,,,,,,,,,,,,,,,,,,,,,,,547.552,,,,,,,,,,,,,,,,,,,,,,,,,,,,,,,,,"[730,1020,850,1010,660,660]",5,0,5,0,1,,,,
,,,,5f5c4b9c062e0f43a15ed050,A,2024-07-01_08h58.14.277,Slot Machine Game,2023.1.3,Win32,59.88023952,,,,,,,,,,,,,,,,,,,,,,,,,,,100,,,,,,,,,,,,,,,,,,,,,7,9,"[8,15]","[[3,2,1],[3,1,2]]",552.5586,0,left,0.1612,,1.5,0.3,"[3,2,1]",0.096293903,stimuli/card_100_transparent.png,100,0,0,0,0,1,,,,,,,,,,
,,,,5f5c4b9c062e0f43a15ed050,A,2024-07-01_08h58.14.277,Slot Machine Game,2023.1.3,Win32,59.88023952,,,,,,,,,,,,,,,,,,,,,,,,,,,110,,,,,,,,,,,,,,,,,,,,,7,9,,,555.0351,1,left,0.518,,1.5,0.3,"[3,2,1]",0.179630503,stimuli/card_10_transparent.png,10,1,0,1,0,1,,,,,,,,,,
,,,,5f5c4b9c062e0f43a15ed050,A,2024-07-01_08h58.14.277,Slot Machine Game,2023.1.3,Win32,59.88023952,,,,,,,,,,,,,,,,,,,,,,,,,,,110,,,,,,,,,,,,,,,,,,,,,7,9,,,557.8852,2,left,0.117,,1.5,0.3,"[3,2,1]",0.373755043,stimuli/card_0_transparent.png,0,2,0,2,0,1,,,,,,,,,,
,,,,5f5c4b9c062e0f43a15ed050,A,2024-07-01_08h58.14.277,Slot Machine Game,2023.1.3,Win32,59.88023952,,,,,,,,,,,,,,,,,,,,,,,,,,,210,,,,,,,,,,,,,,,,,,,,,7,9,,,560.3351,3,right,0.2674,,1.5,0.3,"[3,2,1]",0.884085714,stimuli/card_100_transparent.png,100,3,0,3,0,1,,,,,,,,,,
,,,,5f5c4b9c062e0f43a15ed050,A,2024-07-01_08h58.14.277,Slot Machine Game,2023.1.3,Win32,59.88023952,,,,,,,,,,,,,,,,,,,,,,,,,,,310,,,,,,,,,,,,,,,,,,,,,7,9,,,562.9517,4,right,0.6844,,1.5,0.3,"[3,2,1]",0.59051381,stimuli/card_100_transparent.png,100,4,0,4,0,1,,,,,,,,,,
,,,,5f5c4b9c062e0f43a15ed050,A,2024-07-01_08h58.14.277,Slot Machine Game,2023.1.3,Win32,59.88023952,,,,,,,,,,,,,,,,,,,,,,,,,,,410,,,,,,,,,,,,,,,,,,,,,7,9,,,565.9684,5,right,0.0169,,1,0.3,"[3,2,1]",0.500308216,stimuli/card_100_transparent.png,100,5,0,5,0,1,,,,,,,,,,
,,,,5f5c4b9c062e0f43a15ed050,A,2024-07-01_08h58.14.277,Slot Machine Game,2023.1.3,Win32,59.88023952,,,,,,,,,,,,,,,,,,,,,,,,,,,510,,,,,,,,,,,,,,,,,,,,,7,9,,,567.8184,6,right,1.3357,,1.5,0.3,"[3,2,1]",0.371434019,stimuli/card_100_transparent.png,100,6,0,6,0,1,,,,,,,,,,
,,,,5f5c4b9c062e0f43a15ed050,A,2024-07-01_08h58.14.277,Slot Machine Game,2023.1.3,Win32,59.88023952,,,,,,,,,,,,,,,,,,,,,,,,,,,520,,,,,,,,,,,,,,,,,,,,,7,9,,,571.4719,7,right,0.3337,,1.5,0.3,"[3,2,1]",0.181764845,stimuli/card_10_transparent.png,10,7,0,7,0,1,,,,,,,,,,
,,,,5f5c4b9c062e0f43a15ed050,A,2024-07-01_08h58.14.277,Slot Machine Game,2023.1.3,Win32,59.88023952,,,,,,,,,,,,,,,,,,,,,,,,,,,530,,,,,,,,,,,,,,,,,,,,,7,9,,,574.1248,8,right,0.4342,,1.5,0.3,"[3,1,2]",0.485450475,stimuli/card_10_transparent.png,10,8,0,8,0,1,,,,,,,,,,
,,,,5f5c4b9c062e0f43a15ed050,A,2024-07-01_08h58.14.277,Slot Machine Game,2023.1.3,Win32,59.88023952,,,,,,,,,,,,,,,,,,,,,,,,,,,540,,,,,,,,,,,,,,,,,,,,,7,9,,,576.8774,9,right,0.117,,1.5,0.3,"[3,1,2]",0.872239883,stimuli/card_10_transparent.png,10,9,0,9,0,1,,,,,,,,,,
,,,,5f5c4b9c062e0f43a15ed050,A,2024-07-01_08h58.14.277,Slot Machine Game,2023.1.3,Win32,59.88023952,,,,,,,,,,,,,,,,,,,,,,,,,,,540,,,,,,,,,,,,,,,,,,,,,7,9,,,579.313,10,left,0.0837,,1.5,0.3,"[3,1,2]",0.690094443,stimuli/card_0_transparent.png,0,10,0,10,0,1,,,,,,,,,,
,,,,5f5c4b9c062e0f43a15ed050,A,2024-07-01_08h58.14.277,Slot Machine Game,2023.1.3,Win32,59.88023952,,,,,,,,,,,,,,,,,,,,,,,,,,,640,,,,,,,,,,,,,,,,,,,,,7,9,,,581.7155,11,up,0.0337,,0.5,0.3,"[3,1,2]",0.200126504,stimuli/card_100_transparent.png,100,11,0,11,0,1,,,,,,,,,,
,,,,5f5c4b9c062e0f43a15ed050,A,2024-07-01_08h58.14.277,Slot Machine Game,2023.1.3,Win32,59.88023952,,,,,,,,,,,,,,,,,,,,,,,,,,,650,,,,,,,,,,,,,,,,,,,,,7,9,,,583.0668,12,up,0.3844,,1,0.3,"[3,1,2]",0.150993143,stimuli/card_10_transparent.png,10,12,0,12,0,1,,,,,,,,,,
,,,,5f5c4b9c062e0f43a15ed050,A,2024-07-01_08h58.14.277,Slot Machine Game,2023.1.3,Win32,59.88023952,,,,,,,,,,,,,,,,,,,,,,,,,,,750,,,,,,,,,,,,,,,,,,,,,7,9,,,585.2691,13,up,0.2848,,1,0.3,"[3,1,2]",0.431350928,stimuli/card_100_transparent.png,100,13,0,13,0,1,,,,,,,,,,
,,,,5f5c4b9c062e0f43a15ed050,A,2024-07-01_08h58.14.277,Slot Machine Game,2023.1.3,Win32,59.88023952,,,,,,,,,,,,,,,,,,,,,,,,,,,760,,,,,,,,,,,,,,,,,,,,,7,9,,,587.3711,14,up,1.5848,,1.5,0.3,"[3,1,2]",0.172769969,stimuli/card_10_transparent.png,10,14,0,14,0,1,,,,,,,,,,
,,,,5f5c4b9c062e0f43a15ed050,A,2024-07-01_08h58.14.277,Slot Machine Game,2023.1.3,Win32,59.88023952,,,,,,,,,,,,,,,,,,,,,,,,,,,,,,,,,,,591.275,,,,,,,,,,,,,,,,,,,,,,,,,,,,,,,,,"[730,1020,850,1010,660,660,760]",6,0,6,0,1,,,,
,,,,5f5c4b9c062e0f43a15ed050,A,2024-07-01_08h58.14.277,Slot Machine Game,2023.1.3,Win32,59.88023952,,,,,,,,,,,,,,,,,,,,,,,,,,,100,,,,,,,,,,,,,,,,,,,,,8,2,"[6,15]","[[1,3,2],[3,2,1]]",596.2705,0,left,0.5341,,0.5,0.3,"[1,3,2]",0.4855496,stimuli/card_100_transparent.png,100,0,0,0,0,1,,,,,,,,,,
,,,,5f5c4b9c062e0f43a15ed050,A,2024-07-01_08h58.14.277,Slot Machine Game,2023.1.3,Win32,59.88023952,,,,,,,,,,,,,,,,,,,,,,,,,,,100,,,,,,,,,,,,,,,,,,,,,8,2,,,598.1485,1,left,0.4513,,1,0.3,"[1,3,2]",0.061083422,stimuli/card_0_transparent.png,0,1,0,1,0,1,,,,,,,,,,
,,,,5f5c4b9c062e0f43a15ed050,A,2024-07-01_08h58.14.277,Slot Machine Game,2023.1.3,Win32,59.88023952,,,,,,,,,,,,,,,,,,,,,,,,,,,200,,,,,,,,,,,,,,,,,,,,,8,2,,,600.4349,2,left,0.401,,1.5,0.3,"[1,3,2]",0.793402933,stimuli/card_100_transparent.png,100,2,0,2,0,1,,,,,,,,,,
,,,,5f5c4b9c062e0f43a15ed050,A,2024-07-01_08h58.14.277,Slot Machine Game,2023.1.3,Win32,59.88023952,,,,,,,,,,,,,,,,,,,,,,,,,,,300,,,,,,,,,,,,,,,,,,,,,8,2,,,603.1708,3,left,0.4175,,1,0.3,"[1,3,2]",0.561821246,stimuli/card_100_transparent.png,100,3,0,3,0,1,,,,,,,,,,
,,,,5f5c4b9c062e0f43a15ed050,A,2024-07-01_08h58.14.277,Slot Machine Game,2023.1.3,Win32,59.88023952,,,,,,,,,,,,,,,,,,,,,,,,,,,400,,,,,,,,,,,,,,,,,,,,,8,2,,,605.4056,4,left,0.0502,,1,0.3,"[1,3,2]",0.605247315,stimuli/card_100_transparent.png,100,4,0,4,0,1,,,,,,,,,,
,,,,5f5c4b9c062e0f43a15ed050,A,2024-07-01_08h58.14.277,Slot Machine Game,2023.1.3,Win32,59.88023952,,,,,,,,,,,,,,,,,,,,,,,,,,,500,,,,,,,,,,,,,,,,,,,,,8,2,,,607.2742,5,left,0.751,,0.5,0.3,"[1,3,2]",0.204698286,stimuli/card_100_transparent.png,100,5,0,5,0,1,,,,,,,,,,
,,,,5f5c4b9c062e0f43a15ed050,A,2024-07-01_08h58.14.277,Slot Machine Game,2023.1.3,Win32,59.88023952,,,,,,,,,,,,,,,,,,,,,,,,,,,500,,,,,,,,,,,,,,,,,,,,,8,2,,,609.3428,6,left,0.5343,,1,0.3,"[3,2,1]",0.666471865,stimuli/card_0_transparent.png,0,6,0,6,0,1,,,,,,,,,,
,,,,5f5c4b9c062e0f43a15ed050,A,2024-07-01_08h58.14.277,Slot Machine Game,2023.1.3,Win32,59.88023952,,,,,,,,,,,,,,,,,,,,,,,,,,,500,,,,,,,,,,,,,,,,,,,,,8,2,,,611.6951,7,left,0.4508,,1,0.3,"[3,2,1]",0.770214435,stimuli/card_0_transparent.png,0,7,0,7,0,1,,,,,,,,,,
,,,,5f5c4b9c062e0f43a15ed050,A,2024-07-01_08h58.14.277,Slot Machine Game,2023.1.3,Win32,59.88023952,,,,,,,,,,,,,,,,,,,,,,,,,,,510,,,,,,,,,,,,,,,,,,,,,8,2,,,613.9641,8,up,0.2505,,1,0.3,"[3,2,1]",0.973738112,stimuli/card_10_transparent.png,10,8,0,8,0,1,,,,,,,,,,
,,,,5f5c4b9c062e0f43a15ed050,A,2024-07-01_08h58.14.277,Slot Machine Game,2023.1.3,Win32,59.88023952,,,,,,,,,,,,,,,,,,,,,,,,,,,610,,,,,,,,,,,,,,,,,,,,,8,2,,,616.0331,9,up,0.8509,,1,0.3,"[3,2,1]",0.199383905,stimuli/card_100_transparent.png,100,9,0,9,0,1,,,,,,,,,,
,,,,5f5c4b9c062e0f43a15ed050,A,2024-07-01_08h58.14.277,Slot Machine Game,2023.1.3,Win32,59.88023952,,,,,,,,,,,,,,,,,,,,,,,,,,,710,,,,,,,,,,,,,,,,,,,,,8,2,,,618.7018,10,up,0.636,,1,0.3,"[3,2,1]",0.120309911,stimuli/card_100_transparent.png,100,10,0,10,0,1,,,,,,,,,,
,,,,5f5c4b9c062e0f43a15ed050,A,2024-07-01_08h58.14.277,Slot Machine Game,2023.1.3,Win32,59.88023952,,,,,,,,,,,,,,,,,,,,,,,,,,,720,,,,,,,,,,,,,,,,,,,,,8,2,,,621.1848,11,up,0.2416,,0.5,0.3,"[3,2,1]",0.229051498,stimuli/card_10_transparent.png,10,11,0,11,0,1,,,,,,,,,,
,,,,5f5c4b9c062e0f43a15ed050,A,2024-07-01_08h58.14.277,Slot Machine Game,2023.1.3,Win32,59.88023952,,,,,,,,,,,,,,,,,,,,,,,,,,,820,,,,,,,,,,,,,,,,,,,,,8,2,,,622.735,12,up,0.0402,,1,0.3,"[3,2,1]",0.115174975,stimuli/card_100_transparent.png,100,12,0,12,0,1,,,,,,,,,,
,,,,5f5c4b9c062e0f43a15ed050,A,2024-07-01_08h58.14.277,Slot Machine Game,2023.1.3,Win32,59.88023952,,,,,,,,,,,,,,,,,,,,,,,,,,,830,,,,,,,,,,,,,,,,,,,,,8,2,,,624.6015,13,up,0.2178,,0.5,0.3,"[3,2,1]",0.502649984,stimuli/card_10_transparent.png,10,13,0,13,0,1,,,,,,,,,,
,,,,5f5c4b9c062e0f43a15ed050,A,2024-07-01_08h58.14.277,Slot Machine Game,2023.1.3,Win32,59.88023952,,,,,,,,,,,,,,,,,,,,,,,,,,,930,,,,,,,,,,,,,,,,,,,,,8,2,,,626.1684,14,up,0.506,,0.5,0.3,"[3,2,1]",0.136410078,stimuli/card_100_transparent.png,100,14,0,14,0,1,,,,,,,,,,
,,,,5f5c4b9c062e0f43a15ed050,A,2024-07-01_08h58.14.277,Slot Machine Game,2023.1.3,Win32,59.88023952,,,,,,,,,,,,,,,,,,,,,,,,,,,,,,,,,,,627.9849,,,,,,,,,,,,,,,,,,,,,,,,,,,,,,,,,"[730,1020,850,1010,660,660,760,930]",7,0,7,0,1,,,,
,,,,5f5c4b9c062e0f43a15ed050,A,2024-07-01_08h58.14.277,Slot Machine Game,2023.1.3,Win32,59.88023952,,,,,,,,,,,,,,,,,,,,,,,,,,,0,,,,,,,,,,,,,,,,,,,,,9,10,"[10,15]","[[3,1,2],[1,3,2]]",632.9911,0,left,0.0168,,1,0.3,"[3,1,2]",0.769306125,stimuli/card_0_transparent.png,0,0,0,0,0,1,,,,,,,,,,
,,,,5f5c4b9c062e0f43a15ed050,A,2024-07-01_08h58.14.277,Slot Machine Game,2023.1.3,Win32,59.88023952,,,,,,,,,,,,,,,,,,,,,,,,,,,100,,,,,,,,,,,,,,,,,,,,,9,10,,,634.8348,1,up,0.4938,,0.5,0.3,"[3,1,2]",0.56170386,stimuli/card_100_transparent.png,100,1,0,1,0,1,,,,,,,,,,
,,,,5f5c4b9c062e0f43a15ed050,A,2024-07-01_08h58.14.277,Slot Machine Game,2023.1.3,Win32,59.88023952,,,,,,,,,,,,,,,,,,,,,,,,,,,200,,,,,,,,,,,,,,,,,,,,,9,10,,,636.6516,2,up,0.5285,,1,0.3,"[3,1,2]",0.785969596,stimuli/card_100_transparent.png,100,2,0,2,0,1,,,,,,,,,,
,,,,5f5c4b9c062e0f43a15ed050,A,2024-07-01_08h58.14.277,Slot Machine Game,2023.1.3,Win32,59.88023952,,,,,,,,,,,,,,,,,,,,,,,,,,,300,,,,,,,,,,,,,,,,,,,,,9,10,,,639.0015,3,up,0.1192,,1,0.3,"[3,1,2]",0.730143318,stimuli/card_100_transparent.png,100,3,0,3,0,1,,,,,,,,,,
,,,,5f5c4b9c062e0f43a15ed050,A,2024-07-01_08h58.14.277,Slot Machine Game,2023.1.3,Win32,59.88023952,,,,,,,,,,,,,,,,,,,,,,,,,,,300,,,,,,,,,,,,,,,,,,,,,9,10,,,640.9515,4,up,0.2557,,1.5,0.3,"[3,1,2]",0.029584705,stimuli/card_0_transparent.png,0,4,0,4,0,1,,,,,,,,,,
,,,,5f5c4b9c062e0f43a15ed050,A,2024-07-01_08h58.14.277,Slot Machine Game,2023.1.3,Win32,59.88023952,,,,,,,,,,,,,,,,,,,,,,,,,,,400,,,,,,,,,,,,,,,,,,,,,9,10,,,643.5348,5,up,0.3359,,1,0.3,"[3,1,2]",0.353935363,stimuli/card_100_transparent.png,100,5,0,5,0,1,,,,,,,,,,
,,,,5f5c4b9c062e0f43a15ed050,A,2024-07-01_08h58.14.277,Slot Machine Game,2023.1.3,Win32,59.88023952,,,,,,,,,,,,,,,,,,,,,,,,,,,500,,,,,,,,,,,,,,,,,,,,,9,10,,,645.7182,6,up,0.0868,,0.5,0.3,"[3,1,2]",0.891998762,stimuli/card_100_transparent.png,100,6,0,6,0,1,,,,,,,,,,
,,,,5f5c4b9c062e0f43a15ed050,A,2024-07-01_08h58.14.277,Slot Machine Game,2023.1.3,Win32,59.88023952,,,,,,,,,,,,,,,,,,,,,,,,,,,600,,,,,,,,,,,,,,,,,,,,,9,10,,,647.1347,7,up,0.3337,,1,0.3,"[3,1,2]",0.763372603,stimuli/card_100_transparent.png,100,7,0,7,0,1,,,,,,,,,,
,,,,5f5c4b9c062e0f43a15ed050,A,2024-07-01_08h58.14.277,Slot Machine Game,2023.1.3,Win32,59.88023952,,,,,,,,,,,,,,,,,,,,,,,,,,,700,,,,,,,,,,,,,,,,,,,,,9,10,,,649.2847,8,up,0.4173,,1,0.3,"[3,1,2]",0.662658216,stimuli/card_100_transparent.png,100,8,0,8,0,1,,,,,,,,,,
,,,,5f5c4b9c062e0f43a15ed050,A,2024-07-01_08h58.14.277,Slot Machine Game,2023.1.3,Win32,59.88023952,,,,,,,,,,,,,,,,,,,,,,,,,,,800,,,,,,,,,,,,,,,,,,,,,9,10,,,651.5182,9,up,0.2169,,0.5,0.3,"[3,1,2]",0.500521019,stimuli/card_100_transparent.png,100,9,0,9,0,1,,,,,,,,,,
,,,,5f5c4b9c062e0f43a15ed050,A,2024-07-01_08h58.14.277,Slot Machine Game,2023.1.3,Win32,59.88023952,,,,,,,,,,,,,,,,,,,,,,,,,,,810,,,,,,,,,,,,,,,,,,,,,9,10,,,653.0537,10,up,0.85,,1,0.3,"[1,3,2]",0.132278657,stimuli/card_10_transparent.png,10,10,0,10,0,1,,,,,,,,,,
,,,,5f5c4b9c062e0f43a15ed050,A,2024-07-01_08h58.14.277,Slot Machine Game,2023.1.3,Win32,59.88023952,,,,,,,,,,,,,,,,,,,,,,,,,,,810,,,,,,,,,,,,,,,,,,,,,9,10,,,655.7222,11,up,0.4007,,0.5,0.3,"[1,3,2]",0.48021928,stimuli/card_0_transparent.png,0,11,0,11,0,1,,,,,,,,,,
,,,,5f5c4b9c062e0f43a15ed050,A,2024-07-01_08h58.14.277,Slot Machine Game,2023.1.3,Win32,59.88023952,,,,,,,,,,,,,,,,,,,,,,,,,,,820,,,,,,,,,,,,,,,,,,,,,9,10,,,657.4407,12,right,0.3174,,1,0.3,"[1,3,2]",0.232080198,stimuli/card_10_transparent.png,10,12,0,12,0,1,,,,,,,,,,
,,,,5f5c4b9c062e0f43a15ed050,A,2024-07-01_08h58.14.277,Slot Machine Game,2023.1.3,Win32,59.88023952,,,,,,,,,,,,,,,,,,,,,,,,,,,830,,,,,,,,,,,,,,,,,,,,,9,10,,,659.5763,13,left,0.3338,,1.5,0.3,"[1,3,2]",0.167517057,stimuli/card_10_transparent.png,10,13,0,13,0,1,,,,,,,,,,
,,,,5f5c4b9c062e0f43a15ed050,A,2024-07-01_08h58.14.277,Slot Machine Game,2023.1.3,Win32,59.88023952,,,,,,,,,,,,,,,,,,,,,,,,,,,930,,,,,,,,,,,,,,,,,,,,,9,10,,,662.2287,14,left,0.1504,,1,0.3,"[1,3,2]",0.886841457,stimuli/card_100_transparent.png,100,14,0,14,0,1,,,,,,,,,,
,,,,5f5c4b9c062e0f43a15ed050,A,2024-07-01_08h58.14.277,Slot Machine Game,2023.1.3,Win32,59.88023952,,,,,,,,,,,,,,,,,,,,,,,,,,,,,,,,,,,664.1973,,,,,,,,,,,,,,,,,,,,,,,,,,,,,,,,,"[730,1020,850,1010,660,660,760,930,930]",8,0,8,0,1,,,,
,,,,5f5c4b9c062e0f43a15ed050,A,2024-07-01_08h58.14.277,Slot Machine Game,2023.1.3,Win32,59.88023952,,,,,,,,,,,,,,,,,,,,,,,,,,,0,,,,,,,,,,,,,,,,,,,,,10,3,"[15,15]","[[3,1,2],[3,1,2]]",669.192,0,left,0.3495,,0.5,0.3,"[3,1,2]",0.807220117,stimuli/card_0_transparent.png,0,0,0,0,0,1,,,,,,,,,,
,,,,5f5c4b9c062e0f43a15ed050,A,2024-07-01_08h58.14.277,Slot Machine Game,2023.1.3,Win32,59.88023952,,,,,,,,,,,,,,,,,,,,,,,,,,,100,,,,,,,,,,,,,,,,,,,,,10,3,,,670.8707,1,up,0.4336,,1.5,0.3,"[3,1,2]",0.21069015,stimuli/card_100_transparent.png,100,1,0,1,0,1,,,,,,,,,,
,,,,5f5c4b9c062e0f43a15ed050,A,2024-07-01_08h58.14.277,Slot Machine Game,2023.1.3,Win32,59.88023952,,,,,,,,,,,,,,,,,,,,,,,,,,,200,,,,,,,,,,,,,,,,,,,,,10,3,,,673.6233,2,up,0.1002,,1.5,0.3,"[3,1,2]",0.351199345,stimuli/card_100_transparent.png,100,2,0,2,0,1,,,,,,,,,,
,,,,5f5c4b9c062e0f43a15ed050,A,2024-07-01_08h58.14.277,Slot Machine Game,2023.1.3,Win32,59.88023952,,,,,,,,,,,,,,,,,,,,,,,,,,,200,,,,,,,,,,,,,,,,,,,,,10,3,,,676.0425,3,up,0.6345,,0.5,0.3,"[3,1,2]",0.012691173,stimuli/card_0_transparent.png,0,3,0,3,0,1,,,,,,,,,,
,,,,5f5c4b9c062e0f43a15ed050,A,2024-07-01_08h58.14.277,Slot Machine Game,2023.1.3,Win32,59.88023952,,,,,,,,,,,,,,,,,,,,,,,,,,,300,,,,,,,,,,,,,,,,,,,,,10,3,,,677.9944,4,up,0.067,,1.5,0.3,"[3,1,2]",0.278227158,stimuli/card_100_transparent.png,100,4,0,4,0,1,,,,,,,,,,
,,,,5f5c4b9c062e0f43a15ed050,A,2024-07-01_08h58.14.277,Slot Machine Game,2023.1.3,Win32,59.88023952,,,,,,,,,,,,,,,,,,,,,,,,,,,400,,,,,,,,,,,,,,,,,,,,,10,3,,,680.3801,5,up,0.0168,,1,0.3,"[3,1,2]",0.729163573,stimuli/card_100_transparent.png,100,5,0,5,0,1,,,,,,,,,,
,,,,5f5c4b9c062e0f43a15ed050,A,2024-07-01_08h58.14.277,Slot Machine Game,2023.1.3,Win32,59.88023952,,,,,,,,,,,,,,,,,,,,,,,,,,,500,,,,,,,,,,,,,,,,,,,,,10,3,,,682.2154,6,up,0.1004,,0.5,0.3,"[3,1,2]",0.470973554,stimuli/card_100_transparent.png,100,6,0,6,0,1,,,,,,,,,,
,,,,5f5c4b9c062e0f43a15ed050,A,2024-07-01_08h58.14.277,Slot Machine Game,2023.1.3,Win32,59.88023952,,,,,,,,,,,,,,,,,,,,,,,,,,,600,,,,,,,,,,,,,,,,,,,,,10,3,,,683.6332,7,up,0.2171,,1,0.3,"[3,1,2]",0.391016214,stimuli/card_100_transparent.png,100,7,0,7,0,1,,,,,,,,,,
,,,,5f5c4b9c062e0f43a15ed050,A,2024-07-01_08h58.14.277,Slot Machine Game,2023.1.3,Win32,59.88023952,,,,,,,,,,,,,,,,,,,,,,,,,,,700,,,,,,,,,,,,,,,,,,,,,10,3,,,685.6687,8,up,0.2839,,1,0.3,"[3,1,2]",0.787238496,stimuli/card_100_transparent.png,100,8,0,8,0,1,,,,,,,,,,
,,,,5f5c4b9c062e0f43a15ed050,A,2024-07-01_08h58.14.277,Slot Machine Game,2023.1.3,Win32,59.88023952,,,,,,,,,,,,,,,,,,,,,,,,,,,800,,,,,,,,,,,,,,,,,,,,,10,3,,,687.7713,9,up,0.4673,,0.5,0.3,"[3,1,2]",0.568773067,stimuli/card_100_transparent.png,100,9,0,9,0,1,,,,,,,,,,
,,,,5f5c4b9c062e0f43a15ed050,A,2024-07-01_08h58.14.277,Slot Machine Game,2023.1.3,Win32,59.88023952,,,,,,,,,,,,,,,,,,,,,,,,,,,900,,,,,,,,,,,,,,,,,,,,,10,3,,,689.5559,10,up,0.3839,,1.5,0.3,"[3,1,2]",0.270545887,stimuli/card_100_transparent.png,100,10,0,10,0,1,,,,,,,,,,
,,,,5f5c4b9c062e0f43a15ed050,A,2024-07-01_08h58.14.277,Slot Machine Game,2023.1.3,Win32,59.88023952,,,,,,,,,,,,,,,,,,,,,,,,,,,1000,,,,,,,,,,,,,,,,,,,,,10,3,,,692.2585,11,up,0.651,,1.5,0.3,"[3,1,2]",0.274338348,stimuli/card_100_transparent.png,100,11,0,11,0,1,,,,,,,,,,
,,,,5f5c4b9c062e0f43a15ed050,A,2024-07-01_08h58.14.277,Slot Machine Game,2023.1.3,Win32,59.88023952,,,,,,,,,,,,,,,,,,,,,,,,,,,1100,,,,,,,,,,,,,,,,,,,,,10,3,,,695.2282,12,up,0.3339,,1.5,0.3,"[3,1,2]",0.385939824,stimuli/card_100_transparent.png,100,12,0,12,0,1,,,,,,,,,,
,,,,5f5c4b9c062e0f43a15ed050,A,2024-07-01_08h58.14.277,Slot Machine Game,2023.1.3,Win32,59.88023952,,,,,,,,,,,,,,,,,,,,,,,,,,,1200,,,,,,,,,,,,,,,,,,,,,10,3,,,697.8808,13,up,0.1171,,1,0.3,"[3,1,2]",0.366019441,stimuli/card_100_transparent.png,100,13,0,13,0,1,,,,,,,,,,
,,,,5f5c4b9c062e0f43a15ed050,A,2024-07-01_08h58.14.277,Slot Machine Game,2023.1.3,Win32,59.88023952,,,,,,,,,,,,,,,,,,,,,,,,,,,1300,,,,,,,,,,,,,,,,,,,,,10,3,,,699.8162,14,up,0.6175,,1.5,0.3,"[3,1,2]",0.354459397,stimuli/card_100_transparent.png,100,14,0,14,0,1,,,,,,,,,,
,,,,5f5c4b9c062e0f43a15ed050,A,2024-07-01_08h58.14.277,Slot Machine Game,2023.1.3,Win32,59.88023952,,,,,,,,,,,,,,,,,,,,,,,,,,,,,,,,,,,702.7524,,,,,,,,,,,,,,,,,,,,,,,,,,,,,,,,,"[730,1020,850,1010,660,660,760,930,930,1300]",9,0,9,0,1,,,,
,,,,5f5c4b9c062e0f43a15ed050,A,2024-07-01_08h58.14.277,Slot Machine Game,2023.1.3,Win32,59.88023952,,,,,,,,,,,,,,,,,,,,,,,,,,,,,,,,,,,,,,,,,,,,,,,,,,,,,,,,,,,,,,,,,,,,,,,,,,9,"[730,1020,850,1010,660,660,760,930,930,1300]",10.1,2024-07-01_09h10.06.073
