key_resp_welcome_started,key_resp_welcome_keys,key_resp_welcome_rt,key_resp_welcome_duration,prolific_id,path_id,date,expName,psychopyVersion,OS,frameRate,key_resp_instruction1_started,key_resp_instruction1_keys,key_resp_instruction1_rt,key_resp_instruction1_duration,key_resp_instruction2_started,key_resp_instruction2_keys,key_resp_instruction2_rt,key_resp_instruction2_duration,key_resp_instruction3_started,key_resp_instruction3_keys,key_resp_instruction3_rt,key_resp_instruction3_duration,key_resp_instruction4_started,key_resp_instruction4_keys,key_resp_instruction4_rt,key_resp_instruction4_duration,practiceCondition,practice_reward_seqs,practice_trial_started,practice_trial_num,practice_resp_rt,practice_resp_duration,practice_resp_keys,prac_presentationInterval,"practice_reward_seq: 2,1,3",reward_img,cumulative_reward,trial_reward,practice_trials.thisRepN,practice_trials.thisTrialN,practice_trials.thisN,practice_trials.thisIndex,practice_trials.ran,"practice_reward_seq: 2,3,1",block_break_started,"practice_reward_seq: 1,3,2","practice_reward_seq: 3,1,2",practice_end_time,practice_end_keys,practice_end_rt,practice_end_duration,main_instruction_text_started,block_condition,block_order_indices,main_instruction_keys,main_instruction_rt,main_instruction_duration,block_number,block_assignment,current_condition,main_reward_seqs,main_trial_started,main_trial_num,main_trial_keys,main_trial_rt,main_trial_duration,main_presentationInterval,reward_presentation_time,main_reward_seq,reward_rand_val,main_reward_img,current_reward,main_trials.thisRepN,main_trials.thisTrialN,main_trials.thisN,main_trials.thisIndex,main_trials.ran,block_reward,block.thisRepN,block.thisTrialN,block.thisN,block.thisIndex,block.ran,block_reward.length,block_reward_all,reward_amount,date_end_task
0.0003,a,2.0066,,5f6377b2155684053b55dfcc,B,2024-06-23_16h46.29.338,Slot Machine Game,2023.1.3,Win32,163.9344262,,,,,,,,,,,,,,,,,,,,,,,,,,,,,,,,,,,,,,,,,,,,,,,,,,,,,,,,,,,,,,,,,,,,,,,,,,,,,
,,,,5f6377b2155684053b55dfcc,B,2024-06-23_16h46.29.338,Slot Machine Game,2023.1.3,Win32,163.9344262,2.0145,a,7.3083,,,,,,,,,,,,,,,,,,,,,,,,,,,,,,,,,,,,,,,,,,,,,,,,,,,,,,,,,,,,,,,,,,,,,,,,,,
,,,,5f6377b2155684053b55dfcc,B,2024-06-23_16h46.29.338,Slot Machine Game,2023.1.3,Win32,163.9344262,,,,,9.3367,a,24.2561,,,,,,,,,,,,,,,,,,,,,,,,,,,,,,,,,,,,,,,,,,,,,,,,,,,,,,,,,,,,,,,,,,,,,,
,,,,5f6377b2155684053b55dfcc,B,2024-06-23_16h46.29.338,Slot Machine Game,2023.1.3,Win32,163.9344262,,,,,,,,,33.6188,a,4.7353,,,,,,,,,,,,,,,,,,,,,,,,,,,,,,,,,,,,,,,,,,,,,,,,,,,,,,,,,,,,,,,,,,
,,,,5f6377b2155684053b55dfcc,B,2024-06-23_16h46.29.338,Slot Machine Game,2023.1.3,Win32,163.9344262,,,,,,,,,,,,,,,,,,,,,,,,,,,,,,,,,,,,,,,,,,,,,,,,,,,,,,,,,,,,,,,,,,,,,,,,,,,,,
,,,,5f6377b2155684053b55dfcc,B,2024-06-23_16h46.29.338,Slot Machine Game,2023.1.3,Win32,163.9344262,,,,,,,,,,,,,180.1159,right,1.889,,,,,,,,,,,,,,,,,,,,,,,,,,,,,,,,,,,,,,,,,,,,,,,,,,,,,,,,,,,,,,
,,,,5f6377b2155684053b55dfcc,B,2024-06-23_16h46.29.338,Slot Machine Game,2023.1.3,Win32,163.9344262,,,,,,,,,,,,,,,,,"[9,15]","[[2,1,3],[2,3,1]]",182.0138,0,0.6317,,right,0.5,,stimuli/card_0_transparent.png,0,0,0,0,0,0,1,,,,,,,,,,,,,,,,,,,,,,,,,,,,,,,,,,,,,,,,,,,,
,,,,5f6377b2155684053b55dfcc,B,2024-06-23_16h46.29.338,Slot Machine Game,2023.1.3,Win32,163.9344262,,,,,,,,,,,,,,,,,,,183.9496,1,0.035,,right,0.5,,stimuli/card_0_transparent.png,0,0,1,0,1,0,1,,,,,,,,,,,,,,,,,,,,,,,,,,,,,,,,,,,,,,,,,,,,
,,,,5f6377b2155684053b55dfcc,B,2024-06-23_16h46.29.338,Slot Machine Game,2023.1.3,Win32,163.9344262,,,,,,,,,,,,,,,,,,,185.2915,2,2.1992,,left,0.5,,stimuli/card_0_transparent.png,0,0,2,0,2,0,1,,,,,,,,,,,,,,,,,,,,,,,,,,,,,,,,,,,,,,,,,,,,
,,,,5f6377b2155684053b55dfcc,B,2024-06-23_16h46.29.338,Slot Machine Game,2023.1.3,Win32,163.9344262,,,,,,,,,,,,,,,,,,,188.795,3,0.8016,,left,1,,stimuli/card_10_transparent.png,10,10,3,0,3,0,1,,,,,,,,,,,,,,,,,,,,,,,,,,,,,,,,,,,,,,,,,,,,
,,,,5f6377b2155684053b55dfcc,B,2024-06-23_16h46.29.338,Slot Machine Game,2023.1.3,Win32,163.9344262,,,,,,,,,,,,,,,,,,,191.3999,4,3.1034,,up,1,,stimuli/card_0_transparent.png,10,0,4,0,4,0,1,,,,,,,,,,,,,,,,,,,,,,,,,,,,,,,,,,,,,,,,,,,,
,,,,5f6377b2155684053b55dfcc,B,2024-06-23_16h46.29.338,Slot Machine Game,2023.1.3,Win32,163.9344262,,,,,,,,,,,,,,,,,,,196.306,5,0.9115,,up,1.5,,stimuli/card_100_transparent.png,110,100,5,0,5,0,1,,,,,,,,,,,,,,,,,,,,,,,,,,,,,,,,,,,,,,,,,,,,
,,,,5f6377b2155684053b55dfcc,B,2024-06-23_16h46.29.338,Slot Machine Game,2023.1.3,Win32,163.9344262,,,,,,,,,,,,,,,,,,,199.5242,6,0.0002,,up,1.5,,stimuli/card_100_transparent.png,210,100,6,0,6,0,1,,,,,,,,,,,,,,,,,,,,,,,,,,,,,,,,,,,,,,,,,,,,
,,,,5f6377b2155684053b55dfcc,B,2024-06-23_16h46.29.338,Slot Machine Game,2023.1.3,Win32,163.9344262,,,,,,,,,,,,,,,,,,,201.8315,7,0.0183,,up,0.5,,stimuli/card_100_transparent.png,310,100,7,0,7,0,1,,,,,,,,,,,,,,,,,,,,,,,,,,,,,,,,,,,,,,,,,,,,
,,,,5f6377b2155684053b55dfcc,B,2024-06-23_16h46.29.338,Slot Machine Game,2023.1.3,Win32,163.9344262,,,,,,,,,,,,,,,,,,,203.1552,8,0.2614,,up,1,,stimuli/card_100_transparent.png,410,100,8,0,8,0,1,,,,,,,,,,,,,,,,,,,,,,,,,,,,,,,,,,,,,,,,,,,,
,,,,5f6377b2155684053b55dfcc,B,2024-06-23_16h46.29.338,Slot Machine Game,2023.1.3,Win32,163.9344262,,,,,,,,,,,,,,,,,,,205.2198,9,0.1336,,up,1.5,,stimuli/card_0_transparent.png,410,0,9,0,9,0,1,,,,,,,,,,,,,,,,,,,,,,,,,,,,,,,,,,,,,,,,,,,,
,,,,5f6377b2155684053b55dfcc,B,2024-06-23_16h46.29.338,Slot Machine Game,2023.1.3,Win32,163.9344262,,,,,,,,,,,,,,,,,,,207.6607,10,0.8681,,up,1,,stimuli/card_0_transparent.png,410,0,10,0,10,0,1,,,,,,,,,,,,,,,,,,,,,,,,,,,,,,,,,,,,,,,,,,,,
,,,,5f6377b2155684053b55dfcc,B,2024-06-23_16h46.29.338,Slot Machine Game,2023.1.3,Win32,163.9344262,,,,,,,,,,,,,,,,,,,210.3324,11,0.2437,,up,1.5,,stimuli/card_0_transparent.png,410,0,11,0,11,0,1,,,,,,,,,,,,,,,,,,,,,,,,,,,,,,,,,,,,,,,,,,,,
,,,,5f6377b2155684053b55dfcc,B,2024-06-23_16h46.29.338,Slot Machine Game,2023.1.3,Win32,163.9344262,,,,,,,,,,,,,,,,,,,212.8826,12,1.9255,,up,1.5,,stimuli/card_0_transparent.png,410,0,12,0,12,0,1,,,,,,,,,,,,,,,,,,,,,,,,,,,,,,,,,,,,,,,,,,,,
,,,,5f6377b2155684053b55dfcc,B,2024-06-23_16h46.29.338,Slot Machine Game,2023.1.3,Win32,163.9344262,,,,,,,,,,,,,,,,,,,217.1149,13,0.1456,,up,1,,stimuli/card_0_transparent.png,410,0,13,0,13,0,1,,,,,,,,,,,,,,,,,,,,,,,,,,,,,,,,,,,,,,,,,,,,
,,,,5f6377b2155684053b55dfcc,B,2024-06-23_16h46.29.338,Slot Machine Game,2023.1.3,Win32,163.9344262,,,,,,,,,,,,,,,,,,,219.0639,14,0.7048,,right,0.5,,stimuli/card_100_transparent.png,510,100,14,0,14,0,1,,,,,,,,,,,,,,,,,,,,,,,,,,,,,,,,,,,,,,,,,,,,
,,,,5f6377b2155684053b55dfcc,B,2024-06-23_16h46.29.338,Slot Machine Game,2023.1.3,Win32,163.9344262,,,,,,,,,,,,,,,,,"[6,15]","[[1,3,2],[3,1,2]]",226.0814,0,0.0544,,right,0.5,,stimuli/card_10_transparent.png,10,10,0,0,0,0,1,,221.0778,,,,,,,,,,,,,,,,,,,,,,,,,,,,,,,,,,,,,,,,,,
,,,,5f6377b2155684053b55dfcc,B,2024-06-23_16h46.29.338,Slot Machine Game,2023.1.3,Win32,163.9344262,,,,,,,,,,,,,,,,,,,227.4434,1,1.2328,,right,1,,stimuli/card_10_transparent.png,20,10,1,0,1,0,1,,,,,,,,,,,,,,,,,,,,,,,,,,,,,,,,,,,,,,,,,,,,
,,,,5f6377b2155684053b55dfcc,B,2024-06-23_16h46.29.338,Slot Machine Game,2023.1.3,Win32,163.9344262,,,,,,,,,,,,,,,,,,,230.4793,2,1.5503,,right,0.5,,stimuli/card_10_transparent.png,30,10,2,0,2,0,1,,,,,,,,,,,,,,,,,,,,,,,,,,,,,,,,,,,,,,,,,,,,
,,,,5f6377b2155684053b55dfcc,B,2024-06-23_16h46.29.338,Slot Machine Game,2023.1.3,Win32,163.9344262,,,,,,,,,,,,,,,,,,,233.3332,3,0.4794,,up,1.5,,stimuli/card_0_transparent.png,30,0,3,0,3,0,1,,,,,,,,,,,,,,,,,,,,,,,,,,,,,,,,,,,,,,,,,,,,
,,,,5f6377b2155684053b55dfcc,B,2024-06-23_16h46.29.338,Slot Machine Game,2023.1.3,Win32,163.9344262,,,,,,,,,,,,,,,,,,,236.1203,4,1.4337,,up,1.5,,stimuli/card_0_transparent.png,30,0,4,0,4,0,1,,,,,,,,,,,,,,,,,,,,,,,,,,,,,,,,,,,,,,,,,,,,
,,,,5f6377b2155684053b55dfcc,B,2024-06-23_16h46.29.338,Slot Machine Game,2023.1.3,Win32,163.9344262,,,,,,,,,,,,,,,,,,,239.8605,5,0.5956,,left,1,,stimuli/card_100_transparent.png,130,100,5,0,5,0,1,,,,,,,,,,,,,,,,,,,,,,,,,,,,,,,,,,,,,,,,,,,,
,,,,5f6377b2155684053b55dfcc,B,2024-06-23_16h46.29.338,Slot Machine Game,2023.1.3,Win32,163.9344262,,,,,,,,,,,,,,,,,,,242.259,6,0.7908,,left,0.5,,stimuli/card_0_transparent.png,130,0,6,0,6,0,1,,,,,,,,,,,,,,,,,,,,,,,,,,,,,,,,,,,,,,,,,,,,
,,,,5f6377b2155684053b55dfcc,B,2024-06-23_16h46.29.338,Slot Machine Game,2023.1.3,Win32,163.9344262,,,,,,,,,,,,,,,,,,,244.3539,7,1.9676,,left,0.5,,stimuli/card_0_transparent.png,130,0,7,0,7,0,1,,,,,,,,,,,,,,,,,,,,,,,,,,,,,,,,,,,,,,,,,,,,
,,,,5f6377b2155684053b55dfcc,B,2024-06-23_16h46.29.338,Slot Machine Game,2023.1.3,Win32,163.9344262,,,,,,,,,,,,,,,,,,,247.6267,8,2.7145,,left,1,,stimuli/card_10_transparent.png,140,10,8,0,8,0,1,,,,,,,,,,,,,,,,,,,,,,,,,,,,,,,,,,,,,,,,,,,,
,,,,5f6377b2155684053b55dfcc,B,2024-06-23_16h46.29.338,Slot Machine Game,2023.1.3,Win32,163.9344262,,,,,,,,,,,,,,,,,,,252.1442,9,0.3037,,left,1,,stimuli/card_0_transparent.png,140,0,9,0,9,0,1,,,,,,,,,,,,,,,,,,,,,,,,,,,,,,,,,,,,,,,,,,,,
,,,,5f6377b2155684053b55dfcc,B,2024-06-23_16h46.29.338,Slot Machine Game,2023.1.3,Win32,163.9344262,,,,,,,,,,,,,,,,,,,254.2512,10,1.4224,,up,1.5,,stimuli/card_10_transparent.png,150,10,10,0,10,0,1,,,,,,,,,,,,,,,,,,,,,,,,,,,,,,,,,,,,,,,,,,,,
,,,,5f6377b2155684053b55dfcc,B,2024-06-23_16h46.29.338,Slot Machine Game,2023.1.3,Win32,163.9344262,,,,,,,,,,,,,,,,,,,257.9795,11,0.9359,,up,0.5,,stimuli/card_100_transparent.png,250,100,11,0,11,0,1,,,,,,,,,,,,,,,,,,,,,,,,,,,,,,,,,,,,,,,,,,,,
,,,,5f6377b2155684053b55dfcc,B,2024-06-23_16h46.29.338,Slot Machine Game,2023.1.3,Win32,163.9344262,,,,,,,,,,,,,,,,,,,260.2201,12,0.1694,,up,1,,stimuli/card_100_transparent.png,350,100,12,0,12,0,1,,,,,,,,,,,,,,,,,,,,,,,,,,,,,,,,,,,,,,,,,,,,
,,,,5f6377b2155684053b55dfcc,B,2024-06-23_16h46.29.338,Slot Machine Game,2023.1.3,Win32,163.9344262,,,,,,,,,,,,,,,,,,,262.1935,13,0.8747,,up,1.5,,stimuli/card_100_transparent.png,450,100,13,0,13,0,1,,,,,,,,,,,,,,,,,,,,,,,,,,,,,,,,,,,,,,,,,,,,
,,,,5f6377b2155684053b55dfcc,B,2024-06-23_16h46.29.338,Slot Machine Game,2023.1.3,Win32,163.9344262,,,,,,,,,,,,,,,,,,,265.3752,14,1.7607,,up,0.5,,stimuli/card_10_transparent.png,460,10,14,0,14,0,1,,,,,,,,,,,,,,,,,,,,,,,,,,,,,,,,,,,,,,,,,,,,
,,,,5f6377b2155684053b55dfcc,B,2024-06-23_16h46.29.338,Slot Machine Game,2023.1.3,Win32,163.9344262,,,,,,,,,,,,,,,,,,,,,,,,,,,,,,,,,,,268.4416,,,273.4392,space,1.9407,0.0001,,,,,,,,,,,,,,,,,,,,,,,,,,,,,,,,,,,,
,,,,5f6377b2155684053b55dfcc,B,2024-06-23_16h46.29.338,Slot Machine Game,2023.1.3,Win32,163.9344262,,,,,,,,,,,,,,,,,,,,,,,,,,,,,,,,,,,,,,,,,,275.3881,1,"[0,1,2,3,4,5,6,7,8,9]",space,2.4384,,,,,,,,,,,,,,,,,,,,,,,,,,,,,,,
,,,,5f6377b2155684053b55dfcc,B,2024-06-23_16h46.29.338,Slot Machine Game,2023.1.3,Win32,163.9344262,,,,,,,,,,,,,,,,,,,,,,,,,,,100,,,,,,,,,,,,,,,,,,,,,1,1,"[12,15]","[[2,1,3],[2,3,1]]",277.84,0,left,0.4851,,1.5,0.3,"[2,1,3]",0.15341101,stimuli/card_100_transparent.png,100,0,0,0,0,1,,,,,,,,,,
,,,,5f6377b2155684053b55dfcc,B,2024-06-23_16h46.29.338,Slot Machine Game,2023.1.3,Win32,163.9344262,,,,,,,,,,,,,,,,,,,,,,,,,,,110,,,,,,,,,,,,,,,,,,,,,1,1,,,280.6343,1,left,1.9326,,1.5,0.3,"[2,1,3]",0.424095625,stimuli/card_10_transparent.png,10,1,0,1,0,1,,,,,,,,,,
,,,,5f6377b2155684053b55dfcc,B,2024-06-23_16h46.29.338,Slot Machine Game,2023.1.3,Win32,163.9344262,,,,,,,,,,,,,,,,,,,,,,,,,,,120,,,,,,,,,,,,,,,,,,,,,1,1,,,284.8724,2,left,1.8108,,1.5,0.3,"[2,1,3]",0.690256246,stimuli/card_10_transparent.png,10,2,0,2,0,1,,,,,,,,,,
,,,,5f6377b2155684053b55dfcc,B,2024-06-23_16h46.29.338,Slot Machine Game,2023.1.3,Win32,163.9344262,,,,,,,,,,,,,,,,,,,,,,,,,,,130,,,,,,,,,,,,,,,,,,,,,1,1,,,288.9893,3,left,1.6947,,0.5,0.3,"[2,1,3]",0.368738999,stimuli/card_10_transparent.png,10,3,0,3,0,1,,,,,,,,,,
,,,,5f6377b2155684053b55dfcc,B,2024-06-23_16h46.29.338,Slot Machine Game,2023.1.3,Win32,163.9344262,,,,,,,,,,,,,,,,,,,,,,,,,,,130,,,,,,,,,,,,,,,,,,,,,1,1,,,291.9888,4,right,0.0735,,1,0.3,"[2,1,3]",0.356318523,stimuli/card_0_transparent.png,0,4,0,4,0,1,,,,,,,,,,
,,,,5f6377b2155684053b55dfcc,B,2024-06-23_16h46.29.338,Slot Machine Game,2023.1.3,Win32,163.9344262,,,,,,,,,,,,,,,,,,,,,,,,,,,130,,,,,,,,,,,,,,,,,,,,,1,1,,,293.865,5,right,1.8217,,1.5,0.3,"[2,1,3]",0.895580769,stimuli/card_0_transparent.png,0,5,0,5,0,1,,,,,,,,,,
,,,,5f6377b2155684053b55dfcc,B,2024-06-23_16h46.29.338,Slot Machine Game,2023.1.3,Win32,163.9344262,,,,,,,,,,,,,,,,,,,,,,,,,,,230,,,,,,,,,,,,,,,,,,,,,1,1,,,297.994,6,up,0.8621,,0.5,0.3,"[2,1,3]",0.713030824,stimuli/card_100_transparent.png,100,6,0,6,0,1,,,,,,,,,,
,,,,5f6377b2155684053b55dfcc,B,2024-06-23_16h46.29.338,Slot Machine Game,2023.1.3,Win32,163.9344262,,,,,,,,,,,,,,,,,,,,,,,,,,,330,,,,,,,,,,,,,,,,,,,,,1,1,,,300.1618,7,up,1.0449,,1.5,0.3,"[2,1,3]",0.591452103,stimuli/card_100_transparent.png,100,7,0,7,0,1,,,,,,,,,,
,,,,5f6377b2155684053b55dfcc,B,2024-06-23_16h46.29.338,Slot Machine Game,2023.1.3,Win32,163.9344262,,,,,,,,,,,,,,,,,,,,,,,,,,,340,,,,,,,,,,,,,,,,,,,,,1,1,,,303.5135,8,up,0.0972,,1.5,0.3,"[2,1,3]",0.104809105,stimuli/card_10_transparent.png,10,8,0,8,0,1,,,,,,,,,,
,,,,5f6377b2155684053b55dfcc,B,2024-06-23_16h46.29.338,Slot Machine Game,2023.1.3,Win32,163.9344262,,,,,,,,,,,,,,,,,,,,,,,,,,,440,,,,,,,,,,,,,,,,,,,,,1,1,,,305.918,9,up,0.1401,,1.5,0.3,"[2,1,3]",0.435646258,stimuli/card_100_transparent.png,100,9,0,9,0,1,,,,,,,,,,
,,,,5f6377b2155684053b55dfcc,B,2024-06-23_16h46.29.338,Slot Machine Game,2023.1.3,Win32,163.9344262,,,,,,,,,,,,,,,,,,,,,,,,,,,440,,,,,,,,,,,,,,,,,,,,,1,1,,,308.365,10,up,0.2374,,1.5,0.3,"[2,1,3]",0.023237057,stimuli/card_0_transparent.png,0,10,0,10,0,1,,,,,,,,,,
,,,,5f6377b2155684053b55dfcc,B,2024-06-23_16h46.29.338,Slot Machine Game,2023.1.3,Win32,163.9344262,,,,,,,,,,,,,,,,,,,,,,,,,,,540,,,,,,,,,,,,,,,,,,,,,1,1,,,310.9092,11,up,0.1213,,1.5,0.3,"[2,1,3]",0.778855933,stimuli/card_100_transparent.png,100,11,0,11,0,1,,,,,,,,,,
,,,,5f6377b2155684053b55dfcc,B,2024-06-23_16h46.29.338,Slot Machine Game,2023.1.3,Win32,163.9344262,,,,,,,,,,,,,,,,,,,,,,,,,,,540,,,,,,,,,,,,,,,,,,,,,1,1,,,313.338,12,up,0.0609,,0.5,0.3,"[2,3,1]",0.503446387,stimuli/card_0_transparent.png,0,12,0,12,0,1,,,,,,,,,,
,,,,5f6377b2155684053b55dfcc,B,2024-06-23_16h46.29.338,Slot Machine Game,2023.1.3,Win32,163.9344262,,,,,,,,,,,,,,,,,,,,,,,,,,,540,,,,,,,,,,,,,,,,,,,,,1,1,,,314.7042,13,up,0.0423,,1,0.3,"[2,3,1]",0.889545201,stimuli/card_0_transparent.png,0,13,0,13,0,1,,,,,,,,,,
,,,,5f6377b2155684053b55dfcc,B,2024-06-23_16h46.29.338,Slot Machine Game,2023.1.3,Win32,163.9344262,,,,,,,,,,,,,,,,,,,,,,,,,,,640,,,,,,,,,,,,,,,,,,,,,1,1,,,316.5501,14,up,0.0004,,1,0.3,"[2,3,1]",0.051379978,stimuli/card_100_transparent.png,100,14,0,14,0,1,,,,,,,,,,
,,,,5f6377b2155684053b55dfcc,B,2024-06-23_16h46.29.338,Slot Machine Game,2023.1.3,Win32,163.9344262,,,,,,,,,,,,,,,,,,,,,,,,,,,,,,,,,,,318.3536,,,,,,,,,,,,,,,,,,,,,,,,,,,,,,,,,[640],0,0,0,0,1,,,,
,,,,5f6377b2155684053b55dfcc,B,2024-06-23_16h46.29.338,Slot Machine Game,2023.1.3,Win32,163.9344262,,,,,,,,,,,,,,,,,,,,,,,,,,,0,,,,,,,,,,,,,,,,,,,,,2,2,"[6,15]","[[1,3,2],[3,2,1]]",323.3555,0,up,1.7676,,0.5,0.3,"[1,3,2]",0.480097556,stimuli/card_0_transparent.png,0,0,0,0,0,1,,,,,,,,,,
,,,,5f6377b2155684053b55dfcc,B,2024-06-23_16h46.29.338,Slot Machine Game,2023.1.3,Win32,163.9344262,,,,,,,,,,,,,,,,,,,,,,,,,,,0,,,,,,,,,,,,,,,,,,,,,2,2,,,326.4292,1,up,1.1964,,1,0.3,"[1,3,2]",0.582560485,stimuli/card_0_transparent.png,0,1,0,1,0,1,,,,,,,,,,
,,,,5f6377b2155684053b55dfcc,B,2024-06-23_16h46.29.338,Slot Machine Game,2023.1.3,Win32,163.9344262,,,,,,,,,,,,,,,,,,,,,,,,,,,10,,,,,,,,,,,,,,,,,,,,,2,2,,,329.4288,2,right,2.2226,,1,0.3,"[1,3,2]",0.991880063,stimuli/card_10_transparent.png,10,2,0,2,0,1,,,,,,,,,,
,,,,5f6377b2155684053b55dfcc,B,2024-06-23_16h46.29.338,Slot Machine Game,2023.1.3,Win32,163.9344262,,,,,,,,,,,,,,,,,,,,,,,,,,,20,,,,,,,,,,,,,,,,,,,,,2,2,,,333.4546,3,right,1.6756,,1,0.3,"[1,3,2]",0.468184726,stimuli/card_10_transparent.png,10,3,0,3,0,1,,,,,,,,,,
,,,,5f6377b2155684053b55dfcc,B,2024-06-23_16h46.29.338,Slot Machine Game,2023.1.3,Win32,163.9344262,,,,,,,,,,,,,,,,,,,,,,,,,,,120,,,,,,,,,,,,,,,,,,,,,2,2,,,336.9339,4,left,1.8217,,1,0.3,"[1,3,2]",0.220801244,stimuli/card_100_transparent.png,100,4,0,4,0,1,,,,,,,,,,
,,,,5f6377b2155684053b55dfcc,B,2024-06-23_16h46.29.338,Slot Machine Game,2023.1.3,Win32,163.9344262,,,,,,,,,,,,,,,,,,,,,,,,,,,220,,,,,,,,,,,,,,,,,,,,,2,2,,,340.5589,5,left,0.1703,,1.5,0.3,"[1,3,2]",0.420142762,stimuli/card_100_transparent.png,100,5,0,5,0,1,,,,,,,,,,
,,,,5f6377b2155684053b55dfcc,B,2024-06-23_16h46.29.338,Slot Machine Game,2023.1.3,Win32,163.9344262,,,,,,,,,,,,,,,,,,,,,,,,,,,220,,,,,,,,,,,,,,,,,,,,,2,2,,,343.0362,6,left,0.0121,,1,0.3,"[3,2,1]",0.780381205,stimuli/card_0_transparent.png,0,6,0,6,0,1,,,,,,,,,,
,,,,5f6377b2155684053b55dfcc,B,2024-06-23_16h46.29.338,Slot Machine Game,2023.1.3,Win32,163.9344262,,,,,,,,,,,,,,,,,,,,,,,,,,,220,,,,,,,,,,,,,,,,,,,,,2,2,,,344.8518,7,left,0.133,,1.5,0.3,"[3,2,1]",0.928108211,stimuli/card_0_transparent.png,0,7,0,7,0,1,,,,,,,,,,
,,,,5f6377b2155684053b55dfcc,B,2024-06-23_16h46.29.338,Slot Machine Game,2023.1.3,Win32,163.9344262,,,,,,,,,,,,,,,,,,,,,,,,,,,220,,,,,,,,,,,,,,,,,,,,,2,2,,,347.2927,8,left,0.1281,,0.5,0.3,"[3,2,1]",0.204354946,stimuli/card_0_transparent.png,0,8,0,8,0,1,,,,,,,,,,
,,,,5f6377b2155684053b55dfcc,B,2024-06-23_16h46.29.338,Slot Machine Game,2023.1.3,Win32,163.9344262,,,,,,,,,,,,,,,,,,,,,,,,,,,230,,,,,,,,,,,,,,,,,,,,,2,2,,,348.7257,9,left,0.1285,,0.5,0.3,"[3,2,1]",0.152068763,stimuli/card_10_transparent.png,10,9,0,9,0,1,,,,,,,,,,
,,,,5f6377b2155684053b55dfcc,B,2024-06-23_16h46.29.338,Slot Machine Game,2023.1.3,Win32,163.9344262,,,,,,,,,,,,,,,,,,,,,,,,,,,230,,,,,,,,,,,,,,,,,,,,,2,2,,,350.1587,10,left,1.9249,,0.5,0.3,"[3,2,1]",0.591476984,stimuli/card_0_transparent.png,0,10,0,10,0,1,,,,,,,,,,
,,,,5f6377b2155684053b55dfcc,B,2024-06-23_16h46.29.338,Slot Machine Game,2023.1.3,Win32,163.9344262,,,,,,,,,,,,,,,,,,,,,,,,,,,240,,,,,,,,,,,,,,,,,,,,,2,2,,,353.389,11,up,0.1817,,0.5,0.3,"[3,2,1]",0.336569061,stimuli/card_10_transparent.png,10,11,0,11,0,1,,,,,,,,,,
,,,,5f6377b2155684053b55dfcc,B,2024-06-23_16h46.29.338,Slot Machine Game,2023.1.3,Win32,163.9344262,,,,,,,,,,,,,,,,,,,,,,,,,,,340,,,,,,,,,,,,,,,,,,,,,2,2,,,354.8766,12,right,0.7045,,0.5,0.3,"[3,2,1]",0.616536808,stimuli/card_100_transparent.png,100,12,0,12,0,1,,,,,,,,,,
,,,,5f6377b2155684053b55dfcc,B,2024-06-23_16h46.29.338,Slot Machine Game,2023.1.3,Win32,163.9344262,,,,,,,,,,,,,,,,,,,,,,,,,,,440,,,,,,,,,,,,,,,,,,,,,2,2,,,356.8865,13,right,0.3228,,1,0.3,"[3,2,1]",0.808876877,stimuli/card_100_transparent.png,100,13,0,13,0,1,,,,,,,,,,
,,,,5f6377b2155684053b55dfcc,B,2024-06-23_16h46.29.338,Slot Machine Game,2023.1.3,Win32,163.9344262,,,,,,,,,,,,,,,,,,,,,,,,,,,540,,,,,,,,,,,,,,,,,,,,,2,2,,,359.0117,14,right,0.8144,,1.5,0.3,"[3,2,1]",0.301660234,stimuli/card_100_transparent.png,100,14,0,14,0,1,,,,,,,,,,
,,,,5f6377b2155684053b55dfcc,B,2024-06-23_16h46.29.338,Slot Machine Game,2023.1.3,Win32,163.9344262,,,,,,,,,,,,,,,,,,,,,,,,,,,,,,,,,,,362.1327,,,,,,,,,,,,,,,,,,,,,,,,,,,,,,,,,"[640,540]",1,0,1,0,1,,,,
,,,,5f6377b2155684053b55dfcc,B,2024-06-23_16h46.29.338,Slot Machine Game,2023.1.3,Win32,163.9344262,,,,,,,,,,,,,,,,,,,,,,,,,,,0,,,,,,,,,,,,,,,,,,,,,3,3,"[15,15]","[[3,1,2],[3,1,2]]",367.1346,0,left,1.4452,,1.5,0.3,"[3,1,2]",0.755668915,stimuli/card_0_transparent.png,0,0,0,0,0,1,,,,,,,,,,
,,,,5f6377b2155684053b55dfcc,B,2024-06-23_16h46.29.338,Slot Machine Game,2023.1.3,Win32,163.9344262,,,,,,,,,,,,,,,,,,,,,,,,,,,0,,,,,,,,,,,,,,,,,,,,,3,3,,,370.8886,1,left,2.6785,,1.5,0.3,"[3,1,2]",0.996495938,stimuli/card_0_transparent.png,0,1,0,1,0,1,,,,,,,,,,
,,,,5f6377b2155684053b55dfcc,B,2024-06-23_16h46.29.338,Slot Machine Game,2023.1.3,Win32,163.9344262,,,,,,,,,,,,,,,,,,,,,,,,,,,10,,,,,,,,,,,,,,,,,,,,,3,3,,,375.8737,2,right,0.8677,,1.5,0.3,"[3,1,2]",0.603915556,stimuli/card_10_transparent.png,10,2,0,2,0,1,,,,,,,,,,
,,,,5f6377b2155684053b55dfcc,B,2024-06-23_16h46.29.338,Slot Machine Game,2023.1.3,Win32,163.9344262,,,,,,,,,,,,,,,,,,,,,,,,,,,20,,,,,,,,,,,,,,,,,,,,,3,3,,,379.0494,3,up,2.2044,,0.5,0.3,"[3,1,2]",0.162974559,stimuli/card_10_transparent.png,10,3,0,3,0,1,,,,,,,,,,
,,,,5f6377b2155684053b55dfcc,B,2024-06-23_16h46.29.338,Slot Machine Game,2023.1.3,Win32,163.9344262,,,,,,,,,,,,,,,,,,,,,,,,,,,120,,,,,,,,,,,,,,,,,,,,,3,3,,,382.559,4,up,2.1983,,1.5,0.3,"[3,1,2]",0.92875164,stimuli/card_100_transparent.png,100,4,0,4,0,1,,,,,,,,,,
,,,,5f6377b2155684053b55dfcc,B,2024-06-23_16h46.29.338,Slot Machine Game,2023.1.3,Win32,163.9344262,,,,,,,,,,,,,,,,,,,,,,,,,,,220,,,,,,,,,,,,,,,,,,,,,3,3,,,387.0644,5,up,0.1094,,0.5,0.3,"[3,1,2]",0.682913909,stimuli/card_100_transparent.png,100,5,0,5,0,1,,,,,,,,,,
,,,,5f6377b2155684053b55dfcc,B,2024-06-23_16h46.29.338,Slot Machine Game,2023.1.3,Win32,163.9344262,,,,,,,,,,,,,,,,,,,,,,,,,,,320,,,,,,,,,,,,,,,,,,,,,3,3,,,388.4792,6,up,0.6443,,1,0.3,"[3,1,2]",0.94974876,stimuli/card_100_transparent.png,100,6,0,6,0,1,,,,,,,,,,
,,,,5f6377b2155684053b55dfcc,B,2024-06-23_16h46.29.338,Slot Machine Game,2023.1.3,Win32,163.9344262,,,,,,,,,,,,,,,,,,,,,,,,,,,420,,,,,,,,,,,,,,,,,,,,,3,3,,,390.9262,7,up,0.7416,,0.5,0.3,"[3,1,2]",0.848079812,stimuli/card_100_transparent.png,100,7,0,7,0,1,,,,,,,,,,
,,,,5f6377b2155684053b55dfcc,B,2024-06-23_16h46.29.338,Slot Machine Game,2023.1.3,Win32,163.9344262,,,,,,,,,,,,,,,,,,,,,,,,,,,520,,,,,,,,,,,,,,,,,,,,,3,3,,,392.9724,8,up,1.7063,,1,0.3,"[3,1,2]",0.434038772,stimuli/card_100_transparent.png,100,8,0,8,0,1,,,,,,,,,,
,,,,5f6377b2155684053b55dfcc,B,2024-06-23_16h46.29.338,Slot Machine Game,2023.1.3,Win32,163.9344262,,,,,,,,,,,,,,,,,,,,,,,,,,,620,,,,,,,,,,,,,,,,,,,,,3,3,,,396.4821,9,up,0.0063,,1,0.3,"[3,1,2]",0.751215002,stimuli/card_100_transparent.png,100,9,0,9,0,1,,,,,,,,,,
,,,,5f6377b2155684053b55dfcc,B,2024-06-23_16h46.29.338,Slot Machine Game,2023.1.3,Win32,163.9344262,,,,,,,,,,,,,,,,,,,,,,,,,,,720,,,,,,,,,,,,,,,,,,,,,3,3,,,398.2915,10,up,1.0088,,1,0.3,"[3,1,2]",0.865100207,stimuli/card_100_transparent.png,100,10,0,10,0,1,,,,,,,,,,
,,,,5f6377b2155684053b55dfcc,B,2024-06-23_16h46.29.338,Slot Machine Game,2023.1.3,Win32,163.9344262,,,,,,,,,,,,,,,,,,,,,,,,,,,820,,,,,,,,,,,,,,,,,,,,,3,3,,,401.1029,11,up,0.9662,,1.5,0.3,"[3,1,2]",0.680871446,stimuli/card_100_transparent.png,100,11,0,11,0,1,,,,,,,,,,
,,,,5f6377b2155684053b55dfcc,B,2024-06-23_16h46.29.338,Slot Machine Game,2023.1.3,Win32,163.9344262,,,,,,,,,,,,,,,,,,,,,,,,,,,830,,,,,,,,,,,,,,,,,,,,,3,3,,,404.3757,12,up,1.045,,0.5,0.3,"[3,1,2]",0.116028609,stimuli/card_10_transparent.png,10,12,0,12,0,1,,,,,,,,,,
,,,,5f6377b2155684053b55dfcc,B,2024-06-23_16h46.29.338,Slot Machine Game,2023.1.3,Win32,163.9344262,,,,,,,,,,,,,,,,,,,,,,,,,,,930,,,,,,,,,,,,,,,,,,,,,3,3,,,406.7256,13,up,1.4159,,1,0.3,"[3,1,2]",0.938372675,stimuli/card_100_transparent.png,100,13,0,13,0,1,,,,,,,,,,
,,,,5f6377b2155684053b55dfcc,B,2024-06-23_16h46.29.338,Slot Machine Game,2023.1.3,Win32,163.9344262,,,,,,,,,,,,,,,,,,,,,,,,,,,1030,,,,,,,,,,,,,,,,,,,,,3,3,,,409.9437,14,up,0.0187,,1,0.3,"[3,1,2]",0.805319384,stimuli/card_100_transparent.png,100,14,0,14,0,1,,,,,,,,,,
,,,,5f6377b2155684053b55dfcc,B,2024-06-23_16h46.29.338,Slot Machine Game,2023.1.3,Win32,163.9344262,,,,,,,,,,,,,,,,,,,,,,,,,,,,,,,,,,,411.7654,,,,,,,,,,,,,,,,,,,,,,,,,,,,,,,,,"[640,540,1030]",2,0,2,0,1,,,,
,,,,5f6377b2155684053b55dfcc,B,2024-06-23_16h46.29.338,Slot Machine Game,2023.1.3,Win32,163.9344262,,,,,,,,,,,,,,,,,,,,,,,,,,,0,,,,,,,,,,,,,,,,,,,,,4,4,"[7,15]","[[2,3,1],[1,2,3]]",416.7672,0,up,0.6616,,0.5,0.3,"[2,3,1]",0.848441751,stimuli/card_0_transparent.png,0,0,0,0,0,1,,,,,,,,,,
,,,,5f6377b2155684053b55dfcc,B,2024-06-23_16h46.29.338,Slot Machine Game,2023.1.3,Win32,163.9344262,,,,,,,,,,,,,,,,,,,,,,,,,,,10,,,,,,,,,,,,,,,,,,,,,4,4,,,418.736,1,right,1.3122,,1,0.3,"[2,3,1]",0.197900717,stimuli/card_10_transparent.png,10,1,0,1,0,1,,,,,,,,,,
,,,,5f6377b2155684053b55dfcc,B,2024-06-23_16h46.29.338,Slot Machine Game,2023.1.3,Win32,163.9344262,,,,,,,,,,,,,,,,,,,,,,,,,,,110,,,,,,,,,,,,,,,,,,,,,4,4,,,421.8509,2,right,0.1522,,1.5,0.3,"[2,3,1]",0.55722027,stimuli/card_100_transparent.png,100,2,0,2,0,1,,,,,,,,,,
,,,,5f6377b2155684053b55dfcc,B,2024-06-23_16h46.29.338,Slot Machine Game,2023.1.3,Win32,163.9344262,,,,,,,,,,,,,,,,,,,,,,,,,,,210,,,,,,,,,,,,,,,,,,,,,4,4,,,424.3101,3,right,0.1094,,1,0.3,"[2,3,1]",0.665636267,stimuli/card_100_transparent.png,100,3,0,3,0,1,,,,,,,,,,
,,,,5f6377b2155684053b55dfcc,B,2024-06-23_16h46.29.338,Slot Machine Game,2023.1.3,Win32,163.9344262,,,,,,,,,,,,,,,,,,,,,,,,,,,310,,,,,,,,,,,,,,,,,,,,,4,4,,,426.2228,4,right,0.6255,,1,0.3,"[2,3,1]",0.916443439,stimuli/card_100_transparent.png,100,4,0,4,0,1,,,,,,,,,,
,,,,5f6377b2155684053b55dfcc,B,2024-06-23_16h46.29.338,Slot Machine Game,2023.1.3,Win32,163.9344262,,,,,,,,,,,,,,,,,,,,,,,,,,,410,,,,,,,,,,,,,,,,,,,,,4,4,,,428.6516,5,right,0.6314,,1.5,0.3,"[2,3,1]",0.263238828,stimuli/card_100_transparent.png,100,5,0,5,0,1,,,,,,,,,,
,,,,5f6377b2155684053b55dfcc,B,2024-06-23_16h46.29.338,Slot Machine Game,2023.1.3,Win32,163.9344262,,,,,,,,,,,,,,,,,,,,,,,,,,,510,,,,,,,,,,,,,,,,,,,,,4,4,,,431.5905,6,right,0.0178,,1,0.3,"[2,3,1]",0.865409132,stimuli/card_100_transparent.png,100,6,0,6,0,1,,,,,,,,,,
,,,,5f6377b2155684053b55dfcc,B,2024-06-23_16h46.29.338,Slot Machine Game,2023.1.3,Win32,163.9344262,,,,,,,,,,,,,,,,,,,,,,,,,,,510,,,,,,,,,,,,,,,,,,,,,4,4,,,433.4121,7,right,1.0332,,0.5,0.3,"[1,2,3]",0.856432353,stimuli/card_0_transparent.png,0,7,0,7,0,1,,,,,,,,,,
,,,,5f6377b2155684053b55dfcc,B,2024-06-23_16h46.29.338,Slot Machine Game,2023.1.3,Win32,163.9344262,,,,,,,,,,,,,,,,,,,,,,,,,,,510,,,,,,,,,,,,,,,,,,,,,4,4,,,435.7498,8,right,1.0694,,0.5,0.3,"[1,2,3]",0.633742971,stimuli/card_0_transparent.png,0,8,0,8,0,1,,,,,,,,,,
,,,,5f6377b2155684053b55dfcc,B,2024-06-23_16h46.29.338,Slot Machine Game,2023.1.3,Win32,163.9344262,,,,,,,,,,,,,,,,,,,,,,,,,,,510,,,,,,,,,,,,,,,,,,,,,4,4,,,438.124,9,right,0.1576,,1.5,0.3,"[1,2,3]",0.558548304,stimuli/card_0_transparent.png,0,9,0,9,0,1,,,,,,,,,,
,,,,5f6377b2155684053b55dfcc,B,2024-06-23_16h46.29.338,Slot Machine Game,2023.1.3,Win32,163.9344262,,,,,,,,,,,,,,,,,,,,,,,,,,,510,,,,,,,,,,,,,,,,,,,,,4,4,,,440.5892,10,right,0.1873,,0.5,0.3,"[1,2,3]",0.412860012,stimuli/card_0_transparent.png,0,10,0,10,0,1,,,,,,,,,,
,,,,5f6377b2155684053b55dfcc,B,2024-06-23_16h46.29.338,Slot Machine Game,2023.1.3,Win32,163.9344262,,,,,,,,,,,,,,,,,,,,,,,,,,,510,,,,,,,,,,,,,,,,,,,,,4,4,,,442.0829,11,right,1.143,,1,0.3,"[1,2,3]",0.680961174,stimuli/card_0_transparent.png,0,11,0,11,0,1,,,,,,,,,,
,,,,5f6377b2155684053b55dfcc,B,2024-06-23_16h46.29.338,Slot Machine Game,2023.1.3,Win32,163.9344262,,,,,,,,,,,,,,,,,,,,,,,,,,,610,,,,,,,,,,,,,,,,,,,,,4,4,,,445.0278,12,left,1.3739,,1.5,0.3,"[1,2,3]",0.28502373,stimuli/card_100_transparent.png,100,12,0,12,0,1,,,,,,,,,,
,,,,5f6377b2155684053b55dfcc,B,2024-06-23_16h46.29.338,Slot Machine Game,2023.1.3,Win32,163.9344262,,,,,,,,,,,,,,,,,,,,,,,,,,,710,,,,,,,,,,,,,,,,,,,,,4,4,,,448.7074,13,left,0.0377,,1.5,0.3,"[1,2,3]",0.526523516,stimuli/card_100_transparent.png,100,13,0,13,0,1,,,,,,,,,,
,,,,5f6377b2155684053b55dfcc,B,2024-06-23_16h46.29.338,Slot Machine Game,2023.1.3,Win32,163.9344262,,,,,,,,,,,,,,,,,,,,,,,,,,,810,,,,,,,,,,,,,,,,,,,,,4,4,,,451.0513,14,left,0.0555,,0.5,0.3,"[1,2,3]",0.974740772,stimuli/card_100_transparent.png,100,14,0,14,0,1,,,,,,,,,,
,,,,5f6377b2155684053b55dfcc,B,2024-06-23_16h46.29.338,Slot Machine Game,2023.1.3,Win32,163.9344262,,,,,,,,,,,,,,,,,,,,,,,,,,,,,,,,,,,452.4114,,,,,,,,,,,,,,,,,,,,,,,,,,,,,,,,,"[640,540,1030,810]",3,0,3,0,1,,,,
,,,,5f6377b2155684053b55dfcc,B,2024-06-23_16h46.29.338,Slot Machine Game,2023.1.3,Win32,163.9344262,,,,,,,,,,,,,,,,,,,,,,,,,,,10,,,,,,,,,,,,,,,,,,,,,5,5,"[5,15]","[[1,2,3],[3,1,2]]",457.4133,0,up,0.6557,0,0.5,0.3,"[1,2,3]",0.593383245,stimuli/card_10_transparent.png,10,0,0,0,0,1,,,,,,,,,,
,,,,5f6377b2155684053b55dfcc,B,2024-06-23_16h46.29.338,Slot Machine Game,2023.1.3,Win32,163.9344262,,,,,,,,,,,,,,,,,,,,,,,,,,,20,,,,,,,,,,,,,,,,,,,,,5,5,,,459.3759,1,up,1.2443,,1,0.3,"[1,2,3]",0.747890082,stimuli/card_10_transparent.png,10,1,0,1,0,1,,,,,,,,,,
,,,,5f6377b2155684053b55dfcc,B,2024-06-23_16h46.29.338,Slot Machine Game,2023.1.3,Win32,163.9344262,,,,,,,,,,,,,,,,,,,,,,,,,,,20,,,,,,,,,,,,,,,,,,,,,5,5,,,462.4241,2,right,0.1153,,1.5,0.3,"[1,2,3]",0.449113427,stimuli/card_0_transparent.png,0,2,0,2,0,1,,,,,,,,,,
,,,,5f6377b2155684053b55dfcc,B,2024-06-23_16h46.29.338,Slot Machine Game,2023.1.3,Win32,163.9344262,,,,,,,,,,,,,,,,,,,,,,,,,,,120,,,,,,,,,,,,,,,,,,,,,5,5,,,464.8469,3,left,0.948,,1,0.3,"[1,2,3]",0.90191462,stimuli/card_100_transparent.png,100,3,0,3,0,1,,,,,,,,,,
,,,,5f6377b2155684053b55dfcc,B,2024-06-23_16h46.29.338,Slot Machine Game,2023.1.3,Win32,163.9344262,,,,,,,,,,,,,,,,,,,,,,,,,,,220,,,,,,,,,,,,,,,,,,,,,5,5,,,467.5976,4,left,0.0492,,0.5,0.3,"[1,2,3]",0.401244228,stimuli/card_100_transparent.png,100,4,0,4,0,1,,,,,,,,,,
,,,,5f6377b2155684053b55dfcc,B,2024-06-23_16h46.29.338,Slot Machine Game,2023.1.3,Win32,163.9344262,,,,,,,,,,,,,,,,,,,,,,,,,,,320,,,,,,,,,,,,,,,,,,,,,5,5,,,468.9515,5,left,0.0551,,1,0.3,"[3,1,2]",0.013365507,stimuli/card_100_transparent.png,100,5,0,5,0,1,,,,,,,,,,
,,,,5f6377b2155684053b55dfcc,B,2024-06-23_16h46.29.338,Slot Machine Game,2023.1.3,Win32,163.9344262,,,,,,,,,,,,,,,,,,,,,,,,,,,320,,,,,,,,,,,,,,,,,,,,,5,5,,,470.8096,6,left,0.742,,0.5,0.3,"[3,1,2]",0.890985447,stimuli/card_0_transparent.png,0,6,0,6,0,1,,,,,,,,,,
,,,,5f6377b2155684053b55dfcc,B,2024-06-23_16h46.29.338,Slot Machine Game,2023.1.3,Win32,163.9344262,,,,,,,,,,,,,,,,,,,,,,,,,,,320,,,,,,,,,,,,,,,,,,,,,5,5,,,472.8559,7,left,0.1469,,1,0.3,"[3,1,2]",0.404241818,stimuli/card_0_transparent.png,0,7,0,7,0,1,,,,,,,,,,
,,,,5f6377b2155684053b55dfcc,B,2024-06-23_16h46.29.338,Slot Machine Game,2023.1.3,Win32,163.9344262,,,,,,,,,,,,,,,,,,,,,,,,,,,330,,,,,,,,,,,,,,,,,,,,,5,5,,,474.805,8,up,0.7655,,1.5,0.3,"[3,1,2]",0.147067612,stimuli/card_10_transparent.png,10,8,0,8,0,1,,,,,,,,,,
,,,,5f6377b2155684053b55dfcc,B,2024-06-23_16h46.29.338,Slot Machine Game,2023.1.3,Win32,163.9344262,,,,,,,,,,,,,,,,,,,,,,,,,,,430,,,,,,,,,,,,,,,,,,,,,5,5,,,477.8774,9,up,0.0183,,1.5,0.3,"[3,1,2]",0.975615864,stimuli/card_100_transparent.png,100,9,0,9,0,1,,,,,,,,,,
,,,,5f6377b2155684053b55dfcc,B,2024-06-23_16h46.29.338,Slot Machine Game,2023.1.3,Win32,163.9344262,,,,,,,,,,,,,,,,,,,,,,,,,,,440,,,,,,,,,,,,,,,,,,,,,5,5,,,480.203,10,up,0.0304,,1,0.3,"[3,1,2]",0.195653644,stimuli/card_10_transparent.png,10,10,0,10,0,1,,,,,,,,,,
,,,,5f6377b2155684053b55dfcc,B,2024-06-23_16h46.29.338,Slot Machine Game,2023.1.3,Win32,163.9344262,,,,,,,,,,,,,,,,,,,,,,,,,,,440,,,,,,,,,,,,,,,,,,,,,5,5,,,482.0368,11,up,0.3217,,0.5,0.3,"[3,1,2]",0.045651931,stimuli/card_0_transparent.png,0,11,0,11,0,1,,,,,,,,,,
,,,,5f6377b2155684053b55dfcc,B,2024-06-23_16h46.29.338,Slot Machine Game,2023.1.3,Win32,163.9344262,,,,,,,,,,,,,,,,,,,,,,,,,,,450,,,,,,,,,,,,,,,,,,,,,5,5,,,483.664,12,right,0.8392,,1,0.3,"[3,1,2]",0.663685559,stimuli/card_10_transparent.png,10,12,0,12,0,1,,,,,,,,,,
,,,,5f6377b2155684053b55dfcc,B,2024-06-23_16h46.29.338,Slot Machine Game,2023.1.3,Win32,163.9344262,,,,,,,,,,,,,,,,,,,,,,,,,,,550,,,,,,,,,,,,,,,,,,,,,5,5,,,486.3055,13,up,0.0066,,0.5,0.3,"[3,1,2]",0.83716312,stimuli/card_100_transparent.png,100,13,0,13,0,1,,,,,,,,,,
,,,,5f6377b2155684053b55dfcc,B,2024-06-23_16h46.29.338,Slot Machine Game,2023.1.3,Win32,163.9344262,,,,,,,,,,,,,,,,,,,,,,,,,,,650,,,,,,,,,,,,,,,,,,,,,5,5,,,487.617,14,up,0.0674,,1,0.3,"[3,1,2]",0.842460697,stimuli/card_100_transparent.png,100,14,0,14,0,1,,,,,,,,,,
,,,,5f6377b2155684053b55dfcc,B,2024-06-23_16h46.29.338,Slot Machine Game,2023.1.3,Win32,163.9344262,,,,,,,,,,,,,,,,,,,,,,,,,,,,,,,,,,,489.4871,,,,,,,,,,,,,,,,,,,,,,,,,,,,,,,,,"[640,540,1030,810,650]",4,0,4,0,1,,,,
,,,,5f6377b2155684053b55dfcc,B,2024-06-23_16h46.29.338,Slot Machine Game,2023.1.3,Win32,163.9344262,,,,,,,,,,,,,,,,,,,,,,,,,,,100,,,,,,,,,,,,,,,,,,,,,6,6,"[4,10,15]","[[2,3,1],[1,3,2],[3,2,1]]",494.4889,0,left,0.9952,,1,0.3,"[2,3,1]",0.160462096,stimuli/card_100_transparent.png,100,0,0,0,0,1,,,,,,,,,,
,,,,5f6377b2155684053b55dfcc,B,2024-06-23_16h46.29.338,Slot Machine Game,2023.1.3,Win32,163.9344262,,,,,,,,,,,,,,,,,,,,,,,,,,,110,,,,,,,,,,,,,,,,,,,,,6,6,,,497.2897,1,left,1.1113,,1,0.3,"[2,3,1]",0.559144953,stimuli/card_10_transparent.png,10,1,0,1,0,1,,,,,,,,,,
,,,,5f6377b2155684053b55dfcc,B,2024-06-23_16h46.29.338,Slot Machine Game,2023.1.3,Win32,163.9344262,,,,,,,,,,,,,,,,,,,,,,,,,,,110,,,,,,,,,,,,,,,,,,,,,6,6,,,500.2043,2,up,0.0795,,1.5,0.3,"[2,3,1]",0.852906554,stimuli/card_0_transparent.png,0,2,0,2,0,1,,,,,,,,,,
,,,,5f6377b2155684053b55dfcc,B,2024-06-23_16h46.29.338,Slot Machine Game,2023.1.3,Win32,163.9344262,,,,,,,,,,,,,,,,,,,,,,,,,,,120,,,,,,,,,,,,,,,,,,,,,6,6,,,502.5906,3,left,1.1971,,0.5,0.3,"[2,3,1]",0.696991851,stimuli/card_10_transparent.png,10,3,0,3,0,1,,,,,,,,,,
,,,,5f6377b2155684053b55dfcc,B,2024-06-23_16h46.29.338,Slot Machine Game,2023.1.3,Win32,163.9344262,,,,,,,,,,,,,,,,,,,,,,,,,,,220,,,,,,,,,,,,,,,,,,,,,6,6,,,505.0922,4,left,0.0798,,1.5,0.3,"[1,3,2]",0.764726718,stimuli/card_100_transparent.png,100,4,0,4,0,1,,,,,,,,,,
,,,,5f6377b2155684053b55dfcc,B,2024-06-23_16h46.29.338,Slot Machine Game,2023.1.3,Win32,163.9344262,,,,,,,,,,,,,,,,,,,,,,,,,,,320,,,,,,,,,,,,,,,,,,,,,6,6,,,507.4785,5,left,0.4377,,1.5,0.3,"[1,3,2]",0.383006612,stimuli/card_100_transparent.png,100,5,0,5,0,1,,,,,,,,,,
,,,,5f6377b2155684053b55dfcc,B,2024-06-23_16h46.29.338,Slot Machine Game,2023.1.3,Win32,163.9344262,,,,,,,,,,,,,,,,,,,,,,,,,,,420,,,,,,,,,,,,,,,,,,,,,6,6,,,510.2231,6,left,0.1823,,1,0.3,"[1,3,2]",0.763207822,stimuli/card_100_transparent.png,100,6,0,6,0,1,,,,,,,,,,
,,,,5f6377b2155684053b55dfcc,B,2024-06-23_16h46.29.338,Slot Machine Game,2023.1.3,Win32,163.9344262,,,,,,,,,,,,,,,,,,,,,,,,,,,520,,,,,,,,,,,,,,,,,,,,,6,6,,,512.2086,7,left,0.5896,,1,0.3,"[1,3,2]",0.901838938,stimuli/card_100_transparent.png,100,7,0,7,0,1,,,,,,,,,,
,,,,5f6377b2155684053b55dfcc,B,2024-06-23_16h46.29.338,Slot Machine Game,2023.1.3,Win32,163.9344262,,,,,,,,,,,,,,,,,,,,,,,,,,,620,,,,,,,,,,,,,,,,,,,,,6,6,,,514.6009,8,left,0.7473,,1,0.3,"[1,3,2]",0.581578512,stimuli/card_100_transparent.png,100,8,0,8,0,1,,,,,,,,,,
,,,,5f6377b2155684053b55dfcc,B,2024-06-23_16h46.29.338,Slot Machine Game,2023.1.3,Win32,163.9344262,,,,,,,,,,,,,,,,,,,,,,,,,,,720,,,,,,,,,,,,,,,,,,,,,6,6,,,517.1512,9,left,0.1155,,1.5,0.3,"[1,3,2]",0.945011461,stimuli/card_100_transparent.png,100,9,0,9,0,1,,,,,,,,,,
,,,,5f6377b2155684053b55dfcc,B,2024-06-23_16h46.29.338,Slot Machine Game,2023.1.3,Win32,163.9344262,,,,,,,,,,,,,,,,,,,,,,,,,,,720,,,,,,,,,,,,,,,,,,,,,6,6,,,519.5739,10,left,1.3297,,1,0.3,"[3,2,1]",0.323614734,stimuli/card_0_transparent.png,0,10,0,10,0,1,,,,,,,,,,
,,,,5f6377b2155684053b55dfcc,B,2024-06-23_16h46.29.338,Slot Machine Game,2023.1.3,Win32,163.9344262,,,,,,,,,,,,,,,,,,,,,,,,,,,720,,,,,,,,,,,,,,,,,,,,,6,6,,,522.7071,11,left,0.0606,,1.5,0.3,"[3,2,1]",0.893615768,stimuli/card_0_transparent.png,0,11,0,11,0,1,,,,,,,,,,
,,,,5f6377b2155684053b55dfcc,B,2024-06-23_16h46.29.338,Slot Machine Game,2023.1.3,Win32,163.9344262,,,,,,,,,,,,,,,,,,,,,,,,,,,820,,,,,,,,,,,,,,,,,,,,,6,6,,,525.0752,12,left,0.0674,,0.5,0.3,"[3,2,1]",0.04361462,stimuli/card_100_transparent.png,100,12,0,12,0,1,,,,,,,,,,
,,,,5f6377b2155684053b55dfcc,B,2024-06-23_16h46.29.338,Slot Machine Game,2023.1.3,Win32,163.9344262,,,,,,,,,,,,,,,,,,,,,,,,,,,820,,,,,,,,,,,,,,,,,,,,,6,6,,,526.4474,13,left,0.2337,,1.5,0.3,"[3,2,1]",0.5226696,stimuli/card_0_transparent.png,0,13,0,13,0,1,,,,,,,,,,
,,,,5f6377b2155684053b55dfcc,B,2024-06-23_16h46.29.338,Slot Machine Game,2023.1.3,Win32,163.9344262,,,,,,,,,,,,,,,,,,,,,,,,,,,820,,,,,,,,,,,,,,,,,,,,,6,6,,,528.9855,14,left,0.1825,,0.5,0.3,"[3,2,1]",0.691835299,stimuli/card_0_transparent.png,0,14,0,14,0,1,,,,,,,,,,
,,,,5f6377b2155684053b55dfcc,B,2024-06-23_16h46.29.338,Slot Machine Game,2023.1.3,Win32,163.9344262,,,,,,,,,,,,,,,,,,,,,,,,,,,,,,,,,,,530.4732,,,,,,,,,,,,,,,,,,,,,,,,,,,,,,,,,"[640,540,1030,810,650,820]",5,0,5,0,1,,,,
,,,,5f6377b2155684053b55dfcc,B,2024-06-23_16h46.29.338,Slot Machine Game,2023.1.3,Win32,163.9344262,,,,,,,,,,,,,,,,,,,,,,,,,,,,,,,,,,,,,,,,,,,,,,,,7,7,"[9,15]","[[1,3,2],[2,3,1]]",535.4751,0,,,,0.5,0.3,,,,,0,0,0,0,1,,,,,,,,,,
,,,,5f6377b2155684053b55dfcc,B,2024-06-23_16h46.29.338,Slot Machine Game,2023.1.3,Win32,163.9344262,,,,,,,,,,,,,,,,,,,,,,,,,,,0,,,,,,,,,,,,,,,,,,,,,7,7,,,540.9785,1,up,0.571,,1,0.3,"[1,3,2]",0.784766043,stimuli/card_0_transparent.png,0,1,0,1,0,1,,,,,,,,,,
,,,,5f6377b2155684053b55dfcc,B,2024-06-23_16h46.29.338,Slot Machine Game,2023.1.3,Win32,163.9344262,,,,,,,,,,,,,,,,,,,,,,,,,,,100,,,,,,,,,,,,,,,,,,,,,7,7,,,543.352,2,left,0.9593,,1.5,0.3,"[1,3,2]",0.470291289,stimuli/card_100_transparent.png,100,2,0,2,0,1,,,,,,,,,,
,,,,5f6377b2155684053b55dfcc,B,2024-06-23_16h46.29.338,Slot Machine Game,2023.1.3,Win32,163.9344262,,,,,,,,,,,,,,,,,,,,,,,,,,,200,,,,,,,,,,,,,,,,,,,,,7,7,,,546.6186,3,left,0.5102,,1,0.3,"[1,3,2]",0.336838396,stimuli/card_100_transparent.png,100,3,0,3,0,1,,,,,,,,,,
,,,,5f6377b2155684053b55dfcc,B,2024-06-23_16h46.29.338,Slot Machine Game,2023.1.3,Win32,163.9344262,,,,,,,,,,,,,,,,,,,,,,,,,,,,,,,,,,,,,,,,,,,,,,,,7,7,,,548.9321,4,,,,0.5,0.3,,,,,4,0,4,0,1,,,,,,,,,,
,,,,5f6377b2155684053b55dfcc,B,2024-06-23_16h46.29.338,Slot Machine Game,2023.1.3,Win32,163.9344262,,,,,,,,,,,,,,,,,,,,,,,,,,,300,,,,,,,,,,,,,,,,,,,,,7,7,,,554.434,5,left,0.2318,,0.5,0.3,"[1,3,2]",0.93112003,stimuli/card_100_transparent.png,100,5,0,5,0,1,,,,,,,,,,
,,,,5f6377b2155684053b55dfcc,B,2024-06-23_16h46.29.338,Slot Machine Game,2023.1.3,Win32,163.9344262,,,,,,,,,,,,,,,,,,,,,,,,,,,400,,,,,,,,,,,,,,,,,,,,,7,7,,,555.9697,6,left,0.1455,,1,0.3,"[1,3,2]",0.861311866,stimuli/card_100_transparent.png,100,6,0,6,0,1,,,,,,,,,,
,,,,5f6377b2155684053b55dfcc,B,2024-06-23_16h46.29.338,Slot Machine Game,2023.1.3,Win32,163.9344262,,,,,,,,,,,,,,,,,,,,,,,,,,,500,,,,,,,,,,,,,,,,,,,,,7,7,,,557.9227,7,left,0.347,,0.5,0.3,"[1,3,2]",0.653138299,stimuli/card_100_transparent.png,100,7,0,7,0,1,,,,,,,,,,
,,,,5f6377b2155684053b55dfcc,B,2024-06-23_16h46.29.338,Slot Machine Game,2023.1.3,Win32,163.9344262,,,,,,,,,,,,,,,,,,,,,,,,,,,510,,,,,,,,,,,,,,,,,,,,,7,7,,,559.575,8,left,0.1336,,1.5,0.3,"[1,3,2]",0.113487142,stimuli/card_10_transparent.png,10,8,0,8,0,1,,,,,,,,,,
,,,,5f6377b2155684053b55dfcc,B,2024-06-23_16h46.29.338,Slot Machine Game,2023.1.3,Win32,163.9344262,,,,,,,,,,,,,,,,,,,,,,,,,,,520,,,,,,,,,,,,,,,,,,,,,7,7,,,562.0159,9,left,0.0973,,0.5,0.3,"[2,3,1]",0.507095658,stimuli/card_10_transparent.png,10,9,0,9,0,1,,,,,,,,,,
,,,,5f6377b2155684053b55dfcc,B,2024-06-23_16h46.29.338,Slot Machine Game,2023.1.3,Win32,163.9344262,,,,,,,,,,,,,,,,,,,,,,,,,,,520,,,,,,,,,,,,,,,,,,,,,7,7,,,563.4186,10,left,0.0852,,1.5,0.3,"[2,3,1]",0.080329929,stimuli/card_0_transparent.png,0,10,0,10,0,1,,,,,,,,,,
,,,,5f6377b2155684053b55dfcc,B,2024-06-23_16h46.29.338,Slot Machine Game,2023.1.3,Win32,163.9344262,,,,,,,,,,,,,,,,,,,,,,,,,,,620,,,,,,,,,,,,,,,,,,,,,7,7,,,565.8105,11,right,0.3938,,1,0.3,"[2,3,1]",0.65140475,stimuli/card_100_transparent.png,100,11,0,11,0,1,,,,,,,,,,
,,,,5f6377b2155684053b55dfcc,B,2024-06-23_16h46.29.338,Slot Machine Game,2023.1.3,Win32,163.9344262,,,,,,,,,,,,,,,,,,,,,,,,,,,720,,,,,,,,,,,,,,,,,,,,,7,7,,,568.0087,12,right,0.1224,,1,0.3,"[2,3,1]",0.997513082,stimuli/card_100_transparent.png,100,12,0,12,0,1,,,,,,,,,,
,,,,5f6377b2155684053b55dfcc,B,2024-06-23_16h46.29.338,Slot Machine Game,2023.1.3,Win32,163.9344262,,,,,,,,,,,,,,,,,,,,,,,,,,,820,,,,,,,,,,,,,,,,,,,,,7,7,,,569.9396,13,right,0.1341,,1.5,0.3,"[2,3,1]",0.592977017,stimuli/card_100_transparent.png,100,13,0,13,0,1,,,,,,,,,,
,,,,5f6377b2155684053b55dfcc,B,2024-06-23_16h46.29.338,Slot Machine Game,2023.1.3,Win32,163.9344262,,,,,,,,,,,,,,,,,,,,,,,,,,,920,,,,,,,,,,,,,,,,,,,,,7,7,,,572.3808,14,right,0.1396,,1.5,0.3,"[2,3,1]",0.310281562,stimuli/card_100_transparent.png,100,14,0,14,0,1,,,,,,,,,,
,,,,5f6377b2155684053b55dfcc,B,2024-06-23_16h46.29.338,Slot Machine Game,2023.1.3,Win32,163.9344262,,,,,,,,,,,,,,,,,,,,,,,,,,,,,,,,,,,574.8278,,,,,,,,,,,,,,,,,,,,,,,,,,,,,,,,,"[640,540,1030,810,650,820,920]",6,0,6,0,1,,,,
,,,,5f6377b2155684053b55dfcc,B,2024-06-23_16h46.29.338,Slot Machine Game,2023.1.3,Win32,163.9344262,,,,,,,,,,,,,,,,,,,,,,,,,,,100,,,,,,,,,,,,,,,,,,,,,8,8,"[11,15]","[[2,1,3],[1,2,3]]",579.8295,0,up,0.7033,,1.5,0.3,"[2,1,3]",0.434720384,stimuli/card_100_transparent.png,100,0,0,0,0,1,,,,,,,,,,
,,,,5f6377b2155684053b55dfcc,B,2024-06-23_16h46.29.338,Slot Machine Game,2023.1.3,Win32,163.9344262,,,,,,,,,,,,,,,,,,,,,,,,,,,200,,,,,,,,,,,,,,,,,,,,,8,8,,,582.8383,1,up,0.1697,,0.5,0.3,"[2,1,3]",0.377551348,stimuli/card_100_transparent.png,100,1,0,1,0,1,,,,,,,,,,
,,,,5f6377b2155684053b55dfcc,B,2024-06-23_16h46.29.338,Slot Machine Game,2023.1.3,Win32,163.9344262,,,,,,,,,,,,,,,,,,,,,,,,,,,210,,,,,,,,,,,,,,,,,,,,,8,8,,,584.3138,2,up,0.5164,,1,0.3,"[2,1,3]",0.19810436,stimuli/card_10_transparent.png,10,2,0,2,0,1,,,,,,,,,,
,,,,5f6377b2155684053b55dfcc,B,2024-06-23_16h46.29.338,Slot Machine Game,2023.1.3,Win32,163.9344262,,,,,,,,,,,,,,,,,,,,,,,,,,,310,,,,,,,,,,,,,,,,,,,,,8,8,,,586.6333,3,up,0.1768,,1,0.3,"[2,1,3]",0.842687309,stimuli/card_100_transparent.png,100,3,0,3,0,1,,,,,,,,,,
,,,,5f6377b2155684053b55dfcc,B,2024-06-23_16h46.29.338,Slot Machine Game,2023.1.3,Win32,163.9344262,,,,,,,,,,,,,,,,,,,,,,,,,,,310,,,,,,,,,,,,,,,,,,,,,8,8,,,588.6127,4,up,0.0854,,1.5,0.3,"[2,1,3]",0.061361444,stimuli/card_0_transparent.png,0,4,0,4,0,1,,,,,,,,,,
,,,,5f6377b2155684053b55dfcc,B,2024-06-23_16h46.29.338,Slot Machine Game,2023.1.3,Win32,163.9344262,,,,,,,,,,,,,,,,,,,,,,,,,,,310,,,,,,,,,,,,,,,,,,,,,8,8,,,591.005,5,right,0.1391,,0.5,0.3,"[2,1,3]",0.32951407,stimuli/card_0_transparent.png,0,5,0,5,0,1,,,,,,,,,,
,,,,5f6377b2155684053b55dfcc,B,2024-06-23_16h46.29.338,Slot Machine Game,2023.1.3,Win32,163.9344262,,,,,,,,,,,,,,,,,,,,,,,,,,,410,,,,,,,,,,,,,,,,,,,,,8,8,,,592.4502,6,up,0.0797,,0.5,0.3,"[2,1,3]",0.580859038,stimuli/card_100_transparent.png,100,6,0,6,0,1,,,,,,,,,,
,,,,5f6377b2155684053b55dfcc,B,2024-06-23_16h46.29.338,Slot Machine Game,2023.1.3,Win32,163.9344262,,,,,,,,,,,,,,,,,,,,,,,,,,,510,,,,,,,,,,,,,,,,,,,,,8,8,,,593.8346,7,up,0.2548,,1,0.3,"[2,1,3]",0.27160283,stimuli/card_100_transparent.png,100,7,0,7,0,1,,,,,,,,,,
,,,,5f6377b2155684053b55dfcc,B,2024-06-23_16h46.29.338,Slot Machine Game,2023.1.3,Win32,163.9344262,,,,,,,,,,,,,,,,,,,,,,,,,,,610,,,,,,,,,,,,,,,,,,,,,8,8,,,595.893,8,up,0.0977,,1,0.3,"[2,1,3]",0.850656274,stimuli/card_100_transparent.png,100,8,0,8,0,1,,,,,,,,,,
,,,,5f6377b2155684053b55dfcc,B,2024-06-23_16h46.29.338,Slot Machine Game,2023.1.3,Win32,163.9344262,,,,,,,,,,,,,,,,,,,,,,,,,,,710,,,,,,,,,,,,,,,,,,,,,8,8,,,597.7936,9,up,0.1094,,1,0.3,"[2,1,3]",0.682676184,stimuli/card_100_transparent.png,100,9,0,9,0,1,,,,,,,,,,
,,,,5f6377b2155684053b55dfcc,B,2024-06-23_16h46.29.338,Slot Machine Game,2023.1.3,Win32,163.9344262,,,,,,,,,,,,,,,,,,,,,,,,,,,810,,,,,,,,,,,,,,,,,,,,,8,8,,,599.7062,10,up,0.1767,,0.5,0.3,"[2,1,3]",0.283589205,stimuli/card_100_transparent.png,100,10,0,10,0,1,,,,,,,,,,
,,,,5f6377b2155684053b55dfcc,B,2024-06-23_16h46.29.338,Slot Machine Game,2023.1.3,Win32,163.9344262,,,,,,,,,,,,,,,,,,,,,,,,,,,820,,,,,,,,,,,,,,,,,,,,,8,8,,,601.1878,11,up,0.1823,,1.5,0.3,"[1,2,3]",0.252526506,stimuli/card_10_transparent.png,10,11,0,11,0,1,,,,,,,,,,
,,,,5f6377b2155684053b55dfcc,B,2024-06-23_16h46.29.338,Slot Machine Game,2023.1.3,Win32,163.9344262,,,,,,,,,,,,,,,,,,,,,,,,,,,830,,,,,,,,,,,,,,,,,,,,,8,8,,,603.6774,12,up,0.1397,,1,0.3,"[1,2,3]",0.48619131,stimuli/card_10_transparent.png,10,12,0,12,0,1,,,,,,,,,,
,,,,5f6377b2155684053b55dfcc,B,2024-06-23_16h46.29.338,Slot Machine Game,2023.1.3,Win32,163.9344262,,,,,,,,,,,,,,,,,,,,,,,,,,,840,,,,,,,,,,,,,,,,,,,,,8,8,,,605.6205,13,up,0.1269,,1,0.3,"[1,2,3]",0.380142618,stimuli/card_10_transparent.png,10,13,0,13,0,1,,,,,,,,,,
,,,,5f6377b2155684053b55dfcc,B,2024-06-23_16h46.29.338,Slot Machine Game,2023.1.3,Win32,163.9344262,,,,,,,,,,,,,,,,,,,,,,,,,,,850,,,,,,,,,,,,,,,,,,,,,8,8,,,607.5513,14,up,0.0736,,0.5,0.3,"[1,2,3]",0.266612201,stimuli/card_10_transparent.png,10,14,0,14,0,1,,,,,,,,,,
,,,,5f6377b2155684053b55dfcc,B,2024-06-23_16h46.29.338,Slot Machine Game,2023.1.3,Win32,163.9344262,,,,,,,,,,,,,,,,,,,,,,,,,,,,,,,,,,,608.9296,,,,,,,,,,,,,,,,,,,,,,,,,,,,,,,,,"[640,540,1030,810,650,820,920,850]",7,0,7,0,1,,,,
,,,,5f6377b2155684053b55dfcc,B,2024-06-23_16h46.29.338,Slot Machine Game,2023.1.3,Win32,163.9344262,,,,,,,,,,,,,,,,,,,,,,,,,,,0,,,,,,,,,,,,,,,,,,,,,9,9,"[8,15]","[[3,2,1],[3,1,2]]",613.9315,0,right,0.1654,,0.5,0.3,"[3,2,1]",0.026535188,stimuli/card_0_transparent.png,0,0,0,0,0,1,,,,,,,,,,
,,,,5f6377b2155684053b55dfcc,B,2024-06-23_16h46.29.338,Slot Machine Game,2023.1.3,Win32,163.9344262,,,,,,,,,,,,,,,,,,,,,,,,,,,100,,,,,,,,,,,,,,,,,,,,,9,9,,,615.4025,1,left,0.0973,,1,0.3,"[3,2,1]",0.066879209,stimuli/card_100_transparent.png,100,1,0,1,0,1,,,,,,,,,,
,,,,5f6377b2155684053b55dfcc,B,2024-06-23_16h46.29.338,Slot Machine Game,2023.1.3,Win32,163.9344262,,,,,,,,,,,,,,,,,,,,,,,,,,,100,,,,,,,,,,,,,,,,,,,,,9,9,,,617.3029,2,left,0.1452,,0.5,0.3,"[3,2,1]",0.696790527,stimuli/card_0_transparent.png,0,2,0,2,0,1,,,,,,,,,,
,,,,5f6377b2155684053b55dfcc,B,2024-06-23_16h46.29.338,Slot Machine Game,2023.1.3,Win32,163.9344262,,,,,,,,,,,,,,,,,,,,,,,,,,,100,,,,,,,,,,,,,,,,,,,,,9,9,,,618.7543,3,left,0.0002,,0.5,0.3,"[3,2,1]",0.684403321,stimuli/card_0_transparent.png,0,3,0,3,0,1,,,,,,,,,,
,,,,5f6377b2155684053b55dfcc,B,2024-06-23_16h46.29.338,Slot Machine Game,2023.1.3,Win32,163.9344262,,,,,,,,,,,,,,,,,,,,,,,,,,,110,,,,,,,,,,,,,,,,,,,,,9,9,,,620.0597,4,up,0.3472,,1,0.3,"[3,2,1]",0.58361932,stimuli/card_10_transparent.png,10,4,0,4,0,1,,,,,,,,,,
,,,,5f6377b2155684053b55dfcc,B,2024-06-23_16h46.29.338,Slot Machine Game,2023.1.3,Win32,163.9344262,,,,,,,,,,,,,,,,,,,,,,,,,,,120,,,,,,,,,,,,,,,,,,,,,9,9,,,622.2092,5,up,0.1649,,0.5,0.3,"[3,2,1]",0.595089915,stimuli/card_10_transparent.png,10,5,0,5,0,1,,,,,,,,,,
,,,,5f6377b2155684053b55dfcc,B,2024-06-23_16h46.29.338,Slot Machine Game,2023.1.3,Win32,163.9344262,,,,,,,,,,,,,,,,,,,,,,,,,,,220,,,,,,,,,,,,,,,,,,,,,9,9,,,623.6787,6,right,0.3713,,1,0.3,"[3,2,1]",0.497614671,stimuli/card_100_transparent.png,100,6,0,6,0,1,,,,,,,,,,
,,,,5f6377b2155684053b55dfcc,B,2024-06-23_16h46.29.338,Slot Machine Game,2023.1.3,Win32,163.9344262,,,,,,,,,,,,,,,,,,,,,,,,,,,320,,,,,,,,,,,,,,,,,,,,,9,9,,,625.8523,7,right,0.1276,,0.5,0.3,"[3,2,1]",0.870023675,stimuli/card_100_transparent.png,100,7,0,7,0,1,,,,,,,,,,
,,,,5f6377b2155684053b55dfcc,B,2024-06-23_16h46.29.338,Slot Machine Game,2023.1.3,Win32,163.9344262,,,,,,,,,,,,,,,,,,,,,,,,,,,330,,,,,,,,,,,,,,,,,,,,,9,9,,,627.2854,8,right,0.2126,,1,0.3,"[3,1,2]",0.710472105,stimuli/card_10_transparent.png,10,8,0,8,0,1,,,,,,,,,,
,,,,5f6377b2155684053b55dfcc,B,2024-06-23_16h46.29.338,Slot Machine Game,2023.1.3,Win32,163.9344262,,,,,,,,,,,,,,,,,,,,,,,,,,,340,,,,,,,,,,,,,,,,,,,,,9,9,,,629.3013,9,right,0.0671,,0.5,0.3,"[3,1,2]",0.619111306,stimuli/card_10_transparent.png,10,9,0,9,0,1,,,,,,,,,,
,,,,5f6377b2155684053b55dfcc,B,2024-06-23_16h46.29.338,Slot Machine Game,2023.1.3,Win32,163.9344262,,,,,,,,,,,,,,,,,,,,,,,,,,,350,,,,,,,,,,,,,,,,,,,,,9,9,,,630.6735,10,right,0.0847,,1.5,0.3,"[3,1,2]",0.478507114,stimuli/card_10_transparent.png,10,10,0,10,0,1,,,,,,,,,,
,,,,5f6377b2155684053b55dfcc,B,2024-06-23_16h46.29.338,Slot Machine Game,2023.1.3,Win32,163.9344262,,,,,,,,,,,,,,,,,,,,,,,,,,,360,,,,,,,,,,,,,,,,,,,,,9,9,,,633.0659,11,right,0.1404,,1,0.3,"[3,1,2]",0.821973557,stimuli/card_10_transparent.png,10,11,0,11,0,1,,,,,,,,,,
,,,,5f6377b2155684053b55dfcc,B,2024-06-23_16h46.29.338,Slot Machine Game,2023.1.3,Win32,163.9344262,,,,,,,,,,,,,,,,,,,,,,,,,,,370,,,,,,,,,,,,,,,,,,,,,9,9,,,635.0089,12,right,0.4071,,1,0.3,"[3,1,2]",0.543983075,stimuli/card_10_transparent.png,10,12,0,12,0,1,,,,,,,,,,
,,,,5f6377b2155684053b55dfcc,B,2024-06-23_16h46.29.338,Slot Machine Game,2023.1.3,Win32,163.9344262,,,,,,,,,,,,,,,,,,,,,,,,,,,470,,,,,,,,,,,,,,,,,,,,,9,9,,,637.2192,13,up,0.054,,1.5,0.3,"[3,1,2]",0.44016803,stimuli/card_100_transparent.png,100,13,0,13,0,1,,,,,,,,,,
,,,,5f6377b2155684053b55dfcc,B,2024-06-23_16h46.29.338,Slot Machine Game,2023.1.3,Win32,163.9344262,,,,,,,,,,,,,,,,,,,,,,,,,,,570,,,,,,,,,,,,,,,,,,,,,9,9,,,639.5811,14,up,0.5651,,1,0.3,"[3,1,2]",0.284949864,stimuli/card_100_transparent.png,100,14,0,14,0,1,,,,,,,,,,
,,,,5f6377b2155684053b55dfcc,B,2024-06-23_16h46.29.338,Slot Machine Game,2023.1.3,Win32,163.9344262,,,,,,,,,,,,,,,,,,,,,,,,,,,,,,,,,,,641.9493,,,,,,,,,,,,,,,,,,,,,,,,,,,,,,,,,"[640,540,1030,810,650,820,920,850,570]",8,0,8,0,1,,,,
,,,,5f6377b2155684053b55dfcc,B,2024-06-23_16h46.29.338,Slot Machine Game,2023.1.3,Win32,163.9344262,,,,,,,,,,,,,,,,,,,,,,,,,,,10,,,,,,,,,,,,,,,,,,,,,10,10,"[10,15]","[[3,1,2],[1,3,2]]",646.9511,0,up,0.1463,,1,0.3,"[3,1,2]",0.150213601,stimuli/card_10_transparent.png,10,0,0,0,0,1,,,,,,,,,,
,,,,5f6377b2155684053b55dfcc,B,2024-06-23_16h46.29.338,Slot Machine Game,2023.1.3,Win32,163.9344262,,,,,,,,,,,,,,,,,,,,,,,,,,,20,,,,,,,,,,,,,,,,,,,,,10,10,,,648.9017,1,right,0.2606,,1,0.3,"[3,1,2]",0.821191622,stimuli/card_10_transparent.png,10,1,0,1,0,1,,,,,,,,,,
,,,,5f6377b2155684053b55dfcc,B,2024-06-23_16h46.29.338,Slot Machine Game,2023.1.3,Win32,163.9344262,,,,,,,,,,,,,,,,,,,,,,,,,,,120,,,,,,,,,,,,,,,,,,,,,10,10,,,650.9662,2,left,1.7306,,1,0.3,"[3,1,2]",0.086573323,stimuli/card_100_transparent.png,100,2,0,2,0,1,,,,,,,,,,
,,,,5f6377b2155684053b55dfcc,B,2024-06-23_16h46.29.338,Slot Machine Game,2023.1.3,Win32,163.9344262,,,,,,,,,,,,,,,,,,,,,,,,,,,120,,,,,,,,,,,,,,,,,,,,,10,10,,,654.5001,3,left,0.6747,,0.5,0.3,"[3,1,2]",0.7717298,stimuli/card_0_transparent.png,0,3,0,3,0,1,,,,,,,,,,
,,,,5f6377b2155684053b55dfcc,B,2024-06-23_16h46.29.338,Slot Machine Game,2023.1.3,Win32,163.9344262,,,,,,,,,,,,,,,,,,,,,,,,,,,120,,,,,,,,,,,,,,,,,,,,,10,10,,,656.4796,4,left,0.0192,,1.5,0.3,"[3,1,2]",0.933632005,stimuli/card_0_transparent.png,0,4,0,4,0,1,,,,,,,,,,
,,,,5f6377b2155684053b55dfcc,B,2024-06-23_16h46.29.338,Slot Machine Game,2023.1.3,Win32,163.9344262,,,,,,,,,,,,,,,,,,,,,,,,,,,130,,,,,,,,,,,,,,,,,,,,,10,10,,,658.8051,5,right,0.2427,,0.5,0.3,"[3,1,2]",0.314136209,stimuli/card_10_transparent.png,10,5,0,5,0,1,,,,,,,,,,
,,,,5f6377b2155684053b55dfcc,B,2024-06-23_16h46.29.338,Slot Machine Game,2023.1.3,Win32,163.9344262,,,,,,,,,,,,,,,,,,,,,,,,,,,130,,,,,,,,,,,,,,,,,,,,,10,10,,,660.3536,6,up,0.0311,,1.5,0.3,"[3,1,2]",0.038519576,stimuli/card_0_transparent.png,0,6,0,6,0,1,,,,,,,,,,
,,,,5f6377b2155684053b55dfcc,B,2024-06-23_16h46.29.338,Slot Machine Game,2023.1.3,Win32,163.9344262,,,,,,,,,,,,,,,,,,,,,,,,,,,140,,,,,,,,,,,,,,,,,,,,,10,10,,,662.6912,7,right,0.3471,,1,0.3,"[3,1,2]",0.80463855,stimuli/card_10_transparent.png,10,7,0,7,0,1,,,,,,,,,,
,,,,5f6377b2155684053b55dfcc,B,2024-06-23_16h46.29.338,Slot Machine Game,2023.1.3,Win32,163.9344262,,,,,,,,,,,,,,,,,,,,,,,,,,,140,,,,,,,,,,,,,,,,,,,,,10,10,,,664.8408,8,left,0.4622,,0.5,0.3,"[3,1,2]",0.827009118,stimuli/card_0_transparent.png,0,8,0,8,0,1,,,,,,,,,,
,,,,5f6377b2155684053b55dfcc,B,2024-06-23_16h46.29.338,Slot Machine Game,2023.1.3,Win32,163.9344262,,,,,,,,,,,,,,,,,,,,,,,,,,,240,,,,,,,,,,,,,,,,,,,,,10,10,,,666.6077,9,up,0.019,,1,0.3,"[3,1,2]",0.980297953,stimuli/card_100_transparent.png,100,9,0,9,0,1,,,,,,,,,,
,,,,5f6377b2155684053b55dfcc,B,2024-06-23_16h46.29.338,Slot Machine Game,2023.1.3,Win32,163.9344262,,,,,,,,,,,,,,,,,,,,,,,,,,,240,,,,,,,,,,,,,,,,,,,,,10,10,,,668.4293,10,up,0.0261,,1.5,0.3,"[1,3,2]",0.862493702,stimuli/card_0_transparent.png,0,10,0,10,0,1,,,,,,,,,,
,,,,5f6377b2155684053b55dfcc,B,2024-06-23_16h46.29.338,Slot Machine Game,2023.1.3,Win32,163.9344262,,,,,,,,,,,,,,,,,,,,,,,,,,,250,,,,,,,,,,,,,,,,,,,,,10,10,,,670.7609,11,up,0.0666,,0.5,0.3,"[1,3,2]",0.192158695,stimuli/card_10_transparent.png,10,11,0,11,0,1,,,,,,,,,,
,,,,5f6377b2155684053b55dfcc,B,2024-06-23_16h46.29.338,Slot Machine Game,2023.1.3,Win32,163.9344262,,,,,,,,,,,,,,,,,,,,,,,,,,,250,,,,,,,,,,,,,,,,,,,,,10,10,,,672.1333,12,up,0.0002,,1,0.3,"[1,3,2]",0.816585946,stimuli/card_0_transparent.png,0,12,0,12,0,1,,,,,,,,,,
,,,,5f6377b2155684053b55dfcc,B,2024-06-23_16h46.29.338,Slot Machine Game,2023.1.3,Win32,163.9344262,,,,,,,,,,,,,,,,,,,,,,,,,,,260,,,,,,,,,,,,,,,,,,,,,10,10,,,673.9366,13,left,0.146,,1,0.3,"[1,3,2]",0.191615527,stimuli/card_10_transparent.png,10,13,0,13,0,1,,,,,,,,,,
,,,,5f6377b2155684053b55dfcc,B,2024-06-23_16h46.29.338,Slot Machine Game,2023.1.3,Win32,163.9344262,,,,,,,,,,,,,,,,,,,,,,,,,,,270,,,,,,,,,,,,,,,,,,,,,10,10,,,675.8858,14,right,0.2369,,1.5,0.3,"[1,3,2]",0.81923175,stimuli/card_10_transparent.png,10,14,0,14,0,1,,,,,,,,,,
,,,,5f6377b2155684053b55dfcc,B,2024-06-23_16h46.29.338,Slot Machine Game,2023.1.3,Win32,163.9344262,,,,,,,,,,,,,,,,,,,,,,,,,,,,,,,,,,,678.43,,,,,,,,,,,,,,,,,,,,,,,,,,,,,,,,,"[640,540,1030,810,650,820,920,850,570,270]",9,0,9,0,1,,,,
,,,,5f6377b2155684053b55dfcc,B,2024-06-23_16h46.29.338,Slot Machine Game,2023.1.3,Win32,163.9344262,,,,,,,,,,,,,,,,,,,,,,,,,,,,,,,,,,,,,,,,,,,,,,,,,,,,,,,,,,,,,,,,,,,,,,,,,,9,"[640,540,1030,810,650,820,920,850,570,270]",5.7,2024-06-23_16h57.56.819
