key_resp_welcome_started,key_resp_welcome_keys,key_resp_welcome_rt,key_resp_welcome_duration,prolific_id,path_id,date,expName,psychopyVersion,OS,frameRate,key_resp_instruction1_started,key_resp_instruction1_keys,key_resp_instruction1_rt,key_resp_instruction1_duration,key_resp_instruction2_started,key_resp_instruction2_keys,key_resp_instruction2_rt,key_resp_instruction2_duration,key_resp_instruction3_started,key_resp_instruction3_keys,key_resp_instruction3_rt,key_resp_instruction3_duration,key_resp_instruction4_started,key_resp_instruction4_keys,key_resp_instruction4_rt,key_resp_instruction4_duration,practiceCondition,practice_reward_seqs,practice_trial_started,practice_trial_num,practice_resp_rt,practice_resp_duration,practice_resp_keys,prac_presentationInterval,"practice_reward_seq: 2,1,3",reward_img,cumulative_reward,trial_reward,practice_trials.thisRepN,practice_trials.thisTrialN,practice_trials.thisN,practice_trials.thisIndex,practice_trials.ran,"practice_reward_seq: 2,3,1",block_break_started,"practice_reward_seq: 1,3,2","practice_reward_seq: 3,1,2",practice_end_time,practice_end_keys,practice_end_rt,practice_end_duration,main_instruction_text_started,block_condition,block_order_indices,main_instruction_keys,main_instruction_rt,main_instruction_duration,block_number,block_assignment,current_condition,main_reward_seqs,main_trial_started,main_trial_num,main_trial_keys,main_trial_rt,main_trial_duration,main_presentationInterval,reward_presentation_time,main_reward_seq,reward_rand_val,main_reward_img,current_reward,main_trials.thisRepN,main_trials.thisTrialN,main_trials.thisN,main_trials.thisIndex,main_trials.ran,block_reward,block.thisRepN,block.thisTrialN,block.thisN,block.thisIndex,block.ran,block_reward.length,block_reward_all,reward_amount,date_end_task
0.0003,space,2.0642,,6096d9b30d92183ab4f552a3,B,2024-06-22_19h56.39.524,Slot Machine Game,2023.1.3,Win32,59.17159763,,,,,,,,,,,,,,,,,,,,,,,,,,,,,,,,,,,,,,,,,,,,,,,,,,,,,,,,,,,,,,,,,,,,,,,,,,,,,
,,,,6096d9b30d92183ab4f552a3,B,2024-06-22_19h56.39.524,Slot Machine Game,2023.1.3,Win32,59.17159763,2.079,m,12.9167,,,,,,,,,,,,,,,,,,,,,,,,,,,,,,,,,,,,,,,,,,,,,,,,,,,,,,,,,,,,,,,,,,,,,,,,,,
,,,,6096d9b30d92183ab4f552a3,B,2024-06-22_19h56.39.524,Slot Machine Game,2023.1.3,Win32,59.17159763,,,,,15.0166,space,47.0574,,,,,,,,,,,,,,,,,,,,,,,,,,,,,,,,,,,,,,,,,,,,,,,,,,,,,,,,,,,,,,,,,,,,,,
,,,,6096d9b30d92183ab4f552a3,B,2024-06-22_19h56.39.524,Slot Machine Game,2023.1.3,Win32,59.17159763,,,,,,,,,62.1013,space,9.4265,,,,,,,,,,,,,,,,,,,,,,,,,,,,,,,,,,,,,,,,,,,,,,,,,,,,,,,,,,,,,,,,,,
,,,,6096d9b30d92183ab4f552a3,B,2024-06-22_19h56.39.524,Slot Machine Game,2023.1.3,Win32,59.17159763,,,,,,,,,,,,,,,,,,,,,,,,,,,,,,,,,,,,,,,,,,,,,,,,,,,,,,,,,,,,,,,,,,,,,,,,,,,,,
,,,,6096d9b30d92183ab4f552a3,B,2024-06-22_19h56.39.524,Slot Machine Game,2023.1.3,Win32,59.17159763,,,,,,,,,,,,,214.2048,space,3.0823,,,,,,,,,,,,,,,,,,,,,,,,,,,,,,,,,,,,,,,,,,,,,,,,,,,,,,,,,,,,,,
,,,,6096d9b30d92183ab4f552a3,B,2024-06-22_19h56.39.524,Slot Machine Game,2023.1.3,Win32,59.17159763,,,,,,,,,,,,,,,,,"[9,15]","[[2,1,3],[2,3,1]]",217.315,0,0.3928,,left,1,,stimuli/card_10_transparent.png,10,10,0,0,0,0,1,,,,,,,,,,,,,,,,,,,,,,,,,,,,,,,,,,,,,,,,,,,,
,,,,6096d9b30d92183ab4f552a3,B,2024-06-22_19h56.39.524,Slot Machine Game,2023.1.3,Win32,59.17159763,,,,,,,,,,,,,,,,,,,219.5426,1,0.117,,left,1,,stimuli/card_10_transparent.png,20,10,1,0,1,0,1,,,,,,,,,,,,,,,,,,,,,,,,,,,,,,,,,,,,,,,,,,,,
,,,,6096d9b30d92183ab4f552a3,B,2024-06-22_19h56.39.524,Slot Machine Game,2023.1.3,Win32,59.17159763,,,,,,,,,,,,,,,,,,,221.4996,2,0.3838,,right,1,,stimuli/card_10_transparent.png,30,10,2,0,2,0,1,,,,,,,,,,,,,,,,,,,,,,,,,,,,,,,,,,,,,,,,,,,,
,,,,6096d9b30d92183ab4f552a3,B,2024-06-22_19h56.39.524,Slot Machine Game,2023.1.3,Win32,59.17159763,,,,,,,,,,,,,,,,,,,223.7108,3,1.5078,,right,1.5,,stimuli/card_0_transparent.png,30,0,3,0,3,0,1,,,,,,,,,,,,,,,,,,,,,,,,,,,,,,,,,,,,,,,,,,,,
,,,,6096d9b30d92183ab4f552a3,B,2024-06-22_19h56.39.524,Slot Machine Game,2023.1.3,Win32,59.17159763,,,,,,,,,,,,,,,,,,,227.5684,4,1.1839,,up,0.5,,stimuli/card_100_transparent.png,130,100,4,0,4,0,1,,,,,,,,,,,,,,,,,,,,,,,,,,,,,,,,,,,,,,,,,,,,
,,,,6096d9b30d92183ab4f552a3,B,2024-06-22_19h56.39.524,Slot Machine Game,2023.1.3,Win32,59.17159763,,,,,,,,,,,,,,,,,,,230.0797,5,0.0903,,up,1,,stimuli/card_10_transparent.png,140,10,5,0,5,0,1,,,,,,,,,,,,,,,,,,,,,,,,,,,,,,,,,,,,,,,,,,,,
,,,,6096d9b30d92183ab4f552a3,B,2024-06-22_19h56.39.524,Slot Machine Game,2023.1.3,Win32,59.17159763,,,,,,,,,,,,,,,,,,,231.9803,6,0.6179,,up,1.5,,stimuli/card_100_transparent.png,240,100,6,0,6,0,1,,,,,,,,,,,,,,,,,,,,,,,,,,,,,,,,,,,,,,,,,,,,
,,,,6096d9b30d92183ab4f552a3,B,2024-06-22_19h56.39.524,Slot Machine Game,2023.1.3,Win32,59.17159763,,,,,,,,,,,,,,,,,,,234.915,7,0.4265,,up,1.5,,stimuli/card_100_transparent.png,340,100,7,0,7,0,1,,,,,,,,,,,,,,,,,,,,,,,,,,,,,,,,,,,,,,,,,,,,
,,,,6096d9b30d92183ab4f552a3,B,2024-06-22_19h56.39.524,Slot Machine Game,2023.1.3,Win32,59.17159763,,,,,,,,,,,,,,,,,,,237.6657,8,0.0169,,up,0.5,,stimuli/card_100_transparent.png,440,100,8,0,8,0,1,,,,,,,,,,,,,,,,,,,,,,,,,,,,,,,,,,,,,,,,,,,,
,,,,6096d9b30d92183ab4f552a3,B,2024-06-22_19h56.39.524,Slot Machine Game,2023.1.3,Win32,59.17159763,,,,,,,,,,,,,,,,,,,238.9996,9,0.1048,,up,1,,stimuli/card_0_transparent.png,440,0,9,0,9,0,1,,,,,,,,,,,,,,,,,,,,,,,,,,,,,,,,,,,,,,,,,,,,
,,,,6096d9b30d92183ab4f552a3,B,2024-06-22_19h56.39.524,Slot Machine Game,2023.1.3,Win32,59.17159763,,,,,,,,,,,,,,,,,,,240.9171,10,0.0338,,up,0.5,,stimuli/card_0_transparent.png,440,0,10,0,10,0,1,,,,,,,,,,,,,,,,,,,,,,,,,,,,,,,,,,,,,,,,,,,,
,,,,6096d9b30d92183ab4f552a3,B,2024-06-22_19h56.39.524,Slot Machine Game,2023.1.3,Win32,59.17159763,,,,,,,,,,,,,,,,,,,242.271,11,0.0879,,up,0.5,,stimuli/card_0_transparent.png,440,0,11,0,11,0,1,,,,,,,,,,,,,,,,,,,,,,,,,,,,,,,,,,,,,,,,,,,,
,,,,6096d9b30d92183ab4f552a3,B,2024-06-22_19h56.39.524,Slot Machine Game,2023.1.3,Win32,59.17159763,,,,,,,,,,,,,,,,,,,243.7014,12,0.7006,,up,1,,stimuli/card_0_transparent.png,440,0,12,0,12,0,1,,,,,,,,,,,,,,,,,,,,,,,,,,,,,,,,,,,,,,,,,,,,
,,,,6096d9b30d92183ab4f552a3,B,2024-06-22_19h56.39.524,Slot Machine Game,2023.1.3,Win32,59.17159763,,,,,,,,,,,,,,,,,,,246.2194,13,0.2145,,left,1.5,,stimuli/card_10_transparent.png,450,10,13,0,13,0,1,,,,,,,,,,,,,,,,,,,,,,,,,,,,,,,,,,,,,,,,,,,,
,,,,6096d9b30d92183ab4f552a3,B,2024-06-22_19h56.39.524,Slot Machine Game,2023.1.3,Win32,59.17159763,,,,,,,,,,,,,,,,,,,248.7533,14,0.0714,,left,1,,stimuli/card_10_transparent.png,460,10,14,0,14,0,1,,,,,,,,,,,,,,,,,,,,,,,,,,,,,,,,,,,,,,,,,,,,
,,,,6096d9b30d92183ab4f552a3,B,2024-06-22_19h56.39.524,Slot Machine Game,2023.1.3,Win32,59.17159763,,,,,,,,,,,,,,,,,"[6,15]","[[1,3,2],[3,1,2]]",255.6654,0,0.4739,,right,0.5,,stimuli/card_10_transparent.png,10,10,0,0,0,0,1,,250.6626,,,,,,,,,,,,,,,,,,,,,,,,,,,,,,,,,,,,,,,,,,
,,,,6096d9b30d92183ab4f552a3,B,2024-06-22_19h56.39.524,Slot Machine Game,2023.1.3,Win32,59.17159763,,,,,,,,,,,,,,,,,,,257.4628,1,0.4172,,right,1.5,,stimuli/card_10_transparent.png,20,10,1,0,1,0,1,,,,,,,,,,,,,,,,,,,,,,,,,,,,,,,,,,,,,,,,,,,,
,,,,6096d9b30d92183ab4f552a3,B,2024-06-22_19h56.39.524,Slot Machine Game,2023.1.3,Win32,59.17159763,,,,,,,,,,,,,,,,,,,260.2242,2,0.7548,,left,1,,stimuli/card_100_transparent.png,120,100,2,0,2,0,1,,,,,,,,,,,,,,,,,,,,,,,,,,,,,,,,,,,,,,,,,,,,
,,,,6096d9b30d92183ab4f552a3,B,2024-06-22_19h56.39.524,Slot Machine Game,2023.1.3,Win32,59.17159763,,,,,,,,,,,,,,,,,,,262.7918,3,0.0004,,left,0.5,,stimuli/card_100_transparent.png,220,100,3,0,3,0,1,,,,,,,,,,,,,,,,,,,,,,,,,,,,,,,,,,,,,,,,,,,,
,,,,6096d9b30d92183ab4f552a3,B,2024-06-22_19h56.39.524,Slot Machine Game,2023.1.3,Win32,59.17159763,,,,,,,,,,,,,,,,,,,264.1257,4,0.8182,,left,0.5,,stimuli/card_100_transparent.png,320,100,4,0,4,0,1,,,,,,,,,,,,,,,,,,,,,,,,,,,,,,,,,,,,,,,,,,,,
,,,,6096d9b30d92183ab4f552a3,B,2024-06-22_19h56.39.524,Slot Machine Game,2023.1.3,Win32,59.17159763,,,,,,,,,,,,,,,,,,,266.2598,5,0.7567,,left,1.5,,stimuli/card_10_transparent.png,330,10,5,0,5,0,1,,,,,,,,,,,,,,,,,,,,,,,,,,,,,,,,,,,,,,,,,,,,
,,,,6096d9b30d92183ab4f552a3,B,2024-06-22_19h56.39.524,Slot Machine Game,2023.1.3,Win32,59.17159763,,,,,,,,,,,,,,,,,,,269.3444,6,0.6171,,left,1,,stimuli/card_0_transparent.png,330,0,6,0,6,0,1,,,,,,,,,,,,,,,,,,,,,,,,,,,,,,,,,,,,,,,,,,,,
,,,,6096d9b30d92183ab4f552a3,B,2024-06-22_19h56.39.524,Slot Machine Game,2023.1.3,Win32,59.17159763,,,,,,,,,,,,,,,,,,,271.7683,7,0.2059,,up,1.5,,stimuli/card_100_transparent.png,430,100,7,0,7,0,1,,,,,,,,,,,,,,,,,,,,,,,,,,,,,,,,,,,,,,,,,,,,
,,,,6096d9b30d92183ab4f552a3,B,2024-06-22_19h56.39.524,Slot Machine Game,2023.1.3,Win32,59.17159763,,,,,,,,,,,,,,,,,,,274.2961,8,0.1839,,up,0.5,,stimuli/card_100_transparent.png,530,100,8,0,8,0,1,,,,,,,,,,,,,,,,,,,,,,,,,,,,,,,,,,,,,,,,,,,,
,,,,6096d9b30d92183ab4f552a3,B,2024-06-22_19h56.39.524,Slot Machine Game,2023.1.3,Win32,59.17159763,,,,,,,,,,,,,,,,,,,275.7967,9,0.3199,,up,1,,stimuli/card_100_transparent.png,630,100,9,0,9,0,1,,,,,,,,,,,,,,,,,,,,,,,,,,,,,,,,,,,,,,,,,,,,
,,,,6096d9b30d92183ab4f552a3,B,2024-06-22_19h56.39.524,Slot Machine Game,2023.1.3,Win32,59.17159763,,,,,,,,,,,,,,,,,,,277.9475,10,0.3219,,up,0.5,,stimuli/card_100_transparent.png,730,100,10,0,10,0,1,,,,,,,,,,,,,,,,,,,,,,,,,,,,,,,,,,,,,,,,,,,,
,,,,6096d9b30d92183ab4f552a3,B,2024-06-22_19h56.39.524,Slot Machine Game,2023.1.3,Win32,59.17159763,,,,,,,,,,,,,,,,,,,279.5648,11,0.2432,,up,1,,stimuli/card_100_transparent.png,830,100,11,0,11,0,1,,,,,,,,,,,,,,,,,,,,,,,,,,,,,,,,,,,,,,,,,,,,
,,,,6096d9b30d92183ab4f552a3,B,2024-06-22_19h56.39.524,Slot Machine Game,2023.1.3,Win32,59.17159763,,,,,,,,,,,,,,,,,,,281.6323,12,0.1197,,up,0.5,,stimuli/card_100_transparent.png,930,100,12,0,12,0,1,,,,,,,,,,,,,,,,,,,,,,,,,,,,,,,,,,,,,,,,,,,,
,,,,6096d9b30d92183ab4f552a3,B,2024-06-22_19h56.39.524,Slot Machine Game,2023.1.3,Win32,59.17159763,,,,,,,,,,,,,,,,,,,283.0997,13,0.9174,,up,0.5,,stimuli/card_100_transparent.png,1030,100,13,0,13,0,1,,,,,,,,,,,,,,,,,,,,,,,,,,,,,,,,,,,,,,,,,,,,
,,,,6096d9b30d92183ab4f552a3,B,2024-06-22_19h56.39.524,Slot Machine Game,2023.1.3,Win32,59.17159763,,,,,,,,,,,,,,,,,,,285.3503,14,0.0732,,up,0.5,,stimuli/card_100_transparent.png,1130,100,14,0,14,0,1,,,,,,,,,,,,,,,,,,,,,,,,,,,,,,,,,,,,,,,,,,,,
,,,,6096d9b30d92183ab4f552a3,B,2024-06-22_19h56.39.524,Slot Machine Game,2023.1.3,Win32,59.17159763,,,,,,,,,,,,,,,,,,,,,,,,,,,,,,,,,,,286.7507,,,291.7531,space,3.7199,,,,,,,,,,,,,,,,,,,,,,,,,,,,,,,,,,,,,
,,,,6096d9b30d92183ab4f552a3,B,2024-06-22_19h56.39.524,Slot Machine Game,2023.1.3,Win32,59.17159763,,,,,,,,,,,,,,,,,,,,,,,,,,,,,,,,,,,,,,,,,,295.5048,3,"[0,4,6,3,5,7,8,1,9,2]",space,1.3039,,,,,,,,,,,,,,,,,,,,,,,,,,,,,,,
,,,,6096d9b30d92183ab4f552a3,B,2024-06-22_19h56.39.524,Slot Machine Game,2023.1.3,Win32,59.17159763,,,,,,,,,,,,,,,,,,,,,,,,,,,10,,,,,,,,,,,,,,,,,,,,,1,1,"[12,15]","[[2,1,3],[2,3,1]]",296.8487,0,right,0.0004,,1,0.3,"[2,1,3]",0.101046177,stimuli/card_10_transparent.png,10,0,0,0,0,1,,,,,,,,,,
,,,,6096d9b30d92183ab4f552a3,B,2024-06-22_19h56.39.524,Slot Machine Game,2023.1.3,Win32,59.17159763,,,,,,,,,,,,,,,,,,,,,,,,,,,20,,,,,,,,,,,,,,,,,,,,,1,1,,,298.6722,1,left,0.2607,,1,0.3,"[2,1,3]",0.898079773,stimuli/card_10_transparent.png,10,1,0,1,0,1,,,,,,,,,,
,,,,6096d9b30d92183ab4f552a3,B,2024-06-22_19h56.39.524,Slot Machine Game,2023.1.3,Win32,59.17159763,,,,,,,,,,,,,,,,,,,,,,,,,,,30,,,,,,,,,,,,,,,,,,,,,1,1,,,300.7727,2,up,0.1092,,0.5,0.3,"[2,1,3]",0.136307951,stimuli/card_10_transparent.png,10,2,0,2,0,1,,,,,,,,,,
,,,,6096d9b30d92183ab4f552a3,B,2024-06-22_19h56.39.524,Slot Machine Game,2023.1.3,Win32,59.17159763,,,,,,,,,,,,,,,,,,,,,,,,,,,30,,,,,,,,,,,,,,,,,,,,,1,1,,,302.2232,3,right,0.2529,,1,0.3,"[2,1,3]",0.347825535,stimuli/card_0_transparent.png,0,3,0,3,0,1,,,,,,,,,,
,,,,6096d9b30d92183ab4f552a3,B,2024-06-22_19h56.39.524,Slot Machine Game,2023.1.3,Win32,59.17159763,,,,,,,,,,,,,,,,,,,,,,,,,,,40,,,,,,,,,,,,,,,,,,,,,1,1,,,304.2906,4,left,0.3749,,1.5,0.3,"[2,1,3]",0.561804464,stimuli/card_10_transparent.png,10,4,0,4,0,1,,,,,,,,,,
,,,,6096d9b30d92183ab4f552a3,B,2024-06-22_19h56.39.524,Slot Machine Game,2023.1.3,Win32,59.17159763,,,,,,,,,,,,,,,,,,,,,,,,,,,140,,,,,,,,,,,,,,,,,,,,,1,1,,,306.9916,5,up,0.3699,,1.5,0.3,"[2,1,3]",0.826196979,stimuli/card_100_transparent.png,100,5,0,5,0,1,,,,,,,,,,
,,,,6096d9b30d92183ab4f552a3,B,2024-06-22_19h56.39.524,Slot Machine Game,2023.1.3,Win32,59.17159763,,,,,,,,,,,,,,,,,,,,,,,,,,,240,,,,,,,,,,,,,,,,,,,,,1,1,,,309.6926,6,up,0.2565,,1.5,0.3,"[2,1,3]",0.216986097,stimuli/card_100_transparent.png,100,6,0,6,0,1,,,,,,,,,,
,,,,6096d9b30d92183ab4f552a3,B,2024-06-22_19h56.39.524,Slot Machine Game,2023.1.3,Win32,59.17159763,,,,,,,,,,,,,,,,,,,,,,,,,,,340,,,,,,,,,,,,,,,,,,,,,1,1,,,312.2602,7,up,0.1519,,1,0.3,"[2,1,3]",0.530233137,stimuli/card_100_transparent.png,100,7,0,7,0,1,,,,,,,,,,
,,,,6096d9b30d92183ab4f552a3,B,2024-06-22_19h56.39.524,Slot Machine Game,2023.1.3,Win32,59.17159763,,,,,,,,,,,,,,,,,,,,,,,,,,,440,,,,,,,,,,,,,,,,,,,,,1,1,,,314.2277,8,up,0.0671,,0.5,0.3,"[2,1,3]",0.485865214,stimuli/card_100_transparent.png,100,8,0,8,0,1,,,,,,,,,,
,,,,6096d9b30d92183ab4f552a3,B,2024-06-22_19h56.39.524,Slot Machine Game,2023.1.3,Win32,59.17159763,,,,,,,,,,,,,,,,,,,,,,,,,,,540,,,,,,,,,,,,,,,,,,,,,1,1,,,315.6282,9,up,0.0003,,1,0.3,"[2,1,3]",0.88490545,stimuli/card_100_transparent.png,100,9,0,9,0,1,,,,,,,,,,
,,,,6096d9b30d92183ab4f552a3,B,2024-06-22_19h56.39.524,Slot Machine Game,2023.1.3,Win32,59.17159763,,,,,,,,,,,,,,,,,,,,,,,,,,,640,,,,,,,,,,,,,,,,,,,,,1,1,,,317.4621,10,up,0.0505,,0.5,0.3,"[2,1,3]",0.913511533,stimuli/card_100_transparent.png,100,10,0,10,0,1,,,,,,,,,,
,,,,6096d9b30d92183ab4f552a3,B,2024-06-22_19h56.39.524,Slot Machine Game,2023.1.3,Win32,59.17159763,,,,,,,,,,,,,,,,,,,,,,,,,,,740,,,,,,,,,,,,,,,,,,,,,1,1,,,318.8294,11,up,0.1338,,0.5,0.3,"[2,1,3]",0.283018654,stimuli/card_100_transparent.png,100,11,0,11,0,1,,,,,,,,,,
,,,,6096d9b30d92183ab4f552a3,B,2024-06-22_19h56.39.524,Slot Machine Game,2023.1.3,Win32,59.17159763,,,,,,,,,,,,,,,,,,,,,,,,,,,740,,,,,,,,,,,,,,,,,,,,,1,1,,,320.3033,12,up,0.0045,,1.5,0.3,"[2,3,1]",0.562386395,stimuli/card_0_transparent.png,0,12,0,12,0,1,,,,,,,,,,
,,,,6096d9b30d92183ab4f552a3,B,2024-06-22_19h56.39.524,Slot Machine Game,2023.1.3,Win32,59.17159763,,,,,,,,,,,,,,,,,,,,,,,,,,,840,,,,,,,,,,,,,,,,,,,,,1,1,,,322.6311,13,right,0.0294,,1,0.3,"[2,3,1]",0.975554106,stimuli/card_100_transparent.png,100,13,0,13,0,1,,,,,,,,,,
,,,,6096d9b30d92183ab4f552a3,B,2024-06-22_19h56.39.524,Slot Machine Game,2023.1.3,Win32,59.17159763,,,,,,,,,,,,,,,,,,,,,,,,,,,940,,,,,,,,,,,,,,,,,,,,,1,1,,,324.5044,14,right,0.0505,,1.5,0.3,"[2,3,1]",0.61668499,stimuli/card_100_transparent.png,100,14,0,14,0,1,,,,,,,,,,
,,,,6096d9b30d92183ab4f552a3,B,2024-06-22_19h56.39.524,Slot Machine Game,2023.1.3,Win32,59.17159763,,,,,,,,,,,,,,,,,,,,,,,,,,,,,,,,,,,326.8659,,,,,,,,,,,,,,,,,,,,,,,,,,,,,,,,,[940],0,0,0,0,1,,,,
,,,,6096d9b30d92183ab4f552a3,B,2024-06-22_19h56.39.524,Slot Machine Game,2023.1.3,Win32,59.17159763,,,,,,,,,,,,,,,,,,,,,,,,,,,0,,,,,,,,,,,,,,,,,,,,,2,5,"[5,15]","[[1,2,3],[3,1,2]]",331.8773,0,right,0.0671,,0.5,0.3,"[1,2,3]",0.542674187,stimuli/card_0_transparent.png,0,0,0,0,0,1,,,,,,,,,,
,,,,6096d9b30d92183ab4f552a3,B,2024-06-22_19h56.39.524,Slot Machine Game,2023.1.3,Win32,59.17159763,,,,,,,,,,,,,,,,,,,,,,,,,,,100,,,,,,,,,,,,,,,,,,,,,2,5,,,333.2578,1,left,0.0983,,0.5,0.3,"[1,2,3]",0.972215582,stimuli/card_100_transparent.png,100,1,0,1,0,1,,,,,,,,,,
,,,,6096d9b30d92183ab4f552a3,B,2024-06-22_19h56.39.524,Slot Machine Game,2023.1.3,Win32,59.17159763,,,,,,,,,,,,,,,,,,,,,,,,,,,200,,,,,,,,,,,,,,,,,,,,,2,5,,,334.6854,2,left,0.0869,,1.5,0.3,"[1,2,3]",0.901838656,stimuli/card_100_transparent.png,100,2,0,2,0,1,,,,,,,,,,
,,,,6096d9b30d92183ab4f552a3,B,2024-06-22_19h56.39.524,Slot Machine Game,2023.1.3,Win32,59.17159763,,,,,,,,,,,,,,,,,,,,,,,,,,,300,,,,,,,,,,,,,,,,,,,,,2,5,,,337.1231,3,left,0.2199,,1.5,0.3,"[1,2,3]",0.579853969,stimuli/card_100_transparent.png,100,3,0,3,0,1,,,,,,,,,,
,,,,6096d9b30d92183ab4f552a3,B,2024-06-22_19h56.39.524,Slot Machine Game,2023.1.3,Win32,59.17159763,,,,,,,,,,,,,,,,,,,,,,,,,,,400,,,,,,,,,,,,,,,,,,,,,2,5,,,339.6704,4,left,0.1171,,1.5,0.3,"[1,2,3]",0.883078051,stimuli/card_100_transparent.png,100,4,0,4,0,1,,,,,,,,,,
,,,,6096d9b30d92183ab4f552a3,B,2024-06-22_19h56.39.524,Slot Machine Game,2023.1.3,Win32,59.17159763,,,,,,,,,,,,,,,,,,,,,,,,,,,500,,,,,,,,,,,,,,,,,,,,,2,5,,,342.1048,5,left,0.022,,0.5,0.3,"[3,1,2]",0.066236732,stimuli/card_100_transparent.png,100,5,0,5,0,1,,,,,,,,,,
,,,,6096d9b30d92183ab4f552a3,B,2024-06-22_19h56.39.524,Slot Machine Game,2023.1.3,Win32,59.17159763,,,,,,,,,,,,,,,,,,,,,,,,,,,500,,,,,,,,,,,,,,,,,,,,,2,5,,,343.4719,6,left,0.131,,0.5,0.3,"[3,1,2]",0.854139303,stimuli/card_0_transparent.png,0,6,0,6,0,1,,,,,,,,,,
,,,,6096d9b30d92183ab4f552a3,B,2024-06-22_19h56.39.524,Slot Machine Game,2023.1.3,Win32,59.17159763,,,,,,,,,,,,,,,,,,,,,,,,,,,510,,,,,,,,,,,,,,,,,,,,,2,5,,,344.939,7,up,0.3504,,0.5,0.3,"[3,1,2]",0.191949343,stimuli/card_10_transparent.png,10,7,0,7,0,1,,,,,,,,,,
,,,,6096d9b30d92183ab4f552a3,B,2024-06-22_19h56.39.524,Slot Machine Game,2023.1.3,Win32,59.17159763,,,,,,,,,,,,,,,,,,,,,,,,,,,520,,,,,,,,,,,,,,,,,,,,,2,5,,,346.5898,8,right,0.017,,0.5,0.3,"[3,1,2]",0.796595909,stimuli/card_10_transparent.png,10,8,0,8,0,1,,,,,,,,,,
,,,,6096d9b30d92183ab4f552a3,B,2024-06-22_19h56.39.524,Slot Machine Game,2023.1.3,Win32,59.17159763,,,,,,,,,,,,,,,,,,,,,,,,,,,620,,,,,,,,,,,,,,,,,,,,,2,5,,,347.9402,9,up,0.1838,,0.5,0.3,"[3,1,2]",0.90448501,stimuli/card_100_transparent.png,100,9,0,9,0,1,,,,,,,,,,
,,,,6096d9b30d92183ab4f552a3,B,2024-06-22_19h56.39.524,Slot Machine Game,2023.1.3,Win32,59.17159763,,,,,,,,,,,,,,,,,,,,,,,,,,,630,,,,,,,,,,,,,,,,,,,,,2,5,,,349.4574,10,up,0.1505,,0.5,0.3,"[3,1,2]",0.195535881,stimuli/card_10_transparent.png,10,10,0,10,0,1,,,,,,,,,,
,,,,6096d9b30d92183ab4f552a3,B,2024-06-22_19h56.39.524,Slot Machine Game,2023.1.3,Win32,59.17159763,,,,,,,,,,,,,,,,,,,,,,,,,,,730,,,,,,,,,,,,,,,,,,,,,2,5,,,350.908,11,up,0.6672,,1,0.3,"[3,1,2]",0.289254187,stimuli/card_100_transparent.png,100,11,0,11,0,1,,,,,,,,,,
,,,,6096d9b30d92183ab4f552a3,B,2024-06-22_19h56.39.524,Slot Machine Game,2023.1.3,Win32,59.17159763,,,,,,,,,,,,,,,,,,,,,,,,,,,830,,,,,,,,,,,,,,,,,,,,,2,5,,,353.3755,12,up,0.049,,1.5,0.3,"[3,1,2]",0.82231358,stimuli/card_100_transparent.png,100,12,0,12,0,1,,,,,,,,,,
,,,,6096d9b30d92183ab4f552a3,B,2024-06-22_19h56.39.524,Slot Machine Game,2023.1.3,Win32,59.17159763,,,,,,,,,,,,,,,,,,,,,,,,,,,930,,,,,,,,,,,,,,,,,,,,,2,5,,,355.7431,13,up,0.8559,,1.5,0.3,"[3,1,2]",0.590132708,stimuli/card_100_transparent.png,100,13,0,13,0,1,,,,,,,,,,
,,,,6096d9b30d92183ab4f552a3,B,2024-06-22_19h56.39.524,Slot Machine Game,2023.1.3,Win32,59.17159763,,,,,,,,,,,,,,,,,,,,,,,,,,,1030,,,,,,,,,,,,,,,,,,,,,2,5,,,358.9277,14,up,0.3005,,1.5,0.3,"[3,1,2]",0.960133395,stimuli/card_100_transparent.png,100,14,0,14,0,1,,,,,,,,,,
,,,,6096d9b30d92183ab4f552a3,B,2024-06-22_19h56.39.524,Slot Machine Game,2023.1.3,Win32,59.17159763,,,,,,,,,,,,,,,,,,,,,,,,,,,,,,,,,,,361.5619,,,,,,,,,,,,,,,,,,,,,,,,,,,,,,,,,"[940,1030]",1,0,1,0,1,,,,
,,,,6096d9b30d92183ab4f552a3,B,2024-06-22_19h56.39.524,Slot Machine Game,2023.1.3,Win32,59.17159763,,,,,,,,,,,,,,,,,,,,,,,,,,,10,,,,,,,,,,,,,,,,,,,,,3,7,"[9,15]","[[1,3,2],[2,3,1]]",366.5738,0,right,0.0555,,1,0.3,"[1,3,2]",0.478416214,stimuli/card_10_transparent.png,10,0,0,0,0,1,,,,,,,,,,
,,,,6096d9b30d92183ab4f552a3,B,2024-06-22_19h56.39.524,Slot Machine Game,2023.1.3,Win32,59.17159763,,,,,,,,,,,,,,,,,,,,,,,,,,,110,,,,,,,,,,,,,,,,,,,,,3,7,,,368.4645,1,left,0.1937,,0.5,0.3,"[1,3,2]",0.494593523,stimuli/card_100_transparent.png,100,1,0,1,0,1,,,,,,,,,,
,,,,6096d9b30d92183ab4f552a3,B,2024-06-22_19h56.39.524,Slot Machine Game,2023.1.3,Win32,59.17159763,,,,,,,,,,,,,,,,,,,,,,,,,,,210,,,,,,,,,,,,,,,,,,,,,3,7,,,369.965,2,left,0.1351,,0.5,0.3,"[1,3,2]",0.609322271,stimuli/card_100_transparent.png,100,2,0,2,0,1,,,,,,,,,,
,,,,6096d9b30d92183ab4f552a3,B,2024-06-22_19h56.39.524,Slot Machine Game,2023.1.3,Win32,59.17159763,,,,,,,,,,,,,,,,,,,,,,,,,,,310,,,,,,,,,,,,,,,,,,,,,3,7,,,371.3989,3,left,0.052,,1.5,0.3,"[1,3,2]",0.452731822,stimuli/card_100_transparent.png,100,3,0,3,0,1,,,,,,,,,,
,,,,6096d9b30d92183ab4f552a3,B,2024-06-22_19h56.39.524,Slot Machine Game,2023.1.3,Win32,59.17159763,,,,,,,,,,,,,,,,,,,,,,,,,,,410,,,,,,,,,,,,,,,,,,,,,3,7,,,373.7831,4,left,0.0508,,1.5,0.3,"[1,3,2]",0.575967682,stimuli/card_100_transparent.png,100,4,0,4,0,1,,,,,,,,,,
,,,,6096d9b30d92183ab4f552a3,B,2024-06-22_19h56.39.524,Slot Machine Game,2023.1.3,Win32,59.17159763,,,,,,,,,,,,,,,,,,,,,,,,,,,510,,,,,,,,,,,,,,,,,,,,,3,7,,,376.1675,5,left,0.1476,,1,0.3,"[1,3,2]",0.341369339,stimuli/card_100_transparent.png,100,5,0,5,0,1,,,,,,,,,,
,,,,6096d9b30d92183ab4f552a3,B,2024-06-22_19h56.39.524,Slot Machine Game,2023.1.3,Win32,59.17159763,,,,,,,,,,,,,,,,,,,,,,,,,,,510,,,,,,,,,,,,,,,,,,,,,3,7,,,378.1348,6,up,0.62,,1,0.3,"[1,3,2]",0.541742519,stimuli/card_0_transparent.png,0,6,0,6,0,1,,,,,,,,,,
,,,,6096d9b30d92183ab4f552a3,B,2024-06-22_19h56.39.524,Slot Machine Game,2023.1.3,Win32,59.17159763,,,,,,,,,,,,,,,,,,,,,,,,,,,610,,,,,,,,,,,,,,,,,,,,,3,7,,,380.5859,7,left,0.1309,,1,0.3,"[1,3,2]",0.727031988,stimuli/card_100_transparent.png,100,7,0,7,0,1,,,,,,,,,,
,,,,6096d9b30d92183ab4f552a3,B,2024-06-22_19h56.39.524,Slot Machine Game,2023.1.3,Win32,59.17159763,,,,,,,,,,,,,,,,,,,,,,,,,,,620,,,,,,,,,,,,,,,,,,,,,3,7,,,382.5364,8,left,0.1961,,0.5,0.3,"[1,3,2]",0.150576196,stimuli/card_10_transparent.png,10,8,0,8,0,1,,,,,,,,,,
,,,,6096d9b30d92183ab4f552a3,B,2024-06-22_19h56.39.524,Slot Machine Game,2023.1.3,Win32,59.17159763,,,,,,,,,,,,,,,,,,,,,,,,,,,630,,,,,,,,,,,,,,,,,,,,,3,7,,,384.0536,9,left,0.4506,,1,0.3,"[2,3,1]",0.593112843,stimuli/card_10_transparent.png,10,9,0,9,0,1,,,,,,,,,,
,,,,6096d9b30d92183ab4f552a3,B,2024-06-22_19h56.39.524,Slot Machine Game,2023.1.3,Win32,59.17159763,,,,,,,,,,,,,,,,,,,,,,,,,,,640,,,,,,,,,,,,,,,,,,,,,3,7,,,386.3211,10,left,0.6147,,0.5,0.3,"[2,3,1]",0.756707677,stimuli/card_10_transparent.png,10,10,0,10,0,1,,,,,,,,,,
,,,,6096d9b30d92183ab4f552a3,B,2024-06-22_19h56.39.524,Slot Machine Game,2023.1.3,Win32,59.17159763,,,,,,,,,,,,,,,,,,,,,,,,,,,740,,,,,,,,,,,,,,,,,,,,,3,7,,,388.2387,11,right,0.2655,,1.5,0.3,"[2,3,1]",0.525242647,stimuli/card_100_transparent.png,100,11,0,11,0,1,,,,,,,,,,
,,,,6096d9b30d92183ab4f552a3,B,2024-06-22_19h56.39.524,Slot Machine Game,2023.1.3,Win32,59.17159763,,,,,,,,,,,,,,,,,,,,,,,,,,,840,,,,,,,,,,,,,,,,,,,,,3,7,,,390.8228,12,right,0.3879,,0.5,0.3,"[2,3,1]",0.63187934,stimuli/card_100_transparent.png,100,12,0,12,0,1,,,,,,,,,,
,,,,6096d9b30d92183ab4f552a3,B,2024-06-22_19h56.39.524,Slot Machine Game,2023.1.3,Win32,59.17159763,,,,,,,,,,,,,,,,,,,,,,,,,,,940,,,,,,,,,,,,,,,,,,,,,3,7,,,392.5401,13,right,0.2924,,0.5,0.3,"[2,3,1]",0.514641097,stimuli/card_100_transparent.png,100,13,0,13,0,1,,,,,,,,,,
,,,,6096d9b30d92183ab4f552a3,B,2024-06-22_19h56.39.524,Slot Machine Game,2023.1.3,Win32,59.17159763,,,,,,,,,,,,,,,,,,,,,,,,,,,1040,,,,,,,,,,,,,,,,,,,,,3,7,,,394.1575,14,right,0.2383,,1.5,0.3,"[2,3,1]",0.216180384,stimuli/card_100_transparent.png,100,14,0,14,0,1,,,,,,,,,,
,,,,6096d9b30d92183ab4f552a3,B,2024-06-22_19h56.39.524,Slot Machine Game,2023.1.3,Win32,59.17159763,,,,,,,,,,,,,,,,,,,,,,,,,,,,,,,,,,,396.7252,,,,,,,,,,,,,,,,,,,,,,,,,,,,,,,,,"[940,1030,1040]",2,0,2,0,1,,,,
,,,,6096d9b30d92183ab4f552a3,B,2024-06-22_19h56.39.524,Slot Machine Game,2023.1.3,Win32,59.17159763,,,,,,,,,,,,,,,,,,,,,,,,,,,0,,,,,,,,,,,,,,,,,,,,,4,4,"[7,15]","[[2,3,1],[1,2,3]]",401.7364,0,left,0.3673,,0.5,0.3,"[2,3,1]",0.042652069,stimuli/card_0_transparent.png,0,0,0,0,0,1,,,,,,,,,,
,,,,6096d9b30d92183ab4f552a3,B,2024-06-22_19h56.39.524,Slot Machine Game,2023.1.3,Win32,59.17159763,,,,,,,,,,,,,,,,,,,,,,,,,,,100,,,,,,,,,,,,,,,,,,,,,4,4,,,403.4443,1,right,0.0745,,1,0.3,"[2,3,1]",0.573739062,stimuli/card_100_transparent.png,100,1,0,1,0,1,,,,,,,,,,
,,,,6096d9b30d92183ab4f552a3,B,2024-06-22_19h56.39.524,Slot Machine Game,2023.1.3,Win32,59.17159763,,,,,,,,,,,,,,,,,,,,,,,,,,,110,,,,,,,,,,,,,,,,,,,,,4,4,,,405.345,2,right,0.1171,,1.5,0.3,"[2,3,1]",0.104112326,stimuli/card_10_transparent.png,10,2,0,2,0,1,,,,,,,,,,
,,,,6096d9b30d92183ab4f552a3,B,2024-06-22_19h56.39.524,Slot Machine Game,2023.1.3,Win32,59.17159763,,,,,,,,,,,,,,,,,,,,,,,,,,,210,,,,,,,,,,,,,,,,,,,,,4,4,,,407.7796,3,right,0.1172,,1,0.3,"[2,3,1]",0.864904,stimuli/card_100_transparent.png,100,3,0,3,0,1,,,,,,,,,,
,,,,6096d9b30d92183ab4f552a3,B,2024-06-22_19h56.39.524,Slot Machine Game,2023.1.3,Win32,59.17159763,,,,,,,,,,,,,,,,,,,,,,,,,,,310,,,,,,,,,,,,,,,,,,,,,4,4,,,409.7299,4,right,0.1506,,1.5,0.3,"[2,3,1]",0.661815493,stimuli/card_100_transparent.png,100,4,0,4,0,1,,,,,,,,,,
,,,,6096d9b30d92183ab4f552a3,B,2024-06-22_19h56.39.524,Slot Machine Game,2023.1.3,Win32,59.17159763,,,,,,,,,,,,,,,,,,,,,,,,,,,410,,,,,,,,,,,,,,,,,,,,,4,4,,,412.1974,5,right,0.2634,,0.5,0.3,"[2,3,1]",0.233493655,stimuli/card_100_transparent.png,100,5,0,5,0,1,,,,,,,,,,
,,,,6096d9b30d92183ab4f552a3,B,2024-06-22_19h56.39.524,Slot Machine Game,2023.1.3,Win32,59.17159763,,,,,,,,,,,,,,,,,,,,,,,,,,,510,,,,,,,,,,,,,,,,,,,,,4,4,,,413.7814,6,right,0.2847,,1.5,0.3,"[2,3,1]",0.356293291,stimuli/card_100_transparent.png,100,6,0,6,0,1,,,,,,,,,,
,,,,6096d9b30d92183ab4f552a3,B,2024-06-22_19h56.39.524,Slot Machine Game,2023.1.3,Win32,59.17159763,,,,,,,,,,,,,,,,,,,,,,,,,,,510,,,,,,,,,,,,,,,,,,,,,4,4,,,416.3721,7,right,0.1536,,1.5,0.3,"[1,2,3]",0.670438681,stimuli/card_0_transparent.png,0,7,0,7,0,1,,,,,,,,,,
,,,,6096d9b30d92183ab4f552a3,B,2024-06-22_19h56.39.524,Slot Machine Game,2023.1.3,Win32,59.17159763,,,,,,,,,,,,,,,,,,,,,,,,,,,520,,,,,,,,,,,,,,,,,,,,,4,4,,,418.8333,8,up,0.1531,,1.5,0.3,"[1,2,3]",0.474680439,stimuli/card_10_transparent.png,10,8,0,8,0,1,,,,,,,,,,
,,,,6096d9b30d92183ab4f552a3,B,2024-06-22_19h56.39.524,Slot Machine Game,2023.1.3,Win32,59.17159763,,,,,,,,,,,,,,,,,,,,,,,,,,,530,,,,,,,,,,,,,,,,,,,,,4,4,,,421.301,9,up,0.3146,,1,0.3,"[1,2,3]",0.667477815,stimuli/card_10_transparent.png,10,9,0,9,0,1,,,,,,,,,,
,,,,6096d9b30d92183ab4f552a3,B,2024-06-22_19h56.39.524,Slot Machine Game,2023.1.3,Win32,59.17159763,,,,,,,,,,,,,,,,,,,,,,,,,,,630,,,,,,,,,,,,,,,,,,,,,4,4,,,423.435,10,left,0.1671,,0.5,0.3,"[1,2,3]",0.556110077,stimuli/card_100_transparent.png,100,10,0,10,0,1,,,,,,,,,,
,,,,6096d9b30d92183ab4f552a3,B,2024-06-22_19h56.39.524,Slot Machine Game,2023.1.3,Win32,59.17159763,,,,,,,,,,,,,,,,,,,,,,,,,,,730,,,,,,,,,,,,,,,,,,,,,4,4,,,424.9357,11,left,0.1506,,1.5,0.3,"[1,2,3]",0.959794003,stimuli/card_100_transparent.png,100,11,0,11,0,1,,,,,,,,,,
,,,,6096d9b30d92183ab4f552a3,B,2024-06-22_19h56.39.524,Slot Machine Game,2023.1.3,Win32,59.17159763,,,,,,,,,,,,,,,,,,,,,,,,,,,830,,,,,,,,,,,,,,,,,,,,,4,4,,,427.4197,12,left,0.0602,,0.5,0.3,"[1,2,3]",0.805560711,stimuli/card_100_transparent.png,100,12,0,12,0,1,,,,,,,,,,
,,,,6096d9b30d92183ab4f552a3,B,2024-06-22_19h56.39.524,Slot Machine Game,2023.1.3,Win32,59.17159763,,,,,,,,,,,,,,,,,,,,,,,,,,,830,,,,,,,,,,,,,,,,,,,,,4,4,,,428.7873,13,left,0.3364,,1.5,0.3,"[1,2,3]",0.060896526,stimuli/card_0_transparent.png,0,13,0,13,0,1,,,,,,,,,,
,,,,6096d9b30d92183ab4f552a3,B,2024-06-22_19h56.39.524,Slot Machine Game,2023.1.3,Win32,59.17159763,,,,,,,,,,,,,,,,,,,,,,,,,,,830,,,,,,,,,,,,,,,,,,,,,4,4,,,431.4546,14,right,1.4078,,0.5,0.3,"[1,2,3]",0.481398041,stimuli/card_0_transparent.png,0,14,0,14,0,1,,,,,,,,,,
,,,,6096d9b30d92183ab4f552a3,B,2024-06-22_19h56.39.524,Slot Machine Game,2023.1.3,Win32,59.17159763,,,,,,,,,,,,,,,,,,,,,,,,,,,,,,,,,,,434.1723,,,,,,,,,,,,,,,,,,,,,,,,,,,,,,,,,"[940,1030,1040,830]",3,0,3,0,1,,,,
,,,,6096d9b30d92183ab4f552a3,B,2024-06-22_19h56.39.524,Slot Machine Game,2023.1.3,Win32,59.17159763,,,,,,,,,,,,,,,,,,,,,,,,,,,0,,,,,,,,,,,,,,,,,,,,,5,6,"[4,10,15]","[[2,3,1],[1,3,2],[3,2,1]]",439.1846,0,left,0.4742,,0.5,0.3,"[2,3,1]",0.019107029,stimuli/card_0_transparent.png,0,0,0,0,0,1,,,,,,,,,,
,,,,6096d9b30d92183ab4f552a3,B,2024-06-22_19h56.39.524,Slot Machine Game,2023.1.3,Win32,59.17159763,,,,,,,,,,,,,,,,,,,,,,,,,,,100,,,,,,,,,,,,,,,,,,,,,5,6,,,440.9751,1,right,0.3199,,1,0.3,"[2,3,1]",0.955358432,stimuli/card_100_transparent.png,100,1,0,1,0,1,,,,,,,,,,
,,,,6096d9b30d92183ab4f552a3,B,2024-06-22_19h56.39.524,Slot Machine Game,2023.1.3,Win32,59.17159763,,,,,,,,,,,,,,,,,,,,,,,,,,,200,,,,,,,,,,,,,,,,,,,,,5,6,,,443.1153,2,right,0.0716,,1.5,0.3,"[2,3,1]",0.909224026,stimuli/card_100_transparent.png,100,2,0,2,0,1,,,,,,,,,,
,,,,6096d9b30d92183ab4f552a3,B,2024-06-22_19h56.39.524,Slot Machine Game,2023.1.3,Win32,59.17159763,,,,,,,,,,,,,,,,,,,,,,,,,,,300,,,,,,,,,,,,,,,,,,,,,5,6,,,445.5098,3,right,0.3005,,0.5,0.3,"[2,3,1]",0.921287575,stimuli/card_100_transparent.png,100,3,0,3,0,1,,,,,,,,,,
,,,,6096d9b30d92183ab4f552a3,B,2024-06-22_19h56.39.524,Slot Machine Game,2023.1.3,Win32,59.17159763,,,,,,,,,,,,,,,,,,,,,,,,,,,310,,,,,,,,,,,,,,,,,,,,,5,6,,,447.134,4,right,0.2554,,1.5,0.3,"[1,3,2]",0.319695742,stimuli/card_10_transparent.png,10,4,0,4,0,1,,,,,,,,,,
,,,,6096d9b30d92183ab4f552a3,B,2024-06-22_19h56.39.524,Slot Machine Game,2023.1.3,Win32,59.17159763,,,,,,,,,,,,,,,,,,,,,,,,,,,320,,,,,,,,,,,,,,,,,,,,,5,6,,,449.7116,5,right,0.0505,,1,0.3,"[1,3,2]",0.723217662,stimuli/card_10_transparent.png,10,5,0,5,0,1,,,,,,,,,,
,,,,6096d9b30d92183ab4f552a3,B,2024-06-22_19h56.39.524,Slot Machine Game,2023.1.3,Win32,59.17159763,,,,,,,,,,,,,,,,,,,,,,,,,,,330,,,,,,,,,,,,,,,,,,,,,5,6,,,451.5954,6,right,0.071,,0.5,0.3,"[1,3,2]",0.467225172,stimuli/card_10_transparent.png,10,6,0,6,0,1,,,,,,,,,,
,,,,6096d9b30d92183ab4f552a3,B,2024-06-22_19h56.39.524,Slot Machine Game,2023.1.3,Win32,59.17159763,,,,,,,,,,,,,,,,,,,,,,,,,,,330,,,,,,,,,,,,,,,,,,,,,5,6,,,452.9858,7,up,0.0643,,1,0.3,"[1,3,2]",0.976372136,stimuli/card_0_transparent.png,0,7,0,7,0,1,,,,,,,,,,
,,,,6096d9b30d92183ab4f552a3,B,2024-06-22_19h56.39.524,Slot Machine Game,2023.1.3,Win32,59.17159763,,,,,,,,,,,,,,,,,,,,,,,,,,,430,,,,,,,,,,,,,,,,,,,,,5,6,,,454.88,8,left,0.0004,,1.5,0.3,"[1,3,2]",0.467815084,stimuli/card_100_transparent.png,100,8,0,8,0,1,,,,,,,,,,
,,,,6096d9b30d92183ab4f552a3,B,2024-06-22_19h56.39.524,Slot Machine Game,2023.1.3,Win32,59.17159763,,,,,,,,,,,,,,,,,,,,,,,,,,,530,,,,,,,,,,,,,,,,,,,,,5,6,,,457.1976,9,left,0.2002,,0.5,0.3,"[1,3,2]",0.367375746,stimuli/card_100_transparent.png,100,9,0,9,0,1,,,,,,,,,,
,,,,6096d9b30d92183ab4f552a3,B,2024-06-22_19h56.39.524,Slot Machine Game,2023.1.3,Win32,59.17159763,,,,,,,,,,,,,,,,,,,,,,,,,,,530,,,,,,,,,,,,,,,,,,,,,5,6,,,458.7315,10,left,0.4909,,0.5,0.3,"[3,2,1]",0.569699839,stimuli/card_0_transparent.png,0,10,0,10,0,1,,,,,,,,,,
,,,,6096d9b30d92183ab4f552a3,B,2024-06-22_19h56.39.524,Slot Machine Game,2023.1.3,Win32,59.17159763,,,,,,,,,,,,,,,,,,,,,,,,,,,530,,,,,,,,,,,,,,,,,,,,,5,6,,,460.5321,11,left,0.0004,,1,0.3,"[3,2,1]",0.915690317,stimuli/card_0_transparent.png,0,11,0,11,0,1,,,,,,,,,,
,,,,6096d9b30d92183ab4f552a3,B,2024-06-22_19h56.39.524,Slot Machine Game,2023.1.3,Win32,59.17159763,,,,,,,,,,,,,,,,,,,,,,,,,,,630,,,,,,,,,,,,,,,,,,,,,5,6,,,462.3495,12,right,0.1338,,1.5,0.3,"[3,2,1]",0.303300505,stimuli/card_100_transparent.png,100,12,0,12,0,1,,,,,,,,,,
,,,,6096d9b30d92183ab4f552a3,B,2024-06-22_19h56.39.524,Slot Machine Game,2023.1.3,Win32,59.17159763,,,,,,,,,,,,,,,,,,,,,,,,,,,730,,,,,,,,,,,,,,,,,,,,,5,6,,,464.7873,13,right,0.1671,,1.5,0.3,"[3,2,1]",0.845054317,stimuli/card_100_transparent.png,100,13,0,13,0,1,,,,,,,,,,
,,,,6096d9b30d92183ab4f552a3,B,2024-06-22_19h56.39.524,Slot Machine Game,2023.1.3,Win32,59.17159763,,,,,,,,,,,,,,,,,,,,,,,,,,,730,,,,,,,,,,,,,,,,,,,,,5,6,,,467.2846,14,right,0.1923,,1.5,0.3,"[3,2,1]",0.014204028,stimuli/card_0_transparent.png,0,14,0,14,0,1,,,,,,,,,,
,,,,6096d9b30d92183ab4f552a3,B,2024-06-22_19h56.39.524,Slot Machine Game,2023.1.3,Win32,59.17159763,,,,,,,,,,,,,,,,,,,,,,,,,,,,,,,,,,,469.8022,,,,,,,,,,,,,,,,,,,,,,,,,,,,,,,,,"[940,1030,1040,830,730]",4,0,4,0,1,,,,
,,,,6096d9b30d92183ab4f552a3,B,2024-06-22_19h56.39.524,Slot Machine Game,2023.1.3,Win32,59.17159763,,,,,,,,,,,,,,,,,,,,,,,,,,,0,,,,,,,,,,,,,,,,,,,,,6,8,"[11,15]","[[2,1,3],[1,2,3]]",474.8003,0,right,0.1201,,1,0.3,"[2,1,3]",0.259580147,stimuli/card_0_transparent.png,0,0,0,0,0,1,,,,,,,,,,
,,,,6096d9b30d92183ab4f552a3,B,2024-06-22_19h56.39.524,Slot Machine Game,2023.1.3,Win32,59.17159763,,,,,,,,,,,,,,,,,,,,,,,,,,,0,,,,,,,,,,,,,,,,,,,,,6,8,,,476.7548,1,left,0.3298,,1.5,0.3,"[2,1,3]",0.059798475,stimuli/card_0_transparent.png,0,1,0,1,0,1,,,,,,,,,,
,,,,6096d9b30d92183ab4f552a3,B,2024-06-22_19h56.39.524,Slot Machine Game,2023.1.3,Win32,59.17159763,,,,,,,,,,,,,,,,,,,,,,,,,,,100,,,,,,,,,,,,,,,,,,,,,6,8,,,479.406,2,up,0.209,,0.5,0.3,"[2,1,3]",0.2334639,stimuli/card_100_transparent.png,100,2,0,2,0,1,,,,,,,,,,
,,,,6096d9b30d92183ab4f552a3,B,2024-06-22_19h56.39.524,Slot Machine Game,2023.1.3,Win32,59.17159763,,,,,,,,,,,,,,,,,,,,,,,,,,,200,,,,,,,,,,,,,,,,,,,,,6,8,,,480.9563,3,up,0.0772,,0.5,0.3,"[2,1,3]",0.504002405,stimuli/card_100_transparent.png,100,3,0,3,0,1,,,,,,,,,,
,,,,6096d9b30d92183ab4f552a3,B,2024-06-22_19h56.39.524,Slot Machine Game,2023.1.3,Win32,59.17159763,,,,,,,,,,,,,,,,,,,,,,,,,,,300,,,,,,,,,,,,,,,,,,,,,6,8,,,482.3404,4,up,0.0336,,0.5,0.3,"[2,1,3]",0.333366943,stimuli/card_100_transparent.png,100,4,0,4,0,1,,,,,,,,,,
,,,,6096d9b30d92183ab4f552a3,B,2024-06-22_19h56.39.524,Slot Machine Game,2023.1.3,Win32,59.17159763,,,,,,,,,,,,,,,,,,,,,,,,,,,400,,,,,,,,,,,,,,,,,,,,,6,8,,,483.7074,5,up,0.0723,,1,0.3,"[2,1,3]",0.874999784,stimuli/card_100_transparent.png,100,5,0,5,0,1,,,,,,,,,,
,,,,6096d9b30d92183ab4f552a3,B,2024-06-22_19h56.39.524,Slot Machine Game,2023.1.3,Win32,59.17159763,,,,,,,,,,,,,,,,,,,,,,,,,,,500,,,,,,,,,,,,,,,,,,,,,6,8,,,485.5914,6,up,0.0671,,1.5,0.3,"[2,1,3]",0.509044489,stimuli/card_100_transparent.png,100,6,0,6,0,1,,,,,,,,,,
,,,,6096d9b30d92183ab4f552a3,B,2024-06-22_19h56.39.524,Slot Machine Game,2023.1.3,Win32,59.17159763,,,,,,,,,,,,,,,,,,,,,,,,,,,600,,,,,,,,,,,,,,,,,,,,,6,8,,,487.9756,7,up,0.7362,,1.5,0.3,"[2,1,3]",0.721028317,stimuli/card_100_transparent.png,100,7,0,7,0,1,,,,,,,,,,
,,,,6096d9b30d92183ab4f552a3,B,2024-06-22_19h56.39.524,Slot Machine Game,2023.1.3,Win32,59.17159763,,,,,,,,,,,,,,,,,,,,,,,,,,,700,,,,,,,,,,,,,,,,,,,,,6,8,,,491.0269,8,up,0.2837,,1.5,0.3,"[2,1,3]",0.527165884,stimuli/card_100_transparent.png,100,8,0,8,0,1,,,,,,,,,,
,,,,6096d9b30d92183ab4f552a3,B,2024-06-22_19h56.39.524,Slot Machine Game,2023.1.3,Win32,59.17159763,,,,,,,,,,,,,,,,,,,,,,,,,,,800,,,,,,,,,,,,,,,,,,,,,6,8,,,493.6344,9,up,0.2108,,1.5,0.3,"[2,1,3]",0.213698987,stimuli/card_100_transparent.png,100,9,0,9,0,1,,,,,,,,,,
,,,,6096d9b30d92183ab4f552a3,B,2024-06-22_19h56.39.524,Slot Machine Game,2023.1.3,Win32,59.17159763,,,,,,,,,,,,,,,,,,,,,,,,,,,810,,,,,,,,,,,,,,,,,,,,,6,8,,,496.1621,10,up,0.1005,,0.5,0.3,"[2,1,3]",0.128013754,stimuli/card_10_transparent.png,10,10,0,10,0,1,,,,,,,,,,
,,,,6096d9b30d92183ab4f552a3,B,2024-06-22_19h56.39.524,Slot Machine Game,2023.1.3,Win32,59.17159763,,,,,,,,,,,,,,,,,,,,,,,,,,,810,,,,,,,,,,,,,,,,,,,,,6,8,,,497.5793,11,right,1.4038,,1.5,0.3,"[1,2,3]",0.742886679,stimuli/card_0_transparent.png,0,11,0,11,0,1,,,,,,,,,,
,,,,6096d9b30d92183ab4f552a3,B,2024-06-22_19h56.39.524,Slot Machine Game,2023.1.3,Win32,59.17159763,,,,,,,,,,,,,,,,,,,,,,,,,,,820,,,,,,,,,,,,,,,,,,,,,6,8,,,501.3309,12,up,0.735,,0.5,0.3,"[1,2,3]",0.624857315,stimuli/card_10_transparent.png,10,12,0,12,0,1,,,,,,,,,,
,,,,6096d9b30d92183ab4f552a3,B,2024-06-22_19h56.39.524,Slot Machine Game,2023.1.3,Win32,59.17159763,,,,,,,,,,,,,,,,,,,,,,,,,,,920,,,,,,,,,,,,,,,,,,,,,6,8,,,503.3983,13,left,0.0171,,1.5,0.3,"[1,2,3]",0.960754844,stimuli/card_100_transparent.png,100,13,0,13,0,1,,,,,,,,,,
,,,,6096d9b30d92183ab4f552a3,B,2024-06-22_19h56.39.524,Slot Machine Game,2023.1.3,Win32,59.17159763,,,,,,,,,,,,,,,,,,,,,,,,,,,1020,,,,,,,,,,,,,,,,,,,,,6,8,,,505.7491,14,left,0.3374,,0.5,0.3,"[1,2,3]",0.227778302,stimuli/card_100_transparent.png,100,14,0,14,0,1,,,,,,,,,,
,,,,6096d9b30d92183ab4f552a3,B,2024-06-22_19h56.39.524,Slot Machine Game,2023.1.3,Win32,59.17159763,,,,,,,,,,,,,,,,,,,,,,,,,,,,,,,,,,,507.383,,,,,,,,,,,,,,,,,,,,,,,,,,,,,,,,,"[940,1030,1040,830,730,1020]",5,0,5,0,1,,,,
,,,,6096d9b30d92183ab4f552a3,B,2024-06-22_19h56.39.524,Slot Machine Game,2023.1.3,Win32,59.17159763,,,,,,,,,,,,,,,,,,,,,,,,,,,100,,,,,,,,,,,,,,,,,,,,,7,9,"[8,15]","[[3,2,1],[3,1,2]]",512.3815,0,right,0.4011,,1.5,0.3,"[3,2,1]",0.548707162,stimuli/card_100_transparent.png,100,0,0,0,0,1,,,,,,,,,,
,,,,6096d9b30d92183ab4f552a3,B,2024-06-22_19h56.39.524,Slot Machine Game,2023.1.3,Win32,59.17159763,,,,,,,,,,,,,,,,,,,,,,,,,,,200,,,,,,,,,,,,,,,,,,,,,7,9,,,515.1025,1,right,0.0222,,0.5,0.3,"[3,2,1]",0.859759966,stimuli/card_100_transparent.png,100,1,0,1,0,1,,,,,,,,,,
,,,,6096d9b30d92183ab4f552a3,B,2024-06-22_19h56.39.524,Slot Machine Game,2023.1.3,Win32,59.17159763,,,,,,,,,,,,,,,,,,,,,,,,,,,300,,,,,,,,,,,,,,,,,,,,,7,9,,,516.4426,2,right,0.0534,,1,0.3,"[3,2,1]",0.554986858,stimuli/card_100_transparent.png,100,2,0,2,0,1,,,,,,,,,,
,,,,6096d9b30d92183ab4f552a3,B,2024-06-22_19h56.39.524,Slot Machine Game,2023.1.3,Win32,59.17159763,,,,,,,,,,,,,,,,,,,,,,,,,,,400,,,,,,,,,,,,,,,,,,,,,7,9,,,518.3204,3,right,0.1934,,1.5,0.3,"[3,2,1]",0.773046688,stimuli/card_100_transparent.png,100,3,0,3,0,1,,,,,,,,,,
,,,,6096d9b30d92183ab4f552a3,B,2024-06-22_19h56.39.524,Slot Machine Game,2023.1.3,Win32,59.17159763,,,,,,,,,,,,,,,,,,,,,,,,,,,500,,,,,,,,,,,,,,,,,,,,,7,9,,,520.8212,4,right,0.2171,,0.5,0.3,"[3,2,1]",0.752422478,stimuli/card_100_transparent.png,100,4,0,4,0,1,,,,,,,,,,
,,,,6096d9b30d92183ab4f552a3,B,2024-06-22_19h56.39.524,Slot Machine Game,2023.1.3,Win32,59.17159763,,,,,,,,,,,,,,,,,,,,,,,,,,,600,,,,,,,,,,,,,,,,,,,,,7,9,,,522.3385,5,right,0.0592,,1,0.3,"[3,2,1]",0.753273084,stimuli/card_100_transparent.png,100,5,0,5,0,1,,,,,,,,,,
,,,,6096d9b30d92183ab4f552a3,B,2024-06-22_19h56.39.524,Slot Machine Game,2023.1.3,Win32,59.17159763,,,,,,,,,,,,,,,,,,,,,,,,,,,600,,,,,,,,,,,,,,,,,,,,,7,9,,,524.2288,6,left,0.9841,,1.5,0.3,"[3,2,1]",0.460242194,stimuli/card_0_transparent.png,0,6,0,6,0,1,,,,,,,,,,
,,,,6096d9b30d92183ab4f552a3,B,2024-06-22_19h56.39.524,Slot Machine Game,2023.1.3,Win32,59.17159763,,,,,,,,,,,,,,,,,,,,,,,,,,,700,,,,,,,,,,,,,,,,,,,,,7,9,,,527.5404,7,right,0.0079,,1.5,0.3,"[3,2,1]",0.667571199,stimuli/card_100_transparent.png,100,7,0,7,0,1,,,,,,,,,,
,,,,6096d9b30d92183ab4f552a3,B,2024-06-22_19h56.39.524,Slot Machine Game,2023.1.3,Win32,59.17159763,,,,,,,,,,,,,,,,,,,,,,,,,,,710,,,,,,,,,,,,,,,,,,,,,7,9,,,529.881,8,right,0.1897,,0.5,0.3,"[3,1,2]",0.976070056,stimuli/card_10_transparent.png,10,8,0,8,0,1,,,,,,,,,,
,,,,6096d9b30d92183ab4f552a3,B,2024-06-22_19h56.39.524,Slot Machine Game,2023.1.3,Win32,59.17159763,,,,,,,,,,,,,,,,,,,,,,,,,,,810,,,,,,,,,,,,,,,,,,,,,7,9,,,531.3918,9,up,0.0342,,0.5,0.3,"[3,1,2]",0.91450944,stimuli/card_100_transparent.png,100,9,0,9,0,1,,,,,,,,,,
,,,,6096d9b30d92183ab4f552a3,B,2024-06-22_19h56.39.524,Slot Machine Game,2023.1.3,Win32,59.17159763,,,,,,,,,,,,,,,,,,,,,,,,,,,910,,,,,,,,,,,,,,,,,,,,,7,9,,,532.759,10,up,0.117,,1.5,0.3,"[3,1,2]",0.475807245,stimuli/card_100_transparent.png,100,10,0,10,0,1,,,,,,,,,,
,,,,6096d9b30d92183ab4f552a3,B,2024-06-22_19h56.39.524,Slot Machine Game,2023.1.3,Win32,59.17159763,,,,,,,,,,,,,,,,,,,,,,,,,,,1010,,,,,,,,,,,,,,,,,,,,,7,9,,,535.1996,11,up,0.1963,,0.5,0.3,"[3,1,2]",0.554901354,stimuli/card_100_transparent.png,100,11,0,11,0,1,,,,,,,,,,
,,,,6096d9b30d92183ab4f552a3,B,2024-06-22_19h56.39.524,Slot Machine Game,2023.1.3,Win32,59.17159763,,,,,,,,,,,,,,,,,,,,,,,,,,,1110,,,,,,,,,,,,,,,,,,,,,7,9,,,536.7002,12,up,0.1503,,0.5,0.3,"[3,1,2]",0.589626111,stimuli/card_100_transparent.png,100,12,0,12,0,1,,,,,,,,,,
,,,,6096d9b30d92183ab4f552a3,B,2024-06-22_19h56.39.524,Slot Machine Game,2023.1.3,Win32,59.17159763,,,,,,,,,,,,,,,,,,,,,,,,,,,1210,,,,,,,,,,,,,,,,,,,,,7,9,,,538.1842,13,up,0.0072,,1.5,0.3,"[3,1,2]",0.65723321,stimuli/card_100_transparent.png,100,13,0,13,0,1,,,,,,,,,,
,,,,6096d9b30d92183ab4f552a3,B,2024-06-22_19h56.39.524,Slot Machine Game,2023.1.3,Win32,59.17159763,,,,,,,,,,,,,,,,,,,,,,,,,,,1310,,,,,,,,,,,,,,,,,,,,,7,9,,,540.5122,14,up,0.0337,,1,0.3,"[3,1,2]",0.920957816,stimuli/card_100_transparent.png,100,14,0,14,0,1,,,,,,,,,,
,,,,6096d9b30d92183ab4f552a3,B,2024-06-22_19h56.39.524,Slot Machine Game,2023.1.3,Win32,59.17159763,,,,,,,,,,,,,,,,,,,,,,,,,,,,,,,,,,,542.3792,,,,,,,,,,,,,,,,,,,,,,,,,,,,,,,,,"[940,1030,1040,830,730,1020,1310]",6,0,6,0,1,,,,
,,,,6096d9b30d92183ab4f552a3,B,2024-06-22_19h56.39.524,Slot Machine Game,2023.1.3,Win32,59.17159763,,,,,,,,,,,,,,,,,,,,,,,,,,,0,,,,,,,,,,,,,,,,,,,,,8,2,"[6,15]","[[1,3,2],[3,2,1]]",547.391,0,up,0.8607,,1,0.3,"[1,3,2]",0.255117679,stimuli/card_0_transparent.png,0,0,0,0,0,1,,,,,,,,,,
,,,,6096d9b30d92183ab4f552a3,B,2024-06-22_19h56.39.524,Slot Machine Game,2023.1.3,Win32,59.17159763,,,,,,,,,,,,,,,,,,,,,,,,,,,100,,,,,,,,,,,,,,,,,,,,,8,2,,,550.0654,1,left,0.1371,,1.5,0.3,"[1,3,2]",0.43153749,stimuli/card_100_transparent.png,100,1,0,1,0,1,,,,,,,,,,
,,,,6096d9b30d92183ab4f552a3,B,2024-06-22_19h56.39.524,Slot Machine Game,2023.1.3,Win32,59.17159763,,,,,,,,,,,,,,,,,,,,,,,,,,,200,,,,,,,,,,,,,,,,,,,,,8,2,,,552.5164,2,left,0.0202,,0.5,0.3,"[1,3,2]",0.532272929,stimuli/card_100_transparent.png,100,2,0,2,0,1,,,,,,,,,,
,,,,6096d9b30d92183ab4f552a3,B,2024-06-22_19h56.39.524,Slot Machine Game,2023.1.3,Win32,59.17159763,,,,,,,,,,,,,,,,,,,,,,,,,,,300,,,,,,,,,,,,,,,,,,,,,8,2,,,553.8504,3,left,0.1411,,1.5,0.3,"[1,3,2]",0.354443682,stimuli/card_100_transparent.png,100,3,0,3,0,1,,,,,,,,,,
,,,,6096d9b30d92183ab4f552a3,B,2024-06-22_19h56.39.524,Slot Machine Game,2023.1.3,Win32,59.17159763,,,,,,,,,,,,,,,,,,,,,,,,,,,400,,,,,,,,,,,,,,,,,,,,,8,2,,,556.338,4,left,0.1338,,1.5,0.3,"[1,3,2]",0.203994729,stimuli/card_100_transparent.png,100,4,0,4,0,1,,,,,,,,,,
,,,,6096d9b30d92183ab4f552a3,B,2024-06-22_19h56.39.524,Slot Machine Game,2023.1.3,Win32,59.17159763,,,,,,,,,,,,,,,,,,,,,,,,,,,500,,,,,,,,,,,,,,,,,,,,,8,2,,,558.7853,5,left,0.2381,,1.5,0.3,"[1,3,2]",0.202973466,stimuli/card_100_transparent.png,100,5,0,5,0,1,,,,,,,,,,
,,,,6096d9b30d92183ab4f552a3,B,2024-06-22_19h56.39.524,Slot Machine Game,2023.1.3,Win32,59.17159763,,,,,,,,,,,,,,,,,,,,,,,,,,,500,,,,,,,,,,,,,,,,,,,,,8,2,,,561.3363,6,left,0.3047,,0.5,0.3,"[3,2,1]",0.234918141,stimuli/card_0_transparent.png,0,6,0,6,0,1,,,,,,,,,,
,,,,6096d9b30d92183ab4f552a3,B,2024-06-22_19h56.39.524,Slot Machine Game,2023.1.3,Win32,59.17159763,,,,,,,,,,,,,,,,,,,,,,,,,,,600,,,,,,,,,,,,,,,,,,,,,8,2,,,562.9537,7,right,0.4671,,0.5,0.3,"[3,2,1]",0.623235571,stimuli/card_100_transparent.png,100,7,0,7,0,1,,,,,,,,,,
,,,,6096d9b30d92183ab4f552a3,B,2024-06-22_19h56.39.524,Slot Machine Game,2023.1.3,Win32,59.17159763,,,,,,,,,,,,,,,,,,,,,,,,,,,700,,,,,,,,,,,,,,,,,,,,,8,2,,,564.7439,8,right,0.0977,,1,0.3,"[3,2,1]",0.400241679,stimuli/card_100_transparent.png,100,8,0,8,0,1,,,,,,,,,,
,,,,6096d9b30d92183ab4f552a3,B,2024-06-22_19h56.39.524,Slot Machine Game,2023.1.3,Win32,59.17159763,,,,,,,,,,,,,,,,,,,,,,,,,,,800,,,,,,,,,,,,,,,,,,,,,8,2,,,566.6551,9,right,0.2197,,1,0.3,"[3,2,1]",0.715926682,stimuli/card_100_transparent.png,100,9,0,9,0,1,,,,,,,,,,
,,,,6096d9b30d92183ab4f552a3,B,2024-06-22_19h56.39.524,Slot Machine Game,2023.1.3,Win32,59.17159763,,,,,,,,,,,,,,,,,,,,,,,,,,,900,,,,,,,,,,,,,,,,,,,,,8,2,,,568.7058,10,right,0.1005,,1,0.3,"[3,2,1]",0.407632766,stimuli/card_100_transparent.png,100,10,0,10,0,1,,,,,,,,,,
,,,,6096d9b30d92183ab4f552a3,B,2024-06-22_19h56.39.524,Slot Machine Game,2023.1.3,Win32,59.17159763,,,,,,,,,,,,,,,,,,,,,,,,,,,1000,,,,,,,,,,,,,,,,,,,,,8,2,,,570.6065,11,right,0.2852,,1,0.3,"[3,2,1]",0.934524884,stimuli/card_100_transparent.png,100,11,0,11,0,1,,,,,,,,,,
,,,,6096d9b30d92183ab4f552a3,B,2024-06-22_19h56.39.524,Slot Machine Game,2023.1.3,Win32,59.17159763,,,,,,,,,,,,,,,,,,,,,,,,,,,1100,,,,,,,,,,,,,,,,,,,,,8,2,,,572.747,12,right,0.1769,,1,0.3,"[3,2,1]",0.526463864,stimuli/card_100_transparent.png,100,12,0,12,0,1,,,,,,,,,,
,,,,6096d9b30d92183ab4f552a3,B,2024-06-22_19h56.39.524,Slot Machine Game,2023.1.3,Win32,59.17159763,,,,,,,,,,,,,,,,,,,,,,,,,,,1200,,,,,,,,,,,,,,,,,,,,,8,2,,,574.7582,13,right,0.7142,,1.5,0.3,"[3,2,1]",0.666880232,stimuli/card_100_transparent.png,100,13,0,13,0,1,,,,,,,,,,
,,,,6096d9b30d92183ab4f552a3,B,2024-06-22_19h56.39.524,Slot Machine Game,2023.1.3,Win32,59.17159763,,,,,,,,,,,,,,,,,,,,,,,,,,,1210,,,,,,,,,,,,,,,,,,,,,8,2,,,577.8093,14,right,0.017,,1,0.3,"[3,2,1]",0.124221773,stimuli/card_10_transparent.png,10,14,0,14,0,1,,,,,,,,,,
,,,,6096d9b30d92183ab4f552a3,B,2024-06-22_19h56.39.524,Slot Machine Game,2023.1.3,Win32,59.17159763,,,,,,,,,,,,,,,,,,,,,,,,,,,,,,,,,,,579.6432,,,,,,,,,,,,,,,,,,,,,,,,,,,,,,,,,"[940,1030,1040,830,730,1020,1310,1210]",7,0,7,0,1,,,,
,,,,6096d9b30d92183ab4f552a3,B,2024-06-22_19h56.39.524,Slot Machine Game,2023.1.3,Win32,59.17159763,,,,,,,,,,,,,,,,,,,,,,,,,,,0,,,,,,,,,,,,,,,,,,,,,9,10,"[10,15]","[[3,1,2],[1,3,2]]",584.6605,0,right,0.1006,,1.5,0.3,"[3,1,2]",0.089497085,stimuli/card_0_transparent.png,0,0,0,0,0,1,,,,,,,,,,
,,,,6096d9b30d92183ab4f552a3,B,2024-06-22_19h56.39.524,Slot Machine Game,2023.1.3,Win32,59.17159763,,,,,,,,,,,,,,,,,,,,,,,,,,,100,,,,,,,,,,,,,,,,,,,,,9,10,,,587.0793,1,left,0.0531,,1.5,0.3,"[3,1,2]",0.033945184,stimuli/card_100_transparent.png,100,1,0,1,0,1,,,,,,,,,,
,,,,6096d9b30d92183ab4f552a3,B,2024-06-22_19h56.39.524,Slot Machine Game,2023.1.3,Win32,59.17159763,,,,,,,,,,,,,,,,,,,,,,,,,,,100,,,,,,,,,,,,,,,,,,,,,9,10,,,589.4636,2,left,0.0164,,1,0.3,"[3,1,2]",0.979022431,stimuli/card_0_transparent.png,0,2,0,2,0,1,,,,,,,,,,
,,,,6096d9b30d92183ab4f552a3,B,2024-06-22_19h56.39.524,Slot Machine Game,2023.1.3,Win32,59.17159763,,,,,,,,,,,,,,,,,,,,,,,,,,,100,,,,,,,,,,,,,,,,,,,,,9,10,,,591.2975,3,left,0.2202,,1,0.3,"[3,1,2]",0.348502371,stimuli/card_0_transparent.png,0,3,0,3,0,1,,,,,,,,,,
,,,,6096d9b30d92183ab4f552a3,B,2024-06-22_19h56.39.524,Slot Machine Game,2023.1.3,Win32,59.17159763,,,,,,,,,,,,,,,,,,,,,,,,,,,200,,,,,,,,,,,,,,,,,,,,,9,10,,,593.3351,4,up,0.2087,,0.5,0.3,"[3,1,2]",0.751343315,stimuli/card_100_transparent.png,100,4,0,4,0,1,,,,,,,,,,
,,,,6096d9b30d92183ab4f552a3,B,2024-06-22_19h56.39.524,Slot Machine Game,2023.1.3,Win32,59.17159763,,,,,,,,,,,,,,,,,,,,,,,,,,,300,,,,,,,,,,,,,,,,,,,,,9,10,,,594.8489,5,up,0.3223,,0.5,0.3,"[3,1,2]",0.227076388,stimuli/card_100_transparent.png,100,5,0,5,0,1,,,,,,,,,,
,,,,6096d9b30d92183ab4f552a3,B,2024-06-22_19h56.39.524,Slot Machine Game,2023.1.3,Win32,59.17159763,,,,,,,,,,,,,,,,,,,,,,,,,,,400,,,,,,,,,,,,,,,,,,,,,9,10,,,596.4996,6,up,0.0668,,1,0.3,"[3,1,2]",0.21726829,stimuli/card_100_transparent.png,100,6,0,6,0,1,,,,,,,,,,
,,,,6096d9b30d92183ab4f552a3,B,2024-06-22_19h56.39.524,Slot Machine Game,2023.1.3,Win32,59.17159763,,,,,,,,,,,,,,,,,,,,,,,,,,,500,,,,,,,,,,,,,,,,,,,,,9,10,,,598.3836,7,up,0.246,,0.5,0.3,"[3,1,2]",0.74901875,stimuli/card_100_transparent.png,100,7,0,7,0,1,,,,,,,,,,
,,,,6096d9b30d92183ab4f552a3,B,2024-06-22_19h56.39.524,Slot Machine Game,2023.1.3,Win32,59.17159763,,,,,,,,,,,,,,,,,,,,,,,,,,,600,,,,,,,,,,,,,,,,,,,,,9,10,,,599.934,8,up,0.1504,,1.5,0.3,"[3,1,2]",0.690756158,stimuli/card_100_transparent.png,100,8,0,8,0,1,,,,,,,,,,
,,,,6096d9b30d92183ab4f552a3,B,2024-06-22_19h56.39.524,Slot Machine Game,2023.1.3,Win32,59.17159763,,,,,,,,,,,,,,,,,,,,,,,,,,,700,,,,,,,,,,,,,,,,,,,,,9,10,,,602.3849,9,up,0.3415,,1,0.3,"[3,1,2]",0.539204929,stimuli/card_100_transparent.png,100,9,0,9,0,1,,,,,,,,,,
,,,,6096d9b30d92183ab4f552a3,B,2024-06-22_19h56.39.524,Slot Machine Game,2023.1.3,Win32,59.17159763,,,,,,,,,,,,,,,,,,,,,,,,,,,700,,,,,,,,,,,,,,,,,,,,,9,10,,,604.5358,10,up,0.1697,,1.5,0.3,"[1,3,2]",0.202643643,stimuli/card_0_transparent.png,0,10,0,10,0,1,,,,,,,,,,
,,,,6096d9b30d92183ab4f552a3,B,2024-06-22_19h56.39.524,Slot Machine Game,2023.1.3,Win32,59.17159763,,,,,,,,,,,,,,,,,,,,,,,,,,,700,,,,,,,,,,,,,,,,,,,,,9,10,,,607.02,11,right,1.5414,,1.5,0.3,"[1,3,2]",0.025053858,stimuli/card_0_transparent.png,0,11,0,11,0,1,,,,,,,,,,
,,,,6096d9b30d92183ab4f552a3,B,2024-06-22_19h56.39.524,Slot Machine Game,2023.1.3,Win32,59.17159763,,,,,,,,,,,,,,,,,,,,,,,,,,,800,,,,,,,,,,,,,,,,,,,,,9,10,,,610.8886,12,left,0.3488,,0.5,0.3,"[1,3,2]",0.475802108,stimuli/card_100_transparent.png,100,12,0,12,0,1,,,,,,,,,,
,,,,6096d9b30d92183ab4f552a3,B,2024-06-22_19h56.39.524,Slot Machine Game,2023.1.3,Win32,59.17159763,,,,,,,,,,,,,,,,,,,,,,,,,,,900,,,,,,,,,,,,,,,,,,,,,9,10,,,612.5721,13,left,0.1721,,0.5,0.3,"[1,3,2]",0.475609789,stimuli/card_100_transparent.png,100,13,0,13,0,1,,,,,,,,,,
,,,,6096d9b30d92183ab4f552a3,B,2024-06-22_19h56.39.524,Slot Machine Game,2023.1.3,Win32,59.17159763,,,,,,,,,,,,,,,,,,,,,,,,,,,1000,,,,,,,,,,,,,,,,,,,,,9,10,,,614.0726,14,left,0.0736,,1,0.3,"[1,3,2]",0.336519554,stimuli/card_100_transparent.png,100,14,0,14,0,1,,,,,,,,,,
,,,,6096d9b30d92183ab4f552a3,B,2024-06-22_19h56.39.524,Slot Machine Game,2023.1.3,Win32,59.17159763,,,,,,,,,,,,,,,,,,,,,,,,,,,,,,,,,,,615.9567,,,,,,,,,,,,,,,,,,,,,,,,,,,,,,,,,"[940,1030,1040,830,730,1020,1310,1210,1000]",8,0,8,0,1,,,,
,,,,6096d9b30d92183ab4f552a3,B,2024-06-22_19h56.39.524,Slot Machine Game,2023.1.3,Win32,59.17159763,,,,,,,,,,,,,,,,,,,,,,,,,,,10,,,,,,,,,,,,,,,,,,,,,10,3,"[15,15]","[[3,1,2],[3,1,2]]",620.9683,0,right,0.0996,,1,0.3,"[3,1,2]",0.351614418,stimuli/card_10_transparent.png,10,0,0,0,0,1,,,,,,,,,,
,,,,6096d9b30d92183ab4f552a3,B,2024-06-22_19h56.39.524,Slot Machine Game,2023.1.3,Win32,59.17159763,,,,,,,,,,,,,,,,,,,,,,,,,,,10,,,,,,,,,,,,,,,,,,,,,10,3,,,622.8926,1,left,0.1232,,1.5,0.3,"[3,1,2]",0.691981937,stimuli/card_0_transparent.png,0,1,0,1,0,1,,,,,,,,,,
,,,,6096d9b30d92183ab4f552a3,B,2024-06-22_19h56.39.524,Slot Machine Game,2023.1.3,Win32,59.17159763,,,,,,,,,,,,,,,,,,,,,,,,,,,110,,,,,,,,,,,,,,,,,,,,,10,3,,,625.3331,2,up,0.0004,,1.5,0.3,"[3,1,2]",0.313390886,stimuli/card_100_transparent.png,100,2,0,2,0,1,,,,,,,,,,
,,,,6096d9b30d92183ab4f552a3,B,2024-06-22_19h56.39.524,Slot Machine Game,2023.1.3,Win32,59.17159763,,,,,,,,,,,,,,,,,,,,,,,,,,,110,,,,,,,,,,,,,,,,,,,,,10,3,,,627.6673,3,up,0.2676,,0.5,0.3,"[3,1,2]",0.086343087,stimuli/card_0_transparent.png,0,3,0,3,0,1,,,,,,,,,,
,,,,6096d9b30d92183ab4f552a3,B,2024-06-22_19h56.39.524,Slot Machine Game,2023.1.3,Win32,59.17159763,,,,,,,,,,,,,,,,,,,,,,,,,,,210,,,,,,,,,,,,,,,,,,,,,10,3,,,629.2848,4,up,0.0182,,1.5,0.3,"[3,1,2]",0.374249401,stimuli/card_100_transparent.png,100,4,0,4,0,1,,,,,,,,,,
,,,,6096d9b30d92183ab4f552a3,B,2024-06-22_19h56.39.524,Slot Machine Game,2023.1.3,Win32,59.17159763,,,,,,,,,,,,,,,,,,,,,,,,,,,310,,,,,,,,,,,,,,,,,,,,,10,3,,,631.5958,5,up,0.1338,,0.5,0.3,"[3,1,2]",0.204610761,stimuli/card_100_transparent.png,100,5,0,5,0,1,,,,,,,,,,
,,,,6096d9b30d92183ab4f552a3,B,2024-06-22_19h56.39.524,Slot Machine Game,2023.1.3,Win32,59.17159763,,,,,,,,,,,,,,,,,,,,,,,,,,,410,,,,,,,,,,,,,,,,,,,,,10,3,,,633.0463,6,up,0.258,,1.5,0.3,"[3,1,2]",0.728263795,stimuli/card_100_transparent.png,100,6,0,6,0,1,,,,,,,,,,
,,,,6096d9b30d92183ab4f552a3,B,2024-06-22_19h56.39.524,Slot Machine Game,2023.1.3,Win32,59.17159763,,,,,,,,,,,,,,,,,,,,,,,,,,,510,,,,,,,,,,,,,,,,,,,,,10,3,,,635.614,7,up,0.2744,,1,0.3,"[3,1,2]",0.340525335,stimuli/card_100_transparent.png,100,7,0,7,0,1,,,,,,,,,,
,,,,6096d9b30d92183ab4f552a3,B,2024-06-22_19h56.39.524,Slot Machine Game,2023.1.3,Win32,59.17159763,,,,,,,,,,,,,,,,,,,,,,,,,,,610,,,,,,,,,,,,,,,,,,,,,10,3,,,637.7147,8,up,0.0068,,1,0.3,"[3,1,2]",0.319062997,stimuli/card_100_transparent.png,100,8,0,8,0,1,,,,,,,,,,
,,,,6096d9b30d92183ab4f552a3,B,2024-06-22_19h56.39.524,Slot Machine Game,2023.1.3,Win32,59.17159763,,,,,,,,,,,,,,,,,,,,,,,,,,,710,,,,,,,,,,,,,,,,,,,,,10,3,,,639.5322,9,up,0.2673,,0.5,0.3,"[3,1,2]",0.532955522,stimuli/card_100_transparent.png,100,9,0,9,0,1,,,,,,,,,,
,,,,6096d9b30d92183ab4f552a3,B,2024-06-22_19h56.39.524,Slot Machine Game,2023.1.3,Win32,59.17159763,,,,,,,,,,,,,,,,,,,,,,,,,,,810,,,,,,,,,,,,,,,,,,,,,10,3,,,641.1327,10,up,0.5022,,1,0.3,"[3,1,2]",0.886782648,stimuli/card_100_transparent.png,100,10,0,10,0,1,,,,,,,,,,
,,,,6096d9b30d92183ab4f552a3,B,2024-06-22_19h56.39.524,Slot Machine Game,2023.1.3,Win32,59.17159763,,,,,,,,,,,,,,,,,,,,,,,,,,,910,,,,,,,,,,,,,,,,,,,,,10,3,,,643.4567,11,up,0.067,,0.5,0.3,"[3,1,2]",0.322268555,stimuli/card_100_transparent.png,100,11,0,11,0,1,,,,,,,,,,
,,,,6096d9b30d92183ab4f552a3,B,2024-06-22_19h56.39.524,Slot Machine Game,2023.1.3,Win32,59.17159763,,,,,,,,,,,,,,,,,,,,,,,,,,,1010,,,,,,,,,,,,,,,,,,,,,10,3,,,644.8341,12,up,0.267,,1.5,0.3,"[3,1,2]",0.571067237,stimuli/card_100_transparent.png,100,12,0,12,0,1,,,,,,,,,,
,,,,6096d9b30d92183ab4f552a3,B,2024-06-22_19h56.39.524,Slot Machine Game,2023.1.3,Win32,59.17159763,,,,,,,,,,,,,,,,,,,,,,,,,,,1110,,,,,,,,,,,,,,,,,,,,,10,3,,,647.4018,13,up,0.2004,,1,0.3,"[3,1,2]",0.8999028,stimuli/card_100_transparent.png,100,13,0,13,0,1,,,,,,,,,,
,,,,6096d9b30d92183ab4f552a3,B,2024-06-22_19h56.39.524,Slot Machine Game,2023.1.3,Win32,59.17159763,,,,,,,,,,,,,,,,,,,,,,,,,,,1210,,,,,,,,,,,,,,,,,,,,,10,3,,,649.4193,14,up,0.0003,,1.5,0.3,"[3,1,2]",0.58334656,stimuli/card_100_transparent.png,100,14,0,14,0,1,,,,,,,,,,
,,,,6096d9b30d92183ab4f552a3,B,2024-06-22_19h56.39.524,Slot Machine Game,2023.1.3,Win32,59.17159763,,,,,,,,,,,,,,,,,,,,,,,,,,,,,,,,,,,651.7533,,,,,,,,,,,,,,,,,,,,,,,,,,,,,,,,,"[940,1030,1040,830,730,1020,1310,1210,1000,1210]",9,0,9,0,1,,,,
,,,,6096d9b30d92183ab4f552a3,B,2024-06-22_19h56.39.524,Slot Machine Game,2023.1.3,Win32,59.17159763,,,,,,,,,,,,,,,,,,,,,,,,,,,,,,,,,,,,,,,,,,,,,,,,,,,,,,,,,,,,,,,,,,,,,,,,,,9,"[940,1030,1040,830,730,1020,1310,1210,1000,1210]",12.1,2024-06-22_20h07.40.425
