key_resp_welcome_started,key_resp_welcome_keys,key_resp_welcome_rt,key_resp_welcome_duration,prolific_id,path_id,date,expName,psychopyVersion,OS,frameRate,key_resp_instruction1_started,key_resp_instruction1_keys,key_resp_instruction1_rt,key_resp_instruction1_duration,key_resp_instruction2_started,key_resp_instruction2_keys,key_resp_instruction2_rt,key_resp_instruction2_duration,key_resp_instruction3_started,key_resp_instruction3_keys,key_resp_instruction3_rt,key_resp_instruction3_duration,key_resp_instruction4_started,key_resp_instruction4_keys,key_resp_instruction4_rt,key_resp_instruction4_duration,practiceCondition,practice_reward_seqs,practice_trial_started,practice_trial_num,practice_resp_rt,practice_resp_duration,practice_resp_keys,prac_presentationInterval,"practice_reward_seq: 2,1,3",reward_img,cumulative_reward,trial_reward,practice_trials.thisRepN,practice_trials.thisTrialN,practice_trials.thisN,practice_trials.thisIndex,practice_trials.ran,"practice_reward_seq: 2,3,1",block_break_started,"practice_reward_seq: 1,3,2","practice_reward_seq: 3,1,2",practice_end_time,practice_end_keys,practice_end_rt,practice_end_duration,main_instruction_text_started,block_condition,block_order_indices,main_instruction_keys,main_instruction_rt,main_instruction_duration,block_number,block_assignment,current_condition,main_reward_seqs,main_trial_started,main_trial_num,main_trial_keys,main_trial_rt,main_trial_duration,main_presentationInterval,reward_presentation_time,main_reward_seq,reward_rand_val,main_reward_img,current_reward,main_trials.thisRepN,main_trials.thisTrialN,main_trials.thisN,main_trials.thisIndex,main_trials.ran,block_reward,block.thisRepN,block.thisTrialN,block.thisN,block.thisIndex,block.ran,block_reward.length,block_reward_all,reward_amount,date_end_task
0.0003,space,1.6568,,60b64f8fcb8c7f069a44a0e9,A,2024-07-05_10h06.11.749,Slot Machine Game,2023.1.3,Win32,142.8571429,,,,,,,,,,,,,,,,,,,,,,,,,,,,,,,,,,,,,,,,,,,,,,,,,,,,,,,,,,,,,,,,,,,,,,,,,,,,,
,,,,60b64f8fcb8c7f069a44a0e9,A,2024-07-05_10h06.11.749,Slot Machine Game,2023.1.3,Win32,142.8571429,1.6656,space,6.3254,,,,,,,,,,,,,,,,,,,,,,,,,,,,,,,,,,,,,,,,,,,,,,,,,,,,,,,,,,,,,,,,,,,,,,,,,,
,,,,60b64f8fcb8c7f069a44a0e9,A,2024-07-05_10h06.11.749,Slot Machine Game,2023.1.3,Win32,142.8571429,,,,,8.0051,space,24.0801,,,,,,,,,,,,,,,,,,,,,,,,,,,,,,,,,,,,,,,,,,,,,,,,,,,,,,,,,,,,,,,,,,,,,,
,,,,60b64f8fcb8c7f069a44a0e9,A,2024-07-05_10h06.11.749,Slot Machine Game,2023.1.3,Win32,142.8571429,,,,,,,,,32.1028,space,9.2621,,,,,,,,,,,,,,,,,,,,,,,,,,,,,,,,,,,,,,,,,,,,,,,,,,,,,,,,,,,,,,,,,,
,,,,60b64f8fcb8c7f069a44a0e9,A,2024-07-05_10h06.11.749,Slot Machine Game,2023.1.3,Win32,142.8571429,,,,,,,,,,,,,,,,,,,,,,,,,,,,,,,,,,,,,,,,,,,,,,,,,,,,,,,,,,,,,,,,,,,,,,,,,,,,,
,,,,60b64f8fcb8c7f069a44a0e9,A,2024-07-05_10h06.11.749,Slot Machine Game,2023.1.3,Win32,142.8571429,,,,,,,,,,,,,183.0137,left,1.8477,,,,,,,,,,,,,,,,,,,,,,,,,,,,,,,,,,,,,,,,,,,,,,,,,,,,,,,,,,,,,,
,,,,60b64f8fcb8c7f069a44a0e9,A,2024-07-05_10h06.11.749,Slot Machine Game,2023.1.3,Win32,142.8571429,,,,,,,,,,,,,,,,,"[9,15]","[[2,1,3],[2,3,1]]",184.8703,0,1.5349,,left,1.5,,stimuli/card_10_transparent.png,10,10,0,0,0,0,1,,,,,,,,,,,,,,,,,,,,,,,,,,,,,,,,,,,,,,,,,,,,
,,,,60b64f8fcb8c7f069a44a0e9,A,2024-07-05_10h06.11.749,Slot Machine Game,2023.1.3,Win32,142.8571429,,,,,,,,,,,,,,,,,,,188.7178,1,0.8822,,up,1,,stimuli/card_10_transparent.png,20,10,1,0,1,0,1,,,,,,,,,,,,,,,,,,,,,,,,,,,,,,,,,,,,,,,,,,,,
,,,,60b64f8fcb8c7f069a44a0e9,A,2024-07-05_10h06.11.749,Slot Machine Game,2023.1.3,Win32,142.8571429,,,,,,,,,,,,,,,,,,,191.4032,2,0.6106,,right,0.5,,stimuli/card_0_transparent.png,20,0,2,0,2,0,1,,,,,,,,,,,,,,,,,,,,,,,,,,,,,,,,,,,,,,,,,,,,
,,,,60b64f8fcb8c7f069a44a0e9,A,2024-07-05_10h06.11.749,Slot Machine Game,2023.1.3,Win32,142.8571429,,,,,,,,,,,,,,,,,,,193.3268,3,0.6459,,left,1.5,,stimuli/card_10_transparent.png,30,10,3,0,3,0,1,,,,,,,,,,,,,,,,,,,,,,,,,,,,,,,,,,,,,,,,,,,,
,,,,60b64f8fcb8c7f069a44a0e9,A,2024-07-05_10h06.11.749,Slot Machine Game,2023.1.3,Win32,142.8571429,,,,,,,,,,,,,,,,,,,196.2852,4,0.0979,,up,1.5,,stimuli/card_10_transparent.png,40,10,4,0,4,0,1,,,,,,,,,,,,,,,,,,,,,,,,,,,,,,,,,,,,,,,,,,,,
,,,,60b64f8fcb8c7f069a44a0e9,A,2024-07-05_10h06.11.749,Slot Machine Game,2023.1.3,Win32,142.8571429,,,,,,,,,,,,,,,,,,,198.6949,5,0.3004,,up,1,,stimuli/card_100_transparent.png,140,100,5,0,5,0,1,,,,,,,,,,,,,,,,,,,,,,,,,,,,,,,,,,,,,,,,,,,,
,,,,60b64f8fcb8c7f069a44a0e9,A,2024-07-05_10h06.11.749,Slot Machine Game,2023.1.3,Win32,142.8571429,,,,,,,,,,,,,,,,,,,200.806,6,0.5992,,up,1.5,,stimuli/card_100_transparent.png,240,100,6,0,6,0,1,,,,,,,,,,,,,,,,,,,,,,,,,,,,,,,,,,,,,,,,,,,,
,,,,60b64f8fcb8c7f069a44a0e9,A,2024-07-05_10h06.11.749,Slot Machine Game,2023.1.3,Win32,142.8571429,,,,,,,,,,,,,,,,,,,203.7158,7,0.8572,,up,1.5,,stimuli/card_100_transparent.png,340,100,7,0,7,0,1,,,,,,,,,,,,,,,,,,,,,,,,,,,,,,,,,,,,,,,,,,,,
,,,,60b64f8fcb8c7f069a44a0e9,A,2024-07-05_10h06.11.749,Slot Machine Game,2023.1.3,Win32,142.8571429,,,,,,,,,,,,,,,,,,,206.8825,8,0.1071,,up,1.5,,stimuli/card_100_transparent.png,440,100,8,0,8,0,1,,,,,,,,,,,,,,,,,,,,,,,,,,,,,,,,,,,,,,,,,,,,
,,,,60b64f8fcb8c7f069a44a0e9,A,2024-07-05_10h06.11.749,Slot Machine Game,2023.1.3,Win32,142.8571429,,,,,,,,,,,,,,,,,,,209.2992,9,0.0578,,up,1,,stimuli/card_0_transparent.png,440,0,9,0,9,0,1,,,,,,,,,,,,,,,,,,,,,,,,,,,,,,,,,,,,,,,,,,,,
,,,,60b64f8fcb8c7f069a44a0e9,A,2024-07-05_10h06.11.749,Slot Machine Game,2023.1.3,Win32,142.8571429,,,,,,,,,,,,,,,,,,,211.1674,10,0.4534,,up,0.5,,stimuli/card_10_transparent.png,450,10,10,0,10,0,1,,,,,,,,,,,,,,,,,,,,,,,,,,,,,,,,,,,,,,,,,,,,
,,,,60b64f8fcb8c7f069a44a0e9,A,2024-07-05_10h06.11.749,Slot Machine Game,2023.1.3,Win32,142.8571429,,,,,,,,,,,,,,,,,,,212.9313,11,0.7865,,up,1.5,,stimuli/card_0_transparent.png,450,0,11,0,11,0,1,,,,,,,,,,,,,,,,,,,,,,,,,,,,,,,,,,,,,,,,,,,,
,,,,60b64f8fcb8c7f069a44a0e9,A,2024-07-05_10h06.11.749,Slot Machine Game,2023.1.3,Win32,142.8571429,,,,,,,,,,,,,,,,,,,216.0285,12,0.3922,,left,1.5,,stimuli/card_10_transparent.png,460,10,12,0,12,0,1,,,,,,,,,,,,,,,,,,,,,,,,,,,,,,,,,,,,,,,,,,,,
,,,,60b64f8fcb8c7f069a44a0e9,A,2024-07-05_10h06.11.749,Slot Machine Game,2023.1.3,Win32,142.8571429,,,,,,,,,,,,,,,,,,,218.7299,13,0.0429,,left,1.5,,stimuli/card_10_transparent.png,470,10,13,0,13,0,1,,,,,,,,,,,,,,,,,,,,,,,,,,,,,,,,,,,,,,,,,,,,
,,,,60b64f8fcb8c7f069a44a0e9,A,2024-07-05_10h06.11.749,Slot Machine Game,2023.1.3,Win32,142.8571429,,,,,,,,,,,,,,,,,,,221.0841,14,0.3549,,right,1.5,,stimuli/card_100_transparent.png,570,100,14,0,14,0,1,,,,,,,,,,,,,,,,,,,,,,,,,,,,,,,,,,,,,,,,,,,,
,,,,60b64f8fcb8c7f069a44a0e9,A,2024-07-05_10h06.11.749,Slot Machine Game,2023.1.3,Win32,142.8571429,,,,,,,,,,,,,,,,,"[6,15]","[[1,3,2],[3,1,2]]",228.757,0,0.6577,,left,1,,stimuli/card_100_transparent.png,100,100,0,0,0,0,1,,223.7568,,,,,,,,,,,,,,,,,,,,,,,,,,,,,,,,,,,,,,,,,,
,,,,60b64f8fcb8c7f069a44a0e9,A,2024-07-05_10h06.11.749,Slot Machine Game,2023.1.3,Win32,142.8571429,,,,,,,,,,,,,,,,,,,231.2162,1,0.0209,,left,1,,stimuli/card_100_transparent.png,200,100,1,0,1,0,1,,,,,,,,,,,,,,,,,,,,,,,,,,,,,,,,,,,,,,,,,,,,
,,,,60b64f8fcb8c7f069a44a0e9,A,2024-07-05_10h06.11.749,Slot Machine Game,2023.1.3,Win32,142.8571429,,,,,,,,,,,,,,,,,,,233.0426,2,0.0101,,left,1.5,,stimuli/card_100_transparent.png,300,100,2,0,2,0,1,,,,,,,,,,,,,,,,,,,,,,,,,,,,,,,,,,,,,,,,,,,,
,,,,60b64f8fcb8c7f069a44a0e9,A,2024-07-05_10h06.11.749,Slot Machine Game,2023.1.3,Win32,142.8571429,,,,,,,,,,,,,,,,,,,235.362,3,0.3824,,left,1.5,,stimuli/card_100_transparent.png,400,100,3,0,3,0,1,,,,,,,,,,,,,,,,,,,,,,,,,,,,,,,,,,,,,,,,,,,,
,,,,60b64f8fcb8c7f069a44a0e9,A,2024-07-05_10h06.11.749,Slot Machine Game,2023.1.3,Win32,142.8571429,,,,,,,,,,,,,,,,,,,238.0495,4,0.0022,,left,1.5,,stimuli/card_100_transparent.png,500,100,4,0,4,0,1,,,,,,,,,,,,,,,,,,,,,,,,,,,,,,,,,,,,,,,,,,,,
,,,,60b64f8fcb8c7f069a44a0e9,A,2024-07-05_10h06.11.749,Slot Machine Game,2023.1.3,Win32,142.8571429,,,,,,,,,,,,,,,,,,,240.3552,5,0.0175,,left,0.5,,stimuli/card_100_transparent.png,600,100,5,0,5,0,1,,,,,,,,,,,,,,,,,,,,,,,,,,,,,,,,,,,,,,,,,,,,
,,,,60b64f8fcb8c7f069a44a0e9,A,2024-07-05_10h06.11.749,Slot Machine Game,2023.1.3,Win32,142.8571429,,,,,,,,,,,,,,,,,,,241.6815,6,0.4175,,left,0.5,,stimuli/card_10_transparent.png,610,10,6,0,6,0,1,,,,,,,,,,,,,,,,,,,,,,,,,,,,,,,,,,,,,,,,,,,,
,,,,60b64f8fcb8c7f069a44a0e9,A,2024-07-05_10h06.11.749,Slot Machine Game,2023.1.3,Win32,142.8571429,,,,,,,,,,,,,,,,,,,243.404,7,0.3765,,up,1.5,,stimuli/card_100_transparent.png,710,100,7,0,7,0,1,,,,,,,,,,,,,,,,,,,,,,,,,,,,,,,,,,,,,,,,,,,,
,,,,60b64f8fcb8c7f069a44a0e9,A,2024-07-05_10h06.11.749,Slot Machine Game,2023.1.3,Win32,142.8571429,,,,,,,,,,,,,,,,,,,246.0914,8,0.6817,,up,1.5,,stimuli/card_10_transparent.png,720,10,8,0,8,0,1,,,,,,,,,,,,,,,,,,,,,,,,,,,,,,,,,,,,,,,,,,,,
,,,,60b64f8fcb8c7f069a44a0e9,A,2024-07-05_10h06.11.749,Slot Machine Game,2023.1.3,Win32,142.8571429,,,,,,,,,,,,,,,,,,,249.0845,9,0.3206,,up,0.5,,stimuli/card_100_transparent.png,820,100,9,0,9,0,1,,,,,,,,,,,,,,,,,,,,,,,,,,,,,,,,,,,,,,,,,,,,
,,,,60b64f8fcb8c7f069a44a0e9,A,2024-07-05_10h06.11.749,Slot Machine Game,2023.1.3,Win32,142.8571429,,,,,,,,,,,,,,,,,,,250.7165,10,0.4328,,up,1.5,,stimuli/card_0_transparent.png,820,0,10,0,10,0,1,,,,,,,,,,,,,,,,,,,,,,,,,,,,,,,,,,,,,,,,,,,,
,,,,60b64f8fcb8c7f069a44a0e9,A,2024-07-05_10h06.11.749,Slot Machine Game,2023.1.3,Win32,142.8571429,,,,,,,,,,,,,,,,,,,253.4596,11,0.0351,,up,1.5,,stimuli/card_100_transparent.png,920,100,11,0,11,0,1,,,,,,,,,,,,,,,,,,,,,,,,,,,,,,,,,,,,,,,,,,,,
,,,,60b64f8fcb8c7f069a44a0e9,A,2024-07-05_10h06.11.749,Slot Machine Game,2023.1.3,Win32,142.8571429,,,,,,,,,,,,,,,,,,,255.8068,12,0.6396,,up,1.5,,stimuli/card_100_transparent.png,1020,100,12,0,12,0,1,,,,,,,,,,,,,,,,,,,,,,,,,,,,,,,,,,,,,,,,,,,,
,,,,60b64f8fcb8c7f069a44a0e9,A,2024-07-05_10h06.11.749,Slot Machine Game,2023.1.3,Win32,142.8571429,,,,,,,,,,,,,,,,,,,258.7582,13,0.3343,,up,0.5,,stimuli/card_10_transparent.png,1030,10,13,0,13,0,1,,,,,,,,,,,,,,,,,,,,,,,,,,,,,,,,,,,,,,,,,,,,
,,,,60b64f8fcb8c7f069a44a0e9,A,2024-07-05_10h06.11.749,Slot Machine Game,2023.1.3,Win32,142.8571429,,,,,,,,,,,,,,,,,,,260.3971,14,0.407,,up,1.5,,stimuli/card_100_transparent.png,1130,100,14,0,14,0,1,,,,,,,,,,,,,,,,,,,,,,,,,,,,,,,,,,,,,,,,,,,,
,,,,60b64f8fcb8c7f069a44a0e9,A,2024-07-05_10h06.11.749,Slot Machine Game,2023.1.3,Win32,142.8571429,,,,,,,,,,,,,,,,,,,,,,,,,,,,,,,,,,,263.1056,,,268.106,space,2.9798,,,,,,,,,,,,,,,,,,,,,,,,,,,,,,,,,,,,,
,,,,60b64f8fcb8c7f069a44a0e9,A,2024-07-05_10h06.11.749,Slot Machine Game,2023.1.3,Win32,142.8571429,,,,,,,,,,,,,,,,,,,,,,,,,,,,,,,,,,,,,,,,,,271.0923,2,"[2,4,8,0,1,3,9,6,8,5]",space,2.5348,,,,,,,,,,,,,,,,,,,,,,,,,,,,,,,
,,,,60b64f8fcb8c7f069a44a0e9,A,2024-07-05_10h06.11.749,Slot Machine Game,2023.1.3,Win32,142.8571429,,,,,,,,,,,,,,,,,,,,,,,,,,,100,,,,,,,,,,,,,,,,,,,,,1,3,"[15,15]","[[3,1,2],[3,1,2]]",273.6477,0,left,0.1738,,0.5,0.3,"[3,1,2]",0.097404762,stimuli/card_100_transparent.png,100,0,0,0,0,1,,,,,,,,,,
,,,,60b64f8fcb8c7f069a44a0e9,A,2024-07-05_10h06.11.749,Slot Machine Game,2023.1.3,Win32,142.8571429,,,,,,,,,,,,,,,,,,,,,,,,,,,100,,,,,,,,,,,,,,,,,,,,,1,3,,,275.1338,1,left,0.1275,,1,0.3,"[3,1,2]",0.89672314,stimuli/card_0_transparent.png,0,1,0,1,0,1,,,,,,,,,,
,,,,60b64f8fcb8c7f069a44a0e9,A,2024-07-05_10h06.11.749,Slot Machine Game,2023.1.3,Win32,142.8571429,,,,,,,,,,,,,,,,,,,,,,,,,,,100,,,,,,,,,,,,,,,,,,,,,1,3,,,277.071,2,left,0.0548,,0.5,0.3,"[3,1,2]",0.684648636,stimuli/card_0_transparent.png,0,2,0,2,0,1,,,,,,,,,,
,,,,60b64f8fcb8c7f069a44a0e9,A,2024-07-05_10h06.11.749,Slot Machine Game,2023.1.3,Win32,142.8571429,,,,,,,,,,,,,,,,,,,,,,,,,,,200,,,,,,,,,,,,,,,,,,,,,1,3,,,278.4407,3,up,0.2859,,1.5,0.3,"[3,1,2]",0.513147665,stimuli/card_100_transparent.png,100,3,0,3,0,1,,,,,,,,,,
,,,,60b64f8fcb8c7f069a44a0e9,A,2024-07-05_10h06.11.749,Slot Machine Game,2023.1.3,Win32,142.8571429,,,,,,,,,,,,,,,,,,,,,,,,,,,300,,,,,,,,,,,,,,,,,,,,,1,3,,,281.0364,4,up,0.5148,,1,0.3,"[3,1,2]",0.306697875,stimuli/card_100_transparent.png,100,4,0,4,0,1,,,,,,,,,,
,,,,60b64f8fcb8c7f069a44a0e9,A,2024-07-05_10h06.11.749,Slot Machine Game,2023.1.3,Win32,142.8571429,,,,,,,,,,,,,,,,,,,,,,,,,,,400,,,,,,,,,,,,,,,,,,,,,1,3,,,283.3627,5,up,0.4743,,1.5,0.3,"[3,1,2]",0.207614966,stimuli/card_100_transparent.png,100,5,0,5,0,1,,,,,,,,,,
,,,,60b64f8fcb8c7f069a44a0e9,A,2024-07-05_10h06.11.749,Slot Machine Game,2023.1.3,Win32,142.8571429,,,,,,,,,,,,,,,,,,,,,,,,,,,500,,,,,,,,,,,,,,,,,,,,,1,3,,,286.1476,6,up,0.1685,,1,0.3,"[3,1,2]",0.917684996,stimuli/card_100_transparent.png,100,6,0,6,0,1,,,,,,,,,,
,,,,60b64f8fcb8c7f069a44a0e9,A,2024-07-05_10h06.11.749,Slot Machine Game,2023.1.3,Win32,142.8571429,,,,,,,,,,,,,,,,,,,,,,,,,,,510,,,,,,,,,,,,,,,,,,,,,1,3,,,288.1198,7,up,0.0144,,1.5,0.3,"[3,1,2]",0.178819087,stimuli/card_10_transparent.png,10,7,0,7,0,1,,,,,,,,,,
,,,,60b64f8fcb8c7f069a44a0e9,A,2024-07-05_10h06.11.749,Slot Machine Game,2023.1.3,Win32,142.8571429,,,,,,,,,,,,,,,,,,,,,,,,,,,610,,,,,,,,,,,,,,,,,,,,,1,3,,,290.4463,8,up,0.4471,,1.5,0.3,"[3,1,2]",0.681350736,stimuli/card_100_transparent.png,100,8,0,8,0,1,,,,,,,,,,
,,,,60b64f8fcb8c7f069a44a0e9,A,2024-07-05_10h06.11.749,Slot Machine Game,2023.1.3,Win32,142.8571429,,,,,,,,,,,,,,,,,,,,,,,,,,,710,,,,,,,,,,,,,,,,,,,,,1,3,,,293.2031,9,up,0.1772,,1,0.3,"[3,1,2]",0.761006227,stimuli/card_100_transparent.png,100,9,0,9,0,1,,,,,,,,,,
,,,,60b64f8fcb8c7f069a44a0e9,A,2024-07-05_10h06.11.749,Slot Machine Game,2023.1.3,Win32,142.8571429,,,,,,,,,,,,,,,,,,,,,,,,,,,720,,,,,,,,,,,,,,,,,,,,,1,3,,,295.1824,10,up,0.4142,,0.5,0.3,"[3,1,2]",0.163439008,stimuli/card_10_transparent.png,10,10,0,10,0,1,,,,,,,,,,
,,,,60b64f8fcb8c7f069a44a0e9,A,2024-07-05_10h06.11.749,Slot Machine Game,2023.1.3,Win32,142.8571429,,,,,,,,,,,,,,,,,,,,,,,,,,,820,,,,,,,,,,,,,,,,,,,,,1,3,,,296.9047,11,up,0.0878,,1.5,0.3,"[3,1,2]",0.545918385,stimuli/card_100_transparent.png,100,11,0,11,0,1,,,,,,,,,,
,,,,60b64f8fcb8c7f069a44a0e9,A,2024-07-05_10h06.11.749,Slot Machine Game,2023.1.3,Win32,142.8571429,,,,,,,,,,,,,,,,,,,,,,,,,,,920,,,,,,,,,,,,,,,,,,,,,1,3,,,299.3075,12,up,0.4186,,1,0.3,"[3,1,2]",0.318172487,stimuli/card_100_transparent.png,100,12,0,12,0,1,,,,,,,,,,
,,,,60b64f8fcb8c7f069a44a0e9,A,2024-07-05_10h06.11.749,Slot Machine Game,2023.1.3,Win32,142.8571429,,,,,,,,,,,,,,,,,,,,,,,,,,,920,,,,,,,,,,,,,,,,,,,,,1,3,,,301.5366,13,up,0.1154,,1,0.3,"[3,1,2]",0.060443301,stimuli/card_0_transparent.png,0,13,0,13,0,1,,,,,,,,,,
,,,,60b64f8fcb8c7f069a44a0e9,A,2024-07-05_10h06.11.749,Slot Machine Game,2023.1.3,Win32,142.8571429,,,,,,,,,,,,,,,,,,,,,,,,,,,1020,,,,,,,,,,,,,,,,,,,,,1,3,,,303.4533,14,up,0.3201,,1.5,0.3,"[3,1,2]",0.200928559,stimuli/card_100_transparent.png,100,14,0,14,0,1,,,,,,,,,,
,,,,60b64f8fcb8c7f069a44a0e9,A,2024-07-05_10h06.11.749,Slot Machine Game,2023.1.3,Win32,142.8571429,,,,,,,,,,,,,,,,,,,,,,,,,,,,,,,,,,,306.0854,,,,,,,,,,,,,,,,,,,,,,,,,,,,,,,,,[1020],0,0,0,0,1,,,,
,,,,60b64f8fcb8c7f069a44a0e9,A,2024-07-05_10h06.11.749,Slot Machine Game,2023.1.3,Win32,142.8571429,,,,,,,,,,,,,,,,,,,,,,,,,,,100,,,,,,,,,,,,,,,,,,,,,2,5,"[5,15]","[[1,2,3],[3,1,2]]",311.0919,0,left,0.5437,,1,0.3,"[1,2,3]",0.926344554,stimuli/card_100_transparent.png,100,0,0,0,0,1,,,,,,,,,,
,,,,60b64f8fcb8c7f069a44a0e9,A,2024-07-05_10h06.11.749,Slot Machine Game,2023.1.3,Win32,142.8571429,,,,,,,,,,,,,,,,,,,,,,,,,,,200,,,,,,,,,,,,,,,,,,,,,2,5,,,313.4396,1,left,0.063,,0.5,0.3,"[1,2,3]",0.633119283,stimuli/card_100_transparent.png,100,1,0,1,0,1,,,,,,,,,,
,,,,60b64f8fcb8c7f069a44a0e9,A,2024-07-05_10h06.11.749,Slot Machine Game,2023.1.3,Win32,142.8571429,,,,,,,,,,,,,,,,,,,,,,,,,,,300,,,,,,,,,,,,,,,,,,,,,2,5,,,314.8146,2,left,0.0213,,1.5,0.3,"[1,2,3]",0.32753396,stimuli/card_100_transparent.png,100,2,0,2,0,1,,,,,,,,,,
,,,,60b64f8fcb8c7f069a44a0e9,A,2024-07-05_10h06.11.749,Slot Machine Game,2023.1.3,Win32,142.8571429,,,,,,,,,,,,,,,,,,,,,,,,,,,400,,,,,,,,,,,,,,,,,,,,,2,5,,,317.141,3,left,0.4402,,1.5,0.3,"[1,2,3]",0.522559217,stimuli/card_100_transparent.png,100,3,0,3,0,1,,,,,,,,,,
,,,,60b64f8fcb8c7f069a44a0e9,A,2024-07-05_10h06.11.749,Slot Machine Game,2023.1.3,Win32,142.8571429,,,,,,,,,,,,,,,,,,,,,,,,,,,500,,,,,,,,,,,,,,,,,,,,,2,5,,,319.8911,4,left,0.0904,,1.5,0.3,"[1,2,3]",0.591665226,stimuli/card_100_transparent.png,100,4,0,4,0,1,,,,,,,,,,
,,,,60b64f8fcb8c7f069a44a0e9,A,2024-07-05_10h06.11.749,Slot Machine Game,2023.1.3,Win32,142.8571429,,,,,,,,,,,,,,,,,,,,,,,,,,,500,,,,,,,,,,,,,,,,,,,,,2,5,,,322.2939,5,left,0.0784,,1,0.3,"[3,1,2]",0.928600554,stimuli/card_0_transparent.png,0,5,0,5,0,1,,,,,,,,,,
,,,,60b64f8fcb8c7f069a44a0e9,A,2024-07-05_10h06.11.749,Slot Machine Game,2023.1.3,Win32,142.8571429,,,,,,,,,,,,,,,,,,,,,,,,,,,500,,,,,,,,,,,,,,,,,,,,,2,5,,,324.1758,6,left,0.0706,,0.5,0.3,"[3,1,2]",0.776682621,stimuli/card_0_transparent.png,0,6,0,6,0,1,,,,,,,,,,
,,,,60b64f8fcb8c7f069a44a0e9,A,2024-07-05_10h06.11.749,Slot Machine Game,2023.1.3,Win32,142.8571429,,,,,,,,,,,,,,,,,,,,,,,,,,,600,,,,,,,,,,,,,,,,,,,,,2,5,,,325.5509,7,up,0.3738,,1,0.3,"[3,1,2]",0.815903492,stimuli/card_100_transparent.png,100,7,0,7,0,1,,,,,,,,,,
,,,,60b64f8fcb8c7f069a44a0e9,A,2024-07-05_10h06.11.749,Slot Machine Game,2023.1.3,Win32,142.8571429,,,,,,,,,,,,,,,,,,,,,,,,,,,700,,,,,,,,,,,,,,,,,,,,,2,5,,,327.7384,8,up,0.2097,,1,0.3,"[3,1,2]",0.232066568,stimuli/card_100_transparent.png,100,8,0,8,0,1,,,,,,,,,,
,,,,60b64f8fcb8c7f069a44a0e9,A,2024-07-05_10h06.11.749,Slot Machine Game,2023.1.3,Win32,142.8571429,,,,,,,,,,,,,,,,,,,,,,,,,,,700,,,,,,,,,,,,,,,,,,,,,2,5,,,329.7594,9,up,0.3272,,1.5,0.3,"[3,1,2]",0.069923747,stimuli/card_0_transparent.png,0,9,0,9,0,1,,,,,,,,,,
,,,,60b64f8fcb8c7f069a44a0e9,A,2024-07-05_10h06.11.749,Slot Machine Game,2023.1.3,Win32,142.8571429,,,,,,,,,,,,,,,,,,,,,,,,,,,700,,,,,,,,,,,,,,,,,,,,,2,5,,,332.3982,10,up,0.0075,,1,0.3,"[3,1,2]",0.050880259,stimuli/card_0_transparent.png,0,10,0,10,0,1,,,,,,,,,,
,,,,60b64f8fcb8c7f069a44a0e9,A,2024-07-05_10h06.11.749,Slot Machine Game,2023.1.3,Win32,142.8571429,,,,,,,,,,,,,,,,,,,,,,,,,,,800,,,,,,,,,,,,,,,,,,,,,2,5,,,334.2106,11,up,0.3694,,0.5,0.3,"[3,1,2]",0.757242671,stimuli/card_100_transparent.png,100,11,0,11,0,1,,,,,,,,,,
,,,,60b64f8fcb8c7f069a44a0e9,A,2024-07-05_10h06.11.749,Slot Machine Game,2023.1.3,Win32,142.8571429,,,,,,,,,,,,,,,,,,,,,,,,,,,900,,,,,,,,,,,,,,,,,,,,,2,5,,,335.8844,12,up,0.1365,,1.5,0.3,"[3,1,2]",0.258726743,stimuli/card_100_transparent.png,100,12,0,12,0,1,,,,,,,,,,
,,,,60b64f8fcb8c7f069a44a0e9,A,2024-07-05_10h06.11.749,Slot Machine Game,2023.1.3,Win32,142.8571429,,,,,,,,,,,,,,,,,,,,,,,,,,,1000,,,,,,,,,,,,,,,,,,,,,2,5,,,338.3289,13,up,0.3338,,1.5,0.3,"[3,1,2]",0.718689963,stimuli/card_100_transparent.png,100,13,0,13,0,1,,,,,,,,,,
,,,,60b64f8fcb8c7f069a44a0e9,A,2024-07-05_10h06.11.749,Slot Machine Game,2023.1.3,Win32,142.8571429,,,,,,,,,,,,,,,,,,,,,,,,,,,1100,,,,,,,,,,,,,,,,,,,,,2,5,,,340.9748,14,up,0.2541,,1,0.3,"[3,1,2]",0.382129995,stimuli/card_100_transparent.png,100,14,0,14,0,1,,,,,,,,,,
,,,,60b64f8fcb8c7f069a44a0e9,A,2024-07-05_10h06.11.749,Slot Machine Game,2023.1.3,Win32,142.8571429,,,,,,,,,,,,,,,,,,,,,,,,,,,,,,,,,,,343.0373,,,,,,,,,,,,,,,,,,,,,,,,,,,,,,,,,"[1020,1100]",1,0,1,0,1,,,,
,,,,60b64f8fcb8c7f069a44a0e9,A,2024-07-05_10h06.11.749,Slot Machine Game,2023.1.3,Win32,142.8571429,,,,,,,,,,,,,,,,,,,,,,,,,,,0,,,,,,,,,,,,,,,,,,,,,3,9,"[8,15]","[[3,2,1],[3,1,2]]",348.0439,0,left,0.0796,,1,0.3,"[3,2,1]",0.353109641,stimuli/card_0_transparent.png,0,0,0,0,0,1,,,,,,,,,,
,,,,60b64f8fcb8c7f069a44a0e9,A,2024-07-05_10h06.11.749,Slot Machine Game,2023.1.3,Win32,142.8571429,,,,,,,,,,,,,,,,,,,,,,,,,,,10,,,,,,,,,,,,,,,,,,,,,3,9,,,349.9262,1,up,0.1182,,1,0.3,"[3,2,1]",0.862541177,stimuli/card_10_transparent.png,10,1,0,1,0,1,,,,,,,,,,
,,,,60b64f8fcb8c7f069a44a0e9,A,2024-07-05_10h06.11.749,Slot Machine Game,2023.1.3,Win32,142.8571429,,,,,,,,,,,,,,,,,,,,,,,,,,,110,,,,,,,,,,,,,,,,,,,,,3,9,,,351.8499,2,right,0.2766,,1.5,0.3,"[3,2,1]",0.432954843,stimuli/card_100_transparent.png,100,2,0,2,0,1,,,,,,,,,,
,,,,60b64f8fcb8c7f069a44a0e9,A,2024-07-05_10h06.11.749,Slot Machine Game,2023.1.3,Win32,142.8571429,,,,,,,,,,,,,,,,,,,,,,,,,,,210,,,,,,,,,,,,,,,,,,,,,3,9,,,354.4333,3,right,0.022,,1.5,0.3,"[3,2,1]",0.882075871,stimuli/card_100_transparent.png,100,3,0,3,0,1,,,,,,,,,,
,,,,60b64f8fcb8c7f069a44a0e9,A,2024-07-05_10h06.11.749,Slot Machine Game,2023.1.3,Win32,142.8571429,,,,,,,,,,,,,,,,,,,,,,,,,,,310,,,,,,,,,,,,,,,,,,,,,3,9,,,356.7667,4,right,0.4462,,1,0.3,"[3,2,1]",0.962368322,stimuli/card_100_transparent.png,100,4,0,4,0,1,,,,,,,,,,
,,,,60b64f8fcb8c7f069a44a0e9,A,2024-07-05_10h06.11.749,Slot Machine Game,2023.1.3,Win32,142.8571429,,,,,,,,,,,,,,,,,,,,,,,,,,,410,,,,,,,,,,,,,,,,,,,,,3,9,,,359.0236,5,right,0.1401,,1,0.3,"[3,2,1]",0.417531997,stimuli/card_100_transparent.png,100,5,0,5,0,1,,,,,,,,,,
,,,,60b64f8fcb8c7f069a44a0e9,A,2024-07-05_10h06.11.749,Slot Machine Game,2023.1.3,Win32,142.8571429,,,,,,,,,,,,,,,,,,,,,,,,,,,410,,,,,,,,,,,,,,,,,,,,,3,9,,,360.9681,6,right,0.1252,,0.5,0.3,"[3,2,1]",0.053503319,stimuli/card_0_transparent.png,0,6,0,6,0,1,,,,,,,,,,
,,,,60b64f8fcb8c7f069a44a0e9,A,2024-07-05_10h06.11.749,Slot Machine Game,2023.1.3,Win32,142.8571429,,,,,,,,,,,,,,,,,,,,,,,,,,,510,,,,,,,,,,,,,,,,,,,,,3,9,,,362.4056,7,right,0.0786,,0.5,0.3,"[3,2,1]",0.207838789,stimuli/card_100_transparent.png,100,7,0,7,0,1,,,,,,,,,,
,,,,60b64f8fcb8c7f069a44a0e9,A,2024-07-05_10h06.11.749,Slot Machine Game,2023.1.3,Win32,142.8571429,,,,,,,,,,,,,,,,,,,,,,,,,,,520,,,,,,,,,,,,,,,,,,,,,3,9,,,363.7946,8,right,0.0184,,1.5,0.3,"[3,1,2]",0.863858356,stimuli/card_10_transparent.png,10,8,0,8,0,1,,,,,,,,,,
,,,,60b64f8fcb8c7f069a44a0e9,A,2024-07-05_10h06.11.749,Slot Machine Game,2023.1.3,Win32,142.8571429,,,,,,,,,,,,,,,,,,,,,,,,,,,530,,,,,,,,,,,,,,,,,,,,,3,9,,,366.121,9,right,0.3895,,0.5,0.3,"[3,1,2]",0.912207502,stimuli/card_10_transparent.png,10,9,0,9,0,1,,,,,,,,,,
,,,,60b64f8fcb8c7f069a44a0e9,A,2024-07-05_10h06.11.749,Slot Machine Game,2023.1.3,Win32,142.8571429,,,,,,,,,,,,,,,,,,,,,,,,,,,530,,,,,,,,,,,,,,,,,,,,,3,9,,,367.8224,10,up,0.3578,,1,0.3,"[3,1,2]",0.032504274,stimuli/card_0_transparent.png,0,10,0,10,0,1,,,,,,,,,,
,,,,60b64f8fcb8c7f069a44a0e9,A,2024-07-05_10h06.11.749,Slot Machine Game,2023.1.3,Win32,142.8571429,,,,,,,,,,,,,,,,,,,,,,,,,,,630,,,,,,,,,,,,,,,,,,,,,3,9,,,369.989,11,up,0.3941,,0.5,0.3,"[3,1,2]",0.746692174,stimuli/card_100_transparent.png,100,11,0,11,0,1,,,,,,,,,,
,,,,60b64f8fcb8c7f069a44a0e9,A,2024-07-05_10h06.11.749,Slot Machine Game,2023.1.3,Win32,142.8571429,,,,,,,,,,,,,,,,,,,,,,,,,,,730,,,,,,,,,,,,,,,,,,,,,3,9,,,371.6836,12,up,0.2502,,1,0.3,"[3,1,2]",0.41827766,stimuli/card_100_transparent.png,100,12,0,12,0,1,,,,,,,,,,
,,,,60b64f8fcb8c7f069a44a0e9,A,2024-07-05_10h06.11.749,Slot Machine Game,2023.1.3,Win32,142.8571429,,,,,,,,,,,,,,,,,,,,,,,,,,,830,,,,,,,,,,,,,,,,,,,,,3,9,,,373.7461,13,up,0.0779,,0.5,0.3,"[3,1,2]",0.952838367,stimuli/card_100_transparent.png,100,13,0,13,0,1,,,,,,,,,,
,,,,60b64f8fcb8c7f069a44a0e9,A,2024-07-05_10h06.11.749,Slot Machine Game,2023.1.3,Win32,142.8571429,,,,,,,,,,,,,,,,,,,,,,,,,,,930,,,,,,,,,,,,,,,,,,,,,3,9,,,375.1349,14,up,0.0364,,1,0.3,"[3,1,2]",0.363500617,stimuli/card_100_transparent.png,100,14,0,14,0,1,,,,,,,,,,
,,,,60b64f8fcb8c7f069a44a0e9,A,2024-07-05_10h06.11.749,Slot Machine Game,2023.1.3,Win32,142.8571429,,,,,,,,,,,,,,,,,,,,,,,,,,,,,,,,,,,376.9751,,,,,,,,,,,,,,,,,,,,,,,,,,,,,,,,,"[1020,1100,930]",2,0,2,0,1,,,,
,,,,60b64f8fcb8c7f069a44a0e9,A,2024-07-05_10h06.11.749,Slot Machine Game,2023.1.3,Win32,142.8571429,,,,,,,,,,,,,,,,,,,,,,,,,,,10,,,,,,,,,,,,,,,,,,,,,4,1,"[12,15]","[[2,1,3],[2,3,1]]",381.9818,0,left,0.3978,,1.5,0.3,"[2,1,3]",0.725871701,stimuli/card_10_transparent.png,10,0,0,0,0,1,,,,,,,,,,
,,,,60b64f8fcb8c7f069a44a0e9,A,2024-07-05_10h06.11.749,Slot Machine Game,2023.1.3,Win32,142.8571429,,,,,,,,,,,,,,,,,,,,,,,,,,,10,,,,,,,,,,,,,,,,,,,,,4,1,,,384.6838,1,left,0.0568,,1,0.3,"[2,1,3]",0.026965643,stimuli/card_0_transparent.png,0,1,0,1,0,1,,,,,,,,,,
,,,,60b64f8fcb8c7f069a44a0e9,A,2024-07-05_10h06.11.749,Slot Machine Game,2023.1.3,Win32,142.8571429,,,,,,,,,,,,,,,,,,,,,,,,,,,110,,,,,,,,,,,,,,,,,,,,,4,1,,,386.5517,2,up,0.2224,,0.5,0.3,"[2,1,3]",0.80436346,stimuli/card_100_transparent.png,100,2,0,2,0,1,,,,,,,,,,
,,,,60b64f8fcb8c7f069a44a0e9,A,2024-07-05_10h06.11.749,Slot Machine Game,2023.1.3,Win32,142.8571429,,,,,,,,,,,,,,,,,,,,,,,,,,,210,,,,,,,,,,,,,,,,,,,,,4,1,,,388.0796,3,up,0.0853,,0.5,0.3,"[2,1,3]",0.54481641,stimuli/card_100_transparent.png,100,3,0,3,0,1,,,,,,,,,,
,,,,60b64f8fcb8c7f069a44a0e9,A,2024-07-05_10h06.11.749,Slot Machine Game,2023.1.3,Win32,142.8571429,,,,,,,,,,,,,,,,,,,,,,,,,,,310,,,,,,,,,,,,,,,,,,,,,4,1,,,389.4755,4,up,0.3217,,0.5,0.3,"[2,1,3]",0.379875054,stimuli/card_100_transparent.png,100,4,0,4,0,1,,,,,,,,,,
,,,,60b64f8fcb8c7f069a44a0e9,A,2024-07-05_10h06.11.749,Slot Machine Game,2023.1.3,Win32,142.8571429,,,,,,,,,,,,,,,,,,,,,,,,,,,410,,,,,,,,,,,,,,,,,,,,,4,1,,,391.1074,5,up,0.1293,,1,0.3,"[2,1,3]",0.973236213,stimuli/card_100_transparent.png,100,5,0,5,0,1,,,,,,,,,,
,,,,60b64f8fcb8c7f069a44a0e9,A,2024-07-05_10h06.11.749,Slot Machine Game,2023.1.3,Win32,142.8571429,,,,,,,,,,,,,,,,,,,,,,,,,,,510,,,,,,,,,,,,,,,,,,,,,4,1,,,393.045,6,up,0.2864,,1.5,0.3,"[2,1,3]",0.268970064,stimuli/card_100_transparent.png,100,6,0,6,0,1,,,,,,,,,,
,,,,60b64f8fcb8c7f069a44a0e9,A,2024-07-05_10h06.11.749,Slot Machine Game,2023.1.3,Win32,142.8571429,,,,,,,,,,,,,,,,,,,,,,,,,,,510,,,,,,,,,,,,,,,,,,,,,4,1,,,395.6422,7,up,0.307,,0.5,0.3,"[2,1,3]",0.043535152,stimuli/card_0_transparent.png,0,7,0,7,0,1,,,,,,,,,,
,,,,60b64f8fcb8c7f069a44a0e9,A,2024-07-05_10h06.11.749,Slot Machine Game,2023.1.3,Win32,142.8571429,,,,,,,,,,,,,,,,,,,,,,,,,,,610,,,,,,,,,,,,,,,,,,,,,4,1,,,397.2603,8,up,0.0725,,0.5,0.3,"[2,1,3]",0.761466594,stimuli/card_100_transparent.png,100,8,0,8,0,1,,,,,,,,,,
,,,,60b64f8fcb8c7f069a44a0e9,A,2024-07-05_10h06.11.749,Slot Machine Game,2023.1.3,Win32,142.8571429,,,,,,,,,,,,,,,,,,,,,,,,,,,620,,,,,,,,,,,,,,,,,,,,,4,1,,,398.6423,9,up,0.3426,,0.5,0.3,"[2,1,3]",0.153207974,stimuli/card_10_transparent.png,10,9,0,9,0,1,,,,,,,,,,
,,,,60b64f8fcb8c7f069a44a0e9,A,2024-07-05_10h06.11.749,Slot Machine Game,2023.1.3,Win32,142.8571429,,,,,,,,,,,,,,,,,,,,,,,,,,,720,,,,,,,,,,,,,,,,,,,,,4,1,,,400.2952,10,up,0.0944,,1,0.3,"[2,1,3]",0.741829382,stimuli/card_100_transparent.png,100,10,0,10,0,1,,,,,,,,,,
,,,,60b64f8fcb8c7f069a44a0e9,A,2024-07-05_10h06.11.749,Slot Machine Game,2023.1.3,Win32,142.8571429,,,,,,,,,,,,,,,,,,,,,,,,,,,820,,,,,,,,,,,,,,,,,,,,,4,1,,,402.1978,11,up,0.0699,,1,0.3,"[2,1,3]",0.398200578,stimuli/card_100_transparent.png,100,11,0,11,0,1,,,,,,,,,,
,,,,60b64f8fcb8c7f069a44a0e9,A,2024-07-05_10h06.11.749,Slot Machine Game,2023.1.3,Win32,142.8571429,,,,,,,,,,,,,,,,,,,,,,,,,,,920,,,,,,,,,,,,,,,,,,,,,4,1,,,404.0728,12,up,0.285,,1.5,0.3,"[2,3,1]",0.063147161,stimuli/card_100_transparent.png,100,12,0,12,0,1,,,,,,,,,,
,,,,60b64f8fcb8c7f069a44a0e9,A,2024-07-05_10h06.11.749,Slot Machine Game,2023.1.3,Win32,142.8571429,,,,,,,,,,,,,,,,,,,,,,,,,,,920,,,,,,,,,,,,,,,,,,,,,4,1,,,406.6632,13,up,0.0698,,1,0.3,"[2,3,1]",0.754939515,stimuli/card_0_transparent.png,0,13,0,13,0,1,,,,,,,,,,
,,,,60b64f8fcb8c7f069a44a0e9,A,2024-07-05_10h06.11.749,Slot Machine Game,2023.1.3,Win32,142.8571429,,,,,,,,,,,,,,,,,,,,,,,,,,,1020,,,,,,,,,,,,,,,,,,,,,4,1,,,408.5452,14,up,0.0289,,1.5,0.3,"[2,3,1]",0.014258321,stimuli/card_100_transparent.png,100,14,0,14,0,1,,,,,,,,,,
,,,,60b64f8fcb8c7f069a44a0e9,A,2024-07-05_10h06.11.749,Slot Machine Game,2023.1.3,Win32,142.8571429,,,,,,,,,,,,,,,,,,,,,,,,,,,,,,,,,,,410.8855,,,,,,,,,,,,,,,,,,,,,,,,,,,,,,,,,"[1020,1100,930,1020]",3,0,3,0,1,,,,
,,,,60b64f8fcb8c7f069a44a0e9,A,2024-07-05_10h06.11.749,Slot Machine Game,2023.1.3,Win32,142.8571429,,,,,,,,,,,,,,,,,,,,,,,,,,,100,,,,,,,,,,,,,,,,,,,,,5,2,"[6,15]","[[1,3,2],[3,2,1]]",415.892,0,left,0.3691,,1,0.3,"[1,3,2]",0.3106936,stimuli/card_100_transparent.png,100,0,0,0,0,1,,,,,,,,,,
,,,,60b64f8fcb8c7f069a44a0e9,A,2024-07-05_10h06.11.749,Slot Machine Game,2023.1.3,Win32,142.8571429,,,,,,,,,,,,,,,,,,,,,,,,,,,200,,,,,,,,,,,,,,,,,,,,,5,2,,,418.0661,1,left,0.1389,,0.5,0.3,"[1,3,2]",0.702603926,stimuli/card_100_transparent.png,100,1,0,1,0,1,,,,,,,,,,
,,,,60b64f8fcb8c7f069a44a0e9,A,2024-07-05_10h06.11.749,Slot Machine Game,2023.1.3,Win32,142.8571429,,,,,,,,,,,,,,,,,,,,,,,,,,,300,,,,,,,,,,,,,,,,,,,,,5,2,,,419.5175,2,left,0.0002,,1.5,0.3,"[1,3,2]",0.213829453,stimuli/card_100_transparent.png,100,2,0,2,0,1,,,,,,,,,,
,,,,60b64f8fcb8c7f069a44a0e9,A,2024-07-05_10h06.11.749,Slot Machine Game,2023.1.3,Win32,142.8571429,,,,,,,,,,,,,,,,,,,,,,,,,,,400,,,,,,,,,,,,,,,,,,,,,5,2,,,421.8301,3,left,0.1992,,1,0.3,"[1,3,2]",0.511478676,stimuli/card_100_transparent.png,100,3,0,3,0,1,,,,,,,,,,
,,,,60b64f8fcb8c7f069a44a0e9,A,2024-07-05_10h06.11.749,Slot Machine Game,2023.1.3,Win32,142.8571429,,,,,,,,,,,,,,,,,,,,,,,,,,,500,,,,,,,,,,,,,,,,,,,,,5,2,,,423.8369,4,left,0.0002,,0.5,0.3,"[1,3,2]",0.570382613,stimuli/card_100_transparent.png,100,4,0,4,0,1,,,,,,,,,,
,,,,60b64f8fcb8c7f069a44a0e9,A,2024-07-05_10h06.11.749,Slot Machine Game,2023.1.3,Win32,142.8571429,,,,,,,,,,,,,,,,,,,,,,,,,,,600,,,,,,,,,,,,,,,,,,,,,5,2,,,425.1427,5,left,0.2546,,0.5,0.3,"[1,3,2]",0.233358271,stimuli/card_100_transparent.png,100,5,0,5,0,1,,,,,,,,,,
,,,,60b64f8fcb8c7f069a44a0e9,A,2024-07-05_10h06.11.749,Slot Machine Game,2023.1.3,Win32,142.8571429,,,,,,,,,,,,,,,,,,,,,,,,,,,600,,,,,,,,,,,,,,,,,,,,,5,2,,,426.7052,6,left,0.0835,,1,0.3,"[3,2,1]",0.822015694,stimuli/card_0_transparent.png,0,6,0,6,0,1,,,,,,,,,,
,,,,60b64f8fcb8c7f069a44a0e9,A,2024-07-05_10h06.11.749,Slot Machine Game,2023.1.3,Win32,142.8571429,,,,,,,,,,,,,,,,,,,,,,,,,,,600,,,,,,,,,,,,,,,,,,,,,5,2,,,428.6013,7,left,0.3405,,1,0.3,"[3,2,1]",0.824274715,stimuli/card_0_transparent.png,0,7,0,7,0,1,,,,,,,,,,
,,,,60b64f8fcb8c7f069a44a0e9,A,2024-07-05_10h06.11.749,Slot Machine Game,2023.1.3,Win32,142.8571429,,,,,,,,,,,,,,,,,,,,,,,,,,,610,,,,,,,,,,,,,,,,,,,,,5,2,,,430.7538,8,up,0.1808,,1,0.3,"[3,2,1]",0.40528609,stimuli/card_10_transparent.png,10,8,0,8,0,1,,,,,,,,,,
,,,,60b64f8fcb8c7f069a44a0e9,A,2024-07-05_10h06.11.749,Slot Machine Game,2023.1.3,Win32,142.8571429,,,,,,,,,,,,,,,,,,,,,,,,,,,710,,,,,,,,,,,,,,,,,,,,,5,2,,,432.7469,9,right,0.0495,,1,0.3,"[3,2,1]",0.291164237,stimuli/card_100_transparent.png,100,9,0,9,0,1,,,,,,,,,,
,,,,60b64f8fcb8c7f069a44a0e9,A,2024-07-05_10h06.11.749,Slot Machine Game,2023.1.3,Win32,142.8571429,,,,,,,,,,,,,,,,,,,,,,,,,,,810,,,,,,,,,,,,,,,,,,,,,5,2,,,434.608,10,right,0.0596,,0.5,0.3,"[3,2,1]",0.322328239,stimuli/card_100_transparent.png,100,10,0,10,0,1,,,,,,,,,,
,,,,60b64f8fcb8c7f069a44a0e9,A,2024-07-05_10h06.11.749,Slot Machine Game,2023.1.3,Win32,142.8571429,,,,,,,,,,,,,,,,,,,,,,,,,,,910,,,,,,,,,,,,,,,,,,,,,5,2,,,435.9691,11,right,0.1079,,1.5,0.3,"[3,2,1]",0.605160477,stimuli/card_100_transparent.png,100,11,0,11,0,1,,,,,,,,,,
,,,,60b64f8fcb8c7f069a44a0e9,A,2024-07-05_10h06.11.749,Slot Machine Game,2023.1.3,Win32,142.8571429,,,,,,,,,,,,,,,,,,,,,,,,,,,1010,,,,,,,,,,,,,,,,,,,,,5,2,,,438.3858,12,right,0.4046,,1,0.3,"[3,2,1]",0.599055706,stimuli/card_100_transparent.png,100,12,0,12,0,1,,,,,,,,,,
,,,,60b64f8fcb8c7f069a44a0e9,A,2024-07-05_10h06.11.749,Slot Machine Game,2023.1.3,Win32,142.8571429,,,,,,,,,,,,,,,,,,,,,,,,,,,1110,,,,,,,,,,,,,,,,,,,,,5,2,,,440.5943,13,right,0.2109,,1.5,0.3,"[3,2,1]",0.289805417,stimuli/card_100_transparent.png,100,13,0,13,0,1,,,,,,,,,,
,,,,60b64f8fcb8c7f069a44a0e9,A,2024-07-05_10h06.11.749,Slot Machine Game,2023.1.3,Win32,142.8571429,,,,,,,,,,,,,,,,,,,,,,,,,,,1210,,,,,,,,,,,,,,,,,,,,,5,2,,,443.1151,14,right,0.0346,,1.5,0.3,"[3,2,1]",0.880976135,stimuli/card_100_transparent.png,100,14,0,14,0,1,,,,,,,,,,
,,,,60b64f8fcb8c7f069a44a0e9,A,2024-07-05_10h06.11.749,Slot Machine Game,2023.1.3,Win32,142.8571429,,,,,,,,,,,,,,,,,,,,,,,,,,,,,,,,,,,445.4624,,,,,,,,,,,,,,,,,,,,,,,,,,,,,,,,,"[1020,1100,930,1020,1210]",4,0,4,0,1,,,,
,,,,60b64f8fcb8c7f069a44a0e9,A,2024-07-05_10h06.11.749,Slot Machine Game,2023.1.3,Win32,142.8571429,,,,,,,,,,,,,,,,,,,,,,,,,,,10,,,,,,,,,,,,,,,,,,,,,6,4,"[7,15]","[[2,3,1],[1,2,3]]",450.4688,0,left,0.1022,,0.5,0.3,"[2,3,1]",0.577835851,stimuli/card_10_transparent.png,10,0,0,0,0,1,,,,,,,,,,
,,,,60b64f8fcb8c7f069a44a0e9,A,2024-07-05_10h06.11.749,Slot Machine Game,2023.1.3,Win32,142.8571429,,,,,,,,,,,,,,,,,,,,,,,,,,,10,,,,,,,,,,,,,,,,,,,,,6,4,,,451.879,1,up,0.0929,,1,0.3,"[2,3,1]",0.466139972,stimuli/card_0_transparent.png,0,1,0,1,0,1,,,,,,,,,,
,,,,60b64f8fcb8c7f069a44a0e9,A,2024-07-05_10h06.11.749,Slot Machine Game,2023.1.3,Win32,142.8571429,,,,,,,,,,,,,,,,,,,,,,,,,,,110,,,,,,,,,,,,,,,,,,,,,6,4,,,453.775,2,right,0.2782,,1,0.3,"[2,3,1]",0.820348051,stimuli/card_100_transparent.png,100,2,0,2,0,1,,,,,,,,,,
,,,,60b64f8fcb8c7f069a44a0e9,A,2024-07-05_10h06.11.749,Slot Machine Game,2023.1.3,Win32,142.8571429,,,,,,,,,,,,,,,,,,,,,,,,,,,210,,,,,,,,,,,,,,,,,,,,,6,4,,,455.8653,3,right,0.1334,,1,0.3,"[2,3,1]",0.892610352,stimuli/card_100_transparent.png,100,3,0,3,0,1,,,,,,,,,,
,,,,60b64f8fcb8c7f069a44a0e9,A,2024-07-05_10h06.11.749,Slot Machine Game,2023.1.3,Win32,142.8571429,,,,,,,,,,,,,,,,,,,,,,,,,,,310,,,,,,,,,,,,,,,,,,,,,6,4,,,457.8028,4,right,0.4184,,1,0.3,"[2,3,1]",0.90887386,stimuli/card_100_transparent.png,100,4,0,4,0,1,,,,,,,,,,
,,,,60b64f8fcb8c7f069a44a0e9,A,2024-07-05_10h06.11.749,Slot Machine Game,2023.1.3,Win32,142.8571429,,,,,,,,,,,,,,,,,,,,,,,,,,,320,,,,,,,,,,,,,,,,,,,,,6,4,,,460.0321,5,right,0.1737,,0.5,0.3,"[2,3,1]",0.189754432,stimuli/card_10_transparent.png,10,5,0,5,0,1,,,,,,,,,,
,,,,60b64f8fcb8c7f069a44a0e9,A,2024-07-05_10h06.11.749,Slot Machine Game,2023.1.3,Win32,142.8571429,,,,,,,,,,,,,,,,,,,,,,,,,,,420,,,,,,,,,,,,,,,,,,,,,6,4,,,461.5182,6,right,0.2308,,1,0.3,"[2,3,1]",0.374301669,stimuli/card_100_transparent.png,100,6,0,6,0,1,,,,,,,,,,
,,,,60b64f8fcb8c7f069a44a0e9,A,2024-07-05_10h06.11.749,Slot Machine Game,2023.1.3,Win32,142.8571429,,,,,,,,,,,,,,,,,,,,,,,,,,,420,,,,,,,,,,,,,,,,,,,,,6,4,,,463.5599,7,right,0.045,,0.5,0.3,"[1,2,3]",0.858944381,stimuli/card_0_transparent.png,0,7,0,7,0,1,,,,,,,,,,
,,,,60b64f8fcb8c7f069a44a0e9,A,2024-07-05_10h06.11.749,Slot Machine Game,2023.1.3,Win32,142.8571429,,,,,,,,,,,,,,,,,,,,,,,,,,,520,,,,,,,,,,,,,,,,,,,,,6,4,,,464.914,8,right,0.0509,,1.5,0.3,"[1,2,3]",0.049919751,stimuli/card_100_transparent.png,100,8,0,8,0,1,,,,,,,,,,
,,,,60b64f8fcb8c7f069a44a0e9,A,2024-07-05_10h06.11.749,Slot Machine Game,2023.1.3,Win32,142.8571429,,,,,,,,,,,,,,,,,,,,,,,,,,,620,,,,,,,,,,,,,,,,,,,,,6,4,,,467.2752,9,right,0.0835,,1.5,0.3,"[1,2,3]",0.049383517,stimuli/card_100_transparent.png,100,9,0,9,0,1,,,,,,,,,,
,,,,60b64f8fcb8c7f069a44a0e9,A,2024-07-05_10h06.11.749,Slot Machine Game,2023.1.3,Win32,142.8571429,,,,,,,,,,,,,,,,,,,,,,,,,,,620,,,,,,,,,,,,,,,,,,,,,6,4,,,469.671,10,right,0.1982,,0.5,0.3,"[1,2,3]",0.674931837,stimuli/card_0_transparent.png,0,10,0,10,0,1,,,,,,,,,,
,,,,60b64f8fcb8c7f069a44a0e9,A,2024-07-05_10h06.11.749,Slot Machine Game,2023.1.3,Win32,142.8571429,,,,,,,,,,,,,,,,,,,,,,,,,,,630,,,,,,,,,,,,,,,,,,,,,6,4,,,471.175,11,right,0.1528,,0.5,0.3,"[1,2,3]",0.113070831,stimuli/card_10_transparent.png,10,11,0,11,0,1,,,,,,,,,,
,,,,60b64f8fcb8c7f069a44a0e9,A,2024-07-05_10h06.11.749,Slot Machine Game,2023.1.3,Win32,142.8571429,,,,,,,,,,,,,,,,,,,,,,,,,,,640,,,,,,,,,,,,,,,,,,,,,6,4,,,472.638,12,up,0.1788,,1.5,0.3,"[1,2,3]",0.809584627,stimuli/card_10_transparent.png,10,12,0,12,0,1,,,,,,,,,,
,,,,60b64f8fcb8c7f069a44a0e9,A,2024-07-05_10h06.11.749,Slot Machine Game,2023.1.3,Win32,142.8571429,,,,,,,,,,,,,,,,,,,,,,,,,,,740,,,,,,,,,,,,,,,,,,,,,6,4,,,475.1192,13,left,0.2823,,1.5,0.3,"[1,2,3]",0.813804149,stimuli/card_100_transparent.png,100,13,0,13,0,1,,,,,,,,,,
,,,,60b64f8fcb8c7f069a44a0e9,A,2024-07-05_10h06.11.749,Slot Machine Game,2023.1.3,Win32,142.8571429,,,,,,,,,,,,,,,,,,,,,,,,,,,750,,,,,,,,,,,,,,,,,,,,,6,4,,,477.7128,14,left,0.0597,,1,0.3,"[1,2,3]",0.115961109,stimuli/card_10_transparent.png,10,14,0,14,0,1,,,,,,,,,,
,,,,60b64f8fcb8c7f069a44a0e9,A,2024-07-05_10h06.11.749,Slot Machine Game,2023.1.3,Win32,142.8571429,,,,,,,,,,,,,,,,,,,,,,,,,,,,,,,,,,,479.5758,,,,,,,,,,,,,,,,,,,,,,,,,,,,,,,,,"[1020,1100,930,1020,1210,750]",5,0,5,0,1,,,,
,,,,60b64f8fcb8c7f069a44a0e9,A,2024-07-05_10h06.11.749,Slot Machine Game,2023.1.3,Win32,142.8571429,,,,,,,,,,,,,,,,,,,,,,,,,,,0,,,,,,,,,,,,,,,,,,,,,7,10,"[10,15]","[[3,1,2],[1,3,2]]",484.5805,0,left,0.0002,,0.5,0.3,"[3,1,2]",0.828167658,stimuli/card_0_transparent.png,0,0,0,0,0,1,,,,,,,,,,
,,,,60b64f8fcb8c7f069a44a0e9,A,2024-07-05_10h06.11.749,Slot Machine Game,2023.1.3,Win32,142.8571429,,,,,,,,,,,,,,,,,,,,,,,,,,,100,,,,,,,,,,,,,,,,,,,,,7,10,,,485.8866,1,up,0.1748,,1.5,0.3,"[3,1,2]",0.918494529,stimuli/card_100_transparent.png,100,1,0,1,0,1,,,,,,,,,,
,,,,60b64f8fcb8c7f069a44a0e9,A,2024-07-05_10h06.11.749,Slot Machine Game,2023.1.3,Win32,142.8571429,,,,,,,,,,,,,,,,,,,,,,,,,,,200,,,,,,,,,,,,,,,,,,,,,7,10,,,488.3726,2,up,0.024,,1,0.3,"[3,1,2]",0.818580339,stimuli/card_100_transparent.png,100,2,0,2,0,1,,,,,,,,,,
,,,,60b64f8fcb8c7f069a44a0e9,A,2024-07-05_10h06.11.749,Slot Machine Game,2023.1.3,Win32,142.8571429,,,,,,,,,,,,,,,,,,,,,,,,,,,300,,,,,,,,,,,,,,,,,,,,,7,10,,,490.206,3,up,0.2712,,0.5,0.3,"[3,1,2]",0.279651228,stimuli/card_100_transparent.png,100,3,0,3,0,1,,,,,,,,,,
,,,,60b64f8fcb8c7f069a44a0e9,A,2024-07-05_10h06.11.749,Slot Machine Game,2023.1.3,Win32,142.8571429,,,,,,,,,,,,,,,,,,,,,,,,,,,310,,,,,,,,,,,,,,,,,,,,,7,10,,,491.7894,4,up,0.2467,,1.5,0.3,"[3,1,2]",0.192643472,stimuli/card_10_transparent.png,10,4,0,4,0,1,,,,,,,,,,
,,,,60b64f8fcb8c7f069a44a0e9,A,2024-07-05_10h06.11.749,Slot Machine Game,2023.1.3,Win32,142.8571429,,,,,,,,,,,,,,,,,,,,,,,,,,,410,,,,,,,,,,,,,,,,,,,,,7,10,,,494.3381,5,up,0.3964,,1,0.3,"[3,1,2]",0.512237775,stimuli/card_100_transparent.png,100,5,0,5,0,1,,,,,,,,,,
,,,,60b64f8fcb8c7f069a44a0e9,A,2024-07-05_10h06.11.749,Slot Machine Game,2023.1.3,Win32,142.8571429,,,,,,,,,,,,,,,,,,,,,,,,,,,510,,,,,,,,,,,,,,,,,,,,,7,10,,,496.5464,6,up,0.0359,,0.5,0.3,"[3,1,2]",0.653301256,stimuli/card_100_transparent.png,100,6,0,6,0,1,,,,,,,,,,
,,,,60b64f8fcb8c7f069a44a0e9,A,2024-07-05_10h06.11.749,Slot Machine Game,2023.1.3,Win32,142.8571429,,,,,,,,,,,,,,,,,,,,,,,,,,,520,,,,,,,,,,,,,,,,,,,,,7,10,,,497.8867,7,up,0.0947,,1,0.3,"[3,1,2]",0.166552583,stimuli/card_10_transparent.png,10,7,0,7,0,1,,,,,,,,,,
,,,,60b64f8fcb8c7f069a44a0e9,A,2024-07-05_10h06.11.749,Slot Machine Game,2023.1.3,Win32,142.8571429,,,,,,,,,,,,,,,,,,,,,,,,,,,620,,,,,,,,,,,,,,,,,,,,,7,10,,,499.7896,8,up,0.272,,1.5,0.3,"[3,1,2]",0.655709909,stimuli/card_100_transparent.png,100,8,0,8,0,1,,,,,,,,,,
,,,,60b64f8fcb8c7f069a44a0e9,A,2024-07-05_10h06.11.749,Slot Machine Game,2023.1.3,Win32,142.8571429,,,,,,,,,,,,,,,,,,,,,,,,,,,720,,,,,,,,,,,,,,,,,,,,,7,10,,,502.3729,9,up,0.0241,,1,0.3,"[3,1,2]",0.318584978,stimuli/card_100_transparent.png,100,9,0,9,0,1,,,,,,,,,,
,,,,60b64f8fcb8c7f069a44a0e9,A,2024-07-05_10h06.11.749,Slot Machine Game,2023.1.3,Win32,142.8571429,,,,,,,,,,,,,,,,,,,,,,,,,,,720,,,,,,,,,,,,,,,,,,,,,7,10,,,504.2063,10,up,0.0853,,0.5,0.3,"[1,3,2]",0.340236308,stimuli/card_0_transparent.png,0,10,0,10,0,1,,,,,,,,,,
,,,,60b64f8fcb8c7f069a44a0e9,A,2024-07-05_10h06.11.749,Slot Machine Game,2023.1.3,Win32,142.8571429,,,,,,,,,,,,,,,,,,,,,,,,,,,720,,,,,,,,,,,,,,,,,,,,,7,10,,,505.602,11,up,0.1696,,1.5,0.3,"[1,3,2]",0.518045483,stimuli/card_0_transparent.png,0,11,0,11,0,1,,,,,,,,,,
,,,,60b64f8fcb8c7f069a44a0e9,A,2024-07-05_10h06.11.749,Slot Machine Game,2023.1.3,Win32,142.8571429,,,,,,,,,,,,,,,,,,,,,,,,,,,730,,,,,,,,,,,,,,,,,,,,,7,10,,,508.0744,12,right,0.3697,,1,0.3,"[1,3,2]",0.289124182,stimuli/card_10_transparent.png,10,12,0,12,0,1,,,,,,,,,,
,,,,60b64f8fcb8c7f069a44a0e9,A,2024-07-05_10h06.11.749,Slot Machine Game,2023.1.3,Win32,142.8571429,,,,,,,,,,,,,,,,,,,,,,,,,,,740,,,,,,,,,,,,,,,,,,,,,7,10,,,510.248,13,right,0.1554,,1,0.3,"[1,3,2]",0.643557375,stimuli/card_10_transparent.png,10,13,0,13,0,1,,,,,,,,,,
,,,,60b64f8fcb8c7f069a44a0e9,A,2024-07-05_10h06.11.749,Slot Machine Game,2023.1.3,Win32,142.8571429,,,,,,,,,,,,,,,,,,,,,,,,,,,740,,,,,,,,,,,,,,,,,,,,,7,10,,,512.2064,14,left,0.1037,,0.5,0.3,"[1,3,2]",0.073965625,stimuli/card_0_transparent.png,0,14,0,14,0,1,,,,,,,,,,
,,,,60b64f8fcb8c7f069a44a0e9,A,2024-07-05_10h06.11.749,Slot Machine Game,2023.1.3,Win32,142.8571429,,,,,,,,,,,,,,,,,,,,,,,,,,,,,,,,,,,513.6231,,,,,,,,,,,,,,,,,,,,,,,,,,,,,,,,,"[1020,1100,930,1020,1210,750,740]",6,0,6,0,1,,,,
,,,,60b64f8fcb8c7f069a44a0e9,A,2024-07-05_10h06.11.749,Slot Machine Game,2023.1.3,Win32,142.8571429,,,,,,,,,,,,,,,,,,,,,,,,,,,100,,,,,,,,,,,,,,,,,,,,,8,7,"[9,15]","[[1,3,2],[2,3,1]]",518.6295,0,left,0.3082,,0.5,0.3,"[1,3,2]",0.90967235,stimuli/card_100_transparent.png,100,0,0,0,0,1,,,,,,,,,,
,,,,60b64f8fcb8c7f069a44a0e9,A,2024-07-05_10h06.11.749,Slot Machine Game,2023.1.3,Win32,142.8571429,,,,,,,,,,,,,,,,,,,,,,,,,,,200,,,,,,,,,,,,,,,,,,,,,8,7,,,520.2414,1,left,0.1683,,0.5,0.3,"[1,3,2]",0.569764158,stimuli/card_100_transparent.png,100,1,0,1,0,1,,,,,,,,,,
,,,,60b64f8fcb8c7f069a44a0e9,A,2024-07-05_10h06.11.749,Slot Machine Game,2023.1.3,Win32,142.8571429,,,,,,,,,,,,,,,,,,,,,,,,,,,300,,,,,,,,,,,,,,,,,,,,,8,7,,,521.7274,2,left,0.0343,,1.5,0.3,"[1,3,2]",0.524218677,stimuli/card_100_transparent.png,100,2,0,2,0,1,,,,,,,,,,
,,,,60b64f8fcb8c7f069a44a0e9,A,2024-07-05_10h06.11.749,Slot Machine Game,2023.1.3,Win32,142.8571429,,,,,,,,,,,,,,,,,,,,,,,,,,,400,,,,,,,,,,,,,,,,,,,,,8,7,,,524.0676,3,left,0.0915,,0.5,0.3,"[1,3,2]",0.984113974,stimuli/card_100_transparent.png,100,3,0,3,0,1,,,,,,,,,,
,,,,60b64f8fcb8c7f069a44a0e9,A,2024-07-05_10h06.11.749,Slot Machine Game,2023.1.3,Win32,142.8571429,,,,,,,,,,,,,,,,,,,,,,,,,,,500,,,,,,,,,,,,,,,,,,,,,8,7,,,525.4735,4,left,0.1159,,0.5,0.3,"[1,3,2]",0.485644774,stimuli/card_100_transparent.png,100,4,0,4,0,1,,,,,,,,,,
,,,,60b64f8fcb8c7f069a44a0e9,A,2024-07-05_10h06.11.749,Slot Machine Game,2023.1.3,Win32,142.8571429,,,,,,,,,,,,,,,,,,,,,,,,,,,600,,,,,,,,,,,,,,,,,,,,,8,7,,,526.9018,5,left,0.0502,,1.5,0.3,"[1,3,2]",0.69075371,stimuli/card_100_transparent.png,100,5,0,5,0,1,,,,,,,,,,
,,,,60b64f8fcb8c7f069a44a0e9,A,2024-07-05_10h06.11.749,Slot Machine Game,2023.1.3,Win32,142.8571429,,,,,,,,,,,,,,,,,,,,,,,,,,,700,,,,,,,,,,,,,,,,,,,,,8,7,,,529.2623,6,left,0.111,,1.5,0.3,"[1,3,2]",0.662687261,stimuli/card_100_transparent.png,100,6,0,6,0,1,,,,,,,,,,
,,,,60b64f8fcb8c7f069a44a0e9,A,2024-07-05_10h06.11.749,Slot Machine Game,2023.1.3,Win32,142.8571429,,,,,,,,,,,,,,,,,,,,,,,,,,,700,,,,,,,,,,,,,,,,,,,,,8,7,,,531.6807,7,left,0.2391,,1.5,0.3,"[1,3,2]",0.021813794,stimuli/card_0_transparent.png,0,7,0,7,0,1,,,,,,,,,,
,,,,60b64f8fcb8c7f069a44a0e9,A,2024-07-05_10h06.11.749,Slot Machine Game,2023.1.3,Win32,142.8571429,,,,,,,,,,,,,,,,,,,,,,,,,,,800,,,,,,,,,,,,,,,,,,,,,8,7,,,534.2275,8,left,0.442,,1,0.3,"[1,3,2]",0.265301214,stimuli/card_100_transparent.png,100,8,0,8,0,1,,,,,,,,,,
,,,,60b64f8fcb8c7f069a44a0e9,A,2024-07-05_10h06.11.749,Slot Machine Game,2023.1.3,Win32,142.8571429,,,,,,,,,,,,,,,,,,,,,,,,,,,810,,,,,,,,,,,,,,,,,,,,,8,7,,,536.4706,9,left,0.35,,0.5,0.3,"[2,3,1]",0.367557311,stimuli/card_10_transparent.png,10,9,0,9,0,1,,,,,,,,,,
,,,,60b64f8fcb8c7f069a44a0e9,A,2024-07-05_10h06.11.749,Slot Machine Game,2023.1.3,Win32,142.8571429,,,,,,,,,,,,,,,,,,,,,,,,,,,820,,,,,,,,,,,,,,,,,,,,,8,7,,,538.1235,10,left,0.1224,,1,0.3,"[2,3,1]",0.212621456,stimuli/card_10_transparent.png,10,10,0,10,0,1,,,,,,,,,,
,,,,60b64f8fcb8c7f069a44a0e9,A,2024-07-05_10h06.11.749,Slot Machine Game,2023.1.3,Win32,142.8571429,,,,,,,,,,,,,,,,,,,,,,,,,,,920,,,,,,,,,,,,,,,,,,,,,8,7,,,540.054,11,up,0.184,,1,0.3,"[2,3,1]",0.033849912,stimuli/card_100_transparent.png,100,11,0,11,0,1,,,,,,,,,,
,,,,60b64f8fcb8c7f069a44a0e9,A,2024-07-05_10h06.11.749,Slot Machine Game,2023.1.3,Win32,142.8571429,,,,,,,,,,,,,,,,,,,,,,,,,,,930,,,,,,,,,,,,,,,,,,,,,8,7,,,542.0546,12,up,0.0082,,1.5,0.3,"[2,3,1]",0.189367276,stimuli/card_10_transparent.png,10,12,0,12,0,1,,,,,,,,,,
,,,,60b64f8fcb8c7f069a44a0e9,A,2024-07-05_10h06.11.749,Slot Machine Game,2023.1.3,Win32,142.8571429,,,,,,,,,,,,,,,,,,,,,,,,,,,930,,,,,,,,,,,,,,,,,,,,,8,7,,,544.3734,13,up,0.3026,,1,0.3,"[2,3,1]",0.607151892,stimuli/card_0_transparent.png,0,13,0,13,0,1,,,,,,,,,,
,,,,60b64f8fcb8c7f069a44a0e9,A,2024-07-05_10h06.11.749,Slot Machine Game,2023.1.3,Win32,142.8571429,,,,,,,,,,,,,,,,,,,,,,,,,,,930,,,,,,,,,,,,,,,,,,,,,8,7,,,546.4778,14,up,0.1529,,0.5,0.3,"[2,3,1]",0.565653567,stimuli/card_0_transparent.png,0,14,0,14,0,1,,,,,,,,,,
,,,,60b64f8fcb8c7f069a44a0e9,A,2024-07-05_10h06.11.749,Slot Machine Game,2023.1.3,Win32,142.8571429,,,,,,,,,,,,,,,,,,,,,,,,,,,,,,,,,,,547.943,,,,,,,,,,,,,,,,,,,,,,,,,,,,,,,,,"[1020,1100,930,1020,1210,750,740,930]",7,0,7,0,1,,,,
,,,,60b64f8fcb8c7f069a44a0e9,A,2024-07-05_10h06.11.749,Slot Machine Game,2023.1.3,Win32,142.8571429,,,,,,,,,,,,,,,,,,,,,,,,,,,0,,,,,,,,,,,,,,,,,,,,,9,9,[15],"[[3,1,2]]",552.9496,0,left,0.1024,,0.5,0.3,"[3,1,2]",0.399928775,stimuli/card_0_transparent.png,0,0,0,0,0,1,,,,,,,,,,
,,,,60b64f8fcb8c7f069a44a0e9,A,2024-07-05_10h06.11.749,Slot Machine Game,2023.1.3,Win32,142.8571429,,,,,,,,,,,,,,,,,,,,,,,,,,,10,,,,,,,,,,,,,,,,,,,,,9,9,,,554.3528,1,up,0.0292,,1,0.3,"[3,1,2]",0.134737156,stimuli/card_10_transparent.png,10,1,0,1,0,1,,,,,,,,,,
,,,,60b64f8fcb8c7f069a44a0e9,A,2024-07-05_10h06.11.749,Slot Machine Game,2023.1.3,Win32,142.8571429,,,,,,,,,,,,,,,,,,,,,,,,,,,20,,,,,,,,,,,,,,,,,,,,,9,9,,,556.1861,2,right,0.2505,,0.5,0.3,"[3,1,2]",0.229359991,stimuli/card_10_transparent.png,10,2,0,2,0,1,,,,,,,,,,
,,,,60b64f8fcb8c7f069a44a0e9,A,2024-07-05_10h06.11.749,Slot Machine Game,2023.1.3,Win32,142.8571429,,,,,,,,,,,,,,,,,,,,,,,,,,,120,,,,,,,,,,,,,,,,,,,,,9,9,,,557.7488,3,up,0.1126,,1.5,0.3,"[3,1,2]",0.921676761,stimuli/card_100_transparent.png,100,3,0,3,0,1,,,,,,,,,,
,,,,60b64f8fcb8c7f069a44a0e9,A,2024-07-05_10h06.11.749,Slot Machine Game,2023.1.3,Win32,142.8571429,,,,,,,,,,,,,,,,,,,,,,,,,,,220,,,,,,,,,,,,,,,,,,,,,9,9,,,560.1723,4,up,0.0392,,0.5,0.3,"[3,1,2]",0.969005017,stimuli/card_100_transparent.png,100,4,0,4,0,1,,,,,,,,,,
,,,,60b64f8fcb8c7f069a44a0e9,A,2024-07-05_10h06.11.749,Slot Machine Game,2023.1.3,Win32,142.8571429,,,,,,,,,,,,,,,,,,,,,,,,,,,320,,,,,,,,,,,,,,,,,,,,,9,9,,,561.5126,5,up,0.1086,,1,0.3,"[3,1,2]",0.643383366,stimuli/card_100_transparent.png,100,5,0,5,0,1,,,,,,,,,,
,,,,60b64f8fcb8c7f069a44a0e9,A,2024-07-05_10h06.11.749,Slot Machine Game,2023.1.3,Win32,142.8571429,,,,,,,,,,,,,,,,,,,,,,,,,,,420,,,,,,,,,,,,,,,,,,,,,9,9,,,563.4294,6,up,0.1051,,1,0.3,"[3,1,2]",0.890196943,stimuli/card_100_transparent.png,100,6,0,6,0,1,,,,,,,,,,
,,,,60b64f8fcb8c7f069a44a0e9,A,2024-07-05_10h06.11.749,Slot Machine Game,2023.1.3,Win32,142.8571429,,,,,,,,,,,,,,,,,,,,,,,,,,,520,,,,,,,,,,,,,,,,,,,,,9,9,,,565.346,7,up,0.5316,,0.5,0.3,"[3,1,2]",0.546970297,stimuli/card_100_transparent.png,100,7,0,7,0,1,,,,,,,,,,
,,,,60b64f8fcb8c7f069a44a0e9,A,2024-07-05_10h06.11.749,Slot Machine Game,2023.1.3,Win32,142.8571429,,,,,,,,,,,,,,,,,,,,,,,,,,,530,,,,,,,,,,,,,,,,,,,,,9,9,,,567.1864,8,up,0.1806,,1.5,0.3,"[3,1,2]",0.131098554,stimuli/card_10_transparent.png,10,8,0,8,0,1,,,,,,,,,,
,,,,60b64f8fcb8c7f069a44a0e9,A,2024-07-05_10h06.11.749,Slot Machine Game,2023.1.3,Win32,142.8571429,,,,,,,,,,,,,,,,,,,,,,,,,,,530,,,,,,,,,,,,,,,,,,,,,9,9,,,569.6794,9,up,0.3521,,1,0.3,"[3,1,2]",0.094914788,stimuli/card_0_transparent.png,0,9,0,9,0,1,,,,,,,,,,
,,,,60b64f8fcb8c7f069a44a0e9,A,2024-07-05_10h06.11.749,Slot Machine Game,2023.1.3,Win32,142.8571429,,,,,,,,,,,,,,,,,,,,,,,,,,,540,,,,,,,,,,,,,,,,,,,,,9,9,,,571.8392,10,right,0.3616,,0.5,0.3,"[3,1,2]",0.272833523,stimuli/card_10_transparent.png,10,10,0,10,0,1,,,,,,,,,,
,,,,60b64f8fcb8c7f069a44a0e9,A,2024-07-05_10h06.11.749,Slot Machine Game,2023.1.3,Win32,142.8571429,,,,,,,,,,,,,,,,,,,,,,,,,,,540,,,,,,,,,,,,,,,,,,,,,9,9,,,573.5128,11,right,0.2552,,1,0.3,"[3,1,2]",0.037849647,stimuli/card_0_transparent.png,0,11,0,11,0,1,,,,,,,,,,
,,,,60b64f8fcb8c7f069a44a0e9,A,2024-07-05_10h06.11.749,Slot Machine Game,2023.1.3,Win32,142.8571429,,,,,,,,,,,,,,,,,,,,,,,,,,,540,,,,,,,,,,,,,,,,,,,,,9,9,,,575.5685,12,left,0.0767,,1,0.3,"[3,1,2]",0.644133478,stimuli/card_0_transparent.png,0,12,0,12,0,1,,,,,,,,,,
,,,,60b64f8fcb8c7f069a44a0e9,A,2024-07-05_10h06.11.749,Slot Machine Game,2023.1.3,Win32,142.8571429,,,,,,,,,,,,,,,,,,,,,,,,,,,540,,,,,,,,,,,,,,,,,,,,,9,9,,,577.4574,13,left,0.4212,,1.5,0.3,"[3,1,2]",0.615169975,stimuli/card_0_transparent.png,0,13,0,13,0,1,,,,,,,,,,
,,,,60b64f8fcb8c7f069a44a0e9,A,2024-07-05_10h06.11.749,Slot Machine Game,2023.1.3,Win32,142.8571429,,,,,,,,,,,,,,,,,,,,,,,,,,,640,,,,,,,,,,,,,,,,,,,,,9,9,,,580.1866,14,up,0.3708,,0.5,0.3,"[3,1,2]",0.947895689,stimuli/card_100_transparent.png,100,14,0,14,0,1,,,,,,,,,,
,,,,60b64f8fcb8c7f069a44a0e9,A,2024-07-05_10h06.11.749,Slot Machine Game,2023.1.3,Win32,142.8571429,,,,,,,,,,,,,,,,,,,,,,,,,,,,,,,,,,,581.8671,,,,,,,,,,,,,,,,,,,,,,,,,,,,,,,,,"[1020,1100,930,1020,1210,750,740,930,640]",8,0,8,0,1,,,,
,,,,60b64f8fcb8c7f069a44a0e9,A,2024-07-05_10h06.11.749,Slot Machine Game,2023.1.3,Win32,142.8571429,,,,,,,,,,,,,,,,,,,,,,,,,,,10,,,,,,,,,,,,,,,,,,,,,10,6,"[4,10,15]","[[2,3,1],[1,3,2],[3,2,1]]",586.8737,0,left,0.3963,,1,0.3,"[2,3,1]",0.391433002,stimuli/card_10_transparent.png,10,0,0,0,0,1,,,,,,,,,,
,,,,60b64f8fcb8c7f069a44a0e9,A,2024-07-05_10h06.11.749,Slot Machine Game,2023.1.3,Win32,142.8571429,,,,,,,,,,,,,,,,,,,,,,,,,,,10,,,,,,,,,,,,,,,,,,,,,10,6,,,589.0755,1,up,0.3159,,0.5,0.3,"[2,3,1]",0.262921467,stimuli/card_0_transparent.png,0,1,0,1,0,1,,,,,,,,,,
,,,,60b64f8fcb8c7f069a44a0e9,A,2024-07-05_10h06.11.749,Slot Machine Game,2023.1.3,Win32,142.8571429,,,,,,,,,,,,,,,,,,,,,,,,,,,110,,,,,,,,,,,,,,,,,,,,,10,6,,,590.7075,2,right,0.0261,,1,0.3,"[2,3,1]",0.642119118,stimuli/card_100_transparent.png,100,2,0,2,0,1,,,,,,,,,,
,,,,60b64f8fcb8c7f069a44a0e9,A,2024-07-05_10h06.11.749,Slot Machine Game,2023.1.3,Win32,142.8571429,,,,,,,,,,,,,,,,,,,,,,,,,,,210,,,,,,,,,,,,,,,,,,,,,10,6,,,592.5409,3,right,0.1734,,1.5,0.3,"[2,3,1]",0.652653083,stimuli/card_100_transparent.png,100,3,0,3,0,1,,,,,,,,,,
,,,,60b64f8fcb8c7f069a44a0e9,A,2024-07-05_10h06.11.749,Slot Machine Game,2023.1.3,Win32,142.8571429,,,,,,,,,,,,,,,,,,,,,,,,,,,220,,,,,,,,,,,,,,,,,,,,,10,6,,,595.027,4,right,0.1406,,1,0.3,"[1,3,2]",0.662740518,stimuli/card_10_transparent.png,10,4,0,4,0,1,,,,,,,,,,
,,,,60b64f8fcb8c7f069a44a0e9,A,2024-07-05_10h06.11.749,Slot Machine Game,2023.1.3,Win32,142.8571429,,,,,,,,,,,,,,,,,,,,,,,,,,,230,,,,,,,,,,,,,,,,,,,,,10,6,,,596.9646,5,right,0.1214,,0.5,0.3,"[1,3,2]",0.221399851,stimuli/card_10_transparent.png,10,5,0,5,0,1,,,,,,,,,,
,,,,60b64f8fcb8c7f069a44a0e9,A,2024-07-05_10h06.11.749,Slot Machine Game,2023.1.3,Win32,142.8571429,,,,,,,,,,,,,,,,,,,,,,,,,,,240,,,,,,,,,,,,,,,,,,,,,10,6,,,598.3958,6,right,0.2223,,1,0.3,"[1,3,2]",0.76549631,stimuli/card_10_transparent.png,10,6,0,6,0,1,,,,,,,,,,
,,,,60b64f8fcb8c7f069a44a0e9,A,2024-07-05_10h06.11.749,Slot Machine Game,2023.1.3,Win32,142.8571429,,,,,,,,,,,,,,,,,,,,,,,,,,,240,,,,,,,,,,,,,,,,,,,,,10,6,,,600.4229,7,up,0.2619,,1.5,0.3,"[1,3,2]",0.528671459,stimuli/card_0_transparent.png,0,7,0,7,0,1,,,,,,,,,,
,,,,60b64f8fcb8c7f069a44a0e9,A,2024-07-05_10h06.11.749,Slot Machine Game,2023.1.3,Win32,142.8571429,,,,,,,,,,,,,,,,,,,,,,,,,,,340,,,,,,,,,,,,,,,,,,,,,10,6,,,602.9854,8,left,0.004,,1,0.3,"[1,3,2]",0.723946406,stimuli/card_100_transparent.png,100,8,0,8,0,1,,,,,,,,,,
,,,,60b64f8fcb8c7f069a44a0e9,A,2024-07-05_10h06.11.749,Slot Machine Game,2023.1.3,Win32,142.8571429,,,,,,,,,,,,,,,,,,,,,,,,,,,440,,,,,,,,,,,,,,,,,,,,,10,6,,,604.791,9,left,0.2643,,1,0.3,"[1,3,2]",0.512278847,stimuli/card_100_transparent.png,100,9,0,9,0,1,,,,,,,,,,
,,,,60b64f8fcb8c7f069a44a0e9,A,2024-07-05_10h06.11.749,Slot Machine Game,2023.1.3,Win32,142.8571429,,,,,,,,,,,,,,,,,,,,,,,,,,,440,,,,,,,,,,,,,,,,,,,,,10,6,,,606.8535,10,left,0.129,,0.5,0.3,"[3,2,1]",0.709205633,stimuli/card_0_transparent.png,0,10,0,10,0,1,,,,,,,,,,
,,,,60b64f8fcb8c7f069a44a0e9,A,2024-07-05_10h06.11.749,Slot Machine Game,2023.1.3,Win32,142.8571429,,,,,,,,,,,,,,,,,,,,,,,,,,,440,,,,,,,,,,,,,,,,,,,,,10,6,,,608.2916,11,left,0.1851,,1,0.3,"[3,2,1]",0.509239944,stimuli/card_0_transparent.png,0,11,0,11,0,1,,,,,,,,,,
,,,,60b64f8fcb8c7f069a44a0e9,A,2024-07-05_10h06.11.749,Slot Machine Game,2023.1.3,Win32,142.8571429,,,,,,,,,,,,,,,,,,,,,,,,,,,440,,,,,,,,,,,,,,,,,,,,,10,6,,,610.2703,12,left,0.1975,,1,0.3,"[3,2,1]",0.913928502,stimuli/card_0_transparent.png,0,12,0,12,0,1,,,,,,,,,,
,,,,60b64f8fcb8c7f069a44a0e9,A,2024-07-05_10h06.11.749,Slot Machine Game,2023.1.3,Win32,142.8571429,,,,,,,,,,,,,,,,,,,,,,,,,,,450,,,,,,,,,,,,,,,,,,,,,10,6,,,612.2772,13,up,0.3219,,1,0.3,"[3,2,1]",0.208818756,stimuli/card_10_transparent.png,10,13,0,13,0,1,,,,,,,,,,
,,,,60b64f8fcb8c7f069a44a0e9,A,2024-07-05_10h06.11.749,Slot Machine Game,2023.1.3,Win32,142.8571429,,,,,,,,,,,,,,,,,,,,,,,,,,,450,,,,,,,,,,,,,,,,,,,,,10,6,,,614.4091,14,right,0.3707,,0.5,0.3,"[3,2,1]",0.057772174,stimuli/card_0_transparent.png,0,14,0,14,0,1,,,,,,,,,,
,,,,60b64f8fcb8c7f069a44a0e9,A,2024-07-05_10h06.11.749,Slot Machine Game,2023.1.3,Win32,142.8571429,,,,,,,,,,,,,,,,,,,,,,,,,,,,,,,,,,,616.0834,,,,,,,,,,,,,,,,,,,,,,,,,,,,,,,,,"[1020,1100,930,1020,1210,750,740,930,640,450]",9,0,9,0,1,,,,
,,,,60b64f8fcb8c7f069a44a0e9,A,2024-07-05_10h06.11.749,Slot Machine Game,2023.1.3,Win32,142.8571429,,,,,,,,,,,,,,,,,,,,,,,,,,,,,,,,,,,,,,,,,,,,,,,,,,,,,,,,,,,,,,,,,,,,,,,,,,9,"[1020,1100,930,1020,1210,750,740,930,640,450]",9.3,2024-07-05_10h16.36.903
