key_resp_welcome_started,key_resp_welcome_keys,key_resp_welcome_rt,key_resp_welcome_duration,prolific_id,path_id,date,expName,psychopyVersion,OS,frameRate,key_resp_instruction1_started,key_resp_instruction1_keys,key_resp_instruction1_rt,key_resp_instruction1_duration,key_resp_instruction2_started,key_resp_instruction2_keys,key_resp_instruction2_rt,key_resp_instruction2_duration,key_resp_instruction3_started,key_resp_instruction3_keys,key_resp_instruction3_rt,key_resp_instruction3_duration,key_resp_instruction4_started,key_resp_instruction4_keys,key_resp_instruction4_rt,key_resp_instruction4_duration,practiceCondition,practice_reward_seqs,practice_trial_started,practice_trial_num,practice_resp_rt,practice_resp_duration,practice_resp_keys,prac_presentationInterval,"practice_reward_seq: 2,1,3",reward_img,cumulative_reward,trial_reward,practice_trials.thisRepN,practice_trials.thisTrialN,practice_trials.thisN,practice_trials.thisIndex,practice_trials.ran,"practice_reward_seq: 2,3,1",block_break_started,"practice_reward_seq: 1,3,2","practice_reward_seq: 3,1,2",practice_end_time,practice_end_keys,practice_end_rt,practice_end_duration,main_instruction_text_started,block_condition,block_order_indices,main_instruction_keys,main_instruction_rt,main_instruction_duration,block_number,block_assignment,current_condition,main_reward_seqs,main_trial_started,main_trial_num,main_trial_keys,main_trial_rt,main_trial_duration,main_presentationInterval,reward_presentation_time,main_reward_seq,reward_rand_val,main_reward_img,current_reward,main_trials.thisRepN,main_trials.thisTrialN,main_trials.thisN,main_trials.thisIndex,main_trials.ran,block_reward,block.thisRepN,block.thisTrialN,block.thisN,block.thisIndex,block.ran,block_reward.length,block_reward_all,reward_amount,date_end_task
0.0002,space,1.8937,,60bfa70dc02807c74e0277c7,A,2024-07-08_17h52.13.672,Slot Machine Game,2023.1.3,Win32,59.88023952,,,,,,,,,,,,,,,,,,,,,,,,,,,,,,,,,,,,,,,,,,,,,,,,,,,,,,,,,,,,,,,,,,,,,,,,,,,,,
,,,,60bfa70dc02807c74e0277c7,A,2024-07-08_17h52.13.672,Slot Machine Game,2023.1.3,Win32,59.88023952,1.9051,space,4.8129,,,,,,,,,,,,,,,,,,,,,,,,,,,,,,,,,,,,,,,,,,,,,,,,,,,,,,,,,,,,,,,,,,,,,,,,,,
,,,,60bfa70dc02807c74e0277c7,A,2024-07-08_17h52.13.672,Slot Machine Game,2023.1.3,Win32,59.88023952,,,,,6.7439,space,15.6118,,,,,,,,,,,,,,,,,,,,,,,,,,,,,,,,,,,,,,,,,,,,,,,,,,,,,,,,,,,,,,,,,,,,,,
,,,,60bfa70dc02807c74e0277c7,A,2024-07-08_17h52.13.672,Slot Machine Game,2023.1.3,Win32,59.88023952,,,,,,,,,22.392,space,5.753,,,,,,,,,,,,,,,,,,,,,,,,,,,,,,,,,,,,,,,,,,,,,,,,,,,,,,,,,,,,,,,,,,
,,,,60bfa70dc02807c74e0277c7,A,2024-07-08_17h52.13.672,Slot Machine Game,2023.1.3,Win32,59.88023952,,,,,,,,,,,,,,,,,,,,,,,,,,,,,,,,,,,,,,,,,,,,,,,,,,,,,,,,,,,,,,,,,,,,,,,,,,,,,
,,,,60bfa70dc02807c74e0277c7,A,2024-07-08_17h52.13.672,Slot Machine Game,2023.1.3,Win32,59.88023952,,,,,,,,,,,,,169.8458,space,2.586,,,,,,,,,,,,,,,,,,,,,,,,,,,,,,,,,,,,,,,,,,,,,,,,,,,,,,,,,,,,,,
,,,,60bfa70dc02807c74e0277c7,A,2024-07-08_17h52.13.672,Slot Machine Game,2023.1.3,Win32,59.88023952,,,,,,,,,,,,,,,,,"[9,15]","[[2,1,3],[2,3,1]]",172.4619,0,0.9681,,left,1,,stimuli/card_100_transparent.png,100,100,0,0,0,0,1,,,,,,,,,,,,,,,,,,,,,,,,,,,,,,,,,,,,,,,,,,,,
,,,,60bfa70dc02807c74e0277c7,A,2024-07-08_17h52.13.672,Slot Machine Game,2023.1.3,Win32,59.88023952,,,,,,,,,,,,,,,,,,,175.2781,1,0.4341,,left,1.5,,stimuli/card_100_transparent.png,200,100,1,0,1,0,1,,,,,,,,,,,,,,,,,,,,,,,,,,,,,,,,,,,,,,,,,,,,
,,,,60bfa70dc02807c74e0277c7,A,2024-07-08_17h52.13.672,Slot Machine Game,2023.1.3,Win32,59.88023952,,,,,,,,,,,,,,,,,,,178.0305,2,0.6867,,left,1.5,,stimuli/card_10_transparent.png,210,10,2,0,2,0,1,,,,,,,,,,,,,,,,,,,,,,,,,,,,,,,,,,,,,,,,,,,,
,,,,60bfa70dc02807c74e0277c7,A,2024-07-08_17h52.13.672,Slot Machine Game,2023.1.3,Win32,59.88023952,,,,,,,,,,,,,,,,,,,181.0334,3,0.2991,,left,1,,stimuli/card_10_transparent.png,220,10,3,0,3,0,1,,,,,,,,,,,,,,,,,,,,,,,,,,,,,,,,,,,,,,,,,,,,
,,,,60bfa70dc02807c74e0277c7,A,2024-07-08_17h52.13.672,Slot Machine Game,2023.1.3,Win32,59.88023952,,,,,,,,,,,,,,,,,,,183.1355,4,0.4842,,up,1,,stimuli/card_100_transparent.png,320,100,4,0,4,0,1,,,,,,,,,,,,,,,,,,,,,,,,,,,,,,,,,,,,,,,,,,,,
,,,,60bfa70dc02807c74e0277c7,A,2024-07-08_17h52.13.672,Slot Machine Game,2023.1.3,Win32,59.88023952,,,,,,,,,,,,,,,,,,,185.4377,5,0.334,,up,1,,stimuli/card_100_transparent.png,420,100,5,0,5,0,1,,,,,,,,,,,,,,,,,,,,,,,,,,,,,,,,,,,,,,,,,,,,
,,,,60bfa70dc02807c74e0277c7,A,2024-07-08_17h52.13.672,Slot Machine Game,2023.1.3,Win32,59.88023952,,,,,,,,,,,,,,,,,,,187.5901,6,0.6435,,up,0.5,,stimuli/card_100_transparent.png,520,100,6,0,6,0,1,,,,,,,,,,,,,,,,,,,,,,,,,,,,,,,,,,,,,,,,,,,,
,,,,60bfa70dc02807c74e0277c7,A,2024-07-08_17h52.13.672,Slot Machine Game,2023.1.3,Win32,59.88023952,,,,,,,,,,,,,,,,,,,189.5253,7,0.2684,,up,1.5,,stimuli/card_100_transparent.png,620,100,7,0,7,0,1,,,,,,,,,,,,,,,,,,,,,,,,,,,,,,,,,,,,,,,,,,,,
,,,,60bfa70dc02807c74e0277c7,A,2024-07-08_17h52.13.672,Slot Machine Game,2023.1.3,Win32,59.88023952,,,,,,,,,,,,,,,,,,,192.0945,8,0.2191,,up,1.5,,stimuli/card_100_transparent.png,720,100,8,0,8,0,1,,,,,,,,,,,,,,,,,,,,,,,,,,,,,,,,,,,,,,,,,,,,
,,,,60bfa70dc02807c74e0277c7,A,2024-07-08_17h52.13.672,Slot Machine Game,2023.1.3,Win32,59.88023952,,,,,,,,,,,,,,,,,,,194.6305,9,0.2595,,up,1,,stimuli/card_100_transparent.png,820,100,9,0,9,0,1,,,,,,,,,,,,,,,,,,,,,,,,,,,,,,,,,,,,,,,,,,,,
,,,,60bfa70dc02807c74e0277c7,A,2024-07-08_17h52.13.672,Slot Machine Game,2023.1.3,Win32,59.88023952,,,,,,,,,,,,,,,,,,,196.699,10,0.0386,,up,1,,stimuli/card_100_transparent.png,920,100,10,0,10,0,1,,,,,,,,,,,,,,,,,,,,,,,,,,,,,,,,,,,,,,,,,,,,
,,,,60bfa70dc02807c74e0277c7,A,2024-07-08_17h52.13.672,Slot Machine Game,2023.1.3,Win32,59.88023952,,,,,,,,,,,,,,,,,,,198.551,11,0.1007,,up,1.5,,stimuli/card_0_transparent.png,920,0,11,0,11,0,1,,,,,,,,,,,,,,,,,,,,,,,,,,,,,,,,,,,,,,,,,,,,
,,,,60bfa70dc02807c74e0277c7,A,2024-07-08_17h52.13.672,Slot Machine Game,2023.1.3,Win32,59.88023952,,,,,,,,,,,,,,,,,,,200.97,12,0.4501,,up,0.5,,stimuli/card_0_transparent.png,920,0,12,0,12,0,1,,,,,,,,,,,,,,,,,,,,,,,,,,,,,,,,,,,,,,,,,,,,
,,,,60bfa70dc02807c74e0277c7,A,2024-07-08_17h52.13.672,Slot Machine Game,2023.1.3,Win32,59.88023952,,,,,,,,,,,,,,,,,,,202.7384,13,0.6383,,left,0.5,,stimuli/card_10_transparent.png,930,10,13,0,13,0,1,,,,,,,,,,,,,,,,,,,,,,,,,,,,,,,,,,,,,,,,,,,,
,,,,60bfa70dc02807c74e0277c7,A,2024-07-08_17h52.13.672,Slot Machine Game,2023.1.3,Win32,59.88023952,,,,,,,,,,,,,,,,,,,204.6904,14,0.3755,,right,1.5,,stimuli/card_100_transparent.png,1030,100,14,0,14,0,1,,,,,,,,,,,,,,,,,,,,,,,,,,,,,,,,,,,,,,,,,,,,
,,,,60bfa70dc02807c74e0277c7,A,2024-07-08_17h52.13.672,Slot Machine Game,2023.1.3,Win32,59.88023952,,,,,,,,,,,,,,,,,"[6,15]","[[1,3,2],[3,1,2]]",212.3888,0,1.3237,,left,1.5,,stimuli/card_10_transparent.png,10,10,0,0,0,0,1,,207.3836,,,,,,,,,,,,,,,,,,,,,,,,,,,,,,,,,,,,,,,,,,
,,,,60bfa70dc02807c74e0277c7,A,2024-07-08_17h52.13.672,Slot Machine Game,2023.1.3,Win32,59.88023952,,,,,,,,,,,,,,,,,,,216.0415,1,1.3351,,left,1.5,,stimuli/card_100_transparent.png,110,100,1,0,1,0,1,,,,,,,,,,,,,,,,,,,,,,,,,,,,,,,,,,,,,,,,,,,,
,,,,60bfa70dc02807c74e0277c7,A,2024-07-08_17h52.13.672,Slot Machine Game,2023.1.3,Win32,59.88023952,,,,,,,,,,,,,,,,,,,219.7054,2,0.3204,,left,1.5,,stimuli/card_0_transparent.png,110,0,2,0,2,0,1,,,,,,,,,,,,,,,,,,,,,,,,,,,,,,,,,,,,,,,,,,,,
,,,,60bfa70dc02807c74e0277c7,A,2024-07-08_17h52.13.672,Slot Machine Game,2023.1.3,Win32,59.88023952,,,,,,,,,,,,,,,,,,,222.3413,3,0.1562,,up,1.5,,stimuli/card_0_transparent.png,110,0,3,0,3,0,1,,,,,,,,,,,,,,,,,,,,,,,,,,,,,,,,,,,,,,,,,,,,
,,,,60bfa70dc02807c74e0277c7,A,2024-07-08_17h52.13.672,Slot Machine Game,2023.1.3,Win32,59.88023952,,,,,,,,,,,,,,,,,,,224.8104,4,0.426,,right,0.5,,stimuli/card_10_transparent.png,120,10,4,0,4,0,1,,,,,,,,,,,,,,,,,,,,,,,,,,,,,,,,,,,,,,,,,,,,
,,,,60bfa70dc02807c74e0277c7,A,2024-07-08_17h52.13.672,Slot Machine Game,2023.1.3,Win32,59.88023952,,,,,,,,,,,,,,,,,,,226.5648,5,0.3669,,up,0.5,,stimuli/card_0_transparent.png,120,0,5,0,5,0,1,,,,,,,,,,,,,,,,,,,,,,,,,,,,,,,,,,,,,,,,,,,,
,,,,60bfa70dc02807c74e0277c7,A,2024-07-08_17h52.13.672,Slot Machine Game,2023.1.3,Win32,59.88023952,,,,,,,,,,,,,,,,,,,228.2472,6,0.0187,,left,0.5,,stimuli/card_0_transparent.png,120,0,6,0,6,0,1,,,,,,,,,,,,,,,,,,,,,,,,,,,,,,,,,,,,,,,,,,,,
,,,,60bfa70dc02807c74e0277c7,A,2024-07-08_17h52.13.672,Slot Machine Game,2023.1.3,Win32,59.88023952,,,,,,,,,,,,,,,,,,,229.5819,7,0.6436,,right,0.5,,stimuli/card_0_transparent.png,120,0,7,0,7,0,1,,,,,,,,,,,,,,,,,,,,,,,,,,,,,,,,,,,,,,,,,,,,
,,,,60bfa70dc02807c74e0277c7,A,2024-07-08_17h52.13.672,Slot Machine Game,2023.1.3,Win32,59.88023952,,,,,,,,,,,,,,,,,,,231.5338,8,0.4841,,left,1,,stimuli/card_0_transparent.png,120,0,8,0,8,0,1,,,,,,,,,,,,,,,,,,,,,,,,,,,,,,,,,,,,,,,,,,,,
,,,,60bfa70dc02807c74e0277c7,A,2024-07-08_17h52.13.672,Slot Machine Game,2023.1.3,Win32,59.88023952,,,,,,,,,,,,,,,,,,,233.8423,9,0.2848,,up,0.5,,stimuli/card_100_transparent.png,220,100,9,0,9,0,1,,,,,,,,,,,,,,,,,,,,,,,,,,,,,,,,,,,,,,,,,,,,
,,,,60bfa70dc02807c74e0277c7,A,2024-07-08_17h52.13.672,Slot Machine Game,2023.1.3,Win32,59.88023952,,,,,,,,,,,,,,,,,,,235.4544,10,0.169,,up,1.5,,stimuli/card_10_transparent.png,230,10,10,0,10,0,1,,,,,,,,,,,,,,,,,,,,,,,,,,,,,,,,,,,,,,,,,,,,
,,,,60bfa70dc02807c74e0277c7,A,2024-07-08_17h52.13.672,Slot Machine Game,2023.1.3,Win32,59.88023952,,,,,,,,,,,,,,,,,,,237.9236,11,0.5347,,up,1,,stimuli/card_0_transparent.png,230,0,11,0,11,0,1,,,,,,,,,,,,,,,,,,,,,,,,,,,,,,,,,,,,,,,,,,,,
,,,,60bfa70dc02807c74e0277c7,A,2024-07-08_17h52.13.672,Slot Machine Game,2023.1.3,Win32,59.88023952,,,,,,,,,,,,,,,,,,,240.2759,12,0.2218,,left,1,,stimuli/card_0_transparent.png,230,0,12,0,12,0,1,,,,,,,,,,,,,,,,,,,,,,,,,,,,,,,,,,,,,,,,,,,,
,,,,60bfa70dc02807c74e0277c7,A,2024-07-08_17h52.13.672,Slot Machine Game,2023.1.3,Win32,59.88023952,,,,,,,,,,,,,,,,,,,242.3113,13,0.1059,,left,0.5,,stimuli/card_0_transparent.png,230,0,13,0,13,0,1,,,,,,,,,,,,,,,,,,,,,,,,,,,,,,,,,,,,,,,,,,,,
,,,,60bfa70dc02807c74e0277c7,A,2024-07-08_17h52.13.672,Slot Machine Game,2023.1.3,Win32,59.88023952,,,,,,,,,,,,,,,,,,,243.7293,14,1.8983,,right,1,,stimuli/card_10_transparent.png,240,10,14,0,14,0,1,,,,,,,,,,,,,,,,,,,,,,,,,,,,,,,,,,,,,,,,,,,,
,,,,60bfa70dc02807c74e0277c7,A,2024-07-08_17h52.13.672,Slot Machine Game,2023.1.3,Win32,59.88023952,,,,,,,,,,,,,,,,,,,,,,,,,,,,,,,,,,,247.433,,,252.4221,space,2.3284,,,,,,,,,,,,,,,,,,,,,,,,,,,,,,,,,,,,,
,,,,60bfa70dc02807c74e0277c7,A,2024-07-08_17h52.13.672,Slot Machine Game,2023.1.3,Win32,59.88023952,,,,,,,,,,,,,,,,,,,,,,,,,,,,,,,,,,,,,,,,,,254.7739,3,"[0,4,6,3,5,7,8,1,9,2]",space,2.8771,,,,,,,,,,,,,,,,,,,,,,,,,,,,,,,
,,,,60bfa70dc02807c74e0277c7,A,2024-07-08_17h52.13.672,Slot Machine Game,2023.1.3,Win32,59.88023952,,,,,,,,,,,,,,,,,,,,,,,,,,,10,,,,,,,,,,,,,,,,,,,,,1,1,"[12,15]","[[2,1,3],[2,3,1]]",257.6882,0,left,1.2254,,0.5,0.3,"[2,1,3]",0.394726748,stimuli/card_10_transparent.png,10,0,0,0,0,1,,,,,,,,,,
,,,,60bfa70dc02807c74e0277c7,A,2024-07-08_17h52.13.672,Slot Machine Game,2023.1.3,Win32,59.88023952,,,,,,,,,,,,,,,,,,,,,,,,,,,20,,,,,,,,,,,,,,,,,,,,,1,1,,,260.2459,1,left,0.94,,0.5,0.3,"[2,1,3]",0.529520913,stimuli/card_10_transparent.png,10,1,0,1,0,1,,,,,,,,,,
,,,,60bfa70dc02807c74e0277c7,A,2024-07-08_17h52.13.672,Slot Machine Game,2023.1.3,Win32,59.88023952,,,,,,,,,,,,,,,,,,,,,,,,,,,120,,,,,,,,,,,,,,,,,,,,,1,1,,,262.4877,2,up,0.0711,,0.5,0.3,"[2,1,3]",0.324121453,stimuli/card_100_transparent.png,100,2,0,2,0,1,,,,,,,,,,
,,,,60bfa70dc02807c74e0277c7,A,2024-07-08_17h52.13.672,Slot Machine Game,2023.1.3,Win32,59.88023952,,,,,,,,,,,,,,,,,,,,,,,,,,,220,,,,,,,,,,,,,,,,,,,,,1,1,,,263.8827,3,up,0.1007,,0.5,0.3,"[2,1,3]",0.458704166,stimuli/card_100_transparent.png,100,3,0,3,0,1,,,,,,,,,,
,,,,60bfa70dc02807c74e0277c7,A,2024-07-08_17h52.13.672,Slot Machine Game,2023.1.3,Win32,59.88023952,,,,,,,,,,,,,,,,,,,,,,,,,,,230,,,,,,,,,,,,,,,,,,,,,1,1,,,265.3008,4,up,0.0529,,1,0.3,"[2,1,3]",0.159487934,stimuli/card_10_transparent.png,10,4,0,4,0,1,,,,,,,,,,
,,,,60bfa70dc02807c74e0277c7,A,2024-07-08_17h52.13.672,Slot Machine Game,2023.1.3,Win32,59.88023952,,,,,,,,,,,,,,,,,,,,,,,,,,,330,,,,,,,,,,,,,,,,,,,,,1,1,,,267.1693,5,up,0.1843,,1,0.3,"[2,1,3]",0.975667208,stimuli/card_100_transparent.png,100,5,0,5,0,1,,,,,,,,,,
,,,,60bfa70dc02807c74e0277c7,A,2024-07-08_17h52.13.672,Slot Machine Game,2023.1.3,Win32,59.88023952,,,,,,,,,,,,,,,,,,,,,,,,,,,430,,,,,,,,,,,,,,,,,,,,,1,1,,,269.1548,6,up,0.1588,,0.5,0.3,"[2,1,3]",0.99095715,stimuli/card_100_transparent.png,100,6,0,6,0,1,,,,,,,,,,
,,,,60bfa70dc02807c74e0277c7,A,2024-07-08_17h52.13.672,Slot Machine Game,2023.1.3,Win32,59.88023952,,,,,,,,,,,,,,,,,,,,,,,,,,,530,,,,,,,,,,,,,,,,,,,,,1,1,,,270.6061,7,up,0.0195,,0.5,0.3,"[2,1,3]",0.307461928,stimuli/card_100_transparent.png,100,7,0,7,0,1,,,,,,,,,,
,,,,60bfa70dc02807c74e0277c7,A,2024-07-08_17h52.13.672,Slot Machine Game,2023.1.3,Win32,59.88023952,,,,,,,,,,,,,,,,,,,,,,,,,,,630,,,,,,,,,,,,,,,,,,,,,1,1,,,271.9407,8,up,1.4476,,1,0.3,"[2,1,3]",0.497239514,stimuli/card_100_transparent.png,100,8,0,8,0,1,,,,,,,,,,
,,,,60bfa70dc02807c74e0277c7,A,2024-07-08_17h52.13.672,Slot Machine Game,2023.1.3,Win32,59.88023952,,,,,,,,,,,,,,,,,,,,,,,,,,,630,,,,,,,,,,,,,,,,,,,,,1,1,,,275.2117,9,up,0.0335,,0.5,0.3,"[2,1,3]",0.013878022,stimuli/card_0_transparent.png,0,9,0,9,0,1,,,,,,,,,,
,,,,60bfa70dc02807c74e0277c7,A,2024-07-08_17h52.13.672,Slot Machine Game,2023.1.3,Win32,59.88023952,,,,,,,,,,,,,,,,,,,,,,,,,,,730,,,,,,,,,,,,,,,,,,,,,1,1,,,276.5789,10,up,0.3563,,0.5,0.3,"[2,1,3]",0.927486397,stimuli/card_100_transparent.png,100,10,0,10,0,1,,,,,,,,,,
,,,,60bfa70dc02807c74e0277c7,A,2024-07-08_17h52.13.672,Slot Machine Game,2023.1.3,Win32,59.88023952,,,,,,,,,,,,,,,,,,,,,,,,,,,830,,,,,,,,,,,,,,,,,,,,,1,1,,,278.2471,11,up,0.1705,,1,0.3,"[2,1,3]",0.409289111,stimuli/card_100_transparent.png,100,11,0,11,0,1,,,,,,,,,,
,,,,60bfa70dc02807c74e0277c7,A,2024-07-08_17h52.13.672,Slot Machine Game,2023.1.3,Win32,59.88023952,,,,,,,,,,,,,,,,,,,,,,,,,,,830,,,,,,,,,,,,,,,,,,,,,1,1,,,280.2324,12,up,0.3767,,0.5,0.3,"[2,3,1]",0.991320822,stimuli/card_0_transparent.png,0,12,0,12,0,1,,,,,,,,,,
,,,,60bfa70dc02807c74e0277c7,A,2024-07-08_17h52.13.672,Slot Machine Game,2023.1.3,Win32,59.88023952,,,,,,,,,,,,,,,,,,,,,,,,,,,830,,,,,,,,,,,,,,,,,,,,,1,1,,,281.9341,13,up,0.0839,,0.5,0.3,"[2,3,1]",0.649459014,stimuli/card_0_transparent.png,0,13,0,13,0,1,,,,,,,,,,
,,,,60bfa70dc02807c74e0277c7,A,2024-07-08_17h52.13.672,Slot Machine Game,2023.1.3,Win32,59.88023952,,,,,,,,,,,,,,,,,,,,,,,,,,,840,,,,,,,,,,,,,,,,,,,,,1,1,,,283.3358,14,right,0.5729,,1.5,0.3,"[2,3,1]",0.107891479,stimuli/card_10_transparent.png,10,14,0,14,0,1,,,,,,,,,,
,,,,60bfa70dc02807c74e0277c7,A,2024-07-08_17h52.13.672,Slot Machine Game,2023.1.3,Win32,59.88023952,,,,,,,,,,,,,,,,,,,,,,,,,,,,,,,,,,,286.2392,,,,,,,,,,,,,,,,,,,,,,,,,,,,,,,,,[840],0,0,0,0,1,,,,
,,,,60bfa70dc02807c74e0277c7,A,2024-07-08_17h52.13.672,Slot Machine Game,2023.1.3,Win32,59.88023952,,,,,,,,,,,,,,,,,,,,,,,,,,,100,,,,,,,,,,,,,,,,,,,,,2,5,"[5,15]","[[1,2,3],[3,1,2]]",291.2352,0,left,1.3105,,1,0.3,"[1,2,3]",0.749743814,stimuli/card_100_transparent.png,100,0,0,0,0,1,,,,,,,,,,
,,,,60bfa70dc02807c74e0277c7,A,2024-07-08_17h52.13.672,Slot Machine Game,2023.1.3,Win32,59.88023952,,,,,,,,,,,,,,,,,,,,,,,,,,,200,,,,,,,,,,,,,,,,,,,,,2,5,,,294.3634,1,left,0.2339,,1,0.3,"[1,2,3]",0.818636424,stimuli/card_100_transparent.png,100,1,0,1,0,1,,,,,,,,,,
,,,,60bfa70dc02807c74e0277c7,A,2024-07-08_17h52.13.672,Slot Machine Game,2023.1.3,Win32,59.88023952,,,,,,,,,,,,,,,,,,,,,,,,,,,300,,,,,,,,,,,,,,,,,,,,,2,5,,,296.4154,2,left,0.0505,,1.5,0.3,"[1,2,3]",0.902814371,stimuli/card_100_transparent.png,100,2,0,2,0,1,,,,,,,,,,
,,,,60bfa70dc02807c74e0277c7,A,2024-07-08_17h52.13.672,Slot Machine Game,2023.1.3,Win32,59.88023952,,,,,,,,,,,,,,,,,,,,,,,,,,,310,,,,,,,,,,,,,,,,,,,,,2,5,,,298.7842,3,left,0.101,,1,0.3,"[1,2,3]",0.134578512,stimuli/card_10_transparent.png,10,3,0,3,0,1,,,,,,,,,,
,,,,60bfa70dc02807c74e0277c7,A,2024-07-08_17h52.13.672,Slot Machine Game,2023.1.3,Win32,59.88023952,,,,,,,,,,,,,,,,,,,,,,,,,,,410,,,,,,,,,,,,,,,,,,,,,2,5,,,300.7196,4,left,0.4468,,1,0.3,"[1,2,3]",0.618826997,stimuli/card_100_transparent.png,100,4,0,4,0,1,,,,,,,,,,
,,,,60bfa70dc02807c74e0277c7,A,2024-07-08_17h52.13.672,Slot Machine Game,2023.1.3,Win32,59.88023952,,,,,,,,,,,,,,,,,,,,,,,,,,,510,,,,,,,,,,,,,,,,,,,,,2,5,,,302.9781,5,left,0.6369,,1,0.3,"[3,1,2]",0.020073626,stimuli/card_100_transparent.png,100,5,0,5,0,1,,,,,,,,,,
,,,,60bfa70dc02807c74e0277c7,A,2024-07-08_17h52.13.672,Slot Machine Game,2023.1.3,Win32,59.88023952,,,,,,,,,,,,,,,,,,,,,,,,,,,610,,,,,,,,,,,,,,,,,,,,,2,5,,,305.4411,6,left,0.2171,,1,0.3,"[3,1,2]",0.04707714,stimuli/card_100_transparent.png,100,6,0,6,0,1,,,,,,,,,,
,,,,60bfa70dc02807c74e0277c7,A,2024-07-08_17h52.13.672,Slot Machine Game,2023.1.3,Win32,59.88023952,,,,,,,,,,,,,,,,,,,,,,,,,,,710,,,,,,,,,,,,,,,,,,,,,2,5,,,307.4686,7,left,0.1174,,0.5,0.3,"[3,1,2]",0.079093722,stimuli/card_100_transparent.png,100,7,0,7,0,1,,,,,,,,,,
,,,,60bfa70dc02807c74e0277c7,A,2024-07-08_17h52.13.672,Slot Machine Game,2023.1.3,Win32,59.88023952,,,,,,,,,,,,,,,,,,,,,,,,,,,710,,,,,,,,,,,,,,,,,,,,,2,5,,,308.9111,8,left,0.0265,,1.5,0.3,"[3,1,2]",0.998678209,stimuli/card_0_transparent.png,0,8,0,8,0,1,,,,,,,,,,
,,,,60bfa70dc02807c74e0277c7,A,2024-07-08_17h52.13.672,Slot Machine Game,2023.1.3,Win32,59.88023952,,,,,,,,,,,,,,,,,,,,,,,,,,,710,,,,,,,,,,,,,,,,,,,,,2,5,,,311.2467,9,left,0.1709,,0.5,0.3,"[3,1,2]",0.656727085,stimuli/card_0_transparent.png,0,9,0,9,0,1,,,,,,,,,,
,,,,60bfa70dc02807c74e0277c7,A,2024-07-08_17h52.13.672,Slot Machine Game,2023.1.3,Win32,59.88023952,,,,,,,,,,,,,,,,,,,,,,,,,,,720,,,,,,,,,,,,,,,,,,,,,2,5,,,312.7315,10,up,1.4853,,0.5,0.3,"[3,1,2]",0.114593015,stimuli/card_10_transparent.png,10,10,0,10,0,1,,,,,,,,,,
,,,,60bfa70dc02807c74e0277c7,A,2024-07-08_17h52.13.672,Slot Machine Game,2023.1.3,Win32,59.88023952,,,,,,,,,,,,,,,,,,,,,,,,,,,820,,,,,,,,,,,,,,,,,,,,,2,5,,,315.5345,11,up,0.4245,,1,0.3,"[3,1,2]",0.994015153,stimuli/card_100_transparent.png,100,11,0,11,0,1,,,,,,,,,,
,,,,60bfa70dc02807c74e0277c7,A,2024-07-08_17h52.13.672,Slot Machine Game,2023.1.3,Win32,59.88023952,,,,,,,,,,,,,,,,,,,,,,,,,,,920,,,,,,,,,,,,,,,,,,,,,2,5,,,317.7867,12,up,0.1005,,1,0.3,"[3,1,2]",0.919362251,stimuli/card_100_transparent.png,100,12,0,12,0,1,,,,,,,,,,
,,,,60bfa70dc02807c74e0277c7,A,2024-07-08_17h52.13.672,Slot Machine Game,2023.1.3,Win32,59.88023952,,,,,,,,,,,,,,,,,,,,,,,,,,,1020,,,,,,,,,,,,,,,,,,,,,2,5,,,319.7051,13,up,0.0888,,0.5,0.3,"[3,1,2]",0.341966476,stimuli/card_100_transparent.png,100,13,0,13,0,1,,,,,,,,,,
,,,,60bfa70dc02807c74e0277c7,A,2024-07-08_17h52.13.672,Slot Machine Game,2023.1.3,Win32,59.88023952,,,,,,,,,,,,,,,,,,,,,,,,,,,1120,,,,,,,,,,,,,,,,,,,,,2,5,,,321.1066,14,up,0.1034,,0.5,0.3,"[3,1,2]",0.408183716,stimuli/card_100_transparent.png,100,14,0,14,0,1,,,,,,,,,,
,,,,60bfa70dc02807c74e0277c7,A,2024-07-08_17h52.13.672,Slot Machine Game,2023.1.3,Win32,59.88023952,,,,,,,,,,,,,,,,,,,,,,,,,,,,,,,,,,,322.5247,,,,,,,,,,,,,,,,,,,,,,,,,,,,,,,,,"[840,1120]",1,0,1,0,1,,,,
,,,,60bfa70dc02807c74e0277c7,A,2024-07-08_17h52.13.672,Slot Machine Game,2023.1.3,Win32,59.88023952,,,,,,,,,,,,,,,,,,,,,,,,,,,10,,,,,,,,,,,,,,,,,,,,,3,7,"[9,15]","[[1,3,2],[2,3,1]]",327.5211,0,left,0.336,,1.5,0.3,"[1,3,2]",0.121145794,stimuli/card_10_transparent.png,10,0,0,0,0,1,,,,,,,,,,
,,,,60bfa70dc02807c74e0277c7,A,2024-07-08_17h52.13.672,Slot Machine Game,2023.1.3,Win32,59.88023952,,,,,,,,,,,,,,,,,,,,,,,,,,,110,,,,,,,,,,,,,,,,,,,,,3,7,,,330.1825,1,left,0.0751,,0.5,0.3,"[1,3,2]",0.65117368,stimuli/card_100_transparent.png,100,1,0,1,0,1,,,,,,,,,,
,,,,60bfa70dc02807c74e0277c7,A,2024-07-08_17h52.13.672,Slot Machine Game,2023.1.3,Win32,59.88023952,,,,,,,,,,,,,,,,,,,,,,,,,,,210,,,,,,,,,,,,,,,,,,,,,3,7,,,331.5838,2,left,0.0836,,1,0.3,"[1,3,2]",0.403595052,stimuli/card_100_transparent.png,100,2,0,2,0,1,,,,,,,,,,
,,,,60bfa70dc02807c74e0277c7,A,2024-07-08_17h52.13.672,Slot Machine Game,2023.1.3,Win32,59.88023952,,,,,,,,,,,,,,,,,,,,,,,,,,,310,,,,,,,,,,,,,,,,,,,,,3,7,,,333.4855,3,left,0.0367,,0.5,0.3,"[1,3,2]",0.209811723,stimuli/card_100_transparent.png,100,3,0,3,0,1,,,,,,,,,,
,,,,60bfa70dc02807c74e0277c7,A,2024-07-08_17h52.13.672,Slot Machine Game,2023.1.3,Win32,59.88023952,,,,,,,,,,,,,,,,,,,,,,,,,,,410,,,,,,,,,,,,,,,,,,,,,3,7,,,334.8369,4,left,0.0365,,1.5,0.3,"[1,3,2]",0.865745678,stimuli/card_100_transparent.png,100,4,0,4,0,1,,,,,,,,,,
,,,,60bfa70dc02807c74e0277c7,A,2024-07-08_17h52.13.672,Slot Machine Game,2023.1.3,Win32,59.88023952,,,,,,,,,,,,,,,,,,,,,,,,,,,510,,,,,,,,,,,,,,,,,,,,,3,7,,,337.1893,5,left,0.2174,,0.5,0.3,"[1,3,2]",0.549704479,stimuli/card_100_transparent.png,100,5,0,5,0,1,,,,,,,,,,
,,,,60bfa70dc02807c74e0277c7,A,2024-07-08_17h52.13.672,Slot Machine Game,2023.1.3,Win32,59.88023952,,,,,,,,,,,,,,,,,,,,,,,,,,,610,,,,,,,,,,,,,,,,,,,,,3,7,,,338.7242,6,left,0.2509,,1,0.3,"[1,3,2]",0.769111045,stimuli/card_100_transparent.png,100,6,0,6,0,1,,,,,,,,,,
,,,,60bfa70dc02807c74e0277c7,A,2024-07-08_17h52.13.672,Slot Machine Game,2023.1.3,Win32,59.88023952,,,,,,,,,,,,,,,,,,,,,,,,,,,710,,,,,,,,,,,,,,,,,,,,,3,7,,,340.793,7,left,0.0887,,1,0.3,"[1,3,2]",0.775228912,stimuli/card_100_transparent.png,100,7,0,7,0,1,,,,,,,,,,
,,,,60bfa70dc02807c74e0277c7,A,2024-07-08_17h52.13.672,Slot Machine Game,2023.1.3,Win32,59.88023952,,,,,,,,,,,,,,,,,,,,,,,,,,,810,,,,,,,,,,,,,,,,,,,,,3,7,,,342.6947,8,left,0.0347,,1,0.3,"[1,3,2]",0.3430002,stimuli/card_100_transparent.png,100,8,0,8,0,1,,,,,,,,,,
,,,,60bfa70dc02807c74e0277c7,A,2024-07-08_17h52.13.672,Slot Machine Game,2023.1.3,Win32,59.88023952,,,,,,,,,,,,,,,,,,,,,,,,,,,820,,,,,,,,,,,,,,,,,,,,,3,7,,,344.5468,9,left,1.6025,,1.5,0.3,"[2,3,1]",0.675966523,stimuli/card_10_transparent.png,10,9,0,9,0,1,,,,,,,,,,
,,,,60bfa70dc02807c74e0277c7,A,2024-07-08_17h52.13.672,Slot Machine Game,2023.1.3,Win32,59.88023952,,,,,,,,,,,,,,,,,,,,,,,,,,,820,,,,,,,,,,,,,,,,,,,,,3,7,,,348.484,10,left,0.1609,,0.5,0.3,"[2,3,1]",0.00350327,stimuli/card_0_transparent.png,0,10,0,10,0,1,,,,,,,,,,
,,,,60bfa70dc02807c74e0277c7,A,2024-07-08_17h52.13.672,Slot Machine Game,2023.1.3,Win32,59.88023952,,,,,,,,,,,,,,,,,,,,,,,,,,,820,,,,,,,,,,,,,,,,,,,,,3,7,,,349.9688,11,up,0.457,,1.5,0.3,"[2,3,1]",0.424934093,stimuli/card_0_transparent.png,0,11,0,11,0,1,,,,,,,,,,
,,,,60bfa70dc02807c74e0277c7,A,2024-07-08_17h52.13.672,Slot Machine Game,2023.1.3,Win32,59.88023952,,,,,,,,,,,,,,,,,,,,,,,,,,,820,,,,,,,,,,,,,,,,,,,,,3,7,,,352.7382,12,up,1.4231,,0.5,0.3,"[2,3,1]",0.949117281,stimuli/card_0_transparent.png,0,12,0,12,0,1,,,,,,,,,,
,,,,60bfa70dc02807c74e0277c7,A,2024-07-08_17h52.13.672,Slot Machine Game,2023.1.3,Win32,59.88023952,,,,,,,,,,,,,,,,,,,,,,,,,,,920,,,,,,,,,,,,,,,,,,,,,3,7,,,355.4741,13,right,0.3911,,1.5,0.3,"[2,3,1]",0.929391016,stimuli/card_100_transparent.png,100,13,0,13,0,1,,,,,,,,,,
,,,,60bfa70dc02807c74e0277c7,A,2024-07-08_17h52.13.672,Slot Machine Game,2023.1.3,Win32,59.88023952,,,,,,,,,,,,,,,,,,,,,,,,,,,1020,,,,,,,,,,,,,,,,,,,,,3,7,,,358.177,14,right,0.3204,,1,0.3,"[2,3,1]",0.652467347,stimuli/card_100_transparent.png,100,14,0,14,0,1,,,,,,,,,,
,,,,60bfa70dc02807c74e0277c7,A,2024-07-08_17h52.13.672,Slot Machine Game,2023.1.3,Win32,59.88023952,,,,,,,,,,,,,,,,,,,,,,,,,,,,,,,,,,,360.3125,,,,,,,,,,,,,,,,,,,,,,,,,,,,,,,,,"[840,1120,1020]",2,0,2,0,1,,,,
,,,,60bfa70dc02807c74e0277c7,A,2024-07-08_17h52.13.672,Slot Machine Game,2023.1.3,Win32,59.88023952,,,,,,,,,,,,,,,,,,,,,,,,,,,0,,,,,,,,,,,,,,,,,,,,,4,4,"[7,15]","[[2,3,1],[1,2,3]]",365.3087,0,left,0.2339,,1.5,0.3,"[2,3,1]",0.090938745,stimuli/card_0_transparent.png,0,0,0,0,0,1,,,,,,,,,,
,,,,60bfa70dc02807c74e0277c7,A,2024-07-08_17h52.13.672,Slot Machine Game,2023.1.3,Win32,59.88023952,,,,,,,,,,,,,,,,,,,,,,,,,,,0,,,,,,,,,,,,,,,,,,,,,4,4,,,367.8701,1,left,0.7553,,1.5,0.3,"[2,3,1]",0.040756904,stimuli/card_0_transparent.png,0,1,0,1,0,1,,,,,,,,,,
,,,,60bfa70dc02807c74e0277c7,A,2024-07-08_17h52.13.672,Slot Machine Game,2023.1.3,Win32,59.88023952,,,,,,,,,,,,,,,,,,,,,,,,,,,0,,,,,,,,,,,,,,,,,,,,,4,4,,,370.9396,2,up,0.67,,1.5,0.3,"[2,3,1]",0.446671694,stimuli/card_0_transparent.png,0,2,0,2,0,1,,,,,,,,,,
,,,,60bfa70dc02807c74e0277c7,A,2024-07-08_17h52.13.672,Slot Machine Game,2023.1.3,Win32,59.88023952,,,,,,,,,,,,,,,,,,,,,,,,,,,0,,,,,,,,,,,,,,,,,,,,,4,4,,,373.9259,3,up,0.6796,,1.5,0.3,"[2,3,1]",0.743473898,stimuli/card_0_transparent.png,0,3,0,3,0,1,,,,,,,,,,
,,,,60bfa70dc02807c74e0277c7,A,2024-07-08_17h52.13.672,Slot Machine Game,2023.1.3,Win32,59.88023952,,,,,,,,,,,,,,,,,,,,,,,,,,,0,,,,,,,,,,,,,,,,,,,,,4,4,,,376.9292,4,right,0.5028,,0.5,0.3,"[2,3,1]",0.013035262,stimuli/card_0_transparent.png,0,4,0,4,0,1,,,,,,,,,,
,,,,60bfa70dc02807c74e0277c7,A,2024-07-08_17h52.13.672,Slot Machine Game,2023.1.3,Win32,59.88023952,,,,,,,,,,,,,,,,,,,,,,,,,,,100,,,,,,,,,,,,,,,,,,,,,4,4,,,378.7307,5,right,1.8354,,0.5,0.3,"[2,3,1]",0.898627874,stimuli/card_100_transparent.png,100,5,0,5,0,1,,,,,,,,,,
,,,,60bfa70dc02807c74e0277c7,A,2024-07-08_17h52.13.672,Slot Machine Game,2023.1.3,Win32,59.88023952,,,,,,,,,,,,,,,,,,,,,,,,,,,200,,,,,,,,,,,,,,,,,,,,,4,4,,,381.8839,6,right,0.4056,,0.5,0.3,"[2,3,1]",0.335195135,stimuli/card_100_transparent.png,100,6,0,6,0,1,,,,,,,,,,
,,,,60bfa70dc02807c74e0277c7,A,2024-07-08_17h52.13.672,Slot Machine Game,2023.1.3,Win32,59.88023952,,,,,,,,,,,,,,,,,,,,,,,,,,,200,,,,,,,,,,,,,,,,,,,,,4,4,,,383.6024,7,right,0.3034,,1,0.3,"[1,2,3]",0.389759947,stimuli/card_0_transparent.png,0,7,0,7,0,1,,,,,,,,,,
,,,,60bfa70dc02807c74e0277c7,A,2024-07-08_17h52.13.672,Slot Machine Game,2023.1.3,Win32,59.88023952,,,,,,,,,,,,,,,,,,,,,,,,,,,210,,,,,,,,,,,,,,,,,,,,,4,4,,,385.7212,8,right,0.9179,,1,0.3,"[1,2,3]",0.167473813,stimuli/card_10_transparent.png,10,8,0,8,0,1,,,,,,,,,,
,,,,60bfa70dc02807c74e0277c7,A,2024-07-08_17h52.13.672,Slot Machine Game,2023.1.3,Win32,59.88023952,,,,,,,,,,,,,,,,,,,,,,,,,,,310,,,,,,,,,,,,,,,,,,,,,4,4,,,388.4739,9,left,0.3964,,1.5,0.3,"[1,2,3]",0.909839751,stimuli/card_100_transparent.png,100,9,0,9,0,1,,,,,,,,,,
,,,,60bfa70dc02807c74e0277c7,A,2024-07-08_17h52.13.672,Slot Machine Game,2023.1.3,Win32,59.88023952,,,,,,,,,,,,,,,,,,,,,,,,,,,320,,,,,,,,,,,,,,,,,,,,,4,4,,,391.1936,10,left,0.4537,,1.5,0.3,"[1,2,3]",0.124325282,stimuli/card_10_transparent.png,10,10,0,10,0,1,,,,,,,,,,
,,,,60bfa70dc02807c74e0277c7,A,2024-07-08_17h52.13.672,Slot Machine Game,2023.1.3,Win32,59.88023952,,,,,,,,,,,,,,,,,,,,,,,,,,,420,,,,,,,,,,,,,,,,,,,,,4,4,,,393.9793,11,left,0.5742,,1.5,0.3,"[1,2,3]",0.747350749,stimuli/card_100_transparent.png,100,11,0,11,0,1,,,,,,,,,,
,,,,60bfa70dc02807c74e0277c7,A,2024-07-08_17h52.13.672,Slot Machine Game,2023.1.3,Win32,59.88023952,,,,,,,,,,,,,,,,,,,,,,,,,,,520,,,,,,,,,,,,,,,,,,,,,4,4,,,396.8655,12,left,0.4006,,0.5,0.3,"[1,2,3]",0.745762495,stimuli/card_100_transparent.png,100,12,0,12,0,1,,,,,,,,,,
,,,,60bfa70dc02807c74e0277c7,A,2024-07-08_17h52.13.672,Slot Machine Game,2023.1.3,Win32,59.88023952,,,,,,,,,,,,,,,,,,,,,,,,,,,620,,,,,,,,,,,,,,,,,,,,,4,4,,,398.5839,13,left,0.1555,,1,0.3,"[1,2,3]",0.418302813,stimuli/card_100_transparent.png,100,13,0,13,0,1,,,,,,,,,,
,,,,60bfa70dc02807c74e0277c7,A,2024-07-08_17h52.13.672,Slot Machine Game,2023.1.3,Win32,59.88023952,,,,,,,,,,,,,,,,,,,,,,,,,,,620,,,,,,,,,,,,,,,,,,,,,4,4,,,400.5525,14,left,0.5849,,0.5,0.3,"[1,2,3]",0.07107069,stimuli/card_0_transparent.png,0,14,0,14,0,1,,,,,,,,,,
,,,,60bfa70dc02807c74e0277c7,A,2024-07-08_17h52.13.672,Slot Machine Game,2023.1.3,Win32,59.88023952,,,,,,,,,,,,,,,,,,,,,,,,,,,,,,,,,,,402.4773,,,,,,,,,,,,,,,,,,,,,,,,,,,,,,,,,"[840,1120,1020,620]",3,0,3,0,1,,,,
,,,,60bfa70dc02807c74e0277c7,A,2024-07-08_17h52.13.672,Slot Machine Game,2023.1.3,Win32,59.88023952,,,,,,,,,,,,,,,,,,,,,,,,,,,10,,,,,,,,,,,,,,,,,,,,,5,6,"[4,10,15]","[[2,3,1],[1,3,2],[3,2,1]]",407.4847,0,left,1.2403,,1,0.3,"[2,3,1]",0.651432767,stimuli/card_10_transparent.png,10,0,0,0,0,1,,,,,,,,,,
,,,,60bfa70dc02807c74e0277c7,A,2024-07-08_17h52.13.672,Slot Machine Game,2023.1.3,Win32,59.88023952,,,,,,,,,,,,,,,,,,,,,,,,,,,20,,,,,,,,,,,,,,,,,,,,,5,6,,,410.5627,1,left,0.4515,,1.5,0.3,"[2,3,1]",0.774343908,stimuli/card_10_transparent.png,10,1,0,1,0,1,,,,,,,,,,
,,,,60bfa70dc02807c74e0277c7,A,2024-07-08_17h52.13.672,Slot Machine Game,2023.1.3,Win32,59.88023952,,,,,,,,,,,,,,,,,,,,,,,,,,,20,,,,,,,,,,,,,,,,,,,,,5,6,,,413.3154,2,up,0.4342,,1.5,0.3,"[2,3,1]",0.860059487,stimuli/card_0_transparent.png,0,2,0,2,0,1,,,,,,,,,,
,,,,60bfa70dc02807c74e0277c7,A,2024-07-08_17h52.13.672,Slot Machine Game,2023.1.3,Win32,59.88023952,,,,,,,,,,,,,,,,,,,,,,,,,,,20,,,,,,,,,,,,,,,,,,,,,5,6,,,416.0681,3,up,0.7893,,1,0.3,"[2,3,1]",0.219299269,stimuli/card_0_transparent.png,0,3,0,3,0,1,,,,,,,,,,
,,,,60bfa70dc02807c74e0277c7,A,2024-07-08_17h52.13.672,Slot Machine Game,2023.1.3,Win32,59.88023952,,,,,,,,,,,,,,,,,,,,,,,,,,,30,,,,,,,,,,,,,,,,,,,,,5,6,,,418.6875,4,right,0.0003,,0.5,0.3,"[1,3,2]",0.827516277,stimuli/card_10_transparent.png,10,4,0,4,0,1,,,,,,,,,,
,,,,60bfa70dc02807c74e0277c7,A,2024-07-08_17h52.13.672,Slot Machine Game,2023.1.3,Win32,59.88023952,,,,,,,,,,,,,,,,,,,,,,,,,,,30,,,,,,,,,,,,,,,,,,,,,5,6,,,420.0053,5,right,0.3341,,0.5,0.3,"[1,3,2]",0.011770435,stimuli/card_0_transparent.png,0,5,0,5,0,1,,,,,,,,,,
,,,,60bfa70dc02807c74e0277c7,A,2024-07-08_17h52.13.672,Slot Machine Game,2023.1.3,Win32,59.88023952,,,,,,,,,,,,,,,,,,,,,,,,,,,130,,,,,,,,,,,,,,,,,,,,,5,6,,,421.657,6,left,0.1768,,0.5,0.3,"[1,3,2]",0.918093195,stimuli/card_100_transparent.png,100,6,0,6,0,1,,,,,,,,,,
,,,,60bfa70dc02807c74e0277c7,A,2024-07-08_17h52.13.672,Slot Machine Game,2023.1.3,Win32,59.88023952,,,,,,,,,,,,,,,,,,,,,,,,,,,230,,,,,,,,,,,,,,,,,,,,,5,6,,,423.1417,7,left,0.3399,,1.5,0.3,"[1,3,2]",0.732990088,stimuli/card_100_transparent.png,100,7,0,7,0,1,,,,,,,,,,
,,,,60bfa70dc02807c74e0277c7,A,2024-07-08_17h52.13.672,Slot Machine Game,2023.1.3,Win32,59.88023952,,,,,,,,,,,,,,,,,,,,,,,,,,,240,,,,,,,,,,,,,,,,,,,,,5,6,,,425.7943,8,left,0.1351,,1,0.3,"[1,3,2]",0.148313194,stimuli/card_10_transparent.png,10,8,0,8,0,1,,,,,,,,,,
,,,,60bfa70dc02807c74e0277c7,A,2024-07-08_17h52.13.672,Slot Machine Game,2023.1.3,Win32,59.88023952,,,,,,,,,,,,,,,,,,,,,,,,,,,250,,,,,,,,,,,,,,,,,,,,,5,6,,,427.7463,9,left,0.3033,,1.5,0.3,"[1,3,2]",0.193619712,stimuli/card_10_transparent.png,10,9,0,9,0,1,,,,,,,,,,
,,,,60bfa70dc02807c74e0277c7,A,2024-07-08_17h52.13.672,Slot Machine Game,2023.1.3,Win32,59.88023952,,,,,,,,,,,,,,,,,,,,,,,,,,,260,,,,,,,,,,,,,,,,,,,,,5,6,,,430.3658,10,up,0.1839,,1.5,0.3,"[3,2,1]",0.429069705,stimuli/card_10_transparent.png,10,10,0,10,0,1,,,,,,,,,,
,,,,60bfa70dc02807c74e0277c7,A,2024-07-08_17h52.13.672,Slot Machine Game,2023.1.3,Win32,59.88023952,,,,,,,,,,,,,,,,,,,,,,,,,,,360,,,,,,,,,,,,,,,,,,,,,5,6,,,432.8682,11,up,0.4213,,0.5,0.3,"[3,2,1]",0.165236762,stimuli/card_100_transparent.png,100,11,0,11,0,1,,,,,,,,,,
,,,,60bfa70dc02807c74e0277c7,A,2024-07-08_17h52.13.672,Slot Machine Game,2023.1.3,Win32,59.88023952,,,,,,,,,,,,,,,,,,,,,,,,,,,370,,,,,,,,,,,,,,,,,,,,,5,6,,,434.6034,12,up,0.3504,,1,0.3,"[3,2,1]",0.867940835,stimuli/card_10_transparent.png,10,12,0,12,0,1,,,,,,,,,,
,,,,60bfa70dc02807c74e0277c7,A,2024-07-08_17h52.13.672,Slot Machine Game,2023.1.3,Win32,59.88023952,,,,,,,,,,,,,,,,,,,,,,,,,,,380,,,,,,,,,,,,,,,,,,,,,5,6,,,436.7721,13,up,0.6511,,1,0.3,"[3,2,1]",0.947105821,stimuli/card_10_transparent.png,10,13,0,13,0,1,,,,,,,,,,
,,,,60bfa70dc02807c74e0277c7,A,2024-07-08_17h52.13.672,Slot Machine Game,2023.1.3,Win32,59.88023952,,,,,,,,,,,,,,,,,,,,,,,,,,,480,,,,,,,,,,,,,,,,,,,,,5,6,,,439.2412,14,right,0.1593,,0.5,0.3,"[3,2,1]",0.994079245,stimuli/card_100_transparent.png,100,14,0,14,0,1,,,,,,,,,,
,,,,60bfa70dc02807c74e0277c7,A,2024-07-08_17h52.13.672,Slot Machine Game,2023.1.3,Win32,59.88023952,,,,,,,,,,,,,,,,,,,,,,,,,,,,,,,,,,,440.726,,,,,,,,,,,,,,,,,,,,,,,,,,,,,,,,,"[840,1120,1020,620,480]",4,0,4,0,1,,,,
,,,,60bfa70dc02807c74e0277c7,A,2024-07-08_17h52.13.672,Slot Machine Game,2023.1.3,Win32,59.88023952,,,,,,,,,,,,,,,,,,,,,,,,,,,10,,,,,,,,,,,,,,,,,,,,,6,8,"[11,15]","[[2,1,3],[1,2,3]]",445.7224,0,left,0.3908,,1,0.3,"[2,1,3]",0.901620343,stimuli/card_10_transparent.png,10,0,0,0,0,1,,,,,,,,,,
,,,,60bfa70dc02807c74e0277c7,A,2024-07-08_17h52.13.672,Slot Machine Game,2023.1.3,Win32,59.88023952,,,,,,,,,,,,,,,,,,,,,,,,,,,10,,,,,,,,,,,,,,,,,,,,,6,8,,,447.9332,1,left,0.2341,,1.5,0.3,"[2,1,3]",0.053601637,stimuli/card_0_transparent.png,0,1,0,1,0,1,,,,,,,,,,
,,,,60bfa70dc02807c74e0277c7,A,2024-07-08_17h52.13.672,Slot Machine Game,2023.1.3,Win32,59.88023952,,,,,,,,,,,,,,,,,,,,,,,,,,,20,,,,,,,,,,,,,,,,,,,,,6,8,,,450.4858,2,up,0.4358,,1.5,0.3,"[2,1,3]",0.177447866,stimuli/card_10_transparent.png,10,2,0,2,0,1,,,,,,,,,,
,,,,60bfa70dc02807c74e0277c7,A,2024-07-08_17h52.13.672,Slot Machine Game,2023.1.3,Win32,59.88023952,,,,,,,,,,,,,,,,,,,,,,,,,,,30,,,,,,,,,,,,,,,,,,,,,6,8,,,453.2388,3,up,0.5016,,0.5,0.3,"[2,1,3]",0.155228257,stimuli/card_10_transparent.png,10,3,0,3,0,1,,,,,,,,,,
,,,,60bfa70dc02807c74e0277c7,A,2024-07-08_17h52.13.672,Slot Machine Game,2023.1.3,Win32,59.88023952,,,,,,,,,,,,,,,,,,,,,,,,,,,30,,,,,,,,,,,,,,,,,,,,,6,8,,,455.0736,4,right,0.4175,,1.5,0.3,"[2,1,3]",0.618091737,stimuli/card_0_transparent.png,0,4,0,4,0,1,,,,,,,,,,
,,,,60bfa70dc02807c74e0277c7,A,2024-07-08_17h52.13.672,Slot Machine Game,2023.1.3,Win32,59.88023952,,,,,,,,,,,,,,,,,,,,,,,,,,,30,,,,,,,,,,,,,,,,,,,,,6,8,,,457.8098,5,right,0.2336,,1,0.3,"[2,1,3]",0.891233437,stimuli/card_0_transparent.png,0,5,0,5,0,1,,,,,,,,,,
,,,,60bfa70dc02807c74e0277c7,A,2024-07-08_17h52.13.672,Slot Machine Game,2023.1.3,Win32,59.88023952,,,,,,,,,,,,,,,,,,,,,,,,,,,40,,,,,,,,,,,,,,,,,,,,,6,8,,,459.8618,6,left,0.2512,,1.5,0.3,"[2,1,3]",0.585492553,stimuli/card_10_transparent.png,10,6,0,6,0,1,,,,,,,,,,
,,,,60bfa70dc02807c74e0277c7,A,2024-07-08_17h52.13.672,Slot Machine Game,2023.1.3,Win32,59.88023952,,,,,,,,,,,,,,,,,,,,,,,,,,,140,,,,,,,,,,,,,,,,,,,,,6,8,,,462.4476,7,up,0.4259,,0.5,0.3,"[2,1,3]",0.68512692,stimuli/card_100_transparent.png,100,7,0,7,0,1,,,,,,,,,,
,,,,60bfa70dc02807c74e0277c7,A,2024-07-08_17h52.13.672,Slot Machine Game,2023.1.3,Win32,59.88023952,,,,,,,,,,,,,,,,,,,,,,,,,,,240,,,,,,,,,,,,,,,,,,,,,6,8,,,464.1828,8,up,0.1356,,1.5,0.3,"[2,1,3]",0.972399197,stimuli/card_100_transparent.png,100,8,0,8,0,1,,,,,,,,,,
,,,,60bfa70dc02807c74e0277c7,A,2024-07-08_17h52.13.672,Slot Machine Game,2023.1.3,Win32,59.88023952,,,,,,,,,,,,,,,,,,,,,,,,,,,340,,,,,,,,,,,,,,,,,,,,,6,8,,,466.6353,9,up,0.1018,,1,0.3,"[2,1,3]",0.916110563,stimuli/card_100_transparent.png,100,9,0,9,0,1,,,,,,,,,,
,,,,60bfa70dc02807c74e0277c7,A,2024-07-08_17h52.13.672,Slot Machine Game,2023.1.3,Win32,59.88023952,,,,,,,,,,,,,,,,,,,,,,,,,,,440,,,,,,,,,,,,,,,,,,,,,6,8,,,468.5538,10,up,0.168,,0.5,0.3,"[2,1,3]",0.238605561,stimuli/card_100_transparent.png,100,10,0,10,0,1,,,,,,,,,,
,,,,60bfa70dc02807c74e0277c7,A,2024-07-08_17h52.13.672,Slot Machine Game,2023.1.3,Win32,59.88023952,,,,,,,,,,,,,,,,,,,,,,,,,,,450,,,,,,,,,,,,,,,,,,,,,6,8,,,470.0246,11,up,0.251,,1,0.3,"[1,2,3]",0.330821881,stimuli/card_10_transparent.png,10,11,0,11,0,1,,,,,,,,,,
,,,,60bfa70dc02807c74e0277c7,A,2024-07-08_17h52.13.672,Slot Machine Game,2023.1.3,Win32,59.88023952,,,,,,,,,,,,,,,,,,,,,,,,,,,460,,,,,,,,,,,,,,,,,,,,,6,8,,,472.1075,12,up,0.5097,,1.5,0.3,"[1,2,3]",0.278017253,stimuli/card_10_transparent.png,10,12,0,12,0,1,,,,,,,,,,
,,,,60bfa70dc02807c74e0277c7,A,2024-07-08_17h52.13.672,Slot Machine Game,2023.1.3,Win32,59.88023952,,,,,,,,,,,,,,,,,,,,,,,,,,,460,,,,,,,,,,,,,,,,,,,,,6,8,,,474.9268,13,right,0.084,,1,0.3,"[1,2,3]",0.714675229,stimuli/card_0_transparent.png,0,13,0,13,0,1,,,,,,,,,,
,,,,60bfa70dc02807c74e0277c7,A,2024-07-08_17h52.13.672,Slot Machine Game,2023.1.3,Win32,59.88023952,,,,,,,,,,,,,,,,,,,,,,,,,,,470,,,,,,,,,,,,,,,,,,,,,6,8,,,476.8287,14,left,0.0339,,1.5,0.3,"[1,2,3]",0.191455533,stimuli/card_10_transparent.png,10,14,0,14,0,1,,,,,,,,,,
,,,,60bfa70dc02807c74e0277c7,A,2024-07-08_17h52.13.672,Slot Machine Game,2023.1.3,Win32,59.88023952,,,,,,,,,,,,,,,,,,,,,,,,,,,,,,,,,,,479.181,,,,,,,,,,,,,,,,,,,,,,,,,,,,,,,,,"[840,1120,1020,620,480,470]",5,0,5,0,1,,,,
,,,,60bfa70dc02807c74e0277c7,A,2024-07-08_17h52.13.672,Slot Machine Game,2023.1.3,Win32,59.88023952,,,,,,,,,,,,,,,,,,,,,,,,,,,0,,,,,,,,,,,,,,,,,,,,,7,9,"[8,15]","[[3,2,1],[3,1,2]]",484.1776,0,left,0.7177,,1,0.3,"[3,2,1]",0.687343724,stimuli/card_0_transparent.png,0,0,0,0,0,1,,,,,,,,,,
,,,,60bfa70dc02807c74e0277c7,A,2024-07-08_17h52.13.672,Slot Machine Game,2023.1.3,Win32,59.88023952,,,,,,,,,,,,,,,,,,,,,,,,,,,0,,,,,,,,,,,,,,,,,,,,,7,9,,,486.722,1,left,0.2075,,0.5,0.3,"[3,2,1]",0.888923769,stimuli/card_0_transparent.png,0,1,0,1,0,1,,,,,,,,,,
,,,,60bfa70dc02807c74e0277c7,A,2024-07-08_17h52.13.672,Slot Machine Game,2023.1.3,Win32,59.88023952,,,,,,,,,,,,,,,,,,,,,,,,,,,0,,,,,,,,,,,,,,,,,,,,,7,9,,,488.2403,2,up,0.4341,,0.5,0.3,"[3,2,1]",0.023888826,stimuli/card_0_transparent.png,0,2,0,2,0,1,,,,,,,,,,
,,,,60bfa70dc02807c74e0277c7,A,2024-07-08_17h52.13.672,Slot Machine Game,2023.1.3,Win32,59.88023952,,,,,,,,,,,,,,,,,,,,,,,,,,,10,,,,,,,,,,,,,,,,,,,,,7,9,,,489.992,3,up,0.8418,,1,0.3,"[3,2,1]",0.868306578,stimuli/card_10_transparent.png,10,3,0,3,0,1,,,,,,,,,,
,,,,60bfa70dc02807c74e0277c7,A,2024-07-08_17h52.13.672,Slot Machine Game,2023.1.3,Win32,59.88023952,,,,,,,,,,,,,,,,,,,,,,,,,,,110,,,,,,,,,,,,,,,,,,,,,7,9,,,492.6451,4,right,0.1408,,1,0.3,"[3,2,1]",0.533766837,stimuli/card_100_transparent.png,100,4,0,4,0,1,,,,,,,,,,
,,,,60bfa70dc02807c74e0277c7,A,2024-07-08_17h52.13.672,Slot Machine Game,2023.1.3,Win32,59.88023952,,,,,,,,,,,,,,,,,,,,,,,,,,,110,,,,,,,,,,,,,,,,,,,,,7,9,,,494.5964,5,right,0.0336,,1.5,0.3,"[3,2,1]",0.018808995,stimuli/card_0_transparent.png,0,5,0,5,0,1,,,,,,,,,,
,,,,60bfa70dc02807c74e0277c7,A,2024-07-08_17h52.13.672,Slot Machine Game,2023.1.3,Win32,59.88023952,,,,,,,,,,,,,,,,,,,,,,,,,,,210,,,,,,,,,,,,,,,,,,,,,7,9,,,496.9489,6,right,0.2171,,1,0.3,"[3,2,1]",0.446245054,stimuli/card_100_transparent.png,100,6,0,6,0,1,,,,,,,,,,
,,,,60bfa70dc02807c74e0277c7,A,2024-07-08_17h52.13.672,Slot Machine Game,2023.1.3,Win32,59.88023952,,,,,,,,,,,,,,,,,,,,,,,,,,,310,,,,,,,,,,,,,,,,,,,,,7,9,,,498.9842,7,right,0.5216,,1,0.3,"[3,2,1]",0.684365746,stimuli/card_100_transparent.png,100,7,0,7,0,1,,,,,,,,,,
,,,,60bfa70dc02807c74e0277c7,A,2024-07-08_17h52.13.672,Slot Machine Game,2023.1.3,Win32,59.88023952,,,,,,,,,,,,,,,,,,,,,,,,,,,320,,,,,,,,,,,,,,,,,,,,,7,9,,,501.3199,8,right,0.3008,,0.5,0.3,"[3,1,2]",0.494461269,stimuli/card_10_transparent.png,10,8,0,8,0,1,,,,,,,,,,
,,,,60bfa70dc02807c74e0277c7,A,2024-07-08_17h52.13.672,Slot Machine Game,2023.1.3,Win32,59.88023952,,,,,,,,,,,,,,,,,,,,,,,,,,,330,,,,,,,,,,,,,,,,,,,,,7,9,,,502.9383,9,right,0.6188,,0.5,0.3,"[3,1,2]",0.451386463,stimuli/card_10_transparent.png,10,9,0,9,0,1,,,,,,,,,,
,,,,60bfa70dc02807c74e0277c7,A,2024-07-08_17h52.13.672,Slot Machine Game,2023.1.3,Win32,59.88023952,,,,,,,,,,,,,,,,,,,,,,,,,,,340,,,,,,,,,,,,,,,,,,,,,7,9,,,504.8629,10,right,0.6964,,1.5,0.3,"[3,1,2]",0.249626869,stimuli/card_10_transparent.png,10,10,0,10,0,1,,,,,,,,,,
,,,,60bfa70dc02807c74e0277c7,A,2024-07-08_17h52.13.672,Slot Machine Game,2023.1.3,Win32,59.88023952,,,,,,,,,,,,,,,,,,,,,,,,,,,340,,,,,,,,,,,,,,,,,,,,,7,9,,,507.8931,11,left,0.2347,,1,0.3,"[3,1,2]",0.511644579,stimuli/card_0_transparent.png,0,11,0,11,0,1,,,,,,,,,,
,,,,60bfa70dc02807c74e0277c7,A,2024-07-08_17h52.13.672,Slot Machine Game,2023.1.3,Win32,59.88023952,,,,,,,,,,,,,,,,,,,,,,,,,,,340,,,,,,,,,,,,,,,,,,,,,7,9,,,509.9452,12,up,0.5597,,1.5,0.3,"[3,1,2]",0.066048997,stimuli/card_0_transparent.png,0,12,0,12,0,1,,,,,,,,,,
,,,,60bfa70dc02807c74e0277c7,A,2024-07-08_17h52.13.672,Slot Machine Game,2023.1.3,Win32,59.88023952,,,,,,,,,,,,,,,,,,,,,,,,,,,350,,,,,,,,,,,,,,,,,,,,,7,9,,,512.8147,13,right,0.3161,,0.5,0.3,"[3,1,2]",0.498309423,stimuli/card_10_transparent.png,10,13,0,13,0,1,,,,,,,,,,
,,,,60bfa70dc02807c74e0277c7,A,2024-07-08_17h52.13.672,Slot Machine Game,2023.1.3,Win32,59.88023952,,,,,,,,,,,,,,,,,,,,,,,,,,,350,,,,,,,,,,,,,,,,,,,,,7,9,,,514.4496,14,left,0.1678,,1.5,0.3,"[3,1,2]",0.412536019,stimuli/card_0_transparent.png,0,14,0,14,0,1,,,,,,,,,,
,,,,60bfa70dc02807c74e0277c7,A,2024-07-08_17h52.13.672,Slot Machine Game,2023.1.3,Win32,59.88023952,,,,,,,,,,,,,,,,,,,,,,,,,,,,,,,,,,,516.9355,,,,,,,,,,,,,,,,,,,,,,,,,,,,,,,,,"[840,1120,1020,620,480,470,350]",6,0,6,0,1,,,,
,,,,60bfa70dc02807c74e0277c7,A,2024-07-08_17h52.13.672,Slot Machine Game,2023.1.3,Win32,59.88023952,,,,,,,,,,,,,,,,,,,,,,,,,,,100,,,,,,,,,,,,,,,,,,,,,8,2,"[6,15]","[[1,3,2],[3,2,1]]",521.9321,0,left,0.4891,,0.5,0.3,"[1,3,2]",0.406382936,stimuli/card_100_transparent.png,100,0,0,0,0,1,,,,,,,,,,
,,,,60bfa70dc02807c74e0277c7,A,2024-07-08_17h52.13.672,Slot Machine Game,2023.1.3,Win32,59.88023952,,,,,,,,,,,,,,,,,,,,,,,,,,,200,,,,,,,,,,,,,,,,,,,,,8,2,,,523.7422,1,left,0.2009,,1.5,0.3,"[1,3,2]",0.803288634,stimuli/card_100_transparent.png,100,1,0,1,0,1,,,,,,,,,,
,,,,60bfa70dc02807c74e0277c7,A,2024-07-08_17h52.13.672,Slot Machine Game,2023.1.3,Win32,59.88023952,,,,,,,,,,,,,,,,,,,,,,,,,,,300,,,,,,,,,,,,,,,,,,,,,8,2,,,526.2613,2,left,0.567,,0.5,0.3,"[1,3,2]",0.649128137,stimuli/card_100_transparent.png,100,2,0,2,0,1,,,,,,,,,,
,,,,60bfa70dc02807c74e0277c7,A,2024-07-08_17h52.13.672,Slot Machine Game,2023.1.3,Win32,59.88023952,,,,,,,,,,,,,,,,,,,,,,,,,,,400,,,,,,,,,,,,,,,,,,,,,8,2,,,528.1467,3,left,0.4024,,1,0.3,"[1,3,2]",0.520927466,stimuli/card_100_transparent.png,100,3,0,3,0,1,,,,,,,,,,
,,,,60bfa70dc02807c74e0277c7,A,2024-07-08_17h52.13.672,Slot Machine Game,2023.1.3,Win32,59.88023952,,,,,,,,,,,,,,,,,,,,,,,,,,,500,,,,,,,,,,,,,,,,,,,,,8,2,,,530.3655,4,left,0.3562,,1.5,0.3,"[1,3,2]",0.743638103,stimuli/card_100_transparent.png,100,4,0,4,0,1,,,,,,,,,,
,,,,60bfa70dc02807c74e0277c7,A,2024-07-08_17h52.13.672,Slot Machine Game,2023.1.3,Win32,59.88023952,,,,,,,,,,,,,,,,,,,,,,,,,,,600,,,,,,,,,,,,,,,,,,,,,8,2,,,533.0266,5,left,0.0835,,1,0.3,"[1,3,2]",0.457856108,stimuli/card_100_transparent.png,100,5,0,5,0,1,,,,,,,,,,
,,,,60bfa70dc02807c74e0277c7,A,2024-07-08_17h52.13.672,Slot Machine Game,2023.1.3,Win32,59.88023952,,,,,,,,,,,,,,,,,,,,,,,,,,,600,,,,,,,,,,,,,,,,,,,,,8,2,,,534.9204,6,left,0.2247,,1,0.3,"[3,2,1]",0.857457422,stimuli/card_0_transparent.png,0,6,0,6,0,1,,,,,,,,,,
,,,,60bfa70dc02807c74e0277c7,A,2024-07-08_17h52.13.672,Slot Machine Game,2023.1.3,Win32,59.88023952,,,,,,,,,,,,,,,,,,,,,,,,,,,600,,,,,,,,,,,,,,,,,,,,,8,2,,,536.9721,7,left,0.3503,,1,0.3,"[3,2,1]",0.751244964,stimuli/card_0_transparent.png,0,7,0,7,0,1,,,,,,,,,,
,,,,60bfa70dc02807c74e0277c7,A,2024-07-08_17h52.13.672,Slot Machine Game,2023.1.3,Win32,59.88023952,,,,,,,,,,,,,,,,,,,,,,,,,,,610,,,,,,,,,,,,,,,,,,,,,8,2,,,539.1243,8,up,0.1506,,0.5,0.3,"[3,2,1]",0.899699222,stimuli/card_10_transparent.png,10,8,0,8,0,1,,,,,,,,,,
,,,,60bfa70dc02807c74e0277c7,A,2024-07-08_17h52.13.672,Slot Machine Game,2023.1.3,Win32,59.88023952,,,,,,,,,,,,,,,,,,,,,,,,,,,610,,,,,,,,,,,,,,,,,,,,,8,2,,,540.5929,9,up,0.2672,,1.5,0.3,"[3,2,1]",0.055526757,stimuli/card_0_transparent.png,0,9,0,9,0,1,,,,,,,,,,
,,,,60bfa70dc02807c74e0277c7,A,2024-07-08_17h52.13.672,Slot Machine Game,2023.1.3,Win32,59.88023952,,,,,,,,,,,,,,,,,,,,,,,,,,,710,,,,,,,,,,,,,,,,,,,,,8,2,,,543.1783,10,right,0.2393,,0.5,0.3,"[3,2,1]",0.984035961,stimuli/card_100_transparent.png,100,10,0,10,0,1,,,,,,,,,,
,,,,60bfa70dc02807c74e0277c7,A,2024-07-08_17h52.13.672,Slot Machine Game,2023.1.3,Win32,59.88023952,,,,,,,,,,,,,,,,,,,,,,,,,,,810,,,,,,,,,,,,,,,,,,,,,8,2,,,544.7464,11,right,0.6069,,1,0.3,"[3,2,1]",0.545635461,stimuli/card_100_transparent.png,100,11,0,11,0,1,,,,,,,,,,
,,,,60bfa70dc02807c74e0277c7,A,2024-07-08_17h52.13.672,Slot Machine Game,2023.1.3,Win32,59.88023952,,,,,,,,,,,,,,,,,,,,,,,,,,,910,,,,,,,,,,,,,,,,,,,,,8,2,,,547.1656,12,right,0.034,,0.5,0.3,"[3,2,1]",0.538130075,stimuli/card_100_transparent.png,100,12,0,12,0,1,,,,,,,,,,
,,,,60bfa70dc02807c74e0277c7,A,2024-07-08_17h52.13.672,Slot Machine Game,2023.1.3,Win32,59.88023952,,,,,,,,,,,,,,,,,,,,,,,,,,,1010,,,,,,,,,,,,,,,,,,,,,8,2,,,548.5337,13,right,0.0175,,1,0.3,"[3,2,1]",0.950215708,stimuli/card_100_transparent.png,100,13,0,13,0,1,,,,,,,,,,
,,,,60bfa70dc02807c74e0277c7,A,2024-07-08_17h52.13.672,Slot Machine Game,2023.1.3,Win32,59.88023952,,,,,,,,,,,,,,,,,,,,,,,,,,,1010,,,,,,,,,,,,,,,,,,,,,8,2,,,550.3754,14,right,0.7198,,1,0.3,"[3,2,1]",0.007003375,stimuli/card_0_transparent.png,0,14,0,14,0,1,,,,,,,,,,
,,,,60bfa70dc02807c74e0277c7,A,2024-07-08_17h52.13.672,Slot Machine Game,2023.1.3,Win32,59.88023952,,,,,,,,,,,,,,,,,,,,,,,,,,,,,,,,,,,552.9214,,,,,,,,,,,,,,,,,,,,,,,,,,,,,,,,,"[840,1120,1020,620,480,470,350,1010]",7,0,7,0,1,,,,
,,,,60bfa70dc02807c74e0277c7,A,2024-07-08_17h52.13.672,Slot Machine Game,2023.1.3,Win32,59.88023952,,,,,,,,,,,,,,,,,,,,,,,,,,,0,,,,,,,,,,,,,,,,,,,,,9,10,"[10,15]","[[3,1,2],[1,3,2]]",557.9178,0,left,0.6174,,1.5,0.3,"[3,1,2]",0.274451135,stimuli/card_0_transparent.png,0,0,0,0,0,1,,,,,,,,,,
,,,,60bfa70dc02807c74e0277c7,A,2024-07-08_17h52.13.672,Slot Machine Game,2023.1.3,Win32,59.88023952,,,,,,,,,,,,,,,,,,,,,,,,,,,100,,,,,,,,,,,,,,,,,,,,,9,10,,,560.8627,1,left,1.3354,,1.5,0.3,"[3,1,2]",0.014844003,stimuli/card_100_transparent.png,100,1,0,1,0,1,,,,,,,,,,
,,,,60bfa70dc02807c74e0277c7,A,2024-07-08_17h52.13.672,Slot Machine Game,2023.1.3,Win32,59.88023952,,,,,,,,,,,,,,,,,,,,,,,,,,,200,,,,,,,,,,,,,,,,,,,,,9,10,,,564.5329,2,left,0.5177,,1,0.3,"[3,1,2]",0.048708639,stimuli/card_100_transparent.png,100,2,0,2,0,1,,,,,,,,,,
,,,,60bfa70dc02807c74e0277c7,A,2024-07-08_17h52.13.672,Slot Machine Game,2023.1.3,Win32,59.88023952,,,,,,,,,,,,,,,,,,,,,,,,,,,200,,,,,,,,,,,,,,,,,,,,,9,10,,,566.8689,3,left,0.3671,,1.5,0.3,"[3,1,2]",0.729131984,stimuli/card_0_transparent.png,0,3,0,3,0,1,,,,,,,,,,
,,,,60bfa70dc02807c74e0277c7,A,2024-07-08_17h52.13.672,Slot Machine Game,2023.1.3,Win32,59.88023952,,,,,,,,,,,,,,,,,,,,,,,,,,,200,,,,,,,,,,,,,,,,,,,,,9,10,,,569.5546,4,left,0.4469,,1,0.3,"[3,1,2]",0.839513182,stimuli/card_0_transparent.png,0,4,0,4,0,1,,,,,,,,,,
,,,,60bfa70dc02807c74e0277c7,A,2024-07-08_17h52.13.672,Slot Machine Game,2023.1.3,Win32,59.88023952,,,,,,,,,,,,,,,,,,,,,,,,,,,200,,,,,,,,,,,,,,,,,,,,,9,10,,,571.807,5,up,0.2427,,1,0.3,"[3,1,2]",0.052661741,stimuli/card_0_transparent.png,0,5,0,5,0,1,,,,,,,,,,
,,,,60bfa70dc02807c74e0277c7,A,2024-07-08_17h52.13.672,Slot Machine Game,2023.1.3,Win32,59.88023952,,,,,,,,,,,,,,,,,,,,,,,,,,,200,,,,,,,,,,,,,,,,,,,,,9,10,,,573.8589,6,up,0.3386,,1,0.3,"[3,1,2]",0.02561658,stimuli/card_0_transparent.png,0,6,0,6,0,1,,,,,,,,,,
,,,,60bfa70dc02807c74e0277c7,A,2024-07-08_17h52.13.672,Slot Machine Game,2023.1.3,Win32,59.88023952,,,,,,,,,,,,,,,,,,,,,,,,,,,300,,,,,,,,,,,,,,,,,,,,,9,10,,,576.0111,7,right,0.4063,,0.5,0.3,"[3,1,2]",0.109082343,stimuli/card_100_transparent.png,100,7,0,7,0,1,,,,,,,,,,
,,,,60bfa70dc02807c74e0277c7,A,2024-07-08_17h52.13.672,Slot Machine Game,2023.1.3,Win32,59.88023952,,,,,,,,,,,,,,,,,,,,,,,,,,,310,,,,,,,,,,,,,,,,,,,,,9,10,,,577.7359,8,right,0.407,,0.5,0.3,"[3,1,2]",0.739366253,stimuli/card_10_transparent.png,10,8,0,8,0,1,,,,,,,,,,
,,,,60bfa70dc02807c74e0277c7,A,2024-07-08_17h52.13.672,Slot Machine Game,2023.1.3,Win32,59.88023952,,,,,,,,,,,,,,,,,,,,,,,,,,,320,,,,,,,,,,,,,,,,,,,,,9,10,,,579.4812,9,right,1.1601,,1.5,0.3,"[3,1,2]",0.227648044,stimuli/card_10_transparent.png,10,9,0,9,0,1,,,,,,,,,,
,,,,60bfa70dc02807c74e0277c7,A,2024-07-08_17h52.13.672,Slot Machine Game,2023.1.3,Win32,59.88023952,,,,,,,,,,,,,,,,,,,,,,,,,,,420,,,,,,,,,,,,,,,,,,,,,9,10,,,582.968,10,left,0.6845,,1.5,0.3,"[1,3,2]",0.822626382,stimuli/card_100_transparent.png,100,10,0,10,0,1,,,,,,,,,,
,,,,60bfa70dc02807c74e0277c7,A,2024-07-08_17h52.13.672,Slot Machine Game,2023.1.3,Win32,59.88023952,,,,,,,,,,,,,,,,,,,,,,,,,,,520,,,,,,,,,,,,,,,,,,,,,9,10,,,585.9543,11,left,0.2505,,1.5,0.3,"[1,3,2]",0.983023389,stimuli/card_100_transparent.png,100,11,0,11,0,1,,,,,,,,,,
,,,,60bfa70dc02807c74e0277c7,A,2024-07-08_17h52.13.672,Slot Machine Game,2023.1.3,Win32,59.88023952,,,,,,,,,,,,,,,,,,,,,,,,,,,620,,,,,,,,,,,,,,,,,,,,,9,10,,,588.5236,12,left,0.1739,,1.5,0.3,"[1,3,2]",0.600093938,stimuli/card_100_transparent.png,100,12,0,12,0,1,,,,,,,,,,
,,,,60bfa70dc02807c74e0277c7,A,2024-07-08_17h52.13.672,Slot Machine Game,2023.1.3,Win32,59.88023952,,,,,,,,,,,,,,,,,,,,,,,,,,,720,,,,,,,,,,,,,,,,,,,,,9,10,,,591.0097,13,left,0.2081,,1.5,0.3,"[1,3,2]",0.360260253,stimuli/card_100_transparent.png,100,13,0,13,0,1,,,,,,,,,,
,,,,60bfa70dc02807c74e0277c7,A,2024-07-08_17h52.13.672,Slot Machine Game,2023.1.3,Win32,59.88023952,,,,,,,,,,,,,,,,,,,,,,,,,,,820,,,,,,,,,,,,,,,,,,,,,9,10,,,593.5285,14,left,0.0566,,1,0.3,"[1,3,2]",0.860847482,stimuli/card_100_transparent.png,100,14,0,14,0,1,,,,,,,,,,
,,,,60bfa70dc02807c74e0277c7,A,2024-07-08_17h52.13.672,Slot Machine Game,2023.1.3,Win32,59.88023952,,,,,,,,,,,,,,,,,,,,,,,,,,,,,,,,,,,595.3805,,,,,,,,,,,,,,,,,,,,,,,,,,,,,,,,,"[840,1120,1020,620,480,470,350,1010,820]",8,0,8,0,1,,,,
,,,,60bfa70dc02807c74e0277c7,A,2024-07-08_17h52.13.672,Slot Machine Game,2023.1.3,Win32,59.88023952,,,,,,,,,,,,,,,,,,,,,,,,,,,0,,,,,,,,,,,,,,,,,,,,,10,3,"[15,15]","[[3,1,2],[3,1,2]]",600.3767,0,left,0.4175,,1,0.3,"[3,1,2]",0.543257613,stimuli/card_0_transparent.png,0,0,0,0,0,1,,,,,,,,,,
,,,,60bfa70dc02807c74e0277c7,A,2024-07-08_17h52.13.672,Slot Machine Game,2023.1.3,Win32,59.88023952,,,,,,,,,,,,,,,,,,,,,,,,,,,0,,,,,,,,,,,,,,,,,,,,,10,3,,,602.6212,1,left,0.5525,,0.5,0.3,"[3,1,2]",0.619196925,stimuli/card_0_transparent.png,0,1,0,1,0,1,,,,,,,,,,
,,,,60bfa70dc02807c74e0277c7,A,2024-07-08_17h52.13.672,Slot Machine Game,2023.1.3,Win32,59.88023952,,,,,,,,,,,,,,,,,,,,,,,,,,,10,,,,,,,,,,,,,,,,,,,,,10,3,,,604.4895,2,left,0.8176,,1.5,0.3,"[3,1,2]",0.120754062,stimuli/card_10_transparent.png,10,2,0,2,0,1,,,,,,,,,,
,,,,60bfa70dc02807c74e0277c7,A,2024-07-08_17h52.13.672,Slot Machine Game,2023.1.3,Win32,59.88023952,,,,,,,,,,,,,,,,,,,,,,,,,,,110,,,,,,,,,,,,,,,,,,,,,10,3,,,607.6268,3,up,0.2006,,1,0.3,"[3,1,2]",0.29866467,stimuli/card_100_transparent.png,100,3,0,3,0,1,,,,,,,,,,
,,,,60bfa70dc02807c74e0277c7,A,2024-07-08_17h52.13.672,Slot Machine Game,2023.1.3,Win32,59.88023952,,,,,,,,,,,,,,,,,,,,,,,,,,,210,,,,,,,,,,,,,,,,,,,,,10,3,,,609.6613,4,up,0.1505,,1,0.3,"[3,1,2]",0.703086798,stimuli/card_100_transparent.png,100,4,0,4,0,1,,,,,,,,,,
,,,,60bfa70dc02807c74e0277c7,A,2024-07-08_17h52.13.672,Slot Machine Game,2023.1.3,Win32,59.88023952,,,,,,,,,,,,,,,,,,,,,,,,,,,310,,,,,,,,,,,,,,,,,,,,,10,3,,,611.6301,5,up,0.5393,,1.5,0.3,"[3,1,2]",0.269044653,stimuli/card_100_transparent.png,100,5,0,5,0,1,,,,,,,,,,
,,,,60bfa70dc02807c74e0277c7,A,2024-07-08_17h52.13.672,Slot Machine Game,2023.1.3,Win32,59.88023952,,,,,,,,,,,,,,,,,,,,,,,,,,,410,,,,,,,,,,,,,,,,,,,,,10,3,,,614.483,6,up,0.3907,,0.5,0.3,"[3,1,2]",0.208223027,stimuli/card_100_transparent.png,100,6,0,6,0,1,,,,,,,,,,
,,,,60bfa70dc02807c74e0277c7,A,2024-07-08_17h52.13.672,Slot Machine Game,2023.1.3,Win32,59.88023952,,,,,,,,,,,,,,,,,,,,,,,,,,,510,,,,,,,,,,,,,,,,,,,,,10,3,,,616.1846,7,up,0.8299,,1,0.3,"[3,1,2]",0.832181998,stimuli/card_100_transparent.png,100,7,0,7,0,1,,,,,,,,,,
,,,,60bfa70dc02807c74e0277c7,A,2024-07-08_17h52.13.672,Slot Machine Game,2023.1.3,Win32,59.88023952,,,,,,,,,,,,,,,,,,,,,,,,,,,610,,,,,,,,,,,,,,,,,,,,,10,3,,,618.8434,8,up,0.2916,,1.5,0.3,"[3,1,2]",0.707643008,stimuli/card_100_transparent.png,100,8,0,8,0,1,,,,,,,,,,
,,,,60bfa70dc02807c74e0277c7,A,2024-07-08_17h52.13.672,Slot Machine Game,2023.1.3,Win32,59.88023952,,,,,,,,,,,,,,,,,,,,,,,,,,,710,,,,,,,,,,,,,,,,,,,,,10,3,,,621.4565,9,up,0.2249,,0.5,0.3,"[3,1,2]",0.356883039,stimuli/card_100_transparent.png,100,9,0,9,0,1,,,,,,,,,,
,,,,60bfa70dc02807c74e0277c7,A,2024-07-08_17h52.13.672,Slot Machine Game,2023.1.3,Win32,59.88023952,,,,,,,,,,,,,,,,,,,,,,,,,,,810,,,,,,,,,,,,,,,,,,,,,10,3,,,622.9913,10,up,0.3505,,1.5,0.3,"[3,1,2]",0.894291081,stimuli/card_100_transparent.png,100,10,0,10,0,1,,,,,,,,,,
,,,,60bfa70dc02807c74e0277c7,A,2024-07-08_17h52.13.672,Slot Machine Game,2023.1.3,Win32,59.88023952,,,,,,,,,,,,,,,,,,,,,,,,,,,910,,,,,,,,,,,,,,,,,,,,,10,3,,,625.6608,11,up,0.0667,,1,0.3,"[3,1,2]",0.899715475,stimuli/card_100_transparent.png,100,11,0,11,0,1,,,,,,,,,,
,,,,60bfa70dc02807c74e0277c7,A,2024-07-08_17h52.13.672,Slot Machine Game,2023.1.3,Win32,59.88023952,,,,,,,,,,,,,,,,,,,,,,,,,,,910,,,,,,,,,,,,,,,,,,,,,10,3,,,627.5292,12,up,0.7843,,1.5,0.3,"[3,1,2]",0.025157971,stimuli/card_0_transparent.png,0,12,0,12,0,1,,,,,,,,,,
,,,,60bfa70dc02807c74e0277c7,A,2024-07-08_17h52.13.672,Slot Machine Game,2023.1.3,Win32,59.88023952,,,,,,,,,,,,,,,,,,,,,,,,,,,910,,,,,,,,,,,,,,,,,,,,,10,3,,,630.6157,13,up,0.75,,0.5,0.3,"[3,1,2]",0.021629839,stimuli/card_0_transparent.png,0,13,0,13,0,1,,,,,,,,,,
,,,,60bfa70dc02807c74e0277c7,A,2024-07-08_17h52.13.672,Slot Machine Game,2023.1.3,Win32,59.88023952,,,,,,,,,,,,,,,,,,,,,,,,,,,920,,,,,,,,,,,,,,,,,,,,,10,3,,,632.6843,14,right,0.1844,,1.5,0.3,"[3,1,2]",0.487312524,stimuli/card_10_transparent.png,10,14,0,14,0,1,,,,,,,,,,
,,,,60bfa70dc02807c74e0277c7,A,2024-07-08_17h52.13.672,Slot Machine Game,2023.1.3,Win32,59.88023952,,,,,,,,,,,,,,,,,,,,,,,,,,,,,,,,,,,635.1868,,,,,,,,,,,,,,,,,,,,,,,,,,,,,,,,,"[840,1120,1020,620,480,470,350,1010,820,920]",9,0,9,0,1,,,,
,,,,60bfa70dc02807c74e0277c7,A,2024-07-08_17h52.13.672,Slot Machine Game,2023.1.3,Win32,59.88023952,,,,,,,,,,,,,,,,,,,,,,,,,,,,,,,,,,,,,,,,,,,,,,,,,,,,,,,,,,,,,,,,,,,,,,,,,,9,"[840,1120,1020,620,480,470,350,1010,820,920]",4.8,2024-07-08_18h02.57.952
