key_resp_welcome_started,key_resp_welcome_keys,key_resp_welcome_rt,key_resp_welcome_duration,prolific_id,path_id,date,expName,psychopyVersion,OS,frameRate,key_resp_instruction1_started,key_resp_instruction1_keys,key_resp_instruction1_rt,key_resp_instruction1_duration,key_resp_instruction2_started,key_resp_instruction2_keys,key_resp_instruction2_rt,key_resp_instruction2_duration,key_resp_instruction3_started,key_resp_instruction3_keys,key_resp_instruction3_rt,key_resp_instruction3_duration,key_resp_instruction4_started,key_resp_instruction4_keys,key_resp_instruction4_rt,key_resp_instruction4_duration,practiceCondition,practice_reward_seqs,practice_trial_started,practice_trial_num,practice_resp_rt,practice_resp_duration,practice_resp_keys,prac_presentationInterval,"practice_reward_seq: 2,1,3",reward_img,cumulative_reward,trial_reward,practice_trials.thisRepN,practice_trials.thisTrialN,practice_trials.thisN,practice_trials.thisIndex,practice_trials.ran,"practice_reward_seq: 2,3,1",block_break_started,"practice_reward_seq: 1,3,2","practice_reward_seq: 3,1,2",practice_end_time,practice_end_keys,practice_end_rt,practice_end_duration,main_instruction_text_started,block_condition,block_order_indices,main_instruction_keys,main_instruction_rt,main_instruction_duration,block_number,block_assignment,current_condition,main_reward_seqs,main_trial_started,main_trial_num,main_trial_keys,main_trial_rt,main_trial_duration,main_presentationInterval,reward_presentation_time,main_reward_seq,reward_rand_val,main_reward_img,current_reward,main_trials.thisRepN,main_trials.thisTrialN,main_trials.thisN,main_trials.thisIndex,main_trials.ran,block_reward,block.thisRepN,block.thisTrialN,block.thisN,block.thisIndex,block.ran,block_reward.length,block_reward_all,reward_amount,date_end_task
0.0001,space,2.2058,,60c605fdb8d40cddbf88c09b,A,2024-07-09_11h59.49.509,Slot Machine Game,2023.1.3,Win32,59.52380952,,,,,,,,,,,,,,,,,,,,,,,,,,,,,,,,,,,,,,,,,,,,,,,,,,,,,,,,,,,,,,,,,,,,,,,,,,,,,
,,,,60c605fdb8d40cddbf88c09b,A,2024-07-09_11h59.49.509,Slot Machine Game,2023.1.3,Win32,59.52380952,2.2139,space,7.3006,,,,,,,,,,,,,,,,,,,,,,,,,,,,,,,,,,,,,,,,,,,,,,,,,,,,,,,,,,,,,,,,,,,,,,,,,,
,,,,60c605fdb8d40cddbf88c09b,A,2024-07-09_11h59.49.509,Slot Machine Game,2023.1.3,Win32,59.52380952,,,,,9.5457,space,17.2999,,,,,,,,,,,,,,,,,,,,,,,,,,,,,,,,,,,,,,,,,,,,,,,,,,,,,,,,,,,,,,,,,,,,,,
,,,,60c605fdb8d40cddbf88c09b,A,2024-07-09_11h59.49.509,Slot Machine Game,2023.1.3,Win32,59.52380952,,,,,,,,,26.8794,right,12.2182,,,,,,,,,,,,,,,,,,,,,,,,,,,,,,,,,,,,,,,,,,,,,,,,,,,,,,,,,,,,,,,,,,
,,,,60c605fdb8d40cddbf88c09b,A,2024-07-09_11h59.49.509,Slot Machine Game,2023.1.3,Win32,59.52380952,,,,,,,,,,,,,,,,,,,,,,,,,,,,,,,,,,,,,,,,,,,,,,,,,,,,,,,,,,,,,,,,,,,,,,,,,,,,,
,,,,60c605fdb8d40cddbf88c09b,A,2024-07-09_11h59.49.509,Slot Machine Game,2023.1.3,Win32,59.52380952,,,,,,,,,,,,,181.131,up,3.2834,,,,,,,,,,,,,,,,,,,,,,,,,,,,,,,,,,,,,,,,,,,,,,,,,,,,,,,,,,,,,,
,,,,60c605fdb8d40cddbf88c09b,A,2024-07-09_11h59.49.509,Slot Machine Game,2023.1.3,Win32,59.52380952,,,,,,,,,,,,,,,,,"[9,15]","[[2,1,3],[2,3,1]]",184.4308,0,1.2572,,up,1.5,,stimuli/card_10_transparent.png,10,10,0,0,0,0,1,,,,,,,,,,,,,,,,,,,,,,,,,,,,,,,,,,,,,,,,,,,,
,,,,60c605fdb8d40cddbf88c09b,A,2024-07-09_11h59.49.509,Slot Machine Game,2023.1.3,Win32,59.52380952,,,,,,,,,,,,,,,,,,,188.0109,1,0.3819,,up,1,,stimuli/card_100_transparent.png,110,100,1,0,1,0,1,,,,,,,,,,,,,,,,,,,,,,,,,,,,,,,,,,,,,,,,,,,,
,,,,60c605fdb8d40cddbf88c09b,A,2024-07-09_11h59.49.509,Slot Machine Game,2023.1.3,Win32,59.52380952,,,,,,,,,,,,,,,,,,,190.227,2,0.1845,,up,1.5,,stimuli/card_100_transparent.png,210,100,2,0,2,0,1,,,,,,,,,,,,,,,,,,,,,,,,,,,,,,,,,,,,,,,,,,,,
,,,,60c605fdb8d40cddbf88c09b,A,2024-07-09_11h59.49.509,Slot Machine Game,2023.1.3,Win32,59.52380952,,,,,,,,,,,,,,,,,,,192.7438,3,0.0728,,left,1.5,,stimuli/card_10_transparent.png,220,10,3,0,3,0,1,,,,,,,,,,,,,,,,,,,,,,,,,,,,,,,,,,,,,,,,,,,,
,,,,60c605fdb8d40cddbf88c09b,A,2024-07-09_11h59.49.509,Slot Machine Game,2023.1.3,Win32,59.52380952,,,,,,,,,,,,,,,,,,,195.1434,4,1.1769,,right,1.5,,stimuli/card_0_transparent.png,220,0,4,0,4,0,1,,,,,,,,,,,,,,,,,,,,,,,,,,,,,,,,,,,,,,,,,,,,
,,,,60c605fdb8d40cddbf88c09b,A,2024-07-09_11h59.49.509,Slot Machine Game,2023.1.3,Win32,59.52380952,,,,,,,,,,,,,,,,,,,198.627,5,0.0439,,right,1.5,,stimuli/card_0_transparent.png,220,0,5,0,5,0,1,,,,,,,,,,,,,,,,,,,,,,,,,,,,,,,,,,,,,,,,,,,,
,,,,60c605fdb8d40cddbf88c09b,A,2024-07-09_11h59.49.509,Slot Machine Game,2023.1.3,Win32,59.52380952,,,,,,,,,,,,,,,,,,,200.9934,6,1.3905,,left,1.5,,stimuli/card_10_transparent.png,230,10,6,0,6,0,1,,,,,,,,,,,,,,,,,,,,,,,,,,,,,,,,,,,,,,,,,,,,
,,,,60c605fdb8d40cddbf88c09b,A,2024-07-09_11h59.49.509,Slot Machine Game,2023.1.3,Win32,59.52380952,,,,,,,,,,,,,,,,,,,204.7098,7,0.002,,left,0.5,,stimuli/card_10_transparent.png,240,10,7,0,7,0,1,,,,,,,,,,,,,,,,,,,,,,,,,,,,,,,,,,,,,,,,,,,,
,,,,60c605fdb8d40cddbf88c09b,A,2024-07-09_11h59.49.509,Slot Machine Game,2023.1.3,Win32,59.52380952,,,,,,,,,,,,,,,,,,,206.0269,8,1.925,,up,1.5,,stimuli/card_100_transparent.png,340,100,8,0,8,0,1,,,,,,,,,,,,,,,,,,,,,,,,,,,,,,,,,,,,,,,,,,,,
,,,,60c605fdb8d40cddbf88c09b,A,2024-07-09_11h59.49.509,Slot Machine Game,2023.1.3,Win32,59.52380952,,,,,,,,,,,,,,,,,,,210.2767,9,0.0581,,up,1.5,,stimuli/card_0_transparent.png,340,0,9,0,9,0,1,,,,,,,,,,,,,,,,,,,,,,,,,,,,,,,,,,,,,,,,,,,,
,,,,60c605fdb8d40cddbf88c09b,A,2024-07-09_11h59.49.509,Slot Machine Game,2023.1.3,Win32,59.52380952,,,,,,,,,,,,,,,,,,,212.6436,10,1.2668,,up,1,,stimuli/card_0_transparent.png,340,0,10,0,10,0,1,,,,,,,,,,,,,,,,,,,,,,,,,,,,,,,,,,,,,,,,,,,,
,,,,60c605fdb8d40cddbf88c09b,A,2024-07-09_11h59.49.509,Slot Machine Game,2023.1.3,Win32,59.52380952,,,,,,,,,,,,,,,,,,,215.7435,11,0.4232,,up,1,,stimuli/card_10_transparent.png,350,10,11,0,11,0,1,,,,,,,,,,,,,,,,,,,,,,,,,,,,,,,,,,,,,,,,,,,,
,,,,60c605fdb8d40cddbf88c09b,A,2024-07-09_11h59.49.509,Slot Machine Game,2023.1.3,Win32,59.52380952,,,,,,,,,,,,,,,,,,,217.9768,12,0.7189,,up,1.5,,stimuli/card_0_transparent.png,350,0,12,0,12,0,1,,,,,,,,,,,,,,,,,,,,,,,,,,,,,,,,,,,,,,,,,,,,
,,,,60c605fdb8d40cddbf88c09b,A,2024-07-09_11h59.49.509,Slot Machine Game,2023.1.3,Win32,59.52380952,,,,,,,,,,,,,,,,,,,221.0269,13,0.0219,,up,0.5,,stimuli/card_100_transparent.png,450,100,13,0,13,0,1,,,,,,,,,,,,,,,,,,,,,,,,,,,,,,,,,,,,,,,,,,,,
,,,,60c605fdb8d40cddbf88c09b,A,2024-07-09_11h59.49.509,Slot Machine Game,2023.1.3,Win32,59.52380952,,,,,,,,,,,,,,,,,,,222.3767,14,0.0232,,up,0.5,,stimuli/card_0_transparent.png,450,0,14,0,14,0,1,,,,,,,,,,,,,,,,,,,,,,,,,,,,,,,,,,,,,,,,,,,,
,,,,60c605fdb8d40cddbf88c09b,A,2024-07-09_11h59.49.509,Slot Machine Game,2023.1.3,Win32,59.52380952,,,,,,,,,,,,,,,,,"[6,15]","[[1,3,2],[3,1,2]]",228.7197,0,0.3203,,left,1.5,,stimuli/card_100_transparent.png,100,100,0,0,0,0,1,,223.717,,,,,,,,,,,,,,,,,,,,,,,,,,,,,,,,,,,,,,,,,,
,,,,60c605fdb8d40cddbf88c09b,A,2024-07-09_11h59.49.509,Slot Machine Game,2023.1.3,Win32,59.52380952,,,,,,,,,,,,,,,,,,,231.3605,1,0.6875,,left,1,,stimuli/card_100_transparent.png,200,100,1,0,1,0,1,,,,,,,,,,,,,,,,,,,,,,,,,,,,,,,,,,,,,,,,,,,,
,,,,60c605fdb8d40cddbf88c09b,A,2024-07-09_11h59.49.509,Slot Machine Game,2023.1.3,Win32,59.52380952,,,,,,,,,,,,,,,,,,,233.8771,2,0.0687,,left,0.5,,stimuli/card_100_transparent.png,300,100,2,0,2,0,1,,,,,,,,,,,,,,,,,,,,,,,,,,,,,,,,,,,,,,,,,,,,
,,,,60c605fdb8d40cddbf88c09b,A,2024-07-09_11h59.49.509,Slot Machine Game,2023.1.3,Win32,59.52380952,,,,,,,,,,,,,,,,,,,235.2771,3,0.5058,,left,1,,stimuli/card_10_transparent.png,310,10,3,0,3,0,1,,,,,,,,,,,,,,,,,,,,,,,,,,,,,,,,,,,,,,,,,,,,
,,,,60c605fdb8d40cddbf88c09b,A,2024-07-09_11h59.49.509,Slot Machine Game,2023.1.3,Win32,59.52380952,,,,,,,,,,,,,,,,,,,237.6102,4,0.4212,,left,1.5,,stimuli/card_100_transparent.png,410,100,4,0,4,0,1,,,,,,,,,,,,,,,,,,,,,,,,,,,,,,,,,,,,,,,,,,,,
,,,,60c605fdb8d40cddbf88c09b,A,2024-07-09_11h59.49.509,Slot Machine Game,2023.1.3,Win32,59.52380952,,,,,,,,,,,,,,,,,,,240.3432,5,0.0558,,left,1.5,,stimuli/card_100_transparent.png,510,100,5,0,5,0,1,,,,,,,,,,,,,,,,,,,,,,,,,,,,,,,,,,,,,,,,,,,,
,,,,60c605fdb8d40cddbf88c09b,A,2024-07-09_11h59.49.509,Slot Machine Game,2023.1.3,Win32,59.52380952,,,,,,,,,,,,,,,,,,,242.7098,6,0.1289,,left,1.5,,stimuli/card_0_transparent.png,510,0,6,0,6,0,1,,,,,,,,,,,,,,,,,,,,,,,,,,,,,,,,,,,,,,,,,,,,
,,,,60c605fdb8d40cddbf88c09b,A,2024-07-09_11h59.49.509,Slot Machine Game,2023.1.3,Win32,59.52380952,,,,,,,,,,,,,,,,,,,245.1599,7,0.3119,,left,1.5,,stimuli/card_0_transparent.png,510,0,7,0,7,0,1,,,,,,,,,,,,,,,,,,,,,,,,,,,,,,,,,,,,,,,,,,,,
,,,,60c605fdb8d40cddbf88c09b,A,2024-07-09_11h59.49.509,Slot Machine Game,2023.1.3,Win32,59.52380952,,,,,,,,,,,,,,,,,,,247.7768,8,0.0175,,left,0.5,,stimuli/card_0_transparent.png,510,0,8,0,8,0,1,,,,,,,,,,,,,,,,,,,,,,,,,,,,,,,,,,,,,,,,,,,,
,,,,60c605fdb8d40cddbf88c09b,A,2024-07-09_11h59.49.509,Slot Machine Game,2023.1.3,Win32,59.52380952,,,,,,,,,,,,,,,,,,,249.1103,9,0.2889,,left,0.5,,stimuli/card_100_transparent.png,610,100,9,0,9,0,1,,,,,,,,,,,,,,,,,,,,,,,,,,,,,,,,,,,,,,,,,,,,
,,,,60c605fdb8d40cddbf88c09b,A,2024-07-09_11h59.49.509,Slot Machine Game,2023.1.3,Win32,59.52380952,,,,,,,,,,,,,,,,,,,250.7266,10,0.7847,,left,1.5,,stimuli/card_0_transparent.png,610,0,10,0,10,0,1,,,,,,,,,,,,,,,,,,,,,,,,,,,,,,,,,,,,,,,,,,,,
,,,,60c605fdb8d40cddbf88c09b,A,2024-07-09_11h59.49.509,Slot Machine Game,2023.1.3,Win32,59.52380952,,,,,,,,,,,,,,,,,,,253.827,11,0.0669,,left,1,,stimuli/card_100_transparent.png,710,100,11,0,11,0,1,,,,,,,,,,,,,,,,,,,,,,,,,,,,,,,,,,,,,,,,,,,,
,,,,60c605fdb8d40cddbf88c09b,A,2024-07-09_11h59.49.509,Slot Machine Game,2023.1.3,Win32,59.52380952,,,,,,,,,,,,,,,,,,,255.7266,12,0.4184,,left,1,,stimuli/card_0_transparent.png,710,0,12,0,12,0,1,,,,,,,,,,,,,,,,,,,,,,,,,,,,,,,,,,,,,,,,,,,,
,,,,60c605fdb8d40cddbf88c09b,A,2024-07-09_11h59.49.509,Slot Machine Game,2023.1.3,Win32,59.52380952,,,,,,,,,,,,,,,,,,,257.9605,13,0.0721,,left,1.5,,stimuli/card_100_transparent.png,810,100,13,0,13,0,1,,,,,,,,,,,,,,,,,,,,,,,,,,,,,,,,,,,,,,,,,,,,
,,,,60c605fdb8d40cddbf88c09b,A,2024-07-09_11h59.49.509,Slot Machine Game,2023.1.3,Win32,59.52380952,,,,,,,,,,,,,,,,,,,260.3604,14,0.0182,,left,1,,stimuli/card_0_transparent.png,810,0,14,0,14,0,1,,,,,,,,,,,,,,,,,,,,,,,,,,,,,,,,,,,,,,,,,,,,
,,,,60c605fdb8d40cddbf88c09b,A,2024-07-09_11h59.49.509,Slot Machine Game,2023.1.3,Win32,59.52380952,,,,,,,,,,,,,,,,,,,,,,,,,,,,,,,,,,,262.2106,,,267.2114,space,3.0987,,,,,,,,,,,,,,,,,,,,,,,,,,,,,,,,,,,,,
,,,,60c605fdb8d40cddbf88c09b,A,2024-07-09_11h59.49.509,Slot Machine Game,2023.1.3,Win32,59.52380952,,,,,,,,,,,,,,,,,,,,,,,,,,,,,,,,,,,,,,,,,,270.3274,2,"[2,4,8,0,1,3,9,6,8,5]",space,1.9603,,,,,,,,,,,,,,,,,,,,,,,,,,,,,,,
,,,,60c605fdb8d40cddbf88c09b,A,2024-07-09_11h59.49.509,Slot Machine Game,2023.1.3,Win32,59.52380952,,,,,,,,,,,,,,,,,,,,,,,,,,,100,,,,,,,,,,,,,,,,,,,,,1,3,"[15,15]","[[3,1,2],[3,1,2]]",272.318,0,up,0.6068,,1,0.3,"[3,1,2]",0.422723741,stimuli/card_100_transparent.png,100,0,0,0,0,1,,,,,,,,,,
,,,,60c605fdb8d40cddbf88c09b,A,2024-07-09_11h59.49.509,Slot Machine Game,2023.1.3,Win32,59.52380952,,,,,,,,,,,,,,,,,,,,,,,,,,,200,,,,,,,,,,,,,,,,,,,,,1,3,,,274.7434,1,up,0.0004,,1,0.3,"[3,1,2]",0.963513517,stimuli/card_100_transparent.png,100,1,0,1,0,1,,,,,,,,,,
,,,,60c605fdb8d40cddbf88c09b,A,2024-07-09_11h59.49.509,Slot Machine Game,2023.1.3,Win32,59.52380952,,,,,,,,,,,,,,,,,,,,,,,,,,,300,,,,,,,,,,,,,,,,,,,,,1,3,,,276.5767,2,up,0.1515,,1.5,0.3,"[3,1,2]",0.980896592,stimuli/card_100_transparent.png,100,2,0,2,0,1,,,,,,,,,,
,,,,60c605fdb8d40cddbf88c09b,A,2024-07-09_11h59.49.509,Slot Machine Game,2023.1.3,Win32,59.52380952,,,,,,,,,,,,,,,,,,,,,,,,,,,400,,,,,,,,,,,,,,,,,,,,,1,3,,,279.06,3,up,0.1944,,1,0.3,"[3,1,2]",0.773285437,stimuli/card_100_transparent.png,100,3,0,3,0,1,,,,,,,,,,
,,,,60c605fdb8d40cddbf88c09b,A,2024-07-09_11h59.49.509,Slot Machine Game,2023.1.3,Win32,59.52380952,,,,,,,,,,,,,,,,,,,,,,,,,,,500,,,,,,,,,,,,,,,,,,,,,1,3,,,281.0768,4,up,1.6716,,0.5,0.3,"[3,1,2]",0.847756072,stimuli/card_100_transparent.png,100,4,0,4,0,1,,,,,,,,,,
,,,,60c605fdb8d40cddbf88c09b,A,2024-07-09_11h59.49.509,Slot Machine Game,2023.1.3,Win32,59.52380952,,,,,,,,,,,,,,,,,,,,,,,,,,,510,,,,,,,,,,,,,,,,,,,,,1,3,,,284.0765,5,up,0.366,,0.5,0.3,"[3,1,2]",0.141891819,stimuli/card_10_transparent.png,10,5,0,5,0,1,,,,,,,,,,
,,,,60c605fdb8d40cddbf88c09b,A,2024-07-09_11h59.49.509,Slot Machine Game,2023.1.3,Win32,59.52380952,,,,,,,,,,,,,,,,,,,,,,,,,,,610,,,,,,,,,,,,,,,,,,,,,1,3,,,285.7766,6,up,0.3266,,0.5,0.3,"[3,1,2]",0.351754461,stimuli/card_100_transparent.png,100,6,0,6,0,1,,,,,,,,,,
,,,,60c605fdb8d40cddbf88c09b,A,2024-07-09_11h59.49.509,Slot Machine Game,2023.1.3,Win32,59.52380952,,,,,,,,,,,,,,,,,,,,,,,,,,,710,,,,,,,,,,,,,,,,,,,,,1,3,,,287.4099,7,up,0.5084,,1.5,0.3,"[3,1,2]",0.999790321,stimuli/card_100_transparent.png,100,7,0,7,0,1,,,,,,,,,,
,,,,60c605fdb8d40cddbf88c09b,A,2024-07-09_11h59.49.509,Slot Machine Game,2023.1.3,Win32,59.52380952,,,,,,,,,,,,,,,,,,,,,,,,,,,810,,,,,,,,,,,,,,,,,,,,,1,3,,,290.2434,8,up,0.0853,,1,0.3,"[3,1,2]",0.465513484,stimuli/card_100_transparent.png,100,8,0,8,0,1,,,,,,,,,,
,,,,60c605fdb8d40cddbf88c09b,A,2024-07-09_11h59.49.509,Slot Machine Game,2023.1.3,Win32,59.52380952,,,,,,,,,,,,,,,,,,,,,,,,,,,910,,,,,,,,,,,,,,,,,,,,,1,3,,,292.1605,9,up,0.2013,,1,0.3,"[3,1,2]",0.802564733,stimuli/card_100_transparent.png,100,9,0,9,0,1,,,,,,,,,,
,,,,60c605fdb8d40cddbf88c09b,A,2024-07-09_11h59.49.509,Slot Machine Game,2023.1.3,Win32,59.52380952,,,,,,,,,,,,,,,,,,,,,,,,,,,1010,,,,,,,,,,,,,,,,,,,,,1,3,,,294.1932,10,up,0.1383,,1,0.3,"[3,1,2]",0.322099896,stimuli/card_100_transparent.png,100,10,0,10,0,1,,,,,,,,,,
,,,,60c605fdb8d40cddbf88c09b,A,2024-07-09_11h59.49.509,Slot Machine Game,2023.1.3,Win32,59.52380952,,,,,,,,,,,,,,,,,,,,,,,,,,,1110,,,,,,,,,,,,,,,,,,,,,1,3,,,296.1597,11,up,0.1823,,0.5,0.3,"[3,1,2]",0.391465717,stimuli/card_100_transparent.png,100,11,0,11,0,1,,,,,,,,,,
,,,,60c605fdb8d40cddbf88c09b,A,2024-07-09_11h59.49.509,Slot Machine Game,2023.1.3,Win32,59.52380952,,,,,,,,,,,,,,,,,,,,,,,,,,,1120,,,,,,,,,,,,,,,,,,,,,1,3,,,297.6599,12,up,0.042,,1,0.3,"[3,1,2]",0.169746847,stimuli/card_10_transparent.png,10,12,0,12,0,1,,,,,,,,,,
,,,,60c605fdb8d40cddbf88c09b,A,2024-07-09_11h59.49.509,Slot Machine Game,2023.1.3,Win32,59.52380952,,,,,,,,,,,,,,,,,,,,,,,,,,,1220,,,,,,,,,,,,,,,,,,,,,1,3,,,299.5264,13,up,0.137,,1.5,0.3,"[3,1,2]",0.707746046,stimuli/card_100_transparent.png,100,13,0,13,0,1,,,,,,,,,,
,,,,60c605fdb8d40cddbf88c09b,A,2024-07-09_11h59.49.509,Slot Machine Game,2023.1.3,Win32,59.52380952,,,,,,,,,,,,,,,,,,,,,,,,,,,1320,,,,,,,,,,,,,,,,,,,,,1,3,,,301.9933,14,up,0.1856,,0.5,0.3,"[3,1,2]",0.980532462,stimuli/card_100_transparent.png,100,14,0,14,0,1,,,,,,,,,,
,,,,60c605fdb8d40cddbf88c09b,A,2024-07-09_11h59.49.509,Slot Machine Game,2023.1.3,Win32,59.52380952,,,,,,,,,,,,,,,,,,,,,,,,,,,,,,,,,,,303.5099,,,,,,,,,,,,,,,,,,,,,,,,,,,,,,,,,[1320],0,0,0,0,1,,,,
,,,,60c605fdb8d40cddbf88c09b,A,2024-07-09_11h59.49.509,Slot Machine Game,2023.1.3,Win32,59.52380952,,,,,,,,,,,,,,,,,,,,,,,,,,,100,,,,,,,,,,,,,,,,,,,,,2,5,"[5,15]","[[1,2,3],[3,1,2]]",308.5184,0,up,1.3342,,1.5,0.3,"[1,2,3]",0.14569585,stimuli/card_100_transparent.png,100,0,0,0,0,1,,,,,,,,,,
,,,,60c605fdb8d40cddbf88c09b,A,2024-07-09_11h59.49.509,Slot Machine Game,2023.1.3,Win32,59.52380952,,,,,,,,,,,,,,,,,,,,,,,,,,,200,,,,,,,,,,,,,,,,,,,,,2,5,,,312.1768,1,up,0.2545,,1.5,0.3,"[1,2,3]",0.141263825,stimuli/card_100_transparent.png,100,1,0,1,0,1,,,,,,,,,,
,,,,60c605fdb8d40cddbf88c09b,A,2024-07-09_11h59.49.509,Slot Machine Game,2023.1.3,Win32,59.52380952,,,,,,,,,,,,,,,,,,,,,,,,,,,300,,,,,,,,,,,,,,,,,,,,,2,5,,,314.7598,2,up,0.2338,,0.5,0.3,"[1,2,3]",0.109418635,stimuli/card_100_transparent.png,100,2,0,2,0,1,,,,,,,,,,
,,,,60c605fdb8d40cddbf88c09b,A,2024-07-09_11h59.49.509,Slot Machine Game,2023.1.3,Win32,59.52380952,,,,,,,,,,,,,,,,,,,,,,,,,,,310,,,,,,,,,,,,,,,,,,,,,2,5,,,316.31,3,up,0.0094,,1.5,0.3,"[1,2,3]",0.631961761,stimuli/card_10_transparent.png,10,3,0,3,0,1,,,,,,,,,,
,,,,60c605fdb8d40cddbf88c09b,A,2024-07-09_11h59.49.509,Slot Machine Game,2023.1.3,Win32,59.52380952,,,,,,,,,,,,,,,,,,,,,,,,,,,320,,,,,,,,,,,,,,,,,,,,,2,5,,,318.6272,4,up,0.1213,,0.5,0.3,"[1,2,3]",0.924777663,stimuli/card_10_transparent.png,10,4,0,4,0,1,,,,,,,,,,
,,,,60c605fdb8d40cddbf88c09b,A,2024-07-09_11h59.49.509,Slot Machine Game,2023.1.3,Win32,59.52380952,,,,,,,,,,,,,,,,,,,,,,,,,,,330,,,,,,,,,,,,,,,,,,,,,2,5,,,320.0765,5,up,0.1178,,1,0.3,"[3,1,2]",0.133879025,stimuli/card_10_transparent.png,10,5,0,5,0,1,,,,,,,,,,
,,,,60c605fdb8d40cddbf88c09b,A,2024-07-09_11h59.49.509,Slot Machine Game,2023.1.3,Win32,59.52380952,,,,,,,,,,,,,,,,,,,,,,,,,,,430,,,,,,,,,,,,,,,,,,,,,2,5,,,322.0101,6,up,0.0532,,1.5,0.3,"[3,1,2]",0.358811703,stimuli/card_100_transparent.png,100,6,0,6,0,1,,,,,,,,,,
,,,,60c605fdb8d40cddbf88c09b,A,2024-07-09_11h59.49.509,Slot Machine Game,2023.1.3,Win32,59.52380952,,,,,,,,,,,,,,,,,,,,,,,,,,,530,,,,,,,,,,,,,,,,,,,,,2,5,,,324.377,7,up,0.1356,,1,0.3,"[3,1,2]",0.396887811,stimuli/card_100_transparent.png,100,7,0,7,0,1,,,,,,,,,,
,,,,60c605fdb8d40cddbf88c09b,A,2024-07-09_11h59.49.509,Slot Machine Game,2023.1.3,Win32,59.52380952,,,,,,,,,,,,,,,,,,,,,,,,,,,630,,,,,,,,,,,,,,,,,,,,,2,5,,,326.3435,8,up,0.0881,,1.5,0.3,"[3,1,2]",0.851599021,stimuli/card_100_transparent.png,100,8,0,8,0,1,,,,,,,,,,
,,,,60c605fdb8d40cddbf88c09b,A,2024-07-09_11h59.49.509,Slot Machine Game,2023.1.3,Win32,59.52380952,,,,,,,,,,,,,,,,,,,,,,,,,,,730,,,,,,,,,,,,,,,,,,,,,2,5,,,328.76,9,up,0.0003,,0.5,0.3,"[3,1,2]",0.803421059,stimuli/card_100_transparent.png,100,9,0,9,0,1,,,,,,,,,,
,,,,60c605fdb8d40cddbf88c09b,A,2024-07-09_11h59.49.509,Slot Machine Game,2023.1.3,Win32,59.52380952,,,,,,,,,,,,,,,,,,,,,,,,,,,730,,,,,,,,,,,,,,,,,,,,,2,5,,,330.0928,10,up,0.1292,,0.5,0.3,"[3,1,2]",0.059011934,stimuli/card_0_transparent.png,0,10,0,10,0,1,,,,,,,,,,
,,,,60c605fdb8d40cddbf88c09b,A,2024-07-09_11h59.49.509,Slot Machine Game,2023.1.3,Win32,59.52380952,,,,,,,,,,,,,,,,,,,,,,,,,,,830,,,,,,,,,,,,,,,,,,,,,2,5,,,331.5437,11,up,0.1046,,0.5,0.3,"[3,1,2]",0.650731753,stimuli/card_100_transparent.png,100,11,0,11,0,1,,,,,,,,,,
,,,,60c605fdb8d40cddbf88c09b,A,2024-07-09_11h59.49.509,Slot Machine Game,2023.1.3,Win32,59.52380952,,,,,,,,,,,,,,,,,,,,,,,,,,,930,,,,,,,,,,,,,,,,,,,,,2,5,,,332.9767,12,up,0.1366,,0.5,0.3,"[3,1,2]",0.984653277,stimuli/card_100_transparent.png,100,12,0,12,0,1,,,,,,,,,,
,,,,60c605fdb8d40cddbf88c09b,A,2024-07-09_11h59.49.509,Slot Machine Game,2023.1.3,Win32,59.52380952,,,,,,,,,,,,,,,,,,,,,,,,,,,1030,,,,,,,,,,,,,,,,,,,,,2,5,,,334.4435,13,up,0.0529,,1,0.3,"[3,1,2]",0.280698992,stimuli/card_100_transparent.png,100,13,0,13,0,1,,,,,,,,,,
,,,,60c605fdb8d40cddbf88c09b,A,2024-07-09_11h59.49.509,Slot Machine Game,2023.1.3,Win32,59.52380952,,,,,,,,,,,,,,,,,,,,,,,,,,,1040,,,,,,,,,,,,,,,,,,,,,2,5,,,336.3268,14,up,0.0829,,1.5,0.3,"[3,1,2]",0.110396474,stimuli/card_10_transparent.png,10,14,0,14,0,1,,,,,,,,,,
,,,,60c605fdb8d40cddbf88c09b,A,2024-07-09_11h59.49.509,Slot Machine Game,2023.1.3,Win32,59.52380952,,,,,,,,,,,,,,,,,,,,,,,,,,,,,,,,,,,338.7435,,,,,,,,,,,,,,,,,,,,,,,,,,,,,,,,,"[1320,1040]",1,0,1,0,1,,,,
,,,,60c605fdb8d40cddbf88c09b,A,2024-07-09_11h59.49.509,Slot Machine Game,2023.1.3,Win32,59.52380952,,,,,,,,,,,,,,,,,,,,,,,,,,,100,,,,,,,,,,,,,,,,,,,,,3,9,"[8,15]","[[3,2,1],[3,1,2]]",343.751,0,up,0.1274,,1,0.3,"[3,2,1]",0.178028542,stimuli/card_100_transparent.png,100,0,0,0,0,1,,,,,,,,,,
,,,,60c605fdb8d40cddbf88c09b,A,2024-07-09_11h59.49.509,Slot Machine Game,2023.1.3,Win32,59.52380952,,,,,,,,,,,,,,,,,,,,,,,,,,,110,,,,,,,,,,,,,,,,,,,,,3,9,,,345.6934,1,up,0.1056,,0.5,0.3,"[3,2,1]",0.986001313,stimuli/card_10_transparent.png,10,1,0,1,0,1,,,,,,,,,,
,,,,60c605fdb8d40cddbf88c09b,A,2024-07-09_11h59.49.509,Slot Machine Game,2023.1.3,Win32,59.52380952,,,,,,,,,,,,,,,,,,,,,,,,,,,120,,,,,,,,,,,,,,,,,,,,,3,9,,,347.11,2,up,0.0011,,0.5,0.3,"[3,2,1]",0.439567778,stimuli/card_10_transparent.png,10,2,0,2,0,1,,,,,,,,,,
,,,,60c605fdb8d40cddbf88c09b,A,2024-07-09_11h59.49.509,Slot Machine Game,2023.1.3,Win32,59.52380952,,,,,,,,,,,,,,,,,,,,,,,,,,,130,,,,,,,,,,,,,,,,,,,,,3,9,,,348.4435,3,up,0.0204,,1,0.3,"[3,2,1]",0.495946125,stimuli/card_10_transparent.png,10,3,0,3,0,1,,,,,,,,,,
,,,,60c605fdb8d40cddbf88c09b,A,2024-07-09_11h59.49.509,Slot Machine Game,2023.1.3,Win32,59.52380952,,,,,,,,,,,,,,,,,,,,,,,,,,,140,,,,,,,,,,,,,,,,,,,,,3,9,,,350.2935,4,up,0.1864,,1,0.3,"[3,2,1]",0.848729104,stimuli/card_10_transparent.png,10,4,0,4,0,1,,,,,,,,,,
,,,,60c605fdb8d40cddbf88c09b,A,2024-07-09_11h59.49.509,Slot Machine Game,2023.1.3,Win32,59.52380952,,,,,,,,,,,,,,,,,,,,,,,,,,,150,,,,,,,,,,,,,,,,,,,,,3,9,,,352.31,5,up,0.0728,,1.5,0.3,"[3,2,1]",0.66479094,stimuli/card_10_transparent.png,10,5,0,5,0,1,,,,,,,,,,
,,,,60c605fdb8d40cddbf88c09b,A,2024-07-09_11h59.49.509,Slot Machine Game,2023.1.3,Win32,59.52380952,,,,,,,,,,,,,,,,,,,,,,,,,,,160,,,,,,,,,,,,,,,,,,,,,3,9,,,354.6934,6,up,0.0886,,1.5,0.3,"[3,2,1]",0.427247817,stimuli/card_10_transparent.png,10,6,0,6,0,1,,,,,,,,,,
,,,,60c605fdb8d40cddbf88c09b,A,2024-07-09_11h59.49.509,Slot Machine Game,2023.1.3,Win32,59.52380952,,,,,,,,,,,,,,,,,,,,,,,,,,,170,,,,,,,,,,,,,,,,,,,,,3,9,,,357.094,7,up,0.049,,1.5,0.3,"[3,2,1]",0.619985141,stimuli/card_10_transparent.png,10,7,0,7,0,1,,,,,,,,,,
,,,,60c605fdb8d40cddbf88c09b,A,2024-07-09_11h59.49.509,Slot Machine Game,2023.1.3,Win32,59.52380952,,,,,,,,,,,,,,,,,,,,,,,,,,,270,,,,,,,,,,,,,,,,,,,,,3,9,,,359.4769,8,up,0.1543,,0.5,0.3,"[3,1,2]",0.501481301,stimuli/card_100_transparent.png,100,8,0,8,0,1,,,,,,,,,,
,,,,60c605fdb8d40cddbf88c09b,A,2024-07-09_11h59.49.509,Slot Machine Game,2023.1.3,Win32,59.52380952,,,,,,,,,,,,,,,,,,,,,,,,,,,370,,,,,,,,,,,,,,,,,,,,,3,9,,,360.9602,9,up,0.067,,0.5,0.3,"[3,1,2]",0.750882425,stimuli/card_100_transparent.png,100,9,0,9,0,1,,,,,,,,,,
,,,,60c605fdb8d40cddbf88c09b,A,2024-07-09_11h59.49.509,Slot Machine Game,2023.1.3,Win32,59.52380952,,,,,,,,,,,,,,,,,,,,,,,,,,,370,,,,,,,,,,,,,,,,,,,,,3,9,,,362.3604,10,up,0.0365,,1,0.3,"[3,1,2]",0.080538577,stimuli/card_0_transparent.png,0,10,0,10,0,1,,,,,,,,,,
,,,,60c605fdb8d40cddbf88c09b,A,2024-07-09_11h59.49.509,Slot Machine Game,2023.1.3,Win32,59.52380952,,,,,,,,,,,,,,,,,,,,,,,,,,,370,,,,,,,,,,,,,,,,,,,,,3,9,,,364.2269,11,left,0.2455,,0.5,0.3,"[3,1,2]",0.209014669,stimuli/card_0_transparent.png,0,11,0,11,0,1,,,,,,,,,,
,,,,60c605fdb8d40cddbf88c09b,A,2024-07-09_11h59.49.509,Slot Machine Game,2023.1.3,Win32,59.52380952,,,,,,,,,,,,,,,,,,,,,,,,,,,380,,,,,,,,,,,,,,,,,,,,,3,9,,,365.7932,12,right,0.0172,,0.5,0.3,"[3,1,2]",0.830744617,stimuli/card_10_transparent.png,10,12,0,12,0,1,,,,,,,,,,
,,,,60c605fdb8d40cddbf88c09b,A,2024-07-09_11h59.49.509,Slot Machine Game,2023.1.3,Win32,59.52380952,,,,,,,,,,,,,,,,,,,,,,,,,,,390,,,,,,,,,,,,,,,,,,,,,3,9,,,367.1264,13,up,0.1199,,1.5,0.3,"[3,1,2]",0.138264807,stimuli/card_10_transparent.png,10,13,0,13,0,1,,,,,,,,,,
,,,,60c605fdb8d40cddbf88c09b,A,2024-07-09_11h59.49.509,Slot Machine Game,2023.1.3,Win32,59.52380952,,,,,,,,,,,,,,,,,,,,,,,,,,,490,,,,,,,,,,,,,,,,,,,,,3,9,,,369.5603,14,up,0.0541,,1,0.3,"[3,1,2]",0.403609368,stimuli/card_100_transparent.png,100,14,0,14,0,1,,,,,,,,,,
,,,,60c605fdb8d40cddbf88c09b,A,2024-07-09_11h59.49.509,Slot Machine Game,2023.1.3,Win32,59.52380952,,,,,,,,,,,,,,,,,,,,,,,,,,,,,,,,,,,371.4432,,,,,,,,,,,,,,,,,,,,,,,,,,,,,,,,,"[1320,1040,490]",2,0,2,0,1,,,,
,,,,60c605fdb8d40cddbf88c09b,A,2024-07-09_11h59.49.509,Slot Machine Game,2023.1.3,Win32,59.52380952,,,,,,,,,,,,,,,,,,,,,,,,,,,0,,,,,,,,,,,,,,,,,,,,,4,1,"[12,15]","[[2,1,3],[2,3,1]]",376.4513,0,right,0.0174,,1,0.3,"[2,1,3]",0.923891433,stimuli/card_0_transparent.png,0,0,0,0,0,1,,,,,,,,,,
,,,,60c605fdb8d40cddbf88c09b,A,2024-07-09_11h59.49.509,Slot Machine Game,2023.1.3,Win32,59.52380952,,,,,,,,,,,,,,,,,,,,,,,,,,,10,,,,,,,,,,,,,,,,,,,,,4,1,,,378.2935,1,right,0.0505,,0.5,0.3,"[2,1,3]",0.12165796,stimuli/card_10_transparent.png,10,1,0,1,0,1,,,,,,,,,,
,,,,60c605fdb8d40cddbf88c09b,A,2024-07-09_11h59.49.509,Slot Machine Game,2023.1.3,Win32,59.52380952,,,,,,,,,,,,,,,,,,,,,,,,,,,10,,,,,,,,,,,,,,,,,,,,,4,1,,,379.6598,2,right,0.0899,,1.5,0.3,"[2,1,3]",0.747084795,stimuli/card_0_transparent.png,0,2,0,2,0,1,,,,,,,,,,
,,,,60c605fdb8d40cddbf88c09b,A,2024-07-09_11h59.49.509,Slot Machine Game,2023.1.3,Win32,59.52380952,,,,,,,,,,,,,,,,,,,,,,,,,,,20,,,,,,,,,,,,,,,,,,,,,4,1,,,382.0769,3,left,0.0106,,1.5,0.3,"[2,1,3]",0.383220561,stimuli/card_10_transparent.png,10,3,0,3,0,1,,,,,,,,,,
,,,,60c605fdb8d40cddbf88c09b,A,2024-07-09_11h59.49.509,Slot Machine Game,2023.1.3,Win32,59.52380952,,,,,,,,,,,,,,,,,,,,,,,,,,,30,,,,,,,,,,,,,,,,,,,,,4,1,,,384.3936,4,left,0.0003,,1.5,0.3,"[2,1,3]",0.694486633,stimuli/card_10_transparent.png,10,4,0,4,0,1,,,,,,,,,,
,,,,60c605fdb8d40cddbf88c09b,A,2024-07-09_11h59.49.509,Slot Machine Game,2023.1.3,Win32,59.52380952,,,,,,,,,,,,,,,,,,,,,,,,,,,30,,,,,,,,,,,,,,,,,,,,,4,1,,,386.7268,5,left,0.1198,,1.5,0.3,"[2,1,3]",0.000847732,stimuli/card_0_transparent.png,0,5,0,5,0,1,,,,,,,,,,
,,,,60c605fdb8d40cddbf88c09b,A,2024-07-09_11h59.49.509,Slot Machine Game,2023.1.3,Win32,59.52380952,,,,,,,,,,,,,,,,,,,,,,,,,,,130,,,,,,,,,,,,,,,,,,,,,4,1,,,389.177,6,up,1.1425,,0.5,0.3,"[2,1,3]",0.299403465,stimuli/card_100_transparent.png,100,6,0,6,0,1,,,,,,,,,,
,,,,60c605fdb8d40cddbf88c09b,A,2024-07-09_11h59.49.509,Slot Machine Game,2023.1.3,Win32,59.52380952,,,,,,,,,,,,,,,,,,,,,,,,,,,130,,,,,,,,,,,,,,,,,,,,,4,1,,,391.6436,7,up,0.7681,,1,0.3,"[2,1,3]",0.045668028,stimuli/card_0_transparent.png,0,7,0,7,0,1,,,,,,,,,,
,,,,60c605fdb8d40cddbf88c09b,A,2024-07-09_11h59.49.509,Slot Machine Game,2023.1.3,Win32,59.52380952,,,,,,,,,,,,,,,,,,,,,,,,,,,230,,,,,,,,,,,,,,,,,,,,,4,1,,,394.2431,8,up,1.0831,,0.5,0.3,"[2,1,3]",0.594037861,stimuli/card_100_transparent.png,100,8,0,8,0,1,,,,,,,,,,
,,,,60c605fdb8d40cddbf88c09b,A,2024-07-09_11h59.49.509,Slot Machine Game,2023.1.3,Win32,59.52380952,,,,,,,,,,,,,,,,,,,,,,,,,,,330,,,,,,,,,,,,,,,,,,,,,4,1,,,396.6596,9,up,0.1846,,1.5,0.3,"[2,1,3]",0.414807212,stimuli/card_100_transparent.png,100,9,0,9,0,1,,,,,,,,,,
,,,,60c605fdb8d40cddbf88c09b,A,2024-07-09_11h59.49.509,Slot Machine Game,2023.1.3,Win32,59.52380952,,,,,,,,,,,,,,,,,,,,,,,,,,,430,,,,,,,,,,,,,,,,,,,,,4,1,,,399.1597,10,up,0.5587,,0.5,0.3,"[2,1,3]",0.983000381,stimuli/card_100_transparent.png,100,10,0,10,0,1,,,,,,,,,,
,,,,60c605fdb8d40cddbf88c09b,A,2024-07-09_11h59.49.509,Slot Machine Game,2023.1.3,Win32,59.52380952,,,,,,,,,,,,,,,,,,,,,,,,,,,530,,,,,,,,,,,,,,,,,,,,,4,1,,,401.0432,11,up,0.0863,,1,0.3,"[2,1,3]",0.751166971,stimuli/card_100_transparent.png,100,11,0,11,0,1,,,,,,,,,,
,,,,60c605fdb8d40cddbf88c09b,A,2024-07-09_11h59.49.509,Slot Machine Game,2023.1.3,Win32,59.52380952,,,,,,,,,,,,,,,,,,,,,,,,,,,530,,,,,,,,,,,,,,,,,,,,,4,1,,,402.9432,12,up,0.1595,,0.5,0.3,"[2,3,1]",0.750697747,stimuli/card_0_transparent.png,0,12,0,12,0,1,,,,,,,,,,
,,,,60c605fdb8d40cddbf88c09b,A,2024-07-09_11h59.49.509,Slot Machine Game,2023.1.3,Win32,59.52380952,,,,,,,,,,,,,,,,,,,,,,,,,,,530,,,,,,,,,,,,,,,,,,,,,4,1,,,404.4096,13,up,0.086,,0.5,0.3,"[2,3,1]",0.314988077,stimuli/card_0_transparent.png,0,13,0,13,0,1,,,,,,,,,,
,,,,60c605fdb8d40cddbf88c09b,A,2024-07-09_11h59.49.509,Slot Machine Game,2023.1.3,Win32,59.52380952,,,,,,,,,,,,,,,,,,,,,,,,,,,530,,,,,,,,,,,,,,,,,,,,,4,1,,,405.81,14,up,0.1195,,0.5,0.3,"[2,3,1]",0.432138349,stimuli/card_0_transparent.png,0,14,0,14,0,1,,,,,,,,,,
,,,,60c605fdb8d40cddbf88c09b,A,2024-07-09_11h59.49.509,Slot Machine Game,2023.1.3,Win32,59.52380952,,,,,,,,,,,,,,,,,,,,,,,,,,,,,,,,,,,407.2602,,,,,,,,,,,,,,,,,,,,,,,,,,,,,,,,,"[1320,1040,490,530]",3,0,3,0,1,,,,
,,,,60c605fdb8d40cddbf88c09b,A,2024-07-09_11h59.49.509,Slot Machine Game,2023.1.3,Win32,59.52380952,,,,,,,,,,,,,,,,,,,,,,,,,,,100,,,,,,,,,,,,,,,,,,,,,5,2,"[6,15]","[[1,3,2],[3,2,1]]",412.2706,0,up,0.4045,,1.5,0.3,"[1,3,2]",0.01662049,stimuli/card_100_transparent.png,100,0,0,0,0,1,,,,,,,,,,
,,,,60c605fdb8d40cddbf88c09b,A,2024-07-09_11h59.49.509,Slot Machine Game,2023.1.3,Win32,59.52380952,,,,,,,,,,,,,,,,,,,,,,,,,,,100,,,,,,,,,,,,,,,,,,,,,5,2,,,414.9933,1,up,0.1577,,0.5,0.3,"[1,3,2]",0.874827814,stimuli/card_0_transparent.png,0,1,0,1,0,1,,,,,,,,,,
,,,,60c605fdb8d40cddbf88c09b,A,2024-07-09_11h59.49.509,Slot Machine Game,2023.1.3,Win32,59.52380952,,,,,,,,,,,,,,,,,,,,,,,,,,,100,,,,,,,,,,,,,,,,,,,,,5,2,,,416.4768,2,up,1.2256,,1.5,0.3,"[1,3,2]",0.227987529,stimuli/card_0_transparent.png,0,2,0,2,0,1,,,,,,,,,,
,,,,60c605fdb8d40cddbf88c09b,A,2024-07-09_11h59.49.509,Slot Machine Game,2023.1.3,Win32,59.52380952,,,,,,,,,,,,,,,,,,,,,,,,,,,100,,,,,,,,,,,,,,,,,,,,,5,2,,,420.0263,3,up,0.1403,,1.5,0.3,"[1,3,2]",0.966791512,stimuli/card_0_transparent.png,0,3,0,3,0,1,,,,,,,,,,
,,,,60c605fdb8d40cddbf88c09b,A,2024-07-09_11h59.49.509,Slot Machine Game,2023.1.3,Win32,59.52380952,,,,,,,,,,,,,,,,,,,,,,,,,,,200,,,,,,,,,,,,,,,,,,,,,5,2,,,422.4768,4,left,0.7232,,1.5,0.3,"[1,3,2]",0.404776376,stimuli/card_100_transparent.png,100,4,0,4,0,1,,,,,,,,,,
,,,,60c605fdb8d40cddbf88c09b,A,2024-07-09_11h59.49.509,Slot Machine Game,2023.1.3,Win32,59.52380952,,,,,,,,,,,,,,,,,,,,,,,,,,,300,,,,,,,,,,,,,,,,,,,,,5,2,,,425.5264,5,left,0.2009,,0.5,0.3,"[1,3,2]",0.692972316,stimuli/card_100_transparent.png,100,5,0,5,0,1,,,,,,,,,,
,,,,60c605fdb8d40cddbf88c09b,A,2024-07-09_11h59.49.509,Slot Machine Game,2023.1.3,Win32,59.52380952,,,,,,,,,,,,,,,,,,,,,,,,,,,310,,,,,,,,,,,,,,,,,,,,,5,2,,,427.0432,6,left,0.1554,,1,0.3,"[3,2,1]",0.195032351,stimuli/card_10_transparent.png,10,6,0,6,0,1,,,,,,,,,,
,,,,60c605fdb8d40cddbf88c09b,A,2024-07-09_11h59.49.509,Slot Machine Game,2023.1.3,Win32,59.52380952,,,,,,,,,,,,,,,,,,,,,,,,,,,310,,,,,,,,,,,,,,,,,,,,,5,2,,,429.027,7,left,0.1188,,1,0.3,"[3,2,1]",0.84803077,stimuli/card_0_transparent.png,0,7,0,7,0,1,,,,,,,,,,
,,,,60c605fdb8d40cddbf88c09b,A,2024-07-09_11h59.49.509,Slot Machine Game,2023.1.3,Win32,59.52380952,,,,,,,,,,,,,,,,,,,,,,,,,,,310,,,,,,,,,,,,,,,,,,,,,5,2,,,430.9768,8,left,0.0147,,1.5,0.3,"[3,2,1]",0.66761631,stimuli/card_0_transparent.png,0,8,0,8,0,1,,,,,,,,,,
,,,,60c605fdb8d40cddbf88c09b,A,2024-07-09_11h59.49.509,Slot Machine Game,2023.1.3,Win32,59.52380952,,,,,,,,,,,,,,,,,,,,,,,,,,,410,,,,,,,,,,,,,,,,,,,,,5,2,,,433.3268,9,left,0.1753,,1.5,0.3,"[3,2,1]",0.038795873,stimuli/card_100_transparent.png,100,9,0,9,0,1,,,,,,,,,,
,,,,60c605fdb8d40cddbf88c09b,A,2024-07-09_11h59.49.509,Slot Machine Game,2023.1.3,Win32,59.52380952,,,,,,,,,,,,,,,,,,,,,,,,,,,410,,,,,,,,,,,,,,,,,,,,,5,2,,,435.8263,10,left,0.3884,,1.5,0.3,"[3,2,1]",0.837225371,stimuli/card_0_transparent.png,0,10,0,10,0,1,,,,,,,,,,
,,,,60c605fdb8d40cddbf88c09b,A,2024-07-09_11h59.49.509,Slot Machine Game,2023.1.3,Win32,59.52380952,,,,,,,,,,,,,,,,,,,,,,,,,,,410,,,,,,,,,,,,,,,,,,,,,5,2,,,438.5435,11,left,0.3118,,1,0.3,"[3,2,1]",0.70061657,stimuli/card_0_transparent.png,0,11,0,11,0,1,,,,,,,,,,
,,,,60c605fdb8d40cddbf88c09b,A,2024-07-09_11h59.49.509,Slot Machine Game,2023.1.3,Win32,59.52380952,,,,,,,,,,,,,,,,,,,,,,,,,,,510,,,,,,,,,,,,,,,,,,,,,5,2,,,440.6771,12,left,0.0893,,1,0.3,"[3,2,1]",0.042787575,stimuli/card_100_transparent.png,100,12,0,12,0,1,,,,,,,,,,
,,,,60c605fdb8d40cddbf88c09b,A,2024-07-09_11h59.49.509,Slot Machine Game,2023.1.3,Win32,59.52380952,,,,,,,,,,,,,,,,,,,,,,,,,,,610,,,,,,,,,,,,,,,,,,,,,5,2,,,442.593,13,left,0.0028,,1.5,0.3,"[3,2,1]",0.09148335,stimuli/card_100_transparent.png,100,13,0,13,0,1,,,,,,,,,,
,,,,60c605fdb8d40cddbf88c09b,A,2024-07-09_11h59.49.509,Slot Machine Game,2023.1.3,Win32,59.52380952,,,,,,,,,,,,,,,,,,,,,,,,,,,620,,,,,,,,,,,,,,,,,,,,,5,2,,,444.9099,14,left,0.2348,,0.5,0.3,"[3,2,1]",0.151225458,stimuli/card_10_transparent.png,10,14,0,14,0,1,,,,,,,,,,
,,,,60c605fdb8d40cddbf88c09b,A,2024-07-09_11h59.49.509,Slot Machine Game,2023.1.3,Win32,59.52380952,,,,,,,,,,,,,,,,,,,,,,,,,,,,,,,,,,,446.4598,,,,,,,,,,,,,,,,,,,,,,,,,,,,,,,,,"[1320,1040,490,530,620]",4,0,4,0,1,,,,
,,,,60c605fdb8d40cddbf88c09b,A,2024-07-09_11h59.49.509,Slot Machine Game,2023.1.3,Win32,59.52380952,,,,,,,,,,,,,,,,,,,,,,,,,,,100,,,,,,,,,,,,,,,,,,,,,6,4,"[7,15]","[[2,3,1],[1,2,3]]",451.4713,0,right,0.7835,,1.5,0.3,"[2,3,1]",0.315078108,stimuli/card_100_transparent.png,100,0,0,0,0,1,,,,,,,,,,
,,,,60c605fdb8d40cddbf88c09b,A,2024-07-09_11h59.49.509,Slot Machine Game,2023.1.3,Win32,59.52380952,,,,,,,,,,,,,,,,,,,,,,,,,,,110,,,,,,,,,,,,,,,,,,,,,6,4,,,454.5771,1,right,0.2152,,1.5,0.3,"[2,3,1]",0.103892401,stimuli/card_10_transparent.png,10,1,0,1,0,1,,,,,,,,,,
,,,,60c605fdb8d40cddbf88c09b,A,2024-07-09_11h59.49.509,Slot Machine Game,2023.1.3,Win32,59.52380952,,,,,,,,,,,,,,,,,,,,,,,,,,,210,,,,,,,,,,,,,,,,,,,,,6,4,,,457.1268,2,right,0.0342,,1,0.3,"[2,3,1]",0.579908959,stimuli/card_100_transparent.png,100,2,0,2,0,1,,,,,,,,,,
,,,,60c605fdb8d40cddbf88c09b,A,2024-07-09_11h59.49.509,Slot Machine Game,2023.1.3,Win32,59.52380952,,,,,,,,,,,,,,,,,,,,,,,,,,,220,,,,,,,,,,,,,,,,,,,,,6,4,,,458.9935,3,right,0.0192,,0.5,0.3,"[2,3,1]",0.190707387,stimuli/card_10_transparent.png,10,3,0,3,0,1,,,,,,,,,,
,,,,60c605fdb8d40cddbf88c09b,A,2024-07-09_11h59.49.509,Slot Machine Game,2023.1.3,Win32,59.52380952,,,,,,,,,,,,,,,,,,,,,,,,,,,320,,,,,,,,,,,,,,,,,,,,,6,4,,,460.3435,4,right,0.0228,,1.5,0.3,"[2,3,1]",0.311947418,stimuli/card_100_transparent.png,100,4,0,4,0,1,,,,,,,,,,
,,,,60c605fdb8d40cddbf88c09b,A,2024-07-09_11h59.49.509,Slot Machine Game,2023.1.3,Win32,59.52380952,,,,,,,,,,,,,,,,,,,,,,,,,,,420,,,,,,,,,,,,,,,,,,,,,6,4,,,462.6938,5,right,0.2564,,1,0.3,"[2,3,1]",0.712105085,stimuli/card_100_transparent.png,100,5,0,5,0,1,,,,,,,,,,
,,,,60c605fdb8d40cddbf88c09b,A,2024-07-09_11h59.49.509,Slot Machine Game,2023.1.3,Win32,59.52380952,,,,,,,,,,,,,,,,,,,,,,,,,,,520,,,,,,,,,,,,,,,,,,,,,6,4,,,464.7762,6,right,1.086,,0.5,0.3,"[2,3,1]",0.895593692,stimuli/card_100_transparent.png,100,6,0,6,0,1,,,,,,,,,,
,,,,60c605fdb8d40cddbf88c09b,A,2024-07-09_11h59.49.509,Slot Machine Game,2023.1.3,Win32,59.52380952,,,,,,,,,,,,,,,,,,,,,,,,,,,520,,,,,,,,,,,,,,,,,,,,,6,4,,,467.177,7,right,0.4166,,0.5,0.3,"[1,2,3]",0.69123868,stimuli/card_0_transparent.png,0,7,0,7,0,1,,,,,,,,,,
,,,,60c605fdb8d40cddbf88c09b,A,2024-07-09_11h59.49.509,Slot Machine Game,2023.1.3,Win32,59.52380952,,,,,,,,,,,,,,,,,,,,,,,,,,,520,,,,,,,,,,,,,,,,,,,,,6,4,,,468.9265,8,right,0.1205,,0.5,0.3,"[1,2,3]",0.232073635,stimuli/card_0_transparent.png,0,8,0,8,0,1,,,,,,,,,,
,,,,60c605fdb8d40cddbf88c09b,A,2024-07-09_11h59.49.509,Slot Machine Game,2023.1.3,Win32,59.52380952,,,,,,,,,,,,,,,,,,,,,,,,,,,520,,,,,,,,,,,,,,,,,,,,,6,4,,,470.3768,9,right,0.0701,,0.5,0.3,"[1,2,3]",0.378484782,stimuli/card_0_transparent.png,0,9,0,9,0,1,,,,,,,,,,
,,,,60c605fdb8d40cddbf88c09b,A,2024-07-09_11h59.49.509,Slot Machine Game,2023.1.3,Win32,59.52380952,,,,,,,,,,,,,,,,,,,,,,,,,,,520,,,,,,,,,,,,,,,,,,,,,6,4,,,471.7768,10,right,0.589,,1.5,0.3,"[1,2,3]",0.683664451,stimuli/card_0_transparent.png,0,10,0,10,0,1,,,,,,,,,,
,,,,60c605fdb8d40cddbf88c09b,A,2024-07-09_11h59.49.509,Slot Machine Game,2023.1.3,Win32,59.52380952,,,,,,,,,,,,,,,,,,,,,,,,,,,620,,,,,,,,,,,,,,,,,,,,,6,4,,,474.6927,11,right,1.1134,,0.5,0.3,"[1,2,3]",0.050658178,stimuli/card_100_transparent.png,100,11,0,11,0,1,,,,,,,,,,
,,,,60c605fdb8d40cddbf88c09b,A,2024-07-09_11h59.49.509,Slot Machine Game,2023.1.3,Win32,59.52380952,,,,,,,,,,,,,,,,,,,,,,,,,,,620,,,,,,,,,,,,,,,,,,,,,6,4,,,477.1269,12,right,0.0505,,0.5,0.3,"[1,2,3]",0.631340697,stimuli/card_0_transparent.png,0,12,0,12,0,1,,,,,,,,,,
,,,,60c605fdb8d40cddbf88c09b,A,2024-07-09_11h59.49.509,Slot Machine Game,2023.1.3,Win32,59.52380952,,,,,,,,,,,,,,,,,,,,,,,,,,,620,,,,,,,,,,,,,,,,,,,,,6,4,,,478.5101,13,right,0.0025,,1.5,0.3,"[1,2,3]",0.278807072,stimuli/card_0_transparent.png,0,13,0,13,0,1,,,,,,,,,,
,,,,60c605fdb8d40cddbf88c09b,A,2024-07-09_11h59.49.509,Slot Machine Game,2023.1.3,Win32,59.52380952,,,,,,,,,,,,,,,,,,,,,,,,,,,630,,,,,,,,,,,,,,,,,,,,,6,4,,,480.8431,14,right,0.075,,1.5,0.3,"[1,2,3]",0.168324177,stimuli/card_10_transparent.png,10,14,0,14,0,1,,,,,,,,,,
,,,,60c605fdb8d40cddbf88c09b,A,2024-07-09_11h59.49.509,Slot Machine Game,2023.1.3,Win32,59.52380952,,,,,,,,,,,,,,,,,,,,,,,,,,,,,,,,,,,483.2267,,,,,,,,,,,,,,,,,,,,,,,,,,,,,,,,,"[1320,1040,490,530,620,630]",5,0,5,0,1,,,,
,,,,60c605fdb8d40cddbf88c09b,A,2024-07-09_11h59.49.509,Slot Machine Game,2023.1.3,Win32,59.52380952,,,,,,,,,,,,,,,,,,,,,,,,,,,0,,,,,,,,,,,,,,,,,,,,,7,10,"[10,15]","[[3,1,2],[1,3,2]]",488.2364,0,left,0.2515,,1.5,0.3,"[3,1,2]",0.467479195,stimuli/card_0_transparent.png,0,0,0,0,0,1,,,,,,,,,,
,,,,60c605fdb8d40cddbf88c09b,A,2024-07-09_11h59.49.509,Slot Machine Game,2023.1.3,Win32,59.52380952,,,,,,,,,,,,,,,,,,,,,,,,,,,0,,,,,,,,,,,,,,,,,,,,,7,10,,,490.8097,1,up,0.0002,,1,0.3,"[3,1,2]",0.014161727,stimuli/card_0_transparent.png,0,1,0,1,0,1,,,,,,,,,,
,,,,60c605fdb8d40cddbf88c09b,A,2024-07-09_11h59.49.509,Slot Machine Game,2023.1.3,Win32,59.52380952,,,,,,,,,,,,,,,,,,,,,,,,,,,10,,,,,,,,,,,,,,,,,,,,,7,10,,,492.6433,2,right,0.4841,,1.5,0.3,"[3,1,2]",0.569347186,stimuli/card_10_transparent.png,10,2,0,2,0,1,,,,,,,,,,
,,,,60c605fdb8d40cddbf88c09b,A,2024-07-09_11h59.49.509,Slot Machine Game,2023.1.3,Win32,59.52380952,,,,,,,,,,,,,,,,,,,,,,,,,,,110,,,,,,,,,,,,,,,,,,,,,7,10,,,495.46,3,right,0.4821,,1.5,0.3,"[3,1,2]",0.144174507,stimuli/card_100_transparent.png,100,3,0,3,0,1,,,,,,,,,,
,,,,60c605fdb8d40cddbf88c09b,A,2024-07-09_11h59.49.509,Slot Machine Game,2023.1.3,Win32,59.52380952,,,,,,,,,,,,,,,,,,,,,,,,,,,120,,,,,,,,,,,,,,,,,,,,,7,10,,,498.2762,4,right,0.0061,,1,0.3,"[3,1,2]",0.543270924,stimuli/card_10_transparent.png,10,4,0,4,0,1,,,,,,,,,,
,,,,60c605fdb8d40cddbf88c09b,A,2024-07-09_11h59.49.509,Slot Machine Game,2023.1.3,Win32,59.52380952,,,,,,,,,,,,,,,,,,,,,,,,,,,130,,,,,,,,,,,,,,,,,,,,,7,10,,,500.093,5,right,0.0346,,1.5,0.3,"[3,1,2]",0.244905502,stimuli/card_10_transparent.png,10,5,0,5,0,1,,,,,,,,,,
,,,,60c605fdb8d40cddbf88c09b,A,2024-07-09_11h59.49.509,Slot Machine Game,2023.1.3,Win32,59.52380952,,,,,,,,,,,,,,,,,,,,,,,,,,,140,,,,,,,,,,,,,,,,,,,,,7,10,,,502.4437,6,right,1.4739,,1,0.3,"[3,1,2]",0.735041722,stimuli/card_10_transparent.png,10,6,0,6,0,1,,,,,,,,,,
,,,,60c605fdb8d40cddbf88c09b,A,2024-07-09_11h59.49.509,Slot Machine Game,2023.1.3,Win32,59.52380952,,,,,,,,,,,,,,,,,,,,,,,,,,,140,,,,,,,,,,,,,,,,,,,,,7,10,,,505.7436,7,right,0.3734,,1.5,0.3,"[3,1,2]",0.000759916,stimuli/card_0_transparent.png,0,7,0,7,0,1,,,,,,,,,,
,,,,60c605fdb8d40cddbf88c09b,A,2024-07-09_11h59.49.509,Slot Machine Game,2023.1.3,Win32,59.52380952,,,,,,,,,,,,,,,,,,,,,,,,,,,150,,,,,,,,,,,,,,,,,,,,,7,10,,,508.4436,8,right,1.8,,1,0.3,"[3,1,2]",0.552344931,stimuli/card_10_transparent.png,10,8,0,8,0,1,,,,,,,,,,
,,,,60c605fdb8d40cddbf88c09b,A,2024-07-09_11h59.49.509,Slot Machine Game,2023.1.3,Win32,59.52380952,,,,,,,,,,,,,,,,,,,,,,,,,,,250,,,,,,,,,,,,,,,,,,,,,7,10,,,512.0765,9,right,0.122,,1,0.3,"[3,1,2]",0.185572028,stimuli/card_100_transparent.png,100,9,0,9,0,1,,,,,,,,,,
,,,,60c605fdb8d40cddbf88c09b,A,2024-07-09_11h59.49.509,Slot Machine Game,2023.1.3,Win32,59.52380952,,,,,,,,,,,,,,,,,,,,,,,,,,,260,,,,,,,,,,,,,,,,,,,,,7,10,,,514.01,10,right,0.0279,,1.5,0.3,"[1,3,2]",0.916747622,stimuli/card_10_transparent.png,10,10,0,10,0,1,,,,,,,,,,
,,,,60c605fdb8d40cddbf88c09b,A,2024-07-09_11h59.49.509,Slot Machine Game,2023.1.3,Win32,59.52380952,,,,,,,,,,,,,,,,,,,,,,,,,,,270,,,,,,,,,,,,,,,,,,,,,7,10,,,516.3597,11,right,0.8201,,1,0.3,"[1,3,2]",0.989149989,stimuli/card_10_transparent.png,10,11,0,11,0,1,,,,,,,,,,
,,,,60c605fdb8d40cddbf88c09b,A,2024-07-09_11h59.49.509,Slot Machine Game,2023.1.3,Win32,59.52380952,,,,,,,,,,,,,,,,,,,,,,,,,,,280,,,,,,,,,,,,,,,,,,,,,7,10,,,519.0104,12,right,0.0742,,1.5,0.3,"[1,3,2]",0.272420332,stimuli/card_10_transparent.png,10,12,0,12,0,1,,,,,,,,,,
,,,,60c605fdb8d40cddbf88c09b,A,2024-07-09_11h59.49.509,Slot Machine Game,2023.1.3,Win32,59.52380952,,,,,,,,,,,,,,,,,,,,,,,,,,,290,,,,,,,,,,,,,,,,,,,,,7,10,,,521.4101,13,up,0.0598,,1.5,0.3,"[1,3,2]",0.13744301,stimuli/card_10_transparent.png,10,13,0,13,0,1,,,,,,,,,,
,,,,60c605fdb8d40cddbf88c09b,A,2024-07-09_11h59.49.509,Slot Machine Game,2023.1.3,Win32,59.52380952,,,,,,,,,,,,,,,,,,,,,,,,,,,290,,,,,,,,,,,,,,,,,,,,,7,10,,,523.7933,14,up,0.7568,,0.5,0.3,"[1,3,2]",0.646416875,stimuli/card_0_transparent.png,0,14,0,14,0,1,,,,,,,,,,
,,,,60c605fdb8d40cddbf88c09b,A,2024-07-09_11h59.49.509,Slot Machine Game,2023.1.3,Win32,59.52380952,,,,,,,,,,,,,,,,,,,,,,,,,,,,,,,,,,,525.8602,,,,,,,,,,,,,,,,,,,,,,,,,,,,,,,,,"[1320,1040,490,530,620,630,290]",6,0,6,0,1,,,,
,,,,60c605fdb8d40cddbf88c09b,A,2024-07-09_11h59.49.509,Slot Machine Game,2023.1.3,Win32,59.52380952,,,,,,,,,,,,,,,,,,,,,,,,,,,0,,,,,,,,,,,,,,,,,,,,,8,7,"[9,15]","[[1,3,2],[2,3,1]]",530.8693,0,up,0.6669,,1.5,0.3,"[1,3,2]",0.248050748,stimuli/card_0_transparent.png,0,0,0,0,0,1,,,,,,,,,,
,,,,60c605fdb8d40cddbf88c09b,A,2024-07-09_11h59.49.509,Slot Machine Game,2023.1.3,Win32,59.52380952,,,,,,,,,,,,,,,,,,,,,,,,,,,100,,,,,,,,,,,,,,,,,,,,,8,7,,,533.8597,1,left,0.2677,,1,0.3,"[1,3,2]",0.818885171,stimuli/card_100_transparent.png,100,1,0,1,0,1,,,,,,,,,,
,,,,60c605fdb8d40cddbf88c09b,A,2024-07-09_11h59.49.509,Slot Machine Game,2023.1.3,Win32,59.52380952,,,,,,,,,,,,,,,,,,,,,,,,,,,200,,,,,,,,,,,,,,,,,,,,,8,7,,,535.9434,2,left,0.0829,,0.5,0.3,"[1,3,2]",0.465440237,stimuli/card_100_transparent.png,100,2,0,2,0,1,,,,,,,,,,
,,,,60c605fdb8d40cddbf88c09b,A,2024-07-09_11h59.49.509,Slot Machine Game,2023.1.3,Win32,59.52380952,,,,,,,,,,,,,,,,,,,,,,,,,,,300,,,,,,,,,,,,,,,,,,,,,8,7,,,537.343,3,left,0.0662,,0.5,0.3,"[1,3,2]",0.782750961,stimuli/card_100_transparent.png,100,3,0,3,0,1,,,,,,,,,,
,,,,60c605fdb8d40cddbf88c09b,A,2024-07-09_11h59.49.509,Slot Machine Game,2023.1.3,Win32,59.52380952,,,,,,,,,,,,,,,,,,,,,,,,,,,400,,,,,,,,,,,,,,,,,,,,,8,7,,,538.7267,4,left,0.071,,1,0.3,"[1,3,2]",0.548640863,stimuli/card_100_transparent.png,100,4,0,4,0,1,,,,,,,,,,
,,,,60c605fdb8d40cddbf88c09b,A,2024-07-09_11h59.49.509,Slot Machine Game,2023.1.3,Win32,59.52380952,,,,,,,,,,,,,,,,,,,,,,,,,,,500,,,,,,,,,,,,,,,,,,,,,8,7,,,540.6269,5,left,0.0513,,0.5,0.3,"[1,3,2]",0.555220855,stimuli/card_100_transparent.png,100,5,0,5,0,1,,,,,,,,,,
,,,,60c605fdb8d40cddbf88c09b,A,2024-07-09_11h59.49.509,Slot Machine Game,2023.1.3,Win32,59.52380952,,,,,,,,,,,,,,,,,,,,,,,,,,,600,,,,,,,,,,,,,,,,,,,,,8,7,,,542.0102,6,left,0.0363,,0.5,0.3,"[1,3,2]",0.823334978,stimuli/card_100_transparent.png,100,6,0,6,0,1,,,,,,,,,,
,,,,60c605fdb8d40cddbf88c09b,A,2024-07-09_11h59.49.509,Slot Machine Game,2023.1.3,Win32,59.52380952,,,,,,,,,,,,,,,,,,,,,,,,,,,700,,,,,,,,,,,,,,,,,,,,,8,7,,,543.3763,7,left,0.1022,,0.5,0.3,"[1,3,2]",0.851988114,stimuli/card_100_transparent.png,100,7,0,7,0,1,,,,,,,,,,
,,,,60c605fdb8d40cddbf88c09b,A,2024-07-09_11h59.49.509,Slot Machine Game,2023.1.3,Win32,59.52380952,,,,,,,,,,,,,,,,,,,,,,,,,,,710,,,,,,,,,,,,,,,,,,,,,8,7,,,544.8101,8,left,0.1504,,1,0.3,"[1,3,2]",0.17310864,stimuli/card_10_transparent.png,10,8,0,8,0,1,,,,,,,,,,
,,,,60c605fdb8d40cddbf88c09b,A,2024-07-09_11h59.49.509,Slot Machine Game,2023.1.3,Win32,59.52380952,,,,,,,,,,,,,,,,,,,,,,,,,,,710,,,,,,,,,,,,,,,,,,,,,8,7,,,546.7934,9,left,0.1563,,1.5,0.3,"[2,3,1]",0.073983175,stimuli/card_0_transparent.png,0,9,0,9,0,1,,,,,,,,,,
,,,,60c605fdb8d40cddbf88c09b,A,2024-07-09_11h59.49.509,Slot Machine Game,2023.1.3,Win32,59.52380952,,,,,,,,,,,,,,,,,,,,,,,,,,,720,,,,,,,,,,,,,,,,,,,,,8,7,,,549.2762,10,left,0.0743,,0.5,0.3,"[2,3,1]",0.750963517,stimuli/card_10_transparent.png,10,10,0,10,0,1,,,,,,,,,,
,,,,60c605fdb8d40cddbf88c09b,A,2024-07-09_11h59.49.509,Slot Machine Game,2023.1.3,Win32,59.52380952,,,,,,,,,,,,,,,,,,,,,,,,,,,730,,,,,,,,,,,,,,,,,,,,,8,7,,,550.6597,11,left,0.0102,,0.5,0.3,"[2,3,1]",0.787661109,stimuli/card_10_transparent.png,10,11,0,11,0,1,,,,,,,,,,
,,,,60c605fdb8d40cddbf88c09b,A,2024-07-09_11h59.49.509,Slot Machine Game,2023.1.3,Win32,59.52380952,,,,,,,,,,,,,,,,,,,,,,,,,,,730,,,,,,,,,,,,,,,,,,,,,8,7,,,551.9765,12,left,0.0392,,1,0.3,"[2,3,1]",0.040200678,stimuli/card_0_transparent.png,0,12,0,12,0,1,,,,,,,,,,
,,,,60c605fdb8d40cddbf88c09b,A,2024-07-09_11h59.49.509,Slot Machine Game,2023.1.3,Win32,59.52380952,,,,,,,,,,,,,,,,,,,,,,,,,,,740,,,,,,,,,,,,,,,,,,,,,8,7,,,553.8261,13,left,0.1389,,1,0.3,"[2,3,1]",0.776604022,stimuli/card_10_transparent.png,10,13,0,13,0,1,,,,,,,,,,
,,,,60c605fdb8d40cddbf88c09b,A,2024-07-09_11h59.49.509,Slot Machine Game,2023.1.3,Win32,59.52380952,,,,,,,,,,,,,,,,,,,,,,,,,,,750,,,,,,,,,,,,,,,,,,,,,8,7,,,555.7763,14,left,0.0061,,0.5,0.3,"[2,3,1]",0.521183763,stimuli/card_10_transparent.png,10,14,0,14,0,1,,,,,,,,,,
,,,,60c605fdb8d40cddbf88c09b,A,2024-07-09_11h59.49.509,Slot Machine Game,2023.1.3,Win32,59.52380952,,,,,,,,,,,,,,,,,,,,,,,,,,,,,,,,,,,557.0933,,,,,,,,,,,,,,,,,,,,,,,,,,,,,,,,,"[1320,1040,490,530,620,630,290,750]",7,0,7,0,1,,,,
,,,,60c605fdb8d40cddbf88c09b,A,2024-07-09_11h59.49.509,Slot Machine Game,2023.1.3,Win32,59.52380952,,,,,,,,,,,,,,,,,,,,,,,,,,,0,,,,,,,,,,,,,,,,,,,,,9,9,[15],"[[3,1,2]]",562.1015,0,left,0.2021,,0.5,0.3,"[3,1,2]",0.420593379,stimuli/card_0_transparent.png,0,0,0,0,0,1,,,,,,,,,,
,,,,60c605fdb8d40cddbf88c09b,A,2024-07-09_11h59.49.509,Slot Machine Game,2023.1.3,Win32,59.52380952,,,,,,,,,,,,,,,,,,,,,,,,,,,0,,,,,,,,,,,,,,,,,,,,,9,9,,,563.6267,1,left,0.1567,,1.5,0.3,"[3,1,2]",0.445765598,stimuli/card_0_transparent.png,0,1,0,1,0,1,,,,,,,,,,
,,,,60c605fdb8d40cddbf88c09b,A,2024-07-09_11h59.49.509,Slot Machine Game,2023.1.3,Win32,59.52380952,,,,,,,,,,,,,,,,,,,,,,,,,,,0,,,,,,,,,,,,,,,,,,,,,9,9,,,566.1098,2,right,0.0341,,1.5,0.3,"[3,1,2]",0.069313492,stimuli/card_0_transparent.png,0,2,0,2,0,1,,,,,,,,,,
,,,,60c605fdb8d40cddbf88c09b,A,2024-07-09_11h59.49.509,Slot Machine Game,2023.1.3,Win32,59.52380952,,,,,,,,,,,,,,,,,,,,,,,,,,,10,,,,,,,,,,,,,,,,,,,,,9,9,,,568.4762,3,right,0.0353,,1.5,0.3,"[3,1,2]",0.369541474,stimuli/card_10_transparent.png,10,3,0,3,0,1,,,,,,,,,,
,,,,60c605fdb8d40cddbf88c09b,A,2024-07-09_11h59.49.509,Slot Machine Game,2023.1.3,Win32,59.52380952,,,,,,,,,,,,,,,,,,,,,,,,,,,110,,,,,,,,,,,,,,,,,,,,,9,9,,,570.8264,4,up,0.2914,,0.5,0.3,"[3,1,2]",0.661294788,stimuli/card_100_transparent.png,100,4,0,4,0,1,,,,,,,,,,
,,,,60c605fdb8d40cddbf88c09b,A,2024-07-09_11h59.49.509,Slot Machine Game,2023.1.3,Win32,59.52380952,,,,,,,,,,,,,,,,,,,,,,,,,,,210,,,,,,,,,,,,,,,,,,,,,9,9,,,572.4267,5,up,0.037,,1.5,0.3,"[3,1,2]",0.477747583,stimuli/card_100_transparent.png,100,5,0,5,0,1,,,,,,,,,,
,,,,60c605fdb8d40cddbf88c09b,A,2024-07-09_11h59.49.509,Slot Machine Game,2023.1.3,Win32,59.52380952,,,,,,,,,,,,,,,,,,,,,,,,,,,310,,,,,,,,,,,,,,,,,,,,,9,9,,,574.7935,6,up,0.0601,,1.5,0.3,"[3,1,2]",0.445661988,stimuli/card_100_transparent.png,100,6,0,6,0,1,,,,,,,,,,
,,,,60c605fdb8d40cddbf88c09b,A,2024-07-09_11h59.49.509,Slot Machine Game,2023.1.3,Win32,59.52380952,,,,,,,,,,,,,,,,,,,,,,,,,,,410,,,,,,,,,,,,,,,,,,,,,9,9,,,577.1762,7,up,0.418,,1.5,0.3,"[3,1,2]",0.67515459,stimuli/card_100_transparent.png,100,7,0,7,0,1,,,,,,,,,,
,,,,60c605fdb8d40cddbf88c09b,A,2024-07-09_11h59.49.509,Slot Machine Game,2023.1.3,Win32,59.52380952,,,,,,,,,,,,,,,,,,,,,,,,,,,510,,,,,,,,,,,,,,,,,,,,,9,9,,,579.9265,8,up,0.1595,,0.5,0.3,"[3,1,2]",0.733436256,stimuli/card_100_transparent.png,100,8,0,8,0,1,,,,,,,,,,
,,,,60c605fdb8d40cddbf88c09b,A,2024-07-09_11h59.49.509,Slot Machine Game,2023.1.3,Win32,59.52380952,,,,,,,,,,,,,,,,,,,,,,,,,,,610,,,,,,,,,,,,,,,,,,,,,9,9,,,581.4098,9,up,0.0375,,1.5,0.3,"[3,1,2]",0.476515006,stimuli/card_100_transparent.png,100,9,0,9,0,1,,,,,,,,,,
,,,,60c605fdb8d40cddbf88c09b,A,2024-07-09_11h59.49.509,Slot Machine Game,2023.1.3,Win32,59.52380952,,,,,,,,,,,,,,,,,,,,,,,,,,,620,,,,,,,,,,,,,,,,,,,,,9,9,,,583.7762,10,up,0.061,,1,0.3,"[3,1,2]",0.199392102,stimuli/card_10_transparent.png,10,10,0,10,0,1,,,,,,,,,,
,,,,60c605fdb8d40cddbf88c09b,A,2024-07-09_11h59.49.509,Slot Machine Game,2023.1.3,Win32,59.52380952,,,,,,,,,,,,,,,,,,,,,,,,,,,720,,,,,,,,,,,,,,,,,,,,,9,9,,,585.643,11,up,0.0517,,1.5,0.3,"[3,1,2]",0.782559181,stimuli/card_100_transparent.png,100,11,0,11,0,1,,,,,,,,,,
,,,,60c605fdb8d40cddbf88c09b,A,2024-07-09_11h59.49.509,Slot Machine Game,2023.1.3,Win32,59.52380952,,,,,,,,,,,,,,,,,,,,,,,,,,,730,,,,,,,,,,,,,,,,,,,,,9,9,,,588.0096,12,up,0.1239,,1,0.3,"[3,1,2]",0.172200528,stimuli/card_10_transparent.png,10,12,0,12,0,1,,,,,,,,,,
,,,,60c605fdb8d40cddbf88c09b,A,2024-07-09_11h59.49.509,Slot Machine Game,2023.1.3,Win32,59.52380952,,,,,,,,,,,,,,,,,,,,,,,,,,,830,,,,,,,,,,,,,,,,,,,,,9,9,,,589.9602,13,up,0.3813,,0.5,0.3,"[3,1,2]",0.33546453,stimuli/card_100_transparent.png,100,13,0,13,0,1,,,,,,,,,,
,,,,60c605fdb8d40cddbf88c09b,A,2024-07-09_11h59.49.509,Slot Machine Game,2023.1.3,Win32,59.52380952,,,,,,,,,,,,,,,,,,,,,,,,,,,830,,,,,,,,,,,,,,,,,,,,,9,9,,,591.6766,14,up,0.7771,,1.5,0.3,"[3,1,2]",0.005002826,stimuli/card_0_transparent.png,0,14,0,14,0,1,,,,,,,,,,
,,,,60c605fdb8d40cddbf88c09b,A,2024-07-09_11h59.49.509,Slot Machine Game,2023.1.3,Win32,59.52380952,,,,,,,,,,,,,,,,,,,,,,,,,,,,,,,,,,,594.7776,,,,,,,,,,,,,,,,,,,,,,,,,,,,,,,,,"[1320,1040,490,530,620,630,290,750,830]",8,0,8,0,1,,,,
,,,,60c605fdb8d40cddbf88c09b,A,2024-07-09_11h59.49.509,Slot Machine Game,2023.1.3,Win32,59.52380952,,,,,,,,,,,,,,,,,,,,,,,,,,,0,,,,,,,,,,,,,,,,,,,,,10,6,"[4,10,15]","[[2,3,1],[1,3,2],[3,2,1]]",599.7848,0,up,0.038,,1,0.3,"[2,3,1]",0.938877636,stimuli/card_0_transparent.png,0,0,0,0,0,1,,,,,,,,,,
,,,,60c605fdb8d40cddbf88c09b,A,2024-07-09_11h59.49.509,Slot Machine Game,2023.1.3,Win32,59.52380952,,,,,,,,,,,,,,,,,,,,,,,,,,,10,,,,,,,,,,,,,,,,,,,,,10,6,,,601.6607,1,left,0.1923,,0.5,0.3,"[2,3,1]",0.484108889,stimuli/card_10_transparent.png,10,1,0,1,0,1,,,,,,,,,,
,,,,60c605fdb8d40cddbf88c09b,A,2024-07-09_11h59.49.509,Slot Machine Game,2023.1.3,Win32,59.52380952,,,,,,,,,,,,,,,,,,,,,,,,,,,110,,,,,,,,,,,,,,,,,,,,,10,6,,,603.1776,2,right,0.0284,,1.5,0.3,"[2,3,1]",0.684662961,stimuli/card_100_transparent.png,100,2,0,2,0,1,,,,,,,,,,
,,,,60c605fdb8d40cddbf88c09b,A,2024-07-09_11h59.49.509,Slot Machine Game,2023.1.3,Win32,59.52380952,,,,,,,,,,,,,,,,,,,,,,,,,,,210,,,,,,,,,,,,,,,,,,,,,10,6,,,605.5288,3,right,0.2204,,1,0.3,"[2,3,1]",0.550996962,stimuli/card_100_transparent.png,100,3,0,3,0,1,,,,,,,,,,
,,,,60c605fdb8d40cddbf88c09b,A,2024-07-09_11h59.49.509,Slot Machine Game,2023.1.3,Win32,59.52380952,,,,,,,,,,,,,,,,,,,,,,,,,,,220,,,,,,,,,,,,,,,,,,,,,10,6,,,607.577,4,right,0.0148,,1.5,0.3,"[1,3,2]",0.672148654,stimuli/card_10_transparent.png,10,4,0,4,0,1,,,,,,,,,,
,,,,60c605fdb8d40cddbf88c09b,A,2024-07-09_11h59.49.509,Slot Machine Game,2023.1.3,Win32,59.52380952,,,,,,,,,,,,,,,,,,,,,,,,,,,230,,,,,,,,,,,,,,,,,,,,,10,6,,,609.9149,5,right,0.0177,,1,0.3,"[1,3,2]",0.49800106,stimuli/card_10_transparent.png,10,5,0,5,0,1,,,,,,,,,,
,,,,60c605fdb8d40cddbf88c09b,A,2024-07-09_11h59.49.509,Slot Machine Game,2023.1.3,Win32,59.52380952,,,,,,,,,,,,,,,,,,,,,,,,,,,240,,,,,,,,,,,,,,,,,,,,,10,6,,,611.7623,6,right,0.1047,,1.5,0.3,"[1,3,2]",0.528622391,stimuli/card_10_transparent.png,10,6,0,6,0,1,,,,,,,,,,
,,,,60c605fdb8d40cddbf88c09b,A,2024-07-09_11h59.49.509,Slot Machine Game,2023.1.3,Win32,59.52380952,,,,,,,,,,,,,,,,,,,,,,,,,,,250,,,,,,,,,,,,,,,,,,,,,10,6,,,614.1936,7,right,0.0538,,1,0.3,"[1,3,2]",0.231930469,stimuli/card_10_transparent.png,10,7,0,7,0,1,,,,,,,,,,
,,,,60c605fdb8d40cddbf88c09b,A,2024-07-09_11h59.49.509,Slot Machine Game,2023.1.3,Win32,59.52380952,,,,,,,,,,,,,,,,,,,,,,,,,,,260,,,,,,,,,,,,,,,,,,,,,10,6,,,616.0943,8,right,0.1172,,0.5,0.3,"[1,3,2]",0.328917638,stimuli/card_10_transparent.png,10,8,0,8,0,1,,,,,,,,,,
,,,,60c605fdb8d40cddbf88c09b,A,2024-07-09_11h59.49.509,Slot Machine Game,2023.1.3,Win32,59.52380952,,,,,,,,,,,,,,,,,,,,,,,,,,,270,,,,,,,,,,,,,,,,,,,,,10,6,,,617.5441,9,right,0.0851,,1.5,0.3,"[1,3,2]",0.75837997,stimuli/card_10_transparent.png,10,9,0,9,0,1,,,,,,,,,,
,,,,60c605fdb8d40cddbf88c09b,A,2024-07-09_11h59.49.509,Slot Machine Game,2023.1.3,Win32,59.52380952,,,,,,,,,,,,,,,,,,,,,,,,,,,370,,,,,,,,,,,,,,,,,,,,,10,6,,,619.9818,10,right,0.1403,,0.5,0.3,"[3,2,1]",0.305937237,stimuli/card_100_transparent.png,100,10,0,10,0,1,,,,,,,,,,
,,,,60c605fdb8d40cddbf88c09b,A,2024-07-09_11h59.49.509,Slot Machine Game,2023.1.3,Win32,59.52380952,,,,,,,,,,,,,,,,,,,,,,,,,,,380,,,,,,,,,,,,,,,,,,,,,10,6,,,621.4433,11,right,0.0009,,0.5,0.3,"[3,2,1]",0.13304726,stimuli/card_10_transparent.png,10,11,0,11,0,1,,,,,,,,,,
,,,,60c605fdb8d40cddbf88c09b,A,2024-07-09_11h59.49.509,Slot Machine Game,2023.1.3,Win32,59.52380952,,,,,,,,,,,,,,,,,,,,,,,,,,,480,,,,,,,,,,,,,,,,,,,,,10,6,,,622.7774,12,right,0.1545,,1,0.3,"[3,2,1]",0.435287096,stimuli/card_100_transparent.png,100,12,0,12,0,1,,,,,,,,,,
,,,,60c605fdb8d40cddbf88c09b,A,2024-07-09_11h59.49.509,Slot Machine Game,2023.1.3,Win32,59.52380952,,,,,,,,,,,,,,,,,,,,,,,,,,,580,,,,,,,,,,,,,,,,,,,,,10,6,,,624.7656,13,right,0.0339,,0.5,0.3,"[3,2,1]",0.781022512,stimuli/card_100_transparent.png,100,13,0,13,0,1,,,,,,,,,,
,,,,60c605fdb8d40cddbf88c09b,A,2024-07-09_11h59.49.509,Slot Machine Game,2023.1.3,Win32,59.52380952,,,,,,,,,,,,,,,,,,,,,,,,,,,590,,,,,,,,,,,,,,,,,,,,,10,6,,,626.128,14,right,0.1257,,1,0.3,"[3,2,1]",0.193975879,stimuli/card_10_transparent.png,10,14,0,14,0,1,,,,,,,,,,
,,,,60c605fdb8d40cddbf88c09b,A,2024-07-09_11h59.49.509,Slot Machine Game,2023.1.3,Win32,59.52380952,,,,,,,,,,,,,,,,,,,,,,,,,,,,,,,,,,,628.0775,,,,,,,,,,,,,,,,,,,,,,,,,,,,,,,,,"[1320,1040,490,530,620,630,290,750,830,590]",9,0,9,0,1,,,,
,,,,60c605fdb8d40cddbf88c09b,A,2024-07-09_11h59.49.509,Slot Machine Game,2023.1.3,Win32,59.52380952,,,,,,,,,,,,,,,,,,,,,,,,,,,,,,,,,,,,,,,,,,,,,,,,,,,,,,,,,,,,,,,,,,,,,,,,,,9,"[1320,1040,490,530,620,630,290,750,830,590]",8.3,2024-07-09_12h10.26.702
