key_resp_welcome_started,key_resp_welcome_keys,key_resp_welcome_rt,key_resp_welcome_duration,prolific_id,path_id,date,expName,psychopyVersion,OS,frameRate,key_resp_instruction1_started,key_resp_instruction1_keys,key_resp_instruction1_rt,key_resp_instruction1_duration,key_resp_instruction2_started,key_resp_instruction2_keys,key_resp_instruction2_rt,key_resp_instruction2_duration,key_resp_instruction3_started,key_resp_instruction3_keys,key_resp_instruction3_rt,key_resp_instruction3_duration,key_resp_instruction4_started,key_resp_instruction4_keys,key_resp_instruction4_rt,key_resp_instruction4_duration,practiceCondition,practice_reward_seqs,practice_trial_started,practice_trial_num,practice_resp_rt,practice_resp_duration,practice_resp_keys,prac_presentationInterval,"practice_reward_seq: 2,1,3",reward_img,cumulative_reward,trial_reward,practice_trials.thisRepN,practice_trials.thisTrialN,practice_trials.thisN,practice_trials.thisIndex,practice_trials.ran,"practice_reward_seq: 2,3,1",block_break_started,"practice_reward_seq: 1,3,2","practice_reward_seq: 3,1,2",practice_end_time,practice_end_keys,practice_end_rt,practice_end_duration,main_instruction_text_started,block_condition,block_order_indices,main_instruction_keys,main_instruction_rt,main_instruction_duration,block_number,block_assignment,current_condition,main_reward_seqs,main_trial_started,main_trial_num,main_trial_keys,main_trial_rt,main_trial_duration,main_presentationInterval,reward_presentation_time,main_reward_seq,reward_rand_val,main_reward_img,current_reward,main_trials.thisRepN,main_trials.thisTrialN,main_trials.thisN,main_trials.thisIndex,main_trials.ran,block_reward,block.thisRepN,block.thisTrialN,block.thisN,block.thisIndex,block.ran,block_reward.length,block_reward_all,reward_amount,date_end_task
0.0003,space,3.2984,,60e5868307d715a4d1445116,B,2024-06-26_15h34.37.336,Slot Machine Game,2023.1.3,Win32,12.00480192,,,,,,,,,,,,,,,,,,,,,,,,,,,,,,,,,,,,,,,,,,,,,,,,,,,,,,,,,,,,,,,,,,,,,,,,,,,,,
,,,,60e5868307d715a4d1445116,B,2024-06-26_15h34.37.336,Slot Machine Game,2023.1.3,Win32,12.00480192,3.3911,space,9.3021,,,,,,,,,,,,,,,,,,,,,,,,,,,,,,,,,,,,,,,,,,,,,,,,,,,,,,,,,,,,,,,,,,,,,,,,,,
,,,,60e5868307d715a4d1445116,B,2024-06-26_15h34.37.336,Slot Machine Game,2023.1.3,Win32,12.00480192,,,,,12.8052,space,19.6423,,,,,,,,,,,,,,,,,,,,,,,,,,,,,,,,,,,,,,,,,,,,,,,,,,,,,,,,,,,,,,,,,,,,,,
,,,,60e5868307d715a4d1445116,B,2024-06-26_15h34.37.336,Slot Machine Game,2023.1.3,Win32,12.00480192,,,,,,,,,32.5851,space,7.7118,,,,,,,,,,,,,,,,,,,,,,,,,,,,,,,,,,,,,,,,,,,,,,,,,,,,,,,,,,,,,,,,,,
,,,,60e5868307d715a4d1445116,B,2024-06-26_15h34.37.336,Slot Machine Game,2023.1.3,Win32,12.00480192,,,,,,,,,,,,,,,,,,,,,,,,,,,,,,,,,,,,,,,,,,,,,,,,,,,,,,,,,,,,,,,,,,,,,,,,,,,,,
,,,,60e5868307d715a4d1445116,B,2024-06-26_15h34.37.336,Slot Machine Game,2023.1.3,Win32,12.00480192,,,,,,,,,,,,,183.2139,space,6.4174,,,,,,,,,,,,,,,,,,,,,,,,,,,,,,,,,,,,,,,,,,,,,,,,,,,,,,,,,,,,,,
,,,,60e5868307d715a4d1445116,B,2024-06-26_15h34.37.336,Slot Machine Game,2023.1.3,Win32,12.00480192,,,,,,,,,,,,,,,,,"[9,15]","[[2,1,3],[2,3,1]]",189.7707,0,1.3892,,up,1,,stimuli/card_100_transparent.png,100,100,0,0,0,0,1,,,,,,,,,,,,,,,,,,,,,,,,,,,,,,,,,,,,,,,,,,,,
,,,,60e5868307d715a4d1445116,B,2024-06-26_15h34.37.336,Slot Machine Game,2023.1.3,Win32,12.00480192,,,,,,,,,,,,,,,,,,,193.1157,1,1.5109,,up,1,,stimuli/card_100_transparent.png,200,100,1,0,1,0,1,,,,,,,,,,,,,,,,,,,,,,,,,,,,,,,,,,,,,,,,,,,,
,,,,60e5868307d715a4d1445116,B,2024-06-26_15h34.37.336,Slot Machine Game,2023.1.3,Win32,12.00480192,,,,,,,,,,,,,,,,,,,196.5731,2,0.142,,up,0.5,,stimuli/card_100_transparent.png,300,100,2,0,2,0,1,,,,,,,,,,,,,,,,,,,,,,,,,,,,,,,,,,,,,,,,,,,,
,,,,60e5868307d715a4d1445116,B,2024-06-26_15h34.37.336,Slot Machine Game,2023.1.3,Win32,12.00480192,,,,,,,,,,,,,,,,,,,198.0977,3,1.363,,right,1.5,,stimuli/card_0_transparent.png,300,0,3,0,3,0,1,,,,,,,,,,,,,,,,,,,,,,,,,,,,,,,,,,,,,,,,,,,,
,,,,60e5868307d715a4d1445116,B,2024-06-26_15h34.37.336,Slot Machine Game,2023.1.3,Win32,12.00480192,,,,,,,,,,,,,,,,,,,201.8012,4,0.9633,,left,1,,stimuli/card_10_transparent.png,310,10,4,0,4,0,1,,,,,,,,,,,,,,,,,,,,,,,,,,,,,,,,,,,,,,,,,,,,
,,,,60e5868307d715a4d1445116,B,2024-06-26_15h34.37.336,Slot Machine Game,2023.1.3,Win32,12.00480192,,,,,,,,,,,,,,,,,,,204.7066,5,0.5455,,up,1.5,,stimuli/card_0_transparent.png,310,0,5,0,5,0,1,,,,,,,,,,,,,,,,,,,,,,,,,,,,,,,,,,,,,,,,,,,,
,,,,60e5868307d715a4d1445116,B,2024-06-26_15h34.37.336,Slot Machine Game,2023.1.3,Win32,12.00480192,,,,,,,,,,,,,,,,,,,207.592,6,0.6884,,left,1,,stimuli/card_0_transparent.png,310,0,6,0,6,0,1,,,,,,,,,,,,,,,,,,,,,,,,,,,,,,,,,,,,,,,,,,,,
,,,,60e5868307d715a4d1445116,B,2024-06-26_15h34.37.336,Slot Machine Game,2023.1.3,Win32,12.00480192,,,,,,,,,,,,,,,,,,,210.1959,7,0.5742,,right,0.5,,stimuli/card_0_transparent.png,310,0,7,0,7,0,1,,,,,,,,,,,,,,,,,,,,,,,,,,,,,,,,,,,,,,,,,,,,
,,,,60e5868307d715a4d1445116,B,2024-06-26_15h34.37.336,Slot Machine Game,2023.1.3,Win32,12.00480192,,,,,,,,,,,,,,,,,,,212.1329,8,0.2957,,right,0.5,,stimuli/card_0_transparent.png,310,0,8,0,8,0,1,,,,,,,,,,,,,,,,,,,,,,,,,,,,,,,,,,,,,,,,,,,,
,,,,60e5868307d715a4d1445116,B,2024-06-26_15h34.37.336,Slot Machine Game,2023.1.3,Win32,12.00480192,,,,,,,,,,,,,,,,,,,213.7785,9,0.4197,,up,1.5,,stimuli/card_10_transparent.png,320,10,9,0,9,0,1,,,,,,,,,,,,,,,,,,,,,,,,,,,,,,,,,,,,,,,,,,,,
,,,,60e5868307d715a4d1445116,B,2024-06-26_15h34.37.336,Slot Machine Game,2023.1.3,Win32,12.00480192,,,,,,,,,,,,,,,,,,,216.5513,10,0.1587,,right,0.5,,stimuli/card_100_transparent.png,420,100,10,0,10,0,1,,,,,,,,,,,,,,,,,,,,,,,,,,,,,,,,,,,,,,,,,,,,
,,,,60e5868307d715a4d1445116,B,2024-06-26_15h34.37.336,Slot Machine Game,2023.1.3,Win32,12.00480192,,,,,,,,,,,,,,,,,,,218.0731,11,1.4976,,left,1.5,,stimuli/card_0_transparent.png,420,0,11,0,11,0,1,,,,,,,,,,,,,,,,,,,,,,,,,,,,,,,,,,,,,,,,,,,,
,,,,60e5868307d715a4d1445116,B,2024-06-26_15h34.37.336,Slot Machine Game,2023.1.3,Win32,12.00480192,,,,,,,,,,,,,,,,,,,221.9147,12,0.1461,,right,0.5,,stimuli/card_100_transparent.png,520,100,12,0,12,0,1,,,,,,,,,,,,,,,,,,,,,,,,,,,,,,,,,,,,,,,,,,,,
,,,,60e5868307d715a4d1445116,B,2024-06-26_15h34.37.336,Slot Machine Game,2023.1.3,Win32,12.00480192,,,,,,,,,,,,,,,,,,,223.4158,13,0.7107,,up,1,,stimuli/card_0_transparent.png,520,0,13,0,13,0,1,,,,,,,,,,,,,,,,,,,,,,,,,,,,,,,,,,,,,,,,,,,,
,,,,60e5868307d715a4d1445116,B,2024-06-26_15h34.37.336,Slot Machine Game,2023.1.3,Win32,12.00480192,,,,,,,,,,,,,,,,,,,226.0217,14,0.8384,,up,0.5,,stimuli/card_0_transparent.png,520,0,14,0,14,0,1,,,,,,,,,,,,,,,,,,,,,,,,,,,,,,,,,,,,,,,,,,,,
,,,,60e5868307d715a4d1445116,B,2024-06-26_15h34.37.336,Slot Machine Game,2023.1.3,Win32,12.00480192,,,,,,,,,,,,,,,,,"[6,15]","[[1,3,2],[3,1,2]]",233.2723,0,1.7602,,left,0.5,,stimuli/card_100_transparent.png,100,100,0,0,0,0,1,,228.3349,,,,,,,,,,,,,,,,,,,,,,,,,,,,,,,,,,,,,,,,,,
,,,,60e5868307d715a4d1445116,B,2024-06-26_15h34.37.336,Slot Machine Game,2023.1.3,Win32,12.00480192,,,,,,,,,,,,,,,,,,,236.3972,1,1.5053,,left,1,,stimuli/card_100_transparent.png,200,100,1,0,1,0,1,,,,,,,,,,,,,,,,,,,,,,,,,,,,,,,,,,,,,,,,,,,,
,,,,60e5868307d715a4d1445116,B,2024-06-26_15h34.37.336,Slot Machine Game,2023.1.3,Win32,12.00480192,,,,,,,,,,,,,,,,,,,239.8314,2,0.2736,,left,1,,stimuli/card_0_transparent.png,200,0,2,0,2,0,1,,,,,,,,,,,,,,,,,,,,,,,,,,,,,,,,,,,,,,,,,,,,
,,,,60e5868307d715a4d1445116,B,2024-06-26_15h34.37.336,Slot Machine Game,2023.1.3,Win32,12.00480192,,,,,,,,,,,,,,,,,,,242.0463,3,0.2812,,right,0.5,,stimuli/card_10_transparent.png,210,10,3,0,3,0,1,,,,,,,,,,,,,,,,,,,,,,,,,,,,,,,,,,,,,,,,,,,,
,,,,60e5868307d715a4d1445116,B,2024-06-26_15h34.37.336,Slot Machine Game,2023.1.3,Win32,12.00480192,,,,,,,,,,,,,,,,,,,243.6939,4,2.0398,,up,1,,stimuli/card_0_transparent.png,210,0,4,0,4,0,1,,,,,,,,,,,,,,,,,,,,,,,,,,,,,,,,,,,,,,,,,,,,
,,,,60e5868307d715a4d1445116,B,2024-06-26_15h34.37.336,Slot Machine Game,2023.1.3,Win32,12.00480192,,,,,,,,,,,,,,,,,,,247.6708,5,1.7747,,up,0.5,,stimuli/card_0_transparent.png,210,0,5,0,5,0,1,,,,,,,,,,,,,,,,,,,,,,,,,,,,,,,,,,,,,,,,,,,,
,,,,60e5868307d715a4d1445116,B,2024-06-26_15h34.37.336,Slot Machine Game,2023.1.3,Win32,12.00480192,,,,,,,,,,,,,,,,,,,250.8079,6,1.3654,,left,1,,stimuli/card_100_transparent.png,310,100,6,0,6,0,1,,,,,,,,,,,,,,,,,,,,,,,,,,,,,,,,,,,,,,,,,,,,
,,,,60e5868307d715a4d1445116,B,2024-06-26_15h34.37.336,Slot Machine Game,2023.1.3,Win32,12.00480192,,,,,,,,,,,,,,,,,,,254.0983,7,0.4158,,up,0.5,,stimuli/card_100_transparent.png,410,100,7,0,7,0,1,,,,,,,,,,,,,,,,,,,,,,,,,,,,,,,,,,,,,,,,,,,,
,,,,60e5868307d715a4d1445116,B,2024-06-26_15h34.37.336,Slot Machine Game,2023.1.3,Win32,12.00480192,,,,,,,,,,,,,,,,,,,255.9012,8,0.0105,,left,1.5,,stimuli/card_0_transparent.png,410,0,8,0,8,0,1,,,,,,,,,,,,,,,,,,,,,,,,,,,,,,,,,,,,,,,,,,,,
,,,,60e5868307d715a4d1445116,B,2024-06-26_15h34.37.336,Slot Machine Game,2023.1.3,Win32,12.00480192,,,,,,,,,,,,,,,,,,,258.2743,9,0.2805,,right,1,,stimuli/card_10_transparent.png,420,10,9,0,9,0,1,,,,,,,,,,,,,,,,,,,,,,,,,,,,,,,,,,,,,,,,,,,,
,,,,60e5868307d715a4d1445116,B,2024-06-26_15h34.37.336,Slot Machine Game,2023.1.3,Win32,12.00480192,,,,,,,,,,,,,,,,,,,260.4888,10,0.6851,,up,1.5,,stimuli/card_100_transparent.png,520,100,10,0,10,0,1,,,,,,,,,,,,,,,,,,,,,,,,,,,,,,,,,,,,,,,,,,,,
,,,,60e5868307d715a4d1445116,B,2024-06-26_15h34.37.336,Slot Machine Game,2023.1.3,Win32,12.00480192,,,,,,,,,,,,,,,,,,,263.5563,11,0.8361,,up,1.5,,stimuli/card_100_transparent.png,620,100,11,0,11,0,1,,,,,,,,,,,,,,,,,,,,,,,,,,,,,,,,,,,,,,,,,,,,
,,,,60e5868307d715a4d1445116,B,2024-06-26_15h34.37.336,Slot Machine Game,2023.1.3,Win32,12.00480192,,,,,,,,,,,,,,,,,,,266.8619,12,0.846,,up,1,,stimuli/card_100_transparent.png,720,100,12,0,12,0,1,,,,,,,,,,,,,,,,,,,,,,,,,,,,,,,,,,,,,,,,,,,,
,,,,60e5868307d715a4d1445116,B,2024-06-26_15h34.37.336,Slot Machine Game,2023.1.3,Win32,12.00480192,,,,,,,,,,,,,,,,,,,269.6207,13,0.6634,,right,0.5,,stimuli/card_0_transparent.png,720,0,13,0,13,0,1,,,,,,,,,,,,,,,,,,,,,,,,,,,,,,,,,,,,,,,,,,,,
,,,,60e5868307d715a4d1445116,B,2024-06-26_15h34.37.336,Slot Machine Game,2023.1.3,Win32,12.00480192,,,,,,,,,,,,,,,,,,,271.8636,14,1.6699,,left,1.5,,stimuli/card_100_transparent.png,820,100,14,0,14,0,1,,,,,,,,,,,,,,,,,,,,,,,,,,,,,,,,,,,,,,,,,,,,
,,,,60e5868307d715a4d1445116,B,2024-06-26_15h34.37.336,Slot Machine Game,2023.1.3,Win32,12.00480192,,,,,,,,,,,,,,,,,,,,,,,,,,,,,,,,,,,275.9732,,,280.8985,space,3.5125,,,,,,,,,,,,,,,,,,,,,,,,,,,,,,,,,,,,,
,,,,60e5868307d715a4d1445116,B,2024-06-26_15h34.37.336,Slot Machine Game,2023.1.3,Win32,12.00480192,,,,,,,,,,,,,,,,,,,,,,,,,,,,,,,,,,,,,,,,,,284.5316,3,"[0,4,6,3,5,7,8,1,9,2]",space,10.2339,,,,,,,,,,,,,,,,,,,,,,,,,,,,,,,
,,,,60e5868307d715a4d1445116,B,2024-06-26_15h34.37.336,Slot Machine Game,2023.1.3,Win32,12.00480192,,,,,,,,,,,,,,,,,,,,,,,,,,,100,,,,,,,,,,,,,,,,,,,,,1,1,"[12,15]","[[2,1,3],[2,3,1]]",294.9073,0,up,0.9677,,1,0.3,"[2,1,3]",0.737422608,stimuli/card_100_transparent.png,100,0,0,0,0,1,,,,,,,,,,
,,,,60e5868307d715a4d1445116,B,2024-06-26_15h34.37.336,Slot Machine Game,2023.1.3,Win32,12.00480192,,,,,,,,,,,,,,,,,,,,,,,,,,,200,,,,,,,,,,,,,,,,,,,,,1,1,,,297.8093,1,up,0.4161,,0.5,0.3,"[2,1,3]",0.923804334,stimuli/card_100_transparent.png,100,1,0,1,0,1,,,,,,,,,,
,,,,60e5868307d715a4d1445116,B,2024-06-26_15h34.37.336,Slot Machine Game,2023.1.3,Win32,12.00480192,,,,,,,,,,,,,,,,,,,,,,,,,,,300,,,,,,,,,,,,,,,,,,,,,1,1,,,299.6032,2,up,0.1468,,1.5,0.3,"[2,1,3]",0.945446467,stimuli/card_100_transparent.png,100,2,0,2,0,1,,,,,,,,,,
,,,,60e5868307d715a4d1445116,B,2024-06-26_15h34.37.336,Slot Machine Game,2023.1.3,Win32,12.00480192,,,,,,,,,,,,,,,,,,,,,,,,,,,300,,,,,,,,,,,,,,,,,,,,,1,1,,,302.1248,3,right,0.55,,0.5,0.3,"[2,1,3]",0.830912363,stimuli/card_0_transparent.png,0,3,0,3,0,1,,,,,,,,,,
,,,,60e5868307d715a4d1445116,B,2024-06-26_15h34.37.336,Slot Machine Game,2023.1.3,Win32,12.00480192,,,,,,,,,,,,,,,,,,,,,,,,,,,400,,,,,,,,,,,,,,,,,,,,,1,1,,,304.0613,4,left,0.5526,,0.5,0.3,"[2,1,3]",0.169537409,stimuli/card_100_transparent.png,100,4,0,4,0,1,,,,,,,,,,
,,,,60e5868307d715a4d1445116,B,2024-06-26_15h34.37.336,Slot Machine Game,2023.1.3,Win32,12.00480192,,,,,,,,,,,,,,,,,,,,,,,,,,,410,,,,,,,,,,,,,,,,,,,,,1,1,,,305.9939,5,left,0.4234,,0.5,0.3,"[2,1,3]",0.964520084,stimuli/card_10_transparent.png,10,5,0,5,0,1,,,,,,,,,,
,,,,60e5868307d715a4d1445116,B,2024-06-26_15h34.37.336,Slot Machine Game,2023.1.3,Win32,12.00480192,,,,,,,,,,,,,,,,,,,,,,,,,,,420,,,,,,,,,,,,,,,,,,,,,1,1,,,307.7849,6,left,0.2769,,1,0.3,"[2,1,3]",0.618060237,stimuli/card_10_transparent.png,10,6,0,6,0,1,,,,,,,,,,
,,,,60e5868307d715a4d1445116,B,2024-06-26_15h34.37.336,Slot Machine Game,2023.1.3,Win32,12.00480192,,,,,,,,,,,,,,,,,,,,,,,,,,,420,,,,,,,,,,,,,,,,,,,,,1,1,,,309.9801,7,right,1.2363,,1,0.3,"[2,1,3]",0.507948693,stimuli/card_0_transparent.png,0,7,0,7,0,1,,,,,,,,,,
,,,,60e5868307d715a4d1445116,B,2024-06-26_15h34.37.336,Slot Machine Game,2023.1.3,Win32,12.00480192,,,,,,,,,,,,,,,,,,,,,,,,,,,520,,,,,,,,,,,,,,,,,,,,,1,1,,,313.1426,8,up,0.3408,,1,0.3,"[2,1,3]",0.700884983,stimuli/card_100_transparent.png,100,8,0,8,0,1,,,,,,,,,,
,,,,60e5868307d715a4d1445116,B,2024-06-26_15h34.37.336,Slot Machine Game,2023.1.3,Win32,12.00480192,,,,,,,,,,,,,,,,,,,,,,,,,,,620,,,,,,,,,,,,,,,,,,,,,1,1,,,315.5579,9,up,0.0121,,1.5,0.3,"[2,1,3]",0.836969801,stimuli/card_100_transparent.png,100,9,0,9,0,1,,,,,,,,,,
,,,,60e5868307d715a4d1445116,B,2024-06-26_15h34.37.336,Slot Machine Game,2023.1.3,Win32,12.00480192,,,,,,,,,,,,,,,,,,,,,,,,,,,720,,,,,,,,,,,,,,,,,,,,,1,1,,,318.1763,10,up,1.6449,,1.5,0.3,"[2,1,3]",0.472869796,stimuli/card_100_transparent.png,100,10,0,10,0,1,,,,,,,,,,
,,,,60e5868307d715a4d1445116,B,2024-06-26_15h34.37.336,Slot Machine Game,2023.1.3,Win32,12.00480192,,,,,,,,,,,,,,,,,,,,,,,,,,,730,,,,,,,,,,,,,,,,,,,,,1,1,,,322.2907,11,left,0.77,,1,0.3,"[2,1,3]",0.300811327,stimuli/card_10_transparent.png,10,11,0,11,0,1,,,,,,,,,,
,,,,60e5868307d715a4d1445116,B,2024-06-26_15h34.37.336,Slot Machine Game,2023.1.3,Win32,12.00480192,,,,,,,,,,,,,,,,,,,,,,,,,,,730,,,,,,,,,,,,,,,,,,,,,1,1,,,324.9137,12,left,0.9328,,1,0.3,"[2,3,1]",0.019142729,stimuli/card_0_transparent.png,0,12,0,12,0,1,,,,,,,,,,
,,,,60e5868307d715a4d1445116,B,2024-06-26_15h34.37.336,Slot Machine Game,2023.1.3,Win32,12.00480192,,,,,,,,,,,,,,,,,,,,,,,,,,,830,,,,,,,,,,,,,,,,,,,,,1,1,,,327.8593,13,right,0.4603,,1,0.3,"[2,3,1]",0.857999247,stimuli/card_100_transparent.png,100,13,0,13,0,1,,,,,,,,,,
,,,,60e5868307d715a4d1445116,B,2024-06-26_15h34.37.336,Slot Machine Game,2023.1.3,Win32,12.00480192,,,,,,,,,,,,,,,,,,,,,,,,,,,840,,,,,,,,,,,,,,,,,,,,,1,1,,,330.3437,14,right,0.8369,,1,0.3,"[2,3,1]",0.148570001,stimuli/card_10_transparent.png,10,14,0,14,0,1,,,,,,,,,,
,,,,60e5868307d715a4d1445116,B,2024-06-26_15h34.37.336,Slot Machine Game,2023.1.3,Win32,12.00480192,,,,,,,,,,,,,,,,,,,,,,,,,,,,,,,,,,,333.1168,,,,,,,,,,,,,,,,,,,,,,,,,,,,,,,,,[840],0,0,0,0,1,,,,
,,,,60e5868307d715a4d1445116,B,2024-06-26_15h34.37.336,Slot Machine Game,2023.1.3,Win32,12.00480192,,,,,,,,,,,,,,,,,,,,,,,,,,,100,,,,,,,,,,,,,,,,,,,,,2,5,"[5,15]","[[1,2,3],[3,1,2]]",338.1313,0,right,2.0704,,0.5,0.3,"[1,2,3]",0.064658175,stimuli/card_100_transparent.png,100,0,0,0,0,1,,,,,,,,,,
,,,,60e5868307d715a4d1445116,B,2024-06-26_15h34.37.336,Slot Machine Game,2023.1.3,Win32,12.00480192,,,,,,,,,,,,,,,,,,,,,,,,,,,100,,,,,,,,,,,,,,,,,,,,,2,5,,,341.5964,1,right,0.6764,,0.5,0.3,"[1,2,3]",0.727499913,stimuli/card_0_transparent.png,0,1,0,1,0,1,,,,,,,,,,
,,,,60e5868307d715a4d1445116,B,2024-06-26_15h34.37.336,Slot Machine Game,2023.1.3,Win32,12.00480192,,,,,,,,,,,,,,,,,,,,,,,,,,,200,,,,,,,,,,,,,,,,,,,,,2,5,,,343.6428,2,right,0.5595,,0.5,0.3,"[1,2,3]",0.064927762,stimuli/card_100_transparent.png,100,2,0,2,0,1,,,,,,,,,,
,,,,60e5868307d715a4d1445116,B,2024-06-26_15h34.37.336,Slot Machine Game,2023.1.3,Win32,12.00480192,,,,,,,,,,,,,,,,,,,,,,,,,,,200,,,,,,,,,,,,,,,,,,,,,2,5,,,345.5681,3,right,0.5624,,0.5,0.3,"[1,2,3]",0.300753844,stimuli/card_0_transparent.png,0,3,0,3,0,1,,,,,,,,,,
,,,,60e5868307d715a4d1445116,B,2024-06-26_15h34.37.336,Slot Machine Game,2023.1.3,Win32,12.00480192,,,,,,,,,,,,,,,,,,,,,,,,,,,200,,,,,,,,,,,,,,,,,,,,,2,5,,,347.4999,4,right,0.4122,,0.5,0.3,"[1,2,3]",0.452288684,stimuli/card_0_transparent.png,0,4,0,4,0,1,,,,,,,,,,
,,,,60e5868307d715a4d1445116,B,2024-06-26_15h34.37.336,Slot Machine Game,2023.1.3,Win32,12.00480192,,,,,,,,,,,,,,,,,,,,,,,,,,,210,,,,,,,,,,,,,,,,,,,,,2,5,,,349.2744,5,right,0.4148,,1.5,0.3,"[3,1,2]",0.528828876,stimuli/card_10_transparent.png,10,5,0,5,0,1,,,,,,,,,,
,,,,60e5868307d715a4d1445116,B,2024-06-26_15h34.37.336,Slot Machine Game,2023.1.3,Win32,12.00480192,,,,,,,,,,,,,,,,,,,,,,,,,,,210,,,,,,,,,,,,,,,,,,,,,2,5,,,352.0322,6,up,0.0111,,1.5,0.3,"[3,1,2]",0.096787615,stimuli/card_0_transparent.png,0,6,0,6,0,1,,,,,,,,,,
,,,,60e5868307d715a4d1445116,B,2024-06-26_15h34.37.336,Slot Machine Game,2023.1.3,Win32,12.00480192,,,,,,,,,,,,,,,,,,,,,,,,,,,310,,,,,,,,,,,,,,,,,,,,,2,5,,,354.402,7,up,0.0121,,0.5,0.3,"[3,1,2]",0.784996961,stimuli/card_100_transparent.png,100,7,0,7,0,1,,,,,,,,,,
,,,,60e5868307d715a4d1445116,B,2024-06-26_15h34.37.336,Slot Machine Game,2023.1.3,Win32,12.00480192,,,,,,,,,,,,,,,,,,,,,,,,,,,410,,,,,,,,,,,,,,,,,,,,,2,5,,,355.7811,8,up,0.2897,,1.5,0.3,"[3,1,2]",0.498443416,stimuli/card_100_transparent.png,100,8,0,8,0,1,,,,,,,,,,
,,,,60e5868307d715a4d1445116,B,2024-06-26_15h34.37.336,Slot Machine Game,2023.1.3,Win32,12.00480192,,,,,,,,,,,,,,,,,,,,,,,,,,,420,,,,,,,,,,,,,,,,,,,,,2,5,,,358.4281,9,up,0.0102,,1.5,0.3,"[3,1,2]",0.181719504,stimuli/card_10_transparent.png,10,9,0,9,0,1,,,,,,,,,,
,,,,60e5868307d715a4d1445116,B,2024-06-26_15h34.37.336,Slot Machine Game,2023.1.3,Win32,12.00480192,,,,,,,,,,,,,,,,,,,,,,,,,,,520,,,,,,,,,,,,,,,,,,,,,2,5,,,360.9439,10,up,0.0103,,1,0.3,"[3,1,2]",0.633041163,stimuli/card_100_transparent.png,100,10,0,10,0,1,,,,,,,,,,
,,,,60e5868307d715a4d1445116,B,2024-06-26_15h34.37.336,Slot Machine Game,2023.1.3,Win32,12.00480192,,,,,,,,,,,,,,,,,,,,,,,,,,,520,,,,,,,,,,,,,,,,,,,,,2,5,,,362.9918,11,up,0.0119,,0.5,0.3,"[3,1,2]",0.051908082,stimuli/card_0_transparent.png,0,11,0,11,0,1,,,,,,,,,,
,,,,60e5868307d715a4d1445116,B,2024-06-26_15h34.37.336,Slot Machine Game,2023.1.3,Win32,12.00480192,,,,,,,,,,,,,,,,,,,,,,,,,,,530,,,,,,,,,,,,,,,,,,,,,2,5,,,364.3714,12,up,0.686,,1,0.3,"[3,1,2]",0.199397757,stimuli/card_10_transparent.png,10,12,0,12,0,1,,,,,,,,,,
,,,,60e5868307d715a4d1445116,B,2024-06-26_15h34.37.336,Slot Machine Game,2023.1.3,Win32,12.00480192,,,,,,,,,,,,,,,,,,,,,,,,,,,530,,,,,,,,,,,,,,,,,,,,,2,5,,,366.994,13,left,2.3129,,1.5,0.3,"[3,1,2]",0.993565943,stimuli/card_0_transparent.png,0,13,0,13,0,1,,,,,,,,,,
,,,,60e5868307d715a4d1445116,B,2024-06-26_15h34.37.336,Slot Machine Game,2023.1.3,Win32,12.00480192,,,,,,,,,,,,,,,,,,,,,,,,,,,630,,,,,,,,,,,,,,,,,,,,,2,5,,,371.6549,14,up,1.2233,,1.5,0.3,"[3,1,2]",0.293783605,stimuli/card_100_transparent.png,100,14,0,14,0,1,,,,,,,,,,
,,,,60e5868307d715a4d1445116,B,2024-06-26_15h34.37.336,Slot Machine Game,2023.1.3,Win32,12.00480192,,,,,,,,,,,,,,,,,,,,,,,,,,,,,,,,,,,375.2329,,,,,,,,,,,,,,,,,,,,,,,,,,,,,,,,,"[840,630]",1,0,1,0,1,,,,
,,,,60e5868307d715a4d1445116,B,2024-06-26_15h34.37.336,Slot Machine Game,2023.1.3,Win32,12.00480192,,,,,,,,,,,,,,,,,,,,,,,,,,,100,,,,,,,,,,,,,,,,,,,,,3,7,"[9,15]","[[1,3,2],[2,3,1]]",380.1983,0,left,1.2372,,1,0.3,"[1,3,2]",0.423122794,stimuli/card_100_transparent.png,100,0,0,0,0,1,,,,,,,,,,
,,,,60e5868307d715a4d1445116,B,2024-06-26_15h34.37.336,Slot Machine Game,2023.1.3,Win32,12.00480192,,,,,,,,,,,,,,,,,,,,,,,,,,,200,,,,,,,,,,,,,,,,,,,,,3,7,,,383.3434,1,left,0.1477,,0.5,0.3,"[1,3,2]",0.413035162,stimuli/card_100_transparent.png,100,1,0,1,0,1,,,,,,,,,,
,,,,60e5868307d715a4d1445116,B,2024-06-26_15h34.37.336,Slot Machine Game,2023.1.3,Win32,12.00480192,,,,,,,,,,,,,,,,,,,,,,,,,,,200,,,,,,,,,,,,,,,,,,,,,3,7,,,384.8649,2,up,0.5607,,1.5,0.3,"[1,3,2]",0.92012076,stimuli/card_0_transparent.png,0,2,0,2,0,1,,,,,,,,,,
,,,,60e5868307d715a4d1445116,B,2024-06-26_15h34.37.336,Slot Machine Game,2023.1.3,Win32,12.00480192,,,,,,,,,,,,,,,,,,,,,,,,,,,300,,,,,,,,,,,,,,,,,,,,,3,7,,,387.8979,3,up,2.8626,,1,0.3,"[1,3,2]",0.074918624,stimuli/card_100_transparent.png,100,3,0,3,0,1,,,,,,,,,,
,,,,60e5868307d715a4d1445116,B,2024-06-26_15h34.37.336,Slot Machine Game,2023.1.3,Win32,12.00480192,,,,,,,,,,,,,,,,,,,,,,,,,,,300,,,,,,,,,,,,,,,,,,,,,3,7,,,392.6865,4,up,0.0104,,0.5,0.3,"[1,3,2]",0.710944135,stimuli/card_0_transparent.png,0,4,0,4,0,1,,,,,,,,,,
,,,,60e5868307d715a4d1445116,B,2024-06-26_15h34.37.336,Slot Machine Game,2023.1.3,Win32,12.00480192,,,,,,,,,,,,,,,,,,,,,,,,,,,300,,,,,,,,,,,,,,,,,,,,,3,7,,,394.0598,5,up,0.0124,,0.5,0.3,"[1,3,2]",0.514728128,stimuli/card_0_transparent.png,0,5,0,5,0,1,,,,,,,,,,
,,,,60e5868307d715a4d1445116,B,2024-06-26_15h34.37.336,Slot Machine Game,2023.1.3,Win32,12.00480192,,,,,,,,,,,,,,,,,,,,,,,,,,,300,,,,,,,,,,,,,,,,,,,,,3,7,,,395.4358,6,up,0.0102,,0.5,0.3,"[1,3,2]",0.914985095,stimuli/card_0_transparent.png,0,6,0,6,0,1,,,,,,,,,,
,,,,60e5868307d715a4d1445116,B,2024-06-26_15h34.37.336,Slot Machine Game,2023.1.3,Win32,12.00480192,,,,,,,,,,,,,,,,,,,,,,,,,,,310,,,,,,,,,,,,,,,,,,,,,3,7,,,396.8146,7,right,1.2178,,1,0.3,"[1,3,2]",0.30199229,stimuli/card_10_transparent.png,10,7,0,7,0,1,,,,,,,,,,
,,,,60e5868307d715a4d1445116,B,2024-06-26_15h34.37.336,Slot Machine Game,2023.1.3,Win32,12.00480192,,,,,,,,,,,,,,,,,,,,,,,,,,,320,,,,,,,,,,,,,,,,,,,,,3,7,,,399.9732,8,right,0.4232,,1,0.3,"[1,3,2]",0.379195527,stimuli/card_10_transparent.png,10,8,0,8,0,1,,,,,,,,,,
,,,,60e5868307d715a4d1445116,B,2024-06-26_15h34.37.336,Slot Machine Game,2023.1.3,Win32,12.00480192,,,,,,,,,,,,,,,,,,,,,,,,,,,330,,,,,,,,,,,,,,,,,,,,,3,7,,,402.327,9,right,0.149,,0.5,0.3,"[2,3,1]",0.114979087,stimuli/card_10_transparent.png,10,9,0,9,0,1,,,,,,,,,,
,,,,60e5868307d715a4d1445116,B,2024-06-26_15h34.37.336,Slot Machine Game,2023.1.3,Win32,12.00480192,,,,,,,,,,,,,,,,,,,,,,,,,,,340,,,,,,,,,,,,,,,,,,,,,3,7,,,403.8371,10,left,0.1689,,1.5,0.3,"[2,3,1]",0.630308795,stimuli/card_10_transparent.png,10,10,0,10,0,1,,,,,,,,,,
,,,,60e5868307d715a4d1445116,B,2024-06-26_15h34.37.336,Slot Machine Game,2023.1.3,Win32,12.00480192,,,,,,,,,,,,,,,,,,,,,,,,,,,350,,,,,,,,,,,,,,,,,,,,,3,7,,,406.4108,11,left,2.037,,1.5,0.3,"[2,3,1]",0.929909789,stimuli/card_10_transparent.png,10,11,0,11,0,1,,,,,,,,,,
,,,,60e5868307d715a4d1445116,B,2024-06-26_15h34.37.336,Slot Machine Game,2023.1.3,Win32,12.00480192,,,,,,,,,,,,,,,,,,,,,,,,,,,350,,,,,,,,,,,,,,,,,,,,,3,7,,,410.8515,12,up,0.2824,,1.5,0.3,"[2,3,1]",0.435119311,stimuli/card_0_transparent.png,0,12,0,12,0,1,,,,,,,,,,
,,,,60e5868307d715a4d1445116,B,2024-06-26_15h34.37.336,Slot Machine Game,2023.1.3,Win32,12.00480192,,,,,,,,,,,,,,,,,,,,,,,,,,,450,,,,,,,,,,,,,,,,,,,,,3,7,,,413.4787,13,up,0.0122,,1.5,0.3,"[2,3,1]",0.001691761,stimuli/card_100_transparent.png,100,13,0,13,0,1,,,,,,,,,,
,,,,60e5868307d715a4d1445116,B,2024-06-26_15h34.37.336,Slot Machine Game,2023.1.3,Win32,12.00480192,,,,,,,,,,,,,,,,,,,,,,,,,,,450,,,,,,,,,,,,,,,,,,,,,3,7,,,415.833,14,up,0.5459,,0.5,0.3,"[2,3,1]",0.821346498,stimuli/card_0_transparent.png,0,14,0,14,0,1,,,,,,,,,,
,,,,60e5868307d715a4d1445116,B,2024-06-26_15h34.37.336,Slot Machine Game,2023.1.3,Win32,12.00480192,,,,,,,,,,,,,,,,,,,,,,,,,,,,,,,,,,,417.8038,,,,,,,,,,,,,,,,,,,,,,,,,,,,,,,,,"[840,630,450]",2,0,2,0,1,,,,
,,,,60e5868307d715a4d1445116,B,2024-06-26_15h34.37.336,Slot Machine Game,2023.1.3,Win32,12.00480192,,,,,,,,,,,,,,,,,,,,,,,,,,,100,,,,,,,,,,,,,,,,,,,,,4,4,"[7,15]","[[2,3,1],[1,2,3]]",422.7726,0,right,0.9354,,1.5,0.3,"[2,3,1]",0.204565768,stimuli/card_100_transparent.png,100,0,0,0,0,1,,,,,,,,,,
,,,,60e5868307d715a4d1445116,B,2024-06-26_15h34.37.336,Slot Machine Game,2023.1.3,Win32,12.00480192,,,,,,,,,,,,,,,,,,,,,,,,,,,110,,,,,,,,,,,,,,,,,,,,,4,4,,,426.0222,1,right,1.9187,,0.5,0.3,"[2,3,1]",0.125679287,stimuli/card_10_transparent.png,10,1,0,1,0,1,,,,,,,,,,
,,,,60e5868307d715a4d1445116,B,2024-06-26_15h34.37.336,Slot Machine Game,2023.1.3,Win32,12.00480192,,,,,,,,,,,,,,,,,,,,,,,,,,,110,,,,,,,,,,,,,,,,,,,,,4,4,,,429.314,2,right,0.6887,,1.5,0.3,"[2,3,1]",0.090118402,stimuli/card_0_transparent.png,0,2,0,2,0,1,,,,,,,,,,
,,,,60e5868307d715a4d1445116,B,2024-06-26_15h34.37.336,Slot Machine Game,2023.1.3,Win32,12.00480192,,,,,,,,,,,,,,,,,,,,,,,,,,,120,,,,,,,,,,,,,,,,,,,,,4,4,,,432.3499,3,left,0.5565,,1.5,0.3,"[2,3,1]",0.828117423,stimuli/card_10_transparent.png,10,3,0,3,0,1,,,,,,,,,,
,,,,60e5868307d715a4d1445116,B,2024-06-26_15h34.37.336,Slot Machine Game,2023.1.3,Win32,12.00480192,,,,,,,,,,,,,,,,,,,,,,,,,,,130,,,,,,,,,,,,,,,,,,,,,4,4,,,435.2533,4,left,0.2879,,1.5,0.3,"[2,3,1]",0.528668711,stimuli/card_10_transparent.png,10,4,0,4,0,1,,,,,,,,,,
,,,,60e5868307d715a4d1445116,B,2024-06-26_15h34.37.336,Slot Machine Game,2023.1.3,Win32,12.00480192,,,,,,,,,,,,,,,,,,,,,,,,,,,140,,,,,,,,,,,,,,,,,,,,,4,4,,,437.9026,5,left,0.0105,,0.5,0.3,"[2,3,1]",0.716060779,stimuli/card_10_transparent.png,10,5,0,5,0,1,,,,,,,,,,
,,,,60e5868307d715a4d1445116,B,2024-06-26_15h34.37.336,Slot Machine Game,2023.1.3,Win32,12.00480192,,,,,,,,,,,,,,,,,,,,,,,,,,,240,,,,,,,,,,,,,,,,,,,,,4,4,,,439.2897,6,left,0.2846,,1.5,0.3,"[2,3,1]",0.104558954,stimuli/card_100_transparent.png,100,6,0,6,0,1,,,,,,,,,,
,,,,60e5868307d715a4d1445116,B,2024-06-26_15h34.37.336,Slot Machine Game,2023.1.3,Win32,12.00480192,,,,,,,,,,,,,,,,,,,,,,,,,,,250,,,,,,,,,,,,,,,,,,,,,4,4,,,441.9152,7,up,1.0999,,1,0.3,"[1,2,3]",0.874058213,stimuli/card_10_transparent.png,10,7,0,7,0,1,,,,,,,,,,
,,,,60e5868307d715a4d1445116,B,2024-06-26_15h34.37.336,Slot Machine Game,2023.1.3,Win32,12.00480192,,,,,,,,,,,,,,,,,,,,,,,,,,,260,,,,,,,,,,,,,,,,,,,,,4,4,,,444.9367,8,up,1.4948,,1.5,0.3,"[1,2,3]",0.254604254,stimuli/card_10_transparent.png,10,8,0,8,0,1,,,,,,,,,,
,,,,60e5868307d715a4d1445116,B,2024-06-26_15h34.37.336,Slot Machine Game,2023.1.3,Win32,12.00480192,,,,,,,,,,,,,,,,,,,,,,,,,,,270,,,,,,,,,,,,,,,,,,,,,4,4,,,448.787,9,up,0.0136,,1.5,0.3,"[1,2,3]",0.839661044,stimuli/card_10_transparent.png,10,9,0,9,0,1,,,,,,,,,,
,,,,60e5868307d715a4d1445116,B,2024-06-26_15h34.37.336,Slot Machine Game,2023.1.3,Win32,12.00480192,,,,,,,,,,,,,,,,,,,,,,,,,,,280,,,,,,,,,,,,,,,,,,,,,4,4,,,451.1791,10,up,0.8206,,1,0.3,"[1,2,3]",0.234630138,stimuli/card_10_transparent.png,10,10,0,10,0,1,,,,,,,,,,
,,,,60e5868307d715a4d1445116,B,2024-06-26_15h34.37.336,Slot Machine Game,2023.1.3,Win32,12.00480192,,,,,,,,,,,,,,,,,,,,,,,,,,,290,,,,,,,,,,,,,,,,,,,,,4,4,,,454.0029,11,up,1.2526,,1.5,0.3,"[1,2,3]",0.752494476,stimuli/card_10_transparent.png,10,11,0,11,0,1,,,,,,,,,,
,,,,60e5868307d715a4d1445116,B,2024-06-26_15h34.37.336,Slot Machine Game,2023.1.3,Win32,12.00480192,,,,,,,,,,,,,,,,,,,,,,,,,,,290,,,,,,,,,,,,,,,,,,,,,4,4,,,457.596,12,up,0.0106,,1,0.3,"[1,2,3]",0.000974339,stimuli/card_0_transparent.png,0,12,0,12,0,1,,,,,,,,,,
,,,,60e5868307d715a4d1445116,B,2024-06-26_15h34.37.336,Slot Machine Game,2023.1.3,Win32,12.00480192,,,,,,,,,,,,,,,,,,,,,,,,,,,300,,,,,,,,,,,,,,,,,,,,,4,4,,,459.5109,13,up,1.1179,,0.5,0.3,"[1,2,3]",0.909131276,stimuli/card_10_transparent.png,10,13,0,13,0,1,,,,,,,,,,
,,,,60e5868307d715a4d1445116,B,2024-06-26_15h34.37.336,Slot Machine Game,2023.1.3,Win32,12.00480192,,,,,,,,,,,,,,,,,,,,,,,,,,,310,,,,,,,,,,,,,,,,,,,,,4,4,,,461.9885,14,up,1.6272,,0.5,0.3,"[1,2,3]",0.622842819,stimuli/card_10_transparent.png,10,14,0,14,0,1,,,,,,,,,,
,,,,60e5868307d715a4d1445116,B,2024-06-26_15h34.37.336,Slot Machine Game,2023.1.3,Win32,12.00480192,,,,,,,,,,,,,,,,,,,,,,,,,,,,,,,,,,,464.9991,,,,,,,,,,,,,,,,,,,,,,,,,,,,,,,,,"[840,630,450,310]",3,0,3,0,1,,,,
,,,,60e5868307d715a4d1445116,B,2024-06-26_15h34.37.336,Slot Machine Game,2023.1.3,Win32,12.00480192,,,,,,,,,,,,,,,,,,,,,,,,,,,0,,,,,,,,,,,,,,,,,,,,,5,6,"[4,10,15]","[[2,3,1],[1,3,2],[3,2,1]]",469.9675,0,up,0.8261,,0.5,0.3,"[2,3,1]",0.406275005,stimuli/card_0_transparent.png,0,0,0,0,0,1,,,,,,,,,,
,,,,60e5868307d715a4d1445116,B,2024-06-26_15h34.37.336,Slot Machine Game,2023.1.3,Win32,12.00480192,,,,,,,,,,,,,,,,,,,,,,,,,,,0,,,,,,,,,,,,,,,,,,,,,5,6,,,472.1515,1,up,0.283,,0.5,0.3,"[2,3,1]",0.308700133,stimuli/card_0_transparent.png,0,1,0,1,0,1,,,,,,,,,,
,,,,60e5868307d715a4d1445116,B,2024-06-26_15h34.37.336,Slot Machine Game,2023.1.3,Win32,12.00480192,,,,,,,,,,,,,,,,,,,,,,,,,,,10,,,,,,,,,,,,,,,,,,,,,5,6,,,473.7942,2,left,0.2754,,1,0.3,"[2,3,1]",0.541806977,stimuli/card_10_transparent.png,10,2,0,2,0,1,,,,,,,,,,
,,,,60e5868307d715a4d1445116,B,2024-06-26_15h34.37.336,Slot Machine Game,2023.1.3,Win32,12.00480192,,,,,,,,,,,,,,,,,,,,,,,,,,,10,,,,,,,,,,,,,,,,,,,,,5,6,,,476.0094,3,right,0.1445,,1.5,0.3,"[2,3,1]",0.05777125,stimuli/card_0_transparent.png,0,3,0,3,0,1,,,,,,,,,,
,,,,60e5868307d715a4d1445116,B,2024-06-26_15h34.37.336,Slot Machine Game,2023.1.3,Win32,12.00480192,,,,,,,,,,,,,,,,,,,,,,,,,,,20,,,,,,,,,,,,,,,,,,,,,5,6,,,478.4989,4,right,0.2849,,1,0.3,"[1,3,2]",0.77779707,stimuli/card_10_transparent.png,10,4,0,4,0,1,,,,,,,,,,
,,,,60e5868307d715a4d1445116,B,2024-06-26_15h34.37.336,Slot Machine Game,2023.1.3,Win32,12.00480192,,,,,,,,,,,,,,,,,,,,,,,,,,,30,,,,,,,,,,,,,,,,,,,,,5,6,,,480.7176,5,right,0.1415,,1.5,0.3,"[1,3,2]",0.810492816,stimuli/card_10_transparent.png,10,5,0,5,0,1,,,,,,,,,,
,,,,60e5868307d715a4d1445116,B,2024-06-26_15h34.37.336,Slot Machine Game,2023.1.3,Win32,12.00480192,,,,,,,,,,,,,,,,,,,,,,,,,,,40,,,,,,,,,,,,,,,,,,,,,5,6,,,483.2128,6,left,0.2803,,1,0.3,"[1,3,2]",0.189575598,stimuli/card_10_transparent.png,10,6,0,6,0,1,,,,,,,,,,
,,,,60e5868307d715a4d1445116,B,2024-06-26_15h34.37.336,Slot Machine Game,2023.1.3,Win32,12.00480192,,,,,,,,,,,,,,,,,,,,,,,,,,,40,,,,,,,,,,,,,,,,,,,,,5,6,,,485.4344,7,up,0.2873,,1.5,0.3,"[1,3,2]",0.389312811,stimuli/card_0_transparent.png,0,7,0,7,0,1,,,,,,,,,,
,,,,60e5868307d715a4d1445116,B,2024-06-26_15h34.37.336,Slot Machine Game,2023.1.3,Win32,12.00480192,,,,,,,,,,,,,,,,,,,,,,,,,,,40,,,,,,,,,,,,,,,,,,,,,5,6,,,488.056,8,up,2.3019,,1.5,0.3,"[1,3,2]",0.267829874,stimuli/card_0_transparent.png,0,8,0,8,0,1,,,,,,,,,,
,,,,60e5868307d715a4d1445116,B,2024-06-26_15h34.37.336,Slot Machine Game,2023.1.3,Win32,12.00480192,,,,,,,,,,,,,,,,,,,,,,,,,,,40,,,,,,,,,,,,,,,,,,,,,5,6,,,492.8159,9,up,2.2695,,1.5,0.3,"[1,3,2]",0.623269491,stimuli/card_0_transparent.png,0,9,0,9,0,1,,,,,,,,,,
,,,,60e5868307d715a4d1445116,B,2024-06-26_15h34.37.336,Slot Machine Game,2023.1.3,Win32,12.00480192,,,,,,,,,,,,,,,,,,,,,,,,,,,140,,,,,,,,,,,,,,,,,,,,,5,6,,,497.5119,10,up,0.0131,0.0002,0.5,0.3,"[3,2,1]",0.115320746,stimuli/card_100_transparent.png,100,10,0,10,0,1,,,,,,,,,,
,,,,60e5868307d715a4d1445116,B,2024-06-26_15h34.37.336,Slot Machine Game,2023.1.3,Win32,12.00480192,,,,,,,,,,,,,,,,,,,,,,,,,,,150,,,,,,,,,,,,,,,,,,,,,5,6,,,498.8902,11,up,0.0107,,1,0.3,"[3,2,1]",0.310955398,stimuli/card_10_transparent.png,10,11,0,11,0,1,,,,,,,,,,
,,,,60e5868307d715a4d1445116,B,2024-06-26_15h34.37.336,Slot Machine Game,2023.1.3,Win32,12.00480192,,,,,,,,,,,,,,,,,,,,,,,,,,,150,,,,,,,,,,,,,,,,,,,,,5,6,,,500.8754,12,up,0.0099,,0.5,0.3,"[3,2,1]",0.006068983,stimuli/card_0_transparent.png,0,12,0,12,0,1,,,,,,,,,,
,,,,60e5868307d715a4d1445116,B,2024-06-26_15h34.37.336,Slot Machine Game,2023.1.3,Win32,12.00480192,,,,,,,,,,,,,,,,,,,,,,,,,,,150,,,,,,,,,,,,,,,,,,,,,5,6,,,502.343,13,up,0.0101,,1.5,0.3,"[3,2,1]",0.052427271,stimuli/card_0_transparent.png,0,13,0,13,0,1,,,,,,,,,,
,,,,60e5868307d715a4d1445116,B,2024-06-26_15h34.37.336,Slot Machine Game,2023.1.3,Win32,12.00480192,,,,,,,,,,,,,,,,,,,,,,,,,,,160,,,,,,,,,,,,,,,,,,,,,5,6,,,504.8499,14,up,0.1551,,0.5,0.3,"[3,2,1]",0.543506954,stimuli/card_10_transparent.png,10,14,0,14,0,1,,,,,,,,,,
,,,,60e5868307d715a4d1445116,B,2024-06-26_15h34.37.336,Slot Machine Game,2023.1.3,Win32,12.00480192,,,,,,,,,,,,,,,,,,,,,,,,,,,,,,,,,,,506.5151,,,,,,,,,,,,,,,,,,,,,,,,,,,,,,,,,"[840,630,450,310,160]",4,0,4,0,1,,,,
,,,,60e5868307d715a4d1445116,B,2024-06-26_15h34.37.336,Slot Machine Game,2023.1.3,Win32,12.00480192,,,,,,,,,,,,,,,,,,,,,,,,,,,100,,,,,,,,,,,,,,,,,,,,,6,8,"[11,15]","[[2,1,3],[1,2,3]]",511.434,0,up,0.1458,,1,0.3,"[2,1,3]",0.766851059,stimuli/card_100_transparent.png,100,0,0,0,0,1,,,,,,,,,,
,,,,60e5868307d715a4d1445116,B,2024-06-26_15h34.37.336,Slot Machine Game,2023.1.3,Win32,12.00480192,,,,,,,,,,,,,,,,,,,,,,,,,,,200,,,,,,,,,,,,,,,,,,,,,6,8,,,513.5217,1,up,0.0103,,1,0.3,"[2,1,3]",0.224149897,stimuli/card_100_transparent.png,100,1,0,1,0,1,,,,,,,,,,
,,,,60e5868307d715a4d1445116,B,2024-06-26_15h34.37.336,Slot Machine Game,2023.1.3,Win32,12.00480192,,,,,,,,,,,,,,,,,,,,,,,,,,,300,,,,,,,,,,,,,,,,,,,,,6,8,,,515.4945,2,up,0.0109,0.0002,0.5,0.3,"[2,1,3]",0.405332692,stimuli/card_100_transparent.png,100,2,0,2,0,1,,,,,,,,,,
,,,,60e5868307d715a4d1445116,B,2024-06-26_15h34.37.336,Slot Machine Game,2023.1.3,Win32,12.00480192,,,,,,,,,,,,,,,,,,,,,,,,,,,400,,,,,,,,,,,,,,,,,,,,,6,8,,,517.0582,3,up,0.0116,,1,0.3,"[2,1,3]",0.664564203,stimuli/card_100_transparent.png,100,3,0,3,0,1,,,,,,,,,,
,,,,60e5868307d715a4d1445116,B,2024-06-26_15h34.37.336,Slot Machine Game,2023.1.3,Win32,12.00480192,,,,,,,,,,,,,,,,,,,,,,,,,,,500,,,,,,,,,,,,,,,,,,,,,6,8,,,519.0949,4,up,0.0105,0.0001,0.5,0.3,"[2,1,3]",0.742869275,stimuli/card_100_transparent.png,100,4,0,4,0,1,,,,,,,,,,
,,,,60e5868307d715a4d1445116,B,2024-06-26_15h34.37.336,Slot Machine Game,2023.1.3,Win32,12.00480192,,,,,,,,,,,,,,,,,,,,,,,,,,,600,,,,,,,,,,,,,,,,,,,,,6,8,,,520.4856,5,up,0.0102,,1,0.3,"[2,1,3]",0.822707867,stimuli/card_100_transparent.png,100,5,0,5,0,1,,,,,,,,,,
,,,,60e5868307d715a4d1445116,B,2024-06-26_15h34.37.336,Slot Machine Game,2023.1.3,Win32,12.00480192,,,,,,,,,,,,,,,,,,,,,,,,,,,700,,,,,,,,,,,,,,,,,,,,,6,8,,,522.4327,6,up,0.0102,,1.5,0.3,"[2,1,3]",0.707824313,stimuli/card_100_transparent.png,100,6,0,6,0,1,,,,,,,,,,
,,,,60e5868307d715a4d1445116,B,2024-06-26_15h34.37.336,Slot Machine Game,2023.1.3,Win32,12.00480192,,,,,,,,,,,,,,,,,,,,,,,,,,,800,,,,,,,,,,,,,,,,,,,,,6,8,,,524.9297,7,up,0.1462,0.0001,0.5,0.3,"[2,1,3]",0.369139162,stimuli/card_100_transparent.png,100,7,0,7,0,1,,,,,,,,,,
,,,,60e5868307d715a4d1445116,B,2024-06-26_15h34.37.336,Slot Machine Game,2023.1.3,Win32,12.00480192,,,,,,,,,,,,,,,,,,,,,,,,,,,900,,,,,,,,,,,,,,,,,,,,,6,8,,,526.4679,8,up,0.1457,0.0002,1,0.3,"[2,1,3]",0.856240394,stimuli/card_100_transparent.png,100,8,0,8,0,1,,,,,,,,,,
,,,,60e5868307d715a4d1445116,B,2024-06-26_15h34.37.336,Slot Machine Game,2023.1.3,Win32,12.00480192,,,,,,,,,,,,,,,,,,,,,,,,,,,910,,,,,,,,,,,,,,,,,,,,,6,8,,,528.5459,9,up,0.0105,,1.5,0.3,"[2,1,3]",0.150393017,stimuli/card_10_transparent.png,10,9,0,9,0,1,,,,,,,,,,
,,,,60e5868307d715a4d1445116,B,2024-06-26_15h34.37.336,Slot Machine Game,2023.1.3,Win32,12.00480192,,,,,,,,,,,,,,,,,,,,,,,,,,,1010,,,,,,,,,,,,,,,,,,,,,6,8,,,530.8997,10,up,0.139,,1.5,0.3,"[2,1,3]",0.867568176,stimuli/card_100_transparent.png,100,10,0,10,0,1,,,,,,,,,,
,,,,60e5868307d715a4d1445116,B,2024-06-26_15h34.37.336,Slot Machine Game,2023.1.3,Win32,12.00480192,,,,,,,,,,,,,,,,,,,,,,,,,,,1010,,,,,,,,,,,,,,,,,,,,,6,8,,,533.395,11,right,0.4165,,1,0.3,"[1,2,3]",0.213108603,stimuli/card_0_transparent.png,0,11,0,11,0,1,,,,,,,,,,
,,,,60e5868307d715a4d1445116,B,2024-06-26_15h34.37.336,Slot Machine Game,2023.1.3,Win32,12.00480192,,,,,,,,,,,,,,,,,,,,,,,,,,,1010,,,,,,,,,,,,,,,,,,,,,6,8,,,535.7479,12,right,0.0111,,1.5,0.3,"[1,2,3]",0.481187789,stimuli/card_0_transparent.png,0,12,0,12,0,1,,,,,,,,,,
,,,,60e5868307d715a4d1445116,B,2024-06-26_15h34.37.336,Slot Machine Game,2023.1.3,Win32,12.00480192,,,,,,,,,,,,,,,,,,,,,,,,,,,1010,,,,,,,,,,,,,,,,,,,,,6,8,,,538.1225,13,right,0.0103,,1.5,0.3,"[1,2,3]",0.673091895,stimuli/card_0_transparent.png,0,13,0,13,0,1,,,,,,,,,,
,,,,60e5868307d715a4d1445116,B,2024-06-26_15h34.37.336,Slot Machine Game,2023.1.3,Win32,12.00480192,,,,,,,,,,,,,,,,,,,,,,,,,,,1110,,,,,,,,,,,,,,,,,,,,,6,8,,,540.6015,14,left,0.308,,1,0.3,"[1,2,3]",0.286850857,stimuli/card_100_transparent.png,100,14,0,14,0,1,,,,,,,,,,
,,,,60e5868307d715a4d1445116,B,2024-06-26_15h34.37.336,Slot Machine Game,2023.1.3,Win32,12.00480192,,,,,,,,,,,,,,,,,,,,,,,,,,,,,,,,,,,542.7979,,,,,,,,,,,,,,,,,,,,,,,,,,,,,,,,,"[840,630,450,310,160,1110]",5,0,5,0,1,,,,
,,,,60e5868307d715a4d1445116,B,2024-06-26_15h34.37.336,Slot Machine Game,2023.1.3,Win32,12.00480192,,,,,,,,,,,,,,,,,,,,,,,,,,,0,,,,,,,,,,,,,,,,,,,,,7,9,"[8,15]","[[3,2,1],[3,1,2]]",547.763,0,left,0.6737,0.0001,1,0.3,"[3,2,1]",0.487458146,stimuli/card_0_transparent.png,0,0,0,0,0,1,,,,,,,,,,
,,,,60e5868307d715a4d1445116,B,2024-06-26_15h34.37.336,Slot Machine Game,2023.1.3,Win32,12.00480192,,,,,,,,,,,,,,,,,,,,,,,,,,,10,,,,,,,,,,,,,,,,,,,,,7,9,,,550.3475,1,left,0.0109,,1.5,0.3,"[3,2,1]",0.139025682,stimuli/card_10_transparent.png,10,1,0,1,0,1,,,,,,,,,,
,,,,60e5868307d715a4d1445116,B,2024-06-26_15h34.37.336,Slot Machine Game,2023.1.3,Win32,12.00480192,,,,,,,,,,,,,,,,,,,,,,,,,,,20,,,,,,,,,,,,,,,,,,,,,7,9,,,552.7288,2,up,0.5589,,0.5,0.3,"[3,2,1]",0.428142077,stimuli/card_10_transparent.png,10,2,0,2,0,1,,,,,,,,,,
,,,,60e5868307d715a4d1445116,B,2024-06-26_15h34.37.336,Slot Machine Game,2023.1.3,Win32,12.00480192,,,,,,,,,,,,,,,,,,,,,,,,,,,30,,,,,,,,,,,,,,,,,,,,,7,9,,,554.6534,3,up,0.143,,1,0.3,"[3,2,1]",0.526513989,stimuli/card_10_transparent.png,10,3,0,3,0,1,,,,,,,,,,
,,,,60e5868307d715a4d1445116,B,2024-06-26_15h34.37.336,Slot Machine Game,2023.1.3,Win32,12.00480192,,,,,,,,,,,,,,,,,,,,,,,,,,,40,,,,,,,,,,,,,,,,,,,,,7,9,,,556.7353,4,up,0.1477,,1,0.3,"[3,2,1]",0.727454466,stimuli/card_10_transparent.png,10,4,0,4,0,1,,,,,,,,,,
,,,,60e5868307d715a4d1445116,B,2024-06-26_15h34.37.336,Slot Machine Game,2023.1.3,Win32,12.00480192,,,,,,,,,,,,,,,,,,,,,,,,,,,50,,,,,,,,,,,,,,,,,,,,,7,9,,,558.815,5,up,0.0111,,1.5,0.3,"[3,2,1]",0.701066463,stimuli/card_10_transparent.png,10,5,0,5,0,1,,,,,,,,,,
,,,,60e5868307d715a4d1445116,B,2024-06-26_15h34.37.336,Slot Machine Game,2023.1.3,Win32,12.00480192,,,,,,,,,,,,,,,,,,,,,,,,,,,150,,,,,,,,,,,,,,,,,,,,,7,9,,,561.2864,6,right,0.6881,,0.5,0.3,"[3,2,1]",0.539221308,stimuli/card_100_transparent.png,100,6,0,6,0,1,,,,,,,,,,
,,,,60e5868307d715a4d1445116,B,2024-06-26_15h34.37.336,Slot Machine Game,2023.1.3,Win32,12.00480192,,,,,,,,,,,,,,,,,,,,,,,,,,,250,,,,,,,,,,,,,,,,,,,,,7,9,,,563.3402,7,up,0.0106,0.0001,0.5,0.3,"[3,2,1]",0.152308235,stimuli/card_100_transparent.png,100,7,0,7,0,1,,,,,,,,,,
,,,,60e5868307d715a4d1445116,B,2024-06-26_15h34.37.336,Slot Machine Game,2023.1.3,Win32,12.00480192,,,,,,,,,,,,,,,,,,,,,,,,,,,260,,,,,,,,,,,,,,,,,,,,,7,9,,,564.7185,8,right,0.0156,,0.5,0.3,"[3,1,2]",0.74156124,stimuli/card_10_transparent.png,10,8,0,8,0,1,,,,,,,,,,
,,,,60e5868307d715a4d1445116,B,2024-06-26_15h34.37.336,Slot Machine Game,2023.1.3,Win32,12.00480192,,,,,,,,,,,,,,,,,,,,,,,,,,,270,,,,,,,,,,,,,,,,,,,,,7,9,,,566.1116,9,right,0.1576,,1.5,0.3,"[3,1,2]",0.849957791,stimuli/card_10_transparent.png,10,9,0,9,0,1,,,,,,,,,,
,,,,60e5868307d715a4d1445116,B,2024-06-26_15h34.37.336,Slot Machine Game,2023.1.3,Win32,12.00480192,,,,,,,,,,,,,,,,,,,,,,,,,,,370,,,,,,,,,,,,,,,,,,,,,7,9,,,568.6324,10,up,1.112,,1,0.3,"[3,1,2]",0.973187132,stimuli/card_100_transparent.png,100,10,0,10,0,1,,,,,,,,,,
,,,,60e5868307d715a4d1445116,B,2024-06-26_15h34.37.336,Slot Machine Game,2023.1.3,Win32,12.00480192,,,,,,,,,,,,,,,,,,,,,,,,,,,470,,,,,,,,,,,,,,,,,,,,,7,9,,,571.6821,11,up,0.8139,,1.5,0.3,"[3,1,2]",0.746334308,stimuli/card_100_transparent.png,100,11,0,11,0,1,,,,,,,,,,
,,,,60e5868307d715a4d1445116,B,2024-06-26_15h34.37.336,Slot Machine Game,2023.1.3,Win32,12.00480192,,,,,,,,,,,,,,,,,,,,,,,,,,,570,,,,,,,,,,,,,,,,,,,,,7,9,,,574.8802,12,up,0.0113,,0.5,0.3,"[3,1,2]",0.855341466,stimuli/card_100_transparent.png,100,12,0,12,0,1,,,,,,,,,,
,,,,60e5868307d715a4d1445116,B,2024-06-26_15h34.37.336,Slot Machine Game,2023.1.3,Win32,12.00480192,,,,,,,,,,,,,,,,,,,,,,,,,,,670,,,,,,,,,,,,,,,,,,,,,7,9,,,576.2834,13,up,0.1504,0.0001,1.5,0.3,"[3,1,2]",0.320520806,stimuli/card_100_transparent.png,100,13,0,13,0,1,,,,,,,,,,
,,,,60e5868307d715a4d1445116,B,2024-06-26_15h34.37.336,Slot Machine Game,2023.1.3,Win32,12.00480192,,,,,,,,,,,,,,,,,,,,,,,,,,,770,,,,,,,,,,,,,,,,,,,,,7,9,,,578.7872,14,up,0.0106,0,1.5,0.3,"[3,1,2]",0.791154189,stimuli/card_100_transparent.png,100,14,0,14,0,1,,,,,,,,,,
,,,,60e5868307d715a4d1445116,B,2024-06-26_15h34.37.336,Slot Machine Game,2023.1.3,Win32,12.00480192,,,,,,,,,,,,,,,,,,,,,,,,,,,,,,,,,,,581.1965,,,,,,,,,,,,,,,,,,,,,,,,,,,,,,,,,"[840,630,450,310,160,1110,770]",6,0,6,0,1,,,,
,,,,60e5868307d715a4d1445116,B,2024-06-26_15h34.37.336,Slot Machine Game,2023.1.3,Win32,12.00480192,,,,,,,,,,,,,,,,,,,,,,,,,,,0,,,,,,,,,,,,,,,,,,,,,8,2,"[6,15]","[[1,3,2],[3,2,1]]",586.1817,0,up,0.4211,,1.5,0.3,"[1,3,2]",0.72585902,stimuli/card_0_transparent.png,0,0,0,0,0,1,,,,,,,,,,
,,,,60e5868307d715a4d1445116,B,2024-06-26_15h34.37.336,Slot Machine Game,2023.1.3,Win32,12.00480192,,,,,,,,,,,,,,,,,,,,,,,,,,,0,,,,,,,,,,,,,,,,,,,,,8,2,,,589.0521,1,up,0.1404,0,1,0.3,"[1,3,2]",0.466124375,stimuli/card_0_transparent.png,0,1,0,1,0,1,,,,,,,,,,
,,,,60e5868307d715a4d1445116,B,2024-06-26_15h34.37.336,Slot Machine Game,2023.1.3,Win32,12.00480192,,,,,,,,,,,,,,,,,,,,,,,,,,,0,,,,,,,,,,,,,,,,,,,,,8,2,,,591.1275,2,up,0.0107,,1,0.3,"[1,3,2]",0.941472064,stimuli/card_0_transparent.png,0,2,0,2,0,1,,,,,,,,,,
,,,,60e5868307d715a4d1445116,B,2024-06-26_15h34.37.336,Slot Machine Game,2023.1.3,Win32,12.00480192,,,,,,,,,,,,,,,,,,,,,,,,,,,100,,,,,,,,,,,,,,,,,,,,,8,2,,,593.0753,3,left,0.9606,0,0.5,0.3,"[1,3,2]",0.992299232,stimuli/card_100_transparent.png,100,3,0,3,0,1,,,,,,,,,,
,,,,60e5868307d715a4d1445116,B,2024-06-26_15h34.37.336,Slot Machine Game,2023.1.3,Win32,12.00480192,,,,,,,,,,,,,,,,,,,,,,,,,,,200,,,,,,,,,,,,,,,,,,,,,8,2,,,595.3881,4,left,0.1516,0.0001,1,0.3,"[1,3,2]",0.686773434,stimuli/card_100_transparent.png,100,4,0,4,0,1,,,,,,,,,,
,,,,60e5868307d715a4d1445116,B,2024-06-26_15h34.37.336,Slot Machine Game,2023.1.3,Win32,12.00480192,,,,,,,,,,,,,,,,,,,,,,,,,,,300,,,,,,,,,,,,,,,,,,,,,8,2,,,597.4756,5,left,0.011,0.0001,0.5,0.3,"[1,3,2]",0.487890937,stimuli/card_100_transparent.png,100,5,0,5,0,1,,,,,,,,,,
,,,,60e5868307d715a4d1445116,B,2024-06-26_15h34.37.336,Slot Machine Game,2023.1.3,Win32,12.00480192,,,,,,,,,,,,,,,,,,,,,,,,,,,310,,,,,,,,,,,,,,,,,,,,,8,2,,,598.8561,6,left,0.0103,0,0.5,0.3,"[3,2,1]",0.166716378,stimuli/card_10_transparent.png,10,6,0,6,0,1,,,,,,,,,,
,,,,60e5868307d715a4d1445116,B,2024-06-26_15h34.37.336,Slot Machine Game,2023.1.3,Win32,12.00480192,,,,,,,,,,,,,,,,,,,,,,,,,,,310,,,,,,,,,,,,,,,,,,,,,8,2,,,600.2401,7,left,0.1479,0.0001,1,0.3,"[3,2,1]",0.963573055,stimuli/card_0_transparent.png,0,7,0,7,0,1,,,,,,,,,,
,,,,60e5868307d715a4d1445116,B,2024-06-26_15h34.37.336,Slot Machine Game,2023.1.3,Win32,12.00480192,,,,,,,,,,,,,,,,,,,,,,,,,,,410,,,,,,,,,,,,,,,,,,,,,8,2,,,602.3296,8,left,0.0104,0.0001,0.5,0.3,"[3,2,1]",0.030353874,stimuli/card_100_transparent.png,100,8,0,8,0,1,,,,,,,,,,
,,,,60e5868307d715a4d1445116,B,2024-06-26_15h34.37.336,Slot Machine Game,2023.1.3,Win32,12.00480192,,,,,,,,,,,,,,,,,,,,,,,,,,,510,,,,,,,,,,,,,,,,,,,,,8,2,,,603.7099,9,right,0.2846,,1.5,0.3,"[3,2,1]",0.23686026,stimuli/card_100_transparent.png,100,9,0,9,0,1,,,,,,,,,,
,,,,60e5868307d715a4d1445116,B,2024-06-26_15h34.37.336,Slot Machine Game,2023.1.3,Win32,12.00480192,,,,,,,,,,,,,,,,,,,,,,,,,,,610,,,,,,,,,,,,,,,,,,,,,8,2,,,606.3698,10,right,0.1442,,1,0.3,"[3,2,1]",0.795122209,stimuli/card_100_transparent.png,100,10,0,10,0,1,,,,,,,,,,
,,,,60e5868307d715a4d1445116,B,2024-06-26_15h34.37.336,Slot Machine Game,2023.1.3,Win32,12.00480192,,,,,,,,,,,,,,,,,,,,,,,,,,,710,,,,,,,,,,,,,,,,,,,,,8,2,,,608.4567,11,right,0.0125,0.0001,0.5,0.3,"[3,2,1]",0.819873828,stimuli/card_100_transparent.png,100,11,0,11,0,1,,,,,,,,,,
,,,,60e5868307d715a4d1445116,B,2024-06-26_15h34.37.336,Slot Machine Game,2023.1.3,Win32,12.00480192,,,,,,,,,,,,,,,,,,,,,,,,,,,810,,,,,,,,,,,,,,,,,,,,,8,2,,,609.8326,12,right,0.0107,0.0001,1,0.3,"[3,2,1]",0.554433441,stimuli/card_100_transparent.png,100,12,0,12,0,1,,,,,,,,,,
,,,,60e5868307d715a4d1445116,B,2024-06-26_15h34.37.336,Slot Machine Game,2023.1.3,Win32,12.00480192,,,,,,,,,,,,,,,,,,,,,,,,,,,910,,,,,,,,,,,,,,,,,,,,,8,2,,,611.7729,13,right,0.0104,,1,0.3,"[3,2,1]",0.525811005,stimuli/card_100_transparent.png,100,13,0,13,0,1,,,,,,,,,,
,,,,60e5868307d715a4d1445116,B,2024-06-26_15h34.37.336,Slot Machine Game,2023.1.3,Win32,12.00480192,,,,,,,,,,,,,,,,,,,,,,,,,,,910,,,,,,,,,,,,,,,,,,,,,8,2,,,613.7138,14,right,0.1499,,0.5,0.3,"[3,2,1]",0.064547749,stimuli/card_0_transparent.png,0,14,0,14,0,1,,,,,,,,,,
,,,,60e5868307d715a4d1445116,B,2024-06-26_15h34.37.336,Slot Machine Game,2023.1.3,Win32,12.00480192,,,,,,,,,,,,,,,,,,,,,,,,,,,,,,,,,,,615.2601,,,,,,,,,,,,,,,,,,,,,,,,,,,,,,,,,"[840,630,450,310,160,1110,770,910]",7,0,7,0,1,,,,
,,,,60e5868307d715a4d1445116,B,2024-06-26_15h34.37.336,Slot Machine Game,2023.1.3,Win32,12.00480192,,,,,,,,,,,,,,,,,,,,,,,,,,,10,,,,,,,,,,,,,,,,,,,,,9,10,"[10,15]","[[3,1,2],[1,3,2]]",620.2639,0,up,0.951,,1.5,0.3,"[3,1,2]",0.141921733,stimuli/card_10_transparent.png,10,0,0,0,0,1,,,,,,,,,,
,,,,60e5868307d715a4d1445116,B,2024-06-26_15h34.37.336,Slot Machine Game,2023.1.3,Win32,12.00480192,,,,,,,,,,,,,,,,,,,,,,,,,,,110,,,,,,,,,,,,,,,,,,,,,9,10,,,623.6294,1,up,0.1427,0.0001,1.5,0.3,"[3,1,2]",0.49893743,stimuli/card_100_transparent.png,100,1,0,1,0,1,,,,,,,,,,
,,,,60e5868307d715a4d1445116,B,2024-06-26_15h34.37.336,Slot Machine Game,2023.1.3,Win32,12.00480192,,,,,,,,,,,,,,,,,,,,,,,,,,,120,,,,,,,,,,,,,,,,,,,,,9,10,,,626.1418,2,right,0.0111,,1.5,0.3,"[3,1,2]",0.76394646,stimuli/card_10_transparent.png,10,2,0,2,0,1,,,,,,,,,,
,,,,60e5868307d715a4d1445116,B,2024-06-26_15h34.37.336,Slot Machine Game,2023.1.3,Win32,12.00480192,,,,,,,,,,,,,,,,,,,,,,,,,,,130,,,,,,,,,,,,,,,,,,,,,9,10,,,628.5115,3,right,0.0106,0.0002,1.5,0.3,"[3,1,2]",0.411115061,stimuli/card_10_transparent.png,10,3,0,3,0,1,,,,,,,,,,
,,,,60e5868307d715a4d1445116,B,2024-06-26_15h34.37.336,Slot Machine Game,2023.1.3,Win32,12.00480192,,,,,,,,,,,,,,,,,,,,,,,,,,,130,,,,,,,,,,,,,,,,,,,,,9,10,,,630.8883,4,up,0.0119,0.0001,1,0.3,"[3,1,2]",0.028385258,stimuli/card_0_transparent.png,0,4,0,4,0,1,,,,,,,,,,
,,,,60e5868307d715a4d1445116,B,2024-06-26_15h34.37.336,Slot Machine Game,2023.1.3,Win32,12.00480192,,,,,,,,,,,,,,,,,,,,,,,,,,,230,,,,,,,,,,,,,,,,,,,,,9,10,,,632.8129,5,up,0.0114,,0.5,0.3,"[3,1,2]",0.942167609,stimuli/card_100_transparent.png,100,5,0,5,0,1,,,,,,,,,,
,,,,60e5868307d715a4d1445116,B,2024-06-26_15h34.37.336,Slot Machine Game,2023.1.3,Win32,12.00480192,,,,,,,,,,,,,,,,,,,,,,,,,,,330,,,,,,,,,,,,,,,,,,,,,9,10,,,634.2002,6,up,0.0106,,1.5,0.3,"[3,1,2]",0.487719092,stimuli/card_100_transparent.png,100,6,0,6,0,1,,,,,,,,,,
,,,,60e5868307d715a4d1445116,B,2024-06-26_15h34.37.336,Slot Machine Game,2023.1.3,Win32,12.00480192,,,,,,,,,,,,,,,,,,,,,,,,,,,430,,,,,,,,,,,,,,,,,,,,,9,10,,,636.5797,7,up,0.1489,0.0001,0.5,0.3,"[3,1,2]",0.912549207,stimuli/card_100_transparent.png,100,7,0,7,0,1,,,,,,,,,,
,,,,60e5868307d715a4d1445116,B,2024-06-26_15h34.37.336,Slot Machine Game,2023.1.3,Win32,12.00480192,,,,,,,,,,,,,,,,,,,,,,,,,,,530,,,,,,,,,,,,,,,,,,,,,9,10,,,638.118,8,up,0.1626,0.0001,1,0.3,"[3,1,2]",0.957341997,stimuli/card_100_transparent.png,100,8,0,8,0,1,,,,,,,,,,
,,,,60e5868307d715a4d1445116,B,2024-06-26_15h34.37.336,Slot Machine Game,2023.1.3,Win32,12.00480192,,,,,,,,,,,,,,,,,,,,,,,,,,,630,,,,,,,,,,,,,,,,,,,,,9,10,,,640.2139,9,up,0.1429,,1.5,0.3,"[3,1,2]",0.622016865,stimuli/card_100_transparent.png,100,9,0,9,0,1,,,,,,,,,,
,,,,60e5868307d715a4d1445116,B,2024-06-26_15h34.37.336,Slot Machine Game,2023.1.3,Win32,12.00480192,,,,,,,,,,,,,,,,,,,,,,,,,,,630,,,,,,,,,,,,,,,,,,,,,9,10,,,642.7492,10,up,0.0105,,1,0.3,"[1,3,2]",0.382056998,stimuli/card_0_transparent.png,0,10,0,10,0,1,,,,,,,,,,
,,,,60e5868307d715a4d1445116,B,2024-06-26_15h34.37.336,Slot Machine Game,2023.1.3,Win32,12.00480192,,,,,,,,,,,,,,,,,,,,,,,,,,,630,,,,,,,,,,,,,,,,,,,,,9,10,,,644.6998,11,up,0.1487,0.0001,1,0.3,"[1,3,2]",0.288012229,stimuli/card_0_transparent.png,0,11,0,11,0,1,,,,,,,,,,
,,,,60e5868307d715a4d1445116,B,2024-06-26_15h34.37.336,Slot Machine Game,2023.1.3,Win32,12.00480192,,,,,,,,,,,,,,,,,,,,,,,,,,,630,,,,,,,,,,,,,,,,,,,,,9,10,,,646.7797,12,up,0.1464,,0.5,0.3,"[1,3,2]",0.269319926,stimuli/card_0_transparent.png,0,12,0,12,0,1,,,,,,,,,,
,,,,60e5868307d715a4d1445116,B,2024-06-26_15h34.37.336,Slot Machine Game,2023.1.3,Win32,12.00480192,,,,,,,,,,,,,,,,,,,,,,,,,,,730,,,,,,,,,,,,,,,,,,,,,9,10,,,648.2879,13,left,0.5459,0.0001,1,0.3,"[1,3,2]",0.876366348,stimuli/card_100_transparent.png,100,13,0,13,0,1,,,,,,,,,,
,,,,60e5868307d715a4d1445116,B,2024-06-26_15h34.37.336,Slot Machine Game,2023.1.3,Win32,12.00480192,,,,,,,,,,,,,,,,,,,,,,,,,,,830,,,,,,,,,,,,,,,,,,,,,9,10,,,650.7785,14,left,0.1405,,1.5,0.3,"[1,3,2]",0.8899772,stimuli/card_100_transparent.png,100,14,0,14,0,1,,,,,,,,,,
,,,,60e5868307d715a4d1445116,B,2024-06-26_15h34.37.336,Slot Machine Game,2023.1.3,Win32,12.00480192,,,,,,,,,,,,,,,,,,,,,,,,,,,,,,,,,,,653.2743,,,,,,,,,,,,,,,,,,,,,,,,,,,,,,,,,"[840,630,450,310,160,1110,770,910,830]",8,0,8,0,1,,,,
,,,,60e5868307d715a4d1445116,B,2024-06-26_15h34.37.336,Slot Machine Game,2023.1.3,Win32,12.00480192,,,,,,,,,,,,,,,,,,,,,,,,,,,0,,,,,,,,,,,,,,,,,,,,,10,3,"[15,15]","[[3,1,2],[3,1,2]]",658.2426,0,right,1.1006,0.0004,1.5,0.3,"[3,1,2]",0.091759001,stimuli/card_0_transparent.png,0,0,0,0,0,1,,,,,,,,,,
,,,,60e5868307d715a4d1445116,B,2024-06-26_15h34.37.336,Slot Machine Game,2023.1.3,Win32,12.00480192,,,,,,,,,,,,,,,,,,,,,,,,,,,0,,,,,,,,,,,,,,,,,,,,,10,3,,,661.6905,1,right,0.142,0.0002,1,0.3,"[3,1,2]",0.081228193,stimuli/card_0_transparent.png,0,1,0,1,0,1,,,,,,,,,,
,,,,60e5868307d715a4d1445116,B,2024-06-26_15h34.37.336,Slot Machine Game,2023.1.3,Win32,12.00480192,,,,,,,,,,,,,,,,,,,,,,,,,,,10,,,,,,,,,,,,,,,,,,,,,10,3,,,663.7749,2,right,0.0106,0.0001,0.5,0.3,"[3,1,2]",0.40899602,stimuli/card_10_transparent.png,10,2,0,2,0,1,,,,,,,,,,
,,,,60e5868307d715a4d1445116,B,2024-06-26_15h34.37.336,Slot Machine Game,2023.1.3,Win32,12.00480192,,,,,,,,,,,,,,,,,,,,,,,,,,,110,,,,,,,,,,,,,,,,,,,,,10,3,,,665.1557,3,up,0.0107,,1.5,0.3,"[3,1,2]",0.665742281,stimuli/card_100_transparent.png,100,3,0,3,0,1,,,,,,,,,,
,,,,60e5868307d715a4d1445116,B,2024-06-26_15h34.37.336,Slot Machine Game,2023.1.3,Win32,12.00480192,,,,,,,,,,,,,,,,,,,,,,,,,,,210,,,,,,,,,,,,,,,,,,,,,10,3,,,667.5385,4,up,0.0102,0.0002,1.5,0.3,"[3,1,2]",0.83496818,stimuli/card_100_transparent.png,100,4,0,4,0,1,,,,,,,,,,
,,,,60e5868307d715a4d1445116,B,2024-06-26_15h34.37.336,Slot Machine Game,2023.1.3,Win32,12.00480192,,,,,,,,,,,,,,,,,,,,,,,,,,,310,,,,,,,,,,,,,,,,,,,,,10,3,,,669.9026,5,up,0.2898,,1,0.3,"[3,1,2]",0.848520706,stimuli/card_100_transparent.png,100,5,0,5,0,1,,,,,,,,,,
,,,,60e5868307d715a4d1445116,B,2024-06-26_15h34.37.336,Slot Machine Game,2023.1.3,Win32,12.00480192,,,,,,,,,,,,,,,,,,,,,,,,,,,410,,,,,,,,,,,,,,,,,,,,,10,3,,,672.1242,6,up,0.0104,,1,0.3,"[3,1,2]",0.333532213,stimuli/card_100_transparent.png,100,6,0,6,0,1,,,,,,,,,,
,,,,60e5868307d715a4d1445116,B,2024-06-26_15h34.37.336,Slot Machine Game,2023.1.3,Win32,12.00480192,,,,,,,,,,,,,,,,,,,,,,,,,,,510,,,,,,,,,,,,,,,,,,,,,10,3,,,674.0878,7,up,0.165,,1.5,0.3,"[3,1,2]",0.779980219,stimuli/card_100_transparent.png,100,7,0,7,0,1,,,,,,,,,,
,,,,60e5868307d715a4d1445116,B,2024-06-26_15h34.37.336,Slot Machine Game,2023.1.3,Win32,12.00480192,,,,,,,,,,,,,,,,,,,,,,,,,,,510,,,,,,,,,,,,,,,,,,,,,10,3,,,676.7757,8,left,0.1469,0,1.5,0.3,"[3,1,2]",0.313243796,stimuli/card_0_transparent.png,0,8,0,8,0,1,,,,,,,,,,
,,,,60e5868307d715a4d1445116,B,2024-06-26_15h34.37.336,Slot Machine Game,2023.1.3,Win32,12.00480192,,,,,,,,,,,,,,,,,,,,,,,,,,,610,,,,,,,,,,,,,,,,,,,,,10,3,,,679.2989,9,up,0.0137,,1.5,0.3,"[3,1,2]",0.874449783,stimuli/card_100_transparent.png,100,9,0,9,0,1,,,,,,,,,,
,,,,60e5868307d715a4d1445116,B,2024-06-26_15h34.37.336,Slot Machine Game,2023.1.3,Win32,12.00480192,,,,,,,,,,,,,,,,,,,,,,,,,,,710,,,,,,,,,,,,,,,,,,,,,10,3,,,681.7362,10,up,0.5528,0,0.5,0.3,"[3,1,2]",0.49802919,stimuli/card_100_transparent.png,100,10,0,10,0,1,,,,,,,,,,
,,,,60e5868307d715a4d1445116,B,2024-06-26_15h34.37.336,Slot Machine Game,2023.1.3,Win32,12.00480192,,,,,,,,,,,,,,,,,,,,,,,,,,,720,,,,,,,,,,,,,,,,,,,,,10,3,,,683.66,11,up,0.1451,0.0002,1.5,0.3,"[3,1,2]",0.151630942,stimuli/card_10_transparent.png,10,11,0,11,0,1,,,,,,,,,,
,,,,60e5868307d715a4d1445116,B,2024-06-26_15h34.37.336,Slot Machine Game,2023.1.3,Win32,12.00480192,,,,,,,,,,,,,,,,,,,,,,,,,,,820,,,,,,,,,,,,,,,,,,,,,10,3,,,686.1802,12,up,0.1405,,0.5,0.3,"[3,1,2]",0.506844625,stimuli/card_100_transparent.png,100,12,0,12,0,1,,,,,,,,,,
,,,,60e5868307d715a4d1445116,B,2024-06-26_15h34.37.336,Slot Machine Game,2023.1.3,Win32,12.00480192,,,,,,,,,,,,,,,,,,,,,,,,,,,920,,,,,,,,,,,,,,,,,,,,,10,3,,,687.6963,13,up,0.1468,,1.5,0.3,"[3,1,2]",0.288424863,stimuli/card_100_transparent.png,100,13,0,13,0,1,,,,,,,,,,
,,,,60e5868307d715a4d1445116,B,2024-06-26_15h34.37.336,Slot Machine Game,2023.1.3,Win32,12.00480192,,,,,,,,,,,,,,,,,,,,,,,,,,,1020,,,,,,,,,,,,,,,,,,,,,10,3,,,690.1937,14,up,0.0104,,1,0.3,"[3,1,2]",0.835194114,stimuli/card_100_transparent.png,100,14,0,14,0,1,,,,,,,,,,
,,,,60e5868307d715a4d1445116,B,2024-06-26_15h34.37.336,Slot Machine Game,2023.1.3,Win32,12.00480192,,,,,,,,,,,,,,,,,,,,,,,,,,,,,,,,,,,692.1418,,,,,,,,,,,,,,,,,,,,,,,,,,,,,,,,,"[840,630,450,310,160,1110,770,910,830,1020]",9,0,9,0,1,,,,
,,,,60e5868307d715a4d1445116,B,2024-06-26_15h34.37.336,Slot Machine Game,2023.1.3,Win32,12.00480192,,,,,,,,,,,,,,,,,,,,,,,,,,,,,,,,,,,,,,,,,,,,,,,,,,,,,,,,,,,,,,,,,,,,,,,,,,9,"[840,630,450,310,160,1110,770,910,830,1020]",7.7,2024-06-26_15h46.18.489
