key_resp_welcome_started,key_resp_welcome_keys,key_resp_welcome_rt,key_resp_welcome_duration,prolific_id,path_id,date,expName,psychopyVersion,OS,frameRate,key_resp_instruction1_started,key_resp_instruction1_keys,key_resp_instruction1_rt,key_resp_instruction1_duration,key_resp_instruction2_started,key_resp_instruction2_keys,key_resp_instruction2_rt,key_resp_instruction2_duration,key_resp_instruction3_started,key_resp_instruction3_keys,key_resp_instruction3_rt,key_resp_instruction3_duration,key_resp_instruction4_started,key_resp_instruction4_keys,key_resp_instruction4_rt,key_resp_instruction4_duration,practiceCondition,practice_reward_seqs,practice_trial_started,practice_trial_num,practice_resp_rt,practice_resp_duration,practice_resp_keys,prac_presentationInterval,"practice_reward_seq: 2,1,3",reward_img,cumulative_reward,trial_reward,practice_trials.thisRepN,practice_trials.thisTrialN,practice_trials.thisN,practice_trials.thisIndex,practice_trials.ran,"practice_reward_seq: 2,3,1",block_break_started,"practice_reward_seq: 1,3,2","practice_reward_seq: 3,1,2",practice_end_time,practice_end_keys,practice_end_rt,practice_end_duration,main_instruction_text_started,block_condition,block_order_indices,main_instruction_keys,main_instruction_rt,main_instruction_duration,block_number,block_assignment,current_condition,main_reward_seqs,main_trial_started,main_trial_num,main_trial_keys,main_trial_rt,main_trial_duration,main_presentationInterval,reward_presentation_time,main_reward_seq,reward_rand_val,main_reward_img,current_reward,main_trials.thisRepN,main_trials.thisTrialN,main_trials.thisN,main_trials.thisIndex,main_trials.ran,block_reward,block.thisRepN,block.thisTrialN,block.thisN,block.thisIndex,block.ran,block_reward.length,block_reward_all,reward_amount,date_end_task
0.0001,up,3.1999,,60fe47b274576eb477b06e6d,A,2024-07-22_14h56.35.974,Slot Machine Game,2023.1.3,Win32,142.8571429,,,,,,,,,,,,,,,,,,,,,,,,,,,,,,,,,,,,,,,,,,,,,,,,,,,,,,,,,,,,,,,,,,,,,,,,,,,,,
,,,,60fe47b274576eb477b06e6d,A,2024-07-22_14h56.35.974,Slot Machine Game,2023.1.3,Win32,142.8571429,3.208,up,9.86,,,,,,,,,,,,,,,,,,,,,,,,,,,,,,,,,,,,,,,,,,,,,,,,,,,,,,,,,,,,,,,,,,,,,,,,,,
,,,,60fe47b274576eb477b06e6d,A,2024-07-22_14h56.35.974,Slot Machine Game,2023.1.3,Win32,142.8571429,,,,,13.0763,up,30.6716,,,,,,,,,,,,,,,,,,,,,,,,,,,,,,,,,,,,,,,,,,,,,,,,,,,,,,,,,,,,,,,,,,,,,,
,,,,60fe47b274576eb477b06e6d,A,2024-07-22_14h56.35.974,Slot Machine Game,2023.1.3,Win32,142.8571429,,,,,,,,,43.7647,up,9.0939,,,,,,,,,,,,,,,,,,,,,,,,,,,,,,,,,,,,,,,,,,,,,,,,,,,,,,,,,,,,,,,,,,
,,,,60fe47b274576eb477b06e6d,A,2024-07-22_14h56.35.974,Slot Machine Game,2023.1.3,Win32,142.8571429,,,,,,,,,,,,,,,,,,,,,,,,,,,,,,,,,,,,,,,,,,,,,,,,,,,,,,,,,,,,,,,,,,,,,,,,,,,,,
,,,,60fe47b274576eb477b06e6d,A,2024-07-22_14h56.35.974,Slot Machine Game,2023.1.3,Win32,142.8571429,,,,,,,,,,,,,194.5174,right,2.974,,,,,,,,,,,,,,,,,,,,,,,,,,,,,,,,,,,,,,,,,,,,,,,,,,,,,,,,,,,,,,
,,,,60fe47b274576eb477b06e6d,A,2024-07-22_14h56.35.974,Slot Machine Game,2023.1.3,Win32,142.8571429,,,,,,,,,,,,,,,,,"[9,15]","[[2,1,3],[2,3,1]]",197.4991,0,2.0931,,left,1,,stimuli/card_10_transparent.png,10,10,0,0,0,0,1,,,,,,,,,,,,,,,,,,,,,,,,,,,,,,,,,,,,,,,,,,,,
,,,,60fe47b274576eb477b06e6d,A,2024-07-22_14h56.35.974,Slot Machine Game,2023.1.3,Win32,142.8571429,,,,,,,,,,,,,,,,,,,201.4075,1,1.1936,,left,0.5,,stimuli/card_10_transparent.png,20,10,1,0,1,0,1,,,,,,,,,,,,,,,,,,,,,,,,,,,,,,,,,,,,,,,,,,,,
,,,,60fe47b274576eb477b06e6d,A,2024-07-22_14h56.35.974,Slot Machine Game,2023.1.3,Win32,142.8571429,,,,,,,,,,,,,,,,,,,203.9144,2,0.3663,,right,0.5,,stimuli/card_0_transparent.png,20,0,2,0,2,0,1,,,,,,,,,,,,,,,,,,,,,,,,,,,,,,,,,,,,,,,,,,,,
,,,,60fe47b274576eb477b06e6d,A,2024-07-22_14h56.35.974,Slot Machine Game,2023.1.3,Win32,142.8571429,,,,,,,,,,,,,,,,,,,205.595,3,0.5278,,up,1,,stimuli/card_100_transparent.png,120,100,3,0,3,0,1,,,,,,,,,,,,,,,,,,,,,,,,,,,,,,,,,,,,,,,,,,,,
,,,,60fe47b274576eb477b06e6d,A,2024-07-22_14h56.35.974,Slot Machine Game,2023.1.3,Win32,142.8571429,,,,,,,,,,,,,,,,,,,207.9283,4,0.3074,,up,0.5,,stimuli/card_100_transparent.png,220,100,4,0,4,0,1,,,,,,,,,,,,,,,,,,,,,,,,,,,,,,,,,,,,,,,,,,,,
,,,,60fe47b274576eb477b06e6d,A,2024-07-22_14h56.35.974,Slot Machine Game,2023.1.3,Win32,142.8571429,,,,,,,,,,,,,,,,,,,209.5534,5,0.8033,,up,1.5,,stimuli/card_0_transparent.png,220,0,5,0,5,0,1,,,,,,,,,,,,,,,,,,,,,,,,,,,,,,,,,,,,,,,,,,,,
,,,,60fe47b274576eb477b06e6d,A,2024-07-22_14h56.35.974,Slot Machine Game,2023.1.3,Win32,142.8571429,,,,,,,,,,,,,,,,,,,212.6715,6,0.3107,,up,1,,stimuli/card_100_transparent.png,320,100,6,0,6,0,1,,,,,,,,,,,,,,,,,,,,,,,,,,,,,,,,,,,,,,,,,,,,
,,,,60fe47b274576eb477b06e6d,A,2024-07-22_14h56.35.974,Slot Machine Game,2023.1.3,Win32,142.8571429,,,,,,,,,,,,,,,,,,,214.7827,7,0.0331,,up,0.5,,stimuli/card_0_transparent.png,320,0,7,0,7,0,1,,,,,,,,,,,,,,,,,,,,,,,,,,,,,,,,,,,,,,,,,,,,
,,,,60fe47b274576eb477b06e6d,A,2024-07-22_14h56.35.974,Slot Machine Game,2023.1.3,Win32,142.8571429,,,,,,,,,,,,,,,,,,,216.1299,8,0.0158,,up,1,,stimuli/card_100_transparent.png,420,100,8,0,8,0,1,,,,,,,,,,,,,,,,,,,,,,,,,,,,,,,,,,,,,,,,,,,,
,,,,60fe47b274576eb477b06e6d,A,2024-07-22_14h56.35.974,Slot Machine Game,2023.1.3,Win32,142.8571429,,,,,,,,,,,,,,,,,,,217.9564,9,0.5279,,up,1.5,,stimuli/card_100_transparent.png,520,100,9,0,9,0,1,,,,,,,,,,,,,,,,,,,,,,,,,,,,,,,,,,,,,,,,,,,,
,,,,60fe47b274576eb477b06e6d,A,2024-07-22_14h56.35.974,Slot Machine Game,2023.1.3,Win32,142.8571429,,,,,,,,,,,,,,,,,,,220.8037,10,0.1561,,up,1.5,,stimuli/card_100_transparent.png,620,100,10,0,10,0,1,,,,,,,,,,,,,,,,,,,,,,,,,,,,,,,,,,,,,,,,,,,,
,,,,60fe47b274576eb477b06e6d,A,2024-07-22_14h56.35.974,Slot Machine Game,2023.1.3,Win32,142.8571429,,,,,,,,,,,,,,,,,,,223.276,11,0.0048,,up,1.5,,stimuli/card_0_transparent.png,620,0,11,0,11,0,1,,,,,,,,,,,,,,,,,,,,,,,,,,,,,,,,,,,,,,,,,,,,
,,,,60fe47b274576eb477b06e6d,A,2024-07-22_14h56.35.974,Slot Machine Game,2023.1.3,Win32,142.8571429,,,,,,,,,,,,,,,,,,,225.5955,12,0.0002,,up,1.5,,stimuli/card_0_transparent.png,620,0,12,0,12,0,1,,,,,,,,,,,,,,,,,,,,,,,,,,,,,,,,,,,,,,,,,,,,
,,,,60fe47b274576eb477b06e6d,A,2024-07-22_14h56.35.974,Slot Machine Game,2023.1.3,Win32,142.8571429,,,,,,,,,,,,,,,,,,,227.9081,13,0.5498,,right,1.5,,stimuli/card_100_transparent.png,720,100,13,0,13,0,1,,,,,,,,,,,,,,,,,,,,,,,,,,,,,,,,,,,,,,,,,,,,
,,,,60fe47b274576eb477b06e6d,A,2024-07-22_14h56.35.974,Slot Machine Game,2023.1.3,Win32,142.8571429,,,,,,,,,,,,,,,,,,,230.7692,14,0.1036,,right,0.5,,stimuli/card_100_transparent.png,820,100,14,0,14,0,1,,,,,,,,,,,,,,,,,,,,,,,,,,,,,,,,,,,,,,,,,,,,
,,,,60fe47b274576eb477b06e6d,A,2024-07-22_14h56.35.974,Slot Machine Game,2023.1.3,Win32,142.8571429,,,,,,,,,,,,,,,,,"[6,15]","[[1,3,2],[3,1,2]]",237.1845,0,0.9958,,up,0.5,,stimuli/card_0_transparent.png,0,0,0,0,0,0,1,,232.1842,,,,,,,,,,,,,,,,,,,,,,,,,,,,,,,,,,,,,,,,,,
,,,,60fe47b274576eb477b06e6d,A,2024-07-22_14h56.35.974,Slot Machine Game,2023.1.3,Win32,142.8571429,,,,,,,,,,,,,,,,,,,239.4917,1,0.0192,,right,0.5,,stimuli/card_10_transparent.png,10,10,1,0,1,0,1,,,,,,,,,,,,,,,,,,,,,,,,,,,,,,,,,,,,,,,,,,,,
,,,,60fe47b274576eb477b06e6d,A,2024-07-22_14h56.35.974,Slot Machine Game,2023.1.3,Win32,142.8571429,,,,,,,,,,,,,,,,,,,240.825,2,0.216,,left,1.5,,stimuli/card_100_transparent.png,110,100,2,0,2,0,1,,,,,,,,,,,,,,,,,,,,,,,,,,,,,,,,,,,,,,,,,,,,
,,,,60fe47b274576eb477b06e6d,A,2024-07-22_14h56.35.974,Slot Machine Game,2023.1.3,Win32,142.8571429,,,,,,,,,,,,,,,,,,,243.3529,3,0.439,,left,0.5,,stimuli/card_100_transparent.png,210,100,3,0,3,0,1,,,,,,,,,,,,,,,,,,,,,,,,,,,,,,,,,,,,,,,,,,,,
,,,,60fe47b274576eb477b06e6d,A,2024-07-22_14h56.35.974,Slot Machine Game,2023.1.3,Win32,142.8571429,,,,,,,,,,,,,,,,,,,245.1029,4,0.038,,left,1.5,,stimuli/card_100_transparent.png,310,100,4,0,4,0,1,,,,,,,,,,,,,,,,,,,,,,,,,,,,,,,,,,,,,,,,,,,,
,,,,60fe47b274576eb477b06e6d,A,2024-07-22_14h56.35.974,Slot Machine Game,2023.1.3,Win32,142.8571429,,,,,,,,,,,,,,,,,,,247.4502,5,0.2588,,left,0.5,,stimuli/card_100_transparent.png,410,100,5,0,5,0,1,,,,,,,,,,,,,,,,,,,,,,,,,,,,,,,,,,,,,,,,,,,,
,,,,60fe47b274576eb477b06e6d,A,2024-07-22_14h56.35.974,Slot Machine Game,2023.1.3,Win32,142.8571429,,,,,,,,,,,,,,,,,,,249.0267,6,0.3974,,left,1.5,,stimuli/card_0_transparent.png,410,0,6,0,6,0,1,,,,,,,,,,,,,,,,,,,,,,,,,,,,,,,,,,,,,,,,,,,,
,,,,60fe47b274576eb477b06e6d,A,2024-07-22_14h56.35.974,Slot Machine Game,2023.1.3,Win32,142.8571429,,,,,,,,,,,,,,,,,,,251.742,7,0.2102,,left,0.5,,stimuli/card_0_transparent.png,410,0,7,0,7,0,1,,,,,,,,,,,,,,,,,,,,,,,,,,,,,,,,,,,,,,,,,,,,
,,,,60fe47b274576eb477b06e6d,A,2024-07-22_14h56.35.974,Slot Machine Game,2023.1.3,Win32,142.8571429,,,,,,,,,,,,,,,,,,,253.2698,8,0.1384,,up,1,,stimuli/card_100_transparent.png,510,100,8,0,8,0,1,,,,,,,,,,,,,,,,,,,,,,,,,,,,,,,,,,,,,,,,,,,,
,,,,60fe47b274576eb477b06e6d,A,2024-07-22_14h56.35.974,Slot Machine Game,2023.1.3,Win32,142.8571429,,,,,,,,,,,,,,,,,,,255.2213,9,0.0718,,up,1,,stimuli/card_100_transparent.png,610,100,9,0,9,0,1,,,,,,,,,,,,,,,,,,,,,,,,,,,,,,,,,,,,,,,,,,,,
,,,,60fe47b274576eb477b06e6d,A,2024-07-22_14h56.35.974,Slot Machine Game,2023.1.3,Win32,142.8571429,,,,,,,,,,,,,,,,,,,257.1033,10,0.0478,,up,1.5,,stimuli/card_0_transparent.png,610,0,10,0,10,0,1,,,,,,,,,,,,,,,,,,,,,,,,,,,,,,,,,,,,,,,,,,,,
,,,,60fe47b274576eb477b06e6d,A,2024-07-22_14h56.35.974,Slot Machine Game,2023.1.3,Win32,142.8571429,,,,,,,,,,,,,,,,,,,259.4644,11,0.7913,,up,0.5,,stimuli/card_100_transparent.png,710,100,11,0,11,0,1,,,,,,,,,,,,,,,,,,,,,,,,,,,,,,,,,,,,,,,,,,,,
,,,,60fe47b274576eb477b06e6d,A,2024-07-22_14h56.35.974,Slot Machine Game,2023.1.3,Win32,142.8571429,,,,,,,,,,,,,,,,,,,261.5617,12,0.0987,,up,1.5,,stimuli/card_100_transparent.png,810,100,12,0,12,0,1,,,,,,,,,,,,,,,,,,,,,,,,,,,,,,,,,,,,,,,,,,,,
,,,,60fe47b274576eb477b06e6d,A,2024-07-22_14h56.35.974,Slot Machine Game,2023.1.3,Win32,142.8571429,,,,,,,,,,,,,,,,,,,263.9715,13,0.2897,,up,1,,stimuli/card_100_transparent.png,910,100,13,0,13,0,1,,,,,,,,,,,,,,,,,,,,,,,,,,,,,,,,,,,,,,,,,,,,
,,,,60fe47b274576eb477b06e6d,A,2024-07-22_14h56.35.974,Slot Machine Game,2023.1.3,Win32,142.8571429,,,,,,,,,,,,,,,,,,,266.0757,14,0.3274,,up,0.5,,stimuli/card_100_transparent.png,1010,100,14,0,14,0,1,,,,,,,,,,,,,,,,,,,,,,,,,,,,,,,,,,,,,,,,,,,,
,,,,60fe47b274576eb477b06e6d,A,2024-07-22_14h56.35.974,Slot Machine Game,2023.1.3,Win32,142.8571429,,,,,,,,,,,,,,,,,,,,,,,,,,,,,,,,,,,267.7216,,,272.7223,space,3.9884,,,,,,,,,,,,,,,,,,,,,,,,,,,,,,,,,,,,,
,,,,60fe47b274576eb477b06e6d,A,2024-07-22_14h56.35.974,Slot Machine Game,2023.1.3,Win32,142.8571429,,,,,,,,,,,,,,,,,,,,,,,,,,,,,,,,,,,,,,,,,,276.7226,1,"[0,1,2,3,4,5,6,7,8,9]",space,2.372,,,,,,,,,,,,,,,,,,,,,,,,,,,,,,,
,,,,60fe47b274576eb477b06e6d,A,2024-07-22_14h56.35.974,Slot Machine Game,2023.1.3,Win32,142.8571429,,,,,,,,,,,,,,,,,,,,,,,,,,,10,,,,,,,,,,,,,,,,,,,,,1,1,"[12,15]","[[2,1,3],[2,3,1]]",279.1104,0,left,0.3825,,1,0.3,"[2,1,3]",0.59768904,stimuli/card_10_transparent.png,10,0,0,0,0,1,,,,,,,,,,
,,,,60fe47b274576eb477b06e6d,A,2024-07-22_14h56.35.974,Slot Machine Game,2023.1.3,Win32,142.8571429,,,,,,,,,,,,,,,,,,,,,,,,,,,10,,,,,,,,,,,,,,,,,,,,,1,1,,,281.3056,1,up,0.144,,0.5,0.3,"[2,1,3]",0.047762358,stimuli/card_0_transparent.png,0,1,0,1,0,1,,,,,,,,,,
,,,,60fe47b274576eb477b06e6d,A,2024-07-22_14h56.35.974,Slot Machine Game,2023.1.3,Win32,142.8571429,,,,,,,,,,,,,,,,,,,,,,,,,,,10,,,,,,,,,,,,,,,,,,,,,1,1,,,282.7636,2,right,0.1197,,0.5,0.3,"[2,1,3]",0.792037668,stimuli/card_0_transparent.png,0,2,0,2,0,1,,,,,,,,,,
,,,,60fe47b274576eb477b06e6d,A,2024-07-22_14h56.35.974,Slot Machine Game,2023.1.3,Win32,142.8571429,,,,,,,,,,,,,,,,,,,,,,,,,,,10,,,,,,,,,,,,,,,,,,,,,1,1,,,284.1943,3,right,0.2191,,0.5,0.3,"[2,1,3]",0.406141469,stimuli/card_0_transparent.png,0,3,0,3,0,1,,,,,,,,,,
,,,,60fe47b274576eb477b06e6d,A,2024-07-22_14h56.35.974,Slot Machine Game,2023.1.3,Win32,142.8571429,,,,,,,,,,,,,,,,,,,,,,,,,,,110,,,,,,,,,,,,,,,,,,,,,1,1,,,285.7151,4,left,0.1342,,1.5,0.3,"[2,1,3]",0.142777145,stimuli/card_100_transparent.png,100,4,0,4,0,1,,,,,,,,,,
,,,,60fe47b274576eb477b06e6d,A,2024-07-22_14h56.35.974,Slot Machine Game,2023.1.3,Win32,142.8571429,,,,,,,,,,,,,,,,,,,,,,,,,,,120,,,,,,,,,,,,,,,,,,,,,1,1,,,288.1666,5,left,0.1257,,0.5,0.3,"[2,1,3]",0.574692792,stimuli/card_10_transparent.png,10,5,0,5,0,1,,,,,,,,,,
,,,,60fe47b274576eb477b06e6d,A,2024-07-22_14h56.35.974,Slot Machine Game,2023.1.3,Win32,142.8571429,,,,,,,,,,,,,,,,,,,,,,,,,,,130,,,,,,,,,,,,,,,,,,,,,1,1,,,289.6111,6,left,0.373,,1,0.3,"[2,1,3]",0.435647564,stimuli/card_10_transparent.png,10,6,0,6,0,1,,,,,,,,,,
,,,,60fe47b274576eb477b06e6d,A,2024-07-22_14h56.35.974,Slot Machine Game,2023.1.3,Win32,142.8571429,,,,,,,,,,,,,,,,,,,,,,,,,,,230,,,,,,,,,,,,,,,,,,,,,1,1,,,291.7917,7,up,0.1677,,1,0.3,"[2,1,3]",0.421973045,stimuli/card_100_transparent.png,100,7,0,7,0,1,,,,,,,,,,
,,,,60fe47b274576eb477b06e6d,A,2024-07-22_14h56.35.974,Slot Machine Game,2023.1.3,Win32,142.8571429,,,,,,,,,,,,,,,,,,,,,,,,,,,240,,,,,,,,,,,,,,,,,,,,,1,1,,,293.7779,8,up,0.2627,,1,0.3,"[2,1,3]",0.194805956,stimuli/card_10_transparent.png,10,8,0,8,0,1,,,,,,,,,,
,,,,60fe47b274576eb477b06e6d,A,2024-07-22_14h56.35.974,Slot Machine Game,2023.1.3,Win32,142.8571429,,,,,,,,,,,,,,,,,,,,,,,,,,,240,,,,,,,,,,,,,,,,,,,,,1,1,,,295.8543,9,right,0.23,,0.5,0.3,"[2,1,3]",0.308361686,stimuli/card_0_transparent.png,0,9,0,9,0,1,,,,,,,,,,
,,,,60fe47b274576eb477b06e6d,A,2024-07-22_14h56.35.974,Slot Machine Game,2023.1.3,Win32,142.8571429,,,,,,,,,,,,,,,,,,,,,,,,,,,240,,,,,,,,,,,,,,,,,,,,,1,1,,,297.4029,10,right,0.0234,,1.5,0.3,"[2,1,3]",0.651356474,stimuli/card_0_transparent.png,0,10,0,10,0,1,,,,,,,,,,
,,,,60fe47b274576eb477b06e6d,A,2024-07-22_14h56.35.974,Slot Machine Game,2023.1.3,Win32,142.8571429,,,,,,,,,,,,,,,,,,,,,,,,,,,250,,,,,,,,,,,,,,,,,,,,,1,1,,,299.7364,11,left,0.0217,,1,0.3,"[2,1,3]",0.415844715,stimuli/card_10_transparent.png,10,11,0,11,0,1,,,,,,,,,,
,,,,60fe47b274576eb477b06e6d,A,2024-07-22_14h56.35.974,Slot Machine Game,2023.1.3,Win32,142.8571429,,,,,,,,,,,,,,,,,,,,,,,,,,,250,,,,,,,,,,,,,,,,,,,,,1,1,,,301.5697,12,up,0.1517,,1,0.3,"[2,3,1]",0.607192812,stimuli/card_0_transparent.png,0,12,0,12,0,1,,,,,,,,,,
,,,,60fe47b274576eb477b06e6d,A,2024-07-22_14h56.35.974,Slot Machine Game,2023.1.3,Win32,142.8571429,,,,,,,,,,,,,,,,,,,,,,,,,,,260,,,,,,,,,,,,,,,,,,,,,1,1,,,303.535,13,up,0.2144,,1.5,0.3,"[2,3,1]",0.198036956,stimuli/card_10_transparent.png,10,13,0,13,0,1,,,,,,,,,,
,,,,60fe47b274576eb477b06e6d,A,2024-07-22_14h56.35.974,Slot Machine Game,2023.1.3,Win32,142.8571429,,,,,,,,,,,,,,,,,,,,,,,,,,,270,,,,,,,,,,,,,,,,,,,,,1,1,,,306.0559,14,left,0.1264,,0.5,0.3,"[2,3,1]",0.302096269,stimuli/card_10_transparent.png,10,14,0,14,0,1,,,,,,,,,,
,,,,60fe47b274576eb477b06e6d,A,2024-07-22_14h56.35.974,Slot Machine Game,2023.1.3,Win32,142.8571429,,,,,,,,,,,,,,,,,,,,,,,,,,,,,,,,,,,307.4935,,,,,,,,,,,,,,,,,,,,,,,,,,,,,,,,,[270],0,0,0,0,1,,,,
,,,,60fe47b274576eb477b06e6d,A,2024-07-22_14h56.35.974,Slot Machine Game,2023.1.3,Win32,142.8571429,,,,,,,,,,,,,,,,,,,,,,,,,,,10,,,,,,,,,,,,,,,,,,,,,2,2,"[6,15]","[[1,3,2],[3,2,1]]",312.4992,0,right,0.019,,1.5,0.3,"[1,3,2]",0.990489378,stimuli/card_10_transparent.png,10,0,0,0,0,1,,,,,,,,,,
,,,,60fe47b274576eb477b06e6d,A,2024-07-22_14h56.35.974,Slot Machine Game,2023.1.3,Win32,142.8571429,,,,,,,,,,,,,,,,,,,,,,,,,,,10,,,,,,,,,,,,,,,,,,,,,2,2,,,314.827,1,left,0.2352,,0.5,0.3,"[1,3,2]",0.005995735,stimuli/card_0_transparent.png,0,1,0,1,0,1,,,,,,,,,,
,,,,60fe47b274576eb477b06e6d,A,2024-07-22_14h56.35.974,Slot Machine Game,2023.1.3,Win32,142.8571429,,,,,,,,,,,,,,,,,,,,,,,,,,,10,,,,,,,,,,,,,,,,,,,,,2,2,,,316.3617,2,up,0.2067,,1,0.3,"[1,3,2]",0.544109086,stimuli/card_0_transparent.png,0,2,0,2,0,1,,,,,,,,,,
,,,,60fe47b274576eb477b06e6d,A,2024-07-22_14h56.35.974,Slot Machine Game,2023.1.3,Win32,142.8571429,,,,,,,,,,,,,,,,,,,,,,,,,,,110,,,,,,,,,,,,,,,,,,,,,2,2,,,318.3687,3,up,0.6337,,0.5,0.3,"[1,3,2]",0.049023212,stimuli/card_100_transparent.png,100,3,0,3,0,1,,,,,,,,,,
,,,,60fe47b274576eb477b06e6d,A,2024-07-22_14h56.35.974,Slot Machine Game,2023.1.3,Win32,142.8571429,,,,,,,,,,,,,,,,,,,,,,,,,,,120,,,,,,,,,,,,,,,,,,,,,2,2,,,320.3133,4,up,0.2893,,1,0.3,"[1,3,2]",0.192889482,stimuli/card_10_transparent.png,10,4,0,4,0,1,,,,,,,,,,
,,,,60fe47b274576eb477b06e6d,A,2024-07-22_14h56.35.974,Slot Machine Game,2023.1.3,Win32,142.8571429,,,,,,,,,,,,,,,,,,,,,,,,,,,220,,,,,,,,,,,,,,,,,,,,,2,2,,,322.4175,5,left,0.0002,,1.5,0.3,"[1,3,2]",0.996052627,stimuli/card_100_transparent.png,100,5,0,5,0,1,,,,,,,,,,
,,,,60fe47b274576eb477b06e6d,A,2024-07-22_14h56.35.974,Slot Machine Game,2023.1.3,Win32,142.8571429,,,,,,,,,,,,,,,,,,,,,,,,,,,320,,,,,,,,,,,,,,,,,,,,,2,2,,,324.7301,6,left,0.3054,,1.5,0.3,"[3,2,1]",0.080743329,stimuli/card_100_transparent.png,100,6,0,6,0,1,,,,,,,,,,
,,,,60fe47b274576eb477b06e6d,A,2024-07-22_14h56.35.974,Slot Machine Game,2023.1.3,Win32,142.8571429,,,,,,,,,,,,,,,,,,,,,,,,,,,320,,,,,,,,,,,,,,,,,,,,,2,2,,,327.3482,7,left,0.2454,,1,0.3,"[3,2,1]",0.669533953,stimuli/card_0_transparent.png,0,7,0,7,0,1,,,,,,,,,,
,,,,60fe47b274576eb477b06e6d,A,2024-07-22_14h56.35.974,Slot Machine Game,2023.1.3,Win32,142.8571429,,,,,,,,,,,,,,,,,,,,,,,,,,,320,,,,,,,,,,,,,,,,,,,,,2,2,,,329.4108,8,left,0.0197,,1.5,0.3,"[3,2,1]",0.282681747,stimuli/card_0_transparent.png,0,8,0,8,0,1,,,,,,,,,,
,,,,60fe47b274576eb477b06e6d,A,2024-07-22_14h56.35.974,Slot Machine Game,2023.1.3,Win32,142.8571429,,,,,,,,,,,,,,,,,,,,,,,,,,,330,,,,,,,,,,,,,,,,,,,,,2,2,,,331.7372,9,up,0.0825,,1,0.3,"[3,2,1]",0.800421607,stimuli/card_10_transparent.png,10,9,0,9,0,1,,,,,,,,,,
,,,,60fe47b274576eb477b06e6d,A,2024-07-22_14h56.35.974,Slot Machine Game,2023.1.3,Win32,142.8571429,,,,,,,,,,,,,,,,,,,,,,,,,,,430,,,,,,,,,,,,,,,,,,,,,2,2,,,333.6331,10,right,0.1355,,0.5,0.3,"[3,2,1]",0.671034116,stimuli/card_100_transparent.png,100,10,0,10,0,1,,,,,,,,,,
,,,,60fe47b274576eb477b06e6d,A,2024-07-22_14h56.35.974,Slot Machine Game,2023.1.3,Win32,142.8571429,,,,,,,,,,,,,,,,,,,,,,,,,,,530,,,,,,,,,,,,,,,,,,,,,2,2,,,335.0845,11,right,0.2963,,1.5,0.3,"[3,2,1]",0.357186924,stimuli/card_100_transparent.png,100,11,0,11,0,1,,,,,,,,,,
,,,,60fe47b274576eb477b06e6d,A,2024-07-22_14h56.35.974,Slot Machine Game,2023.1.3,Win32,142.8571429,,,,,,,,,,,,,,,,,,,,,,,,,,,630,,,,,,,,,,,,,,,,,,,,,2,2,,,337.6817,12,right,0.2557,,1,0.3,"[3,2,1]",0.555035318,stimuli/card_100_transparent.png,100,12,0,12,0,1,,,,,,,,,,
,,,,60fe47b274576eb477b06e6d,A,2024-07-22_14h56.35.974,Slot Machine Game,2023.1.3,Win32,142.8571429,,,,,,,,,,,,,,,,,,,,,,,,,,,730,,,,,,,,,,,,,,,,,,,,,2,2,,,339.7443,13,right,0.2343,,0.5,0.3,"[3,2,1]",0.220858305,stimuli/card_100_transparent.png,100,13,0,13,0,1,,,,,,,,,,
,,,,60fe47b274576eb477b06e6d,A,2024-07-22_14h56.35.974,Slot Machine Game,2023.1.3,Win32,142.8571429,,,,,,,,,,,,,,,,,,,,,,,,,,,830,,,,,,,,,,,,,,,,,,,,,2,2,,,341.2861,14,right,0.0211,,1,0.3,"[3,2,1]",0.687621246,stimuli/card_100_transparent.png,100,14,0,14,0,1,,,,,,,,,,
,,,,60fe47b274576eb477b06e6d,A,2024-07-22_14h56.35.974,Slot Machine Game,2023.1.3,Win32,142.8571429,,,,,,,,,,,,,,,,,,,,,,,,,,,,,,,,,,,343.1267,,,,,,,,,,,,,,,,,,,,,,,,,,,,,,,,,"[270,830]",1,0,1,0,1,,,,
,,,,60fe47b274576eb477b06e6d,A,2024-07-22_14h56.35.974,Slot Machine Game,2023.1.3,Win32,142.8571429,,,,,,,,,,,,,,,,,,,,,,,,,,,0,,,,,,,,,,,,,,,,,,,,,3,3,"[15,15]","[[3,1,2],[3,1,2]]",348.1323,0,left,0.4033,,0.5,0.3,"[3,1,2]",0.85596983,stimuli/card_0_transparent.png,0,0,0,0,0,1,,,,,,,,,,
,,,,60fe47b274576eb477b06e6d,A,2024-07-22_14h56.35.974,Slot Machine Game,2023.1.3,Win32,142.8571429,,,,,,,,,,,,,,,,,,,,,,,,,,,0,,,,,,,,,,,,,,,,,,,,,3,3,,,349.8491,1,left,0.4729,,1,0.3,"[3,1,2]",0.92239872,stimuli/card_0_transparent.png,0,1,0,1,0,1,,,,,,,,,,
,,,,60fe47b274576eb477b06e6d,A,2024-07-22_14h56.35.974,Slot Machine Game,2023.1.3,Win32,142.8571429,,,,,,,,,,,,,,,,,,,,,,,,,,,10,,,,,,,,,,,,,,,,,,,,,3,3,,,352.1336,2,right,0.3274,,1.5,0.3,"[3,1,2]",0.780535314,stimuli/card_10_transparent.png,10,2,0,2,0,1,,,,,,,,,,
,,,,60fe47b274576eb477b06e6d,A,2024-07-22_14h56.35.974,Slot Machine Game,2023.1.3,Win32,142.8571429,,,,,,,,,,,,,,,,,,,,,,,,,,,20,,,,,,,,,,,,,,,,,,,,,3,3,,,354.7795,3,up,0.1202,,1.5,0.3,"[3,1,2]",0.155505576,stimuli/card_10_transparent.png,10,3,0,3,0,1,,,,,,,,,,
,,,,60fe47b274576eb477b06e6d,A,2024-07-22_14h56.35.974,Slot Machine Game,2023.1.3,Win32,142.8571429,,,,,,,,,,,,,,,,,,,,,,,,,,,30,,,,,,,,,,,,,,,,,,,,,3,3,,,357.217,4,right,0.026,,0.5,0.3,"[3,1,2]",0.496413837,stimuli/card_10_transparent.png,10,4,0,4,0,1,,,,,,,,,,
,,,,60fe47b274576eb477b06e6d,A,2024-07-22_14h56.35.974,Slot Machine Game,2023.1.3,Win32,142.8571429,,,,,,,,,,,,,,,,,,,,,,,,,,,130,,,,,,,,,,,,,,,,,,,,,3,3,,,358.5573,5,up,0.1738,,1.5,0.3,"[3,1,2]",0.781354547,stimuli/card_100_transparent.png,100,5,0,5,0,1,,,,,,,,,,
,,,,60fe47b274576eb477b06e6d,A,2024-07-22_14h56.35.974,Slot Machine Game,2023.1.3,Win32,142.8571429,,,,,,,,,,,,,,,,,,,,,,,,,,,230,,,,,,,,,,,,,,,,,,,,,3,3,,,361.0435,6,up,0.1403,,0.5,0.3,"[3,1,2]",0.387801018,stimuli/card_100_transparent.png,100,6,0,6,0,1,,,,,,,,,,
,,,,60fe47b274576eb477b06e6d,A,2024-07-22_14h56.35.974,Slot Machine Game,2023.1.3,Win32,142.8571429,,,,,,,,,,,,,,,,,,,,,,,,,,,330,,,,,,,,,,,,,,,,,,,,,3,3,,,362.4949,7,up,0.2959,,0.5,0.3,"[3,1,2]",0.578032348,stimuli/card_100_transparent.png,100,7,0,7,0,1,,,,,,,,,,
,,,,60fe47b274576eb477b06e6d,A,2024-07-22_14h56.35.974,Slot Machine Game,2023.1.3,Win32,142.8571429,,,,,,,,,,,,,,,,,,,,,,,,,,,430,,,,,,,,,,,,,,,,,,,,,3,3,,,364.0993,8,up,0.1476,,0.5,0.3,"[3,1,2]",0.775037924,stimuli/card_100_transparent.png,100,8,0,8,0,1,,,,,,,,,,
,,,,60fe47b274576eb477b06e6d,A,2024-07-22_14h56.35.974,Slot Machine Game,2023.1.3,Win32,142.8571429,,,,,,,,,,,,,,,,,,,,,,,,,,,530,,,,,,,,,,,,,,,,,,,,,3,3,,,365.5645,9,up,0.1185,,1,0.3,"[3,1,2]",0.631744744,stimuli/card_100_transparent.png,100,9,0,9,0,1,,,,,,,,,,
,,,,60fe47b274576eb477b06e6d,A,2024-07-22_14h56.35.974,Slot Machine Game,2023.1.3,Win32,142.8571429,,,,,,,,,,,,,,,,,,,,,,,,,,,530,,,,,,,,,,,,,,,,,,,,,3,3,,,367.502,10,up,0.2207,,1.5,0.3,"[3,1,2]",0.005857048,stimuli/card_0_transparent.png,0,10,0,10,0,1,,,,,,,,,,
,,,,60fe47b274576eb477b06e6d,A,2024-07-22_14h56.35.974,Slot Machine Game,2023.1.3,Win32,142.8571429,,,,,,,,,,,,,,,,,,,,,,,,,,,540,,,,,,,,,,,,,,,,,,,,,3,3,,,370.0299,11,up,0.5011,,0.5,0.3,"[3,1,2]",0.151578831,stimuli/card_10_transparent.png,10,11,0,11,0,1,,,,,,,,,,
,,,,60fe47b274576eb477b06e6d,A,2024-07-22_14h56.35.974,Slot Machine Game,2023.1.3,Win32,142.8571429,,,,,,,,,,,,,,,,,,,,,,,,,,,550,,,,,,,,,,,,,,,,,,,,,3,3,,,371.8424,12,right,0.1976,,1,0.3,"[3,1,2]",0.423550271,stimuli/card_10_transparent.png,10,12,0,12,0,1,,,,,,,,,,
,,,,60fe47b274576eb477b06e6d,A,2024-07-22_14h56.35.974,Slot Machine Game,2023.1.3,Win32,142.8571429,,,,,,,,,,,,,,,,,,,,,,,,,,,550,,,,,,,,,,,,,,,,,,,,,3,3,,,373.8564,13,left,0.1606,,0.5,0.3,"[3,1,2]",0.801188219,stimuli/card_0_transparent.png,0,13,0,13,0,1,,,,,,,,,,
,,,,60fe47b274576eb477b06e6d,A,2024-07-22_14h56.35.974,Slot Machine Game,2023.1.3,Win32,142.8571429,,,,,,,,,,,,,,,,,,,,,,,,,,,650,,,,,,,,,,,,,,,,,,,,,3,3,,,375.3355,14,up,0.2821,,1.5,0.3,"[3,1,2]",0.250684176,stimuli/card_100_transparent.png,100,14,0,14,0,1,,,,,,,,,,
,,,,60fe47b274576eb477b06e6d,A,2024-07-22_14h56.35.974,Slot Machine Game,2023.1.3,Win32,142.8571429,,,,,,,,,,,,,,,,,,,,,,,,,,,,,,,,,,,377.9195,,,,,,,,,,,,,,,,,,,,,,,,,,,,,,,,,"[270,830,650]",2,0,2,0,1,,,,
,,,,60fe47b274576eb477b06e6d,A,2024-07-22_14h56.35.974,Slot Machine Game,2023.1.3,Win32,142.8571429,,,,,,,,,,,,,,,,,,,,,,,,,,,0,,,,,,,,,,,,,,,,,,,,,4,4,"[7,15]","[[2,3,1],[1,2,3]]",382.9246,0,up,0.1209,,0.5,0.3,"[2,3,1]",0.732925643,stimuli/card_0_transparent.png,0,0,0,0,0,1,,,,,,,,,,
,,,,60fe47b274576eb477b06e6d,A,2024-07-22_14h56.35.974,Slot Machine Game,2023.1.3,Win32,142.8571429,,,,,,,,,,,,,,,,,,,,,,,,,,,100,,,,,,,,,,,,,,,,,,,,,4,4,,,384.3497,1,right,0.1834,,1.5,0.3,"[2,3,1]",0.947437254,stimuli/card_100_transparent.png,100,1,0,1,0,1,,,,,,,,,,
,,,,60fe47b274576eb477b06e6d,A,2024-07-22_14h56.35.974,Slot Machine Game,2023.1.3,Win32,142.8571429,,,,,,,,,,,,,,,,,,,,,,,,,,,110,,,,,,,,,,,,,,,,,,,,,4,4,,,386.8428,2,right,0.2392,,0.5,0.3,"[2,3,1]",0.117968788,stimuli/card_10_transparent.png,10,2,0,2,0,1,,,,,,,,,,
,,,,60fe47b274576eb477b06e6d,A,2024-07-22_14h56.35.974,Slot Machine Game,2023.1.3,Win32,142.8571429,,,,,,,,,,,,,,,,,,,,,,,,,,,110,,,,,,,,,,,,,,,,,,,,,4,4,,,388.3985,3,right,0.3016,,1,0.3,"[2,3,1]",0.046721996,stimuli/card_0_transparent.png,0,3,0,3,0,1,,,,,,,,,,
,,,,60fe47b274576eb477b06e6d,A,2024-07-22_14h56.35.974,Slot Machine Game,2023.1.3,Win32,142.8571429,,,,,,,,,,,,,,,,,,,,,,,,,,,210,,,,,,,,,,,,,,,,,,,,,4,4,,,390.5165,4,right,0.5877,,1.5,0.3,"[2,3,1]",0.841967851,stimuli/card_100_transparent.png,100,4,0,4,0,1,,,,,,,,,,
,,,,60fe47b274576eb477b06e6d,A,2024-07-22_14h56.35.974,Slot Machine Game,2023.1.3,Win32,142.8571429,,,,,,,,,,,,,,,,,,,,,,,,,,,310,,,,,,,,,,,,,,,,,,,,,4,4,,,393.4124,5,right,0.0558,,0.5,0.3,"[2,3,1]",0.793810844,stimuli/card_100_transparent.png,100,5,0,5,0,1,,,,,,,,,,
,,,,60fe47b274576eb477b06e6d,A,2024-07-22_14h56.35.974,Slot Machine Game,2023.1.3,Win32,142.8571429,,,,,,,,,,,,,,,,,,,,,,,,,,,410,,,,,,,,,,,,,,,,,,,,,4,4,,,394.7805,6,right,0.1475,,0.5,0.3,"[2,3,1]",0.721580171,stimuli/card_100_transparent.png,100,6,0,6,0,1,,,,,,,,,,
,,,,60fe47b274576eb477b06e6d,A,2024-07-22_14h56.35.974,Slot Machine Game,2023.1.3,Win32,142.8571429,,,,,,,,,,,,,,,,,,,,,,,,,,,410,,,,,,,,,,,,,,,,,,,,,4,4,,,396.2389,7,right,0.2941,,1.5,0.3,"[1,2,3]",0.661429028,stimuli/card_0_transparent.png,0,7,0,7,0,1,,,,,,,,,,
,,,,60fe47b274576eb477b06e6d,A,2024-07-22_14h56.35.974,Slot Machine Game,2023.1.3,Win32,142.8571429,,,,,,,,,,,,,,,,,,,,,,,,,,,410,,,,,,,,,,,,,,,,,,,,,4,4,,,398.8432,8,right,0.3661,,0.5,0.3,"[1,2,3]",0.72111468,stimuli/card_0_transparent.png,0,8,0,8,0,1,,,,,,,,,,
,,,,60fe47b274576eb477b06e6d,A,2024-07-22_14h56.35.974,Slot Machine Game,2023.1.3,Win32,142.8571429,,,,,,,,,,,,,,,,,,,,,,,,,,,510,,,,,,,,,,,,,,,,,,,,,4,4,,,400.5237,9,right,0.2123,,1,0.3,"[1,2,3]",0.041437257,stimuli/card_100_transparent.png,100,9,0,9,0,1,,,,,,,,,,
,,,,60fe47b274576eb477b06e6d,A,2024-07-22_14h56.35.974,Slot Machine Game,2023.1.3,Win32,142.8571429,,,,,,,,,,,,,,,,,,,,,,,,,,,520,,,,,,,,,,,,,,,,,,,,,4,4,,,402.5446,10,right,0.0995,,1.5,0.3,"[1,2,3]",0.166497705,stimuli/card_10_transparent.png,10,10,0,10,0,1,,,,,,,,,,
,,,,60fe47b274576eb477b06e6d,A,2024-07-22_14h56.35.974,Slot Machine Game,2023.1.3,Win32,142.8571429,,,,,,,,,,,,,,,,,,,,,,,,,,,520,,,,,,,,,,,,,,,,,,,,,4,4,,,404.9545,11,right,0.2432,,0.5,0.3,"[1,2,3]",0.490005422,stimuli/card_0_transparent.png,0,11,0,11,0,1,,,,,,,,,,
,,,,60fe47b274576eb477b06e6d,A,2024-07-22_14h56.35.974,Slot Machine Game,2023.1.3,Win32,142.8571429,,,,,,,,,,,,,,,,,,,,,,,,,,,520,,,,,,,,,,,,,,,,,,,,,4,4,,,406.51,12,right,0.1823,,0.5,0.3,"[1,2,3]",0.499010329,stimuli/card_0_transparent.png,0,12,0,12,0,1,,,,,,,,,,
,,,,60fe47b274576eb477b06e6d,A,2024-07-22_14h56.35.974,Slot Machine Game,2023.1.3,Win32,142.8571429,,,,,,,,,,,,,,,,,,,,,,,,,,,530,,,,,,,,,,,,,,,,,,,,,4,4,,,408.0031,13,left,0.1303,,0.5,0.3,"[1,2,3]",0.190045959,stimuli/card_10_transparent.png,10,13,0,13,0,1,,,,,,,,,,
,,,,60fe47b274576eb477b06e6d,A,2024-07-22_14h56.35.974,Slot Machine Game,2023.1.3,Win32,142.8571429,,,,,,,,,,,,,,,,,,,,,,,,,,,540,,,,,,,,,,,,,,,,,,,,,4,4,,,409.4337,14,up,0.1699,,0.5,0.3,"[1,2,3]",0.533671212,stimuli/card_10_transparent.png,10,14,0,14,0,1,,,,,,,,,,
,,,,60fe47b274576eb477b06e6d,A,2024-07-22_14h56.35.974,Slot Machine Game,2023.1.3,Win32,142.8571429,,,,,,,,,,,,,,,,,,,,,,,,,,,,,,,,,,,410.906,,,,,,,,,,,,,,,,,,,,,,,,,,,,,,,,,"[270,830,650,540]",3,0,3,0,1,,,,
,,,,60fe47b274576eb477b06e6d,A,2024-07-22_14h56.35.974,Slot Machine Game,2023.1.3,Win32,142.8571429,,,,,,,,,,,,,,,,,,,,,,,,,,,10,,,,,,,,,,,,,,,,,,,,,5,5,"[5,15]","[[1,2,3],[3,1,2]]",415.912,0,up,0.1823,,0.5,0.3,"[1,2,3]",0.704417136,stimuli/card_10_transparent.png,10,0,0,0,0,1,,,,,,,,,,
,,,,60fe47b274576eb477b06e6d,A,2024-07-22_14h56.35.974,Slot Machine Game,2023.1.3,Win32,142.8571429,,,,,,,,,,,,,,,,,,,,,,,,,,,110,,,,,,,,,,,,,,,,,,,,,5,5,,,417.4062,1,left,0.0003,,0.5,0.3,"[1,2,3]",0.248763045,stimuli/card_100_transparent.png,100,1,0,1,0,1,,,,,,,,,,
,,,,60fe47b274576eb477b06e6d,A,2024-07-22_14h56.35.974,Slot Machine Game,2023.1.3,Win32,142.8571429,,,,,,,,,,,,,,,,,,,,,,,,,,,210,,,,,,,,,,,,,,,,,,,,,5,5,,,418.7187,2,left,0.014,,1,0.3,"[1,2,3]",0.450454006,stimuli/card_100_transparent.png,100,2,0,2,0,1,,,,,,,,,,
,,,,60fe47b274576eb477b06e6d,A,2024-07-22_14h56.35.974,Slot Machine Game,2023.1.3,Win32,142.8571429,,,,,,,,,,,,,,,,,,,,,,,,,,,310,,,,,,,,,,,,,,,,,,,,,5,5,,,420.5452,3,left,0.2273,,1.5,0.3,"[1,2,3]",0.779234923,stimuli/card_100_transparent.png,100,3,0,3,0,1,,,,,,,,,,
,,,,60fe47b274576eb477b06e6d,A,2024-07-22_14h56.35.974,Slot Machine Game,2023.1.3,Win32,142.8571429,,,,,,,,,,,,,,,,,,,,,,,,,,,410,,,,,,,,,,,,,,,,,,,,,5,5,,,423.0869,4,left,0.2895,,1.5,0.3,"[1,2,3]",0.554559336,stimuli/card_100_transparent.png,100,4,0,4,0,1,,,,,,,,,,
,,,,60fe47b274576eb477b06e6d,A,2024-07-22_14h56.35.974,Slot Machine Game,2023.1.3,Win32,142.8571429,,,,,,,,,,,,,,,,,,,,,,,,,,,410,,,,,,,,,,,,,,,,,,,,,5,5,,,425.6911,5,left,0.1504,,1,0.3,"[3,1,2]",0.59380182,stimuli/card_0_transparent.png,0,5,0,5,0,1,,,,,,,,,,
,,,,60fe47b274576eb477b06e6d,A,2024-07-22_14h56.35.974,Slot Machine Game,2023.1.3,Win32,142.8571429,,,,,,,,,,,,,,,,,,,,,,,,,,,410,,,,,,,,,,,,,,,,,,,,,5,5,,,427.6426,6,left,0.064,,0.5,0.3,"[3,1,2]",0.507122795,stimuli/card_0_transparent.png,0,6,0,6,0,1,,,,,,,,,,
,,,,60fe47b274576eb477b06e6d,A,2024-07-22_14h56.35.974,Slot Machine Game,2023.1.3,Win32,142.8571429,,,,,,,,,,,,,,,,,,,,,,,,,,,420,,,,,,,,,,,,,,,,,,,,,5,5,,,429.0245,7,right,0.0549,,1,0.3,"[3,1,2]",0.980884534,stimuli/card_10_transparent.png,10,7,0,7,0,1,,,,,,,,,,
,,,,60fe47b274576eb477b06e6d,A,2024-07-22_14h56.35.974,Slot Machine Game,2023.1.3,Win32,142.8571429,,,,,,,,,,,,,,,,,,,,,,,,,,,520,,,,,,,,,,,,,,,,,,,,,5,5,,,430.8926,8,left,0.0328,,1,0.3,"[3,1,2]",0.05887503,stimuli/card_100_transparent.png,100,8,0,8,0,1,,,,,,,,,,
,,,,60fe47b274576eb477b06e6d,A,2024-07-22_14h56.35.974,Slot Machine Game,2023.1.3,Win32,142.8571429,,,,,,,,,,,,,,,,,,,,,,,,,,,520,,,,,,,,,,,,,,,,,,,,,5,5,,,432.7399,9,left,0.2645,,1,0.3,"[3,1,2]",0.98464531,stimuli/card_0_transparent.png,0,9,0,9,0,1,,,,,,,,,,
,,,,60fe47b274576eb477b06e6d,A,2024-07-22_14h56.35.974,Slot Machine Game,2023.1.3,Win32,142.8571429,,,,,,,,,,,,,,,,,,,,,,,,,,,520,,,,,,,,,,,,,,,,,,,,,5,5,,,434.8233,10,left,0.2681,,0.5,0.3,"[3,1,2]",0.74859575,stimuli/card_0_transparent.png,0,10,0,10,0,1,,,,,,,,,,
,,,,60fe47b274576eb477b06e6d,A,2024-07-22_14h56.35.974,Slot Machine Game,2023.1.3,Win32,142.8571429,,,,,,,,,,,,,,,,,,,,,,,,,,,530,,,,,,,,,,,,,,,,,,,,,5,5,,,436.3997,11,left,0.3857,,0.5,0.3,"[3,1,2]",0.160009238,stimuli/card_10_transparent.png,10,11,0,11,0,1,,,,,,,,,,
,,,,60fe47b274576eb477b06e6d,A,2024-07-22_14h56.35.974,Slot Machine Game,2023.1.3,Win32,142.8571429,,,,,,,,,,,,,,,,,,,,,,,,,,,630,,,,,,,,,,,,,,,,,,,,,5,5,,,438.0942,12,up,0.0463,,1,0.3,"[3,1,2]",0.8852212,stimuli/card_100_transparent.png,100,12,0,12,0,1,,,,,,,,,,
,,,,60fe47b274576eb477b06e6d,A,2024-07-22_14h56.35.974,Slot Machine Game,2023.1.3,Win32,142.8571429,,,,,,,,,,,,,,,,,,,,,,,,,,,730,,,,,,,,,,,,,,,,,,,,,5,5,,,439.9485,13,up,0.195,,1.5,0.3,"[3,1,2]",0.508591751,stimuli/card_100_transparent.png,100,13,0,13,0,1,,,,,,,,,,
,,,,60fe47b274576eb477b06e6d,A,2024-07-22_14h56.35.974,Slot Machine Game,2023.1.3,Win32,142.8571429,,,,,,,,,,,,,,,,,,,,,,,,,,,740,,,,,,,,,,,,,,,,,,,,,5,5,,,442.4624,14,up,1.3648,,1.5,0.3,"[3,1,2]",0.129493762,stimuli/card_10_transparent.png,10,14,0,14,0,1,,,,,,,,,,
,,,,60fe47b274576eb477b06e6d,A,2024-07-22_14h56.35.974,Slot Machine Game,2023.1.3,Win32,142.8571429,,,,,,,,,,,,,,,,,,,,,,,,,,,,,,,,,,,446.1361,,,,,,,,,,,,,,,,,,,,,,,,,,,,,,,,,"[270,830,650,540,740]",4,0,4,0,1,,,,
,,,,60fe47b274576eb477b06e6d,A,2024-07-22_14h56.35.974,Slot Machine Game,2023.1.3,Win32,142.8571429,,,,,,,,,,,,,,,,,,,,,,,,,,,0,,,,,,,,,,,,,,,,,,,,,6,6,"[4,10,15]","[[2,3,1],[1,3,2],[3,2,1]]",451.1418,0,up,0.4044,,1.5,0.3,"[2,3,1]",0.591351186,stimuli/card_0_transparent.png,0,0,0,0,0,1,,,,,,,,,,
,,,,60fe47b274576eb477b06e6d,A,2024-07-22_14h56.35.974,Slot Machine Game,2023.1.3,Win32,142.8571429,,,,,,,,,,,,,,,,,,,,,,,,,,,10,,,,,,,,,,,,,,,,,,,,,6,6,,,453.8586,1,left,0.3291,,0.5,0.3,"[2,3,1]",0.700294499,stimuli/card_10_transparent.png,10,1,0,1,0,1,,,,,,,,,,
,,,,60fe47b274576eb477b06e6d,A,2024-07-22_14h56.35.974,Slot Machine Game,2023.1.3,Win32,142.8571429,,,,,,,,,,,,,,,,,,,,,,,,,,,110,,,,,,,,,,,,,,,,,,,,,6,6,,,455.4974,2,right,0.6588,,0.5,0.3,"[2,3,1]",0.959396041,stimuli/card_100_transparent.png,100,2,0,2,0,1,,,,,,,,,,
,,,,60fe47b274576eb477b06e6d,A,2024-07-22_14h56.35.974,Slot Machine Game,2023.1.3,Win32,142.8571429,,,,,,,,,,,,,,,,,,,,,,,,,,,110,,,,,,,,,,,,,,,,,,,,,6,6,,,457.4558,3,right,0.2697,,1,0.3,"[2,3,1]",0.036033341,stimuli/card_0_transparent.png,0,3,0,3,0,1,,,,,,,,,,
,,,,60fe47b274576eb477b06e6d,A,2024-07-22_14h56.35.974,Slot Machine Game,2023.1.3,Win32,142.8571429,,,,,,,,,,,,,,,,,,,,,,,,,,,120,,,,,,,,,,,,,,,,,,,,,6,6,,,459.5324,4,right,0.1674,,1.5,0.3,"[1,3,2]",0.759123231,stimuli/card_10_transparent.png,10,4,0,4,0,1,,,,,,,,,,
,,,,60fe47b274576eb477b06e6d,A,2024-07-22_14h56.35.974,Slot Machine Game,2023.1.3,Win32,142.8571429,,,,,,,,,,,,,,,,,,,,,,,,,,,130,,,,,,,,,,,,,,,,,,,,,6,6,,,462.0184,5,right,0.1601,,0.5,0.3,"[1,3,2]",0.731468463,stimuli/card_10_transparent.png,10,5,0,5,0,1,,,,,,,,,,
,,,,60fe47b274576eb477b06e6d,A,2024-07-22_14h56.35.974,Slot Machine Game,2023.1.3,Win32,142.8571429,,,,,,,,,,,,,,,,,,,,,,,,,,,140,,,,,,,,,,,,,,,,,,,,,6,6,,,463.4908,6,right,0.2729,,1,0.3,"[1,3,2]",0.689927862,stimuli/card_10_transparent.png,10,6,0,6,0,1,,,,,,,,,,
,,,,60fe47b274576eb477b06e6d,A,2024-07-22_14h56.35.974,Slot Machine Game,2023.1.3,Win32,142.8571429,,,,,,,,,,,,,,,,,,,,,,,,,,,240,,,,,,,,,,,,,,,,,,,,,6,6,,,465.5811,7,up,0.2185,,0.5,0.3,"[1,3,2]",0.042332407,stimuli/card_100_transparent.png,100,7,0,7,0,1,,,,,,,,,,
,,,,60fe47b274576eb477b06e6d,A,2024-07-22_14h56.35.974,Slot Machine Game,2023.1.3,Win32,142.8571429,,,,,,,,,,,,,,,,,,,,,,,,,,,240,,,,,,,,,,,,,,,,,,,,,6,6,,,467.1158,8,up,0.1799,,1,0.3,"[1,3,2]",0.504858976,stimuli/card_0_transparent.png,0,8,0,8,0,1,,,,,,,,,,
,,,,60fe47b274576eb477b06e6d,A,2024-07-22_14h56.35.974,Slot Machine Game,2023.1.3,Win32,142.8571429,,,,,,,,,,,,,,,,,,,,,,,,,,,240,,,,,,,,,,,,,,,,,,,,,6,6,,,469.1089,9,up,0.0957,,0.5,0.3,"[1,3,2]",0.896261498,stimuli/card_0_transparent.png,0,9,0,9,0,1,,,,,,,,,,
,,,,60fe47b274576eb477b06e6d,A,2024-07-22_14h56.35.974,Slot Machine Game,2023.1.3,Win32,142.8571429,,,,,,,,,,,,,,,,,,,,,,,,,,,250,,,,,,,,,,,,,,,,,,,,,6,6,,,470.5118,10,up,0.249,,0.5,0.3,"[3,2,1]",0.777290364,stimuli/card_10_transparent.png,10,10,0,10,0,1,,,,,,,,,,
,,,,60fe47b274576eb477b06e6d,A,2024-07-22_14h56.35.974,Slot Machine Game,2023.1.3,Win32,142.8571429,,,,,,,,,,,,,,,,,,,,,,,,,,,350,,,,,,,,,,,,,,,,,,,,,6,6,,,472.0743,11,right,0.2124,,0.5,0.3,"[3,2,1]",0.746921331,stimuli/card_100_transparent.png,100,11,0,11,0,1,,,,,,,,,,
,,,,60fe47b274576eb477b06e6d,A,2024-07-22_14h56.35.974,Slot Machine Game,2023.1.3,Win32,142.8571429,,,,,,,,,,,,,,,,,,,,,,,,,,,450,,,,,,,,,,,,,,,,,,,,,6,6,,,473.6021,12,right,0.1807,,1.5,0.3,"[3,2,1]",0.801458549,stimuli/card_100_transparent.png,100,12,0,12,0,1,,,,,,,,,,
,,,,60fe47b274576eb477b06e6d,A,2024-07-22_14h56.35.974,Slot Machine Game,2023.1.3,Win32,142.8571429,,,,,,,,,,,,,,,,,,,,,,,,,,,550,,,,,,,,,,,,,,,,,,,,,6,6,,,476.0952,13,right,0.1364,,1,0.3,"[3,2,1]",0.590346666,stimuli/card_100_transparent.png,100,13,0,13,0,1,,,,,,,,,,
,,,,60fe47b274576eb477b06e6d,A,2024-07-22_14h56.35.974,Slot Machine Game,2023.1.3,Win32,142.8571429,,,,,,,,,,,,,,,,,,,,,,,,,,,650,,,,,,,,,,,,,,,,,,,,,6,6,,,478.0398,14,right,0.2058,,0.5,0.3,"[3,2,1]",0.649491809,stimuli/card_100_transparent.png,100,14,0,14,0,1,,,,,,,,,,
,,,,60fe47b274576eb477b06e6d,A,2024-07-22_14h56.35.974,Slot Machine Game,2023.1.3,Win32,142.8571429,,,,,,,,,,,,,,,,,,,,,,,,,,,,,,,,,,,479.5536,,,,,,,,,,,,,,,,,,,,,,,,,,,,,,,,,"[270,830,650,540,740,650]",5,0,5,0,1,,,,
,,,,60fe47b274576eb477b06e6d,A,2024-07-22_14h56.35.974,Slot Machine Game,2023.1.3,Win32,142.8571429,,,,,,,,,,,,,,,,,,,,,,,,,,,10,,,,,,,,,,,,,,,,,,,,,7,7,"[9,15]","[[1,3,2],[2,3,1]]",484.5598,0,right,0.1131,,1.5,0.3,"[1,3,2]",0.707150909,stimuli/card_10_transparent.png,10,0,0,0,0,1,,,,,,,,,,
,,,,60fe47b274576eb477b06e6d,A,2024-07-22_14h56.35.974,Slot Machine Game,2023.1.3,Win32,142.8571429,,,,,,,,,,,,,,,,,,,,,,,,,,,10,,,,,,,,,,,,,,,,,,,,,7,7,,,486.9844,1,up,0.3964,,1,0.3,"[1,3,2]",0.551982845,stimuli/card_0_transparent.png,0,1,0,1,0,1,,,,,,,,,,
,,,,60fe47b274576eb477b06e6d,A,2024-07-22_14h56.35.974,Slot Machine Game,2023.1.3,Win32,142.8571429,,,,,,,,,,,,,,,,,,,,,,,,,,,110,,,,,,,,,,,,,,,,,,,,,7,7,,,489.1998,2,left,0.0477,,1.5,0.3,"[1,3,2]",0.749555091,stimuli/card_100_transparent.png,100,2,0,2,0,1,,,,,,,,,,
,,,,60fe47b274576eb477b06e6d,A,2024-07-22_14h56.35.974,Slot Machine Game,2023.1.3,Win32,142.8571429,,,,,,,,,,,,,,,,,,,,,,,,,,,210,,,,,,,,,,,,,,,,,,,,,7,7,,,491.5471,3,left,0.117,,0.5,0.3,"[1,3,2]",0.734466576,stimuli/card_100_transparent.png,100,3,0,3,0,1,,,,,,,,,,
,,,,60fe47b274576eb477b06e6d,A,2024-07-22_14h56.35.974,Slot Machine Game,2023.1.3,Win32,142.8571429,,,,,,,,,,,,,,,,,,,,,,,,,,,310,,,,,,,,,,,,,,,,,,,,,7,7,,,492.9776,4,left,0.1691,,1,0.3,"[1,3,2]",0.469650184,stimuli/card_100_transparent.png,100,4,0,4,0,1,,,,,,,,,,
,,,,60fe47b274576eb477b06e6d,A,2024-07-22_14h56.35.974,Slot Machine Game,2023.1.3,Win32,142.8571429,,,,,,,,,,,,,,,,,,,,,,,,,,,410,,,,,,,,,,,,,,,,,,,,,7,7,,,494.9569,5,left,0.0002,,0.5,0.3,"[1,3,2]",0.370671396,stimuli/card_100_transparent.png,100,5,0,5,0,1,,,,,,,,,,
,,,,60fe47b274576eb477b06e6d,A,2024-07-22_14h56.35.974,Slot Machine Game,2023.1.3,Win32,142.8571429,,,,,,,,,,,,,,,,,,,,,,,,,,,510,,,,,,,,,,,,,,,,,,,,,7,7,,,496.2625,6,left,0.0001,,1,0.3,"[1,3,2]",0.772258612,stimuli/card_100_transparent.png,100,6,0,6,0,1,,,,,,,,,,
,,,,60fe47b274576eb477b06e6d,A,2024-07-22_14h56.35.974,Slot Machine Game,2023.1.3,Win32,142.8571429,,,,,,,,,,,,,,,,,,,,,,,,,,,610,,,,,,,,,,,,,,,,,,,,,7,7,,,498.0681,7,left,0.1044,,1,0.3,"[1,3,2]",0.715008687,stimuli/card_100_transparent.png,100,7,0,7,0,1,,,,,,,,,,
,,,,60fe47b274576eb477b06e6d,A,2024-07-22_14h56.35.974,Slot Machine Game,2023.1.3,Win32,142.8571429,,,,,,,,,,,,,,,,,,,,,,,,,,,710,,,,,,,,,,,,,,,,,,,,,7,7,,,499.9917,8,left,0.0092,,1.5,0.3,"[1,3,2]",0.857555926,stimuli/card_100_transparent.png,100,8,0,8,0,1,,,,,,,,,,
,,,,60fe47b274576eb477b06e6d,A,2024-07-22_14h56.35.974,Slot Machine Game,2023.1.3,Win32,142.8571429,,,,,,,,,,,,,,,,,,,,,,,,,,,720,,,,,,,,,,,,,,,,,,,,,7,7,,,502.3112,9,left,0.158,,1,0.3,"[2,3,1]",0.216863204,stimuli/card_10_transparent.png,10,9,0,9,0,1,,,,,,,,,,
,,,,60fe47b274576eb477b06e6d,A,2024-07-22_14h56.35.974,Slot Machine Game,2023.1.3,Win32,142.8571429,,,,,,,,,,,,,,,,,,,,,,,,,,,820,,,,,,,,,,,,,,,,,,,,,7,7,,,504.2766,10,right,0.2064,,1.5,0.3,"[2,3,1]",0.390522079,stimuli/card_100_transparent.png,100,10,0,10,0,1,,,,,,,,,,
,,,,60fe47b274576eb477b06e6d,A,2024-07-22_14h56.35.974,Slot Machine Game,2023.1.3,Win32,142.8571429,,,,,,,,,,,,,,,,,,,,,,,,,,,830,,,,,,,,,,,,,,,,,,,,,7,7,,,506.7974,11,right,0.3344,,1.5,0.3,"[2,3,1]",0.130944606,stimuli/card_10_transparent.png,10,11,0,11,0,1,,,,,,,,,,
,,,,60fe47b274576eb477b06e6d,A,2024-07-22_14h56.35.974,Slot Machine Game,2023.1.3,Win32,142.8571429,,,,,,,,,,,,,,,,,,,,,,,,,,,830,,,,,,,,,,,,,,,,,,,,,7,7,,,509.4433,12,up,0.1347,,0.5,0.3,"[2,3,1]",0.233044898,stimuli/card_0_transparent.png,0,12,0,12,0,1,,,,,,,,,,
,,,,60fe47b274576eb477b06e6d,A,2024-07-22_14h56.35.974,Slot Machine Game,2023.1.3,Win32,142.8571429,,,,,,,,,,,,,,,,,,,,,,,,,,,840,,,,,,,,,,,,,,,,,,,,,7,7,,,510.8879,13,left,0.0482,,0.5,0.3,"[2,3,1]",0.86490856,stimuli/card_10_transparent.png,10,13,0,13,0,1,,,,,,,,,,
,,,,60fe47b274576eb477b06e6d,A,2024-07-22_14h56.35.974,Slot Machine Game,2023.1.3,Win32,142.8571429,,,,,,,,,,,,,,,,,,,,,,,,,,,840,,,,,,,,,,,,,,,,,,,,,7,7,,,512.249,14,right,0.11,,1.5,0.3,"[2,3,1]",0.05355682,stimuli/card_0_transparent.png,0,14,0,14,0,1,,,,,,,,,,
,,,,60fe47b274576eb477b06e6d,A,2024-07-22_14h56.35.974,Slot Machine Game,2023.1.3,Win32,142.8571429,,,,,,,,,,,,,,,,,,,,,,,,,,,,,,,,,,,514.6657,,,,,,,,,,,,,,,,,,,,,,,,,,,,,,,,,"[270,830,650,540,740,650,840]",6,0,6,0,1,,,,
,,,,60fe47b274576eb477b06e6d,A,2024-07-22_14h56.35.974,Slot Machine Game,2023.1.3,Win32,142.8571429,,,,,,,,,,,,,,,,,,,,,,,,,,,0,,,,,,,,,,,,,,,,,,,,,8,8,"[11,15]","[[2,1,3],[1,2,3]]",519.6714,0,right,0.1195,,1,0.3,"[2,1,3]",0.528576352,stimuli/card_0_transparent.png,0,0,0,0,0,1,,,,,,,,,,
,,,,60fe47b274576eb477b06e6d,A,2024-07-22_14h56.35.974,Slot Machine Game,2023.1.3,Win32,142.8571429,,,,,,,,,,,,,,,,,,,,,,,,,,,100,,,,,,,,,,,,,,,,,,,,,8,8,,,521.6034,1,up,0.0197,,0.5,0.3,"[2,1,3]",0.967329895,stimuli/card_100_transparent.png,100,1,0,1,0,1,,,,,,,,,,
,,,,60fe47b274576eb477b06e6d,A,2024-07-22_14h56.35.974,Slot Machine Game,2023.1.3,Win32,142.8571429,,,,,,,,,,,,,,,,,,,,,,,,,,,110,,,,,,,,,,,,,,,,,,,,,8,8,,,522.9368,2,up,0.1987,,1.5,0.3,"[2,1,3]",0.181155944,stimuli/card_10_transparent.png,10,2,0,2,0,1,,,,,,,,,,
,,,,60fe47b274576eb477b06e6d,A,2024-07-22_14h56.35.974,Slot Machine Game,2023.1.3,Win32,142.8571429,,,,,,,,,,,,,,,,,,,,,,,,,,,210,,,,,,,,,,,,,,,,,,,,,8,8,,,525.4368,3,up,0.1887,,0.5,0.3,"[2,1,3]",0.869890415,stimuli/card_100_transparent.png,100,3,0,3,0,1,,,,,,,,,,
,,,,60fe47b274576eb477b06e6d,A,2024-07-22_14h56.35.974,Slot Machine Game,2023.1.3,Win32,142.8571429,,,,,,,,,,,,,,,,,,,,,,,,,,,310,,,,,,,,,,,,,,,,,,,,,8,8,,,526.9369,4,up,0.2964,,1,0.3,"[2,1,3]",0.611958412,stimuli/card_100_transparent.png,100,4,0,4,0,1,,,,,,,,,,
,,,,60fe47b274576eb477b06e6d,A,2024-07-22_14h56.35.974,Slot Machine Game,2023.1.3,Win32,142.8571429,,,,,,,,,,,,,,,,,,,,,,,,,,,410,,,,,,,,,,,,,,,,,,,,,8,8,,,529.0481,5,up,0.0774,,1,0.3,"[2,1,3]",0.935506944,stimuli/card_100_transparent.png,100,5,0,5,0,1,,,,,,,,,,
,,,,60fe47b274576eb477b06e6d,A,2024-07-22_14h56.35.974,Slot Machine Game,2023.1.3,Win32,142.8571429,,,,,,,,,,,,,,,,,,,,,,,,,,,510,,,,,,,,,,,,,,,,,,,,,8,8,,,530.944,6,up,0.2094,,1.5,0.3,"[2,1,3]",0.581899357,stimuli/card_100_transparent.png,100,6,0,6,0,1,,,,,,,,,,
,,,,60fe47b274576eb477b06e6d,A,2024-07-22_14h56.35.974,Slot Machine Game,2023.1.3,Win32,142.8571429,,,,,,,,,,,,,,,,,,,,,,,,,,,610,,,,,,,,,,,,,,,,,,,,,8,8,,,533.4718,7,up,0.1015,,1,0.3,"[2,1,3]",0.851179131,stimuli/card_100_transparent.png,100,7,0,7,0,1,,,,,,,,,,
,,,,60fe47b274576eb477b06e6d,A,2024-07-22_14h56.35.974,Slot Machine Game,2023.1.3,Win32,142.8571429,,,,,,,,,,,,,,,,,,,,,,,,,,,710,,,,,,,,,,,,,,,,,,,,,8,8,,,535.3885,8,up,0.0546,,0.5,0.3,"[2,1,3]",0.976505162,stimuli/card_100_transparent.png,100,8,0,8,0,1,,,,,,,,,,
,,,,60fe47b274576eb477b06e6d,A,2024-07-22_14h56.35.974,Slot Machine Game,2023.1.3,Win32,142.8571429,,,,,,,,,,,,,,,,,,,,,,,,,,,720,,,,,,,,,,,,,,,,,,,,,8,8,,,536.7496,9,up,0.2468,,1.5,0.3,"[2,1,3]",0.105353971,stimuli/card_10_transparent.png,10,9,0,9,0,1,,,,,,,,,,
,,,,60fe47b274576eb477b06e6d,A,2024-07-22_14h56.35.974,Slot Machine Game,2023.1.3,Win32,142.8571429,,,,,,,,,,,,,,,,,,,,,,,,,,,820,,,,,,,,,,,,,,,,,,,,,8,8,,,539.3122,10,up,0.103,,1,0.3,"[2,1,3]",0.363582715,stimuli/card_100_transparent.png,100,10,0,10,0,1,,,,,,,,,,
,,,,60fe47b274576eb477b06e6d,A,2024-07-22_14h56.35.974,Slot Machine Game,2023.1.3,Win32,142.8571429,,,,,,,,,,,,,,,,,,,,,,,,,,,830,,,,,,,,,,,,,,,,,,,,,8,8,,,541.2289,11,up,0.0393,,1.5,0.3,"[1,2,3]",0.43400389,stimuli/card_10_transparent.png,10,11,0,11,0,1,,,,,,,,,,
,,,,60fe47b274576eb477b06e6d,A,2024-07-22_14h56.35.974,Slot Machine Game,2023.1.3,Win32,142.8571429,,,,,,,,,,,,,,,,,,,,,,,,,,,840,,,,,,,,,,,,,,,,,,,,,8,8,,,543.5768,12,up,0.178,,0.5,0.3,"[1,2,3]",0.507337408,stimuli/card_10_transparent.png,10,12,0,12,0,1,,,,,,,,,,
,,,,60fe47b274576eb477b06e6d,A,2024-07-22_14h56.35.974,Slot Machine Game,2023.1.3,Win32,142.8571429,,,,,,,,,,,,,,,,,,,,,,,,,,,850,,,,,,,,,,,,,,,,,,,,,8,8,,,545.0693,13,up,0.0188,,1,0.3,"[1,2,3]",0.628521245,stimuli/card_10_transparent.png,10,13,0,13,0,1,,,,,,,,,,
,,,,60fe47b274576eb477b06e6d,A,2024-07-22_14h56.35.974,Slot Machine Game,2023.1.3,Win32,142.8571429,,,,,,,,,,,,,,,,,,,,,,,,,,,850,,,,,,,,,,,,,,,,,,,,,8,8,,,546.8888,14,right,0.1565,,1,0.3,"[1,2,3]",0.359672743,stimuli/card_0_transparent.png,0,14,0,14,0,1,,,,,,,,,,
,,,,60fe47b274576eb477b06e6d,A,2024-07-22_14h56.35.974,Slot Machine Game,2023.1.3,Win32,142.8571429,,,,,,,,,,,,,,,,,,,,,,,,,,,,,,,,,,,548.8611,,,,,,,,,,,,,,,,,,,,,,,,,,,,,,,,,"[270,830,650,540,740,650,840,850]",7,0,7,0,1,,,,
,,,,60fe47b274576eb477b06e6d,A,2024-07-22_14h56.35.974,Slot Machine Game,2023.1.3,Win32,142.8571429,,,,,,,,,,,,,,,,,,,,,,,,,,,100,,,,,,,,,,,,,,,,,,,,,9,9,"[8,15]","[[3,2,1],[3,1,2]]",553.867,0,right,0.9041,,1,0.3,"[3,2,1]",0.489355359,stimuli/card_100_transparent.png,100,0,0,0,0,1,,,,,,,,,,
,,,,60fe47b274576eb477b06e6d,A,2024-07-22_14h56.35.974,Slot Machine Game,2023.1.3,Win32,142.8571429,,,,,,,,,,,,,,,,,,,,,,,,,,,100,,,,,,,,,,,,,,,,,,,,,9,9,,,556.5835,1,right,0.2729,,0.5,0.3,"[3,2,1]",0.071862988,stimuli/card_0_transparent.png,0,1,0,1,0,1,,,,,,,,,,
,,,,60fe47b274576eb477b06e6d,A,2024-07-22_14h56.35.974,Slot Machine Game,2023.1.3,Win32,142.8571429,,,,,,,,,,,,,,,,,,,,,,,,,,,110,,,,,,,,,,,,,,,,,,,,,9,9,,,558.1668,2,right,0.0945,,1,0.3,"[3,2,1]",0.147675797,stimuli/card_10_transparent.png,10,2,0,2,0,1,,,,,,,,,,
,,,,60fe47b274576eb477b06e6d,A,2024-07-22_14h56.35.974,Slot Machine Game,2023.1.3,Win32,142.8571429,,,,,,,,,,,,,,,,,,,,,,,,,,,210,,,,,,,,,,,,,,,,,,,,,9,9,,,560.0697,3,right,0.1027,,0.5,0.3,"[3,2,1]",0.692160809,stimuli/card_100_transparent.png,100,3,0,3,0,1,,,,,,,,,,
,,,,60fe47b274576eb477b06e6d,A,2024-07-22_14h56.35.974,Slot Machine Game,2023.1.3,Win32,142.8571429,,,,,,,,,,,,,,,,,,,,,,,,,,,310,,,,,,,,,,,,,,,,,,,,,9,9,,,561.4864,4,right,0.1681,,0.5,0.3,"[3,2,1]",0.599319865,stimuli/card_100_transparent.png,100,4,0,4,0,1,,,,,,,,,,
,,,,60fe47b274576eb477b06e6d,A,2024-07-22_14h56.35.974,Slot Machine Game,2023.1.3,Win32,142.8571429,,,,,,,,,,,,,,,,,,,,,,,,,,,410,,,,,,,,,,,,,,,,,,,,,9,9,,,562.9656,5,right,0.0769,,1.5,0.3,"[3,2,1]",0.906999193,stimuli/card_100_transparent.png,100,5,0,5,0,1,,,,,,,,,,
,,,,60fe47b274576eb477b06e6d,A,2024-07-22_14h56.35.974,Slot Machine Game,2023.1.3,Win32,142.8571429,,,,,,,,,,,,,,,,,,,,,,,,,,,510,,,,,,,,,,,,,,,,,,,,,9,9,,,565.3545,6,right,0.2089,,1,0.3,"[3,2,1]",0.261082194,stimuli/card_100_transparent.png,100,6,0,6,0,1,,,,,,,,,,
,,,,60fe47b274576eb477b06e6d,A,2024-07-22_14h56.35.974,Slot Machine Game,2023.1.3,Win32,142.8571429,,,,,,,,,,,,,,,,,,,,,,,,,,,610,,,,,,,,,,,,,,,,,,,,,9,9,,,567.3754,7,right,0.1211,,0.5,0.3,"[3,2,1]",0.625965092,stimuli/card_100_transparent.png,100,7,0,7,0,1,,,,,,,,,,
,,,,60fe47b274576eb477b06e6d,A,2024-07-22_14h56.35.974,Slot Machine Game,2023.1.3,Win32,142.8571429,,,,,,,,,,,,,,,,,,,,,,,,,,,620,,,,,,,,,,,,,,,,,,,,,9,9,,,568.7991,8,right,0.0984,,0.5,0.3,"[3,1,2]",0.704080472,stimuli/card_10_transparent.png,10,8,0,8,0,1,,,,,,,,,,
,,,,60fe47b274576eb477b06e6d,A,2024-07-22_14h56.35.974,Slot Machine Game,2023.1.3,Win32,142.8571429,,,,,,,,,,,,,,,,,,,,,,,,,,,620,,,,,,,,,,,,,,,,,,,,,9,9,,,570.2158,9,right,0.1357,,1,0.3,"[3,1,2]",0.042795753,stimuli/card_0_transparent.png,0,9,0,9,0,1,,,,,,,,,,
,,,,60fe47b274576eb477b06e6d,A,2024-07-22_14h56.35.974,Slot Machine Game,2023.1.3,Win32,142.8571429,,,,,,,,,,,,,,,,,,,,,,,,,,,630,,,,,,,,,,,,,,,,,,,,,9,9,,,572.1603,10,right,0.185,,0.5,0.3,"[3,1,2]",0.811510079,stimuli/card_10_transparent.png,10,10,0,10,0,1,,,,,,,,,,
,,,,60fe47b274576eb477b06e6d,A,2024-07-22_14h56.35.974,Slot Machine Game,2023.1.3,Win32,142.8571429,,,,,,,,,,,,,,,,,,,,,,,,,,,640,,,,,,,,,,,,,,,,,,,,,9,9,,,573.6534,11,up,0.0311,,0.5,0.3,"[3,1,2]",0.11985027,stimuli/card_10_transparent.png,10,11,0,11,0,1,,,,,,,,,,
,,,,60fe47b274576eb477b06e6d,A,2024-07-22_14h56.35.974,Slot Machine Game,2023.1.3,Win32,142.8571429,,,,,,,,,,,,,,,,,,,,,,,,,,,640,,,,,,,,,,,,,,,,,,,,,9,9,,,574.9937,12,left,0.0827,,0.5,0.3,"[3,1,2]",0.950365404,stimuli/card_0_transparent.png,0,12,0,12,0,1,,,,,,,,,,
,,,,60fe47b274576eb477b06e6d,A,2024-07-22_14h56.35.974,Slot Machine Game,2023.1.3,Win32,142.8571429,,,,,,,,,,,,,,,,,,,,,,,,,,,650,,,,,,,,,,,,,,,,,,,,,9,9,,,576.3827,13,up,0.1339,,1,0.3,"[3,1,2]",0.195531211,stimuli/card_10_transparent.png,10,13,0,13,0,1,,,,,,,,,,
,,,,60fe47b274576eb477b06e6d,A,2024-07-22_14h56.35.974,Slot Machine Game,2023.1.3,Win32,142.8571429,,,,,,,,,,,,,,,,,,,,,,,,,,,660,,,,,,,,,,,,,,,,,,,,,9,9,,,578.3341,14,right,0.1575,,1.5,0.3,"[3,1,2]",0.238006797,stimuli/card_10_transparent.png,10,14,0,14,0,1,,,,,,,,,,
,,,,60fe47b274576eb477b06e6d,A,2024-07-22_14h56.35.974,Slot Machine Game,2023.1.3,Win32,142.8571429,,,,,,,,,,,,,,,,,,,,,,,,,,,,,,,,,,,580.8064,,,,,,,,,,,,,,,,,,,,,,,,,,,,,,,,,"[270,830,650,540,740,650,840,850,660]",8,0,8,0,1,,,,
,,,,60fe47b274576eb477b06e6d,A,2024-07-22_14h56.35.974,Slot Machine Game,2023.1.3,Win32,142.8571429,,,,,,,,,,,,,,,,,,,,,,,,,,,10,,,,,,,,,,,,,,,,,,,,,10,10,"[10,15]","[[3,1,2],[1,3,2]]",585.8123,0,right,0.031,,1.5,0.3,"[3,1,2]",0.32349655,stimuli/card_10_transparent.png,10,0,0,0,0,1,,,,,,,,,,
,,,,60fe47b274576eb477b06e6d,A,2024-07-22_14h56.35.974,Slot Machine Game,2023.1.3,Win32,142.8571429,,,,,,,,,,,,,,,,,,,,,,,,,,,10,,,,,,,,,,,,,,,,,,,,,10,10,,,588.1538,1,left,0.2178,,0.5,0.3,"[3,1,2]",0.668136711,stimuli/card_0_transparent.png,0,1,0,1,0,1,,,,,,,,,,
,,,,60fe47b274576eb477b06e6d,A,2024-07-22_14h56.35.974,Slot Machine Game,2023.1.3,Win32,142.8571429,,,,,,,,,,,,,,,,,,,,,,,,,,,110,,,,,,,,,,,,,,,,,,,,,10,10,,,589.6885,2,up,0.0783,,1,0.3,"[3,1,2]",0.714011621,stimuli/card_100_transparent.png,100,2,0,2,0,1,,,,,,,,,,
,,,,60fe47b274576eb477b06e6d,A,2024-07-22_14h56.35.974,Slot Machine Game,2023.1.3,Win32,142.8571429,,,,,,,,,,,,,,,,,,,,,,,,,,,210,,,,,,,,,,,,,,,,,,,,,10,10,,,591.5775,3,up,0.1202,,0.5,0.3,"[3,1,2]",0.319423773,stimuli/card_100_transparent.png,100,3,0,3,0,1,,,,,,,,,,
,,,,60fe47b274576eb477b06e6d,A,2024-07-22_14h56.35.974,Slot Machine Game,2023.1.3,Win32,142.8571429,,,,,,,,,,,,,,,,,,,,,,,,,,,310,,,,,,,,,,,,,,,,,,,,,10,10,,,593.0156,4,up,0.2136,,1.5,0.3,"[3,1,2]",0.970383464,stimuli/card_100_transparent.png,100,4,0,4,0,1,,,,,,,,,,
,,,,60fe47b274576eb477b06e6d,A,2024-07-22_14h56.35.974,Slot Machine Game,2023.1.3,Win32,142.8571429,,,,,,,,,,,,,,,,,,,,,,,,,,,410,,,,,,,,,,,,,,,,,,,,,10,10,,,595.5429,5,up,0.067,,1,0.3,"[3,1,2]",0.630318996,stimuli/card_100_transparent.png,100,5,0,5,0,1,,,,,,,,,,
,,,,60fe47b274576eb477b06e6d,A,2024-07-22_14h56.35.974,Slot Machine Game,2023.1.3,Win32,142.8571429,,,,,,,,,,,,,,,,,,,,,,,,,,,510,,,,,,,,,,,,,,,,,,,,,10,10,,,597.4249,6,up,0.7979,,0.5,0.3,"[3,1,2]",0.738054634,stimuli/card_100_transparent.png,100,6,0,6,0,1,,,,,,,,,,
,,,,60fe47b274576eb477b06e6d,A,2024-07-22_14h56.35.974,Slot Machine Game,2023.1.3,Win32,142.8571429,,,,,,,,,,,,,,,,,,,,,,,,,,,610,,,,,,,,,,,,,,,,,,,,,10,10,,,599.5221,7,up,0.1182,,1,0.3,"[3,1,2]",0.366205145,stimuli/card_100_transparent.png,100,7,0,7,0,1,,,,,,,,,,
,,,,60fe47b274576eb477b06e6d,A,2024-07-22_14h56.35.974,Slot Machine Game,2023.1.3,Win32,142.8571429,,,,,,,,,,,,,,,,,,,,,,,,,,,710,,,,,,,,,,,,,,,,,,,,,10,10,,,601.4459,8,up,0.145,,1,0.3,"[3,1,2]",0.775671572,stimuli/card_100_transparent.png,100,8,0,8,0,1,,,,,,,,,,
,,,,60fe47b274576eb477b06e6d,A,2024-07-22_14h56.35.974,Slot Machine Game,2023.1.3,Win32,142.8571429,,,,,,,,,,,,,,,,,,,,,,,,,,,810,,,,,,,,,,,,,,,,,,,,,10,10,,,603.4042,9,up,0.0826,,1,0.3,"[3,1,2]",0.896103681,stimuli/card_100_transparent.png,100,9,0,9,0,1,,,,,,,,,,
,,,,60fe47b274576eb477b06e6d,A,2024-07-22_14h56.35.974,Slot Machine Game,2023.1.3,Win32,142.8571429,,,,,,,,,,,,,,,,,,,,,,,,,,,810,,,,,,,,,,,,,,,,,,,,,10,10,,,605.2931,10,up,0.1204,,1,0.3,"[1,3,2]",0.774935449,stimuli/card_0_transparent.png,0,10,0,10,0,1,,,,,,,,,,
,,,,60fe47b274576eb477b06e6d,A,2024-07-22_14h56.35.974,Slot Machine Game,2023.1.3,Win32,142.8571429,,,,,,,,,,,,,,,,,,,,,,,,,,,810,,,,,,,,,,,,,,,,,,,,,10,10,,,607.2168,11,up,0.1308,,1,0.3,"[1,3,2]",0.925708704,stimuli/card_0_transparent.png,0,11,0,11,0,1,,,,,,,,,,
,,,,60fe47b274576eb477b06e6d,A,2024-07-22_14h56.35.974,Slot Machine Game,2023.1.3,Win32,142.8571429,,,,,,,,,,,,,,,,,,,,,,,,,,,810,,,,,,,,,,,,,,,,,,,,,10,10,,,609.1544,12,up,0.0166,,0.5,0.3,"[1,3,2]",0.779672554,stimuli/card_0_transparent.png,0,12,0,12,0,1,,,,,,,,,,
,,,,60fe47b274576eb477b06e6d,A,2024-07-22_14h56.35.974,Slot Machine Game,2023.1.3,Win32,142.8571429,,,,,,,,,,,,,,,,,,,,,,,,,,,810,,,,,,,,,,,,,,,,,,,,,10,10,,,610.4877,13,up,0.1699,,1.5,0.3,"[1,3,2]",0.260996865,stimuli/card_0_transparent.png,0,13,0,13,0,1,,,,,,,,,,
,,,,60fe47b274576eb477b06e6d,A,2024-07-22_14h56.35.974,Slot Machine Game,2023.1.3,Win32,142.8571429,,,,,,,,,,,,,,,,,,,,,,,,,,,810,,,,,,,,,,,,,,,,,,,,,10,10,,,612.9669,14,up,0.1652,,1.5,0.3,"[1,3,2]",0.541854745,stimuli/card_0_transparent.png,0,14,0,14,0,1,,,,,,,,,,
,,,,60fe47b274576eb477b06e6d,A,2024-07-22_14h56.35.974,Slot Machine Game,2023.1.3,Win32,142.8571429,,,,,,,,,,,,,,,,,,,,,,,,,,,,,,,,,,,615.4323,,,,,,,,,,,,,,,,,,,,,,,,,,,,,,,,,"[270,830,650,540,740,650,840,850,660,810]",9,0,9,0,1,,,,
,,,,60fe47b274576eb477b06e6d,A,2024-07-22_14h56.35.974,Slot Machine Game,2023.1.3,Win32,142.8571429,,,,,,,,,,,,,,,,,,,,,,,,,,,,,,,,,,,,,,,,,,,,,,,,,,,,,,,,,,,,,,,,,,,,,,,,,,9,"[270,830,650,540,740,650,840,850,660,810]",8.3,2024-07-22_15h07.00.455
