key_resp_welcome_started,key_resp_welcome_keys,key_resp_welcome_rt,key_resp_welcome_duration,prolific_id,path_id,date,expName,psychopyVersion,OS,frameRate,key_resp_instruction1_started,key_resp_instruction1_keys,key_resp_instruction1_rt,key_resp_instruction1_duration,key_resp_instruction2_started,key_resp_instruction2_keys,key_resp_instruction2_rt,key_resp_instruction2_duration,key_resp_instruction3_started,key_resp_instruction3_keys,key_resp_instruction3_rt,key_resp_instruction3_duration,key_resp_instruction4_started,key_resp_instruction4_keys,key_resp_instruction4_rt,key_resp_instruction4_duration,practiceCondition,practice_reward_seqs,practice_trial_started,practice_trial_num,practice_resp_rt,practice_resp_duration,practice_resp_keys,prac_presentationInterval,"practice_reward_seq: 2,1,3",reward_img,cumulative_reward,trial_reward,practice_trials.thisRepN,practice_trials.thisTrialN,practice_trials.thisN,practice_trials.thisIndex,practice_trials.ran,"practice_reward_seq: 2,3,1",block_break_started,"practice_reward_seq: 1,3,2","practice_reward_seq: 3,1,2",practice_end_time,practice_end_keys,practice_end_rt,practice_end_duration,main_instruction_text_started,block_condition,block_order_indices,main_instruction_keys,main_instruction_rt,main_instruction_duration,block_number,block_assignment,current_condition,main_reward_seqs,main_trial_started,main_trial_num,main_trial_keys,main_trial_rt,main_trial_duration,main_presentationInterval,reward_presentation_time,main_reward_seq,reward_rand_val,main_reward_img,current_reward,main_trials.thisRepN,main_trials.thisTrialN,main_trials.thisN,main_trials.thisIndex,main_trials.ran,block_reward,block.thisRepN,block.thisTrialN,block.thisN,block.thisIndex,block.ran,block_reward.length,block_reward_all,reward_amount,date_end_task
0.0005,space,1.521,,6101dd552c4f666180515e70,A,2024-07-05_12h08.40.486,Slot Machine Game,2023.1.3,MacIntel,59.88023952,,,,,,,,,,,,,,,,,,,,,,,,,,,,,,,,,,,,,,,,,,,,,,,,,,,,,,,,,,,,,,,,,,,,,,,,,,,,,
,,,,6101dd552c4f666180515e70,A,2024-07-05_12h08.40.486,Slot Machine Game,2023.1.3,MacIntel,59.88023952,1.5429,space,5.6994,,,,,,,,,,,,,,,,,,,,,,,,,,,,,,,,,,,,,,,,,,,,,,,,,,,,,,,,,,,,,,,,,,,,,,,,,,
,,,,6101dd552c4f666180515e70,A,2024-07-05_12h08.40.486,Slot Machine Game,2023.1.3,MacIntel,59.88023952,,,,,7.2595,space,23.1138,,,,,,,,,,,,,,,,,,,,,,,,,,,,,,,,,,,,,,,,,,,,,,,,,,,,,,,,,,,,,,,,,,,,,,
,,,,6101dd552c4f666180515e70,A,2024-07-05_12h08.40.486,Slot Machine Game,2023.1.3,MacIntel,59.88023952,,,,,,,,,30.41,space,6.0711,,,,,,,,,,,,,,,,,,,,,,,,,,,,,,,,,,,,,,,,,,,,,,,,,,,,,,,,,,,,,,,,,,
,,,,6101dd552c4f666180515e70,A,2024-07-05_12h08.40.486,Slot Machine Game,2023.1.3,MacIntel,59.88023952,,,,,,,,,,,,,,,,,,,,,,,,,,,,,,,,,,,,,,,,,,,,,,,,,,,,,,,,,,,,,,,,,,,,,,,,,,,,,
,,,,6101dd552c4f666180515e70,A,2024-07-05_12h08.40.486,Slot Machine Game,2023.1.3,MacIntel,59.88023952,,,,,,,,,,,,,178.2088,right,13.6075,,,,,,,,,,,,,,,,,,,,,,,,,,,,,,,,,,,,,,,,,,,,,,,,,,,,,,,,,,,,,,
,,,,6101dd552c4f666180515e70,A,2024-07-05_12h08.40.486,Slot Machine Game,2023.1.3,MacIntel,59.88023952,,,,,,,,,,,,,,,,,"[9,15]","[[2,1,3],[2,3,1]]",191.8539,0,1.5269,,left,0.5,,stimuli/card_0_transparent.png,0,0,0,0,0,0,1,,,,,,,,,,,,,,,,,,,,,,,,,,,,,,,,,,,,,,,,,,,,
,,,,6101dd552c4f666180515e70,A,2024-07-05_12h08.40.486,Slot Machine Game,2023.1.3,MacIntel,59.88023952,,,,,,,,,,,,,,,,,,,194.6909,1,0.0086,,left,1,,stimuli/card_10_transparent.png,10,10,1,0,1,0,1,,,,,,,,,,,,,,,,,,,,,,,,,,,,,,,,,,,,,,,,,,,,
,,,,6101dd552c4f666180515e70,A,2024-07-05_12h08.40.486,Slot Machine Game,2023.1.3,MacIntel,59.88023952,,,,,,,,,,,,,,,,,,,196.5236,2,0.755,,up,0.5,,stimuli/card_100_transparent.png,110,100,2,0,2,0,1,,,,,,,,,,,,,,,,,,,,,,,,,,,,,,,,,,,,,,,,,,,,
,,,,6101dd552c4f666180515e70,A,2024-07-05_12h08.40.486,Slot Machine Game,2023.1.3,MacIntel,59.88023952,,,,,,,,,,,,,,,,,,,198.6068,3,1.0507,,up,1,,stimuli/card_100_transparent.png,210,100,3,0,3,0,1,,,,,,,,,,,,,,,,,,,,,,,,,,,,,,,,,,,,,,,,,,,,
,,,,6101dd552c4f666180515e70,A,2024-07-05_12h08.40.486,Slot Machine Game,2023.1.3,MacIntel,59.88023952,,,,,,,,,,,,,,,,,,,201.4903,4,0.1826,,up,0.5,,stimuli/card_100_transparent.png,310,100,4,0,4,0,1,,,,,,,,,,,,,,,,,,,,,,,,,,,,,,,,,,,,,,,,,,,,
,,,,6101dd552c4f666180515e70,A,2024-07-05_12h08.40.486,Slot Machine Game,2023.1.3,MacIntel,59.88023952,,,,,,,,,,,,,,,,,,,203.0069,5,0.0167,,up,0.5,,stimuli/card_0_transparent.png,310,0,5,0,5,0,1,,,,,,,,,,,,,,,,,,,,,,,,,,,,,,,,,,,,,,,,,,,,
,,,,6101dd552c4f666180515e70,A,2024-07-05_12h08.40.486,Slot Machine Game,2023.1.3,MacIntel,59.88023952,,,,,,,,,,,,,,,,,,,204.3569,6,0.0003,,up,0.5,,stimuli/card_100_transparent.png,410,100,6,0,6,0,1,,,,,,,,,,,,,,,,,,,,,,,,,,,,,,,,,,,,,,,,,,,,
,,,,6101dd552c4f666180515e70,A,2024-07-05_12h08.40.486,Slot Machine Game,2023.1.3,MacIntel,59.88023952,,,,,,,,,,,,,,,,,,,205.6902,7,0.033,,up,1,,stimuli/card_100_transparent.png,510,100,7,0,7,0,1,,,,,,,,,,,,,,,,,,,,,,,,,,,,,,,,,,,,,,,,,,,,
,,,,6101dd552c4f666180515e70,A,2024-07-05_12h08.40.486,Slot Machine Game,2023.1.3,MacIntel,59.88023952,,,,,,,,,,,,,,,,,,,207.5568,8,0.0889,,up,1,,stimuli/card_100_transparent.png,610,100,8,0,8,0,1,,,,,,,,,,,,,,,,,,,,,,,,,,,,,,,,,,,,,,,,,,,,
,,,,6101dd552c4f666180515e70,A,2024-07-05_12h08.40.486,Slot Machine Game,2023.1.3,MacIntel,59.88023952,,,,,,,,,,,,,,,,,,,209.4736,9,0.1191,,up,0.5,,stimuli/card_0_transparent.png,610,0,9,0,9,0,1,,,,,,,,,,,,,,,,,,,,,,,,,,,,,,,,,,,,,,,,,,,,
,,,,6101dd552c4f666180515e70,A,2024-07-05_12h08.40.486,Slot Machine Game,2023.1.3,MacIntel,59.88023952,,,,,,,,,,,,,,,,,,,210.9236,10,0.1364,,up,0.5,,stimuli/card_0_transparent.png,610,0,10,0,10,0,1,,,,,,,,,,,,,,,,,,,,,,,,,,,,,,,,,,,,,,,,,,,,
,,,,6101dd552c4f666180515e70,A,2024-07-05_12h08.40.486,Slot Machine Game,2023.1.3,MacIntel,59.88023952,,,,,,,,,,,,,,,,,,,212.3901,11,0.0662,,right,1,,stimuli/card_100_transparent.png,710,100,11,0,11,0,1,,,,,,,,,,,,,,,,,,,,,,,,,,,,,,,,,,,,,,,,,,,,
,,,,6101dd552c4f666180515e70,A,2024-07-05_12h08.40.486,Slot Machine Game,2023.1.3,MacIntel,59.88023952,,,,,,,,,,,,,,,,,,,214.2901,12,0.1835,,right,1.5,,stimuli/card_0_transparent.png,710,0,12,0,12,0,1,,,,,,,,,,,,,,,,,,,,,,,,,,,,,,,,,,,,,,,,,,,,
,,,,6101dd552c4f666180515e70,A,2024-07-05_12h08.40.486,Slot Machine Game,2023.1.3,MacIntel,59.88023952,,,,,,,,,,,,,,,,,,,216.8067,13,0.0443,,right,1,,stimuli/card_100_transparent.png,810,100,13,0,13,0,1,,,,,,,,,,,,,,,,,,,,,,,,,,,,,,,,,,,,,,,,,,,,
,,,,6101dd552c4f666180515e70,A,2024-07-05_12h08.40.486,Slot Machine Game,2023.1.3,MacIntel,59.88023952,,,,,,,,,,,,,,,,,,,218.6733,14,0.0821,,right,1.5,,stimuli/card_100_transparent.png,910,100,14,0,14,0,1,,,,,,,,,,,,,,,,,,,,,,,,,,,,,,,,,,,,,,,,,,,,
,,,,6101dd552c4f666180515e70,A,2024-07-05_12h08.40.486,Slot Machine Game,2023.1.3,MacIntel,59.88023952,,,,,,,,,,,,,,,,,"[6,15]","[[1,3,2],[3,1,2]]",226.1211,0,0.5171,,left,1.5,,stimuli/card_100_transparent.png,100,100,0,0,0,0,1,,221.104,,,,,,,,,,,,,,,,,,,,,,,,,,,,,,,,,,,,,,,,,,
,,,,6101dd552c4f666180515e70,A,2024-07-05_12h08.40.486,Slot Machine Game,2023.1.3,MacIntel,59.88023952,,,,,,,,,,,,,,,,,,,228.9565,1,0.0833,,left,1.5,,stimuli/card_0_transparent.png,100,0,1,0,1,0,1,,,,,,,,,,,,,,,,,,,,,,,,,,,,,,,,,,,,,,,,,,,,
,,,,6101dd552c4f666180515e70,A,2024-07-05_12h08.40.486,Slot Machine Game,2023.1.3,MacIntel,59.88023952,,,,,,,,,,,,,,,,,,,231.3731,2,0.9662,,left,0.5,,stimuli/card_100_transparent.png,200,100,2,0,2,0,1,,,,,,,,,,,,,,,,,,,,,,,,,,,,,,,,,,,,,,,,,,,,
,,,,6101dd552c4f666180515e70,A,2024-07-05_12h08.40.486,Slot Machine Game,2023.1.3,MacIntel,59.88023952,,,,,,,,,,,,,,,,,,,233.6732,3,0.1874,,left,1.5,,stimuli/card_100_transparent.png,300,100,3,0,3,0,1,,,,,,,,,,,,,,,,,,,,,,,,,,,,,,,,,,,,,,,,,,,,
,,,,6101dd552c4f666180515e70,A,2024-07-05_12h08.40.486,Slot Machine Game,2023.1.3,MacIntel,59.88023952,,,,,,,,,,,,,,,,,,,236.1898,4,0.2176,,left,1,,stimuli/card_100_transparent.png,400,100,4,0,4,0,1,,,,,,,,,,,,,,,,,,,,,,,,,,,,,,,,,,,,,,,,,,,,
,,,,6101dd552c4f666180515e70,A,2024-07-05_12h08.40.486,Slot Machine Game,2023.1.3,MacIntel,59.88023952,,,,,,,,,,,,,,,,,,,238.2398,5,0.2216,,left,1.5,,stimuli/card_100_transparent.png,500,100,5,0,5,0,1,,,,,,,,,,,,,,,,,,,,,,,,,,,,,,,,,,,,,,,,,,,,
,,,,6101dd552c4f666180515e70,A,2024-07-05_12h08.40.486,Slot Machine Game,2023.1.3,MacIntel,59.88023952,,,,,,,,,,,,,,,,,,,240.7898,6,0.4221,,left,0.5,,stimuli/card_10_transparent.png,510,10,6,0,6,0,1,,,,,,,,,,,,,,,,,,,,,,,,,,,,,,,,,,,,,,,,,,,,
,,,,6101dd552c4f666180515e70,A,2024-07-05_12h08.40.486,Slot Machine Game,2023.1.3,MacIntel,59.88023952,,,,,,,,,,,,,,,,,,,242.5399,7,0.2843,,left,0.5,,stimuli/card_0_transparent.png,510,0,7,0,7,0,1,,,,,,,,,,,,,,,,,,,,,,,,,,,,,,,,,,,,,,,,,,,,
,,,,6101dd552c4f666180515e70,A,2024-07-05_12h08.40.486,Slot Machine Game,2023.1.3,MacIntel,59.88023952,,,,,,,,,,,,,,,,,,,244.1564,8,0.2501,,up,0.5,,stimuli/card_100_transparent.png,610,100,8,0,8,0,1,,,,,,,,,,,,,,,,,,,,,,,,,,,,,,,,,,,,,,,,,,,,
,,,,6101dd552c4f666180515e70,A,2024-07-05_12h08.40.486,Slot Machine Game,2023.1.3,MacIntel,59.88023952,,,,,,,,,,,,,,,,,,,245.7397,9,0.5498,,up,1.5,,stimuli/card_100_transparent.png,710,100,9,0,9,0,1,,,,,,,,,,,,,,,,,,,,,,,,,,,,,,,,,,,,,,,,,,,,
,,,,6101dd552c4f666180515e70,A,2024-07-05_12h08.40.486,Slot Machine Game,2023.1.3,MacIntel,59.88023952,,,,,,,,,,,,,,,,,,,248.623,10,0.1498,,up,0.5,,stimuli/card_100_transparent.png,810,100,10,0,10,0,1,,,,,,,,,,,,,,,,,,,,,,,,,,,,,,,,,,,,,,,,,,,,
,,,,6101dd552c4f666180515e70,A,2024-07-05_12h08.40.486,Slot Machine Game,2023.1.3,MacIntel,59.88023952,,,,,,,,,,,,,,,,,,,250.1063,11,0.1047,,up,1.5,,stimuli/card_100_transparent.png,910,100,11,0,11,0,1,,,,,,,,,,,,,,,,,,,,,,,,,,,,,,,,,,,,,,,,,,,,
,,,,6101dd552c4f666180515e70,A,2024-07-05_12h08.40.486,Slot Machine Game,2023.1.3,MacIntel,59.88023952,,,,,,,,,,,,,,,,,,,252.5395,12,1.2334,,up,1,,stimuli/card_100_transparent.png,1010,100,12,0,12,0,1,,,,,,,,,,,,,,,,,,,,,,,,,,,,,,,,,,,,,,,,,,,,
,,,,6101dd552c4f666180515e70,A,2024-07-05_12h08.40.486,Slot Machine Game,2023.1.3,MacIntel,59.88023952,,,,,,,,,,,,,,,,,,,255.6063,13,0.4829,,up,1.5,,stimuli/card_100_transparent.png,1110,100,13,0,13,0,1,,,,,,,,,,,,,,,,,,,,,,,,,,,,,,,,,,,,,,,,,,,,
,,,,6101dd552c4f666180515e70,A,2024-07-05_12h08.40.486,Slot Machine Game,2023.1.3,MacIntel,59.88023952,,,,,,,,,,,,,,,,,,,258.4229,14,0.3683,,up,1.5,,stimuli/card_0_transparent.png,1110,0,14,0,14,0,1,,,,,,,,,,,,,,,,,,,,,,,,,,,,,,,,,,,,,,,,,,,,
,,,,6101dd552c4f666180515e70,A,2024-07-05_12h08.40.486,Slot Machine Game,2023.1.3,MacIntel,59.88023952,,,,,,,,,,,,,,,,,,,,,,,,,,,,,,,,,,,261.123,,,266.1235,space,2.2889,,,,,,,,,,,,,,,,,,,,,,,,,,,,,,,,,,,,,
,,,,6101dd552c4f666180515e70,A,2024-07-05_12h08.40.486,Slot Machine Game,2023.1.3,MacIntel,59.88023952,,,,,,,,,,,,,,,,,,,,,,,,,,,,,,,,,,,,,,,,,,268.4401,3,"[0,4,6,3,5,7,8,1,9,2]",space,1.573,,,,,,,,,,,,,,,,,,,,,,,,,,,,,,,
,,,,6101dd552c4f666180515e70,A,2024-07-05_12h08.40.486,Slot Machine Game,2023.1.3,MacIntel,59.88023952,,,,,,,,,,,,,,,,,,,,,,,,,,,100,,,,,,,,,,,,,,,,,,,,,1,1,"[12,15]","[[2,1,3],[2,3,1]]",270.0527,0,up,0.4544,,0.5,0.3,"[2,1,3]",0.589884579,stimuli/card_100_transparent.png,100,0,0,0,0,1,,,,,,,,,,
,,,,6101dd552c4f666180515e70,A,2024-07-05_12h08.40.486,Slot Machine Game,2023.1.3,MacIntel,59.88023952,,,,,,,,,,,,,,,,,,,,,,,,,,,200,,,,,,,,,,,,,,,,,,,,,1,1,,,271.823,1,up,0.0004,,0.5,0.3,"[2,1,3]",0.354986881,stimuli/card_100_transparent.png,100,1,0,1,0,1,,,,,,,,,,
,,,,6101dd552c4f666180515e70,A,2024-07-05_12h08.40.486,Slot Machine Game,2023.1.3,MacIntel,59.88023952,,,,,,,,,,,,,,,,,,,,,,,,,,,200,,,,,,,,,,,,,,,,,,,,,1,1,,,273.1562,2,up,0.6499,,1,0.3,"[2,1,3]",0.001444434,stimuli/card_0_transparent.png,0,2,0,2,0,1,,,,,,,,,,
,,,,6101dd552c4f666180515e70,A,2024-07-05_12h08.40.486,Slot Machine Game,2023.1.3,MacIntel,59.88023952,,,,,,,,,,,,,,,,,,,,,,,,,,,200,,,,,,,,,,,,,,,,,,,,,1,1,,,275.6394,3,up,0.1193,,1,0.3,"[2,1,3]",0.076260481,stimuli/card_0_transparent.png,0,3,0,3,0,1,,,,,,,,,,
,,,,6101dd552c4f666180515e70,A,2024-07-05_12h08.40.486,Slot Machine Game,2023.1.3,MacIntel,59.88023952,,,,,,,,,,,,,,,,,,,,,,,,,,,200,,,,,,,,,,,,,,,,,,,,,1,1,,,277.5895,4,right,1.2503,,0.5,0.3,"[2,1,3]",0.914297309,stimuli/card_0_transparent.png,0,4,0,4,0,1,,,,,,,,,,
,,,,6101dd552c4f666180515e70,A,2024-07-05_12h08.40.486,Slot Machine Game,2023.1.3,MacIntel,59.88023952,,,,,,,,,,,,,,,,,,,,,,,,,,,210,,,,,,,,,,,,,,,,,,,,,1,1,,,280.1728,5,left,0.6876,,1.5,0.3,"[2,1,3]",0.89887747,stimuli/card_10_transparent.png,10,5,0,5,0,1,,,,,,,,,,
,,,,6101dd552c4f666180515e70,A,2024-07-05_12h08.40.486,Slot Machine Game,2023.1.3,MacIntel,59.88023952,,,,,,,,,,,,,,,,,,,,,,,,,,,310,,,,,,,,,,,,,,,,,,,,,1,1,,,283.1894,6,up,1.4669,,1,0.3,"[2,1,3]",0.27866495,stimuli/card_100_transparent.png,100,6,0,6,0,1,,,,,,,,,,
,,,,6101dd552c4f666180515e70,A,2024-07-05_12h08.40.486,Slot Machine Game,2023.1.3,MacIntel,59.88023952,,,,,,,,,,,,,,,,,,,,,,,,,,,410,,,,,,,,,,,,,,,,,,,,,1,1,,,286.4893,7,up,0.2339,,1,0.3,"[2,1,3]",0.410408227,stimuli/card_100_transparent.png,100,7,0,7,0,1,,,,,,,,,,
,,,,6101dd552c4f666180515e70,A,2024-07-05_12h08.40.486,Slot Machine Game,2023.1.3,MacIntel,59.88023952,,,,,,,,,,,,,,,,,,,,,,,,,,,510,,,,,,,,,,,,,,,,,,,,,1,1,,,288.556,8,up,0.2519,,0.5,0.3,"[2,1,3]",0.52061042,stimuli/card_100_transparent.png,100,8,0,8,0,1,,,,,,,,,,
,,,,6101dd552c4f666180515e70,A,2024-07-05_12h08.40.486,Slot Machine Game,2023.1.3,MacIntel,59.88023952,,,,,,,,,,,,,,,,,,,,,,,,,,,610,,,,,,,,,,,,,,,,,,,,,1,1,,,290.1387,9,up,0.2354,,1,0.3,"[2,1,3]",0.96441687,stimuli/card_100_transparent.png,100,9,0,9,0,1,,,,,,,,,,
,,,,6101dd552c4f666180515e70,A,2024-07-05_12h08.40.486,Slot Machine Game,2023.1.3,MacIntel,59.88023952,,,,,,,,,,,,,,,,,,,,,,,,,,,710,,,,,,,,,,,,,,,,,,,,,1,1,,,292.1893,10,up,0.2496,,1.5,0.3,"[2,1,3]",0.750619979,stimuli/card_100_transparent.png,100,10,0,10,0,1,,,,,,,,,,
,,,,6101dd552c4f666180515e70,A,2024-07-05_12h08.40.486,Slot Machine Game,2023.1.3,MacIntel,59.88023952,,,,,,,,,,,,,,,,,,,,,,,,,,,810,,,,,,,,,,,,,,,,,,,,,1,1,,,294.7727,11,up,0.2032,,0.5,0.3,"[2,1,3]",0.393351745,stimuli/card_100_transparent.png,100,11,0,11,0,1,,,,,,,,,,
,,,,6101dd552c4f666180515e70,A,2024-07-05_12h08.40.486,Slot Machine Game,2023.1.3,MacIntel,59.88023952,,,,,,,,,,,,,,,,,,,,,,,,,,,810,,,,,,,,,,,,,,,,,,,,,1,1,,,296.3059,12,up,0.3495,,1.5,0.3,"[2,3,1]",0.647937311,stimuli/card_0_transparent.png,0,12,0,12,0,1,,,,,,,,,,
,,,,6101dd552c4f666180515e70,A,2024-07-05_12h08.40.486,Slot Machine Game,2023.1.3,MacIntel,59.88023952,,,,,,,,,,,,,,,,,,,,,,,,,,,810,,,,,,,,,,,,,,,,,,,,,1,1,,,298.9892,13,up,0.4169,,1,0.3,"[2,3,1]",0.780965812,stimuli/card_0_transparent.png,0,13,0,13,0,1,,,,,,,,,,
,,,,6101dd552c4f666180515e70,A,2024-07-05_12h08.40.486,Slot Machine Game,2023.1.3,MacIntel,59.88023952,,,,,,,,,,,,,,,,,,,,,,,,,,,810,,,,,,,,,,,,,,,,,,,,,1,1,,,301.2392,14,up,0.1664,,1,0.3,"[2,3,1]",0.321804785,stimuli/card_0_transparent.png,0,14,0,14,0,1,,,,,,,,,,
,,,,6101dd552c4f666180515e70,A,2024-07-05_12h08.40.486,Slot Machine Game,2023.1.3,MacIntel,59.88023952,,,,,,,,,,,,,,,,,,,,,,,,,,,,,,,,,,,303.2394,,,,,,,,,,,,,,,,,,,,,,,,,,,,,,,,,[810],0,0,0,0,1,,,,
,,,,6101dd552c4f666180515e70,A,2024-07-05_12h08.40.486,Slot Machine Game,2023.1.3,MacIntel,59.88023952,,,,,,,,,,,,,,,,,,,,,,,,,,,0,,,,,,,,,,,,,,,,,,,,,2,5,"[5,15]","[[1,2,3],[3,1,2]]",308.2537,0,right,0.5326,,1.5,0.3,"[1,2,3]",0.916102771,stimuli/card_0_transparent.png,0,0,0,0,0,1,,,,,,,,,,
,,,,6101dd552c4f666180515e70,A,2024-07-05_12h08.40.486,Slot Machine Game,2023.1.3,MacIntel,59.88023952,,,,,,,,,,,,,,,,,,,,,,,,,,,100,,,,,,,,,,,,,,,,,,,,,2,5,,,311.1058,1,left,0.449,,1.5,0.3,"[1,2,3]",0.738361316,stimuli/card_100_transparent.png,100,1,0,1,0,1,,,,,,,,,,
,,,,6101dd552c4f666180515e70,A,2024-07-05_12h08.40.486,Slot Machine Game,2023.1.3,MacIntel,59.88023952,,,,,,,,,,,,,,,,,,,,,,,,,,,200,,,,,,,,,,,,,,,,,,,,,2,5,,,313.8891,2,left,0.0516,,1,0.3,"[1,2,3]",0.361160564,stimuli/card_100_transparent.png,100,2,0,2,0,1,,,,,,,,,,
,,,,6101dd552c4f666180515e70,A,2024-07-05_12h08.40.486,Slot Machine Game,2023.1.3,MacIntel,59.88023952,,,,,,,,,,,,,,,,,,,,,,,,,,,300,,,,,,,,,,,,,,,,,,,,,2,5,,,315.7723,3,left,0.1379,,1,0.3,"[1,2,3]",0.708290282,stimuli/card_100_transparent.png,100,3,0,3,0,1,,,,,,,,,,
,,,,6101dd552c4f666180515e70,A,2024-07-05_12h08.40.486,Slot Machine Game,2023.1.3,MacIntel,59.88023952,,,,,,,,,,,,,,,,,,,,,,,,,,,400,,,,,,,,,,,,,,,,,,,,,2,5,,,317.739,4,left,0.0545,,0.5,0.3,"[1,2,3]",0.81028622,stimuli/card_100_transparent.png,100,4,0,4,0,1,,,,,,,,,,
,,,,6101dd552c4f666180515e70,A,2024-07-05_12h08.40.486,Slot Machine Game,2023.1.3,MacIntel,59.88023952,,,,,,,,,,,,,,,,,,,,,,,,,,,500,,,,,,,,,,,,,,,,,,,,,2,5,,,319.1223,5,left,0.3833,,1,0.3,"[3,1,2]",0.09545156,stimuli/card_100_transparent.png,100,5,0,5,0,1,,,,,,,,,,
,,,,6101dd552c4f666180515e70,A,2024-07-05_12h08.40.486,Slot Machine Game,2023.1.3,MacIntel,59.88023952,,,,,,,,,,,,,,,,,,,,,,,,,,,500,,,,,,,,,,,,,,,,,,,,,2,5,,,321.3388,6,left,0.1504,,0.5,0.3,"[3,1,2]",0.927875985,stimuli/card_0_transparent.png,0,6,0,6,0,1,,,,,,,,,,
,,,,6101dd552c4f666180515e70,A,2024-07-05_12h08.40.486,Slot Machine Game,2023.1.3,MacIntel,59.88023952,,,,,,,,,,,,,,,,,,,,,,,,,,,500,,,,,,,,,,,,,,,,,,,,,2,5,,,322.8224,7,left,0.0163,,1.5,0.3,"[3,1,2]",0.37975281,stimuli/card_0_transparent.png,0,7,0,7,0,1,,,,,,,,,,
,,,,6101dd552c4f666180515e70,A,2024-07-05_12h08.40.486,Slot Machine Game,2023.1.3,MacIntel,59.88023952,,,,,,,,,,,,,,,,,,,,,,,,,,,600,,,,,,,,,,,,,,,,,,,,,2,5,,,325.1722,8,up,0.4992,,1.5,0.3,"[3,1,2]",0.401682256,stimuli/card_100_transparent.png,100,8,0,8,0,1,,,,,,,,,,
,,,,6101dd552c4f666180515e70,A,2024-07-05_12h08.40.486,Slot Machine Game,2023.1.3,MacIntel,59.88023952,,,,,,,,,,,,,,,,,,,,,,,,,,,700,,,,,,,,,,,,,,,,,,,,,2,5,,,328.0055,9,up,0.0836,,1,0.3,"[3,1,2]",0.658256685,stimuli/card_100_transparent.png,100,9,0,9,0,1,,,,,,,,,,
,,,,6101dd552c4f666180515e70,A,2024-07-05_12h08.40.486,Slot Machine Game,2023.1.3,MacIntel,59.88023952,,,,,,,,,,,,,,,,,,,,,,,,,,,800,,,,,,,,,,,,,,,,,,,,,2,5,,,329.9223,10,up,0.166,,0.5,0.3,"[3,1,2]",0.513348271,stimuli/card_100_transparent.png,100,10,0,10,0,1,,,,,,,,,,
,,,,6101dd552c4f666180515e70,A,2024-07-05_12h08.40.486,Slot Machine Game,2023.1.3,MacIntel,59.88023952,,,,,,,,,,,,,,,,,,,,,,,,,,,900,,,,,,,,,,,,,,,,,,,,,2,5,,,331.4223,11,up,0.2666,,0.5,0.3,"[3,1,2]",0.287395549,stimuli/card_100_transparent.png,100,11,0,11,0,1,,,,,,,,,,
,,,,6101dd552c4f666180515e70,A,2024-07-05_12h08.40.486,Slot Machine Game,2023.1.3,MacIntel,59.88023952,,,,,,,,,,,,,,,,,,,,,,,,,,,1000,,,,,,,,,,,,,,,,,,,,,2,5,,,333.0224,12,up,0.1506,,0.5,0.3,"[3,1,2]",0.261667268,stimuli/card_100_transparent.png,100,12,0,12,0,1,,,,,,,,,,
,,,,6101dd552c4f666180515e70,A,2024-07-05_12h08.40.486,Slot Machine Game,2023.1.3,MacIntel,59.88023952,,,,,,,,,,,,,,,,,,,,,,,,,,,1000,,,,,,,,,,,,,,,,,,,,,2,5,,,334.5058,13,up,0.217,,1,0.3,"[3,1,2]",0.053019141,stimuli/card_0_transparent.png,0,13,0,13,0,1,,,,,,,,,,
,,,,6101dd552c4f666180515e70,A,2024-07-05_12h08.40.486,Slot Machine Game,2023.1.3,MacIntel,59.88023952,,,,,,,,,,,,,,,,,,,,,,,,,,,1100,,,,,,,,,,,,,,,,,,,,,2,5,,,336.5554,14,up,0.3824,,0.5,0.3,"[3,1,2]",0.834762902,stimuli/card_100_transparent.png,100,14,0,14,0,1,,,,,,,,,,
,,,,6101dd552c4f666180515e70,A,2024-07-05_12h08.40.486,Slot Machine Game,2023.1.3,MacIntel,59.88023952,,,,,,,,,,,,,,,,,,,,,,,,,,,,,,,,,,,338.2723,,,,,,,,,,,,,,,,,,,,,,,,,,,,,,,,,"[810,1100]",1,0,1,0,1,,,,
,,,,6101dd552c4f666180515e70,A,2024-07-05_12h08.40.486,Slot Machine Game,2023.1.3,MacIntel,59.88023952,,,,,,,,,,,,,,,,,,,,,,,,,,,10,,,,,,,,,,,,,,,,,,,,,3,7,"[9,15]","[[1,3,2],[2,3,1]]",343.2842,0,right,0.5604,,1.5,0.3,"[1,3,2]",0.904422157,stimuli/card_10_transparent.png,10,0,0,0,0,1,,,,,,,,,,
,,,,6101dd552c4f666180515e70,A,2024-07-05_12h08.40.486,Slot Machine Game,2023.1.3,MacIntel,59.88023952,,,,,,,,,,,,,,,,,,,,,,,,,,,110,,,,,,,,,,,,,,,,,,,,,3,7,,,346.1554,1,up,0.6046,,1.5,0.3,"[1,3,2]",0.098262075,stimuli/card_100_transparent.png,100,1,0,1,0,1,,,,,,,,,,
,,,,6101dd552c4f666180515e70,A,2024-07-05_12h08.40.486,Slot Machine Game,2023.1.3,MacIntel,59.88023952,,,,,,,,,,,,,,,,,,,,,,,,,,,120,,,,,,,,,,,,,,,,,,,,,3,7,,,349.0888,2,up,0.055,,1.5,0.3,"[1,3,2]",0.174498887,stimuli/card_10_transparent.png,10,2,0,2,0,1,,,,,,,,,,
,,,,6101dd552c4f666180515e70,A,2024-07-05_12h08.40.486,Slot Machine Game,2023.1.3,MacIntel,59.88023952,,,,,,,,,,,,,,,,,,,,,,,,,,,120,,,,,,,,,,,,,,,,,,,,,3,7,,,351.4721,3,up,0.0874,,1,0.3,"[1,3,2]",0.589261357,stimuli/card_0_transparent.png,0,3,0,3,0,1,,,,,,,,,,
,,,,6101dd552c4f666180515e70,A,2024-07-05_12h08.40.486,Slot Machine Game,2023.1.3,MacIntel,59.88023952,,,,,,,,,,,,,,,,,,,,,,,,,,,220,,,,,,,,,,,,,,,,,,,,,3,7,,,353.3887,4,left,0.5008,,1,0.3,"[1,3,2]",0.549642476,stimuli/card_100_transparent.png,100,4,0,4,0,1,,,,,,,,,,
,,,,6101dd552c4f666180515e70,A,2024-07-05_12h08.40.486,Slot Machine Game,2023.1.3,MacIntel,59.88023952,,,,,,,,,,,,,,,,,,,,,,,,,,,320,,,,,,,,,,,,,,,,,,,,,3,7,,,355.7219,5,left,0.1335,,1.5,0.3,"[1,3,2]",0.726625905,stimuli/card_100_transparent.png,100,5,0,5,0,1,,,,,,,,,,
,,,,6101dd552c4f666180515e70,A,2024-07-05_12h08.40.486,Slot Machine Game,2023.1.3,MacIntel,59.88023952,,,,,,,,,,,,,,,,,,,,,,,,,,,420,,,,,,,,,,,,,,,,,,,,,3,7,,,358.1886,6,left,0.2042,,1.5,0.3,"[1,3,2]",0.572191787,stimuli/card_100_transparent.png,100,6,0,6,0,1,,,,,,,,,,
,,,,6101dd552c4f666180515e70,A,2024-07-05_12h08.40.486,Slot Machine Game,2023.1.3,MacIntel,59.88023952,,,,,,,,,,,,,,,,,,,,,,,,,,,520,,,,,,,,,,,,,,,,,,,,,3,7,,,360.722,7,left,0.4844,,1,0.3,"[1,3,2]",0.364119496,stimuli/card_100_transparent.png,100,7,0,7,0,1,,,,,,,,,,
,,,,6101dd552c4f666180515e70,A,2024-07-05_12h08.40.486,Slot Machine Game,2023.1.3,MacIntel,59.88023952,,,,,,,,,,,,,,,,,,,,,,,,,,,620,,,,,,,,,,,,,,,,,,,,,3,7,,,363.0386,8,left,0.2057,,1,0.3,"[1,3,2]",0.372260637,stimuli/card_100_transparent.png,100,8,0,8,0,1,,,,,,,,,,
,,,,6101dd552c4f666180515e70,A,2024-07-05_12h08.40.486,Slot Machine Game,2023.1.3,MacIntel,59.88023952,,,,,,,,,,,,,,,,,,,,,,,,,,,630,,,,,,,,,,,,,,,,,,,,,3,7,,,365.072,9,left,0.2497,,0.5,0.3,"[2,3,1]",0.940678324,stimuli/card_10_transparent.png,10,9,0,9,0,1,,,,,,,,,,
,,,,6101dd552c4f666180515e70,A,2024-07-05_12h08.40.486,Slot Machine Game,2023.1.3,MacIntel,59.88023952,,,,,,,,,,,,,,,,,,,,,,,,,,,640,,,,,,,,,,,,,,,,,,,,,3,7,,,366.6553,10,left,0.2,,1.5,0.3,"[2,3,1]",0.786990713,stimuli/card_10_transparent.png,10,10,0,10,0,1,,,,,,,,,,
,,,,6101dd552c4f666180515e70,A,2024-07-05_12h08.40.486,Slot Machine Game,2023.1.3,MacIntel,59.88023952,,,,,,,,,,,,,,,,,,,,,,,,,,,740,,,,,,,,,,,,,,,,,,,,,3,7,,,369.1885,11,right,0.1846,,1.5,0.3,"[2,3,1]",0.642482978,stimuli/card_100_transparent.png,100,11,0,11,0,1,,,,,,,,,,
,,,,6101dd552c4f666180515e70,A,2024-07-05_12h08.40.486,Slot Machine Game,2023.1.3,MacIntel,59.88023952,,,,,,,,,,,,,,,,,,,,,,,,,,,840,,,,,,,,,,,,,,,,,,,,,3,7,,,371.7052,12,right,0.2816,,1.5,0.3,"[2,3,1]",0.381190199,stimuli/card_100_transparent.png,100,12,0,12,0,1,,,,,,,,,,
,,,,6101dd552c4f666180515e70,A,2024-07-05_12h08.40.486,Slot Machine Game,2023.1.3,MacIntel,59.88023952,,,,,,,,,,,,,,,,,,,,,,,,,,,940,,,,,,,,,,,,,,,,,,,,,3,7,,,374.3217,13,right,0.2499,,0.5,0.3,"[2,3,1]",0.81733961,stimuli/card_100_transparent.png,100,13,0,13,0,1,,,,,,,,,,
,,,,6101dd552c4f666180515e70,A,2024-07-05_12h08.40.486,Slot Machine Game,2023.1.3,MacIntel,59.88023952,,,,,,,,,,,,,,,,,,,,,,,,,,,1040,,,,,,,,,,,,,,,,,,,,,3,7,,,375.9053,14,right,0.1332,,1,0.3,"[2,3,1]",0.85763816,stimuli/card_100_transparent.png,100,14,0,14,0,1,,,,,,,,,,
,,,,6101dd552c4f666180515e70,A,2024-07-05_12h08.40.486,Slot Machine Game,2023.1.3,MacIntel,59.88023952,,,,,,,,,,,,,,,,,,,,,,,,,,,,,,,,,,,377.8718,,,,,,,,,,,,,,,,,,,,,,,,,,,,,,,,,"[810,1100,1040]",2,0,2,0,1,,,,
,,,,6101dd552c4f666180515e70,A,2024-07-05_12h08.40.486,Slot Machine Game,2023.1.3,MacIntel,59.88023952,,,,,,,,,,,,,,,,,,,,,,,,,,,0,,,,,,,,,,,,,,,,,,,,,4,4,"[7,15]","[[2,3,1],[1,2,3]]",382.8858,0,up,1.301,,1.5,0.3,"[2,3,1]",0.686654628,stimuli/card_0_transparent.png,0,0,0,0,0,1,,,,,,,,,,
,,,,6101dd552c4f666180515e70,A,2024-07-05_12h08.40.486,Slot Machine Game,2023.1.3,MacIntel,59.88023952,,,,,,,,,,,,,,,,,,,,,,,,,,,10,,,,,,,,,,,,,,,,,,,,,4,4,,,386.505,1,left,0.0058,,1.5,0.3,"[2,3,1]",0.386196022,stimuli/card_10_transparent.png,10,1,0,1,0,1,,,,,,,,,,
,,,,6101dd552c4f666180515e70,A,2024-07-05_12h08.40.486,Slot Machine Game,2023.1.3,MacIntel,59.88023952,,,,,,,,,,,,,,,,,,,,,,,,,,,20,,,,,,,,,,,,,,,,,,,,,4,4,,,388.8383,2,right,0.4827,,0.5,0.3,"[2,3,1]",0.185992762,stimuli/card_10_transparent.png,10,2,0,2,0,1,,,,,,,,,,
,,,,6101dd552c4f666180515e70,A,2024-07-05_12h08.40.486,Slot Machine Game,2023.1.3,MacIntel,59.88023952,,,,,,,,,,,,,,,,,,,,,,,,,,,20,,,,,,,,,,,,,,,,,,,,,4,4,,,390.655,3,up,0.0782,,1.5,0.3,"[2,3,1]",0.266861293,stimuli/card_0_transparent.png,0,3,0,3,0,1,,,,,,,,,,
,,,,6101dd552c4f666180515e70,A,2024-07-05_12h08.40.486,Slot Machine Game,2023.1.3,MacIntel,59.88023952,,,,,,,,,,,,,,,,,,,,,,,,,,,30,,,,,,,,,,,,,,,,,,,,,4,4,,,393.0549,4,left,0.2167,,1,0.3,"[2,3,1]",0.498160532,stimuli/card_10_transparent.png,10,4,0,4,0,1,,,,,,,,,,
,,,,6101dd552c4f666180515e70,A,2024-07-05_12h08.40.486,Slot Machine Game,2023.1.3,MacIntel,59.88023952,,,,,,,,,,,,,,,,,,,,,,,,,,,130,,,,,,,,,,,,,,,,,,,,,4,4,,,395.105,5,right,0.2451,,1,0.3,"[2,3,1]",0.80049147,stimuli/card_100_transparent.png,100,5,0,5,0,1,,,,,,,,,,
,,,,6101dd552c4f666180515e70,A,2024-07-05_12h08.40.486,Slot Machine Game,2023.1.3,MacIntel,59.88023952,,,,,,,,,,,,,,,,,,,,,,,,,,,230,,,,,,,,,,,,,,,,,,,,,4,4,,,397.1716,6,right,0.1294,,1.5,0.3,"[2,3,1]",0.619773616,stimuli/card_100_transparent.png,100,6,0,6,0,1,,,,,,,,,,
,,,,6101dd552c4f666180515e70,A,2024-07-05_12h08.40.486,Slot Machine Game,2023.1.3,MacIntel,59.88023952,,,,,,,,,,,,,,,,,,,,,,,,,,,230,,,,,,,,,,,,,,,,,,,,,4,4,,,399.6215,7,right,0.2537,,0.5,0.3,"[1,2,3]",0.738304391,stimuli/card_0_transparent.png,0,7,0,7,0,1,,,,,,,,,,
,,,,6101dd552c4f666180515e70,A,2024-07-05_12h08.40.486,Slot Machine Game,2023.1.3,MacIntel,59.88023952,,,,,,,,,,,,,,,,,,,,,,,,,,,230,,,,,,,,,,,,,,,,,,,,,4,4,,,401.205,8,right,0.1836,,0.5,0.3,"[1,2,3]",0.39420734,stimuli/card_0_transparent.png,0,8,0,8,0,1,,,,,,,,,,
,,,,6101dd552c4f666180515e70,A,2024-07-05_12h08.40.486,Slot Machine Game,2023.1.3,MacIntel,59.88023952,,,,,,,,,,,,,,,,,,,,,,,,,,,240,,,,,,,,,,,,,,,,,,,,,4,4,,,402.7215,9,up,0.3163,,1.5,0.3,"[1,2,3]",0.843722835,stimuli/card_10_transparent.png,10,9,0,9,0,1,,,,,,,,,,
,,,,6101dd552c4f666180515e70,A,2024-07-05_12h08.40.486,Slot Machine Game,2023.1.3,MacIntel,59.88023952,,,,,,,,,,,,,,,,,,,,,,,,,,,340,,,,,,,,,,,,,,,,,,,,,4,4,,,405.3715,10,left,0.1669,,1,0.3,"[1,2,3]",0.769047923,stimuli/card_100_transparent.png,100,10,0,10,0,1,,,,,,,,,,
,,,,6101dd552c4f666180515e70,A,2024-07-05_12h08.40.486,Slot Machine Game,2023.1.3,MacIntel,59.88023952,,,,,,,,,,,,,,,,,,,,,,,,,,,440,,,,,,,,,,,,,,,,,,,,,4,4,,,407.3715,11,left,0.183,,1,0.3,"[1,2,3]",0.389429329,stimuli/card_100_transparent.png,100,11,0,11,0,1,,,,,,,,,,
,,,,6101dd552c4f666180515e70,A,2024-07-05_12h08.40.486,Slot Machine Game,2023.1.3,MacIntel,59.88023952,,,,,,,,,,,,,,,,,,,,,,,,,,,540,,,,,,,,,,,,,,,,,,,,,4,4,,,409.3882,12,left,0.183,,0.5,0.3,"[1,2,3]",0.692695351,stimuli/card_100_transparent.png,100,12,0,12,0,1,,,,,,,,,,
,,,,6101dd552c4f666180515e70,A,2024-07-05_12h08.40.486,Slot Machine Game,2023.1.3,MacIntel,59.88023952,,,,,,,,,,,,,,,,,,,,,,,,,,,640,,,,,,,,,,,,,,,,,,,,,4,4,,,410.9043,13,left,0.2162,,1.5,0.3,"[1,2,3]",0.852947895,stimuli/card_100_transparent.png,100,13,0,13,0,1,,,,,,,,,,
,,,,6101dd552c4f666180515e70,A,2024-07-05_12h08.40.486,Slot Machine Game,2023.1.3,MacIntel,59.88023952,,,,,,,,,,,,,,,,,,,,,,,,,,,650,,,,,,,,,,,,,,,,,,,,,4,4,,,413.4381,14,left,0.2179,,0.5,0.3,"[1,2,3]",0.109950529,stimuli/card_10_transparent.png,10,14,0,14,0,1,,,,,,,,,,
,,,,6101dd552c4f666180515e70,A,2024-07-05_12h08.40.486,Slot Machine Game,2023.1.3,MacIntel,59.88023952,,,,,,,,,,,,,,,,,,,,,,,,,,,,,,,,,,,414.988,,,,,,,,,,,,,,,,,,,,,,,,,,,,,,,,,"[810,1100,1040,650]",3,0,3,0,1,,,,
,,,,6101dd552c4f666180515e70,A,2024-07-05_12h08.40.486,Slot Machine Game,2023.1.3,MacIntel,59.88023952,,,,,,,,,,,,,,,,,,,,,,,,,,,10,,,,,,,,,,,,,,,,,,,,,5,6,"[4,10,15]","[[2,3,1],[1,3,2],[3,2,1]]",419.9998,0,right,0.7334,,1,0.3,"[2,3,1]",0.197447979,stimuli/card_10_transparent.png,10,0,0,0,0,1,,,,,,,,,,
,,,,6101dd552c4f666180515e70,A,2024-07-05_12h08.40.486,Slot Machine Game,2023.1.3,MacIntel,59.88023952,,,,,,,,,,,,,,,,,,,,,,,,,,,110,,,,,,,,,,,,,,,,,,,,,5,6,,,422.5546,1,up,0.7385,,1.5,0.3,"[2,3,1]",0.003007285,stimuli/card_100_transparent.png,100,1,0,1,0,1,,,,,,,,,,
,,,,6101dd552c4f666180515e70,A,2024-07-05_12h08.40.486,Slot Machine Game,2023.1.3,MacIntel,59.88023952,,,,,,,,,,,,,,,,,,,,,,,,,,,110,,,,,,,,,,,,,,,,,,,,,5,6,,,425.6213,2,up,0.1831,,0.5,0.3,"[2,3,1]",0.903128383,stimuli/card_0_transparent.png,0,2,0,2,0,1,,,,,,,,,,
,,,,6101dd552c4f666180515e70,A,2024-07-05_12h08.40.486,Slot Machine Game,2023.1.3,MacIntel,59.88023952,,,,,,,,,,,,,,,,,,,,,,,,,,,110,,,,,,,,,,,,,,,,,,,,,5,6,,,427.138,3,up,0.1016,,0.5,0.3,"[2,3,1]",0.555535132,stimuli/card_0_transparent.png,0,3,0,3,0,1,,,,,,,,,,
,,,,6101dd552c4f666180515e70,A,2024-07-05_12h08.40.486,Slot Machine Game,2023.1.3,MacIntel,59.88023952,,,,,,,,,,,,,,,,,,,,,,,,,,,210,,,,,,,,,,,,,,,,,,,,,5,6,,,428.5711,4,left,0.0662,,0.5,0.3,"[1,3,2]",0.540742072,stimuli/card_100_transparent.png,100,4,0,4,0,1,,,,,,,,,,
,,,,6101dd552c4f666180515e70,A,2024-07-05_12h08.40.486,Slot Machine Game,2023.1.3,MacIntel,59.88023952,,,,,,,,,,,,,,,,,,,,,,,,,,,220,,,,,,,,,,,,,,,,,,,,,5,6,,,429.9713,5,left,0.088,,1.5,0.3,"[1,3,2]",0.102110127,stimuli/card_10_transparent.png,10,5,0,5,0,1,,,,,,,,,,
,,,,6101dd552c4f666180515e70,A,2024-07-05_12h08.40.486,Slot Machine Game,2023.1.3,MacIntel,59.88023952,,,,,,,,,,,,,,,,,,,,,,,,,,,320,,,,,,,,,,,,,,,,,,,,,5,6,,,432.3879,6,left,0.2497,,0.5,0.3,"[1,3,2]",0.726623017,stimuli/card_100_transparent.png,100,6,0,6,0,1,,,,,,,,,,
,,,,6101dd552c4f666180515e70,A,2024-07-05_12h08.40.486,Slot Machine Game,2023.1.3,MacIntel,59.88023952,,,,,,,,,,,,,,,,,,,,,,,,,,,420,,,,,,,,,,,,,,,,,,,,,5,6,,,433.9712,7,left,0.5002,,1,0.3,"[1,3,2]",0.504361944,stimuli/card_100_transparent.png,100,7,0,7,0,1,,,,,,,,,,
,,,,6101dd552c4f666180515e70,A,2024-07-05_12h08.40.486,Slot Machine Game,2023.1.3,MacIntel,59.88023952,,,,,,,,,,,,,,,,,,,,,,,,,,,420,,,,,,,,,,,,,,,,,,,,,5,6,,,436.3043,8,left,0.3553,,1.5,0.3,"[1,3,2]",0.002735048,stimuli/card_0_transparent.png,0,8,0,8,0,1,,,,,,,,,,
,,,,6101dd552c4f666180515e70,A,2024-07-05_12h08.40.486,Slot Machine Game,2023.1.3,MacIntel,59.88023952,,,,,,,,,,,,,,,,,,,,,,,,,,,520,,,,,,,,,,,,,,,,,,,,,5,6,,,438.9712,9,left,0.5029,,1,0.3,"[1,3,2]",0.278833537,stimuli/card_100_transparent.png,100,9,0,9,0,1,,,,,,,,,,
,,,,6101dd552c4f666180515e70,A,2024-07-05_12h08.40.486,Slot Machine Game,2023.1.3,MacIntel,59.88023952,,,,,,,,,,,,,,,,,,,,,,,,,,,520,,,,,,,,,,,,,,,,,,,,,5,6,,,441.3044,10,left,0.4515,,1.5,0.3,"[3,2,1]",0.84032694,stimuli/card_0_transparent.png,0,10,0,10,0,1,,,,,,,,,,
,,,,6101dd552c4f666180515e70,A,2024-07-05_12h08.40.486,Slot Machine Game,2023.1.3,MacIntel,59.88023952,,,,,,,,,,,,,,,,,,,,,,,,,,,620,,,,,,,,,,,,,,,,,,,,,5,6,,,444.0878,11,left,0.1458,,1.5,0.3,"[3,2,1]",0.028812229,stimuli/card_100_transparent.png,100,11,0,11,0,1,,,,,,,,,,
,,,,6101dd552c4f666180515e70,A,2024-07-05_12h08.40.486,Slot Machine Game,2023.1.3,MacIntel,59.88023952,,,,,,,,,,,,,,,,,,,,,,,,,,,620,,,,,,,,,,,,,,,,,,,,,5,6,,,446.5544,12,left,0.3503,,0.5,0.3,"[3,2,1]",0.313289212,stimuli/card_0_transparent.png,0,12,0,12,0,1,,,,,,,,,,
,,,,6101dd552c4f666180515e70,A,2024-07-05_12h08.40.486,Slot Machine Game,2023.1.3,MacIntel,59.88023952,,,,,,,,,,,,,,,,,,,,,,,,,,,620,,,,,,,,,,,,,,,,,,,,,5,6,,,448.2378,13,left,0.4009,,0.5,0.3,"[3,2,1]",0.328646555,stimuli/card_0_transparent.png,0,13,0,13,0,1,,,,,,,,,,
,,,,6101dd552c4f666180515e70,A,2024-07-05_12h08.40.486,Slot Machine Game,2023.1.3,MacIntel,59.88023952,,,,,,,,,,,,,,,,,,,,,,,,,,,720,,,,,,,,,,,,,,,,,,,,,5,6,,,449.971,14,right,0.3187,,0.5,0.3,"[3,2,1]",0.643545478,stimuli/card_100_transparent.png,100,14,0,14,0,1,,,,,,,,,,
,,,,6101dd552c4f666180515e70,A,2024-07-05_12h08.40.486,Slot Machine Game,2023.1.3,MacIntel,59.88023952,,,,,,,,,,,,,,,,,,,,,,,,,,,,,,,,,,,451.621,,,,,,,,,,,,,,,,,,,,,,,,,,,,,,,,,"[810,1100,1040,650,720]",4,0,4,0,1,,,,
,,,,6101dd552c4f666180515e70,A,2024-07-05_12h08.40.486,Slot Machine Game,2023.1.3,MacIntel,59.88023952,,,,,,,,,,,,,,,,,,,,,,,,,,,100,,,,,,,,,,,,,,,,,,,,,6,8,"[11,15]","[[2,1,3],[1,2,3]]",456.6358,0,up,0.5005,,1.5,0.3,"[2,1,3]",0.382966762,stimuli/card_100_transparent.png,100,0,0,0,0,1,,,,,,,,,,
,,,,6101dd552c4f666180515e70,A,2024-07-05_12h08.40.486,Slot Machine Game,2023.1.3,MacIntel,59.88023952,,,,,,,,,,,,,,,,,,,,,,,,,,,200,,,,,,,,,,,,,,,,,,,,,6,8,,,459.4543,1,up,0.0164,,1,0.3,"[2,1,3]",0.580478358,stimuli/card_100_transparent.png,100,1,0,1,0,1,,,,,,,,,,
,,,,6101dd552c4f666180515e70,A,2024-07-05_12h08.40.486,Slot Machine Game,2023.1.3,MacIntel,59.88023952,,,,,,,,,,,,,,,,,,,,,,,,,,,300,,,,,,,,,,,,,,,,,,,,,6,8,,,461.3043,2,up,0.6164,,0.5,0.3,"[2,1,3]",0.209776606,stimuli/card_100_transparent.png,100,2,0,2,0,1,,,,,,,,,,
,,,,6101dd552c4f666180515e70,A,2024-07-05_12h08.40.486,Slot Machine Game,2023.1.3,MacIntel,59.88023952,,,,,,,,,,,,,,,,,,,,,,,,,,,400,,,,,,,,,,,,,,,,,,,,,6,8,,,463.2544,3,up,0.1837,,1.5,0.3,"[2,1,3]",0.334952535,stimuli/card_100_transparent.png,100,3,0,3,0,1,,,,,,,,,,
,,,,6101dd552c4f666180515e70,A,2024-07-05_12h08.40.486,Slot Machine Game,2023.1.3,MacIntel,59.88023952,,,,,,,,,,,,,,,,,,,,,,,,,,,500,,,,,,,,,,,,,,,,,,,,,6,8,,,465.7709,4,up,0.4339,,1.5,0.3,"[2,1,3]",0.644398695,stimuli/card_100_transparent.png,100,4,0,4,0,1,,,,,,,,,,
,,,,6101dd552c4f666180515e70,A,2024-07-05_12h08.40.486,Slot Machine Game,2023.1.3,MacIntel,59.88023952,,,,,,,,,,,,,,,,,,,,,,,,,,,600,,,,,,,,,,,,,,,,,,,,,6,8,,,468.537,5,up,0.2359,,1,0.3,"[2,1,3]",0.865902781,stimuli/card_100_transparent.png,100,5,0,5,0,1,,,,,,,,,,
,,,,6101dd552c4f666180515e70,A,2024-07-05_12h08.40.486,Slot Machine Game,2023.1.3,MacIntel,59.88023952,,,,,,,,,,,,,,,,,,,,,,,,,,,700,,,,,,,,,,,,,,,,,,,,,6,8,,,470.5875,6,up,0.2673,,1,0.3,"[2,1,3]",0.560778647,stimuli/card_100_transparent.png,100,6,0,6,0,1,,,,,,,,,,
,,,,6101dd552c4f666180515e70,A,2024-07-05_12h08.40.486,Slot Machine Game,2023.1.3,MacIntel,59.88023952,,,,,,,,,,,,,,,,,,,,,,,,,,,800,,,,,,,,,,,,,,,,,,,,,6,8,,,472.6874,7,up,0.2346,,1.5,0.3,"[2,1,3]",0.353446384,stimuli/card_100_transparent.png,100,7,0,7,0,1,,,,,,,,,,
,,,,6101dd552c4f666180515e70,A,2024-07-05_12h08.40.486,Slot Machine Game,2023.1.3,MacIntel,59.88023952,,,,,,,,,,,,,,,,,,,,,,,,,,,900,,,,,,,,,,,,,,,,,,,,,6,8,,,475.2542,8,up,0.8667,,1,0.3,"[2,1,3]",0.50359837,stimuli/card_100_transparent.png,100,8,0,8,0,1,,,,,,,,,,
,,,,6101dd552c4f666180515e70,A,2024-07-05_12h08.40.486,Slot Machine Game,2023.1.3,MacIntel,59.88023952,,,,,,,,,,,,,,,,,,,,,,,,,,,1000,,,,,,,,,,,,,,,,,,,,,6,8,,,477.9541,9,up,0.4683,,0.5,0.3,"[2,1,3]",0.936222232,stimuli/card_100_transparent.png,100,9,0,9,0,1,,,,,,,,,,
,,,,6101dd552c4f666180515e70,A,2024-07-05_12h08.40.486,Slot Machine Game,2023.1.3,MacIntel,59.88023952,,,,,,,,,,,,,,,,,,,,,,,,,,,1100,,,,,,,,,,,,,,,,,,,,,6,8,,,479.7541,10,up,0.5187,,1.5,0.3,"[2,1,3]",0.6360181,stimuli/card_100_transparent.png,100,10,0,10,0,1,,,,,,,,,,
,,,,6101dd552c4f666180515e70,A,2024-07-05_12h08.40.486,Slot Machine Game,2023.1.3,MacIntel,59.88023952,,,,,,,,,,,,,,,,,,,,,,,,,,,1110,,,,,,,,,,,,,,,,,,,,,6,8,,,482.604,11,up,0.0511,,1,0.3,"[1,2,3]",0.593439613,stimuli/card_10_transparent.png,10,11,0,11,0,1,,,,,,,,,,
,,,,6101dd552c4f666180515e70,A,2024-07-05_12h08.40.486,Slot Machine Game,2023.1.3,MacIntel,59.88023952,,,,,,,,,,,,,,,,,,,,,,,,,,,1120,,,,,,,,,,,,,,,,,,,,,6,8,,,484.4873,12,up,0.0331,,1.5,0.3,"[1,2,3]",0.526891093,stimuli/card_10_transparent.png,10,12,0,12,0,1,,,,,,,,,,
,,,,6101dd552c4f666180515e70,A,2024-07-05_12h08.40.486,Slot Machine Game,2023.1.3,MacIntel,59.88023952,,,,,,,,,,,,,,,,,,,,,,,,,,,1130,,,,,,,,,,,,,,,,,,,,,6,8,,,486.8541,13,up,0.2165,,1.5,0.3,"[1,2,3]",0.530643936,stimuli/card_10_transparent.png,10,13,0,13,0,1,,,,,,,,,,
,,,,6101dd552c4f666180515e70,A,2024-07-05_12h08.40.486,Slot Machine Game,2023.1.3,MacIntel,59.88023952,,,,,,,,,,,,,,,,,,,,,,,,,,,1130,,,,,,,,,,,,,,,,,,,,,6,8,,,489.404,14,right,0.029,,0.5,0.3,"[1,2,3]",0.309293264,stimuli/card_0_transparent.png,0,14,0,14,0,1,,,,,,,,,,
,,,,6101dd552c4f666180515e70,A,2024-07-05_12h08.40.486,Slot Machine Game,2023.1.3,MacIntel,59.88023952,,,,,,,,,,,,,,,,,,,,,,,,,,,,,,,,,,,490.7541,,,,,,,,,,,,,,,,,,,,,,,,,,,,,,,,,"[810,1100,1040,650,720,1130]",5,0,5,0,1,,,,
,,,,6101dd552c4f666180515e70,A,2024-07-05_12h08.40.486,Slot Machine Game,2023.1.3,MacIntel,59.88023952,,,,,,,,,,,,,,,,,,,,,,,,,,,10,,,,,,,,,,,,,,,,,,,,,7,9,"[8,15]","[[3,2,1],[3,1,2]]",495.766,0,left,0.1841,,1.5,0.3,"[3,2,1]",0.189002344,stimuli/card_10_transparent.png,10,0,0,0,0,1,,,,,,,,,,
,,,,6101dd552c4f666180515e70,A,2024-07-05_12h08.40.486,Slot Machine Game,2023.1.3,MacIntel,59.88023952,,,,,,,,,,,,,,,,,,,,,,,,,,,20,,,,,,,,,,,,,,,,,,,,,7,9,,,498.2706,1,up,0.0375,,0.5,0.3,"[3,2,1]",0.757490717,stimuli/card_10_transparent.png,10,1,0,1,0,1,,,,,,,,,,
,,,,6101dd552c4f666180515e70,A,2024-07-05_12h08.40.486,Slot Machine Game,2023.1.3,MacIntel,59.88023952,,,,,,,,,,,,,,,,,,,,,,,,,,,120,,,,,,,,,,,,,,,,,,,,,7,9,,,499.6373,2,right,0.6167,,1,0.3,"[3,2,1]",0.398828029,stimuli/card_100_transparent.png,100,2,0,2,0,1,,,,,,,,,,
,,,,6101dd552c4f666180515e70,A,2024-07-05_12h08.40.486,Slot Machine Game,2023.1.3,MacIntel,59.88023952,,,,,,,,,,,,,,,,,,,,,,,,,,,220,,,,,,,,,,,,,,,,,,,,,7,9,,,502.0871,3,right,0.2663,,1,0.3,"[3,2,1]",0.617778253,stimuli/card_100_transparent.png,100,3,0,3,0,1,,,,,,,,,,
,,,,6101dd552c4f666180515e70,A,2024-07-05_12h08.40.486,Slot Machine Game,2023.1.3,MacIntel,59.88023952,,,,,,,,,,,,,,,,,,,,,,,,,,,320,,,,,,,,,,,,,,,,,,,,,7,9,,,504.1873,4,right,0.1998,,1,0.3,"[3,2,1]",0.851371621,stimuli/card_100_transparent.png,100,4,0,4,0,1,,,,,,,,,,
,,,,6101dd552c4f666180515e70,A,2024-07-05_12h08.40.486,Slot Machine Game,2023.1.3,MacIntel,59.88023952,,,,,,,,,,,,,,,,,,,,,,,,,,,420,,,,,,,,,,,,,,,,,,,,,7,9,,,506.2205,5,right,0.1347,,1,0.3,"[3,2,1]",0.493989843,stimuli/card_100_transparent.png,100,5,0,5,0,1,,,,,,,,,,
,,,,6101dd552c4f666180515e70,A,2024-07-05_12h08.40.486,Slot Machine Game,2023.1.3,MacIntel,59.88023952,,,,,,,,,,,,,,,,,,,,,,,,,,,520,,,,,,,,,,,,,,,,,,,,,7,9,,,508.1872,6,right,0.0193,,1.5,0.3,"[3,2,1]",0.486281366,stimuli/card_100_transparent.png,100,6,0,6,0,1,,,,,,,,,,
,,,,6101dd552c4f666180515e70,A,2024-07-05_12h08.40.486,Slot Machine Game,2023.1.3,MacIntel,59.88023952,,,,,,,,,,,,,,,,,,,,,,,,,,,620,,,,,,,,,,,,,,,,,,,,,7,9,,,510.5371,7,right,0.3331,,0.5,0.3,"[3,2,1]",0.849050674,stimuli/card_100_transparent.png,100,7,0,7,0,1,,,,,,,,,,
,,,,6101dd552c4f666180515e70,A,2024-07-05_12h08.40.486,Slot Machine Game,2023.1.3,MacIntel,59.88023952,,,,,,,,,,,,,,,,,,,,,,,,,,,620,,,,,,,,,,,,,,,,,,,,,7,9,,,512.2037,8,right,0.2005,,1,0.3,"[3,1,2]",0.035560661,stimuli/card_0_transparent.png,0,8,0,8,0,1,,,,,,,,,,
,,,,6101dd552c4f666180515e70,A,2024-07-05_12h08.40.486,Slot Machine Game,2023.1.3,MacIntel,59.88023952,,,,,,,,,,,,,,,,,,,,,,,,,,,630,,,,,,,,,,,,,,,,,,,,,7,9,,,514.2371,9,right,0.6679,,1,0.3,"[3,1,2]",0.554587621,stimuli/card_10_transparent.png,10,9,0,9,0,1,,,,,,,,,,
,,,,6101dd552c4f666180515e70,A,2024-07-05_12h08.40.486,Slot Machine Game,2023.1.3,MacIntel,59.88023952,,,,,,,,,,,,,,,,,,,,,,,,,,,730,,,,,,,,,,,,,,,,,,,,,7,9,,,516.7371,10,up,0.4662,,1,0.3,"[3,1,2]",0.514190623,stimuli/card_100_transparent.png,100,10,0,10,0,1,,,,,,,,,,
,,,,6101dd552c4f666180515e70,A,2024-07-05_12h08.40.486,Slot Machine Game,2023.1.3,MacIntel,59.88023952,,,,,,,,,,,,,,,,,,,,,,,,,,,740,,,,,,,,,,,,,,,,,,,,,7,9,,,519.0371,11,up,0.1498,,0.5,0.3,"[3,1,2]",0.140190923,stimuli/card_10_transparent.png,10,11,0,11,0,1,,,,,,,,,,
,,,,6101dd552c4f666180515e70,A,2024-07-05_12h08.40.486,Slot Machine Game,2023.1.3,MacIntel,59.88023952,,,,,,,,,,,,,,,,,,,,,,,,,,,840,,,,,,,,,,,,,,,,,,,,,7,9,,,520.5203,12,up,0.083,,1.5,0.3,"[3,1,2]",0.538555892,stimuli/card_100_transparent.png,100,12,0,12,0,1,,,,,,,,,,
,,,,6101dd552c4f666180515e70,A,2024-07-05_12h08.40.486,Slot Machine Game,2023.1.3,MacIntel,59.88023952,,,,,,,,,,,,,,,,,,,,,,,,,,,940,,,,,,,,,,,,,,,,,,,,,7,9,,,522.937,13,up,0.0874,,1.5,0.3,"[3,1,2]",0.77833385,stimuli/card_100_transparent.png,100,13,0,13,0,1,,,,,,,,,,
,,,,6101dd552c4f666180515e70,A,2024-07-05_12h08.40.486,Slot Machine Game,2023.1.3,MacIntel,59.88023952,,,,,,,,,,,,,,,,,,,,,,,,,,,1040,,,,,,,,,,,,,,,,,,,,,7,9,,,525.3536,14,up,0.0947,,0.5,0.3,"[3,1,2]",0.849349042,stimuli/card_100_transparent.png,100,14,0,14,0,1,,,,,,,,,,
,,,,6101dd552c4f666180515e70,A,2024-07-05_12h08.40.486,Slot Machine Game,2023.1.3,MacIntel,59.88023952,,,,,,,,,,,,,,,,,,,,,,,,,,,,,,,,,,,526.7703,,,,,,,,,,,,,,,,,,,,,,,,,,,,,,,,,"[810,1100,1040,650,720,1130,1040]",6,0,6,0,1,,,,
,,,,6101dd552c4f666180515e70,A,2024-07-05_12h08.40.486,Slot Machine Game,2023.1.3,MacIntel,59.88023952,,,,,,,,,,,,,,,,,,,,,,,,,,,100,,,,,,,,,,,,,,,,,,,,,8,2,"[6,15]","[[1,3,2],[3,2,1]]",531.7851,0,left,0.1946,,0.5,0.3,"[1,3,2]",0.918516409,stimuli/card_100_transparent.png,100,0,0,0,0,1,,,,,,,,,,
,,,,6101dd552c4f666180515e70,A,2024-07-05_12h08.40.486,Slot Machine Game,2023.1.3,MacIntel,59.88023952,,,,,,,,,,,,,,,,,,,,,,,,,,,200,,,,,,,,,,,,,,,,,,,,,8,2,,,533.287,1,left,0.5848,,0.5,0.3,"[1,3,2]",0.207980138,stimuli/card_100_transparent.png,100,1,0,1,0,1,,,,,,,,,,
,,,,6101dd552c4f666180515e70,A,2024-07-05_12h08.40.486,Slot Machine Game,2023.1.3,MacIntel,59.88023952,,,,,,,,,,,,,,,,,,,,,,,,,,,300,,,,,,,,,,,,,,,,,,,,,8,2,,,535.2035,2,left,0.3787,,1,0.3,"[1,3,2]",0.760636494,stimuli/card_100_transparent.png,100,2,0,2,0,1,,,,,,,,,,
,,,,6101dd552c4f666180515e70,A,2024-07-05_12h08.40.486,Slot Machine Game,2023.1.3,MacIntel,59.88023952,,,,,,,,,,,,,,,,,,,,,,,,,,,310,,,,,,,,,,,,,,,,,,,,,8,2,,,537.4035,3,left,0.3,,0.5,0.3,"[1,3,2]",0.195804935,stimuli/card_10_transparent.png,10,3,0,3,0,1,,,,,,,,,,
,,,,6101dd552c4f666180515e70,A,2024-07-05_12h08.40.486,Slot Machine Game,2023.1.3,MacIntel,59.88023952,,,,,,,,,,,,,,,,,,,,,,,,,,,410,,,,,,,,,,,,,,,,,,,,,8,2,,,539.0368,4,left,0.1994,,1,0.3,"[1,3,2]",0.339738719,stimuli/card_100_transparent.png,100,4,0,4,0,1,,,,,,,,,,
,,,,6101dd552c4f666180515e70,A,2024-07-05_12h08.40.486,Slot Machine Game,2023.1.3,MacIntel,59.88023952,,,,,,,,,,,,,,,,,,,,,,,,,,,510,,,,,,,,,,,,,,,,,,,,,8,2,,,541.0702,5,left,0.539,,0.5,0.3,"[1,3,2]",0.314942279,stimuli/card_100_transparent.png,100,5,0,5,0,1,,,,,,,,,,
,,,,6101dd552c4f666180515e70,A,2024-07-05_12h08.40.486,Slot Machine Game,2023.1.3,MacIntel,59.88023952,,,,,,,,,,,,,,,,,,,,,,,,,,,510,,,,,,,,,,,,,,,,,,,,,8,2,,,542.9369,6,left,0.6187,,1,0.3,"[3,2,1]",0.582426394,stimuli/card_0_transparent.png,0,6,0,6,0,1,,,,,,,,,,
,,,,6101dd552c4f666180515e70,A,2024-07-05_12h08.40.486,Slot Machine Game,2023.1.3,MacIntel,59.88023952,,,,,,,,,,,,,,,,,,,,,,,,,,,510,,,,,,,,,,,,,,,,,,,,,8,2,,,545.3868,7,left,0.7326,,1.5,0.3,"[3,2,1]",0.803227294,stimuli/card_0_transparent.png,0,7,0,7,0,1,,,,,,,,,,
,,,,6101dd552c4f666180515e70,A,2024-07-05_12h08.40.486,Slot Machine Game,2023.1.3,MacIntel,59.88023952,,,,,,,,,,,,,,,,,,,,,,,,,,,520,,,,,,,,,,,,,,,,,,,,,8,2,,,548.4534,8,up,0.0674,,1.5,0.3,"[3,2,1]",0.533175823,stimuli/card_10_transparent.png,10,8,0,8,0,1,,,,,,,,,,
,,,,6101dd552c4f666180515e70,A,2024-07-05_12h08.40.486,Slot Machine Game,2023.1.3,MacIntel,59.88023952,,,,,,,,,,,,,,,,,,,,,,,,,,,620,,,,,,,,,,,,,,,,,,,,,8,2,,,550.8534,9,right,0.0382,,1.5,0.3,"[3,2,1]",0.992102333,stimuli/card_100_transparent.png,100,9,0,9,0,1,,,,,,,,,,
,,,,6101dd552c4f666180515e70,A,2024-07-05_12h08.40.486,Slot Machine Game,2023.1.3,MacIntel,59.88023952,,,,,,,,,,,,,,,,,,,,,,,,,,,720,,,,,,,,,,,,,,,,,,,,,8,2,,,553.22,10,right,0.1219,,1.5,0.3,"[3,2,1]",0.967915411,stimuli/card_100_transparent.png,100,10,0,10,0,1,,,,,,,,,,
,,,,6101dd552c4f666180515e70,A,2024-07-05_12h08.40.486,Slot Machine Game,2023.1.3,MacIntel,59.88023952,,,,,,,,,,,,,,,,,,,,,,,,,,,820,,,,,,,,,,,,,,,,,,,,,8,2,,,555.6699,11,right,0.1196,,0.5,0.3,"[3,2,1]",0.683745748,stimuli/card_100_transparent.png,100,11,0,11,0,1,,,,,,,,,,
,,,,6101dd552c4f666180515e70,A,2024-07-05_12h08.40.486,Slot Machine Game,2023.1.3,MacIntel,59.88023952,,,,,,,,,,,,,,,,,,,,,,,,,,,920,,,,,,,,,,,,,,,,,,,,,8,2,,,557.12,12,right,0.2664,,1,0.3,"[3,2,1]",0.288062525,stimuli/card_100_transparent.png,100,12,0,12,0,1,,,,,,,,,,
,,,,6101dd552c4f666180515e70,A,2024-07-05_12h08.40.486,Slot Machine Game,2023.1.3,MacIntel,59.88023952,,,,,,,,,,,,,,,,,,,,,,,,,,,930,,,,,,,,,,,,,,,,,,,,,8,2,,,559.2194,13,right,0.2642,,1.5,0.3,"[3,2,1]",0.157933799,stimuli/card_10_transparent.png,10,13,0,13,0,1,,,,,,,,,,
,,,,6101dd552c4f666180515e70,A,2024-07-05_12h08.40.486,Slot Machine Game,2023.1.3,MacIntel,59.88023952,,,,,,,,,,,,,,,,,,,,,,,,,,,1030,,,,,,,,,,,,,,,,,,,,,8,2,,,561.7866,14,right,0.4498,,0.5,0.3,"[3,2,1]",0.50029606,stimuli/card_100_transparent.png,100,14,0,14,0,1,,,,,,,,,,
,,,,6101dd552c4f666180515e70,A,2024-07-05_12h08.40.486,Slot Machine Game,2023.1.3,MacIntel,59.88023952,,,,,,,,,,,,,,,,,,,,,,,,,,,,,,,,,,,563.5698,,,,,,,,,,,,,,,,,,,,,,,,,,,,,,,,,"[810,1100,1040,650,720,1130,1040,1030]",7,0,7,0,1,,,,
,,,,6101dd552c4f666180515e70,A,2024-07-05_12h08.40.486,Slot Machine Game,2023.1.3,MacIntel,59.88023952,,,,,,,,,,,,,,,,,,,,,,,,,,,0,,,,,,,,,,,,,,,,,,,,,9,10,"[10,15]","[[3,1,2],[1,3,2]]",568.583,0,left,0.5495,,1.5,0.3,"[3,1,2]",0.420561081,stimuli/card_0_transparent.png,0,0,0,0,0,1,,,,,,,,,,
,,,,6101dd552c4f666180515e70,A,2024-07-05_12h08.40.486,Slot Machine Game,2023.1.3,MacIntel,59.88023952,,,,,,,,,,,,,,,,,,,,,,,,,,,100,,,,,,,,,,,,,,,,,,,,,9,10,,,571.453,1,up,0.2098,,1,0.3,"[3,1,2]",0.326155105,stimuli/card_100_transparent.png,100,1,0,1,0,1,,,,,,,,,,
,,,,6101dd552c4f666180515e70,A,2024-07-05_12h08.40.486,Slot Machine Game,2023.1.3,MacIntel,59.88023952,,,,,,,,,,,,,,,,,,,,,,,,,,,200,,,,,,,,,,,,,,,,,,,,,9,10,,,573.4864,2,up,0.45,,0.5,0.3,"[3,1,2]",0.797684493,stimuli/card_100_transparent.png,100,2,0,2,0,1,,,,,,,,,,
,,,,6101dd552c4f666180515e70,A,2024-07-05_12h08.40.486,Slot Machine Game,2023.1.3,MacIntel,59.88023952,,,,,,,,,,,,,,,,,,,,,,,,,,,210,,,,,,,,,,,,,,,,,,,,,9,10,,,575.2698,3,up,0.233,,1.5,0.3,"[3,1,2]",0.113643229,stimuli/card_10_transparent.png,10,3,0,3,0,1,,,,,,,,,,
,,,,6101dd552c4f666180515e70,A,2024-07-05_12h08.40.486,Slot Machine Game,2023.1.3,MacIntel,59.88023952,,,,,,,,,,,,,,,,,,,,,,,,,,,210,,,,,,,,,,,,,,,,,,,,,9,10,,,577.8364,4,up,0.1835,,1.5,0.3,"[3,1,2]",0.013382395,stimuli/card_0_transparent.png,0,4,0,4,0,1,,,,,,,,,,
,,,,6101dd552c4f666180515e70,A,2024-07-05_12h08.40.486,Slot Machine Game,2023.1.3,MacIntel,59.88023952,,,,,,,,,,,,,,,,,,,,,,,,,,,220,,,,,,,,,,,,,,,,,,,,,9,10,,,580.3531,5,right,0.4494,,0.5,0.3,"[3,1,2]",0.831489669,stimuli/card_10_transparent.png,10,5,0,5,0,1,,,,,,,,,,
,,,,6101dd552c4f666180515e70,A,2024-07-05_12h08.40.486,Slot Machine Game,2023.1.3,MacIntel,59.88023952,,,,,,,,,,,,,,,,,,,,,,,,,,,220,,,,,,,,,,,,,,,,,,,,,9,10,,,582.1364,6,left,0.1011,,0.5,0.3,"[3,1,2]",0.64106515,stimuli/card_0_transparent.png,0,6,0,6,0,1,,,,,,,,,,
,,,,6101dd552c4f666180515e70,A,2024-07-05_12h08.40.486,Slot Machine Game,2023.1.3,MacIntel,59.88023952,,,,,,,,,,,,,,,,,,,,,,,,,,,320,,,,,,,,,,,,,,,,,,,,,9,10,,,583.5698,7,up,0.1177,,1.5,0.3,"[3,1,2]",0.905698612,stimuli/card_100_transparent.png,100,7,0,7,0,1,,,,,,,,,,
,,,,6101dd552c4f666180515e70,A,2024-07-05_12h08.40.486,Slot Machine Game,2023.1.3,MacIntel,59.88023952,,,,,,,,,,,,,,,,,,,,,,,,,,,420,,,,,,,,,,,,,,,,,,,,,9,10,,,586.0198,8,up,0.184,,0.5,0.3,"[3,1,2]",0.465967637,stimuli/card_100_transparent.png,100,8,0,8,0,1,,,,,,,,,,
,,,,6101dd552c4f666180515e70,A,2024-07-05_12h08.40.486,Slot Machine Game,2023.1.3,MacIntel,59.88023952,,,,,,,,,,,,,,,,,,,,,,,,,,,520,,,,,,,,,,,,,,,,,,,,,9,10,,,587.5366,9,up,0.2998,,1.5,0.3,"[3,1,2]",0.370063368,stimuli/card_100_transparent.png,100,9,0,9,0,1,,,,,,,,,,
,,,,6101dd552c4f666180515e70,A,2024-07-05_12h08.40.486,Slot Machine Game,2023.1.3,MacIntel,59.88023952,,,,,,,,,,,,,,,,,,,,,,,,,,,520,,,,,,,,,,,,,,,,,,,,,9,10,,,590.1697,10,up,0.1528,,1,0.3,"[1,3,2]",0.403704927,stimuli/card_0_transparent.png,0,10,0,10,0,1,,,,,,,,,,
,,,,6101dd552c4f666180515e70,A,2024-07-05_12h08.40.486,Slot Machine Game,2023.1.3,MacIntel,59.88023952,,,,,,,,,,,,,,,,,,,,,,,,,,,530,,,,,,,,,,,,,,,,,,,,,9,10,,,592.153,11,up,0.2496,,1,0.3,"[1,3,2]",0.145079361,stimuli/card_10_transparent.png,10,11,0,11,0,1,,,,,,,,,,
,,,,6101dd552c4f666180515e70,A,2024-07-05_12h08.40.486,Slot Machine Game,2023.1.3,MacIntel,59.88023952,,,,,,,,,,,,,,,,,,,,,,,,,,,540,,,,,,,,,,,,,,,,,,,,,9,10,,,594.2364,12,right,0.0119,,1.5,0.3,"[1,3,2]",0.955934425,stimuli/card_10_transparent.png,10,12,0,12,0,1,,,,,,,,,,
,,,,6101dd552c4f666180515e70,A,2024-07-05_12h08.40.486,Slot Machine Game,2023.1.3,MacIntel,59.88023952,,,,,,,,,,,,,,,,,,,,,,,,,,,640,,,,,,,,,,,,,,,,,,,,,9,10,,,596.5698,13,left,0.1167,,1,0.3,"[1,3,2]",0.264155962,stimuli/card_100_transparent.png,100,13,0,13,0,1,,,,,,,,,,
,,,,6101dd552c4f666180515e70,A,2024-07-05_12h08.40.486,Slot Machine Game,2023.1.3,MacIntel,59.88023952,,,,,,,,,,,,,,,,,,,,,,,,,,,740,,,,,,,,,,,,,,,,,,,,,9,10,,,598.5196,14,left,0.4496,,0.5,0.3,"[1,3,2]",0.655293702,stimuli/card_100_transparent.png,100,14,0,14,0,1,,,,,,,,,,
,,,,6101dd552c4f666180515e70,A,2024-07-05_12h08.40.486,Slot Machine Game,2023.1.3,MacIntel,59.88023952,,,,,,,,,,,,,,,,,,,,,,,,,,,,,,,,,,,600.3031,,,,,,,,,,,,,,,,,,,,,,,,,,,,,,,,,"[810,1100,1040,650,720,1130,1040,1030,740]",8,0,8,0,1,,,,
,,,,6101dd552c4f666180515e70,A,2024-07-05_12h08.40.486,Slot Machine Game,2023.1.3,MacIntel,59.88023952,,,,,,,,,,,,,,,,,,,,,,,,,,,100,,,,,,,,,,,,,,,,,,,,,10,3,"[15,15]","[[3,1,2],[3,1,2]]",605.3157,0,up,1.7343,,1,0.3,"[3,1,2]",0.274615951,stimuli/card_100_transparent.png,100,0,0,0,0,1,,,,,,,,,,
,,,,6101dd552c4f666180515e70,A,2024-07-05_12h08.40.486,Slot Machine Game,2023.1.3,MacIntel,59.88023952,,,,,,,,,,,,,,,,,,,,,,,,,,,200,,,,,,,,,,,,,,,,,,,,,10,3,,,608.8695,1,up,0.5832,,1,0.3,"[3,1,2]",0.787091857,stimuli/card_100_transparent.png,100,1,0,1,0,1,,,,,,,,,,
,,,,6101dd552c4f666180515e70,A,2024-07-05_12h08.40.486,Slot Machine Game,2023.1.3,MacIntel,59.88023952,,,,,,,,,,,,,,,,,,,,,,,,,,,300,,,,,,,,,,,,,,,,,,,,,10,3,,,611.2861,2,up,0.4996,,1.5,0.3,"[3,1,2]",0.6169511,stimuli/card_100_transparent.png,100,2,0,2,0,1,,,,,,,,,,
,,,,6101dd552c4f666180515e70,A,2024-07-05_12h08.40.486,Slot Machine Game,2023.1.3,MacIntel,59.88023952,,,,,,,,,,,,,,,,,,,,,,,,,,,400,,,,,,,,,,,,,,,,,,,,,10,3,,,614.1194,3,up,0.4008,,1,0.3,"[3,1,2]",0.498186163,stimuli/card_100_transparent.png,100,3,0,3,0,1,,,,,,,,,,
,,,,6101dd552c4f666180515e70,A,2024-07-05_12h08.40.486,Slot Machine Game,2023.1.3,MacIntel,59.88023952,,,,,,,,,,,,,,,,,,,,,,,,,,,500,,,,,,,,,,,,,,,,,,,,,10,3,,,616.3527,4,up,0.2663,,0.5,0.3,"[3,1,2]",0.669662781,stimuli/card_100_transparent.png,100,4,0,4,0,1,,,,,,,,,,
,,,,6101dd552c4f666180515e70,A,2024-07-05_12h08.40.486,Slot Machine Game,2023.1.3,MacIntel,59.88023952,,,,,,,,,,,,,,,,,,,,,,,,,,,600,,,,,,,,,,,,,,,,,,,,,10,3,,,617.9525,5,up,0.0989,,1.5,0.3,"[3,1,2]",0.911530804,stimuli/card_100_transparent.png,100,5,0,5,0,1,,,,,,,,,,
,,,,6101dd552c4f666180515e70,A,2024-07-05_12h08.40.486,Slot Machine Game,2023.1.3,MacIntel,59.88023952,,,,,,,,,,,,,,,,,,,,,,,,,,,700,,,,,,,,,,,,,,,,,,,,,10,3,,,620.3861,6,up,0.2018,,1,0.3,"[3,1,2]",0.25171175,stimuli/card_100_transparent.png,100,6,0,6,0,1,,,,,,,,,,
,,,,6101dd552c4f666180515e70,A,2024-07-05_12h08.40.486,Slot Machine Game,2023.1.3,MacIntel,59.88023952,,,,,,,,,,,,,,,,,,,,,,,,,,,800,,,,,,,,,,,,,,,,,,,,,10,3,,,622.4193,7,up,0.3699,,0.5,0.3,"[3,1,2]",0.819067074,stimuli/card_100_transparent.png,100,7,0,7,0,1,,,,,,,,,,
,,,,6101dd552c4f666180515e70,A,2024-07-05_12h08.40.486,Slot Machine Game,2023.1.3,MacIntel,59.88023952,,,,,,,,,,,,,,,,,,,,,,,,,,,800,,,,,,,,,,,,,,,,,,,,,10,3,,,624.1194,8,up,0.268,,1.5,0.3,"[3,1,2]",0.061468135,stimuli/card_0_transparent.png,0,8,0,8,0,1,,,,,,,,,,
,,,,6101dd552c4f666180515e70,A,2024-07-05_12h08.40.486,Slot Machine Game,2023.1.3,MacIntel,59.88023952,,,,,,,,,,,,,,,,,,,,,,,,,,,900,,,,,,,,,,,,,,,,,,,,,10,3,,,626.7193,9,up,0.1338,,1.5,0.3,"[3,1,2]",0.860712318,stimuli/card_100_transparent.png,100,9,0,9,0,1,,,,,,,,,,
,,,,6101dd552c4f666180515e70,A,2024-07-05_12h08.40.486,Slot Machine Game,2023.1.3,MacIntel,59.88023952,,,,,,,,,,,,,,,,,,,,,,,,,,,1000,,,,,,,,,,,,,,,,,,,,,10,3,,,629.1858,10,up,0.1663,,1.5,0.3,"[3,1,2]",0.482140953,stimuli/card_100_transparent.png,100,10,0,10,0,1,,,,,,,,,,
,,,,6101dd552c4f666180515e70,A,2024-07-05_12h08.40.486,Slot Machine Game,2023.1.3,MacIntel,59.88023952,,,,,,,,,,,,,,,,,,,,,,,,,,,1100,,,,,,,,,,,,,,,,,,,,,10,3,,,631.6859,11,up,0.8332,,1,0.3,"[3,1,2]",0.412200161,stimuli/card_100_transparent.png,100,11,0,11,0,1,,,,,,,,,,
,,,,6101dd552c4f666180515e70,A,2024-07-05_12h08.40.486,Slot Machine Game,2023.1.3,MacIntel,59.88023952,,,,,,,,,,,,,,,,,,,,,,,,,,,1200,,,,,,,,,,,,,,,,,,,,,10,3,,,634.3526,12,up,0.5041,,0.5,0.3,"[3,1,2]",0.456259292,stimuli/card_100_transparent.png,100,12,0,12,0,1,,,,,,,,,,
,,,,6101dd552c4f666180515e70,A,2024-07-05_12h08.40.486,Slot Machine Game,2023.1.3,MacIntel,59.88023952,,,,,,,,,,,,,,,,,,,,,,,,,,,1300,,,,,,,,,,,,,,,,,,,,,10,3,,,636.1859,13,up,0.3828,,0.5,0.3,"[3,1,2]",0.794509479,stimuli/card_100_transparent.png,100,13,0,13,0,1,,,,,,,,,,
,,,,6101dd552c4f666180515e70,A,2024-07-05_12h08.40.486,Slot Machine Game,2023.1.3,MacIntel,59.88023952,,,,,,,,,,,,,,,,,,,,,,,,,,,1400,,,,,,,,,,,,,,,,,,,,,10,3,,,637.9025,14,up,0.5,,1.5,0.3,"[3,1,2]",0.45211892,stimuli/card_100_transparent.png,100,14,0,14,0,1,,,,,,,,,,
,,,,6101dd552c4f666180515e70,A,2024-07-05_12h08.40.486,Slot Machine Game,2023.1.3,MacIntel,59.88023952,,,,,,,,,,,,,,,,,,,,,,,,,,,,,,,,,,,640.7359,,,,,,,,,,,,,,,,,,,,,,,,,,,,,,,,,"[810,1100,1040,650,720,1130,1040,1030,740,1400]",9,0,9,0,1,,,,
,,,,6101dd552c4f666180515e70,A,2024-07-05_12h08.40.486,Slot Machine Game,2023.1.3,MacIntel,59.88023952,,,,,,,,,,,,,,,,,,,,,,,,,,,,,,,,,,,,,,,,,,,,,,,,,,,,,,,,,,,,,,,,,,,,,,,,,,9,"[810,1100,1040,650,720,1130,1040,1030,740,1400]",10.4,2024-07-05_12h19.30.299
