key_resp_welcome_started,key_resp_welcome_keys,key_resp_welcome_rt,key_resp_welcome_duration,prolific_id,path_id,date,expName,psychopyVersion,OS,frameRate,key_resp_instruction1_started,key_resp_instruction1_keys,key_resp_instruction1_rt,key_resp_instruction1_duration,key_resp_instruction2_started,key_resp_instruction2_keys,key_resp_instruction2_rt,key_resp_instruction2_duration,key_resp_instruction3_started,key_resp_instruction3_keys,key_resp_instruction3_rt,key_resp_instruction3_duration,key_resp_instruction4_started,key_resp_instruction4_keys,key_resp_instruction4_rt,key_resp_instruction4_duration,practiceCondition,practice_reward_seqs,practice_trial_started,practice_trial_num,practice_resp_rt,practice_resp_duration,practice_resp_keys,prac_presentationInterval,"practice_reward_seq: 2,1,3",reward_img,cumulative_reward,trial_reward,practice_trials.thisRepN,practice_trials.thisTrialN,practice_trials.thisN,practice_trials.thisIndex,practice_trials.ran,"practice_reward_seq: 2,3,1",block_break_started,"practice_reward_seq: 1,3,2","practice_reward_seq: 3,1,2",practice_end_time,practice_end_keys,practice_end_rt,practice_end_duration,main_instruction_text_started,block_condition,block_order_indices,main_instruction_keys,main_instruction_rt,main_instruction_duration,block_number,block_assignment,current_condition,main_reward_seqs,main_trial_started,main_trial_num,main_trial_keys,main_trial_rt,main_trial_duration,main_presentationInterval,reward_presentation_time,main_reward_seq,reward_rand_val,main_reward_img,current_reward,main_trials.thisRepN,main_trials.thisTrialN,main_trials.thisN,main_trials.thisIndex,main_trials.ran,block_reward,block.thisRepN,block.thisTrialN,block.thisN,block.thisIndex,block.ran,block_reward.length,block_reward_all,reward_amount,date_end_task
0.0002,space,1.6325,,610847fd403ae0217934a3a1,B,2024-06-26_16h06.40.568,Slot Machine Game,2023.1.3,Win32,59.88023952,,,,,,,,,,,,,,,,,,,,,,,,,,,,,,,,,,,,,,,,,,,,,,,,,,,,,,,,,,,,,,,,,,,,,,,,,,,,,
,,,,610847fd403ae0217934a3a1,B,2024-06-26_16h06.40.568,Slot Machine Game,2023.1.3,Win32,59.88023952,1.6414,space,6.6667,,,,,,,,,,,,,,,,,,,,,,,,,,,,,,,,,,,,,,,,,,,,,,,,,,,,,,,,,,,,,,,,,,,,,,,,,,
,,,,610847fd403ae0217934a3a1,B,2024-06-26_16h06.40.568,Slot Machine Game,2023.1.3,Win32,59.88023952,,,,,8.3241,space,23.4272,,,,,,,,,,,,,,,,,,,,,,,,,,,,,,,,,,,,,,,,,,,,,,,,,,,,,,,,,,,,,,,,,,,,,,
,,,,610847fd403ae0217934a3a1,B,2024-06-26_16h06.40.568,Slot Machine Game,2023.1.3,Win32,59.88023952,,,,,,,,,31.7859,space,9.6129,,,,,,,,,,,,,,,,,,,,,,,,,,,,,,,,,,,,,,,,,,,,,,,,,,,,,,,,,,,,,,,,,,
,,,,610847fd403ae0217934a3a1,B,2024-06-26_16h06.40.568,Slot Machine Game,2023.1.3,Win32,59.88023952,,,,,,,,,,,,,,,,,,,,,,,,,,,,,,,,,,,,,,,,,,,,,,,,,,,,,,,,,,,,,,,,,,,,,,,,,,,,,
,,,,610847fd403ae0217934a3a1,B,2024-06-26_16h06.40.568,Slot Machine Game,2023.1.3,Win32,59.88023952,,,,,,,,,,,,,183.8439,space,3.6487,,,,,,,,,,,,,,,,,,,,,,,,,,,,,,,,,,,,,,,,,,,,,,,,,,,,,,,,,,,,,,
,,,,610847fd403ae0217934a3a1,B,2024-06-26_16h06.40.568,Slot Machine Game,2023.1.3,Win32,59.88023952,,,,,,,,,,,,,,,,,"[9,15]","[[2,1,3],[2,3,1]]",187.5082,0,0.7661,,left,1,,stimuli/card_100_transparent.png,100,100,0,0,0,0,1,,,,,,,,,,,,,,,,,,,,,,,,,,,,,,,,,,,,,,,,,,,,
,,,,610847fd403ae0217934a3a1,B,2024-06-26_16h06.40.568,Slot Machine Game,2023.1.3,Win32,59.88023952,,,,,,,,,,,,,,,,,,,190.1016,1,0.1501,,left,1.5,,stimuli/card_10_transparent.png,110,10,1,0,1,0,1,,,,,,,,,,,,,,,,,,,,,,,,,,,,,,,,,,,,,,,,,,,,
,,,,610847fd403ae0217934a3a1,B,2024-06-26_16h06.40.568,Slot Machine Game,2023.1.3,Win32,59.88023952,,,,,,,,,,,,,,,,,,,192.5565,2,0.0167,,left,1,,stimuli/card_10_transparent.png,120,10,2,0,2,0,1,,,,,,,,,,,,,,,,,,,,,,,,,,,,,,,,,,,,,,,,,,,,
,,,,610847fd403ae0217934a3a1,B,2024-06-26_16h06.40.568,Slot Machine Game,2023.1.3,Win32,59.88023952,,,,,,,,,,,,,,,,,,,194.4021,3,0.1556,,up,1.5,,stimuli/card_100_transparent.png,220,100,3,0,3,0,1,,,,,,,,,,,,,,,,,,,,,,,,,,,,,,,,,,,,,,,,,,,,
,,,,610847fd403ae0217934a3a1,B,2024-06-26_16h06.40.568,Slot Machine Game,2023.1.3,Win32,59.88023952,,,,,,,,,,,,,,,,,,,196.8888,4,2.917,,up,0.5,,stimuli/card_0_transparent.png,220,0,4,0,4,0,1,,,,,,,,,,,,,,,,,,,,,,,,,,,,,,,,,,,,,,,,,,,,
,,,,610847fd403ae0217934a3a1,B,2024-06-26_16h06.40.568,Slot Machine Game,2023.1.3,Win32,59.88023952,,,,,,,,,,,,,,,,,,,201.1183,5,0.1222,,up,0.5,,stimuli/card_100_transparent.png,320,100,5,0,5,0,1,,,,,,,,,,,,,,,,,,,,,,,,,,,,,,,,,,,,,,,,,,,,
,,,,610847fd403ae0217934a3a1,B,2024-06-26_16h06.40.568,Slot Machine Game,2023.1.3,Win32,59.88023952,,,,,,,,,,,,,,,,,,,202.5564,6,1.5539,,up,0.5,,stimuli/card_100_transparent.png,420,100,6,0,6,0,1,,,,,,,,,,,,,,,,,,,,,,,,,,,,,,,,,,,,,,,,,,,,
,,,,610847fd403ae0217934a3a1,B,2024-06-26_16h06.40.568,Slot Machine Game,2023.1.3,Win32,59.88023952,,,,,,,,,,,,,,,,,,,205.4396,7,0.5843,,up,1,,stimuli/card_0_transparent.png,420,0,7,0,7,0,1,,,,,,,,,,,,,,,,,,,,,,,,,,,,,,,,,,,,,,,,,,,,
,,,,610847fd403ae0217934a3a1,B,2024-06-26_16h06.40.568,Slot Machine Game,2023.1.3,Win32,59.88023952,,,,,,,,,,,,,,,,,,,207.8521,8,0.0175,,up,1,,stimuli/card_100_transparent.png,520,100,8,0,8,0,1,,,,,,,,,,,,,,,,,,,,,,,,,,,,,,,,,,,,,,,,,,,,
,,,,610847fd403ae0217934a3a1,B,2024-06-26_16h06.40.568,Slot Machine Game,2023.1.3,Win32,59.88023952,,,,,,,,,,,,,,,,,,,209.6853,9,1.7327,,up,1.5,,stimuli/card_0_transparent.png,520,0,9,0,9,0,1,,,,,,,,,,,,,,,,,,,,,,,,,,,,,,,,,,,,,,,,,,,,
,,,,610847fd403ae0217934a3a1,B,2024-06-26_16h06.40.568,Slot Machine Game,2023.1.3,Win32,59.88023952,,,,,,,,,,,,,,,,,,,213.7527,10,0.1325,,up,1.5,,stimuli/card_0_transparent.png,520,0,10,0,10,0,1,,,,,,,,,,,,,,,,,,,,,,,,,,,,,,,,,,,,,,,,,,,,
,,,,610847fd403ae0217934a3a1,B,2024-06-26_16h06.40.568,Slot Machine Game,2023.1.3,Win32,59.88023952,,,,,,,,,,,,,,,,,,,216.2065,11,0.0171,,right,0.5,,stimuli/card_0_transparent.png,520,0,11,0,11,0,1,,,,,,,,,,,,,,,,,,,,,,,,,,,,,,,,,,,,,,,,,,,,
,,,,610847fd403ae0217934a3a1,B,2024-06-26_16h06.40.568,Slot Machine Game,2023.1.3,Win32,59.88023952,,,,,,,,,,,,,,,,,,,217.5387,12,0.9309,,right,0.5,,stimuli/card_100_transparent.png,620,100,12,0,12,0,1,,,,,,,,,,,,,,,,,,,,,,,,,,,,,,,,,,,,,,,,,,,,
,,,,610847fd403ae0217934a3a1,B,2024-06-26_16h06.40.568,Slot Machine Game,2023.1.3,Win32,59.88023952,,,,,,,,,,,,,,,,,,,219.79,13,1.5911,,right,1,,stimuli/card_100_transparent.png,720,100,13,0,13,0,1,,,,,,,,,,,,,,,,,,,,,,,,,,,,,,,,,,,,,,,,,,,,
,,,,610847fd403ae0217934a3a1,B,2024-06-26_16h06.40.568,Slot Machine Game,2023.1.3,Win32,59.88023952,,,,,,,,,,,,,,,,,,,223.2064,14,0.5507,,right,0.5,,stimuli/card_100_transparent.png,820,100,14,0,14,0,1,,,,,,,,,,,,,,,,,,,,,,,,,,,,,,,,,,,,,,,,,,,,
,,,,610847fd403ae0217934a3a1,B,2024-06-26_16h06.40.568,Slot Machine Game,2023.1.3,Win32,59.88023952,,,,,,,,,,,,,,,,,"[6,15]","[[1,3,2],[3,1,2]]",230.0913,0,2.2803,,left,0.5,,stimuli/card_100_transparent.png,100,100,0,0,0,0,1,,225.0914,,,,,,,,,,,,,,,,,,,,,,,,,,,,,,,,,,,,,,,,,,
,,,,610847fd403ae0217934a3a1,B,2024-06-26_16h06.40.568,Slot Machine Game,2023.1.3,Win32,59.88023952,,,,,,,,,,,,,,,,,,,233.6901,1,0.0309,,left,0.5,,stimuli/card_100_transparent.png,200,100,1,0,1,0,1,,,,,,,,,,,,,,,,,,,,,,,,,,,,,,,,,,,,,,,,,,,,
,,,,610847fd403ae0217934a3a1,B,2024-06-26_16h06.40.568,Slot Machine Game,2023.1.3,Win32,59.88023952,,,,,,,,,,,,,,,,,,,235.0187,2,0.3658,,left,1.5,,stimuli/card_100_transparent.png,300,100,2,0,2,0,1,,,,,,,,,,,,,,,,,,,,,,,,,,,,,,,,,,,,,,,,,,,,
,,,,610847fd403ae0217934a3a1,B,2024-06-26_16h06.40.568,Slot Machine Game,2023.1.3,Win32,59.88023952,,,,,,,,,,,,,,,,,,,237.7035,3,0.1473,,left,1.5,,stimuli/card_100_transparent.png,400,100,3,0,3,0,1,,,,,,,,,,,,,,,,,,,,,,,,,,,,,,,,,,,,,,,,,,,,
,,,,610847fd403ae0217934a3a1,B,2024-06-26_16h06.40.568,Slot Machine Game,2023.1.3,Win32,59.88023952,,,,,,,,,,,,,,,,,,,240.1731,4,0.3524,,left,0.5,,stimuli/card_100_transparent.png,500,100,4,0,4,0,1,,,,,,,,,,,,,,,,,,,,,,,,,,,,,,,,,,,,,,,,,,,,
,,,,610847fd403ae0217934a3a1,B,2024-06-26_16h06.40.568,Slot Machine Game,2023.1.3,Win32,59.88023952,,,,,,,,,,,,,,,,,,,241.8687,5,0.3836,,left,1,,stimuli/card_10_transparent.png,510,10,5,0,5,0,1,,,,,,,,,,,,,,,,,,,,,,,,,,,,,,,,,,,,,,,,,,,,
,,,,610847fd403ae0217934a3a1,B,2024-06-26_16h06.40.568,Slot Machine Game,2023.1.3,Win32,59.88023952,,,,,,,,,,,,,,,,,,,244.0852,6,0.2731,,left,0.5,,stimuli/card_0_transparent.png,510,0,6,0,6,0,1,,,,,,,,,,,,,,,,,,,,,,,,,,,,,,,,,,,,,,,,,,,,
,,,,610847fd403ae0217934a3a1,B,2024-06-26_16h06.40.568,Slot Machine Game,2023.1.3,Win32,59.88023952,,,,,,,,,,,,,,,,,,,245.6731,7,0.6045,,up,0.5,,stimuli/card_10_transparent.png,520,10,7,0,7,0,1,,,,,,,,,,,,,,,,,,,,,,,,,,,,,,,,,,,,,,,,,,,,
,,,,610847fd403ae0217934a3a1,B,2024-06-26_16h06.40.568,Slot Machine Game,2023.1.3,Win32,59.88023952,,,,,,,,,,,,,,,,,,,247.6015,8,0.6006,,up,1,,stimuli/card_100_transparent.png,620,100,8,0,8,0,1,,,,,,,,,,,,,,,,,,,,,,,,,,,,,,,,,,,,,,,,,,,,
,,,,610847fd403ae0217934a3a1,B,2024-06-26_16h06.40.568,Slot Machine Game,2023.1.3,Win32,59.88023952,,,,,,,,,,,,,,,,,,,250.0228,9,0.3506,,up,1,,stimuli/card_100_transparent.png,720,100,9,0,9,0,1,,,,,,,,,,,,,,,,,,,,,,,,,,,,,,,,,,,,,,,,,,,,
,,,,610847fd403ae0217934a3a1,B,2024-06-26_16h06.40.568,Slot Machine Game,2023.1.3,Win32,59.88023952,,,,,,,,,,,,,,,,,,,252.2063,10,0.6341,,up,0.5,,stimuli/card_100_transparent.png,820,100,10,0,10,0,1,,,,,,,,,,,,,,,,,,,,,,,,,,,,,,,,,,,,,,,,,,,,
,,,,610847fd403ae0217934a3a1,B,2024-06-26_16h06.40.568,Slot Machine Game,2023.1.3,Win32,59.88023952,,,,,,,,,,,,,,,,,,,254.1729,11,0.5049,,up,1.5,,stimuli/card_10_transparent.png,830,10,11,0,11,0,1,,,,,,,,,,,,,,,,,,,,,,,,,,,,,,,,,,,,,,,,,,,,
,,,,610847fd403ae0217934a3a1,B,2024-06-26_16h06.40.568,Slot Machine Game,2023.1.3,Win32,59.88023952,,,,,,,,,,,,,,,,,,,257.0199,12,0.2669,,up,0.5,,stimuli/card_100_transparent.png,930,100,12,0,12,0,1,,,,,,,,,,,,,,,,,,,,,,,,,,,,,,,,,,,,,,,,,,,,
,,,,610847fd403ae0217934a3a1,B,2024-06-26_16h06.40.568,Slot Machine Game,2023.1.3,Win32,59.88023952,,,,,,,,,,,,,,,,,,,258.6229,13,0.4844,,up,0.5,,stimuli/card_100_transparent.png,1030,100,13,0,13,0,1,,,,,,,,,,,,,,,,,,,,,,,,,,,,,,,,,,,,,,,,,,,,
,,,,610847fd403ae0217934a3a1,B,2024-06-26_16h06.40.568,Slot Machine Game,2023.1.3,Win32,59.88023952,,,,,,,,,,,,,,,,,,,260.4233,14,0.3346,,up,1.5,,stimuli/card_100_transparent.png,1130,100,14,0,14,0,1,,,,,,,,,,,,,,,,,,,,,,,,,,,,,,,,,,,,,,,,,,,,
,,,,610847fd403ae0217934a3a1,B,2024-06-26_16h06.40.568,Slot Machine Game,2023.1.3,Win32,59.88023952,,,,,,,,,,,,,,,,,,,,,,,,,,,,,,,,,,,263.0852,,,268.0732,space,1.7846,,,,,,,,,,,,,,,,,,,,,,,,,,,,,,,,,,,,,
,,,,610847fd403ae0217934a3a1,B,2024-06-26_16h06.40.568,Slot Machine Game,2023.1.3,Win32,59.88023952,,,,,,,,,,,,,,,,,,,,,,,,,,,,,,,,,,,,,,,,,,269.8864,3,"[0,4,6,3,5,7,8,1,9,2]",space,1.4503,,,,,,,,,,,,,,,,,,,,,,,,,,,,,,,
,,,,610847fd403ae0217934a3a1,B,2024-06-26_16h06.40.568,Slot Machine Game,2023.1.3,Win32,59.88023952,,,,,,,,,,,,,,,,,,,,,,,,,,,10,,,,,,,,,,,,,,,,,,,,,1,1,"[12,15]","[[2,1,3],[2,3,1]]",271.3762,0,left,0.1595,,1.5,0.3,"[2,1,3]",0.905782873,stimuli/card_10_transparent.png,10,0,0,0,0,1,,,,,,,,,,
,,,,610847fd403ae0217934a3a1,B,2024-06-26_16h06.40.568,Slot Machine Game,2023.1.3,Win32,59.88023952,,,,,,,,,,,,,,,,,,,,,,,,,,,110,,,,,,,,,,,,,,,,,,,,,1,1,,,273.8691,1,left,0.1842,,0.5,0.3,"[2,1,3]",0.114290023,stimuli/card_100_transparent.png,100,1,0,1,0,1,,,,,,,,,,
,,,,610847fd403ae0217934a3a1,B,2024-06-26_16h06.40.568,Slot Machine Game,2023.1.3,Win32,59.88023952,,,,,,,,,,,,,,,,,,,,,,,,,,,120,,,,,,,,,,,,,,,,,,,,,1,1,,,275.3569,2,left,0.7182,,1.5,0.3,"[2,1,3]",0.213347407,stimuli/card_10_transparent.png,10,2,0,2,0,1,,,,,,,,,,
,,,,610847fd403ae0217934a3a1,B,2024-06-26_16h06.40.568,Slot Machine Game,2023.1.3,Win32,59.88023952,,,,,,,,,,,,,,,,,,,,,,,,,,,130,,,,,,,,,,,,,,,,,,,,,1,1,,,278.4065,3,left,0.3866,,1,0.3,"[2,1,3]",0.350934638,stimuli/card_10_transparent.png,10,3,0,3,0,1,,,,,,,,,,
,,,,610847fd403ae0217934a3a1,B,2024-06-26_16h06.40.568,Slot Machine Game,2023.1.3,Win32,59.88023952,,,,,,,,,,,,,,,,,,,,,,,,,,,230,,,,,,,,,,,,,,,,,,,,,1,1,,,280.6065,4,up,0.4334,,1.5,0.3,"[2,1,3]",0.21087927,stimuli/card_100_transparent.png,100,4,0,4,0,1,,,,,,,,,,
,,,,610847fd403ae0217934a3a1,B,2024-06-26_16h06.40.568,Slot Machine Game,2023.1.3,Win32,59.88023952,,,,,,,,,,,,,,,,,,,,,,,,,,,330,,,,,,,,,,,,,,,,,,,,,1,1,,,283.3567,5,up,0.2009,,0.5,0.3,"[2,1,3]",0.712641079,stimuli/card_100_transparent.png,100,5,0,5,0,1,,,,,,,,,,
,,,,610847fd403ae0217934a3a1,B,2024-06-26_16h06.40.568,Slot Machine Game,2023.1.3,Win32,59.88023952,,,,,,,,,,,,,,,,,,,,,,,,,,,430,,,,,,,,,,,,,,,,,,,,,1,1,,,284.9055,6,up,0.186,,1.5,0.3,"[2,1,3]",0.210039879,stimuli/card_100_transparent.png,100,6,0,6,0,1,,,,,,,,,,
,,,,610847fd403ae0217934a3a1,B,2024-06-26_16h06.40.568,Slot Machine Game,2023.1.3,Win32,59.88023952,,,,,,,,,,,,,,,,,,,,,,,,,,,530,,,,,,,,,,,,,,,,,,,,,1,1,,,287.3901,7,up,0.1162,,1.5,0.3,"[2,1,3]",0.672295137,stimuli/card_100_transparent.png,100,7,0,7,0,1,,,,,,,,,,
,,,,610847fd403ae0217934a3a1,B,2024-06-26_16h06.40.568,Slot Machine Game,2023.1.3,Win32,59.88023952,,,,,,,,,,,,,,,,,,,,,,,,,,,630,,,,,,,,,,,,,,,,,,,,,1,1,,,289.8234,8,up,0.4008,,1,0.3,"[2,1,3]",0.354853438,stimuli/card_100_transparent.png,100,8,0,8,0,1,,,,,,,,,,
,,,,610847fd403ae0217934a3a1,B,2024-06-26_16h06.40.568,Slot Machine Game,2023.1.3,Win32,59.88023952,,,,,,,,,,,,,,,,,,,,,,,,,,,730,,,,,,,,,,,,,,,,,,,,,1,1,,,292.0518,9,up,0.0384,,1.5,0.3,"[2,1,3]",0.647446528,stimuli/card_100_transparent.png,100,9,0,9,0,1,,,,,,,,,,
,,,,610847fd403ae0217934a3a1,B,2024-06-26_16h06.40.568,Slot Machine Game,2023.1.3,Win32,59.88023952,,,,,,,,,,,,,,,,,,,,,,,,,,,830,,,,,,,,,,,,,,,,,,,,,1,1,,,294.4017,10,up,0.2674,,1,0.3,"[2,1,3]",0.331518117,stimuli/card_100_transparent.png,100,10,0,10,0,1,,,,,,,,,,
,,,,610847fd403ae0217934a3a1,B,2024-06-26_16h06.40.568,Slot Machine Game,2023.1.3,Win32,59.88023952,,,,,,,,,,,,,,,,,,,,,,,,,,,930,,,,,,,,,,,,,,,,,,,,,1,1,,,296.4888,11,up,0.1665,,1.5,0.3,"[2,1,3]",0.623655216,stimuli/card_100_transparent.png,100,11,0,11,0,1,,,,,,,,,,
,,,,610847fd403ae0217934a3a1,B,2024-06-26_16h06.40.568,Slot Machine Game,2023.1.3,Win32,59.88023952,,,,,,,,,,,,,,,,,,,,,,,,,,,930,,,,,,,,,,,,,,,,,,,,,1,1,,,298.9566,12,up,0.0503,,1,0.3,"[2,3,1]",0.916119687,stimuli/card_0_transparent.png,0,12,0,12,0,1,,,,,,,,,,
,,,,610847fd403ae0217934a3a1,B,2024-06-26_16h06.40.568,Slot Machine Game,2023.1.3,Win32,59.88023952,,,,,,,,,,,,,,,,,,,,,,,,,,,930,,,,,,,,,,,,,,,,,,,,,1,1,,,300.8225,13,up,0.2006,,0.5,0.3,"[2,3,1]",0.54168013,stimuli/card_0_transparent.png,0,13,0,13,0,1,,,,,,,,,,
,,,,610847fd403ae0217934a3a1,B,2024-06-26_16h06.40.568,Slot Machine Game,2023.1.3,Win32,59.88023952,,,,,,,,,,,,,,,,,,,,,,,,,,,930,,,,,,,,,,,,,,,,,,,,,1,1,,,302.3236,14,right,0.3667,,1.5,0.3,"[2,3,1]",0.019134904,stimuli/card_0_transparent.png,0,14,0,14,0,1,,,,,,,,,,
,,,,610847fd403ae0217934a3a1,B,2024-06-26_16h06.40.568,Slot Machine Game,2023.1.3,Win32,59.88023952,,,,,,,,,,,,,,,,,,,,,,,,,,,,,,,,,,,305.0187,,,,,,,,,,,,,,,,,,,,,,,,,,,,,,,,,[930],0,0,0,0,1,,,,
,,,,610847fd403ae0217934a3a1,B,2024-06-26_16h06.40.568,Slot Machine Game,2023.1.3,Win32,59.88023952,,,,,,,,,,,,,,,,,,,,,,,,,,,100,,,,,,,,,,,,,,,,,,,,,2,5,"[5,15]","[[1,2,3],[3,1,2]]",310.0244,0,left,0.3836,,1,0.3,"[1,2,3]",0.992589756,stimuli/card_100_transparent.png,100,0,0,0,0,1,,,,,,,,,,
,,,,610847fd403ae0217934a3a1,B,2024-06-26_16h06.40.568,Slot Machine Game,2023.1.3,Win32,59.88023952,,,,,,,,,,,,,,,,,,,,,,,,,,,200,,,,,,,,,,,,,,,,,,,,,2,5,,,312.2352,1,left,0.3,,1.5,0.3,"[1,2,3]",0.518481467,stimuli/card_100_transparent.png,100,1,0,1,0,1,,,,,,,,,,
,,,,610847fd403ae0217934a3a1,B,2024-06-26_16h06.40.568,Slot Machine Game,2023.1.3,Win32,59.88023952,,,,,,,,,,,,,,,,,,,,,,,,,,,300,,,,,,,,,,,,,,,,,,,,,2,5,,,314.8399,2,left,0.1508,,0.5,0.3,"[1,2,3]",0.708206903,stimuli/card_100_transparent.png,100,2,0,2,0,1,,,,,,,,,,
,,,,610847fd403ae0217934a3a1,B,2024-06-26_16h06.40.568,Slot Machine Game,2023.1.3,Win32,59.88023952,,,,,,,,,,,,,,,,,,,,,,,,,,,400,,,,,,,,,,,,,,,,,,,,,2,5,,,316.3234,3,left,0.1489,,0.5,0.3,"[1,2,3]",0.998284513,stimuli/card_100_transparent.png,100,3,0,3,0,1,,,,,,,,,,
,,,,610847fd403ae0217934a3a1,B,2024-06-26_16h06.40.568,Slot Machine Game,2023.1.3,Win32,59.88023952,,,,,,,,,,,,,,,,,,,,,,,,,,,500,,,,,,,,,,,,,,,,,,,,,2,5,,,317.8066,4,left,0.1001,,1,0.3,"[1,2,3]",0.934652507,stimuli/card_100_transparent.png,100,4,0,4,0,1,,,,,,,,,,
,,,,610847fd403ae0217934a3a1,B,2024-06-26_16h06.40.568,Slot Machine Game,2023.1.3,Win32,59.88023952,,,,,,,,,,,,,,,,,,,,,,,,,,,500,,,,,,,,,,,,,,,,,,,,,2,5,,,319.7068,5,left,0.4584,,1.5,0.3,"[3,1,2]",0.427468338,stimuli/card_0_transparent.png,0,5,0,5,0,1,,,,,,,,,,
,,,,610847fd403ae0217934a3a1,B,2024-06-26_16h06.40.568,Slot Machine Game,2023.1.3,Win32,59.88023952,,,,,,,,,,,,,,,,,,,,,,,,,,,500,,,,,,,,,,,,,,,,,,,,,2,5,,,322.4889,6,left,0.3514,,0.5,0.3,"[3,1,2]",0.346773388,stimuli/card_0_transparent.png,0,6,0,6,0,1,,,,,,,,,,
,,,,610847fd403ae0217934a3a1,B,2024-06-26_16h06.40.568,Slot Machine Game,2023.1.3,Win32,59.88023952,,,,,,,,,,,,,,,,,,,,,,,,,,,500,,,,,,,,,,,,,,,,,,,,,2,5,,,324.1525,7,up,0.0734,,0.5,0.3,"[3,1,2]",0.008041666,stimuli/card_0_transparent.png,0,7,0,7,0,1,,,,,,,,,,
,,,,610847fd403ae0217934a3a1,B,2024-06-26_16h06.40.568,Slot Machine Game,2023.1.3,Win32,59.88023952,,,,,,,,,,,,,,,,,,,,,,,,,,,600,,,,,,,,,,,,,,,,,,,,,2,5,,,325.5352,8,up,0.0792,,1.5,0.3,"[3,1,2]",0.741397551,stimuli/card_100_transparent.png,100,8,0,8,0,1,,,,,,,,,,
,,,,610847fd403ae0217934a3a1,B,2024-06-26_16h06.40.568,Slot Machine Game,2023.1.3,Win32,59.88023952,,,,,,,,,,,,,,,,,,,,,,,,,,,610,,,,,,,,,,,,,,,,,,,,,2,5,,,327.9569,9,up,0.2165,,1,0.3,"[3,1,2]",0.153411961,stimuli/card_10_transparent.png,10,9,0,9,0,1,,,,,,,,,,
,,,,610847fd403ae0217934a3a1,B,2024-06-26_16h06.40.568,Slot Machine Game,2023.1.3,Win32,59.88023952,,,,,,,,,,,,,,,,,,,,,,,,,,,620,,,,,,,,,,,,,,,,,,,,,2,5,,,330.0058,10,right,0.5509,,1.5,0.3,"[3,1,2]",0.511724624,stimuli/card_10_transparent.png,10,10,0,10,0,1,,,,,,,,,,
,,,,610847fd403ae0217934a3a1,B,2024-06-26_16h06.40.568,Slot Machine Game,2023.1.3,Win32,59.88023952,,,,,,,,,,,,,,,,,,,,,,,,,,,630,,,,,,,,,,,,,,,,,,,,,2,5,,,332.902,11,right,0.3015,,0.5,0.3,"[3,1,2]",0.813098319,stimuli/card_10_transparent.png,10,11,0,11,0,1,,,,,,,,,,
,,,,610847fd403ae0217934a3a1,B,2024-06-26_16h06.40.568,Slot Machine Game,2023.1.3,Win32,59.88023952,,,,,,,,,,,,,,,,,,,,,,,,,,,640,,,,,,,,,,,,,,,,,,,,,2,5,,,334.5223,12,right,0.199,,1.5,0.3,"[3,1,2]",0.248767063,stimuli/card_10_transparent.png,10,12,0,12,0,1,,,,,,,,,,
,,,,610847fd403ae0217934a3a1,B,2024-06-26_16h06.40.568,Slot Machine Game,2023.1.3,Win32,59.88023952,,,,,,,,,,,,,,,,,,,,,,,,,,,640,,,,,,,,,,,,,,,,,,,,,2,5,,,337.0398,13,left,1.9664,,1.5,0.3,"[3,1,2]",0.426265588,stimuli/card_0_transparent.png,0,13,0,13,0,1,,,,,,,,,,
,,,,610847fd403ae0217934a3a1,B,2024-06-26_16h06.40.568,Slot Machine Game,2023.1.3,Win32,59.88023952,,,,,,,,,,,,,,,,,,,,,,,,,,,640,,,,,,,,,,,,,,,,,,,,,2,5,,,341.3184,14,left,0.2001,,0.5,0.3,"[3,1,2]",0.565403307,stimuli/card_0_transparent.png,0,14,0,14,0,1,,,,,,,,,,
,,,,610847fd403ae0217934a3a1,B,2024-06-26_16h06.40.568,Slot Machine Game,2023.1.3,Win32,59.88023952,,,,,,,,,,,,,,,,,,,,,,,,,,,,,,,,,,,342.8236,,,,,,,,,,,,,,,,,,,,,,,,,,,,,,,,,"[930,640]",1,0,1,0,1,,,,
,,,,610847fd403ae0217934a3a1,B,2024-06-26_16h06.40.568,Slot Machine Game,2023.1.3,Win32,59.88023952,,,,,,,,,,,,,,,,,,,,,,,,,,,100,,,,,,,,,,,,,,,,,,,,,3,7,"[9,15]","[[1,3,2],[2,3,1]]",347.8276,0,left,1.9668,,1,0.3,"[1,3,2]",0.590609735,stimuli/card_100_transparent.png,100,0,0,0,0,1,,,,,,,,,,
,,,,610847fd403ae0217934a3a1,B,2024-06-26_16h06.40.568,Slot Machine Game,2023.1.3,Win32,59.88023952,,,,,,,,,,,,,,,,,,,,,,,,,,,200,,,,,,,,,,,,,,,,,,,,,3,7,,,351.6222,1,left,0.0835,,1,0.3,"[1,3,2]",0.595547246,stimuli/card_100_transparent.png,100,1,0,1,0,1,,,,,,,,,,
,,,,610847fd403ae0217934a3a1,B,2024-06-26_16h06.40.568,Slot Machine Game,2023.1.3,Win32,59.88023952,,,,,,,,,,,,,,,,,,,,,,,,,,,300,,,,,,,,,,,,,,,,,,,,,3,7,,,353.5233,2,left,0.0289,,0.5,0.3,"[1,3,2]",0.714581182,stimuli/card_100_transparent.png,100,2,0,2,0,1,,,,,,,,,,
,,,,610847fd403ae0217934a3a1,B,2024-06-26_16h06.40.568,Slot Machine Game,2023.1.3,Win32,59.88023952,,,,,,,,,,,,,,,,,,,,,,,,,,,400,,,,,,,,,,,,,,,,,,,,,3,7,,,354.8714,3,left,0.0669,,0.5,0.3,"[1,3,2]",0.298209446,stimuli/card_100_transparent.png,100,3,0,3,0,1,,,,,,,,,,
,,,,610847fd403ae0217934a3a1,B,2024-06-26_16h06.40.568,Slot Machine Game,2023.1.3,Win32,59.88023952,,,,,,,,,,,,,,,,,,,,,,,,,,,500,,,,,,,,,,,,,,,,,,,,,3,7,,,356.2687,4,left,0.0397,,1.5,0.3,"[1,3,2]",0.739953668,stimuli/card_100_transparent.png,100,4,0,4,0,1,,,,,,,,,,
,,,,610847fd403ae0217934a3a1,B,2024-06-26_16h06.40.568,Slot Machine Game,2023.1.3,Win32,59.88023952,,,,,,,,,,,,,,,,,,,,,,,,,,,600,,,,,,,,,,,,,,,,,,,,,3,7,,,358.6248,5,left,0.0005,,1,0.3,"[1,3,2]",0.581693013,stimuli/card_100_transparent.png,100,5,0,5,0,1,,,,,,,,,,
,,,,610847fd403ae0217934a3a1,B,2024-06-26_16h06.40.568,Slot Machine Game,2023.1.3,Win32,59.88023952,,,,,,,,,,,,,,,,,,,,,,,,,,,600,,,,,,,,,,,,,,,,,,,,,3,7,,,360.4561,6,left,0.4016,,1,0.3,"[1,3,2]",0.026112552,stimuli/card_0_transparent.png,0,6,0,6,0,1,,,,,,,,,,
,,,,610847fd403ae0217934a3a1,B,2024-06-26_16h06.40.568,Slot Machine Game,2023.1.3,Win32,59.88023952,,,,,,,,,,,,,,,,,,,,,,,,,,,600,,,,,,,,,,,,,,,,,,,,,3,7,,,362.6581,7,left,0.4303,,1.5,0.3,"[1,3,2]",0.087555281,stimuli/card_0_transparent.png,0,7,0,7,0,1,,,,,,,,,,
,,,,610847fd403ae0217934a3a1,B,2024-06-26_16h06.40.568,Slot Machine Game,2023.1.3,Win32,59.88023952,,,,,,,,,,,,,,,,,,,,,,,,,,,600,,,,,,,,,,,,,,,,,,,,,3,7,,,365.4064,8,up,0.3671,,1,0.3,"[1,3,2]",0.54211437,stimuli/card_0_transparent.png,0,8,0,8,0,1,,,,,,,,,,
,,,,610847fd403ae0217934a3a1,B,2024-06-26_16h06.40.568,Slot Machine Game,2023.1.3,Win32,59.88023952,,,,,,,,,,,,,,,,,,,,,,,,,,,600,,,,,,,,,,,,,,,,,,,,,3,7,,,367.6016,9,up,0.0541,,0.5,0.3,"[2,3,1]",0.607719937,stimuli/card_0_transparent.png,0,9,0,9,0,1,,,,,,,,,,
,,,,610847fd403ae0217934a3a1,B,2024-06-26_16h06.40.568,Slot Machine Game,2023.1.3,Win32,59.88023952,,,,,,,,,,,,,,,,,,,,,,,,,,,700,,,,,,,,,,,,,,,,,,,,,3,7,,,368.99,10,right,0.1977,,0.5,0.3,"[2,3,1]",0.792349144,stimuli/card_100_transparent.png,100,10,0,10,0,1,,,,,,,,,,
,,,,610847fd403ae0217934a3a1,B,2024-06-26_16h06.40.568,Slot Machine Game,2023.1.3,Win32,59.88023952,,,,,,,,,,,,,,,,,,,,,,,,,,,800,,,,,,,,,,,,,,,,,,,,,3,7,,,370.5072,11,right,0.1855,,1,0.3,"[2,3,1]",0.720240962,stimuli/card_100_transparent.png,100,11,0,11,0,1,,,,,,,,,,
,,,,610847fd403ae0217934a3a1,B,2024-06-26_16h06.40.568,Slot Machine Game,2023.1.3,Win32,59.88023952,,,,,,,,,,,,,,,,,,,,,,,,,,,900,,,,,,,,,,,,,,,,,,,,,3,7,,,372.5395,12,right,0.1052,,1,0.3,"[2,3,1]",0.619645152,stimuli/card_100_transparent.png,100,12,0,12,0,1,,,,,,,,,,
,,,,610847fd403ae0217934a3a1,B,2024-06-26_16h06.40.568,Slot Machine Game,2023.1.3,Win32,59.88023952,,,,,,,,,,,,,,,,,,,,,,,,,,,1000,,,,,,,,,,,,,,,,,,,,,3,7,,,374.4745,13,right,0.1241,,0.5,0.3,"[2,3,1]",0.539543876,stimuli/card_100_transparent.png,100,13,0,13,0,1,,,,,,,,,,
,,,,610847fd403ae0217934a3a1,B,2024-06-26_16h06.40.568,Slot Machine Game,2023.1.3,Win32,59.88023952,,,,,,,,,,,,,,,,,,,,,,,,,,,1100,,,,,,,,,,,,,,,,,,,,,3,7,,,375.9021,14,right,0.0745,,1.5,0.3,"[2,3,1]",0.28601545,stimuli/card_100_transparent.png,100,14,0,14,0,1,,,,,,,,,,
,,,,610847fd403ae0217934a3a1,B,2024-06-26_16h06.40.568,Slot Machine Game,2023.1.3,Win32,59.88023952,,,,,,,,,,,,,,,,,,,,,,,,,,,,,,,,,,,378.3025,,,,,,,,,,,,,,,,,,,,,,,,,,,,,,,,,"[930,640,1100]",2,0,2,0,1,,,,
,,,,610847fd403ae0217934a3a1,B,2024-06-26_16h06.40.568,Slot Machine Game,2023.1.3,Win32,59.88023952,,,,,,,,,,,,,,,,,,,,,,,,,,,10,,,,,,,,,,,,,,,,,,,,,4,4,"[7,15]","[[2,3,1],[1,2,3]]",383.308,0,left,0.5343,,1.5,0.3,"[2,3,1]",0.685122142,stimuli/card_10_transparent.png,10,0,0,0,0,1,,,,,,,,,,
,,,,610847fd403ae0217934a3a1,B,2024-06-26_16h06.40.568,Slot Machine Game,2023.1.3,Win32,59.88023952,,,,,,,,,,,,,,,,,,,,,,,,,,,20,,,,,,,,,,,,,,,,,,,,,4,4,,,386.1683,1,left,0.1463,,1,0.3,"[2,3,1]",0.494614802,stimuli/card_10_transparent.png,10,1,0,1,0,1,,,,,,,,,,
,,,,610847fd403ae0217934a3a1,B,2024-06-26_16h06.40.568,Slot Machine Game,2023.1.3,Win32,59.88023952,,,,,,,,,,,,,,,,,,,,,,,,,,,20,,,,,,,,,,,,,,,,,,,,,4,4,,,388.1186,2,up,0.2434,,1,0.3,"[2,3,1]",0.48726004,stimuli/card_0_transparent.png,0,2,0,2,0,1,,,,,,,,,,
,,,,610847fd403ae0217934a3a1,B,2024-06-26_16h06.40.568,Slot Machine Game,2023.1.3,Win32,59.88023952,,,,,,,,,,,,,,,,,,,,,,,,,,,20,,,,,,,,,,,,,,,,,,,,,4,4,,,390.1679,3,up,0.0482,,1.5,0.3,"[2,3,1]",0.701834581,stimuli/card_0_transparent.png,0,3,0,3,0,1,,,,,,,,,,
,,,,610847fd403ae0217934a3a1,B,2024-06-26_16h06.40.568,Slot Machine Game,2023.1.3,Win32,59.88023952,,,,,,,,,,,,,,,,,,,,,,,,,,,120,,,,,,,,,,,,,,,,,,,,,4,4,,,392.5235,4,right,0.1219,,1,0.3,"[2,3,1]",0.610068644,stimuli/card_100_transparent.png,100,4,0,4,0,1,,,,,,,,,,
,,,,610847fd403ae0217934a3a1,B,2024-06-26_16h06.40.568,Slot Machine Game,2023.1.3,Win32,59.88023952,,,,,,,,,,,,,,,,,,,,,,,,,,,120,,,,,,,,,,,,,,,,,,,,,4,4,,,394.4693,5,right,0.4172,,1.5,0.3,"[2,3,1]",0.019488623,stimuli/card_0_transparent.png,0,5,0,5,0,1,,,,,,,,,,
,,,,610847fd403ae0217934a3a1,B,2024-06-26_16h06.40.568,Slot Machine Game,2023.1.3,Win32,59.88023952,,,,,,,,,,,,,,,,,,,,,,,,,,,220,,,,,,,,,,,,,,,,,,,,,4,4,,,397.2052,6,right,0.3503,,1.5,0.3,"[2,3,1]",0.977757253,stimuli/card_100_transparent.png,100,6,0,6,0,1,,,,,,,,,,
,,,,610847fd403ae0217934a3a1,B,2024-06-26_16h06.40.568,Slot Machine Game,2023.1.3,Win32,59.88023952,,,,,,,,,,,,,,,,,,,,,,,,,,,220,,,,,,,,,,,,,,,,,,,,,4,4,,,399.8733,7,right,0.228,,0.5,0.3,"[1,2,3]",0.644470271,stimuli/card_0_transparent.png,0,7,0,7,0,1,,,,,,,,,,
,,,,610847fd403ae0217934a3a1,B,2024-06-26_16h06.40.568,Slot Machine Game,2023.1.3,Win32,59.88023952,,,,,,,,,,,,,,,,,,,,,,,,,,,320,,,,,,,,,,,,,,,,,,,,,4,4,,,401.4402,8,left,0.1171,,1.5,0.3,"[1,2,3]",0.897986292,stimuli/card_100_transparent.png,100,8,0,8,0,1,,,,,,,,,,
,,,,610847fd403ae0217934a3a1,B,2024-06-26_16h06.40.568,Slot Machine Game,2023.1.3,Win32,59.88023952,,,,,,,,,,,,,,,,,,,,,,,,,,,420,,,,,,,,,,,,,,,,,,,,,4,4,,,403.89,9,left,0.1973,,1.5,0.3,"[1,2,3]",0.414610774,stimuli/card_100_transparent.png,100,9,0,9,0,1,,,,,,,,,,
,,,,610847fd403ae0217934a3a1,B,2024-06-26_16h06.40.568,Slot Machine Game,2023.1.3,Win32,59.88023952,,,,,,,,,,,,,,,,,,,,,,,,,,,520,,,,,,,,,,,,,,,,,,,,,4,4,,,406.4071,10,left,0.1119,,0.5,0.3,"[1,2,3]",0.726740346,stimuli/card_100_transparent.png,100,10,0,10,0,1,,,,,,,,,,
,,,,610847fd403ae0217934a3a1,B,2024-06-26_16h06.40.568,Slot Machine Game,2023.1.3,Win32,59.88023952,,,,,,,,,,,,,,,,,,,,,,,,,,,620,,,,,,,,,,,,,,,,,,,,,4,4,,,407.84,11,left,0.1005,,1.5,0.3,"[1,2,3]",0.315838962,stimuli/card_100_transparent.png,100,11,0,11,0,1,,,,,,,,,,
,,,,610847fd403ae0217934a3a1,B,2024-06-26_16h06.40.568,Slot Machine Game,2023.1.3,Win32,59.88023952,,,,,,,,,,,,,,,,,,,,,,,,,,,720,,,,,,,,,,,,,,,,,,,,,4,4,,,410.2396,12,left,0.4165,,1.5,0.3,"[1,2,3]",0.319501744,stimuli/card_100_transparent.png,100,12,0,12,0,1,,,,,,,,,,
,,,,610847fd403ae0217934a3a1,B,2024-06-26_16h06.40.568,Slot Machine Game,2023.1.3,Win32,59.88023952,,,,,,,,,,,,,,,,,,,,,,,,,,,820,,,,,,,,,,,,,,,,,,,,,4,4,,,412.968,13,left,0.4,,1,0.3,"[1,2,3]",0.66463894,stimuli/card_100_transparent.png,100,13,0,13,0,1,,,,,,,,,,
,,,,610847fd403ae0217934a3a1,B,2024-06-26_16h06.40.568,Slot Machine Game,2023.1.3,Win32,59.88023952,,,,,,,,,,,,,,,,,,,,,,,,,,,920,,,,,,,,,,,,,,,,,,,,,4,4,,,415.204,14,left,0.0036,,1,0.3,"[1,2,3]",0.327566816,stimuli/card_100_transparent.png,100,14,0,14,0,1,,,,,,,,,,
,,,,610847fd403ae0217934a3a1,B,2024-06-26_16h06.40.568,Slot Machine Game,2023.1.3,Win32,59.88023952,,,,,,,,,,,,,,,,,,,,,,,,,,,,,,,,,,,417.0069,,,,,,,,,,,,,,,,,,,,,,,,,,,,,,,,,"[930,640,1100,920]",3,0,3,0,1,,,,
,,,,610847fd403ae0217934a3a1,B,2024-06-26_16h06.40.568,Slot Machine Game,2023.1.3,Win32,59.88023952,,,,,,,,,,,,,,,,,,,,,,,,,,,10,,,,,,,,,,,,,,,,,,,,,5,6,"[4,10,15]","[[2,3,1],[1,3,2],[3,2,1]]",422.0087,0,left,0.2837,,1,0.3,"[2,3,1]",0.234598625,stimuli/card_10_transparent.png,10,0,0,0,0,1,,,,,,,,,,
,,,,610847fd403ae0217934a3a1,B,2024-06-26_16h06.40.568,Slot Machine Game,2023.1.3,Win32,59.88023952,,,,,,,,,,,,,,,,,,,,,,,,,,,20,,,,,,,,,,,,,,,,,,,,,5,6,,,424.1188,1,left,0.3974,,1,0.3,"[2,3,1]",0.737908,stimuli/card_10_transparent.png,10,1,0,1,0,1,,,,,,,,,,
,,,,610847fd403ae0217934a3a1,B,2024-06-26_16h06.40.568,Slot Machine Game,2023.1.3,Win32,59.88023952,,,,,,,,,,,,,,,,,,,,,,,,,,,20,,,,,,,,,,,,,,,,,,,,,5,6,,,426.3407,2,up,0.4169,,1.5,0.3,"[2,3,1]",0.632763947,stimuli/card_0_transparent.png,0,2,0,2,0,1,,,,,,,,,,
,,,,610847fd403ae0217934a3a1,B,2024-06-26_16h06.40.568,Slot Machine Game,2023.1.3,Win32,59.88023952,,,,,,,,,,,,,,,,,,,,,,,,,,,20,,,,,,,,,,,,,,,,,,,,,5,6,,,429.0869,3,up,0.3282,,0.5,0.3,"[2,3,1]",0.92552972,stimuli/card_0_transparent.png,0,3,0,3,0,1,,,,,,,,,,
,,,,610847fd403ae0217934a3a1,B,2024-06-26_16h06.40.568,Slot Machine Game,2023.1.3,Win32,59.88023952,,,,,,,,,,,,,,,,,,,,,,,,,,,20,,,,,,,,,,,,,,,,,,,,,5,6,,,430.7234,4,right,0.2666,,0.5,0.3,"[1,3,2]",0.044559928,stimuli/card_0_transparent.png,0,4,0,4,0,1,,,,,,,,,,
,,,,610847fd403ae0217934a3a1,B,2024-06-26_16h06.40.568,Slot Machine Game,2023.1.3,Win32,59.88023952,,,,,,,,,,,,,,,,,,,,,,,,,,,30,,,,,,,,,,,,,,,,,,,,,5,6,,,432.3231,5,right,0.4049,,1,0.3,"[1,3,2]",0.461771485,stimuli/card_10_transparent.png,10,5,0,5,0,1,,,,,,,,,,
,,,,610847fd403ae0217934a3a1,B,2024-06-26_16h06.40.568,Slot Machine Game,2023.1.3,Win32,59.88023952,,,,,,,,,,,,,,,,,,,,,,,,,,,40,,,,,,,,,,,,,,,,,,,,,5,6,,,434.568,6,right,0.4124,,1.5,0.3,"[1,3,2]",0.682002086,stimuli/card_10_transparent.png,10,6,0,6,0,1,,,,,,,,,,
,,,,610847fd403ae0217934a3a1,B,2024-06-26_16h06.40.568,Slot Machine Game,2023.1.3,Win32,59.88023952,,,,,,,,,,,,,,,,,,,,,,,,,,,40,,,,,,,,,,,,,,,,,,,,,5,6,,,437.2889,7,up,0.2799,,1.5,0.3,"[1,3,2]",0.582140072,stimuli/card_0_transparent.png,0,7,0,7,0,1,,,,,,,,,,
,,,,610847fd403ae0217934a3a1,B,2024-06-26_16h06.40.568,Slot Machine Game,2023.1.3,Win32,59.88023952,,,,,,,,,,,,,,,,,,,,,,,,,,,40,,,,,,,,,,,,,,,,,,,,,5,6,,,439.8861,8,up,0.2218,,1,0.3,"[1,3,2]",0.883377414,stimuli/card_0_transparent.png,0,8,0,8,0,1,,,,,,,,,,
,,,,610847fd403ae0217934a3a1,B,2024-06-26_16h06.40.568,Slot Machine Game,2023.1.3,Win32,59.88023952,,,,,,,,,,,,,,,,,,,,,,,,,,,140,,,,,,,,,,,,,,,,,,,,,5,6,,,441.9402,9,left,0.2333,,1,0.3,"[1,3,2]",0.890439329,stimuli/card_100_transparent.png,100,9,0,9,0,1,,,,,,,,,,
,,,,610847fd403ae0217934a3a1,B,2024-06-26_16h06.40.568,Slot Machine Game,2023.1.3,Win32,59.88023952,,,,,,,,,,,,,,,,,,,,,,,,,,,140,,,,,,,,,,,,,,,,,,,,,5,6,,,444.0204,10,left,0.3169,,1,0.3,"[3,2,1]",0.706006431,stimuli/card_0_transparent.png,0,10,0,10,0,1,,,,,,,,,,
,,,,610847fd403ae0217934a3a1,B,2024-06-26_16h06.40.568,Slot Machine Game,2023.1.3,Win32,59.88023952,,,,,,,,,,,,,,,,,,,,,,,,,,,140,,,,,,,,,,,,,,,,,,,,,5,6,,,446.1573,11,left,0.219,,1,0.3,"[3,2,1]",0.734118057,stimuli/card_0_transparent.png,0,11,0,11,0,1,,,,,,,,,,
,,,,610847fd403ae0217934a3a1,B,2024-06-26_16h06.40.568,Slot Machine Game,2023.1.3,Win32,59.88023952,,,,,,,,,,,,,,,,,,,,,,,,,,,140,,,,,,,,,,,,,,,,,,,,,5,6,,,448.1879,12,left,0.3681,,1,0.3,"[3,2,1]",0.488134578,stimuli/card_0_transparent.png,0,12,0,12,0,1,,,,,,,,,,
,,,,610847fd403ae0217934a3a1,B,2024-06-26_16h06.40.568,Slot Machine Game,2023.1.3,Win32,59.88023952,,,,,,,,,,,,,,,,,,,,,,,,,,,150,,,,,,,,,,,,,,,,,,,,,5,6,,,450.3733,13,up,0.4173,,0.5,0.3,"[3,2,1]",0.202651992,stimuli/card_10_transparent.png,10,13,0,13,0,1,,,,,,,,,,
,,,,610847fd403ae0217934a3a1,B,2024-06-26_16h06.40.568,Slot Machine Game,2023.1.3,Win32,59.88023952,,,,,,,,,,,,,,,,,,,,,,,,,,,160,,,,,,,,,,,,,,,,,,,,,5,6,,,452.1182,14,up,0.0007,,0.5,0.3,"[3,2,1]",0.248270172,stimuli/card_10_transparent.png,10,14,0,14,0,1,,,,,,,,,,
,,,,610847fd403ae0217934a3a1,B,2024-06-26_16h06.40.568,Slot Machine Game,2023.1.3,Win32,59.88023952,,,,,,,,,,,,,,,,,,,,,,,,,,,,,,,,,,,453.438,,,,,,,,,,,,,,,,,,,,,,,,,,,,,,,,,"[930,640,1100,920,160]",4,0,4,0,1,,,,
,,,,610847fd403ae0217934a3a1,B,2024-06-26_16h06.40.568,Slot Machine Game,2023.1.3,Win32,59.88023952,,,,,,,,,,,,,,,,,,,,,,,,,,,100,,,,,,,,,,,,,,,,,,,,,6,8,"[11,15]","[[2,1,3],[1,2,3]]",458.445,0,up,0.1667,,1,0.3,"[2,1,3]",0.663204916,stimuli/card_100_transparent.png,100,0,0,0,0,1,,,,,,,,,,
,,,,610847fd403ae0217934a3a1,B,2024-06-26_16h06.40.568,Slot Machine Game,2023.1.3,Win32,59.88023952,,,,,,,,,,,,,,,,,,,,,,,,,,,110,,,,,,,,,,,,,,,,,,,,,6,8,,,460.4226,1,up,0.2338,,1.5,0.3,"[2,1,3]",0.135650555,stimuli/card_10_transparent.png,10,1,0,1,0,1,,,,,,,,,,
,,,,610847fd403ae0217934a3a1,B,2024-06-26_16h06.40.568,Slot Machine Game,2023.1.3,Win32,59.88023952,,,,,,,,,,,,,,,,,,,,,,,,,,,210,,,,,,,,,,,,,,,,,,,,,6,8,,,462.9684,2,up,0.3503,,1,0.3,"[2,1,3]",0.495987797,stimuli/card_100_transparent.png,100,2,0,2,0,1,,,,,,,,,,
,,,,610847fd403ae0217934a3a1,B,2024-06-26_16h06.40.568,Slot Machine Game,2023.1.3,Win32,59.88023952,,,,,,,,,,,,,,,,,,,,,,,,,,,310,,,,,,,,,,,,,,,,,,,,,6,8,,,465.1228,3,up,0.0509,,0.5,0.3,"[2,1,3]",0.740680209,stimuli/card_100_transparent.png,100,3,0,3,0,1,,,,,,,,,,
,,,,610847fd403ae0217934a3a1,B,2024-06-26_16h06.40.568,Slot Machine Game,2023.1.3,Win32,59.88023952,,,,,,,,,,,,,,,,,,,,,,,,,,,410,,,,,,,,,,,,,,,,,,,,,6,8,,,466.5061,4,up,0.0071,,0.5,0.3,"[2,1,3]",0.59381092,stimuli/card_100_transparent.png,100,4,0,4,0,1,,,,,,,,,,
,,,,610847fd403ae0217934a3a1,B,2024-06-26_16h06.40.568,Slot Machine Game,2023.1.3,Win32,59.88023952,,,,,,,,,,,,,,,,,,,,,,,,,,,510,,,,,,,,,,,,,,,,,,,,,6,8,,,467.8183,5,up,0.3509,,1,0.3,"[2,1,3]",0.853421899,stimuli/card_100_transparent.png,100,5,0,5,0,1,,,,,,,,,,
,,,,610847fd403ae0217934a3a1,B,2024-06-26_16h06.40.568,Slot Machine Game,2023.1.3,Win32,59.88023952,,,,,,,,,,,,,,,,,,,,,,,,,,,610,,,,,,,,,,,,,,,,,,,,,6,8,,,469.9851,6,up,0.224,,1.5,0.3,"[2,1,3]",0.581547214,stimuli/card_100_transparent.png,100,6,0,6,0,1,,,,,,,,,,
,,,,610847fd403ae0217934a3a1,B,2024-06-26_16h06.40.568,Slot Machine Game,2023.1.3,Win32,59.88023952,,,,,,,,,,,,,,,,,,,,,,,,,,,610,,,,,,,,,,,,,,,,,,,,,6,8,,,472.5409,7,up,0.0838,,1,0.3,"[2,1,3]",0.038655906,stimuli/card_0_transparent.png,0,7,0,7,0,1,,,,,,,,,,
,,,,610847fd403ae0217934a3a1,B,2024-06-26_16h06.40.568,Slot Machine Game,2023.1.3,Win32,59.88023952,,,,,,,,,,,,,,,,,,,,,,,,,,,620,,,,,,,,,,,,,,,,,,,,,6,8,,,474.4547,8,up,0.3444,,1.5,0.3,"[2,1,3]",0.197074637,stimuli/card_10_transparent.png,10,8,0,8,0,1,,,,,,,,,,
,,,,610847fd403ae0217934a3a1,B,2024-06-26_16h06.40.568,Slot Machine Game,2023.1.3,Win32,59.88023952,,,,,,,,,,,,,,,,,,,,,,,,,,,620,,,,,,,,,,,,,,,,,,,,,6,8,,,477.1056,9,right,0.4428,,1,0.3,"[2,1,3]",0.773675266,stimuli/card_0_transparent.png,0,9,0,9,0,1,,,,,,,,,,
,,,,610847fd403ae0217934a3a1,B,2024-06-26_16h06.40.568,Slot Machine Game,2023.1.3,Win32,59.88023952,,,,,,,,,,,,,,,,,,,,,,,,,,,620,,,,,,,,,,,,,,,,,,,,,6,8,,,479.3905,10,right,0.3361,,0.5,0.3,"[2,1,3]",0.921641018,stimuli/card_0_transparent.png,0,10,0,10,0,1,,,,,,,,,,
,,,,610847fd403ae0217934a3a1,B,2024-06-26_16h06.40.568,Slot Machine Game,2023.1.3,Win32,59.88023952,,,,,,,,,,,,,,,,,,,,,,,,,,,720,,,,,,,,,,,,,,,,,,,,,6,8,,,481.0517,11,left,0.1731,,1,0.3,"[1,2,3]",0.928492359,stimuli/card_100_transparent.png,100,11,0,11,0,1,,,,,,,,,,
,,,,610847fd403ae0217934a3a1,B,2024-06-26_16h06.40.568,Slot Machine Game,2023.1.3,Win32,59.88023952,,,,,,,,,,,,,,,,,,,,,,,,,,,820,,,,,,,,,,,,,,,,,,,,,6,8,,,483.0357,12,left,0.3098,,1,0.3,"[1,2,3]",0.275037077,stimuli/card_100_transparent.png,100,12,0,12,0,1,,,,,,,,,,
,,,,610847fd403ae0217934a3a1,B,2024-06-26_16h06.40.568,Slot Machine Game,2023.1.3,Win32,59.88023952,,,,,,,,,,,,,,,,,,,,,,,,,,,920,,,,,,,,,,,,,,,,,,,,,6,8,,,485.1732,13,left,0.3517,,1,0.3,"[1,2,3]",0.620287862,stimuli/card_100_transparent.png,100,13,0,13,0,1,,,,,,,,,,
,,,,610847fd403ae0217934a3a1,B,2024-06-26_16h06.40.568,Slot Machine Game,2023.1.3,Win32,59.88023952,,,,,,,,,,,,,,,,,,,,,,,,,,,1020,,,,,,,,,,,,,,,,,,,,,6,8,,,487.3189,14,left,0.219,,0.5,0.3,"[1,2,3]",0.326492052,stimuli/card_100_transparent.png,100,14,0,14,0,1,,,,,,,,,,
,,,,610847fd403ae0217934a3a1,B,2024-06-26_16h06.40.568,Slot Machine Game,2023.1.3,Win32,59.88023952,,,,,,,,,,,,,,,,,,,,,,,,,,,,,,,,,,,488.8566,,,,,,,,,,,,,,,,,,,,,,,,,,,,,,,,,"[930,640,1100,920,160,1020]",5,0,5,0,1,,,,
,,,,610847fd403ae0217934a3a1,B,2024-06-26_16h06.40.568,Slot Machine Game,2023.1.3,Win32,59.88023952,,,,,,,,,,,,,,,,,,,,,,,,,,,100,,,,,,,,,,,,,,,,,,,,,7,9,"[8,15]","[[3,2,1],[3,1,2]]",493.8605,0,right,1.546,,1.5,0.3,"[3,2,1]",0.68804518,stimuli/card_100_transparent.png,100,0,0,0,0,1,,,,,,,,,,
,,,,610847fd403ae0217934a3a1,B,2024-06-26_16h06.40.568,Slot Machine Game,2023.1.3,Win32,59.88023952,,,,,,,,,,,,,,,,,,,,,,,,,,,110,,,,,,,,,,,,,,,,,,,,,7,9,,,497.718,1,right,0.3547,,1.5,0.3,"[3,2,1]",0.185330651,stimuli/card_10_transparent.png,10,1,0,1,0,1,,,,,,,,,,
,,,,610847fd403ae0217934a3a1,B,2024-06-26_16h06.40.568,Slot Machine Game,2023.1.3,Win32,59.88023952,,,,,,,,,,,,,,,,,,,,,,,,,,,210,,,,,,,,,,,,,,,,,,,,,7,9,,,500.3904,2,right,0.3556,,1.5,0.3,"[3,2,1]",0.475863925,stimuli/card_100_transparent.png,100,2,0,2,0,1,,,,,,,,,,
,,,,610847fd403ae0217934a3a1,B,2024-06-26_16h06.40.568,Slot Machine Game,2023.1.3,Win32,59.88023952,,,,,,,,,,,,,,,,,,,,,,,,,,,310,,,,,,,,,,,,,,,,,,,,,7,9,,,503.0515,3,right,0.3727,,0.5,0.3,"[3,2,1]",0.472552424,stimuli/card_100_transparent.png,100,3,0,3,0,1,,,,,,,,,,
,,,,610847fd403ae0217934a3a1,B,2024-06-26_16h06.40.568,Slot Machine Game,2023.1.3,Win32,59.88023952,,,,,,,,,,,,,,,,,,,,,,,,,,,410,,,,,,,,,,,,,,,,,,,,,7,9,,,504.7683,4,right,0.1834,,0.5,0.3,"[3,2,1]",0.834145726,stimuli/card_100_transparent.png,100,4,0,4,0,1,,,,,,,,,,
,,,,610847fd403ae0217934a3a1,B,2024-06-26_16h06.40.568,Slot Machine Game,2023.1.3,Win32,59.88023952,,,,,,,,,,,,,,,,,,,,,,,,,,,510,,,,,,,,,,,,,,,,,,,,,7,9,,,506.27,5,right,0.1833,,1.5,0.3,"[3,2,1]",0.453099017,stimuli/card_100_transparent.png,100,5,0,5,0,1,,,,,,,,,,
,,,,610847fd403ae0217934a3a1,B,2024-06-26_16h06.40.568,Slot Machine Game,2023.1.3,Win32,59.88023952,,,,,,,,,,,,,,,,,,,,,,,,,,,610,,,,,,,,,,,,,,,,,,,,,7,9,,,508.7685,6,right,0.2322,,1,0.3,"[3,2,1]",0.310850426,stimuli/card_100_transparent.png,100,6,0,6,0,1,,,,,,,,,,
,,,,610847fd403ae0217934a3a1,B,2024-06-26_16h06.40.568,Slot Machine Game,2023.1.3,Win32,59.88023952,,,,,,,,,,,,,,,,,,,,,,,,,,,610,,,,,,,,,,,,,,,,,,,,,7,9,,,510.8398,7,right,0.0567,,1.5,0.3,"[3,2,1]",0.007005915,stimuli/card_0_transparent.png,0,7,0,7,0,1,,,,,,,,,,
,,,,610847fd403ae0217934a3a1,B,2024-06-26_16h06.40.568,Slot Machine Game,2023.1.3,Win32,59.88023952,,,,,,,,,,,,,,,,,,,,,,,,,,,620,,,,,,,,,,,,,,,,,,,,,7,9,,,513.24,8,right,0.2005,,0.5,0.3,"[3,1,2]",0.624982662,stimuli/card_10_transparent.png,10,8,0,8,0,1,,,,,,,,,,
,,,,610847fd403ae0217934a3a1,B,2024-06-26_16h06.40.568,Slot Machine Game,2023.1.3,Win32,59.88023952,,,,,,,,,,,,,,,,,,,,,,,,,,,620,,,,,,,,,,,,,,,,,,,,,7,9,,,514.7566,9,up,0.1614,,1,0.3,"[3,1,2]",0.04241967,stimuli/card_0_transparent.png,0,9,0,9,0,1,,,,,,,,,,
,,,,610847fd403ae0217934a3a1,B,2024-06-26_16h06.40.568,Slot Machine Game,2023.1.3,Win32,59.88023952,,,,,,,,,,,,,,,,,,,,,,,,,,,720,,,,,,,,,,,,,,,,,,,,,7,9,,,516.7399,10,up,0.4306,,1.5,0.3,"[3,1,2]",0.296834534,stimuli/card_100_transparent.png,100,10,0,10,0,1,,,,,,,,,,
,,,,610847fd403ae0217934a3a1,B,2024-06-26_16h06.40.568,Slot Machine Game,2023.1.3,Win32,59.88023952,,,,,,,,,,,,,,,,,,,,,,,,,,,820,,,,,,,,,,,,,,,,,,,,,7,9,,,519.5069,11,up,0.284,,0.5,0.3,"[3,1,2]",0.444961359,stimuli/card_100_transparent.png,100,11,0,11,0,1,,,,,,,,,,
,,,,610847fd403ae0217934a3a1,B,2024-06-26_16h06.40.568,Slot Machine Game,2023.1.3,Win32,59.88023952,,,,,,,,,,,,,,,,,,,,,,,,,,,920,,,,,,,,,,,,,,,,,,,,,7,9,,,521.1017,12,up,0.2502,,0.5,0.3,"[3,1,2]",0.748680937,stimuli/card_100_transparent.png,100,12,0,12,0,1,,,,,,,,,,
,,,,610847fd403ae0217934a3a1,B,2024-06-26_16h06.40.568,Slot Machine Game,2023.1.3,Win32,59.88023952,,,,,,,,,,,,,,,,,,,,,,,,,,,1020,,,,,,,,,,,,,,,,,,,,,7,9,,,522.6686,13,up,0.1837,,0.5,0.3,"[3,1,2]",0.775975614,stimuli/card_100_transparent.png,100,13,0,13,0,1,,,,,,,,,,
,,,,610847fd403ae0217934a3a1,B,2024-06-26_16h06.40.568,Slot Machine Game,2023.1.3,Win32,59.88023952,,,,,,,,,,,,,,,,,,,,,,,,,,,1120,,,,,,,,,,,,,,,,,,,,,7,9,,,524.1857,14,up,0.1177,,1.5,0.3,"[3,1,2]",0.684741338,stimuli/card_100_transparent.png,100,14,0,14,0,1,,,,,,,,,,
,,,,610847fd403ae0217934a3a1,B,2024-06-26_16h06.40.568,Slot Machine Game,2023.1.3,Win32,59.88023952,,,,,,,,,,,,,,,,,,,,,,,,,,,,,,,,,,,526.6185,,,,,,,,,,,,,,,,,,,,,,,,,,,,,,,,,"[930,640,1100,920,160,1020,1120]",6,0,6,0,1,,,,
,,,,610847fd403ae0217934a3a1,B,2024-06-26_16h06.40.568,Slot Machine Game,2023.1.3,Win32,59.88023952,,,,,,,,,,,,,,,,,,,,,,,,,,,0,,,,,,,,,,,,,,,,,,,,,8,2,"[6,15]","[[1,3,2],[3,2,1]]",531.6243,0,up,1.4275,,0.5,0.3,"[1,3,2]",0.554929155,stimuli/card_0_transparent.png,0,0,0,0,0,1,,,,,,,,,,
,,,,610847fd403ae0217934a3a1,B,2024-06-26_16h06.40.568,Slot Machine Game,2023.1.3,Win32,59.88023952,,,,,,,,,,,,,,,,,,,,,,,,,,,0,,,,,,,,,,,,,,,,,,,,,8,2,,,534.3733,1,up,0.2883,,1.5,0.3,"[1,3,2]",0.282687568,stimuli/card_0_transparent.png,0,1,0,1,0,1,,,,,,,,,,
,,,,610847fd403ae0217934a3a1,B,2024-06-26_16h06.40.568,Slot Machine Game,2023.1.3,Win32,59.88023952,,,,,,,,,,,,,,,,,,,,,,,,,,,100,,,,,,,,,,,,,,,,,,,,,8,2,,,536.9896,2,left,0.1828,,0.5,0.3,"[1,3,2]",0.952685422,stimuli/card_100_transparent.png,100,2,0,2,0,1,,,,,,,,,,
,,,,610847fd403ae0217934a3a1,B,2024-06-26_16h06.40.568,Slot Machine Game,2023.1.3,Win32,59.88023952,,,,,,,,,,,,,,,,,,,,,,,,,,,200,,,,,,,,,,,,,,,,,,,,,8,2,,,538.5067,3,left,0.2191,,0.5,0.3,"[1,3,2]",0.667410661,stimuli/card_100_transparent.png,100,3,0,3,0,1,,,,,,,,,,
,,,,610847fd403ae0217934a3a1,B,2024-06-26_16h06.40.568,Slot Machine Game,2023.1.3,Win32,59.88023952,,,,,,,,,,,,,,,,,,,,,,,,,,,300,,,,,,,,,,,,,,,,,,,,,8,2,,,540.0732,4,left,0.1671,,1,0.3,"[1,3,2]",0.99542033,stimuli/card_100_transparent.png,100,4,0,4,0,1,,,,,,,,,,
,,,,610847fd403ae0217934a3a1,B,2024-06-26_16h06.40.568,Slot Machine Game,2023.1.3,Win32,59.88023952,,,,,,,,,,,,,,,,,,,,,,,,,,,310,,,,,,,,,,,,,,,,,,,,,8,2,,,542.056,5,left,0.0894,,0.5,0.3,"[1,3,2]",0.146970857,stimuli/card_10_transparent.png,10,5,0,5,0,1,,,,,,,,,,
,,,,610847fd403ae0217934a3a1,B,2024-06-26_16h06.40.568,Slot Machine Game,2023.1.3,Win32,59.88023952,,,,,,,,,,,,,,,,,,,,,,,,,,,310,,,,,,,,,,,,,,,,,,,,,8,2,,,543.4351,6,left,0.3945,,1,0.3,"[3,2,1]",0.580931995,stimuli/card_0_transparent.png,0,6,0,6,0,1,,,,,,,,,,
,,,,610847fd403ae0217934a3a1,B,2024-06-26_16h06.40.568,Slot Machine Game,2023.1.3,Win32,59.88023952,,,,,,,,,,,,,,,,,,,,,,,,,,,410,,,,,,,,,,,,,,,,,,,,,8,2,,,545.6568,7,right,0.1339,,1,0.3,"[3,2,1]",0.293682302,stimuli/card_100_transparent.png,100,7,0,7,0,1,,,,,,,,,,
,,,,610847fd403ae0217934a3a1,B,2024-06-26_16h06.40.568,Slot Machine Game,2023.1.3,Win32,59.88023952,,,,,,,,,,,,,,,,,,,,,,,,,,,510,,,,,,,,,,,,,,,,,,,,,8,2,,,547.6184,8,right,0.0504,,0.5,0.3,"[3,2,1]",0.301414402,stimuli/card_100_transparent.png,100,8,0,8,0,1,,,,,,,,,,
,,,,610847fd403ae0217934a3a1,B,2024-06-26_16h06.40.568,Slot Machine Game,2023.1.3,Win32,59.88023952,,,,,,,,,,,,,,,,,,,,,,,,,,,610,,,,,,,,,,,,,,,,,,,,,8,2,,,549.0044,9,right,0.3001,,0.5,0.3,"[3,2,1]",0.626553527,stimuli/card_100_transparent.png,100,9,0,9,0,1,,,,,,,,,,
,,,,610847fd403ae0217934a3a1,B,2024-06-26_16h06.40.568,Slot Machine Game,2023.1.3,Win32,59.88023952,,,,,,,,,,,,,,,,,,,,,,,,,,,620,,,,,,,,,,,,,,,,,,,,,8,2,,,550.6183,10,right,0.1917,,1,0.3,"[3,2,1]",0.175328608,stimuli/card_10_transparent.png,10,10,0,10,0,1,,,,,,,,,,
,,,,610847fd403ae0217934a3a1,B,2024-06-26_16h06.40.568,Slot Machine Game,2023.1.3,Win32,59.88023952,,,,,,,,,,,,,,,,,,,,,,,,,,,720,,,,,,,,,,,,,,,,,,,,,8,2,,,552.6519,11,right,0.1907,,1.5,0.3,"[3,2,1]",0.271197392,stimuli/card_100_transparent.png,100,11,0,11,0,1,,,,,,,,,,
,,,,610847fd403ae0217934a3a1,B,2024-06-26_16h06.40.568,Slot Machine Game,2023.1.3,Win32,59.88023952,,,,,,,,,,,,,,,,,,,,,,,,,,,820,,,,,,,,,,,,,,,,,,,,,8,2,,,555.1689,12,right,0.0882,,1.5,0.3,"[3,2,1]",0.274537651,stimuli/card_100_transparent.png,100,12,0,12,0,1,,,,,,,,,,
,,,,610847fd403ae0217934a3a1,B,2024-06-26_16h06.40.568,Slot Machine Game,2023.1.3,Win32,59.88023952,,,,,,,,,,,,,,,,,,,,,,,,,,,820,,,,,,,,,,,,,,,,,,,,,8,2,,,557.6054,13,right,0.0772,,1,0.3,"[3,2,1]",0.030535714,stimuli/card_0_transparent.png,0,13,0,13,0,1,,,,,,,,,,
,,,,610847fd403ae0217934a3a1,B,2024-06-26_16h06.40.568,Slot Machine Game,2023.1.3,Win32,59.88023952,,,,,,,,,,,,,,,,,,,,,,,,,,,920,,,,,,,,,,,,,,,,,,,,,8,2,,,559.4847,14,right,0.1673,,0.5,0.3,"[3,2,1]",0.888607966,stimuli/card_100_transparent.png,100,14,0,14,0,1,,,,,,,,,,
,,,,610847fd403ae0217934a3a1,B,2024-06-26_16h06.40.568,Slot Machine Game,2023.1.3,Win32,59.88023952,,,,,,,,,,,,,,,,,,,,,,,,,,,,,,,,,,,560.9849,,,,,,,,,,,,,,,,,,,,,,,,,,,,,,,,,"[930,640,1100,920,160,1020,1120,920]",7,0,7,0,1,,,,
,,,,610847fd403ae0217934a3a1,B,2024-06-26_16h06.40.568,Slot Machine Game,2023.1.3,Win32,59.88023952,,,,,,,,,,,,,,,,,,,,,,,,,,,0,,,,,,,,,,,,,,,,,,,,,9,10,"[10,15]","[[3,1,2],[1,3,2]]",565.9946,0,left,0.1284,,1.5,0.3,"[3,1,2]",0.2751861,stimuli/card_0_transparent.png,0,0,0,0,0,1,,,,,,,,,,
,,,,610847fd403ae0217934a3a1,B,2024-06-26_16h06.40.568,Slot Machine Game,2023.1.3,Win32,59.88023952,,,,,,,,,,,,,,,,,,,,,,,,,,,0,,,,,,,,,,,,,,,,,,,,,9,10,,,568.4398,1,left,0.0948,,1.5,0.3,"[3,1,2]",0.58948517,stimuli/card_0_transparent.png,0,1,0,1,0,1,,,,,,,,,,
,,,,610847fd403ae0217934a3a1,B,2024-06-26_16h06.40.568,Slot Machine Game,2023.1.3,Win32,59.88023952,,,,,,,,,,,,,,,,,,,,,,,,,,,100,,,,,,,,,,,,,,,,,,,,,9,10,,,570.8559,2,up,0.4621,,1,0.3,"[3,1,2]",0.764596932,stimuli/card_100_transparent.png,100,2,0,2,0,1,,,,,,,,,,
,,,,610847fd403ae0217934a3a1,B,2024-06-26_16h06.40.568,Slot Machine Game,2023.1.3,Win32,59.88023952,,,,,,,,,,,,,,,,,,,,,,,,,,,110,,,,,,,,,,,,,,,,,,,,,9,10,,,573.1195,3,up,0.0323,,0.5,0.3,"[3,1,2]",0.182245235,stimuli/card_10_transparent.png,10,3,0,3,0,1,,,,,,,,,,
,,,,610847fd403ae0217934a3a1,B,2024-06-26_16h06.40.568,Slot Machine Game,2023.1.3,Win32,59.88023952,,,,,,,,,,,,,,,,,,,,,,,,,,,210,,,,,,,,,,,,,,,,,,,,,9,10,,,574.4523,4,up,0.1264,,1.5,0.3,"[3,1,2]",0.429970115,stimuli/card_100_transparent.png,100,4,0,4,0,1,,,,,,,,,,
,,,,610847fd403ae0217934a3a1,B,2024-06-26_16h06.40.568,Slot Machine Game,2023.1.3,Win32,59.88023952,,,,,,,,,,,,,,,,,,,,,,,,,,,310,,,,,,,,,,,,,,,,,,,,,9,10,,,576.8744,5,up,0.0677,,0.5,0.3,"[3,1,2]",0.895141549,stimuli/card_100_transparent.png,100,5,0,5,0,1,,,,,,,,,,
,,,,610847fd403ae0217934a3a1,B,2024-06-26_16h06.40.568,Slot Machine Game,2023.1.3,Win32,59.88023952,,,,,,,,,,,,,,,,,,,,,,,,,,,410,,,,,,,,,,,,,,,,,,,,,9,10,,,578.2744,6,up,0.0627,,0.5,0.3,"[3,1,2]",0.371349418,stimuli/card_100_transparent.png,100,6,0,6,0,1,,,,,,,,,,
,,,,610847fd403ae0217934a3a1,B,2024-06-26_16h06.40.568,Slot Machine Game,2023.1.3,Win32,59.88023952,,,,,,,,,,,,,,,,,,,,,,,,,,,410,,,,,,,,,,,,,,,,,,,,,9,10,,,579.6575,7,up,0.157,,0.5,0.3,"[3,1,2]",0.067816141,stimuli/card_0_transparent.png,0,7,0,7,0,1,,,,,,,,,,
,,,,610847fd403ae0217934a3a1,B,2024-06-26_16h06.40.568,Slot Machine Game,2023.1.3,Win32,59.88023952,,,,,,,,,,,,,,,,,,,,,,,,,,,510,,,,,,,,,,,,,,,,,,,,,9,10,,,581.1362,8,up,0.1939,,1.5,0.3,"[3,1,2]",0.984082956,stimuli/card_100_transparent.png,100,8,0,8,0,1,,,,,,,,,,
,,,,610847fd403ae0217934a3a1,B,2024-06-26_16h06.40.568,Slot Machine Game,2023.1.3,Win32,59.88023952,,,,,,,,,,,,,,,,,,,,,,,,,,,610,,,,,,,,,,,,,,,,,,,,,9,10,,,583.6352,9,up,0.2167,,0.5,0.3,"[3,1,2]",0.363995164,stimuli/card_100_transparent.png,100,9,0,9,0,1,,,,,,,,,,
,,,,610847fd403ae0217934a3a1,B,2024-06-26_16h06.40.568,Slot Machine Game,2023.1.3,Win32,59.88023952,,,,,,,,,,,,,,,,,,,,,,,,,,,610,,,,,,,,,,,,,,,,,,,,,9,10,,,585.1574,10,up,0.1439,,1.5,0.3,"[1,3,2]",0.271938877,stimuli/card_0_transparent.png,0,10,0,10,0,1,,,,,,,,,,
,,,,610847fd403ae0217934a3a1,B,2024-06-26_16h06.40.568,Slot Machine Game,2023.1.3,Win32,59.88023952,,,,,,,,,,,,,,,,,,,,,,,,,,,610,,,,,,,,,,,,,,,,,,,,,9,10,,,587.6037,11,up,0.116,,1.5,0.3,"[1,3,2]",0.239528366,stimuli/card_0_transparent.png,0,11,0,11,0,1,,,,,,,,,,
,,,,610847fd403ae0217934a3a1,B,2024-06-26_16h06.40.568,Slot Machine Game,2023.1.3,Win32,59.88023952,,,,,,,,,,,,,,,,,,,,,,,,,,,620,,,,,,,,,,,,,,,,,,,,,9,10,,,590.0238,12,right,0.2232,,1,0.3,"[1,3,2]",0.369789843,stimuli/card_10_transparent.png,10,12,0,12,0,1,,,,,,,,,,
,,,,610847fd403ae0217934a3a1,B,2024-06-26_16h06.40.568,Slot Machine Game,2023.1.3,Win32,59.88023952,,,,,,,,,,,,,,,,,,,,,,,,,,,630,,,,,,,,,,,,,,,,,,,,,9,10,,,592.0691,13,right,0.1675,,1,0.3,"[1,3,2]",0.494829712,stimuli/card_10_transparent.png,10,13,0,13,0,1,,,,,,,,,,
,,,,610847fd403ae0217934a3a1,B,2024-06-26_16h06.40.568,Slot Machine Game,2023.1.3,Win32,59.88023952,,,,,,,,,,,,,,,,,,,,,,,,,,,730,,,,,,,,,,,,,,,,,,,,,9,10,,,594.0731,14,left,0.2506,,1,0.3,"[1,3,2]",0.843745847,stimuli/card_100_transparent.png,100,14,0,14,0,1,,,,,,,,,,
,,,,610847fd403ae0217934a3a1,B,2024-06-26_16h06.40.568,Slot Machine Game,2023.1.3,Win32,59.88023952,,,,,,,,,,,,,,,,,,,,,,,,,,,,,,,,,,,596.1407,,,,,,,,,,,,,,,,,,,,,,,,,,,,,,,,,"[930,640,1100,920,160,1020,1120,920,730]",8,0,8,0,1,,,,
,,,,610847fd403ae0217934a3a1,B,2024-06-26_16h06.40.568,Slot Machine Game,2023.1.3,Win32,59.88023952,,,,,,,,,,,,,,,,,,,,,,,,,,,0,,,,,,,,,,,,,,,,,,,,,10,3,"[15,15]","[[3,1,2],[3,1,2]]",601.142,0,left,1.0028,0.0075,0.5,0.3,"[3,1,2]",0.956505306,stimuli/card_0_transparent.png,0,0,0,0,0,1,,,,,,,,,,
,,,,610847fd403ae0217934a3a1,B,2024-06-26_16h06.40.568,Slot Machine Game,2023.1.3,Win32,59.88023952,,,,,,,,,,,,,,,,,,,,,,,,,,,0,,,,,,,,,,,,,,,,,,,,,10,3,,,603.485,1,left,0.1403,,0.5,0.3,"[3,1,2]",0.860290778,stimuli/card_0_transparent.png,0,1,0,1,0,1,,,,,,,,,,
,,,,610847fd403ae0217934a3a1,B,2024-06-26_16h06.40.568,Slot Machine Game,2023.1.3,Win32,59.88023952,,,,,,,,,,,,,,,,,,,,,,,,,,,100,,,,,,,,,,,,,,,,,,,,,10,3,,,604.957,2,up,0.183,,0.5,0.3,"[3,1,2]",0.665481984,stimuli/card_100_transparent.png,100,2,0,2,0,1,,,,,,,,,,
,,,,610847fd403ae0217934a3a1,B,2024-06-26_16h06.40.568,Slot Machine Game,2023.1.3,Win32,59.88023952,,,,,,,,,,,,,,,,,,,,,,,,,,,200,,,,,,,,,,,,,,,,,,,,,10,3,,,606.4573,3,up,0.1283,,1.5,0.3,"[3,1,2]",0.865669097,stimuli/card_100_transparent.png,100,3,0,3,0,1,,,,,,,,,,
,,,,610847fd403ae0217934a3a1,B,2024-06-26_16h06.40.568,Slot Machine Game,2023.1.3,Win32,59.88023952,,,,,,,,,,,,,,,,,,,,,,,,,,,300,,,,,,,,,,,,,,,,,,,,,10,3,,,608.9024,4,up,0.2456,,1.5,0.3,"[3,1,2]",0.317538072,stimuli/card_100_transparent.png,100,4,0,4,0,1,,,,,,,,,,
,,,,610847fd403ae0217934a3a1,B,2024-06-26_16h06.40.568,Slot Machine Game,2023.1.3,Win32,59.88023952,,,,,,,,,,,,,,,,,,,,,,,,,,,300,,,,,,,,,,,,,,,,,,,,,10,3,,,611.474,5,up,0.0346,,0.5,0.3,"[3,1,2]",0.012544913,stimuli/card_0_transparent.png,0,5,0,5,0,1,,,,,,,,,,
,,,,610847fd403ae0217934a3a1,B,2024-06-26_16h06.40.568,Slot Machine Game,2023.1.3,Win32,59.88023952,,,,,,,,,,,,,,,,,,,,,,,,,,,300,,,,,,,,,,,,,,,,,,,,,10,3,,,612.8404,6,up,0.0837,,1,0.3,"[3,1,2]",0.029669085,stimuli/card_0_transparent.png,0,6,0,6,0,1,,,,,,,,,,
,,,,610847fd403ae0217934a3a1,B,2024-06-26_16h06.40.568,Slot Machine Game,2023.1.3,Win32,59.88023952,,,,,,,,,,,,,,,,,,,,,,,,,,,310,,,,,,,,,,,,,,,,,,,,,10,3,,,614.7392,7,up,0.0477,,1.5,0.3,"[3,1,2]",0.180353506,stimuli/card_10_transparent.png,10,7,0,7,0,1,,,,,,,,,,
,,,,610847fd403ae0217934a3a1,B,2024-06-26_16h06.40.568,Slot Machine Game,2023.1.3,Win32,59.88023952,,,,,,,,,,,,,,,,,,,,,,,,,,,320,,,,,,,,,,,,,,,,,,,,,10,3,,,617.1016,8,right,0.117,,1.5,0.3,"[3,1,2]",0.525631322,stimuli/card_10_transparent.png,10,8,0,8,0,1,,,,,,,,,,
,,,,610847fd403ae0217934a3a1,B,2024-06-26_16h06.40.568,Slot Machine Game,2023.1.3,Win32,59.88023952,,,,,,,,,,,,,,,,,,,,,,,,,,,330,,,,,,,,,,,,,,,,,,,,,10,3,,,619.5353,9,right,0.0177,,0.5,0.3,"[3,1,2]",0.901201994,stimuli/card_10_transparent.png,10,9,0,9,0,1,,,,,,,,,,
,,,,610847fd403ae0217934a3a1,B,2024-06-26_16h06.40.568,Slot Machine Game,2023.1.3,Win32,59.88023952,,,,,,,,,,,,,,,,,,,,,,,,,,,330,,,,,,,,,,,,,,,,,,,,,10,3,,,620.9071,10,left,0.267,,1.5,0.3,"[3,1,2]",0.242804893,stimuli/card_0_transparent.png,0,10,0,10,0,1,,,,,,,,,,
,,,,610847fd403ae0217934a3a1,B,2024-06-26_16h06.40.568,Slot Machine Game,2023.1.3,Win32,59.88023952,,,,,,,,,,,,,,,,,,,,,,,,,,,330,,,,,,,,,,,,,,,,,,,,,10,3,,,623.4861,11,left,0.0006,,1.5,0.3,"[3,1,2]",0.804625289,stimuli/card_0_transparent.png,0,11,0,11,0,1,,,,,,,,,,
,,,,610847fd403ae0217934a3a1,B,2024-06-26_16h06.40.568,Slot Machine Game,2023.1.3,Win32,59.88023952,,,,,,,,,,,,,,,,,,,,,,,,,,,340,,,,,,,,,,,,,,,,,,,,,10,3,,,625.8075,12,right,0.218,,1.5,0.3,"[3,1,2]",0.709235255,stimuli/card_10_transparent.png,10,12,0,12,0,1,,,,,,,,,,
,,,,610847fd403ae0217934a3a1,B,2024-06-26_16h06.40.568,Slot Machine Game,2023.1.3,Win32,59.88023952,,,,,,,,,,,,,,,,,,,,,,,,,,,340,,,,,,,,,,,,,,,,,,,,,10,3,,,628.3573,13,right,0.2011,,1.5,0.3,"[3,1,2]",0.075649427,stimuli/card_0_transparent.png,0,13,0,13,0,1,,,,,,,,,,
,,,,610847fd403ae0217934a3a1,B,2024-06-26_16h06.40.568,Slot Machine Game,2023.1.3,Win32,59.88023952,,,,,,,,,,,,,,,,,,,,,,,,,,,440,,,,,,,,,,,,,,,,,,,,,10,3,,,630.8863,14,up,0.1673,,0.5,0.3,"[3,1,2]",0.46198408,stimuli/card_100_transparent.png,100,14,0,14,0,1,,,,,,,,,,
,,,,610847fd403ae0217934a3a1,B,2024-06-26_16h06.40.568,Slot Machine Game,2023.1.3,Win32,59.88023952,,,,,,,,,,,,,,,,,,,,,,,,,,,,,,,,,,,632.3569,,,,,,,,,,,,,,,,,,,,,,,,,,,,,,,,,"[930,640,1100,920,160,1020,1120,920,730,440]",9,0,9,0,1,,,,
,,,,610847fd403ae0217934a3a1,B,2024-06-26_16h06.40.568,Slot Machine Game,2023.1.3,Win32,59.88023952,,,,,,,,,,,,,,,,,,,,,,,,,,,,,,,,,,,,,,,,,,,,,,,,,,,,,,,,,,,,,,,,,,,,,,,,,,9,"[930,640,1100,920,160,1020,1120,920,730,440]",10.2,2024-06-26_16h17.22.012
