key_resp_welcome_started,key_resp_welcome_keys,key_resp_welcome_rt,key_resp_welcome_duration,prolific_id,path_id,date,expName,psychopyVersion,OS,frameRate,key_resp_instruction1_started,key_resp_instruction1_keys,key_resp_instruction1_rt,key_resp_instruction1_duration,key_resp_instruction2_started,key_resp_instruction2_keys,key_resp_instruction2_rt,key_resp_instruction2_duration,key_resp_instruction3_started,key_resp_instruction3_keys,key_resp_instruction3_rt,key_resp_instruction3_duration,key_resp_instruction4_started,key_resp_instruction4_keys,key_resp_instruction4_rt,key_resp_instruction4_duration,practiceCondition,practice_reward_seqs,practice_trial_started,practice_trial_num,practice_resp_rt,practice_resp_duration,practice_resp_keys,prac_presentationInterval,"practice_reward_seq: 2,1,3",reward_img,cumulative_reward,trial_reward,practice_trials.thisRepN,practice_trials.thisTrialN,practice_trials.thisN,practice_trials.thisIndex,practice_trials.ran,"practice_reward_seq: 2,3,1",block_break_started,"practice_reward_seq: 1,3,2","practice_reward_seq: 3,1,2",practice_end_time,practice_end_keys,practice_end_rt,practice_end_duration,main_instruction_text_started,block_condition,block_order_indices,main_instruction_keys,main_instruction_rt,main_instruction_duration,block_number,block_assignment,current_condition,main_reward_seqs,main_trial_started,main_trial_num,main_trial_keys,main_trial_rt,main_trial_duration,main_presentationInterval,reward_presentation_time,main_reward_seq,reward_rand_val,main_reward_img,current_reward,main_trials.thisRepN,main_trials.thisTrialN,main_trials.thisN,main_trials.thisIndex,main_trials.ran,block_reward,block.thisRepN,block.thisTrialN,block.thisN,block.thisIndex,block.ran,block_reward.length,block_reward_all,reward_amount,date_end_task
0.0003,space,2.3256,,6140d7cdf9bc6016591c2878,A,2024-07-02_09h51.54.809,Slot Machine Game,2023.1.3,Win32,59.52380952,,,,,,,,,,,,,,,,,,,,,,,,,,,,,,,,,,,,,,,,,,,,,,,,,,,,,,,,,,,,,,,,,,,,,,,,,,,,,
,,,,6140d7cdf9bc6016591c2878,A,2024-07-02_09h51.54.809,Slot Machine Game,2023.1.3,Win32,59.52380952,2.3425,space,6.869,,,,,,,,,,,,,,,,,,,,,,,,,,,,,,,,,,,,,,,,,,,,,,,,,,,,,,,,,,,,,,,,,,,,,,,,,,
,,,,6140d7cdf9bc6016591c2878,A,2024-07-02_09h51.54.809,Slot Machine Game,2023.1.3,Win32,59.52380952,,,,,9.2525,space,14.4809,,,,,,,,,,,,,,,,,,,,,,,,,,,,,,,,,,,,,,,,,,,,,,,,,,,,,,,,,,,,,,,,,,,,,,
,,,,6140d7cdf9bc6016591c2878,A,2024-07-02_09h51.54.809,Slot Machine Game,2023.1.3,Win32,59.52380952,,,,,,,,,23.7859,space,4.0408,,,,,,,,,,,,,,,,,,,,,,,,,,,,,,,,,,,,,,,,,,,,,,,,,,,,,,,,,,,,,,,,,,
,,,,6140d7cdf9bc6016591c2878,A,2024-07-02_09h51.54.809,Slot Machine Game,2023.1.3,Win32,59.52380952,,,,,,,,,,,,,,,,,,,,,,,,,,,,,,,,,,,,,,,,,,,,,,,,,,,,,,,,,,,,,,,,,,,,,,,,,,,,,
,,,,6140d7cdf9bc6016591c2878,A,2024-07-02_09h51.54.809,Slot Machine Game,2023.1.3,Win32,59.52380952,,,,,,,,,,,,,170.3527,space,3.5418,,,,,,,,,,,,,,,,,,,,,,,,,,,,,,,,,,,,,,,,,,,,,,,,,,,,,,,,,,,,,,
,,,,6140d7cdf9bc6016591c2878,A,2024-07-02_09h51.54.809,Slot Machine Game,2023.1.3,Win32,59.52380952,,,,,,,,,,,,,,,,,"[9,15]","[[2,1,3],[2,3,1]]",173.943,0,1.6677,,left,1,,stimuli/card_10_transparent.png,10,10,0,0,0,0,1,,,,,,,,,,,,,,,,,,,,,,,,,,,,,,,,,,,,,,,,,,,,
,,,,6140d7cdf9bc6016591c2878,A,2024-07-02_09h51.54.809,Slot Machine Game,2023.1.3,Win32,59.52380952,,,,,,,,,,,,,,,,,,,177.465,1,0.8394,,right,1.5,,stimuli/card_10_transparent.png,20,10,1,0,1,0,1,,,,,,,,,,,,,,,,,,,,,,,,,,,,,,,,,,,,,,,,,,,,
,,,,6140d7cdf9bc6016591c2878,A,2024-07-02_09h51.54.809,Slot Machine Game,2023.1.3,Win32,59.52380952,,,,,,,,,,,,,,,,,,,180.664,2,2.9368,,up,1.5,,stimuli/card_0_transparent.png,20,0,2,0,2,0,1,,,,,,,,,,,,,,,,,,,,,,,,,,,,,,,,,,,,,,,,,,,,
,,,,6140d7cdf9bc6016591c2878,A,2024-07-02_09h51.54.809,Slot Machine Game,2023.1.3,Win32,59.52380952,,,,,,,,,,,,,,,,,,,185.931,3,0.3667,,right,1,,stimuli/card_0_transparent.png,20,0,3,0,3,0,1,,,,,,,,,,,,,,,,,,,,,,,,,,,,,,,,,,,,,,,,,,,,
,,,,6140d7cdf9bc6016591c2878,A,2024-07-02_09h51.54.809,Slot Machine Game,2023.1.3,Win32,59.52380952,,,,,,,,,,,,,,,,,,,188.1639,4,0.001,,left,1,,stimuli/card_10_transparent.png,30,10,4,0,4,0,1,,,,,,,,,,,,,,,,,,,,,,,,,,,,,,,,,,,,,,,,,,,,
,,,,6140d7cdf9bc6016591c2878,A,2024-07-02_09h51.54.809,Slot Machine Game,2023.1.3,Win32,59.52380952,,,,,,,,,,,,,,,,,,,190.0307,5,0.0113,,left,0.5,,stimuli/card_10_transparent.png,40,10,5,0,5,0,1,,,,,,,,,,,,,,,,,,,,,,,,,,,,,,,,,,,,,,,,,,,,
,,,,6140d7cdf9bc6016591c2878,A,2024-07-02_09h51.54.809,Slot Machine Game,2023.1.3,Win32,59.52380952,,,,,,,,,,,,,,,,,,,191.3972,6,1.1896,,left,1,,stimuli/card_10_transparent.png,50,10,6,0,6,0,1,,,,,,,,,,,,,,,,,,,,,,,,,,,,,,,,,,,,,,,,,,,,
,,,,6140d7cdf9bc6016591c2878,A,2024-07-02_09h51.54.809,Slot Machine Game,2023.1.3,Win32,59.52380952,,,,,,,,,,,,,,,,,,,194.3972,7,1.7167,,left,0.5,,stimuli/card_10_transparent.png,60,10,7,0,7,0,1,,,,,,,,,,,,,,,,,,,,,,,,,,,,,,,,,,,,,,,,,,,,
,,,,6140d7cdf9bc6016591c2878,A,2024-07-02_09h51.54.809,Slot Machine Game,2023.1.3,Win32,59.52380952,,,,,,,,,,,,,,,,,,,197.4638,8,0.1819,,left,0.5,,stimuli/card_0_transparent.png,60,0,8,0,8,0,1,,,,,,,,,,,,,,,,,,,,,,,,,,,,,,,,,,,,,,,,,,,,
,,,,6140d7cdf9bc6016591c2878,A,2024-07-02_09h51.54.809,Slot Machine Game,2023.1.3,Win32,59.52380952,,,,,,,,,,,,,,,,,,,198.9971,9,1.7214,,left,1.5,,stimuli/card_10_transparent.png,70,10,9,0,9,0,1,,,,,,,,,,,,,,,,,,,,,,,,,,,,,,,,,,,,,,,,,,,,
,,,,6140d7cdf9bc6016591c2878,A,2024-07-02_09h51.54.809,Slot Machine Game,2023.1.3,Win32,59.52380952,,,,,,,,,,,,,,,,,,,203.0639,10,2.2259,,right,1.5,,stimuli/card_100_transparent.png,170,100,10,0,10,0,1,,,,,,,,,,,,,,,,,,,,,,,,,,,,,,,,,,,,,,,,,,,,
,,,,6140d7cdf9bc6016591c2878,A,2024-07-02_09h51.54.809,Slot Machine Game,2023.1.3,Win32,59.52380952,,,,,,,,,,,,,,,,,,,207.6301,11,0.024,,right,0.5,,stimuli/card_100_transparent.png,270,100,11,0,11,0,1,,,,,,,,,,,,,,,,,,,,,,,,,,,,,,,,,,,,,,,,,,,,
,,,,6140d7cdf9bc6016591c2878,A,2024-07-02_09h51.54.809,Slot Machine Game,2023.1.3,Win32,59.52380952,,,,,,,,,,,,,,,,,,,208.9969,12,0.9675,,right,0.5,,stimuli/card_100_transparent.png,370,100,12,0,12,0,1,,,,,,,,,,,,,,,,,,,,,,,,,,,,,,,,,,,,,,,,,,,,
,,,,6140d7cdf9bc6016591c2878,A,2024-07-02_09h51.54.809,Slot Machine Game,2023.1.3,Win32,59.52380952,,,,,,,,,,,,,,,,,,,211.3306,13,0.8657,,right,1.5,,stimuli/card_10_transparent.png,380,10,13,0,13,0,1,,,,,,,,,,,,,,,,,,,,,,,,,,,,,,,,,,,,,,,,,,,,
,,,,6140d7cdf9bc6016591c2878,A,2024-07-02_09h51.54.809,Slot Machine Game,2023.1.3,Win32,59.52380952,,,,,,,,,,,,,,,,,,,214.5635,14,0.2557,,right,1.5,,stimuli/card_100_transparent.png,480,100,14,0,14,0,1,,,,,,,,,,,,,,,,,,,,,,,,,,,,,,,,,,,,,,,,,,,,
,,,,6140d7cdf9bc6016591c2878,A,2024-07-02_09h51.54.809,Slot Machine Game,2023.1.3,Win32,59.52380952,,,,,,,,,,,,,,,,,"[6,15]","[[1,3,2],[3,1,2]]",222.2308,0,0.2666,,left,0.5,,stimuli/card_100_transparent.png,100,100,0,0,0,0,1,,217.1971,,,,,,,,,,,,,,,,,,,,,,,,,,,,,,,,,,,,,,,,,,
,,,,6140d7cdf9bc6016591c2878,A,2024-07-02_09h51.54.809,Slot Machine Game,2023.1.3,Win32,59.52380952,,,,,,,,,,,,,,,,,,,223.8633,1,1.0358,,left,1,,stimuli/card_100_transparent.png,200,100,1,0,1,0,1,,,,,,,,,,,,,,,,,,,,,,,,,,,,,,,,,,,,,,,,,,,,
,,,,6140d7cdf9bc6016591c2878,A,2024-07-02_09h51.54.809,Slot Machine Game,2023.1.3,Win32,59.52380952,,,,,,,,,,,,,,,,,,,226.7634,2,0.8771,,left,1.5,,stimuli/card_0_transparent.png,200,0,2,0,2,0,1,,,,,,,,,,,,,,,,,,,,,,,,,,,,,,,,,,,,,,,,,,,,
,,,,6140d7cdf9bc6016591c2878,A,2024-07-02_09h51.54.809,Slot Machine Game,2023.1.3,Win32,59.52380952,,,,,,,,,,,,,,,,,,,229.9969,3,0.9664,,left,1,,stimuli/card_100_transparent.png,300,100,3,0,3,0,1,,,,,,,,,,,,,,,,,,,,,,,,,,,,,,,,,,,,,,,,,,,,
,,,,6140d7cdf9bc6016591c2878,A,2024-07-02_09h51.54.809,Slot Machine Game,2023.1.3,Win32,59.52380952,,,,,,,,,,,,,,,,,,,232.83,4,0.3993,,left,1,,stimuli/card_100_transparent.png,400,100,4,0,4,0,1,,,,,,,,,,,,,,,,,,,,,,,,,,,,,,,,,,,,,,,,,,,,
,,,,6140d7cdf9bc6016591c2878,A,2024-07-02_09h51.54.809,Slot Machine Game,2023.1.3,Win32,59.52380952,,,,,,,,,,,,,,,,,,,235.0966,5,0.4201,,left,0.5,,stimuli/card_100_transparent.png,500,100,5,0,5,0,1,,,,,,,,,,,,,,,,,,,,,,,,,,,,,,,,,,,,,,,,,,,,
,,,,6140d7cdf9bc6016591c2878,A,2024-07-02_09h51.54.809,Slot Machine Game,2023.1.3,Win32,59.52380952,,,,,,,,,,,,,,,,,,,236.8637,6,0.4184,,left,1.5,,stimuli/card_100_transparent.png,600,100,6,0,6,0,1,,,,,,,,,,,,,,,,,,,,,,,,,,,,,,,,,,,,,,,,,,,,
,,,,6140d7cdf9bc6016591c2878,A,2024-07-02_09h51.54.809,Slot Machine Game,2023.1.3,Win32,59.52380952,,,,,,,,,,,,,,,,,,,239.6296,7,0.1026,,left,1.5,,stimuli/card_0_transparent.png,600,0,7,0,7,0,1,,,,,,,,,,,,,,,,,,,,,,,,,,,,,,,,,,,,,,,,,,,,
,,,,6140d7cdf9bc6016591c2878,A,2024-07-02_09h51.54.809,Slot Machine Game,2023.1.3,Win32,59.52380952,,,,,,,,,,,,,,,,,,,242.0964,8,0.5564,,left,0.5,,stimuli/card_10_transparent.png,610,10,8,0,8,0,1,,,,,,,,,,,,,,,,,,,,,,,,,,,,,,,,,,,,,,,,,,,,
,,,,6140d7cdf9bc6016591c2878,A,2024-07-02_09h51.54.809,Slot Machine Game,2023.1.3,Win32,59.52380952,,,,,,,,,,,,,,,,,,,243.9966,9,0.6056,,left,0.5,,stimuli/card_0_transparent.png,610,0,9,0,9,0,1,,,,,,,,,,,,,,,,,,,,,,,,,,,,,,,,,,,,,,,,,,,,
,,,,6140d7cdf9bc6016591c2878,A,2024-07-02_09h51.54.809,Slot Machine Game,2023.1.3,Win32,59.52380952,,,,,,,,,,,,,,,,,,,245.9628,10,0.7766,,left,1,,stimuli/card_10_transparent.png,620,10,10,0,10,0,1,,,,,,,,,,,,,,,,,,,,,,,,,,,,,,,,,,,,,,,,,,,,
,,,,6140d7cdf9bc6016591c2878,A,2024-07-02_09h51.54.809,Slot Machine Game,2023.1.3,Win32,59.52380952,,,,,,,,,,,,,,,,,,,248.5624,11,1.1153,,left,1.5,,stimuli/card_0_transparent.png,620,0,11,0,11,0,1,,,,,,,,,,,,,,,,,,,,,,,,,,,,,,,,,,,,,,,,,,,,
,,,,6140d7cdf9bc6016591c2878,A,2024-07-02_09h51.54.809,Slot Machine Game,2023.1.3,Win32,59.52380952,,,,,,,,,,,,,,,,,,,251.9963,12,0.6676,,right,0.5,,stimuli/card_10_transparent.png,630,10,12,0,12,0,1,,,,,,,,,,,,,,,,,,,,,,,,,,,,,,,,,,,,,,,,,,,,
,,,,6140d7cdf9bc6016591c2878,A,2024-07-02_09h51.54.809,Slot Machine Game,2023.1.3,Win32,59.52380952,,,,,,,,,,,,,,,,,,,253.9964,13,0.5682,,up,1.5,,stimuli/card_100_transparent.png,730,100,13,0,13,0,1,,,,,,,,,,,,,,,,,,,,,,,,,,,,,,,,,,,,,,,,,,,,
,,,,6140d7cdf9bc6016591c2878,A,2024-07-02_09h51.54.809,Slot Machine Game,2023.1.3,Win32,59.52380952,,,,,,,,,,,,,,,,,,,256.9295,14,0.6445,,up,1.5,,stimuli/card_100_transparent.png,830,100,14,0,14,0,1,,,,,,,,,,,,,,,,,,,,,,,,,,,,,,,,,,,,,,,,,,,,
,,,,6140d7cdf9bc6016591c2878,A,2024-07-02_09h51.54.809,Slot Machine Game,2023.1.3,Win32,59.52380952,,,,,,,,,,,,,,,,,,,,,,,,,,,,,,,,,,,259.9298,,,264.9311,space,2.9441,,,,,,,,,,,,,,,,,,,,,,,,,,,,,,,,,,,,,
,,,,6140d7cdf9bc6016591c2878,A,2024-07-02_09h51.54.809,Slot Machine Game,2023.1.3,Win32,59.52380952,,,,,,,,,,,,,,,,,,,,,,,,,,,,,,,,,,,,,,,,,,267.8965,2,"[2,4,8,0,1,3,9,6,8,5]",space,3.1899,,,,,,,,,,,,,,,,,,,,,,,,,,,,,,,
,,,,6140d7cdf9bc6016591c2878,A,2024-07-02_09h51.54.809,Slot Machine Game,2023.1.3,Win32,59.52380952,,,,,,,,,,,,,,,,,,,,,,,,,,,0,,,,,,,,,,,,,,,,,,,,,1,3,"[15,15]","[[3,1,2],[3,1,2]]",271.1714,0,left,0.5101,,1.5,0.3,"[3,1,2]",0.770775521,stimuli/card_0_transparent.png,0,0,0,0,0,1,,,,,,,,,,
,,,,6140d7cdf9bc6016591c2878,A,2024-07-02_09h51.54.809,Slot Machine Game,2023.1.3,Win32,59.52380952,,,,,,,,,,,,,,,,,,,,,,,,,,,100,,,,,,,,,,,,,,,,,,,,,1,3,,,274.0302,1,up,2.2016,,1,0.3,"[3,1,2]",0.628592765,stimuli/card_100_transparent.png,100,1,0,1,0,1,,,,,,,,,,
,,,,6140d7cdf9bc6016591c2878,A,2024-07-02_09h51.54.809,Slot Machine Game,2023.1.3,Win32,59.52380952,,,,,,,,,,,,,,,,,,,,,,,,,,,200,,,,,,,,,,,,,,,,,,,,,1,3,,,278.0959,2,up,0.1259,,1,0.3,"[3,1,2]",0.376821365,stimuli/card_100_transparent.png,100,2,0,2,0,1,,,,,,,,,,
,,,,6140d7cdf9bc6016591c2878,A,2024-07-02_09h51.54.809,Slot Machine Game,2023.1.3,Win32,59.52380952,,,,,,,,,,,,,,,,,,,,,,,,,,,200,,,,,,,,,,,,,,,,,,,,,1,3,,,280.0627,3,up,1.3344,,1.5,0.3,"[3,1,2]",0.009137818,stimuli/card_0_transparent.png,0,3,0,3,0,1,,,,,,,,,,
,,,,6140d7cdf9bc6016591c2878,A,2024-07-02_09h51.54.809,Slot Machine Game,2023.1.3,Win32,59.52380952,,,,,,,,,,,,,,,,,,,,,,,,,,,300,,,,,,,,,,,,,,,,,,,,,1,3,,,283.7625,4,up,1.348,,1.5,0.3,"[3,1,2]",0.813147318,stimuli/card_100_transparent.png,100,4,0,4,0,1,,,,,,,,,,
,,,,6140d7cdf9bc6016591c2878,A,2024-07-02_09h51.54.809,Slot Machine Game,2023.1.3,Win32,59.52380952,,,,,,,,,,,,,,,,,,,,,,,,,,,400,,,,,,,,,,,,,,,,,,,,,1,3,,,287.4616,5,up,0.317,,1,0.3,"[3,1,2]",0.848875806,stimuli/card_100_transparent.png,100,5,0,5,0,1,,,,,,,,,,
,,,,6140d7cdf9bc6016591c2878,A,2024-07-02_09h51.54.809,Slot Machine Game,2023.1.3,Win32,59.52380952,,,,,,,,,,,,,,,,,,,,,,,,,,,500,,,,,,,,,,,,,,,,,,,,,1,3,,,289.5957,6,up,0.0213,,0.5,0.3,"[3,1,2]",0.398421882,stimuli/card_100_transparent.png,100,6,0,6,0,1,,,,,,,,,,
,,,,6140d7cdf9bc6016591c2878,A,2024-07-02_09h51.54.809,Slot Machine Game,2023.1.3,Win32,59.52380952,,,,,,,,,,,,,,,,,,,,,,,,,,,600,,,,,,,,,,,,,,,,,,,,,1,3,,,290.9621,7,up,0.4104,,1,0.3,"[3,1,2]",0.838279146,stimuli/card_100_transparent.png,100,7,0,7,0,1,,,,,,,,,,
,,,,6140d7cdf9bc6016591c2878,A,2024-07-02_09h51.54.809,Slot Machine Game,2023.1.3,Win32,59.52380952,,,,,,,,,,,,,,,,,,,,,,,,,,,700,,,,,,,,,,,,,,,,,,,,,1,3,,,293.2294,8,up,0.1991,,1.5,0.3,"[3,1,2]",0.789205986,stimuli/card_100_transparent.png,100,8,0,8,0,1,,,,,,,,,,
,,,,6140d7cdf9bc6016591c2878,A,2024-07-02_09h51.54.809,Slot Machine Game,2023.1.3,Win32,59.52380952,,,,,,,,,,,,,,,,,,,,,,,,,,,800,,,,,,,,,,,,,,,,,,,,,1,3,,,295.7956,9,up,0.2043,,1.5,0.3,"[3,1,2]",0.548156142,stimuli/card_100_transparent.png,100,9,0,9,0,1,,,,,,,,,,
,,,,6140d7cdf9bc6016591c2878,A,2024-07-02_09h51.54.809,Slot Machine Game,2023.1.3,Win32,59.52380952,,,,,,,,,,,,,,,,,,,,,,,,,,,900,,,,,,,,,,,,,,,,,,,,,1,3,,,298.3622,10,up,0.5123,,1.5,0.3,"[3,1,2]",0.819705117,stimuli/card_100_transparent.png,100,10,0,10,0,1,,,,,,,,,,
,,,,6140d7cdf9bc6016591c2878,A,2024-07-02_09h51.54.809,Slot Machine Game,2023.1.3,Win32,59.52380952,,,,,,,,,,,,,,,,,,,,,,,,,,,1000,,,,,,,,,,,,,,,,,,,,,1,3,,,301.2291,11,up,0.0693,,1.5,0.3,"[3,1,2]",0.616140126,stimuli/card_100_transparent.png,100,11,0,11,0,1,,,,,,,,,,
,,,,6140d7cdf9bc6016591c2878,A,2024-07-02_09h51.54.809,Slot Machine Game,2023.1.3,Win32,59.52380952,,,,,,,,,,,,,,,,,,,,,,,,,,,1100,,,,,,,,,,,,,,,,,,,,,1,3,,,303.6616,12,up,0.4334,,1,0.3,"[3,1,2]",0.697979984,stimuli/card_100_transparent.png,100,12,0,12,0,1,,,,,,,,,,
,,,,6140d7cdf9bc6016591c2878,A,2024-07-02_09h51.54.809,Slot Machine Game,2023.1.3,Win32,59.52380952,,,,,,,,,,,,,,,,,,,,,,,,,,,1110,,,,,,,,,,,,,,,,,,,,,1,3,,,305.9287,13,up,0.4769,,1.5,0.3,"[3,1,2]",0.169908674,stimuli/card_10_transparent.png,10,13,0,13,0,1,,,,,,,,,,
,,,,6140d7cdf9bc6016591c2878,A,2024-07-02_09h51.54.809,Slot Machine Game,2023.1.3,Win32,59.52380952,,,,,,,,,,,,,,,,,,,,,,,,,,,1110,,,,,,,,,,,,,,,,,,,,,1,3,,,308.762,14,up,0.1107,,1,0.3,"[3,1,2]",0.001301248,stimuli/card_0_transparent.png,0,14,0,14,0,1,,,,,,,,,,
,,,,6140d7cdf9bc6016591c2878,A,2024-07-02_09h51.54.809,Slot Machine Game,2023.1.3,Win32,59.52380952,,,,,,,,,,,,,,,,,,,,,,,,,,,,,,,,,,,310.7289,,,,,,,,,,,,,,,,,,,,,,,,,,,,,,,,,[1110],0,0,0,0,1,,,,
,,,,6140d7cdf9bc6016591c2878,A,2024-07-02_09h51.54.809,Slot Machine Game,2023.1.3,Win32,59.52380952,,,,,,,,,,,,,,,,,,,,,,,,,,,10,,,,,,,,,,,,,,,,,,,,,2,5,"[5,15]","[[1,2,3],[3,1,2]]",315.7649,0,up,2.1022,,1,0.3,"[1,2,3]",0.550916336,stimuli/card_10_transparent.png,10,0,0,0,0,1,,,,,,,,,,
,,,,6140d7cdf9bc6016591c2878,A,2024-07-02_09h51.54.809,Slot Machine Game,2023.1.3,Win32,59.52380952,,,,,,,,,,,,,,,,,,,,,,,,,,,10,,,,,,,,,,,,,,,,,,,,,2,5,,,319.7294,1,right,0.0706,,0.5,0.3,"[1,2,3]",0.331379747,stimuli/card_0_transparent.png,0,1,0,1,0,1,,,,,,,,,,
,,,,6140d7cdf9bc6016591c2878,A,2024-07-02_09h51.54.809,Slot Machine Game,2023.1.3,Win32,59.52380952,,,,,,,,,,,,,,,,,,,,,,,,,,,110,,,,,,,,,,,,,,,,,,,,,2,5,,,321.1616,2,left,0.3017,,1.5,0.3,"[1,2,3]",0.571630615,stimuli/card_100_transparent.png,100,2,0,2,0,1,,,,,,,,,,
,,,,6140d7cdf9bc6016591c2878,A,2024-07-02_09h51.54.809,Slot Machine Game,2023.1.3,Win32,59.52380952,,,,,,,,,,,,,,,,,,,,,,,,,,,210,,,,,,,,,,,,,,,,,,,,,2,5,,,323.8286,3,left,1.2822,,1.5,0.3,"[1,2,3]",0.294551023,stimuli/card_100_transparent.png,100,3,0,3,0,1,,,,,,,,,,
,,,,6140d7cdf9bc6016591c2878,A,2024-07-02_09h51.54.809,Slot Machine Game,2023.1.3,Win32,59.52380952,,,,,,,,,,,,,,,,,,,,,,,,,,,210,,,,,,,,,,,,,,,,,,,,,2,5,,,327.4614,4,left,0.3916,,1.5,0.3,"[1,2,3]",0.033442937,stimuli/card_0_transparent.png,0,4,0,4,0,1,,,,,,,,,,
,,,,6140d7cdf9bc6016591c2878,A,2024-07-02_09h51.54.809,Slot Machine Game,2023.1.3,Win32,59.52380952,,,,,,,,,,,,,,,,,,,,,,,,,,,210,,,,,,,,,,,,,,,,,,,,,2,5,,,330.1949,5,left,0.3338,,1.5,0.3,"[3,1,2]",0.731229469,stimuli/card_0_transparent.png,0,5,0,5,0,1,,,,,,,,,,
,,,,6140d7cdf9bc6016591c2878,A,2024-07-02_09h51.54.809,Slot Machine Game,2023.1.3,Win32,59.52380952,,,,,,,,,,,,,,,,,,,,,,,,,,,220,,,,,,,,,,,,,,,,,,,,,2,5,,,332.8949,6,right,0.477,,1,0.3,"[3,1,2]",0.372034105,stimuli/card_10_transparent.png,10,6,0,6,0,1,,,,,,,,,,
,,,,6140d7cdf9bc6016591c2878,A,2024-07-02_09h51.54.809,Slot Machine Game,2023.1.3,Win32,59.52380952,,,,,,,,,,,,,,,,,,,,,,,,,,,230,,,,,,,,,,,,,,,,,,,,,2,5,,,335.1945,7,right,0.3142,,0.5,0.3,"[3,1,2]",0.510510799,stimuli/card_10_transparent.png,10,7,0,7,0,1,,,,,,,,,,
,,,,6140d7cdf9bc6016591c2878,A,2024-07-02_09h51.54.809,Slot Machine Game,2023.1.3,Win32,59.52380952,,,,,,,,,,,,,,,,,,,,,,,,,,,230,,,,,,,,,,,,,,,,,,,,,2,5,,,336.828,8,right,0.4422,,1,0.3,"[3,1,2]",0.034057399,stimuli/card_0_transparent.png,0,8,0,8,0,1,,,,,,,,,,
,,,,6140d7cdf9bc6016591c2878,A,2024-07-02_09h51.54.809,Slot Machine Game,2023.1.3,Win32,59.52380952,,,,,,,,,,,,,,,,,,,,,,,,,,,330,,,,,,,,,,,,,,,,,,,,,2,5,,,339.1283,9,up,0.503,,0.5,0.3,"[3,1,2]",0.774974798,stimuli/card_100_transparent.png,100,9,0,9,0,1,,,,,,,,,,
,,,,6140d7cdf9bc6016591c2878,A,2024-07-02_09h51.54.809,Slot Machine Game,2023.1.3,Win32,59.52380952,,,,,,,,,,,,,,,,,,,,,,,,,,,430,,,,,,,,,,,,,,,,,,,,,2,5,,,340.9949,10,up,0.6352,,1.5,0.3,"[3,1,2]",0.338828,stimuli/card_100_transparent.png,100,10,0,10,0,1,,,,,,,,,,
,,,,6140d7cdf9bc6016591c2878,A,2024-07-02_09h51.54.809,Slot Machine Game,2023.1.3,Win32,59.52380952,,,,,,,,,,,,,,,,,,,,,,,,,,,430,,,,,,,,,,,,,,,,,,,,,2,5,,,343.9946,11,up,0.4818,,1.5,0.3,"[3,1,2]",0.027328338,stimuli/card_0_transparent.png,0,11,0,11,0,1,,,,,,,,,,
,,,,6140d7cdf9bc6016591c2878,A,2024-07-02_09h51.54.809,Slot Machine Game,2023.1.3,Win32,59.52380952,,,,,,,,,,,,,,,,,,,,,,,,,,,530,,,,,,,,,,,,,,,,,,,,,2,5,,,346.8277,12,up,0.3004,,1.5,0.3,"[3,1,2]",0.507148319,stimuli/card_100_transparent.png,100,12,0,12,0,1,,,,,,,,,,
,,,,6140d7cdf9bc6016591c2878,A,2024-07-02_09h51.54.809,Slot Machine Game,2023.1.3,Win32,59.52380952,,,,,,,,,,,,,,,,,,,,,,,,,,,630,,,,,,,,,,,,,,,,,,,,,2,5,,,349.4945,13,up,0.1721,,1.5,0.3,"[3,1,2]",0.356532716,stimuli/card_100_transparent.png,100,13,0,13,0,1,,,,,,,,,,
,,,,6140d7cdf9bc6016591c2878,A,2024-07-02_09h51.54.809,Slot Machine Game,2023.1.3,Win32,59.52380952,,,,,,,,,,,,,,,,,,,,,,,,,,,730,,,,,,,,,,,,,,,,,,,,,2,5,,,351.9944,14,up,0.1701,,0.5,0.3,"[3,1,2]",0.238453073,stimuli/card_100_transparent.png,100,14,0,14,0,1,,,,,,,,,,
,,,,6140d7cdf9bc6016591c2878,A,2024-07-02_09h51.54.809,Slot Machine Game,2023.1.3,Win32,59.52380952,,,,,,,,,,,,,,,,,,,,,,,,,,,,,,,,,,,353.528,,,,,,,,,,,,,,,,,,,,,,,,,,,,,,,,,"[1110,730]",1,0,1,0,1,,,,
,,,,6140d7cdf9bc6016591c2878,A,2024-07-02_09h51.54.809,Slot Machine Game,2023.1.3,Win32,59.52380952,,,,,,,,,,,,,,,,,,,,,,,,,,,10,,,,,,,,,,,,,,,,,,,,,3,9,"[8,15]","[[3,2,1],[3,1,2]]",358.5642,0,up,0.3831,,1,0.3,"[3,2,1]",0.582986852,stimuli/card_10_transparent.png,10,0,0,0,0,1,,,,,,,,,,
,,,,6140d7cdf9bc6016591c2878,A,2024-07-02_09h51.54.809,Slot Machine Game,2023.1.3,Win32,59.52380952,,,,,,,,,,,,,,,,,,,,,,,,,,,110,,,,,,,,,,,,,,,,,,,,,3,9,,,360.7945,1,right,0.1175,,1,0.3,"[3,2,1]",0.868855696,stimuli/card_100_transparent.png,100,1,0,1,0,1,,,,,,,,,,
,,,,6140d7cdf9bc6016591c2878,A,2024-07-02_09h51.54.809,Slot Machine Game,2023.1.3,Win32,59.52380952,,,,,,,,,,,,,,,,,,,,,,,,,,,110,,,,,,,,,,,,,,,,,,,,,3,9,,,362.761,2,left,0.3179,,1,0.3,"[3,2,1]",0.777412586,stimuli/card_0_transparent.png,0,2,0,2,0,1,,,,,,,,,,
,,,,6140d7cdf9bc6016591c2878,A,2024-07-02_09h51.54.809,Slot Machine Game,2023.1.3,Win32,59.52380952,,,,,,,,,,,,,,,,,,,,,,,,,,,210,,,,,,,,,,,,,,,,,,,,,3,9,,,364.9274,3,right,0.2451,,1.5,0.3,"[3,2,1]",0.592183265,stimuli/card_100_transparent.png,100,3,0,3,0,1,,,,,,,,,,
,,,,6140d7cdf9bc6016591c2878,A,2024-07-02_09h51.54.809,Slot Machine Game,2023.1.3,Win32,59.52380952,,,,,,,,,,,,,,,,,,,,,,,,,,,310,,,,,,,,,,,,,,,,,,,,,3,9,,,367.5275,4,right,0.3166,,0.5,0.3,"[3,2,1]",0.333670365,stimuli/card_100_transparent.png,100,4,0,4,0,1,,,,,,,,,,
,,,,6140d7cdf9bc6016591c2878,A,2024-07-02_09h51.54.809,Slot Machine Game,2023.1.3,Win32,59.52380952,,,,,,,,,,,,,,,,,,,,,,,,,,,410,,,,,,,,,,,,,,,,,,,,,3,9,,,369.1943,5,right,0.4182,,1,0.3,"[3,2,1]",0.731406844,stimuli/card_100_transparent.png,100,5,0,5,0,1,,,,,,,,,,
,,,,6140d7cdf9bc6016591c2878,A,2024-07-02_09h51.54.809,Slot Machine Game,2023.1.3,Win32,59.52380952,,,,,,,,,,,,,,,,,,,,,,,,,,,510,,,,,,,,,,,,,,,,,,,,,3,9,,,371.4606,6,right,0.2192,,0.5,0.3,"[3,2,1]",0.583922163,stimuli/card_100_transparent.png,100,6,0,6,0,1,,,,,,,,,,
,,,,6140d7cdf9bc6016591c2878,A,2024-07-02_09h51.54.809,Slot Machine Game,2023.1.3,Win32,59.52380952,,,,,,,,,,,,,,,,,,,,,,,,,,,510,,,,,,,,,,,,,,,,,,,,,3,9,,,373.0274,7,right,0.0055,,0.5,0.3,"[3,2,1]",0.048143236,stimuli/card_0_transparent.png,0,7,0,7,0,1,,,,,,,,,,
,,,,6140d7cdf9bc6016591c2878,A,2024-07-02_09h51.54.809,Slot Machine Game,2023.1.3,Win32,59.52380952,,,,,,,,,,,,,,,,,,,,,,,,,,,520,,,,,,,,,,,,,,,,,,,,,3,9,,,374.3943,8,right,0.2372,,0.5,0.3,"[3,1,2]",0.246619271,stimuli/card_10_transparent.png,10,8,0,8,0,1,,,,,,,,,,
,,,,6140d7cdf9bc6016591c2878,A,2024-07-02_09h51.54.809,Slot Machine Game,2023.1.3,Win32,59.52380952,,,,,,,,,,,,,,,,,,,,,,,,,,,520,,,,,,,,,,,,,,,,,,,,,3,9,,,375.9944,9,right,0.1333,,1,0.3,"[3,1,2]",0.029211092,stimuli/card_0_transparent.png,0,9,0,9,0,1,,,,,,,,,,
,,,,6140d7cdf9bc6016591c2878,A,2024-07-02_09h51.54.809,Slot Machine Game,2023.1.3,Win32,59.52380952,,,,,,,,,,,,,,,,,,,,,,,,,,,620,,,,,,,,,,,,,,,,,,,,,3,9,,,377.994,10,up,0.3862,,1.5,0.3,"[3,1,2]",0.795481611,stimuli/card_100_transparent.png,100,10,0,10,0,1,,,,,,,,,,
,,,,6140d7cdf9bc6016591c2878,A,2024-07-02_09h51.54.809,Slot Machine Game,2023.1.3,Win32,59.52380952,,,,,,,,,,,,,,,,,,,,,,,,,,,720,,,,,,,,,,,,,,,,,,,,,3,9,,,380.7274,11,up,0.1865,,1.5,0.3,"[3,1,2]",0.377089862,stimuli/card_100_transparent.png,100,11,0,11,0,1,,,,,,,,,,
,,,,6140d7cdf9bc6016591c2878,A,2024-07-02_09h51.54.809,Slot Machine Game,2023.1.3,Win32,59.52380952,,,,,,,,,,,,,,,,,,,,,,,,,,,820,,,,,,,,,,,,,,,,,,,,,3,9,,,383.2602,12,up,0.3502,,0.5,0.3,"[3,1,2]",0.971283501,stimuli/card_100_transparent.png,100,12,0,12,0,1,,,,,,,,,,
,,,,6140d7cdf9bc6016591c2878,A,2024-07-02_09h51.54.809,Slot Machine Game,2023.1.3,Win32,59.52380952,,,,,,,,,,,,,,,,,,,,,,,,,,,820,,,,,,,,,,,,,,,,,,,,,3,9,,,384.9277,13,up,0.1745,,1.5,0.3,"[3,1,2]",0.094515932,stimuli/card_0_transparent.png,0,13,0,13,0,1,,,,,,,,,,
,,,,6140d7cdf9bc6016591c2878,A,2024-07-02_09h51.54.809,Slot Machine Game,2023.1.3,Win32,59.52380952,,,,,,,,,,,,,,,,,,,,,,,,,,,820,,,,,,,,,,,,,,,,,,,,,3,9,,,387.4605,14,up,0.3515,,1.5,0.3,"[3,1,2]",0.055325117,stimuli/card_0_transparent.png,0,14,0,14,0,1,,,,,,,,,,
,,,,6140d7cdf9bc6016591c2878,A,2024-07-02_09h51.54.809,Slot Machine Game,2023.1.3,Win32,59.52380952,,,,,,,,,,,,,,,,,,,,,,,,,,,,,,,,,,,390.1608,,,,,,,,,,,,,,,,,,,,,,,,,,,,,,,,,"[1110,730,820]",2,0,2,0,1,,,,
,,,,6140d7cdf9bc6016591c2878,A,2024-07-02_09h51.54.809,Slot Machine Game,2023.1.3,Win32,59.52380952,,,,,,,,,,,,,,,,,,,,,,,,,,,0,,,,,,,,,,,,,,,,,,,,,4,1,"[12,15]","[[2,1,3],[2,3,1]]",395.1984,0,left,0.167,,1.5,0.3,"[2,1,3]",0.086848013,stimuli/card_0_transparent.png,0,0,0,0,0,1,,,,,,,,,,
,,,,6140d7cdf9bc6016591c2878,A,2024-07-02_09h51.54.809,Slot Machine Game,2023.1.3,Win32,59.52380952,,,,,,,,,,,,,,,,,,,,,,,,,,,10,,,,,,,,,,,,,,,,,,,,,4,1,,,397.727,1,up,1.2449,,1.5,0.3,"[2,1,3]",0.149682274,stimuli/card_10_transparent.png,10,1,0,1,0,1,,,,,,,,,,
,,,,6140d7cdf9bc6016591c2878,A,2024-07-02_09h51.54.809,Slot Machine Game,2023.1.3,Win32,59.52380952,,,,,,,,,,,,,,,,,,,,,,,,,,,10,,,,,,,,,,,,,,,,,,,,,4,1,,,401.3268,2,right,0.0155,,1,0.3,"[2,1,3]",0.935297541,stimuli/card_0_transparent.png,0,2,0,2,0,1,,,,,,,,,,
,,,,6140d7cdf9bc6016591c2878,A,2024-07-02_09h51.54.809,Slot Machine Game,2023.1.3,Win32,59.52380952,,,,,,,,,,,,,,,,,,,,,,,,,,,10,,,,,,,,,,,,,,,,,,,,,4,1,,,403.1936,3,right,1.0722,,1.5,0.3,"[2,1,3]",0.532623366,stimuli/card_0_transparent.png,0,3,0,3,0,1,,,,,,,,,,
,,,,6140d7cdf9bc6016591c2878,A,2024-07-02_09h51.54.809,Slot Machine Game,2023.1.3,Win32,59.52380952,,,,,,,,,,,,,,,,,,,,,,,,,,,10,,,,,,,,,,,,,,,,,,,,,4,1,,,406.5936,4,up,0.4076,,1.5,0.3,"[2,1,3]",0.006907984,stimuli/card_0_transparent.png,0,4,0,4,0,1,,,,,,,,,,
,,,,6140d7cdf9bc6016591c2878,A,2024-07-02_09h51.54.809,Slot Machine Game,2023.1.3,Win32,59.52380952,,,,,,,,,,,,,,,,,,,,,,,,,,,20,,,,,,,,,,,,,,,,,,,,,4,1,,,409.3603,5,left,1.2205,,1,0.3,"[2,1,3]",0.376655329,stimuli/card_10_transparent.png,10,5,0,5,0,1,,,,,,,,,,
,,,,6140d7cdf9bc6016591c2878,A,2024-07-02_09h51.54.809,Slot Machine Game,2023.1.3,Win32,59.52380952,,,,,,,,,,,,,,,,,,,,,,,,,,,30,,,,,,,,,,,,,,,,,,,,,4,1,,,412.4273,6,left,0.7165,,0.5,0.3,"[2,1,3]",0.377788932,stimuli/card_10_transparent.png,10,6,0,6,0,1,,,,,,,,,,
,,,,6140d7cdf9bc6016591c2878,A,2024-07-02_09h51.54.809,Slot Machine Game,2023.1.3,Win32,59.52380952,,,,,,,,,,,,,,,,,,,,,,,,,,,130,,,,,,,,,,,,,,,,,,,,,4,1,,,414.4934,7,up,0.7258,,0.5,0.3,"[2,1,3]",0.636093562,stimuli/card_100_transparent.png,100,7,0,7,0,1,,,,,,,,,,
,,,,6140d7cdf9bc6016591c2878,A,2024-07-02_09h51.54.809,Slot Machine Game,2023.1.3,Win32,59.52380952,,,,,,,,,,,,,,,,,,,,,,,,,,,230,,,,,,,,,,,,,,,,,,,,,4,1,,,416.5601,8,up,0.6217,,1,0.3,"[2,1,3]",0.206935167,stimuli/card_100_transparent.png,100,8,0,8,0,1,,,,,,,,,,
,,,,6140d7cdf9bc6016591c2878,A,2024-07-02_09h51.54.809,Slot Machine Game,2023.1.3,Win32,59.52380952,,,,,,,,,,,,,,,,,,,,,,,,,,,330,,,,,,,,,,,,,,,,,,,,,4,1,,,419.0268,9,up,0.2484,,1,0.3,"[2,1,3]",0.589455696,stimuli/card_100_transparent.png,100,9,0,9,0,1,,,,,,,,,,
,,,,6140d7cdf9bc6016591c2878,A,2024-07-02_09h51.54.809,Slot Machine Game,2023.1.3,Win32,59.52380952,,,,,,,,,,,,,,,,,,,,,,,,,,,430,,,,,,,,,,,,,,,,,,,,,4,1,,,421.1265,10,up,0.2443,,1.5,0.3,"[2,1,3]",0.954769467,stimuli/card_100_transparent.png,100,10,0,10,0,1,,,,,,,,,,
,,,,6140d7cdf9bc6016591c2878,A,2024-07-02_09h51.54.809,Slot Machine Game,2023.1.3,Win32,59.52380952,,,,,,,,,,,,,,,,,,,,,,,,,,,530,,,,,,,,,,,,,,,,,,,,,4,1,,,423.7266,11,up,0.0359,,1,0.3,"[2,1,3]",0.760512554,stimuli/card_100_transparent.png,100,11,0,11,0,1,,,,,,,,,,
,,,,6140d7cdf9bc6016591c2878,A,2024-07-02_09h51.54.809,Slot Machine Game,2023.1.3,Win32,59.52380952,,,,,,,,,,,,,,,,,,,,,,,,,,,530,,,,,,,,,,,,,,,,,,,,,4,1,,,425.6268,12,up,0.0867,,1.5,0.3,"[2,3,1]",0.538134176,stimuli/card_0_transparent.png,0,12,0,12,0,1,,,,,,,,,,
,,,,6140d7cdf9bc6016591c2878,A,2024-07-02_09h51.54.809,Slot Machine Game,2023.1.3,Win32,59.52380952,,,,,,,,,,,,,,,,,,,,,,,,,,,530,,,,,,,,,,,,,,,,,,,,,4,1,,,428.0599,13,up,0.3674,,0.5,0.3,"[2,3,1]",0.743731426,stimuli/card_0_transparent.png,0,13,0,13,0,1,,,,,,,,,,
,,,,6140d7cdf9bc6016591c2878,A,2024-07-02_09h51.54.809,Slot Machine Game,2023.1.3,Win32,59.52380952,,,,,,,,,,,,,,,,,,,,,,,,,,,530,,,,,,,,,,,,,,,,,,,,,4,1,,,429.7933,14,right,0.2685,,0.5,0.3,"[2,3,1]",0.075046849,stimuli/card_0_transparent.png,0,14,0,14,0,1,,,,,,,,,,
,,,,6140d7cdf9bc6016591c2878,A,2024-07-02_09h51.54.809,Slot Machine Game,2023.1.3,Win32,59.52380952,,,,,,,,,,,,,,,,,,,,,,,,,,,,,,,,,,,431.4267,,,,,,,,,,,,,,,,,,,,,,,,,,,,,,,,,"[1110,730,820,530]",3,0,3,0,1,,,,
,,,,6140d7cdf9bc6016591c2878,A,2024-07-02_09h51.54.809,Slot Machine Game,2023.1.3,Win32,59.52380952,,,,,,,,,,,,,,,,,,,,,,,,,,,100,,,,,,,,,,,,,,,,,,,,,5,2,"[6,15]","[[1,3,2],[3,2,1]]",436.463,0,left,0.27,,1.5,0.3,"[1,3,2]",0.699478316,stimuli/card_100_transparent.png,100,0,0,0,0,1,,,,,,,,,,
,,,,6140d7cdf9bc6016591c2878,A,2024-07-02_09h51.54.809,Slot Machine Game,2023.1.3,Win32,59.52380952,,,,,,,,,,,,,,,,,,,,,,,,,,,100,,,,,,,,,,,,,,,,,,,,,5,2,,,439.0932,1,left,0.3889,,1,0.3,"[1,3,2]",0.082934401,stimuli/card_0_transparent.png,0,1,0,1,0,1,,,,,,,,,,
,,,,6140d7cdf9bc6016591c2878,A,2024-07-02_09h51.54.809,Slot Machine Game,2023.1.3,Win32,59.52380952,,,,,,,,,,,,,,,,,,,,,,,,,,,100,,,,,,,,,,,,,,,,,,,,,5,2,,,441.325,2,left,0.2038,,0.5,0.3,"[1,3,2]",0.05234112,stimuli/card_0_transparent.png,0,2,0,2,0,1,,,,,,,,,,
,,,,6140d7cdf9bc6016591c2878,A,2024-07-02_09h51.54.809,Slot Machine Game,2023.1.3,Win32,59.52380952,,,,,,,,,,,,,,,,,,,,,,,,,,,100,,,,,,,,,,,,,,,,,,,,,5,2,,,442.893,3,up,0.0786,,1,0.3,"[1,3,2]",0.457440987,stimuli/card_0_transparent.png,0,3,0,3,0,1,,,,,,,,,,
,,,,6140d7cdf9bc6016591c2878,A,2024-07-02_09h51.54.809,Slot Machine Game,2023.1.3,Win32,59.52380952,,,,,,,,,,,,,,,,,,,,,,,,,,,110,,,,,,,,,,,,,,,,,,,,,5,2,,,444.8263,4,right,0.068,,1,0.3,"[1,3,2]",0.469573083,stimuli/card_10_transparent.png,10,4,0,4,0,1,,,,,,,,,,
,,,,6140d7cdf9bc6016591c2878,A,2024-07-02_09h51.54.809,Slot Machine Game,2023.1.3,Win32,59.52380952,,,,,,,,,,,,,,,,,,,,,,,,,,,120,,,,,,,,,,,,,,,,,,,,,5,2,,,446.7593,5,right,1.3003,,1.5,0.3,"[1,3,2]",0.887517787,stimuli/card_10_transparent.png,10,5,0,5,0,1,,,,,,,,,,
,,,,6140d7cdf9bc6016591c2878,A,2024-07-02_09h51.54.809,Slot Machine Game,2023.1.3,Win32,59.52380952,,,,,,,,,,,,,,,,,,,,,,,,,,,220,,,,,,,,,,,,,,,,,,,,,5,2,,,450.4259,6,left,0.9837,,0.5,0.3,"[3,2,1]",0.073546976,stimuli/card_100_transparent.png,100,6,0,6,0,1,,,,,,,,,,
,,,,6140d7cdf9bc6016591c2878,A,2024-07-02_09h51.54.809,Slot Machine Game,2023.1.3,Win32,59.52380952,,,,,,,,,,,,,,,,,,,,,,,,,,,220,,,,,,,,,,,,,,,,,,,,,5,2,,,452.7595,7,left,0.3011,,1,0.3,"[3,2,1]",0.702086475,stimuli/card_0_transparent.png,0,7,0,7,0,1,,,,,,,,,,
,,,,6140d7cdf9bc6016591c2878,A,2024-07-02_09h51.54.809,Slot Machine Game,2023.1.3,Win32,59.52380952,,,,,,,,,,,,,,,,,,,,,,,,,,,220,,,,,,,,,,,,,,,,,,,,,5,2,,,454.9263,8,left,0.0363,,1.5,0.3,"[3,2,1]",0.795828539,stimuli/card_0_transparent.png,0,8,0,8,0,1,,,,,,,,,,
,,,,6140d7cdf9bc6016591c2878,A,2024-07-02_09h51.54.809,Slot Machine Game,2023.1.3,Win32,59.52380952,,,,,,,,,,,,,,,,,,,,,,,,,,,320,,,,,,,,,,,,,,,,,,,,,5,2,,,457.3259,9,up,0.3683,,1,0.3,"[3,2,1]",0.190205255,stimuli/card_100_transparent.png,100,9,0,9,0,1,,,,,,,,,,
,,,,6140d7cdf9bc6016591c2878,A,2024-07-02_09h51.54.809,Slot Machine Game,2023.1.3,Win32,59.52380952,,,,,,,,,,,,,,,,,,,,,,,,,,,330,,,,,,,,,,,,,,,,,,,,,5,2,,,459.5595,10,up,0.8337,,1.5,0.3,"[3,2,1]",0.665731567,stimuli/card_10_transparent.png,10,10,0,10,0,1,,,,,,,,,,
,,,,6140d7cdf9bc6016591c2878,A,2024-07-02_09h51.54.809,Slot Machine Game,2023.1.3,Win32,59.52380952,,,,,,,,,,,,,,,,,,,,,,,,,,,430,,,,,,,,,,,,,,,,,,,,,5,2,,,462.7593,11,right,0.7045,,0.5,0.3,"[3,2,1]",0.85925488,stimuli/card_100_transparent.png,100,11,0,11,0,1,,,,,,,,,,
,,,,6140d7cdf9bc6016591c2878,A,2024-07-02_09h51.54.809,Slot Machine Game,2023.1.3,Win32,59.52380952,,,,,,,,,,,,,,,,,,,,,,,,,,,440,,,,,,,,,,,,,,,,,,,,,5,2,,,464.8259,12,left,1.0068,,1.5,0.3,"[3,2,1]",0.168967985,stimuli/card_10_transparent.png,10,12,0,12,0,1,,,,,,,,,,
,,,,6140d7cdf9bc6016591c2878,A,2024-07-02_09h51.54.809,Slot Machine Game,2023.1.3,Win32,59.52380952,,,,,,,,,,,,,,,,,,,,,,,,,,,450,,,,,,,,,,,,,,,,,,,,,5,2,,,468.1923,13,up,0.7488,,0.5,0.3,"[3,2,1]",0.908809514,stimuli/card_10_transparent.png,10,13,0,13,0,1,,,,,,,,,,
,,,,6140d7cdf9bc6016591c2878,A,2024-07-02_09h51.54.809,Slot Machine Game,2023.1.3,Win32,59.52380952,,,,,,,,,,,,,,,,,,,,,,,,,,,550,,,,,,,,,,,,,,,,,,,,,5,2,,,470.2926,14,right,0.7344,,0.5,0.3,"[3,2,1]",0.460575761,stimuli/card_100_transparent.png,100,14,0,14,0,1,,,,,,,,,,
,,,,6140d7cdf9bc6016591c2878,A,2024-07-02_09h51.54.809,Slot Machine Game,2023.1.3,Win32,59.52380952,,,,,,,,,,,,,,,,,,,,,,,,,,,,,,,,,,,472.3928,,,,,,,,,,,,,,,,,,,,,,,,,,,,,,,,,"[1110,730,820,530,550]",4,0,4,0,1,,,,
,,,,6140d7cdf9bc6016591c2878,A,2024-07-02_09h51.54.809,Slot Machine Game,2023.1.3,Win32,59.52380952,,,,,,,,,,,,,,,,,,,,,,,,,,,100,,,,,,,,,,,,,,,,,,,,,6,4,"[7,15]","[[2,3,1],[1,2,3]]",477.4292,0,right,0.1125,,1.5,0.3,"[2,3,1]",0.637483743,stimuli/card_100_transparent.png,100,0,0,0,0,1,,,,,,,,,,
,,,,6140d7cdf9bc6016591c2878,A,2024-07-02_09h51.54.809,Slot Machine Game,2023.1.3,Win32,59.52380952,,,,,,,,,,,,,,,,,,,,,,,,,,,200,,,,,,,,,,,,,,,,,,,,,6,4,,,479.8921,1,right,1.9669,,1.5,0.3,"[2,3,1]",0.767815573,stimuli/card_100_transparent.png,100,1,0,1,0,1,,,,,,,,,,
,,,,6140d7cdf9bc6016591c2878,A,2024-07-02_09h51.54.809,Slot Machine Game,2023.1.3,Win32,59.52380952,,,,,,,,,,,,,,,,,,,,,,,,,,,300,,,,,,,,,,,,,,,,,,,,,6,4,,,484.2259,2,right,0.4449,,0.5,0.3,"[2,3,1]",0.986801409,stimuli/card_100_transparent.png,100,2,0,2,0,1,,,,,,,,,,
,,,,6140d7cdf9bc6016591c2878,A,2024-07-02_09h51.54.809,Slot Machine Game,2023.1.3,Win32,59.52380952,,,,,,,,,,,,,,,,,,,,,,,,,,,400,,,,,,,,,,,,,,,,,,,,,6,4,,,486.0255,3,right,0.0673,,1,0.3,"[2,3,1]",0.727914674,stimuli/card_100_transparent.png,100,3,0,3,0,1,,,,,,,,,,
,,,,6140d7cdf9bc6016591c2878,A,2024-07-02_09h51.54.809,Slot Machine Game,2023.1.3,Win32,59.52380952,,,,,,,,,,,,,,,,,,,,,,,,,,,500,,,,,,,,,,,,,,,,,,,,,6,4,,,487.9589,4,right,0.0351,,1,0.3,"[2,3,1]",0.427709991,stimuli/card_100_transparent.png,100,4,0,4,0,1,,,,,,,,,,
,,,,6140d7cdf9bc6016591c2878,A,2024-07-02_09h51.54.809,Slot Machine Game,2023.1.3,Win32,59.52380952,,,,,,,,,,,,,,,,,,,,,,,,,,,600,,,,,,,,,,,,,,,,,,,,,6,4,,,489.8589,5,right,0.3461,,0.5,0.3,"[2,3,1]",0.96012217,stimuli/card_100_transparent.png,100,5,0,5,0,1,,,,,,,,,,
,,,,6140d7cdf9bc6016591c2878,A,2024-07-02_09h51.54.809,Slot Machine Game,2023.1.3,Win32,59.52380952,,,,,,,,,,,,,,,,,,,,,,,,,,,700,,,,,,,,,,,,,,,,,,,,,6,4,,,491.5587,6,right,0.6139,,0.5,0.3,"[2,3,1]",0.844814791,stimuli/card_100_transparent.png,100,6,0,6,0,1,,,,,,,,,,
,,,,6140d7cdf9bc6016591c2878,A,2024-07-02_09h51.54.809,Slot Machine Game,2023.1.3,Win32,59.52380952,,,,,,,,,,,,,,,,,,,,,,,,,,,700,,,,,,,,,,,,,,,,,,,,,6,4,,,493.492,7,right,0.2834,,1.5,0.3,"[1,2,3]",0.4612254,stimuli/card_0_transparent.png,0,7,0,7,0,1,,,,,,,,,,
,,,,6140d7cdf9bc6016591c2878,A,2024-07-02_09h51.54.809,Slot Machine Game,2023.1.3,Win32,59.52380952,,,,,,,,,,,,,,,,,,,,,,,,,,,700,,,,,,,,,,,,,,,,,,,,,6,4,,,496.1254,8,right,1.3326,,1,0.3,"[1,2,3]",0.752005194,stimuli/card_0_transparent.png,0,8,0,8,0,1,,,,,,,,,,
,,,,6140d7cdf9bc6016591c2878,A,2024-07-02_09h51.54.809,Slot Machine Game,2023.1.3,Win32,59.52380952,,,,,,,,,,,,,,,,,,,,,,,,,,,710,,,,,,,,,,,,,,,,,,,,,6,4,,,499.3253,9,up,0.2641,,1.5,0.3,"[1,2,3]",0.313866767,stimuli/card_10_transparent.png,10,9,0,9,0,1,,,,,,,,,,
,,,,6140d7cdf9bc6016591c2878,A,2024-07-02_09h51.54.809,Slot Machine Game,2023.1.3,Win32,59.52380952,,,,,,,,,,,,,,,,,,,,,,,,,,,810,,,,,,,,,,,,,,,,,,,,,6,4,,,501.9588,10,left,0.2661,,0.5,0.3,"[1,2,3]",0.995783514,stimuli/card_100_transparent.png,100,10,0,10,0,1,,,,,,,,,,
,,,,6140d7cdf9bc6016591c2878,A,2024-07-02_09h51.54.809,Slot Machine Game,2023.1.3,Win32,59.52380952,,,,,,,,,,,,,,,,,,,,,,,,,,,910,,,,,,,,,,,,,,,,,,,,,6,4,,,503.592,11,left,0.3464,,1,0.3,"[1,2,3]",0.594780097,stimuli/card_100_transparent.png,100,11,0,11,0,1,,,,,,,,,,
,,,,6140d7cdf9bc6016591c2878,A,2024-07-02_09h51.54.809,Slot Machine Game,2023.1.3,Win32,59.52380952,,,,,,,,,,,,,,,,,,,,,,,,,,,1010,,,,,,,,,,,,,,,,,,,,,6,4,,,505.7922,12,left,0.001,,0.5,0.3,"[1,2,3]",0.987200517,stimuli/card_100_transparent.png,100,12,0,12,0,1,,,,,,,,,,
,,,,6140d7cdf9bc6016591c2878,A,2024-07-02_09h51.54.809,Slot Machine Game,2023.1.3,Win32,59.52380952,,,,,,,,,,,,,,,,,,,,,,,,,,,1010,,,,,,,,,,,,,,,,,,,,,6,4,,,507.1585,13,left,0.5014,,0.5,0.3,"[1,2,3]",0.0704777,stimuli/card_0_transparent.png,0,13,0,13,0,1,,,,,,,,,,
,,,,6140d7cdf9bc6016591c2878,A,2024-07-02_09h51.54.809,Slot Machine Game,2023.1.3,Win32,59.52380952,,,,,,,,,,,,,,,,,,,,,,,,,,,1110,,,,,,,,,,,,,,,,,,,,,6,4,,,509.0253,14,left,0.3771,,1,0.3,"[1,2,3]",0.954708045,stimuli/card_100_transparent.png,100,14,0,14,0,1,,,,,,,,,,
,,,,6140d7cdf9bc6016591c2878,A,2024-07-02_09h51.54.809,Slot Machine Game,2023.1.3,Win32,59.52380952,,,,,,,,,,,,,,,,,,,,,,,,,,,,,,,,,,,511.2587,,,,,,,,,,,,,,,,,,,,,,,,,,,,,,,,,"[1110,730,820,530,550,1110]",5,0,5,0,1,,,,
,,,,6140d7cdf9bc6016591c2878,A,2024-07-02_09h51.54.809,Slot Machine Game,2023.1.3,Win32,59.52380952,,,,,,,,,,,,,,,,,,,,,,,,,,,100,,,,,,,,,,,,,,,,,,,,,7,10,"[10,15]","[[3,1,2],[1,3,2]]",516.2957,0,up,0.2035,,1.5,0.3,"[3,1,2]",0.427920007,stimuli/card_100_transparent.png,100,0,0,0,0,1,,,,,,,,,,
,,,,6140d7cdf9bc6016591c2878,A,2024-07-02_09h51.54.809,Slot Machine Game,2023.1.3,Win32,59.52380952,,,,,,,,,,,,,,,,,,,,,,,,,,,200,,,,,,,,,,,,,,,,,,,,,7,10,,,518.8587,1,up,0.315,,1,0.3,"[3,1,2]",0.292506062,stimuli/card_100_transparent.png,100,1,0,1,0,1,,,,,,,,,,
,,,,6140d7cdf9bc6016591c2878,A,2024-07-02_09h51.54.809,Slot Machine Game,2023.1.3,Win32,59.52380952,,,,,,,,,,,,,,,,,,,,,,,,,,,300,,,,,,,,,,,,,,,,,,,,,7,10,,,521.0252,2,up,0.2718,,1,0.3,"[3,1,2]",0.986396084,stimuli/card_100_transparent.png,100,2,0,2,0,1,,,,,,,,,,
,,,,6140d7cdf9bc6016591c2878,A,2024-07-02_09h51.54.809,Slot Machine Game,2023.1.3,Win32,59.52380952,,,,,,,,,,,,,,,,,,,,,,,,,,,400,,,,,,,,,,,,,,,,,,,,,7,10,,,523.1583,3,up,0.2499,,1,0.3,"[3,1,2]",0.668405515,stimuli/card_100_transparent.png,100,3,0,3,0,1,,,,,,,,,,
,,,,6140d7cdf9bc6016591c2878,A,2024-07-02_09h51.54.809,Slot Machine Game,2023.1.3,Win32,59.52380952,,,,,,,,,,,,,,,,,,,,,,,,,,,410,,,,,,,,,,,,,,,,,,,,,7,10,,,525.2587,4,up,0.3452,,0.5,0.3,"[3,1,2]",0.122339573,stimuli/card_10_transparent.png,10,4,0,4,0,1,,,,,,,,,,
,,,,6140d7cdf9bc6016591c2878,A,2024-07-02_09h51.54.809,Slot Machine Game,2023.1.3,Win32,59.52380952,,,,,,,,,,,,,,,,,,,,,,,,,,,510,,,,,,,,,,,,,,,,,,,,,7,10,,,526.9582,5,up,0.3419,,0.5,0.3,"[3,1,2]",0.628526872,stimuli/card_100_transparent.png,100,5,0,5,0,1,,,,,,,,,,
,,,,6140d7cdf9bc6016591c2878,A,2024-07-02_09h51.54.809,Slot Machine Game,2023.1.3,Win32,59.52380952,,,,,,,,,,,,,,,,,,,,,,,,,,,510,,,,,,,,,,,,,,,,,,,,,7,10,,,528.6581,6,up,0.3757,,1,0.3,"[3,1,2]",0.079296682,stimuli/card_0_transparent.png,0,6,0,6,0,1,,,,,,,,,,
,,,,6140d7cdf9bc6016591c2878,A,2024-07-02_09h51.54.809,Slot Machine Game,2023.1.3,Win32,59.52380952,,,,,,,,,,,,,,,,,,,,,,,,,,,610,,,,,,,,,,,,,,,,,,,,,7,10,,,530.8913,7,up,0.1132,,1.5,0.3,"[3,1,2]",0.838543981,stimuli/card_100_transparent.png,100,7,0,7,0,1,,,,,,,,,,
,,,,6140d7cdf9bc6016591c2878,A,2024-07-02_09h51.54.809,Slot Machine Game,2023.1.3,Win32,59.52380952,,,,,,,,,,,,,,,,,,,,,,,,,,,710,,,,,,,,,,,,,,,,,,,,,7,10,,,533.3576,8,up,0.3772,,0.5,0.3,"[3,1,2]",0.601186754,stimuli/card_100_transparent.png,100,8,0,8,0,1,,,,,,,,,,
,,,,6140d7cdf9bc6016591c2878,A,2024-07-02_09h51.54.809,Slot Machine Game,2023.1.3,Win32,59.52380952,,,,,,,,,,,,,,,,,,,,,,,,,,,810,,,,,,,,,,,,,,,,,,,,,7,10,,,535.058,9,up,0.251,,1.5,0.3,"[3,1,2]",0.225059319,stimuli/card_100_transparent.png,100,9,0,9,0,1,,,,,,,,,,
,,,,6140d7cdf9bc6016591c2878,A,2024-07-02_09h51.54.809,Slot Machine Game,2023.1.3,Win32,59.52380952,,,,,,,,,,,,,,,,,,,,,,,,,,,810,,,,,,,,,,,,,,,,,,,,,7,10,,,537.6584,10,up,0.1834,,1,0.3,"[1,3,2]",0.744780289,stimuli/card_0_transparent.png,0,10,0,10,0,1,,,,,,,,,,
,,,,6140d7cdf9bc6016591c2878,A,2024-07-02_09h51.54.809,Slot Machine Game,2023.1.3,Win32,59.52380952,,,,,,,,,,,,,,,,,,,,,,,,,,,910,,,,,,,,,,,,,,,,,,,,,7,10,,,539.6915,11,left,0.1868,,1,0.3,"[1,3,2]",0.767305371,stimuli/card_100_transparent.png,100,11,0,11,0,1,,,,,,,,,,
,,,,6140d7cdf9bc6016591c2878,A,2024-07-02_09h51.54.809,Slot Machine Game,2023.1.3,Win32,59.52380952,,,,,,,,,,,,,,,,,,,,,,,,,,,920,,,,,,,,,,,,,,,,,,,,,7,10,,,541.7249,12,left,0.2373,,0.5,0.3,"[1,3,2]",0.186335081,stimuli/card_10_transparent.png,10,12,0,12,0,1,,,,,,,,,,
,,,,6140d7cdf9bc6016591c2878,A,2024-07-02_09h51.54.809,Slot Machine Game,2023.1.3,Win32,59.52380952,,,,,,,,,,,,,,,,,,,,,,,,,,,930,,,,,,,,,,,,,,,,,,,,,7,10,,,543.3242,13,right,0.1367,,1.5,0.3,"[1,3,2]",0.32451792,stimuli/card_10_transparent.png,10,13,0,13,0,1,,,,,,,,,,
,,,,6140d7cdf9bc6016591c2878,A,2024-07-02_09h51.54.809,Slot Machine Game,2023.1.3,Win32,59.52380952,,,,,,,,,,,,,,,,,,,,,,,,,,,930,,,,,,,,,,,,,,,,,,,,,7,10,,,545.791,14,left,0.1713,,1,0.3,"[1,3,2]",0.034550527,stimuli/card_0_transparent.png,0,14,0,14,0,1,,,,,,,,,,
,,,,6140d7cdf9bc6016591c2878,A,2024-07-02_09h51.54.809,Slot Machine Game,2023.1.3,Win32,59.52380952,,,,,,,,,,,,,,,,,,,,,,,,,,,,,,,,,,,547.8241,,,,,,,,,,,,,,,,,,,,,,,,,,,,,,,,,"[1110,730,820,530,550,1110,930]",6,0,6,0,1,,,,
,,,,6140d7cdf9bc6016591c2878,A,2024-07-02_09h51.54.809,Slot Machine Game,2023.1.3,Win32,59.52380952,,,,,,,,,,,,,,,,,,,,,,,,,,,0,,,,,,,,,,,,,,,,,,,,,8,7,"[9,15]","[[1,3,2],[2,3,1]]",552.861,0,up,0.559,,1,0.3,"[1,3,2]",0.32068505,stimuli/card_0_transparent.png,0,0,0,0,0,1,,,,,,,,,,
,,,,6140d7cdf9bc6016591c2878,A,2024-07-02_09h51.54.809,Slot Machine Game,2023.1.3,Win32,59.52380952,,,,,,,,,,,,,,,,,,,,,,,,,,,10,,,,,,,,,,,,,,,,,,,,,8,7,,,555.2579,1,right,0.0011,,0.5,0.3,"[1,3,2]",0.369516374,stimuli/card_10_transparent.png,10,1,0,1,0,1,,,,,,,,,,
,,,,6140d7cdf9bc6016591c2878,A,2024-07-02_09h51.54.809,Slot Machine Game,2023.1.3,Win32,59.52380952,,,,,,,,,,,,,,,,,,,,,,,,,,,110,,,,,,,,,,,,,,,,,,,,,8,7,,,556.6244,2,left,0.0803,,1,0.3,"[1,3,2]",0.370881394,stimuli/card_100_transparent.png,100,2,0,2,0,1,,,,,,,,,,
,,,,6140d7cdf9bc6016591c2878,A,2024-07-02_09h51.54.809,Slot Machine Game,2023.1.3,Win32,59.52380952,,,,,,,,,,,,,,,,,,,,,,,,,,,120,,,,,,,,,,,,,,,,,,,,,8,7,,,558.5582,3,left,0.0011,,1,0.3,"[1,3,2]",0.111810352,stimuli/card_10_transparent.png,10,3,0,3,0,1,,,,,,,,,,
,,,,6140d7cdf9bc6016591c2878,A,2024-07-02_09h51.54.809,Slot Machine Game,2023.1.3,Win32,59.52380952,,,,,,,,,,,,,,,,,,,,,,,,,,,220,,,,,,,,,,,,,,,,,,,,,8,7,,,560.4244,4,left,1.1377,,1.5,0.3,"[1,3,2]",0.510892199,stimuli/card_100_transparent.png,100,4,0,4,0,1,,,,,,,,,,
,,,,6140d7cdf9bc6016591c2878,A,2024-07-02_09h51.54.809,Slot Machine Game,2023.1.3,Win32,59.52380952,,,,,,,,,,,,,,,,,,,,,,,,,,,320,,,,,,,,,,,,,,,,,,,,,8,7,,,563.9247,5,left,0.2723,,1.5,0.3,"[1,3,2]",0.307040934,stimuli/card_100_transparent.png,100,5,0,5,0,1,,,,,,,,,,
,,,,6140d7cdf9bc6016591c2878,A,2024-07-02_09h51.54.809,Slot Machine Game,2023.1.3,Win32,59.52380952,,,,,,,,,,,,,,,,,,,,,,,,,,,330,,,,,,,,,,,,,,,,,,,,,8,7,,,566.5579,6,left,0.2029,,1.5,0.3,"[1,3,2]",0.119297345,stimuli/card_10_transparent.png,10,6,0,6,0,1,,,,,,,,,,
,,,,6140d7cdf9bc6016591c2878,A,2024-07-02_09h51.54.809,Slot Machine Game,2023.1.3,Win32,59.52380952,,,,,,,,,,,,,,,,,,,,,,,,,,,330,,,,,,,,,,,,,,,,,,,,,8,7,,,569.1247,7,right,0.1318,,1,0.3,"[1,3,2]",0.083475396,stimuli/card_0_transparent.png,0,7,0,7,0,1,,,,,,,,,,
,,,,6140d7cdf9bc6016591c2878,A,2024-07-02_09h51.54.809,Slot Machine Game,2023.1.3,Win32,59.52380952,,,,,,,,,,,,,,,,,,,,,,,,,,,430,,,,,,,,,,,,,,,,,,,,,8,7,,,571.1249,8,up,1.6339,,0.5,0.3,"[1,3,2]",0.007844708,stimuli/card_100_transparent.png,100,8,0,8,0,1,,,,,,,,,,
,,,,6140d7cdf9bc6016591c2878,A,2024-07-02_09h51.54.809,Slot Machine Game,2023.1.3,Win32,59.52380952,,,,,,,,,,,,,,,,,,,,,,,,,,,430,,,,,,,,,,,,,,,,,,,,,8,7,,,574.1246,9,up,0.2167,,1,0.3,"[2,3,1]",0.223963464,stimuli/card_0_transparent.png,0,9,0,9,0,1,,,,,,,,,,
,,,,6140d7cdf9bc6016591c2878,A,2024-07-02_09h51.54.809,Slot Machine Game,2023.1.3,Win32,59.52380952,,,,,,,,,,,,,,,,,,,,,,,,,,,440,,,,,,,,,,,,,,,,,,,,,8,7,,,576.1905,10,up,0.0009,,1.5,0.3,"[2,3,1]",0.110191701,stimuli/card_10_transparent.png,10,10,0,10,0,1,,,,,,,,,,
,,,,6140d7cdf9bc6016591c2878,A,2024-07-02_09h51.54.809,Slot Machine Game,2023.1.3,Win32,59.52380952,,,,,,,,,,,,,,,,,,,,,,,,,,,450,,,,,,,,,,,,,,,,,,,,,8,7,,,578.5574,11,left,0.0014,,1.5,0.3,"[2,3,1]",0.257240483,stimuli/card_10_transparent.png,10,11,0,11,0,1,,,,,,,,,,
,,,,6140d7cdf9bc6016591c2878,A,2024-07-02_09h51.54.809,Slot Machine Game,2023.1.3,Win32,59.52380952,,,,,,,,,,,,,,,,,,,,,,,,,,,450,,,,,,,,,,,,,,,,,,,,,8,7,,,580.9247,12,up,0.1041,,1,0.3,"[2,3,1]",0.373586836,stimuli/card_0_transparent.png,0,12,0,12,0,1,,,,,,,,,,
,,,,6140d7cdf9bc6016591c2878,A,2024-07-02_09h51.54.809,Slot Machine Game,2023.1.3,Win32,59.52380952,,,,,,,,,,,,,,,,,,,,,,,,,,,460,,,,,,,,,,,,,,,,,,,,,8,7,,,582.8902,13,left,1.1864,,1,0.3,"[2,3,1]",0.959952474,stimuli/card_10_transparent.png,10,13,0,13,0,1,,,,,,,,,,
,,,,6140d7cdf9bc6016591c2878,A,2024-07-02_09h51.54.809,Slot Machine Game,2023.1.3,Win32,59.52380952,,,,,,,,,,,,,,,,,,,,,,,,,,,460,,,,,,,,,,,,,,,,,,,,,8,7,,,585.9237,14,left,1.4496,,1.5,0.3,"[2,3,1]",0.070285208,stimuli/card_0_transparent.png,0,14,0,14,0,1,,,,,,,,,,
,,,,6140d7cdf9bc6016591c2878,A,2024-07-02_09h51.54.809,Slot Machine Game,2023.1.3,Win32,59.52380952,,,,,,,,,,,,,,,,,,,,,,,,,,,,,,,,,,,589.6906,,,,,,,,,,,,,,,,,,,,,,,,,,,,,,,,,"[1110,730,820,530,550,1110,930,460]",7,0,7,0,1,,,,
,,,,6140d7cdf9bc6016591c2878,A,2024-07-02_09h51.54.809,Slot Machine Game,2023.1.3,Win32,59.52380952,,,,,,,,,,,,,,,,,,,,,,,,,,,0,,,,,,,,,,,,,,,,,,,,,9,9,[15],"[[3,1,2]]",594.7263,0,up,3.5781,,1,0.3,"[3,1,2]",0.010145972,stimuli/card_0_transparent.png,0,0,0,0,0,1,,,,,,,,,,
,,,,6140d7cdf9bc6016591c2878,A,2024-07-02_09h51.54.809,Slot Machine Game,2023.1.3,Win32,59.52380952,,,,,,,,,,,,,,,,,,,,,,,,,,,100,,,,,,,,,,,,,,,,,,,,,9,9,,,600.1571,1,up,0.1679,,1.5,0.3,"[3,1,2]",0.301606723,stimuli/card_100_transparent.png,100,1,0,1,0,1,,,,,,,,,,
,,,,6140d7cdf9bc6016591c2878,A,2024-07-02_09h51.54.809,Slot Machine Game,2023.1.3,Win32,59.52380952,,,,,,,,,,,,,,,,,,,,,,,,,,,100,,,,,,,,,,,,,,,,,,,,,9,9,,,602.6901,2,up,0.2014,,1.5,0.3,"[3,1,2]",0.040525037,stimuli/card_0_transparent.png,0,2,0,2,0,1,,,,,,,,,,
,,,,6140d7cdf9bc6016591c2878,A,2024-07-02_09h51.54.809,Slot Machine Game,2023.1.3,Win32,59.52380952,,,,,,,,,,,,,,,,,,,,,,,,,,,200,,,,,,,,,,,,,,,,,,,,,9,9,,,605.2565,3,up,0.2673,,1.5,0.3,"[3,1,2]",0.524238141,stimuli/card_100_transparent.png,100,3,0,3,0,1,,,,,,,,,,
,,,,6140d7cdf9bc6016591c2878,A,2024-07-02_09h51.54.809,Slot Machine Game,2023.1.3,Win32,59.52380952,,,,,,,,,,,,,,,,,,,,,,,,,,,200,,,,,,,,,,,,,,,,,,,,,9,9,,,607.89,4,right,0.3343,,1.5,0.3,"[3,1,2]",0.021123197,stimuli/card_0_transparent.png,0,4,0,4,0,1,,,,,,,,,,
,,,,6140d7cdf9bc6016591c2878,A,2024-07-02_09h51.54.809,Slot Machine Game,2023.1.3,Win32,59.52380952,,,,,,,,,,,,,,,,,,,,,,,,,,,300,,,,,,,,,,,,,,,,,,,,,9,9,,,610.5901,5,up,0.2835,,1.5,0.3,"[3,1,2]",0.891089105,stimuli/card_100_transparent.png,100,5,0,5,0,1,,,,,,,,,,
,,,,6140d7cdf9bc6016591c2878,A,2024-07-02_09h51.54.809,Slot Machine Game,2023.1.3,Win32,59.52380952,,,,,,,,,,,,,,,,,,,,,,,,,,,400,,,,,,,,,,,,,,,,,,,,,9,9,,,613.2231,6,up,0.0434,,1.5,0.3,"[3,1,2]",0.5984126,stimuli/card_100_transparent.png,100,6,0,6,0,1,,,,,,,,,,
,,,,6140d7cdf9bc6016591c2878,A,2024-07-02_09h51.54.809,Slot Machine Game,2023.1.3,Win32,59.52380952,,,,,,,,,,,,,,,,,,,,,,,,,,,410,,,,,,,,,,,,,,,,,,,,,9,9,,,615.5903,7,up,0.2121,,1,0.3,"[3,1,2]",0.159393408,stimuli/card_10_transparent.png,10,7,0,7,0,1,,,,,,,,,,
,,,,6140d7cdf9bc6016591c2878,A,2024-07-02_09h51.54.809,Slot Machine Game,2023.1.3,Win32,59.52380952,,,,,,,,,,,,,,,,,,,,,,,,,,,510,,,,,,,,,,,,,,,,,,,,,9,9,,,617.6569,8,up,1.3662,,0.5,0.3,"[3,1,2]",0.603534528,stimuli/card_100_transparent.png,100,8,0,8,0,1,,,,,,,,,,
,,,,6140d7cdf9bc6016591c2878,A,2024-07-02_09h51.54.809,Slot Machine Game,2023.1.3,Win32,59.52380952,,,,,,,,,,,,,,,,,,,,,,,,,,,610,,,,,,,,,,,,,,,,,,,,,9,9,,,620.3898,9,up,0.2837,,1,0.3,"[3,1,2]",0.284600937,stimuli/card_100_transparent.png,100,9,0,9,0,1,,,,,,,,,,
,,,,6140d7cdf9bc6016591c2878,A,2024-07-02_09h51.54.809,Slot Machine Game,2023.1.3,Win32,59.52380952,,,,,,,,,,,,,,,,,,,,,,,,,,,620,,,,,,,,,,,,,,,,,,,,,9,9,,,622.5234,10,up,0.2465,,0.5,0.3,"[3,1,2]",0.112283625,stimuli/card_10_transparent.png,10,10,0,10,0,1,,,,,,,,,,
,,,,6140d7cdf9bc6016591c2878,A,2024-07-02_09h51.54.809,Slot Machine Game,2023.1.3,Win32,59.52380952,,,,,,,,,,,,,,,,,,,,,,,,,,,720,,,,,,,,,,,,,,,,,,,,,9,9,,,624.1232,11,up,1.1684,,0.5,0.3,"[3,1,2]",0.742645226,stimuli/card_100_transparent.png,100,11,0,11,0,1,,,,,,,,,,
,,,,6140d7cdf9bc6016591c2878,A,2024-07-02_09h51.54.809,Slot Machine Game,2023.1.3,Win32,59.52380952,,,,,,,,,,,,,,,,,,,,,,,,,,,820,,,,,,,,,,,,,,,,,,,,,9,9,,,626.6566,12,up,0.5008,,0.5,0.3,"[3,1,2]",0.957889234,stimuli/card_100_transparent.png,100,12,0,12,0,1,,,,,,,,,,
,,,,6140d7cdf9bc6016591c2878,A,2024-07-02_09h51.54.809,Slot Machine Game,2023.1.3,Win32,59.52380952,,,,,,,,,,,,,,,,,,,,,,,,,,,920,,,,,,,,,,,,,,,,,,,,,9,9,,,628.4896,13,up,0.2704,,1,0.3,"[3,1,2]",0.656187201,stimuli/card_100_transparent.png,100,13,0,13,0,1,,,,,,,,,,
,,,,6140d7cdf9bc6016591c2878,A,2024-07-02_09h51.54.809,Slot Machine Game,2023.1.3,Win32,59.52380952,,,,,,,,,,,,,,,,,,,,,,,,,,,1020,,,,,,,,,,,,,,,,,,,,,9,9,,,630.6233,14,up,0.2203,,1.5,0.3,"[3,1,2]",0.834411094,stimuli/card_100_transparent.png,100,14,0,14,0,1,,,,,,,,,,
,,,,6140d7cdf9bc6016591c2878,A,2024-07-02_09h51.54.809,Slot Machine Game,2023.1.3,Win32,59.52380952,,,,,,,,,,,,,,,,,,,,,,,,,,,,,,,,,,,633.1886,,,,,,,,,,,,,,,,,,,,,,,,,,,,,,,,,"[1110,730,820,530,550,1110,930,460,1020]",8,0,8,0,1,,,,
,,,,6140d7cdf9bc6016591c2878,A,2024-07-02_09h51.54.809,Slot Machine Game,2023.1.3,Win32,59.52380952,,,,,,,,,,,,,,,,,,,,,,,,,,,0,,,,,,,,,,,,,,,,,,,,,10,6,"[4,10,15]","[[2,3,1],[1,3,2],[3,2,1]]",638.2263,0,up,0.094,,1,0.3,"[2,3,1]",0.555027346,stimuli/card_0_transparent.png,0,0,0,0,0,1,,,,,,,,,,
,,,,6140d7cdf9bc6016591c2878,A,2024-07-02_09h51.54.809,Slot Machine Game,2023.1.3,Win32,59.52380952,,,,,,,,,,,,,,,,,,,,,,,,,,,10,,,,,,,,,,,,,,,,,,,,,10,6,,,640.1557,1,left,0.1767,,1,0.3,"[2,3,1]",0.59077648,stimuli/card_10_transparent.png,10,1,0,1,0,1,,,,,,,,,,
,,,,6140d7cdf9bc6016591c2878,A,2024-07-02_09h51.54.809,Slot Machine Game,2023.1.3,Win32,59.52380952,,,,,,,,,,,,,,,,,,,,,,,,,,,110,,,,,,,,,,,,,,,,,,,,,10,6,,,642.1891,2,right,0.004,,0.5,0.3,"[2,3,1]",0.585840132,stimuli/card_100_transparent.png,100,2,0,2,0,1,,,,,,,,,,
,,,,6140d7cdf9bc6016591c2878,A,2024-07-02_09h51.54.809,Slot Machine Game,2023.1.3,Win32,59.52380952,,,,,,,,,,,,,,,,,,,,,,,,,,,110,,,,,,,,,,,,,,,,,,,,,10,6,,,643.555,3,right,0.1011,,1.5,0.3,"[2,3,1]",0.012021579,stimuli/card_0_transparent.png,0,3,0,3,0,1,,,,,,,,,,
,,,,6140d7cdf9bc6016591c2878,A,2024-07-02_09h51.54.809,Slot Machine Game,2023.1.3,Win32,59.52380952,,,,,,,,,,,,,,,,,,,,,,,,,,,120,,,,,,,,,,,,,,,,,,,,,10,6,,,646.0223,4,right,0.1131,,0.5,0.3,"[1,3,2]",0.939923363,stimuli/card_10_transparent.png,10,4,0,4,0,1,,,,,,,,,,
,,,,6140d7cdf9bc6016591c2878,A,2024-07-02_09h51.54.809,Slot Machine Game,2023.1.3,Win32,59.52380952,,,,,,,,,,,,,,,,,,,,,,,,,,,220,,,,,,,,,,,,,,,,,,,,,10,6,,,647.4887,5,left,0.1185,,1.5,0.3,"[1,3,2]",0.989060614,stimuli/card_100_transparent.png,100,5,0,5,0,1,,,,,,,,,,
,,,,6140d7cdf9bc6016591c2878,A,2024-07-02_09h51.54.809,Slot Machine Game,2023.1.3,Win32,59.52380952,,,,,,,,,,,,,,,,,,,,,,,,,,,220,,,,,,,,,,,,,,,,,,,,,10,6,,,649.9554,6,up,0.1373,,0.5,0.3,"[1,3,2]",0.716218949,stimuli/card_0_transparent.png,0,6,0,6,0,1,,,,,,,,,,
,,,,6140d7cdf9bc6016591c2878,A,2024-07-02_09h51.54.809,Slot Machine Game,2023.1.3,Win32,59.52380952,,,,,,,,,,,,,,,,,,,,,,,,,,,220,,,,,,,,,,,,,,,,,,,,,10,6,,,651.4555,7,left,0.1725,,1,0.3,"[1,3,2]",0.004681442,stimuli/card_0_transparent.png,0,7,0,7,0,1,,,,,,,,,,
,,,,6140d7cdf9bc6016591c2878,A,2024-07-02_09h51.54.809,Slot Machine Game,2023.1.3,Win32,59.52380952,,,,,,,,,,,,,,,,,,,,,,,,,,,220,,,,,,,,,,,,,,,,,,,,,10,6,,,653.4884,8,left,1.5811,,0.5,0.3,"[1,3,2]",0.051187423,stimuli/card_0_transparent.png,0,8,0,8,0,1,,,,,,,,,,
,,,,6140d7cdf9bc6016591c2878,A,2024-07-02_09h51.54.809,Slot Machine Game,2023.1.3,Win32,59.52380952,,,,,,,,,,,,,,,,,,,,,,,,,,,220,,,,,,,,,,,,,,,,,,,,,10,6,,,656.4215,9,right,0.0049,,0.5,0.3,"[1,3,2]",0.012573027,stimuli/card_0_transparent.png,0,9,0,9,0,1,,,,,,,,,,
,,,,6140d7cdf9bc6016591c2878,A,2024-07-02_09h51.54.809,Slot Machine Game,2023.1.3,Win32,59.52380952,,,,,,,,,,,,,,,,,,,,,,,,,,,230,,,,,,,,,,,,,,,,,,,,,10,6,,,657.7549,10,right,0.748,,0.5,0.3,"[3,2,1]",0.106104018,stimuli/card_10_transparent.png,10,10,0,10,0,1,,,,,,,,,,
,,,,6140d7cdf9bc6016591c2878,A,2024-07-02_09h51.54.809,Slot Machine Game,2023.1.3,Win32,59.52380952,,,,,,,,,,,,,,,,,,,,,,,,,,,240,,,,,,,,,,,,,,,,,,,,,10,6,,,659.8226,11,up,0.6704,,1.5,0.3,"[3,2,1]",0.427809089,stimuli/card_10_transparent.png,10,11,0,11,0,1,,,,,,,,,,
,,,,6140d7cdf9bc6016591c2878,A,2024-07-02_09h51.54.809,Slot Machine Game,2023.1.3,Win32,59.52380952,,,,,,,,,,,,,,,,,,,,,,,,,,,240,,,,,,,,,,,,,,,,,,,,,10,6,,,662.8562,12,left,0.0257,,1,0.3,"[3,2,1]",0.497823987,stimuli/card_0_transparent.png,0,12,0,12,0,1,,,,,,,,,,
,,,,6140d7cdf9bc6016591c2878,A,2024-07-02_09h51.54.809,Slot Machine Game,2023.1.3,Win32,59.52380952,,,,,,,,,,,,,,,,,,,,,,,,,,,240,,,,,,,,,,,,,,,,,,,,,10,6,,,664.7227,13,left,0.0168,,0.5,0.3,"[3,2,1]",0.246871352,stimuli/card_0_transparent.png,0,13,0,13,0,1,,,,,,,,,,
,,,,6140d7cdf9bc6016591c2878,A,2024-07-02_09h51.54.809,Slot Machine Game,2023.1.3,Win32,59.52380952,,,,,,,,,,,,,,,,,,,,,,,,,,,240,,,,,,,,,,,,,,,,,,,,,10,6,,,666.0892,14,left,0.0012,,1,0.3,"[3,2,1]",0.719957364,stimuli/card_0_transparent.png,0,14,0,14,0,1,,,,,,,,,,
,,,,6140d7cdf9bc6016591c2878,A,2024-07-02_09h51.54.809,Slot Machine Game,2023.1.3,Win32,59.52380952,,,,,,,,,,,,,,,,,,,,,,,,,,,,,,,,,,,667.9557,,,,,,,,,,,,,,,,,,,,,,,,,,,,,,,,,"[1110,730,820,530,550,1110,930,460,1020,240]",9,0,9,0,1,,,,
,,,,6140d7cdf9bc6016591c2878,A,2024-07-02_09h51.54.809,Slot Machine Game,2023.1.3,Win32,59.52380952,,,,,,,,,,,,,,,,,,,,,,,,,,,,,,,,,,,,,,,,,,,,,,,,,,,,,,,,,,,,,,,,,,,,,,,,,,9,"[1110,730,820,530,550,1110,930,460,1020,240]",5.3,2024-07-02_10h03.11.906
