key_resp_welcome_started,key_resp_welcome_keys,key_resp_welcome_rt,key_resp_welcome_duration,prolific_id,path_id,date,expName,psychopyVersion,OS,frameRate,key_resp_instruction1_started,key_resp_instruction1_keys,key_resp_instruction1_rt,key_resp_instruction1_duration,key_resp_instruction2_started,key_resp_instruction2_keys,key_resp_instruction2_rt,key_resp_instruction2_duration,key_resp_instruction3_started,key_resp_instruction3_keys,key_resp_instruction3_rt,key_resp_instruction3_duration,key_resp_instruction4_started,key_resp_instruction4_keys,key_resp_instruction4_rt,key_resp_instruction4_duration,practiceCondition,practice_reward_seqs,practice_trial_started,practice_trial_num,practice_resp_rt,practice_resp_duration,practice_resp_keys,prac_presentationInterval,"practice_reward_seq: 2,1,3",reward_img,cumulative_reward,trial_reward,practice_trials.thisRepN,practice_trials.thisTrialN,practice_trials.thisN,practice_trials.thisIndex,practice_trials.ran,"practice_reward_seq: 2,3,1",block_break_started,"practice_reward_seq: 1,3,2","practice_reward_seq: 3,1,2",practice_end_time,practice_end_keys,practice_end_rt,practice_end_duration,main_instruction_text_started,block_condition,block_order_indices,main_instruction_keys,main_instruction_rt,main_instruction_duration,block_number,block_assignment,current_condition,main_reward_seqs,main_trial_started,main_trial_num,main_trial_keys,main_trial_rt,main_trial_duration,main_presentationInterval,reward_presentation_time,main_reward_seq,reward_rand_val,main_reward_img,current_reward,main_trials.thisRepN,main_trials.thisTrialN,main_trials.thisN,main_trials.thisIndex,main_trials.ran,block_reward,block.thisRepN,block.thisTrialN,block.thisN,block.thisIndex,block.ran,block_reward.length,block_reward_all,reward_amount,date_end_task
0.001,space,2.1989,,614e35b2138b395a5410d87a,A,2024-07-02_14h01.25.640,Slot Machine Game,2023.1.3,Win32,60.24096386,,,,,,,,,,,,,,,,,,,,,,,,,,,,,,,,,,,,,,,,,,,,,,,,,,,,,,,,,,,,,,,,,,,,,,,,,,,,,
,,,,614e35b2138b395a5410d87a,A,2024-07-02_14h01.25.640,Slot Machine Game,2023.1.3,Win32,60.24096386,2.2209,space,7.8566,,,,,,,,,,,,,,,,,,,,,,,,,,,,,,,,,,,,,,,,,,,,,,,,,,,,,,,,,,,,,,,,,,,,,,,,,,
,,,,614e35b2138b395a5410d87a,A,2024-07-02_14h01.25.640,Slot Machine Game,2023.1.3,Win32,60.24096386,,,,,10.1049,space,14.1107,,,,,,,,,,,,,,,,,,,,,,,,,,,,,,,,,,,,,,,,,,,,,,,,,,,,,,,,,,,,,,,,,,,,,,
,,,,614e35b2138b395a5410d87a,A,2024-07-02_14h01.25.640,Slot Machine Game,2023.1.3,Win32,60.24096386,,,,,,,,,24.2647,space,4.0102,,,,,,,,,,,,,,,,,,,,,,,,,,,,,,,,,,,,,,,,,,,,,,,,,,,,,,,,,,,,,,,,,,
,,,,614e35b2138b395a5410d87a,A,2024-07-02_14h01.25.640,Slot Machine Game,2023.1.3,Win32,60.24096386,,,,,,,,,,,,,,,,,,,,,,,,,,,,,,,,,,,,,,,,,,,,,,,,,,,,,,,,,,,,,,,,,,,,,,,,,,,,,
,,,,614e35b2138b395a5410d87a,A,2024-07-02_14h01.25.640,Slot Machine Game,2023.1.3,Win32,60.24096386,,,,,,,,,,,,,170.7117,space,2.4196,,,,,,,,,,,,,,,,,,,,,,,,,,,,,,,,,,,,,,,,,,,,,,,,,,,,,,,,,,,,,,
,,,,614e35b2138b395a5410d87a,A,2024-07-02_14h01.25.640,Slot Machine Game,2023.1.3,Win32,60.24096386,,,,,,,,,,,,,,,,,"[9,15]","[[2,1,3],[2,3,1]]",173.16,0,1.9311,,left,0.5,,stimuli/card_10_transparent.png,10,10,0,0,0,0,1,,,,,,,,,,,,,,,,,,,,,,,,,,,,,,,,,,,,,,,,,,,,
,,,,614e35b2138b395a5410d87a,A,2024-07-02_14h01.25.640,Slot Machine Game,2023.1.3,Win32,60.24096386,,,,,,,,,,,,,,,,,,,176.4198,1,0.769,,up,1.5,,stimuli/card_100_transparent.png,110,100,1,0,1,0,1,,,,,,,,,,,,,,,,,,,,,,,,,,,,,,,,,,,,,,,,,,,,
,,,,614e35b2138b395a5410d87a,A,2024-07-02_14h01.25.640,Slot Machine Game,2023.1.3,Win32,60.24096386,,,,,,,,,,,,,,,,,,,179.5195,2,0.1648,,up,0.5,,stimuli/card_10_transparent.png,120,10,2,0,2,0,1,,,,,,,,,,,,,,,,,,,,,,,,,,,,,,,,,,,,,,,,,,,,
,,,,614e35b2138b395a5410d87a,A,2024-07-02_14h01.25.640,Slot Machine Game,2023.1.3,Win32,60.24096386,,,,,,,,,,,,,,,,,,,181.0189,3,0.2562,,up,1,,stimuli/card_100_transparent.png,220,100,3,0,3,0,1,,,,,,,,,,,,,,,,,,,,,,,,,,,,,,,,,,,,,,,,,,,,
,,,,614e35b2138b395a5410d87a,A,2024-07-02_14h01.25.640,Slot Machine Game,2023.1.3,Win32,60.24096386,,,,,,,,,,,,,,,,,,,183.086,4,2.4375,,up,1.5,,stimuli/card_100_transparent.png,320,100,4,0,4,0,1,,,,,,,,,,,,,,,,,,,,,,,,,,,,,,,,,,,,,,,,,,,,
,,,,614e35b2138b395a5410d87a,A,2024-07-02_14h01.25.640,Slot Machine Game,2023.1.3,Win32,60.24096386,,,,,,,,,,,,,,,,,,,187.8527,5,0.2391,,up,1,,stimuli/card_100_transparent.png,420,100,5,0,5,0,1,,,,,,,,,,,,,,,,,,,,,,,,,,,,,,,,,,,,,,,,,,,,
,,,,614e35b2138b395a5410d87a,A,2024-07-02_14h01.25.640,Slot Machine Game,2023.1.3,Win32,60.24096386,,,,,,,,,,,,,,,,,,,189.9198,6,0.0691,,up,1.5,,stimuli/card_0_transparent.png,420,0,6,0,6,0,1,,,,,,,,,,,,,,,,,,,,,,,,,,,,,,,,,,,,,,,,,,,,
,,,,614e35b2138b395a5410d87a,A,2024-07-02_14h01.25.640,Slot Machine Game,2023.1.3,Win32,60.24096386,,,,,,,,,,,,,,,,,,,192.3193,7,0.1173,0.0032,up,0.5,,stimuli/card_100_transparent.png,520,100,7,0,7,0,1,,,,,,,,,,,,,,,,,,,,,,,,,,,,,,,,,,,,,,,,,,,,
,,,,614e35b2138b395a5410d87a,A,2024-07-02_14h01.25.640,Slot Machine Game,2023.1.3,Win32,60.24096386,,,,,,,,,,,,,,,,,,,193.7693,8,0.3596,,up,1,,stimuli/card_100_transparent.png,620,100,8,0,8,0,1,,,,,,,,,,,,,,,,,,,,,,,,,,,,,,,,,,,,,,,,,,,,
,,,,614e35b2138b395a5410d87a,A,2024-07-02_14h01.25.640,Slot Machine Game,2023.1.3,Win32,60.24096386,,,,,,,,,,,,,,,,,,,195.9528,9,0.0008,0.0089,up,0.5,,stimuli/card_100_transparent.png,720,100,9,0,9,0,1,,,,,,,,,,,,,,,,,,,,,,,,,,,,,,,,,,,,,,,,,,,,
,,,,614e35b2138b395a5410d87a,A,2024-07-02_14h01.25.640,Slot Machine Game,2023.1.3,Win32,60.24096386,,,,,,,,,,,,,,,,,,,197.2861,10,0.2342,,up,0.5,,stimuli/card_0_transparent.png,720,0,10,0,10,0,1,,,,,,,,,,,,,,,,,,,,,,,,,,,,,,,,,,,,,,,,,,,,
,,,,614e35b2138b395a5410d87a,A,2024-07-02_14h01.25.640,Slot Machine Game,2023.1.3,Win32,60.24096386,,,,,,,,,,,,,,,,,,,198.8525,11,0.2007,,up,1,,stimuli/card_0_transparent.png,720,0,11,0,11,0,1,,,,,,,,,,,,,,,,,,,,,,,,,,,,,,,,,,,,,,,,,,,,
,,,,614e35b2138b395a5410d87a,A,2024-07-02_14h01.25.640,Slot Machine Game,2023.1.3,Win32,60.24096386,,,,,,,,,,,,,,,,,,,200.886,12,0.1743,,right,1,,stimuli/card_100_transparent.png,820,100,12,0,12,0,1,,,,,,,,,,,,,,,,,,,,,,,,,,,,,,,,,,,,,,,,,,,,
,,,,614e35b2138b395a5410d87a,A,2024-07-02_14h01.25.640,Slot Machine Game,2023.1.3,Win32,60.24096386,,,,,,,,,,,,,,,,,,,202.8861,13,0.0675,,right,1.5,,stimuli/card_100_transparent.png,920,100,13,0,13,0,1,,,,,,,,,,,,,,,,,,,,,,,,,,,,,,,,,,,,,,,,,,,,
,,,,614e35b2138b395a5410d87a,A,2024-07-02_14h01.25.640,Slot Machine Game,2023.1.3,Win32,60.24096386,,,,,,,,,,,,,,,,,,,205.2858,14,2.1896,,right,0.5,,stimuli/card_100_transparent.png,1020,100,14,0,14,0,1,,,,,,,,,,,,,,,,,,,,,,,,,,,,,,,,,,,,,,,,,,,,
,,,,614e35b2138b395a5410d87a,A,2024-07-02_14h01.25.640,Slot Machine Game,2023.1.3,Win32,60.24096386,,,,,,,,,,,,,,,,,"[6,15]","[[1,3,2],[3,1,2]]",213.8452,0,0.6431,,left,1.5,,stimuli/card_100_transparent.png,100,100,0,0,0,0,1,,208.8282,,,,,,,,,,,,,,,,,,,,,,,,,,,,,,,,,,,,,,,,,,
,,,,614e35b2138b395a5410d87a,A,2024-07-02_14h01.25.640,Slot Machine Game,2023.1.3,Win32,60.24096386,,,,,,,,,,,,,,,,,,,216.8024,1,0.0548,,left,0.5,,stimuli/card_100_transparent.png,200,100,1,0,1,0,1,,,,,,,,,,,,,,,,,,,,,,,,,,,,,,,,,,,,,,,,,,,,
,,,,614e35b2138b395a5410d87a,A,2024-07-02_14h01.25.640,Slot Machine Game,2023.1.3,Win32,60.24096386,,,,,,,,,,,,,,,,,,,218.1858,2,0.2889,,left,1.5,,stimuli/card_0_transparent.png,200,0,2,0,2,0,1,,,,,,,,,,,,,,,,,,,,,,,,,,,,,,,,,,,,,,,,,,,,
,,,,614e35b2138b395a5410d87a,A,2024-07-02_14h01.25.640,Slot Machine Game,2023.1.3,Win32,60.24096386,,,,,,,,,,,,,,,,,,,220.8024,3,0.2844,,left,1,,stimuli/card_100_transparent.png,300,100,3,0,3,0,1,,,,,,,,,,,,,,,,,,,,,,,,,,,,,,,,,,,,,,,,,,,,
,,,,614e35b2138b395a5410d87a,A,2024-07-02_14h01.25.640,Slot Machine Game,2023.1.3,Win32,60.24096386,,,,,,,,,,,,,,,,,,,222.9191,4,0.017,,left,0.5,,stimuli/card_100_transparent.png,400,100,4,0,4,0,1,,,,,,,,,,,,,,,,,,,,,,,,,,,,,,,,,,,,,,,,,,,,
,,,,614e35b2138b395a5410d87a,A,2024-07-02_14h01.25.640,Slot Machine Game,2023.1.3,Win32,60.24096386,,,,,,,,,,,,,,,,,,,224.269,5,0.0541,,left,1,,stimuli/card_100_transparent.png,500,100,5,0,5,0,1,,,,,,,,,,,,,,,,,,,,,,,,,,,,,,,,,,,,,,,,,,,,
,,,,614e35b2138b395a5410d87a,A,2024-07-02_14h01.25.640,Slot Machine Game,2023.1.3,Win32,60.24096386,,,,,,,,,,,,,,,,,,,226.1524,6,1.142,,left,1,,stimuli/card_100_transparent.png,600,100,6,0,6,0,1,,,,,,,,,,,,,,,,,,,,,,,,,,,,,,,,,,,,,,,,,,,,
,,,,614e35b2138b395a5410d87a,A,2024-07-02_14h01.25.640,Slot Machine Game,2023.1.3,Win32,60.24096386,,,,,,,,,,,,,,,,,,,229.1192,7,0.001,0.0064,left,0.5,,stimuli/card_10_transparent.png,610,10,7,0,7,0,1,,,,,,,,,,,,,,,,,,,,,,,,,,,,,,,,,,,,,,,,,,,,
,,,,614e35b2138b395a5410d87a,A,2024-07-02_14h01.25.640,Slot Machine Game,2023.1.3,Win32,60.24096386,,,,,,,,,,,,,,,,,,,230.4524,8,0.2245,,left,1,,stimuli/card_0_transparent.png,610,0,8,0,8,0,1,,,,,,,,,,,,,,,,,,,,,,,,,,,,,,,,,,,,,,,,,,,,
,,,,614e35b2138b395a5410d87a,A,2024-07-02_14h01.25.640,Slot Machine Game,2023.1.3,Win32,60.24096386,,,,,,,,,,,,,,,,,,,232.5022,9,0.9251,,up,1,,stimuli/card_100_transparent.png,710,100,9,0,9,0,1,,,,,,,,,,,,,,,,,,,,,,,,,,,,,,,,,,,,,,,,,,,,
,,,,614e35b2138b395a5410d87a,A,2024-07-02_14h01.25.640,Slot Machine Game,2023.1.3,Win32,60.24096386,,,,,,,,,,,,,,,,,,,235.2524,10,0.018,0.0068,up,0.5,,stimuli/card_100_transparent.png,810,100,10,0,10,0,1,,,,,,,,,,,,,,,,,,,,,,,,,,,,,,,,,,,,,,,,,,,,
,,,,614e35b2138b395a5410d87a,A,2024-07-02_14h01.25.640,Slot Machine Game,2023.1.3,Win32,60.24096386,,,,,,,,,,,,,,,,,,,236.6024,11,0.0038,,up,1.5,,stimuli/card_100_transparent.png,910,100,11,0,11,0,1,,,,,,,,,,,,,,,,,,,,,,,,,,,,,,,,,,,,,,,,,,,,
,,,,614e35b2138b395a5410d87a,A,2024-07-02_14h01.25.640,Slot Machine Game,2023.1.3,Win32,60.24096386,,,,,,,,,,,,,,,,,,,238.9358,12,0.704,,up,1.5,,stimuli/card_0_transparent.png,910,0,12,0,12,0,1,,,,,,,,,,,,,,,,,,,,,,,,,,,,,,,,,,,,,,,,,,,,
,,,,614e35b2138b395a5410d87a,A,2024-07-02_14h01.25.640,Slot Machine Game,2023.1.3,Win32,60.24096386,,,,,,,,,,,,,,,,,,,241.9691,13,0.2722,,up,1.5,,stimuli/card_100_transparent.png,1010,100,13,0,13,0,1,,,,,,,,,,,,,,,,,,,,,,,,,,,,,,,,,,,,,,,,,,,,
,,,,614e35b2138b395a5410d87a,A,2024-07-02_14h01.25.640,Slot Machine Game,2023.1.3,Win32,60.24096386,,,,,,,,,,,,,,,,,,,244.569,14,0.88,,up,1.5,,stimuli/card_0_transparent.png,1010,0,14,0,14,0,1,,,,,,,,,,,,,,,,,,,,,,,,,,,,,,,,,,,,,,,,,,,,
,,,,614e35b2138b395a5410d87a,A,2024-07-02_14h01.25.640,Slot Machine Game,2023.1.3,Win32,60.24096386,,,,,,,,,,,,,,,,,,,,,,,,,,,,,,,,,,,247.7857,,,252.7868,space,1.9918,,,,,,,,,,,,,,,,,,,,,,,,,,,,,,,,,,,,,
,,,,614e35b2138b395a5410d87a,A,2024-07-02_14h01.25.640,Slot Machine Game,2023.1.3,Win32,60.24096386,,,,,,,,,,,,,,,,,,,,,,,,,,,,,,,,,,,,,,,,,,254.8034,2,"[2,4,8,0,1,3,9,6,8,5]",space,1.9094,,,,,,,,,,,,,,,,,,,,,,,,,,,,,,,
,,,,614e35b2138b395a5410d87a,A,2024-07-02_14h01.25.640,Slot Machine Game,2023.1.3,Win32,60.24096386,,,,,,,,,,,,,,,,,,,,,,,,,,,0,,,,,,,,,,,,,,,,,,,,,1,3,"[15,15]","[[3,1,2],[3,1,2]]",256.7703,0,left,0.6805,,1.5,0.3,"[3,1,2]",0.824641232,stimuli/card_0_transparent.png,0,0,0,0,0,1,,,,,,,,,,
,,,,614e35b2138b395a5410d87a,A,2024-07-02_14h01.25.640,Slot Machine Game,2023.1.3,Win32,60.24096386,,,,,,,,,,,,,,,,,,,,,,,,,,,100,,,,,,,,,,,,,,,,,,,,,1,3,,,259.7862,1,up,0.7186,0.0024,0.5,0.3,"[3,1,2]",0.864831034,stimuli/card_100_transparent.png,100,1,0,1,0,1,,,,,,,,,,
,,,,614e35b2138b395a5410d87a,A,2024-07-02_14h01.25.640,Slot Machine Game,2023.1.3,Win32,60.24096386,,,,,,,,,,,,,,,,,,,,,,,,,,,200,,,,,,,,,,,,,,,,,,,,,1,3,,,261.8356,2,up,0.093,,1,0.3,"[3,1,2]",0.426607987,stimuli/card_100_transparent.png,100,2,0,2,0,1,,,,,,,,,,
,,,,614e35b2138b395a5410d87a,A,2024-07-02_14h01.25.640,Slot Machine Game,2023.1.3,Win32,60.24096386,,,,,,,,,,,,,,,,,,,,,,,,,,,300,,,,,,,,,,,,,,,,,,,,,1,3,,,263.7523,3,up,0.7607,,1,0.3,"[3,1,2]",0.327276423,stimuli/card_100_transparent.png,100,3,0,3,0,1,,,,,,,,,,
,,,,614e35b2138b395a5410d87a,A,2024-07-02_14h01.25.640,Slot Machine Game,2023.1.3,Win32,60.24096386,,,,,,,,,,,,,,,,,,,,,,,,,,,300,,,,,,,,,,,,,,,,,,,,,1,3,,,266.3356,4,up,0.4433,,1.5,0.3,"[3,1,2]",0.059707131,stimuli/card_0_transparent.png,0,4,0,4,0,1,,,,,,,,,,
,,,,614e35b2138b395a5410d87a,A,2024-07-02_14h01.25.640,Slot Machine Game,2023.1.3,Win32,60.24096386,,,,,,,,,,,,,,,,,,,,,,,,,,,400,,,,,,,,,,,,,,,,,,,,,1,3,,,269.1024,5,up,0.0404,,0.5,0.3,"[3,1,2]",0.848915407,stimuli/card_100_transparent.png,100,5,0,5,0,1,,,,,,,,,,
,,,,614e35b2138b395a5410d87a,A,2024-07-02_14h01.25.640,Slot Machine Game,2023.1.3,Win32,60.24096386,,,,,,,,,,,,,,,,,,,,,,,,,,,400,,,,,,,,,,,,,,,,,,,,,1,3,,,270.4689,6,up,0.2769,,1,0.3,"[3,1,2]",0.063211051,stimuli/card_0_transparent.png,0,6,0,6,0,1,,,,,,,,,,
,,,,614e35b2138b395a5410d87a,A,2024-07-02_14h01.25.640,Slot Machine Game,2023.1.3,Win32,60.24096386,,,,,,,,,,,,,,,,,,,,,,,,,,,500,,,,,,,,,,,,,,,,,,,,,1,3,,,272.5687,7,up,0.2417,,0.5,0.3,"[3,1,2]",0.621080598,stimuli/card_100_transparent.png,100,7,0,7,0,1,,,,,,,,,,
,,,,614e35b2138b395a5410d87a,A,2024-07-02_14h01.25.640,Slot Machine Game,2023.1.3,Win32,60.24096386,,,,,,,,,,,,,,,,,,,,,,,,,,,600,,,,,,,,,,,,,,,,,,,,,1,3,,,274.1358,8,up,0.1007,,0.5,0.3,"[3,1,2]",0.315461752,stimuli/card_100_transparent.png,100,8,0,8,0,1,,,,,,,,,,
,,,,614e35b2138b395a5410d87a,A,2024-07-02_14h01.25.640,Slot Machine Game,2023.1.3,Win32,60.24096386,,,,,,,,,,,,,,,,,,,,,,,,,,,700,,,,,,,,,,,,,,,,,,,,,1,3,,,275.569,9,up,0.5714,0.0045,1.5,0.3,"[3,1,2]",0.922616754,stimuli/card_100_transparent.png,100,9,0,9,0,1,,,,,,,,,,
,,,,614e35b2138b395a5410d87a,A,2024-07-02_14h01.25.640,Slot Machine Game,2023.1.3,Win32,60.24096386,,,,,,,,,,,,,,,,,,,,,,,,,,,800,,,,,,,,,,,,,,,,,,,,,1,3,,,278.4689,10,up,0.1185,,0.5,0.3,"[3,1,2]",0.289541434,stimuli/card_100_transparent.png,100,10,0,10,0,1,,,,,,,,,,
,,,,614e35b2138b395a5410d87a,A,2024-07-02_14h01.25.640,Slot Machine Game,2023.1.3,Win32,60.24096386,,,,,,,,,,,,,,,,,,,,,,,,,,,900,,,,,,,,,,,,,,,,,,,,,1,3,,,279.9189,11,up,0.1681,0.0035,0.5,0.3,"[3,1,2]",0.319917604,stimuli/card_100_transparent.png,100,11,0,11,0,1,,,,,,,,,,
,,,,614e35b2138b395a5410d87a,A,2024-07-02_14h01.25.640,Slot Machine Game,2023.1.3,Win32,60.24096386,,,,,,,,,,,,,,,,,,,,,,,,,,,1000,,,,,,,,,,,,,,,,,,,,,1,3,,,281.4188,12,up,0.1364,0.0011,0.5,0.3,"[3,1,2]",0.591109379,stimuli/card_100_transparent.png,100,12,0,12,0,1,,,,,,,,,,
,,,,614e35b2138b395a5410d87a,A,2024-07-02_14h01.25.640,Slot Machine Game,2023.1.3,Win32,60.24096386,,,,,,,,,,,,,,,,,,,,,,,,,,,1100,,,,,,,,,,,,,,,,,,,,,1,3,,,282.8856,13,up,0.2479,0.0027,0.5,0.3,"[3,1,2]",0.332863673,stimuli/card_100_transparent.png,100,13,0,13,0,1,,,,,,,,,,
,,,,614e35b2138b395a5410d87a,A,2024-07-02_14h01.25.640,Slot Machine Game,2023.1.3,Win32,60.24096386,,,,,,,,,,,,,,,,,,,,,,,,,,,1200,,,,,,,,,,,,,,,,,,,,,1,3,,,284.4689,14,up,0.1572,,1,0.3,"[3,1,2]",0.404915137,stimuli/card_100_transparent.png,100,14,0,14,0,1,,,,,,,,,,
,,,,614e35b2138b395a5410d87a,A,2024-07-02_14h01.25.640,Slot Machine Game,2023.1.3,Win32,60.24096386,,,,,,,,,,,,,,,,,,,,,,,,,,,,,,,,,,,286.4528,,,,,,,,,,,,,,,,,,,,,,,,,,,,,,,,,[1200],0,0,0,0,1,,,,
,,,,614e35b2138b395a5410d87a,A,2024-07-02_14h01.25.640,Slot Machine Game,2023.1.3,Win32,60.24096386,,,,,,,,,,,,,,,,,,,,,,,,,,,100,,,,,,,,,,,,,,,,,,,,,2,5,"[5,15]","[[1,2,3],[3,1,2]]",291.4905,0,left,0.5007,0.0054,0.5,0.3,"[1,2,3]",0.212433231,stimuli/card_100_transparent.png,100,0,0,0,0,1,,,,,,,,,,
,,,,614e35b2138b395a5410d87a,A,2024-07-02_14h01.25.640,Slot Machine Game,2023.1.3,Win32,60.24096386,,,,,,,,,,,,,,,,,,,,,,,,,,,200,,,,,,,,,,,,,,,,,,,,,2,5,,,293.3191,1,left,0.1726,,0.5,0.3,"[1,2,3]",0.283259212,stimuli/card_100_transparent.png,100,1,0,1,0,1,,,,,,,,,,
,,,,614e35b2138b395a5410d87a,A,2024-07-02_14h01.25.640,Slot Machine Game,2023.1.3,Win32,60.24096386,,,,,,,,,,,,,,,,,,,,,,,,,,,300,,,,,,,,,,,,,,,,,,,,,2,5,,,294.8188,2,left,0.2257,,1,0.3,"[1,2,3]",0.411305223,stimuli/card_100_transparent.png,100,2,0,2,0,1,,,,,,,,,,
,,,,614e35b2138b395a5410d87a,A,2024-07-02_14h01.25.640,Slot Machine Game,2023.1.3,Win32,60.24096386,,,,,,,,,,,,,,,,,,,,,,,,,,,400,,,,,,,,,,,,,,,,,,,,,2,5,,,296.869,3,left,0.0558,,1,0.3,"[1,2,3]",0.375521478,stimuli/card_100_transparent.png,100,3,0,3,0,1,,,,,,,,,,
,,,,614e35b2138b395a5410d87a,A,2024-07-02_14h01.25.640,Slot Machine Game,2023.1.3,Win32,60.24096386,,,,,,,,,,,,,,,,,,,,,,,,,,,500,,,,,,,,,,,,,,,,,,,,,2,5,,,298.7521,4,left,0.0225,,1,0.3,"[1,2,3]",0.446731977,stimuli/card_100_transparent.png,100,4,0,4,0,1,,,,,,,,,,
,,,,614e35b2138b395a5410d87a,A,2024-07-02_14h01.25.640,Slot Machine Game,2023.1.3,Win32,60.24096386,,,,,,,,,,,,,,,,,,,,,,,,,,,600,,,,,,,,,,,,,,,,,,,,,2,5,,,300.6024,5,left,0.0067,,1,0.3,"[3,1,2]",0.079348076,stimuli/card_100_transparent.png,100,5,0,5,0,1,,,,,,,,,,
,,,,614e35b2138b395a5410d87a,A,2024-07-02_14h01.25.640,Slot Machine Game,2023.1.3,Win32,60.24096386,,,,,,,,,,,,,,,,,,,,,,,,,,,600,,,,,,,,,,,,,,,,,,,,,2,5,,,302.4355,6,left,0.1494,0.0039,1,0.3,"[3,1,2]",0.611878265,stimuli/card_0_transparent.png,0,6,0,6,0,1,,,,,,,,,,
,,,,614e35b2138b395a5410d87a,A,2024-07-02_14h01.25.640,Slot Machine Game,2023.1.3,Win32,60.24096386,,,,,,,,,,,,,,,,,,,,,,,,,,,600,,,,,,,,,,,,,,,,,,,,,2,5,,,304.419,7,left,0.1236,,1,0.3,"[3,1,2]",0.830147837,stimuli/card_0_transparent.png,0,7,0,7,0,1,,,,,,,,,,
,,,,614e35b2138b395a5410d87a,A,2024-07-02_14h01.25.640,Slot Machine Game,2023.1.3,Win32,60.24096386,,,,,,,,,,,,,,,,,,,,,,,,,,,700,,,,,,,,,,,,,,,,,,,,,2,5,,,306.3687,8,up,0.1813,,1.5,0.3,"[3,1,2]",0.910771343,stimuli/card_100_transparent.png,100,8,0,8,0,1,,,,,,,,,,
,,,,614e35b2138b395a5410d87a,A,2024-07-02_14h01.25.640,Slot Machine Game,2023.1.3,Win32,60.24096386,,,,,,,,,,,,,,,,,,,,,,,,,,,800,,,,,,,,,,,,,,,,,,,,,2,5,,,308.8689,9,up,0.0037,0.0036,0.5,0.3,"[3,1,2]",0.874529265,stimuli/card_100_transparent.png,100,9,0,9,0,1,,,,,,,,,,
,,,,614e35b2138b395a5410d87a,A,2024-07-02_14h01.25.640,Slot Machine Game,2023.1.3,Win32,60.24096386,,,,,,,,,,,,,,,,,,,,,,,,,,,900,,,,,,,,,,,,,,,,,,,,,2,5,,,310.2023,10,up,0.1038,0.0038,0.5,0.3,"[3,1,2]",0.207586161,stimuli/card_100_transparent.png,100,10,0,10,0,1,,,,,,,,,,
,,,,614e35b2138b395a5410d87a,A,2024-07-02_14h01.25.640,Slot Machine Game,2023.1.3,Win32,60.24096386,,,,,,,,,,,,,,,,,,,,,,,,,,,1000,,,,,,,,,,,,,,,,,,,,,2,5,,,311.6356,11,up,0.0185,0.0023,1,0.3,"[3,1,2]",0.938165028,stimuli/card_100_transparent.png,100,11,0,11,0,1,,,,,,,,,,
,,,,614e35b2138b395a5410d87a,A,2024-07-02_14h01.25.640,Slot Machine Game,2023.1.3,Win32,60.24096386,,,,,,,,,,,,,,,,,,,,,,,,,,,1100,,,,,,,,,,,,,,,,,,,,,2,5,,,313.4855,12,up,0.8009,0.007,1,0.3,"[3,1,2]",0.967970064,stimuli/card_100_transparent.png,100,12,0,12,0,1,,,,,,,,,,
,,,,614e35b2138b395a5410d87a,A,2024-07-02_14h01.25.640,Slot Machine Game,2023.1.3,Win32,60.24096386,,,,,,,,,,,,,,,,,,,,,,,,,,,1200,,,,,,,,,,,,,,,,,,,,,2,5,,,316.1188,13,up,0.1002,,0.5,0.3,"[3,1,2]",0.895442748,stimuli/card_100_transparent.png,100,13,0,13,0,1,,,,,,,,,,
,,,,614e35b2138b395a5410d87a,A,2024-07-02_14h01.25.640,Slot Machine Game,2023.1.3,Win32,60.24096386,,,,,,,,,,,,,,,,,,,,,,,,,,,1200,,,,,,,,,,,,,,,,,,,,,2,5,,,317.5521,14,up,0.2885,0.0048,0.5,0.3,"[3,1,2]",0.032479845,stimuli/card_0_transparent.png,0,14,0,14,0,1,,,,,,,,,,
,,,,614e35b2138b395a5410d87a,A,2024-07-02_14h01.25.640,Slot Machine Game,2023.1.3,Win32,60.24096386,,,,,,,,,,,,,,,,,,,,,,,,,,,,,,,,,,,319.1688,,,,,,,,,,,,,,,,,,,,,,,,,,,,,,,,,"[1200,1200]",1,0,1,0,1,,,,
,,,,614e35b2138b395a5410d87a,A,2024-07-02_14h01.25.640,Slot Machine Game,2023.1.3,Win32,60.24096386,,,,,,,,,,,,,,,,,,,,,,,,,,,0,,,,,,,,,,,,,,,,,,,,,3,9,"[8,15]","[[3,2,1],[3,1,2]]",324.1968,0,left,0.4027,,1.5,0.3,"[3,2,1]",0.690284652,stimuli/card_0_transparent.png,0,0,0,0,0,1,,,,,,,,,,
,,,,614e35b2138b395a5410d87a,A,2024-07-02_14h01.25.640,Slot Machine Game,2023.1.3,Win32,60.24096386,,,,,,,,,,,,,,,,,,,,,,,,,,,10,,,,,,,,,,,,,,,,,,,,,3,9,,,326.9188,1,up,0.04,,1,0.3,"[3,2,1]",0.20681133,stimuli/card_10_transparent.png,10,1,0,1,0,1,,,,,,,,,,
,,,,614e35b2138b395a5410d87a,A,2024-07-02_14h01.25.640,Slot Machine Game,2023.1.3,Win32,60.24096386,,,,,,,,,,,,,,,,,,,,,,,,,,,110,,,,,,,,,,,,,,,,,,,,,3,9,,,328.7856,2,right,0.0897,,1,0.3,"[3,2,1]",0.508698371,stimuli/card_100_transparent.png,100,2,0,2,0,1,,,,,,,,,,
,,,,614e35b2138b395a5410d87a,A,2024-07-02_14h01.25.640,Slot Machine Game,2023.1.3,Win32,60.24096386,,,,,,,,,,,,,,,,,,,,,,,,,,,210,,,,,,,,,,,,,,,,,,,,,3,9,,,330.702,3,right,0.0009,,0.5,0.3,"[3,2,1]",0.960901158,stimuli/card_100_transparent.png,100,3,0,3,0,1,,,,,,,,,,
,,,,614e35b2138b395a5410d87a,A,2024-07-02_14h01.25.640,Slot Machine Game,2023.1.3,Win32,60.24096386,,,,,,,,,,,,,,,,,,,,,,,,,,,310,,,,,,,,,,,,,,,,,,,,,3,9,,,332.0354,4,right,0.2599,,1.5,0.3,"[3,2,1]",0.721718155,stimuli/card_100_transparent.png,100,4,0,4,0,1,,,,,,,,,,
,,,,614e35b2138b395a5410d87a,A,2024-07-02_14h01.25.640,Slot Machine Game,2023.1.3,Win32,60.24096386,,,,,,,,,,,,,,,,,,,,,,,,,,,410,,,,,,,,,,,,,,,,,,,,,3,9,,,334.6188,5,right,0.7873,,1.5,0.3,"[3,2,1]",0.265626928,stimuli/card_100_transparent.png,100,5,0,5,0,1,,,,,,,,,,
,,,,614e35b2138b395a5410d87a,A,2024-07-02_14h01.25.640,Slot Machine Game,2023.1.3,Win32,60.24096386,,,,,,,,,,,,,,,,,,,,,,,,,,,510,,,,,,,,,,,,,,,,,,,,,3,9,,,337.7355,6,right,0.0576,,0.5,0.3,"[3,2,1]",0.985775673,stimuli/card_100_transparent.png,100,6,0,6,0,1,,,,,,,,,,
,,,,614e35b2138b395a5410d87a,A,2024-07-02_14h01.25.640,Slot Machine Game,2023.1.3,Win32,60.24096386,,,,,,,,,,,,,,,,,,,,,,,,,,,610,,,,,,,,,,,,,,,,,,,,,3,9,,,339.1189,7,right,0.0873,,1,0.3,"[3,2,1]",0.271486061,stimuli/card_100_transparent.png,100,7,0,7,0,1,,,,,,,,,,
,,,,614e35b2138b395a5410d87a,A,2024-07-02_14h01.25.640,Slot Machine Game,2023.1.3,Win32,60.24096386,,,,,,,,,,,,,,,,,,,,,,,,,,,610,,,,,,,,,,,,,,,,,,,,,3,9,,,341.0354,8,right,0.617,,1,0.3,"[3,1,2]",0.024897446,stimuli/card_0_transparent.png,0,8,0,8,0,1,,,,,,,,,,
,,,,614e35b2138b395a5410d87a,A,2024-07-02_14h01.25.640,Slot Machine Game,2023.1.3,Win32,60.24096386,,,,,,,,,,,,,,,,,,,,,,,,,,,710,,,,,,,,,,,,,,,,,,,,,3,9,,,343.4853,9,right,0.2006,,0.5,0.3,"[3,1,2]",0.194666041,stimuli/card_100_transparent.png,100,9,0,9,0,1,,,,,,,,,,
,,,,614e35b2138b395a5410d87a,A,2024-07-02_14h01.25.640,Slot Machine Game,2023.1.3,Win32,60.24096386,,,,,,,,,,,,,,,,,,,,,,,,,,,720,,,,,,,,,,,,,,,,,,,,,3,9,,,345.0188,10,right,0.1977,,1.5,0.3,"[3,1,2]",0.843839425,stimuli/card_10_transparent.png,10,10,0,10,0,1,,,,,,,,,,
,,,,614e35b2138b395a5410d87a,A,2024-07-02_14h01.25.640,Slot Machine Game,2023.1.3,Win32,60.24096386,,,,,,,,,,,,,,,,,,,,,,,,,,,730,,,,,,,,,,,,,,,,,,,,,3,9,,,347.5519,11,right,0.0335,,0.5,0.3,"[3,1,2]",0.783912563,stimuli/card_10_transparent.png,10,11,0,11,0,1,,,,,,,,,,
,,,,614e35b2138b395a5410d87a,A,2024-07-02_14h01.25.640,Slot Machine Game,2023.1.3,Win32,60.24096386,,,,,,,,,,,,,,,,,,,,,,,,,,,740,,,,,,,,,,,,,,,,,,,,,3,9,,,348.9186,12,up,0.1507,0.0034,1,0.3,"[3,1,2]",0.195908379,stimuli/card_10_transparent.png,10,12,0,12,0,1,,,,,,,,,,
,,,,614e35b2138b395a5410d87a,A,2024-07-02_14h01.25.640,Slot Machine Game,2023.1.3,Win32,60.24096386,,,,,,,,,,,,,,,,,,,,,,,,,,,740,,,,,,,,,,,,,,,,,,,,,3,9,,,350.9021,13,left,0.8478,0.0021,1,0.3,"[3,1,2]",0.843771644,stimuli/card_0_transparent.png,0,13,0,13,0,1,,,,,,,,,,
,,,,614e35b2138b395a5410d87a,A,2024-07-02_14h01.25.640,Slot Machine Game,2023.1.3,Win32,60.24096386,,,,,,,,,,,,,,,,,,,,,,,,,,,840,,,,,,,,,,,,,,,,,,,,,3,9,,,353.5853,14,up,1.336,,0.5,0.3,"[3,1,2]",0.576918176,stimuli/card_100_transparent.png,100,14,0,14,0,1,,,,,,,,,,
,,,,614e35b2138b395a5410d87a,A,2024-07-02_14h01.25.640,Slot Machine Game,2023.1.3,Win32,60.24096386,,,,,,,,,,,,,,,,,,,,,,,,,,,,,,,,,,,356.252,,,,,,,,,,,,,,,,,,,,,,,,,,,,,,,,,"[1200,1200,840]",2,0,2,0,1,,,,
,,,,614e35b2138b395a5410d87a,A,2024-07-02_14h01.25.640,Slot Machine Game,2023.1.3,Win32,60.24096386,,,,,,,,,,,,,,,,,,,,,,,,,,,10,,,,,,,,,,,,,,,,,,,,,4,1,"[12,15]","[[2,1,3],[2,3,1]]",361.2788,0,left,0.4361,,1.5,0.3,"[2,1,3]",0.410019161,stimuli/card_10_transparent.png,10,0,0,0,0,1,,,,,,,,,,
,,,,614e35b2138b395a5410d87a,A,2024-07-02_14h01.25.640,Slot Machine Game,2023.1.3,Win32,60.24096386,,,,,,,,,,,,,,,,,,,,,,,,,,,110,,,,,,,,,,,,,,,,,,,,,4,1,,,364.0353,1,up,0.0895,,0.5,0.3,"[2,1,3]",0.821653327,stimuli/card_100_transparent.png,100,1,0,1,0,1,,,,,,,,,,
,,,,614e35b2138b395a5410d87a,A,2024-07-02_14h01.25.640,Slot Machine Game,2023.1.3,Win32,60.24096386,,,,,,,,,,,,,,,,,,,,,,,,,,,210,,,,,,,,,,,,,,,,,,,,,4,1,,,365.452,2,up,0.0135,0.005,1,0.3,"[2,1,3]",0.964531145,stimuli/card_100_transparent.png,100,2,0,2,0,1,,,,,,,,,,
,,,,614e35b2138b395a5410d87a,A,2024-07-02_14h01.25.640,Slot Machine Game,2023.1.3,Win32,60.24096386,,,,,,,,,,,,,,,,,,,,,,,,,,,310,,,,,,,,,,,,,,,,,,,,,4,1,,,367.3019,3,up,0.476,,1,0.3,"[2,1,3]",0.613863467,stimuli/card_100_transparent.png,100,3,0,3,0,1,,,,,,,,,,
,,,,614e35b2138b395a5410d87a,A,2024-07-02_14h01.25.640,Slot Machine Game,2023.1.3,Win32,60.24096386,,,,,,,,,,,,,,,,,,,,,,,,,,,410,,,,,,,,,,,,,,,,,,,,,4,1,,,369.6021,4,up,0.4082,,1,0.3,"[2,1,3]",0.988050945,stimuli/card_100_transparent.png,100,4,0,4,0,1,,,,,,,,,,
,,,,614e35b2138b395a5410d87a,A,2024-07-02_14h01.25.640,Slot Machine Game,2023.1.3,Win32,60.24096386,,,,,,,,,,,,,,,,,,,,,,,,,,,420,,,,,,,,,,,,,,,,,,,,,4,1,,,371.8352,5,up,0.1971,0.0064,1.5,0.3,"[2,1,3]",0.102899343,stimuli/card_10_transparent.png,10,5,0,5,0,1,,,,,,,,,,
,,,,614e35b2138b395a5410d87a,A,2024-07-02_14h01.25.640,Slot Machine Game,2023.1.3,Win32,60.24096386,,,,,,,,,,,,,,,,,,,,,,,,,,,420,,,,,,,,,,,,,,,,,,,,,4,1,,,374.3687,6,up,0.4886,,1,0.3,"[2,1,3]",0.056880386,stimuli/card_0_transparent.png,0,6,0,6,0,1,,,,,,,,,,
,,,,614e35b2138b395a5410d87a,A,2024-07-02_14h01.25.640,Slot Machine Game,2023.1.3,Win32,60.24096386,,,,,,,,,,,,,,,,,,,,,,,,,,,420,,,,,,,,,,,,,,,,,,,,,4,1,,,376.6853,7,right,0.4082,,0.5,0.3,"[2,1,3]",0.792562674,stimuli/card_0_transparent.png,0,7,0,7,0,1,,,,,,,,,,
,,,,614e35b2138b395a5410d87a,A,2024-07-02_14h01.25.640,Slot Machine Game,2023.1.3,Win32,60.24096386,,,,,,,,,,,,,,,,,,,,,,,,,,,430,,,,,,,,,,,,,,,,,,,,,4,1,,,378.4185,8,left,0.351,0.0071,1,0.3,"[2,1,3]",0.209276853,stimuli/card_10_transparent.png,10,8,0,8,0,1,,,,,,,,,,
,,,,614e35b2138b395a5410d87a,A,2024-07-02_14h01.25.640,Slot Machine Game,2023.1.3,Win32,60.24096386,,,,,,,,,,,,,,,,,,,,,,,,,,,440,,,,,,,,,,,,,,,,,,,,,4,1,,,380.5853,9,left,0.82,,0.5,0.3,"[2,1,3]",0.630398716,stimuli/card_10_transparent.png,10,9,0,9,0,1,,,,,,,,,,
,,,,614e35b2138b395a5410d87a,A,2024-07-02_14h01.25.640,Slot Machine Game,2023.1.3,Win32,60.24096386,,,,,,,,,,,,,,,,,,,,,,,,,,,540,,,,,,,,,,,,,,,,,,,,,4,1,,,382.7354,10,up,0.503,0.0054,1.5,0.3,"[2,1,3]",0.870285225,stimuli/card_100_transparent.png,100,10,0,10,0,1,,,,,,,,,,
,,,,614e35b2138b395a5410d87a,A,2024-07-02_14h01.25.640,Slot Machine Game,2023.1.3,Win32,60.24096386,,,,,,,,,,,,,,,,,,,,,,,,,,,640,,,,,,,,,,,,,,,,,,,,,4,1,,,385.5686,11,up,0.0685,,1,0.3,"[2,1,3]",0.74176648,stimuli/card_100_transparent.png,100,11,0,11,0,1,,,,,,,,,,
,,,,614e35b2138b395a5410d87a,A,2024-07-02_14h01.25.640,Slot Machine Game,2023.1.3,Win32,60.24096386,,,,,,,,,,,,,,,,,,,,,,,,,,,640,,,,,,,,,,,,,,,,,,,,,4,1,,,387.4688,12,up,0.0011,0.0032,0.5,0.3,"[2,3,1]",0.447162028,stimuli/card_0_transparent.png,0,12,0,12,0,1,,,,,,,,,,
,,,,614e35b2138b395a5410d87a,A,2024-07-02_14h01.25.640,Slot Machine Game,2023.1.3,Win32,60.24096386,,,,,,,,,,,,,,,,,,,,,,,,,,,740,,,,,,,,,,,,,,,,,,,,,4,1,,,388.8019,13,up,0.3572,,1,0.3,"[2,3,1]",0.028112169,stimuli/card_100_transparent.png,100,13,0,13,0,1,,,,,,,,,,
,,,,614e35b2138b395a5410d87a,A,2024-07-02_14h01.25.640,Slot Machine Game,2023.1.3,Win32,60.24096386,,,,,,,,,,,,,,,,,,,,,,,,,,,740,,,,,,,,,,,,,,,,,,,,,4,1,,,390.9854,14,up,0.1236,,1.5,0.3,"[2,3,1]",0.915742524,stimuli/card_0_transparent.png,0,14,0,14,0,1,,,,,,,,,,
,,,,614e35b2138b395a5410d87a,A,2024-07-02_14h01.25.640,Slot Machine Game,2023.1.3,Win32,60.24096386,,,,,,,,,,,,,,,,,,,,,,,,,,,,,,,,,,,393.4352,,,,,,,,,,,,,,,,,,,,,,,,,,,,,,,,,"[1200,1200,840,740]",3,0,3,0,1,,,,
,,,,614e35b2138b395a5410d87a,A,2024-07-02_14h01.25.640,Slot Machine Game,2023.1.3,Win32,60.24096386,,,,,,,,,,,,,,,,,,,,,,,,,,,100,,,,,,,,,,,,,,,,,,,,,5,2,"[6,15]","[[1,3,2],[3,2,1]]",398.4626,0,left,0.4253,,1.5,0.3,"[1,3,2]",0.394113572,stimuli/card_100_transparent.png,100,0,0,0,0,1,,,,,,,,,,
,,,,614e35b2138b395a5410d87a,A,2024-07-02_14h01.25.640,Slot Machine Game,2023.1.3,Win32,60.24096386,,,,,,,,,,,,,,,,,,,,,,,,,,,200,,,,,,,,,,,,,,,,,,,,,5,2,,,401.2018,1,left,0.0198,,0.5,0.3,"[1,3,2]",0.750061266,stimuli/card_100_transparent.png,100,1,0,1,0,1,,,,,,,,,,
,,,,614e35b2138b395a5410d87a,A,2024-07-02_14h01.25.640,Slot Machine Game,2023.1.3,Win32,60.24096386,,,,,,,,,,,,,,,,,,,,,,,,,,,300,,,,,,,,,,,,,,,,,,,,,5,2,,,402.5519,2,left,0.0971,,0.5,0.3,"[1,3,2]",0.256125165,stimuli/card_100_transparent.png,100,2,0,2,0,1,,,,,,,,,,
,,,,614e35b2138b395a5410d87a,A,2024-07-02_14h01.25.640,Slot Machine Game,2023.1.3,Win32,60.24096386,,,,,,,,,,,,,,,,,,,,,,,,,,,400,,,,,,,,,,,,,,,,,,,,,5,2,,,403.9852,3,left,0.0775,,1.5,0.3,"[1,3,2]",0.230921098,stimuli/card_100_transparent.png,100,3,0,3,0,1,,,,,,,,,,
,,,,614e35b2138b395a5410d87a,A,2024-07-02_14h01.25.640,Slot Machine Game,2023.1.3,Win32,60.24096386,,,,,,,,,,,,,,,,,,,,,,,,,,,500,,,,,,,,,,,,,,,,,,,,,5,2,,,406.3853,4,left,1.019,,1,0.3,"[1,3,2]",0.359335632,stimuli/card_100_transparent.png,100,4,0,4,0,1,,,,,,,,,,
,,,,614e35b2138b395a5410d87a,A,2024-07-02_14h01.25.640,Slot Machine Game,2023.1.3,Win32,60.24096386,,,,,,,,,,,,,,,,,,,,,,,,,,,600,,,,,,,,,,,,,,,,,,,,,5,2,,,409.2352,5,left,0.2347,,1,0.3,"[1,3,2]",0.795429612,stimuli/card_100_transparent.png,100,5,0,5,0,1,,,,,,,,,,
,,,,614e35b2138b395a5410d87a,A,2024-07-02_14h01.25.640,Slot Machine Game,2023.1.3,Win32,60.24096386,,,,,,,,,,,,,,,,,,,,,,,,,,,600,,,,,,,,,,,,,,,,,,,,,5,2,,,411.3019,6,left,0.0008,,0.5,0.3,"[3,2,1]",0.831081075,stimuli/card_0_transparent.png,0,6,0,6,0,1,,,,,,,,,,
,,,,614e35b2138b395a5410d87a,A,2024-07-02_14h01.25.640,Slot Machine Game,2023.1.3,Win32,60.24096386,,,,,,,,,,,,,,,,,,,,,,,,,,,600,,,,,,,,,,,,,,,,,,,,,5,2,,,412.6351,7,left,0.2069,,1,0.3,"[3,2,1]",0.94086536,stimuli/card_0_transparent.png,0,7,0,7,0,1,,,,,,,,,,
,,,,614e35b2138b395a5410d87a,A,2024-07-02_14h01.25.640,Slot Machine Game,2023.1.3,Win32,60.24096386,,,,,,,,,,,,,,,,,,,,,,,,,,,700,,,,,,,,,,,,,,,,,,,,,5,2,,,414.6685,8,up,0.5843,,1.5,0.3,"[3,2,1]",0.104161629,stimuli/card_100_transparent.png,100,8,0,8,0,1,,,,,,,,,,
,,,,614e35b2138b395a5410d87a,A,2024-07-02_14h01.25.640,Slot Machine Game,2023.1.3,Win32,60.24096386,,,,,,,,,,,,,,,,,,,,,,,,,,,710,,,,,,,,,,,,,,,,,,,,,5,2,,,417.5852,9,up,0.4367,0.0063,0.5,0.3,"[3,2,1]",0.939956414,stimuli/card_10_transparent.png,10,9,0,9,0,1,,,,,,,,,,
,,,,614e35b2138b395a5410d87a,A,2024-07-02_14h01.25.640,Slot Machine Game,2023.1.3,Win32,60.24096386,,,,,,,,,,,,,,,,,,,,,,,,,,,720,,,,,,,,,,,,,,,,,,,,,5,2,,,419.3519,10,up,0.3064,,1,0.3,"[3,2,1]",0.989666022,stimuli/card_10_transparent.png,10,10,0,10,0,1,,,,,,,,,,
,,,,614e35b2138b395a5410d87a,A,2024-07-02_14h01.25.640,Slot Machine Game,2023.1.3,Win32,60.24096386,,,,,,,,,,,,,,,,,,,,,,,,,,,820,,,,,,,,,,,,,,,,,,,,,5,2,,,421.4851,11,right,0.1587,,0.5,0.3,"[3,2,1]",0.504578152,stimuli/card_100_transparent.png,100,11,0,11,0,1,,,,,,,,,,
,,,,614e35b2138b395a5410d87a,A,2024-07-02_14h01.25.640,Slot Machine Game,2023.1.3,Win32,60.24096386,,,,,,,,,,,,,,,,,,,,,,,,,,,920,,,,,,,,,,,,,,,,,,,,,5,2,,,422.9688,12,right,0.1406,,0.5,0.3,"[3,2,1]",0.743223564,stimuli/card_100_transparent.png,100,12,0,12,0,1,,,,,,,,,,
,,,,614e35b2138b395a5410d87a,A,2024-07-02_14h01.25.640,Slot Machine Game,2023.1.3,Win32,60.24096386,,,,,,,,,,,,,,,,,,,,,,,,,,,1020,,,,,,,,,,,,,,,,,,,,,5,2,,,424.4351,13,right,0.1188,,0.5,0.3,"[3,2,1]",0.213679862,stimuli/card_100_transparent.png,100,13,0,13,0,1,,,,,,,,,,
,,,,614e35b2138b395a5410d87a,A,2024-07-02_14h01.25.640,Slot Machine Game,2023.1.3,Win32,60.24096386,,,,,,,,,,,,,,,,,,,,,,,,,,,1020,,,,,,,,,,,,,,,,,,,,,5,2,,,425.8854,14,right,0.1686,,1,0.3,"[3,2,1]",0.034291783,stimuli/card_0_transparent.png,0,14,0,14,0,1,,,,,,,,,,
,,,,614e35b2138b395a5410d87a,A,2024-07-02_14h01.25.640,Slot Machine Game,2023.1.3,Win32,60.24096386,,,,,,,,,,,,,,,,,,,,,,,,,,,,,,,,,,,427.8851,,,,,,,,,,,,,,,,,,,,,,,,,,,,,,,,,"[1200,1200,840,740,1020]",4,0,4,0,1,,,,
,,,,614e35b2138b395a5410d87a,A,2024-07-02_14h01.25.640,Slot Machine Game,2023.1.3,Win32,60.24096386,,,,,,,,,,,,,,,,,,,,,,,,,,,10,,,,,,,,,,,,,,,,,,,,,6,4,"[7,15]","[[2,3,1],[1,2,3]]",432.9118,0,left,0.4354,,1.5,0.3,"[2,3,1]",0.362968521,stimuli/card_10_transparent.png,10,0,0,0,0,1,,,,,,,,,,
,,,,614e35b2138b395a5410d87a,A,2024-07-02_14h01.25.640,Slot Machine Game,2023.1.3,Win32,60.24096386,,,,,,,,,,,,,,,,,,,,,,,,,,,10,,,,,,,,,,,,,,,,,,,,,6,4,,,435.6684,1,up,0.3006,0.0071,1.5,0.3,"[2,3,1]",0.45104407,stimuli/card_0_transparent.png,0,1,0,1,0,1,,,,,,,,,,
,,,,614e35b2138b395a5410d87a,A,2024-07-02_14h01.25.640,Slot Machine Game,2023.1.3,Win32,60.24096386,,,,,,,,,,,,,,,,,,,,,,,,,,,110,,,,,,,,,,,,,,,,,,,,,6,4,,,438.3017,2,right,0.4739,,1,0.3,"[2,3,1]",0.547929346,stimuli/card_100_transparent.png,100,2,0,2,0,1,,,,,,,,,,
,,,,614e35b2138b395a5410d87a,A,2024-07-02_14h01.25.640,Slot Machine Game,2023.1.3,Win32,60.24096386,,,,,,,,,,,,,,,,,,,,,,,,,,,210,,,,,,,,,,,,,,,,,,,,,6,4,,,440.6017,3,right,0.1386,,1,0.3,"[2,3,1]",0.959448435,stimuli/card_100_transparent.png,100,3,0,3,0,1,,,,,,,,,,
,,,,614e35b2138b395a5410d87a,A,2024-07-02_14h01.25.640,Slot Machine Game,2023.1.3,Win32,60.24096386,,,,,,,,,,,,,,,,,,,,,,,,,,,310,,,,,,,,,,,,,,,,,,,,,6,4,,,442.5685,4,right,0.0383,,1,0.3,"[2,3,1]",0.220637602,stimuli/card_100_transparent.png,100,4,0,4,0,1,,,,,,,,,,
,,,,614e35b2138b395a5410d87a,A,2024-07-02_14h01.25.640,Slot Machine Game,2023.1.3,Win32,60.24096386,,,,,,,,,,,,,,,,,,,,,,,,,,,410,,,,,,,,,,,,,,,,,,,,,6,4,,,444.4351,5,right,0.133,,0.5,0.3,"[2,3,1]",0.891821484,stimuli/card_100_transparent.png,100,5,0,5,0,1,,,,,,,,,,
,,,,614e35b2138b395a5410d87a,A,2024-07-02_14h01.25.640,Slot Machine Game,2023.1.3,Win32,60.24096386,,,,,,,,,,,,,,,,,,,,,,,,,,,410,,,,,,,,,,,,,,,,,,,,,6,4,,,445.9016,6,right,0.4353,,0.5,0.3,"[2,3,1]",0.088789539,stimuli/card_0_transparent.png,0,6,0,6,0,1,,,,,,,,,,
,,,,614e35b2138b395a5410d87a,A,2024-07-02_14h01.25.640,Slot Machine Game,2023.1.3,Win32,60.24096386,,,,,,,,,,,,,,,,,,,,,,,,,,,420,,,,,,,,,,,,,,,,,,,,,6,4,,,447.6685,7,right,0.6049,,1,0.3,"[1,2,3]",0.160674659,stimuli/card_10_transparent.png,10,7,0,7,0,1,,,,,,,,,,
,,,,614e35b2138b395a5410d87a,A,2024-07-02_14h01.25.640,Slot Machine Game,2023.1.3,Win32,60.24096386,,,,,,,,,,,,,,,,,,,,,,,,,,,430,,,,,,,,,,,,,,,,,,,,,6,4,,,450.1018,8,up,0.1816,,1,0.3,"[1,2,3]",0.732436645,stimuli/card_10_transparent.png,10,8,0,8,0,1,,,,,,,,,,
,,,,614e35b2138b395a5410d87a,A,2024-07-02_14h01.25.640,Slot Machine Game,2023.1.3,Win32,60.24096386,,,,,,,,,,,,,,,,,,,,,,,,,,,530,,,,,,,,,,,,,,,,,,,,,6,4,,,452.1183,9,left,0.3016,,1,0.3,"[1,2,3]",0.806689162,stimuli/card_100_transparent.png,100,9,0,9,0,1,,,,,,,,,,
,,,,614e35b2138b395a5410d87a,A,2024-07-02_14h01.25.640,Slot Machine Game,2023.1.3,Win32,60.24096386,,,,,,,,,,,,,,,,,,,,,,,,,,,540,,,,,,,,,,,,,,,,,,,,,6,4,,,454.2519,10,left,0.2843,,0.5,0.3,"[1,2,3]",0.156463734,stimuli/card_10_transparent.png,10,10,0,10,0,1,,,,,,,,,,
,,,,614e35b2138b395a5410d87a,A,2024-07-02_14h01.25.640,Slot Machine Game,2023.1.3,Win32,60.24096386,,,,,,,,,,,,,,,,,,,,,,,,,,,640,,,,,,,,,,,,,,,,,,,,,6,4,,,455.8685,11,left,0.3841,,1.5,0.3,"[1,2,3]",0.631535796,stimuli/card_100_transparent.png,100,11,0,11,0,1,,,,,,,,,,
,,,,614e35b2138b395a5410d87a,A,2024-07-02_14h01.25.640,Slot Machine Game,2023.1.3,Win32,60.24096386,,,,,,,,,,,,,,,,,,,,,,,,,,,740,,,,,,,,,,,,,,,,,,,,,6,4,,,458.5849,12,left,0.4515,,0.5,0.3,"[1,2,3]",0.840309889,stimuli/card_100_transparent.png,100,12,0,12,0,1,,,,,,,,,,
,,,,614e35b2138b395a5410d87a,A,2024-07-02_14h01.25.640,Slot Machine Game,2023.1.3,Win32,60.24096386,,,,,,,,,,,,,,,,,,,,,,,,,,,750,,,,,,,,,,,,,,,,,,,,,6,4,,,460.3684,13,left,0.1673,,1.5,0.3,"[1,2,3]",0.185851223,stimuli/card_10_transparent.png,10,13,0,13,0,1,,,,,,,,,,
,,,,614e35b2138b395a5410d87a,A,2024-07-02_14h01.25.640,Slot Machine Game,2023.1.3,Win32,60.24096386,,,,,,,,,,,,,,,,,,,,,,,,,,,850,,,,,,,,,,,,,,,,,,,,,6,4,,,462.8684,14,left,0.0671,0.0043,1,0.3,"[1,2,3]",0.695228828,stimuli/card_100_transparent.png,100,14,0,14,0,1,,,,,,,,,,
,,,,614e35b2138b395a5410d87a,A,2024-07-02_14h01.25.640,Slot Machine Game,2023.1.3,Win32,60.24096386,,,,,,,,,,,,,,,,,,,,,,,,,,,,,,,,,,,464.7684,,,,,,,,,,,,,,,,,,,,,,,,,,,,,,,,,"[1200,1200,840,740,1020,850]",5,0,5,0,1,,,,
,,,,614e35b2138b395a5410d87a,A,2024-07-02_14h01.25.640,Slot Machine Game,2023.1.3,Win32,60.24096386,,,,,,,,,,,,,,,,,,,,,,,,,,,0,,,,,,,,,,,,,,,,,,,,,7,10,"[10,15]","[[3,1,2],[1,3,2]]",469.7981,0,left,0.7732,,0.5,0.3,"[3,1,2]",0.874338059,stimuli/card_0_transparent.png,0,0,0,0,0,1,,,,,,,,,,
,,,,614e35b2138b395a5410d87a,A,2024-07-02_14h01.25.640,Slot Machine Game,2023.1.3,Win32,60.24096386,,,,,,,,,,,,,,,,,,,,,,,,,,,10,,,,,,,,,,,,,,,,,,,,,7,10,,,471.8851,1,up,0.2514,,1,0.3,"[3,1,2]",0.157575898,stimuli/card_10_transparent.png,10,1,0,1,0,1,,,,,,,,,,
,,,,614e35b2138b395a5410d87a,A,2024-07-02_14h01.25.640,Slot Machine Game,2023.1.3,Win32,60.24096386,,,,,,,,,,,,,,,,,,,,,,,,,,,20,,,,,,,,,,,,,,,,,,,,,7,10,,,473.9686,2,right,0.519,,1.5,0.3,"[3,1,2]",0.939052486,stimuli/card_10_transparent.png,10,2,0,2,0,1,,,,,,,,,,
,,,,614e35b2138b395a5410d87a,A,2024-07-02_14h01.25.640,Slot Machine Game,2023.1.3,Win32,60.24096386,,,,,,,,,,,,,,,,,,,,,,,,,,,20,,,,,,,,,,,,,,,,,,,,,7,10,,,476.8183,3,left,0.9161,,1,0.3,"[3,1,2]",0.48878596,stimuli/card_0_transparent.png,0,3,0,3,0,1,,,,,,,,,,
,,,,614e35b2138b395a5410d87a,A,2024-07-02_14h01.25.640,Slot Machine Game,2023.1.3,Win32,60.24096386,,,,,,,,,,,,,,,,,,,,,,,,,,,120,,,,,,,,,,,,,,,,,,,,,7,10,,,479.5684,4,up,0.1072,,1,0.3,"[3,1,2]",0.618290512,stimuli/card_100_transparent.png,100,4,0,4,0,1,,,,,,,,,,
,,,,614e35b2138b395a5410d87a,A,2024-07-02_14h01.25.640,Slot Machine Game,2023.1.3,Win32,60.24096386,,,,,,,,,,,,,,,,,,,,,,,,,,,220,,,,,,,,,,,,,,,,,,,,,7,10,,,481.5017,5,up,0.6835,0.0008,1.5,0.3,"[3,1,2]",0.949400609,stimuli/card_100_transparent.png,100,5,0,5,0,1,,,,,,,,,,
,,,,614e35b2138b395a5410d87a,A,2024-07-02_14h01.25.640,Slot Machine Game,2023.1.3,Win32,60.24096386,,,,,,,,,,,,,,,,,,,,,,,,,,,320,,,,,,,,,,,,,,,,,,,,,7,10,,,484.5183,6,up,0.0207,0.0002,1,0.3,"[3,1,2]",0.516789324,stimuli/card_100_transparent.png,100,6,0,6,0,1,,,,,,,,,,
,,,,614e35b2138b395a5410d87a,A,2024-07-02_14h01.25.640,Slot Machine Game,2023.1.3,Win32,60.24096386,,,,,,,,,,,,,,,,,,,,,,,,,,,330,,,,,,,,,,,,,,,,,,,,,7,10,,,486.3686,7,up,0.416,0.0053,0.5,0.3,"[3,1,2]",0.118664657,stimuli/card_10_transparent.png,10,7,0,7,0,1,,,,,,,,,,
,,,,614e35b2138b395a5410d87a,A,2024-07-02_14h01.25.640,Slot Machine Game,2023.1.3,Win32,60.24096386,,,,,,,,,,,,,,,,,,,,,,,,,,,430,,,,,,,,,,,,,,,,,,,,,7,10,,,488.118,8,up,0.4025,0.0012,0.5,0.3,"[3,1,2]",0.637640116,stimuli/card_100_transparent.png,100,8,0,8,0,1,,,,,,,,,,
,,,,614e35b2138b395a5410d87a,A,2024-07-02_14h01.25.640,Slot Machine Game,2023.1.3,Win32,60.24096386,,,,,,,,,,,,,,,,,,,,,,,,,,,530,,,,,,,,,,,,,,,,,,,,,7,10,,,489.8349,9,up,0.5929,,1.5,0.3,"[3,1,2]",0.300399067,stimuli/card_100_transparent.png,100,9,0,9,0,1,,,,,,,,,,
,,,,614e35b2138b395a5410d87a,A,2024-07-02_14h01.25.640,Slot Machine Game,2023.1.3,Win32,60.24096386,,,,,,,,,,,,,,,,,,,,,,,,,,,530,,,,,,,,,,,,,,,,,,,,,7,10,,,492.7517,10,up,0.4664,,0.5,0.3,"[1,3,2]",0.216341435,stimuli/card_0_transparent.png,0,10,0,10,0,1,,,,,,,,,,
,,,,614e35b2138b395a5410d87a,A,2024-07-02_14h01.25.640,Slot Machine Game,2023.1.3,Win32,60.24096386,,,,,,,,,,,,,,,,,,,,,,,,,,,530,,,,,,,,,,,,,,,,,,,,,7,10,,,494.5517,11,up,2.0071,,1,0.3,"[1,3,2]",0.492765527,stimuli/card_0_transparent.png,0,11,0,11,0,1,,,,,,,,,,
,,,,614e35b2138b395a5410d87a,A,2024-07-02_14h01.25.640,Slot Machine Game,2023.1.3,Win32,60.24096386,,,,,,,,,,,,,,,,,,,,,,,,,,,540,,,,,,,,,,,,,,,,,,,,,7,10,,,498.3852,12,right,0.2908,,1.5,0.3,"[1,3,2]",0.520201808,stimuli/card_10_transparent.png,10,12,0,12,0,1,,,,,,,,,,
,,,,614e35b2138b395a5410d87a,A,2024-07-02_14h01.25.640,Slot Machine Game,2023.1.3,Win32,60.24096386,,,,,,,,,,,,,,,,,,,,,,,,,,,640,,,,,,,,,,,,,,,,,,,,,7,10,,,501.0016,13,left,0.3516,,1,0.3,"[1,3,2]",0.423375286,stimuli/card_100_transparent.png,100,13,0,13,0,1,,,,,,,,,,
,,,,614e35b2138b395a5410d87a,A,2024-07-02_14h01.25.640,Slot Machine Game,2023.1.3,Win32,60.24096386,,,,,,,,,,,,,,,,,,,,,,,,,,,740,,,,,,,,,,,,,,,,,,,,,7,10,,,503.1853,14,left,0.2673,,1.5,0.3,"[1,3,2]",0.356880995,stimuli/card_100_transparent.png,100,14,0,14,0,1,,,,,,,,,,
,,,,614e35b2138b395a5410d87a,A,2024-07-02_14h01.25.640,Slot Machine Game,2023.1.3,Win32,60.24096386,,,,,,,,,,,,,,,,,,,,,,,,,,,,,,,,,,,505.7851,,,,,,,,,,,,,,,,,,,,,,,,,,,,,,,,,"[1200,1200,840,740,1020,850,740]",6,0,6,0,1,,,,
,,,,614e35b2138b395a5410d87a,A,2024-07-02_14h01.25.640,Slot Machine Game,2023.1.3,Win32,60.24096386,,,,,,,,,,,,,,,,,,,,,,,,,,,100,,,,,,,,,,,,,,,,,,,,,8,7,"[9,15]","[[1,3,2],[2,3,1]]",510.812,0,left,0.2838,,0.5,0.3,"[1,3,2]",0.697996355,stimuli/card_100_transparent.png,100,0,0,0,0,1,,,,,,,,,,
,,,,614e35b2138b395a5410d87a,A,2024-07-02_14h01.25.640,Slot Machine Game,2023.1.3,Win32,60.24096386,,,,,,,,,,,,,,,,,,,,,,,,,,,200,,,,,,,,,,,,,,,,,,,,,8,7,,,512.4182,1,left,0.3179,,1,0.3,"[1,3,2]",0.526936492,stimuli/card_100_transparent.png,100,1,0,1,0,1,,,,,,,,,,
,,,,614e35b2138b395a5410d87a,A,2024-07-02_14h01.25.640,Slot Machine Game,2023.1.3,Win32,60.24096386,,,,,,,,,,,,,,,,,,,,,,,,,,,210,,,,,,,,,,,,,,,,,,,,,8,7,,,514.5684,2,left,0.522,,1,0.3,"[1,3,2]",0.116347062,stimuli/card_10_transparent.png,10,2,0,2,0,1,,,,,,,,,,
,,,,614e35b2138b395a5410d87a,A,2024-07-02_14h01.25.640,Slot Machine Game,2023.1.3,Win32,60.24096386,,,,,,,,,,,,,,,,,,,,,,,,,,,210,,,,,,,,,,,,,,,,,,,,,8,7,,,516.9183,3,left,0.2623,,1,0.3,"[1,3,2]",0.060119924,stimuli/card_0_transparent.png,0,3,0,3,0,1,,,,,,,,,,
,,,,614e35b2138b395a5410d87a,A,2024-07-02_14h01.25.640,Slot Machine Game,2023.1.3,Win32,60.24096386,,,,,,,,,,,,,,,,,,,,,,,,,,,210,,,,,,,,,,,,,,,,,,,,,8,7,,,519.0182,4,up,0.5232,,1.5,0.3,"[1,3,2]",0.435745937,stimuli/card_0_transparent.png,0,4,0,4,0,1,,,,,,,,,,
,,,,614e35b2138b395a5410d87a,A,2024-07-02_14h01.25.640,Slot Machine Game,2023.1.3,Win32,60.24096386,,,,,,,,,,,,,,,,,,,,,,,,,,,210,,,,,,,,,,,,,,,,,,,,,8,7,,,521.8683,5,right,0.4211,,0.5,0.3,"[1,3,2]",0.048270967,stimuli/card_0_transparent.png,0,5,0,5,0,1,,,,,,,,,,
,,,,614e35b2138b395a5410d87a,A,2024-07-02_14h01.25.640,Slot Machine Game,2023.1.3,Win32,60.24096386,,,,,,,,,,,,,,,,,,,,,,,,,,,310,,,,,,,,,,,,,,,,,,,,,8,7,,,523.6183,6,left,0.7427,,1.5,0.3,"[1,3,2]",0.839809349,stimuli/card_100_transparent.png,100,6,0,6,0,1,,,,,,,,,,
,,,,614e35b2138b395a5410d87a,A,2024-07-02_14h01.25.640,Slot Machine Game,2023.1.3,Win32,60.24096386,,,,,,,,,,,,,,,,,,,,,,,,,,,410,,,,,,,,,,,,,,,,,,,,,8,7,,,526.6849,7,left,0.0236,,0.5,0.3,"[1,3,2]",0.310512614,stimuli/card_100_transparent.png,100,7,0,7,0,1,,,,,,,,,,
,,,,614e35b2138b395a5410d87a,A,2024-07-02_14h01.25.640,Slot Machine Game,2023.1.3,Win32,60.24096386,,,,,,,,,,,,,,,,,,,,,,,,,,,510,,,,,,,,,,,,,,,,,,,,,8,7,,,528.0351,8,left,0.4068,,1.5,0.3,"[1,3,2]",0.687820082,stimuli/card_100_transparent.png,100,8,0,8,0,1,,,,,,,,,,
,,,,614e35b2138b395a5410d87a,A,2024-07-02_14h01.25.640,Slot Machine Game,2023.1.3,Win32,60.24096386,,,,,,,,,,,,,,,,,,,,,,,,,,,520,,,,,,,,,,,,,,,,,,,,,8,7,,,530.7682,9,left,0.0193,,0.5,0.3,"[2,3,1]",0.660578147,stimuli/card_10_transparent.png,10,9,0,9,0,1,,,,,,,,,,
,,,,614e35b2138b395a5410d87a,A,2024-07-02_14h01.25.640,Slot Machine Game,2023.1.3,Win32,60.24096386,,,,,,,,,,,,,,,,,,,,,,,,,,,620,,,,,,,,,,,,,,,,,,,,,8,7,,,532.1181,10,left,0.5049,,1,0.3,"[2,3,1]",0.151914117,stimuli/card_100_transparent.png,100,10,0,10,0,1,,,,,,,,,,
,,,,614e35b2138b395a5410d87a,A,2024-07-02_14h01.25.640,Slot Machine Game,2023.1.3,Win32,60.24096386,,,,,,,,,,,,,,,,,,,,,,,,,,,630,,,,,,,,,,,,,,,,,,,,,8,7,,,534.4517,11,left,0.0641,,0.5,0.3,"[2,3,1]",0.504793584,stimuli/card_10_transparent.png,10,11,0,11,0,1,,,,,,,,,,
,,,,614e35b2138b395a5410d87a,A,2024-07-02_14h01.25.640,Slot Machine Game,2023.1.3,Win32,60.24096386,,,,,,,,,,,,,,,,,,,,,,,,,,,640,,,,,,,,,,,,,,,,,,,,,8,7,,,535.8514,12,left,1.2018,,1,0.3,"[2,3,1]",0.789222618,stimuli/card_10_transparent.png,10,12,0,12,0,1,,,,,,,,,,
,,,,614e35b2138b395a5410d87a,A,2024-07-02_14h01.25.640,Slot Machine Game,2023.1.3,Win32,60.24096386,,,,,,,,,,,,,,,,,,,,,,,,,,,640,,,,,,,,,,,,,,,,,,,,,8,7,,,538.8851,13,up,0.0363,,1,0.3,"[2,3,1]",0.283203005,stimuli/card_0_transparent.png,0,13,0,13,0,1,,,,,,,,,,
,,,,614e35b2138b395a5410d87a,A,2024-07-02_14h01.25.640,Slot Machine Game,2023.1.3,Win32,60.24096386,,,,,,,,,,,,,,,,,,,,,,,,,,,650,,,,,,,,,,,,,,,,,,,,,8,7,,,540.7516,14,right,0.4014,,1,0.3,"[2,3,1]",0.116251366,stimuli/card_10_transparent.png,10,14,0,14,0,1,,,,,,,,,,
,,,,614e35b2138b395a5410d87a,A,2024-07-02_14h01.25.640,Slot Machine Game,2023.1.3,Win32,60.24096386,,,,,,,,,,,,,,,,,,,,,,,,,,,,,,,,,,,542.9851,,,,,,,,,,,,,,,,,,,,,,,,,,,,,,,,,"[1200,1200,840,740,1020,850,740,650]",7,0,7,0,1,,,,
,,,,614e35b2138b395a5410d87a,A,2024-07-02_14h01.25.640,Slot Machine Game,2023.1.3,Win32,60.24096386,,,,,,,,,,,,,,,,,,,,,,,,,,,0,,,,,,,,,,,,,,,,,,,,,9,9,[15],"[[3,1,2]]",548.0128,0,left,0.3369,,0.5,0.3,"[3,1,2]",0.409571219,stimuli/card_0_transparent.png,0,0,0,0,0,1,,,,,,,,,,
,,,,614e35b2138b395a5410d87a,A,2024-07-02_14h01.25.640,Slot Machine Game,2023.1.3,Win32,60.24096386,,,,,,,,,,,,,,,,,,,,,,,,,,,100,,,,,,,,,,,,,,,,,,,,,9,9,,,549.6683,1,up,0.721,,0.5,0.3,"[3,1,2]",0.807237928,stimuli/card_100_transparent.png,100,1,0,1,0,1,,,,,,,,,,
,,,,614e35b2138b395a5410d87a,A,2024-07-02_14h01.25.640,Slot Machine Game,2023.1.3,Win32,60.24096386,,,,,,,,,,,,,,,,,,,,,,,,,,,200,,,,,,,,,,,,,,,,,,,,,9,9,,,551.7181,2,up,0.024,,0.5,0.3,"[3,1,2]",0.26008102,stimuli/card_100_transparent.png,100,2,0,2,0,1,,,,,,,,,,
,,,,614e35b2138b395a5410d87a,A,2024-07-02_14h01.25.640,Slot Machine Game,2023.1.3,Win32,60.24096386,,,,,,,,,,,,,,,,,,,,,,,,,,,300,,,,,,,,,,,,,,,,,,,,,9,9,,,553.068,3,up,0.2705,,0.5,0.3,"[3,1,2]",0.541869634,stimuli/card_100_transparent.png,100,3,0,3,0,1,,,,,,,,,,
,,,,614e35b2138b395a5410d87a,A,2024-07-02_14h01.25.640,Slot Machine Game,2023.1.3,Win32,60.24096386,,,,,,,,,,,,,,,,,,,,,,,,,,,400,,,,,,,,,,,,,,,,,,,,,9,9,,,554.6681,4,up,0.118,,1.5,0.3,"[3,1,2]",0.534679648,stimuli/card_100_transparent.png,100,4,0,4,0,1,,,,,,,,,,
,,,,614e35b2138b395a5410d87a,A,2024-07-02_14h01.25.640,Slot Machine Game,2023.1.3,Win32,60.24096386,,,,,,,,,,,,,,,,,,,,,,,,,,,500,,,,,,,,,,,,,,,,,,,,,9,9,,,557.1182,5,up,0.0478,,0.5,0.3,"[3,1,2]",0.350958463,stimuli/card_100_transparent.png,100,5,0,5,0,1,,,,,,,,,,
,,,,614e35b2138b395a5410d87a,A,2024-07-02_14h01.25.640,Slot Machine Game,2023.1.3,Win32,60.24096386,,,,,,,,,,,,,,,,,,,,,,,,,,,600,,,,,,,,,,,,,,,,,,,,,9,9,,,558.5016,6,up,0.0566,,1.5,0.3,"[3,1,2]",0.871991783,stimuli/card_100_transparent.png,100,6,0,6,0,1,,,,,,,,,,
,,,,614e35b2138b395a5410d87a,A,2024-07-02_14h01.25.640,Slot Machine Game,2023.1.3,Win32,60.24096386,,,,,,,,,,,,,,,,,,,,,,,,,,,610,,,,,,,,,,,,,,,,,,,,,9,9,,,560.8847,7,up,1.3829,,1,0.3,"[3,1,2]",0.143861106,stimuli/card_10_transparent.png,10,7,0,7,0,1,,,,,,,,,,
,,,,614e35b2138b395a5410d87a,A,2024-07-02_14h01.25.640,Slot Machine Game,2023.1.3,Win32,60.24096386,,,,,,,,,,,,,,,,,,,,,,,,,,,710,,,,,,,,,,,,,,,,,,,,,9,9,,,564.1013,8,up,0.3695,,1.5,0.3,"[3,1,2]",0.648588829,stimuli/card_100_transparent.png,100,8,0,8,0,1,,,,,,,,,,
,,,,614e35b2138b395a5410d87a,A,2024-07-02_14h01.25.640,Slot Machine Game,2023.1.3,Win32,60.24096386,,,,,,,,,,,,,,,,,,,,,,,,,,,810,,,,,,,,,,,,,,,,,,,,,9,9,,,566.8014,9,up,0.236,,1.5,0.3,"[3,1,2]",0.92592234,stimuli/card_100_transparent.png,100,9,0,9,0,1,,,,,,,,,,
,,,,614e35b2138b395a5410d87a,A,2024-07-02_14h01.25.640,Slot Machine Game,2023.1.3,Win32,60.24096386,,,,,,,,,,,,,,,,,,,,,,,,,,,820,,,,,,,,,,,,,,,,,,,,,9,9,,,569.3679,10,up,0.1532,,1,0.3,"[3,1,2]",0.182539177,stimuli/card_10_transparent.png,10,10,0,10,0,1,,,,,,,,,,
,,,,614e35b2138b395a5410d87a,A,2024-07-02_14h01.25.640,Slot Machine Game,2023.1.3,Win32,60.24096386,,,,,,,,,,,,,,,,,,,,,,,,,,,920,,,,,,,,,,,,,,,,,,,,,9,9,,,571.3515,11,up,0.9866,,1.5,0.3,"[3,1,2]",0.8439938,stimuli/card_100_transparent.png,100,11,0,11,0,1,,,,,,,,,,
,,,,614e35b2138b395a5410d87a,A,2024-07-02_14h01.25.640,Slot Machine Game,2023.1.3,Win32,60.24096386,,,,,,,,,,,,,,,,,,,,,,,,,,,1020,,,,,,,,,,,,,,,,,,,,,9,9,,,574.6682,12,up,0.2675,,0.5,0.3,"[3,1,2]",0.287292916,stimuli/card_100_transparent.png,100,12,0,12,0,1,,,,,,,,,,
,,,,614e35b2138b395a5410d87a,A,2024-07-02_14h01.25.640,Slot Machine Game,2023.1.3,Win32,60.24096386,,,,,,,,,,,,,,,,,,,,,,,,,,,1120,,,,,,,,,,,,,,,,,,,,,9,9,,,576.2681,13,up,0.2674,,0.5,0.3,"[3,1,2]",0.67116771,stimuli/card_100_transparent.png,100,13,0,13,0,1,,,,,,,,,,
,,,,614e35b2138b395a5410d87a,A,2024-07-02_14h01.25.640,Slot Machine Game,2023.1.3,Win32,60.24096386,,,,,,,,,,,,,,,,,,,,,,,,,,,1220,,,,,,,,,,,,,,,,,,,,,9,9,,,577.868,14,up,0.1358,,1,0.3,"[3,1,2]",0.601602833,stimuli/card_100_transparent.png,100,14,0,14,0,1,,,,,,,,,,
,,,,614e35b2138b395a5410d87a,A,2024-07-02_14h01.25.640,Slot Machine Game,2023.1.3,Win32,60.24096386,,,,,,,,,,,,,,,,,,,,,,,,,,,,,,,,,,,579.8349,,,,,,,,,,,,,,,,,,,,,,,,,,,,,,,,,"[1200,1200,840,740,1020,850,740,650,1220]",8,0,8,0,1,,,,
,,,,614e35b2138b395a5410d87a,A,2024-07-02_14h01.25.640,Slot Machine Game,2023.1.3,Win32,60.24096386,,,,,,,,,,,,,,,,,,,,,,,,,,,10,,,,,,,,,,,,,,,,,,,,,10,6,"[4,10,15]","[[2,3,1],[1,3,2],[3,2,1]]",584.8624,0,left,0.8803,,0.5,0.3,"[2,3,1]",0.69266789,stimuli/card_10_transparent.png,10,0,0,0,0,1,,,,,,,,,,
,,,,614e35b2138b395a5410d87a,A,2024-07-02_14h01.25.640,Slot Machine Game,2023.1.3,Win32,60.24096386,,,,,,,,,,,,,,,,,,,,,,,,,,,10,,,,,,,,,,,,,,,,,,,,,10,6,,,587.068,1,up,0.0681,,1.5,0.3,"[2,3,1]",0.257191302,stimuli/card_0_transparent.png,0,1,0,1,0,1,,,,,,,,,,
,,,,614e35b2138b395a5410d87a,A,2024-07-02_14h01.25.640,Slot Machine Game,2023.1.3,Win32,60.24096386,,,,,,,,,,,,,,,,,,,,,,,,,,,110,,,,,,,,,,,,,,,,,,,,,10,6,,,589.4682,2,right,0.4006,,0.5,0.3,"[2,3,1]",0.31258002,stimuli/card_100_transparent.png,100,2,0,2,0,1,,,,,,,,,,
,,,,614e35b2138b395a5410d87a,A,2024-07-02_14h01.25.640,Slot Machine Game,2023.1.3,Win32,60.24096386,,,,,,,,,,,,,,,,,,,,,,,,,,,210,,,,,,,,,,,,,,,,,,,,,10,6,,,591.2014,3,right,0.1389,,1.5,0.3,"[2,3,1]",0.662372152,stimuli/card_100_transparent.png,100,3,0,3,0,1,,,,,,,,,,
,,,,614e35b2138b395a5410d87a,A,2024-07-02_14h01.25.640,Slot Machine Game,2023.1.3,Win32,60.24096386,,,,,,,,,,,,,,,,,,,,,,,,,,,220,,,,,,,,,,,,,,,,,,,,,10,6,,,593.6681,4,right,0.5176,,0.5,0.3,"[1,3,2]",0.409814661,stimuli/card_10_transparent.png,10,4,0,4,0,1,,,,,,,,,,
,,,,614e35b2138b395a5410d87a,A,2024-07-02_14h01.25.640,Slot Machine Game,2023.1.3,Win32,60.24096386,,,,,,,,,,,,,,,,,,,,,,,,,,,230,,,,,,,,,,,,,,,,,,,,,10,6,,,595.5182,5,right,0.3174,,0.5,0.3,"[1,3,2]",0.681212994,stimuli/card_10_transparent.png,10,5,0,5,0,1,,,,,,,,,,
,,,,614e35b2138b395a5410d87a,A,2024-07-02_14h01.25.640,Slot Machine Game,2023.1.3,Win32,60.24096386,,,,,,,,,,,,,,,,,,,,,,,,,,,330,,,,,,,,,,,,,,,,,,,,,10,6,,,597.168,6,right,0.0978,,1,0.3,"[1,3,2]",0.122627037,stimuli/card_100_transparent.png,100,6,0,6,0,1,,,,,,,,,,
,,,,614e35b2138b395a5410d87a,A,2024-07-02_14h01.25.640,Slot Machine Game,2023.1.3,Win32,60.24096386,,,,,,,,,,,,,,,,,,,,,,,,,,,340,,,,,,,,,,,,,,,,,,,,,10,6,,,599.1013,7,right,1.4859,,0.5,0.3,"[1,3,2]",0.366084853,stimuli/card_10_transparent.png,10,7,0,7,0,1,,,,,,,,,,
,,,,614e35b2138b395a5410d87a,A,2024-07-02_14h01.25.640,Slot Machine Game,2023.1.3,Win32,60.24096386,,,,,,,,,,,,,,,,,,,,,,,,,,,440,,,,,,,,,,,,,,,,,,,,,10,6,,,601.918,8,up,0.9172,,1.5,0.3,"[1,3,2]",0.058298102,stimuli/card_100_transparent.png,100,8,0,8,0,1,,,,,,,,,,
,,,,614e35b2138b395a5410d87a,A,2024-07-02_14h01.25.640,Slot Machine Game,2023.1.3,Win32,60.24096386,,,,,,,,,,,,,,,,,,,,,,,,,,,440,,,,,,,,,,,,,,,,,,,,,10,6,,,605.168,9,up,0.7073,,1,0.3,"[1,3,2]",0.709416364,stimuli/card_0_transparent.png,0,9,0,9,0,1,,,,,,,,,,
,,,,614e35b2138b395a5410d87a,A,2024-07-02_14h01.25.640,Slot Machine Game,2023.1.3,Win32,60.24096386,,,,,,,,,,,,,,,,,,,,,,,,,,,440,,,,,,,,,,,,,,,,,,,,,10,6,,,607.7018,10,up,0.1541,,0.5,0.3,"[3,2,1]",0.047607617,stimuli/card_0_transparent.png,0,10,0,10,0,1,,,,,,,,,,
,,,,614e35b2138b395a5410d87a,A,2024-07-02_14h01.25.640,Slot Machine Game,2023.1.3,Win32,60.24096386,,,,,,,,,,,,,,,,,,,,,,,,,,,440,,,,,,,,,,,,,,,,,,,,,10,6,,,609.1847,11,left,0.618,,1,0.3,"[3,2,1]",0.811135455,stimuli/card_0_transparent.png,0,11,0,11,0,1,,,,,,,,,,
,,,,614e35b2138b395a5410d87a,A,2024-07-02_14h01.25.640,Slot Machine Game,2023.1.3,Win32,60.24096386,,,,,,,,,,,,,,,,,,,,,,,,,,,440,,,,,,,,,,,,,,,,,,,,,10,6,,,611.6348,12,left,0.0053,,0.5,0.3,"[3,2,1]",0.762183326,stimuli/card_0_transparent.png,0,12,0,12,0,1,,,,,,,,,,
,,,,614e35b2138b395a5410d87a,A,2024-07-02_14h01.25.640,Slot Machine Game,2023.1.3,Win32,60.24096386,,,,,,,,,,,,,,,,,,,,,,,,,,,440,,,,,,,,,,,,,,,,,,,,,10,6,,,612.9681,13,right,0.5351,,0.5,0.3,"[3,2,1]",0.037285794,stimuli/card_0_transparent.png,0,13,0,13,0,1,,,,,,,,,,
,,,,614e35b2138b395a5410d87a,A,2024-07-02_14h01.25.640,Slot Machine Game,2023.1.3,Win32,60.24096386,,,,,,,,,,,,,,,,,,,,,,,,,,,450,,,,,,,,,,,,,,,,,,,,,10,6,,,614.8347,14,up,0.0884,,1,0.3,"[3,2,1]",0.374791053,stimuli/card_10_transparent.png,10,14,0,14,0,1,,,,,,,,,,
,,,,614e35b2138b395a5410d87a,A,2024-07-02_14h01.25.640,Slot Machine Game,2023.1.3,Win32,60.24096386,,,,,,,,,,,,,,,,,,,,,,,,,,,,,,,,,,,616.7514,,,,,,,,,,,,,,,,,,,,,,,,,,,,,,,,,"[1200,1200,840,740,1020,850,740,650,1220,450]",9,0,9,0,1,,,,
,,,,614e35b2138b395a5410d87a,A,2024-07-02_14h01.25.640,Slot Machine Game,2023.1.3,Win32,60.24096386,,,,,,,,,,,,,,,,,,,,,,,,,,,,,,,,,,,,,,,,,,,,,,,,,,,,,,,,,,,,,,,,,,,,,,,,,,9,"[1200,1200,840,740,1020,850,740,650,1220,450]",8.5,2024-07-02_14h11.51.622
