key_resp_welcome_started,key_resp_welcome_keys,key_resp_welcome_rt,key_resp_welcome_duration,prolific_id,path_id,date,expName,psychopyVersion,OS,frameRate,key_resp_instruction1_started,key_resp_instruction1_keys,key_resp_instruction1_rt,key_resp_instruction1_duration,key_resp_instruction2_started,key_resp_instruction2_keys,key_resp_instruction2_rt,key_resp_instruction2_duration,key_resp_instruction3_started,key_resp_instruction3_keys,key_resp_instruction3_rt,key_resp_instruction3_duration,key_resp_instruction4_started,key_resp_instruction4_keys,key_resp_instruction4_rt,key_resp_instruction4_duration,practiceCondition,practice_reward_seqs,practice_trial_started,practice_trial_num,practice_resp_rt,practice_resp_duration,practice_resp_keys,prac_presentationInterval,"practice_reward_seq: 2,1,3",reward_img,cumulative_reward,trial_reward,practice_trials.thisRepN,practice_trials.thisTrialN,practice_trials.thisN,practice_trials.thisIndex,practice_trials.ran,"practice_reward_seq: 2,3,1",block_break_started,"practice_reward_seq: 1,3,2","practice_reward_seq: 3,1,2",practice_end_time,practice_end_keys,practice_end_rt,practice_end_duration,main_instruction_text_started,block_condition,block_order_indices,main_instruction_keys,main_instruction_rt,main_instruction_duration,block_number,block_assignment,current_condition,main_reward_seqs,main_trial_started,main_trial_num,main_trial_keys,main_trial_rt,main_trial_duration,main_presentationInterval,reward_presentation_time,main_reward_seq,reward_rand_val,main_reward_img,current_reward,main_trials.thisRepN,main_trials.thisTrialN,main_trials.thisN,main_trials.thisIndex,main_trials.ran,block_reward,block.thisRepN,block.thisTrialN,block.thisN,block.thisIndex,block.ran,block_reward.length,block_reward_all,reward_amount,date_end_task
0.0003,space,1.8225,,615085e1473e6bb28212e205,B,2024-06-23_10h58.56.891,Slot Machine Game,2023.1.3,MacIntel,59.88023952,,,,,,,,,,,,,,,,,,,,,,,,,,,,,,,,,,,,,,,,,,,,,,,,,,,,,,,,,,,,,,,,,,,,,,,,,,,,,
,,,,615085e1473e6bb28212e205,B,2024-06-23_10h58.56.891,Slot Machine Game,2023.1.3,MacIntel,59.88023952,1.8465,space,8.7327,,,,,,,,,,,,,,,,,,,,,,,,,,,,,,,,,,,,,,,,,,,,,,,,,,,,,,,,,,,,,,,,,,,,,,,,,,
,,,,615085e1473e6bb28212e205,B,2024-06-23_10h58.56.891,Slot Machine Game,2023.1.3,MacIntel,59.88023952,,,,,10.6017,space,33.1375,,,,,,,,,,,,,,,,,,,,,,,,,,,,,,,,,,,,,,,,,,,,,,,,,,,,,,,,,,,,,,,,,,,,,,
,,,,615085e1473e6bb28212e205,B,2024-06-23_10h58.56.891,Slot Machine Game,2023.1.3,MacIntel,59.88023952,,,,,,,,,43.756,space,8.802,,,,,,,,,,,,,,,,,,,,,,,,,,,,,,,,,,,,,,,,,,,,,,,,,,,,,,,,,,,,,,,,,,
,,,,615085e1473e6bb28212e205,B,2024-06-23_10h58.56.891,Slot Machine Game,2023.1.3,MacIntel,59.88023952,,,,,,,,,,,,,,,,,,,,,,,,,,,,,,,,,,,,,,,,,,,,,,,,,,,,,,,,,,,,,,,,,,,,,,,,,,,,,
,,,,615085e1473e6bb28212e205,B,2024-06-23_10h58.56.891,Slot Machine Game,2023.1.3,MacIntel,59.88023952,,,,,,,,,,,,,194.3766,right,3.1859,,,,,,,,,,,,,,,,,,,,,,,,,,,,,,,,,,,,,,,,,,,,,,,,,,,,,,,,,,,,,,
,,,,615085e1473e6bb28212e205,B,2024-06-23_10h58.56.891,Slot Machine Game,2023.1.3,MacIntel,59.88023952,,,,,,,,,,,,,,,,,"[9,15]","[[2,1,3],[2,3,1]]",197.5893,0,0.7084,,left,1.5,,stimuli/card_10_transparent.png,10,10,0,0,0,0,1,,,,,,,,,,,,,,,,,,,,,,,,,,,,,,,,,,,,,,,,,,,,
,,,,615085e1473e6bb28212e205,B,2024-06-23_10h58.56.891,Slot Machine Game,2023.1.3,MacIntel,59.88023952,,,,,,,,,,,,,,,,,,,200.6268,1,1.7215,,up,1.5,,stimuli/card_100_transparent.png,110,100,1,0,1,0,1,,,,,,,,,,,,,,,,,,,,,,,,,,,,,,,,,,,,,,,,,,,,
,,,,615085e1473e6bb28212e205,B,2024-06-23_10h58.56.891,Slot Machine Game,2023.1.3,MacIntel,59.88023952,,,,,,,,,,,,,,,,,,,204.6704,2,0.3925,,up,1,,stimuli/card_0_transparent.png,110,0,2,0,2,0,1,,,,,,,,,,,,,,,,,,,,,,,,,,,,,,,,,,,,,,,,,,,,
,,,,615085e1473e6bb28212e205,B,2024-06-23_10h58.56.891,Slot Machine Game,2023.1.3,MacIntel,59.88023952,,,,,,,,,,,,,,,,,,,206.8762,3,0.3069,,up,0.5,,stimuli/card_100_transparent.png,210,100,3,0,3,0,1,,,,,,,,,,,,,,,,,,,,,,,,,,,,,,,,,,,,,,,,,,,,
,,,,615085e1473e6bb28212e205,B,2024-06-23_10h58.56.891,Slot Machine Game,2023.1.3,MacIntel,59.88023952,,,,,,,,,,,,,,,,,,,208.4968,4,0.3225,,up,0.5,,stimuli/card_100_transparent.png,310,100,4,0,4,0,1,,,,,,,,,,,,,,,,,,,,,,,,,,,,,,,,,,,,,,,,,,,,
,,,,615085e1473e6bb28212e205,B,2024-06-23_10h58.56.891,Slot Machine Game,2023.1.3,MacIntel,59.88023952,,,,,,,,,,,,,,,,,,,210.1349,5,0.1094,,up,0.5,,stimuli/card_0_transparent.png,310,0,5,0,5,0,1,,,,,,,,,,,,,,,,,,,,,,,,,,,,,,,,,,,,,,,,,,,,
,,,,615085e1473e6bb28212e205,B,2024-06-23_10h58.56.891,Slot Machine Game,2023.1.3,MacIntel,59.88023952,,,,,,,,,,,,,,,,,,,211.5553,6,0.2364,,right,1.5,,stimuli/card_10_transparent.png,320,10,6,0,6,0,1,,,,,,,,,,,,,,,,,,,,,,,,,,,,,,,,,,,,,,,,,,,,
,,,,615085e1473e6bb28212e205,B,2024-06-23_10h58.56.891,Slot Machine Game,2023.1.3,MacIntel,59.88023952,,,,,,,,,,,,,,,,,,,214.1119,7,0.4569,,right,1.5,,stimuli/card_10_transparent.png,330,10,7,0,7,0,1,,,,,,,,,,,,,,,,,,,,,,,,,,,,,,,,,,,,,,,,,,,,
,,,,615085e1473e6bb28212e205,B,2024-06-23_10h58.56.891,Slot Machine Game,2023.1.3,MacIntel,59.88023952,,,,,,,,,,,,,,,,,,,216.8864,8,0.7361,,up,0.5,,stimuli/card_100_transparent.png,430,100,8,0,8,0,1,,,,,,,,,,,,,,,,,,,,,,,,,,,,,,,,,,,,,,,,,,,,
,,,,615085e1473e6bb28212e205,B,2024-06-23_10h58.56.891,Slot Machine Game,2023.1.3,MacIntel,59.88023952,,,,,,,,,,,,,,,,,,,218.9418,9,1.1587,,up,1.5,,stimuli/card_0_transparent.png,430,0,9,0,9,0,1,,,,,,,,,,,,,,,,,,,,,,,,,,,,,,,,,,,,,,,,,,,,
,,,,615085e1473e6bb28212e205,B,2024-06-23_10h58.56.891,Slot Machine Game,2023.1.3,MacIntel,59.88023952,,,,,,,,,,,,,,,,,,,222.4177,10,0.6011,,left,1.5,,stimuli/card_10_transparent.png,440,10,10,0,10,0,1,,,,,,,,,,,,,,,,,,,,,,,,,,,,,,,,,,,,,,,,,,,,
,,,,615085e1473e6bb28212e205,B,2024-06-23_10h58.56.891,Slot Machine Game,2023.1.3,MacIntel,59.88023952,,,,,,,,,,,,,,,,,,,225.3254,11,2.0958,,right,1.5,,stimuli/card_100_transparent.png,540,100,11,0,11,0,1,,,,,,,,,,,,,,,,,,,,,,,,,,,,,,,,,,,,,,,,,,,,
,,,,615085e1473e6bb28212e205,B,2024-06-23_10h58.56.891,Slot Machine Game,2023.1.3,MacIntel,59.88023952,,,,,,,,,,,,,,,,,,,229.7373,12,0.4748,,right,1.5,,stimuli/card_0_transparent.png,540,0,12,0,12,0,1,,,,,,,,,,,,,,,,,,,,,,,,,,,,,,,,,,,,,,,,,,,,
,,,,615085e1473e6bb28212e205,B,2024-06-23_10h58.56.891,Slot Machine Game,2023.1.3,MacIntel,59.88023952,,,,,,,,,,,,,,,,,,,232.5114,13,0.5741,,up,1,,stimuli/card_0_transparent.png,540,0,13,0,13,0,1,,,,,,,,,,,,,,,,,,,,,,,,,,,,,,,,,,,,,,,,,,,,
,,,,615085e1473e6bb28212e205,B,2024-06-23_10h58.56.891,Slot Machine Game,2023.1.3,MacIntel,59.88023952,,,,,,,,,,,,,,,,,,,234.9006,14,0.1734,,right,0.5,,stimuli/card_100_transparent.png,640,100,14,0,14,0,1,,,,,,,,,,,,,,,,,,,,,,,,,,,,,,,,,,,,,,,,,,,,
,,,,615085e1473e6bb28212e205,B,2024-06-23_10h58.56.891,Slot Machine Game,2023.1.3,MacIntel,59.88023952,,,,,,,,,,,,,,,,,"[6,15]","[[1,3,2],[3,1,2]]",241.4322,0,1.4807,,right,1,,stimuli/card_10_transparent.png,10,10,0,0,0,0,1,,236.4037,,,,,,,,,,,,,,,,,,,,,,,,,,,,,,,,,,,,,,,,,,
,,,,615085e1473e6bb28212e205,B,2024-06-23_10h58.56.891,Slot Machine Game,2023.1.3,MacIntel,59.88023952,,,,,,,,,,,,,,,,,,,244.7273,1,0.9199,,up,1,,stimuli/card_0_transparent.png,10,0,1,0,1,0,1,,,,,,,,,,,,,,,,,,,,,,,,,,,,,,,,,,,,,,,,,,,,
,,,,615085e1473e6bb28212e205,B,2024-06-23_10h58.56.891,Slot Machine Game,2023.1.3,MacIntel,59.88023952,,,,,,,,,,,,,,,,,,,247.4679,2,0.7709,,left,1,,stimuli/card_10_transparent.png,20,10,2,0,2,0,1,,,,,,,,,,,,,,,,,,,,,,,,,,,,,,,,,,,,,,,,,,,,
,,,,615085e1473e6bb28212e205,B,2024-06-23_10h58.56.891,Slot Machine Game,2023.1.3,MacIntel,59.88023952,,,,,,,,,,,,,,,,,,,250.0575,3,0.5939,,left,1,,stimuli/card_0_transparent.png,20,0,3,0,3,0,1,,,,,,,,,,,,,,,,,,,,,,,,,,,,,,,,,,,,,,,,,,,,
,,,,615085e1473e6bb28212e205,B,2024-06-23_10h58.56.891,Slot Machine Game,2023.1.3,MacIntel,59.88023952,,,,,,,,,,,,,,,,,,,252.4646,4,0.0104,,up,1,,stimuli/card_0_transparent.png,20,0,4,0,4,0,1,,,,,,,,,,,,,,,,,,,,,,,,,,,,,,,,,,,,,,,,,,,,
,,,,615085e1473e6bb28212e205,B,2024-06-23_10h58.56.891,Slot Machine Game,2023.1.3,MacIntel,59.88023952,,,,,,,,,,,,,,,,,,,254.2861,5,0.1398,,right,0.5,,stimuli/card_10_transparent.png,30,10,5,0,5,0,1,,,,,,,,,,,,,,,,,,,,,,,,,,,,,,,,,,,,,,,,,,,,
,,,,615085e1473e6bb28212e205,B,2024-06-23_10h58.56.891,Slot Machine Game,2023.1.3,MacIntel,59.88023952,,,,,,,,,,,,,,,,,,,255.7399,6,4.4159,,right,1.5,,stimuli/card_10_transparent.png,40,10,6,0,6,0,1,,,,,,,,,,,,,,,,,,,,,,,,,,,,,,,,,,,,,,,,,,,,
,,,,615085e1473e6bb28212e205,B,2024-06-23_10h58.56.891,Slot Machine Game,2023.1.3,MacIntel,59.88023952,,,,,,,,,,,,,,,,,,,262.457,7,0.3214,,up,1,,stimuli/card_0_transparent.png,40,0,7,0,7,0,1,,,,,,,,,,,,,,,,,,,,,,,,,,,,,,,,,,,,,,,,,,,,
,,,,615085e1473e6bb28212e205,B,2024-06-23_10h58.56.891,Slot Machine Game,2023.1.3,MacIntel,59.88023952,,,,,,,,,,,,,,,,,,,264.5971,8,0.1563,,left,1,,stimuli/card_0_transparent.png,40,0,8,0,8,0,1,,,,,,,,,,,,,,,,,,,,,,,,,,,,,,,,,,,,,,,,,,,,
,,,,615085e1473e6bb28212e205,B,2024-06-23_10h58.56.891,Slot Machine Game,2023.1.3,MacIntel,59.88023952,,,,,,,,,,,,,,,,,,,266.5689,9,0.3918,,left,1.5,,stimuli/card_0_transparent.png,40,0,9,0,9,0,1,,,,,,,,,,,,,,,,,,,,,,,,,,,,,,,,,,,,,,,,,,,,
,,,,615085e1473e6bb28212e205,B,2024-06-23_10h58.56.891,Slot Machine Game,2023.1.3,MacIntel,59.88023952,,,,,,,,,,,,,,,,,,,269.2764,10,2.7429,,up,0.5,,stimuli/card_0_transparent.png,40,0,10,0,10,0,1,,,,,,,,,,,,,,,,,,,,,,,,,,,,,,,,,,,,,,,,,,,,
,,,,615085e1473e6bb28212e205,B,2024-06-23_10h58.56.891,Slot Machine Game,2023.1.3,MacIntel,59.88023952,,,,,,,,,,,,,,,,,,,273.3367,11,0.6389,,up,1,,stimuli/card_100_transparent.png,140,100,11,0,11,0,1,,,,,,,,,,,,,,,,,,,,,,,,,,,,,,,,,,,,,,,,,,,,
,,,,615085e1473e6bb28212e205,B,2024-06-23_10h58.56.891,Slot Machine Game,2023.1.3,MacIntel,59.88023952,,,,,,,,,,,,,,,,,,,275.7937,12,1.0661,,up,1,,stimuli/card_100_transparent.png,240,100,12,0,12,0,1,,,,,,,,,,,,,,,,,,,,,,,,,,,,,,,,,,,,,,,,,,,,
,,,,615085e1473e6bb28212e205,B,2024-06-23_10h58.56.891,Slot Machine Game,2023.1.3,MacIntel,59.88023952,,,,,,,,,,,,,,,,,,,278.6677,13,0.1202,,up,1.5,,stimuli/card_10_transparent.png,250,10,13,0,13,0,1,,,,,,,,,,,,,,,,,,,,,,,,,,,,,,,,,,,,,,,,,,,,
,,,,615085e1473e6bb28212e205,B,2024-06-23_10h58.56.891,Slot Machine Game,2023.1.3,MacIntel,59.88023952,,,,,,,,,,,,,,,,,,,281.1071,14,0.0895,,up,1.5,,stimuli/card_100_transparent.png,350,100,14,0,14,0,1,,,,,,,,,,,,,,,,,,,,,,,,,,,,,,,,,,,,,,,,,,,,
,,,,615085e1473e6bb28212e205,B,2024-06-23_10h58.56.891,Slot Machine Game,2023.1.3,MacIntel,59.88023952,,,,,,,,,,,,,,,,,,,,,,,,,,,,,,,,,,,283.5143,,,288.5119,space,2.8257,,,,,,,,,,,,,,,,,,,,,,,,,,,,,,,,,,,,,
,,,,615085e1473e6bb28212e205,B,2024-06-23_10h58.56.891,Slot Machine Game,2023.1.3,MacIntel,59.88023952,,,,,,,,,,,,,,,,,,,,,,,,,,,,,,,,,,,,,,,,,,291.3519,2,"[2,4,8,0,1,3,9,6,8,5]",space,4.1981,,,,,,,,,,,,,,,,,,,,,,,,,,,,,,,
,,,,615085e1473e6bb28212e205,B,2024-06-23_10h58.56.891,Slot Machine Game,2023.1.3,MacIntel,59.88023952,,,,,,,,,,,,,,,,,,,,,,,,,,,10,,,,,,,,,,,,,,,,,,,,,1,3,"[15,15]","[[3,1,2],[3,1,2]]",295.5808,0,right,0.6394,,1,0.3,"[3,1,2]",0.827959496,stimuli/card_10_transparent.png,10,0,0,0,0,1,,,,,,,,,,
,,,,615085e1473e6bb28212e205,B,2024-06-23_10h58.56.891,Slot Machine Game,2023.1.3,MacIntel,59.88023952,,,,,,,,,,,,,,,,,,,,,,,,,,,20,,,,,,,,,,,,,,,,,,,,,1,3,,,298.0534,1,right,1.0536,,1,0.3,"[3,1,2]",0.748705352,stimuli/card_10_transparent.png,10,1,0,1,0,1,,,,,,,,,,
,,,,615085e1473e6bb28212e205,B,2024-06-23_10h58.56.891,Slot Machine Game,2023.1.3,MacIntel,59.88023952,,,,,,,,,,,,,,,,,,,,,,,,,,,30,,,,,,,,,,,,,,,,,,,,,1,3,,,300.927,2,up,2.3575,,0.5,0.3,"[3,1,2]",0.106954531,stimuli/card_10_transparent.png,10,2,0,2,0,1,,,,,,,,,,
,,,,615085e1473e6bb28212e205,B,2024-06-23_10h58.56.891,Slot Machine Game,2023.1.3,MacIntel,59.88023952,,,,,,,,,,,,,,,,,,,,,,,,,,,30,,,,,,,,,,,,,,,,,,,,,1,3,,,304.6042,3,left,0.7088,,0.5,0.3,"[3,1,2]",0.812265032,stimuli/card_0_transparent.png,0,3,0,3,0,1,,,,,,,,,,
,,,,615085e1473e6bb28212e205,B,2024-06-23_10h58.56.891,Slot Machine Game,2023.1.3,MacIntel,59.88023952,,,,,,,,,,,,,,,,,,,,,,,,,,,130,,,,,,,,,,,,,,,,,,,,,1,3,,,306.6261,4,up,0.8751,,1,0.3,"[3,1,2]",0.622986218,stimuli/card_100_transparent.png,100,4,0,4,0,1,,,,,,,,,,
,,,,615085e1473e6bb28212e205,B,2024-06-23_10h58.56.891,Slot Machine Game,2023.1.3,MacIntel,59.88023952,,,,,,,,,,,,,,,,,,,,,,,,,,,230,,,,,,,,,,,,,,,,,,,,,1,3,,,309.3168,5,up,0.3172,,0.5,0.3,"[3,1,2]",0.841844848,stimuli/card_100_transparent.png,100,5,0,5,0,1,,,,,,,,,,
,,,,615085e1473e6bb28212e205,B,2024-06-23_10h58.56.891,Slot Machine Game,2023.1.3,MacIntel,59.88023952,,,,,,,,,,,,,,,,,,,,,,,,,,,330,,,,,,,,,,,,,,,,,,,,,1,3,,,310.9539,6,up,2.7301,,1.5,0.3,"[3,1,2]",0.768547493,stimuli/card_100_transparent.png,100,6,0,6,0,1,,,,,,,,,,
,,,,615085e1473e6bb28212e205,B,2024-06-23_10h58.56.891,Slot Machine Game,2023.1.3,MacIntel,59.88023952,,,,,,,,,,,,,,,,,,,,,,,,,,,430,,,,,,,,,,,,,,,,,,,,,1,3,,,316.001,7,up,0.1689,,0.5,0.3,"[3,1,2]",0.48873638,stimuli/card_100_transparent.png,100,7,0,7,0,1,,,,,,,,,,
,,,,615085e1473e6bb28212e205,B,2024-06-23_10h58.56.891,Slot Machine Game,2023.1.3,MacIntel,59.88023952,,,,,,,,,,,,,,,,,,,,,,,,,,,440,,,,,,,,,,,,,,,,,,,,,1,3,,,317.4882,8,up,1.5873,,1,0.3,"[3,1,2]",0.134521035,stimuli/card_10_transparent.png,10,8,0,8,0,1,,,,,,,,,,
,,,,615085e1473e6bb28212e205,B,2024-06-23_10h58.56.891,Slot Machine Game,2023.1.3,MacIntel,59.88023952,,,,,,,,,,,,,,,,,,,,,,,,,,,540,,,,,,,,,,,,,,,,,,,,,1,3,,,320.886,9,up,0.4998,,1,0.3,"[3,1,2]",0.787996235,stimuli/card_100_transparent.png,100,9,0,9,0,1,,,,,,,,,,
,,,,615085e1473e6bb28212e205,B,2024-06-23_10h58.56.891,Slot Machine Game,2023.1.3,MacIntel,59.88023952,,,,,,,,,,,,,,,,,,,,,,,,,,,640,,,,,,,,,,,,,,,,,,,,,1,3,,,323.2039,10,up,0.2106,,1.5,0.3,"[3,1,2]",0.336441452,stimuli/card_100_transparent.png,100,10,0,10,0,1,,,,,,,,,,
,,,,615085e1473e6bb28212e205,B,2024-06-23_10h58.56.891,Slot Machine Game,2023.1.3,MacIntel,59.88023952,,,,,,,,,,,,,,,,,,,,,,,,,,,740,,,,,,,,,,,,,,,,,,,,,1,3,,,325.7266,11,up,0.0851,,1,0.3,"[3,1,2]",0.235940442,stimuli/card_100_transparent.png,100,11,0,11,0,1,,,,,,,,,,
,,,,615085e1473e6bb28212e205,B,2024-06-23_10h58.56.891,Slot Machine Game,2023.1.3,MacIntel,59.88023952,,,,,,,,,,,,,,,,,,,,,,,,,,,750,,,,,,,,,,,,,,,,,,,,,1,3,,,327.6319,12,up,0.0671,,0.5,0.3,"[3,1,2]",0.160520919,stimuli/card_10_transparent.png,10,12,0,12,0,1,,,,,,,,,,
,,,,615085e1473e6bb28212e205,B,2024-06-23_10h58.56.891,Slot Machine Game,2023.1.3,MacIntel,59.88023952,,,,,,,,,,,,,,,,,,,,,,,,,,,850,,,,,,,,,,,,,,,,,,,,,1,3,,,329.0192,13,up,1.6415,,1,0.3,"[3,1,2]",0.449635002,stimuli/card_100_transparent.png,100,13,0,13,0,1,,,,,,,,,,
,,,,615085e1473e6bb28212e205,B,2024-06-23_10h58.56.891,Slot Machine Game,2023.1.3,MacIntel,59.88023952,,,,,,,,,,,,,,,,,,,,,,,,,,,950,,,,,,,,,,,,,,,,,,,,,1,3,,,332.4785,14,up,0.5867,,1.5,0.3,"[3,1,2]",0.22114384,stimuli/card_100_transparent.png,100,14,0,14,0,1,,,,,,,,,,
,,,,615085e1473e6bb28212e205,B,2024-06-23_10h58.56.891,Slot Machine Game,2023.1.3,MacIntel,59.88023952,,,,,,,,,,,,,,,,,,,,,,,,,,,,,,,,,,,335.3865,,,,,,,,,,,,,,,,,,,,,,,,,,,,,,,,,[950],0,0,0,0,1,,,,
,,,,615085e1473e6bb28212e205,B,2024-06-23_10h58.56.891,Slot Machine Game,2023.1.3,MacIntel,59.88023952,,,,,,,,,,,,,,,,,,,,,,,,,,,10,,,,,,,,,,,,,,,,,,,,,2,5,"[5,15]","[[1,2,3],[3,1,2]]",340.3972,0,up,1.5626,,0.5,0.3,"[1,2,3]",0.686611012,stimuli/card_10_transparent.png,10,0,0,0,0,1,,,,,,,,,,
,,,,615085e1473e6bb28212e205,B,2024-06-23_10h58.56.891,Slot Machine Game,2023.1.3,MacIntel,59.88023952,,,,,,,,,,,,,,,,,,,,,,,,,,,110,,,,,,,,,,,,,,,,,,,,,2,5,,,343.274,1,left,0.7791,,0.5,0.3,"[1,2,3]",0.635320453,stimuli/card_100_transparent.png,100,1,0,1,0,1,,,,,,,,,,
,,,,615085e1473e6bb28212e205,B,2024-06-23_10h58.56.891,Slot Machine Game,2023.1.3,MacIntel,59.88023952,,,,,,,,,,,,,,,,,,,,,,,,,,,210,,,,,,,,,,,,,,,,,,,,,2,5,,,345.3622,2,left,0.5095,,0.5,0.3,"[1,2,3]",0.406133981,stimuli/card_100_transparent.png,100,2,0,2,0,1,,,,,,,,,,
,,,,615085e1473e6bb28212e205,B,2024-06-23_10h58.56.891,Slot Machine Game,2023.1.3,MacIntel,59.88023952,,,,,,,,,,,,,,,,,,,,,,,,,,,310,,,,,,,,,,,,,,,,,,,,,2,5,,,347.1844,3,left,0.609,,1,0.3,"[1,2,3]",0.984352466,stimuli/card_100_transparent.png,100,3,0,3,0,1,,,,,,,,,,
,,,,615085e1473e6bb28212e205,B,2024-06-23_10h58.56.891,Slot Machine Game,2023.1.3,MacIntel,59.88023952,,,,,,,,,,,,,,,,,,,,,,,,,,,410,,,,,,,,,,,,,,,,,,,,,2,5,,,349.6074,4,left,0.0775,,1,0.3,"[1,2,3]",0.378333302,stimuli/card_100_transparent.png,100,4,0,4,0,1,,,,,,,,,,
,,,,615085e1473e6bb28212e205,B,2024-06-23_10h58.56.891,Slot Machine Game,2023.1.3,MacIntel,59.88023952,,,,,,,,,,,,,,,,,,,,,,,,,,,410,,,,,,,,,,,,,,,,,,,,,2,5,,,351.4961,5,left,0.1247,,0.5,0.3,"[3,1,2]",0.989070494,stimuli/card_0_transparent.png,0,5,0,5,0,1,,,,,,,,,,
,,,,615085e1473e6bb28212e205,B,2024-06-23_10h58.56.891,Slot Machine Game,2023.1.3,MacIntel,59.88023952,,,,,,,,,,,,,,,,,,,,,,,,,,,410,,,,,,,,,,,,,,,,,,,,,2,5,,,352.9333,6,left,0.3761,,1,0.3,"[3,1,2]",0.333407062,stimuli/card_0_transparent.png,0,6,0,6,0,1,,,,,,,,,,
,,,,615085e1473e6bb28212e205,B,2024-06-23_10h58.56.891,Slot Machine Game,2023.1.3,MacIntel,59.88023952,,,,,,,,,,,,,,,,,,,,,,,,,,,420,,,,,,,,,,,,,,,,,,,,,2,5,,,355.1222,7,right,0.2012,,1,0.3,"[3,1,2]",0.236771726,stimuli/card_10_transparent.png,10,7,0,7,0,1,,,,,,,,,,
,,,,615085e1473e6bb28212e205,B,2024-06-23_10h58.56.891,Slot Machine Game,2023.1.3,MacIntel,59.88023952,,,,,,,,,,,,,,,,,,,,,,,,,,,420,,,,,,,,,,,,,,,,,,,,,2,5,,,357.1447,8,left,0.0875,,0.5,0.3,"[3,1,2]",0.644649948,stimuli/card_0_transparent.png,0,8,0,8,0,1,,,,,,,,,,
,,,,615085e1473e6bb28212e205,B,2024-06-23_10h58.56.891,Slot Machine Game,2023.1.3,MacIntel,59.88023952,,,,,,,,,,,,,,,,,,,,,,,,,,,520,,,,,,,,,,,,,,,,,,,,,2,5,,,358.5471,9,up,0.1348,,1.5,0.3,"[3,1,2]",0.368741524,stimuli/card_100_transparent.png,100,9,0,9,0,1,,,,,,,,,,
,,,,615085e1473e6bb28212e205,B,2024-06-23_10h58.56.891,Slot Machine Game,2023.1.3,MacIntel,59.88023952,,,,,,,,,,,,,,,,,,,,,,,,,,,620,,,,,,,,,,,,,,,,,,,,,2,5,,,361.006,10,up,0.1525,,0.5,0.3,"[3,1,2]",0.23131706,stimuli/card_100_transparent.png,100,10,0,10,0,1,,,,,,,,,,
,,,,615085e1473e6bb28212e205,B,2024-06-23_10h58.56.891,Slot Machine Game,2023.1.3,MacIntel,59.88023952,,,,,,,,,,,,,,,,,,,,,,,,,,,720,,,,,,,,,,,,,,,,,,,,,2,5,,,362.5025,11,up,0.1753,,1.5,0.3,"[3,1,2]",0.419051736,stimuli/card_100_transparent.png,100,11,0,11,0,1,,,,,,,,,,
,,,,615085e1473e6bb28212e205,B,2024-06-23_10h58.56.891,Slot Machine Game,2023.1.3,MacIntel,59.88023952,,,,,,,,,,,,,,,,,,,,,,,,,,,820,,,,,,,,,,,,,,,,,,,,,2,5,,,364.9987,12,up,0.3676,,1.5,0.3,"[3,1,2]",0.306553551,stimuli/card_100_transparent.png,100,12,0,12,0,1,,,,,,,,,,
,,,,615085e1473e6bb28212e205,B,2024-06-23_10h58.56.891,Slot Machine Game,2023.1.3,MacIntel,59.88023952,,,,,,,,,,,,,,,,,,,,,,,,,,,920,,,,,,,,,,,,,,,,,,,,,2,5,,,367.6889,13,up,4.4127,,0.5,0.3,"[3,1,2]",0.736151324,stimuli/card_100_transparent.png,100,13,0,13,0,1,,,,,,,,,,
,,,,615085e1473e6bb28212e205,B,2024-06-23_10h58.56.891,Slot Machine Game,2023.1.3,MacIntel,59.88023952,,,,,,,,,,,,,,,,,,,,,,,,,,,1020,,,,,,,,,,,,,,,,,,,,,2,5,,,373.4203,14,up,1.607,,1,0.3,"[3,1,2]",0.83030736,stimuli/card_100_transparent.png,100,14,0,14,0,1,,,,,,,,,,
,,,,615085e1473e6bb28212e205,B,2024-06-23_10h58.56.891,Slot Machine Game,2023.1.3,MacIntel,59.88023952,,,,,,,,,,,,,,,,,,,,,,,,,,,,,,,,,,,376.847,,,,,,,,,,,,,,,,,,,,,,,,,,,,,,,,,"[950,1020]",1,0,1,0,1,,,,
,,,,615085e1473e6bb28212e205,B,2024-06-23_10h58.56.891,Slot Machine Game,2023.1.3,MacIntel,59.88023952,,,,,,,,,,,,,,,,,,,,,,,,,,,100,,,,,,,,,,,,,,,,,,,,,3,9,"[8,15]","[[3,2,1],[3,1,2]]",381.8588,0,right,2.091,,1,0.3,"[3,2,1]",0.230822143,stimuli/card_100_transparent.png,100,0,0,0,0,1,,,,,,,,,,
,,,,615085e1473e6bb28212e205,B,2024-06-23_10h58.56.891,Slot Machine Game,2023.1.3,MacIntel,59.88023952,,,,,,,,,,,,,,,,,,,,,,,,,,,200,,,,,,,,,,,,,,,,,,,,,3,9,,,385.7708,1,right,0.407,,1,0.3,"[3,2,1]",0.847235471,stimuli/card_100_transparent.png,100,1,0,1,0,1,,,,,,,,,,
,,,,615085e1473e6bb28212e205,B,2024-06-23_10h58.56.891,Slot Machine Game,2023.1.3,MacIntel,59.88023952,,,,,,,,,,,,,,,,,,,,,,,,,,,300,,,,,,,,,,,,,,,,,,,,,3,9,,,387.9866,2,right,0.0854,,1.5,0.3,"[3,2,1]",0.229223018,stimuli/card_100_transparent.png,100,2,0,2,0,1,,,,,,,,,,
,,,,615085e1473e6bb28212e205,B,2024-06-23_10h58.56.891,Slot Machine Game,2023.1.3,MacIntel,59.88023952,,,,,,,,,,,,,,,,,,,,,,,,,,,400,,,,,,,,,,,,,,,,,,,,,3,9,,,390.3992,3,right,0.3937,,1,0.3,"[3,2,1]",0.345971166,stimuli/card_100_transparent.png,100,3,0,3,0,1,,,,,,,,,,
,,,,615085e1473e6bb28212e205,B,2024-06-23_10h58.56.891,Slot Machine Game,2023.1.3,MacIntel,59.88023952,,,,,,,,,,,,,,,,,,,,,,,,,,,500,,,,,,,,,,,,,,,,,,,,,3,9,,,392.6049,4,right,0.6581,,1,0.3,"[3,2,1]",0.923588766,stimuli/card_100_transparent.png,100,4,0,4,0,1,,,,,,,,,,
,,,,615085e1473e6bb28212e205,B,2024-06-23_10h58.56.891,Slot Machine Game,2023.1.3,MacIntel,59.88023952,,,,,,,,,,,,,,,,,,,,,,,,,,,600,,,,,,,,,,,,,,,,,,,,,3,9,,,395.0789,5,right,0.3072,,0.5,0.3,"[3,2,1]",0.699663081,stimuli/card_100_transparent.png,100,5,0,5,0,1,,,,,,,,,,
,,,,615085e1473e6bb28212e205,B,2024-06-23_10h58.56.891,Slot Machine Game,2023.1.3,MacIntel,59.88023952,,,,,,,,,,,,,,,,,,,,,,,,,,,700,,,,,,,,,,,,,,,,,,,,,3,9,,,396.6999,6,right,0.375,,1,0.3,"[3,2,1]",0.987388466,stimuli/card_100_transparent.png,100,6,0,6,0,1,,,,,,,,,,
,,,,615085e1473e6bb28212e205,B,2024-06-23_10h58.56.891,Slot Machine Game,2023.1.3,MacIntel,59.88023952,,,,,,,,,,,,,,,,,,,,,,,,,,,800,,,,,,,,,,,,,,,,,,,,,3,9,,,398.8888,7,right,0.0521,,1.5,0.3,"[3,2,1]",0.220322741,stimuli/card_100_transparent.png,100,7,0,7,0,1,,,,,,,,,,
,,,,615085e1473e6bb28212e205,B,2024-06-23_10h58.56.891,Slot Machine Game,2023.1.3,MacIntel,59.88023952,,,,,,,,,,,,,,,,,,,,,,,,,,,810,,,,,,,,,,,,,,,,,,,,,3,9,,,401.262,8,right,0.0168,,1.5,0.3,"[3,1,2]",0.559081484,stimuli/card_10_transparent.png,10,8,0,8,0,1,,,,,,,,,,
,,,,615085e1473e6bb28212e205,B,2024-06-23_10h58.56.891,Slot Machine Game,2023.1.3,MacIntel,59.88023952,,,,,,,,,,,,,,,,,,,,,,,,,,,820,,,,,,,,,,,,,,,,,,,,,3,9,,,403.6016,9,right,0.3,,1,0.3,"[3,1,2]",0.224760626,stimuli/card_10_transparent.png,10,9,0,9,0,1,,,,,,,,,,
,,,,615085e1473e6bb28212e205,B,2024-06-23_10h58.56.891,Slot Machine Game,2023.1.3,MacIntel,59.88023952,,,,,,,,,,,,,,,,,,,,,,,,,,,830,,,,,,,,,,,,,,,,,,,,,3,9,,,405.7241,10,right,0.0394,,1,0.3,"[3,1,2]",0.47704091,stimuli/card_10_transparent.png,10,10,0,10,0,1,,,,,,,,,,
,,,,615085e1473e6bb28212e205,B,2024-06-23_10h58.56.891,Slot Machine Game,2023.1.3,MacIntel,59.88023952,,,,,,,,,,,,,,,,,,,,,,,,,,,930,,,,,,,,,,,,,,,,,,,,,3,9,,,407.5788,11,right,2.4079,,1.5,0.3,"[3,1,2]",0.126996705,stimuli/card_100_transparent.png,100,11,0,11,0,1,,,,,,,,,,
,,,,615085e1473e6bb28212e205,B,2024-06-23_10h58.56.891,Slot Machine Game,2023.1.3,MacIntel,59.88023952,,,,,,,,,,,,,,,,,,,,,,,,,,,940,,,,,,,,,,,,,,,,,,,,,3,9,,,412.2916,12,right,0.2231,,1.5,0.3,"[3,1,2]",0.633911884,stimuli/card_10_transparent.png,10,12,0,12,0,1,,,,,,,,,,
,,,,615085e1473e6bb28212e205,B,2024-06-23_10h58.56.891,Slot Machine Game,2023.1.3,MacIntel,59.88023952,,,,,,,,,,,,,,,,,,,,,,,,,,,950,,,,,,,,,,,,,,,,,,,,,3,9,,,414.8317,13,right,0.344,,0.5,0.3,"[3,1,2]",0.266180352,stimuli/card_10_transparent.png,10,13,0,13,0,1,,,,,,,,,,
,,,,615085e1473e6bb28212e205,B,2024-06-23_10h58.56.891,Slot Machine Game,2023.1.3,MacIntel,59.88023952,,,,,,,,,,,,,,,,,,,,,,,,,,,950,,,,,,,,,,,,,,,,,,,,,3,9,,,416.4862,14,right,1.6881,,1,0.3,"[3,1,2]",0.099428273,stimuli/card_0_transparent.png,0,14,0,14,0,1,,,,,,,,,,
,,,,615085e1473e6bb28212e205,B,2024-06-23_10h58.56.891,Slot Machine Game,2023.1.3,MacIntel,59.88023952,,,,,,,,,,,,,,,,,,,,,,,,,,,,,,,,,,,419.9959,,,,,,,,,,,,,,,,,,,,,,,,,,,,,,,,,"[950,1020,950]",2,0,2,0,1,,,,
,,,,615085e1473e6bb28212e205,B,2024-06-23_10h58.56.891,Slot Machine Game,2023.1.3,MacIntel,59.88023952,,,,,,,,,,,,,,,,,,,,,,,,,,,10,,,,,,,,,,,,,,,,,,,,,4,1,"[12,15]","[[2,1,3],[2,3,1]]",425.0071,0,left,1.6956,,0.5,0.3,"[2,1,3]",0.284308112,stimuli/card_10_transparent.png,10,0,0,0,0,1,,,,,,,,,,
,,,,615085e1473e6bb28212e205,B,2024-06-23_10h58.56.891,Slot Machine Game,2023.1.3,MacIntel,59.88023952,,,,,,,,,,,,,,,,,,,,,,,,,,,20,,,,,,,,,,,,,,,,,,,,,4,1,,,428.0171,1,left,0.6898,,0.5,0.3,"[2,1,3]",0.972637489,stimuli/card_10_transparent.png,10,1,0,1,0,1,,,,,,,,,,
,,,,615085e1473e6bb28212e205,B,2024-06-23_10h58.56.891,Slot Machine Game,2023.1.3,MacIntel,59.88023952,,,,,,,,,,,,,,,,,,,,,,,,,,,30,,,,,,,,,,,,,,,,,,,,,4,1,,,430.0222,2,up,3.0083,,1.5,0.3,"[2,1,3]",0.14700222,stimuli/card_10_transparent.png,10,2,0,2,0,1,,,,,,,,,,
,,,,615085e1473e6bb28212e205,B,2024-06-23_10h58.56.891,Slot Machine Game,2023.1.3,MacIntel,59.88023952,,,,,,,,,,,,,,,,,,,,,,,,,,,130,,,,,,,,,,,,,,,,,,,,,4,1,,,435.3356,3,right,0.787,,1,0.3,"[2,1,3]",0.039432677,stimuli/card_100_transparent.png,100,3,0,3,0,1,,,,,,,,,,
,,,,615085e1473e6bb28212e205,B,2024-06-23_10h58.56.891,Slot Machine Game,2023.1.3,MacIntel,59.88023952,,,,,,,,,,,,,,,,,,,,,,,,,,,230,,,,,,,,,,,,,,,,,,,,,4,1,,,437.9434,4,right,3.4172,,0.5,0.3,"[2,1,3]",0.014186768,stimuli/card_100_transparent.png,100,4,0,4,0,1,,,,,,,,,,
,,,,615085e1473e6bb28212e205,B,2024-06-23_10h58.56.891,Slot Machine Game,2023.1.3,MacIntel,59.88023952,,,,,,,,,,,,,,,,,,,,,,,,,,,230,,,,,,,,,,,,,,,,,,,,,4,1,,,442.6729,5,right,1.3596,,1,0.3,"[2,1,3]",0.509359704,stimuli/card_0_transparent.png,0,5,0,5,0,1,,,,,,,,,,
,,,,615085e1473e6bb28212e205,B,2024-06-23_10h58.56.891,Slot Machine Game,2023.1.3,MacIntel,59.88023952,,,,,,,,,,,,,,,,,,,,,,,,,,,240,,,,,,,,,,,,,,,,,,,,,4,1,,,445.8477,6,right,0.5196,,1,0.3,"[2,1,3]",0.116322523,stimuli/card_10_transparent.png,10,6,0,6,0,1,,,,,,,,,,
,,,,615085e1473e6bb28212e205,B,2024-06-23_10h58.56.891,Slot Machine Game,2023.1.3,MacIntel,59.88023952,,,,,,,,,,,,,,,,,,,,,,,,,,,240,,,,,,,,,,,,,,,,,,,,,4,1,,,448.1877,7,right,0.3583,,1.5,0.3,"[2,1,3]",0.515788848,stimuli/card_0_transparent.png,0,7,0,7,0,1,,,,,,,,,,
,,,,615085e1473e6bb28212e205,B,2024-06-23_10h58.56.891,Slot Machine Game,2023.1.3,MacIntel,59.88023952,,,,,,,,,,,,,,,,,,,,,,,,,,,340,,,,,,,,,,,,,,,,,,,,,4,1,,,450.8447,8,up,0.6948,,0.5,0.3,"[2,1,3]",0.687230244,stimuli/card_100_transparent.png,100,8,0,8,0,1,,,,,,,,,,
,,,,615085e1473e6bb28212e205,B,2024-06-23_10h58.56.891,Slot Machine Game,2023.1.3,MacIntel,59.88023952,,,,,,,,,,,,,,,,,,,,,,,,,,,440,,,,,,,,,,,,,,,,,,,,,4,1,,,452.8488,9,up,0.1746,,1.5,0.3,"[2,1,3]",0.947440969,stimuli/card_100_transparent.png,100,9,0,9,0,1,,,,,,,,,,
,,,,615085e1473e6bb28212e205,B,2024-06-23_10h58.56.891,Slot Machine Game,2023.1.3,MacIntel,59.88023952,,,,,,,,,,,,,,,,,,,,,,,,,,,540,,,,,,,,,,,,,,,,,,,,,4,1,,,455.3394,10,up,0.2247,,1.5,0.3,"[2,1,3]",0.258099212,stimuli/card_100_transparent.png,100,10,0,10,0,1,,,,,,,,,,
,,,,615085e1473e6bb28212e205,B,2024-06-23_10h58.56.891,Slot Machine Game,2023.1.3,MacIntel,59.88023952,,,,,,,,,,,,,,,,,,,,,,,,,,,640,,,,,,,,,,,,,,,,,,,,,4,1,,,457.8808,11,up,0.3007,,1.5,0.3,"[2,1,3]",0.263398619,stimuli/card_100_transparent.png,100,11,0,11,0,1,,,,,,,,,,
,,,,615085e1473e6bb28212e205,B,2024-06-23_10h58.56.891,Slot Machine Game,2023.1.3,MacIntel,59.88023952,,,,,,,,,,,,,,,,,,,,,,,,,,,640,,,,,,,,,,,,,,,,,,,,,4,1,,,460.4869,12,up,0.1243,,0.5,0.3,"[2,3,1]",0.58935248,stimuli/card_0_transparent.png,0,12,0,12,0,1,,,,,,,,,,
,,,,615085e1473e6bb28212e205,B,2024-06-23_10h58.56.891,Slot Machine Game,2023.1.3,MacIntel,59.88023952,,,,,,,,,,,,,,,,,,,,,,,,,,,640,,,,,,,,,,,,,,,,,,,,,4,1,,,461.9241,13,up,0.6046,,0.5,0.3,"[2,3,1]",0.520150566,stimuli/card_0_transparent.png,0,13,0,13,0,1,,,,,,,,,,
,,,,615085e1473e6bb28212e205,B,2024-06-23_10h58.56.891,Slot Machine Game,2023.1.3,MacIntel,59.88023952,,,,,,,,,,,,,,,,,,,,,,,,,,,740,,,,,,,,,,,,,,,,,,,,,4,1,,,463.8459,14,up,0.3092,,0.5,0.3,"[2,3,1]",0.066450895,stimuli/card_100_transparent.png,100,14,0,14,0,1,,,,,,,,,,
,,,,615085e1473e6bb28212e205,B,2024-06-23_10h58.56.891,Slot Machine Game,2023.1.3,MacIntel,59.88023952,,,,,,,,,,,,,,,,,,,,,,,,,,,,,,,,,,,465.4669,,,,,,,,,,,,,,,,,,,,,,,,,,,,,,,,,"[950,1020,950,740]",3,0,3,0,1,,,,
,,,,615085e1473e6bb28212e205,B,2024-06-23_10h58.56.891,Slot Machine Game,2023.1.3,MacIntel,59.88023952,,,,,,,,,,,,,,,,,,,,,,,,,,,10,,,,,,,,,,,,,,,,,,,,,5,2,"[6,15]","[[1,3,2],[3,2,1]]",470.4799,0,right,1.1443,,1.5,0.3,"[1,3,2]",0.79773407,stimuli/card_10_transparent.png,10,0,0,0,0,1,,,,,,,,,,
,,,,615085e1473e6bb28212e205,B,2024-06-23_10h58.56.891,Slot Machine Game,2023.1.3,MacIntel,59.88023952,,,,,,,,,,,,,,,,,,,,,,,,,,,10,,,,,,,,,,,,,,,,,,,,,5,2,,,473.9385,1,up,0.7881,,1,0.3,"[1,3,2]",0.54978075,stimuli/card_0_transparent.png,0,1,0,1,0,1,,,,,,,,,,
,,,,615085e1473e6bb28212e205,B,2024-06-23_10h58.56.891,Slot Machine Game,2023.1.3,MacIntel,59.88023952,,,,,,,,,,,,,,,,,,,,,,,,,,,110,,,,,,,,,,,,,,,,,,,,,5,2,,,476.5466,2,left,0.5219,,0.5,0.3,"[1,3,2]",0.539747598,stimuli/card_100_transparent.png,100,2,0,2,0,1,,,,,,,,,,
,,,,615085e1473e6bb28212e205,B,2024-06-23_10h58.56.891,Slot Machine Game,2023.1.3,MacIntel,59.88023952,,,,,,,,,,,,,,,,,,,,,,,,,,,210,,,,,,,,,,,,,,,,,,,,,5,2,,,478.3847,3,left,0.0901,,1.5,0.3,"[1,3,2]",0.471858266,stimuli/card_100_transparent.png,100,3,0,3,0,1,,,,,,,,,,
,,,,615085e1473e6bb28212e205,B,2024-06-23_10h58.56.891,Slot Machine Game,2023.1.3,MacIntel,59.88023952,,,,,,,,,,,,,,,,,,,,,,,,,,,310,,,,,,,,,,,,,,,,,,,,,5,2,,,480.7747,4,left,0.2075,,1.5,0.3,"[1,3,2]",0.434414115,stimuli/card_100_transparent.png,100,4,0,4,0,1,,,,,,,,,,
,,,,615085e1473e6bb28212e205,B,2024-06-23_10h58.56.891,Slot Machine Game,2023.1.3,MacIntel,59.88023952,,,,,,,,,,,,,,,,,,,,,,,,,,,310,,,,,,,,,,,,,,,,,,,,,5,2,,,483.2814,5,left,0.0388,,1.5,0.3,"[1,3,2]",0.087204579,stimuli/card_0_transparent.png,0,5,0,5,0,1,,,,,,,,,,
,,,,615085e1473e6bb28212e205,B,2024-06-23_10h58.56.891,Slot Machine Game,2023.1.3,MacIntel,59.88023952,,,,,,,,,,,,,,,,,,,,,,,,,,,310,,,,,,,,,,,,,,,,,,,,,5,2,,,485.6199,6,left,0.1775,,0.5,0.3,"[3,2,1]",0.471792256,stimuli/card_0_transparent.png,0,6,0,6,0,1,,,,,,,,,,
,,,,615085e1473e6bb28212e205,B,2024-06-23_10h58.56.891,Slot Machine Game,2023.1.3,MacIntel,59.88023952,,,,,,,,,,,,,,,,,,,,,,,,,,,310,,,,,,,,,,,,,,,,,,,,,5,2,,,487.0909,7,left,0.4602,,1.5,0.3,"[3,2,1]",0.524470817,stimuli/card_0_transparent.png,0,7,0,7,0,1,,,,,,,,,,
,,,,615085e1473e6bb28212e205,B,2024-06-23_10h58.56.891,Slot Machine Game,2023.1.3,MacIntel,59.88023952,,,,,,,,,,,,,,,,,,,,,,,,,,,410,,,,,,,,,,,,,,,,,,,,,5,2,,,489.8489,8,right,3.0176,,0.5,0.3,"[3,2,1]",0.49922118,stimuli/card_100_transparent.png,100,8,0,8,0,1,,,,,,,,,,
,,,,615085e1473e6bb28212e205,B,2024-06-23_10h58.56.891,Slot Machine Game,2023.1.3,MacIntel,59.88023952,,,,,,,,,,,,,,,,,,,,,,,,,,,510,,,,,,,,,,,,,,,,,,,,,5,2,,,494.177,9,right,0.0395,,1,0.3,"[3,2,1]",0.26365049,stimuli/card_100_transparent.png,100,9,0,9,0,1,,,,,,,,,,
,,,,615085e1473e6bb28212e205,B,2024-06-23_10h58.56.891,Slot Machine Game,2023.1.3,MacIntel,59.88023952,,,,,,,,,,,,,,,,,,,,,,,,,,,610,,,,,,,,,,,,,,,,,,,,,5,2,,,496.0308,10,right,0.2668,,1.5,0.3,"[3,2,1]",0.346641759,stimuli/card_100_transparent.png,100,10,0,10,0,1,,,,,,,,,,
,,,,615085e1473e6bb28212e205,B,2024-06-23_10h58.56.891,Slot Machine Game,2023.1.3,MacIntel,59.88023952,,,,,,,,,,,,,,,,,,,,,,,,,,,620,,,,,,,,,,,,,,,,,,,,,5,2,,,498.6211,11,right,0.0681,,1.5,0.3,"[3,2,1]",0.153090911,stimuli/card_10_transparent.png,10,11,0,11,0,1,,,,,,,,,,
,,,,615085e1473e6bb28212e205,B,2024-06-23_10h58.56.891,Slot Machine Game,2023.1.3,MacIntel,59.88023952,,,,,,,,,,,,,,,,,,,,,,,,,,,720,,,,,,,,,,,,,,,,,,,,,5,2,,,501.012,12,right,0.1932,,1.5,0.3,"[3,2,1]",0.766268163,stimuli/card_100_transparent.png,100,12,0,12,0,1,,,,,,,,,,
,,,,615085e1473e6bb28212e205,B,2024-06-23_10h58.56.891,Slot Machine Game,2023.1.3,MacIntel,59.88023952,,,,,,,,,,,,,,,,,,,,,,,,,,,730,,,,,,,,,,,,,,,,,,,,,5,2,,,503.5184,13,right,0.2742,,1.5,0.3,"[3,2,1]",0.100286378,stimuli/card_10_transparent.png,10,13,0,13,0,1,,,,,,,,,,
,,,,615085e1473e6bb28212e205,B,2024-06-23_10h58.56.891,Slot Machine Game,2023.1.3,MacIntel,59.88023952,,,,,,,,,,,,,,,,,,,,,,,,,,,830,,,,,,,,,,,,,,,,,,,,,5,2,,,506.1089,14,right,0.0893,,1,0.3,"[3,2,1]",0.580442416,stimuli/card_100_transparent.png,100,14,0,14,0,1,,,,,,,,,,
,,,,615085e1473e6bb28212e205,B,2024-06-23_10h58.56.891,Slot Machine Game,2023.1.3,MacIntel,59.88023952,,,,,,,,,,,,,,,,,,,,,,,,,,,,,,,,,,,508.0133,,,,,,,,,,,,,,,,,,,,,,,,,,,,,,,,,"[950,1020,950,740,830]",4,0,4,0,1,,,,
,,,,615085e1473e6bb28212e205,B,2024-06-23_10h58.56.891,Slot Machine Game,2023.1.3,MacIntel,59.88023952,,,,,,,,,,,,,,,,,,,,,,,,,,,10,,,,,,,,,,,,,,,,,,,,,6,4,"[7,15]","[[2,3,1],[1,2,3]]",513.0252,0,left,1.8893,,0.5,0.3,"[2,3,1]",0.238208371,stimuli/card_10_transparent.png,10,0,0,0,0,1,,,,,,,,,,
,,,,615085e1473e6bb28212e205,B,2024-06-23_10h58.56.891,Slot Machine Game,2023.1.3,MacIntel,59.88023952,,,,,,,,,,,,,,,,,,,,,,,,,,,10,,,,,,,,,,,,,,,,,,,,,6,4,,,516.2356,1,up,1.1686,,0.5,0.3,"[2,3,1]",0.641559343,stimuli/card_0_transparent.png,0,1,0,1,0,1,,,,,,,,,,
,,,,615085e1473e6bb28212e205,B,2024-06-23_10h58.56.891,Slot Machine Game,2023.1.3,MacIntel,59.88023952,,,,,,,,,,,,,,,,,,,,,,,,,,,110,,,,,,,,,,,,,,,,,,,,,6,4,,,518.7258,2,right,0.4358,,0.5,0.3,"[2,3,1]",0.412948314,stimuli/card_100_transparent.png,100,2,0,2,0,1,,,,,,,,,,
,,,,615085e1473e6bb28212e205,B,2024-06-23_10h58.56.891,Slot Machine Game,2023.1.3,MacIntel,59.88023952,,,,,,,,,,,,,,,,,,,,,,,,,,,210,,,,,,,,,,,,,,,,,,,,,6,4,,,520.4805,3,right,0.0553,,0.5,0.3,"[2,3,1]",0.869186952,stimuli/card_100_transparent.png,100,3,0,3,0,1,,,,,,,,,,
,,,,615085e1473e6bb28212e205,B,2024-06-23_10h58.56.891,Slot Machine Game,2023.1.3,MacIntel,59.88023952,,,,,,,,,,,,,,,,,,,,,,,,,,,310,,,,,,,,,,,,,,,,,,,,,6,4,,,521.8509,4,right,0.1412,,0.5,0.3,"[2,3,1]",0.331296265,stimuli/card_100_transparent.png,100,4,0,4,0,1,,,,,,,,,,
,,,,615085e1473e6bb28212e205,B,2024-06-23_10h58.56.891,Slot Machine Game,2023.1.3,MacIntel,59.88023952,,,,,,,,,,,,,,,,,,,,,,,,,,,410,,,,,,,,,,,,,,,,,,,,,6,4,,,523.3042,5,right,0.1849,,0.5,0.3,"[2,3,1]",0.667203404,stimuli/card_100_transparent.png,100,5,0,5,0,1,,,,,,,,,,
,,,,615085e1473e6bb28212e205,B,2024-06-23_10h58.56.891,Slot Machine Game,2023.1.3,MacIntel,59.88023952,,,,,,,,,,,,,,,,,,,,,,,,,,,510,,,,,,,,,,,,,,,,,,,,,6,4,,,524.8075,6,right,0.0606,,1.5,0.3,"[2,3,1]",0.280183679,stimuli/card_100_transparent.png,100,6,0,6,0,1,,,,,,,,,,
,,,,615085e1473e6bb28212e205,B,2024-06-23_10h58.56.891,Slot Machine Game,2023.1.3,MacIntel,59.88023952,,,,,,,,,,,,,,,,,,,,,,,,,,,510,,,,,,,,,,,,,,,,,,,,,6,4,,,527.1817,7,right,0.0911,,0.5,0.3,"[1,2,3]",0.657973843,stimuli/card_0_transparent.png,0,7,0,7,0,1,,,,,,,,,,
,,,,615085e1473e6bb28212e205,B,2024-06-23_10h58.56.891,Slot Machine Game,2023.1.3,MacIntel,59.88023952,,,,,,,,,,,,,,,,,,,,,,,,,,,520,,,,,,,,,,,,,,,,,,,,,6,4,,,528.5856,8,right,2.9111,,1.5,0.3,"[1,2,3]",0.131920252,stimuli/card_10_transparent.png,10,8,0,8,0,1,,,,,,,,,,
,,,,615085e1473e6bb28212e205,B,2024-06-23_10h58.56.891,Slot Machine Game,2023.1.3,MacIntel,59.88023952,,,,,,,,,,,,,,,,,,,,,,,,,,,620,,,,,,,,,,,,,,,,,,,,,6,4,,,533.8328,9,right,0.8723,,0.5,0.3,"[1,2,3]",0.064913644,stimuli/card_100_transparent.png,100,9,0,9,0,1,,,,,,,,,,
,,,,615085e1473e6bb28212e205,B,2024-06-23_10h58.56.891,Slot Machine Game,2023.1.3,MacIntel,59.88023952,,,,,,,,,,,,,,,,,,,,,,,,,,,720,,,,,,,,,,,,,,,,,,,,,6,4,,,536.0214,10,right,0.5055,,0.5,0.3,"[1,2,3]",0.096175919,stimuli/card_100_transparent.png,100,10,0,10,0,1,,,,,,,,,,
,,,,615085e1473e6bb28212e205,B,2024-06-23_10h58.56.891,Slot Machine Game,2023.1.3,MacIntel,59.88023952,,,,,,,,,,,,,,,,,,,,,,,,,,,720,,,,,,,,,,,,,,,,,,,,,6,4,,,537.8433,11,right,0.1766,,1,0.3,"[1,2,3]",0.841779282,stimuli/card_0_transparent.png,0,11,0,11,0,1,,,,,,,,,,
,,,,615085e1473e6bb28212e205,B,2024-06-23_10h58.56.891,Slot Machine Game,2023.1.3,MacIntel,59.88023952,,,,,,,,,,,,,,,,,,,,,,,,,,,720,,,,,,,,,,,,,,,,,,,,,6,4,,,539.8321,12,right,0.0367,,0.5,0.3,"[1,2,3]",0.897844372,stimuli/card_0_transparent.png,0,12,0,12,0,1,,,,,,,,,,
,,,,615085e1473e6bb28212e205,B,2024-06-23_10h58.56.891,Slot Machine Game,2023.1.3,MacIntel,59.88023952,,,,,,,,,,,,,,,,,,,,,,,,,,,720,,,,,,,,,,,,,,,,,,,,,6,4,,,541.1846,13,right,1.2777,,1.5,0.3,"[1,2,3]",0.973410806,stimuli/card_0_transparent.png,0,13,0,13,0,1,,,,,,,,,,
,,,,615085e1473e6bb28212e205,B,2024-06-23_10h58.56.891,Slot Machine Game,2023.1.3,MacIntel,59.88023952,,,,,,,,,,,,,,,,,,,,,,,,,,,730,,,,,,,,,,,,,,,,,,,,,6,4,,,544.7622,14,left,0.4407,,1,0.3,"[1,2,3]",0.113095471,stimuli/card_10_transparent.png,10,14,0,14,0,1,,,,,,,,,,
,,,,615085e1473e6bb28212e205,B,2024-06-23_10h58.56.891,Slot Machine Game,2023.1.3,MacIntel,59.88023952,,,,,,,,,,,,,,,,,,,,,,,,,,,,,,,,,,,547.0176,,,,,,,,,,,,,,,,,,,,,,,,,,,,,,,,,"[950,1020,950,740,830,730]",5,0,5,0,1,,,,
,,,,615085e1473e6bb28212e205,B,2024-06-23_10h58.56.891,Slot Machine Game,2023.1.3,MacIntel,59.88023952,,,,,,,,,,,,,,,,,,,,,,,,,,,0,,,,,,,,,,,,,,,,,,,,,7,10,"[10,15]","[[3,1,2],[1,3,2]]",552.0309,0,left,1.6377,,1,0.3,"[3,1,2]",0.745347757,stimuli/card_0_transparent.png,0,0,0,0,0,1,,,,,,,,,,
,,,,615085e1473e6bb28212e205,B,2024-06-23_10h58.56.891,Slot Machine Game,2023.1.3,MacIntel,59.88023952,,,,,,,,,,,,,,,,,,,,,,,,,,,100,,,,,,,,,,,,,,,,,,,,,7,10,,,555.4907,1,up,0.0169,,1,0.3,"[3,1,2]",0.551676579,stimuli/card_100_transparent.png,100,1,0,1,0,1,,,,,,,,,,
,,,,615085e1473e6bb28212e205,B,2024-06-23_10h58.56.891,Slot Machine Game,2023.1.3,MacIntel,59.88023952,,,,,,,,,,,,,,,,,,,,,,,,,,,200,,,,,,,,,,,,,,,,,,,,,7,10,,,557.3286,2,up,0.1337,,1,0.3,"[3,1,2]",0.47611098,stimuli/card_100_transparent.png,100,2,0,2,0,1,,,,,,,,,,
,,,,615085e1473e6bb28212e205,B,2024-06-23_10h58.56.891,Slot Machine Game,2023.1.3,MacIntel,59.88023952,,,,,,,,,,,,,,,,,,,,,,,,,,,300,,,,,,,,,,,,,,,,,,,,,7,10,,,559.2835,3,up,0.0663,,1.5,0.3,"[3,1,2]",0.636301773,stimuli/card_100_transparent.png,100,3,0,3,0,1,,,,,,,,,,
,,,,615085e1473e6bb28212e205,B,2024-06-23_10h58.56.891,Slot Machine Game,2023.1.3,MacIntel,59.88023952,,,,,,,,,,,,,,,,,,,,,,,,,,,300,,,,,,,,,,,,,,,,,,,,,7,10,,,561.6566,4,up,0.5343,,0.5,0.3,"[3,1,2]",0.047814804,stimuli/card_0_transparent.png,0,4,0,4,0,1,,,,,,,,,,
,,,,615085e1473e6bb28212e205,B,2024-06-23_10h58.56.891,Slot Machine Game,2023.1.3,MacIntel,59.88023952,,,,,,,,,,,,,,,,,,,,,,,,,,,310,,,,,,,,,,,,,,,,,,,,,7,10,,,563.5122,5,up,0.2395,,0.5,0.3,"[3,1,2]",0.167995578,stimuli/card_10_transparent.png,10,5,0,5,0,1,,,,,,,,,,
,,,,615085e1473e6bb28212e205,B,2024-06-23_10h58.56.891,Slot Machine Game,2023.1.3,MacIntel,59.88023952,,,,,,,,,,,,,,,,,,,,,,,,,,,410,,,,,,,,,,,,,,,,,,,,,7,10,,,565.0653,6,up,0.0014,,0.5,0.3,"[3,1,2]",0.694522717,stimuli/card_100_transparent.png,100,6,0,6,0,1,,,,,,,,,,
,,,,615085e1473e6bb28212e205,B,2024-06-23_10h58.56.891,Slot Machine Game,2023.1.3,MacIntel,59.88023952,,,,,,,,,,,,,,,,,,,,,,,,,,,420,,,,,,,,,,,,,,,,,,,,,7,10,,,566.3866,7,up,0.4709,,1,0.3,"[3,1,2]",0.104935481,stimuli/card_10_transparent.png,10,7,0,7,0,1,,,,,,,,,,
,,,,615085e1473e6bb28212e205,B,2024-06-23_10h58.56.891,Slot Machine Game,2023.1.3,MacIntel,59.88023952,,,,,,,,,,,,,,,,,,,,,,,,,,,520,,,,,,,,,,,,,,,,,,,,,7,10,,,568.676,8,up,2.381,,1,0.3,"[3,1,2]",0.729036424,stimuli/card_100_transparent.png,100,8,0,8,0,1,,,,,,,,,,
,,,,615085e1473e6bb28212e205,B,2024-06-23_10h58.56.891,Slot Machine Game,2023.1.3,MacIntel,59.88023952,,,,,,,,,,,,,,,,,,,,,,,,,,,530,,,,,,,,,,,,,,,,,,,,,7,10,,,572.8705,9,up,0.2739,,1,0.3,"[3,1,2]",0.198651433,stimuli/card_10_transparent.png,10,9,0,9,0,1,,,,,,,,,,
,,,,615085e1473e6bb28212e205,B,2024-06-23_10h58.56.891,Slot Machine Game,2023.1.3,MacIntel,59.88023952,,,,,,,,,,,,,,,,,,,,,,,,,,,530,,,,,,,,,,,,,,,,,,,,,7,10,,,574.9594,10,up,1.7709,,1.5,0.3,"[1,3,2]",0.588963311,stimuli/card_0_transparent.png,0,10,0,10,0,1,,,,,,,,,,
,,,,615085e1473e6bb28212e205,B,2024-06-23_10h58.56.891,Slot Machine Game,2023.1.3,MacIntel,59.88023952,,,,,,,,,,,,,,,,,,,,,,,,,,,540,,,,,,,,,,,,,,,,,,,,,7,10,,,579.0364,11,right,0.1852,,1,0.3,"[1,3,2]",0.348793912,stimuli/card_10_transparent.png,10,11,0,11,0,1,,,,,,,,,,
,,,,615085e1473e6bb28212e205,B,2024-06-23_10h58.56.891,Slot Machine Game,2023.1.3,MacIntel,59.88023952,,,,,,,,,,,,,,,,,,,,,,,,,,,640,,,,,,,,,,,,,,,,,,,,,7,10,,,581.0425,12,right,0.1235,,1,0.3,"[1,3,2]",0.111588588,stimuli/card_100_transparent.png,100,12,0,12,0,1,,,,,,,,,,
,,,,615085e1473e6bb28212e205,B,2024-06-23_10h58.56.891,Slot Machine Game,2023.1.3,MacIntel,59.88023952,,,,,,,,,,,,,,,,,,,,,,,,,,,640,,,,,,,,,,,,,,,,,,,,,7,10,,,582.981,13,right,0.319,,0.5,0.3,"[1,3,2]",0.093953506,stimuli/card_0_transparent.png,0,13,0,13,0,1,,,,,,,,,,
,,,,615085e1473e6bb28212e205,B,2024-06-23_10h58.56.891,Slot Machine Game,2023.1.3,MacIntel,59.88023952,,,,,,,,,,,,,,,,,,,,,,,,,,,640,,,,,,,,,,,,,,,,,,,,,7,10,,,584.6186,14,up,0.2737,,0.5,0.3,"[1,3,2]",0.938144788,stimuli/card_0_transparent.png,0,14,0,14,0,1,,,,,,,,,,
,,,,615085e1473e6bb28212e205,B,2024-06-23_10h58.56.891,Slot Machine Game,2023.1.3,MacIntel,59.88023952,,,,,,,,,,,,,,,,,,,,,,,,,,,,,,,,,,,586.2063,,,,,,,,,,,,,,,,,,,,,,,,,,,,,,,,,"[950,1020,950,740,830,730,640]",6,0,6,0,1,,,,
,,,,615085e1473e6bb28212e205,B,2024-06-23_10h58.56.891,Slot Machine Game,2023.1.3,MacIntel,59.88023952,,,,,,,,,,,,,,,,,,,,,,,,,,,10,,,,,,,,,,,,,,,,,,,,,8,7,"[9,15]","[[1,3,2],[2,3,1]]",591.2183,0,right,0.7042,,0.5,0.3,"[1,3,2]",0.852004177,stimuli/card_10_transparent.png,10,0,0,0,0,1,,,,,,,,,,
,,,,615085e1473e6bb28212e205,B,2024-06-23_10h58.56.891,Slot Machine Game,2023.1.3,MacIntel,59.88023952,,,,,,,,,,,,,,,,,,,,,,,,,,,110,,,,,,,,,,,,,,,,,,,,,8,7,,,593.242,1,left,0.6926,,1,0.3,"[1,3,2]",0.393674479,stimuli/card_100_transparent.png,100,1,0,1,0,1,,,,,,,,,,
,,,,615085e1473e6bb28212e205,B,2024-06-23_10h58.56.891,Slot Machine Game,2023.1.3,MacIntel,59.88023952,,,,,,,,,,,,,,,,,,,,,,,,,,,210,,,,,,,,,,,,,,,,,,,,,8,7,,,595.7651,2,left,0.7272,,1.5,0.3,"[1,3,2]",0.923649948,stimuli/card_100_transparent.png,100,2,0,2,0,1,,,,,,,,,,
,,,,615085e1473e6bb28212e205,B,2024-06-23_10h58.56.891,Slot Machine Game,2023.1.3,MacIntel,59.88023952,,,,,,,,,,,,,,,,,,,,,,,,,,,310,,,,,,,,,,,,,,,,,,,,,8,7,,,598.7899,3,left,0.6966,,0.5,0.3,"[1,3,2]",0.907897236,stimuli/card_100_transparent.png,100,3,0,3,0,1,,,,,,,,,,
,,,,615085e1473e6bb28212e205,B,2024-06-23_10h58.56.891,Slot Machine Game,2023.1.3,MacIntel,59.88023952,,,,,,,,,,,,,,,,,,,,,,,,,,,410,,,,,,,,,,,,,,,,,,,,,8,7,,,600.7944,4,left,1.1256,,0.5,0.3,"[1,3,2]",0.221262308,stimuli/card_100_transparent.png,100,4,0,4,0,1,,,,,,,,,,
,,,,615085e1473e6bb28212e205,B,2024-06-23_10h58.56.891,Slot Machine Game,2023.1.3,MacIntel,59.88023952,,,,,,,,,,,,,,,,,,,,,,,,,,,510,,,,,,,,,,,,,,,,,,,,,8,7,,,603.2628,5,left,0.8164,,1.5,0.3,"[1,3,2]",0.347662642,stimuli/card_100_transparent.png,100,5,0,5,0,1,,,,,,,,,,
,,,,615085e1473e6bb28212e205,B,2024-06-23_10h58.56.891,Slot Machine Game,2023.1.3,MacIntel,59.88023952,,,,,,,,,,,,,,,,,,,,,,,,,,,610,,,,,,,,,,,,,,,,,,,,,8,7,,,606.4201,6,left,0.243,,1.5,0.3,"[1,3,2]",0.252612078,stimuli/card_100_transparent.png,100,6,0,6,0,1,,,,,,,,,,
,,,,615085e1473e6bb28212e205,B,2024-06-23_10h58.56.891,Slot Machine Game,2023.1.3,MacIntel,59.88023952,,,,,,,,,,,,,,,,,,,,,,,,,,,710,,,,,,,,,,,,,,,,,,,,,8,7,,,608.9668,7,left,0.6423,,1.5,0.3,"[1,3,2]",0.75479343,stimuli/card_100_transparent.png,100,7,0,7,0,1,,,,,,,,,,
,,,,615085e1473e6bb28212e205,B,2024-06-23_10h58.56.891,Slot Machine Game,2023.1.3,MacIntel,59.88023952,,,,,,,,,,,,,,,,,,,,,,,,,,,810,,,,,,,,,,,,,,,,,,,,,8,7,,,611.908,8,left,1.5126,,0.5,0.3,"[1,3,2]",0.443119137,stimuli/card_100_transparent.png,100,8,0,8,0,1,,,,,,,,,,
,,,,615085e1473e6bb28212e205,B,2024-06-23_10h58.56.891,Slot Machine Game,2023.1.3,MacIntel,59.88023952,,,,,,,,,,,,,,,,,,,,,,,,,,,820,,,,,,,,,,,,,,,,,,,,,8,7,,,614.7323,9,left,1.6465,,1.5,0.3,"[2,3,1]",0.80189661,stimuli/card_10_transparent.png,10,9,0,9,0,1,,,,,,,,,,
,,,,615085e1473e6bb28212e205,B,2024-06-23_10h58.56.891,Slot Machine Game,2023.1.3,MacIntel,59.88023952,,,,,,,,,,,,,,,,,,,,,,,,,,,920,,,,,,,,,,,,,,,,,,,,,8,7,,,618.6762,10,left,0.3169,,1.5,0.3,"[2,3,1]",0.155599721,stimuli/card_100_transparent.png,100,10,0,10,0,1,,,,,,,,,,
,,,,615085e1473e6bb28212e205,B,2024-06-23_10h58.56.891,Slot Machine Game,2023.1.3,MacIntel,59.88023952,,,,,,,,,,,,,,,,,,,,,,,,,,,920,,,,,,,,,,,,,,,,,,,,,8,7,,,621.3158,11,left,0.9742,,1.5,0.3,"[2,3,1]",0.019639601,stimuli/card_0_transparent.png,0,11,0,11,0,1,,,,,,,,,,
,,,,615085e1473e6bb28212e205,B,2024-06-23_10h58.56.891,Slot Machine Game,2023.1.3,MacIntel,59.88023952,,,,,,,,,,,,,,,,,,,,,,,,,,,930,,,,,,,,,,,,,,,,,,,,,8,7,,,624.6089,12,left,1.3534,,1,0.3,"[2,3,1]",0.942254468,stimuli/card_10_transparent.png,10,12,0,12,0,1,,,,,,,,,,
,,,,615085e1473e6bb28212e205,B,2024-06-23_10h58.56.891,Slot Machine Game,2023.1.3,MacIntel,59.88023952,,,,,,,,,,,,,,,,,,,,,,,,,,,940,,,,,,,,,,,,,,,,,,,,,8,7,,,627.7832,13,left,0.3361,,1.5,0.3,"[2,3,1]",0.71550423,stimuli/card_10_transparent.png,10,13,0,13,0,1,,,,,,,,,,
,,,,615085e1473e6bb28212e205,B,2024-06-23_10h58.56.891,Slot Machine Game,2023.1.3,MacIntel,59.88023952,,,,,,,,,,,,,,,,,,,,,,,,,,,950,,,,,,,,,,,,,,,,,,,,,8,7,,,630.4293,14,left,0.7074,,0.5,0.3,"[2,3,1]",0.365515586,stimuli/card_10_transparent.png,10,14,0,14,0,1,,,,,,,,,,
,,,,615085e1473e6bb28212e205,B,2024-06-23_10h58.56.891,Slot Machine Game,2023.1.3,MacIntel,59.88023952,,,,,,,,,,,,,,,,,,,,,,,,,,,,,,,,,,,632.463,,,,,,,,,,,,,,,,,,,,,,,,,,,,,,,,,"[950,1020,950,740,830,730,640,950]",7,0,7,0,1,,,,
,,,,615085e1473e6bb28212e205,B,2024-06-23_10h58.56.891,Slot Machine Game,2023.1.3,MacIntel,59.88023952,,,,,,,,,,,,,,,,,,,,,,,,,,,10,,,,,,,,,,,,,,,,,,,,,9,9,[15],"[[3,1,2]]",637.4753,0,right,0.9187,,1.5,0.3,"[3,1,2]",0.652248288,stimuli/card_10_transparent.png,10,0,0,0,0,1,,,,,,,,,,
,,,,615085e1473e6bb28212e205,B,2024-06-23_10h58.56.891,Slot Machine Game,2023.1.3,MacIntel,59.88023952,,,,,,,,,,,,,,,,,,,,,,,,,,,110,,,,,,,,,,,,,,,,,,,,,9,9,,,640.7187,1,up,0.1736,,1.5,0.3,"[3,1,2]",0.910439578,stimuli/card_100_transparent.png,100,1,0,1,0,1,,,,,,,,,,
,,,,615085e1473e6bb28212e205,B,2024-06-23_10h58.56.891,Slot Machine Game,2023.1.3,MacIntel,59.88023952,,,,,,,,,,,,,,,,,,,,,,,,,,,120,,,,,,,,,,,,,,,,,,,,,9,9,,,643.1916,2,up,3.6022,,0.5,0.3,"[3,1,2]",0.196045109,stimuli/card_10_transparent.png,10,2,0,2,0,1,,,,,,,,,,
,,,,615085e1473e6bb28212e205,B,2024-06-23_10h58.56.891,Slot Machine Game,2023.1.3,MacIntel,59.88023952,,,,,,,,,,,,,,,,,,,,,,,,,,,120,,,,,,,,,,,,,,,,,,,,,9,9,,,648.1038,3,left,0.1247,,0.5,0.3,"[3,1,2]",0.673334183,stimuli/card_0_transparent.png,0,3,0,3,0,1,,,,,,,,,,
,,,,615085e1473e6bb28212e205,B,2024-06-23_10h58.56.891,Slot Machine Game,2023.1.3,MacIntel,59.88023952,,,,,,,,,,,,,,,,,,,,,,,,,,,220,,,,,,,,,,,,,,,,,,,,,9,9,,,649.542,4,up,0.4571,,0.5,0.3,"[3,1,2]",0.32027075,stimuli/card_100_transparent.png,100,4,0,4,0,1,,,,,,,,,,
,,,,615085e1473e6bb28212e205,B,2024-06-23_10h58.56.891,Slot Machine Game,2023.1.3,MacIntel,59.88023952,,,,,,,,,,,,,,,,,,,,,,,,,,,320,,,,,,,,,,,,,,,,,,,,,9,9,,,651.3132,5,up,0.04,,1,0.3,"[3,1,2]",0.89685383,stimuli/card_100_transparent.png,100,5,0,5,0,1,,,,,,,,,,
,,,,615085e1473e6bb28212e205,B,2024-06-23_10h58.56.891,Slot Machine Game,2023.1.3,MacIntel,59.88023952,,,,,,,,,,,,,,,,,,,,,,,,,,,420,,,,,,,,,,,,,,,,,,,,,9,9,,,653.1678,6,up,0.174,,1.5,0.3,"[3,1,2]",0.232529212,stimuli/card_100_transparent.png,100,6,0,6,0,1,,,,,,,,,,
,,,,615085e1473e6bb28212e205,B,2024-06-23_10h58.56.891,Slot Machine Game,2023.1.3,MacIntel,59.88023952,,,,,,,,,,,,,,,,,,,,,,,,,,,420,,,,,,,,,,,,,,,,,,,,,9,9,,,655.6405,7,up,0.4199,,1,0.3,"[3,1,2]",0.001225798,stimuli/card_0_transparent.png,0,7,0,7,0,1,,,,,,,,,,
,,,,615085e1473e6bb28212e205,B,2024-06-23_10h58.56.891,Slot Machine Game,2023.1.3,MacIntel,59.88023952,,,,,,,,,,,,,,,,,,,,,,,,,,,430,,,,,,,,,,,,,,,,,,,,,9,9,,,657.8815,8,right,0.1836,,1.5,0.3,"[3,1,2]",0.905791559,stimuli/card_10_transparent.png,10,8,0,8,0,1,,,,,,,,,,
,,,,615085e1473e6bb28212e205,B,2024-06-23_10h58.56.891,Slot Machine Game,2023.1.3,MacIntel,59.88023952,,,,,,,,,,,,,,,,,,,,,,,,,,,430,,,,,,,,,,,,,,,,,,,,,9,9,,,660.3864,9,left,0.2675,,1.5,0.3,"[3,1,2]",0.252160398,stimuli/card_0_transparent.png,0,9,0,9,0,1,,,,,,,,,,
,,,,615085e1473e6bb28212e205,B,2024-06-23_10h58.56.891,Slot Machine Game,2023.1.3,MacIntel,59.88023952,,,,,,,,,,,,,,,,,,,,,,,,,,,530,,,,,,,,,,,,,,,,,,,,,9,9,,,662.9606,10,up,2.291,,1.5,0.3,"[3,1,2]",0.75296668,stimuli/card_100_transparent.png,100,10,0,10,0,1,,,,,,,,,,
,,,,615085e1473e6bb28212e205,B,2024-06-23_10h58.56.891,Slot Machine Game,2023.1.3,MacIntel,59.88023952,,,,,,,,,,,,,,,,,,,,,,,,,,,630,,,,,,,,,,,,,,,,,,,,,9,9,,,667.5734,11,up,0.091,,0.5,0.3,"[3,1,2]",0.66735663,stimuli/card_100_transparent.png,100,11,0,11,0,1,,,,,,,,,,
,,,,615085e1473e6bb28212e205,B,2024-06-23_10h58.56.891,Slot Machine Game,2023.1.3,MacIntel,59.88023952,,,,,,,,,,,,,,,,,,,,,,,,,,,640,,,,,,,,,,,,,,,,,,,,,9,9,,,668.9769,12,up,0.2009,,1.5,0.3,"[3,1,2]",0.1490882,stimuli/card_10_transparent.png,10,12,0,12,0,1,,,,,,,,,,
,,,,615085e1473e6bb28212e205,B,2024-06-23_10h58.56.891,Slot Machine Game,2023.1.3,MacIntel,59.88023952,,,,,,,,,,,,,,,,,,,,,,,,,,,740,,,,,,,,,,,,,,,,,,,,,9,9,,,671.4999,13,up,3.2995,,1,0.3,"[3,1,2]",0.395855565,stimuli/card_100_transparent.png,100,13,0,13,0,1,,,,,,,,,,
,,,,615085e1473e6bb28212e205,B,2024-06-23_10h58.56.891,Slot Machine Game,2023.1.3,MacIntel,59.88023952,,,,,,,,,,,,,,,,,,,,,,,,,,,840,,,,,,,,,,,,,,,,,,,,,9,9,,,676.6142,14,up,0.2846,,0.5,0.3,"[3,1,2]",0.969160747,stimuli/card_100_transparent.png,100,14,0,14,0,1,,,,,,,,,,
,,,,615085e1473e6bb28212e205,B,2024-06-23_10h58.56.891,Slot Machine Game,2023.1.3,MacIntel,59.88023952,,,,,,,,,,,,,,,,,,,,,,,,,,,,,,,,,,,678.2187,,,,,,,,,,,,,,,,,,,,,,,,,,,,,,,,,"[950,1020,950,740,830,730,640,950,840]",8,0,8,0,1,,,,
,,,,615085e1473e6bb28212e205,B,2024-06-23_10h58.56.891,Slot Machine Game,2023.1.3,MacIntel,59.88023952,,,,,,,,,,,,,,,,,,,,,,,,,,,100,,,,,,,,,,,,,,,,,,,,,10,6,"[4,10,15]","[[2,3,1],[1,3,2],[3,2,1]]",683.2303,0,right,1.0083,,1,0.3,"[2,3,1]",0.522821408,stimuli/card_100_transparent.png,100,0,0,0,0,1,,,,,,,,,,
,,,,615085e1473e6bb28212e205,B,2024-06-23_10h58.56.891,Slot Machine Game,2023.1.3,MacIntel,59.88023952,,,,,,,,,,,,,,,,,,,,,,,,,,,200,,,,,,,,,,,,,,,,,,,,,10,6,,,686.0558,1,right,0.1851,,1.5,0.3,"[2,3,1]",0.238717797,stimuli/card_100_transparent.png,100,1,0,1,0,1,,,,,,,,,,
,,,,615085e1473e6bb28212e205,B,2024-06-23_10h58.56.891,Slot Machine Game,2023.1.3,MacIntel,59.88023952,,,,,,,,,,,,,,,,,,,,,,,,,,,210,,,,,,,,,,,,,,,,,,,,,10,6,,,688.5629,2,right,2.3924,,0.5,0.3,"[2,3,1]",0.103594915,stimuli/card_10_transparent.png,10,2,0,2,0,1,,,,,,,,,,
,,,,615085e1473e6bb28212e205,B,2024-06-23_10h58.56.891,Slot Machine Game,2023.1.3,MacIntel,59.88023952,,,,,,,,,,,,,,,,,,,,,,,,,,,310,,,,,,,,,,,,,,,,,,,,,10,6,,,692.2729,3,right,0.6253,,0.5,0.3,"[2,3,1]",0.341558155,stimuli/card_100_transparent.png,100,3,0,3,0,1,,,,,,,,,,
,,,,615085e1473e6bb28212e205,B,2024-06-23_10h58.56.891,Slot Machine Game,2023.1.3,MacIntel,59.88023952,,,,,,,,,,,,,,,,,,,,,,,,,,,410,,,,,,,,,,,,,,,,,,,,,10,6,,,694.2109,4,right,0.025,,0.5,0.3,"[1,3,2]",0.128190929,stimuli/card_100_transparent.png,100,4,0,4,0,1,,,,,,,,,,
,,,,615085e1473e6bb28212e205,B,2024-06-23_10h58.56.891,Slot Machine Game,2023.1.3,MacIntel,59.88023952,,,,,,,,,,,,,,,,,,,,,,,,,,,420,,,,,,,,,,,,,,,,,,,,,10,6,,,695.5483,5,right,1.3052,,0.5,0.3,"[1,3,2]",0.538380731,stimuli/card_10_transparent.png,10,5,0,5,0,1,,,,,,,,,,
,,,,615085e1473e6bb28212e205,B,2024-06-23_10h58.56.891,Slot Machine Game,2023.1.3,MacIntel,59.88023952,,,,,,,,,,,,,,,,,,,,,,,,,,,520,,,,,,,,,,,,,,,,,,,,,10,6,,,698.1721,6,right,1.6448,,1,0.3,"[1,3,2]",0.124917625,stimuli/card_100_transparent.png,100,6,0,6,0,1,,,,,,,,,,
,,,,615085e1473e6bb28212e205,B,2024-06-23_10h58.56.891,Slot Machine Game,2023.1.3,MacIntel,59.88023952,,,,,,,,,,,,,,,,,,,,,,,,,,,530,,,,,,,,,,,,,,,,,,,,,10,6,,,701.6311,7,right,0.1409,,1.5,0.3,"[1,3,2]",0.336158458,stimuli/card_10_transparent.png,10,7,0,7,0,1,,,,,,,,,,
,,,,615085e1473e6bb28212e205,B,2024-06-23_10h58.56.891,Slot Machine Game,2023.1.3,MacIntel,59.88023952,,,,,,,,,,,,,,,,,,,,,,,,,,,540,,,,,,,,,,,,,,,,,,,,,10,6,,,704.0873,8,right,1.9643,,0.5,0.3,"[1,3,2]",0.560646148,stimuli/card_10_transparent.png,10,8,0,8,0,1,,,,,,,,,,
,,,,615085e1473e6bb28212e205,B,2024-06-23_10h58.56.891,Slot Machine Game,2023.1.3,MacIntel,59.88023952,,,,,,,,,,,,,,,,,,,,,,,,,,,550,,,,,,,,,,,,,,,,,,,,,10,6,,,707.3632,9,right,2.0443,,0.5,0.3,"[1,3,2]",0.225431389,stimuli/card_10_transparent.png,10,9,0,9,0,1,,,,,,,,,,
,,,,615085e1473e6bb28212e205,B,2024-06-23_10h58.56.891,Slot Machine Game,2023.1.3,MacIntel,59.88023952,,,,,,,,,,,,,,,,,,,,,,,,,,,650,,,,,,,,,,,,,,,,,,,,,10,6,,,710.7215,10,left,0.3047,,1,0.3,"[3,2,1]",0.024007722,stimuli/card_100_transparent.png,100,10,0,10,0,1,,,,,,,,,,
,,,,615085e1473e6bb28212e205,B,2024-06-23_10h58.56.891,Slot Machine Game,2023.1.3,MacIntel,59.88023952,,,,,,,,,,,,,,,,,,,,,,,,,,,650,,,,,,,,,,,,,,,,,,,,,10,6,,,712.8441,11,left,0.3849,,0.5,0.3,"[3,2,1]",0.379189749,stimuli/card_0_transparent.png,0,11,0,11,0,1,,,,,,,,,,
,,,,615085e1473e6bb28212e205,B,2024-06-23_10h58.56.891,Slot Machine Game,2023.1.3,MacIntel,59.88023952,,,,,,,,,,,,,,,,,,,,,,,,,,,660,,,,,,,,,,,,,,,,,,,,,10,6,,,714.5491,12,left,0.4494,,0.5,0.3,"[3,2,1]",0.180499969,stimuli/card_10_transparent.png,10,12,0,12,0,1,,,,,,,,,,
,,,,615085e1473e6bb28212e205,B,2024-06-23_10h58.56.891,Slot Machine Game,2023.1.3,MacIntel,59.88023952,,,,,,,,,,,,,,,,,,,,,,,,,,,670,,,,,,,,,,,,,,,,,,,,,10,6,,,716.3194,13,up,1.2605,,1,0.3,"[3,2,1]",0.691689636,stimuli/card_10_transparent.png,10,13,0,13,0,1,,,,,,,,,,
,,,,615085e1473e6bb28212e205,B,2024-06-23_10h58.56.891,Slot Machine Game,2023.1.3,MacIntel,59.88023952,,,,,,,,,,,,,,,,,,,,,,,,,,,770,,,,,,,,,,,,,,,,,,,,,10,6,,,719.3953,14,right,0.306,,0.5,0.3,"[3,2,1]",0.831098453,stimuli/card_100_transparent.png,100,14,0,14,0,1,,,,,,,,,,
,,,,615085e1473e6bb28212e205,B,2024-06-23_10h58.56.891,Slot Machine Game,2023.1.3,MacIntel,59.88023952,,,,,,,,,,,,,,,,,,,,,,,,,,,,,,,,,,,721.0818,,,,,,,,,,,,,,,,,,,,,,,,,,,,,,,,,"[950,1020,950,740,830,730,640,950,840,770]",9,0,9,0,1,,,,
,,,,615085e1473e6bb28212e205,B,2024-06-23_10h58.56.891,Slot Machine Game,2023.1.3,MacIntel,59.88023952,,,,,,,,,,,,,,,,,,,,,,,,,,,,,,,,,,,,,,,,,,,,,,,,,,,,,,,,,,,,,,,,,,,,,,,,,,9,"[950,1020,950,740,830,730,640,950,840,770]",9.5,2024-06-23_11h11.07.358
