key_resp_welcome_started,key_resp_welcome_keys,key_resp_welcome_rt,key_resp_welcome_duration,prolific_id,path_id,date,expName,psychopyVersion,OS,frameRate,key_resp_instruction1_started,key_resp_instruction1_keys,key_resp_instruction1_rt,key_resp_instruction1_duration,key_resp_instruction2_started,key_resp_instruction2_keys,key_resp_instruction2_rt,key_resp_instruction2_duration,key_resp_instruction3_started,key_resp_instruction3_keys,key_resp_instruction3_rt,key_resp_instruction3_duration,key_resp_instruction4_started,key_resp_instruction4_keys,key_resp_instruction4_rt,key_resp_instruction4_duration,practiceCondition,practice_reward_seqs,practice_trial_started,practice_trial_num,practice_resp_rt,practice_resp_duration,practice_resp_keys,prac_presentationInterval,"practice_reward_seq: 2,1,3",reward_img,cumulative_reward,trial_reward,practice_trials.thisRepN,practice_trials.thisTrialN,practice_trials.thisN,practice_trials.thisIndex,practice_trials.ran,"practice_reward_seq: 2,3,1",block_break_started,"practice_reward_seq: 1,3,2","practice_reward_seq: 3,1,2",practice_end_time,practice_end_keys,practice_end_rt,practice_end_duration,main_instruction_text_started,block_condition,block_order_indices,main_instruction_keys,main_instruction_rt,main_instruction_duration,block_number,block_assignment,current_condition,main_reward_seqs,main_trial_started,main_trial_num,main_trial_keys,main_trial_rt,main_trial_duration,main_presentationInterval,reward_presentation_time,main_reward_seq,reward_rand_val,main_reward_img,current_reward,main_trials.thisRepN,main_trials.thisTrialN,main_trials.thisN,main_trials.thisIndex,main_trials.ran,block_reward,block.thisRepN,block.thisTrialN,block.thisN,block.thisIndex,block.ran,block_reward.length,block_reward_all,reward_amount,date_end_task
0.0004,space,2.6378,,615c65e4fa1c6b2e5a7d0971,A,2024-07-09_08h12.37.853,Slot Machine Game,2023.1.3,Win32,60.24096386,,,,,,,,,,,,,,,,,,,,,,,,,,,,,,,,,,,,,,,,,,,,,,,,,,,,,,,,,,,,,,,,,,,,,,,,,,,,,
,,,,615c65e4fa1c6b2e5a7d0971,A,2024-07-09_08h12.37.853,Slot Machine Game,2023.1.3,Win32,60.24096386,2.6575,space,6.8293,,,,,,,,,,,,,,,,,,,,,,,,,,,,,,,,,,,,,,,,,,,,,,,,,,,,,,,,,,,,,,,,,,,,,,,,,,
,,,,615c65e4fa1c6b2e5a7d0971,A,2024-07-09_08h12.37.853,Slot Machine Game,2023.1.3,Win32,60.24096386,,,,,9.5076,space,1.3053,,,,,,,,,,,,,,,,,,,,,,,,,,,,,,,,,,,,,,,,,,,,,,,,,,,,,,,,,,,,,,,,,,,,,,
,,,,615c65e4fa1c6b2e5a7d0971,A,2024-07-09_08h12.37.853,Slot Machine Game,2023.1.3,Win32,60.24096386,,,,,,,,,10.8608,space,0.5598,,,,,,,,,,,,,,,,,,,,,,,,,,,,,,,,,,,,,,,,,,,,,,,,,,,,,,,,,,,,,,,,,,
,,,,615c65e4fa1c6b2e5a7d0971,A,2024-07-09_08h12.37.853,Slot Machine Game,2023.1.3,Win32,60.24096386,,,,,,,,,,,,,,,,,,,,,,,,,,,,,,,,,,,,,,,,,,,,,,,,,,,,,,,,,,,,,,,,,,,,,,,,,,,,,
,,,,615c65e4fa1c6b2e5a7d0971,A,2024-07-09_08h12.37.853,Slot Machine Game,2023.1.3,Win32,60.24096386,,,,,,,,,,,,,153.3718,space,2.9546,,,,,,,,,,,,,,,,,,,,,,,,,,,,,,,,,,,,,,,,,,,,,,,,,,,,,,,,,,,,,,
,,,,615c65e4fa1c6b2e5a7d0971,A,2024-07-09_08h12.37.853,Slot Machine Game,2023.1.3,Win32,60.24096386,,,,,,,,,,,,,,,,,"[9,15]","[[2,1,3],[2,3,1]]",156.3563,0,2.1143,,left,0.5,,stimuli/card_10_transparent.png,10,10,0,0,0,0,1,,,,,,,,,,,,,,,,,,,,,,,,,,,,,,,,,,,,,,,,,,,,
,,,,615c65e4fa1c6b2e5a7d0971,A,2024-07-09_08h12.37.853,Slot Machine Game,2023.1.3,Win32,60.24096386,,,,,,,,,,,,,,,,,,,159.788,1,0.8159,,left,1,,stimuli/card_100_transparent.png,110,100,1,0,1,0,1,,,,,,,,,,,,,,,,,,,,,,,,,,,,,,,,,,,,,,,,,,,,
,,,,615c65e4fa1c6b2e5a7d0971,A,2024-07-09_08h12.37.853,Slot Machine Game,2023.1.3,Win32,60.24096386,,,,,,,,,,,,,,,,,,,162.4235,2,0.0225,,left,1.5,,stimuli/card_10_transparent.png,120,10,2,0,2,0,1,,,,,,,,,,,,,,,,,,,,,,,,,,,,,,,,,,,,,,,,,,,,
,,,,615c65e4fa1c6b2e5a7d0971,A,2024-07-09_08h12.37.853,Slot Machine Game,2023.1.3,Win32,60.24096386,,,,,,,,,,,,,,,,,,,164.7698,3,0.0845,,left,1,,stimuli/card_10_transparent.png,130,10,3,0,3,0,1,,,,,,,,,,,,,,,,,,,,,,,,,,,,,,,,,,,,,,,,,,,,
,,,,615c65e4fa1c6b2e5a7d0971,A,2024-07-09_08h12.37.853,Slot Machine Game,2023.1.3,Win32,60.24096386,,,,,,,,,,,,,,,,,,,166.6673,4,2.0639,,left,0.5,,stimuli/card_100_transparent.png,230,100,4,0,4,0,1,,,,,,,,,,,,,,,,,,,,,,,,,,,,,,,,,,,,,,,,,,,,
,,,,615c65e4fa1c6b2e5a7d0971,A,2024-07-09_08h12.37.853,Slot Machine Game,2023.1.3,Win32,60.24096386,,,,,,,,,,,,,,,,,,,170.0621,5,0.2508,,left,1,,stimuli/card_10_transparent.png,240,10,5,0,5,0,1,,,,,,,,,,,,,,,,,,,,,,,,,,,,,,,,,,,,,,,,,,,,
,,,,615c65e4fa1c6b2e5a7d0971,A,2024-07-09_08h12.37.853,Slot Machine Game,2023.1.3,Win32,60.24096386,,,,,,,,,,,,,,,,,,,172.1424,6,1.398,,left,0.5,,stimuli/card_10_transparent.png,250,10,6,0,6,0,1,,,,,,,,,,,,,,,,,,,,,,,,,,,,,,,,,,,,,,,,,,,,
,,,,615c65e4fa1c6b2e5a7d0971,A,2024-07-09_08h12.37.853,Slot Machine Game,2023.1.3,Win32,60.24096386,,,,,,,,,,,,,,,,,,,174.8716,7,1.315,,left,1,,stimuli/card_10_transparent.png,260,10,7,0,7,0,1,,,,,,,,,,,,,,,,,,,,,,,,,,,,,,,,,,,,,,,,,,,,
,,,,615c65e4fa1c6b2e5a7d0971,A,2024-07-09_08h12.37.853,Slot Machine Game,2023.1.3,Win32,60.24096386,,,,,,,,,,,,,,,,,,,178.0171,8,0.5659,,left,0.5,,stimuli/card_10_transparent.png,270,10,8,0,8,0,1,,,,,,,,,,,,,,,,,,,,,,,,,,,,,,,,,,,,,,,,,,,,
,,,,615c65e4fa1c6b2e5a7d0971,A,2024-07-09_08h12.37.853,Slot Machine Game,2023.1.3,Win32,60.24096386,,,,,,,,,,,,,,,,,,,179.8978,9,1.0493,,left,0.5,,stimuli/card_10_transparent.png,280,10,9,0,9,0,1,,,,,,,,,,,,,,,,,,,,,,,,,,,,,,,,,,,,,,,,,,,,
,,,,615c65e4fa1c6b2e5a7d0971,A,2024-07-09_08h12.37.853,Slot Machine Game,2023.1.3,Win32,60.24096386,,,,,,,,,,,,,,,,,,,182.2776,10,0.167,,right,1.5,,stimuli/card_100_transparent.png,380,100,10,0,10,0,1,,,,,,,,,,,,,,,,,,,,,,,,,,,,,,,,,,,,,,,,,,,,
,,,,615c65e4fa1c6b2e5a7d0971,A,2024-07-09_08h12.37.853,Slot Machine Game,2023.1.3,Win32,60.24096386,,,,,,,,,,,,,,,,,,,184.7742,11,0.0841,,right,0.5,,stimuli/card_100_transparent.png,480,100,11,0,11,0,1,,,,,,,,,,,,,,,,,,,,,,,,,,,,,,,,,,,,,,,,,,,,
,,,,615c65e4fa1c6b2e5a7d0971,A,2024-07-09_08h12.37.853,Slot Machine Game,2023.1.3,Win32,60.24096386,,,,,,,,,,,,,,,,,,,186.1886,12,0.8025,,right,1,,stimuli/card_100_transparent.png,580,100,12,0,12,0,1,,,,,,,,,,,,,,,,,,,,,,,,,,,,,,,,,,,,,,,,,,,,
,,,,615c65e4fa1c6b2e5a7d0971,A,2024-07-09_08h12.37.853,Slot Machine Game,2023.1.3,Win32,60.24096386,,,,,,,,,,,,,,,,,,,188.8182,13,1.7313,,right,0.5,,stimuli/card_100_transparent.png,680,100,13,0,13,0,1,,,,,,,,,,,,,,,,,,,,,,,,,,,,,,,,,,,,,,,,,,,,
,,,,615c65e4fa1c6b2e5a7d0971,A,2024-07-09_08h12.37.853,Slot Machine Game,2023.1.3,Win32,60.24096386,,,,,,,,,,,,,,,,,,,191.8803,14,0.35,,right,1.5,,stimuli/card_100_transparent.png,780,100,14,0,14,0,1,,,,,,,,,,,,,,,,,,,,,,,,,,,,,,,,,,,,,,,,,,,,
,,,,615c65e4fa1c6b2e5a7d0971,A,2024-07-09_08h12.37.853,Slot Machine Game,2023.1.3,Win32,60.24096386,,,,,,,,,,,,,,,,,"[6,15]","[[1,3,2],[3,1,2]]",199.5838,0,2.0378,,right,1,,stimuli/card_100_transparent.png,100,100,0,0,0,0,1,,194.5725,,,,,,,,,,,,,,,,,,,,,,,,,,,,,,,,,,,,,,,,,,
,,,,615c65e4fa1c6b2e5a7d0971,A,2024-07-09_08h12.37.853,Slot Machine Game,2023.1.3,Win32,60.24096386,,,,,,,,,,,,,,,,,,,203.4308,1,,,,1.5,,,,,1,0,1,0,1,,,,,,,,,,,,,,,,,,,,,,,,,,,,,,,,,,,,,,,,,,,,
,,,,615c65e4fa1c6b2e5a7d0971,A,2024-07-09_08h12.37.853,Slot Machine Game,2023.1.3,Win32,60.24096386,,,,,,,,,,,,,,,,,,,208.944,2,4.4138,,right,1.5,,stimuli/card_0_transparent.png,100,0,2,0,2,0,1,,,,,,,,,,,,,,,,,,,,,,,,,,,,,,,,,,,,,,,,,,,,
,,,,615c65e4fa1c6b2e5a7d0971,A,2024-07-09_08h12.37.853,Slot Machine Game,2023.1.3,Win32,60.24096386,,,,,,,,,,,,,,,,,,,215.68,3,1.3986,,right,1,,stimuli/card_10_transparent.png,110,10,3,0,3,0,1,,,,,,,,,,,,,,,,,,,,,,,,,,,,,,,,,,,,,,,,,,,,
,,,,615c65e4fa1c6b2e5a7d0971,A,2024-07-09_08h12.37.853,Slot Machine Game,2023.1.3,Win32,60.24096386,,,,,,,,,,,,,,,,,,,218.9086,4,0.2004,,right,1,,stimuli/card_10_transparent.png,120,10,4,0,4,0,1,,,,,,,,,,,,,,,,,,,,,,,,,,,,,,,,,,,,,,,,,,,,
,,,,615c65e4fa1c6b2e5a7d0971,A,2024-07-09_08h12.37.853,Slot Machine Game,2023.1.3,Win32,60.24096386,,,,,,,,,,,,,,,,,,,220.9391,5,0.0671,,right,1,,stimuli/card_10_transparent.png,130,10,5,0,5,0,1,,,,,,,,,,,,,,,,,,,,,,,,,,,,,,,,,,,,,,,,,,,,
,,,,615c65e4fa1c6b2e5a7d0971,A,2024-07-09_08h12.37.853,Slot Machine Game,2023.1.3,Win32,60.24096386,,,,,,,,,,,,,,,,,,,222.8365,6,0.2229,,right,1.5,,stimuli/card_100_transparent.png,230,100,6,0,6,0,1,,,,,,,,,,,,,,,,,,,,,,,,,,,,,,,,,,,,,,,,,,,,
,,,,615c65e4fa1c6b2e5a7d0971,A,2024-07-09_08h12.37.853,Slot Machine Game,2023.1.3,Win32,60.24096386,,,,,,,,,,,,,,,,,,,225.3826,7,0.367,,right,1,,stimuli/card_10_transparent.png,240,10,7,0,7,0,1,,,,,,,,,,,,,,,,,,,,,,,,,,,,,,,,,,,,,,,,,,,,
,,,,615c65e4fa1c6b2e5a7d0971,A,2024-07-09_08h12.37.853,Slot Machine Game,2023.1.3,Win32,60.24096386,,,,,,,,,,,,,,,,,,,227.5796,8,0.1523,,right,0.5,,stimuli/card_10_transparent.png,250,10,8,0,8,0,1,,,,,,,,,,,,,,,,,,,,,,,,,,,,,,,,,,,,,,,,,,,,
,,,,615c65e4fa1c6b2e5a7d0971,A,2024-07-09_08h12.37.853,Slot Machine Game,2023.1.3,Win32,60.24096386,,,,,,,,,,,,,,,,,,,229.0604,9,0.1175,,right,1,,stimuli/card_0_transparent.png,250,0,9,0,9,0,1,,,,,,,,,,,,,,,,,,,,,,,,,,,,,,,,,,,,,,,,,,,,
,,,,615c65e4fa1c6b2e5a7d0971,A,2024-07-09_08h12.37.853,Slot Machine Game,2023.1.3,Win32,60.24096386,,,,,,,,,,,,,,,,,,,231.0079,10,3.7454,,right,0.5,,stimuli/card_10_transparent.png,260,10,10,0,10,0,1,,,,,,,,,,,,,,,,,,,,,,,,,,,,,,,,,,,,,,,,,,,,
,,,,615c65e4fa1c6b2e5a7d0971,A,2024-07-09_08h12.37.853,Slot Machine Game,2023.1.3,Win32,60.24096386,,,,,,,,,,,,,,,,,,,236.0836,11,0.6874,,right,1.5,,stimuli/card_0_transparent.png,260,0,11,0,11,0,1,,,,,,,,,,,,,,,,,,,,,,,,,,,,,,,,,,,,,,,,,,,,
,,,,615c65e4fa1c6b2e5a7d0971,A,2024-07-09_08h12.37.853,Slot Machine Game,2023.1.3,Win32,60.24096386,,,,,,,,,,,,,,,,,,,239.096,12,1.0995,,right,0.5,,stimuli/card_10_transparent.png,270,10,12,0,12,0,1,,,,,,,,,,,,,,,,,,,,,,,,,,,,,,,,,,,,,,,,,,,,
,,,,615c65e4fa1c6b2e5a7d0971,A,2024-07-09_08h12.37.853,Slot Machine Game,2023.1.3,Win32,60.24096386,,,,,,,,,,,,,,,,,,,241.5259,13,0.0341,,right,1,,stimuli/card_10_transparent.png,280,10,13,0,13,0,1,,,,,,,,,,,,,,,,,,,,,,,,,,,,,,,,,,,,,,,,,,,,
,,,,615c65e4fa1c6b2e5a7d0971,A,2024-07-09_08h12.37.853,Slot Machine Game,2023.1.3,Win32,60.24096386,,,,,,,,,,,,,,,,,,,243.3896,14,0.5164,,right,1.5,,stimuli/card_100_transparent.png,380,100,14,0,14,0,1,,,,,,,,,,,,,,,,,,,,,,,,,,,,,,,,,,,,,,,,,,,,
,,,,615c65e4fa1c6b2e5a7d0971,A,2024-07-09_08h12.37.853,Slot Machine Game,2023.1.3,Win32,60.24096386,,,,,,,,,,,,,,,,,,,,,,,,,,,,,,,,,,,246.2366,,,251.23,space,7.1162,,,,,,,,,,,,,,,,,,,,,,,,,,,,,,,,,,,,,
,,,,615c65e4fa1c6b2e5a7d0971,A,2024-07-09_08h12.37.853,Slot Machine Game,2023.1.3,Win32,60.24096386,,,,,,,,,,,,,,,,,,,,,,,,,,,,,,,,,,,,,,,,,,258.3708,2,"[2,4,8,0,1,3,9,6,8,5]",space,1.0944,,,,,,,,,,,,,,,,,,,,,,,,,,,,,,,
,,,,615c65e4fa1c6b2e5a7d0971,A,2024-07-09_08h12.37.853,Slot Machine Game,2023.1.3,Win32,60.24096386,,,,,,,,,,,,,,,,,,,,,,,,,,,10,,,,,,,,,,,,,,,,,,,,,1,3,"[15,15]","[[3,1,2],[3,1,2]]",259.5034,0,right,0.8826,,1.5,0.3,"[3,1,2]",0.996409656,stimuli/card_10_transparent.png,10,0,0,0,0,1,,,,,,,,,,
,,,,615c65e4fa1c6b2e5a7d0971,A,2024-07-09_08h12.37.853,Slot Machine Game,2023.1.3,Win32,60.24096386,,,,,,,,,,,,,,,,,,,,,,,,,,,20,,,,,,,,,,,,,,,,,,,,,1,3,,,262.7109,1,right,0.5538,,1.5,0.3,"[3,1,2]",0.53427216,stimuli/card_10_transparent.png,10,1,0,1,0,1,,,,,,,,,,
,,,,615c65e4fa1c6b2e5a7d0971,A,2024-07-09_08h12.37.853,Slot Machine Game,2023.1.3,Win32,60.24096386,,,,,,,,,,,,,,,,,,,,,,,,,,,30,,,,,,,,,,,,,,,,,,,,,1,3,,,265.5899,2,right,0.0028,,1,0.3,"[3,1,2]",0.699440517,stimuli/card_10_transparent.png,10,2,0,2,0,1,,,,,,,,,,
,,,,615c65e4fa1c6b2e5a7d0971,A,2024-07-09_08h12.37.853,Slot Machine Game,2023.1.3,Win32,60.24096386,,,,,,,,,,,,,,,,,,,,,,,,,,,40,,,,,,,,,,,,,,,,,,,,,1,3,,,267.4204,3,right,0.1503,,1.5,0.3,"[3,1,2]",0.648186539,stimuli/card_10_transparent.png,10,3,0,3,0,1,,,,,,,,,,
,,,,615c65e4fa1c6b2e5a7d0971,A,2024-07-09_08h12.37.853,Slot Machine Game,2023.1.3,Win32,60.24096386,,,,,,,,,,,,,,,,,,,,,,,,,,,50,,,,,,,,,,,,,,,,,,,,,1,3,,,269.9002,4,right,0.6826,,1,0.3,"[3,1,2]",0.405905635,stimuli/card_10_transparent.png,10,4,0,4,0,1,,,,,,,,,,
,,,,615c65e4fa1c6b2e5a7d0971,A,2024-07-09_08h12.37.853,Slot Machine Game,2023.1.3,Win32,60.24096386,,,,,,,,,,,,,,,,,,,,,,,,,,,60,,,,,,,,,,,,,,,,,,,,,1,3,,,272.4136,5,right,0.6366,,1.5,0.3,"[3,1,2]",0.611800099,stimuli/card_10_transparent.png,10,5,0,5,0,1,,,,,,,,,,
,,,,615c65e4fa1c6b2e5a7d0971,A,2024-07-09_08h12.37.853,Slot Machine Game,2023.1.3,Win32,60.24096386,,,,,,,,,,,,,,,,,,,,,,,,,,,70,,,,,,,,,,,,,,,,,,,,,1,3,,,275.3754,6,right,1.2018,,1.5,0.3,"[3,1,2]",0.962602227,stimuli/card_10_transparent.png,10,6,0,6,0,1,,,,,,,,,,
,,,,615c65e4fa1c6b2e5a7d0971,A,2024-07-09_08h12.37.853,Slot Machine Game,2023.1.3,Win32,60.24096386,,,,,,,,,,,,,,,,,,,,,,,,,,,170,,,,,,,,,,,,,,,,,,,,,1,3,,,278.9037,7,right,0.5326,,1.5,0.3,"[3,1,2]",0.161159416,stimuli/card_100_transparent.png,100,7,0,7,0,1,,,,,,,,,,
,,,,615c65e4fa1c6b2e5a7d0971,A,2024-07-09_08h12.37.853,Slot Machine Game,2023.1.3,Win32,60.24096386,,,,,,,,,,,,,,,,,,,,,,,,,,,270,,,,,,,,,,,,,,,,,,,,,1,3,,,281.7662,8,up,0.4372,,1,0.3,"[3,1,2]",0.711893437,stimuli/card_100_transparent.png,100,8,0,8,0,1,,,,,,,,,,
,,,,615c65e4fa1c6b2e5a7d0971,A,2024-07-09_08h12.37.853,Slot Machine Game,2023.1.3,Win32,60.24096386,,,,,,,,,,,,,,,,,,,,,,,,,,,280,,,,,,,,,,,,,,,,,,,,,1,3,,,284.0297,9,right,0.1379,,1.5,0.3,"[3,1,2]",0.435671813,stimuli/card_10_transparent.png,10,9,0,9,0,1,,,,,,,,,,
,,,,615c65e4fa1c6b2e5a7d0971,A,2024-07-09_08h12.37.853,Slot Machine Game,2023.1.3,Win32,60.24096386,,,,,,,,,,,,,,,,,,,,,,,,,,,290,,,,,,,,,,,,,,,,,,,,,1,3,,,286.4927,10,right,0.0519,,0.5,0.3,"[3,1,2]",0.859926063,stimuli/card_10_transparent.png,10,10,0,10,0,1,,,,,,,,,,
,,,,615c65e4fa1c6b2e5a7d0971,A,2024-07-09_08h12.37.853,Slot Machine Game,2023.1.3,Win32,60.24096386,,,,,,,,,,,,,,,,,,,,,,,,,,,300,,,,,,,,,,,,,,,,,,,,,1,3,,,287.874,11,right,0.4,,0.5,0.3,"[3,1,2]",0.798804432,stimuli/card_10_transparent.png,10,11,0,11,0,1,,,,,,,,,,
,,,,615c65e4fa1c6b2e5a7d0971,A,2024-07-09_08h12.37.853,Slot Machine Game,2023.1.3,Win32,60.24096386,,,,,,,,,,,,,,,,,,,,,,,,,,,300,,,,,,,,,,,,,,,,,,,,,1,3,,,289.6049,12,right,0.0503,,1,0.3,"[3,1,2]",0.02436953,stimuli/card_0_transparent.png,0,12,0,12,0,1,,,,,,,,,,
,,,,615c65e4fa1c6b2e5a7d0971,A,2024-07-09_08h12.37.853,Slot Machine Game,2023.1.3,Win32,60.24096386,,,,,,,,,,,,,,,,,,,,,,,,,,,310,,,,,,,,,,,,,,,,,,,,,1,3,,,291.4855,13,right,0.2067,,1.5,0.3,"[3,1,2]",0.888116971,stimuli/card_10_transparent.png,10,13,0,13,0,1,,,,,,,,,,
,,,,615c65e4fa1c6b2e5a7d0971,A,2024-07-09_08h12.37.853,Slot Machine Game,2023.1.3,Win32,60.24096386,,,,,,,,,,,,,,,,,,,,,,,,,,,310,,,,,,,,,,,,,,,,,,,,,1,3,,,294.015,14,left,0.4166,,0.5,0.3,"[3,1,2]",0.779126696,stimuli/card_0_transparent.png,0,14,0,14,0,1,,,,,,,,,,
,,,,615c65e4fa1c6b2e5a7d0971,A,2024-07-09_08h12.37.853,Slot Machine Game,2023.1.3,Win32,60.24096386,,,,,,,,,,,,,,,,,,,,,,,,,,,,,,,,,,,295.7627,,,,,,,,,,,,,,,,,,,,,,,,,,,,,,,,,[310],0,0,0,0,1,,,,
,,,,615c65e4fa1c6b2e5a7d0971,A,2024-07-09_08h12.37.853,Slot Machine Game,2023.1.3,Win32,60.24096386,,,,,,,,,,,,,,,,,,,,,,,,,,,0,,,,,,,,,,,,,,,,,,,,,2,5,"[5,15]","[[1,2,3],[3,1,2]]",300.7784,0,right,0.2041,,1,0.3,"[1,2,3]",0.79039138,stimuli/card_0_transparent.png,0,0,0,0,0,1,,,,,,,,,,
,,,,615c65e4fa1c6b2e5a7d0971,A,2024-07-09_08h12.37.853,Slot Machine Game,2023.1.3,Win32,60.24096386,,,,,,,,,,,,,,,,,,,,,,,,,,,0,,,,,,,,,,,,,,,,,,,,,2,5,,,302.8023,1,right,0.1171,,1,0.3,"[1,2,3]",0.864663078,stimuli/card_0_transparent.png,0,1,0,1,0,1,,,,,,,,,,
,,,,615c65e4fa1c6b2e5a7d0971,A,2024-07-09_08h12.37.853,Slot Machine Game,2023.1.3,Win32,60.24096386,,,,,,,,,,,,,,,,,,,,,,,,,,,0,,,,,,,,,,,,,,,,,,,,,2,5,,,304.7495,2,up,0.1335,,1.5,0.3,"[1,2,3]",0.082993515,stimuli/card_0_transparent.png,0,2,0,2,0,1,,,,,,,,,,
,,,,615c65e4fa1c6b2e5a7d0971,A,2024-07-09_08h12.37.853,Slot Machine Game,2023.1.3,Win32,60.24096386,,,,,,,,,,,,,,,,,,,,,,,,,,,10,,,,,,,,,,,,,,,,,,,,,2,5,,,307.2125,3,right,0.1333,,1,0.3,"[1,2,3]",0.16814061,stimuli/card_10_transparent.png,10,3,0,3,0,1,,,,,,,,,,
,,,,615c65e4fa1c6b2e5a7d0971,A,2024-07-09_08h12.37.853,Slot Machine Game,2023.1.3,Win32,60.24096386,,,,,,,,,,,,,,,,,,,,,,,,,,,10,,,,,,,,,,,,,,,,,,,,,2,5,,,309.1764,4,right,0.0201,,1.5,0.3,"[1,2,3]",0.638061686,stimuli/card_0_transparent.png,0,4,0,4,0,1,,,,,,,,,,
,,,,615c65e4fa1c6b2e5a7d0971,A,2024-07-09_08h12.37.853,Slot Machine Game,2023.1.3,Win32,60.24096386,,,,,,,,,,,,,,,,,,,,,,,,,,,20,,,,,,,,,,,,,,,,,,,,,2,5,,,311.5229,5,up,0.0008,,0.5,0.3,"[3,1,2]",0.120784351,stimuli/card_10_transparent.png,10,5,0,5,0,1,,,,,,,,,,
,,,,615c65e4fa1c6b2e5a7d0971,A,2024-07-09_08h12.37.853,Slot Machine Game,2023.1.3,Win32,60.24096386,,,,,,,,,,,,,,,,,,,,,,,,,,,30,,,,,,,,,,,,,,,,,,,,,2,5,,,312.8542,6,left,0.0339,,1.5,0.3,"[3,1,2]",0.127820124,stimuli/card_10_transparent.png,10,6,0,6,0,1,,,,,,,,,,
,,,,615c65e4fa1c6b2e5a7d0971,A,2024-07-09_08h12.37.853,Slot Machine Game,2023.1.3,Win32,60.24096386,,,,,,,,,,,,,,,,,,,,,,,,,,,30,,,,,,,,,,,,,,,,,,,,,2,5,,,315.2176,7,left,0.4,,1.5,0.3,"[3,1,2]",0.378395037,stimuli/card_0_transparent.png,0,7,0,7,0,1,,,,,,,,,,
,,,,615c65e4fa1c6b2e5a7d0971,A,2024-07-09_08h12.37.853,Slot Machine Game,2023.1.3,Win32,60.24096386,,,,,,,,,,,,,,,,,,,,,,,,,,,30,,,,,,,,,,,,,,,,,,,,,2,5,,,317.9469,8,left,0.4663,,0.5,0.3,"[3,1,2]",0.82856044,stimuli/card_0_transparent.png,0,8,0,8,0,1,,,,,,,,,,
,,,,615c65e4fa1c6b2e5a7d0971,A,2024-07-09_08h12.37.853,Slot Machine Game,2023.1.3,Win32,60.24096386,,,,,,,,,,,,,,,,,,,,,,,,,,,130,,,,,,,,,,,,,,,,,,,,,2,5,,,319.7443,9,up,0.0342,,1,0.3,"[3,1,2]",0.935860829,stimuli/card_100_transparent.png,100,9,0,9,0,1,,,,,,,,,,
,,,,615c65e4fa1c6b2e5a7d0971,A,2024-07-09_08h12.37.853,Slot Machine Game,2023.1.3,Win32,60.24096386,,,,,,,,,,,,,,,,,,,,,,,,,,,230,,,,,,,,,,,,,,,,,,,,,2,5,,,321.6084,10,up,0.3006,,1.5,0.3,"[3,1,2]",0.232828146,stimuli/card_100_transparent.png,100,10,0,10,0,1,,,,,,,,,,
,,,,615c65e4fa1c6b2e5a7d0971,A,2024-07-09_08h12.37.853,Slot Machine Game,2023.1.3,Win32,60.24096386,,,,,,,,,,,,,,,,,,,,,,,,,,,230,,,,,,,,,,,,,,,,,,,,,2,5,,,324.238,11,left,0.4999,,1.5,0.3,"[3,1,2]",0.507834712,stimuli/card_0_transparent.png,0,11,0,11,0,1,,,,,,,,,,
,,,,615c65e4fa1c6b2e5a7d0971,A,2024-07-09_08h12.37.853,Slot Machine Game,2023.1.3,Win32,60.24096386,,,,,,,,,,,,,,,,,,,,,,,,,,,240,,,,,,,,,,,,,,,,,,,,,2,5,,,327.067,12,up,0.0337,,0.5,0.3,"[3,1,2]",0.184894285,stimuli/card_10_transparent.png,10,12,0,12,0,1,,,,,,,,,,
,,,,615c65e4fa1c6b2e5a7d0971,A,2024-07-09_08h12.37.853,Slot Machine Game,2023.1.3,Win32,60.24096386,,,,,,,,,,,,,,,,,,,,,,,,,,,240,,,,,,,,,,,,,,,,,,,,,2,5,,,328.4316,13,left,1.7978,,0.5,0.3,"[3,1,2]",0.595264404,stimuli/card_0_transparent.png,0,13,0,13,0,1,,,,,,,,,,
,,,,615c65e4fa1c6b2e5a7d0971,A,2024-07-09_08h12.37.853,Slot Machine Game,2023.1.3,Win32,60.24096386,,,,,,,,,,,,,,,,,,,,,,,,,,,240,,,,,,,,,,,,,,,,,,,,,2,5,,,331.5604,14,left,0.4666,,1,0.3,"[3,1,2]",0.420992432,stimuli/card_0_transparent.png,0,14,0,14,0,1,,,,,,,,,,
,,,,615c65e4fa1c6b2e5a7d0971,A,2024-07-09_08h12.37.853,Slot Machine Game,2023.1.3,Win32,60.24096386,,,,,,,,,,,,,,,,,,,,,,,,,,,,,,,,,,,333.8571,,,,,,,,,,,,,,,,,,,,,,,,,,,,,,,,,"[310,240]",1,0,1,0,1,,,,
,,,,615c65e4fa1c6b2e5a7d0971,A,2024-07-09_08h12.37.853,Slot Machine Game,2023.1.3,Win32,60.24096386,,,,,,,,,,,,,,,,,,,,,,,,,,,100,,,,,,,,,,,,,,,,,,,,,3,9,"[8,15]","[[3,2,1],[3,1,2]]",338.8651,0,right,4.3778,,0.5,0.3,"[3,2,1]",0.960669979,stimuli/card_100_transparent.png,100,0,0,0,0,1,,,,,,,,,,
,,,,615c65e4fa1c6b2e5a7d0971,A,2024-07-09_08h12.37.853,Slot Machine Game,2023.1.3,Win32,60.24096386,,,,,,,,,,,,,,,,,,,,,,,,,,,200,,,,,,,,,,,,,,,,,,,,,3,9,,,344.5582,1,right,0.4499,,1,0.3,"[3,2,1]",0.382760409,stimuli/card_100_transparent.png,100,1,0,1,0,1,,,,,,,,,,
,,,,615c65e4fa1c6b2e5a7d0971,A,2024-07-09_08h12.37.853,Slot Machine Game,2023.1.3,Win32,60.24096386,,,,,,,,,,,,,,,,,,,,,,,,,,,300,,,,,,,,,,,,,,,,,,,,,3,9,,,346.8384,2,right,1.4014,,1,0.3,"[3,2,1]",0.297711674,stimuli/card_100_transparent.png,100,2,0,2,0,1,,,,,,,,,,
,,,,615c65e4fa1c6b2e5a7d0971,A,2024-07-09_08h12.37.853,Slot Machine Game,2023.1.3,Win32,60.24096386,,,,,,,,,,,,,,,,,,,,,,,,,,,400,,,,,,,,,,,,,,,,,,,,,3,9,,,350.0671,3,right,3.3995,,1.5,0.3,"[3,2,1]",0.791437119,stimuli/card_100_transparent.png,100,3,0,3,0,1,,,,,,,,,,
,,,,615c65e4fa1c6b2e5a7d0971,A,2024-07-09_08h12.37.853,Slot Machine Game,2023.1.3,Win32,60.24096386,,,,,,,,,,,,,,,,,,,,,,,,,,,500,,,,,,,,,,,,,,,,,,,,,3,9,,,355.7918,4,right,0.0379,,1,0.3,"[3,2,1]",0.966967073,stimuli/card_100_transparent.png,100,4,0,4,0,1,,,,,,,,,,
,,,,615c65e4fa1c6b2e5a7d0971,A,2024-07-09_08h12.37.853,Slot Machine Game,2023.1.3,Win32,60.24096386,,,,,,,,,,,,,,,,,,,,,,,,,,,600,,,,,,,,,,,,,,,,,,,,,3,9,,,357.6559,5,right,0.2337,,0.5,0.3,"[3,2,1]",0.736686266,stimuli/card_100_transparent.png,100,5,0,5,0,1,,,,,,,,,,
,,,,615c65e4fa1c6b2e5a7d0971,A,2024-07-09_08h12.37.853,Slot Machine Game,2023.1.3,Win32,60.24096386,,,,,,,,,,,,,,,,,,,,,,,,,,,610,,,,,,,,,,,,,,,,,,,,,3,9,,,359.2203,6,right,0.633,,0.5,0.3,"[3,2,1]",0.197724549,stimuli/card_10_transparent.png,10,6,0,6,0,1,,,,,,,,,,
,,,,615c65e4fa1c6b2e5a7d0971,A,2024-07-09_08h12.37.853,Slot Machine Game,2023.1.3,Win32,60.24096386,,,,,,,,,,,,,,,,,,,,,,,,,,,710,,,,,,,,,,,,,,,,,,,,,3,9,,,361.1841,7,right,0.2202,,0.5,0.3,"[3,2,1]",0.419339237,stimuli/card_100_transparent.png,100,7,0,7,0,1,,,,,,,,,,
,,,,615c65e4fa1c6b2e5a7d0971,A,2024-07-09_08h12.37.853,Slot Machine Game,2023.1.3,Win32,60.24096386,,,,,,,,,,,,,,,,,,,,,,,,,,,720,,,,,,,,,,,,,,,,,,,,,3,9,,,362.7319,8,right,0.2166,,1,0.3,"[3,1,2]",0.954322088,stimuli/card_10_transparent.png,10,8,0,8,0,1,,,,,,,,,,
,,,,615c65e4fa1c6b2e5a7d0971,A,2024-07-09_08h12.37.853,Slot Machine Game,2023.1.3,Win32,60.24096386,,,,,,,,,,,,,,,,,,,,,,,,,,,820,,,,,,,,,,,,,,,,,,,,,3,9,,,364.7789,9,right,0.3334,,1.5,0.3,"[3,1,2]",0.153708592,stimuli/card_100_transparent.png,100,9,0,9,0,1,,,,,,,,,,
,,,,615c65e4fa1c6b2e5a7d0971,A,2024-07-09_08h12.37.853,Slot Machine Game,2023.1.3,Win32,60.24096386,,,,,,,,,,,,,,,,,,,,,,,,,,,820,,,,,,,,,,,,,,,,,,,,,3,9,,,367.4415,10,right,1.0698,,1,0.3,"[3,1,2]",0.048152131,stimuli/card_0_transparent.png,0,10,0,10,0,1,,,,,,,,,,
,,,,615c65e4fa1c6b2e5a7d0971,A,2024-07-09_08h12.37.853,Slot Machine Game,2023.1.3,Win32,60.24096386,,,,,,,,,,,,,,,,,,,,,,,,,,,830,,,,,,,,,,,,,,,,,,,,,3,9,,,370.3374,11,right,1.1653,,0.5,0.3,"[3,1,2]",0.983534778,stimuli/card_10_transparent.png,10,11,0,11,0,1,,,,,,,,,,
,,,,615c65e4fa1c6b2e5a7d0971,A,2024-07-09_08h12.37.853,Slot Machine Game,2023.1.3,Win32,60.24096386,,,,,,,,,,,,,,,,,,,,,,,,,,,840,,,,,,,,,,,,,,,,,,,,,3,9,,,372.8339,12,right,1.1825,,1.5,0.3,"[3,1,2]",0.916430089,stimuli/card_10_transparent.png,10,12,0,12,0,1,,,,,,,,,,
,,,,615c65e4fa1c6b2e5a7d0971,A,2024-07-09_08h12.37.853,Slot Machine Game,2023.1.3,Win32,60.24096386,,,,,,,,,,,,,,,,,,,,,,,,,,,850,,,,,,,,,,,,,,,,,,,,,3,9,,,376.3453,13,right,0.117,,1.5,0.3,"[3,1,2]",0.438968827,stimuli/card_10_transparent.png,10,13,0,13,0,1,,,,,,,,,,
,,,,615c65e4fa1c6b2e5a7d0971,A,2024-07-09_08h12.37.853,Slot Machine Game,2023.1.3,Win32,60.24096386,,,,,,,,,,,,,,,,,,,,,,,,,,,860,,,,,,,,,,,,,,,,,,,,,3,9,,,378.7917,14,right,1.2195,,0.5,0.3,"[3,1,2]",0.448529726,stimuli/card_10_transparent.png,10,14,0,14,0,1,,,,,,,,,,
,,,,615c65e4fa1c6b2e5a7d0971,A,2024-07-09_08h12.37.853,Slot Machine Game,2023.1.3,Win32,60.24096386,,,,,,,,,,,,,,,,,,,,,,,,,,,,,,,,,,,381.338,,,,,,,,,,,,,,,,,,,,,,,,,,,,,,,,,"[310,240,860]",2,0,2,0,1,,,,
,,,,615c65e4fa1c6b2e5a7d0971,A,2024-07-09_08h12.37.853,Slot Machine Game,2023.1.3,Win32,60.24096386,,,,,,,,,,,,,,,,,,,,,,,,,,,100,,,,,,,,,,,,,,,,,,,,,4,1,"[12,15]","[[2,1,3],[2,3,1]]",386.3545,0,up,1.0851,,0.5,0.3,"[2,1,3]",0.972106535,stimuli/card_100_transparent.png,100,0,0,0,0,1,,,,,,,,,,
,,,,615c65e4fa1c6b2e5a7d0971,A,2024-07-09_08h12.37.853,Slot Machine Game,2023.1.3,Win32,60.24096386,,,,,,,,,,,,,,,,,,,,,,,,,,,110,,,,,,,,,,,,,,,,,,,,,4,1,,,388.7605,1,left,0.2852,,1.5,0.3,"[2,1,3]",0.265038421,stimuli/card_10_transparent.png,10,1,0,1,0,1,,,,,,,,,,
,,,,615c65e4fa1c6b2e5a7d0971,A,2024-07-09_08h12.37.853,Slot Machine Game,2023.1.3,Win32,60.24096386,,,,,,,,,,,,,,,,,,,,,,,,,,,120,,,,,,,,,,,,,,,,,,,,,4,1,,,391.3737,2,left,0.8995,,1,0.3,"[2,1,3]",0.866630438,stimuli/card_10_transparent.png,10,2,0,2,0,1,,,,,,,,,,
,,,,615c65e4fa1c6b2e5a7d0971,A,2024-07-09_08h12.37.853,Slot Machine Game,2023.1.3,Win32,60.24096386,,,,,,,,,,,,,,,,,,,,,,,,,,,120,,,,,,,,,,,,,,,,,,,,,4,1,,,394.1029,3,right,0.2864,,0.5,0.3,"[2,1,3]",0.806781911,stimuli/card_0_transparent.png,0,3,0,3,0,1,,,,,,,,,,
,,,,615c65e4fa1c6b2e5a7d0971,A,2024-07-09_08h12.37.853,Slot Machine Game,2023.1.3,Win32,60.24096386,,,,,,,,,,,,,,,,,,,,,,,,,,,130,,,,,,,,,,,,,,,,,,,,,4,1,,,395.7172,4,left,0.5179,,1,0.3,"[2,1,3]",0.913489024,stimuli/card_10_transparent.png,10,4,0,4,0,1,,,,,,,,,,
,,,,615c65e4fa1c6b2e5a7d0971,A,2024-07-09_08h12.37.853,Slot Machine Game,2023.1.3,Win32,60.24096386,,,,,,,,,,,,,,,,,,,,,,,,,,,230,,,,,,,,,,,,,,,,,,,,,4,1,,,398.0638,5,left,0.2384,,1,0.3,"[2,1,3]",0.146582157,stimuli/card_100_transparent.png,100,5,0,5,0,1,,,,,,,,,,
,,,,615c65e4fa1c6b2e5a7d0971,A,2024-07-09_08h12.37.853,Slot Machine Game,2023.1.3,Win32,60.24096386,,,,,,,,,,,,,,,,,,,,,,,,,,,240,,,,,,,,,,,,,,,,,,,,,4,1,,,400.1216,6,left,0.7008,,1.5,0.3,"[2,1,3]",0.686867288,stimuli/card_10_transparent.png,10,6,0,6,0,1,,,,,,,,,,
,,,,615c65e4fa1c6b2e5a7d0971,A,2024-07-09_08h12.37.853,Slot Machine Game,2023.1.3,Win32,60.24096386,,,,,,,,,,,,,,,,,,,,,,,,,,,240,,,,,,,,,,,,,,,,,,,,,4,1,,,403.1497,7,right,0.0837,,1,0.3,"[2,1,3]",0.656893897,stimuli/card_0_transparent.png,0,7,0,7,0,1,,,,,,,,,,
,,,,615c65e4fa1c6b2e5a7d0971,A,2024-07-09_08h12.37.853,Slot Machine Game,2023.1.3,Win32,60.24096386,,,,,,,,,,,,,,,,,,,,,,,,,,,340,,,,,,,,,,,,,,,,,,,,,4,1,,,405.0537,8,up,0.2203,,1.5,0.3,"[2,1,3]",0.463278891,stimuli/card_100_transparent.png,100,8,0,8,0,1,,,,,,,,,,
,,,,615c65e4fa1c6b2e5a7d0971,A,2024-07-09_08h12.37.853,Slot Machine Game,2023.1.3,Win32,60.24096386,,,,,,,,,,,,,,,,,,,,,,,,,,,340,,,,,,,,,,,,,,,,,,,,,4,1,,,407.6,9,right,0.0345,,0.5,0.3,"[2,1,3]",0.337594656,stimuli/card_0_transparent.png,0,9,0,9,0,1,,,,,,,,,,
,,,,615c65e4fa1c6b2e5a7d0971,A,2024-07-09_08h12.37.853,Slot Machine Game,2023.1.3,Win32,60.24096386,,,,,,,,,,,,,,,,,,,,,,,,,,,340,,,,,,,,,,,,,,,,,,,,,4,1,,,408.9645,10,right,0.1537,,1,0.3,"[2,1,3]",0.435594471,stimuli/card_0_transparent.png,0,10,0,10,0,1,,,,,,,,,,
,,,,615c65e4fa1c6b2e5a7d0971,A,2024-07-09_08h12.37.853,Slot Machine Game,2023.1.3,Win32,60.24096386,,,,,,,,,,,,,,,,,,,,,,,,,,,340,,,,,,,,,,,,,,,,,,,,,4,1,,,410.9449,11,right,0.1672,,1.5,0.3,"[2,1,3]",0.307313302,stimuli/card_0_transparent.png,0,11,0,11,0,1,,,,,,,,,,
,,,,615c65e4fa1c6b2e5a7d0971,A,2024-07-09_08h12.37.853,Slot Machine Game,2023.1.3,Win32,60.24096386,,,,,,,,,,,,,,,,,,,,,,,,,,,350,,,,,,,,,,,,,,,,,,,,,4,1,,,413.4414,12,left,0.185,,1,0.3,"[2,3,1]",0.780974858,stimuli/card_10_transparent.png,10,12,0,12,0,1,,,,,,,,,,
,,,,615c65e4fa1c6b2e5a7d0971,A,2024-07-09_08h12.37.853,Slot Machine Game,2023.1.3,Win32,60.24096386,,,,,,,,,,,,,,,,,,,,,,,,,,,360,,,,,,,,,,,,,,,,,,,,,4,1,,,415.4551,13,left,0.0018,,1,0.3,"[2,3,1]",0.747452966,stimuli/card_10_transparent.png,10,13,0,13,0,1,,,,,,,,,,
,,,,615c65e4fa1c6b2e5a7d0971,A,2024-07-09_08h12.37.853,Slot Machine Game,2023.1.3,Win32,60.24096386,,,,,,,,,,,,,,,,,,,,,,,,,,,370,,,,,,,,,,,,,,,,,,,,,4,1,,,417.2858,14,left,1.0817,,1,0.3,"[2,3,1]",0.960075599,stimuli/card_10_transparent.png,10,14,0,14,0,1,,,,,,,,,,
,,,,615c65e4fa1c6b2e5a7d0971,A,2024-07-09_08h12.37.853,Slot Machine Game,2023.1.3,Win32,60.24096386,,,,,,,,,,,,,,,,,,,,,,,,,,,,,,,,,,,420.1984,,,,,,,,,,,,,,,,,,,,,,,,,,,,,,,,,"[310,240,860,370]",3,0,3,0,1,,,,
,,,,615c65e4fa1c6b2e5a7d0971,A,2024-07-09_08h12.37.853,Slot Machine Game,2023.1.3,Win32,60.24096386,,,,,,,,,,,,,,,,,,,,,,,,,,,10,,,,,,,,,,,,,,,,,,,,,5,2,"[6,15]","[[1,3,2],[3,2,1]]",425.2063,0,right,1.1328,,0.5,0.3,"[1,3,2]",0.682230844,stimuli/card_10_transparent.png,10,0,0,0,0,1,,,,,,,,,,
,,,,615c65e4fa1c6b2e5a7d0971,A,2024-07-09_08h12.37.853,Slot Machine Game,2023.1.3,Win32,60.24096386,,,,,,,,,,,,,,,,,,,,,,,,,,,110,,,,,,,,,,,,,,,,,,,,,5,2,,,427.654,1,left,0.1171,,0.5,0.3,"[1,3,2]",0.464917163,stimuli/card_100_transparent.png,100,1,0,1,0,1,,,,,,,,,,
,,,,615c65e4fa1c6b2e5a7d0971,A,2024-07-09_08h12.37.853,Slot Machine Game,2023.1.3,Win32,60.24096386,,,,,,,,,,,,,,,,,,,,,,,,,,,210,,,,,,,,,,,,,,,,,,,,,5,2,,,429.1019,2,left,0.1338,,1,0.3,"[1,3,2]",0.971519712,stimuli/card_100_transparent.png,100,2,0,2,0,1,,,,,,,,,,
,,,,615c65e4fa1c6b2e5a7d0971,A,2024-07-09_08h12.37.853,Slot Machine Game,2023.1.3,Win32,60.24096386,,,,,,,,,,,,,,,,,,,,,,,,,,,220,,,,,,,,,,,,,,,,,,,,,5,2,,,431.0658,3,left,0.1,,0.5,0.3,"[1,3,2]",0.137708875,stimuli/card_10_transparent.png,10,3,0,3,0,1,,,,,,,,,,
,,,,615c65e4fa1c6b2e5a7d0971,A,2024-07-09_08h12.37.853,Slot Machine Game,2023.1.3,Win32,60.24096386,,,,,,,,,,,,,,,,,,,,,,,,,,,320,,,,,,,,,,,,,,,,,,,,,5,2,,,432.497,4,left,0.0506,,1.5,0.3,"[1,3,2]",0.629625713,stimuli/card_100_transparent.png,100,4,0,4,0,1,,,,,,,,,,
,,,,615c65e4fa1c6b2e5a7d0971,A,2024-07-09_08h12.37.853,Slot Machine Game,2023.1.3,Win32,60.24096386,,,,,,,,,,,,,,,,,,,,,,,,,,,330,,,,,,,,,,,,,,,,,,,,,5,2,,,434.8768,5,right,0.1852,,1,0.3,"[1,3,2]",0.659739314,stimuli/card_10_transparent.png,10,5,0,5,0,1,,,,,,,,,,
,,,,615c65e4fa1c6b2e5a7d0971,A,2024-07-09_08h12.37.853,Slot Machine Game,2023.1.3,Win32,60.24096386,,,,,,,,,,,,,,,,,,,,,,,,,,,330,,,,,,,,,,,,,,,,,,,,,5,2,,,436.8907,6,left,0.4531,,1.5,0.3,"[3,2,1]",0.597291453,stimuli/card_0_transparent.png,0,6,0,6,0,1,,,,,,,,,,
,,,,615c65e4fa1c6b2e5a7d0971,A,2024-07-09_08h12.37.853,Slot Machine Game,2023.1.3,Win32,60.24096386,,,,,,,,,,,,,,,,,,,,,,,,,,,330,,,,,,,,,,,,,,,,,,,,,5,2,,,439.6699,7,left,0.6853,,1,0.3,"[3,2,1]",0.936271439,stimuli/card_0_transparent.png,0,7,0,7,0,1,,,,,,,,,,
,,,,615c65e4fa1c6b2e5a7d0971,A,2024-07-09_08h12.37.853,Slot Machine Game,2023.1.3,Win32,60.24096386,,,,,,,,,,,,,,,,,,,,,,,,,,,330,,,,,,,,,,,,,,,,,,,,,5,2,,,442.1832,8,left,0.0839,,1,0.3,"[3,2,1]",0.253064754,stimuli/card_0_transparent.png,0,8,0,8,0,1,,,,,,,,,,
,,,,615c65e4fa1c6b2e5a7d0971,A,2024-07-09_08h12.37.853,Slot Machine Game,2023.1.3,Win32,60.24096386,,,,,,,,,,,,,,,,,,,,,,,,,,,330,,,,,,,,,,,,,,,,,,,,,5,2,,,444.0969,9,left,0.0169,,0.5,0.3,"[3,2,1]",0.210022622,stimuli/card_0_transparent.png,0,9,0,9,0,1,,,,,,,,,,
,,,,615c65e4fa1c6b2e5a7d0971,A,2024-07-09_08h12.37.853,Slot Machine Game,2023.1.3,Win32,60.24096386,,,,,,,,,,,,,,,,,,,,,,,,,,,330,,,,,,,,,,,,,,,,,,,,,5,2,,,445.4448,10,right,0.267,,0.5,0.3,"[3,2,1]",0.057670497,stimuli/card_0_transparent.png,0,10,0,10,0,1,,,,,,,,,,
,,,,615c65e4fa1c6b2e5a7d0971,A,2024-07-09_08h12.37.853,Slot Machine Game,2023.1.3,Win32,60.24096386,,,,,,,,,,,,,,,,,,,,,,,,,,,430,,,,,,,,,,,,,,,,,,,,,5,2,,,447.0426,11,right,0.8679,,1.5,0.3,"[3,2,1]",0.978135508,stimuli/card_100_transparent.png,100,11,0,11,0,1,,,,,,,,,,
,,,,615c65e4fa1c6b2e5a7d0971,A,2024-07-09_08h12.37.853,Slot Machine Game,2023.1.3,Win32,60.24096386,,,,,,,,,,,,,,,,,,,,,,,,,,,530,,,,,,,,,,,,,,,,,,,,,5,2,,,450.2378,12,right,0.1005,,1,0.3,"[3,2,1]",0.283598521,stimuli/card_100_transparent.png,100,12,0,12,0,1,,,,,,,,,,
,,,,615c65e4fa1c6b2e5a7d0971,A,2024-07-09_08h12.37.853,Slot Machine Game,2023.1.3,Win32,60.24096386,,,,,,,,,,,,,,,,,,,,,,,,,,,540,,,,,,,,,,,,,,,,,,,,,5,2,,,452.1683,13,left,0.0217,,1,0.3,"[3,2,1]",0.132425076,stimuli/card_10_transparent.png,10,13,0,13,0,1,,,,,,,,,,
,,,,615c65e4fa1c6b2e5a7d0971,A,2024-07-09_08h12.37.853,Slot Machine Game,2023.1.3,Win32,60.24096386,,,,,,,,,,,,,,,,,,,,,,,,,,,550,,,,,,,,,,,,,,,,,,,,,5,2,,,454.0161,14,up,0.0162,,1.5,0.3,"[3,2,1]",0.5241472,stimuli/card_10_transparent.png,10,14,0,14,0,1,,,,,,,,,,
,,,,615c65e4fa1c6b2e5a7d0971,A,2024-07-09_08h12.37.853,Slot Machine Game,2023.1.3,Win32,60.24096386,,,,,,,,,,,,,,,,,,,,,,,,,,,,,,,,,,,456.3623,,,,,,,,,,,,,,,,,,,,,,,,,,,,,,,,,"[310,240,860,370,550]",4,0,4,0,1,,,,
,,,,615c65e4fa1c6b2e5a7d0971,A,2024-07-09_08h12.37.853,Slot Machine Game,2023.1.3,Win32,60.24096386,,,,,,,,,,,,,,,,,,,,,,,,,,,100,,,,,,,,,,,,,,,,,,,,,6,4,"[7,15]","[[2,3,1],[1,2,3]]",461.3781,0,right,1.1818,,0.5,0.3,"[2,3,1]",0.647546419,stimuli/card_100_transparent.png,100,0,0,0,0,1,,,,,,,,,,
,,,,615c65e4fa1c6b2e5a7d0971,A,2024-07-09_08h12.37.853,Slot Machine Game,2023.1.3,Win32,60.24096386,,,,,,,,,,,,,,,,,,,,,,,,,,,200,,,,,,,,,,,,,,,,,,,,,6,4,,,463.8846,1,right,3.4484,,0.5,0.3,"[2,3,1]",0.746999402,stimuli/card_100_transparent.png,100,1,0,1,0,1,,,,,,,,,,
,,,,615c65e4fa1c6b2e5a7d0971,A,2024-07-09_08h12.37.853,Slot Machine Game,2023.1.3,Win32,60.24096386,,,,,,,,,,,,,,,,,,,,,,,,,,,300,,,,,,,,,,,,,,,,,,,,,6,4,,,468.6611,2,right,1.1823,,1.5,0.3,"[2,3,1]",0.872237028,stimuli/card_100_transparent.png,100,2,0,2,0,1,,,,,,,,,,
,,,,615c65e4fa1c6b2e5a7d0971,A,2024-07-09_08h12.37.853,Slot Machine Game,2023.1.3,Win32,60.24096386,,,,,,,,,,,,,,,,,,,,,,,,,,,400,,,,,,,,,,,,,,,,,,,,,6,4,,,472.1726,3,right,0.32,,1,0.3,"[2,3,1]",0.798293638,stimuli/card_100_transparent.png,100,3,0,3,0,1,,,,,,,,,,
,,,,615c65e4fa1c6b2e5a7d0971,A,2024-07-09_08h12.37.853,Slot Machine Game,2023.1.3,Win32,60.24096386,,,,,,,,,,,,,,,,,,,,,,,,,,,500,,,,,,,,,,,,,,,,,,,,,6,4,,,474.3196,4,right,0.3697,,1,0.3,"[2,3,1]",0.500965574,stimuli/card_100_transparent.png,100,4,0,4,0,1,,,,,,,,,,
,,,,615c65e4fa1c6b2e5a7d0971,A,2024-07-09_08h12.37.853,Slot Machine Game,2023.1.3,Win32,60.24096386,,,,,,,,,,,,,,,,,,,,,,,,,,,600,,,,,,,,,,,,,,,,,,,,,6,4,,,476.5163,5,right,0.117,,1.5,0.3,"[2,3,1]",0.82479699,stimuli/card_100_transparent.png,100,5,0,5,0,1,,,,,,,,,,
,,,,615c65e4fa1c6b2e5a7d0971,A,2024-07-09_08h12.37.853,Slot Machine Game,2023.1.3,Win32,60.24096386,,,,,,,,,,,,,,,,,,,,,,,,,,,700,,,,,,,,,,,,,,,,,,,,,6,4,,,478.9628,6,right,0.1839,,0.5,0.3,"[2,3,1]",0.388836609,stimuli/card_100_transparent.png,100,6,0,6,0,1,,,,,,,,,,
,,,,615c65e4fa1c6b2e5a7d0971,A,2024-07-09_08h12.37.853,Slot Machine Game,2023.1.3,Win32,60.24096386,,,,,,,,,,,,,,,,,,,,,,,,,,,700,,,,,,,,,,,,,,,,,,,,,6,4,,,480.4772,7,right,0.4501,,1.5,0.3,"[1,2,3]",0.486670365,stimuli/card_0_transparent.png,0,7,0,7,0,1,,,,,,,,,,
,,,,615c65e4fa1c6b2e5a7d0971,A,2024-07-09_08h12.37.853,Slot Machine Game,2023.1.3,Win32,60.24096386,,,,,,,,,,,,,,,,,,,,,,,,,,,700,,,,,,,,,,,,,,,,,,,,,6,4,,,483.2566,8,right,0.4002,,1.5,0.3,"[1,2,3]",0.823284548,stimuli/card_0_transparent.png,0,8,0,8,0,1,,,,,,,,,,
,,,,615c65e4fa1c6b2e5a7d0971,A,2024-07-09_08h12.37.853,Slot Machine Game,2023.1.3,Win32,60.24096386,,,,,,,,,,,,,,,,,,,,,,,,,,,700,,,,,,,,,,,,,,,,,,,,,6,4,,,485.9857,9,right,0.2501,,0.5,0.3,"[1,2,3]",0.348670813,stimuli/card_0_transparent.png,0,9,0,9,0,1,,,,,,,,,,
,,,,615c65e4fa1c6b2e5a7d0971,A,2024-07-09_08h12.37.853,Slot Machine Game,2023.1.3,Win32,60.24096386,,,,,,,,,,,,,,,,,,,,,,,,,,,700,,,,,,,,,,,,,,,,,,,,,6,4,,,487.567,10,right,1.9312,,0.5,0.3,"[1,2,3]",0.668382148,stimuli/card_0_transparent.png,0,10,0,10,0,1,,,,,,,,,,
,,,,615c65e4fa1c6b2e5a7d0971,A,2024-07-09_08h12.37.853,Slot Machine Game,2023.1.3,Win32,60.24096386,,,,,,,,,,,,,,,,,,,,,,,,,,,700,,,,,,,,,,,,,,,,,,,,,6,4,,,490.8288,11,right,1.5047,,0.5,0.3,"[1,2,3]",0.515643598,stimuli/card_0_transparent.png,0,11,0,11,0,1,,,,,,,,,,
,,,,615c65e4fa1c6b2e5a7d0971,A,2024-07-09_08h12.37.853,Slot Machine Game,2023.1.3,Win32,60.24096386,,,,,,,,,,,,,,,,,,,,,,,,,,,700,,,,,,,,,,,,,,,,,,,,,6,4,,,493.6582,12,right,0.0172,,1,0.3,"[1,2,3]",0.866176633,stimuli/card_0_transparent.png,0,12,0,12,0,1,,,,,,,,,,
,,,,615c65e4fa1c6b2e5a7d0971,A,2024-07-09_08h12.37.853,Slot Machine Game,2023.1.3,Win32,60.24096386,,,,,,,,,,,,,,,,,,,,,,,,,,,700,,,,,,,,,,,,,,,,,,,,,6,4,,,495.5055,13,right,0.1173,,1,0.3,"[1,2,3]",0.806188636,stimuli/card_0_transparent.png,0,13,0,13,0,1,,,,,,,,,,
,,,,615c65e4fa1c6b2e5a7d0971,A,2024-07-09_08h12.37.853,Slot Machine Game,2023.1.3,Win32,60.24096386,,,,,,,,,,,,,,,,,,,,,,,,,,,700,,,,,,,,,,,,,,,,,,,,,6,4,,,497.4525,14,right,0.3332,,1.5,0.3,"[1,2,3]",0.529792375,stimuli/card_0_transparent.png,0,14,0,14,0,1,,,,,,,,,,
,,,,615c65e4fa1c6b2e5a7d0971,A,2024-07-09_08h12.37.853,Slot Machine Game,2023.1.3,Win32,60.24096386,,,,,,,,,,,,,,,,,,,,,,,,,,,,,,,,,,,500.1156,,,,,,,,,,,,,,,,,,,,,,,,,,,,,,,,,"[310,240,860,370,550,700]",5,0,5,0,1,,,,
,,,,615c65e4fa1c6b2e5a7d0971,A,2024-07-09_08h12.37.853,Slot Machine Game,2023.1.3,Win32,60.24096386,,,,,,,,,,,,,,,,,,,,,,,,,,,0,,,,,,,,,,,,,,,,,,,,,7,10,"[10,15]","[[3,1,2],[1,3,2]]",505.1231,0,right,0.4172,,1.5,0.3,"[3,1,2]",0.038099912,stimuli/card_0_transparent.png,0,0,0,0,0,1,,,,,,,,,,
,,,,615c65e4fa1c6b2e5a7d0971,A,2024-07-09_08h12.37.853,Slot Machine Game,2023.1.3,Win32,60.24096386,,,,,,,,,,,,,,,,,,,,,,,,,,,10,,,,,,,,,,,,,,,,,,,,,7,10,,,507.8647,1,right,2.1473,,1,0.3,"[3,1,2]",0.359778739,stimuli/card_10_transparent.png,10,1,0,1,0,1,,,,,,,,,,
,,,,615c65e4fa1c6b2e5a7d0971,A,2024-07-09_08h12.37.853,Slot Machine Game,2023.1.3,Win32,60.24096386,,,,,,,,,,,,,,,,,,,,,,,,,,,10,,,,,,,,,,,,,,,,,,,,,7,10,,,511.8419,2,right,0.7733,,1.5,0.3,"[3,1,2]",0.060826645,stimuli/card_0_transparent.png,0,2,0,2,0,1,,,,,,,,,,
,,,,615c65e4fa1c6b2e5a7d0971,A,2024-07-09_08h12.37.853,Slot Machine Game,2023.1.3,Win32,60.24096386,,,,,,,,,,,,,,,,,,,,,,,,,,,20,,,,,,,,,,,,,,,,,,,,,7,10,,,514.9273,3,right,0.2531,,1,0.3,"[3,1,2]",0.562381645,stimuli/card_10_transparent.png,10,3,0,3,0,1,,,,,,,,,,
,,,,615c65e4fa1c6b2e5a7d0971,A,2024-07-09_08h12.37.853,Slot Machine Game,2023.1.3,Win32,60.24096386,,,,,,,,,,,,,,,,,,,,,,,,,,,30,,,,,,,,,,,,,,,,,,,,,7,10,,,517.0076,4,right,1.2656,,1.5,0.3,"[3,1,2]",0.772763338,stimuli/card_10_transparent.png,10,4,0,4,0,1,,,,,,,,,,
,,,,615c65e4fa1c6b2e5a7d0971,A,2024-07-09_08h12.37.853,Slot Machine Game,2023.1.3,Win32,60.24096386,,,,,,,,,,,,,,,,,,,,,,,,,,,130,,,,,,,,,,,,,,,,,,,,,7,10,,,520.6022,5,right,0.2173,,1,0.3,"[3,1,2]",0.19088597,stimuli/card_100_transparent.png,100,5,0,5,0,1,,,,,,,,,,
,,,,615c65e4fa1c6b2e5a7d0971,A,2024-07-09_08h12.37.853,Slot Machine Game,2023.1.3,Win32,60.24096386,,,,,,,,,,,,,,,,,,,,,,,,,,,140,,,,,,,,,,,,,,,,,,,,,7,10,,,522.6494,6,right,1.1686,,1,0.3,"[3,1,2]",0.64106406,stimuli/card_10_transparent.png,10,6,0,6,0,1,,,,,,,,,,
,,,,615c65e4fa1c6b2e5a7d0971,A,2024-07-09_08h12.37.853,Slot Machine Game,2023.1.3,Win32,60.24096386,,,,,,,,,,,,,,,,,,,,,,,,,,,150,,,,,,,,,,,,,,,,,,,,,7,10,,,525.645,7,right,0.1856,,1.5,0.3,"[3,1,2]",0.825586735,stimuli/card_10_transparent.png,10,7,0,7,0,1,,,,,,,,,,
,,,,615c65e4fa1c6b2e5a7d0971,A,2024-07-09_08h12.37.853,Slot Machine Game,2023.1.3,Win32,60.24096386,,,,,,,,,,,,,,,,,,,,,,,,,,,160,,,,,,,,,,,,,,,,,,,,,7,10,,,528.1581,8,right,0.8159,,0.5,0.3,"[3,1,2]",0.851227922,stimuli/card_10_transparent.png,10,8,0,8,0,1,,,,,,,,,,
,,,,615c65e4fa1c6b2e5a7d0971,A,2024-07-09_08h12.37.853,Slot Machine Game,2023.1.3,Win32,60.24096386,,,,,,,,,,,,,,,,,,,,,,,,,,,170,,,,,,,,,,,,,,,,,,,,,7,10,,,530.3049,9,right,0.814,,1,0.3,"[3,1,2]",0.849762863,stimuli/card_10_transparent.png,10,9,0,9,0,1,,,,,,,,,,
,,,,615c65e4fa1c6b2e5a7d0971,A,2024-07-09_08h12.37.853,Slot Machine Game,2023.1.3,Win32,60.24096386,,,,,,,,,,,,,,,,,,,,,,,,,,,270,,,,,,,,,,,,,,,,,,,,,7,10,,,532.951,10,right,0.0005,,0.5,0.3,"[1,3,2]",0.187992567,stimuli/card_100_transparent.png,100,10,0,10,0,1,,,,,,,,,,
,,,,615c65e4fa1c6b2e5a7d0971,A,2024-07-09_08h12.37.853,Slot Machine Game,2023.1.3,Win32,60.24096386,,,,,,,,,,,,,,,,,,,,,,,,,,,370,,,,,,,,,,,,,,,,,,,,,7,10,,,534.2822,11,right,0.6059,,1,0.3,"[1,3,2]",0.149396705,stimuli/card_100_transparent.png,100,11,0,11,0,1,,,,,,,,,,
,,,,615c65e4fa1c6b2e5a7d0971,A,2024-07-09_08h12.37.853,Slot Machine Game,2023.1.3,Win32,60.24096386,,,,,,,,,,,,,,,,,,,,,,,,,,,380,,,,,,,,,,,,,,,,,,,,,7,10,,,536.7122,12,right,0.251,,1,0.3,"[1,3,2]",0.383251092,stimuli/card_10_transparent.png,10,12,0,12,0,1,,,,,,,,,,
,,,,615c65e4fa1c6b2e5a7d0971,A,2024-07-09_08h12.37.853,Slot Machine Game,2023.1.3,Win32,60.24096386,,,,,,,,,,,,,,,,,,,,,,,,,,,390,,,,,,,,,,,,,,,,,,,,,7,10,,,538.7924,13,right,0.6995,,0.5,0.3,"[1,3,2]",0.729560092,stimuli/card_10_transparent.png,10,13,0,13,0,1,,,,,,,,,,
,,,,615c65e4fa1c6b2e5a7d0971,A,2024-07-09_08h12.37.853,Slot Machine Game,2023.1.3,Win32,60.24096386,,,,,,,,,,,,,,,,,,,,,,,,,,,400,,,,,,,,,,,,,,,,,,,,,7,10,,,540.823,14,right,1.4514,,1,0.3,"[1,3,2]",0.337408719,stimuli/card_10_transparent.png,10,14,0,14,0,1,,,,,,,,,,
,,,,615c65e4fa1c6b2e5a7d0971,A,2024-07-09_08h12.37.853,Slot Machine Game,2023.1.3,Win32,60.24096386,,,,,,,,,,,,,,,,,,,,,,,,,,,,,,,,,,,544.1016,,,,,,,,,,,,,,,,,,,,,,,,,,,,,,,,,"[310,240,860,370,550,700,400]",6,0,6,0,1,,,,
,,,,615c65e4fa1c6b2e5a7d0971,A,2024-07-09_08h12.37.853,Slot Machine Game,2023.1.3,Win32,60.24096386,,,,,,,,,,,,,,,,,,,,,,,,,,,100,,,,,,,,,,,,,,,,,,,,,8,7,"[9,15]","[[1,3,2],[2,3,1]]",549.1108,0,right,0.1508,,1,0.3,"[1,3,2]",0.135301827,stimuli/card_100_transparent.png,100,0,0,0,0,1,,,,,,,,,,
,,,,615c65e4fa1c6b2e5a7d0971,A,2024-07-09_08h12.37.853,Slot Machine Game,2023.1.3,Win32,60.24096386,,,,,,,,,,,,,,,,,,,,,,,,,,,100,,,,,,,,,,,,,,,,,,,,,8,7,,,551.0747,1,right,0.5035,,1,0.3,"[1,3,2]",0.011391722,stimuli/card_0_transparent.png,0,1,0,1,0,1,,,,,,,,,,
,,,,615c65e4fa1c6b2e5a7d0971,A,2024-07-09_08h12.37.853,Slot Machine Game,2023.1.3,Win32,60.24096386,,,,,,,,,,,,,,,,,,,,,,,,,,,110,,,,,,,,,,,,,,,,,,,,,8,7,,,553.4045,2,right,0.2001,,1,0.3,"[1,3,2]",0.959978065,stimuli/card_10_transparent.png,10,2,0,2,0,1,,,,,,,,,,
,,,,615c65e4fa1c6b2e5a7d0971,A,2024-07-09_08h12.37.853,Slot Machine Game,2023.1.3,Win32,60.24096386,,,,,,,,,,,,,,,,,,,,,,,,,,,210,,,,,,,,,,,,,,,,,,,,,8,7,,,555.4349,3,right,0.1838,,1.5,0.3,"[1,3,2]",0.101698884,stimuli/card_100_transparent.png,100,3,0,3,0,1,,,,,,,,,,
,,,,615c65e4fa1c6b2e5a7d0971,A,2024-07-09_08h12.37.853,Slot Machine Game,2023.1.3,Win32,60.24096386,,,,,,,,,,,,,,,,,,,,,,,,,,,210,,,,,,,,,,,,,,,,,,,,,8,7,,,557.948,4,right,0.7397,,1,0.3,"[1,3,2]",0.07538682,stimuli/card_0_transparent.png,0,4,0,4,0,1,,,,,,,,,,
,,,,615c65e4fa1c6b2e5a7d0971,A,2024-07-09_08h12.37.853,Slot Machine Game,2023.1.3,Win32,60.24096386,,,,,,,,,,,,,,,,,,,,,,,,,,,220,,,,,,,,,,,,,,,,,,,,,8,7,,,560.5109,5,right,0.866,,1,0.3,"[1,3,2]",0.524007229,stimuli/card_10_transparent.png,10,5,0,5,0,1,,,,,,,,,,
,,,,615c65e4fa1c6b2e5a7d0971,A,2024-07-09_08h12.37.853,Slot Machine Game,2023.1.3,Win32,60.24096386,,,,,,,,,,,,,,,,,,,,,,,,,,,220,,,,,,,,,,,,,,,,,,,,,8,7,,,563.207,6,right,0.9018,,0.5,0.3,"[1,3,2]",0.029352399,stimuli/card_0_transparent.png,0,6,0,6,0,1,,,,,,,,,,
,,,,615c65e4fa1c6b2e5a7d0971,A,2024-07-09_08h12.37.853,Slot Machine Game,2023.1.3,Win32,60.24096386,,,,,,,,,,,,,,,,,,,,,,,,,,,230,,,,,,,,,,,,,,,,,,,,,8,7,,,565.437,7,right,0.5367,,0.5,0.3,"[1,3,2]",0.263234894,stimuli/card_10_transparent.png,10,7,0,7,0,1,,,,,,,,,,
,,,,615c65e4fa1c6b2e5a7d0971,A,2024-07-09_08h12.37.853,Slot Machine Game,2023.1.3,Win32,60.24096386,,,,,,,,,,,,,,,,,,,,,,,,,,,240,,,,,,,,,,,,,,,,,,,,,8,7,,,567.3011,8,right,0.5829,,0.5,0.3,"[1,3,2]",0.561267609,stimuli/card_10_transparent.png,10,8,0,8,0,1,,,,,,,,,,
,,,,615c65e4fa1c6b2e5a7d0971,A,2024-07-09_08h12.37.853,Slot Machine Game,2023.1.3,Win32,60.24096386,,,,,,,,,,,,,,,,,,,,,,,,,,,340,,,,,,,,,,,,,,,,,,,,,8,7,,,569.2148,9,right,0.1225,,1.5,0.3,"[2,3,1]",0.839922866,stimuli/card_100_transparent.png,100,9,0,9,0,1,,,,,,,,,,
,,,,615c65e4fa1c6b2e5a7d0971,A,2024-07-09_08h12.37.853,Slot Machine Game,2023.1.3,Win32,60.24096386,,,,,,,,,,,,,,,,,,,,,,,,,,,440,,,,,,,,,,,,,,,,,,,,,8,7,,,571.6613,10,right,0.1172,,0.5,0.3,"[2,3,1]",0.443866801,stimuli/card_100_transparent.png,100,10,0,10,0,1,,,,,,,,,,
,,,,615c65e4fa1c6b2e5a7d0971,A,2024-07-09_08h12.37.853,Slot Machine Game,2023.1.3,Win32,60.24096386,,,,,,,,,,,,,,,,,,,,,,,,,,,540,,,,,,,,,,,,,,,,,,,,,8,7,,,573.1093,11,right,0.6526,,0.5,0.3,"[2,3,1]",0.276251325,stimuli/card_100_transparent.png,100,11,0,11,0,1,,,,,,,,,,
,,,,615c65e4fa1c6b2e5a7d0971,A,2024-07-09_08h12.37.853,Slot Machine Game,2023.1.3,Win32,60.24096386,,,,,,,,,,,,,,,,,,,,,,,,,,,540,,,,,,,,,,,,,,,,,,,,,8,7,,,575.0896,12,up,0.6659,,1,0.3,"[2,3,1]",0.931936173,stimuli/card_0_transparent.png,0,12,0,12,0,1,,,,,,,,,,
,,,,615c65e4fa1c6b2e5a7d0971,A,2024-07-09_08h12.37.853,Slot Machine Game,2023.1.3,Win32,60.24096386,,,,,,,,,,,,,,,,,,,,,,,,,,,550,,,,,,,,,,,,,,,,,,,,,8,7,,,577.5861,13,left,0.1356,,1,0.3,"[2,3,1]",0.77344747,stimuli/card_10_transparent.png,10,13,0,13,0,1,,,,,,,,,,
,,,,615c65e4fa1c6b2e5a7d0971,A,2024-07-09_08h12.37.853,Slot Machine Game,2023.1.3,Win32,60.24096386,,,,,,,,,,,,,,,,,,,,,,,,,,,550,,,,,,,,,,,,,,,,,,,,,8,7,,,579.5498,14,up,0.4352,,1,0.3,"[2,3,1]",0.833148416,stimuli/card_0_transparent.png,0,14,0,14,0,1,,,,,,,,,,
,,,,615c65e4fa1c6b2e5a7d0971,A,2024-07-09_08h12.37.853,Slot Machine Game,2023.1.3,Win32,60.24096386,,,,,,,,,,,,,,,,,,,,,,,,,,,,,,,,,,,581.8132,,,,,,,,,,,,,,,,,,,,,,,,,,,,,,,,,"[310,240,860,370,550,700,400,550]",7,0,7,0,1,,,,
,,,,615c65e4fa1c6b2e5a7d0971,A,2024-07-09_08h12.37.853,Slot Machine Game,2023.1.3,Win32,60.24096386,,,,,,,,,,,,,,,,,,,,,,,,,,,10,,,,,,,,,,,,,,,,,,,,,9,9,[15],"[[3,1,2]]",586.8208,0,right,1.3998,,1.5,0.3,"[3,1,2]",0.275944517,stimuli/card_10_transparent.png,10,0,0,0,0,1,,,,,,,,,,
,,,,615c65e4fa1c6b2e5a7d0971,A,2024-07-09_08h12.37.853,Slot Machine Game,2023.1.3,Win32,60.24096386,,,,,,,,,,,,,,,,,,,,,,,,,,,20,,,,,,,,,,,,,,,,,,,,,9,9,,,590.5444,1,right,0.2172,,1.5,0.3,"[3,1,2]",0.875526948,stimuli/card_10_transparent.png,10,1,0,1,0,1,,,,,,,,,,
,,,,615c65e4fa1c6b2e5a7d0971,A,2024-07-09_08h12.37.853,Slot Machine Game,2023.1.3,Win32,60.24096386,,,,,,,,,,,,,,,,,,,,,,,,,,,30,,,,,,,,,,,,,,,,,,,,,9,9,,,593.0801,2,right,0.2899,,0.5,0.3,"[3,1,2]",0.263728799,stimuli/card_10_transparent.png,10,2,0,2,0,1,,,,,,,,,,
,,,,615c65e4fa1c6b2e5a7d0971,A,2024-07-09_08h12.37.853,Slot Machine Game,2023.1.3,Win32,60.24096386,,,,,,,,,,,,,,,,,,,,,,,,,,,40,,,,,,,,,,,,,,,,,,,,,9,9,,,594.6946,3,right,0.1034,,1,0.3,"[3,1,2]",0.762306455,stimuli/card_10_transparent.png,10,3,0,3,0,1,,,,,,,,,,
,,,,615c65e4fa1c6b2e5a7d0971,A,2024-07-09_08h12.37.853,Slot Machine Game,2023.1.3,Win32,60.24096386,,,,,,,,,,,,,,,,,,,,,,,,,,,50,,,,,,,,,,,,,,,,,,,,,9,9,,,596.625,4,right,0.0049,,1,0.3,"[3,1,2]",0.87500509,stimuli/card_10_transparent.png,10,4,0,4,0,1,,,,,,,,,,
,,,,615c65e4fa1c6b2e5a7d0971,A,2024-07-09_08h12.37.853,Slot Machine Game,2023.1.3,Win32,60.24096386,,,,,,,,,,,,,,,,,,,,,,,,,,,60,,,,,,,,,,,,,,,,,,,,,9,9,,,598.4556,5,right,0.1003,,1.5,0.3,"[3,1,2]",0.426476613,stimuli/card_10_transparent.png,10,5,0,5,0,1,,,,,,,,,,
,,,,615c65e4fa1c6b2e5a7d0971,A,2024-07-09_08h12.37.853,Slot Machine Game,2023.1.3,Win32,60.24096386,,,,,,,,,,,,,,,,,,,,,,,,,,,70,,,,,,,,,,,,,,,,,,,,,9,9,,,600.8856,6,right,0.1335,,1,0.3,"[3,1,2]",0.677968816,stimuli/card_10_transparent.png,10,6,0,6,0,1,,,,,,,,,,
,,,,615c65e4fa1c6b2e5a7d0971,A,2024-07-09_08h12.37.853,Slot Machine Game,2023.1.3,Win32,60.24096386,,,,,,,,,,,,,,,,,,,,,,,,,,,80,,,,,,,,,,,,,,,,,,,,,9,9,,,602.8492,7,right,1.2986,,1,0.3,"[3,1,2]",0.35058789,stimuli/card_10_transparent.png,10,7,0,7,0,1,,,,,,,,,,
,,,,615c65e4fa1c6b2e5a7d0971,A,2024-07-09_08h12.37.853,Slot Machine Game,2023.1.3,Win32,60.24096386,,,,,,,,,,,,,,,,,,,,,,,,,,,180,,,,,,,,,,,,,,,,,,,,,9,9,,,605.9782,8,up,1.2396,,1,0.3,"[3,1,2]",0.546471514,stimuli/card_100_transparent.png,100,8,0,8,0,1,,,,,,,,,,
,,,,615c65e4fa1c6b2e5a7d0971,A,2024-07-09_08h12.37.853,Slot Machine Game,2023.1.3,Win32,60.24096386,,,,,,,,,,,,,,,,,,,,,,,,,,,280,,,,,,,,,,,,,,,,,,,,,9,9,,,609.0402,9,up,2.6664,,1,0.3,"[3,1,2]",0.922331864,stimuli/card_100_transparent.png,100,9,0,9,0,1,,,,,,,,,,
,,,,615c65e4fa1c6b2e5a7d0971,A,2024-07-09_08h12.37.853,Slot Machine Game,2023.1.3,Win32,60.24096386,,,,,,,,,,,,,,,,,,,,,,,,,,,380,,,,,,,,,,,,,,,,,,,,,9,9,,,613.5339,10,up,0.1578,,1.5,0.3,"[3,1,2]",0.873158439,stimuli/card_100_transparent.png,100,10,0,10,0,1,,,,,,,,,,
,,,,615c65e4fa1c6b2e5a7d0971,A,2024-07-09_08h12.37.853,Slot Machine Game,2023.1.3,Win32,60.24096386,,,,,,,,,,,,,,,,,,,,,,,,,,,390,,,,,,,,,,,,,,,,,,,,,9,9,,,616.0135,11,up,0.4332,,1.5,0.3,"[3,1,2]",0.135391027,stimuli/card_10_transparent.png,10,11,0,11,0,1,,,,,,,,,,
,,,,615c65e4fa1c6b2e5a7d0971,A,2024-07-09_08h12.37.853,Slot Machine Game,2023.1.3,Win32,60.24096386,,,,,,,,,,,,,,,,,,,,,,,,,,,490,,,,,,,,,,,,,,,,,,,,,9,9,,,618.7763,12,up,0.1335,,1,0.3,"[3,1,2]",0.20364293,stimuli/card_100_transparent.png,100,12,0,12,0,1,,,,,,,,,,
,,,,615c65e4fa1c6b2e5a7d0971,A,2024-07-09_08h12.37.853,Slot Machine Game,2023.1.3,Win32,60.24096386,,,,,,,,,,,,,,,,,,,,,,,,,,,490,,,,,,,,,,,,,,,,,,,,,9,9,,,620.7401,13,up,0.4003,,1.5,0.3,"[3,1,2]",0.037151199,stimuli/card_0_transparent.png,0,13,0,13,0,1,,,,,,,,,,
,,,,615c65e4fa1c6b2e5a7d0971,A,2024-07-09_08h12.37.853,Slot Machine Game,2023.1.3,Win32,60.24096386,,,,,,,,,,,,,,,,,,,,,,,,,,,590,,,,,,,,,,,,,,,,,,,,,9,9,,,623.4692,14,up,1.3851,,0.5,0.3,"[3,1,2]",0.991003232,stimuli/card_100_transparent.png,100,14,0,14,0,1,,,,,,,,,,
,,,,615c65e4fa1c6b2e5a7d0971,A,2024-07-09_08h12.37.853,Slot Machine Game,2023.1.3,Win32,60.24096386,,,,,,,,,,,,,,,,,,,,,,,,,,,,,,,,,,,626.1822,,,,,,,,,,,,,,,,,,,,,,,,,,,,,,,,,"[310,240,860,370,550,700,400,550,590]",8,0,8,0,1,,,,
,,,,615c65e4fa1c6b2e5a7d0971,A,2024-07-09_08h12.37.853,Slot Machine Game,2023.1.3,Win32,60.24096386,,,,,,,,,,,,,,,,,,,,,,,,,,,0,,,,,,,,,,,,,,,,,,,,,10,6,"[4,10,15]","[[2,3,1],[1,3,2],[3,2,1]]",631.1897,0,up,1.283,,1.5,0.3,"[2,3,1]",0.606286368,stimuli/card_0_transparent.png,0,0,0,0,0,1,,,,,,,,,,
,,,,615c65e4fa1c6b2e5a7d0971,A,2024-07-09_08h12.37.853,Slot Machine Game,2023.1.3,Win32,60.24096386,,,,,,,,,,,,,,,,,,,,,,,,,,,100,,,,,,,,,,,,,,,,,,,,,10,6,,,634.7892,1,left,1.0329,,1.5,0.3,"[2,3,1]",0.108251732,stimuli/card_100_transparent.png,100,1,0,1,0,1,,,,,,,,,,
,,,,615c65e4fa1c6b2e5a7d0971,A,2024-07-09_08h12.37.853,Slot Machine Game,2023.1.3,Win32,60.24096386,,,,,,,,,,,,,,,,,,,,,,,,,,,,,,,,,,,,,,,,,,,,,,,,10,6,,,638.1418,2,,,,1.5,0.3,,,,,2,0,2,0,1,,,,,,,,,,
,,,,615c65e4fa1c6b2e5a7d0971,A,2024-07-09_08h12.37.853,Slot Machine Game,2023.1.3,Win32,60.24096386,,,,,,,,,,,,,,,,,,,,,,,,,,,,,,,,,,,,,,,,,,,,,,,,10,6,,,643.6614,3,,,,1.5,0.3,,,,,3,0,3,0,1,,,,,,,,,,
,,,,615c65e4fa1c6b2e5a7d0971,A,2024-07-09_08h12.37.853,Slot Machine Game,2023.1.3,Win32,60.24096386,,,,,,,,,,,,,,,,,,,,,,,,,,,,,,,,,,,,,,,,,,,,,,,,10,6,,,649.1658,4,,,,1.5,0.3,,,,,4,0,4,0,1,,,,,,,,,,
,,,,615c65e4fa1c6b2e5a7d0971,A,2024-07-09_08h12.37.853,Slot Machine Game,2023.1.3,Win32,60.24096386,,,,,,,,,,,,,,,,,,,,,,,,,,,,,,,,,,,,,,,,,,,,,,,,10,6,,,654.6745,5,,,,1.5,0.3,,,,,5,0,5,0,1,,,,,,,,,,
,,,,615c65e4fa1c6b2e5a7d0971,A,2024-07-09_08h12.37.853,Slot Machine Game,2023.1.3,Win32,60.24096386,,,,,,,,,,,,,,,,,,,,,,,,,,,,,,,,,,,,,,,,,,,,,,,,10,6,,,660.1831,6,,,,0.5,0.3,,,,,6,0,6,0,1,,,,,,,,,,
,,,,615c65e4fa1c6b2e5a7d0971,A,2024-07-09_08h12.37.853,Slot Machine Game,2023.1.3,Win32,60.24096386,,,,,,,,,,,,,,,,,,,,,,,,,,,,,,,,,,,,,,,,,,,,,,,,10,6,,,665.6917,7,,,,0.5,0.3,,,,,7,0,7,0,1,,,,,,,,,,
,,,,615c65e4fa1c6b2e5a7d0971,A,2024-07-09_08h12.37.853,Slot Machine Game,2023.1.3,Win32,60.24096386,,,,,,,,,,,,,,,,,,,,,,,,,,,,,,,,,,,,,,,,,,,,,,,,10,6,,,671.2004,8,,,,0.5,0.3,,,,,8,0,8,0,1,,,,,,,,,,
,,,,615c65e4fa1c6b2e5a7d0971,A,2024-07-09_08h12.37.853,Slot Machine Game,2023.1.3,Win32,60.24096386,,,,,,,,,,,,,,,,,,,,,,,,,,,,,,,,,,,,,,,,,,,,,,,,10,6,,,676.709,9,,,,1,0.3,,,,,9,0,9,0,1,,,,,,,,,,
,,,,615c65e4fa1c6b2e5a7d0971,A,2024-07-09_08h12.37.853,Slot Machine Game,2023.1.3,Win32,60.24096386,,,,,,,,,,,,,,,,,,,,,,,,,,,,,,,,,,,,,,,,,,,,,,,,10,6,,,682.2177,10,,,,0.5,0.3,,,,,10,0,10,0,1,,,,,,,,,,
,,,,615c65e4fa1c6b2e5a7d0971,A,2024-07-09_08h12.37.853,Slot Machine Game,2023.1.3,Win32,60.24096386,,,,,,,,,,,,,,,,,,,,,,,,,,,100,,,,,,,,,,,,,,,,,,,,,10,6,,,687.7264,11,up,1.6816,,0.5,0.3,"[1,3,2]",0.488787201,stimuli/card_0_transparent.png,0,11,0,11,0,1,,,,,,,,,,
,,,,615c65e4fa1c6b2e5a7d0971,A,2024-07-09_08h12.37.853,Slot Machine Game,2023.1.3,Win32,60.24096386,,,,,,,,,,,,,,,,,,,,,,,,,,,110,,,,,,,,,,,,,,,,,,,,,10,6,,,690.7381,12,up,1.1987,,0.5,0.3,"[3,2,1]",0.289134275,stimuli/card_10_transparent.png,10,12,0,12,0,1,,,,,,,,,,
,,,,615c65e4fa1c6b2e5a7d0971,A,2024-07-09_08h12.37.853,Slot Machine Game,2023.1.3,Win32,60.24096386,,,,,,,,,,,,,,,,,,,,,,,,,,,,,,,,,,,,,,,,,,,,,,,,10,6,,,693.268,13,,,,1.5,0.3,,,,,13,0,13,0,1,,,,,,,,,,
,,,,615c65e4fa1c6b2e5a7d0971,A,2024-07-09_08h12.37.853,Slot Machine Game,2023.1.3,Win32,60.24096386,,,,,,,,,,,,,,,,,,,,,,,,,,,,,,,,,,,,,,,,,,,,,,,,10,6,,,698.7808,14,,,,1,0.3,,,,,14,0,14,0,1,,,,,,,,,,
,,,,615c65e4fa1c6b2e5a7d0971,A,2024-07-09_08h12.37.853,Slot Machine Game,2023.1.3,Win32,60.24096386,,,,,,,,,,,,,,,,,,,,,,,,,,,,,,,,,,,704.2856,,,,,,,,,,,,,,,,,,,,,,,,,,,,,,,,,"[310,240,860,370,550,700,400,550,590,110]",9,0,9,0,1,,,,
,,,,615c65e4fa1c6b2e5a7d0971,A,2024-07-09_08h12.37.853,Slot Machine Game,2023.1.3,Win32,60.24096386,,,,,,,,,,,,,,,,,,,,,,,,,,,,,,,,,,,,,,,,,,,,,,,,,,,,,,,,,,,,,,,,,,,,,,,,,,9,"[310,240,860,370,550,700,400,550,590,110]",3.1,2024-07-09_08h24.31.520
