key_resp_welcome_started,key_resp_welcome_keys,key_resp_welcome_rt,key_resp_welcome_duration,prolific_id,path_id,date,expName,psychopyVersion,OS,frameRate,key_resp_instruction1_started,key_resp_instruction1_keys,key_resp_instruction1_rt,key_resp_instruction1_duration,key_resp_instruction2_started,key_resp_instruction2_keys,key_resp_instruction2_rt,key_resp_instruction2_duration,key_resp_instruction3_started,key_resp_instruction3_keys,key_resp_instruction3_rt,key_resp_instruction3_duration,key_resp_instruction4_started,key_resp_instruction4_keys,key_resp_instruction4_rt,key_resp_instruction4_duration,practiceCondition,practice_reward_seqs,practice_trial_started,practice_trial_num,practice_resp_rt,practice_resp_duration,practice_resp_keys,prac_presentationInterval,"practice_reward_seq: 2,1,3",reward_img,cumulative_reward,trial_reward,practice_trials.thisRepN,practice_trials.thisTrialN,practice_trials.thisN,practice_trials.thisIndex,practice_trials.ran,"practice_reward_seq: 2,3,1",block_break_started,"practice_reward_seq: 1,3,2","practice_reward_seq: 3,1,2",practice_end_time,practice_end_keys,practice_end_rt,practice_end_duration,main_instruction_text_started,block_condition,block_order_indices,main_instruction_keys,main_instruction_rt,main_instruction_duration,block_number,block_assignment,current_condition,main_reward_seqs,main_trial_started,main_trial_num,main_trial_keys,main_trial_rt,main_trial_duration,main_presentationInterval,reward_presentation_time,main_reward_seq,reward_rand_val,main_reward_img,current_reward,main_trials.thisRepN,main_trials.thisTrialN,main_trials.thisN,main_trials.thisIndex,main_trials.ran,block_reward,block.thisRepN,block.thisTrialN,block.thisN,block.thisIndex,block.ran,block_reward.length,block_reward_all,reward_amount,date_end_task
9.99999E-05,space,3.3834,,622a4d6cf143081ed1887ee5,A,2024-07-01_17h15.23.066,Slot Machine Game,2023.1.3,MacIntel,69.93006993,,,,,,,,,,,,,,,,,,,,,,,,,,,,,,,,,,,,,,,,,,,,,,,,,,,,,,,,,,,,,,,,,,,,,,,,,,,,,
,,,,622a4d6cf143081ed1887ee5,A,2024-07-01_17h15.23.066,Slot Machine Game,2023.1.3,MacIntel,69.93006993,3.3864,space,12.612,,,,,,,,,,,,,,,,,,,,,,,,,,,,,,,,,,,,,,,,,,,,,,,,,,,,,,,,,,,,,,,,,,,,,,,,,,
,,,,622a4d6cf143081ed1887ee5,A,2024-07-01_17h15.23.066,Slot Machine Game,2023.1.3,MacIntel,69.93006993,,,,,16.0021,space,29.234,,,,,,,,,,,,,,,,,,,,,,,,,,,,,,,,,,,,,,,,,,,,,,,,,,,,,,,,,,,,,,,,,,,,,,
,,,,622a4d6cf143081ed1887ee5,A,2024-07-01_17h15.23.066,Slot Machine Game,2023.1.3,MacIntel,69.93006993,,,,,,,,,45.242,space,13.6688,,,,,,,,,,,,,,,,,,,,,,,,,,,,,,,,,,,,,,,,,,,,,,,,,,,,,,,,,,,,,,,,,,
,,,,622a4d6cf143081ed1887ee5,A,2024-07-01_17h15.23.066,Slot Machine Game,2023.1.3,MacIntel,69.93006993,,,,,,,,,,,,,,,,,,,,,,,,,,,,,,,,,,,,,,,,,,,,,,,,,,,,,,,,,,,,,,,,,,,,,,,,,,,,,
,,,,622a4d6cf143081ed1887ee5,A,2024-07-01_17h15.23.066,Slot Machine Game,2023.1.3,MacIntel,69.93006993,,,,,,,,,,,,,200.6129,space,3.4746,,,,,,,,,,,,,,,,,,,,,,,,,,,,,,,,,,,,,,,,,,,,,,,,,,,,,,,,,,,,,,
,,,,622a4d6cf143081ed1887ee5,A,2024-07-01_17h15.23.066,Slot Machine Game,2023.1.3,MacIntel,69.93006993,,,,,,,,,,,,,,,,,"[9,15]","[[2,1,3],[2,3,1]]",204.0903,0,2.1533,,left,1.5,,stimuli/card_10_transparent.png,10,10,0,0,0,0,1,,,,,,,,,,,,,,,,,,,,,,,,,,,,,,,,,,,,,,,,,,,,
,,,,622a4d6cf143081ed1887ee5,A,2024-07-01_17h15.23.066,Slot Machine Game,2023.1.3,MacIntel,69.93006993,,,,,,,,,,,,,,,,,,,208.5387,1,0.7487,,up,1,,stimuli/card_100_transparent.png,110,100,1,0,1,0,1,,,,,,,,,,,,,,,,,,,,,,,,,,,,,,,,,,,,,,,,,,,,
,,,,622a4d6cf143081ed1887ee5,A,2024-07-01_17h15.23.066,Slot Machine Game,2023.1.3,MacIntel,69.93006993,,,,,,,,,,,,,,,,,,,211.0912,2,0.1106,,up,1.5,,stimuli/card_100_transparent.png,210,100,2,0,2,0,1,,,,,,,,,,,,,,,,,,,,,,,,,,,,,,,,,,,,,,,,,,,,
,,,,622a4d6cf143081ed1887ee5,A,2024-07-01_17h15.23.066,Slot Machine Game,2023.1.3,MacIntel,69.93006993,,,,,,,,,,,,,,,,,,,213.5049,3,0.2853,,up,1.5,,stimuli/card_100_transparent.png,310,100,3,0,3,0,1,,,,,,,,,,,,,,,,,,,,,,,,,,,,,,,,,,,,,,,,,,,,
,,,,622a4d6cf143081ed1887ee5,A,2024-07-01_17h15.23.066,Slot Machine Game,2023.1.3,MacIntel,69.93006993,,,,,,,,,,,,,,,,,,,216.0906,4,0.0663,,up,0.5,,stimuli/card_10_transparent.png,320,10,4,0,4,0,1,,,,,,,,,,,,,,,,,,,,,,,,,,,,,,,,,,,,,,,,,,,,
,,,,622a4d6cf143081ed1887ee5,A,2024-07-01_17h15.23.066,Slot Machine Game,2023.1.3,MacIntel,69.93006993,,,,,,,,,,,,,,,,,,,217.4592,5,0.7073,,up,1,,stimuli/card_100_transparent.png,420,100,5,0,5,0,1,,,,,,,,,,,,,,,,,,,,,,,,,,,,,,,,,,,,,,,,,,,,
,,,,622a4d6cf143081ed1887ee5,A,2024-07-01_17h15.23.066,Slot Machine Game,2023.1.3,MacIntel,69.93006993,,,,,,,,,,,,,,,,,,,219.9704,6,0.2435,,up,1.5,,stimuli/card_100_transparent.png,520,100,6,0,6,0,1,,,,,,,,,,,,,,,,,,,,,,,,,,,,,,,,,,,,,,,,,,,,
,,,,622a4d6cf143081ed1887ee5,A,2024-07-01_17h15.23.066,Slot Machine Game,2023.1.3,MacIntel,69.93006993,,,,,,,,,,,,,,,,,,,222.5232,7,0.1993,,up,1.5,,stimuli/card_100_transparent.png,620,100,7,0,7,0,1,,,,,,,,,,,,,,,,,,,,,,,,,,,,,,,,,,,,,,,,,,,,
,,,,622a4d6cf143081ed1887ee5,A,2024-07-01_17h15.23.066,Slot Machine Game,2023.1.3,MacIntel,69.93006993,,,,,,,,,,,,,,,,,,,225.0194,8,0.0867,,up,1.5,,stimuli/card_100_transparent.png,720,100,8,0,8,0,1,,,,,,,,,,,,,,,,,,,,,,,,,,,,,,,,,,,,,,,,,,,,
,,,,622a4d6cf143081ed1887ee5,A,2024-07-01_17h15.23.066,Slot Machine Game,2023.1.3,MacIntel,69.93006993,,,,,,,,,,,,,,,,,,,227.4109,9,0.0661,,up,1,,stimuli/card_0_transparent.png,720,0,9,0,9,0,1,,,,,,,,,,,,,,,,,,,,,,,,,,,,,,,,,,,,,,,,,,,,
,,,,622a4d6cf143081ed1887ee5,A,2024-07-01_17h15.23.066,Slot Machine Game,2023.1.3,MacIntel,69.93006993,,,,,,,,,,,,,,,,,,,229.2769,10,0.2201,,up,1,,stimuli/card_0_transparent.png,720,0,10,0,10,0,1,,,,,,,,,,,,,,,,,,,,,,,,,,,,,,,,,,,,,,,,,,,,
,,,,622a4d6cf143081ed1887ee5,A,2024-07-01_17h15.23.066,Slot Machine Game,2023.1.3,MacIntel,69.93006993,,,,,,,,,,,,,,,,,,,231.2924,11,0.0662,,right,1,,stimuli/card_100_transparent.png,820,100,11,0,11,0,1,,,,,,,,,,,,,,,,,,,,,,,,,,,,,,,,,,,,,,,,,,,,
,,,,622a4d6cf143081ed1887ee5,A,2024-07-01_17h15.23.066,Slot Machine Game,2023.1.3,MacIntel,69.93006993,,,,,,,,,,,,,,,,,,,233.1465,12,0.7397,,right,0.5,,stimuli/card_100_transparent.png,920,100,12,0,12,0,1,,,,,,,,,,,,,,,,,,,,,,,,,,,,,,,,,,,,,,,,,,,,
,,,,622a4d6cf143081ed1887ee5,A,2024-07-01_17h15.23.066,Slot Machine Game,2023.1.3,MacIntel,69.93006993,,,,,,,,,,,,,,,,,,,235.189,13,0.198,,right,1.5,,stimuli/card_100_transparent.png,1020,100,13,0,13,0,1,,,,,,,,,,,,,,,,,,,,,,,,,,,,,,,,,,,,,,,,,,,,
,,,,622a4d6cf143081ed1887ee5,A,2024-07-01_17h15.23.066,Slot Machine Game,2023.1.3,MacIntel,69.93006993,,,,,,,,,,,,,,,,,,,237.6835,14,0.4416,,right,0.5,,stimuli/card_10_transparent.png,1030,10,14,0,14,0,1,,,,,,,,,,,,,,,,,,,,,,,,,,,,,,,,,,,,,,,,,,,,
,,,,622a4d6cf143081ed1887ee5,A,2024-07-01_17h15.23.066,Slot Machine Game,2023.1.3,MacIntel,69.93006993,,,,,,,,,,,,,,,,,"[6,15]","[[1,3,2],[3,1,2]]",244.4257,0,1.3529,,left,1.5,,stimuli/card_100_transparent.png,100,100,0,0,0,0,1,,239.4306,,,,,,,,,,,,,,,,,,,,,,,,,,,,,,,,,,,,,,,,,,
,,,,622a4d6cf143081ed1887ee5,A,2024-07-01_17h15.23.066,Slot Machine Game,2023.1.3,MacIntel,69.93006993,,,,,,,,,,,,,,,,,,,248.0598,1,0.1984,,left,1.5,,stimuli/card_100_transparent.png,200,100,1,0,1,0,1,,,,,,,,,,,,,,,,,,,,,,,,,,,,,,,,,,,,,,,,,,,,
,,,,622a4d6cf143081ed1887ee5,A,2024-07-01_17h15.23.066,Slot Machine Game,2023.1.3,MacIntel,69.93006993,,,,,,,,,,,,,,,,,,,250.5476,2,0.0659,,left,1,,stimuli/card_0_transparent.png,200,0,2,0,2,0,1,,,,,,,,,,,,,,,,,,,,,,,,,,,,,,,,,,,,,,,,,,,,
,,,,622a4d6cf143081ed1887ee5,A,2024-07-01_17h15.23.066,Slot Machine Game,2023.1.3,MacIntel,69.93006993,,,,,,,,,,,,,,,,,,,252.3993,3,0.1748,,left,0.5,,stimuli/card_100_transparent.png,300,100,3,0,3,0,1,,,,,,,,,,,,,,,,,,,,,,,,,,,,,,,,,,,,,,,,,,,,
,,,,622a4d6cf143081ed1887ee5,A,2024-07-01_17h15.23.066,Slot Machine Game,2023.1.3,MacIntel,69.93006993,,,,,,,,,,,,,,,,,,,253.8812,4,0.333,,left,1.5,,stimuli/card_100_transparent.png,400,100,4,0,4,0,1,,,,,,,,,,,,,,,,,,,,,,,,,,,,,,,,,,,,,,,,,,,,
,,,,622a4d6cf143081ed1887ee5,A,2024-07-01_17h15.23.066,Slot Machine Game,2023.1.3,MacIntel,69.93006993,,,,,,,,,,,,,,,,,,,256.5058,5,3.7777,,left,1,,stimuli/card_100_transparent.png,500,100,5,0,5,0,1,,,,,,,,,,,,,,,,,,,,,,,,,,,,,,,,,,,,,,,,,,,,
,,,,622a4d6cf143081ed1887ee5,A,2024-07-01_17h15.23.066,Slot Machine Game,2023.1.3,MacIntel,69.93006993,,,,,,,,,,,,,,,,,,,262.0786,6,0.2546,,left,0.5,,stimuli/card_0_transparent.png,500,0,6,0,6,0,1,,,,,,,,,,,,,,,,,,,,,,,,,,,,,,,,,,,,,,,,,,,,
,,,,622a4d6cf143081ed1887ee5,A,2024-07-01_17h15.23.066,Slot Machine Game,2023.1.3,MacIntel,69.93006993,,,,,,,,,,,,,,,,,,,263.6326,7,0.4192,,left,1.5,,stimuli/card_0_transparent.png,500,0,7,0,7,0,1,,,,,,,,,,,,,,,,,,,,,,,,,,,,,,,,,,,,,,,,,,,,
,,,,622a4d6cf143081ed1887ee5,A,2024-07-01_17h15.23.066,Slot Machine Game,2023.1.3,MacIntel,69.93006993,,,,,,,,,,,,,,,,,,,266.3405,8,0.4201,,up,1,,stimuli/card_100_transparent.png,600,100,8,0,8,0,1,,,,,,,,,,,,,,,,,,,,,,,,,,,,,,,,,,,,,,,,,,,,
,,,,622a4d6cf143081ed1887ee5,A,2024-07-01_17h15.23.066,Slot Machine Game,2023.1.3,MacIntel,69.93006993,,,,,,,,,,,,,,,,,,,268.5682,9,0.1334,,up,0.5,,stimuli/card_100_transparent.png,700,100,9,0,9,0,1,,,,,,,,,,,,,,,,,,,,,,,,,,,,,,,,,,,,,,,,,,,,
,,,,622a4d6cf143081ed1887ee5,A,2024-07-01_17h15.23.066,Slot Machine Game,2023.1.3,MacIntel,69.93006993,,,,,,,,,,,,,,,,,,,270.014,10,0.334,,up,1,,stimuli/card_0_transparent.png,700,0,10,0,10,0,1,,,,,,,,,,,,,,,,,,,,,,,,,,,,,,,,,,,,,,,,,,,,
,,,,622a4d6cf143081ed1887ee5,A,2024-07-01_17h15.23.066,Slot Machine Game,2023.1.3,MacIntel,69.93006993,,,,,,,,,,,,,,,,,,,272.1626,11,1.1257,,right,0.5,,stimuli/card_10_transparent.png,710,10,11,0,11,0,1,,,,,,,,,,,,,,,,,,,,,,,,,,,,,,,,,,,,,,,,,,,,
,,,,622a4d6cf143081ed1887ee5,A,2024-07-01_17h15.23.066,Slot Machine Game,2023.1.3,MacIntel,69.93006993,,,,,,,,,,,,,,,,,,,274.5848,12,0.4399,,up,0.5,,stimuli/card_10_transparent.png,720,10,12,0,12,0,1,,,,,,,,,,,,,,,,,,,,,,,,,,,,,,,,,,,,,,,,,,,,
,,,,622a4d6cf143081ed1887ee5,A,2024-07-01_17h15.23.066,Slot Machine Game,2023.1.3,MacIntel,69.93006993,,,,,,,,,,,,,,,,,,,276.322,13,0.5096,,up,0.5,,stimuli/card_10_transparent.png,730,10,13,0,13,0,1,,,,,,,,,,,,,,,,,,,,,,,,,,,,,,,,,,,,,,,,,,,,
,,,,622a4d6cf143081ed1887ee5,A,2024-07-01_17h15.23.066,Slot Machine Game,2023.1.3,MacIntel,69.93006993,,,,,,,,,,,,,,,,,,,278.1346,14,0.8623,,right,1,,stimuli/card_10_transparent.png,740,10,14,0,14,0,1,,,,,,,,,,,,,,,,,,,,,,,,,,,,,,,,,,,,,,,,,,,,
,,,,622a4d6cf143081ed1887ee5,A,2024-07-01_17h15.23.066,Slot Machine Game,2023.1.3,MacIntel,69.93006993,,,,,,,,,,,,,,,,,,,,,,,,,,,,,,,,,,,280.7967,,,285.79,space,4.4878,,,,,,,,,,,,,,,,,,,,,,,,,,,,,,,,,,,,,
,,,,622a4d6cf143081ed1887ee5,A,2024-07-01_17h15.23.066,Slot Machine Game,2023.1.3,MacIntel,69.93006993,,,,,,,,,,,,,,,,,,,,,,,,,,,,,,,,,,,,,,,,,,290.2799,3,"[0,4,6,3,5,7,8,1,9,2]",space,3.2615,,,,,,,,,,,,,,,,,,,,,,,,,,,,,,,
,,,,622a4d6cf143081ed1887ee5,A,2024-07-01_17h15.23.066,Slot Machine Game,2023.1.3,MacIntel,69.93006993,,,,,,,,,,,,,,,,,,,,,,,,,,,10,,,,,,,,,,,,,,,,,,,,,1,1,"[12,15]","[[2,1,3],[2,3,1]]",293.5499,0,left,0.7466,,0.5,0.3,"[2,1,3]",0.818692927,stimuli/card_10_transparent.png,10,0,0,0,0,1,,,,,,,,,,
,,,,622a4d6cf143081ed1887ee5,A,2024-07-01_17h15.23.066,Slot Machine Game,2023.1.3,MacIntel,69.93006993,,,,,,,,,,,,,,,,,,,,,,,,,,,110,,,,,,,,,,,,,,,,,,,,,1,1,,,295.6029,1,up,0.8378,,1.5,0.3,"[2,1,3]",0.912833932,stimuli/card_100_transparent.png,100,1,0,1,0,1,,,,,,,,,,
,,,,622a4d6cf143081ed1887ee5,A,2024-07-01_17h15.23.066,Slot Machine Game,2023.1.3,MacIntel,69.93006993,,,,,,,,,,,,,,,,,,,,,,,,,,,210,,,,,,,,,,,,,,,,,,,,,1,1,,,298.7348,2,up,1.5275,,1,0.3,"[2,1,3]",0.785400552,stimuli/card_100_transparent.png,100,2,0,2,0,1,,,,,,,,,,
,,,,622a4d6cf143081ed1887ee5,A,2024-07-01_17h15.23.066,Slot Machine Game,2023.1.3,MacIntel,69.93006993,,,,,,,,,,,,,,,,,,,,,,,,,,,220,,,,,,,,,,,,,,,,,,,,,1,1,,,302.0756,3,up,0.7107,,0.5,0.3,"[2,1,3]",0.101887084,stimuli/card_10_transparent.png,10,3,0,3,0,1,,,,,,,,,,
,,,,622a4d6cf143081ed1887ee5,A,2024-07-01_17h15.23.066,Slot Machine Game,2023.1.3,MacIntel,69.93006993,,,,,,,,,,,,,,,,,,,,,,,,,,,230,,,,,,,,,,,,,,,,,,,,,1,1,,,304.095,4,up,0.2655,,1,0.3,"[2,1,3]",0.139221028,stimuli/card_10_transparent.png,10,4,0,4,0,1,,,,,,,,,,
,,,,622a4d6cf143081ed1887ee5,A,2024-07-01_17h15.23.066,Slot Machine Game,2023.1.3,MacIntel,69.93006993,,,,,,,,,,,,,,,,,,,,,,,,,,,230,,,,,,,,,,,,,,,,,,,,,1,1,,,306.1641,5,right,0.8172,,0.5,0.3,"[2,1,3]",0.680092878,stimuli/card_0_transparent.png,0,5,0,5,0,1,,,,,,,,,,
,,,,622a4d6cf143081ed1887ee5,A,2024-07-01_17h15.23.066,Slot Machine Game,2023.1.3,MacIntel,69.93006993,,,,,,,,,,,,,,,,,,,,,,,,,,,240,,,,,,,,,,,,,,,,,,,,,1,1,,,308.2855,6,right,0.0646,,1.5,0.3,"[2,1,3]",0.190278802,stimuli/card_10_transparent.png,10,6,0,6,0,1,,,,,,,,,,
,,,,622a4d6cf143081ed1887ee5,A,2024-07-01_17h15.23.066,Slot Machine Game,2023.1.3,MacIntel,69.93006993,,,,,,,,,,,,,,,,,,,,,,,,,,,250,,,,,,,,,,,,,,,,,,,,,1,1,,,310.6522,7,left,0.1772,,0.5,0.3,"[2,1,3]",0.772031067,stimuli/card_10_transparent.png,10,7,0,7,0,1,,,,,,,,,,
,,,,622a4d6cf143081ed1887ee5,A,2024-07-01_17h15.23.066,Slot Machine Game,2023.1.3,MacIntel,69.93006993,,,,,,,,,,,,,,,,,,,,,,,,,,,250,,,,,,,,,,,,,,,,,,,,,1,1,,,312.133,8,left,0.8081,,1.5,0.3,"[2,1,3]",0.038422154,stimuli/card_0_transparent.png,0,8,0,8,0,1,,,,,,,,,,
,,,,622a4d6cf143081ed1887ee5,A,2024-07-01_17h15.23.066,Slot Machine Game,2023.1.3,MacIntel,69.93006993,,,,,,,,,,,,,,,,,,,,,,,,,,,250,,,,,,,,,,,,,,,,,,,,,1,1,,,315.2354,9,right,0.6445,,1,0.3,"[2,1,3]",0.642414789,stimuli/card_0_transparent.png,0,9,0,9,0,1,,,,,,,,,,
,,,,622a4d6cf143081ed1887ee5,A,2024-07-01_17h15.23.066,Slot Machine Game,2023.1.3,MacIntel,69.93006993,,,,,,,,,,,,,,,,,,,,,,,,,,,350,,,,,,,,,,,,,,,,,,,,,1,1,,,317.6794,10,up,0.7955,,1,0.3,"[2,1,3]",0.841428771,stimuli/card_100_transparent.png,100,10,0,10,0,1,,,,,,,,,,
,,,,622a4d6cf143081ed1887ee5,A,2024-07-01_17h15.23.066,Slot Machine Game,2023.1.3,MacIntel,69.93006993,,,,,,,,,,,,,,,,,,,,,,,,,,,450,,,,,,,,,,,,,,,,,,,,,1,1,,,320.2748,11,up,1.1089,,1,0.3,"[2,1,3]",0.755348414,stimuli/card_100_transparent.png,100,11,0,11,0,1,,,,,,,,,,
,,,,622a4d6cf143081ed1887ee5,A,2024-07-01_17h15.23.066,Slot Machine Game,2023.1.3,MacIntel,69.93006993,,,,,,,,,,,,,,,,,,,,,,,,,,,450,,,,,,,,,,,,,,,,,,,,,1,1,,,323.1773,12,up,0.8581,,1,0.3,"[2,3,1]",0.701863268,stimuli/card_0_transparent.png,0,12,0,12,0,1,,,,,,,,,,
,,,,622a4d6cf143081ed1887ee5,A,2024-07-01_17h15.23.066,Slot Machine Game,2023.1.3,MacIntel,69.93006993,,,,,,,,,,,,,,,,,,,,,,,,,,,460,,,,,,,,,,,,,,,,,,,,,1,1,,,325.8331,13,up,0.4522,,1,0.3,"[2,3,1]",0.172093148,stimuli/card_10_transparent.png,10,13,0,13,0,1,,,,,,,,,,
,,,,622a4d6cf143081ed1887ee5,A,2024-07-01_17h15.23.066,Slot Machine Game,2023.1.3,MacIntel,69.93006993,,,,,,,,,,,,,,,,,,,,,,,,,,,460,,,,,,,,,,,,,,,,,,,,,1,1,,,328.1015,14,up,0.2861,,0.5,0.3,"[2,3,1]",0.685318418,stimuli/card_0_transparent.png,0,14,0,14,0,1,,,,,,,,,,
,,,,622a4d6cf143081ed1887ee5,A,2024-07-01_17h15.23.066,Slot Machine Game,2023.1.3,MacIntel,69.93006993,,,,,,,,,,,,,,,,,,,,,,,,,,,,,,,,,,,329.6898,,,,,,,,,,,,,,,,,,,,,,,,,,,,,,,,,[460],0,0,0,0,1,,,,
,,,,622a4d6cf143081ed1887ee5,A,2024-07-01_17h15.23.066,Slot Machine Game,2023.1.3,MacIntel,69.93006993,,,,,,,,,,,,,,,,,,,,,,,,,,,10,,,,,,,,,,,,,,,,,,,,,2,5,"[5,15]","[[1,2,3],[3,1,2]]",334.6932,0,up,0.7077,,1,0.3,"[1,2,3]",0.628432462,stimuli/card_10_transparent.png,10,0,0,0,0,1,,,,,,,,,,
,,,,622a4d6cf143081ed1887ee5,A,2024-07-01_17h15.23.066,Slot Machine Game,2023.1.3,MacIntel,69.93006993,,,,,,,,,,,,,,,,,,,,,,,,,,,110,,,,,,,,,,,,,,,,,,,,,2,5,,,337.2121,1,left,0.3973,,1,0.3,"[1,2,3]",0.202654489,stimuli/card_100_transparent.png,100,1,0,1,0,1,,,,,,,,,,
,,,,622a4d6cf143081ed1887ee5,A,2024-07-01_17h15.23.066,Slot Machine Game,2023.1.3,MacIntel,69.93006993,,,,,,,,,,,,,,,,,,,,,,,,,,,210,,,,,,,,,,,,,,,,,,,,,2,5,,,339.4179,2,left,0.1551,,1,0.3,"[1,2,3]",0.948831164,stimuli/card_100_transparent.png,100,2,0,2,0,1,,,,,,,,,,
,,,,622a4d6cf143081ed1887ee5,A,2024-07-01_17h15.23.066,Slot Machine Game,2023.1.3,MacIntel,69.93006993,,,,,,,,,,,,,,,,,,,,,,,,,,,310,,,,,,,,,,,,,,,,,,,,,2,5,,,341.3777,3,left,0.3527,,0.5,0.3,"[1,2,3]",0.203167384,stimuli/card_100_transparent.png,100,3,0,3,0,1,,,,,,,,,,
,,,,622a4d6cf143081ed1887ee5,A,2024-07-01_17h15.23.066,Slot Machine Game,2023.1.3,MacIntel,69.93006993,,,,,,,,,,,,,,,,,,,,,,,,,,,410,,,,,,,,,,,,,,,,,,,,,2,5,,,343.0269,4,left,0.3277,,0.5,0.3,"[1,2,3]",0.656423783,stimuli/card_100_transparent.png,100,4,0,4,0,1,,,,,,,,,,
,,,,622a4d6cf143081ed1887ee5,A,2024-07-01_17h15.23.066,Slot Machine Game,2023.1.3,MacIntel,69.93006993,,,,,,,,,,,,,,,,,,,,,,,,,,,410,,,,,,,,,,,,,,,,,,,,,2,5,,,344.6552,5,left,0.4418,,0.5,0.3,"[3,1,2]",0.650422347,stimuli/card_0_transparent.png,0,5,0,5,0,1,,,,,,,,,,
,,,,622a4d6cf143081ed1887ee5,A,2024-07-01_17h15.23.066,Slot Machine Game,2023.1.3,MacIntel,69.93006993,,,,,,,,,,,,,,,,,,,,,,,,,,,510,,,,,,,,,,,,,,,,,,,,,2,5,,,346.4017,6,left,0.3988,,1,0.3,"[3,1,2]",0.066320324,stimuli/card_100_transparent.png,100,6,0,6,0,1,,,,,,,,,,
,,,,622a4d6cf143081ed1887ee5,A,2024-07-01_17h15.23.066,Slot Machine Game,2023.1.3,MacIntel,69.93006993,,,,,,,,,,,,,,,,,,,,,,,,,,,510,,,,,,,,,,,,,,,,,,,,,2,5,,,348.6022,7,left,0.2207,,1.5,0.3,"[3,1,2]",0.653533511,stimuli/card_0_transparent.png,0,7,0,7,0,1,,,,,,,,,,
,,,,622a4d6cf143081ed1887ee5,A,2024-07-01_17h15.23.066,Slot Machine Game,2023.1.3,MacIntel,69.93006993,,,,,,,,,,,,,,,,,,,,,,,,,,,520,,,,,,,,,,,,,,,,,,,,,2,5,,,351.118,8,left,0.0225,,0.5,0.3,"[3,1,2]",0.152025551,stimuli/card_10_transparent.png,10,8,0,8,0,1,,,,,,,,,,
,,,,622a4d6cf143081ed1887ee5,A,2024-07-01_17h15.23.066,Slot Machine Game,2023.1.3,MacIntel,69.93006993,,,,,,,,,,,,,,,,,,,,,,,,,,,520,,,,,,,,,,,,,,,,,,,,,2,5,,,352.4473,9,left,0.2213,,0.5,0.3,"[3,1,2]",0.510326613,stimuli/card_0_transparent.png,0,9,0,9,0,1,,,,,,,,,,
,,,,622a4d6cf143081ed1887ee5,A,2024-07-01_17h15.23.066,Slot Machine Game,2023.1.3,MacIntel,69.93006993,,,,,,,,,,,,,,,,,,,,,,,,,,,620,,,,,,,,,,,,,,,,,,,,,2,5,,,353.9665,10,up,0.0859,,1,0.3,"[3,1,2]",0.219944857,stimuli/card_100_transparent.png,100,10,0,10,0,1,,,,,,,,,,
,,,,622a4d6cf143081ed1887ee5,A,2024-07-01_17h15.23.066,Slot Machine Game,2023.1.3,MacIntel,69.93006993,,,,,,,,,,,,,,,,,,,,,,,,,,,720,,,,,,,,,,,,,,,,,,,,,2,5,,,355.8535,11,up,0.1289,,1,0.3,"[3,1,2]",0.581312041,stimuli/card_100_transparent.png,100,11,0,11,0,1,,,,,,,,,,
,,,,622a4d6cf143081ed1887ee5,A,2024-07-01_17h15.23.066,Slot Machine Game,2023.1.3,MacIntel,69.93006993,,,,,,,,,,,,,,,,,,,,,,,,,,,820,,,,,,,,,,,,,,,,,,,,,2,5,,,357.7825,12,up,0.1971,,1.5,0.3,"[3,1,2]",0.818502014,stimuli/card_100_transparent.png,100,12,0,12,0,1,,,,,,,,,,
,,,,622a4d6cf143081ed1887ee5,A,2024-07-01_17h15.23.066,Slot Machine Game,2023.1.3,MacIntel,69.93006993,,,,,,,,,,,,,,,,,,,,,,,,,,,920,,,,,,,,,,,,,,,,,,,,,2,5,,,360.2716,13,up,0.5191,,1,0.3,"[3,1,2]",0.446852787,stimuli/card_100_transparent.png,100,13,0,13,0,1,,,,,,,,,,
,,,,622a4d6cf143081ed1887ee5,A,2024-07-01_17h15.23.066,Slot Machine Game,2023.1.3,MacIntel,69.93006993,,,,,,,,,,,,,,,,,,,,,,,,,,,1020,,,,,,,,,,,,,,,,,,,,,2,5,,,362.5981,14,up,0.3003,,1.5,0.3,"[3,1,2]",0.390531628,stimuli/card_100_transparent.png,100,14,0,14,0,1,,,,,,,,,,
,,,,622a4d6cf143081ed1887ee5,A,2024-07-01_17h15.23.066,Slot Machine Game,2023.1.3,MacIntel,69.93006993,,,,,,,,,,,,,,,,,,,,,,,,,,,,,,,,,,,365.2079,,,,,,,,,,,,,,,,,,,,,,,,,,,,,,,,,"[460,1020]",1,0,1,0,1,,,,
,,,,622a4d6cf143081ed1887ee5,A,2024-07-01_17h15.23.066,Slot Machine Game,2023.1.3,MacIntel,69.93006993,,,,,,,,,,,,,,,,,,,,,,,,,,,10,,,,,,,,,,,,,,,,,,,,,3,7,"[9,15]","[[1,3,2],[2,3,1]]",370.2107,0,right,0.621,,0.5,0.3,"[1,3,2]",0.372013386,stimuli/card_10_transparent.png,10,0,0,0,0,1,,,,,,,,,,
,,,,622a4d6cf143081ed1887ee5,A,2024-07-01_17h15.23.066,Slot Machine Game,2023.1.3,MacIntel,69.93006993,,,,,,,,,,,,,,,,,,,,,,,,,,,20,,,,,,,,,,,,,,,,,,,,,3,7,,,372.1255,1,right,0.9757,,1,0.3,"[1,3,2]",0.765526301,stimuli/card_10_transparent.png,10,1,0,1,0,1,,,,,,,,,,
,,,,622a4d6cf143081ed1887ee5,A,2024-07-01_17h15.23.066,Slot Machine Game,2023.1.3,MacIntel,69.93006993,,,,,,,,,,,,,,,,,,,,,,,,,,,20,,,,,,,,,,,,,,,,,,,,,3,7,,,374.9025,2,up,1.08,,0.5,0.3,"[1,3,2]",0.205576975,stimuli/card_0_transparent.png,0,2,0,2,0,1,,,,,,,,,,
,,,,622a4d6cf143081ed1887ee5,A,2024-07-01_17h15.23.066,Slot Machine Game,2023.1.3,MacIntel,69.93006993,,,,,,,,,,,,,,,,,,,,,,,,,,,20,,,,,,,,,,,,,,,,,,,,,3,7,,,377.2659,3,up,0.3929,,0.5,0.3,"[1,3,2]",0.307084276,stimuli/card_0_transparent.png,0,3,0,3,0,1,,,,,,,,,,
,,,,622a4d6cf143081ed1887ee5,A,2024-07-01_17h15.23.066,Slot Machine Game,2023.1.3,MacIntel,69.93006993,,,,,,,,,,,,,,,,,,,,,,,,,,,120,,,,,,,,,,,,,,,,,,,,,3,7,,,378.9519,4,left,0.592,,1.5,0.3,"[1,3,2]",0.859711192,stimuli/card_100_transparent.png,100,4,0,4,0,1,,,,,,,,,,
,,,,622a4d6cf143081ed1887ee5,A,2024-07-01_17h15.23.066,Slot Machine Game,2023.1.3,MacIntel,69.93006993,,,,,,,,,,,,,,,,,,,,,,,,,,,120,,,,,,,,,,,,,,,,,,,,,3,7,,,381.8359,5,left,0.1513,,1,0.3,"[1,3,2]",0.005455534,stimuli/card_0_transparent.png,0,5,0,5,0,1,,,,,,,,,,
,,,,622a4d6cf143081ed1887ee5,A,2024-07-01_17h15.23.066,Slot Machine Game,2023.1.3,MacIntel,69.93006993,,,,,,,,,,,,,,,,,,,,,,,,,,,220,,,,,,,,,,,,,,,,,,,,,3,7,,,383.7865,6,left,0.0871,,0.5,0.3,"[1,3,2]",0.545586436,stimuli/card_100_transparent.png,100,6,0,6,0,1,,,,,,,,,,
,,,,622a4d6cf143081ed1887ee5,A,2024-07-01_17h15.23.066,Slot Machine Game,2023.1.3,MacIntel,69.93006993,,,,,,,,,,,,,,,,,,,,,,,,,,,320,,,,,,,,,,,,,,,,,,,,,3,7,,,385.1851,7,left,0.1546,,1,0.3,"[1,3,2]",0.656036942,stimuli/card_100_transparent.png,100,7,0,7,0,1,,,,,,,,,,
,,,,622a4d6cf143081ed1887ee5,A,2024-07-01_17h15.23.066,Slot Machine Game,2023.1.3,MacIntel,69.93006993,,,,,,,,,,,,,,,,,,,,,,,,,,,420,,,,,,,,,,,,,,,,,,,,,3,7,,,387.1307,8,left,0.1319,,0.5,0.3,"[1,3,2]",0.749204055,stimuli/card_100_transparent.png,100,8,0,8,0,1,,,,,,,,,,
,,,,622a4d6cf143081ed1887ee5,A,2024-07-01_17h15.23.066,Slot Machine Game,2023.1.3,MacIntel,69.93006993,,,,,,,,,,,,,,,,,,,,,,,,,,,430,,,,,,,,,,,,,,,,,,,,,3,7,,,388.5588,9,left,0.5597,,0.5,0.3,"[2,3,1]",0.264728407,stimuli/card_10_transparent.png,10,9,0,9,0,1,,,,,,,,,,
,,,,622a4d6cf143081ed1887ee5,A,2024-07-01_17h15.23.066,Slot Machine Game,2023.1.3,MacIntel,69.93006993,,,,,,,,,,,,,,,,,,,,,,,,,,,440,,,,,,,,,,,,,,,,,,,,,3,7,,,390.4123,10,left,0.5766,,1.5,0.3,"[2,3,1]",0.973504546,stimuli/card_10_transparent.png,10,10,0,10,0,1,,,,,,,,,,
,,,,622a4d6cf143081ed1887ee5,A,2024-07-01_17h15.23.066,Slot Machine Game,2023.1.3,MacIntel,69.93006993,,,,,,,,,,,,,,,,,,,,,,,,,,,440,,,,,,,,,,,,,,,,,,,,,3,7,,,393.2779,11,up,0.1539,,0.5,0.3,"[2,3,1]",0.783536675,stimuli/card_0_transparent.png,0,11,0,11,0,1,,,,,,,,,,
,,,,622a4d6cf143081ed1887ee5,A,2024-07-01_17h15.23.066,Slot Machine Game,2023.1.3,MacIntel,69.93006993,,,,,,,,,,,,,,,,,,,,,,,,,,,450,,,,,,,,,,,,,,,,,,,,,3,7,,,394.7387,12,right,0.2576,,0.5,0.3,"[2,3,1]",0.194942687,stimuli/card_10_transparent.png,10,12,0,12,0,1,,,,,,,,,,
,,,,622a4d6cf143081ed1887ee5,A,2024-07-01_17h15.23.066,Slot Machine Game,2023.1.3,MacIntel,69.93006993,,,,,,,,,,,,,,,,,,,,,,,,,,,460,,,,,,,,,,,,,,,,,,,,,3,7,,,396.3001,13,right,0.3298,,1.5,0.3,"[2,3,1]",0.100223376,stimuli/card_10_transparent.png,10,13,0,13,0,1,,,,,,,,,,
,,,,622a4d6cf143081ed1887ee5,A,2024-07-01_17h15.23.066,Slot Machine Game,2023.1.3,MacIntel,69.93006993,,,,,,,,,,,,,,,,,,,,,,,,,,,470,,,,,,,,,,,,,,,,,,,,,3,7,,,398.9239,14,left,0.5472,,1.5,0.3,"[2,3,1]",0.621535681,stimuli/card_10_transparent.png,10,14,0,14,0,1,,,,,,,,,,
,,,,622a4d6cf143081ed1887ee5,A,2024-07-01_17h15.23.066,Slot Machine Game,2023.1.3,MacIntel,69.93006993,,,,,,,,,,,,,,,,,,,,,,,,,,,,,,,,,,,401.791,,,,,,,,,,,,,,,,,,,,,,,,,,,,,,,,,"[460,1020,470]",2,0,2,0,1,,,,
,,,,622a4d6cf143081ed1887ee5,A,2024-07-01_17h15.23.066,Slot Machine Game,2023.1.3,MacIntel,69.93006993,,,,,,,,,,,,,,,,,,,,,,,,,,,0,,,,,,,,,,,,,,,,,,,,,4,4,"[7,15]","[[2,3,1],[1,2,3]]",406.787,0,up,0.8521,,0.5,0.3,"[2,3,1]",0.975694107,stimuli/card_0_transparent.png,0,0,0,0,0,1,,,,,,,,,,
,,,,622a4d6cf143081ed1887ee5,A,2024-07-01_17h15.23.066,Slot Machine Game,2023.1.3,MacIntel,69.93006993,,,,,,,,,,,,,,,,,,,,,,,,,,,10,,,,,,,,,,,,,,,,,,,,,4,4,,,408.9341,1,left,0.0668,,1,0.3,"[2,3,1]",0.886160168,stimuli/card_10_transparent.png,10,1,0,1,0,1,,,,,,,,,,
,,,,622a4d6cf143081ed1887ee5,A,2024-07-01_17h15.23.066,Slot Machine Game,2023.1.3,MacIntel,69.93006993,,,,,,,,,,,,,,,,,,,,,,,,,,,110,,,,,,,,,,,,,,,,,,,,,4,4,,,410.8134,2,right,0.3968,,1,0.3,"[2,3,1]",0.403026837,stimuli/card_100_transparent.png,100,2,0,2,0,1,,,,,,,,,,
,,,,622a4d6cf143081ed1887ee5,A,2024-07-01_17h15.23.066,Slot Machine Game,2023.1.3,MacIntel,69.93006993,,,,,,,,,,,,,,,,,,,,,,,,,,,210,,,,,,,,,,,,,,,,,,,,,4,4,,,413.0076,3,right,0.0655,,0.5,0.3,"[2,3,1]",0.537472956,stimuli/card_100_transparent.png,100,3,0,3,0,1,,,,,,,,,,
,,,,622a4d6cf143081ed1887ee5,A,2024-07-01_17h15.23.066,Slot Machine Game,2023.1.3,MacIntel,69.93006993,,,,,,,,,,,,,,,,,,,,,,,,,,,220,,,,,,,,,,,,,,,,,,,,,4,4,,,414.3742,4,right,0.1536,,0.5,0.3,"[2,3,1]",0.150442304,stimuli/card_10_transparent.png,10,4,0,4,0,1,,,,,,,,,,
,,,,622a4d6cf143081ed1887ee5,A,2024-07-01_17h15.23.066,Slot Machine Game,2023.1.3,MacIntel,69.93006993,,,,,,,,,,,,,,,,,,,,,,,,,,,320,,,,,,,,,,,,,,,,,,,,,4,4,,,415.8286,5,right,0.2195,,1,0.3,"[2,3,1]",0.747899042,stimuli/card_100_transparent.png,100,5,0,5,0,1,,,,,,,,,,
,,,,622a4d6cf143081ed1887ee5,A,2024-07-01_17h15.23.066,Slot Machine Game,2023.1.3,MacIntel,69.93006993,,,,,,,,,,,,,,,,,,,,,,,,,,,420,,,,,,,,,,,,,,,,,,,,,4,4,,,417.8445,6,right,0.0224,,0.5,0.3,"[2,3,1]",0.842315591,stimuli/card_100_transparent.png,100,6,0,6,0,1,,,,,,,,,,
,,,,622a4d6cf143081ed1887ee5,A,2024-07-01_17h15.23.066,Slot Machine Game,2023.1.3,MacIntel,69.93006993,,,,,,,,,,,,,,,,,,,,,,,,,,,420,,,,,,,,,,,,,,,,,,,,,4,4,,,419.1709,7,right,0.1772,,1,0.3,"[1,2,3]",0.860242762,stimuli/card_0_transparent.png,0,7,0,7,0,1,,,,,,,,,,
,,,,622a4d6cf143081ed1887ee5,A,2024-07-01_17h15.23.066,Slot Machine Game,2023.1.3,MacIntel,69.93006993,,,,,,,,,,,,,,,,,,,,,,,,,,,420,,,,,,,,,,,,,,,,,,,,,4,4,,,421.1526,8,right,0.64,,1.5,0.3,"[1,2,3]",0.270252482,stimuli/card_0_transparent.png,0,8,0,8,0,1,,,,,,,,,,
,,,,622a4d6cf143081ed1887ee5,A,2024-07-01_17h15.23.066,Slot Machine Game,2023.1.3,MacIntel,69.93006993,,,,,,,,,,,,,,,,,,,,,,,,,,,420,,,,,,,,,,,,,,,,,,,,,4,4,,,424.0819,9,up,0.3688,,1,0.3,"[1,2,3]",0.046641967,stimuli/card_0_transparent.png,0,9,0,9,0,1,,,,,,,,,,
,,,,622a4d6cf143081ed1887ee5,A,2024-07-01_17h15.23.066,Slot Machine Game,2023.1.3,MacIntel,69.93006993,,,,,,,,,,,,,,,,,,,,,,,,,,,520,,,,,,,,,,,,,,,,,,,,,4,4,,,426.2521,10,left,0.1326,,1.5,0.3,"[1,2,3]",0.219890327,stimuli/card_100_transparent.png,100,10,0,10,0,1,,,,,,,,,,
,,,,622a4d6cf143081ed1887ee5,A,2024-07-01_17h15.23.066,Slot Machine Game,2023.1.3,MacIntel,69.93006993,,,,,,,,,,,,,,,,,,,,,,,,,,,530,,,,,,,,,,,,,,,,,,,,,4,4,,,428.6815,11,left,0.1326,,1.5,0.3,"[1,2,3]",0.127777686,stimuli/card_10_transparent.png,10,11,0,11,0,1,,,,,,,,,,
,,,,622a4d6cf143081ed1887ee5,A,2024-07-01_17h15.23.066,Slot Machine Game,2023.1.3,MacIntel,69.93006993,,,,,,,,,,,,,,,,,,,,,,,,,,,630,,,,,,,,,,,,,,,,,,,,,4,4,,,431.1153,12,left,0.0653,,1,0.3,"[1,2,3]",0.233785079,stimuli/card_100_transparent.png,100,12,0,12,0,1,,,,,,,,,,
,,,,622a4d6cf143081ed1887ee5,A,2024-07-01_17h15.23.066,Slot Machine Game,2023.1.3,MacIntel,69.93006993,,,,,,,,,,,,,,,,,,,,,,,,,,,730,,,,,,,,,,,,,,,,,,,,,4,4,,,432.9772,13,left,0.3314,,1.5,0.3,"[1,2,3]",0.31680926,stimuli/card_100_transparent.png,100,13,0,13,0,1,,,,,,,,,,
,,,,622a4d6cf143081ed1887ee5,A,2024-07-01_17h15.23.066,Slot Machine Game,2023.1.3,MacIntel,69.93006993,,,,,,,,,,,,,,,,,,,,,,,,,,,830,,,,,,,,,,,,,,,,,,,,,4,4,,,435.6028,14,left,0.1764,,0.5,0.3,"[1,2,3]",0.661315772,stimuli/card_100_transparent.png,100,14,0,14,0,1,,,,,,,,,,
,,,,622a4d6cf143081ed1887ee5,A,2024-07-01_17h15.23.066,Slot Machine Game,2023.1.3,MacIntel,69.93006993,,,,,,,,,,,,,,,,,,,,,,,,,,,,,,,,,,,437.082,,,,,,,,,,,,,,,,,,,,,,,,,,,,,,,,,"[460,1020,470,830]",3,0,3,0,1,,,,
,,,,622a4d6cf143081ed1887ee5,A,2024-07-01_17h15.23.066,Slot Machine Game,2023.1.3,MacIntel,69.93006993,,,,,,,,,,,,,,,,,,,,,,,,,,,0,,,,,,,,,,,,,,,,,,,,,5,6,"[4,10,15]","[[2,3,1],[1,3,2],[3,2,1]]",442.0808,0,up,3.0551,,1,0.3,"[2,3,1]",0.276701738,stimuli/card_0_transparent.png,0,0,0,0,0,1,,,,,,,,,,
,,,,622a4d6cf143081ed1887ee5,A,2024-07-01_17h15.23.066,Slot Machine Game,2023.1.3,MacIntel,69.93006993,,,,,,,,,,,,,,,,,,,,,,,,,,,100,,,,,,,,,,,,,,,,,,,,,5,6,,,446.9453,1,right,0.4422,,0.5,0.3,"[2,3,1]",0.583631502,stimuli/card_100_transparent.png,100,1,0,1,0,1,,,,,,,,,,
,,,,622a4d6cf143081ed1887ee5,A,2024-07-01_17h15.23.066,Slot Machine Game,2023.1.3,MacIntel,69.93006993,,,,,,,,,,,,,,,,,,,,,,,,,,,200,,,,,,,,,,,,,,,,,,,,,5,6,,,448.6901,2,right,0.1543,,1.5,0.3,"[2,3,1]",0.817756531,stimuli/card_100_transparent.png,100,2,0,2,0,1,,,,,,,,,,
,,,,622a4d6cf143081ed1887ee5,A,2024-07-01_17h15.23.066,Slot Machine Game,2023.1.3,MacIntel,69.93006993,,,,,,,,,,,,,,,,,,,,,,,,,,,300,,,,,,,,,,,,,,,,,,,,,5,6,,,451.1431,3,right,0.4641,,0.5,0.3,"[2,3,1]",0.93653322,stimuli/card_100_transparent.png,100,3,0,3,0,1,,,,,,,,,,
,,,,622a4d6cf143081ed1887ee5,A,2024-07-01_17h15.23.066,Slot Machine Game,2023.1.3,MacIntel,69.93006993,,,,,,,,,,,,,,,,,,,,,,,,,,,300,,,,,,,,,,,,,,,,,,,,,5,6,,,452.9058,4,right,0.1547,,0.5,0.3,"[1,3,2]",0.0842726,stimuli/card_0_transparent.png,0,4,0,4,0,1,,,,,,,,,,
,,,,622a4d6cf143081ed1887ee5,A,2024-07-01_17h15.23.066,Slot Machine Game,2023.1.3,MacIntel,69.93006993,,,,,,,,,,,,,,,,,,,,,,,,,,,310,,,,,,,,,,,,,,,,,,,,,5,6,,,454.3529,5,right,0.2659,,0.5,0.3,"[1,3,2]",0.51972156,stimuli/card_10_transparent.png,10,5,0,5,0,1,,,,,,,,,,
,,,,622a4d6cf143081ed1887ee5,A,2024-07-01_17h15.23.066,Slot Machine Game,2023.1.3,MacIntel,69.93006993,,,,,,,,,,,,,,,,,,,,,,,,,,,410,,,,,,,,,,,,,,,,,,,,,5,6,,,455.9182,6,left,0.5244,,0.5,0.3,"[1,3,2]",0.526090759,stimuli/card_100_transparent.png,100,6,0,6,0,1,,,,,,,,,,
,,,,622a4d6cf143081ed1887ee5,A,2024-07-01_17h15.23.066,Slot Machine Game,2023.1.3,MacIntel,69.93006993,,,,,,,,,,,,,,,,,,,,,,,,,,,420,,,,,,,,,,,,,,,,,,,,,5,6,,,457.7511,7,left,0.3119,,1.5,0.3,"[1,3,2]",0.159942902,stimuli/card_10_transparent.png,10,7,0,7,0,1,,,,,,,,,,
,,,,622a4d6cf143081ed1887ee5,A,2024-07-01_17h15.23.066,Slot Machine Game,2023.1.3,MacIntel,69.93006993,,,,,,,,,,,,,,,,,,,,,,,,,,,520,,,,,,,,,,,,,,,,,,,,,5,6,,,460.3708,8,left,0.5898,,0.5,0.3,"[1,3,2]",0.420121702,stimuli/card_100_transparent.png,100,8,0,8,0,1,,,,,,,,,,
,,,,622a4d6cf143081ed1887ee5,A,2024-07-01_17h15.23.066,Slot Machine Game,2023.1.3,MacIntel,69.93006993,,,,,,,,,,,,,,,,,,,,,,,,,,,620,,,,,,,,,,,,,,,,,,,,,5,6,,,462.2538,9,left,0.5061,,0.5,0.3,"[1,3,2]",0.852796274,stimuli/card_100_transparent.png,100,9,0,9,0,1,,,,,,,,,,
,,,,622a4d6cf143081ed1887ee5,A,2024-07-01_17h15.23.066,Slot Machine Game,2023.1.3,MacIntel,69.93006993,,,,,,,,,,,,,,,,,,,,,,,,,,,620,,,,,,,,,,,,,,,,,,,,,5,6,,,464.0608,10,left,0.3508,,1,0.3,"[3,2,1]",0.615097376,stimuli/card_0_transparent.png,0,10,0,10,0,1,,,,,,,,,,
,,,,622a4d6cf143081ed1887ee5,A,2024-07-01_17h15.23.066,Slot Machine Game,2023.1.3,MacIntel,69.93006993,,,,,,,,,,,,,,,,,,,,,,,,,,,620,,,,,,,,,,,,,,,,,,,,,5,6,,,466.2145,11,left,0.2199,,1,0.3,"[3,2,1]",0.943646049,stimuli/card_0_transparent.png,0,11,0,11,0,1,,,,,,,,,,
,,,,622a4d6cf143081ed1887ee5,A,2024-07-01_17h15.23.066,Slot Machine Game,2023.1.3,MacIntel,69.93006993,,,,,,,,,,,,,,,,,,,,,,,,,,,630,,,,,,,,,,,,,,,,,,,,,5,6,,,468.2385,12,up,0.7032,,1,0.3,"[3,2,1]",0.989733153,stimuli/card_10_transparent.png,10,12,0,12,0,1,,,,,,,,,,
,,,,622a4d6cf143081ed1887ee5,A,2024-07-01_17h15.23.066,Slot Machine Game,2023.1.3,MacIntel,69.93006993,,,,,,,,,,,,,,,,,,,,,,,,,,,640,,,,,,,,,,,,,,,,,,,,,5,6,,,470.7329,13,up,0.4298,,0.5,0.3,"[3,2,1]",0.214657725,stimuli/card_10_transparent.png,10,13,0,13,0,1,,,,,,,,,,
,,,,622a4d6cf143081ed1887ee5,A,2024-07-01_17h15.23.066,Slot Machine Game,2023.1.3,MacIntel,69.93006993,,,,,,,,,,,,,,,,,,,,,,,,,,,650,,,,,,,,,,,,,,,,,,,,,5,6,,,472.457,14,right,0.1094,,1.5,0.3,"[3,2,1]",0.179499257,stimuli/card_10_transparent.png,10,14,0,14,0,1,,,,,,,,,,
,,,,622a4d6cf143081ed1887ee5,A,2024-07-01_17h15.23.066,Slot Machine Game,2023.1.3,MacIntel,69.93006993,,,,,,,,,,,,,,,,,,,,,,,,,,,,,,,,,,,474.8638,,,,,,,,,,,,,,,,,,,,,,,,,,,,,,,,,"[460,1020,470,830,650]",4,0,4,0,1,,,,
,,,,622a4d6cf143081ed1887ee5,A,2024-07-01_17h15.23.066,Slot Machine Game,2023.1.3,MacIntel,69.93006993,,,,,,,,,,,,,,,,,,,,,,,,,,,100,,,,,,,,,,,,,,,,,,,,,6,8,"[11,15]","[[2,1,3],[1,2,3]]",479.8662,0,up,0.5536,,1.5,0.3,"[2,1,3]",0.568383258,stimuli/card_100_transparent.png,100,0,0,0,0,1,,,,,,,,,,
,,,,622a4d6cf143081ed1887ee5,A,2024-07-01_17h15.23.066,Slot Machine Game,2023.1.3,MacIntel,69.93006993,,,,,,,,,,,,,,,,,,,,,,,,,,,200,,,,,,,,,,,,,,,,,,,,,6,8,,,482.7185,1,up,0.1779,,1.5,0.3,"[2,1,3]",0.461610564,stimuli/card_100_transparent.png,100,1,0,1,0,1,,,,,,,,,,
,,,,622a4d6cf143081ed1887ee5,A,2024-07-01_17h15.23.066,Slot Machine Game,2023.1.3,MacIntel,69.93006993,,,,,,,,,,,,,,,,,,,,,,,,,,,300,,,,,,,,,,,,,,,,,,,,,6,8,,,485.2048,2,up,0.0663,,1,0.3,"[2,1,3]",0.577708301,stimuli/card_100_transparent.png,100,2,0,2,0,1,,,,,,,,,,
,,,,622a4d6cf143081ed1887ee5,A,2024-07-01_17h15.23.066,Slot Machine Game,2023.1.3,MacIntel,69.93006993,,,,,,,,,,,,,,,,,,,,,,,,,,,400,,,,,,,,,,,,,,,,,,,,,6,8,,,487.0622,3,up,0.1106,,1.5,0.3,"[2,1,3]",0.42823652,stimuli/card_100_transparent.png,100,3,0,3,0,1,,,,,,,,,,
,,,,622a4d6cf143081ed1887ee5,A,2024-07-01_17h15.23.066,Slot Machine Game,2023.1.3,MacIntel,69.93006993,,,,,,,,,,,,,,,,,,,,,,,,,,,500,,,,,,,,,,,,,,,,,,,,,6,8,,,489.4576,4,up,1.4139,,1.5,0.3,"[2,1,3]",0.812519074,stimuli/card_100_transparent.png,100,4,0,4,0,1,,,,,,,,,,
,,,,622a4d6cf143081ed1887ee5,A,2024-07-01_17h15.23.066,Slot Machine Game,2023.1.3,MacIntel,69.93006993,,,,,,,,,,,,,,,,,,,,,,,,,,,600,,,,,,,,,,,,,,,,,,,,,6,8,,,493.1652,5,up,0.2425,,1.5,0.3,"[2,1,3]",0.643797136,stimuli/card_100_transparent.png,100,5,0,5,0,1,,,,,,,,,,
,,,,622a4d6cf143081ed1887ee5,A,2024-07-01_17h15.23.066,Slot Machine Game,2023.1.3,MacIntel,69.93006993,,,,,,,,,,,,,,,,,,,,,,,,,,,600,,,,,,,,,,,,,,,,,,,,,6,8,,,495.7156,6,up,0.7497,,0.5,0.3,"[2,1,3]",0.042752224,stimuli/card_0_transparent.png,0,6,0,6,0,1,,,,,,,,,,
,,,,622a4d6cf143081ed1887ee5,A,2024-07-01_17h15.23.066,Slot Machine Game,2023.1.3,MacIntel,69.93006993,,,,,,,,,,,,,,,,,,,,,,,,,,,700,,,,,,,,,,,,,,,,,,,,,6,8,,,497.7592,7,up,0.9461,,1.5,0.3,"[2,1,3]",0.687891525,stimuli/card_100_transparent.png,100,7,0,7,0,1,,,,,,,,,,
,,,,622a4d6cf143081ed1887ee5,A,2024-07-01_17h15.23.066,Slot Machine Game,2023.1.3,MacIntel,69.93006993,,,,,,,,,,,,,,,,,,,,,,,,,,,700,,,,,,,,,,,,,,,,,,,,,6,8,,,501.0217,8,up,1.0572,,0.5,0.3,"[2,1,3]",0.074014131,stimuli/card_0_transparent.png,0,8,0,8,0,1,,,,,,,,,,
,,,,622a4d6cf143081ed1887ee5,A,2024-07-01_17h15.23.066,Slot Machine Game,2023.1.3,MacIntel,69.93006993,,,,,,,,,,,,,,,,,,,,,,,,,,,700,,,,,,,,,,,,,,,,,,,,,6,8,,,503.3852,9,up,1.4192,,1,0.3,"[2,1,3]",0.049133014,stimuli/card_0_transparent.png,0,9,0,9,0,1,,,,,,,,,,
,,,,622a4d6cf143081ed1887ee5,A,2024-07-01_17h15.23.066,Slot Machine Game,2023.1.3,MacIntel,69.93006993,,,,,,,,,,,,,,,,,,,,,,,,,,,700,,,,,,,,,,,,,,,,,,,,,6,8,,,506.6066,10,left,0.0441,,0.5,0.3,"[2,1,3]",0.013731019,stimuli/card_0_transparent.png,0,10,0,10,0,1,,,,,,,,,,
,,,,622a4d6cf143081ed1887ee5,A,2024-07-01_17h15.23.066,Slot Machine Game,2023.1.3,MacIntel,69.93006993,,,,,,,,,,,,,,,,,,,,,,,,,,,700,,,,,,,,,,,,,,,,,,,,,6,8,,,507.9471,11,right,0.2648,,1.5,0.3,"[1,2,3]",0.999944227,stimuli/card_0_transparent.png,0,11,0,11,0,1,,,,,,,,,,
,,,,622a4d6cf143081ed1887ee5,A,2024-07-01_17h15.23.066,Slot Machine Game,2023.1.3,MacIntel,69.93006993,,,,,,,,,,,,,,,,,,,,,,,,,,,700,,,,,,,,,,,,,,,,,,,,,6,8,,,510.5345,12,right,0.5744,,1,0.3,"[1,2,3]",0.363019794,stimuli/card_0_transparent.png,0,12,0,12,0,1,,,,,,,,,,
,,,,622a4d6cf143081ed1887ee5,A,2024-07-01_17h15.23.066,Slot Machine Game,2023.1.3,MacIntel,69.93006993,,,,,,,,,,,,,,,,,,,,,,,,,,,710,,,,,,,,,,,,,,,,,,,,,6,8,,,512.904,13,left,0.5037,,1,0.3,"[1,2,3]",0.147484527,stimuli/card_10_transparent.png,10,13,0,13,0,1,,,,,,,,,,
,,,,622a4d6cf143081ed1887ee5,A,2024-07-01_17h15.23.066,Slot Machine Game,2023.1.3,MacIntel,69.93006993,,,,,,,,,,,,,,,,,,,,,,,,,,,810,,,,,,,,,,,,,,,,,,,,,6,8,,,515.2145,14,left,0.6131,,1.5,0.3,"[1,2,3]",0.710640126,stimuli/card_100_transparent.png,100,14,0,14,0,1,,,,,,,,,,
,,,,622a4d6cf143081ed1887ee5,A,2024-07-01_17h15.23.066,Slot Machine Game,2023.1.3,MacIntel,69.93006993,,,,,,,,,,,,,,,,,,,,,,,,,,,,,,,,,,,518.1163,,,,,,,,,,,,,,,,,,,,,,,,,,,,,,,,,"[460,1020,470,830,650,810]",5,0,5,0,1,,,,
,,,,622a4d6cf143081ed1887ee5,A,2024-07-01_17h15.23.066,Slot Machine Game,2023.1.3,MacIntel,69.93006993,,,,,,,,,,,,,,,,,,,,,,,,,,,0,,,,,,,,,,,,,,,,,,,,,7,9,"[8,15]","[[3,2,1],[3,1,2]]",523.1193,0,left,0.6592,,1.5,0.3,"[3,2,1]",0.423702886,stimuli/card_0_transparent.png,0,0,0,0,0,1,,,,,,,,,,
,,,,622a4d6cf143081ed1887ee5,A,2024-07-01_17h15.23.066,Slot Machine Game,2023.1.3,MacIntel,69.93006993,,,,,,,,,,,,,,,,,,,,,,,,,,,100,,,,,,,,,,,,,,,,,,,,,7,9,,,526.066,1,right,0.0664,,0.5,0.3,"[3,2,1]",0.882325839,stimuli/card_100_transparent.png,100,1,0,1,0,1,,,,,,,,,,
,,,,622a4d6cf143081ed1887ee5,A,2024-07-01_17h15.23.066,Slot Machine Game,2023.1.3,MacIntel,69.93006993,,,,,,,,,,,,,,,,,,,,,,,,,,,110,,,,,,,,,,,,,,,,,,,,,7,9,,,527.4387,2,right,0.1993,,0.5,0.3,"[3,2,1]",0.111400484,stimuli/card_10_transparent.png,10,2,0,2,0,1,,,,,,,,,,
,,,,622a4d6cf143081ed1887ee5,A,2024-07-01_17h15.23.066,Slot Machine Game,2023.1.3,MacIntel,69.93006993,,,,,,,,,,,,,,,,,,,,,,,,,,,210,,,,,,,,,,,,,,,,,,,,,7,9,,,528.943,3,right,0.4176,,1.5,0.3,"[3,2,1]",0.29823405,stimuli/card_100_transparent.png,100,3,0,3,0,1,,,,,,,,,,
,,,,622a4d6cf143081ed1887ee5,A,2024-07-01_17h15.23.066,Slot Machine Game,2023.1.3,MacIntel,69.93006993,,,,,,,,,,,,,,,,,,,,,,,,,,,210,,,,,,,,,,,,,,,,,,,,,7,9,,,531.6691,4,right,0.0882,,1,0.3,"[3,2,1]",0.041489151,stimuli/card_0_transparent.png,0,4,0,4,0,1,,,,,,,,,,
,,,,622a4d6cf143081ed1887ee5,A,2024-07-01_17h15.23.066,Slot Machine Game,2023.1.3,MacIntel,69.93006993,,,,,,,,,,,,,,,,,,,,,,,,,,,310,,,,,,,,,,,,,,,,,,,,,7,9,,,533.5503,5,right,0.0661,,0.5,0.3,"[3,2,1]",0.775091146,stimuli/card_100_transparent.png,100,5,0,5,0,1,,,,,,,,,,
,,,,622a4d6cf143081ed1887ee5,A,2024-07-01_17h15.23.066,Slot Machine Game,2023.1.3,MacIntel,69.93006993,,,,,,,,,,,,,,,,,,,,,,,,,,,410,,,,,,,,,,,,,,,,,,,,,7,9,,,534.9138,6,right,0.1098,,0.5,0.3,"[3,2,1]",0.623201771,stimuli/card_100_transparent.png,100,6,0,6,0,1,,,,,,,,,,
,,,,622a4d6cf143081ed1887ee5,A,2024-07-01_17h15.23.066,Slot Machine Game,2023.1.3,MacIntel,69.93006993,,,,,,,,,,,,,,,,,,,,,,,,,,,510,,,,,,,,,,,,,,,,,,,,,7,9,,,536.3295,7,right,0.1771,,0.5,0.3,"[3,2,1]",0.852213032,stimuli/card_100_transparent.png,100,7,0,7,0,1,,,,,,,,,,
,,,,622a4d6cf143081ed1887ee5,A,2024-07-01_17h15.23.066,Slot Machine Game,2023.1.3,MacIntel,69.93006993,,,,,,,,,,,,,,,,,,,,,,,,,,,520,,,,,,,,,,,,,,,,,,,,,7,9,,,537.8047,8,right,0.1989,,1.5,0.3,"[3,1,2]",0.254624997,stimuli/card_10_transparent.png,10,8,0,8,0,1,,,,,,,,,,
,,,,622a4d6cf143081ed1887ee5,A,2024-07-01_17h15.23.066,Slot Machine Game,2023.1.3,MacIntel,69.93006993,,,,,,,,,,,,,,,,,,,,,,,,,,,620,,,,,,,,,,,,,,,,,,,,,7,9,,,540.2994,9,right,0.7069,,1.5,0.3,"[3,1,2]",0.100073643,stimuli/card_100_transparent.png,100,9,0,9,0,1,,,,,,,,,,
,,,,622a4d6cf143081ed1887ee5,A,2024-07-01_17h15.23.066,Slot Machine Game,2023.1.3,MacIntel,69.93006993,,,,,,,,,,,,,,,,,,,,,,,,,,,620,,,,,,,,,,,,,,,,,,,,,7,9,,,543.3019,10,right,0.3338,,1,0.3,"[3,1,2]",0.093664939,stimuli/card_0_transparent.png,0,10,0,10,0,1,,,,,,,,,,
,,,,622a4d6cf143081ed1887ee5,A,2024-07-01_17h15.23.066,Slot Machine Game,2023.1.3,MacIntel,69.93006993,,,,,,,,,,,,,,,,,,,,,,,,,,,630,,,,,,,,,,,,,,,,,,,,,7,9,,,545.4379,11,right,0.4935,,1.5,0.3,"[3,1,2]",0.277689293,stimuli/card_10_transparent.png,10,11,0,11,0,1,,,,,,,,,,
,,,,622a4d6cf143081ed1887ee5,A,2024-07-01_17h15.23.066,Slot Machine Game,2023.1.3,MacIntel,69.93006993,,,,,,,,,,,,,,,,,,,,,,,,,,,730,,,,,,,,,,,,,,,,,,,,,7,9,,,548.2437,12,up,0.5072,,0.5,0.3,"[3,1,2]",0.90528233,stimuli/card_100_transparent.png,100,12,0,12,0,1,,,,,,,,,,
,,,,622a4d6cf143081ed1887ee5,A,2024-07-01_17h15.23.066,Slot Machine Game,2023.1.3,MacIntel,69.93006993,,,,,,,,,,,,,,,,,,,,,,,,,,,830,,,,,,,,,,,,,,,,,,,,,7,9,,,550.0516,13,up,0.5711,,1.5,0.3,"[3,1,2]",0.90108093,stimuli/card_100_transparent.png,100,13,0,13,0,1,,,,,,,,,,
,,,,622a4d6cf143081ed1887ee5,A,2024-07-01_17h15.23.066,Slot Machine Game,2023.1.3,MacIntel,69.93006993,,,,,,,,,,,,,,,,,,,,,,,,,,,930,,,,,,,,,,,,,,,,,,,,,7,9,,,552.9138,14,up,0.3295,,0.5,0.3,"[3,1,2]",0.684336701,stimuli/card_100_transparent.png,100,14,0,14,0,1,,,,,,,,,,
,,,,622a4d6cf143081ed1887ee5,A,2024-07-01_17h15.23.066,Slot Machine Game,2023.1.3,MacIntel,69.93006993,,,,,,,,,,,,,,,,,,,,,,,,,,,,,,,,,,,554.5487,,,,,,,,,,,,,,,,,,,,,,,,,,,,,,,,,"[460,1020,470,830,650,810,930]",6,0,6,0,1,,,,
,,,,622a4d6cf143081ed1887ee5,A,2024-07-01_17h15.23.066,Slot Machine Game,2023.1.3,MacIntel,69.93006993,,,,,,,,,,,,,,,,,,,,,,,,,,,0,,,,,,,,,,,,,,,,,,,,,8,2,"[6,15]","[[1,3,2],[3,2,1]]",559.5567,0,up,0.792,,0.5,0.3,"[1,3,2]",0.690569079,stimuli/card_0_transparent.png,0,0,0,0,0,1,,,,,,,,,,
,,,,622a4d6cf143081ed1887ee5,A,2024-07-01_17h15.23.066,Slot Machine Game,2023.1.3,MacIntel,69.93006993,,,,,,,,,,,,,,,,,,,,,,,,,,,100,,,,,,,,,,,,,,,,,,,,,8,2,,,561.648,1,left,0.0443,,1.5,0.3,"[1,3,2]",0.662240369,stimuli/card_100_transparent.png,100,1,0,1,0,1,,,,,,,,,,
,,,,622a4d6cf143081ed1887ee5,A,2024-07-01_17h15.23.066,Slot Machine Game,2023.1.3,MacIntel,69.93006993,,,,,,,,,,,,,,,,,,,,,,,,,,,200,,,,,,,,,,,,,,,,,,,,,8,2,,,563.994,2,left,0.1106,,0.5,0.3,"[1,3,2]",0.711338914,stimuli/card_100_transparent.png,100,2,0,2,0,1,,,,,,,,,,
,,,,622a4d6cf143081ed1887ee5,A,2024-07-01_17h15.23.066,Slot Machine Game,2023.1.3,MacIntel,69.93006993,,,,,,,,,,,,,,,,,,,,,,,,,,,300,,,,,,,,,,,,,,,,,,,,,8,2,,,565.4061,3,left,0.4201,,1.5,0.3,"[1,3,2]",0.342867175,stimuli/card_100_transparent.png,100,3,0,3,0,1,,,,,,,,,,
,,,,622a4d6cf143081ed1887ee5,A,2024-07-01_17h15.23.066,Slot Machine Game,2023.1.3,MacIntel,69.93006993,,,,,,,,,,,,,,,,,,,,,,,,,,,310,,,,,,,,,,,,,,,,,,,,,8,2,,,568.1248,4,left,0.0664,,1.5,0.3,"[1,3,2]",0.194786966,stimuli/card_10_transparent.png,10,4,0,4,0,1,,,,,,,,,,
,,,,622a4d6cf143081ed1887ee5,A,2024-07-01_17h15.23.066,Slot Machine Game,2023.1.3,MacIntel,69.93006993,,,,,,,,,,,,,,,,,,,,,,,,,,,410,,,,,,,,,,,,,,,,,,,,,8,2,,,570.5028,5,left,0.044,,1,0.3,"[1,3,2]",0.929328042,stimuli/card_100_transparent.png,100,5,0,5,0,1,,,,,,,,,,
,,,,622a4d6cf143081ed1887ee5,A,2024-07-01_17h15.23.066,Slot Machine Game,2023.1.3,MacIntel,69.93006993,,,,,,,,,,,,,,,,,,,,,,,,,,,410,,,,,,,,,,,,,,,,,,,,,8,2,,,572.3352,6,left,0.088,,1.5,0.3,"[3,2,1]",0.57675726,stimuli/card_0_transparent.png,0,6,0,6,0,1,,,,,,,,,,
,,,,622a4d6cf143081ed1887ee5,A,2024-07-01_17h15.23.066,Slot Machine Game,2023.1.3,MacIntel,69.93006993,,,,,,,,,,,,,,,,,,,,,,,,,,,410,,,,,,,,,,,,,,,,,,,,,8,2,,,574.7266,7,left,0.1559,,1.5,0.3,"[3,2,1]",0.628553737,stimuli/card_0_transparent.png,0,7,0,7,0,1,,,,,,,,,,
,,,,622a4d6cf143081ed1887ee5,A,2024-07-01_17h15.23.066,Slot Machine Game,2023.1.3,MacIntel,69.93006993,,,,,,,,,,,,,,,,,,,,,,,,,,,420,,,,,,,,,,,,,,,,,,,,,8,2,,,577.1703,8,up,0.111,,1,0.3,"[3,2,1]",0.353334952,stimuli/card_10_transparent.png,10,8,0,8,0,1,,,,,,,,,,
,,,,622a4d6cf143081ed1887ee5,A,2024-07-01_17h15.23.066,Slot Machine Game,2023.1.3,MacIntel,69.93006993,,,,,,,,,,,,,,,,,,,,,,,,,,,520,,,,,,,,,,,,,,,,,,,,,8,2,,,579.0751,9,right,0.2192,,1.5,0.3,"[3,2,1]",0.431201093,stimuli/card_100_transparent.png,100,9,0,9,0,1,,,,,,,,,,
,,,,622a4d6cf143081ed1887ee5,A,2024-07-01_17h15.23.066,Slot Machine Game,2023.1.3,MacIntel,69.93006993,,,,,,,,,,,,,,,,,,,,,,,,,,,530,,,,,,,,,,,,,,,,,,,,,8,2,,,581.5944,10,right,0.5521,,1.5,0.3,"[3,2,1]",0.154925554,stimuli/card_10_transparent.png,10,10,0,10,0,1,,,,,,,,,,
,,,,622a4d6cf143081ed1887ee5,A,2024-07-01_17h15.23.066,Slot Machine Game,2023.1.3,MacIntel,69.93006993,,,,,,,,,,,,,,,,,,,,,,,,,,,630,,,,,,,,,,,,,,,,,,,,,8,2,,,584.4593,11,right,0.1298,,1,0.3,"[3,2,1]",0.406065135,stimuli/card_100_transparent.png,100,11,0,11,0,1,,,,,,,,,,
,,,,622a4d6cf143081ed1887ee5,A,2024-07-01_17h15.23.066,Slot Machine Game,2023.1.3,MacIntel,69.93006993,,,,,,,,,,,,,,,,,,,,,,,,,,,640,,,,,,,,,,,,,,,,,,,,,8,2,,,586.389,12,right,0.2206,,0.5,0.3,"[3,2,1]",0.175572682,stimuli/card_10_transparent.png,10,12,0,12,0,1,,,,,,,,,,
,,,,622a4d6cf143081ed1887ee5,A,2024-07-01_17h15.23.066,Slot Machine Game,2023.1.3,MacIntel,69.93006993,,,,,,,,,,,,,,,,,,,,,,,,,,,740,,,,,,,,,,,,,,,,,,,,,8,2,,,587.9103,13,right,0.1767,,1,0.3,"[3,2,1]",0.290015923,stimuli/card_100_transparent.png,100,13,0,13,0,1,,,,,,,,,,
,,,,622a4d6cf143081ed1887ee5,A,2024-07-01_17h15.23.066,Slot Machine Game,2023.1.3,MacIntel,69.93006993,,,,,,,,,,,,,,,,,,,,,,,,,,,840,,,,,,,,,,,,,,,,,,,,,8,2,,,589.8866,14,right,0.2426,,0.5,0.3,"[3,2,1]",0.73444506,stimuli/card_100_transparent.png,100,14,0,14,0,1,,,,,,,,,,
,,,,622a4d6cf143081ed1887ee5,A,2024-07-01_17h15.23.066,Slot Machine Game,2023.1.3,MacIntel,69.93006993,,,,,,,,,,,,,,,,,,,,,,,,,,,,,,,,,,,591.4333,,,,,,,,,,,,,,,,,,,,,,,,,,,,,,,,,"[460,1020,470,830,650,810,930,840]",7,0,7,0,1,,,,
,,,,622a4d6cf143081ed1887ee5,A,2024-07-01_17h15.23.066,Slot Machine Game,2023.1.3,MacIntel,69.93006993,,,,,,,,,,,,,,,,,,,,,,,,,,,,,,,,,,,,,,,,,,,,,,,,9,10,"[10,15]","[[3,1,2],[1,3,2]]",596.4308,0,,,,0.5,0.3,,,,,0,0,0,0,1,,,,,,,,,,
,,,,622a4d6cf143081ed1887ee5,A,2024-07-01_17h15.23.066,Slot Machine Game,2023.1.3,MacIntel,69.93006993,,,,,,,,,,,,,,,,,,,,,,,,,,,10,,,,,,,,,,,,,,,,,,,,,9,10,,,601.9488,1,left,0.7021,,1.5,0.3,"[3,1,2]",0.180894102,stimuli/card_10_transparent.png,10,1,0,1,0,1,,,,,,,,,,
,,,,622a4d6cf143081ed1887ee5,A,2024-07-01_17h15.23.066,Slot Machine Game,2023.1.3,MacIntel,69.93006993,,,,,,,,,,,,,,,,,,,,,,,,,,,110,,,,,,,,,,,,,,,,,,,,,9,10,,,604.9533,2,up,0.1972,,1.5,0.3,"[3,1,2]",0.649564171,stimuli/card_100_transparent.png,100,2,0,2,0,1,,,,,,,,,,
,,,,622a4d6cf143081ed1887ee5,A,2024-07-01_17h15.23.066,Slot Machine Game,2023.1.3,MacIntel,69.93006993,,,,,,,,,,,,,,,,,,,,,,,,,,,210,,,,,,,,,,,,,,,,,,,,,9,10,,,607.4479,3,up,0.309,,0.5,0.3,"[3,1,2]",0.717542332,stimuli/card_100_transparent.png,100,3,0,3,0,1,,,,,,,,,,
,,,,622a4d6cf143081ed1887ee5,A,2024-07-01_17h15.23.066,Slot Machine Game,2023.1.3,MacIntel,69.93006993,,,,,,,,,,,,,,,,,,,,,,,,,,,310,,,,,,,,,,,,,,,,,,,,,9,10,,,609.0537,4,up,0.3578,,1.5,0.3,"[3,1,2]",0.863099177,stimuli/card_100_transparent.png,100,4,0,4,0,1,,,,,,,,,,
,,,,622a4d6cf143081ed1887ee5,A,2024-07-01_17h15.23.066,Slot Machine Game,2023.1.3,MacIntel,69.93006993,,,,,,,,,,,,,,,,,,,,,,,,,,,410,,,,,,,,,,,,,,,,,,,,,9,10,,,611.7223,5,up,0.4191,,1.5,0.3,"[3,1,2]",0.884950494,stimuli/card_100_transparent.png,100,5,0,5,0,1,,,,,,,,,,
,,,,622a4d6cf143081ed1887ee5,A,2024-07-01_17h15.23.066,Slot Machine Game,2023.1.3,MacIntel,69.93006993,,,,,,,,,,,,,,,,,,,,,,,,,,,420,,,,,,,,,,,,,,,,,,,,,9,10,,,614.4381,6,up,0.4175,,0.5,0.3,"[3,1,2]",0.173923349,stimuli/card_10_transparent.png,10,6,0,6,0,1,,,,,,,,,,
,,,,622a4d6cf143081ed1887ee5,A,2024-07-01_17h15.23.066,Slot Machine Game,2023.1.3,MacIntel,69.93006993,,,,,,,,,,,,,,,,,,,,,,,,,,,520,,,,,,,,,,,,,,,,,,,,,9,10,,,616.1527,7,up,0.1758,,0.5,0.3,"[3,1,2]",0.902292963,stimuli/card_100_transparent.png,100,7,0,7,0,1,,,,,,,,,,
,,,,622a4d6cf143081ed1887ee5,A,2024-07-01_17h15.23.066,Slot Machine Game,2023.1.3,MacIntel,69.93006993,,,,,,,,,,,,,,,,,,,,,,,,,,,620,,,,,,,,,,,,,,,,,,,,,9,10,,,617.6382,8,up,0.2867,,0.5,0.3,"[3,1,2]",0.516043565,stimuli/card_100_transparent.png,100,8,0,8,0,1,,,,,,,,,,
,,,,622a4d6cf143081ed1887ee5,A,2024-07-01_17h15.23.066,Slot Machine Game,2023.1.3,MacIntel,69.93006993,,,,,,,,,,,,,,,,,,,,,,,,,,,720,,,,,,,,,,,,,,,,,,,,,9,10,,,619.2282,9,up,0.244,,1.5,0.3,"[3,1,2]",0.969336509,stimuli/card_100_transparent.png,100,9,0,9,0,1,,,,,,,,,,
,,,,622a4d6cf143081ed1887ee5,A,2024-07-01_17h15.23.066,Slot Machine Game,2023.1.3,MacIntel,69.93006993,,,,,,,,,,,,,,,,,,,,,,,,,,,720,,,,,,,,,,,,,,,,,,,,,9,10,,,621.7768,10,up,0.044,,1,0.3,"[1,3,2]",0.743864996,stimuli/card_0_transparent.png,0,10,0,10,0,1,,,,,,,,,,
,,,,622a4d6cf143081ed1887ee5,A,2024-07-01_17h15.23.066,Slot Machine Game,2023.1.3,MacIntel,69.93006993,,,,,,,,,,,,,,,,,,,,,,,,,,,730,,,,,,,,,,,,,,,,,,,,,9,10,,,623.6201,11,up,0.1103,,1.5,0.3,"[1,3,2]",0.109342938,stimuli/card_10_transparent.png,10,11,0,11,0,1,,,,,,,,,,
,,,,622a4d6cf143081ed1887ee5,A,2024-07-01_17h15.23.066,Slot Machine Game,2023.1.3,MacIntel,69.93006993,,,,,,,,,,,,,,,,,,,,,,,,,,,740,,,,,,,,,,,,,,,,,,,,,9,10,,,626.0181,12,right,0.4332,,1.5,0.3,"[1,3,2]",0.434941018,stimuli/card_10_transparent.png,10,12,0,12,0,1,,,,,,,,,,
,,,,622a4d6cf143081ed1887ee5,A,2024-07-01_17h15.23.066,Slot Machine Game,2023.1.3,MacIntel,69.93006993,,,,,,,,,,,,,,,,,,,,,,,,,,,750,,,,,,,,,,,,,,,,,,,,,9,10,,,628.7533,13,right,0.5097,,1,0.3,"[1,3,2]",0.951772476,stimuli/card_10_transparent.png,10,13,0,13,0,1,,,,,,,,,,
,,,,622a4d6cf143081ed1887ee5,A,2024-07-01_17h15.23.066,Slot Machine Game,2023.1.3,MacIntel,69.93006993,,,,,,,,,,,,,,,,,,,,,,,,,,,850,,,,,,,,,,,,,,,,,,,,,9,10,,,631.0503,14,left,0.3975,,1,0.3,"[1,3,2]",0.516142842,stimuli/card_100_transparent.png,100,14,0,14,0,1,,,,,,,,,,
,,,,622a4d6cf143081ed1887ee5,A,2024-07-01_17h15.23.066,Slot Machine Game,2023.1.3,MacIntel,69.93006993,,,,,,,,,,,,,,,,,,,,,,,,,,,,,,,,,,,633.2517,,,,,,,,,,,,,,,,,,,,,,,,,,,,,,,,,"[460,1020,470,830,650,810,930,840,850]",8,0,8,0,1,,,,
,,,,622a4d6cf143081ed1887ee5,A,2024-07-01_17h15.23.066,Slot Machine Game,2023.1.3,MacIntel,69.93006993,,,,,,,,,,,,,,,,,,,,,,,,,,,0,,,,,,,,,,,,,,,,,,,,,10,3,"[15,15]","[[3,1,2],[3,1,2]]",638.2417,0,left,0.7168,,0.5,0.3,"[3,1,2]",0.4390336,stimuli/card_0_transparent.png,0,0,0,0,0,1,,,,,,,,,,
,,,,622a4d6cf143081ed1887ee5,A,2024-07-01_17h15.23.066,Slot Machine Game,2023.1.3,MacIntel,69.93006993,,,,,,,,,,,,,,,,,,,,,,,,,,,100,,,,,,,,,,,,,,,,,,,,,10,3,,,640.2734,1,up,0.1941,,0.5,0.3,"[3,1,2]",0.54157934,stimuli/card_100_transparent.png,100,1,0,1,0,1,,,,,,,,,,
,,,,622a4d6cf143081ed1887ee5,A,2024-07-01_17h15.23.066,Slot Machine Game,2023.1.3,MacIntel,69.93006993,,,,,,,,,,,,,,,,,,,,,,,,,,,200,,,,,,,,,,,,,,,,,,,,,10,3,,,641.762,2,up,0.0434,,0.5,0.3,"[3,1,2]",0.486674766,stimuli/card_100_transparent.png,100,2,0,2,0,1,,,,,,,,,,
,,,,622a4d6cf143081ed1887ee5,A,2024-07-01_17h15.23.066,Slot Machine Game,2023.1.3,MacIntel,69.93006993,,,,,,,,,,,,,,,,,,,,,,,,,,,210,,,,,,,,,,,,,,,,,,,,,10,3,,,643.1056,3,up,0.564,,1,0.3,"[3,1,2]",0.112854987,stimuli/card_10_transparent.png,10,3,0,3,0,1,,,,,,,,,,
,,,,622a4d6cf143081ed1887ee5,A,2024-07-01_17h15.23.066,Slot Machine Game,2023.1.3,MacIntel,69.93006993,,,,,,,,,,,,,,,,,,,,,,,,,,,310,,,,,,,,,,,,,,,,,,,,,10,3,,,645.4726,4,up,0.3303,,0.5,0.3,"[3,1,2]",0.946423756,stimuli/card_100_transparent.png,100,4,0,4,0,1,,,,,,,,,,
,,,,622a4d6cf143081ed1887ee5,A,2024-07-01_17h15.23.066,Slot Machine Game,2023.1.3,MacIntel,69.93006993,,,,,,,,,,,,,,,,,,,,,,,,,,,410,,,,,,,,,,,,,,,,,,,,,10,3,,,647.1032,5,up,0.3091,,0.5,0.3,"[3,1,2]",0.362760367,stimuli/card_100_transparent.png,100,5,0,5,0,1,,,,,,,,,,
,,,,622a4d6cf143081ed1887ee5,A,2024-07-01_17h15.23.066,Slot Machine Game,2023.1.3,MacIntel,69.93006993,,,,,,,,,,,,,,,,,,,,,,,,,,,510,,,,,,,,,,,,,,,,,,,,,10,3,,,648.7095,6,up,0.6979,,1.5,0.3,"[3,1,2]",0.217895356,stimuli/card_100_transparent.png,100,6,0,6,0,1,,,,,,,,,,
,,,,622a4d6cf143081ed1887ee5,A,2024-07-01_17h15.23.066,Slot Machine Game,2023.1.3,MacIntel,69.93006993,,,,,,,,,,,,,,,,,,,,,,,,,,,610,,,,,,,,,,,,,,,,,,,,,10,3,,,651.6957,7,up,0.0434,,1,0.3,"[3,1,2]",0.396103148,stimuli/card_100_transparent.png,100,7,0,7,0,1,,,,,,,,,,
,,,,622a4d6cf143081ed1887ee5,A,2024-07-01_17h15.23.066,Slot Machine Game,2023.1.3,MacIntel,69.93006993,,,,,,,,,,,,,,,,,,,,,,,,,,,610,,,,,,,,,,,,,,,,,,,,,10,3,,,653.5359,8,up,0.1749,,1,0.3,"[3,1,2]",0.063414215,stimuli/card_0_transparent.png,0,8,0,8,0,1,,,,,,,,,,
,,,,622a4d6cf143081ed1887ee5,A,2024-07-01_17h15.23.066,Slot Machine Game,2023.1.3,MacIntel,69.93006993,,,,,,,,,,,,,,,,,,,,,,,,,,,710,,,,,,,,,,,,,,,,,,,,,10,3,,,655.5267,9,up,0.0448,,1.5,0.3,"[3,1,2]",0.409163077,stimuli/card_100_transparent.png,100,9,0,9,0,1,,,,,,,,,,
,,,,622a4d6cf143081ed1887ee5,A,2024-07-01_17h15.23.066,Slot Machine Game,2023.1.3,MacIntel,69.93006993,,,,,,,,,,,,,,,,,,,,,,,,,,,810,,,,,,,,,,,,,,,,,,,,,10,3,,,657.8783,10,up,0.0439,,0.5,0.3,"[3,1,2]",0.717749545,stimuli/card_100_transparent.png,100,10,0,10,0,1,,,,,,,,,,
,,,,622a4d6cf143081ed1887ee5,A,2024-07-01_17h15.23.066,Slot Machine Game,2023.1.3,MacIntel,69.93006993,,,,,,,,,,,,,,,,,,,,,,,,,,,910,,,,,,,,,,,,,,,,,,,,,10,3,,,659.2373,11,up,0.2436,,1.5,0.3,"[3,1,2]",0.436656374,stimuli/card_100_transparent.png,100,11,0,11,0,1,,,,,,,,,,
,,,,622a4d6cf143081ed1887ee5,A,2024-07-01_17h15.23.066,Slot Machine Game,2023.1.3,MacIntel,69.93006993,,,,,,,,,,,,,,,,,,,,,,,,,,,1010,,,,,,,,,,,,,,,,,,,,,10,3,,,661.7695,12,up,0.0231,,1,0.3,"[3,1,2]",0.630459467,stimuli/card_100_transparent.png,100,12,0,12,0,1,,,,,,,,,,
,,,,622a4d6cf143081ed1887ee5,A,2024-07-01_17h15.23.066,Slot Machine Game,2023.1.3,MacIntel,69.93006993,,,,,,,,,,,,,,,,,,,,,,,,,,,1110,,,,,,,,,,,,,,,,,,,,,10,3,,,663.5969,13,up,0.2593,,1.5,0.3,"[3,1,2]",0.236625253,stimuli/card_100_transparent.png,100,13,0,13,0,1,,,,,,,,,,
,,,,622a4d6cf143081ed1887ee5,A,2024-07-01_17h15.23.066,Slot Machine Game,2023.1.3,MacIntel,69.93006993,,,,,,,,,,,,,,,,,,,,,,,,,,,1210,,,,,,,,,,,,,,,,,,,,,10,3,,,666.1499,14,up,0.1757,,0.5,0.3,"[3,1,2]",0.461309198,stimuli/card_100_transparent.png,100,14,0,14,0,1,,,,,,,,,,
,,,,622a4d6cf143081ed1887ee5,A,2024-07-01_17h15.23.066,Slot Machine Game,2023.1.3,MacIntel,69.93006993,,,,,,,,,,,,,,,,,,,,,,,,,,,,,,,,,,,667.6315,,,,,,,,,,,,,,,,,,,,,,,,,,,,,,,,,"[460,1020,470,830,650,810,930,840,850,1210]",9,0,9,0,1,,,,
,,,,622a4d6cf143081ed1887ee5,A,2024-07-01_17h15.23.066,Slot Machine Game,2023.1.3,MacIntel,69.93006993,,,,,,,,,,,,,,,,,,,,,,,,,,,,,,,,,,,,,,,,,,,,,,,,,,,,,,,,,,,,,,,,,,,,,,,,,,9,"[460,1020,470,830,650,810,930,840,850,1210]",4.7,2024-07-01_17h26.39.725
