key_resp_welcome_started,key_resp_welcome_keys,key_resp_welcome_rt,key_resp_welcome_duration,prolific_id,path_id,date,expName,psychopyVersion,OS,frameRate,key_resp_instruction1_started,key_resp_instruction1_keys,key_resp_instruction1_rt,key_resp_instruction1_duration,key_resp_instruction2_started,key_resp_instruction2_keys,key_resp_instruction2_rt,key_resp_instruction2_duration,key_resp_instruction3_started,key_resp_instruction3_keys,key_resp_instruction3_rt,key_resp_instruction3_duration,key_resp_instruction4_started,key_resp_instruction4_keys,key_resp_instruction4_rt,key_resp_instruction4_duration,practiceCondition,practice_reward_seqs,practice_trial_started,practice_trial_num,practice_resp_rt,practice_resp_duration,practice_resp_keys,prac_presentationInterval,"practice_reward_seq: 2,1,3",reward_img,cumulative_reward,trial_reward,practice_trials.thisRepN,practice_trials.thisTrialN,practice_trials.thisN,practice_trials.thisIndex,practice_trials.ran,"practice_reward_seq: 2,3,1",block_break_started,"practice_reward_seq: 1,3,2","practice_reward_seq: 3,1,2",practice_end_time,practice_end_keys,practice_end_rt,practice_end_duration,main_instruction_text_started,block_condition,block_order_indices,main_instruction_keys,main_instruction_rt,main_instruction_duration,block_number,block_assignment,current_condition,main_reward_seqs,main_trial_started,main_trial_num,main_trial_keys,main_trial_rt,main_trial_duration,main_presentationInterval,reward_presentation_time,main_reward_seq,reward_rand_val,main_reward_img,current_reward,main_trials.thisRepN,main_trials.thisTrialN,main_trials.thisN,main_trials.thisIndex,main_trials.ran,block_reward,block.thisRepN,block.thisTrialN,block.thisN,block.thisIndex,block.ran,block_reward.length,block_reward_all,reward_amount,date_end_task
0.0002,space,1.8269,,62743aeb9ef8628d06ec5a75,A,2024-07-01_14h36.36.844,Slot Machine Game,2023.1.3,Win32,59.88023952,,,,,,,,,,,,,,,,,,,,,,,,,,,,,,,,,,,,,,,,,,,,,,,,,,,,,,,,,,,,,,,,,,,,,,,,,,,,,
,,,,62743aeb9ef8628d06ec5a75,A,2024-07-01_14h36.36.844,Slot Machine Game,2023.1.3,Win32,59.88023952,1.8347,space,5.4768,,,,,,,,,,,,,,,,,,,,,,,,,,,,,,,,,,,,,,,,,,,,,,,,,,,,,,,,,,,,,,,,,,,,,,,,,,
,,,,62743aeb9ef8628d06ec5a75,A,2024-07-01_14h36.36.844,Slot Machine Game,2023.1.3,Win32,59.88023952,,,,,7.3295,space,18.2407,,,,,,,,,,,,,,,,,,,,,,,,,,,,,,,,,,,,,,,,,,,,,,,,,,,,,,,,,,,,,,,,,,,,,,
,,,,62743aeb9ef8628d06ec5a75,A,2024-07-01_14h36.36.844,Slot Machine Game,2023.1.3,Win32,59.88023952,,,,,,,,,25.6127,space,6.2498,,,,,,,,,,,,,,,,,,,,,,,,,,,,,,,,,,,,,,,,,,,,,,,,,,,,,,,,,,,,,,,,,,
,,,,62743aeb9ef8628d06ec5a75,A,2024-07-01_14h36.36.844,Slot Machine Game,2023.1.3,Win32,59.88023952,,,,,,,,,,,,,,,,,,,,,,,,,,,,,,,,,,,,,,,,,,,,,,,,,,,,,,,,,,,,,,,,,,,,,,,,,,,,,
,,,,62743aeb9ef8628d06ec5a75,A,2024-07-01_14h36.36.844,Slot Machine Game,2023.1.3,Win32,59.88023952,,,,,,,,,,,,,173.5847,space,1.7914,,,,,,,,,,,,,,,,,,,,,,,,,,,,,,,,,,,,,,,,,,,,,,,,,,,,,,,,,,,,,,
,,,,62743aeb9ef8628d06ec5a75,A,2024-07-01_14h36.36.844,Slot Machine Game,2023.1.3,Win32,59.88023952,,,,,,,,,,,,,,,,,"[9,15]","[[2,1,3],[2,3,1]]",175.3975,0,1.3698,,left,1.5,,stimuli/card_10_transparent.png,10,10,0,0,0,0,1,,,,,,,,,,,,,,,,,,,,,,,,,,,,,,,,,,,,,,,,,,,,
,,,,62743aeb9ef8628d06ec5a75,A,2024-07-01_14h36.36.844,Slot Machine Game,2023.1.3,Win32,59.88023952,,,,,,,,,,,,,,,,,,,179.0953,1,1.0528,,up,1,,stimuli/card_100_transparent.png,110,100,1,0,1,0,1,,,,,,,,,,,,,,,,,,,,,,,,,,,,,,,,,,,,,,,,,,,,
,,,,62743aeb9ef8628d06ec5a75,A,2024-07-01_14h36.36.844,Slot Machine Game,2023.1.3,Win32,59.88023952,,,,,,,,,,,,,,,,,,,181.9785,2,0.9267,,up,1.5,,stimuli/card_100_transparent.png,210,100,2,0,2,0,1,,,,,,,,,,,,,,,,,,,,,,,,,,,,,,,,,,,,,,,,,,,,
,,,,62743aeb9ef8628d06ec5a75,A,2024-07-01_14h36.36.844,Slot Machine Game,2023.1.3,Win32,59.88023952,,,,,,,,,,,,,,,,,,,185.2285,3,0.2001,,up,0.5,,stimuli/card_100_transparent.png,310,100,3,0,3,0,1,,,,,,,,,,,,,,,,,,,,,,,,,,,,,,,,,,,,,,,,,,,,
,,,,62743aeb9ef8628d06ec5a75,A,2024-07-01_14h36.36.844,Slot Machine Game,2023.1.3,Win32,59.88023952,,,,,,,,,,,,,,,,,,,186.762,4,0.5619,,up,1,,stimuli/card_100_transparent.png,410,100,4,0,4,0,1,,,,,,,,,,,,,,,,,,,,,,,,,,,,,,,,,,,,,,,,,,,,
,,,,62743aeb9ef8628d06ec5a75,A,2024-07-01_14h36.36.844,Slot Machine Game,2023.1.3,Win32,59.88023952,,,,,,,,,,,,,,,,,,,189.1452,5,0.124,,up,1.5,,stimuli/card_100_transparent.png,510,100,5,0,5,0,1,,,,,,,,,,,,,,,,,,,,,,,,,,,,,,,,,,,,,,,,,,,,
,,,,62743aeb9ef8628d06ec5a75,A,2024-07-01_14h36.36.844,Slot Machine Game,2023.1.3,Win32,59.88023952,,,,,,,,,,,,,,,,,,,191.5952,6,2.0256,,up,0.5,,stimuli/card_10_transparent.png,520,10,6,0,6,0,1,,,,,,,,,,,,,,,,,,,,,,,,,,,,,,,,,,,,,,,,,,,,
,,,,62743aeb9ef8628d06ec5a75,A,2024-07-01_14h36.36.844,Slot Machine Game,2023.1.3,Win32,59.88023952,,,,,,,,,,,,,,,,,,,194.9452,7,0.7017,,up,1,,stimuli/card_0_transparent.png,520,0,7,0,7,0,1,,,,,,,,,,,,,,,,,,,,,,,,,,,,,,,,,,,,,,,,,,,,
,,,,62743aeb9ef8628d06ec5a75,A,2024-07-01_14h36.36.844,Slot Machine Game,2023.1.3,Win32,59.88023952,,,,,,,,,,,,,,,,,,,197.4784,8,1.6763,,right,1.5,,stimuli/card_0_transparent.png,520,0,8,0,8,0,1,,,,,,,,,,,,,,,,,,,,,,,,,,,,,,,,,,,,,,,,,,,,
,,,,62743aeb9ef8628d06ec5a75,A,2024-07-01_14h36.36.844,Slot Machine Game,2023.1.3,Win32,59.88023952,,,,,,,,,,,,,,,,,,,201.4785,9,0.7653,,left,1.5,,stimuli/card_10_transparent.png,530,10,9,0,9,0,1,,,,,,,,,,,,,,,,,,,,,,,,,,,,,,,,,,,,,,,,,,,,
,,,,62743aeb9ef8628d06ec5a75,A,2024-07-01_14h36.36.844,Slot Machine Game,2023.1.3,Win32,59.88023952,,,,,,,,,,,,,,,,,,,204.5783,10,0.3268,,up,1,,stimuli/card_100_transparent.png,630,100,10,0,10,0,1,,,,,,,,,,,,,,,,,,,,,,,,,,,,,,,,,,,,,,,,,,,,
,,,,62743aeb9ef8628d06ec5a75,A,2024-07-01_14h36.36.844,Slot Machine Game,2023.1.3,Win32,59.88023952,,,,,,,,,,,,,,,,,,,206.7282,11,0.1721,,up,1.5,,stimuli/card_0_transparent.png,630,0,11,0,11,0,1,,,,,,,,,,,,,,,,,,,,,,,,,,,,,,,,,,,,,,,,,,,,
,,,,62743aeb9ef8628d06ec5a75,A,2024-07-01_14h36.36.844,Slot Machine Game,2023.1.3,Win32,59.88023952,,,,,,,,,,,,,,,,,,,209.2116,12,0.2837,,up,1.5,,stimuli/card_0_transparent.png,630,0,12,0,12,0,1,,,,,,,,,,,,,,,,,,,,,,,,,,,,,,,,,,,,,,,,,,,,
,,,,62743aeb9ef8628d06ec5a75,A,2024-07-01_14h36.36.844,Slot Machine Game,2023.1.3,Win32,59.88023952,,,,,,,,,,,,,,,,,,,211.8285,13,0.4169,,up,1,,stimuli/card_0_transparent.png,630,0,13,0,13,0,1,,,,,,,,,,,,,,,,,,,,,,,,,,,,,,,,,,,,,,,,,,,,
,,,,62743aeb9ef8628d06ec5a75,A,2024-07-01_14h36.36.844,Slot Machine Game,2023.1.3,Win32,59.88023952,,,,,,,,,,,,,,,,,,,214.0782,14,0.0371,,right,1.5,,stimuli/card_100_transparent.png,730,100,14,0,14,0,1,,,,,,,,,,,,,,,,,,,,,,,,,,,,,,,,,,,,,,,,,,,,
,,,,62743aeb9ef8628d06ec5a75,A,2024-07-01_14h36.36.844,Slot Machine Game,2023.1.3,Win32,59.88023952,,,,,,,,,,,,,,,,,"[6,15]","[[1,3,2],[3,1,2]]",221.4523,0,0.8672,,left,1.5,,stimuli/card_100_transparent.png,100,100,0,0,0,0,1,,216.4522,,,,,,,,,,,,,,,,,,,,,,,,,,,,,,,,,,,,,,,,,,
,,,,62743aeb9ef8628d06ec5a75,A,2024-07-01_14h36.36.844,Slot Machine Game,2023.1.3,Win32,59.88023952,,,,,,,,,,,,,,,,,,,224.6452,1,0.1915,,left,1.5,,stimuli/card_100_transparent.png,200,100,1,0,1,0,1,,,,,,,,,,,,,,,,,,,,,,,,,,,,,,,,,,,,,,,,,,,,
,,,,62743aeb9ef8628d06ec5a75,A,2024-07-01_14h36.36.844,Slot Machine Game,2023.1.3,Win32,59.88023952,,,,,,,,,,,,,,,,,,,227.1617,2,1.9172,,left,0.5,,stimuli/card_100_transparent.png,300,100,2,0,2,0,1,,,,,,,,,,,,,,,,,,,,,,,,,,,,,,,,,,,,,,,,,,,,
,,,,62743aeb9ef8628d06ec5a75,A,2024-07-01_14h36.36.844,Slot Machine Game,2023.1.3,Win32,59.88023952,,,,,,,,,,,,,,,,,,,230.4118,3,0.1037,,left,0.5,,stimuli/card_100_transparent.png,400,100,3,0,3,0,1,,,,,,,,,,,,,,,,,,,,,,,,,,,,,,,,,,,,,,,,,,,,
,,,,62743aeb9ef8628d06ec5a75,A,2024-07-01_14h36.36.844,Slot Machine Game,2023.1.3,Win32,59.88023952,,,,,,,,,,,,,,,,,,,231.8451,4,0.0836,,left,1,,stimuli/card_100_transparent.png,500,100,4,0,4,0,1,,,,,,,,,,,,,,,,,,,,,,,,,,,,,,,,,,,,,,,,,,,,
,,,,62743aeb9ef8628d06ec5a75,A,2024-07-01_14h36.36.844,Slot Machine Game,2023.1.3,Win32,59.88023952,,,,,,,,,,,,,,,,,,,233.7618,5,0.0267,,left,0.5,,stimuli/card_10_transparent.png,510,10,5,0,5,0,1,,,,,,,,,,,,,,,,,,,,,,,,,,,,,,,,,,,,,,,,,,,,
,,,,62743aeb9ef8628d06ec5a75,A,2024-07-01_14h36.36.844,Slot Machine Game,2023.1.3,Win32,59.88023952,,,,,,,,,,,,,,,,,,,235.1118,6,0.0223,,left,1,,stimuli/card_0_transparent.png,510,0,6,0,6,0,1,,,,,,,,,,,,,,,,,,,,,,,,,,,,,,,,,,,,,,,,,,,,
,,,,62743aeb9ef8628d06ec5a75,A,2024-07-01_14h36.36.844,Slot Machine Game,2023.1.3,Win32,59.88023952,,,,,,,,,,,,,,,,,,,236.9451,7,0.1337,,left,0.5,,stimuli/card_0_transparent.png,510,0,7,0,7,0,1,,,,,,,,,,,,,,,,,,,,,,,,,,,,,,,,,,,,,,,,,,,,
,,,,62743aeb9ef8628d06ec5a75,A,2024-07-01_14h36.36.844,Slot Machine Game,2023.1.3,Win32,59.88023952,,,,,,,,,,,,,,,,,,,238.4117,8,1.8665,,up,1.5,,stimuli/card_100_transparent.png,610,100,8,0,8,0,1,,,,,,,,,,,,,,,,,,,,,,,,,,,,,,,,,,,,,,,,,,,,
,,,,62743aeb9ef8628d06ec5a75,A,2024-07-01_14h36.36.844,Slot Machine Game,2023.1.3,Win32,59.88023952,,,,,,,,,,,,,,,,,,,242.5948,9,0.0093,,up,1.5,,stimuli/card_100_transparent.png,710,100,9,0,9,0,1,,,,,,,,,,,,,,,,,,,,,,,,,,,,,,,,,,,,,,,,,,,,
,,,,62743aeb9ef8628d06ec5a75,A,2024-07-01_14h36.36.844,Slot Machine Game,2023.1.3,Win32,59.88023952,,,,,,,,,,,,,,,,,,,244.9118,10,1.6422,,up,1.5,,stimuli/card_0_transparent.png,710,0,10,0,10,0,1,,,,,,,,,,,,,,,,,,,,,,,,,,,,,,,,,,,,,,,,,,,,
,,,,62743aeb9ef8628d06ec5a75,A,2024-07-01_14h36.36.844,Slot Machine Game,2023.1.3,Win32,59.88023952,,,,,,,,,,,,,,,,,,,248.8781,11,0.182,,up,1,,stimuli/card_100_transparent.png,810,100,11,0,11,0,1,,,,,,,,,,,,,,,,,,,,,,,,,,,,,,,,,,,,,,,,,,,,
,,,,62743aeb9ef8628d06ec5a75,A,2024-07-01_14h36.36.844,Slot Machine Game,2023.1.3,Win32,59.88023952,,,,,,,,,,,,,,,,,,,250.8782,12,0.0444,,up,1.5,,stimuli/card_100_transparent.png,910,100,12,0,12,0,1,,,,,,,,,,,,,,,,,,,,,,,,,,,,,,,,,,,,,,,,,,,,
,,,,62743aeb9ef8628d06ec5a75,A,2024-07-01_14h36.36.844,Slot Machine Game,2023.1.3,Win32,59.88023952,,,,,,,,,,,,,,,,,,,253.2451,13,1.9319,,up,0.5,,stimuli/card_10_transparent.png,920,10,13,0,13,0,1,,,,,,,,,,,,,,,,,,,,,,,,,,,,,,,,,,,,,,,,,,,,
,,,,62743aeb9ef8628d06ec5a75,A,2024-07-01_14h36.36.844,Slot Machine Game,2023.1.3,Win32,59.88023952,,,,,,,,,,,,,,,,,,,256.5118,14,0.0362,,up,1.5,,stimuli/card_100_transparent.png,1020,100,14,0,14,0,1,,,,,,,,,,,,,,,,,,,,,,,,,,,,,,,,,,,,,,,,,,,,
,,,,62743aeb9ef8628d06ec5a75,A,2024-07-01_14h36.36.844,Slot Machine Game,2023.1.3,Win32,59.88023952,,,,,,,,,,,,,,,,,,,,,,,,,,,,,,,,,,,258.8783,,,263.8786,space,2.1755,,,,,,,,,,,,,,,,,,,,,,,,,,,,,,,,,,,,,
,,,,62743aeb9ef8628d06ec5a75,A,2024-07-01_14h36.36.844,Slot Machine Game,2023.1.3,Win32,59.88023952,,,,,,,,,,,,,,,,,,,,,,,,,,,,,,,,,,,,,,,,,,266.0617,3,"[0,4,6,3,5,7,8,1,9,2]",space,2.1469,,,,,,,,,,,,,,,,,,,,,,,,,,,,,,,
,,,,62743aeb9ef8628d06ec5a75,A,2024-07-01_14h36.36.844,Slot Machine Game,2023.1.3,Win32,59.88023952,,,,,,,,,,,,,,,,,,,,,,,,,,,10,,,,,,,,,,,,,,,,,,,,,1,1,"[12,15]","[[2,1,3],[2,3,1]]",268.2368,0,left,0.6153,,1.5,0.3,"[2,1,3]",0.238962088,stimuli/card_10_transparent.png,10,0,0,0,0,1,,,,,,,,,,
,,,,62743aeb9ef8628d06ec5a75,A,2024-07-01_14h36.36.844,Slot Machine Game,2023.1.3,Win32,59.88023952,,,,,,,,,,,,,,,,,,,,,,,,,,,110,,,,,,,,,,,,,,,,,,,,,1,1,,,271.1784,1,up,0.5047,,1,0.3,"[2,1,3]",0.66677555,stimuli/card_100_transparent.png,100,1,0,1,0,1,,,,,,,,,,
,,,,62743aeb9ef8628d06ec5a75,A,2024-07-01_14h36.36.844,Slot Machine Game,2023.1.3,Win32,59.88023952,,,,,,,,,,,,,,,,,,,,,,,,,,,210,,,,,,,,,,,,,,,,,,,,,1,1,,,273.5117,2,up,0.1864,,0.5,0.3,"[2,1,3]",0.349287856,stimuli/card_100_transparent.png,100,2,0,2,0,1,,,,,,,,,,
,,,,62743aeb9ef8628d06ec5a75,A,2024-07-01_14h36.36.844,Slot Machine Game,2023.1.3,Win32,59.88023952,,,,,,,,,,,,,,,,,,,,,,,,,,,310,,,,,,,,,,,,,,,,,,,,,1,1,,,275.0282,3,up,0.1388,,0.5,0.3,"[2,1,3]",0.250615263,stimuli/card_100_transparent.png,100,3,0,3,0,1,,,,,,,,,,
,,,,62743aeb9ef8628d06ec5a75,A,2024-07-01_14h36.36.844,Slot Machine Game,2023.1.3,Win32,59.88023952,,,,,,,,,,,,,,,,,,,,,,,,,,,310,,,,,,,,,,,,,,,,,,,,,1,1,,,276.4951,4,up,0.0561,,1,0.3,"[2,1,3]",0.065036678,stimuli/card_0_transparent.png,0,4,0,4,0,1,,,,,,,,,,
,,,,62743aeb9ef8628d06ec5a75,A,2024-07-01_14h36.36.844,Slot Machine Game,2023.1.3,Win32,59.88023952,,,,,,,,,,,,,,,,,,,,,,,,,,,410,,,,,,,,,,,,,,,,,,,,,1,1,,,278.3614,5,up,0.0182,,1.5,0.3,"[2,1,3]",0.924438607,stimuli/card_100_transparent.png,100,5,0,5,0,1,,,,,,,,,,
,,,,62743aeb9ef8628d06ec5a75,A,2024-07-01_14h36.36.844,Slot Machine Game,2023.1.3,Win32,59.88023952,,,,,,,,,,,,,,,,,,,,,,,,,,,510,,,,,,,,,,,,,,,,,,,,,1,1,,,280.695,6,up,0.004,,1,0.3,"[2,1,3]",0.486601113,stimuli/card_100_transparent.png,100,6,0,6,0,1,,,,,,,,,,
,,,,62743aeb9ef8628d06ec5a75,A,2024-07-01_14h36.36.844,Slot Machine Game,2023.1.3,Win32,59.88023952,,,,,,,,,,,,,,,,,,,,,,,,,,,520,,,,,,,,,,,,,,,,,,,,,1,1,,,282.5117,7,up,0.0363,,1.5,0.3,"[2,1,3]",0.15916344,stimuli/card_10_transparent.png,10,7,0,7,0,1,,,,,,,,,,
,,,,62743aeb9ef8628d06ec5a75,A,2024-07-01_14h36.36.844,Slot Machine Game,2023.1.3,Win32,59.88023952,,,,,,,,,,,,,,,,,,,,,,,,,,,520,,,,,,,,,,,,,,,,,,,,,1,1,,,284.8782,8,up,0.0694,,1,0.3,"[2,1,3]",0.076667947,stimuli/card_0_transparent.png,0,8,0,8,0,1,,,,,,,,,,
,,,,62743aeb9ef8628d06ec5a75,A,2024-07-01_14h36.36.844,Slot Machine Game,2023.1.3,Win32,59.88023952,,,,,,,,,,,,,,,,,,,,,,,,,,,620,,,,,,,,,,,,,,,,,,,,,1,1,,,286.7617,9,up,0.1148,,0.5,0.3,"[2,1,3]",0.725723209,stimuli/card_100_transparent.png,100,9,0,9,0,1,,,,,,,,,,
,,,,62743aeb9ef8628d06ec5a75,A,2024-07-01_14h36.36.844,Slot Machine Game,2023.1.3,Win32,59.88023952,,,,,,,,,,,,,,,,,,,,,,,,,,,720,,,,,,,,,,,,,,,,,,,,,1,1,,,288.2116,10,up,0.2194,,1.5,0.3,"[2,1,3]",0.933125732,stimuli/card_100_transparent.png,100,10,0,10,0,1,,,,,,,,,,
,,,,62743aeb9ef8628d06ec5a75,A,2024-07-01_14h36.36.844,Slot Machine Game,2023.1.3,Win32,59.88023952,,,,,,,,,,,,,,,,,,,,,,,,,,,820,,,,,,,,,,,,,,,,,,,,,1,1,,,290.7618,11,up,0.1065,,1,0.3,"[2,1,3]",0.248529729,stimuli/card_100_transparent.png,100,11,0,11,0,1,,,,,,,,,,
,,,,62743aeb9ef8628d06ec5a75,A,2024-07-01_14h36.36.844,Slot Machine Game,2023.1.3,Win32,59.88023952,,,,,,,,,,,,,,,,,,,,,,,,,,,830,,,,,,,,,,,,,,,,,,,,,1,1,,,292.6951,12,up,0.0551,,1.5,0.3,"[2,3,1]",0.165942286,stimuli/card_10_transparent.png,10,12,0,12,0,1,,,,,,,,,,
,,,,62743aeb9ef8628d06ec5a75,A,2024-07-01_14h36.36.844,Slot Machine Game,2023.1.3,Win32,59.88023952,,,,,,,,,,,,,,,,,,,,,,,,,,,830,,,,,,,,,,,,,,,,,,,,,1,1,,,295.0781,13,up,0.0191,,0.5,0.3,"[2,3,1]",0.988271471,stimuli/card_0_transparent.png,0,13,0,13,0,1,,,,,,,,,,
,,,,62743aeb9ef8628d06ec5a75,A,2024-07-01_14h36.36.844,Slot Machine Game,2023.1.3,Win32,59.88023952,,,,,,,,,,,,,,,,,,,,,,,,,,,830,,,,,,,,,,,,,,,,,,,,,1,1,,,296.4117,14,up,0.2863,,0.5,0.3,"[2,3,1]",0.519525911,stimuli/card_0_transparent.png,0,14,0,14,0,1,,,,,,,,,,
,,,,62743aeb9ef8628d06ec5a75,A,2024-07-01_14h36.36.844,Slot Machine Game,2023.1.3,Win32,59.88023952,,,,,,,,,,,,,,,,,,,,,,,,,,,,,,,,,,,298.0116,,,,,,,,,,,,,,,,,,,,,,,,,,,,,,,,,[830],0,0,0,0,1,,,,
,,,,62743aeb9ef8628d06ec5a75,A,2024-07-01_14h36.36.844,Slot Machine Game,2023.1.3,Win32,59.88023952,,,,,,,,,,,,,,,,,,,,,,,,,,,0,,,,,,,,,,,,,,,,,,,,,2,5,"[5,15]","[[1,2,3],[3,1,2]]",303.0193,0,left,0.4079,,1,0.3,"[1,2,3]",0.091609964,stimuli/card_0_transparent.png,0,0,0,0,0,1,,,,,,,,,,
,,,,62743aeb9ef8628d06ec5a75,A,2024-07-01_14h36.36.844,Slot Machine Game,2023.1.3,Win32,59.88023952,,,,,,,,,,,,,,,,,,,,,,,,,,,10,,,,,,,,,,,,,,,,,,,,,2,5,,,305.2451,1,up,0.419,,0.5,0.3,"[1,2,3]",0.561556796,stimuli/card_10_transparent.png,10,1,0,1,0,1,,,,,,,,,,
,,,,62743aeb9ef8628d06ec5a75,A,2024-07-01_14h36.36.844,Slot Machine Game,2023.1.3,Win32,59.88023952,,,,,,,,,,,,,,,,,,,,,,,,,,,10,,,,,,,,,,,,,,,,,,,,,2,5,,,306.9951,2,right,0.0499,,0.5,0.3,"[1,2,3]",0.797257103,stimuli/card_0_transparent.png,0,2,0,2,0,1,,,,,,,,,,
,,,,62743aeb9ef8628d06ec5a75,A,2024-07-01_14h36.36.844,Slot Machine Game,2023.1.3,Win32,59.88023952,,,,,,,,,,,,,,,,,,,,,,,,,,,20,,,,,,,,,,,,,,,,,,,,,2,5,,,308.3782,3,up,0.7589,,0.5,0.3,"[1,2,3]",0.453498195,stimuli/card_10_transparent.png,10,3,0,3,0,1,,,,,,,,,,
,,,,62743aeb9ef8628d06ec5a75,A,2024-07-01_14h36.36.844,Slot Machine Game,2023.1.3,Win32,59.88023952,,,,,,,,,,,,,,,,,,,,,,,,,,,120,,,,,,,,,,,,,,,,,,,,,2,5,,,310.4619,4,left,0.2251,,0.5,0.3,"[1,2,3]",0.876598327,stimuli/card_100_transparent.png,100,4,0,4,0,1,,,,,,,,,,
,,,,62743aeb9ef8628d06ec5a75,A,2024-07-01_14h36.36.844,Slot Machine Game,2023.1.3,Win32,59.88023952,,,,,,,,,,,,,,,,,,,,,,,,,,,120,,,,,,,,,,,,,,,,,,,,,2,5,,,312.0116,5,left,0.2002,,1,0.3,"[3,1,2]",0.646590977,stimuli/card_0_transparent.png,0,5,0,5,0,1,,,,,,,,,,
,,,,62743aeb9ef8628d06ec5a75,A,2024-07-01_14h36.36.844,Slot Machine Game,2023.1.3,Win32,59.88023952,,,,,,,,,,,,,,,,,,,,,,,,,,,120,,,,,,,,,,,,,,,,,,,,,2,5,,,314.0283,6,left,0.0756,,1.5,0.3,"[3,1,2]",0.692996736,stimuli/card_0_transparent.png,0,6,0,6,0,1,,,,,,,,,,
,,,,62743aeb9ef8628d06ec5a75,A,2024-07-01_14h36.36.844,Slot Machine Game,2023.1.3,Win32,59.88023952,,,,,,,,,,,,,,,,,,,,,,,,,,,130,,,,,,,,,,,,,,,,,,,,,2,5,,,316.4281,7,right,0.3388,,0.5,0.3,"[3,1,2]",0.89140957,stimuli/card_10_transparent.png,10,7,0,7,0,1,,,,,,,,,,
,,,,62743aeb9ef8628d06ec5a75,A,2024-07-01_14h36.36.844,Slot Machine Game,2023.1.3,Win32,59.88023952,,,,,,,,,,,,,,,,,,,,,,,,,,,230,,,,,,,,,,,,,,,,,,,,,2,5,,,318.0782,8,up,0.4259,,0.5,0.3,"[3,1,2]",0.23807167,stimuli/card_100_transparent.png,100,8,0,8,0,1,,,,,,,,,,
,,,,62743aeb9ef8628d06ec5a75,A,2024-07-01_14h36.36.844,Slot Machine Game,2023.1.3,Win32,59.88023952,,,,,,,,,,,,,,,,,,,,,,,,,,,330,,,,,,,,,,,,,,,,,,,,,2,5,,,319.8281,9,up,0.16,,1,0.3,"[3,1,2]",0.770767257,stimuli/card_100_transparent.png,100,9,0,9,0,1,,,,,,,,,,
,,,,62743aeb9ef8628d06ec5a75,A,2024-07-01_14h36.36.844,Slot Machine Game,2023.1.3,Win32,59.88023952,,,,,,,,,,,,,,,,,,,,,,,,,,,430,,,,,,,,,,,,,,,,,,,,,2,5,,,321.795,10,up,0.0184,,1,0.3,"[3,1,2]",0.392383678,stimuli/card_100_transparent.png,100,10,0,10,0,1,,,,,,,,,,
,,,,62743aeb9ef8628d06ec5a75,A,2024-07-01_14h36.36.844,Slot Machine Game,2023.1.3,Win32,59.88023952,,,,,,,,,,,,,,,,,,,,,,,,,,,530,,,,,,,,,,,,,,,,,,,,,2,5,,,323.6281,11,up,0.0034,,1.5,0.3,"[3,1,2]",0.320022699,stimuli/card_100_transparent.png,100,11,0,11,0,1,,,,,,,,,,
,,,,62743aeb9ef8628d06ec5a75,A,2024-07-01_14h36.36.844,Slot Machine Game,2023.1.3,Win32,59.88023952,,,,,,,,,,,,,,,,,,,,,,,,,,,630,,,,,,,,,,,,,,,,,,,,,2,5,,,325.9617,12,up,1.9243,,1,0.3,"[3,1,2]",0.496401146,stimuli/card_100_transparent.png,100,12,0,12,0,1,,,,,,,,,,
,,,,62743aeb9ef8628d06ec5a75,A,2024-07-01_14h36.36.844,Slot Machine Game,2023.1.3,Win32,59.88023952,,,,,,,,,,,,,,,,,,,,,,,,,,,730,,,,,,,,,,,,,,,,,,,,,2,5,,,329.7115,13,up,0.0264,,1.5,0.3,"[3,1,2]",0.942393081,stimuli/card_100_transparent.png,100,13,0,13,0,1,,,,,,,,,,
,,,,62743aeb9ef8628d06ec5a75,A,2024-07-01_14h36.36.844,Slot Machine Game,2023.1.3,Win32,59.88023952,,,,,,,,,,,,,,,,,,,,,,,,,,,830,,,,,,,,,,,,,,,,,,,,,2,5,,,332.045,14,up,1.8336,,1.5,0.3,"[3,1,2]",0.856990323,stimuli/card_100_transparent.png,100,14,0,14,0,1,,,,,,,,,,
,,,,62743aeb9ef8628d06ec5a75,A,2024-07-01_14h36.36.844,Slot Machine Game,2023.1.3,Win32,59.88023952,,,,,,,,,,,,,,,,,,,,,,,,,,,,,,,,,,,336.2118,,,,,,,,,,,,,,,,,,,,,,,,,,,,,,,,,"[830,830]",1,0,1,0,1,,,,
,,,,62743aeb9ef8628d06ec5a75,A,2024-07-01_14h36.36.844,Slot Machine Game,2023.1.3,Win32,59.88023952,,,,,,,,,,,,,,,,,,,,,,,,,,,100,,,,,,,,,,,,,,,,,,,,,3,7,"[9,15]","[[1,3,2],[2,3,1]]",341.2199,0,left,0.6321,,1.5,0.3,"[1,3,2]",0.978559322,stimuli/card_100_transparent.png,100,0,0,0,0,1,,,,,,,,,,
,,,,62743aeb9ef8628d06ec5a75,A,2024-07-01_14h36.36.844,Slot Machine Game,2023.1.3,Win32,59.88023952,,,,,,,,,,,,,,,,,,,,,,,,,,,200,,,,,,,,,,,,,,,,,,,,,3,7,,,344.1784,1,left,0.0324,,0.5,0.3,"[1,3,2]",0.713505895,stimuli/card_100_transparent.png,100,1,0,1,0,1,,,,,,,,,,
,,,,62743aeb9ef8628d06ec5a75,A,2024-07-01_14h36.36.844,Slot Machine Game,2023.1.3,Win32,59.88023952,,,,,,,,,,,,,,,,,,,,,,,,,,,210,,,,,,,,,,,,,,,,,,,,,3,7,,,345.5448,2,left,0.0851,,1.5,0.3,"[1,3,2]",0.100229912,stimuli/card_10_transparent.png,10,2,0,2,0,1,,,,,,,,,,
,,,,62743aeb9ef8628d06ec5a75,A,2024-07-01_14h36.36.844,Slot Machine Game,2023.1.3,Win32,59.88023952,,,,,,,,,,,,,,,,,,,,,,,,,,,310,,,,,,,,,,,,,,,,,,,,,3,7,,,347.945,3,left,2.0821,,1,0.3,"[1,3,2]",0.918156865,stimuli/card_100_transparent.png,100,3,0,3,0,1,,,,,,,,,,
,,,,62743aeb9ef8628d06ec5a75,A,2024-07-01_14h36.36.844,Slot Machine Game,2023.1.3,Win32,59.88023952,,,,,,,,,,,,,,,,,,,,,,,,,,,410,,,,,,,,,,,,,,,,,,,,,3,7,,,351.8449,4,left,0.0851,,1.5,0.3,"[1,3,2]",0.570689982,stimuli/card_100_transparent.png,100,4,0,4,0,1,,,,,,,,,,
,,,,62743aeb9ef8628d06ec5a75,A,2024-07-01_14h36.36.844,Slot Machine Game,2023.1.3,Win32,59.88023952,,,,,,,,,,,,,,,,,,,,,,,,,,,510,,,,,,,,,,,,,,,,,,,,,3,7,,,354.245,5,left,0.0003,,0.5,0.3,"[1,3,2]",0.385022726,stimuli/card_100_transparent.png,100,5,0,5,0,1,,,,,,,,,,
,,,,62743aeb9ef8628d06ec5a75,A,2024-07-01_14h36.36.844,Slot Machine Game,2023.1.3,Win32,59.88023952,,,,,,,,,,,,,,,,,,,,,,,,,,,510,,,,,,,,,,,,,,,,,,,,,3,7,,,355.5617,6,left,0.0696,,1,0.3,"[1,3,2]",0.087223178,stimuli/card_0_transparent.png,0,6,0,6,0,1,,,,,,,,,,
,,,,62743aeb9ef8628d06ec5a75,A,2024-07-01_14h36.36.844,Slot Machine Game,2023.1.3,Win32,59.88023952,,,,,,,,,,,,,,,,,,,,,,,,,,,610,,,,,,,,,,,,,,,,,,,,,3,7,,,357.4617,7,left,1.7719,,1,0.3,"[1,3,2]",0.705017231,stimuli/card_100_transparent.png,100,7,0,7,0,1,,,,,,,,,,
,,,,62743aeb9ef8628d06ec5a75,A,2024-07-01_14h36.36.844,Slot Machine Game,2023.1.3,Win32,59.88023952,,,,,,,,,,,,,,,,,,,,,,,,,,,710,,,,,,,,,,,,,,,,,,,,,3,7,,,361.0617,8,left,0.0386,,0.5,0.3,"[1,3,2]",0.213204575,stimuli/card_100_transparent.png,100,8,0,8,0,1,,,,,,,,,,
,,,,62743aeb9ef8628d06ec5a75,A,2024-07-01_14h36.36.844,Slot Machine Game,2023.1.3,Win32,59.88023952,,,,,,,,,,,,,,,,,,,,,,,,,,,720,,,,,,,,,,,,,,,,,,,,,3,7,,,362.4283,9,left,1.0169,,1.5,0.3,"[2,3,1]",0.385473336,stimuli/card_10_transparent.png,10,9,0,9,0,1,,,,,,,,,,
,,,,62743aeb9ef8628d06ec5a75,A,2024-07-01_14h36.36.844,Slot Machine Game,2023.1.3,Win32,59.88023952,,,,,,,,,,,,,,,,,,,,,,,,,,,730,,,,,,,,,,,,,,,,,,,,,3,7,,,365.7617,10,left,1.952,,1.5,0.3,"[2,3,1]",0.634950189,stimuli/card_10_transparent.png,10,10,0,10,0,1,,,,,,,,,,
,,,,62743aeb9ef8628d06ec5a75,A,2024-07-01_14h36.36.844,Slot Machine Game,2023.1.3,Win32,59.88023952,,,,,,,,,,,,,,,,,,,,,,,,,,,730,,,,,,,,,,,,,,,,,,,,,3,7,,,370.0447,11,up,0.0001,,0.5,0.3,"[2,3,1]",0.897410069,stimuli/card_0_transparent.png,0,11,0,11,0,1,,,,,,,,,,
,,,,62743aeb9ef8628d06ec5a75,A,2024-07-01_14h36.36.844,Slot Machine Game,2023.1.3,Win32,59.88023952,,,,,,,,,,,,,,,,,,,,,,,,,,,740,,,,,,,,,,,,,,,,,,,,,3,7,,,371.3616,12,right,0.0834,,0.5,0.3,"[2,3,1]",0.194555138,stimuli/card_10_transparent.png,10,12,0,12,0,1,,,,,,,,,,
,,,,62743aeb9ef8628d06ec5a75,A,2024-07-01_14h36.36.844,Slot Machine Game,2023.1.3,Win32,59.88023952,,,,,,,,,,,,,,,,,,,,,,,,,,,750,,,,,,,,,,,,,,,,,,,,,3,7,,,372.7784,13,left,0.3836,,0.5,0.3,"[2,3,1]",0.201799896,stimuli/card_10_transparent.png,10,13,0,13,0,1,,,,,,,,,,
,,,,62743aeb9ef8628d06ec5a75,A,2024-07-01_14h36.36.844,Slot Machine Game,2023.1.3,Win32,59.88023952,,,,,,,,,,,,,,,,,,,,,,,,,,,750,,,,,,,,,,,,,,,,,,,,,3,7,,,374.495,14,up,0.2863,,1,0.3,"[2,3,1]",0.228974987,stimuli/card_0_transparent.png,0,14,0,14,0,1,,,,,,,,,,
,,,,62743aeb9ef8628d06ec5a75,A,2024-07-01_14h36.36.844,Slot Machine Game,2023.1.3,Win32,59.88023952,,,,,,,,,,,,,,,,,,,,,,,,,,,,,,,,,,,376.6113,,,,,,,,,,,,,,,,,,,,,,,,,,,,,,,,,"[830,830,750]",2,0,2,0,1,,,,
,,,,62743aeb9ef8628d06ec5a75,A,2024-07-01_14h36.36.844,Slot Machine Game,2023.1.3,Win32,59.88023952,,,,,,,,,,,,,,,,,,,,,,,,,,,10,,,,,,,,,,,,,,,,,,,,,4,4,"[7,15]","[[2,3,1],[1,2,3]]",381.6193,0,left,0.2005,,0.5,0.3,"[2,3,1]",0.653669434,stimuli/card_10_transparent.png,10,0,0,0,0,1,,,,,,,,,,
,,,,62743aeb9ef8628d06ec5a75,A,2024-07-01_14h36.36.844,Slot Machine Game,2023.1.3,Win32,59.88023952,,,,,,,,,,,,,,,,,,,,,,,,,,,20,,,,,,,,,,,,,,,,,,,,,4,4,,,383.1446,1,up,0.0851,,1,0.3,"[2,3,1]",0.126193656,stimuli/card_10_transparent.png,10,1,0,1,0,1,,,,,,,,,,
,,,,62743aeb9ef8628d06ec5a75,A,2024-07-01_14h36.36.844,Slot Machine Game,2023.1.3,Win32,59.88023952,,,,,,,,,,,,,,,,,,,,,,,,,,,120,,,,,,,,,,,,,,,,,,,,,4,4,,,385.0446,2,right,1.1354,,0.5,0.3,"[2,3,1]",0.756930459,stimuli/card_100_transparent.png,100,2,0,2,0,1,,,,,,,,,,
,,,,62743aeb9ef8628d06ec5a75,A,2024-07-01_14h36.36.844,Slot Machine Game,2023.1.3,Win32,59.88023952,,,,,,,,,,,,,,,,,,,,,,,,,,,130,,,,,,,,,,,,,,,,,,,,,4,4,,,387.4951,3,right,0.1247,,1.5,0.3,"[2,3,1]",0.15851368,stimuli/card_10_transparent.png,10,3,0,3,0,1,,,,,,,,,,
,,,,62743aeb9ef8628d06ec5a75,A,2024-07-01_14h36.36.844,Slot Machine Game,2023.1.3,Win32,59.88023952,,,,,,,,,,,,,,,,,,,,,,,,,,,130,,,,,,,,,,,,,,,,,,,,,4,4,,,389.945,4,right,1.5716,,0.5,0.3,"[2,3,1]",0.055969837,stimuli/card_0_transparent.png,0,4,0,4,0,1,,,,,,,,,,
,,,,62743aeb9ef8628d06ec5a75,A,2024-07-01_14h36.36.844,Slot Machine Game,2023.1.3,Win32,59.88023952,,,,,,,,,,,,,,,,,,,,,,,,,,,230,,,,,,,,,,,,,,,,,,,,,4,4,,,392.8451,5,right,1.4375,,1.5,0.3,"[2,3,1]",0.350828038,stimuli/card_100_transparent.png,100,5,0,5,0,1,,,,,,,,,,
,,,,62743aeb9ef8628d06ec5a75,A,2024-07-01_14h36.36.844,Slot Machine Game,2023.1.3,Win32,59.88023952,,,,,,,,,,,,,,,,,,,,,,,,,,,330,,,,,,,,,,,,,,,,,,,,,4,4,,,396.6113,6,right,0.0002,,1,0.3,"[2,3,1]",0.660020765,stimuli/card_100_transparent.png,100,6,0,6,0,1,,,,,,,,,,
,,,,62743aeb9ef8628d06ec5a75,A,2024-07-01_14h36.36.844,Slot Machine Game,2023.1.3,Win32,59.88023952,,,,,,,,,,,,,,,,,,,,,,,,,,,330,,,,,,,,,,,,,,,,,,,,,4,4,,,398.4282,7,right,0.7166,,1,0.3,"[1,2,3]",0.950071438,stimuli/card_0_transparent.png,0,7,0,7,0,1,,,,,,,,,,
,,,,62743aeb9ef8628d06ec5a75,A,2024-07-01_14h36.36.844,Slot Machine Game,2023.1.3,Win32,59.88023952,,,,,,,,,,,,,,,,,,,,,,,,,,,330,,,,,,,,,,,,,,,,,,,,,4,4,,,400.9614,8,right,1.2507,,1,0.3,"[1,2,3]",0.441653846,stimuli/card_0_transparent.png,0,8,0,8,0,1,,,,,,,,,,
,,,,62743aeb9ef8628d06ec5a75,A,2024-07-01_14h36.36.844,Slot Machine Game,2023.1.3,Win32,59.88023952,,,,,,,,,,,,,,,,,,,,,,,,,,,340,,,,,,,,,,,,,,,,,,,,,4,4,,,404.0283,9,right,0.6396,,1,0.3,"[1,2,3]",0.157013299,stimuli/card_10_transparent.png,10,9,0,9,0,1,,,,,,,,,,
,,,,62743aeb9ef8628d06ec5a75,A,2024-07-01_14h36.36.844,Slot Machine Game,2023.1.3,Win32,59.88023952,,,,,,,,,,,,,,,,,,,,,,,,,,,440,,,,,,,,,,,,,,,,,,,,,4,4,,,406.495,10,left,0.1095,,1.5,0.3,"[1,2,3]",0.860278628,stimuli/card_100_transparent.png,100,10,0,10,0,1,,,,,,,,,,
,,,,62743aeb9ef8628d06ec5a75,A,2024-07-01_14h36.36.844,Slot Machine Game,2023.1.3,Win32,59.88023952,,,,,,,,,,,,,,,,,,,,,,,,,,,450,,,,,,,,,,,,,,,,,,,,,4,4,,,408.9283,11,left,0.0346,,0.5,0.3,"[1,2,3]",0.147845353,stimuli/card_10_transparent.png,10,11,0,11,0,1,,,,,,,,,,
,,,,62743aeb9ef8628d06ec5a75,A,2024-07-01_14h36.36.844,Slot Machine Game,2023.1.3,Win32,59.88023952,,,,,,,,,,,,,,,,,,,,,,,,,,,550,,,,,,,,,,,,,,,,,,,,,4,4,,,410.2949,12,left,0.1501,,1.5,0.3,"[1,2,3]",0.71149903,stimuli/card_100_transparent.png,100,12,0,12,0,1,,,,,,,,,,
,,,,62743aeb9ef8628d06ec5a75,A,2024-07-01_14h36.36.844,Slot Machine Game,2023.1.3,Win32,59.88023952,,,,,,,,,,,,,,,,,,,,,,,,,,,550,,,,,,,,,,,,,,,,,,,,,4,4,,,412.7617,13,left,0.0217,,1,0.3,"[1,2,3]",0.071875596,stimuli/card_0_transparent.png,0,13,0,13,0,1,,,,,,,,,,
,,,,62743aeb9ef8628d06ec5a75,A,2024-07-01_14h36.36.844,Slot Machine Game,2023.1.3,Win32,59.88023952,,,,,,,,,,,,,,,,,,,,,,,,,,,650,,,,,,,,,,,,,,,,,,,,,4,4,,,414.6114,14,left,0.72,,0.5,0.3,"[1,2,3]",0.608904911,stimuli/card_100_transparent.png,100,14,0,14,0,1,,,,,,,,,,
,,,,62743aeb9ef8628d06ec5a75,A,2024-07-01_14h36.36.844,Slot Machine Game,2023.1.3,Win32,59.88023952,,,,,,,,,,,,,,,,,,,,,,,,,,,,,,,,,,,416.6449,,,,,,,,,,,,,,,,,,,,,,,,,,,,,,,,,"[830,830,750,650]",3,0,3,0,1,,,,
,,,,62743aeb9ef8628d06ec5a75,A,2024-07-01_14h36.36.844,Slot Machine Game,2023.1.3,Win32,59.88023952,,,,,,,,,,,,,,,,,,,,,,,,,,,10,,,,,,,,,,,,,,,,,,,,,5,6,"[4,10,15]","[[2,3,1],[1,3,2],[3,2,1]]",421.6527,0,left,0.6283,,1.5,0.3,"[2,3,1]",0.75904699,stimuli/card_10_transparent.png,10,0,0,0,0,1,,,,,,,,,,
,,,,62743aeb9ef8628d06ec5a75,A,2024-07-01_14h36.36.844,Slot Machine Game,2023.1.3,Win32,59.88023952,,,,,,,,,,,,,,,,,,,,,,,,,,,10,,,,,,,,,,,,,,,,,,,,,5,6,,,424.595,1,up,0.0003,,1.5,0.3,"[2,3,1]",0.548813926,stimuli/card_0_transparent.png,0,1,0,1,0,1,,,,,,,,,,
,,,,62743aeb9ef8628d06ec5a75,A,2024-07-01_14h36.36.844,Slot Machine Game,2023.1.3,Win32,59.88023952,,,,,,,,,,,,,,,,,,,,,,,,,,,110,,,,,,,,,,,,,,,,,,,,,5,6,,,426.9283,2,right,0.332,,1,0.3,"[2,3,1]",0.234199672,stimuli/card_100_transparent.png,100,2,0,2,0,1,,,,,,,,,,
,,,,62743aeb9ef8628d06ec5a75,A,2024-07-01_14h36.36.844,Slot Machine Game,2023.1.3,Win32,59.88023952,,,,,,,,,,,,,,,,,,,,,,,,,,,210,,,,,,,,,,,,,,,,,,,,,5,6,,,429.0951,3,right,0.1487,,1.5,0.3,"[2,3,1]",0.203960413,stimuli/card_100_transparent.png,100,3,0,3,0,1,,,,,,,,,,
,,,,62743aeb9ef8628d06ec5a75,A,2024-07-01_14h36.36.844,Slot Machine Game,2023.1.3,Win32,59.88023952,,,,,,,,,,,,,,,,,,,,,,,,,,,220,,,,,,,,,,,,,,,,,,,,,5,6,,,431.5779,4,right,0.0077,,1,0.3,"[1,3,2]",0.601680522,stimuli/card_10_transparent.png,10,4,0,4,0,1,,,,,,,,,,
,,,,62743aeb9ef8628d06ec5a75,A,2024-07-01_14h36.36.844,Slot Machine Game,2023.1.3,Win32,59.88023952,,,,,,,,,,,,,,,,,,,,,,,,,,,230,,,,,,,,,,,,,,,,,,,,,5,6,,,433.3946,5,right,0.019,,1.5,0.3,"[1,3,2]",0.651478399,stimuli/card_10_transparent.png,10,5,0,5,0,1,,,,,,,,,,
,,,,62743aeb9ef8628d06ec5a75,A,2024-07-01_14h36.36.844,Slot Machine Game,2023.1.3,Win32,59.88023952,,,,,,,,,,,,,,,,,,,,,,,,,,,240,,,,,,,,,,,,,,,,,,,,,5,6,,,435.7282,6,right,2.1333,,0.5,0.3,"[1,3,2]",0.955235641,stimuli/card_10_transparent.png,10,6,0,6,0,1,,,,,,,,,,
,,,,62743aeb9ef8628d06ec5a75,A,2024-07-01_14h36.36.844,Slot Machine Game,2023.1.3,Win32,59.88023952,,,,,,,,,,,,,,,,,,,,,,,,,,,340,,,,,,,,,,,,,,,,,,,,,5,6,,,439.178,7,left,0.3671,,0.5,0.3,"[1,3,2]",0.746365605,stimuli/card_100_transparent.png,100,7,0,7,0,1,,,,,,,,,,
,,,,62743aeb9ef8628d06ec5a75,A,2024-07-01_14h36.36.844,Slot Machine Game,2023.1.3,Win32,59.88023952,,,,,,,,,,,,,,,,,,,,,,,,,,,440,,,,,,,,,,,,,,,,,,,,,5,6,,,440.8615,8,left,0.2,,1,0.3,"[1,3,2]",0.382153573,stimuli/card_100_transparent.png,100,8,0,8,0,1,,,,,,,,,,
,,,,62743aeb9ef8628d06ec5a75,A,2024-07-01_14h36.36.844,Slot Machine Game,2023.1.3,Win32,59.88023952,,,,,,,,,,,,,,,,,,,,,,,,,,,540,,,,,,,,,,,,,,,,,,,,,5,6,,,442.8782,9,left,0.1046,,1.5,0.3,"[1,3,2]",0.999539273,stimuli/card_100_transparent.png,100,9,0,9,0,1,,,,,,,,,,
,,,,62743aeb9ef8628d06ec5a75,A,2024-07-01_14h36.36.844,Slot Machine Game,2023.1.3,Win32,59.88023952,,,,,,,,,,,,,,,,,,,,,,,,,,,540,,,,,,,,,,,,,,,,,,,,,5,6,,,445.3116,10,left,1.0082,,0.5,0.3,"[3,2,1]",0.753205675,stimuli/card_0_transparent.png,0,10,0,10,0,1,,,,,,,,,,
,,,,62743aeb9ef8628d06ec5a75,A,2024-07-01_14h36.36.844,Slot Machine Game,2023.1.3,Win32,59.88023952,,,,,,,,,,,,,,,,,,,,,,,,,,,540,,,,,,,,,,,,,,,,,,,,,5,6,,,447.6449,11,left,0.1333,,1.5,0.3,"[3,2,1]",0.406219376,stimuli/card_0_transparent.png,0,11,0,11,0,1,,,,,,,,,,
,,,,62743aeb9ef8628d06ec5a75,A,2024-07-01_14h36.36.844,Slot Machine Game,2023.1.3,Win32,59.88023952,,,,,,,,,,,,,,,,,,,,,,,,,,,550,,,,,,,,,,,,,,,,,,,,,5,6,,,450.0949,12,up,0.4515,,1,0.3,"[3,2,1]",0.266518626,stimuli/card_10_transparent.png,10,12,0,12,0,1,,,,,,,,,,
,,,,62743aeb9ef8628d06ec5a75,A,2024-07-01_14h36.36.844,Slot Machine Game,2023.1.3,Win32,59.88023952,,,,,,,,,,,,,,,,,,,,,,,,,,,550,,,,,,,,,,,,,,,,,,,,,5,6,,,452.3616,13,left,0.6854,,0.5,0.3,"[3,2,1]",0.643770688,stimuli/card_0_transparent.png,0,13,0,13,0,1,,,,,,,,,,
,,,,62743aeb9ef8628d06ec5a75,A,2024-07-01_14h36.36.844,Slot Machine Game,2023.1.3,Win32,59.88023952,,,,,,,,,,,,,,,,,,,,,,,,,,,650,,,,,,,,,,,,,,,,,,,,,5,6,,,454.3782,14,right,0.1529,,1.5,0.3,"[3,2,1]",0.729801864,stimuli/card_100_transparent.png,100,14,0,14,0,1,,,,,,,,,,
,,,,62743aeb9ef8628d06ec5a75,A,2024-07-01_14h36.36.844,Slot Machine Game,2023.1.3,Win32,59.88023952,,,,,,,,,,,,,,,,,,,,,,,,,,,,,,,,,,,456.8617,,,,,,,,,,,,,,,,,,,,,,,,,,,,,,,,,"[830,830,750,650,650]",4,0,4,0,1,,,,
,,,,62743aeb9ef8628d06ec5a75,A,2024-07-01_14h36.36.844,Slot Machine Game,2023.1.3,Win32,59.88023952,,,,,,,,,,,,,,,,,,,,,,,,,,,0,,,,,,,,,,,,,,,,,,,,,6,8,"[11,15]","[[2,1,3],[1,2,3]]",461.8693,0,left,0.606,,1,0.3,"[2,1,3]",0.029736904,stimuli/card_0_transparent.png,0,0,0,0,0,1,,,,,,,,,,
,,,,62743aeb9ef8628d06ec5a75,A,2024-07-01_14h36.36.844,Slot Machine Game,2023.1.3,Win32,59.88023952,,,,,,,,,,,,,,,,,,,,,,,,,,,100,,,,,,,,,,,,,,,,,,,,,6,8,,,464.295,1,up,0.2079,,1.5,0.3,"[2,1,3]",0.435999221,stimuli/card_100_transparent.png,100,1,0,1,0,1,,,,,,,,,,
,,,,62743aeb9ef8628d06ec5a75,A,2024-07-01_14h36.36.844,Slot Machine Game,2023.1.3,Win32,59.88023952,,,,,,,,,,,,,,,,,,,,,,,,,,,200,,,,,,,,,,,,,,,,,,,,,6,8,,,466.8116,2,up,0.0061,,1.5,0.3,"[2,1,3]",0.672476588,stimuli/card_100_transparent.png,100,2,0,2,0,1,,,,,,,,,,
,,,,62743aeb9ef8628d06ec5a75,A,2024-07-01_14h36.36.844,Slot Machine Game,2023.1.3,Win32,59.88023952,,,,,,,,,,,,,,,,,,,,,,,,,,,300,,,,,,,,,,,,,,,,,,,,,6,8,,,469.1283,3,up,9.99999E-05,,0.5,0.3,"[2,1,3]",0.94675952,stimuli/card_100_transparent.png,100,3,0,3,0,1,,,,,,,,,,
,,,,62743aeb9ef8628d06ec5a75,A,2024-07-01_14h36.36.844,Slot Machine Game,2023.1.3,Win32,59.88023952,,,,,,,,,,,,,,,,,,,,,,,,,,,400,,,,,,,,,,,,,,,,,,,,,6,8,,,470.4617,4,up,1.5117,,1.5,0.3,"[2,1,3]",0.467484993,stimuli/card_100_transparent.png,100,4,0,4,0,1,,,,,,,,,,
,,,,62743aeb9ef8628d06ec5a75,A,2024-07-01_14h36.36.844,Slot Machine Game,2023.1.3,Win32,59.88023952,,,,,,,,,,,,,,,,,,,,,,,,,,,500,,,,,,,,,,,,,,,,,,,,,6,8,,,474.2947,5,up,0.0348,,1.5,0.3,"[2,1,3]",0.847405836,stimuli/card_100_transparent.png,100,5,0,5,0,1,,,,,,,,,,
,,,,62743aeb9ef8628d06ec5a75,A,2024-07-01_14h36.36.844,Slot Machine Game,2023.1.3,Win32,59.88023952,,,,,,,,,,,,,,,,,,,,,,,,,,,600,,,,,,,,,,,,,,,,,,,,,6,8,,,476.645,6,up,0.0739,,0.5,0.3,"[2,1,3]",0.716117517,stimuli/card_100_transparent.png,100,6,0,6,0,1,,,,,,,,,,
,,,,62743aeb9ef8628d06ec5a75,A,2024-07-01_14h36.36.844,Slot Machine Game,2023.1.3,Win32,59.88023952,,,,,,,,,,,,,,,,,,,,,,,,,,,700,,,,,,,,,,,,,,,,,,,,,6,8,,,478.0449,7,up,0.0051,,1,0.3,"[2,1,3]",0.467939812,stimuli/card_100_transparent.png,100,7,0,7,0,1,,,,,,,,,,
,,,,62743aeb9ef8628d06ec5a75,A,2024-07-01_14h36.36.844,Slot Machine Game,2023.1.3,Win32,59.88023952,,,,,,,,,,,,,,,,,,,,,,,,,,,700,,,,,,,,,,,,,,,,,,,,,6,8,,,479.8781,8,up,1.3527,,1.5,0.3,"[2,1,3]",0.003959145,stimuli/card_0_transparent.png,0,8,0,8,0,1,,,,,,,,,,
,,,,62743aeb9ef8628d06ec5a75,A,2024-07-01_14h36.36.844,Slot Machine Game,2023.1.3,Win32,59.88023952,,,,,,,,,,,,,,,,,,,,,,,,,,,710,,,,,,,,,,,,,,,,,,,,,6,8,,,483.5616,9,up,0.5005,,1.5,0.3,"[2,1,3]",0.135159846,stimuli/card_10_transparent.png,10,9,0,9,0,1,,,,,,,,,,
,,,,62743aeb9ef8628d06ec5a75,A,2024-07-01_14h36.36.844,Slot Machine Game,2023.1.3,Win32,59.88023952,,,,,,,,,,,,,,,,,,,,,,,,,,,810,,,,,,,,,,,,,,,,,,,,,6,8,,,486.3948,10,up,0.4679,,1.5,0.3,"[2,1,3]",0.672284282,stimuli/card_100_transparent.png,100,10,0,10,0,1,,,,,,,,,,
,,,,62743aeb9ef8628d06ec5a75,A,2024-07-01_14h36.36.844,Slot Machine Game,2023.1.3,Win32,59.88023952,,,,,,,,,,,,,,,,,,,,,,,,,,,820,,,,,,,,,,,,,,,,,,,,,6,8,,,489.195,11,up,0.1075,,0.5,0.3,"[1,2,3]",0.303918116,stimuli/card_10_transparent.png,10,11,0,11,0,1,,,,,,,,,,
,,,,62743aeb9ef8628d06ec5a75,A,2024-07-01_14h36.36.844,Slot Machine Game,2023.1.3,Win32,59.88023952,,,,,,,,,,,,,,,,,,,,,,,,,,,830,,,,,,,,,,,,,,,,,,,,,6,8,,,490.6284,12,up,0.8593,,1,0.3,"[1,2,3]",0.678249272,stimuli/card_10_transparent.png,10,12,0,12,0,1,,,,,,,,,,
,,,,62743aeb9ef8628d06ec5a75,A,2024-07-01_14h36.36.844,Slot Machine Game,2023.1.3,Win32,59.88023952,,,,,,,,,,,,,,,,,,,,,,,,,,,840,,,,,,,,,,,,,,,,,,,,,6,8,,,493.3116,13,up,0.24,,0.5,0.3,"[1,2,3]",0.890740093,stimuli/card_10_transparent.png,10,13,0,13,0,1,,,,,,,,,,
,,,,62743aeb9ef8628d06ec5a75,A,2024-07-01_14h36.36.844,Slot Machine Game,2023.1.3,Win32,59.88023952,,,,,,,,,,,,,,,,,,,,,,,,,,,850,,,,,,,,,,,,,,,,,,,,,6,8,,,494.878,14,right,0.4584,,1,0.3,"[1,2,3]",0.160056193,stimuli/card_10_transparent.png,10,14,0,14,0,1,,,,,,,,,,
,,,,62743aeb9ef8628d06ec5a75,A,2024-07-01_14h36.36.844,Slot Machine Game,2023.1.3,Win32,59.88023952,,,,,,,,,,,,,,,,,,,,,,,,,,,,,,,,,,,497.1449,,,,,,,,,,,,,,,,,,,,,,,,,,,,,,,,,"[830,830,750,650,650,850]",5,0,5,0,1,,,,
,,,,62743aeb9ef8628d06ec5a75,A,2024-07-01_14h36.36.844,Slot Machine Game,2023.1.3,Win32,59.88023952,,,,,,,,,,,,,,,,,,,,,,,,,,,0,,,,,,,,,,,,,,,,,,,,,7,9,"[8,15]","[[3,2,1],[3,1,2]]",502.1527,0,left,0.4501,,1,0.3,"[3,2,1]",0.685027475,stimuli/card_0_transparent.png,0,0,0,0,0,1,,,,,,,,,,
,,,,62743aeb9ef8628d06ec5a75,A,2024-07-01_14h36.36.844,Slot Machine Game,2023.1.3,Win32,59.88023952,,,,,,,,,,,,,,,,,,,,,,,,,,,10,,,,,,,,,,,,,,,,,,,,,7,9,,,504.4279,1,up,0.1376,,0.5,0.3,"[3,2,1]",0.354607198,stimuli/card_10_transparent.png,10,1,0,1,0,1,,,,,,,,,,
,,,,62743aeb9ef8628d06ec5a75,A,2024-07-01_14h36.36.844,Slot Machine Game,2023.1.3,Win32,59.88023952,,,,,,,,,,,,,,,,,,,,,,,,,,,20,,,,,,,,,,,,,,,,,,,,,7,9,,,505.878,2,right,0.1891,,0.5,0.3,"[3,2,1]",0.142815975,stimuli/card_10_transparent.png,10,2,0,2,0,1,,,,,,,,,,
,,,,62743aeb9ef8628d06ec5a75,A,2024-07-01_14h36.36.844,Slot Machine Game,2023.1.3,Win32,59.88023952,,,,,,,,,,,,,,,,,,,,,,,,,,,20,,,,,,,,,,,,,,,,,,,,,7,9,,,507.395,3,left,0.1016,,1,0.3,"[3,2,1]",0.275398736,stimuli/card_0_transparent.png,0,3,0,3,0,1,,,,,,,,,,
,,,,62743aeb9ef8628d06ec5a75,A,2024-07-01_14h36.36.844,Slot Machine Game,2023.1.3,Win32,59.88023952,,,,,,,,,,,,,,,,,,,,,,,,,,,30,,,,,,,,,,,,,,,,,,,,,7,9,,,509.3282,4,up,0.519,,1,0.3,"[3,2,1]",0.966634968,stimuli/card_10_transparent.png,10,4,0,4,0,1,,,,,,,,,,
,,,,62743aeb9ef8628d06ec5a75,A,2024-07-01_14h36.36.844,Slot Machine Game,2023.1.3,Win32,59.88023952,,,,,,,,,,,,,,,,,,,,,,,,,,,130,,,,,,,,,,,,,,,,,,,,,7,9,,,511.6779,5,right,1.2698,,1,0.3,"[3,2,1]",0.278955231,stimuli/card_100_transparent.png,100,5,0,5,0,1,,,,,,,,,,
,,,,62743aeb9ef8628d06ec5a75,A,2024-07-01_14h36.36.844,Slot Machine Game,2023.1.3,Win32,59.88023952,,,,,,,,,,,,,,,,,,,,,,,,,,,230,,,,,,,,,,,,,,,,,,,,,7,9,,,514.7615,6,right,0.0673,,0.5,0.3,"[3,2,1]",0.302465114,stimuli/card_100_transparent.png,100,6,0,6,0,1,,,,,,,,,,
,,,,62743aeb9ef8628d06ec5a75,A,2024-07-01_14h36.36.844,Slot Machine Game,2023.1.3,Win32,59.88023952,,,,,,,,,,,,,,,,,,,,,,,,,,,240,,,,,,,,,,,,,,,,,,,,,7,9,,,516.1613,7,right,0.0183,,1.5,0.3,"[3,2,1]",0.150421193,stimuli/card_10_transparent.png,10,7,0,7,0,1,,,,,,,,,,
,,,,62743aeb9ef8628d06ec5a75,A,2024-07-01_14h36.36.844,Slot Machine Game,2023.1.3,Win32,59.88023952,,,,,,,,,,,,,,,,,,,,,,,,,,,250,,,,,,,,,,,,,,,,,,,,,7,9,,,518.4948,8,right,0.0085,,0.5,0.3,"[3,1,2]",0.703647801,stimuli/card_10_transparent.png,10,8,0,8,0,1,,,,,,,,,,
,,,,62743aeb9ef8628d06ec5a75,A,2024-07-01_14h36.36.844,Slot Machine Game,2023.1.3,Win32,59.88023952,,,,,,,,,,,,,,,,,,,,,,,,,,,260,,,,,,,,,,,,,,,,,,,,,7,9,,,519.8115,9,right,1.3935,,1.5,0.3,"[3,1,2]",0.298650873,stimuli/card_10_transparent.png,10,9,0,9,0,1,,,,,,,,,,
,,,,62743aeb9ef8628d06ec5a75,A,2024-07-01_14h36.36.844,Slot Machine Game,2023.1.3,Win32,59.88023952,,,,,,,,,,,,,,,,,,,,,,,,,,,260,,,,,,,,,,,,,,,,,,,,,7,9,,,523.5115,10,left,0.8065,,0.5,0.3,"[3,1,2]",0.719069327,stimuli/card_0_transparent.png,0,10,0,10,0,1,,,,,,,,,,
,,,,62743aeb9ef8628d06ec5a75,A,2024-07-01_14h36.36.844,Slot Machine Game,2023.1.3,Win32,59.88023952,,,,,,,,,,,,,,,,,,,,,,,,,,,360,,,,,,,,,,,,,,,,,,,,,7,9,,,525.6446,11,up,0.2836,,1.5,0.3,"[3,1,2]",0.990313127,stimuli/card_100_transparent.png,100,11,0,11,0,1,,,,,,,,,,
,,,,62743aeb9ef8628d06ec5a75,A,2024-07-01_14h36.36.844,Slot Machine Game,2023.1.3,Win32,59.88023952,,,,,,,,,,,,,,,,,,,,,,,,,,,460,,,,,,,,,,,,,,,,,,,,,7,9,,,528.2449,12,up,0.6028,,0.5,0.3,"[3,1,2]",0.759580143,stimuli/card_100_transparent.png,100,12,0,12,0,1,,,,,,,,,,
,,,,62743aeb9ef8628d06ec5a75,A,2024-07-01_14h36.36.844,Slot Machine Game,2023.1.3,Win32,59.88023952,,,,,,,,,,,,,,,,,,,,,,,,,,,560,,,,,,,,,,,,,,,,,,,,,7,9,,,530.1616,13,up,1.0612,,1.5,0.3,"[3,1,2]",0.589695637,stimuli/card_100_transparent.png,100,13,0,13,0,1,,,,,,,,,,
,,,,62743aeb9ef8628d06ec5a75,A,2024-07-01_14h36.36.844,Slot Machine Game,2023.1.3,Win32,59.88023952,,,,,,,,,,,,,,,,,,,,,,,,,,,660,,,,,,,,,,,,,,,,,,,,,7,9,,,533.5446,14,up,0.1252,,1.5,0.3,"[3,1,2]",0.556942339,stimuli/card_100_transparent.png,100,14,0,14,0,1,,,,,,,,,,
,,,,62743aeb9ef8628d06ec5a75,A,2024-07-01_14h36.36.844,Slot Machine Game,2023.1.3,Win32,59.88023952,,,,,,,,,,,,,,,,,,,,,,,,,,,,,,,,,,,535.978,,,,,,,,,,,,,,,,,,,,,,,,,,,,,,,,,"[830,830,750,650,650,850,660]",6,0,6,0,1,,,,
,,,,62743aeb9ef8628d06ec5a75,A,2024-07-01_14h36.36.844,Slot Machine Game,2023.1.3,Win32,59.88023952,,,,,,,,,,,,,,,,,,,,,,,,,,,100,,,,,,,,,,,,,,,,,,,,,8,2,"[6,15]","[[1,3,2],[3,2,1]]",540.9861,0,left,0.3903,,0.5,0.3,"[1,3,2]",0.531223199,stimuli/card_100_transparent.png,100,0,0,0,0,1,,,,,,,,,,
,,,,62743aeb9ef8628d06ec5a75,A,2024-07-01_14h36.36.844,Slot Machine Game,2023.1.3,Win32,59.88023952,,,,,,,,,,,,,,,,,,,,,,,,,,,100,,,,,,,,,,,,,,,,,,,,,8,2,,,542.6949,1,left,0.2089,,1,0.3,"[1,3,2]",0.098471033,stimuli/card_0_transparent.png,0,1,0,1,0,1,,,,,,,,,,
,,,,62743aeb9ef8628d06ec5a75,A,2024-07-01_14h36.36.844,Slot Machine Game,2023.1.3,Win32,59.88023952,,,,,,,,,,,,,,,,,,,,,,,,,,,200,,,,,,,,,,,,,,,,,,,,,8,2,,,544.7282,2,left,0.5091,,1.5,0.3,"[1,3,2]",0.682920342,stimuli/card_100_transparent.png,100,2,0,2,0,1,,,,,,,,,,
,,,,62743aeb9ef8628d06ec5a75,A,2024-07-01_14h36.36.844,Slot Machine Game,2023.1.3,Win32,59.88023952,,,,,,,,,,,,,,,,,,,,,,,,,,,300,,,,,,,,,,,,,,,,,,,,,8,2,,,547.5447,3,left,0.0203,,0.5,0.3,"[1,3,2]",0.910689984,stimuli/card_100_transparent.png,100,3,0,3,0,1,,,,,,,,,,
,,,,62743aeb9ef8628d06ec5a75,A,2024-07-01_14h36.36.844,Slot Machine Game,2023.1.3,Win32,59.88023952,,,,,,,,,,,,,,,,,,,,,,,,,,,300,,,,,,,,,,,,,,,,,,,,,8,2,,,548.8781,4,left,0.0018,,1,0.3,"[1,3,2]",0.092994521,stimuli/card_0_transparent.png,0,4,0,4,0,1,,,,,,,,,,
,,,,62743aeb9ef8628d06ec5a75,A,2024-07-01_14h36.36.844,Slot Machine Game,2023.1.3,Win32,59.88023952,,,,,,,,,,,,,,,,,,,,,,,,,,,310,,,,,,,,,,,,,,,,,,,,,8,2,,,550.7115,5,left,0.7684,,0.5,0.3,"[1,3,2]",0.192784095,stimuli/card_10_transparent.png,10,5,0,5,0,1,,,,,,,,,,
,,,,62743aeb9ef8628d06ec5a75,A,2024-07-01_14h36.36.844,Slot Machine Game,2023.1.3,Win32,59.88023952,,,,,,,,,,,,,,,,,,,,,,,,,,,310,,,,,,,,,,,,,,,,,,,,,8,2,,,552.8115,6,left,0.3168,,1,0.3,"[3,2,1]",0.601748602,stimuli/card_0_transparent.png,0,6,0,6,0,1,,,,,,,,,,
,,,,62743aeb9ef8628d06ec5a75,A,2024-07-01_14h36.36.844,Slot Machine Game,2023.1.3,Win32,59.88023952,,,,,,,,,,,,,,,,,,,,,,,,,,,320,,,,,,,,,,,,,,,,,,,,,8,2,,,554.9616,7,up,0.4002,,1,0.3,"[3,2,1]",0.257294814,stimuli/card_10_transparent.png,10,7,0,7,0,1,,,,,,,,,,
,,,,62743aeb9ef8628d06ec5a75,A,2024-07-01_14h36.36.844,Slot Machine Game,2023.1.3,Win32,59.88023952,,,,,,,,,,,,,,,,,,,,,,,,,,,420,,,,,,,,,,,,,,,,,,,,,8,2,,,557.1949,8,right,0.0106,,0.5,0.3,"[3,2,1]",0.317435749,stimuli/card_100_transparent.png,100,8,0,8,0,1,,,,,,,,,,
,,,,62743aeb9ef8628d06ec5a75,A,2024-07-01_14h36.36.844,Slot Machine Game,2023.1.3,Win32,59.88023952,,,,,,,,,,,,,,,,,,,,,,,,,,,520,,,,,,,,,,,,,,,,,,,,,8,2,,,558.5114,9,right,0.0936,,0.5,0.3,"[3,2,1]",0.607676382,stimuli/card_100_transparent.png,100,9,0,9,0,1,,,,,,,,,,
,,,,62743aeb9ef8628d06ec5a75,A,2024-07-01_14h36.36.844,Slot Machine Game,2023.1.3,Win32,59.88023952,,,,,,,,,,,,,,,,,,,,,,,,,,,620,,,,,,,,,,,,,,,,,,,,,8,2,,,559.928,10,right,0.1701,,1.5,0.3,"[3,2,1]",0.715826976,stimuli/card_100_transparent.png,100,10,0,10,0,1,,,,,,,,,,
,,,,62743aeb9ef8628d06ec5a75,A,2024-07-01_14h36.36.844,Slot Machine Game,2023.1.3,Win32,59.88023952,,,,,,,,,,,,,,,,,,,,,,,,,,,720,,,,,,,,,,,,,,,,,,,,,8,2,,,562.428,11,right,0.0003,,1,0.3,"[3,2,1]",0.795183899,stimuli/card_100_transparent.png,100,11,0,11,0,1,,,,,,,,,,
,,,,62743aeb9ef8628d06ec5a75,A,2024-07-01_14h36.36.844,Slot Machine Game,2023.1.3,Win32,59.88023952,,,,,,,,,,,,,,,,,,,,,,,,,,,820,,,,,,,,,,,,,,,,,,,,,8,2,,,564.2613,12,right,0.0737,,0.5,0.3,"[3,2,1]",0.479236927,stimuli/card_100_transparent.png,100,12,0,12,0,1,,,,,,,,,,
,,,,62743aeb9ef8628d06ec5a75,A,2024-07-01_14h36.36.844,Slot Machine Game,2023.1.3,Win32,59.88023952,,,,,,,,,,,,,,,,,,,,,,,,,,,920,,,,,,,,,,,,,,,,,,,,,8,2,,,565.6446,13,right,0.0518,,1.5,0.3,"[3,2,1]",0.592510492,stimuli/card_100_transparent.png,100,13,0,13,0,1,,,,,,,,,,
,,,,62743aeb9ef8628d06ec5a75,A,2024-07-01_14h36.36.844,Slot Machine Game,2023.1.3,Win32,59.88023952,,,,,,,,,,,,,,,,,,,,,,,,,,,1020,,,,,,,,,,,,,,,,,,,,,8,2,,,568.0114,14,right,0.0337,,0.5,0.3,"[3,2,1]",0.68859673,stimuli/card_100_transparent.png,100,14,0,14,0,1,,,,,,,,,,
,,,,62743aeb9ef8628d06ec5a75,A,2024-07-01_14h36.36.844,Slot Machine Game,2023.1.3,Win32,59.88023952,,,,,,,,,,,,,,,,,,,,,,,,,,,,,,,,,,,569.3779,,,,,,,,,,,,,,,,,,,,,,,,,,,,,,,,,"[830,830,750,650,650,850,660,1020]",7,0,7,0,1,,,,
,,,,62743aeb9ef8628d06ec5a75,A,2024-07-01_14h36.36.844,Slot Machine Game,2023.1.3,Win32,59.88023952,,,,,,,,,,,,,,,,,,,,,,,,,,,0,,,,,,,,,,,,,,,,,,,,,9,10,"[10,15]","[[3,1,2],[1,3,2]]",574.3858,0,left,0.3931,,1.5,0.3,"[3,1,2]",0.972868525,stimuli/card_0_transparent.png,0,0,0,0,0,1,,,,,,,,,,
,,,,62743aeb9ef8628d06ec5a75,A,2024-07-01_14h36.36.844,Slot Machine Game,2023.1.3,Win32,59.88023952,,,,,,,,,,,,,,,,,,,,,,,,,,,100,,,,,,,,,,,,,,,,,,,,,9,10,,,577.0949,1,up,0.1765,,1,0.3,"[3,1,2]",0.592109671,stimuli/card_100_transparent.png,100,1,0,1,0,1,,,,,,,,,,
,,,,62743aeb9ef8628d06ec5a75,A,2024-07-01_14h36.36.844,Slot Machine Game,2023.1.3,Win32,59.88023952,,,,,,,,,,,,,,,,,,,,,,,,,,,200,,,,,,,,,,,,,,,,,,,,,9,10,,,579.0945,2,up,0.3171,,0.5,0.3,"[3,1,2]",0.249496292,stimuli/card_100_transparent.png,100,2,0,2,0,1,,,,,,,,,,
,,,,62743aeb9ef8628d06ec5a75,A,2024-07-01_14h36.36.844,Slot Machine Game,2023.1.3,Win32,59.88023952,,,,,,,,,,,,,,,,,,,,,,,,,,,300,,,,,,,,,,,,,,,,,,,,,9,10,,,580.7446,3,up,1.5899,,0.5,0.3,"[3,1,2]",0.858119701,stimuli/card_100_transparent.png,100,3,0,3,0,1,,,,,,,,,,
,,,,62743aeb9ef8628d06ec5a75,A,2024-07-01_14h36.36.844,Slot Machine Game,2023.1.3,Win32,59.88023952,,,,,,,,,,,,,,,,,,,,,,,,,,,310,,,,,,,,,,,,,,,,,,,,,9,10,,,583.6615,4,up,0.0284,,1,0.3,"[3,1,2]",0.177775808,stimuli/card_10_transparent.png,10,4,0,4,0,1,,,,,,,,,,
,,,,62743aeb9ef8628d06ec5a75,A,2024-07-01_14h36.36.844,Slot Machine Game,2023.1.3,Win32,59.88023952,,,,,,,,,,,,,,,,,,,,,,,,,,,310,,,,,,,,,,,,,,,,,,,,,9,10,,,585.5113,5,up,1.1912,,1.5,0.3,"[3,1,2]",0.068895213,stimuli/card_0_transparent.png,0,5,0,5,0,1,,,,,,,,,,
,,,,62743aeb9ef8628d06ec5a75,A,2024-07-01_14h36.36.844,Slot Machine Game,2023.1.3,Win32,59.88023952,,,,,,,,,,,,,,,,,,,,,,,,,,,410,,,,,,,,,,,,,,,,,,,,,9,10,,,589.0279,6,up,0.1336,,1.5,0.3,"[3,1,2]",0.737106366,stimuli/card_100_transparent.png,100,6,0,6,0,1,,,,,,,,,,
,,,,62743aeb9ef8628d06ec5a75,A,2024-07-01_14h36.36.844,Slot Machine Game,2023.1.3,Win32,59.88023952,,,,,,,,,,,,,,,,,,,,,,,,,,,510,,,,,,,,,,,,,,,,,,,,,9,10,,,591.478,7,up,0.3347,,0.5,0.3,"[3,1,2]",0.522356089,stimuli/card_100_transparent.png,100,7,0,7,0,1,,,,,,,,,,
,,,,62743aeb9ef8628d06ec5a75,A,2024-07-01_14h36.36.844,Slot Machine Game,2023.1.3,Win32,59.88023952,,,,,,,,,,,,,,,,,,,,,,,,,,,610,,,,,,,,,,,,,,,,,,,,,9,10,,,593.1446,8,up,0.0335,,1,0.3,"[3,1,2]",0.983144411,stimuli/card_100_transparent.png,100,8,0,8,0,1,,,,,,,,,,
,,,,62743aeb9ef8628d06ec5a75,A,2024-07-01_14h36.36.844,Slot Machine Game,2023.1.3,Win32,59.88023952,,,,,,,,,,,,,,,,,,,,,,,,,,,710,,,,,,,,,,,,,,,,,,,,,9,10,,,595.0112,9,up,0.2251,,1.5,0.3,"[3,1,2]",0.369532755,stimuli/card_100_transparent.png,100,9,0,9,0,1,,,,,,,,,,
,,,,62743aeb9ef8628d06ec5a75,A,2024-07-01_14h36.36.844,Slot Machine Game,2023.1.3,Win32,59.88023952,,,,,,,,,,,,,,,,,,,,,,,,,,,720,,,,,,,,,,,,,,,,,,,,,9,10,,,597.5447,10,up,0.2446,,0.5,0.3,"[1,3,2]",0.17272489,stimuli/card_10_transparent.png,10,10,0,10,0,1,,,,,,,,,,
,,,,62743aeb9ef8628d06ec5a75,A,2024-07-01_14h36.36.844,Slot Machine Game,2023.1.3,Win32,59.88023952,,,,,,,,,,,,,,,,,,,,,,,,,,,720,,,,,,,,,,,,,,,,,,,,,9,10,,,599.0949,11,up,0.0002,,0.5,0.3,"[1,3,2]",0.954042882,stimuli/card_0_transparent.png,0,11,0,11,0,1,,,,,,,,,,
,,,,62743aeb9ef8628d06ec5a75,A,2024-07-01_14h36.36.844,Slot Machine Game,2023.1.3,Win32,59.88023952,,,,,,,,,,,,,,,,,,,,,,,,,,,820,,,,,,,,,,,,,,,,,,,,,9,10,,,600.4281,12,up,0.003,,1,0.3,"[1,3,2]",0.086566387,stimuli/card_100_transparent.png,100,12,0,12,0,1,,,,,,,,,,
,,,,62743aeb9ef8628d06ec5a75,A,2024-07-01_14h36.36.844,Slot Machine Game,2023.1.3,Win32,59.88023952,,,,,,,,,,,,,,,,,,,,,,,,,,,820,,,,,,,,,,,,,,,,,,,,,9,10,,,602.2612,13,up,0.0517,,1,0.3,"[1,3,2]",0.675660226,stimuli/card_0_transparent.png,0,13,0,13,0,1,,,,,,,,,,
,,,,62743aeb9ef8628d06ec5a75,A,2024-07-01_14h36.36.844,Slot Machine Game,2023.1.3,Win32,59.88023952,,,,,,,,,,,,,,,,,,,,,,,,,,,820,,,,,,,,,,,,,,,,,,,,,9,10,,,604.1281,14,up,0.1906,,1.5,0.3,"[1,3,2]",0.555640694,stimuli/card_0_transparent.png,0,14,0,14,0,1,,,,,,,,,,
,,,,62743aeb9ef8628d06ec5a75,A,2024-07-01_14h36.36.844,Slot Machine Game,2023.1.3,Win32,59.88023952,,,,,,,,,,,,,,,,,,,,,,,,,,,,,,,,,,,606.6446,,,,,,,,,,,,,,,,,,,,,,,,,,,,,,,,,"[830,830,750,650,650,850,660,1020,820]",8,0,8,0,1,,,,
,,,,62743aeb9ef8628d06ec5a75,A,2024-07-01_14h36.36.844,Slot Machine Game,2023.1.3,Win32,59.88023952,,,,,,,,,,,,,,,,,,,,,,,,,,,10,,,,,,,,,,,,,,,,,,,,,10,3,"[15,15]","[[3,1,2],[3,1,2]]",611.6526,0,left,0.3351,,1.5,0.3,"[3,1,2]",0.114974895,stimuli/card_10_transparent.png,10,0,0,0,0,1,,,,,,,,,,
,,,,62743aeb9ef8628d06ec5a75,A,2024-07-01_14h36.36.844,Slot Machine Game,2023.1.3,Win32,59.88023952,,,,,,,,,,,,,,,,,,,,,,,,,,,110,,,,,,,,,,,,,,,,,,,,,10,3,,,614.3115,1,up,0.0858,,0.5,0.3,"[3,1,2]",0.533181264,stimuli/card_100_transparent.png,100,1,0,1,0,1,,,,,,,,,,
,,,,62743aeb9ef8628d06ec5a75,A,2024-07-01_14h36.36.844,Slot Machine Game,2023.1.3,Win32,59.88023952,,,,,,,,,,,,,,,,,,,,,,,,,,,210,,,,,,,,,,,,,,,,,,,,,10,3,,,615.7113,2,up,0.2169,,1,0.3,"[3,1,2]",0.263947575,stimuli/card_100_transparent.png,100,2,0,2,0,1,,,,,,,,,,
,,,,62743aeb9ef8628d06ec5a75,A,2024-07-01_14h36.36.844,Slot Machine Game,2023.1.3,Win32,59.88023952,,,,,,,,,,,,,,,,,,,,,,,,,,,310,,,,,,,,,,,,,,,,,,,,,10,3,,,617.7448,3,up,0.0683,,1,0.3,"[3,1,2]",0.887305518,stimuli/card_100_transparent.png,100,3,0,3,0,1,,,,,,,,,,
,,,,62743aeb9ef8628d06ec5a75,A,2024-07-01_14h36.36.844,Slot Machine Game,2023.1.3,Win32,59.88023952,,,,,,,,,,,,,,,,,,,,,,,,,,,410,,,,,,,,,,,,,,,,,,,,,10,3,,,619.628,4,up,0.0692,,1,0.3,"[3,1,2]",0.817222519,stimuli/card_100_transparent.png,100,4,0,4,0,1,,,,,,,,,,
,,,,62743aeb9ef8628d06ec5a75,A,2024-07-01_14h36.36.844,Slot Machine Game,2023.1.3,Win32,59.88023952,,,,,,,,,,,,,,,,,,,,,,,,,,,510,,,,,,,,,,,,,,,,,,,,,10,3,,,621.5115,5,up,0.0417,,1,0.3,"[3,1,2]",0.646034006,stimuli/card_100_transparent.png,100,5,0,5,0,1,,,,,,,,,,
,,,,62743aeb9ef8628d06ec5a75,A,2024-07-01_14h36.36.844,Slot Machine Game,2023.1.3,Win32,59.88023952,,,,,,,,,,,,,,,,,,,,,,,,,,,610,,,,,,,,,,,,,,,,,,,,,10,3,,,623.3781,6,up,0.0499,,1,0.3,"[3,1,2]",0.793947839,stimuli/card_100_transparent.png,100,6,0,6,0,1,,,,,,,,,,
,,,,62743aeb9ef8628d06ec5a75,A,2024-07-01_14h36.36.844,Slot Machine Game,2023.1.3,Win32,59.88023952,,,,,,,,,,,,,,,,,,,,,,,,,,,710,,,,,,,,,,,,,,,,,,,,,10,3,,,625.2448,7,up,0.017,,1.5,0.3,"[3,1,2]",0.725993839,stimuli/card_100_transparent.png,100,7,0,7,0,1,,,,,,,,,,
,,,,62743aeb9ef8628d06ec5a75,A,2024-07-01_14h36.36.844,Slot Machine Game,2023.1.3,Win32,59.88023952,,,,,,,,,,,,,,,,,,,,,,,,,,,810,,,,,,,,,,,,,,,,,,,,,10,3,,,627.5779,8,up,0.0002,,1,0.3,"[3,1,2]",0.81511831,stimuli/card_100_transparent.png,100,8,0,8,0,1,,,,,,,,,,
,,,,62743aeb9ef8628d06ec5a75,A,2024-07-01_14h36.36.844,Slot Machine Game,2023.1.3,Win32,59.88023952,,,,,,,,,,,,,,,,,,,,,,,,,,,810,,,,,,,,,,,,,,,,,,,,,10,3,,,629.3948,9,up,0.0021,,1.5,0.3,"[3,1,2]",0.046096207,stimuli/card_0_transparent.png,0,9,0,9,0,1,,,,,,,,,,
,,,,62743aeb9ef8628d06ec5a75,A,2024-07-01_14h36.36.844,Slot Machine Game,2023.1.3,Win32,59.88023952,,,,,,,,,,,,,,,,,,,,,,,,,,,910,,,,,,,,,,,,,,,,,,,,,10,3,,,631.7279,10,up,0.1498,,1.5,0.3,"[3,1,2]",0.636088493,stimuli/card_100_transparent.png,100,10,0,10,0,1,,,,,,,,,,
,,,,62743aeb9ef8628d06ec5a75,A,2024-07-01_14h36.36.844,Slot Machine Game,2023.1.3,Win32,59.88023952,,,,,,,,,,,,,,,,,,,,,,,,,,,1010,,,,,,,,,,,,,,,,,,,,,10,3,,,634.1947,11,up,0.0669,,0.5,0.3,"[3,1,2]",0.850283917,stimuli/card_100_transparent.png,100,11,0,11,0,1,,,,,,,,,,
,,,,62743aeb9ef8628d06ec5a75,A,2024-07-01_14h36.36.844,Slot Machine Game,2023.1.3,Win32,59.88023952,,,,,,,,,,,,,,,,,,,,,,,,,,,1020,,,,,,,,,,,,,,,,,,,,,10,3,,,635.5948,12,up,0.1155,,0.5,0.3,"[3,1,2]",0.124210541,stimuli/card_10_transparent.png,10,12,0,12,0,1,,,,,,,,,,
,,,,62743aeb9ef8628d06ec5a75,A,2024-07-01_14h36.36.844,Slot Machine Game,2023.1.3,Win32,59.88023952,,,,,,,,,,,,,,,,,,,,,,,,,,,1120,,,,,,,,,,,,,,,,,,,,,10,3,,,637.0445,13,up,0.1666,,0.5,0.3,"[3,1,2]",0.369816828,stimuli/card_100_transparent.png,100,13,0,13,0,1,,,,,,,,,,
,,,,62743aeb9ef8628d06ec5a75,A,2024-07-01_14h36.36.844,Slot Machine Game,2023.1.3,Win32,59.88023952,,,,,,,,,,,,,,,,,,,,,,,,,,,1220,,,,,,,,,,,,,,,,,,,,,10,3,,,638.5279,14,up,0.3103,,0.5,0.3,"[3,1,2]",0.232532043,stimuli/card_100_transparent.png,100,14,0,14,0,1,,,,,,,,,,
,,,,62743aeb9ef8628d06ec5a75,A,2024-07-01_14h36.36.844,Slot Machine Game,2023.1.3,Win32,59.88023952,,,,,,,,,,,,,,,,,,,,,,,,,,,,,,,,,,,640.1448,,,,,,,,,,,,,,,,,,,,,,,,,,,,,,,,,"[830,830,750,650,650,850,660,1020,820,1220]",9,0,9,0,1,,,,
,,,,62743aeb9ef8628d06ec5a75,A,2024-07-01_14h36.36.844,Slot Machine Game,2023.1.3,Win32,59.88023952,,,,,,,,,,,,,,,,,,,,,,,,,,,,,,,,,,,,,,,,,,,,,,,,,,,,,,,,,,,,,,,,,,,,,,,,,,9,"[830,830,750,650,650,850,660,1020,820,1220]",8.5,2024-07-01_14h47.26.051
