key_resp_welcome_started,key_resp_welcome_keys,key_resp_welcome_rt,key_resp_welcome_duration,prolific_id,path_id,date,expName,psychopyVersion,OS,frameRate,key_resp_instruction1_started,key_resp_instruction1_keys,key_resp_instruction1_rt,key_resp_instruction1_duration,key_resp_instruction2_started,key_resp_instruction2_keys,key_resp_instruction2_rt,key_resp_instruction2_duration,key_resp_instruction3_started,key_resp_instruction3_keys,key_resp_instruction3_rt,key_resp_instruction3_duration,key_resp_instruction4_started,key_resp_instruction4_keys,key_resp_instruction4_rt,key_resp_instruction4_duration,practiceCondition,practice_reward_seqs,practice_trial_started,practice_trial_num,practice_resp_rt,practice_resp_duration,practice_resp_keys,prac_presentationInterval,"practice_reward_seq: 2,1,3",reward_img,cumulative_reward,trial_reward,practice_trials.thisRepN,practice_trials.thisTrialN,practice_trials.thisN,practice_trials.thisIndex,practice_trials.ran,"practice_reward_seq: 2,3,1",block_break_started,"practice_reward_seq: 1,3,2","practice_reward_seq: 3,1,2",practice_end_time,practice_end_keys,practice_end_rt,practice_end_duration,main_instruction_text_started,block_condition,block_order_indices,main_instruction_keys,main_instruction_rt,main_instruction_duration,block_number,block_assignment,current_condition,main_reward_seqs,main_trial_started,main_trial_num,main_trial_keys,main_trial_rt,main_trial_duration,main_presentationInterval,reward_presentation_time,main_reward_seq,reward_rand_val,main_reward_img,current_reward,main_trials.thisRepN,main_trials.thisTrialN,main_trials.thisN,main_trials.thisIndex,main_trials.ran,block_reward,block.thisRepN,block.thisTrialN,block.thisN,block.thisIndex,block.ran,block_reward.length,block_reward_all,reward_amount,date_end_task
0.0003,space,1.7331,,62865cb9d41a9e2aaf141c84,A,2024-07-02_15h51.14.784,Slot Machine Game,2023.1.3,Win32,60.60606061,,,,,,,,,,,,,,,,,,,,,,,,,,,,,,,,,,,,,,,,,,,,,,,,,,,,,,,,,,,,,,,,,,,,,,,,,,,,,
,,,,62865cb9d41a9e2aaf141c84,A,2024-07-02_15h51.14.784,Slot Machine Game,2023.1.3,Win32,60.60606061,1.747,space,10.5649,,,,,,,,,,,,,,,,,,,,,,,,,,,,,,,,,,,,,,,,,,,,,,,,,,,,,,,,,,,,,,,,,,,,,,,,,,
,,,,62865cb9d41a9e2aaf141c84,A,2024-07-02_15h51.14.784,Slot Machine Game,2023.1.3,Win32,60.60606061,,,,,12.3296,space,31.4904,,,,,,,,,,,,,,,,,,,,,,,,,,,,,,,,,,,,,,,,,,,,,,,,,,,,,,,,,,,,,,,,,,,,,,
,,,,62865cb9d41a9e2aaf141c84,A,2024-07-02_15h51.14.784,Slot Machine Game,2023.1.3,Win32,60.60606061,,,,,,,,,43.8539,space,9.8181,,,,,,,,,,,,,,,,,,,,,,,,,,,,,,,,,,,,,,,,,,,,,,,,,,,,,,,,,,,,,,,,,,
,,,,62865cb9d41a9e2aaf141c84,A,2024-07-02_15h51.14.784,Slot Machine Game,2023.1.3,Win32,60.60606061,,,,,,,,,,,,,,,,,,,,,,,,,,,,,,,,,,,,,,,,,,,,,,,,,,,,,,,,,,,,,,,,,,,,,,,,,,,,,
,,,,62865cb9d41a9e2aaf141c84,A,2024-07-02_15h51.14.784,Slot Machine Game,2023.1.3,Win32,60.60606061,,,,,,,,,,,,,195.352,space,13.2835,,,,,,,,,,,,,,,,,,,,,,,,,,,,,,,,,,,,,,,,,,,,,,,,,,,,,,,,,,,,,,
,,,,62865cb9d41a9e2aaf141c84,A,2024-07-02_15h51.14.784,Slot Machine Game,2023.1.3,Win32,60.60606061,,,,,,,,,,,,,,,,,"[9,15]","[[2,1,3],[2,3,1]]",208.6617,0,1.8339,,right,1,,stimuli/card_0_transparent.png,0,0,0,0,0,0,1,,,,,,,,,,,,,,,,,,,,,,,,,,,,,,,,,,,,,,,,,,,,
,,,,62865cb9d41a9e2aaf141c84,A,2024-07-02_15h51.14.784,Slot Machine Game,2023.1.3,Win32,60.60606061,,,,,,,,,,,,,,,,,,,212.313,1,1.0335,,up,1,,stimuli/card_10_transparent.png,10,10,1,0,1,0,1,,,,,,,,,,,,,,,,,,,,,,,,,,,,,,,,,,,,,,,,,,,,
,,,,62865cb9d41a9e2aaf141c84,A,2024-07-02_15h51.14.784,Slot Machine Game,2023.1.3,Win32,60.60606061,,,,,,,,,,,,,,,,,,,215.1793,2,0.6232,,left,1.5,,stimuli/card_10_transparent.png,20,10,2,0,2,0,1,,,,,,,,,,,,,,,,,,,,,,,,,,,,,,,,,,,,,,,,,,,,
,,,,62865cb9d41a9e2aaf141c84,A,2024-07-02_15h51.14.784,Slot Machine Game,2023.1.3,Win32,60.60606061,,,,,,,,,,,,,,,,,,,218.1288,3,0.1857,,right,0.5,,stimuli/card_100_transparent.png,120,100,3,0,3,0,1,,,,,,,,,,,,,,,,,,,,,,,,,,,,,,,,,,,,,,,,,,,,
,,,,62865cb9d41a9e2aaf141c84,A,2024-07-02_15h51.14.784,Slot Machine Game,2023.1.3,Win32,60.60606061,,,,,,,,,,,,,,,,,,,219.6454,4,0.3157,,right,0.5,,stimuli/card_0_transparent.png,120,0,4,0,4,0,1,,,,,,,,,,,,,,,,,,,,,,,,,,,,,,,,,,,,,,,,,,,,
,,,,62865cb9d41a9e2aaf141c84,A,2024-07-02_15h51.14.784,Slot Machine Game,2023.1.3,Win32,60.60606061,,,,,,,,,,,,,,,,,,,221.2788,5,0.44,,up,1.5,,stimuli/card_100_transparent.png,220,100,5,0,5,0,1,,,,,,,,,,,,,,,,,,,,,,,,,,,,,,,,,,,,,,,,,,,,
,,,,62865cb9d41a9e2aaf141c84,A,2024-07-02_15h51.14.784,Slot Machine Game,2023.1.3,Win32,60.60606061,,,,,,,,,,,,,,,,,,,224.045,6,0.3508,,up,1.5,,stimuli/card_0_transparent.png,220,0,6,0,6,0,1,,,,,,,,,,,,,,,,,,,,,,,,,,,,,,,,,,,,,,,,,,,,
,,,,62865cb9d41a9e2aaf141c84,A,2024-07-02_15h51.14.784,Slot Machine Game,2023.1.3,Win32,60.60606061,,,,,,,,,,,,,,,,,,,226.7283,7,0.2837,,right,1.5,,stimuli/card_0_transparent.png,220,0,7,0,7,0,1,,,,,,,,,,,,,,,,,,,,,,,,,,,,,,,,,,,,,,,,,,,,
,,,,62865cb9d41a9e2aaf141c84,A,2024-07-02_15h51.14.784,Slot Machine Game,2023.1.3,Win32,60.60606061,,,,,,,,,,,,,,,,,,,229.3448,8,0.0339,,left,1.5,,stimuli/card_10_transparent.png,230,10,8,0,8,0,1,,,,,,,,,,,,,,,,,,,,,,,,,,,,,,,,,,,,,,,,,,,,
,,,,62865cb9d41a9e2aaf141c84,A,2024-07-02_15h51.14.784,Slot Machine Game,2023.1.3,Win32,60.60606061,,,,,,,,,,,,,,,,,,,231.7114,9,0.0834,,up,0.5,,stimuli/card_0_transparent.png,230,0,9,0,9,0,1,,,,,,,,,,,,,,,,,,,,,,,,,,,,,,,,,,,,,,,,,,,,
,,,,62865cb9d41a9e2aaf141c84,A,2024-07-02_15h51.14.784,Slot Machine Game,2023.1.3,Win32,60.60606061,,,,,,,,,,,,,,,,,,,233.1279,10,0.0521,,left,0.5,,stimuli/card_10_transparent.png,240,10,10,0,10,0,1,,,,,,,,,,,,,,,,,,,,,,,,,,,,,,,,,,,,,,,,,,,,
,,,,62865cb9d41a9e2aaf141c84,A,2024-07-02_15h51.14.784,Slot Machine Game,2023.1.3,Win32,60.60606061,,,,,,,,,,,,,,,,,,,234.4947,11,0.1538,,right,1,,stimuli/card_100_transparent.png,340,100,11,0,11,0,1,,,,,,,,,,,,,,,,,,,,,,,,,,,,,,,,,,,,,,,,,,,,
,,,,62865cb9d41a9e2aaf141c84,A,2024-07-02_15h51.14.784,Slot Machine Game,2023.1.3,Win32,60.60606061,,,,,,,,,,,,,,,,,,,236.4778,12,0.4645,,right,1.5,,stimuli/card_0_transparent.png,340,0,12,0,12,0,1,,,,,,,,,,,,,,,,,,,,,,,,,,,,,,,,,,,,,,,,,,,,
,,,,62865cb9d41a9e2aaf141c84,A,2024-07-02_15h51.14.784,Slot Machine Game,2023.1.3,Win32,60.60606061,,,,,,,,,,,,,,,,,,,239.2777,13,0.4893,,right,1,,stimuli/card_10_transparent.png,350,10,13,0,13,0,1,,,,,,,,,,,,,,,,,,,,,,,,,,,,,,,,,,,,,,,,,,,,
,,,,62865cb9d41a9e2aaf141c84,A,2024-07-02_15h51.14.784,Slot Machine Game,2023.1.3,Win32,60.60606061,,,,,,,,,,,,,,,,,,,241.5943,14,0.2191,,up,1,,stimuli/card_0_transparent.png,350,0,14,0,14,0,1,,,,,,,,,,,,,,,,,,,,,,,,,,,,,,,,,,,,,,,,,,,,
,,,,62865cb9d41a9e2aaf141c84,A,2024-07-02_15h51.14.784,Slot Machine Game,2023.1.3,Win32,60.60606061,,,,,,,,,,,,,,,,,"[6,15]","[[1,3,2],[3,1,2]]",248.65,0,0.2066,,left,0.5,,stimuli/card_100_transparent.png,100,100,0,0,0,0,1,,243.6515,,,,,,,,,,,,,,,,,,,,,,,,,,,,,,,,,,,,,,,,,,
,,,,62865cb9d41a9e2aaf141c84,A,2024-07-02_15h51.14.784,Slot Machine Game,2023.1.3,Win32,60.60606061,,,,,,,,,,,,,,,,,,,250.1773,1,0.1041,,left,1.5,,stimuli/card_100_transparent.png,200,100,1,0,1,0,1,,,,,,,,,,,,,,,,,,,,,,,,,,,,,,,,,,,,,,,,,,,,
,,,,62865cb9d41a9e2aaf141c84,A,2024-07-02_15h51.14.784,Slot Machine Game,2023.1.3,Win32,60.60606061,,,,,,,,,,,,,,,,,,,252.6105,2,0.9345,,left,1.5,,stimuli/card_100_transparent.png,300,100,2,0,2,0,1,,,,,,,,,,,,,,,,,,,,,,,,,,,,,,,,,,,,,,,,,,,,
,,,,62865cb9d41a9e2aaf141c84,A,2024-07-02_15h51.14.784,Slot Machine Game,2023.1.3,Win32,60.60606061,,,,,,,,,,,,,,,,,,,255.8773,3,0.5449,,left,1,,stimuli/card_100_transparent.png,400,100,3,0,3,0,1,,,,,,,,,,,,,,,,,,,,,,,,,,,,,,,,,,,,,,,,,,,,
,,,,62865cb9d41a9e2aaf141c84,A,2024-07-02_15h51.14.784,Slot Machine Game,2023.1.3,Win32,60.60606061,,,,,,,,,,,,,,,,,,,258.2434,4,0.0568,,left,1,,stimuli/card_10_transparent.png,410,10,4,0,4,0,1,,,,,,,,,,,,,,,,,,,,,,,,,,,,,,,,,,,,,,,,,,,,
,,,,62865cb9d41a9e2aaf141c84,A,2024-07-02_15h51.14.784,Slot Machine Game,2023.1.3,Win32,60.60606061,,,,,,,,,,,,,,,,,,,260.1268,5,0.3668,,up,1.5,,stimuli/card_0_transparent.png,410,0,5,0,5,0,1,,,,,,,,,,,,,,,,,,,,,,,,,,,,,,,,,,,,,,,,,,,,
,,,,62865cb9d41a9e2aaf141c84,A,2024-07-02_15h51.14.784,Slot Machine Game,2023.1.3,Win32,60.60606061,,,,,,,,,,,,,,,,,,,262.8267,6,0.0607,,left,1.5,,stimuli/card_0_transparent.png,410,0,6,0,6,0,1,,,,,,,,,,,,,,,,,,,,,,,,,,,,,,,,,,,,,,,,,,,,
,,,,62865cb9d41a9e2aaf141c84,A,2024-07-02_15h51.14.784,Slot Machine Game,2023.1.3,Win32,60.60606061,,,,,,,,,,,,,,,,,,,265.2097,7,0.0569,,right,1,,stimuli/card_10_transparent.png,420,10,7,0,7,0,1,,,,,,,,,,,,,,,,,,,,,,,,,,,,,,,,,,,,,,,,,,,,
,,,,62865cb9d41a9e2aaf141c84,A,2024-07-02_15h51.14.784,Slot Machine Game,2023.1.3,Win32,60.60606061,,,,,,,,,,,,,,,,,,,267.0933,8,0.1063,,right,0.5,,stimuli/card_100_transparent.png,520,100,8,0,8,0,1,,,,,,,,,,,,,,,,,,,,,,,,,,,,,,,,,,,,,,,,,,,,
,,,,62865cb9d41a9e2aaf141c84,A,2024-07-02_15h51.14.784,Slot Machine Game,2023.1.3,Win32,60.60606061,,,,,,,,,,,,,,,,,,,268.5261,9,0.4729,,right,1.5,,stimuli/card_10_transparent.png,530,10,9,0,9,0,1,,,,,,,,,,,,,,,,,,,,,,,,,,,,,,,,,,,,,,,,,,,,
,,,,62865cb9d41a9e2aaf141c84,A,2024-07-02_15h51.14.784,Slot Machine Game,2023.1.3,Win32,60.60606061,,,,,,,,,,,,,,,,,,,271.3095,10,0.3389,,right,1.5,,stimuli/card_10_transparent.png,540,10,10,0,10,0,1,,,,,,,,,,,,,,,,,,,,,,,,,,,,,,,,,,,,,,,,,,,,
,,,,62865cb9d41a9e2aaf141c84,A,2024-07-02_15h51.14.784,Slot Machine Game,2023.1.3,Win32,60.60606061,,,,,,,,,,,,,,,,,,,273.9764,11,0.2341,,up,1,,stimuli/card_100_transparent.png,640,100,11,0,11,0,1,,,,,,,,,,,,,,,,,,,,,,,,,,,,,,,,,,,,,,,,,,,,
,,,,62865cb9d41a9e2aaf141c84,A,2024-07-02_15h51.14.784,Slot Machine Game,2023.1.3,Win32,60.60606061,,,,,,,,,,,,,,,,,,,276.0426,12,0.1522,,up,0.5,,stimuli/card_0_transparent.png,640,0,12,0,12,0,1,,,,,,,,,,,,,,,,,,,,,,,,,,,,,,,,,,,,,,,,,,,,
,,,,62865cb9d41a9e2aaf141c84,A,2024-07-02_15h51.14.784,Slot Machine Game,2023.1.3,Win32,60.60606061,,,,,,,,,,,,,,,,,,,277.509,13,0.1646,,up,1,,stimuli/card_100_transparent.png,740,100,13,0,13,0,1,,,,,,,,,,,,,,,,,,,,,,,,,,,,,,,,,,,,,,,,,,,,
,,,,62865cb9d41a9e2aaf141c84,A,2024-07-02_15h51.14.784,Slot Machine Game,2023.1.3,Win32,60.60606061,,,,,,,,,,,,,,,,,,,279.5094,14,0.208,,up,1,,stimuli/card_100_transparent.png,840,100,14,0,14,0,1,,,,,,,,,,,,,,,,,,,,,,,,,,,,,,,,,,,,,,,,,,,,
,,,,62865cb9d41a9e2aaf141c84,A,2024-07-02_15h51.14.784,Slot Machine Game,2023.1.3,Win32,60.60606061,,,,,,,,,,,,,,,,,,,,,,,,,,,,,,,,,,,281.5424,,,286.5429,space,91.8169,,,,,,,,,,,,,,,,,,,,,,,,,,,,,,,,,,,,,
,,,,62865cb9d41a9e2aaf141c84,A,2024-07-02_15h51.14.784,Slot Machine Game,2023.1.3,Win32,60.60606061,,,,,,,,,,,,,,,,,,,,,,,,,,,,,,,,,,,,,,,,,,378.3717,3,"[0,4,6,3,5,7,8,1,9,2]",space,2.5635,,,,,,,,,,,,,,,,,,,,,,,,,,,,,,,
,,,,62865cb9d41a9e2aaf141c84,A,2024-07-02_15h51.14.784,Slot Machine Game,2023.1.3,Win32,60.60606061,,,,,,,,,,,,,,,,,,,,,,,,,,,100,,,,,,,,,,,,,,,,,,,,,1,1,"[12,15]","[[2,1,3],[2,3,1]]",380.9615,0,left,0.3644,,1.5,0.3,"[2,1,3]",0.139733847,stimuli/card_100_transparent.png,100,0,0,0,0,1,,,,,,,,,,
,,,,62865cb9d41a9e2aaf141c84,A,2024-07-02_15h51.14.784,Slot Machine Game,2023.1.3,Win32,60.60606061,,,,,,,,,,,,,,,,,,,,,,,,,,,110,,,,,,,,,,,,,,,,,,,,,1,1,,,383.6546,1,left,0.3337,,1.5,0.3,"[2,1,3]",0.52053576,stimuli/card_10_transparent.png,10,1,0,1,0,1,,,,,,,,,,
,,,,62865cb9d41a9e2aaf141c84,A,2024-07-02_15h51.14.784,Slot Machine Game,2023.1.3,Win32,60.60606061,,,,,,,,,,,,,,,,,,,,,,,,,,,210,,,,,,,,,,,,,,,,,,,,,1,1,,,386.321,2,left,0.5547,,1.5,0.3,"[2,1,3]",0.132633386,stimuli/card_100_transparent.png,100,2,0,2,0,1,,,,,,,,,,
,,,,62865cb9d41a9e2aaf141c84,A,2024-07-02_15h51.14.784,Slot Machine Game,2023.1.3,Win32,60.60606061,,,,,,,,,,,,,,,,,,,,,,,,,,,220,,,,,,,,,,,,,,,,,,,,,1,1,,,389.1874,3,left,0.3262,,1,0.3,"[2,1,3]",0.582078467,stimuli/card_10_transparent.png,10,3,0,3,0,1,,,,,,,,,,
,,,,62865cb9d41a9e2aaf141c84,A,2024-07-02_15h51.14.784,Slot Machine Game,2023.1.3,Win32,60.60606061,,,,,,,,,,,,,,,,,,,,,,,,,,,230,,,,,,,,,,,,,,,,,,,,,1,1,,,391.3375,4,left,0.6234,,1,0.3,"[2,1,3]",0.368551059,stimuli/card_10_transparent.png,10,4,0,4,0,1,,,,,,,,,,
,,,,62865cb9d41a9e2aaf141c84,A,2024-07-02_15h51.14.784,Slot Machine Game,2023.1.3,Win32,60.60606061,,,,,,,,,,,,,,,,,,,,,,,,,,,330,,,,,,,,,,,,,,,,,,,,,1,1,,,393.7872,5,up,0.4224,,0.5,0.3,"[2,1,3]",0.459228091,stimuli/card_100_transparent.png,100,5,0,5,0,1,,,,,,,,,,
,,,,62865cb9d41a9e2aaf141c84,A,2024-07-02_15h51.14.784,Slot Machine Game,2023.1.3,Win32,60.60606061,,,,,,,,,,,,,,,,,,,,,,,,,,,430,,,,,,,,,,,,,,,,,,,,,1,1,,,395.5372,6,up,0.1838,,1,0.3,"[2,1,3]",0.673171431,stimuli/card_100_transparent.png,100,6,0,6,0,1,,,,,,,,,,
,,,,62865cb9d41a9e2aaf141c84,A,2024-07-02_15h51.14.784,Slot Machine Game,2023.1.3,Win32,60.60606061,,,,,,,,,,,,,,,,,,,,,,,,,,,440,,,,,,,,,,,,,,,,,,,,,1,1,,,397.5536,7,up,0.0312,,1.5,0.3,"[2,1,3]",0.150247003,stimuli/card_10_transparent.png,10,7,0,7,0,1,,,,,,,,,,
,,,,62865cb9d41a9e2aaf141c84,A,2024-07-02_15h51.14.784,Slot Machine Game,2023.1.3,Win32,60.60606061,,,,,,,,,,,,,,,,,,,,,,,,,,,440,,,,,,,,,,,,,,,,,,,,,1,1,,,399.9211,8,right,0.3175,,0.5,0.3,"[2,1,3]",0.957345817,stimuli/card_0_transparent.png,0,8,0,8,0,1,,,,,,,,,,
,,,,62865cb9d41a9e2aaf141c84,A,2024-07-02_15h51.14.784,Slot Machine Game,2023.1.3,Win32,60.60606061,,,,,,,,,,,,,,,,,,,,,,,,,,,450,,,,,,,,,,,,,,,,,,,,,1,1,,,401.5702,9,left,0.0341,,1.5,0.3,"[2,1,3]",0.243171352,stimuli/card_10_transparent.png,10,9,0,9,0,1,,,,,,,,,,
,,,,62865cb9d41a9e2aaf141c84,A,2024-07-02_15h51.14.784,Slot Machine Game,2023.1.3,Win32,60.60606061,,,,,,,,,,,,,,,,,,,,,,,,,,,550,,,,,,,,,,,,,,,,,,,,,1,1,,,403.937,10,up,0.7378,,1,0.3,"[2,1,3]",0.891636165,stimuli/card_100_transparent.png,100,10,0,10,0,1,,,,,,,,,,
,,,,62865cb9d41a9e2aaf141c84,A,2024-07-02_15h51.14.784,Slot Machine Game,2023.1.3,Win32,60.60606061,,,,,,,,,,,,,,,,,,,,,,,,,,,560,,,,,,,,,,,,,,,,,,,,,1,1,,,406.503,11,up,0.2669,,1,0.3,"[2,1,3]",0.125744857,stimuli/card_10_transparent.png,10,11,0,11,0,1,,,,,,,,,,
,,,,62865cb9d41a9e2aaf141c84,A,2024-07-02_15h51.14.784,Slot Machine Game,2023.1.3,Win32,60.60606061,,,,,,,,,,,,,,,,,,,,,,,,,,,560,,,,,,,,,,,,,,,,,,,,,1,1,,,408.6029,12,up,0.0827,,0.5,0.3,"[2,3,1]",0.664167481,stimuli/card_0_transparent.png,0,12,0,12,0,1,,,,,,,,,,
,,,,62865cb9d41a9e2aaf141c84,A,2024-07-02_15h51.14.784,Slot Machine Game,2023.1.3,Win32,60.60606061,,,,,,,,,,,,,,,,,,,,,,,,,,,570,,,,,,,,,,,,,,,,,,,,,1,1,,,410.0198,13,left,0.5753,,0.5,0.3,"[2,3,1]",0.371966703,stimuli/card_10_transparent.png,10,13,0,13,0,1,,,,,,,,,,
,,,,62865cb9d41a9e2aaf141c84,A,2024-07-02_15h51.14.784,Slot Machine Game,2023.1.3,Win32,60.60606061,,,,,,,,,,,,,,,,,,,,,,,,,,,580,,,,,,,,,,,,,,,,,,,,,1,1,,,411.9197,14,right,0.1356,,0.5,0.3,"[2,3,1]",0.105355896,stimuli/card_10_transparent.png,10,14,0,14,0,1,,,,,,,,,,
,,,,62865cb9d41a9e2aaf141c84,A,2024-07-02_15h51.14.784,Slot Machine Game,2023.1.3,Win32,60.60606061,,,,,,,,,,,,,,,,,,,,,,,,,,,,,,,,,,,413.3866,,,,,,,,,,,,,,,,,,,,,,,,,,,,,,,,,[580],0,0,0,0,1,,,,
,,,,62865cb9d41a9e2aaf141c84,A,2024-07-02_15h51.14.784,Slot Machine Game,2023.1.3,Win32,60.60606061,,,,,,,,,,,,,,,,,,,,,,,,,,,100,,,,,,,,,,,,,,,,,,,,,2,5,"[5,15]","[[1,2,3],[3,1,2]]",418.3941,0,left,0.4215,,1.5,0.3,"[1,2,3]",0.722121632,stimuli/card_100_transparent.png,100,0,0,0,0,1,,,,,,,,,,
,,,,62865cb9d41a9e2aaf141c84,A,2024-07-02_15h51.14.784,Slot Machine Game,2023.1.3,Win32,60.60606061,,,,,,,,,,,,,,,,,,,,,,,,,,,110,,,,,,,,,,,,,,,,,,,,,2,5,,,421.1361,1,left,0.0008,,0.5,0.3,"[1,2,3]",0.164047699,stimuli/card_10_transparent.png,10,1,0,1,0,1,,,,,,,,,,
,,,,62865cb9d41a9e2aaf141c84,A,2024-07-02_15h51.14.784,Slot Machine Game,2023.1.3,Win32,60.60606061,,,,,,,,,,,,,,,,,,,,,,,,,,,210,,,,,,,,,,,,,,,,,,,,,2,5,,,422.469,2,left,0.4245,,1.5,0.3,"[1,2,3]",0.531856459,stimuli/card_100_transparent.png,100,2,0,2,0,1,,,,,,,,,,
,,,,62865cb9d41a9e2aaf141c84,A,2024-07-02_15h51.14.784,Slot Machine Game,2023.1.3,Win32,60.60606061,,,,,,,,,,,,,,,,,,,,,,,,,,,310,,,,,,,,,,,,,,,,,,,,,2,5,,,425.2027,3,left,0.3853,,1,0.3,"[1,2,3]",0.23758771,stimuli/card_100_transparent.png,100,3,0,3,0,1,,,,,,,,,,
,,,,62865cb9d41a9e2aaf141c84,A,2024-07-02_15h51.14.784,Slot Machine Game,2023.1.3,Win32,60.60606061,,,,,,,,,,,,,,,,,,,,,,,,,,,410,,,,,,,,,,,,,,,,,,,,,2,5,,,427.4114,4,left,0.3557,,1.5,0.3,"[1,2,3]",0.442710279,stimuli/card_100_transparent.png,100,4,0,4,0,1,,,,,,,,,,
,,,,62865cb9d41a9e2aaf141c84,A,2024-07-02_15h51.14.784,Slot Machine Game,2023.1.3,Win32,60.60606061,,,,,,,,,,,,,,,,,,,,,,,,,,,410,,,,,,,,,,,,,,,,,,,,,2,5,,,430.102,5,left,0.0486,,1,0.3,"[3,1,2]",0.481482942,stimuli/card_0_transparent.png,0,5,0,5,0,1,,,,,,,,,,
,,,,62865cb9d41a9e2aaf141c84,A,2024-07-02_15h51.14.784,Slot Machine Game,2023.1.3,Win32,60.60606061,,,,,,,,,,,,,,,,,,,,,,,,,,,410,,,,,,,,,,,,,,,,,,,,,2,5,,,431.9742,6,left,0.3523,,1,0.3,"[3,1,2]",0.461626488,stimuli/card_0_transparent.png,0,6,0,6,0,1,,,,,,,,,,
,,,,62865cb9d41a9e2aaf141c84,A,2024-07-02_15h51.14.784,Slot Machine Game,2023.1.3,Win32,60.60606061,,,,,,,,,,,,,,,,,,,,,,,,,,,410,,,,,,,,,,,,,,,,,,,,,2,5,,,434.1753,7,left,0.2698,,0.5,0.3,"[3,1,2]",0.362617731,stimuli/card_0_transparent.png,0,7,0,7,0,1,,,,,,,,,,
,,,,62865cb9d41a9e2aaf141c84,A,2024-07-02_15h51.14.784,Slot Machine Game,2023.1.3,Win32,60.60606061,,,,,,,,,,,,,,,,,,,,,,,,,,,510,,,,,,,,,,,,,,,,,,,,,2,5,,,435.7518,8,up,0.0564,,0.5,0.3,"[3,1,2]",0.516330471,stimuli/card_100_transparent.png,100,8,0,8,0,1,,,,,,,,,,
,,,,62865cb9d41a9e2aaf141c84,A,2024-07-02_15h51.14.784,Slot Machine Game,2023.1.3,Win32,60.60606061,,,,,,,,,,,,,,,,,,,,,,,,,,,610,,,,,,,,,,,,,,,,,,,,,2,5,,,437.1259,9,up,0.1245,,1,0.3,"[3,1,2]",0.670944031,stimuli/card_100_transparent.png,100,9,0,9,0,1,,,,,,,,,,
,,,,62865cb9d41a9e2aaf141c84,A,2024-07-02_15h51.14.784,Slot Machine Game,2023.1.3,Win32,60.60606061,,,,,,,,,,,,,,,,,,,,,,,,,,,710,,,,,,,,,,,,,,,,,,,,,2,5,,,439.094,10,up,0.4443,,1.5,0.3,"[3,1,2]",0.729744635,stimuli/card_100_transparent.png,100,10,0,10,0,1,,,,,,,,,,
,,,,62865cb9d41a9e2aaf141c84,A,2024-07-02_15h51.14.784,Slot Machine Game,2023.1.3,Win32,60.60606061,,,,,,,,,,,,,,,,,,,,,,,,,,,720,,,,,,,,,,,,,,,,,,,,,2,5,,,441.842,11,up,0.1063,,1,0.3,"[3,1,2]",0.101220277,stimuli/card_10_transparent.png,10,11,0,11,0,1,,,,,,,,,,
,,,,62865cb9d41a9e2aaf141c84,A,2024-07-02_15h51.14.784,Slot Machine Game,2023.1.3,Win32,60.60606061,,,,,,,,,,,,,,,,,,,,,,,,,,,730,,,,,,,,,,,,,,,,,,,,,2,5,,,443.785,12,right,0.3351,,1.5,0.3,"[3,1,2]",0.321494305,stimuli/card_10_transparent.png,10,12,0,12,0,1,,,,,,,,,,
,,,,62865cb9d41a9e2aaf141c84,A,2024-07-02_15h51.14.784,Slot Machine Game,2023.1.3,Win32,60.60606061,,,,,,,,,,,,,,,,,,,,,,,,,,,740,,,,,,,,,,,,,,,,,,,,,2,5,,,446.4604,13,right,0.2721,,1,0.3,"[3,1,2]",0.209616394,stimuli/card_10_transparent.png,10,13,0,13,0,1,,,,,,,,,,
,,,,62865cb9d41a9e2aaf141c84,A,2024-07-02_15h51.14.784,Slot Machine Game,2023.1.3,Win32,60.60606061,,,,,,,,,,,,,,,,,,,,,,,,,,,840,,,,,,,,,,,,,,,,,,,,,2,5,,,448.5612,14,up,0.0276,,0.5,0.3,"[3,1,2]",0.946151113,stimuli/card_100_transparent.png,100,14,0,14,0,1,,,,,,,,,,
,,,,62865cb9d41a9e2aaf141c84,A,2024-07-02_15h51.14.784,Slot Machine Game,2023.1.3,Win32,60.60606061,,,,,,,,,,,,,,,,,,,,,,,,,,,,,,,,,,,449.9113,,,,,,,,,,,,,,,,,,,,,,,,,,,,,,,,,"[580,840]",1,0,1,0,1,,,,
,,,,62865cb9d41a9e2aaf141c84,A,2024-07-02_15h51.14.784,Slot Machine Game,2023.1.3,Win32,60.60606061,,,,,,,,,,,,,,,,,,,,,,,,,,,0,,,,,,,,,,,,,,,,,,,,,3,7,"[9,15]","[[1,3,2],[2,3,1]]",454.9136,0,up,0.1639,,1,0.3,"[1,3,2]",0.895595993,stimuli/card_0_transparent.png,0,0,0,0,0,1,,,,,,,,,,
,,,,62865cb9d41a9e2aaf141c84,A,2024-07-02_15h51.14.784,Slot Machine Game,2023.1.3,Win32,60.60606061,,,,,,,,,,,,,,,,,,,,,,,,,,,10,,,,,,,,,,,,,,,,,,,,,3,7,,,456.9068,1,right,0.0947,,1.5,0.3,"[1,3,2]",0.272171178,stimuli/card_10_transparent.png,10,1,0,1,0,1,,,,,,,,,,
,,,,62865cb9d41a9e2aaf141c84,A,2024-07-02_15h51.14.784,Slot Machine Game,2023.1.3,Win32,60.60606061,,,,,,,,,,,,,,,,,,,,,,,,,,,20,,,,,,,,,,,,,,,,,,,,,3,7,,,459.321,2,left,0.0011,,0.5,0.3,"[1,3,2]",0.161582628,stimuli/card_10_transparent.png,10,2,0,2,0,1,,,,,,,,,,
,,,,62865cb9d41a9e2aaf141c84,A,2024-07-02_15h51.14.784,Slot Machine Game,2023.1.3,Win32,60.60606061,,,,,,,,,,,,,,,,,,,,,,,,,,,30,,,,,,,,,,,,,,,,,,,,,3,7,,,460.6579,3,right,0.0529,,0.5,0.3,"[1,3,2]",0.255080193,stimuli/card_10_transparent.png,10,3,0,3,0,1,,,,,,,,,,
,,,,62865cb9d41a9e2aaf141c84,A,2024-07-02_15h51.14.784,Slot Machine Game,2023.1.3,Win32,60.60606061,,,,,,,,,,,,,,,,,,,,,,,,,,,130,,,,,,,,,,,,,,,,,,,,,3,7,,,462.0339,4,left,0.2007,,1,0.3,"[1,3,2]",0.333106217,stimuli/card_100_transparent.png,100,4,0,4,0,1,,,,,,,,,,
,,,,62865cb9d41a9e2aaf141c84,A,2024-07-02_15h51.14.784,Slot Machine Game,2023.1.3,Win32,60.60606061,,,,,,,,,,,,,,,,,,,,,,,,,,,230,,,,,,,,,,,,,,,,,,,,,3,7,,,464.0574,5,left,0.2661,,1,0.3,"[1,3,2]",0.392766069,stimuli/card_100_transparent.png,100,5,0,5,0,1,,,,,,,,,,
,,,,62865cb9d41a9e2aaf141c84,A,2024-07-02_15h51.14.784,Slot Machine Game,2023.1.3,Win32,60.60606061,,,,,,,,,,,,,,,,,,,,,,,,,,,330,,,,,,,,,,,,,,,,,,,,,3,7,,,466.1572,6,left,0.4994,,1.5,0.3,"[1,3,2]",0.594239149,stimuli/card_100_transparent.png,100,6,0,6,0,1,,,,,,,,,,
,,,,62865cb9d41a9e2aaf141c84,A,2024-07-02_15h51.14.784,Slot Machine Game,2023.1.3,Win32,60.60606061,,,,,,,,,,,,,,,,,,,,,,,,,,,430,,,,,,,,,,,,,,,,,,,,,3,7,,,468.9836,7,left,0.3676,,1.5,0.3,"[1,3,2]",0.757116186,stimuli/card_100_transparent.png,100,7,0,7,0,1,,,,,,,,,,
,,,,62865cb9d41a9e2aaf141c84,A,2024-07-02_15h51.14.784,Slot Machine Game,2023.1.3,Win32,60.60606061,,,,,,,,,,,,,,,,,,,,,,,,,,,530,,,,,,,,,,,,,,,,,,,,,3,7,,,471.6733,8,left,0.3172,,1,0.3,"[1,3,2]",0.731500008,stimuli/card_100_transparent.png,100,8,0,8,0,1,,,,,,,,,,
,,,,62865cb9d41a9e2aaf141c84,A,2024-07-02_15h51.14.784,Slot Machine Game,2023.1.3,Win32,60.60606061,,,,,,,,,,,,,,,,,,,,,,,,,,,540,,,,,,,,,,,,,,,,,,,,,3,7,,,473.8002,9,left,0.0836,,0.5,0.3,"[2,3,1]",0.326127738,stimuli/card_10_transparent.png,10,9,0,9,0,1,,,,,,,,,,
,,,,62865cb9d41a9e2aaf141c84,A,2024-07-02_15h51.14.784,Slot Machine Game,2023.1.3,Win32,60.60606061,,,,,,,,,,,,,,,,,,,,,,,,,,,550,,,,,,,,,,,,,,,,,,,,,3,7,,,475.2069,10,left,0.4046,,0.5,0.3,"[2,3,1]",0.438598302,stimuli/card_10_transparent.png,10,10,0,10,0,1,,,,,,,,,,
,,,,62865cb9d41a9e2aaf141c84,A,2024-07-02_15h51.14.784,Slot Machine Game,2023.1.3,Win32,60.60606061,,,,,,,,,,,,,,,,,,,,,,,,,,,560,,,,,,,,,,,,,,,,,,,,,3,7,,,476.9254,11,left,0.0252,,1,0.3,"[2,3,1]",0.303875056,stimuli/card_10_transparent.png,10,11,0,11,0,1,,,,,,,,,,
,,,,62865cb9d41a9e2aaf141c84,A,2024-07-02_15h51.14.784,Slot Machine Game,2023.1.3,Win32,60.60606061,,,,,,,,,,,,,,,,,,,,,,,,,,,560,,,,,,,,,,,,,,,,,,,,,3,7,,,478.7927,12,up,0.1185,,1,0.3,"[2,3,1]",0.934551835,stimuli/card_0_transparent.png,0,12,0,12,0,1,,,,,,,,,,
,,,,62865cb9d41a9e2aaf141c84,A,2024-07-02_15h51.14.784,Slot Machine Game,2023.1.3,Win32,60.60606061,,,,,,,,,,,,,,,,,,,,,,,,,,,660,,,,,,,,,,,,,,,,,,,,,3,7,,,480.7217,13,right,0.0452,,1,0.3,"[2,3,1]",0.229352796,stimuli/card_100_transparent.png,100,13,0,13,0,1,,,,,,,,,,
,,,,62865cb9d41a9e2aaf141c84,A,2024-07-02_15h51.14.784,Slot Machine Game,2023.1.3,Win32,60.60606061,,,,,,,,,,,,,,,,,,,,,,,,,,,660,,,,,,,,,,,,,,,,,,,,,3,7,,,482.5567,14,right,0.0841,,0.5,0.3,"[2,3,1]",0.008898169,stimuli/card_0_transparent.png,0,14,0,14,0,1,,,,,,,,,,
,,,,62865cb9d41a9e2aaf141c84,A,2024-07-02_15h51.14.784,Slot Machine Game,2023.1.3,Win32,60.60606061,,,,,,,,,,,,,,,,,,,,,,,,,,,,,,,,,,,483.9748,,,,,,,,,,,,,,,,,,,,,,,,,,,,,,,,,"[580,840,660]",2,0,2,0,1,,,,
,,,,62865cb9d41a9e2aaf141c84,A,2024-07-02_15h51.14.784,Slot Machine Game,2023.1.3,Win32,60.60606061,,,,,,,,,,,,,,,,,,,,,,,,,,,10,,,,,,,,,,,,,,,,,,,,,4,4,"[7,15]","[[2,3,1],[1,2,3]]",488.9799,0,left,0.3679,,1.5,0.3,"[2,3,1]",0.806332724,stimuli/card_10_transparent.png,10,0,0,0,0,1,,,,,,,,,,
,,,,62865cb9d41a9e2aaf141c84,A,2024-07-02_15h51.14.784,Slot Machine Game,2023.1.3,Win32,60.60606061,,,,,,,,,,,,,,,,,,,,,,,,,,,10,,,,,,,,,,,,,,,,,,,,,4,4,,,491.6732,1,right,0.0342,,1.5,0.3,"[2,3,1]",0.013290072,stimuli/card_0_transparent.png,0,1,0,1,0,1,,,,,,,,,,
,,,,62865cb9d41a9e2aaf141c84,A,2024-07-02_15h51.14.784,Slot Machine Game,2023.1.3,Win32,60.60606061,,,,,,,,,,,,,,,,,,,,,,,,,,,110,,,,,,,,,,,,,,,,,,,,,4,4,,,494.0329,2,up,0.1447,,1,0.3,"[2,3,1]",0.006554765,stimuli/card_100_transparent.png,100,2,0,2,0,1,,,,,,,,,,
,,,,62865cb9d41a9e2aaf141c84,A,2024-07-02_15h51.14.784,Slot Machine Game,2023.1.3,Win32,60.60606061,,,,,,,,,,,,,,,,,,,,,,,,,,,120,,,,,,,,,,,,,,,,,,,,,4,4,,,496.0158,3,up,0.3356,,1.5,0.3,"[2,3,1]",0.134641041,stimuli/card_10_transparent.png,10,3,0,3,0,1,,,,,,,,,,
,,,,62865cb9d41a9e2aaf141c84,A,2024-07-02_15h51.14.784,Slot Machine Game,2023.1.3,Win32,60.60606061,,,,,,,,,,,,,,,,,,,,,,,,,,,130,,,,,,,,,,,,,,,,,,,,,4,4,,,498.6737,4,up,0.0337,,1,0.3,"[2,3,1]",0.172154613,stimuli/card_10_transparent.png,10,4,0,4,0,1,,,,,,,,,,
,,,,62865cb9d41a9e2aaf141c84,A,2024-07-02_15h51.14.784,Slot Machine Game,2023.1.3,Win32,60.60606061,,,,,,,,,,,,,,,,,,,,,,,,,,,130,,,,,,,,,,,,,,,,,,,,,4,4,,,500.5395,5,up,0.0839,,0.5,0.3,"[2,3,1]",0.971732114,stimuli/card_0_transparent.png,0,5,0,5,0,1,,,,,,,,,,
,,,,62865cb9d41a9e2aaf141c84,A,2024-07-02_15h51.14.784,Slot Machine Game,2023.1.3,Win32,60.60606061,,,,,,,,,,,,,,,,,,,,,,,,,,,230,,,,,,,,,,,,,,,,,,,,,4,4,,,501.9563,6,right,0.034,,0.5,0.3,"[2,3,1]",0.959540153,stimuli/card_100_transparent.png,100,6,0,6,0,1,,,,,,,,,,
,,,,62865cb9d41a9e2aaf141c84,A,2024-07-02_15h51.14.784,Slot Machine Game,2023.1.3,Win32,60.60606061,,,,,,,,,,,,,,,,,,,,,,,,,,,230,,,,,,,,,,,,,,,,,,,,,4,4,,,503.3067,7,right,0.0839,,1,0.3,"[1,2,3]",0.301808449,stimuli/card_0_transparent.png,0,7,0,7,0,1,,,,,,,,,,
,,,,62865cb9d41a9e2aaf141c84,A,2024-07-02_15h51.14.784,Slot Machine Game,2023.1.3,Win32,60.60606061,,,,,,,,,,,,,,,,,,,,,,,,,,,230,,,,,,,,,,,,,,,,,,,,,4,4,,,505.2228,8,right,0.0658,,1.5,0.3,"[1,2,3]",0.301703064,stimuli/card_0_transparent.png,0,8,0,8,0,1,,,,,,,,,,
,,,,62865cb9d41a9e2aaf141c84,A,2024-07-02_15h51.14.784,Slot Machine Game,2023.1.3,Win32,60.60606061,,,,,,,,,,,,,,,,,,,,,,,,,,,330,,,,,,,,,,,,,,,,,,,,,4,4,,,507.6217,9,left,0.7672,,1,0.3,"[1,2,3]",0.977915626,stimuli/card_100_transparent.png,100,9,0,9,0,1,,,,,,,,,,
,,,,62865cb9d41a9e2aaf141c84,A,2024-07-02_15h51.14.784,Slot Machine Game,2023.1.3,Win32,60.60606061,,,,,,,,,,,,,,,,,,,,,,,,,,,430,,,,,,,,,,,,,,,,,,,,,4,4,,,510.2222,10,left,0.3175,,1.5,0.3,"[1,2,3]",0.453952696,stimuli/card_100_transparent.png,100,10,0,10,0,1,,,,,,,,,,
,,,,62865cb9d41a9e2aaf141c84,A,2024-07-02_15h51.14.784,Slot Machine Game,2023.1.3,Win32,60.60606061,,,,,,,,,,,,,,,,,,,,,,,,,,,530,,,,,,,,,,,,,,,,,,,,,4,4,,,512.856,11,left,0.0509,,1,0.3,"[1,2,3]",0.460951168,stimuli/card_100_transparent.png,100,11,0,11,0,1,,,,,,,,,,
,,,,62865cb9d41a9e2aaf141c84,A,2024-07-02_15h51.14.784,Slot Machine Game,2023.1.3,Win32,60.60606061,,,,,,,,,,,,,,,,,,,,,,,,,,,630,,,,,,,,,,,,,,,,,,,,,4,4,,,514.7219,12,left,0.4175,,0.5,0.3,"[1,2,3]",0.320133222,stimuli/card_100_transparent.png,100,12,0,12,0,1,,,,,,,,,,
,,,,62865cb9d41a9e2aaf141c84,A,2024-07-02_15h51.14.784,Slot Machine Game,2023.1.3,Win32,60.60606061,,,,,,,,,,,,,,,,,,,,,,,,,,,730,,,,,,,,,,,,,,,,,,,,,4,4,,,516.4556,13,left,0.151,,0.5,0.3,"[1,2,3]",0.433356773,stimuli/card_100_transparent.png,100,13,0,13,0,1,,,,,,,,,,
,,,,62865cb9d41a9e2aaf141c84,A,2024-07-02_15h51.14.784,Slot Machine Game,2023.1.3,Win32,60.60606061,,,,,,,,,,,,,,,,,,,,,,,,,,,830,,,,,,,,,,,,,,,,,,,,,4,4,,,517.9387,14,left,0.834,,0.5,0.3,"[1,2,3]",0.213933262,stimuli/card_100_transparent.png,100,14,0,14,0,1,,,,,,,,,,
,,,,62865cb9d41a9e2aaf141c84,A,2024-07-02_15h51.14.784,Slot Machine Game,2023.1.3,Win32,60.60606061,,,,,,,,,,,,,,,,,,,,,,,,,,,,,,,,,,,520.0888,,,,,,,,,,,,,,,,,,,,,,,,,,,,,,,,,"[580,840,660,830]",3,0,3,0,1,,,,
,,,,62865cb9d41a9e2aaf141c84,A,2024-07-02_15h51.14.784,Slot Machine Game,2023.1.3,Win32,60.60606061,,,,,,,,,,,,,,,,,,,,,,,,,,,10,,,,,,,,,,,,,,,,,,,,,5,6,"[4,10,15]","[[2,3,1],[1,3,2],[3,2,1]]",525.0969,0,left,0.0004,,0.5,0.3,"[2,3,1]",0.334073948,stimuli/card_10_transparent.png,10,0,0,0,0,1,,,,,,,,,,
,,,,62865cb9d41a9e2aaf141c84,A,2024-07-02_15h51.14.784,Slot Machine Game,2023.1.3,Win32,60.60606061,,,,,,,,,,,,,,,,,,,,,,,,,,,10,,,,,,,,,,,,,,,,,,,,,5,6,,,526.4145,1,up,0.2834,,1.5,0.3,"[2,3,1]",0.975418384,stimuli/card_0_transparent.png,0,1,0,1,0,1,,,,,,,,,,
,,,,62865cb9d41a9e2aaf141c84,A,2024-07-02_15h51.14.784,Slot Machine Game,2023.1.3,Win32,60.60606061,,,,,,,,,,,,,,,,,,,,,,,,,,,10,,,,,,,,,,,,,,,,,,,,,5,6,,,529.0035,2,right,0.7611,,1,0.3,"[2,3,1]",0.003656195,stimuli/card_0_transparent.png,0,2,0,2,0,1,,,,,,,,,,
,,,,62865cb9d41a9e2aaf141c84,A,2024-07-02_15h51.14.784,Slot Machine Game,2023.1.3,Win32,60.60606061,,,,,,,,,,,,,,,,,,,,,,,,,,,110,,,,,,,,,,,,,,,,,,,,,5,6,,,531.5643,3,up,0.2164,,0.5,0.3,"[2,3,1]",0.02974859,stimuli/card_100_transparent.png,100,3,0,3,0,1,,,,,,,,,,
,,,,62865cb9d41a9e2aaf141c84,A,2024-07-02_15h51.14.784,Slot Machine Game,2023.1.3,Win32,60.60606061,,,,,,,,,,,,,,,,,,,,,,,,,,,210,,,,,,,,,,,,,,,,,,,,,5,6,,,533.1312,4,up,0.2909,,0.5,0.3,"[1,3,2]",0.080100788,stimuli/card_100_transparent.png,100,4,0,4,0,1,,,,,,,,,,
,,,,62865cb9d41a9e2aaf141c84,A,2024-07-02_15h51.14.784,Slot Machine Game,2023.1.3,Win32,60.60606061,,,,,,,,,,,,,,,,,,,,,,,,,,,220,,,,,,,,,,,,,,,,,,,,,5,6,,,534.754,5,up,0.1164,,0.5,0.3,"[1,3,2]",0.151600889,stimuli/card_10_transparent.png,10,5,0,5,0,1,,,,,,,,,,
,,,,62865cb9d41a9e2aaf141c84,A,2024-07-02_15h51.14.784,Slot Machine Game,2023.1.3,Win32,60.60606061,,,,,,,,,,,,,,,,,,,,,,,,,,,220,,,,,,,,,,,,,,,,,,,,,5,6,,,536.186,6,up,0.1902,,0.5,0.3,"[1,3,2]",0.276958995,stimuli/card_0_transparent.png,0,6,0,6,0,1,,,,,,,,,,
,,,,62865cb9d41a9e2aaf141c84,A,2024-07-02_15h51.14.784,Slot Machine Game,2023.1.3,Win32,60.60606061,,,,,,,,,,,,,,,,,,,,,,,,,,,220,,,,,,,,,,,,,,,,,,,,,5,6,,,537.6972,7,up,0.0944,,0.5,0.3,"[1,3,2]",0.787436453,stimuli/card_0_transparent.png,0,7,0,7,0,1,,,,,,,,,,
,,,,62865cb9d41a9e2aaf141c84,A,2024-07-02_15h51.14.784,Slot Machine Game,2023.1.3,Win32,60.60606061,,,,,,,,,,,,,,,,,,,,,,,,,,,230,,,,,,,,,,,,,,,,,,,,,5,6,,,539.107,8,right,0.7123,,0.5,0.3,"[1,3,2]",0.776309611,stimuli/card_10_transparent.png,10,8,0,8,0,1,,,,,,,,,,
,,,,62865cb9d41a9e2aaf141c84,A,2024-07-02_15h51.14.784,Slot Machine Game,2023.1.3,Win32,60.60606061,,,,,,,,,,,,,,,,,,,,,,,,,,,330,,,,,,,,,,,,,,,,,,,,,5,6,,,541.1305,9,left,0.0943,,1.5,0.3,"[1,3,2]",0.383052623,stimuli/card_100_transparent.png,100,9,0,9,0,1,,,,,,,,,,
,,,,62865cb9d41a9e2aaf141c84,A,2024-07-02_15h51.14.784,Slot Machine Game,2023.1.3,Win32,60.60606061,,,,,,,,,,,,,,,,,,,,,,,,,,,330,,,,,,,,,,,,,,,,,,,,,5,6,,,543.5347,10,left,0.4333,,1.5,0.3,"[3,2,1]",0.203740677,stimuli/card_0_transparent.png,0,10,0,10,0,1,,,,,,,,,,
,,,,62865cb9d41a9e2aaf141c84,A,2024-07-02_15h51.14.784,Slot Machine Game,2023.1.3,Win32,60.60606061,,,,,,,,,,,,,,,,,,,,,,,,,,,330,,,,,,,,,,,,,,,,,,,,,5,6,,,546.2869,11,left,0.4181,,1.5,0.3,"[3,2,1]",0.539044982,stimuli/card_0_transparent.png,0,11,0,11,0,1,,,,,,,,,,
,,,,62865cb9d41a9e2aaf141c84,A,2024-07-02_15h51.14.784,Slot Machine Game,2023.1.3,Win32,60.60606061,,,,,,,,,,,,,,,,,,,,,,,,,,,330,,,,,,,,,,,,,,,,,,,,,5,6,,,549.0474,12,up,0.0006,,0.5,0.3,"[3,2,1]",0.015228722,stimuli/card_0_transparent.png,0,12,0,12,0,1,,,,,,,,,,
,,,,62865cb9d41a9e2aaf141c84,A,2024-07-02_15h51.14.784,Slot Machine Game,2023.1.3,Win32,60.60606061,,,,,,,,,,,,,,,,,,,,,,,,,,,430,,,,,,,,,,,,,,,,,,,,,5,6,,,550.3719,13,right,0.3502,,1,0.3,"[3,2,1]",0.761276081,stimuli/card_100_transparent.png,100,13,0,13,0,1,,,,,,,,,,
,,,,62865cb9d41a9e2aaf141c84,A,2024-07-02_15h51.14.784,Slot Machine Game,2023.1.3,Win32,60.60606061,,,,,,,,,,,,,,,,,,,,,,,,,,,530,,,,,,,,,,,,,,,,,,,,,5,6,,,552.5463,14,right,0.0691,,0.5,0.3,"[3,2,1]",0.893811271,stimuli/card_100_transparent.png,100,14,0,14,0,1,,,,,,,,,,
,,,,62865cb9d41a9e2aaf141c84,A,2024-07-02_15h51.14.784,Slot Machine Game,2023.1.3,Win32,60.60606061,,,,,,,,,,,,,,,,,,,,,,,,,,,,,,,,,,,553.9297,,,,,,,,,,,,,,,,,,,,,,,,,,,,,,,,,"[580,840,660,830,530]",4,0,4,0,1,,,,
,,,,62865cb9d41a9e2aaf141c84,A,2024-07-02_15h51.14.784,Slot Machine Game,2023.1.3,Win32,60.60606061,,,,,,,,,,,,,,,,,,,,,,,,,,,10,,,,,,,,,,,,,,,,,,,,,6,8,"[11,15]","[[2,1,3],[1,2,3]]",558.9288,0,left,0.0333,,1.5,0.3,"[2,1,3]",0.908468694,stimuli/card_10_transparent.png,10,0,0,0,0,1,,,,,,,,,,
,,,,62865cb9d41a9e2aaf141c84,A,2024-07-02_15h51.14.784,Slot Machine Game,2023.1.3,Win32,60.60606061,,,,,,,,,,,,,,,,,,,,,,,,,,,10,,,,,,,,,,,,,,,,,,,,,6,8,,,561.2831,1,up,0.2949,,1,0.3,"[2,1,3]",0.034430218,stimuli/card_0_transparent.png,0,1,0,1,0,1,,,,,,,,,,
,,,,62865cb9d41a9e2aaf141c84,A,2024-07-02_15h51.14.784,Slot Machine Game,2023.1.3,Win32,60.60606061,,,,,,,,,,,,,,,,,,,,,,,,,,,10,,,,,,,,,,,,,,,,,,,,,6,8,,,563.3849,2,right,0.9332,,1.5,0.3,"[2,1,3]",0.644689574,stimuli/card_0_transparent.png,0,2,0,2,0,1,,,,,,,,,,
,,,,62865cb9d41a9e2aaf141c84,A,2024-07-02_15h51.14.784,Slot Machine Game,2023.1.3,Win32,60.60606061,,,,,,,,,,,,,,,,,,,,,,,,,,,10,,,,,,,,,,,,,,,,,,,,,6,8,,,566.6539,3,right,0.001,,0.5,0.3,"[2,1,3]",0.584868926,stimuli/card_0_transparent.png,0,3,0,3,0,1,,,,,,,,,,
,,,,62865cb9d41a9e2aaf141c84,A,2024-07-02_15h51.14.784,Slot Machine Game,2023.1.3,Win32,60.60606061,,,,,,,,,,,,,,,,,,,,,,,,,,,20,,,,,,,,,,,,,,,,,,,,,6,8,,,567.9866,4,up,0.4004,,1.5,0.3,"[2,1,3]",0.112037825,stimuli/card_10_transparent.png,10,4,0,4,0,1,,,,,,,,,,
,,,,62865cb9d41a9e2aaf141c84,A,2024-07-02_15h51.14.784,Slot Machine Game,2023.1.3,Win32,60.60606061,,,,,,,,,,,,,,,,,,,,,,,,,,,30,,,,,,,,,,,,,,,,,,,,,6,8,,,570.7018,5,left,0.2259,,1,0.3,"[2,1,3]",0.521944494,stimuli/card_10_transparent.png,10,5,0,5,0,1,,,,,,,,,,
,,,,62865cb9d41a9e2aaf141c84,A,2024-07-02_15h51.14.784,Slot Machine Game,2023.1.3,Win32,60.60606061,,,,,,,,,,,,,,,,,,,,,,,,,,,30,,,,,,,,,,,,,,,,,,,,,6,8,,,572.7359,6,left,0.1669,,1,0.3,"[2,1,3]",0.092372768,stimuli/card_0_transparent.png,0,6,0,6,0,1,,,,,,,,,,
,,,,62865cb9d41a9e2aaf141c84,A,2024-07-02_15h51.14.784,Slot Machine Game,2023.1.3,Win32,60.60606061,,,,,,,,,,,,,,,,,,,,,,,,,,,130,,,,,,,,,,,,,,,,,,,,,6,8,,,574.7121,7,up,0.2503,,1.5,0.3,"[2,1,3]",0.564768128,stimuli/card_100_transparent.png,100,7,0,7,0,1,,,,,,,,,,
,,,,62865cb9d41a9e2aaf141c84,A,2024-07-02_15h51.14.784,Slot Machine Game,2023.1.3,Win32,60.60606061,,,,,,,,,,,,,,,,,,,,,,,,,,,230,,,,,,,,,,,,,,,,,,,,,6,8,,,577.3024,8,up,0.3501,,1.5,0.3,"[2,1,3]",0.912672004,stimuli/card_100_transparent.png,100,8,0,8,0,1,,,,,,,,,,
,,,,62865cb9d41a9e2aaf141c84,A,2024-07-02_15h51.14.784,Slot Machine Game,2023.1.3,Win32,60.60606061,,,,,,,,,,,,,,,,,,,,,,,,,,,330,,,,,,,,,,,,,,,,,,,,,6,8,,,579.9789,9,up,0.0355,,1.5,0.3,"[2,1,3]",0.455750513,stimuli/card_100_transparent.png,100,9,0,9,0,1,,,,,,,,,,
,,,,62865cb9d41a9e2aaf141c84,A,2024-07-02_15h51.14.784,Slot Machine Game,2023.1.3,Win32,60.60606061,,,,,,,,,,,,,,,,,,,,,,,,,,,430,,,,,,,,,,,,,,,,,,,,,6,8,,,582.3285,10,up,0.1851,,0.5,0.3,"[2,1,3]",0.363263187,stimuli/card_100_transparent.png,100,10,0,10,0,1,,,,,,,,,,
,,,,62865cb9d41a9e2aaf141c84,A,2024-07-02_15h51.14.784,Slot Machine Game,2023.1.3,Win32,60.60606061,,,,,,,,,,,,,,,,,,,,,,,,,,,440,,,,,,,,,,,,,,,,,,,,,6,8,,,583.8366,11,up,0.2952,,0.5,0.3,"[1,2,3]",0.980915857,stimuli/card_10_transparent.png,10,11,0,11,0,1,,,,,,,,,,
,,,,62865cb9d41a9e2aaf141c84,A,2024-07-02_15h51.14.784,Slot Machine Game,2023.1.3,Win32,60.60606061,,,,,,,,,,,,,,,,,,,,,,,,,,,450,,,,,,,,,,,,,,,,,,,,,6,8,,,585.4616,12,up,0.1922,,1.5,0.3,"[1,2,3]",0.702164369,stimuli/card_10_transparent.png,10,12,0,12,0,1,,,,,,,,,,
,,,,62865cb9d41a9e2aaf141c84,A,2024-07-02_15h51.14.784,Slot Machine Game,2023.1.3,Win32,60.60606061,,,,,,,,,,,,,,,,,,,,,,,,,,,550,,,,,,,,,,,,,,,,,,,,,6,8,,,587.9613,13,left,0.0247,,1,0.3,"[1,2,3]",0.543055146,stimuli/card_100_transparent.png,100,13,0,13,0,1,,,,,,,,,,
,,,,62865cb9d41a9e2aaf141c84,A,2024-07-02_15h51.14.784,Slot Machine Game,2023.1.3,Win32,60.60606061,,,,,,,,,,,,,,,,,,,,,,,,,,,550,,,,,,,,,,,,,,,,,,,,,6,8,,,589.7948,14,left,0.0686,,0.5,0.3,"[1,2,3]",0.01812429,stimuli/card_0_transparent.png,0,14,0,14,0,1,,,,,,,,,,
,,,,62865cb9d41a9e2aaf141c84,A,2024-07-02_15h51.14.784,Slot Machine Game,2023.1.3,Win32,60.60606061,,,,,,,,,,,,,,,,,,,,,,,,,,,,,,,,,,,591.2113,,,,,,,,,,,,,,,,,,,,,,,,,,,,,,,,,"[580,840,660,830,530,550]",5,0,5,0,1,,,,
,,,,62865cb9d41a9e2aaf141c84,A,2024-07-02_15h51.14.784,Slot Machine Game,2023.1.3,Win32,60.60606061,,,,,,,,,,,,,,,,,,,,,,,,,,,100,,,,,,,,,,,,,,,,,,,,,7,9,"[8,15]","[[3,2,1],[3,1,2]]",596.2084,0,right,0.3125,,1.5,0.3,"[3,2,1]",0.491574853,stimuli/card_100_transparent.png,100,0,0,0,0,1,,,,,,,,,,
,,,,62865cb9d41a9e2aaf141c84,A,2024-07-02_15h51.14.784,Slot Machine Game,2023.1.3,Win32,60.60606061,,,,,,,,,,,,,,,,,,,,,,,,,,,200,,,,,,,,,,,,,,,,,,,,,7,9,,,598.8316,1,right,0.3654,,0.5,0.3,"[3,2,1]",0.936419334,stimuli/card_100_transparent.png,100,1,0,1,0,1,,,,,,,,,,
,,,,62865cb9d41a9e2aaf141c84,A,2024-07-02_15h51.14.784,Slot Machine Game,2023.1.3,Win32,60.60606061,,,,,,,,,,,,,,,,,,,,,,,,,,,300,,,,,,,,,,,,,,,,,,,,,7,9,,,600.5179,2,right,0.3005,,1,0.3,"[3,2,1]",0.580113993,stimuli/card_100_transparent.png,100,2,0,2,0,1,,,,,,,,,,
,,,,62865cb9d41a9e2aaf141c84,A,2024-07-02_15h51.14.784,Slot Machine Game,2023.1.3,Win32,60.60606061,,,,,,,,,,,,,,,,,,,,,,,,,,,400,,,,,,,,,,,,,,,,,,,,,7,9,,,602.6339,3,right,0.0276,,0.5,0.3,"[3,2,1]",0.560781744,stimuli/card_100_transparent.png,100,3,0,3,0,1,,,,,,,,,,
,,,,62865cb9d41a9e2aaf141c84,A,2024-07-02_15h51.14.784,Slot Machine Game,2023.1.3,Win32,60.60606061,,,,,,,,,,,,,,,,,,,,,,,,,,,500,,,,,,,,,,,,,,,,,,,,,7,9,,,603.9875,4,right,0.1662,,1.5,0.3,"[3,2,1]",0.789209088,stimuli/card_100_transparent.png,100,4,0,4,0,1,,,,,,,,,,
,,,,62865cb9d41a9e2aaf141c84,A,2024-07-02_15h51.14.784,Slot Machine Game,2023.1.3,Win32,60.60606061,,,,,,,,,,,,,,,,,,,,,,,,,,,600,,,,,,,,,,,,,,,,,,,,,7,9,,,606.4857,5,right,0.0339,,1,0.3,"[3,2,1]",0.557129961,stimuli/card_100_transparent.png,100,5,0,5,0,1,,,,,,,,,,
,,,,62865cb9d41a9e2aaf141c84,A,2024-07-02_15h51.14.784,Slot Machine Game,2023.1.3,Win32,60.60606061,,,,,,,,,,,,,,,,,,,,,,,,,,,700,,,,,,,,,,,,,,,,,,,,,7,9,,,608.3359,6,right,0.0007,,1.5,0.3,"[3,2,1]",0.875342564,stimuli/card_100_transparent.png,100,6,0,6,0,1,,,,,,,,,,
,,,,62865cb9d41a9e2aaf141c84,A,2024-07-02_15h51.14.784,Slot Machine Game,2023.1.3,Win32,60.60606061,,,,,,,,,,,,,,,,,,,,,,,,,,,800,,,,,,,,,,,,,,,,,,,,,7,9,,,610.6512,7,right,0.5341,,1,0.3,"[3,2,1]",0.700549985,stimuli/card_100_transparent.png,100,7,0,7,0,1,,,,,,,,,,
,,,,62865cb9d41a9e2aaf141c84,A,2024-07-02_15h51.14.784,Slot Machine Game,2023.1.3,Win32,60.60606061,,,,,,,,,,,,,,,,,,,,,,,,,,,810,,,,,,,,,,,,,,,,,,,,,7,9,,,613.0111,8,right,0.1076,,1,0.3,"[3,1,2]",0.411741884,stimuli/card_10_transparent.png,10,8,0,8,0,1,,,,,,,,,,
,,,,62865cb9d41a9e2aaf141c84,A,2024-07-02_15h51.14.784,Slot Machine Game,2023.1.3,Win32,60.60606061,,,,,,,,,,,,,,,,,,,,,,,,,,,810,,,,,,,,,,,,,,,,,,,,,7,9,,,614.927,9,right,0.0334,,0.5,0.3,"[3,1,2]",0.095018789,stimuli/card_0_transparent.png,0,9,0,9,0,1,,,,,,,,,,
,,,,62865cb9d41a9e2aaf141c84,A,2024-07-02_15h51.14.784,Slot Machine Game,2023.1.3,Win32,60.60606061,,,,,,,,,,,,,,,,,,,,,,,,,,,810,,,,,,,,,,,,,,,,,,,,,7,9,,,616.2937,10,right,0.2162,,1,0.3,"[3,1,2]",0.043037117,stimuli/card_0_transparent.png,0,10,0,10,0,1,,,,,,,,,,
,,,,62865cb9d41a9e2aaf141c84,A,2024-07-02_15h51.14.784,Slot Machine Game,2023.1.3,Win32,60.60606061,,,,,,,,,,,,,,,,,,,,,,,,,,,810,,,,,,,,,,,,,,,,,,,,,7,9,,,618.3438,11,left,0.1673,,0.5,0.3,"[3,1,2]",0.966369003,stimuli/card_0_transparent.png,0,11,0,11,0,1,,,,,,,,,,
,,,,62865cb9d41a9e2aaf141c84,A,2024-07-02_15h51.14.784,Slot Machine Game,2023.1.3,Win32,60.60606061,,,,,,,,,,,,,,,,,,,,,,,,,,,810,,,,,,,,,,,,,,,,,,,,,7,9,,,619.8435,12,up,0.3379,,1,0.3,"[3,1,2]",0.074690397,stimuli/card_0_transparent.png,0,12,0,12,0,1,,,,,,,,,,
,,,,62865cb9d41a9e2aaf141c84,A,2024-07-02_15h51.14.784,Slot Machine Game,2023.1.3,Win32,60.60606061,,,,,,,,,,,,,,,,,,,,,,,,,,,810,,,,,,,,,,,,,,,,,,,,,7,9,,,622.0099,13,left,0.318,,1.5,0.3,"[3,1,2]",0.757604409,stimuli/card_0_transparent.png,0,13,0,13,0,1,,,,,,,,,,
,,,,62865cb9d41a9e2aaf141c84,A,2024-07-02_15h51.14.784,Slot Machine Game,2023.1.3,Win32,60.60606061,,,,,,,,,,,,,,,,,,,,,,,,,,,820,,,,,,,,,,,,,,,,,,,,,7,9,,,624.644,14,right,0.2559,,1,0.3,"[3,1,2]",0.293440587,stimuli/card_10_transparent.png,10,14,0,14,0,1,,,,,,,,,,
,,,,62865cb9d41a9e2aaf141c84,A,2024-07-02_15h51.14.784,Slot Machine Game,2023.1.3,Win32,60.60606061,,,,,,,,,,,,,,,,,,,,,,,,,,,,,,,,,,,626.7265,,,,,,,,,,,,,,,,,,,,,,,,,,,,,,,,,"[580,840,660,830,530,550,820]",6,0,6,0,1,,,,
,,,,62865cb9d41a9e2aaf141c84,A,2024-07-02_15h51.14.784,Slot Machine Game,2023.1.3,Win32,60.60606061,,,,,,,,,,,,,,,,,,,,,,,,,,,100,,,,,,,,,,,,,,,,,,,,,8,2,"[6,15]","[[1,3,2],[3,2,1]]",631.7326,0,left,0.3047,,1,0.3,"[1,3,2]",0.74894949,stimuli/card_100_transparent.png,100,0,0,0,0,1,,,,,,,,,,
,,,,62865cb9d41a9e2aaf141c84,A,2024-07-02_15h51.14.784,Slot Machine Game,2023.1.3,Win32,60.60606061,,,,,,,,,,,,,,,,,,,,,,,,,,,100,,,,,,,,,,,,,,,,,,,,,8,2,,,633.8594,1,left,0.12,,1,0.3,"[1,3,2]",0.072497278,stimuli/card_0_transparent.png,0,1,0,1,0,1,,,,,,,,,,
,,,,62865cb9d41a9e2aaf141c84,A,2024-07-02_15h51.14.784,Slot Machine Game,2023.1.3,Win32,60.60606061,,,,,,,,,,,,,,,,,,,,,,,,,,,200,,,,,,,,,,,,,,,,,,,,,8,2,,,635.7928,2,left,0.1243,,0.5,0.3,"[1,3,2]",0.739424108,stimuli/card_100_transparent.png,100,2,0,2,0,1,,,,,,,,,,
,,,,62865cb9d41a9e2aaf141c84,A,2024-07-02_15h51.14.784,Slot Machine Game,2023.1.3,Win32,60.60606061,,,,,,,,,,,,,,,,,,,,,,,,,,,300,,,,,,,,,,,,,,,,,,,,,8,2,,,637.243,3,left,0.0669,,1,0.3,"[1,3,2]",0.620609318,stimuli/card_100_transparent.png,100,3,0,3,0,1,,,,,,,,,,
,,,,62865cb9d41a9e2aaf141c84,A,2024-07-02_15h51.14.784,Slot Machine Game,2023.1.3,Win32,60.60606061,,,,,,,,,,,,,,,,,,,,,,,,,,,300,,,,,,,,,,,,,,,,,,,,,8,2,,,639.1259,4,left,0.1004,,0.5,0.3,"[1,3,2]",0.019017532,stimuli/card_0_transparent.png,0,4,0,4,0,1,,,,,,,,,,
,,,,62865cb9d41a9e2aaf141c84,A,2024-07-02_15h51.14.784,Slot Machine Game,2023.1.3,Win32,60.60606061,,,,,,,,,,,,,,,,,,,,,,,,,,,400,,,,,,,,,,,,,,,,,,,,,8,2,,,640.5427,5,left,0.2537,,0.5,0.3,"[1,3,2]",0.994911662,stimuli/card_100_transparent.png,100,5,0,5,0,1,,,,,,,,,,
,,,,62865cb9d41a9e2aaf141c84,A,2024-07-02_15h51.14.784,Slot Machine Game,2023.1.3,Win32,60.60606061,,,,,,,,,,,,,,,,,,,,,,,,,,,400,,,,,,,,,,,,,,,,,,,,,8,2,,,642.1254,6,left,0.0571,,1.5,0.3,"[3,2,1]",0.631775455,stimuli/card_0_transparent.png,0,6,0,6,0,1,,,,,,,,,,
,,,,62865cb9d41a9e2aaf141c84,A,2024-07-02_15h51.14.784,Slot Machine Game,2023.1.3,Win32,60.60606061,,,,,,,,,,,,,,,,,,,,,,,,,,,400,,,,,,,,,,,,,,,,,,,,,8,2,,,644.4927,7,left,0.8766,,1.5,0.3,"[3,2,1]",0.511581393,stimuli/card_0_transparent.png,0,7,0,7,0,1,,,,,,,,,,
,,,,62865cb9d41a9e2aaf141c84,A,2024-07-02_15h51.14.784,Slot Machine Game,2023.1.3,Win32,60.60606061,,,,,,,,,,,,,,,,,,,,,,,,,,,500,,,,,,,,,,,,,,,,,,,,,8,2,,,647.6921,8,up,0.0671,,0.5,0.3,"[3,2,1]",0.154857604,stimuli/card_100_transparent.png,100,8,0,8,0,1,,,,,,,,,,
,,,,62865cb9d41a9e2aaf141c84,A,2024-07-02_15h51.14.784,Slot Machine Game,2023.1.3,Win32,60.60606061,,,,,,,,,,,,,,,,,,,,,,,,,,,510,,,,,,,,,,,,,,,,,,,,,8,2,,,649.0755,9,up,0.0677,,1.5,0.3,"[3,2,1]",0.543803274,stimuli/card_10_transparent.png,10,9,0,9,0,1,,,,,,,,,,
,,,,62865cb9d41a9e2aaf141c84,A,2024-07-02_15h51.14.784,Slot Machine Game,2023.1.3,Win32,60.60606061,,,,,,,,,,,,,,,,,,,,,,,,,,,520,,,,,,,,,,,,,,,,,,,,,8,2,,,651.4595,10,up,0.4747,,0.5,0.3,"[3,2,1]",0.933335818,stimuli/card_10_transparent.png,10,10,0,10,0,1,,,,,,,,,,
,,,,62865cb9d41a9e2aaf141c84,A,2024-07-02_15h51.14.784,Slot Machine Game,2023.1.3,Win32,60.60606061,,,,,,,,,,,,,,,,,,,,,,,,,,,620,,,,,,,,,,,,,,,,,,,,,8,2,,,653.2591,11,up,0.3338,,1.5,0.3,"[3,2,1]",0.156667758,stimuli/card_100_transparent.png,100,11,0,11,0,1,,,,,,,,,,
,,,,62865cb9d41a9e2aaf141c84,A,2024-07-02_15h51.14.784,Slot Machine Game,2023.1.3,Win32,60.60606061,,,,,,,,,,,,,,,,,,,,,,,,,,,630,,,,,,,,,,,,,,,,,,,,,8,2,,,655.9255,12,up,0.2397,,1,0.3,"[3,2,1]",0.971347516,stimuli/card_10_transparent.png,10,12,0,12,0,1,,,,,,,,,,
,,,,62865cb9d41a9e2aaf141c84,A,2024-07-02_15h51.14.784,Slot Machine Game,2023.1.3,Win32,60.60606061,,,,,,,,,,,,,,,,,,,,,,,,,,,630,,,,,,,,,,,,,,,,,,,,,8,2,,,657.9917,13,up,0.338,,1,0.3,"[3,2,1]",0.004265264,stimuli/card_0_transparent.png,0,13,0,13,0,1,,,,,,,,,,
,,,,62865cb9d41a9e2aaf141c84,A,2024-07-02_15h51.14.784,Slot Machine Game,2023.1.3,Win32,60.60606061,,,,,,,,,,,,,,,,,,,,,,,,,,,730,,,,,,,,,,,,,,,,,,,,,8,2,,,660.1593,14,right,0.1407,,1,0.3,"[3,2,1]",0.358920911,stimuli/card_100_transparent.png,100,14,0,14,0,1,,,,,,,,,,
,,,,62865cb9d41a9e2aaf141c84,A,2024-07-02_15h51.14.784,Slot Machine Game,2023.1.3,Win32,60.60606061,,,,,,,,,,,,,,,,,,,,,,,,,,,,,,,,,,,662.125,,,,,,,,,,,,,,,,,,,,,,,,,,,,,,,,,"[580,840,660,830,530,550,820,730]",7,0,7,0,1,,,,
,,,,62865cb9d41a9e2aaf141c84,A,2024-07-02_15h51.14.784,Slot Machine Game,2023.1.3,Win32,60.60606061,,,,,,,,,,,,,,,,,,,,,,,,,,,10,,,,,,,,,,,,,,,,,,,,,9,10,"[10,15]","[[3,1,2],[1,3,2]]",667.1311,0,right,0.1672,,1.5,0.3,"[3,1,2]",0.44521843,stimuli/card_10_transparent.png,10,0,0,0,0,1,,,,,,,,,,
,,,,62865cb9d41a9e2aaf141c84,A,2024-07-02_15h51.14.784,Slot Machine Game,2023.1.3,Win32,60.60606061,,,,,,,,,,,,,,,,,,,,,,,,,,,10,,,,,,,,,,,,,,,,,,,,,9,10,,,669.6245,1,left,0.0573,,1.5,0.3,"[3,1,2]",0.218030779,stimuli/card_0_transparent.png,0,1,0,1,0,1,,,,,,,,,,
,,,,62865cb9d41a9e2aaf141c84,A,2024-07-02_15h51.14.784,Slot Machine Game,2023.1.3,Win32,60.60606061,,,,,,,,,,,,,,,,,,,,,,,,,,,110,,,,,,,,,,,,,,,,,,,,,9,10,,,671.9918,2,up,0.052,,1.5,0.3,"[3,1,2]",0.658044141,stimuli/card_100_transparent.png,100,2,0,2,0,1,,,,,,,,,,
,,,,62865cb9d41a9e2aaf141c84,A,2024-07-02_15h51.14.784,Slot Machine Game,2023.1.3,Win32,60.60606061,,,,,,,,,,,,,,,,,,,,,,,,,,,210,,,,,,,,,,,,,,,,,,,,,9,10,,,674.3745,3,up,0.8837,,0.5,0.3,"[3,1,2]",0.992427388,stimuli/card_100_transparent.png,100,3,0,3,0,1,,,,,,,,,,
,,,,62865cb9d41a9e2aaf141c84,A,2024-07-02_15h51.14.784,Slot Machine Game,2023.1.3,Win32,60.60606061,,,,,,,,,,,,,,,,,,,,,,,,,,,310,,,,,,,,,,,,,,,,,,,,,9,10,,,676.5919,4,up,0.4268,,1.5,0.3,"[3,1,2]",0.579777924,stimuli/card_100_transparent.png,100,4,0,4,0,1,,,,,,,,,,
,,,,62865cb9d41a9e2aaf141c84,A,2024-07-02_15h51.14.784,Slot Machine Game,2023.1.3,Win32,60.60606061,,,,,,,,,,,,,,,,,,,,,,,,,,,310,,,,,,,,,,,,,,,,,,,,,9,10,,,679.3416,5,up,0.0036,,1,0.3,"[3,1,2]",0.095182289,stimuli/card_0_transparent.png,0,5,0,5,0,1,,,,,,,,,,
,,,,62865cb9d41a9e2aaf141c84,A,2024-07-02_15h51.14.784,Slot Machine Game,2023.1.3,Win32,60.60606061,,,,,,,,,,,,,,,,,,,,,,,,,,,410,,,,,,,,,,,,,,,,,,,,,9,10,,,681.1573,6,up,0.3111,,1.5,0.3,"[3,1,2]",0.818009262,stimuli/card_100_transparent.png,100,6,0,6,0,1,,,,,,,,,,
,,,,62865cb9d41a9e2aaf141c84,A,2024-07-02_15h51.14.784,Slot Machine Game,2023.1.3,Win32,60.60606061,,,,,,,,,,,,,,,,,,,,,,,,,,,510,,,,,,,,,,,,,,,,,,,,,9,10,,,683.7913,7,up,0.2512,,0.5,0.3,"[3,1,2]",0.416208737,stimuli/card_100_transparent.png,100,7,0,7,0,1,,,,,,,,,,
,,,,62865cb9d41a9e2aaf141c84,A,2024-07-02_15h51.14.784,Slot Machine Game,2023.1.3,Win32,60.60606061,,,,,,,,,,,,,,,,,,,,,,,,,,,610,,,,,,,,,,,,,,,,,,,,,9,10,,,685.3735,8,up,0.3337,,0.5,0.3,"[3,1,2]",0.343616975,stimuli/card_100_transparent.png,100,8,0,8,0,1,,,,,,,,,,
,,,,62865cb9d41a9e2aaf141c84,A,2024-07-02_15h51.14.784,Slot Machine Game,2023.1.3,Win32,60.60606061,,,,,,,,,,,,,,,,,,,,,,,,,,,710,,,,,,,,,,,,,,,,,,,,,9,10,,,687.0414,9,up,0.085,,1,0.3,"[3,1,2]",0.976862572,stimuli/card_100_transparent.png,100,9,0,9,0,1,,,,,,,,,,
,,,,62865cb9d41a9e2aaf141c84,A,2024-07-02_15h51.14.784,Slot Machine Game,2023.1.3,Win32,60.60606061,,,,,,,,,,,,,,,,,,,,,,,,,,,710,,,,,,,,,,,,,,,,,,,,,9,10,,,688.9571,10,up,0.4875,,1,0.3,"[1,3,2]",0.917054958,stimuli/card_0_transparent.png,0,10,0,10,0,1,,,,,,,,,,
,,,,62865cb9d41a9e2aaf141c84,A,2024-07-02_15h51.14.784,Slot Machine Game,2023.1.3,Win32,60.60606061,,,,,,,,,,,,,,,,,,,,,,,,,,,810,,,,,,,,,,,,,,,,,,,,,9,10,,,691.2733,11,left,0.2762,,1.5,0.3,"[1,3,2]",0.837855088,stimuli/card_100_transparent.png,100,11,0,11,0,1,,,,,,,,,,
,,,,62865cb9d41a9e2aaf141c84,A,2024-07-02_15h51.14.784,Slot Machine Game,2023.1.3,Win32,60.60606061,,,,,,,,,,,,,,,,,,,,,,,,,,,910,,,,,,,,,,,,,,,,,,,,,9,10,,,693.8734,12,left,0.2687,,1.5,0.3,"[1,3,2]",0.813745248,stimuli/card_100_transparent.png,100,12,0,12,0,1,,,,,,,,,,
,,,,62865cb9d41a9e2aaf141c84,A,2024-07-02_15h51.14.784,Slot Machine Game,2023.1.3,Win32,60.60606061,,,,,,,,,,,,,,,,,,,,,,,,,,,1010,,,,,,,,,,,,,,,,,,,,,9,10,,,696.4733,13,left,0.0206,,0.5,0.3,"[1,3,2]",0.317820042,stimuli/card_100_transparent.png,100,13,0,13,0,1,,,,,,,,,,
,,,,62865cb9d41a9e2aaf141c84,A,2024-07-02_15h51.14.784,Slot Machine Game,2023.1.3,Win32,60.60606061,,,,,,,,,,,,,,,,,,,,,,,,,,,1110,,,,,,,,,,,,,,,,,,,,,9,10,,,697.8232,14,left,0.0676,,1,0.3,"[1,3,2]",0.428567801,stimuli/card_100_transparent.png,100,14,0,14,0,1,,,,,,,,,,
,,,,62865cb9d41a9e2aaf141c84,A,2024-07-02_15h51.14.784,Slot Machine Game,2023.1.3,Win32,60.60606061,,,,,,,,,,,,,,,,,,,,,,,,,,,,,,,,,,,699.7064,,,,,,,,,,,,,,,,,,,,,,,,,,,,,,,,,"[580,840,660,830,530,550,820,730,1110]",8,0,8,0,1,,,,
,,,,62865cb9d41a9e2aaf141c84,A,2024-07-02_15h51.14.784,Slot Machine Game,2023.1.3,Win32,60.60606061,,,,,,,,,,,,,,,,,,,,,,,,,,,10,,,,,,,,,,,,,,,,,,,,,10,3,"[15,15]","[[3,1,2],[3,1,2]]",704.7147,0,right,0.0182,,1,0.3,"[3,1,2]",0.64195963,stimuli/card_10_transparent.png,10,0,0,0,0,1,,,,,,,,,,
,,,,62865cb9d41a9e2aaf141c84,A,2024-07-02_15h51.14.784,Slot Machine Game,2023.1.3,Win32,60.60606061,,,,,,,,,,,,,,,,,,,,,,,,,,,110,,,,,,,,,,,,,,,,,,,,,10,3,,,706.5562,1,up,0.0342,,1.5,0.3,"[3,1,2]",0.436423331,stimuli/card_100_transparent.png,100,1,0,1,0,1,,,,,,,,,,
,,,,62865cb9d41a9e2aaf141c84,A,2024-07-02_15h51.14.784,Slot Machine Game,2023.1.3,Win32,60.60606061,,,,,,,,,,,,,,,,,,,,,,,,,,,210,,,,,,,,,,,,,,,,,,,,,10,3,,,708.9227,2,up,0.0205,,1,0.3,"[3,1,2]",0.21186009,stimuli/card_100_transparent.png,100,2,0,2,0,1,,,,,,,,,,
,,,,62865cb9d41a9e2aaf141c84,A,2024-07-02_15h51.14.784,Slot Machine Game,2023.1.3,Win32,60.60606061,,,,,,,,,,,,,,,,,,,,,,,,,,,310,,,,,,,,,,,,,,,,,,,,,10,3,,,710.756,3,up,0.1502,,1,0.3,"[3,1,2]",0.670728659,stimuli/card_100_transparent.png,100,3,0,3,0,1,,,,,,,,,,
,,,,62865cb9d41a9e2aaf141c84,A,2024-07-02_15h51.14.784,Slot Machine Game,2023.1.3,Win32,60.60606061,,,,,,,,,,,,,,,,,,,,,,,,,,,410,,,,,,,,,,,,,,,,,,,,,10,3,,,712.7234,4,up,0.0168,,1,0.3,"[3,1,2]",0.27748268,stimuli/card_100_transparent.png,100,4,0,4,0,1,,,,,,,,,,
,,,,62865cb9d41a9e2aaf141c84,A,2024-07-02_15h51.14.784,Slot Machine Game,2023.1.3,Win32,60.60606061,,,,,,,,,,,,,,,,,,,,,,,,,,,420,,,,,,,,,,,,,,,,,,,,,10,3,,,714.5723,5,up,0.0484,,1.5,0.3,"[3,1,2]",0.192331495,stimuli/card_10_transparent.png,10,5,0,5,0,1,,,,,,,,,,
,,,,62865cb9d41a9e2aaf141c84,A,2024-07-02_15h51.14.784,Slot Machine Game,2023.1.3,Win32,60.60606061,,,,,,,,,,,,,,,,,,,,,,,,,,,520,,,,,,,,,,,,,,,,,,,,,10,3,,,716.9561,6,up,0.1939,,1,0.3,"[3,1,2]",0.201344797,stimuli/card_100_transparent.png,100,6,0,6,0,1,,,,,,,,,,
,,,,62865cb9d41a9e2aaf141c84,A,2024-07-02_15h51.14.784,Slot Machine Game,2023.1.3,Win32,60.60606061,,,,,,,,,,,,,,,,,,,,,,,,,,,620,,,,,,,,,,,,,,,,,,,,,10,3,,,718.9732,7,up,0.0665,,0.5,0.3,"[3,1,2]",0.313489358,stimuli/card_100_transparent.png,100,7,0,7,0,1,,,,,,,,,,
,,,,62865cb9d41a9e2aaf141c84,A,2024-07-02_15h51.14.784,Slot Machine Game,2023.1.3,Win32,60.60606061,,,,,,,,,,,,,,,,,,,,,,,,,,,630,,,,,,,,,,,,,,,,,,,,,10,3,,,720.3726,8,up,0.0858,,1.5,0.3,"[3,1,2]",0.142348978,stimuli/card_10_transparent.png,10,8,0,8,0,1,,,,,,,,,,
,,,,62865cb9d41a9e2aaf141c84,A,2024-07-02_15h51.14.784,Slot Machine Game,2023.1.3,Win32,60.60606061,,,,,,,,,,,,,,,,,,,,,,,,,,,730,,,,,,,,,,,,,,,,,,,,,10,3,,,722.7723,9,up,0.0856,,1.5,0.3,"[3,1,2]",0.826574466,stimuli/card_100_transparent.png,100,9,0,9,0,1,,,,,,,,,,
,,,,62865cb9d41a9e2aaf141c84,A,2024-07-02_15h51.14.784,Slot Machine Game,2023.1.3,Win32,60.60606061,,,,,,,,,,,,,,,,,,,,,,,,,,,830,,,,,,,,,,,,,,,,,,,,,10,3,,,725.1899,10,up,0.118,,0.5,0.3,"[3,1,2]",0.849160102,stimuli/card_100_transparent.png,100,10,0,10,0,1,,,,,,,,,,
,,,,62865cb9d41a9e2aaf141c84,A,2024-07-02_15h51.14.784,Slot Machine Game,2023.1.3,Win32,60.60606061,,,,,,,,,,,,,,,,,,,,,,,,,,,930,,,,,,,,,,,,,,,,,,,,,10,3,,,726.639,11,up,0.486,,0.5,0.3,"[3,1,2]",0.904493694,stimuli/card_100_transparent.png,100,11,0,11,0,1,,,,,,,,,,
,,,,62865cb9d41a9e2aaf141c84,A,2024-07-02_15h51.14.784,Slot Machine Game,2023.1.3,Win32,60.60606061,,,,,,,,,,,,,,,,,,,,,,,,,,,940,,,,,,,,,,,,,,,,,,,,,10,3,,,728.4382,12,up,0.1506,,0.5,0.3,"[3,1,2]",0.106423462,stimuli/card_10_transparent.png,10,12,0,12,0,1,,,,,,,,,,
,,,,62865cb9d41a9e2aaf141c84,A,2024-07-02_15h51.14.784,Slot Machine Game,2023.1.3,Win32,60.60606061,,,,,,,,,,,,,,,,,,,,,,,,,,,1040,,,,,,,,,,,,,,,,,,,,,10,3,,,729.9054,13,up,0.485,,1.5,0.3,"[3,1,2]",0.413197132,stimuli/card_100_transparent.png,100,13,0,13,0,1,,,,,,,,,,
,,,,62865cb9d41a9e2aaf141c84,A,2024-07-02_15h51.14.784,Slot Machine Game,2023.1.3,Win32,60.60606061,,,,,,,,,,,,,,,,,,,,,,,,,,,1140,,,,,,,,,,,,,,,,,,,,,10,3,,,732.7221,14,up,0.068,,0.5,0.3,"[3,1,2]",0.621735191,stimuli/card_100_transparent.png,100,14,0,14,0,1,,,,,,,,,,
,,,,62865cb9d41a9e2aaf141c84,A,2024-07-02_15h51.14.784,Slot Machine Game,2023.1.3,Win32,60.60606061,,,,,,,,,,,,,,,,,,,,,,,,,,,,,,,,,,,734.1217,,,,,,,,,,,,,,,,,,,,,,,,,,,,,,,,,"[580,840,660,830,530,550,820,730,1110,1140]",9,0,9,0,1,,,,
,,,,62865cb9d41a9e2aaf141c84,A,2024-07-02_15h51.14.784,Slot Machine Game,2023.1.3,Win32,60.60606061,,,,,,,,,,,,,,,,,,,,,,,,,,,,,,,,,,,,,,,,,,,,,,,,,,,,,,,,,,,,,,,,,,,,,,,,,,9,"[580,840,660,830,530,550,820,730,1110,1140]",5.8,2024-07-02_16h03.38.051
