key_resp_welcome_started,key_resp_welcome_keys,key_resp_welcome_rt,key_resp_welcome_duration,prolific_id,path_id,date,expName,psychopyVersion,OS,frameRate,key_resp_instruction1_started,key_resp_instruction1_keys,key_resp_instruction1_rt,key_resp_instruction1_duration,key_resp_instruction2_started,key_resp_instruction2_keys,key_resp_instruction2_rt,key_resp_instruction2_duration,key_resp_instruction3_started,key_resp_instruction3_keys,key_resp_instruction3_rt,key_resp_instruction3_duration,key_resp_instruction4_started,key_resp_instruction4_keys,key_resp_instruction4_rt,key_resp_instruction4_duration,practiceCondition,practice_reward_seqs,practice_trial_started,practice_trial_num,practice_resp_rt,practice_resp_duration,practice_resp_keys,prac_presentationInterval,"practice_reward_seq: 2,1,3",reward_img,cumulative_reward,trial_reward,practice_trials.thisRepN,practice_trials.thisTrialN,practice_trials.thisN,practice_trials.thisIndex,practice_trials.ran,"practice_reward_seq: 2,3,1",block_break_started,"practice_reward_seq: 1,3,2","practice_reward_seq: 3,1,2",practice_end_time,practice_end_keys,practice_end_rt,practice_end_duration,main_instruction_text_started,block_condition,block_order_indices,main_instruction_keys,main_instruction_rt,main_instruction_duration,block_number,block_assignment,current_condition,main_reward_seqs,main_trial_started,main_trial_num,main_trial_keys,main_trial_rt,main_trial_duration,main_presentationInterval,reward_presentation_time,main_reward_seq,reward_rand_val,main_reward_img,current_reward,main_trials.thisRepN,main_trials.thisTrialN,main_trials.thisN,main_trials.thisIndex,main_trials.ran,block_reward,block.thisRepN,block.thisTrialN,block.thisN,block.thisIndex,block.ran,block_reward.length,block_reward_all,reward_amount,date_end_task
0.0003,space,11.4275,,62b46cafda63e83d14eb4ec5,A,2024-07-02_14h05.05.228,Slot Machine Game,2023.1.3,Win32,60.24096386,,,,,,,,,,,,,,,,,,,,,,,,,,,,,,,,,,,,,,,,,,,,,,,,,,,,,,,,,,,,,,,,,,,,,,,,,,,,,
,,,,62b46cafda63e83d14eb4ec5,A,2024-07-02_14h05.05.228,Slot Machine Game,2023.1.3,Win32,60.24096386,11.4406,g,7.7829,,,,,,,,,,,,,,,,,,,,,,,,,,,,,,,,,,,,,,,,,,,,,,,,,,,,,,,,,,,,,,,,,,,,,,,,,,
,,,,62b46cafda63e83d14eb4ec5,A,2024-07-02_14h05.05.228,Slot Machine Game,2023.1.3,Win32,60.24096386,,,,,19.2563,g,0.8984,,,,,,,,,,,,,,,,,,,,,,,,,,,,,,,,,,,,,,,,,,,,,,,,,,,,,,,,,,,,,,,,,,,,,,
,,,,62b46cafda63e83d14eb4ec5,A,2024-07-02_14h05.05.228,Slot Machine Game,2023.1.3,Win32,60.24096386,,,,,,,,,20.2043,g,0.7907,,,,,,,,,,,,,,,,,,,,,,,,,,,,,,,,,,,,,,,,,,,,,,,,,,,,,,,,,,,,,,,,,,
,,,,62b46cafda63e83d14eb4ec5,A,2024-07-02_14h05.05.228,Slot Machine Game,2023.1.3,Win32,60.24096386,,,,,,,,,,,,,,,,,,,,,,,,,,,,,,,,,,,,,,,,,,,,,,,,,,,,,,,,,,,,,,,,,,,,,,,,,,,,,
,,,,62b46cafda63e83d14eb4ec5,A,2024-07-02_14h05.05.228,Slot Machine Game,2023.1.3,Win32,60.24096386,,,,,,,,,,,,,173.5671,t,8.4875,,,,,,,,,,,,,,,,,,,,,,,,,,,,,,,,,,,,,,,,,,,,,,,,,,,,,,,,,,,,,,
,,,,62b46cafda63e83d14eb4ec5,A,2024-07-02_14h05.05.228,Slot Machine Game,2023.1.3,Win32,60.24096386,,,,,,,,,,,,,,,,,"[9,15]","[[2,1,3],[2,3,1]]",182.0969,0,2.0986,,up,1,,stimuli/card_10_transparent.png,10,10,0,0,0,0,1,,,,,,,,,,,,,,,,,,,,,,,,,,,,,,,,,,,,,,,,,,,,
,,,,62b46cafda63e83d14eb4ec5,A,2024-07-02_14h05.05.228,Slot Machine Game,2023.1.3,Win32,60.24096386,,,,,,,,,,,,,,,,,,,186.0254,1,0.6502,,left,1.5,,stimuli/card_0_transparent.png,10,0,1,0,1,0,1,,,,,,,,,,,,,,,,,,,,,,,,,,,,,,,,,,,,,,,,,,,,
,,,,62b46cafda63e83d14eb4ec5,A,2024-07-02_14h05.05.228,Slot Machine Game,2023.1.3,Win32,60.24096386,,,,,,,,,,,,,,,,,,,189.0088,2,0.4193,,right,0.5,,stimuli/card_0_transparent.png,10,0,2,0,2,0,1,,,,,,,,,,,,,,,,,,,,,,,,,,,,,,,,,,,,,,,,,,,,
,,,,62b46cafda63e83d14eb4ec5,A,2024-07-02_14h05.05.228,Slot Machine Game,2023.1.3,Win32,60.24096386,,,,,,,,,,,,,,,,,,,190.759,3,0.2053,,right,1,,stimuli/card_0_transparent.png,10,0,3,0,3,0,1,,,,,,,,,,,,,,,,,,,,,,,,,,,,,,,,,,,,,,,,,,,,
,,,,62b46cafda63e83d14eb4ec5,A,2024-07-02_14h05.05.228,Slot Machine Game,2023.1.3,Win32,60.24096386,,,,,,,,,,,,,,,,,,,192.7914,4,0.2102,,right,0.5,,stimuli/card_0_transparent.png,10,0,4,0,4,0,1,,,,,,,,,,,,,,,,,,,,,,,,,,,,,,,,,,,,,,,,,,,,
,,,,62b46cafda63e83d14eb4ec5,A,2024-07-02_14h05.05.228,Slot Machine Game,2023.1.3,Win32,60.24096386,,,,,,,,,,,,,,,,,,,194.3243,5,0.6871,,right,0.5,,stimuli/card_10_transparent.png,20,10,5,0,5,0,1,,,,,,,,,,,,,,,,,,,,,,,,,,,,,,,,,,,,,,,,,,,,
,,,,62b46cafda63e83d14eb4ec5,A,2024-07-02_14h05.05.228,Slot Machine Game,2023.1.3,Win32,60.24096386,,,,,,,,,,,,,,,,,,,196.3413,6,0.1544,,up,1,,stimuli/card_10_transparent.png,30,10,6,0,6,0,1,,,,,,,,,,,,,,,,,,,,,,,,,,,,,,,,,,,,,,,,,,,,
,,,,62b46cafda63e83d14eb4ec5,A,2024-07-02_14h05.05.228,Slot Machine Game,2023.1.3,Win32,60.24096386,,,,,,,,,,,,,,,,,,,198.3248,7,0.7514,,up,1,,stimuli/card_100_transparent.png,130,100,7,0,7,0,1,,,,,,,,,,,,,,,,,,,,,,,,,,,,,,,,,,,,,,,,,,,,
,,,,62b46cafda63e83d14eb4ec5,A,2024-07-02_14h05.05.228,Slot Machine Game,2023.1.3,Win32,60.24096386,,,,,,,,,,,,,,,,,,,200.9075,8,0.3245,,up,1,,stimuli/card_100_transparent.png,230,100,8,0,8,0,1,,,,,,,,,,,,,,,,,,,,,,,,,,,,,,,,,,,,,,,,,,,,
,,,,62b46cafda63e83d14eb4ec5,A,2024-07-02_14h05.05.228,Slot Machine Game,2023.1.3,Win32,60.24096386,,,,,,,,,,,,,,,,,,,203.0576,9,0.8664,,up,1,,stimuli/card_0_transparent.png,230,0,9,0,9,0,1,,,,,,,,,,,,,,,,,,,,,,,,,,,,,,,,,,,,,,,,,,,,
,,,,62b46cafda63e83d14eb4ec5,A,2024-07-02_14h05.05.228,Slot Machine Game,2023.1.3,Win32,60.24096386,,,,,,,,,,,,,,,,,,,205.7741,10,0.1851,,up,1,,stimuli/card_0_transparent.png,230,0,10,0,10,0,1,,,,,,,,,,,,,,,,,,,,,,,,,,,,,,,,,,,,,,,,,,,,
,,,,62b46cafda63e83d14eb4ec5,A,2024-07-02_14h05.05.228,Slot Machine Game,2023.1.3,Win32,60.24096386,,,,,,,,,,,,,,,,,,,207.7906,11,0.6003,,left,1.5,,stimuli/card_10_transparent.png,240,10,11,0,11,0,1,,,,,,,,,,,,,,,,,,,,,,,,,,,,,,,,,,,,,,,,,,,,
,,,,62b46cafda63e83d14eb4ec5,A,2024-07-02_14h05.05.228,Slot Machine Game,2023.1.3,Win32,60.24096386,,,,,,,,,,,,,,,,,,,210.7238,12,0.1006,,left,1,,stimuli/card_10_transparent.png,250,10,12,0,12,0,1,,,,,,,,,,,,,,,,,,,,,,,,,,,,,,,,,,,,,,,,,,,,
,,,,62b46cafda63e83d14eb4ec5,A,2024-07-02_14h05.05.228,Slot Machine Game,2023.1.3,Win32,60.24096386,,,,,,,,,,,,,,,,,,,212.6569,13,1.2354,,left,1,,stimuli/card_10_transparent.png,260,10,13,0,13,0,1,,,,,,,,,,,,,,,,,,,,,,,,,,,,,,,,,,,,,,,,,,,,
,,,,62b46cafda63e83d14eb4ec5,A,2024-07-02_14h05.05.228,Slot Machine Game,2023.1.3,Win32,60.24096386,,,,,,,,,,,,,,,,,,,215.7228,14,0.6186,,right,0.5,,stimuli/card_10_transparent.png,270,10,14,0,14,0,1,,,,,,,,,,,,,,,,,,,,,,,,,,,,,,,,,,,,,,,,,,,,
,,,,62b46cafda63e83d14eb4ec5,A,2024-07-02_14h05.05.228,Slot Machine Game,2023.1.3,Win32,60.24096386,,,,,,,,,,,,,,,,,"[6,15]","[[1,3,2],[3,1,2]]",222.7076,0,1.7647,,right,0.5,,stimuli/card_10_transparent.png,10,10,0,0,0,0,1,,217.6898,,,,,,,,,,,,,,,,,,,,,,,,,,,,,,,,,,,,,,,,,,
,,,,62b46cafda63e83d14eb4ec5,A,2024-07-02_14h05.05.228,Slot Machine Game,2023.1.3,Win32,60.24096386,,,,,,,,,,,,,,,,,,,225.8054,1,0.7869,,left,1,,stimuli/card_100_transparent.png,110,100,1,0,1,0,1,,,,,,,,,,,,,,,,,,,,,,,,,,,,,,,,,,,,,,,,,,,,
,,,,62b46cafda63e83d14eb4ec5,A,2024-07-02_14h05.05.228,Slot Machine Game,2023.1.3,Win32,60.24096386,,,,,,,,,,,,,,,,,,,228.4218,2,0.3367,,right,1.5,,stimuli/card_10_transparent.png,120,10,2,0,2,0,1,,,,,,,,,,,,,,,,,,,,,,,,,,,,,,,,,,,,,,,,,,,,
,,,,62b46cafda63e83d14eb4ec5,A,2024-07-02_14h05.05.228,Slot Machine Game,2023.1.3,Win32,60.24096386,,,,,,,,,,,,,,,,,,,231.0882,3,0.5065,,right,0.5,,stimuli/card_10_transparent.png,130,10,3,0,3,0,1,,,,,,,,,,,,,,,,,,,,,,,,,,,,,,,,,,,,,,,,,,,,
,,,,62b46cafda63e83d14eb4ec5,A,2024-07-02_14h05.05.228,Slot Machine Game,2023.1.3,Win32,60.24096386,,,,,,,,,,,,,,,,,,,232.9215,4,0.3362,,left,0.5,,stimuli/card_100_transparent.png,230,100,4,0,4,0,1,,,,,,,,,,,,,,,,,,,,,,,,,,,,,,,,,,,,,,,,,,,,
,,,,62b46cafda63e83d14eb4ec5,A,2024-07-02_14h05.05.228,Slot Machine Game,2023.1.3,Win32,60.24096386,,,,,,,,,,,,,,,,,,,234.5879,5,0.1886,,left,0.5,,stimuli/card_100_transparent.png,330,100,5,0,5,0,1,,,,,,,,,,,,,,,,,,,,,,,,,,,,,,,,,,,,,,,,,,,,
,,,,62b46cafda63e83d14eb4ec5,A,2024-07-02_14h05.05.228,Slot Machine Game,2023.1.3,Win32,60.24096386,,,,,,,,,,,,,,,,,,,236.1046,6,0.0947,,left,1.5,,stimuli/card_10_transparent.png,340,10,6,0,6,0,1,,,,,,,,,,,,,,,,,,,,,,,,,,,,,,,,,,,,,,,,,,,,
,,,,62b46cafda63e83d14eb4ec5,A,2024-07-02_14h05.05.228,Slot Machine Game,2023.1.3,Win32,60.24096386,,,,,,,,,,,,,,,,,,,238.5211,7,0.2073,,left,1,,stimuli/card_0_transparent.png,340,0,7,0,7,0,1,,,,,,,,,,,,,,,,,,,,,,,,,,,,,,,,,,,,,,,,,,,,
,,,,62b46cafda63e83d14eb4ec5,A,2024-07-02_14h05.05.228,Slot Machine Game,2023.1.3,Win32,60.24096386,,,,,,,,,,,,,,,,,,,240.5543,8,0.1566,,up,0.5,,stimuli/card_100_transparent.png,440,100,8,0,8,0,1,,,,,,,,,,,,,,,,,,,,,,,,,,,,,,,,,,,,,,,,,,,,
,,,,62b46cafda63e83d14eb4ec5,A,2024-07-02_14h05.05.228,Slot Machine Game,2023.1.3,Win32,60.24096386,,,,,,,,,,,,,,,,,,,242.0375,9,0.2249,,up,0.5,,stimuli/card_100_transparent.png,540,100,9,0,9,0,1,,,,,,,,,,,,,,,,,,,,,,,,,,,,,,,,,,,,,,,,,,,,
,,,,62b46cafda63e83d14eb4ec5,A,2024-07-02_14h05.05.228,Slot Machine Game,2023.1.3,Win32,60.24096386,,,,,,,,,,,,,,,,,,,243.5882,10,0.2776,,up,0.5,,stimuli/card_100_transparent.png,640,100,10,0,10,0,1,,,,,,,,,,,,,,,,,,,,,,,,,,,,,,,,,,,,,,,,,,,,
,,,,62b46cafda63e83d14eb4ec5,A,2024-07-02_14h05.05.228,Slot Machine Game,2023.1.3,Win32,60.24096386,,,,,,,,,,,,,,,,,,,245.2039,11,0.7183,,up,1.5,,stimuli/card_100_transparent.png,740,100,11,0,11,0,1,,,,,,,,,,,,,,,,,,,,,,,,,,,,,,,,,,,,,,,,,,,,
,,,,62b46cafda63e83d14eb4ec5,A,2024-07-02_14h05.05.228,Slot Machine Game,2023.1.3,Win32,60.24096386,,,,,,,,,,,,,,,,,,,248.2543,12,0.22,,up,1.5,,stimuli/card_100_transparent.png,840,100,12,0,12,0,1,,,,,,,,,,,,,,,,,,,,,,,,,,,,,,,,,,,,,,,,,,,,
,,,,62b46cafda63e83d14eb4ec5,A,2024-07-02_14h05.05.228,Slot Machine Game,2023.1.3,Win32,60.24096386,,,,,,,,,,,,,,,,,,,250.804,13,0.2704,,up,1.5,,stimuli/card_0_transparent.png,840,0,13,0,13,0,1,,,,,,,,,,,,,,,,,,,,,,,,,,,,,,,,,,,,,,,,,,,,
,,,,62b46cafda63e83d14eb4ec5,A,2024-07-02_14h05.05.228,Slot Machine Game,2023.1.3,Win32,60.24096386,,,,,,,,,,,,,,,,,,,253.4051,14,4.4502,,up,1,,stimuli/card_100_transparent.png,940,100,14,0,14,0,1,,,,,,,,,,,,,,,,,,,,,,,,,,,,,,,,,,,,,,,,,,,,
,,,,62b46cafda63e83d14eb4ec5,A,2024-07-02_14h05.05.228,Slot Machine Game,2023.1.3,Win32,60.24096386,,,,,,,,,,,,,,,,,,,,,,,,,,,,,,,,,,,259.6883,,,263.6466,space,48.5502,,,,,,,,,,,,,,,,,,,,,,,,,,,,,,,,,,,,,
,,,,62b46cafda63e83d14eb4ec5,A,2024-07-02_14h05.05.228,Slot Machine Game,2023.1.3,Win32,60.24096386,,,,,,,,,,,,,,,,,,,,,,,,,,,,,,,,,,,,,,,,,,312.2682,1,"[0,1,2,3,4,5,6,7,8,9]",space,2.2103,,,,,,,,,,,,,,,,,,,,,,,,,,,,,,,
,,,,62b46cafda63e83d14eb4ec5,A,2024-07-02_14h05.05.228,Slot Machine Game,2023.1.3,Win32,60.24096386,,,,,,,,,,,,,,,,,,,,,,,,,,,100,,,,,,,,,,,,,,,,,,,,,1,1,"[12,15]","[[2,1,3],[2,3,1]]",314.5106,0,up,0.5705,,1,0.3,"[2,1,3]",0.989370442,stimuli/card_100_transparent.png,100,0,0,0,0,1,,,,,,,,,,
,,,,62b46cafda63e83d14eb4ec5,A,2024-07-02_14h05.05.228,Slot Machine Game,2023.1.3,Win32,60.24096386,,,,,,,,,,,,,,,,,,,,,,,,,,,200,,,,,,,,,,,,,,,,,,,,,1,1,,,316.9155,1,up,0.0215,,1,0.3,"[2,1,3]",0.720145497,stimuli/card_100_transparent.png,100,1,0,1,0,1,,,,,,,,,,
,,,,62b46cafda63e83d14eb4ec5,A,2024-07-02_14h05.05.228,Slot Machine Game,2023.1.3,Win32,60.24096386,,,,,,,,,,,,,,,,,,,,,,,,,,,300,,,,,,,,,,,,,,,,,,,,,1,1,,,318.7651,2,up,0.0219,,1,0.3,"[2,1,3]",0.769446017,stimuli/card_100_transparent.png,100,2,0,2,0,1,,,,,,,,,,
,,,,62b46cafda63e83d14eb4ec5,A,2024-07-02_14h05.05.228,Slot Machine Game,2023.1.3,Win32,60.24096386,,,,,,,,,,,,,,,,,,,,,,,,,,,400,,,,,,,,,,,,,,,,,,,,,1,1,,,320.6151,3,up,0.0449,,1,0.3,"[2,1,3]",0.385113863,stimuli/card_100_transparent.png,100,3,0,3,0,1,,,,,,,,,,
,,,,62b46cafda63e83d14eb4ec5,A,2024-07-02_14h05.05.228,Slot Machine Game,2023.1.3,Win32,60.24096386,,,,,,,,,,,,,,,,,,,,,,,,,,,500,,,,,,,,,,,,,,,,,,,,,1,1,,,322.4814,4,up,0.0347,,0.5,0.3,"[2,1,3]",0.780617072,stimuli/card_100_transparent.png,100,4,0,4,0,1,,,,,,,,,,
,,,,62b46cafda63e83d14eb4ec5,A,2024-07-02_14h05.05.228,Slot Machine Game,2023.1.3,Win32,60.24096386,,,,,,,,,,,,,,,,,,,,,,,,,,,600,,,,,,,,,,,,,,,,,,,,,1,1,,,323.848,5,up,0.0753,,0.5,0.3,"[2,1,3]",0.8333918,stimuli/card_100_transparent.png,100,5,0,5,0,1,,,,,,,,,,
,,,,62b46cafda63e83d14eb4ec5,A,2024-07-02_14h05.05.228,Slot Machine Game,2023.1.3,Win32,60.24096386,,,,,,,,,,,,,,,,,,,,,,,,,,,700,,,,,,,,,,,,,,,,,,,,,1,1,,,325.248,6,up,0.0385,,1.5,0.3,"[2,1,3]",0.436423579,stimuli/card_100_transparent.png,100,6,0,6,0,1,,,,,,,,,,
,,,,62b46cafda63e83d14eb4ec5,A,2024-07-02_14h05.05.228,Slot Machine Game,2023.1.3,Win32,60.24096386,,,,,,,,,,,,,,,,,,,,,,,,,,,700,,,,,,,,,,,,,,,,,,,,,1,1,,,327.6144,7,up,0.8035,,1.5,0.3,"[2,1,3]",0.026225528,stimuli/card_0_transparent.png,0,7,0,7,0,1,,,,,,,,,,
,,,,62b46cafda63e83d14eb4ec5,A,2024-07-02_14h05.05.228,Slot Machine Game,2023.1.3,Win32,60.24096386,,,,,,,,,,,,,,,,,,,,,,,,,,,800,,,,,,,,,,,,,,,,,,,,,1,1,,,330.7476,8,up,0.5676,,1.5,0.3,"[2,1,3]",0.9974835,stimuli/card_100_transparent.png,100,8,0,8,0,1,,,,,,,,,,
,,,,62b46cafda63e83d14eb4ec5,A,2024-07-02_14h05.05.228,Slot Machine Game,2023.1.3,Win32,60.24096386,,,,,,,,,,,,,,,,,,,,,,,,,,,900,,,,,,,,,,,,,,,,,,,,,1,1,,,333.6473,9,up,0.7206,,1,0.3,"[2,1,3]",0.950171424,stimuli/card_100_transparent.png,100,9,0,9,0,1,,,,,,,,,,
,,,,62b46cafda63e83d14eb4ec5,A,2024-07-02_14h05.05.228,Slot Machine Game,2023.1.3,Win32,60.24096386,,,,,,,,,,,,,,,,,,,,,,,,,,,1000,,,,,,,,,,,,,,,,,,,,,1,1,,,336.1971,10,up,0.7597,,1,0.3,"[2,1,3]",0.848581945,stimuli/card_100_transparent.png,100,10,0,10,0,1,,,,,,,,,,
,,,,62b46cafda63e83d14eb4ec5,A,2024-07-02_14h05.05.228,Slot Machine Game,2023.1.3,Win32,60.24096386,,,,,,,,,,,,,,,,,,,,,,,,,,,1010,,,,,,,,,,,,,,,,,,,,,1,1,,,338.7802,11,up,0.8786,,1.5,0.3,"[2,1,3]",0.187305481,stimuli/card_10_transparent.png,10,11,0,11,0,1,,,,,,,,,,
,,,,62b46cafda63e83d14eb4ec5,A,2024-07-02_14h05.05.228,Slot Machine Game,2023.1.3,Win32,60.24096386,,,,,,,,,,,,,,,,,,,,,,,,,,,1010,,,,,,,,,,,,,,,,,,,,,1,1,,,341.98,12,up,1.9783,,0.5,0.3,"[2,3,1]",0.217341435,stimuli/card_0_transparent.png,0,12,0,12,0,1,,,,,,,,,,
,,,,62b46cafda63e83d14eb4ec5,A,2024-07-02_14h05.05.228,Slot Machine Game,2023.1.3,Win32,60.24096386,,,,,,,,,,,,,,,,,,,,,,,,,,,1110,,,,,,,,,,,,,,,,,,,,,1,1,,,345.2797,13,up,0.1776,,1,0.3,"[2,3,1]",0.079155526,stimuli/card_100_transparent.png,100,13,0,13,0,1,,,,,,,,,,
,,,,62b46cafda63e83d14eb4ec5,A,2024-07-02_14h05.05.228,Slot Machine Game,2023.1.3,Win32,60.24096386,,,,,,,,,,,,,,,,,,,,,,,,,,,1110,,,,,,,,,,,,,,,,,,,,,1,1,,,347.2796,14,up,1.0219,,1.5,0.3,"[2,3,1]",0.9836954,stimuli/card_0_transparent.png,0,14,0,14,0,1,,,,,,,,,,
,,,,62b46cafda63e83d14eb4ec5,A,2024-07-02_14h05.05.228,Slot Machine Game,2023.1.3,Win32,60.24096386,,,,,,,,,,,,,,,,,,,,,,,,,,,,,,,,,,,350.6295,,,,,,,,,,,,,,,,,,,,,,,,,,,,,,,,,[1110],0,0,0,0,1,,,,
,,,,62b46cafda63e83d14eb4ec5,A,2024-07-02_14h05.05.228,Slot Machine Game,2023.1.3,Win32,60.24096386,,,,,,,,,,,,,,,,,,,,,,,,,,,0,,,,,,,,,,,,,,,,,,,,,2,2,"[6,15]","[[1,3,2],[3,2,1]]",355.6396,0,up,0.0397,,1.5,0.3,"[1,3,2]",0.296953964,stimuli/card_0_transparent.png,0,0,0,0,0,1,,,,,,,,,,
,,,,62b46cafda63e83d14eb4ec5,A,2024-07-02_14h05.05.228,Slot Machine Game,2023.1.3,Win32,60.24096386,,,,,,,,,,,,,,,,,,,,,,,,,,,100,,,,,,,,,,,,,,,,,,,,,2,2,,,357.9955,1,left,1.6782,,1.5,0.3,"[1,3,2]",0.708017474,stimuli/card_100_transparent.png,100,1,0,1,0,1,,,,,,,,,,
,,,,62b46cafda63e83d14eb4ec5,A,2024-07-02_14h05.05.228,Slot Machine Game,2023.1.3,Win32,60.24096386,,,,,,,,,,,,,,,,,,,,,,,,,,,200,,,,,,,,,,,,,,,,,,,,,2,2,,,361.9952,2,left,0.2565,,1,0.3,"[1,3,2]",0.810825002,stimuli/card_100_transparent.png,100,2,0,2,0,1,,,,,,,,,,
,,,,62b46cafda63e83d14eb4ec5,A,2024-07-02_14h05.05.228,Slot Machine Game,2023.1.3,Win32,60.24096386,,,,,,,,,,,,,,,,,,,,,,,,,,,300,,,,,,,,,,,,,,,,,,,,,2,2,,,364.0783,3,left,0.1603,,0.5,0.3,"[1,3,2]",0.35061425,stimuli/card_100_transparent.png,100,3,0,3,0,1,,,,,,,,,,
,,,,62b46cafda63e83d14eb4ec5,A,2024-07-02_14h05.05.228,Slot Machine Game,2023.1.3,Win32,60.24096386,,,,,,,,,,,,,,,,,,,,,,,,,,,400,,,,,,,,,,,,,,,,,,,,,2,2,,,365.5616,4,left,0.0442,,0.5,0.3,"[1,3,2]",0.77858884,stimuli/card_100_transparent.png,100,4,0,4,0,1,,,,,,,,,,
,,,,62b46cafda63e83d14eb4ec5,A,2024-07-02_14h05.05.228,Slot Machine Game,2023.1.3,Win32,60.24096386,,,,,,,,,,,,,,,,,,,,,,,,,,,410,,,,,,,,,,,,,,,,,,,,,2,2,,,366.9281,5,left,1.1649,,1.5,0.3,"[1,3,2]",0.113884831,stimuli/card_10_transparent.png,10,5,0,5,0,1,,,,,,,,,,
,,,,62b46cafda63e83d14eb4ec5,A,2024-07-02_14h05.05.228,Slot Machine Game,2023.1.3,Win32,60.24096386,,,,,,,,,,,,,,,,,,,,,,,,,,,410,,,,,,,,,,,,,,,,,,,,,2,2,,,370.4279,6,left,0.0864,,1,0.3,"[3,2,1]",0.590261213,stimuli/card_0_transparent.png,0,6,0,6,0,1,,,,,,,,,,
,,,,62b46cafda63e83d14eb4ec5,A,2024-07-02_14h05.05.228,Slot Machine Game,2023.1.3,Win32,60.24096386,,,,,,,,,,,,,,,,,,,,,,,,,,,410,,,,,,,,,,,,,,,,,,,,,2,2,,,372.3444,7,left,1.1711,,0.5,0.3,"[3,2,1]",0.463632686,stimuli/card_0_transparent.png,0,7,0,7,0,1,,,,,,,,,,
,,,,62b46cafda63e83d14eb4ec5,A,2024-07-02_14h05.05.228,Slot Machine Game,2023.1.3,Win32,60.24096386,,,,,,,,,,,,,,,,,,,,,,,,,,,510,,,,,,,,,,,,,,,,,,,,,2,2,,,374.8442,8,right,0.1004,,0.5,0.3,"[3,2,1]",0.286894094,stimuli/card_100_transparent.png,100,8,0,8,0,1,,,,,,,,,,
,,,,62b46cafda63e83d14eb4ec5,A,2024-07-02_14h05.05.228,Slot Machine Game,2023.1.3,Win32,60.24096386,,,,,,,,,,,,,,,,,,,,,,,,,,,520,,,,,,,,,,,,,,,,,,,,,2,2,,,376.2774,9,right,0.034,,1,0.3,"[3,2,1]",0.122343303,stimuli/card_10_transparent.png,10,9,0,9,0,1,,,,,,,,,,
,,,,62b46cafda63e83d14eb4ec5,A,2024-07-02_14h05.05.228,Slot Machine Game,2023.1.3,Win32,60.24096386,,,,,,,,,,,,,,,,,,,,,,,,,,,520,,,,,,,,,,,,,,,,,,,,,2,2,,,378.144,10,left,0.1672,,1.5,0.3,"[3,2,1]",0.703545128,stimuli/card_0_transparent.png,0,10,0,10,0,1,,,,,,,,,,
,,,,62b46cafda63e83d14eb4ec5,A,2024-07-02_14h05.05.228,Slot Machine Game,2023.1.3,Win32,60.24096386,,,,,,,,,,,,,,,,,,,,,,,,,,,620,,,,,,,,,,,,,,,,,,,,,2,2,,,380.6438,11,right,0.172,,1.5,0.3,"[3,2,1]",0.712297765,stimuli/card_100_transparent.png,100,11,0,11,0,1,,,,,,,,,,
,,,,62b46cafda63e83d14eb4ec5,A,2024-07-02_14h05.05.228,Slot Machine Game,2023.1.3,Win32,60.24096386,,,,,,,,,,,,,,,,,,,,,,,,,,,720,,,,,,,,,,,,,,,,,,,,,2,2,,,383.1437,12,right,0.0046,,1,0.3,"[3,2,1]",0.220807185,stimuli/card_100_transparent.png,100,12,0,12,0,1,,,,,,,,,,
,,,,62b46cafda63e83d14eb4ec5,A,2024-07-02_14h05.05.228,Slot Machine Game,2023.1.3,Win32,60.24096386,,,,,,,,,,,,,,,,,,,,,,,,,,,820,,,,,,,,,,,,,,,,,,,,,2,2,,,384.9768,13,right,0.3537,,0.5,0.3,"[3,2,1]",0.651194429,stimuli/card_100_transparent.png,100,13,0,13,0,1,,,,,,,,,,
,,,,62b46cafda63e83d14eb4ec5,A,2024-07-02_14h05.05.228,Slot Machine Game,2023.1.3,Win32,60.24096386,,,,,,,,,,,,,,,,,,,,,,,,,,,920,,,,,,,,,,,,,,,,,,,,,2,2,,,386.66,14,right,0.3672,,1.5,0.3,"[3,2,1]",0.520736565,stimuli/card_100_transparent.png,100,14,0,14,0,1,,,,,,,,,,
,,,,62b46cafda63e83d14eb4ec5,A,2024-07-02_14h05.05.228,Slot Machine Game,2023.1.3,Win32,60.24096386,,,,,,,,,,,,,,,,,,,,,,,,,,,,,,,,,,,389.3598,,,,,,,,,,,,,,,,,,,,,,,,,,,,,,,,,"[1110,920]",1,0,1,0,1,,,,
,,,,62b46cafda63e83d14eb4ec5,A,2024-07-02_14h05.05.228,Slot Machine Game,2023.1.3,Win32,60.24096386,,,,,,,,,,,,,,,,,,,,,,,,,,,100,,,,,,,,,,,,,,,,,,,,,3,3,"[15,15]","[[3,1,2],[3,1,2]]",394.3694,0,up,0.1248,,1.5,0.3,"[3,1,2]",0.949648208,stimuli/card_100_transparent.png,100,0,0,0,0,1,,,,,,,,,,
,,,,62b46cafda63e83d14eb4ec5,A,2024-07-02_14h05.05.228,Slot Machine Game,2023.1.3,Win32,60.24096386,,,,,,,,,,,,,,,,,,,,,,,,,,,200,,,,,,,,,,,,,,,,,,,,,3,3,,,396.8092,1,up,0.4698,,1.5,0.3,"[3,1,2]",0.974864936,stimuli/card_100_transparent.png,100,1,0,1,0,1,,,,,,,,,,
,,,,62b46cafda63e83d14eb4ec5,A,2024-07-02_14h05.05.228,Slot Machine Game,2023.1.3,Win32,60.24096386,,,,,,,,,,,,,,,,,,,,,,,,,,,300,,,,,,,,,,,,,,,,,,,,,3,3,,,399.6091,2,up,0.0041,,1,0.3,"[3,1,2]",0.878449033,stimuli/card_100_transparent.png,100,2,0,2,0,1,,,,,,,,,,
,,,,62b46cafda63e83d14eb4ec5,A,2024-07-02_14h05.05.228,Slot Machine Game,2023.1.3,Win32,60.24096386,,,,,,,,,,,,,,,,,,,,,,,,,,,400,,,,,,,,,,,,,,,,,,,,,3,3,,,401.4423,3,up,1.2893,,0.5,0.3,"[3,1,2]",0.749166838,stimuli/card_100_transparent.png,100,3,0,3,0,1,,,,,,,,,,
,,,,62b46cafda63e83d14eb4ec5,A,2024-07-02_14h05.05.228,Slot Machine Game,2023.1.3,Win32,60.24096386,,,,,,,,,,,,,,,,,,,,,,,,,,,500,,,,,,,,,,,,,,,,,,,,,3,3,,,404.0588,4,up,0.375,,0.5,0.3,"[3,1,2]",0.30113277,stimuli/card_100_transparent.png,100,4,0,4,0,1,,,,,,,,,,
,,,,62b46cafda63e83d14eb4ec5,A,2024-07-02_14h05.05.228,Slot Machine Game,2023.1.3,Win32,60.24096386,,,,,,,,,,,,,,,,,,,,,,,,,,,600,,,,,,,,,,,,,,,,,,,,,3,3,,,405.7617,5,up,1.624,,1,0.3,"[3,1,2]",0.365915489,stimuli/card_100_transparent.png,100,5,0,5,0,1,,,,,,,,,,
,,,,62b46cafda63e83d14eb4ec5,A,2024-07-02_14h05.05.228,Slot Machine Game,2023.1.3,Win32,60.24096386,,,,,,,,,,,,,,,,,,,,,,,,,,,700,,,,,,,,,,,,,,,,,,,,,3,3,,,409.1922,6,up,1.8173,,1,0.3,"[3,1,2]",0.627062034,stimuli/card_100_transparent.png,100,6,0,6,0,1,,,,,,,,,,
,,,,62b46cafda63e83d14eb4ec5,A,2024-07-02_14h05.05.228,Slot Machine Game,2023.1.3,Win32,60.24096386,,,,,,,,,,,,,,,,,,,,,,,,,,,700,,,,,,,,,,,,,,,,,,,,,3,3,,,412.8422,7,up,1.7915,,0.5,0.3,"[3,1,2]",0.095763293,stimuli/card_0_transparent.png,0,7,0,7,0,1,,,,,,,,,,
,,,,62b46cafda63e83d14eb4ec5,A,2024-07-02_14h05.05.228,Slot Machine Game,2023.1.3,Win32,60.24096386,,,,,,,,,,,,,,,,,,,,,,,,,,,800,,,,,,,,,,,,,,,,,,,,,3,3,,,415.9585,8,up,0.117,,1.5,0.3,"[3,1,2]",0.548178694,stimuli/card_100_transparent.png,100,8,0,8,0,1,,,,,,,,,,
,,,,62b46cafda63e83d14eb4ec5,A,2024-07-02_14h05.05.228,Slot Machine Game,2023.1.3,Win32,60.24096386,,,,,,,,,,,,,,,,,,,,,,,,,,,900,,,,,,,,,,,,,,,,,,,,,3,3,,,418.4081,9,up,1.6371,,1.5,0.3,"[3,1,2]",0.63151346,stimuli/card_100_transparent.png,100,9,0,9,0,1,,,,,,,,,,
,,,,62b46cafda63e83d14eb4ec5,A,2024-07-02_14h05.05.228,Slot Machine Game,2023.1.3,Win32,60.24096386,,,,,,,,,,,,,,,,,,,,,,,,,,,1000,,,,,,,,,,,,,,,,,,,,,3,3,,,422.3913,10,up,0.0428,,1,0.3,"[3,1,2]",0.902529256,stimuli/card_100_transparent.png,100,10,0,10,0,1,,,,,,,,,,
,,,,62b46cafda63e83d14eb4ec5,A,2024-07-02_14h05.05.228,Slot Machine Game,2023.1.3,Win32,60.24096386,,,,,,,,,,,,,,,,,,,,,,,,,,,1100,,,,,,,,,,,,,,,,,,,,,3,3,,,424.2578,11,up,0.0337,,0.5,0.3,"[3,1,2]",0.459166113,stimuli/card_100_transparent.png,100,11,0,11,0,1,,,,,,,,,,
,,,,62b46cafda63e83d14eb4ec5,A,2024-07-02_14h05.05.228,Slot Machine Game,2023.1.3,Win32,60.24096386,,,,,,,,,,,,,,,,,,,,,,,,,,,1200,,,,,,,,,,,,,,,,,,,,,3,3,,,425.6242,12,up,0.1841,,1,0.3,"[3,1,2]",0.757101161,stimuli/card_100_transparent.png,100,12,0,12,0,1,,,,,,,,,,
,,,,62b46cafda63e83d14eb4ec5,A,2024-07-02_14h05.05.228,Slot Machine Game,2023.1.3,Win32,60.24096386,,,,,,,,,,,,,,,,,,,,,,,,,,,1200,,,,,,,,,,,,,,,,,,,,,3,3,,,427.6407,13,up,0.0013,,0.5,0.3,"[3,1,2]",0.099004721,stimuli/card_0_transparent.png,0,13,0,13,0,1,,,,,,,,,,
,,,,62b46cafda63e83d14eb4ec5,A,2024-07-02_14h05.05.228,Slot Machine Game,2023.1.3,Win32,60.24096386,,,,,,,,,,,,,,,,,,,,,,,,,,,1300,,,,,,,,,,,,,,,,,,,,,3,3,,,428.9739,14,up,0.3106,,1,0.3,"[3,1,2]",0.280524641,stimuli/card_100_transparent.png,100,14,0,14,0,1,,,,,,,,,,
,,,,62b46cafda63e83d14eb4ec5,A,2024-07-02_14h05.05.228,Slot Machine Game,2023.1.3,Win32,60.24096386,,,,,,,,,,,,,,,,,,,,,,,,,,,,,,,,,,,431.1072,,,,,,,,,,,,,,,,,,,,,,,,,,,,,,,,,"[1110,920,1300]",2,0,2,0,1,,,,
,,,,62b46cafda63e83d14eb4ec5,A,2024-07-02_14h05.05.228,Slot Machine Game,2023.1.3,Win32,60.24096386,,,,,,,,,,,,,,,,,,,,,,,,,,,0,,,,,,,,,,,,,,,,,,,,,4,4,"[7,15]","[[2,3,1],[1,2,3]]",436.1221,0,up,0.1593,,1.5,0.3,"[2,3,1]",0.893911292,stimuli/card_0_transparent.png,0,0,0,0,0,1,,,,,,,,,,
,,,,62b46cafda63e83d14eb4ec5,A,2024-07-02_14h05.05.228,Slot Machine Game,2023.1.3,Win32,60.24096386,,,,,,,,,,,,,,,,,,,,,,,,,,,0,,,,,,,,,,,,,,,,,,,,,4,4,,,438.5902,1,up,0.1538,,0.5,0.3,"[2,3,1]",0.204138382,stimuli/card_0_transparent.png,0,1,0,1,0,1,,,,,,,,,,
,,,,62b46cafda63e83d14eb4ec5,A,2024-07-02_14h05.05.228,Slot Machine Game,2023.1.3,Win32,60.24096386,,,,,,,,,,,,,,,,,,,,,,,,,,,10,,,,,,,,,,,,,,,,,,,,,4,4,,,440.0731,2,left,0.02,,1,0.3,"[2,3,1]",0.443337933,stimuli/card_10_transparent.png,10,2,0,2,0,1,,,,,,,,,,
,,,,62b46cafda63e83d14eb4ec5,A,2024-07-02_14h05.05.228,Slot Machine Game,2023.1.3,Win32,60.24096386,,,,,,,,,,,,,,,,,,,,,,,,,,,20,,,,,,,,,,,,,,,,,,,,,4,4,,,441.923,3,left,0.6347,,1.5,0.3,"[2,3,1]",0.997222122,stimuli/card_10_transparent.png,10,3,0,3,0,1,,,,,,,,,,
,,,,62b46cafda63e83d14eb4ec5,A,2024-07-02_14h05.05.228,Slot Machine Game,2023.1.3,Win32,60.24096386,,,,,,,,,,,,,,,,,,,,,,,,,,,120,,,,,,,,,,,,,,,,,,,,,4,4,,,444.9062,4,right,0.2007,,1,0.3,"[2,3,1]",0.799982463,stimuli/card_100_transparent.png,100,4,0,4,0,1,,,,,,,,,,
,,,,62b46cafda63e83d14eb4ec5,A,2024-07-02_14h05.05.228,Slot Machine Game,2023.1.3,Win32,60.24096386,,,,,,,,,,,,,,,,,,,,,,,,,,,220,,,,,,,,,,,,,,,,,,,,,4,4,,,446.9394,5,right,0.1535,,1.5,0.3,"[2,3,1]",0.565305774,stimuli/card_100_transparent.png,100,5,0,5,0,1,,,,,,,,,,
,,,,62b46cafda63e83d14eb4ec5,A,2024-07-02_14h05.05.228,Slot Machine Game,2023.1.3,Win32,60.24096386,,,,,,,,,,,,,,,,,,,,,,,,,,,220,,,,,,,,,,,,,,,,,,,,,4,4,,,449.4227,6,right,0.0546,,0.5,0.3,"[2,3,1]",0.064208243,stimuli/card_0_transparent.png,0,6,0,6,0,1,,,,,,,,,,
,,,,62b46cafda63e83d14eb4ec5,A,2024-07-02_14h05.05.228,Slot Machine Game,2023.1.3,Win32,60.24096386,,,,,,,,,,,,,,,,,,,,,,,,,,,320,,,,,,,,,,,,,,,,,,,,,4,4,,,450.8057,7,right,0.0004,,1.5,0.3,"[1,2,3]",0.062660909,stimuli/card_100_transparent.png,100,7,0,7,0,1,,,,,,,,,,
,,,,62b46cafda63e83d14eb4ec5,A,2024-07-02_14h05.05.228,Slot Machine Game,2023.1.3,Win32,60.24096386,,,,,,,,,,,,,,,,,,,,,,,,,,,320,,,,,,,,,,,,,,,,,,,,,4,4,,,453.1222,8,right,0.1388,,1.5,0.3,"[1,2,3]",0.309286551,stimuli/card_0_transparent.png,0,8,0,8,0,1,,,,,,,,,,
,,,,62b46cafda63e83d14eb4ec5,A,2024-07-02_14h05.05.228,Slot Machine Game,2023.1.3,Win32,60.24096386,,,,,,,,,,,,,,,,,,,,,,,,,,,320,,,,,,,,,,,,,,,,,,,,,4,4,,,455.5888,9,right,0.5005,,1,0.3,"[1,2,3]",0.439078777,stimuli/card_0_transparent.png,0,9,0,9,0,1,,,,,,,,,,
,,,,62b46cafda63e83d14eb4ec5,A,2024-07-02_14h05.05.228,Slot Machine Game,2023.1.3,Win32,60.24096386,,,,,,,,,,,,,,,,,,,,,,,,,,,420,,,,,,,,,,,,,,,,,,,,,4,4,,,457.9218,10,left,0.3728,,1,0.3,"[1,2,3]",0.770856253,stimuli/card_100_transparent.png,100,10,0,10,0,1,,,,,,,,,,
,,,,62b46cafda63e83d14eb4ec5,A,2024-07-02_14h05.05.228,Slot Machine Game,2023.1.3,Win32,60.24096386,,,,,,,,,,,,,,,,,,,,,,,,,,,520,,,,,,,,,,,,,,,,,,,,,4,4,,,460.1217,11,left,1.4337,,1.5,0.3,"[1,2,3]",0.551993912,stimuli/card_100_transparent.png,100,11,0,11,0,1,,,,,,,,,,
,,,,62b46cafda63e83d14eb4ec5,A,2024-07-02_14h05.05.228,Slot Machine Game,2023.1.3,Win32,60.24096386,,,,,,,,,,,,,,,,,,,,,,,,,,,620,,,,,,,,,,,,,,,,,,,,,4,4,,,463.8881,12,left,1.9004,,1,0.3,"[1,2,3]",0.219660744,stimuli/card_100_transparent.png,100,12,0,12,0,1,,,,,,,,,,
,,,,62b46cafda63e83d14eb4ec5,A,2024-07-02_14h05.05.228,Slot Machine Game,2023.1.3,Win32,60.24096386,,,,,,,,,,,,,,,,,,,,,,,,,,,620,,,,,,,,,,,,,,,,,,,,,4,4,,,467.6212,13,left,1.6166,,1.5,0.3,"[1,2,3]",0.084547609,stimuli/card_0_transparent.png,0,13,0,13,0,1,,,,,,,,,,
,,,,62b46cafda63e83d14eb4ec5,A,2024-07-02_14h05.05.228,Slot Machine Game,2023.1.3,Win32,60.24096386,,,,,,,,,,,,,,,,,,,,,,,,,,,720,,,,,,,,,,,,,,,,,,,,,4,4,,,471.5708,14,left,0.0673,,0.5,0.3,"[1,2,3]",0.893323161,stimuli/card_100_transparent.png,100,14,0,14,0,1,,,,,,,,,,
,,,,62b46cafda63e83d14eb4ec5,A,2024-07-02_14h05.05.228,Slot Machine Game,2023.1.3,Win32,60.24096386,,,,,,,,,,,,,,,,,,,,,,,,,,,,,,,,,,,472.9705,,,,,,,,,,,,,,,,,,,,,,,,,,,,,,,,,"[1110,920,1300,720]",3,0,3,0,1,,,,
,,,,62b46cafda63e83d14eb4ec5,A,2024-07-02_14h05.05.228,Slot Machine Game,2023.1.3,Win32,60.24096386,,,,,,,,,,,,,,,,,,,,,,,,,,,10,,,,,,,,,,,,,,,,,,,,,5,5,"[5,15]","[[1,2,3],[3,1,2]]",477.981,0,up,0.2338,,0.5,0.3,"[1,2,3]",0.560419594,stimuli/card_10_transparent.png,10,0,0,0,0,1,,,,,,,,,,
,,,,62b46cafda63e83d14eb4ec5,A,2024-07-02_14h05.05.228,Slot Machine Game,2023.1.3,Win32,60.24096386,,,,,,,,,,,,,,,,,,,,,,,,,,,110,,,,,,,,,,,,,,,,,,,,,5,5,,,479.5369,1,left,0.1273,,1.5,0.3,"[1,2,3]",0.799885582,stimuli/card_100_transparent.png,100,1,0,1,0,1,,,,,,,,,,
,,,,62b46cafda63e83d14eb4ec5,A,2024-07-02_14h05.05.228,Slot Machine Game,2023.1.3,Win32,60.24096386,,,,,,,,,,,,,,,,,,,,,,,,,,,120,,,,,,,,,,,,,,,,,,,,,5,5,,,482.0035,2,left,1.5341,,0.5,0.3,"[1,2,3]",0.179546092,stimuli/card_10_transparent.png,10,2,0,2,0,1,,,,,,,,,,
,,,,62b46cafda63e83d14eb4ec5,A,2024-07-02_14h05.05.228,Slot Machine Game,2023.1.3,Win32,60.24096386,,,,,,,,,,,,,,,,,,,,,,,,,,,120,,,,,,,,,,,,,,,,,,,,,5,5,,,484.8697,3,right,1.2912,,1.5,0.3,"[1,2,3]",0.96449008,stimuli/card_0_transparent.png,0,3,0,3,0,1,,,,,,,,,,
,,,,62b46cafda63e83d14eb4ec5,A,2024-07-02_14h05.05.228,Slot Machine Game,2023.1.3,Win32,60.24096386,,,,,,,,,,,,,,,,,,,,,,,,,,,220,,,,,,,,,,,,,,,,,,,,,5,5,,,488.4863,4,left,1.3344,,0.5,0.3,"[1,2,3]",0.583434972,stimuli/card_100_transparent.png,100,4,0,4,0,1,,,,,,,,,,
,,,,62b46cafda63e83d14eb4ec5,A,2024-07-02_14h05.05.228,Slot Machine Game,2023.1.3,Win32,60.24096386,,,,,,,,,,,,,,,,,,,,,,,,,,,320,,,,,,,,,,,,,,,,,,,,,5,5,,,491.1527,5,left,0.234,,0.5,0.3,"[3,1,2]",0.08224173,stimuli/card_100_transparent.png,100,5,0,5,0,1,,,,,,,,,,
,,,,62b46cafda63e83d14eb4ec5,A,2024-07-02_14h05.05.228,Slot Machine Game,2023.1.3,Win32,60.24096386,,,,,,,,,,,,,,,,,,,,,,,,,,,330,,,,,,,,,,,,,,,,,,,,,5,5,,,492.7193,6,left,0.0348,,0.5,0.3,"[3,1,2]",0.1725575,stimuli/card_10_transparent.png,10,6,0,6,0,1,,,,,,,,,,
,,,,62b46cafda63e83d14eb4ec5,A,2024-07-02_14h05.05.228,Slot Machine Game,2023.1.3,Win32,60.24096386,,,,,,,,,,,,,,,,,,,,,,,,,,,430,,,,,,,,,,,,,,,,,,,,,5,5,,,494.0859,7,up,1.0219,,0.5,0.3,"[3,1,2]",0.574055423,stimuli/card_100_transparent.png,100,7,0,7,0,1,,,,,,,,,,
,,,,62b46cafda63e83d14eb4ec5,A,2024-07-02_14h05.05.228,Slot Machine Game,2023.1.3,Win32,60.24096386,,,,,,,,,,,,,,,,,,,,,,,,,,,440,,,,,,,,,,,,,,,,,,,,,5,5,,,496.4357,8,left,0.0501,,0.5,0.3,"[3,1,2]",0.109627103,stimuli/card_10_transparent.png,10,8,0,8,0,1,,,,,,,,,,
,,,,62b46cafda63e83d14eb4ec5,A,2024-07-02_14h05.05.228,Slot Machine Game,2023.1.3,Win32,60.24096386,,,,,,,,,,,,,,,,,,,,,,,,,,,540,,,,,,,,,,,,,,,,,,,,,5,5,,,497.8189,9,up,0.4895,,0.5,0.3,"[3,1,2]",0.677974449,stimuli/card_100_transparent.png,100,9,0,9,0,1,,,,,,,,,,
,,,,62b46cafda63e83d14eb4ec5,A,2024-07-02_14h05.05.228,Slot Machine Game,2023.1.3,Win32,60.24096386,,,,,,,,,,,,,,,,,,,,,,,,,,,640,,,,,,,,,,,,,,,,,,,,,5,5,,,499.6355,10,up,0.3673,,1,0.3,"[3,1,2]",0.978727243,stimuli/card_100_transparent.png,100,10,0,10,0,1,,,,,,,,,,
,,,,62b46cafda63e83d14eb4ec5,A,2024-07-02_14h05.05.228,Slot Machine Game,2023.1.3,Win32,60.24096386,,,,,,,,,,,,,,,,,,,,,,,,,,,650,,,,,,,,,,,,,,,,,,,,,5,5,,,501.8354,11,up,0.2171,,1.5,0.3,"[3,1,2]",0.156759647,stimuli/card_10_transparent.png,10,11,0,11,0,1,,,,,,,,,,
,,,,62b46cafda63e83d14eb4ec5,A,2024-07-02_14h05.05.228,Slot Machine Game,2023.1.3,Win32,60.24096386,,,,,,,,,,,,,,,,,,,,,,,,,,,650,,,,,,,,,,,,,,,,,,,,,5,5,,,504.385,12,left,0.3013,,1,0.3,"[3,1,2]",0.428945162,stimuli/card_0_transparent.png,0,12,0,12,0,1,,,,,,,,,,
,,,,62b46cafda63e83d14eb4ec5,A,2024-07-02_14h05.05.228,Slot Machine Game,2023.1.3,Win32,60.24096386,,,,,,,,,,,,,,,,,,,,,,,,,,,650,,,,,,,,,,,,,,,,,,,,,5,5,,,506.5183,13,left,0.4338,,1,0.3,"[3,1,2]",0.388841092,stimuli/card_0_transparent.png,0,13,0,13,0,1,,,,,,,,,,
,,,,62b46cafda63e83d14eb4ec5,A,2024-07-02_14h05.05.228,Slot Machine Game,2023.1.3,Win32,60.24096386,,,,,,,,,,,,,,,,,,,,,,,,,,,750,,,,,,,,,,,,,,,,,,,,,5,5,,,508.7848,14,up,0.3736,,1,0.3,"[3,1,2]",0.971049069,stimuli/card_100_transparent.png,100,14,0,14,0,1,,,,,,,,,,
,,,,62b46cafda63e83d14eb4ec5,A,2024-07-02_14h05.05.228,Slot Machine Game,2023.1.3,Win32,60.24096386,,,,,,,,,,,,,,,,,,,,,,,,,,,,,,,,,,,510.9849,,,,,,,,,,,,,,,,,,,,,,,,,,,,,,,,,"[1110,920,1300,720,750]",4,0,4,0,1,,,,
,,,,62b46cafda63e83d14eb4ec5,A,2024-07-02_14h05.05.228,Slot Machine Game,2023.1.3,Win32,60.24096386,,,,,,,,,,,,,,,,,,,,,,,,,,,0,,,,,,,,,,,,,,,,,,,,,6,6,"[4,10,15]","[[2,3,1],[1,3,2],[3,2,1]]",515.9942,0,up,0.1221,,0.5,0.3,"[2,3,1]",0.238650869,stimuli/card_0_transparent.png,0,0,0,0,0,1,,,,,,,,,,
,,,,62b46cafda63e83d14eb4ec5,A,2024-07-02_14h05.05.228,Slot Machine Game,2023.1.3,Win32,60.24096386,,,,,,,,,,,,,,,,,,,,,,,,,,,10,,,,,,,,,,,,,,,,,,,,,6,6,,,517.4342,1,left,0.2334,,0.5,0.3,"[2,3,1]",0.707312553,stimuli/card_10_transparent.png,10,1,0,1,0,1,,,,,,,,,,
,,,,62b46cafda63e83d14eb4ec5,A,2024-07-02_14h05.05.228,Slot Machine Game,2023.1.3,Win32,60.24096386,,,,,,,,,,,,,,,,,,,,,,,,,,,110,,,,,,,,,,,,,,,,,,,,,6,6,,,518.984,2,right,0.3007,,1,0.3,"[2,3,1]",0.913371681,stimuli/card_100_transparent.png,100,2,0,2,0,1,,,,,,,,,,
,,,,62b46cafda63e83d14eb4ec5,A,2024-07-02_14h05.05.228,Slot Machine Game,2023.1.3,Win32,60.24096386,,,,,,,,,,,,,,,,,,,,,,,,,,,210,,,,,,,,,,,,,,,,,,,,,6,6,,,521.1172,3,right,0.9177,,1.5,0.3,"[2,3,1]",0.705871667,stimuli/card_100_transparent.png,100,3,0,3,0,1,,,,,,,,,,
,,,,62b46cafda63e83d14eb4ec5,A,2024-07-02_14h05.05.228,Slot Machine Game,2023.1.3,Win32,60.24096386,,,,,,,,,,,,,,,,,,,,,,,,,,,220,,,,,,,,,,,,,,,,,,,,,6,6,,,524.3668,4,right,0.3756,,1.5,0.3,"[1,3,2]",0.786800206,stimuli/card_10_transparent.png,10,4,0,4,0,1,,,,,,,,,,
,,,,62b46cafda63e83d14eb4ec5,A,2024-07-02_14h05.05.228,Slot Machine Game,2023.1.3,Win32,60.24096386,,,,,,,,,,,,,,,,,,,,,,,,,,,230,,,,,,,,,,,,,,,,,,,,,6,6,,,527.0839,5,right,0.4839,,1.5,0.3,"[1,3,2]",0.267855437,stimuli/card_10_transparent.png,10,5,0,5,0,1,,,,,,,,,,
,,,,62b46cafda63e83d14eb4ec5,A,2024-07-02_14h05.05.228,Slot Machine Game,2023.1.3,Win32,60.24096386,,,,,,,,,,,,,,,,,,,,,,,,,,,330,,,,,,,,,,,,,,,,,,,,,6,6,,,529.9001,6,left,0.2827,,1.5,0.3,"[1,3,2]",0.350156032,stimuli/card_100_transparent.png,100,6,0,6,0,1,,,,,,,,,,
,,,,62b46cafda63e83d14eb4ec5,A,2024-07-02_14h05.05.228,Slot Machine Game,2023.1.3,Win32,60.24096386,,,,,,,,,,,,,,,,,,,,,,,,,,,430,,,,,,,,,,,,,,,,,,,,,6,6,,,532.4998,7,left,0.0098,,1.5,0.3,"[1,3,2]",0.514382033,stimuli/card_100_transparent.png,100,7,0,7,0,1,,,,,,,,,,
,,,,62b46cafda63e83d14eb4ec5,A,2024-07-02_14h05.05.228,Slot Machine Game,2023.1.3,Win32,60.24096386,,,,,,,,,,,,,,,,,,,,,,,,,,,530,,,,,,,,,,,,,,,,,,,,,6,6,,,534.8496,8,left,0.1015,,0.5,0.3,"[1,3,2]",0.822409903,stimuli/card_100_transparent.png,100,8,0,8,0,1,,,,,,,,,,
,,,,62b46cafda63e83d14eb4ec5,A,2024-07-02_14h05.05.228,Slot Machine Game,2023.1.3,Win32,60.24096386,,,,,,,,,,,,,,,,,,,,,,,,,,,540,,,,,,,,,,,,,,,,,,,,,6,6,,,536.2827,9,left,0.0516,,0.5,0.3,"[1,3,2]",0.125027731,stimuli/card_10_transparent.png,10,9,0,9,0,1,,,,,,,,,,
,,,,62b46cafda63e83d14eb4ec5,A,2024-07-02_14h05.05.228,Slot Machine Game,2023.1.3,Win32,60.24096386,,,,,,,,,,,,,,,,,,,,,,,,,,,540,,,,,,,,,,,,,,,,,,,,,6,6,,,537.6659,10,left,0.0207,,0.5,0.3,"[3,2,1]",0.601599769,stimuli/card_0_transparent.png,0,10,0,10,0,1,,,,,,,,,,
,,,,62b46cafda63e83d14eb4ec5,A,2024-07-02_14h05.05.228,Slot Machine Game,2023.1.3,Win32,60.24096386,,,,,,,,,,,,,,,,,,,,,,,,,,,550,,,,,,,,,,,,,,,,,,,,,6,6,,,539.0325,11,up,0.2137,,1.5,0.3,"[3,2,1]",0.877691584,stimuli/card_10_transparent.png,10,11,0,11,0,1,,,,,,,,,,
,,,,62b46cafda63e83d14eb4ec5,A,2024-07-02_14h05.05.228,Slot Machine Game,2023.1.3,Win32,60.24096386,,,,,,,,,,,,,,,,,,,,,,,,,,,550,,,,,,,,,,,,,,,,,,,,,6,6,,,541.5657,12,up,0.0676,,1,0.3,"[3,2,1]",0.063301864,stimuli/card_0_transparent.png,0,12,0,12,0,1,,,,,,,,,,
,,,,62b46cafda63e83d14eb4ec5,A,2024-07-02_14h05.05.228,Slot Machine Game,2023.1.3,Win32,60.24096386,,,,,,,,,,,,,,,,,,,,,,,,,,,650,,,,,,,,,,,,,,,,,,,,,6,6,,,543.4655,13,right,0.3671,,1.5,0.3,"[3,2,1]",0.207388162,stimuli/card_100_transparent.png,100,13,0,13,0,1,,,,,,,,,,
,,,,62b46cafda63e83d14eb4ec5,A,2024-07-02_14h05.05.228,Slot Machine Game,2023.1.3,Win32,60.24096386,,,,,,,,,,,,,,,,,,,,,,,,,,,660,,,,,,,,,,,,,,,,,,,,,6,6,,,546.1651,14,up,2.7178,,1.5,0.3,"[3,2,1]",0.66764289,stimuli/card_10_transparent.png,10,14,0,14,0,1,,,,,,,,,,
,,,,62b46cafda63e83d14eb4ec5,A,2024-07-02_14h05.05.228,Slot Machine Game,2023.1.3,Win32,60.24096386,,,,,,,,,,,,,,,,,,,,,,,,,,,,,,,,,,,551.215,,,,,,,,,,,,,,,,,,,,,,,,,,,,,,,,,"[1110,920,1300,720,750,660]",5,0,5,0,1,,,,
,,,,62b46cafda63e83d14eb4ec5,A,2024-07-02_14h05.05.228,Slot Machine Game,2023.1.3,Win32,60.24096386,,,,,,,,,,,,,,,,,,,,,,,,,,,0,,,,,,,,,,,,,,,,,,,,,7,7,"[9,15]","[[1,3,2],[2,3,1]]",556.2244,0,up,2.0421,,0.5,0.3,"[1,3,2]",0.23059067,stimuli/card_0_transparent.png,0,0,0,0,0,1,,,,,,,,,,
,,,,62b46cafda63e83d14eb4ec5,A,2024-07-02_14h05.05.228,Slot Machine Game,2023.1.3,Win32,60.24096386,,,,,,,,,,,,,,,,,,,,,,,,,,,0,,,,,,,,,,,,,,,,,,,,,7,7,,,559.5811,1,up,0.2675,,1,0.3,"[1,3,2]",0.381728746,stimuli/card_0_transparent.png,0,1,0,1,0,1,,,,,,,,,,
,,,,62b46cafda63e83d14eb4ec5,A,2024-07-02_14h05.05.228,Slot Machine Game,2023.1.3,Win32,60.24096386,,,,,,,,,,,,,,,,,,,,,,,,,,,0,,,,,,,,,,,,,,,,,,,,,7,7,,,561.6809,2,right,0.084,,1.5,0.3,"[1,3,2]",0.094436269,stimuli/card_0_transparent.png,0,2,0,2,0,1,,,,,,,,,,
,,,,62b46cafda63e83d14eb4ec5,A,2024-07-02_14h05.05.228,Slot Machine Game,2023.1.3,Win32,60.24096386,,,,,,,,,,,,,,,,,,,,,,,,,,,100,,,,,,,,,,,,,,,,,,,,,7,7,,,564.0973,3,left,1.0672,,1.5,0.3,"[1,3,2]",0.633397255,stimuli/card_100_transparent.png,100,3,0,3,0,1,,,,,,,,,,
,,,,62b46cafda63e83d14eb4ec5,A,2024-07-02_14h05.05.228,Slot Machine Game,2023.1.3,Win32,60.24096386,,,,,,,,,,,,,,,,,,,,,,,,,,,110,,,,,,,,,,,,,,,,,,,,,7,7,,,567.4972,4,left,0.1965,,0.5,0.3,"[1,3,2]",0.123473964,stimuli/card_10_transparent.png,10,4,0,4,0,1,,,,,,,,,,
,,,,62b46cafda63e83d14eb4ec5,A,2024-07-02_14h05.05.228,Slot Machine Game,2023.1.3,Win32,60.24096386,,,,,,,,,,,,,,,,,,,,,,,,,,,210,,,,,,,,,,,,,,,,,,,,,7,7,,,569.0137,5,left,0.0591,,1,0.3,"[1,3,2]",0.869913615,stimuli/card_100_transparent.png,100,5,0,5,0,1,,,,,,,,,,
,,,,62b46cafda63e83d14eb4ec5,A,2024-07-02_14h05.05.228,Slot Machine Game,2023.1.3,Win32,60.24096386,,,,,,,,,,,,,,,,,,,,,,,,,,,220,,,,,,,,,,,,,,,,,,,,,7,7,,,570.8968,6,left,0.6711,,0.5,0.3,"[1,3,2]",0.101267637,stimuli/card_10_transparent.png,10,6,0,6,0,1,,,,,,,,,,
,,,,62b46cafda63e83d14eb4ec5,A,2024-07-02_14h05.05.228,Slot Machine Game,2023.1.3,Win32,60.24096386,,,,,,,,,,,,,,,,,,,,,,,,,,,320,,,,,,,,,,,,,,,,,,,,,7,7,,,572.8969,7,left,0.0051,,1.5,0.3,"[1,3,2]",0.320319998,stimuli/card_100_transparent.png,100,7,0,7,0,1,,,,,,,,,,
,,,,62b46cafda63e83d14eb4ec5,A,2024-07-02_14h05.05.228,Slot Machine Game,2023.1.3,Win32,60.24096386,,,,,,,,,,,,,,,,,,,,,,,,,,,420,,,,,,,,,,,,,,,,,,,,,7,7,,,575.2299,8,left,0.7004,,1,0.3,"[1,3,2]",0.861477964,stimuli/card_100_transparent.png,100,8,0,8,0,1,,,,,,,,,,
,,,,62b46cafda63e83d14eb4ec5,A,2024-07-02_14h05.05.228,Slot Machine Game,2023.1.3,Win32,60.24096386,,,,,,,,,,,,,,,,,,,,,,,,,,,430,,,,,,,,,,,,,,,,,,,,,7,7,,,577.763,9,left,0.5171,,1.5,0.3,"[2,3,1]",0.876952948,stimuli/card_10_transparent.png,10,9,0,9,0,1,,,,,,,,,,
,,,,62b46cafda63e83d14eb4ec5,A,2024-07-02_14h05.05.228,Slot Machine Game,2023.1.3,Win32,60.24096386,,,,,,,,,,,,,,,,,,,,,,,,,,,440,,,,,,,,,,,,,,,,,,,,,7,7,,,580.6127,10,up,0.4003,,1.5,0.3,"[2,3,1]",0.176648267,stimuli/card_10_transparent.png,10,10,0,10,0,1,,,,,,,,,,
,,,,62b46cafda63e83d14eb4ec5,A,2024-07-02_14h05.05.228,Slot Machine Game,2023.1.3,Win32,60.24096386,,,,,,,,,,,,,,,,,,,,,,,,,,,540,,,,,,,,,,,,,,,,,,,,,7,7,,,583.346,11,right,1.2738,,1,0.3,"[2,3,1]",0.270020002,stimuli/card_100_transparent.png,100,11,0,11,0,1,,,,,,,,,,
,,,,62b46cafda63e83d14eb4ec5,A,2024-07-02_14h05.05.228,Slot Machine Game,2023.1.3,Win32,60.24096386,,,,,,,,,,,,,,,,,,,,,,,,,,,640,,,,,,,,,,,,,,,,,,,,,7,7,,,586.4289,12,right,0.5506,,1.5,0.3,"[2,3,1]",0.302674974,stimuli/card_100_transparent.png,100,12,0,12,0,1,,,,,,,,,,
,,,,62b46cafda63e83d14eb4ec5,A,2024-07-02_14h05.05.228,Slot Machine Game,2023.1.3,Win32,60.24096386,,,,,,,,,,,,,,,,,,,,,,,,,,,640,,,,,,,,,,,,,,,,,,,,,7,7,,,589.3122,13,right,0.4085,,1.5,0.3,"[2,3,1]",0.020721141,stimuli/card_0_transparent.png,0,13,0,13,0,1,,,,,,,,,,
,,,,62b46cafda63e83d14eb4ec5,A,2024-07-02_14h05.05.228,Slot Machine Game,2023.1.3,Win32,60.24096386,,,,,,,,,,,,,,,,,,,,,,,,,,,650,,,,,,,,,,,,,,,,,,,,,7,7,,,592.0619,14,left,0.4537,,1.5,0.3,"[2,3,1]",0.647074981,stimuli/card_10_transparent.png,10,14,0,14,0,1,,,,,,,,,,
,,,,62b46cafda63e83d14eb4ec5,A,2024-07-02_14h05.05.228,Slot Machine Game,2023.1.3,Win32,60.24096386,,,,,,,,,,,,,,,,,,,,,,,,,,,,,,,,,,,594.8451,,,,,,,,,,,,,,,,,,,,,,,,,,,,,,,,,"[1110,920,1300,720,750,660,650]",6,0,6,0,1,,,,
,,,,62b46cafda63e83d14eb4ec5,A,2024-07-02_14h05.05.228,Slot Machine Game,2023.1.3,Win32,60.24096386,,,,,,,,,,,,,,,,,,,,,,,,,,,0,,,,,,,,,,,,,,,,,,,,,8,8,"[11,15]","[[2,1,3],[1,2,3]]",599.855,0,right,2.1176,,1.5,0.3,"[2,1,3]",0.422588727,stimuli/card_0_transparent.png,0,0,0,0,0,1,,,,,,,,,,
,,,,62b46cafda63e83d14eb4ec5,A,2024-07-02_14h05.05.228,Slot Machine Game,2023.1.3,Win32,60.24096386,,,,,,,,,,,,,,,,,,,,,,,,,,,10,,,,,,,,,,,,,,,,,,,,,8,8,,,604.2939,1,left,0.4573,,0.5,0.3,"[2,1,3]",0.488370327,stimuli/card_10_transparent.png,10,1,0,1,0,1,,,,,,,,,,
,,,,62b46cafda63e83d14eb4ec5,A,2024-07-02_14h05.05.228,Slot Machine Game,2023.1.3,Win32,60.24096386,,,,,,,,,,,,,,,,,,,,,,,,,,,110,,,,,,,,,,,,,,,,,,,,,8,8,,,606.0769,2,up,0.5505,,1,0.3,"[2,1,3]",0.551031542,stimuli/card_100_transparent.png,100,2,0,2,0,1,,,,,,,,,,
,,,,62b46cafda63e83d14eb4ec5,A,2024-07-02_14h05.05.228,Slot Machine Game,2023.1.3,Win32,60.24096386,,,,,,,,,,,,,,,,,,,,,,,,,,,210,,,,,,,,,,,,,,,,,,,,,8,8,,,608.4601,3,up,0.356,,1.5,0.3,"[2,1,3]",0.523822887,stimuli/card_100_transparent.png,100,3,0,3,0,1,,,,,,,,,,
,,,,62b46cafda63e83d14eb4ec5,A,2024-07-02_14h05.05.228,Slot Machine Game,2023.1.3,Win32,60.24096386,,,,,,,,,,,,,,,,,,,,,,,,,,,310,,,,,,,,,,,,,,,,,,,,,8,8,,,611.1434,4,up,0.4332,,1.5,0.3,"[2,1,3]",0.626551728,stimuli/card_100_transparent.png,100,4,0,4,0,1,,,,,,,,,,
,,,,62b46cafda63e83d14eb4ec5,A,2024-07-02_14h05.05.228,Slot Machine Game,2023.1.3,Win32,60.24096386,,,,,,,,,,,,,,,,,,,,,,,,,,,410,,,,,,,,,,,,,,,,,,,,,8,8,,,613.9097,5,up,0.3662,,1,0.3,"[2,1,3]",0.8688854,stimuli/card_100_transparent.png,100,5,0,5,0,1,,,,,,,,,,
,,,,62b46cafda63e83d14eb4ec5,A,2024-07-02_14h05.05.228,Slot Machine Game,2023.1.3,Win32,60.24096386,,,,,,,,,,,,,,,,,,,,,,,,,,,410,,,,,,,,,,,,,,,,,,,,,8,8,,,616.1096,6,up,1.2611,,1.5,0.3,"[2,1,3]",0.040196546,stimuli/card_0_transparent.png,0,6,0,6,0,1,,,,,,,,,,
,,,,62b46cafda63e83d14eb4ec5,A,2024-07-02_14h05.05.228,Slot Machine Game,2023.1.3,Win32,60.24096386,,,,,,,,,,,,,,,,,,,,,,,,,,,510,,,,,,,,,,,,,,,,,,,,,8,8,,,619.6927,7,up,0.3782,,1,0.3,"[2,1,3]",0.739089947,stimuli/card_100_transparent.png,100,7,0,7,0,1,,,,,,,,,,
,,,,62b46cafda63e83d14eb4ec5,A,2024-07-02_14h05.05.228,Slot Machine Game,2023.1.3,Win32,60.24096386,,,,,,,,,,,,,,,,,,,,,,,,,,,610,,,,,,,,,,,,,,,,,,,,,8,8,,,621.8925,8,up,0.1341,,1.5,0.3,"[2,1,3]",0.345768705,stimuli/card_100_transparent.png,100,8,0,8,0,1,,,,,,,,,,
,,,,62b46cafda63e83d14eb4ec5,A,2024-07-02_14h05.05.228,Slot Machine Game,2023.1.3,Win32,60.24096386,,,,,,,,,,,,,,,,,,,,,,,,,,,710,,,,,,,,,,,,,,,,,,,,,8,8,,,624.359,9,up,0.1842,,1.5,0.3,"[2,1,3]",0.446076214,stimuli/card_100_transparent.png,100,9,0,9,0,1,,,,,,,,,,
,,,,62b46cafda63e83d14eb4ec5,A,2024-07-02_14h05.05.228,Slot Machine Game,2023.1.3,Win32,60.24096386,,,,,,,,,,,,,,,,,,,,,,,,,,,810,,,,,,,,,,,,,,,,,,,,,8,8,,,626.8754,10,up,0.9945,,1,0.3,"[2,1,3]",0.785292971,stimuli/card_100_transparent.png,100,10,0,10,0,1,,,,,,,,,,
,,,,62b46cafda63e83d14eb4ec5,A,2024-07-02_14h05.05.228,Slot Machine Game,2023.1.3,Win32,60.24096386,,,,,,,,,,,,,,,,,,,,,,,,,,,820,,,,,,,,,,,,,,,,,,,,,8,8,,,629.6919,11,up,1.1572,,1.5,0.3,"[1,2,3]",0.77562604,stimuli/card_10_transparent.png,10,11,0,11,0,1,,,,,,,,,,
,,,,62b46cafda63e83d14eb4ec5,A,2024-07-02_14h05.05.228,Slot Machine Game,2023.1.3,Win32,60.24096386,,,,,,,,,,,,,,,,,,,,,,,,,,,920,,,,,,,,,,,,,,,,,,,,,8,8,,,633.1751,12,left,0.3454,,1.5,0.3,"[1,2,3]",0.917170157,stimuli/card_100_transparent.png,100,12,0,12,0,1,,,,,,,,,,
,,,,62b46cafda63e83d14eb4ec5,A,2024-07-02_14h05.05.228,Slot Machine Game,2023.1.3,Win32,60.24096386,,,,,,,,,,,,,,,,,,,,,,,,,,,1020,,,,,,,,,,,,,,,,,,,,,8,8,,,635.8415,13,left,0.1238,,1.5,0.3,"[1,2,3]",0.383889595,stimuli/card_100_transparent.png,100,13,0,13,0,1,,,,,,,,,,
,,,,62b46cafda63e83d14eb4ec5,A,2024-07-02_14h05.05.228,Slot Machine Game,2023.1.3,Win32,60.24096386,,,,,,,,,,,,,,,,,,,,,,,,,,,1120,,,,,,,,,,,,,,,,,,,,,8,8,,,638.2912,14,left,0.1774,,1,0.3,"[1,2,3]",0.711534937,stimuli/card_100_transparent.png,100,14,0,14,0,1,,,,,,,,,,
,,,,62b46cafda63e83d14eb4ec5,A,2024-07-02_14h05.05.228,Slot Machine Game,2023.1.3,Win32,60.24096386,,,,,,,,,,,,,,,,,,,,,,,,,,,,,,,,,,,640.2911,,,,,,,,,,,,,,,,,,,,,,,,,,,,,,,,,"[1110,920,1300,720,750,660,650,1120]",7,0,7,0,1,,,,
,,,,62b46cafda63e83d14eb4ec5,A,2024-07-02_14h05.05.228,Slot Machine Game,2023.1.3,Win32,60.24096386,,,,,,,,,,,,,,,,,,,,,,,,,,,100,,,,,,,,,,,,,,,,,,,,,9,9,"[8,15]","[[3,2,1],[3,1,2]]",645.3005,0,right,0.2502,,0.5,0.3,"[3,2,1]",0.417156288,stimuli/card_100_transparent.png,100,0,0,0,0,1,,,,,,,,,,
,,,,62b46cafda63e83d14eb4ec5,A,2024-07-02_14h05.05.228,Slot Machine Game,2023.1.3,Win32,60.24096386,,,,,,,,,,,,,,,,,,,,,,,,,,,200,,,,,,,,,,,,,,,,,,,,,9,9,,,646.8741,1,right,0.6705,,0.5,0.3,"[3,2,1]",0.410400048,stimuli/card_100_transparent.png,100,1,0,1,0,1,,,,,,,,,,
,,,,62b46cafda63e83d14eb4ec5,A,2024-07-02_14h05.05.228,Slot Machine Game,2023.1.3,Win32,60.24096386,,,,,,,,,,,,,,,,,,,,,,,,,,,210,,,,,,,,,,,,,,,,,,,,,9,9,,,648.8739,2,right,0.3707,,0.5,0.3,"[3,2,1]",0.161021509,stimuli/card_10_transparent.png,10,2,0,2,0,1,,,,,,,,,,
,,,,62b46cafda63e83d14eb4ec5,A,2024-07-02_14h05.05.228,Slot Machine Game,2023.1.3,Win32,60.24096386,,,,,,,,,,,,,,,,,,,,,,,,,,,210,,,,,,,,,,,,,,,,,,,,,9,9,,,650.5737,3,left,0.3345,,1,0.3,"[3,2,1]",0.263474226,stimuli/card_0_transparent.png,0,3,0,3,0,1,,,,,,,,,,
,,,,62b46cafda63e83d14eb4ec5,A,2024-07-02_14h05.05.228,Slot Machine Game,2023.1.3,Win32,60.24096386,,,,,,,,,,,,,,,,,,,,,,,,,,,220,,,,,,,,,,,,,,,,,,,,,9,9,,,652.7403,4,up,0.1393,,1,0.3,"[3,2,1]",0.217692593,stimuli/card_10_transparent.png,10,4,0,4,0,1,,,,,,,,,,
,,,,62b46cafda63e83d14eb4ec5,A,2024-07-02_14h05.05.228,Slot Machine Game,2023.1.3,Win32,60.24096386,,,,,,,,,,,,,,,,,,,,,,,,,,,320,,,,,,,,,,,,,,,,,,,,,9,9,,,654.7067,5,right,0.8214,,0.5,0.3,"[3,2,1]",0.430040281,stimuli/card_100_transparent.png,100,5,0,5,0,1,,,,,,,,,,
,,,,62b46cafda63e83d14eb4ec5,A,2024-07-02_14h05.05.228,Slot Machine Game,2023.1.3,Win32,60.24096386,,,,,,,,,,,,,,,,,,,,,,,,,,,420,,,,,,,,,,,,,,,,,,,,,9,9,,,656.8566,6,right,0.1507,,0.5,0.3,"[3,2,1]",0.923458534,stimuli/card_100_transparent.png,100,6,0,6,0,1,,,,,,,,,,
,,,,62b46cafda63e83d14eb4ec5,A,2024-07-02_14h05.05.228,Slot Machine Game,2023.1.3,Win32,60.24096386,,,,,,,,,,,,,,,,,,,,,,,,,,,520,,,,,,,,,,,,,,,,,,,,,9,9,,,658.3398,7,right,0.0702,,1.5,0.3,"[3,2,1]",0.998874654,stimuli/card_100_transparent.png,100,7,0,7,0,1,,,,,,,,,,
,,,,62b46cafda63e83d14eb4ec5,A,2024-07-02_14h05.05.228,Slot Machine Game,2023.1.3,Win32,60.24096386,,,,,,,,,,,,,,,,,,,,,,,,,,,530,,,,,,,,,,,,,,,,,,,,,9,9,,,660.7396,8,right,0.2673,,1,0.3,"[3,1,2]",0.639535565,stimuli/card_10_transparent.png,10,8,0,8,0,1,,,,,,,,,,
,,,,62b46cafda63e83d14eb4ec5,A,2024-07-02_14h05.05.228,Slot Machine Game,2023.1.3,Win32,60.24096386,,,,,,,,,,,,,,,,,,,,,,,,,,,540,,,,,,,,,,,,,,,,,,,,,9,9,,,662.8394,9,right,0.4288,,1,0.3,"[3,1,2]",0.781412913,stimuli/card_10_transparent.png,10,9,0,9,0,1,,,,,,,,,,
,,,,62b46cafda63e83d14eb4ec5,A,2024-07-02_14h05.05.228,Slot Machine Game,2023.1.3,Win32,60.24096386,,,,,,,,,,,,,,,,,,,,,,,,,,,540,,,,,,,,,,,,,,,,,,,,,9,9,,,665.0893,10,left,0.0339,,1,0.3,"[3,1,2]",0.221441572,stimuli/card_0_transparent.png,0,10,0,10,0,1,,,,,,,,,,
,,,,62b46cafda63e83d14eb4ec5,A,2024-07-02_14h05.05.228,Slot Machine Game,2023.1.3,Win32,60.24096386,,,,,,,,,,,,,,,,,,,,,,,,,,,640,,,,,,,,,,,,,,,,,,,,,9,9,,,666.9558,11,up,0.3746,,0.5,0.3,"[3,1,2]",0.664313271,stimuli/card_100_transparent.png,100,11,0,11,0,1,,,,,,,,,,
,,,,62b46cafda63e83d14eb4ec5,A,2024-07-02_14h05.05.228,Slot Machine Game,2023.1.3,Win32,60.24096386,,,,,,,,,,,,,,,,,,,,,,,,,,,650,,,,,,,,,,,,,,,,,,,,,9,9,,,668.6558,12,up,0.2038,,1,0.3,"[3,1,2]",0.108487239,stimuli/card_10_transparent.png,10,12,0,12,0,1,,,,,,,,,,
,,,,62b46cafda63e83d14eb4ec5,A,2024-07-02_14h05.05.228,Slot Machine Game,2023.1.3,Win32,60.24096386,,,,,,,,,,,,,,,,,,,,,,,,,,,750,,,,,,,,,,,,,,,,,,,,,9,9,,,670.6888,13,right,0.2502,,0.5,0.3,"[3,1,2]",0.177881502,stimuli/card_100_transparent.png,100,13,0,13,0,1,,,,,,,,,,
,,,,62b46cafda63e83d14eb4ec5,A,2024-07-02_14h05.05.228,Slot Machine Game,2023.1.3,Win32,60.24096386,,,,,,,,,,,,,,,,,,,,,,,,,,,850,,,,,,,,,,,,,,,,,,,,,9,9,,,672.2721,14,right,0.304,,1.5,0.3,"[3,1,2]",0.121386864,stimuli/card_100_transparent.png,100,14,0,14,0,1,,,,,,,,,,
,,,,62b46cafda63e83d14eb4ec5,A,2024-07-02_14h05.05.228,Slot Machine Game,2023.1.3,Win32,60.24096386,,,,,,,,,,,,,,,,,,,,,,,,,,,,,,,,,,,674.9054,,,,,,,,,,,,,,,,,,,,,,,,,,,,,,,,,"[1110,920,1300,720,750,660,650,1120,850]",8,0,8,0,1,,,,
,,,,62b46cafda63e83d14eb4ec5,A,2024-07-02_14h05.05.228,Slot Machine Game,2023.1.3,Win32,60.24096386,,,,,,,,,,,,,,,,,,,,,,,,,,,10,,,,,,,,,,,,,,,,,,,,,10,10,"[10,15]","[[3,1,2],[1,3,2]]",679.9148,0,right,0.2451,,0.5,0.3,"[3,1,2]",0.86830602,stimuli/card_10_transparent.png,10,0,0,0,0,1,,,,,,,,,,
,,,,62b46cafda63e83d14eb4ec5,A,2024-07-02_14h05.05.228,Slot Machine Game,2023.1.3,Win32,60.24096386,,,,,,,,,,,,,,,,,,,,,,,,,,,10,,,,,,,,,,,,,,,,,,,,,10,10,,,681.4715,1,left,0.2832,,1.5,0.3,"[3,1,2]",0.489548339,stimuli/card_0_transparent.png,0,1,0,1,0,1,,,,,,,,,,
,,,,62b46cafda63e83d14eb4ec5,A,2024-07-02_14h05.05.228,Slot Machine Game,2023.1.3,Win32,60.24096386,,,,,,,,,,,,,,,,,,,,,,,,,,,110,,,,,,,,,,,,,,,,,,,,,10,10,,,684.0879,2,up,0.0344,,1.5,0.3,"[3,1,2]",0.718673118,stimuli/card_100_transparent.png,100,2,0,2,0,1,,,,,,,,,,
,,,,62b46cafda63e83d14eb4ec5,A,2024-07-02_14h05.05.228,Slot Machine Game,2023.1.3,Win32,60.24096386,,,,,,,,,,,,,,,,,,,,,,,,,,,210,,,,,,,,,,,,,,,,,,,,,10,10,,,686.4544,3,up,0.2673,,1,0.3,"[3,1,2]",0.857994682,stimuli/card_100_transparent.png,100,3,0,3,0,1,,,,,,,,,,
,,,,62b46cafda63e83d14eb4ec5,A,2024-07-02_14h05.05.228,Slot Machine Game,2023.1.3,Win32,60.24096386,,,,,,,,,,,,,,,,,,,,,,,,,,,310,,,,,,,,,,,,,,,,,,,,,10,10,,,688.5542,4,up,0.0188,,1.5,0.3,"[3,1,2]",0.316171099,stimuli/card_100_transparent.png,100,4,0,4,0,1,,,,,,,,,,
,,,,62b46cafda63e83d14eb4ec5,A,2024-07-02_14h05.05.228,Slot Machine Game,2023.1.3,Win32,60.24096386,,,,,,,,,,,,,,,,,,,,,,,,,,,410,,,,,,,,,,,,,,,,,,,,,10,10,,,690.9041,5,up,0.0216,,0.5,0.3,"[3,1,2]",0.65913889,stimuli/card_100_transparent.png,100,5,0,5,0,1,,,,,,,,,,
,,,,62b46cafda63e83d14eb4ec5,A,2024-07-02_14h05.05.228,Slot Machine Game,2023.1.3,Win32,60.24096386,,,,,,,,,,,,,,,,,,,,,,,,,,,420,,,,,,,,,,,,,,,,,,,,,10,10,,,692.254,6,up,0.5045,,1.5,0.3,"[3,1,2]",0.190851735,stimuli/card_10_transparent.png,10,6,0,6,0,1,,,,,,,,,,
,,,,62b46cafda63e83d14eb4ec5,A,2024-07-02_14h05.05.228,Slot Machine Game,2023.1.3,Win32,60.24096386,,,,,,,,,,,,,,,,,,,,,,,,,,,420,,,,,,,,,,,,,,,,,,,,,10,10,,,695.087,7,left,0.4344,,0.5,0.3,"[3,1,2]",0.238695622,stimuli/card_0_transparent.png,0,7,0,7,0,1,,,,,,,,,,
,,,,62b46cafda63e83d14eb4ec5,A,2024-07-02_14h05.05.228,Slot Machine Game,2023.1.3,Win32,60.24096386,,,,,,,,,,,,,,,,,,,,,,,,,,,430,,,,,,,,,,,,,,,,,,,,,10,10,,,696.8536,8,right,0.023,,0.5,0.3,"[3,1,2]",0.311157391,stimuli/card_10_transparent.png,10,8,0,8,0,1,,,,,,,,,,
,,,,62b46cafda63e83d14eb4ec5,A,2024-07-02_14h05.05.228,Slot Machine Game,2023.1.3,Win32,60.24096386,,,,,,,,,,,,,,,,,,,,,,,,,,,530,,,,,,,,,,,,,,,,,,,,,10,10,,,698.1869,9,up,0.2564,,1.5,0.3,"[3,1,2]",0.777099179,stimuli/card_100_transparent.png,100,9,0,9,0,1,,,,,,,,,,
,,,,62b46cafda63e83d14eb4ec5,A,2024-07-02_14h05.05.228,Slot Machine Game,2023.1.3,Win32,60.24096386,,,,,,,,,,,,,,,,,,,,,,,,,,,530,,,,,,,,,,,,,,,,,,,,,10,10,,,700.77,10,up,0.3918,,1.5,0.3,"[1,3,2]",0.913958181,stimuli/card_0_transparent.png,0,10,0,10,0,1,,,,,,,,,,
,,,,62b46cafda63e83d14eb4ec5,A,2024-07-02_14h05.05.228,Slot Machine Game,2023.1.3,Win32,60.24096386,,,,,,,,,,,,,,,,,,,,,,,,,,,630,,,,,,,,,,,,,,,,,,,,,10,10,,,703.4863,11,left,0.2837,,1.5,0.3,"[1,3,2]",0.529564563,stimuli/card_100_transparent.png,100,11,0,11,0,1,,,,,,,,,,
,,,,62b46cafda63e83d14eb4ec5,A,2024-07-02_14h05.05.228,Slot Machine Game,2023.1.3,Win32,60.24096386,,,,,,,,,,,,,,,,,,,,,,,,,,,730,,,,,,,,,,,,,,,,,,,,,10,10,,,706.1029,12,left,1.5376,,1,0.3,"[1,3,2]",0.736664015,stimuli/card_100_transparent.png,100,12,0,12,0,1,,,,,,,,,,
,,,,62b46cafda63e83d14eb4ec5,A,2024-07-02_14h05.05.228,Slot Machine Game,2023.1.3,Win32,60.24096386,,,,,,,,,,,,,,,,,,,,,,,,,,,830,,,,,,,,,,,,,,,,,,,,,10,10,,,709.4693,13,left,1.5844,,1.5,0.3,"[1,3,2]",0.840561569,stimuli/card_100_transparent.png,100,13,0,13,0,1,,,,,,,,,,
,,,,62b46cafda63e83d14eb4ec5,A,2024-07-02_14h05.05.228,Slot Machine Game,2023.1.3,Win32,60.24096386,,,,,,,,,,,,,,,,,,,,,,,,,,,840,,,,,,,,,,,,,,,,,,,,,10,10,,,713.3857,14,right,0.2224,,1.5,0.3,"[1,3,2]",0.337987477,stimuli/card_10_transparent.png,10,14,0,14,0,1,,,,,,,,,,
,,,,62b46cafda63e83d14eb4ec5,A,2024-07-02_14h05.05.228,Slot Machine Game,2023.1.3,Win32,60.24096386,,,,,,,,,,,,,,,,,,,,,,,,,,,,,,,,,,,715.9355,,,,,,,,,,,,,,,,,,,,,,,,,,,,,,,,,"[1110,920,1300,720,750,660,650,1120,850,840]",9,0,9,0,1,,,,
,,,,62b46cafda63e83d14eb4ec5,A,2024-07-02_14h05.05.228,Slot Machine Game,2023.1.3,Win32,60.24096386,,,,,,,,,,,,,,,,,,,,,,,,,,,,,,,,,,,,,,,,,,,,,,,,,,,,,,,,,,,,,,,,,,,,,,,,,,9,"[1110,920,1300,720,750,660,650,1120,850,840]",7.2,2024-07-02_14h17.10.298
