key_resp_welcome_started,key_resp_welcome_keys,key_resp_welcome_rt,key_resp_welcome_duration,prolific_id,path_id,date,expName,psychopyVersion,OS,frameRate,key_resp_instruction1_started,key_resp_instruction1_keys,key_resp_instruction1_rt,key_resp_instruction1_duration,key_resp_instruction2_started,key_resp_instruction2_keys,key_resp_instruction2_rt,key_resp_instruction2_duration,key_resp_instruction3_started,key_resp_instruction3_keys,key_resp_instruction3_rt,key_resp_instruction3_duration,key_resp_instruction4_started,key_resp_instruction4_keys,key_resp_instruction4_rt,key_resp_instruction4_duration,practiceCondition,practice_reward_seqs,practice_trial_started,practice_trial_num,practice_resp_rt,practice_resp_duration,practice_resp_keys,prac_presentationInterval,"practice_reward_seq: 2,1,3",reward_img,cumulative_reward,trial_reward,practice_trials.thisRepN,practice_trials.thisTrialN,practice_trials.thisN,practice_trials.thisIndex,practice_trials.ran,"practice_reward_seq: 2,3,1",block_break_started,"practice_reward_seq: 1,3,2","practice_reward_seq: 3,1,2",practice_end_time,practice_end_keys,practice_end_rt,practice_end_duration,main_instruction_text_started,block_condition,block_order_indices,main_instruction_keys,main_instruction_rt,main_instruction_duration,block_number,block_assignment,current_condition,main_reward_seqs,main_trial_started,main_trial_num,main_trial_keys,main_trial_rt,main_trial_duration,main_presentationInterval,reward_presentation_time,main_reward_seq,reward_rand_val,main_reward_img,current_reward,main_trials.thisRepN,main_trials.thisTrialN,main_trials.thisN,main_trials.thisIndex,main_trials.ran,block_reward,block.thisRepN,block.thisTrialN,block.thisN,block.thisIndex,block.ran,block_reward.length,block_reward_all,reward_amount,date_end_task
0,j,1.396,,62c0ccde4bd16c7f96a2959f,A,2024-07-02_14h53.33.454,Slot Machine Game,2023.1.3,Win32,60.75334143,,,,,,,,,,,,,,,,,,,,,,,,,,,,,,,,,,,,,,,,,,,,,,,,,,,,,,,,,,,,,,,,,,,,,,,,,,,,,
,,,,62c0ccde4bd16c7f96a2959f,A,2024-07-02_14h53.33.454,Slot Machine Game,2023.1.3,Win32,60.75334143,1.414,k,0.212,,,,,,,,,,,,,,,,,,,,,,,,,,,,,,,,,,,,,,,,,,,,,,,,,,,,,,,,,,,,,,,,,,,,,,,,,,
,,,,62c0ccde4bd16c7f96a2959f,A,2024-07-02_14h53.33.454,Slot Machine Game,2023.1.3,Win32,60.75334143,,,,,1.647,k,0.139,,,,,,,,,,,,,,,,,,,,,,,,,,,,,,,,,,,,,,,,,,,,,,,,,,,,,,,,,,,,,,,,,,,,,,
,,,,62c0ccde4bd16c7f96a2959f,A,2024-07-02_14h53.33.454,Slot Machine Game,2023.1.3,Win32,60.75334143,,,,,,,,,1.814,k,0.142,,,,,,,,,,,,,,,,,,,,,,,,,,,,,,,,,,,,,,,,,,,,,,,,,,,,,,,,,,,,,,,,,,
,,,,62c0ccde4bd16c7f96a2959f,A,2024-07-02_14h53.33.454,Slot Machine Game,2023.1.3,Win32,60.75334143,,,,,,,,,,,,,,,,,,,,,,,,,,,,,,,,,,,,,,,,,,,,,,,,,,,,,,,,,,,,,,,,,,,,,,,,,,,,,
,,,,62c0ccde4bd16c7f96a2959f,A,2024-07-02_14h53.33.454,Slot Machine Game,2023.1.3,Win32,60.75334143,,,,,,,,,,,,,143.77,left,15.893,,,,,,,,,,,,,,,,,,,,,,,,,,,,,,,,,,,,,,,,,,,,,,,,,,,,,,,,,,,,,,
,,,,62c0ccde4bd16c7f96a2959f,A,2024-07-02_14h53.33.454,Slot Machine Game,2023.1.3,Win32,60.75334143,,,,,,,,,,,,,,,,,"[9,15]","[[2,1,3],[2,3,1]]",159.69,0,0.368,,left,1,,stimuli/card_100_transparent.png,100,100,0,0,0,0,1,,,,,,,,,,,,,,,,,,,,,,,,,,,,,,,,,,,,,,,,,,,,
,,,,62c0ccde4bd16c7f96a2959f,A,2024-07-02_14h53.33.454,Slot Machine Game,2023.1.3,Win32,60.75334143,,,,,,,,,,,,,,,,,,,161.885,1,0.134,,left,0.5,,stimuli/card_10_transparent.png,110,10,1,0,1,0,1,,,,,,,,,,,,,,,,,,,,,,,,,,,,,,,,,,,,,,,,,,,,
,,,,62c0ccde4bd16c7f96a2959f,A,2024-07-02_14h53.33.454,Slot Machine Game,2023.1.3,Win32,60.75334143,,,,,,,,,,,,,,,,,,,163.351,2,0.588,,left,0.5,,stimuli/card_10_transparent.png,120,10,2,0,2,0,1,,,,,,,,,,,,,,,,,,,,,,,,,,,,,,,,,,,,,,,,,,,,
,,,,62c0ccde4bd16c7f96a2959f,A,2024-07-02_14h53.33.454,Slot Machine Game,2023.1.3,Win32,60.75334143,,,,,,,,,,,,,,,,,,,165.252,3,0.414,,up,0.5,,stimuli/card_100_transparent.png,220,100,3,0,3,0,1,,,,,,,,,,,,,,,,,,,,,,,,,,,,,,,,,,,,,,,,,,,,
,,,,62c0ccde4bd16c7f96a2959f,A,2024-07-02_14h53.33.454,Slot Machine Game,2023.1.3,Win32,60.75334143,,,,,,,,,,,,,,,,,,,167.001,4,0.171,,up,0.5,,stimuli/card_100_transparent.png,320,100,4,0,4,0,1,,,,,,,,,,,,,,,,,,,,,,,,,,,,,,,,,,,,,,,,,,,,
,,,,62c0ccde4bd16c7f96a2959f,A,2024-07-02_14h53.33.454,Slot Machine Game,2023.1.3,Win32,60.75334143,,,,,,,,,,,,,,,,,,,168.485,5,0.984,,up,0.5,,stimuli/card_10_transparent.png,330,10,5,0,5,0,1,,,,,,,,,,,,,,,,,,,,,,,,,,,,,,,,,,,,,,,,,,,,
,,,,62c0ccde4bd16c7f96a2959f,A,2024-07-02_14h53.33.454,Slot Machine Game,2023.1.3,Win32,60.75334143,,,,,,,,,,,,,,,,,,,170.801,6,0.051,,right,0.5,,stimuli/card_0_transparent.png,330,0,6,0,6,0,1,,,,,,,,,,,,,,,,,,,,,,,,,,,,,,,,,,,,,,,,,,,,
,,,,62c0ccde4bd16c7f96a2959f,A,2024-07-02_14h53.33.454,Slot Machine Game,2023.1.3,Win32,60.75334143,,,,,,,,,,,,,,,,,,,172.167,7,0.437,,up,0.5,,stimuli/card_100_transparent.png,430,100,7,0,7,0,1,,,,,,,,,,,,,,,,,,,,,,,,,,,,,,,,,,,,,,,,,,,,
,,,,62c0ccde4bd16c7f96a2959f,A,2024-07-02_14h53.33.454,Slot Machine Game,2023.1.3,Win32,60.75334143,,,,,,,,,,,,,,,,,,,173.917,8,0.232,,up,0.5,,stimuli/card_10_transparent.png,440,10,8,0,8,0,1,,,,,,,,,,,,,,,,,,,,,,,,,,,,,,,,,,,,,,,,,,,,
,,,,62c0ccde4bd16c7f96a2959f,A,2024-07-02_14h53.33.454,Slot Machine Game,2023.1.3,Win32,60.75334143,,,,,,,,,,,,,,,,,,,175.467,9,0.504,,left,0.5,,stimuli/card_10_transparent.png,450,10,9,0,9,0,1,,,,,,,,,,,,,,,,,,,,,,,,,,,,,,,,,,,,,,,,,,,,
,,,,62c0ccde4bd16c7f96a2959f,A,2024-07-02_14h53.33.454,Slot Machine Game,2023.1.3,Win32,60.75334143,,,,,,,,,,,,,,,,,,,177.284,10,0.246,,up,0.5,,stimuli/card_0_transparent.png,450,0,10,0,10,0,1,,,,,,,,,,,,,,,,,,,,,,,,,,,,,,,,,,,,,,,,,,,,
,,,,62c0ccde4bd16c7f96a2959f,A,2024-07-02_14h53.33.454,Slot Machine Game,2023.1.3,Win32,60.75334143,,,,,,,,,,,,,,,,,,,178.867,11,0.2,,up,0.5,,stimuli/card_0_transparent.png,450,0,11,0,11,0,1,,,,,,,,,,,,,,,,,,,,,,,,,,,,,,,,,,,,,,,,,,,,
,,,,62c0ccde4bd16c7f96a2959f,A,2024-07-02_14h53.33.454,Slot Machine Game,2023.1.3,Win32,60.75334143,,,,,,,,,,,,,,,,,,,180.4,12,0.121,,right,0.5,,stimuli/card_10_transparent.png,460,10,12,0,12,0,1,,,,,,,,,,,,,,,,,,,,,,,,,,,,,,,,,,,,,,,,,,,,
,,,,62c0ccde4bd16c7f96a2959f,A,2024-07-02_14h53.33.454,Slot Machine Game,2023.1.3,Win32,60.75334143,,,,,,,,,,,,,,,,,,,181.833,13,0.27,,left,0.5,,stimuli/card_10_transparent.png,470,10,13,0,13,0,1,,,,,,,,,,,,,,,,,,,,,,,,,,,,,,,,,,,,,,,,,,,,
,,,,62c0ccde4bd16c7f96a2959f,A,2024-07-02_14h53.33.454,Slot Machine Game,2023.1.3,Win32,60.75334143,,,,,,,,,,,,,,,,,,,183.417,14,0.219,,up,1.5,,stimuli/card_0_transparent.png,470,0,14,0,14,0,1,,,,,,,,,,,,,,,,,,,,,,,,,,,,,,,,,,,,,,,,,,,,
,,,,62c0ccde4bd16c7f96a2959f,A,2024-07-02_14h53.33.454,Slot Machine Game,2023.1.3,Win32,60.75334143,,,,,,,,,,,,,,,,,"[6,15]","[[1,3,2],[3,1,2]]",190.97,0,2.431,,up,1,,stimuli/card_0_transparent.png,0,0,0,0,0,0,1,,185.966,,,,,,,,,,,,,,,,,,,,,,,,,,,,,,,,,,,,,,,,,,
,,,,62c0ccde4bd16c7f96a2959f,A,2024-07-02_14h53.33.454,Slot Machine Game,2023.1.3,Win32,60.75334143,,,,,,,,,,,,,,,,,,,195.233,1,0.118,,left,1.5,,stimuli/card_100_transparent.png,100,100,1,0,1,0,1,,,,,,,,,,,,,,,,,,,,,,,,,,,,,,,,,,,,,,,,,,,,
,,,,62c0ccde4bd16c7f96a2959f,A,2024-07-02_14h53.33.454,Slot Machine Game,2023.1.3,Win32,60.75334143,,,,,,,,,,,,,,,,,,,197.683,2,0.096,,right,1,,stimuli/card_10_transparent.png,110,10,2,0,2,0,1,,,,,,,,,,,,,,,,,,,,,,,,,,,,,,,,,,,,,,,,,,,,
,,,,62c0ccde4bd16c7f96a2959f,A,2024-07-02_14h53.33.454,Slot Machine Game,2023.1.3,Win32,60.75334143,,,,,,,,,,,,,,,,,,,199.615,3,0.366,,up,0.5,,stimuli/card_0_transparent.png,110,0,3,0,3,0,1,,,,,,,,,,,,,,,,,,,,,,,,,,,,,,,,,,,,,,,,,,,,
,,,,62c0ccde4bd16c7f96a2959f,A,2024-07-02_14h53.33.454,Slot Machine Game,2023.1.3,Win32,60.75334143,,,,,,,,,,,,,,,,,,,201.299,4,0.288,,left,1,,stimuli/card_100_transparent.png,210,100,4,0,4,0,1,,,,,,,,,,,,,,,,,,,,,,,,,,,,,,,,,,,,,,,,,,,,
,,,,62c0ccde4bd16c7f96a2959f,A,2024-07-02_14h53.33.454,Slot Machine Game,2023.1.3,Win32,60.75334143,,,,,,,,,,,,,,,,,,,203.415,5,0.067,,up,1.5,,stimuli/card_10_transparent.png,220,10,5,0,5,0,1,,,,,,,,,,,,,,,,,,,,,,,,,,,,,,,,,,,,,,,,,,,,
,,,,62c0ccde4bd16c7f96a2959f,A,2024-07-02_14h53.33.454,Slot Machine Game,2023.1.3,Win32,60.75334143,,,,,,,,,,,,,,,,,,,205.798,6,0.416,,right,1,,stimuli/card_10_transparent.png,230,10,6,0,6,0,1,,,,,,,,,,,,,,,,,,,,,,,,,,,,,,,,,,,,,,,,,,,,
,,,,62c0ccde4bd16c7f96a2959f,A,2024-07-02_14h53.33.454,Slot Machine Game,2023.1.3,Win32,60.75334143,,,,,,,,,,,,,,,,,,,208.031,7,0.072,,up,0.5,,stimuli/card_100_transparent.png,330,100,7,0,7,0,1,,,,,,,,,,,,,,,,,,,,,,,,,,,,,,,,,,,,,,,,,,,,
,,,,62c0ccde4bd16c7f96a2959f,A,2024-07-02_14h53.33.454,Slot Machine Game,2023.1.3,Win32,60.75334143,,,,,,,,,,,,,,,,,,,209.415,8,0.234,,left,1.5,,stimuli/card_10_transparent.png,340,10,8,0,8,0,1,,,,,,,,,,,,,,,,,,,,,,,,,,,,,,,,,,,,,,,,,,,,
,,,,62c0ccde4bd16c7f96a2959f,A,2024-07-02_14h53.33.454,Slot Machine Game,2023.1.3,Win32,60.75334143,,,,,,,,,,,,,,,,,,,211.981,9,0.005,,up,0.5,,stimuli/card_0_transparent.png,340,0,9,0,9,0,1,,,,,,,,,,,,,,,,,,,,,,,,,,,,,,,,,,,,,,,,,,,,
,,,,62c0ccde4bd16c7f96a2959f,A,2024-07-02_14h53.33.454,Slot Machine Game,2023.1.3,Win32,60.75334143,,,,,,,,,,,,,,,,,,,213.298,10,0.332,,right,1,,stimuli/card_10_transparent.png,350,10,10,0,10,0,1,,,,,,,,,,,,,,,,,,,,,,,,,,,,,,,,,,,,,,,,,,,,
,,,,62c0ccde4bd16c7f96a2959f,A,2024-07-02_14h53.33.454,Slot Machine Game,2023.1.3,Win32,60.75334143,,,,,,,,,,,,,,,,,,,215.464,11,0.087,,right,0.5,,stimuli/card_10_transparent.png,360,10,11,0,11,0,1,,,,,,,,,,,,,,,,,,,,,,,,,,,,,,,,,,,,,,,,,,,,
,,,,62c0ccde4bd16c7f96a2959f,A,2024-07-02_14h53.33.454,Slot Machine Game,2023.1.3,Win32,60.75334143,,,,,,,,,,,,,,,,,,,216.864,12,0.39,,left,1,,stimuli/card_0_transparent.png,360,0,12,0,12,0,1,,,,,,,,,,,,,,,,,,,,,,,,,,,,,,,,,,,,,,,,,,,,
,,,,62c0ccde4bd16c7f96a2959f,A,2024-07-02_14h53.33.454,Slot Machine Game,2023.1.3,Win32,60.75334143,,,,,,,,,,,,,,,,,,,219.081,13,0.302,,right,1,,stimuli/card_100_transparent.png,460,100,13,0,13,0,1,,,,,,,,,,,,,,,,,,,,,,,,,,,,,,,,,,,,,,,,,,,,
,,,,62c0ccde4bd16c7f96a2959f,A,2024-07-02_14h53.33.454,Slot Machine Game,2023.1.3,Win32,60.75334143,,,,,,,,,,,,,,,,,,,221.197,14,0,,left,0.5,,stimuli/card_0_transparent.png,460,0,14,0,14,0,1,,,,,,,,,,,,,,,,,,,,,,,,,,,,,,,,,,,,,,,,,,,,
,,,,62c0ccde4bd16c7f96a2959f,A,2024-07-02_14h53.33.454,Slot Machine Game,2023.1.3,Win32,60.75334143,,,,,,,,,,,,,,,,,,,,,,,,,,,,,,,,,,,222.514,,,227.514,space,2.897,,,,,,,,,,,,,,,,,,,,,,,,,,,,,,,,,,,,,
,,,,62c0ccde4bd16c7f96a2959f,A,2024-07-02_14h53.33.454,Slot Machine Game,2023.1.3,Win32,60.75334143,,,,,,,,,,,,,,,,,,,,,,,,,,,,,,,,,,,,,,,,,,230.43,2,"[2,4,8,0,1,3,9,6,8,5]",space,0.58,,,,,,,,,,,,,,,,,,,,,,,,,,,,,,,
,,,,62c0ccde4bd16c7f96a2959f,A,2024-07-02_14h53.33.454,Slot Machine Game,2023.1.3,Win32,60.75334143,,,,,,,,,,,,,,,,,,,,,,,,,,,100,,,,,,,,,,,,,,,,,,,,,1,3,"[15,15]","[[3,1,2],[3,1,2]]",231.034,0,up,1.364,,1,0.3,"[3,1,2]",0.923530124,stimuli/card_100_transparent.png,100,0,0,0,0,1,,,,,,,,,,
,,,,62c0ccde4bd16c7f96a2959f,A,2024-07-02_14h53.33.454,Slot Machine Game,2023.1.3,Win32,60.75334143,,,,,,,,,,,,,,,,,,,,,,,,,,,100,,,,,,,,,,,,,,,,,,,,,1,3,,,234.23,1,left,0.336,,1.5,0.3,"[3,1,2]",0.664896103,stimuli/card_0_transparent.png,0,1,0,1,0,1,,,,,,,,,,
,,,,62c0ccde4bd16c7f96a2959f,A,2024-07-02_14h53.33.454,Slot Machine Game,2023.1.3,Win32,60.75334143,,,,,,,,,,,,,,,,,,,,,,,,,,,200,,,,,,,,,,,,,,,,,,,,,1,3,,,236.896,2,up,0.152,,1.5,0.3,"[3,1,2]",0.758335483,stimuli/card_100_transparent.png,100,2,0,2,0,1,,,,,,,,,,
,,,,62c0ccde4bd16c7f96a2959f,A,2024-07-02_14h53.33.454,Slot Machine Game,2023.1.3,Win32,60.75334143,,,,,,,,,,,,,,,,,,,,,,,,,,,300,,,,,,,,,,,,,,,,,,,,,1,3,,,239.362,3,left,0.018,,1,0.3,"[3,1,2]",0.005030484,stimuli/card_100_transparent.png,100,3,0,3,0,1,,,,,,,,,,
,,,,62c0ccde4bd16c7f96a2959f,A,2024-07-02_14h53.33.454,Slot Machine Game,2023.1.3,Win32,60.75334143,,,,,,,,,,,,,,,,,,,,,,,,,,,310,,,,,,,,,,,,,,,,,,,,,1,3,,,241.196,4,right,0.185,,1,0.3,"[3,1,2]",0.763599181,stimuli/card_10_transparent.png,10,4,0,4,0,1,,,,,,,,,,
,,,,62c0ccde4bd16c7f96a2959f,A,2024-07-02_14h53.33.454,Slot Machine Game,2023.1.3,Win32,60.75334143,,,,,,,,,,,,,,,,,,,,,,,,,,,310,,,,,,,,,,,,,,,,,,,,,1,3,,,243.196,5,left,0.192,,1,0.3,"[3,1,2]",0.83511122,stimuli/card_0_transparent.png,0,5,0,5,0,1,,,,,,,,,,
,,,,62c0ccde4bd16c7f96a2959f,A,2024-07-02_14h53.33.454,Slot Machine Game,2023.1.3,Win32,60.75334143,,,,,,,,,,,,,,,,,,,,,,,,,,,320,,,,,,,,,,,,,,,,,,,,,1,3,,,245.212,6,left,0.401,,1,0.3,"[3,1,2]",0.138598601,stimuli/card_10_transparent.png,10,6,0,6,0,1,,,,,,,,,,
,,,,62c0ccde4bd16c7f96a2959f,A,2024-07-02_14h53.33.454,Slot Machine Game,2023.1.3,Win32,60.75334143,,,,,,,,,,,,,,,,,,,,,,,,,,,330,,,,,,,,,,,,,,,,,,,,,1,3,,,247.429,7,right,0.105,,1.5,0.3,"[3,1,2]",0.605674775,stimuli/card_10_transparent.png,10,7,0,7,0,1,,,,,,,,,,
,,,,62c0ccde4bd16c7f96a2959f,A,2024-07-02_14h53.33.454,Slot Machine Game,2023.1.3,Win32,60.75334143,,,,,,,,,,,,,,,,,,,,,,,,,,,430,,,,,,,,,,,,,,,,,,,,,1,3,,,249.861,8,up,0.112,,1,0.3,"[3,1,2]",0.680892797,stimuli/card_100_transparent.png,100,8,0,8,0,1,,,,,,,,,,
,,,,62c0ccde4bd16c7f96a2959f,A,2024-07-02_14h53.33.454,Slot Machine Game,2023.1.3,Win32,60.75334143,,,,,,,,,,,,,,,,,,,,,,,,,,,440,,,,,,,,,,,,,,,,,,,,,1,3,,,251.795,9,up,0.025,,1,0.3,"[3,1,2]",0.195539797,stimuli/card_10_transparent.png,10,9,0,9,0,1,,,,,,,,,,
,,,,62c0ccde4bd16c7f96a2959f,A,2024-07-02_14h53.33.454,Slot Machine Game,2023.1.3,Win32,60.75334143,,,,,,,,,,,,,,,,,,,,,,,,,,,540,,,,,,,,,,,,,,,,,,,,,1,3,,,253.628,10,up,0,,0.5,0.3,"[3,1,2]",0.672768545,stimuli/card_100_transparent.png,100,10,0,10,0,1,,,,,,,,,,
,,,,62c0ccde4bd16c7f96a2959f,A,2024-07-02_14h53.33.454,Slot Machine Game,2023.1.3,Win32,60.75334143,,,,,,,,,,,,,,,,,,,,,,,,,,,540,,,,,,,,,,,,,,,,,,,,,1,3,,,254.945,11,up,0.249,,0.5,0.3,"[3,1,2]",0.084131635,stimuli/card_0_transparent.png,0,11,0,11,0,1,,,,,,,,,,
,,,,62c0ccde4bd16c7f96a2959f,A,2024-07-02_14h53.33.454,Slot Machine Game,2023.1.3,Win32,60.75334143,,,,,,,,,,,,,,,,,,,,,,,,,,,540,,,,,,,,,,,,,,,,,,,,,1,3,,,256.528,12,left,0.25,,1,0.3,"[3,1,2]",0.685590976,stimuli/card_0_transparent.png,0,12,0,12,0,1,,,,,,,,,,
,,,,62c0ccde4bd16c7f96a2959f,A,2024-07-02_14h53.33.454,Slot Machine Game,2023.1.3,Win32,60.75334143,,,,,,,,,,,,,,,,,,,,,,,,,,,540,,,,,,,,,,,,,,,,,,,,,1,3,,,258.611,13,right,0.484,,1.5,0.3,"[3,1,2]",0.011362342,stimuli/card_0_transparent.png,0,13,0,13,0,1,,,,,,,,,,
,,,,62c0ccde4bd16c7f96a2959f,A,2024-07-02_14h53.33.454,Slot Machine Game,2023.1.3,Win32,60.75334143,,,,,,,,,,,,,,,,,,,,,,,,,,,640,,,,,,,,,,,,,,,,,,,,,1,3,,,261.427,14,up,0.351,,0.5,0.3,"[3,1,2]",0.684769369,stimuli/card_100_transparent.png,100,14,0,14,0,1,,,,,,,,,,
,,,,62c0ccde4bd16c7f96a2959f,A,2024-07-02_14h53.33.454,Slot Machine Game,2023.1.3,Win32,60.75334143,,,,,,,,,,,,,,,,,,,,,,,,,,,,,,,,,,,263.095,,,,,,,,,,,,,,,,,,,,,,,,,,,,,,,,,[640],0,0,0,0,1,,,,
,,,,62c0ccde4bd16c7f96a2959f,A,2024-07-02_14h53.33.454,Slot Machine Game,2023.1.3,Win32,60.75334143,,,,,,,,,,,,,,,,,,,,,,,,,,,10,,,,,,,,,,,,,,,,,,,,,2,5,"[5,15]","[[1,2,3],[3,1,2]]",268.097,0,up,0.113,,1.5,0.3,"[1,2,3]",0.359504989,stimuli/card_10_transparent.png,10,0,0,0,0,1,,,,,,,,,,
,,,,62c0ccde4bd16c7f96a2959f,A,2024-07-02_14h53.33.454,Slot Machine Game,2023.1.3,Win32,60.75334143,,,,,,,,,,,,,,,,,,,,,,,,,,,110,,,,,,,,,,,,,,,,,,,,,2,5,,,270.544,1,left,0.676,,0.5,0.3,"[1,2,3]",0.219197665,stimuli/card_100_transparent.png,100,1,0,1,0,1,,,,,,,,,,
,,,,62c0ccde4bd16c7f96a2959f,A,2024-07-02_14h53.33.454,Slot Machine Game,2023.1.3,Win32,60.75334143,,,,,,,,,,,,,,,,,,,,,,,,,,,210,,,,,,,,,,,,,,,,,,,,,2,5,,,272.526,2,left,0.163,,1.5,0.3,"[1,2,3]",0.341348703,stimuli/card_100_transparent.png,100,2,0,2,0,1,,,,,,,,,,
,,,,62c0ccde4bd16c7f96a2959f,A,2024-07-02_14h53.33.454,Slot Machine Game,2023.1.3,Win32,60.75334143,,,,,,,,,,,,,,,,,,,,,,,,,,,310,,,,,,,,,,,,,,,,,,,,,2,5,,,275.01,3,up,0.214,,1.5,0.3,"[1,2,3]",0.116721067,stimuli/card_100_transparent.png,100,3,0,3,0,1,,,,,,,,,,
,,,,62c0ccde4bd16c7f96a2959f,A,2024-07-02_14h53.33.454,Slot Machine Game,2023.1.3,Win32,60.75334143,,,,,,,,,,,,,,,,,,,,,,,,,,,320,,,,,,,,,,,,,,,,,,,,,2,5,,,277.543,4,up,0.258,,0.5,0.3,"[1,2,3]",0.401547973,stimuli/card_10_transparent.png,10,4,0,4,0,1,,,,,,,,,,
,,,,62c0ccde4bd16c7f96a2959f,A,2024-07-02_14h53.33.454,Slot Machine Game,2023.1.3,Win32,60.75334143,,,,,,,,,,,,,,,,,,,,,,,,,,,420,,,,,,,,,,,,,,,,,,,,,2,5,,,279.11,5,up,0,,1.5,0.3,"[3,1,2]",0.813906967,stimuli/card_100_transparent.png,100,5,0,5,0,1,,,,,,,,,,
,,,,62c0ccde4bd16c7f96a2959f,A,2024-07-02_14h53.33.454,Slot Machine Game,2023.1.3,Win32,60.75334143,,,,,,,,,,,,,,,,,,,,,,,,,,,520,,,,,,,,,,,,,,,,,,,,,2,5,,,281.443,6,up,0.052,,0.5,0.3,"[3,1,2]",0.902047816,stimuli/card_100_transparent.png,100,6,0,6,0,1,,,,,,,,,,
,,,,62c0ccde4bd16c7f96a2959f,A,2024-07-02_14h53.33.454,Slot Machine Game,2023.1.3,Win32,60.75334143,,,,,,,,,,,,,,,,,,,,,,,,,,,620,,,,,,,,,,,,,,,,,,,,,2,5,,,282.826,7,up,0.202,,0.5,0.3,"[3,1,2]",0.474530241,stimuli/card_100_transparent.png,100,7,0,7,0,1,,,,,,,,,,
,,,,62c0ccde4bd16c7f96a2959f,A,2024-07-02_14h53.33.454,Slot Machine Game,2023.1.3,Win32,60.75334143,,,,,,,,,,,,,,,,,,,,,,,,,,,720,,,,,,,,,,,,,,,,,,,,,2,5,,,284.343,8,up,0.073,,0.5,0.3,"[3,1,2]",0.232644616,stimuli/card_100_transparent.png,100,8,0,8,0,1,,,,,,,,,,
,,,,62c0ccde4bd16c7f96a2959f,A,2024-07-02_14h53.33.454,Slot Machine Game,2023.1.3,Win32,60.75334143,,,,,,,,,,,,,,,,,,,,,,,,,,,820,,,,,,,,,,,,,,,,,,,,,2,5,,,285.726,9,up,0.069,,0.5,0.3,"[3,1,2]",0.511936584,stimuli/card_100_transparent.png,100,9,0,9,0,1,,,,,,,,,,
,,,,62c0ccde4bd16c7f96a2959f,A,2024-07-02_14h53.33.454,Slot Machine Game,2023.1.3,Win32,60.75334143,,,,,,,,,,,,,,,,,,,,,,,,,,,920,,,,,,,,,,,,,,,,,,,,,2,5,,,287.126,10,up,0.036,,1,0.3,"[3,1,2]",0.538055635,stimuli/card_100_transparent.png,100,10,0,10,0,1,,,,,,,,,,
,,,,62c0ccde4bd16c7f96a2959f,A,2024-07-02_14h53.33.454,Slot Machine Game,2023.1.3,Win32,60.75334143,,,,,,,,,,,,,,,,,,,,,,,,,,,1020,,,,,,,,,,,,,,,,,,,,,2,5,,,288.993,11,up,0.2,,1,0.3,"[3,1,2]",0.67228669,stimuli/card_100_transparent.png,100,11,0,11,0,1,,,,,,,,,,
,,,,62c0ccde4bd16c7f96a2959f,A,2024-07-02_14h53.33.454,Slot Machine Game,2023.1.3,Win32,60.75334143,,,,,,,,,,,,,,,,,,,,,,,,,,,1120,,,,,,,,,,,,,,,,,,,,,2,5,,,291.025,12,up,0.079,,0.5,0.3,"[3,1,2]",0.880551646,stimuli/card_100_transparent.png,100,12,0,12,0,1,,,,,,,,,,
,,,,62c0ccde4bd16c7f96a2959f,A,2024-07-02_14h53.33.454,Slot Machine Game,2023.1.3,Win32,60.75334143,,,,,,,,,,,,,,,,,,,,,,,,,,,1220,,,,,,,,,,,,,,,,,,,,,2,5,,,292.425,13,up,0.03,,0.5,0.3,"[3,1,2]",0.524122022,stimuli/card_100_transparent.png,100,13,0,13,0,1,,,,,,,,,,
,,,,62c0ccde4bd16c7f96a2959f,A,2024-07-02_14h53.33.454,Slot Machine Game,2023.1.3,Win32,60.75334143,,,,,,,,,,,,,,,,,,,,,,,,,,,1320,,,,,,,,,,,,,,,,,,,,,2,5,,,293.775,14,up,0.081,,0.5,0.3,"[3,1,2]",0.757836468,stimuli/card_100_transparent.png,100,14,0,14,0,1,,,,,,,,,,
,,,,62c0ccde4bd16c7f96a2959f,A,2024-07-02_14h53.33.454,Slot Machine Game,2023.1.3,Win32,60.75334143,,,,,,,,,,,,,,,,,,,,,,,,,,,,,,,,,,,295.176,,,,,,,,,,,,,,,,,,,,,,,,,,,,,,,,,"[640,1320]",1,0,1,0,1,,,,
,,,,62c0ccde4bd16c7f96a2959f,A,2024-07-02_14h53.33.454,Slot Machine Game,2023.1.3,Win32,60.75334143,,,,,,,,,,,,,,,,,,,,,,,,,,,10,,,,,,,,,,,,,,,,,,,,,3,9,"[8,15]","[[3,2,1],[3,1,2]]",300.178,0,up,0.168,,1,0.3,"[3,2,1]",0.678063197,stimuli/card_10_transparent.png,10,0,0,0,0,1,,,,,,,,,,
,,,,62c0ccde4bd16c7f96a2959f,A,2024-07-02_14h53.33.454,Slot Machine Game,2023.1.3,Win32,60.75334143,,,,,,,,,,,,,,,,,,,,,,,,,,,20,,,,,,,,,,,,,,,,,,,,,3,9,,,302.175,1,up,0.133,,1.5,0.3,"[3,2,1]",0.484563379,stimuli/card_10_transparent.png,10,1,0,1,0,1,,,,,,,,,,
,,,,62c0ccde4bd16c7f96a2959f,A,2024-07-02_14h53.33.454,Slot Machine Game,2023.1.3,Win32,60.75334143,,,,,,,,,,,,,,,,,,,,,,,,,,,20,,,,,,,,,,,,,,,,,,,,,3,9,,,304.624,2,left,0.371,,1.5,0.3,"[3,2,1]",0.311892088,stimuli/card_0_transparent.png,0,2,0,2,0,1,,,,,,,,,,
,,,,62c0ccde4bd16c7f96a2959f,A,2024-07-02_14h53.33.454,Slot Machine Game,2023.1.3,Win32,60.75334143,,,,,,,,,,,,,,,,,,,,,,,,,,,30,,,,,,,,,,,,,,,,,,,,,3,9,,,307.308,3,up,0.035,,1,0.3,"[3,2,1]",0.367549428,stimuli/card_10_transparent.png,10,3,0,3,0,1,,,,,,,,,,
,,,,62c0ccde4bd16c7f96a2959f,A,2024-07-02_14h53.33.454,Slot Machine Game,2023.1.3,Win32,60.75334143,,,,,,,,,,,,,,,,,,,,,,,,,,,130,,,,,,,,,,,,,,,,,,,,,3,9,,,309.174,4,right,0.184,,1,0.3,"[3,2,1]",0.217294857,stimuli/card_100_transparent.png,100,4,0,4,0,1,,,,,,,,,,
,,,,62c0ccde4bd16c7f96a2959f,A,2024-07-02_14h53.33.454,Slot Machine Game,2023.1.3,Win32,60.75334143,,,,,,,,,,,,,,,,,,,,,,,,,,,230,,,,,,,,,,,,,,,,,,,,,3,9,,,311.174,5,right,0.133,,1.5,0.3,"[3,2,1]",0.229717246,stimuli/card_100_transparent.png,100,5,0,5,0,1,,,,,,,,,,
,,,,62c0ccde4bd16c7f96a2959f,A,2024-07-02_14h53.33.454,Slot Machine Game,2023.1.3,Win32,60.75334143,,,,,,,,,,,,,,,,,,,,,,,,,,,230,,,,,,,,,,,,,,,,,,,,,3,9,,,313.64,6,right,0,,0.5,0.3,"[3,2,1]",0.061377701,stimuli/card_0_transparent.png,0,6,0,6,0,1,,,,,,,,,,
,,,,62c0ccde4bd16c7f96a2959f,A,2024-07-02_14h53.33.454,Slot Machine Game,2023.1.3,Win32,60.75334143,,,,,,,,,,,,,,,,,,,,,,,,,,,330,,,,,,,,,,,,,,,,,,,,,3,9,,,314.957,7,right,0.369,,0.5,0.3,"[3,2,1]",0.629088707,stimuli/card_100_transparent.png,100,7,0,7,0,1,,,,,,,,,,
,,,,62c0ccde4bd16c7f96a2959f,A,2024-07-02_14h53.33.454,Slot Machine Game,2023.1.3,Win32,60.75334143,,,,,,,,,,,,,,,,,,,,,,,,,,,430,,,,,,,,,,,,,,,,,,,,,3,9,,,316.658,8,right,0.003,,0.5,0.3,"[3,1,2]",0.117139155,stimuli/card_100_transparent.png,100,8,0,8,0,1,,,,,,,,,,
,,,,62c0ccde4bd16c7f96a2959f,A,2024-07-02_14h53.33.454,Slot Machine Game,2023.1.3,Win32,60.75334143,,,,,,,,,,,,,,,,,,,,,,,,,,,440,,,,,,,,,,,,,,,,,,,,,3,9,,,317.99,9,right,0.068,,0.5,0.3,"[3,1,2]",0.615291326,stimuli/card_10_transparent.png,10,9,0,9,0,1,,,,,,,,,,
,,,,62c0ccde4bd16c7f96a2959f,A,2024-07-02_14h53.33.454,Slot Machine Game,2023.1.3,Win32,60.75334143,,,,,,,,,,,,,,,,,,,,,,,,,,,450,,,,,,,,,,,,,,,,,,,,,3,9,,,319.373,10,right,0,,0.5,0.3,"[3,1,2]",0.62148785,stimuli/card_10_transparent.png,10,10,0,10,0,1,,,,,,,,,,
,,,,62c0ccde4bd16c7f96a2959f,A,2024-07-02_14h53.33.454,Slot Machine Game,2023.1.3,Win32,60.75334143,,,,,,,,,,,,,,,,,,,,,,,,,,,460,,,,,,,,,,,,,,,,,,,,,3,9,,,320.69,11,right,0.784,,0.5,0.3,"[3,1,2]",0.64612659,stimuli/card_10_transparent.png,10,11,0,11,0,1,,,,,,,,,,
,,,,62c0ccde4bd16c7f96a2959f,A,2024-07-02_14h53.33.454,Slot Machine Game,2023.1.3,Win32,60.75334143,,,,,,,,,,,,,,,,,,,,,,,,,,,460,,,,,,,,,,,,,,,,,,,,,3,9,,,322.807,12,up,0.515,,0.5,0.3,"[3,1,2]",0.057902136,stimuli/card_0_transparent.png,0,12,0,12,0,1,,,,,,,,,,
,,,,62c0ccde4bd16c7f96a2959f,A,2024-07-02_14h53.33.454,Slot Machine Game,2023.1.3,Win32,60.75334143,,,,,,,,,,,,,,,,,,,,,,,,,,,460,,,,,,,,,,,,,,,,,,,,,3,9,,,324.656,13,left,0.318,,1.5,0.3,"[3,1,2]",0.605899591,stimuli/card_0_transparent.png,0,13,0,13,0,1,,,,,,,,,,
,,,,62c0ccde4bd16c7f96a2959f,A,2024-07-02_14h53.33.454,Slot Machine Game,2023.1.3,Win32,60.75334143,,,,,,,,,,,,,,,,,,,,,,,,,,,460,,,,,,,,,,,,,,,,,,,,,3,9,,,327.289,14,left,0.125,,0.5,0.3,"[3,1,2]",0.823527154,stimuli/card_0_transparent.png,0,14,0,14,0,1,,,,,,,,,,
,,,,62c0ccde4bd16c7f96a2959f,A,2024-07-02_14h53.33.454,Slot Machine Game,2023.1.3,Win32,60.75334143,,,,,,,,,,,,,,,,,,,,,,,,,,,,,,,,,,,328.722,,,,,,,,,,,,,,,,,,,,,,,,,,,,,,,,,"[640,1320,460]",2,0,2,0,1,,,,
,,,,62c0ccde4bd16c7f96a2959f,A,2024-07-02_14h53.33.454,Slot Machine Game,2023.1.3,Win32,60.75334143,,,,,,,,,,,,,,,,,,,,,,,,,,,100,,,,,,,,,,,,,,,,,,,,,4,1,"[12,15]","[[2,1,3],[2,3,1]]",333.726,0,left,0.351,,1,0.3,"[2,1,3]",0.131165249,stimuli/card_100_transparent.png,100,0,0,0,0,1,,,,,,,,,,
,,,,62c0ccde4bd16c7f96a2959f,A,2024-07-02_14h53.33.454,Slot Machine Game,2023.1.3,Win32,60.75334143,,,,,,,,,,,,,,,,,,,,,,,,,,,100,,,,,,,,,,,,,,,,,,,,,4,1,,,335.905,1,right,0.371,,1,0.3,"[2,1,3]",0.538629429,stimuli/card_0_transparent.png,0,1,0,1,0,1,,,,,,,,,,
,,,,62c0ccde4bd16c7f96a2959f,A,2024-07-02_14h53.33.454,Slot Machine Game,2023.1.3,Win32,60.75334143,,,,,,,,,,,,,,,,,,,,,,,,,,,200,,,,,,,,,,,,,,,,,,,,,4,1,,,338.106,2,up,0,,1.5,0.3,"[2,1,3]",0.490037562,stimuli/card_100_transparent.png,100,2,0,2,0,1,,,,,,,,,,
,,,,62c0ccde4bd16c7f96a2959f,A,2024-07-02_14h53.33.454,Slot Machine Game,2023.1.3,Win32,60.75334143,,,,,,,,,,,,,,,,,,,,,,,,,,,300,,,,,,,,,,,,,,,,,,,,,4,1,,,340.438,3,up,0.231,,0.5,0.3,"[2,1,3]",0.685988714,stimuli/card_100_transparent.png,100,3,0,3,0,1,,,,,,,,,,
,,,,62c0ccde4bd16c7f96a2959f,A,2024-07-02_14h53.33.454,Slot Machine Game,2023.1.3,Win32,60.75334143,,,,,,,,,,,,,,,,,,,,,,,,,,,400,,,,,,,,,,,,,,,,,,,,,4,1,,,341.988,4,up,0.071,,1,0.3,"[2,1,3]",0.254160347,stimuli/card_100_transparent.png,100,4,0,4,0,1,,,,,,,,,,
,,,,62c0ccde4bd16c7f96a2959f,A,2024-07-02_14h53.33.454,Slot Machine Game,2023.1.3,Win32,60.75334143,,,,,,,,,,,,,,,,,,,,,,,,,,,500,,,,,,,,,,,,,,,,,,,,,4,1,,,343.871,5,up,0.651,,1,0.3,"[2,1,3]",0.688699707,stimuli/card_100_transparent.png,100,5,0,5,0,1,,,,,,,,,,
,,,,62c0ccde4bd16c7f96a2959f,A,2024-07-02_14h53.33.454,Slot Machine Game,2023.1.3,Win32,60.75334143,,,,,,,,,,,,,,,,,,,,,,,,,,,600,,,,,,,,,,,,,,,,,,,,,4,1,,,346.337,6,up,0.186,,1.5,0.3,"[2,1,3]",0.957717101,stimuli/card_100_transparent.png,100,6,0,6,0,1,,,,,,,,,,
,,,,62c0ccde4bd16c7f96a2959f,A,2024-07-02_14h53.33.454,Slot Machine Game,2023.1.3,Win32,60.75334143,,,,,,,,,,,,,,,,,,,,,,,,,,,700,,,,,,,,,,,,,,,,,,,,,4,1,,,348.838,7,up,0.366,,1.5,0.3,"[2,1,3]",0.36164622,stimuli/card_100_transparent.png,100,7,0,7,0,1,,,,,,,,,,
,,,,62c0ccde4bd16c7f96a2959f,A,2024-07-02_14h53.33.454,Slot Machine Game,2023.1.3,Win32,60.75334143,,,,,,,,,,,,,,,,,,,,,,,,,,,800,,,,,,,,,,,,,,,,,,,,,4,1,,,351.538,8,up,0.239,,1.5,0.3,"[2,1,3]",0.879752737,stimuli/card_100_transparent.png,100,8,0,8,0,1,,,,,,,,,,
,,,,62c0ccde4bd16c7f96a2959f,A,2024-07-02_14h53.33.454,Slot Machine Game,2023.1.3,Win32,60.75334143,,,,,,,,,,,,,,,,,,,,,,,,,,,900,,,,,,,,,,,,,,,,,,,,,4,1,,,354.104,9,up,0.182,,1,0.3,"[2,1,3]",0.346764291,stimuli/card_100_transparent.png,100,9,0,9,0,1,,,,,,,,,,
,,,,62c0ccde4bd16c7f96a2959f,A,2024-07-02_14h53.33.454,Slot Machine Game,2023.1.3,Win32,60.75334143,,,,,,,,,,,,,,,,,,,,,,,,,,,1000,,,,,,,,,,,,,,,,,,,,,4,1,,,356.121,10,up,0.182,,1.5,0.3,"[2,1,3]",0.211334321,stimuli/card_100_transparent.png,100,10,0,10,0,1,,,,,,,,,,
,,,,62c0ccde4bd16c7f96a2959f,A,2024-07-02_14h53.33.454,Slot Machine Game,2023.1.3,Win32,60.75334143,,,,,,,,,,,,,,,,,,,,,,,,,,,1100,,,,,,,,,,,,,,,,,,,,,4,1,,,358.637,11,up,0.216,,1,0.3,"[2,1,3]",0.653580447,stimuli/card_100_transparent.png,100,11,0,11,0,1,,,,,,,,,,
,,,,62c0ccde4bd16c7f96a2959f,A,2024-07-02_14h53.33.454,Slot Machine Game,2023.1.3,Win32,60.75334143,,,,,,,,,,,,,,,,,,,,,,,,,,,1100,,,,,,,,,,,,,,,,,,,,,4,1,,,360.687,12,up,0.181,,1.5,0.3,"[2,3,1]",0.42643484,stimuli/card_0_transparent.png,0,12,0,12,0,1,,,,,,,,,,
,,,,62c0ccde4bd16c7f96a2959f,A,2024-07-02_14h53.33.454,Slot Machine Game,2023.1.3,Win32,60.75334143,,,,,,,,,,,,,,,,,,,,,,,,,,,1200,,,,,,,,,,,,,,,,,,,,,4,1,,,363.187,13,up,0.014,,0.5,0.3,"[2,3,1]",0.079212097,stimuli/card_100_transparent.png,100,13,0,13,0,1,,,,,,,,,,
,,,,62c0ccde4bd16c7f96a2959f,A,2024-07-02_14h53.33.454,Slot Machine Game,2023.1.3,Win32,60.75334143,,,,,,,,,,,,,,,,,,,,,,,,,,,1200,,,,,,,,,,,,,,,,,,,,,4,1,,,364.52,14,up,0.147,,0.5,0.3,"[2,3,1]",0.373702381,stimuli/card_0_transparent.png,0,14,0,14,0,1,,,,,,,,,,
,,,,62c0ccde4bd16c7f96a2959f,A,2024-07-02_14h53.33.454,Slot Machine Game,2023.1.3,Win32,60.75334143,,,,,,,,,,,,,,,,,,,,,,,,,,,,,,,,,,,365.987,,,,,,,,,,,,,,,,,,,,,,,,,,,,,,,,,"[640,1320,460,1200]",3,0,3,0,1,,,,
,,,,62c0ccde4bd16c7f96a2959f,A,2024-07-02_14h53.33.454,Slot Machine Game,2023.1.3,Win32,60.75334143,,,,,,,,,,,,,,,,,,,,,,,,,,,0,,,,,,,,,,,,,,,,,,,,,5,2,"[6,15]","[[1,3,2],[3,2,1]]",370.989,0,up,0,,1.5,0.3,"[1,3,2]",0.754467587,stimuli/card_0_transparent.png,0,0,0,0,0,1,,,,,,,,,,
,,,,62c0ccde4bd16c7f96a2959f,A,2024-07-02_14h53.33.454,Slot Machine Game,2023.1.3,Win32,60.75334143,,,,,,,,,,,,,,,,,,,,,,,,,,,100,,,,,,,,,,,,,,,,,,,,,5,2,,,373.319,1,left,0,,1,0.3,"[1,3,2]",0.720586353,stimuli/card_100_transparent.png,100,1,0,1,0,1,,,,,,,,,,
,,,,62c0ccde4bd16c7f96a2959f,A,2024-07-02_14h53.33.454,Slot Machine Game,2023.1.3,Win32,60.75334143,,,,,,,,,,,,,,,,,,,,,,,,,,,100,,,,,,,,,,,,,,,,,,,,,5,2,,,375.152,2,left,0.787,,0.5,0.3,"[1,3,2]",0.045625207,stimuli/card_0_transparent.png,0,2,0,2,0,1,,,,,,,,,,
,,,,62c0ccde4bd16c7f96a2959f,A,2024-07-02_14h53.33.454,Slot Machine Game,2023.1.3,Win32,60.75334143,,,,,,,,,,,,,,,,,,,,,,,,,,,100,,,,,,,,,,,,,,,,,,,,,5,2,,,377.253,3,up,0.253,,1,0.3,"[1,3,2]",0.320611379,stimuli/card_0_transparent.png,0,3,0,3,0,1,,,,,,,,,,
,,,,62c0ccde4bd16c7f96a2959f,A,2024-07-02_14h53.33.454,Slot Machine Game,2023.1.3,Win32,60.75334143,,,,,,,,,,,,,,,,,,,,,,,,,,,110,,,,,,,,,,,,,,,,,,,,,5,2,,,379.335,4,right,0.084,,1.5,0.3,"[1,3,2]",0.521867929,stimuli/card_10_transparent.png,10,4,0,4,0,1,,,,,,,,,,
,,,,62c0ccde4bd16c7f96a2959f,A,2024-07-02_14h53.33.454,Slot Machine Game,2023.1.3,Win32,60.75334143,,,,,,,,,,,,,,,,,,,,,,,,,,,120,,,,,,,,,,,,,,,,,,,,,5,2,,,381.737,5,right,1.202,,1.5,0.3,"[1,3,2]",0.67105975,stimuli/card_10_transparent.png,10,5,0,5,0,1,,,,,,,,,,
,,,,62c0ccde4bd16c7f96a2959f,A,2024-07-02_14h53.33.454,Slot Machine Game,2023.1.3,Win32,60.75334143,,,,,,,,,,,,,,,,,,,,,,,,,,,130,,,,,,,,,,,,,,,,,,,,,5,2,,,385.268,6,up,0.017,,0.5,0.3,"[3,2,1]",0.441700568,stimuli/card_10_transparent.png,10,6,0,6,0,1,,,,,,,,,,
,,,,62c0ccde4bd16c7f96a2959f,A,2024-07-02_14h53.33.454,Slot Machine Game,2023.1.3,Win32,60.75334143,,,,,,,,,,,,,,,,,,,,,,,,,,,140,,,,,,,,,,,,,,,,,,,,,5,2,,,386.602,7,up,0.039,,1.5,0.3,"[3,2,1]",0.633190344,stimuli/card_10_transparent.png,10,7,0,7,0,1,,,,,,,,,,
,,,,62c0ccde4bd16c7f96a2959f,A,2024-07-02_14h53.33.454,Slot Machine Game,2023.1.3,Win32,60.75334143,,,,,,,,,,,,,,,,,,,,,,,,,,,240,,,,,,,,,,,,,,,,,,,,,5,2,,,388.968,8,left,0.051,,0.5,0.3,"[3,2,1]",0.082108678,stimuli/card_100_transparent.png,100,8,0,8,0,1,,,,,,,,,,
,,,,62c0ccde4bd16c7f96a2959f,A,2024-07-02_14h53.33.454,Slot Machine Game,2023.1.3,Win32,60.75334143,,,,,,,,,,,,,,,,,,,,,,,,,,,240,,,,,,,,,,,,,,,,,,,,,5,2,,,390.352,9,left,0.018,,1,0.3,"[3,2,1]",0.85082518,stimuli/card_0_transparent.png,0,9,0,9,0,1,,,,,,,,,,
,,,,62c0ccde4bd16c7f96a2959f,A,2024-07-02_14h53.33.454,Slot Machine Game,2023.1.3,Win32,60.75334143,,,,,,,,,,,,,,,,,,,,,,,,,,,240,,,,,,,,,,,,,,,,,,,,,5,2,,,392.201,10,left,0.167,,0.5,0.3,"[3,2,1]",0.252174647,stimuli/card_0_transparent.png,0,10,0,10,0,1,,,,,,,,,,
,,,,62c0ccde4bd16c7f96a2959f,A,2024-07-02_14h53.33.454,Slot Machine Game,2023.1.3,Win32,60.75334143,,,,,,,,,,,,,,,,,,,,,,,,,,,240,,,,,,,,,,,,,,,,,,,,,5,2,,,393.685,11,left,0.166,,1.5,0.3,"[3,2,1]",0.448987132,stimuli/card_0_transparent.png,0,11,0,11,0,1,,,,,,,,,,
,,,,62c0ccde4bd16c7f96a2959f,A,2024-07-02_14h53.33.454,Slot Machine Game,2023.1.3,Win32,60.75334143,,,,,,,,,,,,,,,,,,,,,,,,,,,250,,,,,,,,,,,,,,,,,,,,,5,2,,,396.185,12,up,0.204,,1.5,0.3,"[3,2,1]",0.276381499,stimuli/card_10_transparent.png,10,12,0,12,0,1,,,,,,,,,,
,,,,62c0ccde4bd16c7f96a2959f,A,2024-07-02_14h53.33.454,Slot Machine Game,2023.1.3,Win32,60.75334143,,,,,,,,,,,,,,,,,,,,,,,,,,,260,,,,,,,,,,,,,,,,,,,,,5,2,,,398.717,13,up,0.199,,1,0.3,"[3,2,1]",0.222700256,stimuli/card_10_transparent.png,10,13,0,13,0,1,,,,,,,,,,
,,,,62c0ccde4bd16c7f96a2959f,A,2024-07-02_14h53.33.454,Slot Machine Game,2023.1.3,Win32,60.75334143,,,,,,,,,,,,,,,,,,,,,,,,,,,360,,,,,,,,,,,,,,,,,,,,,5,2,,,400.734,14,right,0.249,,1,0.3,"[3,2,1]",0.277984319,stimuli/card_100_transparent.png,100,14,0,14,0,1,,,,,,,,,,
,,,,62c0ccde4bd16c7f96a2959f,A,2024-07-02_14h53.33.454,Slot Machine Game,2023.1.3,Win32,60.75334143,,,,,,,,,,,,,,,,,,,,,,,,,,,,,,,,,,,402.8,,,,,,,,,,,,,,,,,,,,,,,,,,,,,,,,,"[640,1320,460,1200,360]",4,0,4,0,1,,,,
,,,,62c0ccde4bd16c7f96a2959f,A,2024-07-02_14h53.33.454,Slot Machine Game,2023.1.3,Win32,60.75334143,,,,,,,,,,,,,,,,,,,,,,,,,,,100,,,,,,,,,,,,,,,,,,,,,6,4,"[7,15]","[[2,3,1],[1,2,3]]",407.803,0,right,0.239,,1,0.3,"[2,3,1]",0.853961184,stimuli/card_100_transparent.png,100,0,0,0,0,1,,,,,,,,,,
,,,,62c0ccde4bd16c7f96a2959f,A,2024-07-02_14h53.33.454,Slot Machine Game,2023.1.3,Win32,60.75334143,,,,,,,,,,,,,,,,,,,,,,,,,,,200,,,,,,,,,,,,,,,,,,,,,6,4,,,409.867,1,right,0.132,,1,0.3,"[2,3,1]",0.342014673,stimuli/card_100_transparent.png,100,1,0,1,0,1,,,,,,,,,,
,,,,62c0ccde4bd16c7f96a2959f,A,2024-07-02_14h53.33.454,Slot Machine Game,2023.1.3,Win32,60.75334143,,,,,,,,,,,,,,,,,,,,,,,,,,,210,,,,,,,,,,,,,,,,,,,,,6,4,,,411.833,2,right,0.041,,1,0.3,"[2,3,1]",0.147908556,stimuli/card_10_transparent.png,10,2,0,2,0,1,,,,,,,,,,
,,,,62c0ccde4bd16c7f96a2959f,A,2024-07-02_14h53.33.454,Slot Machine Game,2023.1.3,Win32,60.75334143,,,,,,,,,,,,,,,,,,,,,,,,,,,310,,,,,,,,,,,,,,,,,,,,,6,4,,,413.684,3,right,0.068,,1,0.3,"[2,3,1]",0.609378977,stimuli/card_100_transparent.png,100,3,0,3,0,1,,,,,,,,,,
,,,,62c0ccde4bd16c7f96a2959f,A,2024-07-02_14h53.33.454,Slot Machine Game,2023.1.3,Win32,60.75334143,,,,,,,,,,,,,,,,,,,,,,,,,,,410,,,,,,,,,,,,,,,,,,,,,6,4,,,415.583,4,right,0.018,,1.5,0.3,"[2,3,1]",0.718815233,stimuli/card_100_transparent.png,100,4,0,4,0,1,,,,,,,,,,
,,,,62c0ccde4bd16c7f96a2959f,A,2024-07-02_14h53.33.454,Slot Machine Game,2023.1.3,Win32,60.75334143,,,,,,,,,,,,,,,,,,,,,,,,,,,410,,,,,,,,,,,,,,,,,,,,,6,4,,,417.916,5,right,0.05,,0.5,0.3,"[2,3,1]",0.074286008,stimuli/card_0_transparent.png,0,5,0,5,0,1,,,,,,,,,,
,,,,62c0ccde4bd16c7f96a2959f,A,2024-07-02_14h53.33.454,Slot Machine Game,2023.1.3,Win32,60.75334143,,,,,,,,,,,,,,,,,,,,,,,,,,,420,,,,,,,,,,,,,,,,,,,,,6,4,,,419.3,6,right,0.101,,1.5,0.3,"[2,3,1]",0.17107295,stimuli/card_10_transparent.png,10,6,0,6,0,1,,,,,,,,,,
,,,,62c0ccde4bd16c7f96a2959f,A,2024-07-02_14h53.33.454,Slot Machine Game,2023.1.3,Win32,60.75334143,,,,,,,,,,,,,,,,,,,,,,,,,,,420,,,,,,,,,,,,,,,,,,,,,6,4,,,421.732,7,right,0.167,,1,0.3,"[1,2,3]",0.2192509,stimuli/card_0_transparent.png,0,7,0,7,0,1,,,,,,,,,,
,,,,62c0ccde4bd16c7f96a2959f,A,2024-07-02_14h53.33.454,Slot Machine Game,2023.1.3,Win32,60.75334143,,,,,,,,,,,,,,,,,,,,,,,,,,,420,,,,,,,,,,,,,,,,,,,,,6,4,,,423.716,8,right,0.234,,0.5,0.3,"[1,2,3]",0.976264437,stimuli/card_0_transparent.png,0,8,0,8,0,1,,,,,,,,,,
,,,,62c0ccde4bd16c7f96a2959f,A,2024-07-02_14h53.33.454,Slot Machine Game,2023.1.3,Win32,60.75334143,,,,,,,,,,,,,,,,,,,,,,,,,,,420,,,,,,,,,,,,,,,,,,,,,6,4,,,425.282,9,right,0.083,,1.5,0.3,"[1,2,3]",0.349410389,stimuli/card_0_transparent.png,0,9,0,9,0,1,,,,,,,,,,
,,,,62c0ccde4bd16c7f96a2959f,A,2024-07-02_14h53.33.454,Slot Machine Game,2023.1.3,Win32,60.75334143,,,,,,,,,,,,,,,,,,,,,,,,,,,420,,,,,,,,,,,,,,,,,,,,,6,4,,,427.682,10,right,2.537,,1,0.3,"[1,2,3]",0.908787785,stimuli/card_0_transparent.png,0,10,0,10,0,1,,,,,,,,,,
,,,,62c0ccde4bd16c7f96a2959f,A,2024-07-02_14h53.33.454,Slot Machine Game,2023.1.3,Win32,60.75334143,,,,,,,,,,,,,,,,,,,,,,,,,,,420,,,,,,,,,,,,,,,,,,,,,6,4,,,432.032,11,right,0.233,,0.5,0.3,"[1,2,3]",0.821035998,stimuli/card_0_transparent.png,0,11,0,11,0,1,,,,,,,,,,
,,,,62c0ccde4bd16c7f96a2959f,A,2024-07-02_14h53.33.454,Slot Machine Game,2023.1.3,Win32,60.75334143,,,,,,,,,,,,,,,,,,,,,,,,,,,420,,,,,,,,,,,,,,,,,,,,,6,4,,,433.598,12,right,0,,1.5,0.3,"[1,2,3]",0.342040228,stimuli/card_0_transparent.png,0,12,0,12,0,1,,,,,,,,,,
,,,,62c0ccde4bd16c7f96a2959f,A,2024-07-02_14h53.33.454,Slot Machine Game,2023.1.3,Win32,60.75334143,,,,,,,,,,,,,,,,,,,,,,,,,,,420,,,,,,,,,,,,,,,,,,,,,6,4,,,435.915,13,right,0.203,,0.5,0.3,"[1,2,3]",0.208734575,stimuli/card_0_transparent.png,0,13,0,13,0,1,,,,,,,,,,
,,,,62c0ccde4bd16c7f96a2959f,A,2024-07-02_14h53.33.454,Slot Machine Game,2023.1.3,Win32,60.75334143,,,,,,,,,,,,,,,,,,,,,,,,,,,420,,,,,,,,,,,,,,,,,,,,,6,4,,,437.431,14,right,0.018,,0.5,0.3,"[1,2,3]",0.469874743,stimuli/card_0_transparent.png,0,14,0,14,0,1,,,,,,,,,,
,,,,62c0ccde4bd16c7f96a2959f,A,2024-07-02_14h53.33.454,Slot Machine Game,2023.1.3,Win32,60.75334143,,,,,,,,,,,,,,,,,,,,,,,,,,,,,,,,,,,438.765,,,,,,,,,,,,,,,,,,,,,,,,,,,,,,,,,"[640,1320,460,1200,360,420]",5,0,5,0,1,,,,
,,,,62c0ccde4bd16c7f96a2959f,A,2024-07-02_14h53.33.454,Slot Machine Game,2023.1.3,Win32,60.75334143,,,,,,,,,,,,,,,,,,,,,,,,,,,10,,,,,,,,,,,,,,,,,,,,,7,10,"[10,15]","[[3,1,2],[1,3,2]]",443.767,0,right,3.667,,1,0.3,"[3,1,2]",0.957844171,stimuli/card_10_transparent.png,10,0,0,0,0,1,,,,,,,,,,
,,,,62c0ccde4bd16c7f96a2959f,A,2024-07-02_14h53.33.454,Slot Machine Game,2023.1.3,Win32,60.75334143,,,,,,,,,,,,,,,,,,,,,,,,,,,10,,,,,,,,,,,,,,,,,,,,,7,10,,,449.264,1,left,0.372,,1.5,0.3,"[3,1,2]",0.236422587,stimuli/card_0_transparent.png,0,1,0,1,0,1,,,,,,,,,,
,,,,62c0ccde4bd16c7f96a2959f,A,2024-07-02_14h53.33.454,Slot Machine Game,2023.1.3,Win32,60.75334143,,,,,,,,,,,,,,,,,,,,,,,,,,,10,,,,,,,,,,,,,,,,,,,,,7,10,,,451.964,2,left,0.047,,1,0.3,"[3,1,2]",0.781436734,stimuli/card_0_transparent.png,0,2,0,2,0,1,,,,,,,,,,
,,,,62c0ccde4bd16c7f96a2959f,A,2024-07-02_14h53.33.454,Slot Machine Game,2023.1.3,Win32,60.75334143,,,,,,,,,,,,,,,,,,,,,,,,,,,110,,,,,,,,,,,,,,,,,,,,,7,10,,,453.846,3,up,0.134,,1.5,0.3,"[3,1,2]",0.522349856,stimuli/card_100_transparent.png,100,3,0,3,0,1,,,,,,,,,,
,,,,62c0ccde4bd16c7f96a2959f,A,2024-07-02_14h53.33.454,Slot Machine Game,2023.1.3,Win32,60.75334143,,,,,,,,,,,,,,,,,,,,,,,,,,,210,,,,,,,,,,,,,,,,,,,,,7,10,,,456.297,4,up,0.134,,0.5,0.3,"[3,1,2]",0.245663207,stimuli/card_100_transparent.png,100,4,0,4,0,1,,,,,,,,,,
,,,,62c0ccde4bd16c7f96a2959f,A,2024-07-02_14h53.33.454,Slot Machine Game,2023.1.3,Win32,60.75334143,,,,,,,,,,,,,,,,,,,,,,,,,,,310,,,,,,,,,,,,,,,,,,,,,7,10,,,457.763,5,up,0.02,,0.5,0.3,"[3,1,2]",0.686905248,stimuli/card_100_transparent.png,100,5,0,5,0,1,,,,,,,,,,
,,,,62c0ccde4bd16c7f96a2959f,A,2024-07-02_14h53.33.454,Slot Machine Game,2023.1.3,Win32,60.75334143,,,,,,,,,,,,,,,,,,,,,,,,,,,410,,,,,,,,,,,,,,,,,,,,,7,10,,,459.113,6,up,0.021,,1.5,0.3,"[3,1,2]",0.88440585,stimuli/card_100_transparent.png,100,6,0,6,0,1,,,,,,,,,,
,,,,62c0ccde4bd16c7f96a2959f,A,2024-07-02_14h53.33.454,Slot Machine Game,2023.1.3,Win32,60.75334143,,,,,,,,,,,,,,,,,,,,,,,,,,,510,,,,,,,,,,,,,,,,,,,,,7,10,,,461.446,7,up,0.115,,0.5,0.3,"[3,1,2]",0.404983904,stimuli/card_100_transparent.png,100,7,0,7,0,1,,,,,,,,,,
,,,,62c0ccde4bd16c7f96a2959f,A,2024-07-02_14h53.33.454,Slot Machine Game,2023.1.3,Win32,60.75334143,,,,,,,,,,,,,,,,,,,,,,,,,,,610,,,,,,,,,,,,,,,,,,,,,7,10,,,462.896,8,up,0.111,,0.5,0.3,"[3,1,2]",0.446702533,stimuli/card_100_transparent.png,100,8,0,8,0,1,,,,,,,,,,
,,,,62c0ccde4bd16c7f96a2959f,A,2024-07-02_14h53.33.454,Slot Machine Game,2023.1.3,Win32,60.75334143,,,,,,,,,,,,,,,,,,,,,,,,,,,710,,,,,,,,,,,,,,,,,,,,,7,10,,,464.346,9,up,0.234,,1.5,0.3,"[3,1,2]",0.674312508,stimuli/card_100_transparent.png,100,9,0,9,0,1,,,,,,,,,,
,,,,62c0ccde4bd16c7f96a2959f,A,2024-07-02_14h53.33.454,Slot Machine Game,2023.1.3,Win32,60.75334143,,,,,,,,,,,,,,,,,,,,,,,,,,,710,,,,,,,,,,,,,,,,,,,,,7,10,,,466.896,10,up,0.122,,1,0.3,"[1,3,2]",0.508740775,stimuli/card_0_transparent.png,0,10,0,10,0,1,,,,,,,,,,
,,,,62c0ccde4bd16c7f96a2959f,A,2024-07-02_14h53.33.454,Slot Machine Game,2023.1.3,Win32,60.75334143,,,,,,,,,,,,,,,,,,,,,,,,,,,710,,,,,,,,,,,,,,,,,,,,,7,10,,,468.846,11,up,0.055,,0.5,0.3,"[1,3,2]",0.696837838,stimuli/card_0_transparent.png,0,11,0,11,0,1,,,,,,,,,,
,,,,62c0ccde4bd16c7f96a2959f,A,2024-07-02_14h53.33.454,Slot Machine Game,2023.1.3,Win32,60.75334143,,,,,,,,,,,,,,,,,,,,,,,,,,,720,,,,,,,,,,,,,,,,,,,,,7,10,,,470.229,12,right,0.187,,1,0.3,"[1,3,2]",0.394874361,stimuli/card_10_transparent.png,10,12,0,12,0,1,,,,,,,,,,
,,,,62c0ccde4bd16c7f96a2959f,A,2024-07-02_14h53.33.454,Slot Machine Game,2023.1.3,Win32,60.75334143,,,,,,,,,,,,,,,,,,,,,,,,,,,730,,,,,,,,,,,,,,,,,,,,,7,10,,,472.245,13,right,0.201,,1,0.3,"[1,3,2]",0.836049543,stimuli/card_10_transparent.png,10,13,0,13,0,1,,,,,,,,,,
,,,,62c0ccde4bd16c7f96a2959f,A,2024-07-02_14h53.33.454,Slot Machine Game,2023.1.3,Win32,60.75334143,,,,,,,,,,,,,,,,,,,,,,,,,,,730,,,,,,,,,,,,,,,,,,,,,7,10,,,474.278,14,left,0.154,,0.5,0.3,"[1,3,2]",0.033357645,stimuli/card_0_transparent.png,0,14,0,14,0,1,,,,,,,,,,
,,,,62c0ccde4bd16c7f96a2959f,A,2024-07-02_14h53.33.454,Slot Machine Game,2023.1.3,Win32,60.75334143,,,,,,,,,,,,,,,,,,,,,,,,,,,,,,,,,,,475.745,,,,,,,,,,,,,,,,,,,,,,,,,,,,,,,,,"[640,1320,460,1200,360,420,730]",6,0,6,0,1,,,,
,,,,62c0ccde4bd16c7f96a2959f,A,2024-07-02_14h53.33.454,Slot Machine Game,2023.1.3,Win32,60.75334143,,,,,,,,,,,,,,,,,,,,,,,,,,,0,,,,,,,,,,,,,,,,,,,,,8,7,"[9,15]","[[1,3,2],[2,3,1]]",480.748,0,up,0.136,,1,0.3,"[1,3,2]",0.576950973,stimuli/card_0_transparent.png,0,0,0,0,0,1,,,,,,,,,,
,,,,62c0ccde4bd16c7f96a2959f,A,2024-07-02_14h53.33.454,Slot Machine Game,2023.1.3,Win32,60.75334143,,,,,,,,,,,,,,,,,,,,,,,,,,,0,,,,,,,,,,,,,,,,,,,,,8,7,,,482.711,1,up,0.169,,0.5,0.3,"[1,3,2]",0.732910476,stimuli/card_0_transparent.png,0,1,0,1,0,1,,,,,,,,,,
,,,,62c0ccde4bd16c7f96a2959f,A,2024-07-02_14h53.33.454,Slot Machine Game,2023.1.3,Win32,60.75334143,,,,,,,,,,,,,,,,,,,,,,,,,,,100,,,,,,,,,,,,,,,,,,,,,8,7,,,484.195,2,left,0.086,,1.5,0.3,"[1,3,2]",0.669279247,stimuli/card_100_transparent.png,100,2,0,2,0,1,,,,,,,,,,
,,,,62c0ccde4bd16c7f96a2959f,A,2024-07-02_14h53.33.454,Slot Machine Game,2023.1.3,Win32,60.75334143,,,,,,,,,,,,,,,,,,,,,,,,,,,200,,,,,,,,,,,,,,,,,,,,,8,7,,,486.611,3,left,0.138,,1,0.3,"[1,3,2]",0.500360687,stimuli/card_100_transparent.png,100,3,0,3,0,1,,,,,,,,,,
,,,,62c0ccde4bd16c7f96a2959f,A,2024-07-02_14h53.33.454,Slot Machine Game,2023.1.3,Win32,60.75334143,,,,,,,,,,,,,,,,,,,,,,,,,,,210,,,,,,,,,,,,,,,,,,,,,8,7,,,488.578,4,left,0.368,,1,0.3,"[1,3,2]",0.177792585,stimuli/card_10_transparent.png,10,4,0,4,0,1,,,,,,,,,,
,,,,62c0ccde4bd16c7f96a2959f,A,2024-07-02_14h53.33.454,Slot Machine Game,2023.1.3,Win32,60.75334143,,,,,,,,,,,,,,,,,,,,,,,,,,,310,,,,,,,,,,,,,,,,,,,,,8,7,,,490.777,5,left,0.174,,1.5,0.3,"[1,3,2]",0.327700513,stimuli/card_100_transparent.png,100,5,0,5,0,1,,,,,,,,,,
,,,,62c0ccde4bd16c7f96a2959f,A,2024-07-02_14h53.33.454,Slot Machine Game,2023.1.3,Win32,60.75334143,,,,,,,,,,,,,,,,,,,,,,,,,,,410,,,,,,,,,,,,,,,,,,,,,8,7,,,493.261,6,left,0.2,,1,0.3,"[1,3,2]",0.35733006,stimuli/card_100_transparent.png,100,6,0,6,0,1,,,,,,,,,,
,,,,62c0ccde4bd16c7f96a2959f,A,2024-07-02_14h53.33.454,Slot Machine Game,2023.1.3,Win32,60.75334143,,,,,,,,,,,,,,,,,,,,,,,,,,,510,,,,,,,,,,,,,,,,,,,,,8,7,,,495.294,7,left,0.238,,1,0.3,"[1,3,2]",0.402962665,stimuli/card_100_transparent.png,100,7,0,7,0,1,,,,,,,,,,
,,,,62c0ccde4bd16c7f96a2959f,A,2024-07-02_14h53.33.454,Slot Machine Game,2023.1.3,Win32,60.75334143,,,,,,,,,,,,,,,,,,,,,,,,,,,510,,,,,,,,,,,,,,,,,,,,,8,7,,,497.36,8,left,0.018,,1.5,0.3,"[1,3,2]",0.015632872,stimuli/card_0_transparent.png,0,8,0,8,0,1,,,,,,,,,,
,,,,62c0ccde4bd16c7f96a2959f,A,2024-07-02_14h53.33.454,Slot Machine Game,2023.1.3,Win32,60.75334143,,,,,,,,,,,,,,,,,,,,,,,,,,,610,,,,,,,,,,,,,,,,,,,,,8,7,,,499.71,9,right,0.137,,1.5,0.3,"[2,3,1]",0.972433485,stimuli/card_100_transparent.png,100,9,0,9,0,1,,,,,,,,,,
,,,,62c0ccde4bd16c7f96a2959f,A,2024-07-02_14h53.33.454,Slot Machine Game,2023.1.3,Win32,60.75334143,,,,,,,,,,,,,,,,,,,,,,,,,,,710,,,,,,,,,,,,,,,,,,,,,8,7,,,502.16,10,right,0.034,,1,0.3,"[2,3,1]",0.960414924,stimuli/card_100_transparent.png,100,10,0,10,0,1,,,,,,,,,,
,,,,62c0ccde4bd16c7f96a2959f,A,2024-07-02_14h53.33.454,Slot Machine Game,2023.1.3,Win32,60.75334143,,,,,,,,,,,,,,,,,,,,,,,,,,,810,,,,,,,,,,,,,,,,,,,,,8,7,,,504.026,11,right,0.185,,1.5,0.3,"[2,3,1]",0.522801564,stimuli/card_100_transparent.png,100,11,0,11,0,1,,,,,,,,,,
,,,,62c0ccde4bd16c7f96a2959f,A,2024-07-02_14h53.33.454,Slot Machine Game,2023.1.3,Win32,60.75334143,,,,,,,,,,,,,,,,,,,,,,,,,,,910,,,,,,,,,,,,,,,,,,,,,8,7,,,506.543,12,right,0.118,,1,0.3,"[2,3,1]",0.251176389,stimuli/card_100_transparent.png,100,12,0,12,0,1,,,,,,,,,,
,,,,62c0ccde4bd16c7f96a2959f,A,2024-07-02_14h53.33.454,Slot Machine Game,2023.1.3,Win32,60.75334143,,,,,,,,,,,,,,,,,,,,,,,,,,,1010,,,,,,,,,,,,,,,,,,,,,8,7,,,508.492,13,right,0.352,,1.5,0.3,"[2,3,1]",0.844307435,stimuli/card_100_transparent.png,100,13,0,13,0,1,,,,,,,,,,
,,,,62c0ccde4bd16c7f96a2959f,A,2024-07-02_14h53.33.454,Slot Machine Game,2023.1.3,Win32,60.75334143,,,,,,,,,,,,,,,,,,,,,,,,,,,1110,,,,,,,,,,,,,,,,,,,,,8,7,,,511.151,14,right,0.052,,1,0.3,"[2,3,1]",0.638209622,stimuli/card_100_transparent.png,100,14,0,14,0,1,,,,,,,,,,
,,,,62c0ccde4bd16c7f96a2959f,A,2024-07-02_14h53.33.454,Slot Machine Game,2023.1.3,Win32,60.75334143,,,,,,,,,,,,,,,,,,,,,,,,,,,,,,,,,,,513.026,,,,,,,,,,,,,,,,,,,,,,,,,,,,,,,,,"[640,1320,460,1200,360,420,730,1110]",7,0,7,0,1,,,,
,,,,62c0ccde4bd16c7f96a2959f,A,2024-07-02_14h53.33.454,Slot Machine Game,2023.1.3,Win32,60.75334143,,,,,,,,,,,,,,,,,,,,,,,,,,,,,,,,,,,,,,,,,,,,,,,,9,9,[15],"[[3,1,2]]",518.029,0,,,,1,0.3,,,,,0,0,0,0,1,,,,,,,,,,
,,,,62c0ccde4bd16c7f96a2959f,A,2024-07-02_14h53.33.454,Slot Machine Game,2023.1.3,Win32,60.75334143,,,,,,,,,,,,,,,,,,,,,,,,,,,100,,,,,,,,,,,,,,,,,,,,,9,9,,,523.547,1,up,0.421,,1.5,0.3,"[3,1,2]",0.656503145,stimuli/card_100_transparent.png,100,1,0,1,0,1,,,,,,,,,,
,,,,62c0ccde4bd16c7f96a2959f,A,2024-07-02_14h53.33.454,Slot Machine Game,2023.1.3,Win32,60.75334143,,,,,,,,,,,,,,,,,,,,,,,,,,,200,,,,,,,,,,,,,,,,,,,,,9,9,,,526.291,2,up,0.155,,1.5,0.3,"[3,1,2]",0.479490813,stimuli/card_100_transparent.png,100,2,0,2,0,1,,,,,,,,,,
,,,,62c0ccde4bd16c7f96a2959f,A,2024-07-02_14h53.33.454,Slot Machine Game,2023.1.3,Win32,60.75334143,,,,,,,,,,,,,,,,,,,,,,,,,,,300,,,,,,,,,,,,,,,,,,,,,9,9,,,528.758,3,up,0.001,,1,0.3,"[3,1,2]",0.51037662,stimuli/card_100_transparent.png,100,3,0,3,0,1,,,,,,,,,,
,,,,62c0ccde4bd16c7f96a2959f,A,2024-07-02_14h53.33.454,Slot Machine Game,2023.1.3,Win32,60.75334143,,,,,,,,,,,,,,,,,,,,,,,,,,,400,,,,,,,,,,,,,,,,,,,,,9,9,,,530.591,4,up,0.083,,0.5,0.3,"[3,1,2]",0.305602267,stimuli/card_100_transparent.png,100,4,0,4,0,1,,,,,,,,,,
,,,,62c0ccde4bd16c7f96a2959f,A,2024-07-02_14h53.33.454,Slot Machine Game,2023.1.3,Win32,60.75334143,,,,,,,,,,,,,,,,,,,,,,,,,,,500,,,,,,,,,,,,,,,,,,,,,9,9,,,532.008,5,up,0.218,,1,0.3,"[3,1,2]",0.866373874,stimuli/card_100_transparent.png,100,5,0,5,0,1,,,,,,,,,,
,,,,62c0ccde4bd16c7f96a2959f,A,2024-07-02_14h53.33.454,Slot Machine Game,2023.1.3,Win32,60.75334143,,,,,,,,,,,,,,,,,,,,,,,,,,,600,,,,,,,,,,,,,,,,,,,,,9,9,,,534.057,6,up,0.22,,1,0.3,"[3,1,2]",0.370600689,stimuli/card_100_transparent.png,100,6,0,6,0,1,,,,,,,,,,
,,,,62c0ccde4bd16c7f96a2959f,A,2024-07-02_14h53.33.454,Slot Machine Game,2023.1.3,Win32,60.75334143,,,,,,,,,,,,,,,,,,,,,,,,,,,700,,,,,,,,,,,,,,,,,,,,,9,9,,,536.091,7,up,0.285,,1,0.3,"[3,1,2]",0.623411506,stimuli/card_100_transparent.png,100,7,0,7,0,1,,,,,,,,,,
,,,,62c0ccde4bd16c7f96a2959f,A,2024-07-02_14h53.33.454,Slot Machine Game,2023.1.3,Win32,60.75334143,,,,,,,,,,,,,,,,,,,,,,,,,,,800,,,,,,,,,,,,,,,,,,,,,9,9,,,538.207,8,up,0.734,,1.5,0.3,"[3,1,2]",0.892173117,stimuli/card_100_transparent.png,100,8,0,8,0,1,,,,,,,,,,
,,,,62c0ccde4bd16c7f96a2959f,A,2024-07-02_14h53.33.454,Slot Machine Game,2023.1.3,Win32,60.75334143,,,,,,,,,,,,,,,,,,,,,,,,,,,900,,,,,,,,,,,,,,,,,,,,,9,9,,,541.257,9,up,0.351,,1.5,0.3,"[3,1,2]",0.420375783,stimuli/card_100_transparent.png,100,9,0,9,0,1,,,,,,,,,,
,,,,62c0ccde4bd16c7f96a2959f,A,2024-07-02_14h53.33.454,Slot Machine Game,2023.1.3,Win32,60.75334143,,,,,,,,,,,,,,,,,,,,,,,,,,,1000,,,,,,,,,,,,,,,,,,,,,9,9,,,543.941,10,up,0.068,,1.5,0.3,"[3,1,2]",0.328372925,stimuli/card_100_transparent.png,100,10,0,10,0,1,,,,,,,,,,
,,,,62c0ccde4bd16c7f96a2959f,A,2024-07-02_14h53.33.454,Slot Machine Game,2023.1.3,Win32,60.75334143,,,,,,,,,,,,,,,,,,,,,,,,,,,1100,,,,,,,,,,,,,,,,,,,,,9,9,,,546.34,11,up,1.304,,1.5,0.3,"[3,1,2]",0.324012988,stimuli/card_100_transparent.png,100,11,0,11,0,1,,,,,,,,,,
,,,,62c0ccde4bd16c7f96a2959f,A,2024-07-02_14h53.33.454,Slot Machine Game,2023.1.3,Win32,60.75334143,,,,,,,,,,,,,,,,,,,,,,,,,,,1200,,,,,,,,,,,,,,,,,,,,,9,9,,,549.973,12,up,0.234,,0.5,0.3,"[3,1,2]",0.955369941,stimuli/card_100_transparent.png,100,12,0,12,0,1,,,,,,,,,,
,,,,62c0ccde4bd16c7f96a2959f,A,2024-07-02_14h53.33.454,Slot Machine Game,2023.1.3,Win32,60.75334143,,,,,,,,,,,,,,,,,,,,,,,,,,,1210,,,,,,,,,,,,,,,,,,,,,9,9,,,551.54,13,up,0.03,,1.5,0.3,"[3,1,2]",0.107369237,stimuli/card_10_transparent.png,10,13,0,13,0,1,,,,,,,,,,
,,,,62c0ccde4bd16c7f96a2959f,A,2024-07-02_14h53.33.454,Slot Machine Game,2023.1.3,Win32,60.75334143,,,,,,,,,,,,,,,,,,,,,,,,,,,1310,,,,,,,,,,,,,,,,,,,,,9,9,,,553.906,14,up,0.083,,1.5,0.3,"[3,1,2]",0.235792011,stimuli/card_100_transparent.png,100,14,0,14,0,1,,,,,,,,,,
,,,,62c0ccde4bd16c7f96a2959f,A,2024-07-02_14h53.33.454,Slot Machine Game,2023.1.3,Win32,60.75334143,,,,,,,,,,,,,,,,,,,,,,,,,,,,,,,,,,,556.323,,,,,,,,,,,,,,,,,,,,,,,,,,,,,,,,,"[640,1320,460,1200,360,420,730,1110,1310]",8,0,8,0,1,,,,
,,,,62c0ccde4bd16c7f96a2959f,A,2024-07-02_14h53.33.454,Slot Machine Game,2023.1.3,Win32,60.75334143,,,,,,,,,,,,,,,,,,,,,,,,,,,0,,,,,,,,,,,,,,,,,,,,,10,6,"[4,10,15]","[[2,3,1],[1,3,2],[3,2,1]]",561.326,0,up,0.418,,1,0.3,"[2,3,1]",0.623771356,stimuli/card_0_transparent.png,0,0,0,0,0,1,,,,,,,,,,
,,,,62c0ccde4bd16c7f96a2959f,A,2024-07-02_14h53.33.454,Slot Machine Game,2023.1.3,Win32,60.75334143,,,,,,,,,,,,,,,,,,,,,,,,,,,0,,,,,,,,,,,,,,,,,,,,,10,6,,,563.572,1,up,2.317,,1,0.3,"[2,3,1]",0.834114141,stimuli/card_0_transparent.png,0,1,0,1,0,1,,,,,,,,,,
,,,,62c0ccde4bd16c7f96a2959f,A,2024-07-02_14h53.33.454,Slot Machine Game,2023.1.3,Win32,60.75334143,,,,,,,,,,,,,,,,,,,,,,,,,,,10,,,,,,,,,,,,,,,,,,,,,10,6,,,567.722,2,left,0.318,,1,0.3,"[2,3,1]",0.271851112,stimuli/card_10_transparent.png,10,2,0,2,0,1,,,,,,,,,,
,,,,62c0ccde4bd16c7f96a2959f,A,2024-07-02_14h53.33.454,Slot Machine Game,2023.1.3,Win32,60.75334143,,,,,,,,,,,,,,,,,,,,,,,,,,,110,,,,,,,,,,,,,,,,,,,,,10,6,,,569.871,3,right,0.305,,0.5,0.3,"[2,3,1]",0.402563076,stimuli/card_100_transparent.png,100,3,0,3,0,1,,,,,,,,,,
,,,,62c0ccde4bd16c7f96a2959f,A,2024-07-02_14h53.33.454,Slot Machine Game,2023.1.3,Win32,60.75334143,,,,,,,,,,,,,,,,,,,,,,,,,,,120,,,,,,,,,,,,,,,,,,,,,10,6,,,571.488,4,right,0,,1.5,0.3,"[1,3,2]",0.710942157,stimuli/card_10_transparent.png,10,4,0,4,0,1,,,,,,,,,,
,,,,62c0ccde4bd16c7f96a2959f,A,2024-07-02_14h53.33.454,Slot Machine Game,2023.1.3,Win32,60.75334143,,,,,,,,,,,,,,,,,,,,,,,,,,,120,,,,,,,,,,,,,,,,,,,,,10,6,,,573.821,5,right,0.614,,1.5,0.3,"[1,3,2]",0.019604359,stimuli/card_0_transparent.png,0,5,0,5,0,1,,,,,,,,,,
,,,,62c0ccde4bd16c7f96a2959f,A,2024-07-02_14h53.33.454,Slot Machine Game,2023.1.3,Win32,60.75334143,,,,,,,,,,,,,,,,,,,,,,,,,,,130,,,,,,,,,,,,,,,,,,,,,10,6,,,576.771,6,right,0.052,,1,0.3,"[1,3,2]",0.472825863,stimuli/card_10_transparent.png,10,6,0,6,0,1,,,,,,,,,,
,,,,62c0ccde4bd16c7f96a2959f,A,2024-07-02_14h53.33.454,Slot Machine Game,2023.1.3,Win32,60.75334143,,,,,,,,,,,,,,,,,,,,,,,,,,,140,,,,,,,,,,,,,,,,,,,,,10,6,,,578.654,7,right,0.119,,1,0.3,"[1,3,2]",0.257761746,stimuli/card_10_transparent.png,10,7,0,7,0,1,,,,,,,,,,
,,,,62c0ccde4bd16c7f96a2959f,A,2024-07-02_14h53.33.454,Slot Machine Game,2023.1.3,Win32,60.75334143,,,,,,,,,,,,,,,,,,,,,,,,,,,150,,,,,,,,,,,,,,,,,,,,,10,6,,,580.604,8,right,0.035,,1.5,0.3,"[1,3,2]",0.392045858,stimuli/card_10_transparent.png,10,8,0,8,0,1,,,,,,,,,,
,,,,62c0ccde4bd16c7f96a2959f,A,2024-07-02_14h53.33.454,Slot Machine Game,2023.1.3,Win32,60.75334143,,,,,,,,,,,,,,,,,,,,,,,,,,,160,,,,,,,,,,,,,,,,,,,,,10,6,,,582.971,9,right,0.117,,1.5,0.3,"[1,3,2]",0.609811479,stimuli/card_10_transparent.png,10,9,0,9,0,1,,,,,,,,,,
,,,,62c0ccde4bd16c7f96a2959f,A,2024-07-02_14h53.33.454,Slot Machine Game,2023.1.3,Win32,60.75334143,,,,,,,,,,,,,,,,,,,,,,,,,,,260,,,,,,,,,,,,,,,,,,,,,10,6,,,585.42,10,right,0.184,,1,0.3,"[3,2,1]",0.397267781,stimuli/card_100_transparent.png,100,10,0,10,0,1,,,,,,,,,,
,,,,62c0ccde4bd16c7f96a2959f,A,2024-07-02_14h53.33.454,Slot Machine Game,2023.1.3,Win32,60.75334143,,,,,,,,,,,,,,,,,,,,,,,,,,,360,,,,,,,,,,,,,,,,,,,,,10,6,,,587.437,11,right,0.305,,1.5,0.3,"[3,2,1]",0.644123852,stimuli/card_100_transparent.png,100,11,0,11,0,1,,,,,,,,,,
,,,,62c0ccde4bd16c7f96a2959f,A,2024-07-02_14h53.33.454,Slot Machine Game,2023.1.3,Win32,60.75334143,,,,,,,,,,,,,,,,,,,,,,,,,,,460,,,,,,,,,,,,,,,,,,,,,10,6,,,590.07,12,right,0.303,,1,0.3,"[3,2,1]",0.421579341,stimuli/card_100_transparent.png,100,12,0,12,0,1,,,,,,,,,,
,,,,62c0ccde4bd16c7f96a2959f,A,2024-07-02_14h53.33.454,Slot Machine Game,2023.1.3,Win32,60.75334143,,,,,,,,,,,,,,,,,,,,,,,,,,,560,,,,,,,,,,,,,,,,,,,,,10,6,,,592.186,13,right,0.364,,1,0.3,"[3,2,1]",0.354316883,stimuli/card_100_transparent.png,100,13,0,13,0,1,,,,,,,,,,
,,,,62c0ccde4bd16c7f96a2959f,A,2024-07-02_14h53.33.454,Slot Machine Game,2023.1.3,Win32,60.75334143,,,,,,,,,,,,,,,,,,,,,,,,,,,660,,,,,,,,,,,,,,,,,,,,,10,6,,,594.369,14,right,0.705,,1.5,0.3,"[3,2,1]",0.7691564,stimuli/card_100_transparent.png,100,14,0,14,0,1,,,,,,,,,,
,,,,62c0ccde4bd16c7f96a2959f,A,2024-07-02_14h53.33.454,Slot Machine Game,2023.1.3,Win32,60.75334143,,,,,,,,,,,,,,,,,,,,,,,,,,,,,,,,,,,597.386,,,,,,,,,,,,,,,,,,,,,,,,,,,,,,,,,"[640,1320,460,1200,360,420,730,1110,1310,660]",9,0,9,0,1,,,,
,,,,62c0ccde4bd16c7f96a2959f,A,2024-07-02_14h53.33.454,Slot Machine Game,2023.1.3,Win32,60.75334143,,,,,,,,,,,,,,,,,,,,,,,,,,,,,,,,,,,,,,,,,,,,,,,,,,,,,,,,,,,,,,,,,,,,,,,,,,9,"[640,1320,460,1200,360,420,730,1110,1310,660]",13.1,2024-07-02_15h03.39.900
