key_resp_welcome_started,key_resp_welcome_keys,key_resp_welcome_rt,key_resp_welcome_duration,prolific_id,path_id,date,expName,psychopyVersion,OS,frameRate,key_resp_instruction1_started,key_resp_instruction1_keys,key_resp_instruction1_rt,key_resp_instruction1_duration,key_resp_instruction2_started,key_resp_instruction2_keys,key_resp_instruction2_rt,key_resp_instruction2_duration,key_resp_instruction3_started,key_resp_instruction3_keys,key_resp_instruction3_rt,key_resp_instruction3_duration,key_resp_instruction4_started,key_resp_instruction4_keys,key_resp_instruction4_rt,key_resp_instruction4_duration,practiceCondition,practice_reward_seqs,practice_trial_started,practice_trial_num,practice_resp_rt,practice_resp_duration,practice_resp_keys,prac_presentationInterval,"practice_reward_seq: 2,1,3",reward_img,cumulative_reward,trial_reward,practice_trials.thisRepN,practice_trials.thisTrialN,practice_trials.thisN,practice_trials.thisIndex,practice_trials.ran,"practice_reward_seq: 2,3,1",block_break_started,"practice_reward_seq: 1,3,2","practice_reward_seq: 3,1,2",practice_end_time,practice_end_keys,practice_end_rt,practice_end_duration,main_instruction_text_started,block_condition,block_order_indices,main_instruction_keys,main_instruction_rt,main_instruction_duration,block_number,block_assignment,current_condition,main_reward_seqs,main_trial_started,main_trial_num,main_trial_keys,main_trial_rt,main_trial_duration,main_presentationInterval,reward_presentation_time,main_reward_seq,reward_rand_val,main_reward_img,current_reward,main_trials.thisRepN,main_trials.thisTrialN,main_trials.thisN,main_trials.thisIndex,main_trials.ran,block_reward,block.thisRepN,block.thisTrialN,block.thisN,block.thisIndex,block.ran,block_reward.length,block_reward_all,reward_amount,date_end_task
0.0004,space,3.8794,,62c331eb63e265c0c3adcf9d,A,2024-07-08_13h17.57.210,Slot Machine Game,2023.1.3,Win32,60.24096386,,,,,,,,,,,,,,,,,,,,,,,,,,,,,,,,,,,,,,,,,,,,,,,,,,,,,,,,,,,,,,,,,,,,,,,,,,,,,
,,,,62c331eb63e265c0c3adcf9d,A,2024-07-08_13h17.57.210,Slot Machine Game,2023.1.3,Win32,60.24096386,3.901,space,11.5136,,,,,,,,,,,,,,,,,,,,,,,,,,,,,,,,,,,,,,,,,,,,,,,,,,,,,,,,,,,,,,,,,,,,,,,,,,
,,,,62c331eb63e265c0c3adcf9d,A,2024-07-08_13h17.57.210,Slot Machine Game,2023.1.3,Win32,60.24096386,,,,,15.4398,space,1.4964,,,,,,,,,,,,,,,,,,,,,,,,,,,,,,,,,,,,,,,,,,,,,,,,,,,,,,,,,,,,,,,,,,,,,,
,,,,62c331eb63e265c0c3adcf9d,A,2024-07-08_13h17.57.210,Slot Machine Game,2023.1.3,Win32,60.24096386,,,,,,,,,16.9733,space,1.4404,,,,,,,,,,,,,,,,,,,,,,,,,,,,,,,,,,,,,,,,,,,,,,,,,,,,,,,,,,,,,,,,,,
,,,,62c331eb63e265c0c3adcf9d,A,2024-07-08_13h17.57.210,Slot Machine Game,2023.1.3,Win32,60.24096386,,,,,,,,,,,,,,,,,,,,,,,,,,,,,,,,,,,,,,,,,,,,,,,,,,,,,,,,,,,,,,,,,,,,,,,,,,,,,
,,,,62c331eb63e265c0c3adcf9d,A,2024-07-08_13h17.57.210,Slot Machine Game,2023.1.3,Win32,60.24096386,,,,,,,,,,,,,160.1542,space,1.1213,,,,,,,,,,,,,,,,,,,,,,,,,,,,,,,,,,,,,,,,,,,,,,,,,,,,,,,,,,,,,,
,,,,62c331eb63e265c0c3adcf9d,A,2024-07-08_13h17.57.210,Slot Machine Game,2023.1.3,Win32,60.24096386,,,,,,,,,,,,,,,,,"[9,15]","[[2,1,3],[2,3,1]]",161.306,0,1.3192,,up,1,,stimuli/card_10_transparent.png,10,10,0,0,0,0,1,,,,,,,,,,,,,,,,,,,,,,,,,,,,,,,,,,,,,,,,,,,,
,,,,62c331eb63e265c0c3adcf9d,A,2024-07-08_13h17.57.210,Slot Machine Game,2023.1.3,Win32,60.24096386,,,,,,,,,,,,,,,,,,,164.4502,1,0.7089,,right,1,,stimuli/card_0_transparent.png,10,0,1,0,1,0,1,,,,,,,,,,,,,,,,,,,,,,,,,,,,,,,,,,,,,,,,,,,,
,,,,62c331eb63e265c0c3adcf9d,A,2024-07-08_13h17.57.210,Slot Machine Game,2023.1.3,Win32,60.24096386,,,,,,,,,,,,,,,,,,,166.9666,2,0.0652,,up,1.5,,stimuli/card_100_transparent.png,110,100,2,0,2,0,1,,,,,,,,,,,,,,,,,,,,,,,,,,,,,,,,,,,,,,,,,,,,
,,,,62c331eb63e265c0c3adcf9d,A,2024-07-08_13h17.57.210,Slot Machine Game,2023.1.3,Win32,60.24096386,,,,,,,,,,,,,,,,,,,169.3664,3,0.4164,,up,0.5,,stimuli/card_100_transparent.png,210,100,3,0,3,0,1,,,,,,,,,,,,,,,,,,,,,,,,,,,,,,,,,,,,,,,,,,,,
,,,,62c331eb63e265c0c3adcf9d,A,2024-07-08_13h17.57.210,Slot Machine Game,2023.1.3,Win32,60.24096386,,,,,,,,,,,,,,,,,,,171.1163,4,0.1847,,up,1.5,,stimuli/card_100_transparent.png,310,100,4,0,4,0,1,,,,,,,,,,,,,,,,,,,,,,,,,,,,,,,,,,,,,,,,,,,,
,,,,62c331eb63e265c0c3adcf9d,A,2024-07-08_13h17.57.210,Slot Machine Game,2023.1.3,Win32,60.24096386,,,,,,,,,,,,,,,,,,,173.6385,5,0.3408,,up,0.5,,stimuli/card_100_transparent.png,410,100,5,0,5,0,1,,,,,,,,,,,,,,,,,,,,,,,,,,,,,,,,,,,,,,,,,,,,
,,,,62c331eb63e265c0c3adcf9d,A,2024-07-08_13h17.57.210,Slot Machine Game,2023.1.3,Win32,60.24096386,,,,,,,,,,,,,,,,,,,175.3001,6,0.0853,,up,0.5,,stimuli/card_100_transparent.png,510,100,6,0,6,0,1,,,,,,,,,,,,,,,,,,,,,,,,,,,,,,,,,,,,,,,,,,,,
,,,,62c331eb63e265c0c3adcf9d,A,2024-07-08_13h17.57.210,Slot Machine Game,2023.1.3,Win32,60.24096386,,,,,,,,,,,,,,,,,,,176.7165,7,0.6182,,up,1,,stimuli/card_100_transparent.png,610,100,7,0,7,0,1,,,,,,,,,,,,,,,,,,,,,,,,,,,,,,,,,,,,,,,,,,,,
,,,,62c331eb63e265c0c3adcf9d,A,2024-07-08_13h17.57.210,Slot Machine Game,2023.1.3,Win32,60.24096386,,,,,,,,,,,,,,,,,,,179.1668,8,0.0004,,up,0.5,,stimuli/card_10_transparent.png,620,10,8,0,8,0,1,,,,,,,,,,,,,,,,,,,,,,,,,,,,,,,,,,,,,,,,,,,,
,,,,62c331eb63e265c0c3adcf9d,A,2024-07-08_13h17.57.210,Slot Machine Game,2023.1.3,Win32,60.24096386,,,,,,,,,,,,,,,,,,,180.4998,9,0.1657,,up,0.5,,stimuli/card_10_transparent.png,630,10,9,0,9,0,1,,,,,,,,,,,,,,,,,,,,,,,,,,,,,,,,,,,,,,,,,,,,
,,,,62c331eb63e265c0c3adcf9d,A,2024-07-08_13h17.57.210,Slot Machine Game,2023.1.3,Win32,60.24096386,,,,,,,,,,,,,,,,,,,181.9996,10,0.3973,,up,1,,stimuli/card_0_transparent.png,630,0,10,0,10,0,1,,,,,,,,,,,,,,,,,,,,,,,,,,,,,,,,,,,,,,,,,,,,
,,,,62c331eb63e265c0c3adcf9d,A,2024-07-08_13h17.57.210,Slot Machine Game,2023.1.3,Win32,60.24096386,,,,,,,,,,,,,,,,,,,184.221,11,0.0126,,left,1,,stimuli/card_10_transparent.png,640,10,11,0,11,0,1,,,,,,,,,,,,,,,,,,,,,,,,,,,,,,,,,,,,,,,,,,,,
,,,,62c331eb63e265c0c3adcf9d,A,2024-07-08_13h17.57.210,Slot Machine Game,2023.1.3,Win32,60.24096386,,,,,,,,,,,,,,,,,,,186.0495,12,1.1319,,left,0.5,,stimuli/card_100_transparent.png,740,100,12,0,12,0,1,,,,,,,,,,,,,,,,,,,,,,,,,,,,,,,,,,,,,,,,,,,,
,,,,62c331eb63e265c0c3adcf9d,A,2024-07-08_13h17.57.210,Slot Machine Game,2023.1.3,Win32,60.24096386,,,,,,,,,,,,,,,,,,,188.4835,13,0.5486,,left,1.5,,stimuli/card_10_transparent.png,750,10,13,0,13,0,1,,,,,,,,,,,,,,,,,,,,,,,,,,,,,,,,,,,,,,,,,,,,
,,,,62c331eb63e265c0c3adcf9d,A,2024-07-08_13h17.57.210,Slot Machine Game,2023.1.3,Win32,60.24096386,,,,,,,,,,,,,,,,,,,191.3664,14,0.3329,,left,0.5,,stimuli/card_10_transparent.png,760,10,14,0,14,0,1,,,,,,,,,,,,,,,,,,,,,,,,,,,,,,,,,,,,,,,,,,,,
,,,,62c331eb63e265c0c3adcf9d,A,2024-07-08_13h17.57.210,Slot Machine Game,2023.1.3,Win32,60.24096386,,,,,,,,,,,,,,,,,"[6,15]","[[1,3,2],[3,1,2]]",198.0403,0,0.5739,,right,1.5,,stimuli/card_10_transparent.png,10,10,0,0,0,0,1,,193.0462,,,,,,,,,,,,,,,,,,,,,,,,,,,,,,,,,,,,,,,,,,
,,,,62c331eb63e265c0c3adcf9d,A,2024-07-08_13h17.57.210,Slot Machine Game,2023.1.3,Win32,60.24096386,,,,,,,,,,,,,,,,,,,200.9329,1,0.5701,,right,0.5,,stimuli/card_10_transparent.png,20,10,1,0,1,0,1,,,,,,,,,,,,,,,,,,,,,,,,,,,,,,,,,,,,,,,,,,,,
,,,,62c331eb63e265c0c3adcf9d,A,2024-07-08_13h17.57.210,Slot Machine Game,2023.1.3,Win32,60.24096386,,,,,,,,,,,,,,,,,,,202.8167,2,0.9993,,up,0.5,,stimuli/card_0_transparent.png,20,0,2,0,2,0,1,,,,,,,,,,,,,,,,,,,,,,,,,,,,,,,,,,,,,,,,,,,,
,,,,62c331eb63e265c0c3adcf9d,A,2024-07-08_13h17.57.210,Slot Machine Game,2023.1.3,Win32,60.24096386,,,,,,,,,,,,,,,,,,,205.1329,3,0.0314,,left,1.5,,stimuli/card_100_transparent.png,120,100,3,0,3,0,1,,,,,,,,,,,,,,,,,,,,,,,,,,,,,,,,,,,,,,,,,,,,
,,,,62c331eb63e265c0c3adcf9d,A,2024-07-08_13h17.57.210,Slot Machine Game,2023.1.3,Win32,60.24096386,,,,,,,,,,,,,,,,,,,207.4832,4,0.2357,,left,1,,stimuli/card_100_transparent.png,220,100,4,0,4,0,1,,,,,,,,,,,,,,,,,,,,,,,,,,,,,,,,,,,,,,,,,,,,
,,,,62c331eb63e265c0c3adcf9d,A,2024-07-08_13h17.57.210,Slot Machine Game,2023.1.3,Win32,60.24096386,,,,,,,,,,,,,,,,,,,209.5724,5,0.1049,,left,0.5,,stimuli/card_100_transparent.png,320,100,5,0,5,0,1,,,,,,,,,,,,,,,,,,,,,,,,,,,,,,,,,,,,,,,,,,,,
,,,,62c331eb63e265c0c3adcf9d,A,2024-07-08_13h17.57.210,Slot Machine Game,2023.1.3,Win32,60.24096386,,,,,,,,,,,,,,,,,,,210.9997,6,0.0925,,left,1.5,,stimuli/card_0_transparent.png,320,0,6,0,6,0,1,,,,,,,,,,,,,,,,,,,,,,,,,,,,,,,,,,,,,,,,,,,,
,,,,62c331eb63e265c0c3adcf9d,A,2024-07-08_13h17.57.210,Slot Machine Game,2023.1.3,Win32,60.24096386,,,,,,,,,,,,,,,,,,,213.3999,7,0.1815,,right,1.5,,stimuli/card_10_transparent.png,330,10,7,0,7,0,1,,,,,,,,,,,,,,,,,,,,,,,,,,,,,,,,,,,,,,,,,,,,
,,,,62c331eb63e265c0c3adcf9d,A,2024-07-08_13h17.57.210,Slot Machine Game,2023.1.3,Win32,60.24096386,,,,,,,,,,,,,,,,,,,215.8996,8,0.4352,,up,0.5,,stimuli/card_10_transparent.png,340,10,8,0,8,0,1,,,,,,,,,,,,,,,,,,,,,,,,,,,,,,,,,,,,,,,,,,,,
,,,,62c331eb63e265c0c3adcf9d,A,2024-07-08_13h17.57.210,Slot Machine Game,2023.1.3,Win32,60.24096386,,,,,,,,,,,,,,,,,,,217.6661,9,0.6514,,left,0.5,,stimuli/card_0_transparent.png,340,0,9,0,9,0,1,,,,,,,,,,,,,,,,,,,,,,,,,,,,,,,,,,,,,,,,,,,,
,,,,62c331eb63e265c0c3adcf9d,A,2024-07-08_13h17.57.210,Slot Machine Game,2023.1.3,Win32,60.24096386,,,,,,,,,,,,,,,,,,,219.6328,10,0.0842,,up,1,,stimuli/card_100_transparent.png,440,100,10,0,10,0,1,,,,,,,,,,,,,,,,,,,,,,,,,,,,,,,,,,,,,,,,,,,,
,,,,62c331eb63e265c0c3adcf9d,A,2024-07-08_13h17.57.210,Slot Machine Game,2023.1.3,Win32,60.24096386,,,,,,,,,,,,,,,,,,,221.5663,11,0.235,,up,1.5,,stimuli/card_100_transparent.png,540,100,11,0,11,0,1,,,,,,,,,,,,,,,,,,,,,,,,,,,,,,,,,,,,,,,,,,,,
,,,,62c331eb63e265c0c3adcf9d,A,2024-07-08_13h17.57.210,Slot Machine Game,2023.1.3,Win32,60.24096386,,,,,,,,,,,,,,,,,,,224.133,12,0.101,,up,1.5,,stimuli/card_100_transparent.png,640,100,12,0,12,0,1,,,,,,,,,,,,,,,,,,,,,,,,,,,,,,,,,,,,,,,,,,,,
,,,,62c331eb63e265c0c3adcf9d,A,2024-07-08_13h17.57.210,Slot Machine Game,2023.1.3,Win32,60.24096386,,,,,,,,,,,,,,,,,,,226.5662,13,0.0013,,up,1,,stimuli/card_100_transparent.png,740,100,13,0,13,0,1,,,,,,,,,,,,,,,,,,,,,,,,,,,,,,,,,,,,,,,,,,,,
,,,,62c331eb63e265c0c3adcf9d,A,2024-07-08_13h17.57.210,Slot Machine Game,2023.1.3,Win32,60.24096386,,,,,,,,,,,,,,,,,,,228.3831,14,0.2883,,up,1.5,,stimuli/card_100_transparent.png,840,100,14,0,14,0,1,,,,,,,,,,,,,,,,,,,,,,,,,,,,,,,,,,,,,,,,,,,,
,,,,62c331eb63e265c0c3adcf9d,A,2024-07-08_13h17.57.210,Slot Machine Game,2023.1.3,Win32,60.24096386,,,,,,,,,,,,,,,,,,,,,,,,,,,,,,,,,,,230.9995,,,236.0014,space,2.6833,,,,,,,,,,,,,,,,,,,,,,,,,,,,,,,,,,,,,
,,,,62c331eb63e265c0c3adcf9d,A,2024-07-08_13h17.57.210,Slot Machine Game,2023.1.3,Win32,60.24096386,,,,,,,,,,,,,,,,,,,,,,,,,,,,,,,,,,,,,,,,,,238.7183,1,"[0,1,2,3,4,5,6,7,8,9]",space,1.4012,,,,,,,,,,,,,,,,,,,,,,,,,,,,,,,
,,,,62c331eb63e265c0c3adcf9d,A,2024-07-08_13h17.57.210,Slot Machine Game,2023.1.3,Win32,60.24096386,,,,,,,,,,,,,,,,,,,,,,,,,,,100,,,,,,,,,,,,,,,,,,,,,1,1,"[12,15]","[[2,1,3],[2,3,1]]",240.1676,0,up,0.8892,,0.5,0.3,"[2,1,3]",0.910761906,stimuli/card_100_transparent.png,100,0,0,0,0,1,,,,,,,,,,
,,,,62c331eb63e265c0c3adcf9d,A,2024-07-08_13h17.57.210,Slot Machine Game,2023.1.3,Win32,60.24096386,,,,,,,,,,,,,,,,,,,,,,,,,,,100,,,,,,,,,,,,,,,,,,,,,1,1,,,242.4074,1,up,0.1223,,1.5,0.3,"[2,1,3]",0.034982881,stimuli/card_0_transparent.png,0,1,0,1,0,1,,,,,,,,,,
,,,,62c331eb63e265c0c3adcf9d,A,2024-07-08_13h17.57.210,Slot Machine Game,2023.1.3,Win32,60.24096386,,,,,,,,,,,,,,,,,,,,,,,,,,,100,,,,,,,,,,,,,,,,,,,,,1,1,,,244.8501,2,right,0.6122,,0.5,0.3,"[2,1,3]",0.936739403,stimuli/card_0_transparent.png,0,2,0,2,0,1,,,,,,,,,,
,,,,62c331eb63e265c0c3adcf9d,A,2024-07-08_13h17.57.210,Slot Machine Game,2023.1.3,Win32,60.24096386,,,,,,,,,,,,,,,,,,,,,,,,,,,110,,,,,,,,,,,,,,,,,,,,,1,1,,,246.8,3,left,0.6849,,0.5,0.3,"[2,1,3]",0.941643273,stimuli/card_10_transparent.png,10,3,0,3,0,1,,,,,,,,,,
,,,,62c331eb63e265c0c3adcf9d,A,2024-07-08_13h17.57.210,Slot Machine Game,2023.1.3,Win32,60.24096386,,,,,,,,,,,,,,,,,,,,,,,,,,,210,,,,,,,,,,,,,,,,,,,,,1,1,,,248.8329,4,up,0.0553,,1,0.3,"[2,1,3]",0.600902106,stimuli/card_100_transparent.png,100,4,0,4,0,1,,,,,,,,,,
,,,,62c331eb63e265c0c3adcf9d,A,2024-07-08_13h17.57.210,Slot Machine Game,2023.1.3,Win32,60.24096386,,,,,,,,,,,,,,,,,,,,,,,,,,,310,,,,,,,,,,,,,,,,,,,,,1,1,,,250.6994,5,up,0.1466,,0.5,0.3,"[2,1,3]",0.690681339,stimuli/card_100_transparent.png,100,5,0,5,0,1,,,,,,,,,,
,,,,62c331eb63e265c0c3adcf9d,A,2024-07-08_13h17.57.210,Slot Machine Game,2023.1.3,Win32,60.24096386,,,,,,,,,,,,,,,,,,,,,,,,,,,410,,,,,,,,,,,,,,,,,,,,,1,1,,,252.1719,6,up,0.1323,,1,0.3,"[2,1,3]",0.202706799,stimuli/card_100_transparent.png,100,6,0,6,0,1,,,,,,,,,,
,,,,62c331eb63e265c0c3adcf9d,A,2024-07-08_13h17.57.210,Slot Machine Game,2023.1.3,Win32,60.24096386,,,,,,,,,,,,,,,,,,,,,,,,,,,510,,,,,,,,,,,,,,,,,,,,,1,1,,,254.1332,7,up,0.4863,,0.5,0.3,"[2,1,3]",0.797372555,stimuli/card_100_transparent.png,100,7,0,7,0,1,,,,,,,,,,
,,,,62c331eb63e265c0c3adcf9d,A,2024-07-08_13h17.57.210,Slot Machine Game,2023.1.3,Win32,60.24096386,,,,,,,,,,,,,,,,,,,,,,,,,,,610,,,,,,,,,,,,,,,,,,,,,1,1,,,255.9494,8,up,0.1808,,1,0.3,"[2,1,3]",0.876934083,stimuli/card_100_transparent.png,100,8,0,8,0,1,,,,,,,,,,
,,,,62c331eb63e265c0c3adcf9d,A,2024-07-08_13h17.57.210,Slot Machine Game,2023.1.3,Win32,60.24096386,,,,,,,,,,,,,,,,,,,,,,,,,,,710,,,,,,,,,,,,,,,,,,,,,1,1,,,257.9495,9,up,0.4169,,1.5,0.3,"[2,1,3]",0.289023533,stimuli/card_100_transparent.png,100,9,0,9,0,1,,,,,,,,,,
,,,,62c331eb63e265c0c3adcf9d,A,2024-07-08_13h17.57.210,Slot Machine Game,2023.1.3,Win32,60.24096386,,,,,,,,,,,,,,,,,,,,,,,,,,,810,,,,,,,,,,,,,,,,,,,,,1,1,,,260.6665,10,up,0.4224,,1,0.3,"[2,1,3]",0.316842728,stimuli/card_100_transparent.png,100,10,0,10,0,1,,,,,,,,,,
,,,,62c331eb63e265c0c3adcf9d,A,2024-07-08_13h17.57.210,Slot Machine Game,2023.1.3,Win32,60.24096386,,,,,,,,,,,,,,,,,,,,,,,,,,,910,,,,,,,,,,,,,,,,,,,,,1,1,,,262.9334,11,up,0.1789,,1.5,0.3,"[2,1,3]",0.436061963,stimuli/card_100_transparent.png,100,11,0,11,0,1,,,,,,,,,,
,,,,62c331eb63e265c0c3adcf9d,A,2024-07-08_13h17.57.210,Slot Machine Game,2023.1.3,Win32,60.24096386,,,,,,,,,,,,,,,,,,,,,,,,,,,910,,,,,,,,,,,,,,,,,,,,,1,1,,,265.4328,12,up,0.1181,,1.5,0.3,"[2,3,1]",0.560493374,stimuli/card_0_transparent.png,0,12,0,12,0,1,,,,,,,,,,
,,,,62c331eb63e265c0c3adcf9d,A,2024-07-08_13h17.57.210,Slot Machine Game,2023.1.3,Win32,60.24096386,,,,,,,,,,,,,,,,,,,,,,,,,,,920,,,,,,,,,,,,,,,,,,,,,1,1,,,267.8563,13,left,0.3578,,1,0.3,"[2,3,1]",0.849641419,stimuli/card_10_transparent.png,10,13,0,13,0,1,,,,,,,,,,
,,,,62c331eb63e265c0c3adcf9d,A,2024-07-08_13h17.57.210,Slot Machine Game,2023.1.3,Win32,60.24096386,,,,,,,,,,,,,,,,,,,,,,,,,,,930,,,,,,,,,,,,,,,,,,,,,1,1,,,270.0499,14,left,0.2676,,1,0.3,"[2,3,1]",0.322351683,stimuli/card_10_transparent.png,10,14,0,14,0,1,,,,,,,,,,
,,,,62c331eb63e265c0c3adcf9d,A,2024-07-08_13h17.57.210,Slot Machine Game,2023.1.3,Win32,60.24096386,,,,,,,,,,,,,,,,,,,,,,,,,,,,,,,,,,,272.1557,,,,,,,,,,,,,,,,,,,,,,,,,,,,,,,,,[930],0,0,0,0,1,,,,
,,,,62c331eb63e265c0c3adcf9d,A,2024-07-08_13h17.57.210,Slot Machine Game,2023.1.3,Win32,60.24096386,,,,,,,,,,,,,,,,,,,,,,,,,,,100,,,,,,,,,,,,,,,,,,,,,2,2,"[6,15]","[[1,3,2],[3,2,1]]",277.1571,0,left,0.5125,,0.5,0.3,"[1,3,2]",0.515500408,stimuli/card_100_transparent.png,100,0,0,0,0,1,,,,,,,,,,
,,,,62c331eb63e265c0c3adcf9d,A,2024-07-08_13h17.57.210,Slot Machine Game,2023.1.3,Win32,60.24096386,,,,,,,,,,,,,,,,,,,,,,,,,,,200,,,,,,,,,,,,,,,,,,,,,2,2,,,279.0002,1,left,0.3361,,0.5,0.3,"[1,3,2]",0.630193876,stimuli/card_100_transparent.png,100,1,0,1,0,1,,,,,,,,,,
,,,,62c331eb63e265c0c3adcf9d,A,2024-07-08_13h17.57.210,Slot Machine Game,2023.1.3,Win32,60.24096386,,,,,,,,,,,,,,,,,,,,,,,,,,,200,,,,,,,,,,,,,,,,,,,,,2,2,,,280.6665,2,left,0.0228,,0.5,0.3,"[1,3,2]",0.087021064,stimuli/card_0_transparent.png,0,2,0,2,0,1,,,,,,,,,,
,,,,62c331eb63e265c0c3adcf9d,A,2024-07-08_13h17.57.210,Slot Machine Game,2023.1.3,Win32,60.24096386,,,,,,,,,,,,,,,,,,,,,,,,,,,200,,,,,,,,,,,,,,,,,,,,,2,2,,,282.0328,3,up,0.2007,,1.5,0.3,"[1,3,2]",0.921693828,stimuli/card_0_transparent.png,0,3,0,3,0,1,,,,,,,,,,
,,,,62c331eb63e265c0c3adcf9d,A,2024-07-08_13h17.57.210,Slot Machine Game,2023.1.3,Win32,60.24096386,,,,,,,,,,,,,,,,,,,,,,,,,,,210,,,,,,,,,,,,,,,,,,,,,2,2,,,284.5495,4,right,0.5014,,0.5,0.3,"[1,3,2]",0.226713036,stimuli/card_10_transparent.png,10,4,0,4,0,1,,,,,,,,,,
,,,,62c331eb63e265c0c3adcf9d,A,2024-07-08_13h17.57.210,Slot Machine Game,2023.1.3,Win32,60.24096386,,,,,,,,,,,,,,,,,,,,,,,,,,,310,,,,,,,,,,,,,,,,,,,,,2,2,,,286.3662,5,left,0.6679,,1.5,0.3,"[1,3,2]",0.626653215,stimuli/card_100_transparent.png,100,5,0,5,0,1,,,,,,,,,,
,,,,62c331eb63e265c0c3adcf9d,A,2024-07-08_13h17.57.210,Slot Machine Game,2023.1.3,Win32,60.24096386,,,,,,,,,,,,,,,,,,,,,,,,,,,310,,,,,,,,,,,,,,,,,,,,,2,2,,,289.3495,6,left,0.2355,,1.5,0.3,"[3,2,1]",0.328141605,stimuli/card_0_transparent.png,0,6,0,6,0,1,,,,,,,,,,
,,,,62c331eb63e265c0c3adcf9d,A,2024-07-08_13h17.57.210,Slot Machine Game,2023.1.3,Win32,60.24096386,,,,,,,,,,,,,,,,,,,,,,,,,,,410,,,,,,,,,,,,,,,,,,,,,2,2,,,291.8997,7,up,1.2339,,1.5,0.3,"[3,2,1]",0.143763513,stimuli/card_100_transparent.png,100,7,0,7,0,1,,,,,,,,,,
,,,,62c331eb63e265c0c3adcf9d,A,2024-07-08_13h17.57.210,Slot Machine Game,2023.1.3,Win32,60.24096386,,,,,,,,,,,,,,,,,,,,,,,,,,,420,,,,,,,,,,,,,,,,,,,,,2,2,,,295.4375,8,up,0.0005,,1.5,0.3,"[3,2,1]",0.23316332,stimuli/card_10_transparent.png,10,8,0,8,0,1,,,,,,,,,,
,,,,62c331eb63e265c0c3adcf9d,A,2024-07-08_13h17.57.210,Slot Machine Game,2023.1.3,Win32,60.24096386,,,,,,,,,,,,,,,,,,,,,,,,,,,430,,,,,,,,,,,,,,,,,,,,,2,2,,,297.7495,9,up,0.1167,,1.5,0.3,"[3,2,1]",0.582458031,stimuli/card_10_transparent.png,10,9,0,9,0,1,,,,,,,,,,
,,,,62c331eb63e265c0c3adcf9d,A,2024-07-08_13h17.57.210,Slot Machine Game,2023.1.3,Win32,60.24096386,,,,,,,,,,,,,,,,,,,,,,,,,,,430,,,,,,,,,,,,,,,,,,,,,2,2,,,300.1998,10,right,0.6473,,0.5,0.3,"[3,2,1]",0.073977542,stimuli/card_0_transparent.png,0,10,0,10,0,1,,,,,,,,,,
,,,,62c331eb63e265c0c3adcf9d,A,2024-07-08_13h17.57.210,Slot Machine Game,2023.1.3,Win32,60.24096386,,,,,,,,,,,,,,,,,,,,,,,,,,,440,,,,,,,,,,,,,,,,,,,,,2,2,,,302.1831,11,up,0.3658,,0.5,0.3,"[3,2,1]",0.972767333,stimuli/card_10_transparent.png,10,11,0,11,0,1,,,,,,,,,,
,,,,62c331eb63e265c0c3adcf9d,A,2024-07-08_13h17.57.210,Slot Machine Game,2023.1.3,Win32,60.24096386,,,,,,,,,,,,,,,,,,,,,,,,,,,450,,,,,,,,,,,,,,,,,,,,,2,2,,,303.8494,12,up,0.4247,,0.5,0.3,"[3,2,1]",0.415821285,stimuli/card_10_transparent.png,10,12,0,12,0,1,,,,,,,,,,
,,,,62c331eb63e265c0c3adcf9d,A,2024-07-08_13h17.57.210,Slot Machine Game,2023.1.3,Win32,60.24096386,,,,,,,,,,,,,,,,,,,,,,,,,,,460,,,,,,,,,,,,,,,,,,,,,2,2,,,305.5727,13,up,0.0186,,1.5,0.3,"[3,2,1]",0.409470637,stimuli/card_10_transparent.png,10,13,0,13,0,1,,,,,,,,,,
,,,,62c331eb63e265c0c3adcf9d,A,2024-07-08_13h17.57.210,Slot Machine Game,2023.1.3,Win32,60.24096386,,,,,,,,,,,,,,,,,,,,,,,,,,,460,,,,,,,,,,,,,,,,,,,,,2,2,,,307.9203,14,left,0.0425,,1.5,0.3,"[3,2,1]",0.424865693,stimuli/card_0_transparent.png,0,14,0,14,0,1,,,,,,,,,,
,,,,62c331eb63e265c0c3adcf9d,A,2024-07-08_13h17.57.210,Slot Machine Game,2023.1.3,Win32,60.24096386,,,,,,,,,,,,,,,,,,,,,,,,,,,,,,,,,,,310.2999,,,,,,,,,,,,,,,,,,,,,,,,,,,,,,,,,"[930,460]",1,0,1,0,1,,,,
,,,,62c331eb63e265c0c3adcf9d,A,2024-07-08_13h17.57.210,Slot Machine Game,2023.1.3,Win32,60.24096386,,,,,,,,,,,,,,,,,,,,,,,,,,,10,,,,,,,,,,,,,,,,,,,,,3,3,"[15,15]","[[3,1,2],[3,1,2]]",315.3121,0,up,0.0844,,1,0.3,"[3,1,2]",0.135067844,stimuli/card_10_transparent.png,10,0,0,0,0,1,,,,,,,,,,
,,,,62c331eb63e265c0c3adcf9d,A,2024-07-08_13h17.57.210,Slot Machine Game,2023.1.3,Win32,60.24096386,,,,,,,,,,,,,,,,,,,,,,,,,,,20,,,,,,,,,,,,,,,,,,,,,3,3,,,317.2225,1,right,0.283,,0.5,0.3,"[3,1,2]",0.827382651,stimuli/card_10_transparent.png,10,1,0,1,0,1,,,,,,,,,,
,,,,62c331eb63e265c0c3adcf9d,A,2024-07-08_13h17.57.210,Slot Machine Game,2023.1.3,Win32,60.24096386,,,,,,,,,,,,,,,,,,,,,,,,,,,30,,,,,,,,,,,,,,,,,,,,,3,3,,,318.8329,2,left,0.0171,,1.5,0.3,"[3,1,2]",0.125809705,stimuli/card_10_transparent.png,10,2,0,2,0,1,,,,,,,,,,
,,,,62c331eb63e265c0c3adcf9d,A,2024-07-08_13h17.57.210,Slot Machine Game,2023.1.3,Win32,60.24096386,,,,,,,,,,,,,,,,,,,,,,,,,,,30,,,,,,,,,,,,,,,,,,,,,3,3,,,321.1661,3,left,0.2432,,1,0.3,"[3,1,2]",0.950133584,stimuli/card_0_transparent.png,0,3,0,3,0,1,,,,,,,,,,
,,,,62c331eb63e265c0c3adcf9d,A,2024-07-08_13h17.57.210,Slot Machine Game,2023.1.3,Win32,60.24096386,,,,,,,,,,,,,,,,,,,,,,,,,,,130,,,,,,,,,,,,,,,,,,,,,3,3,,,323.2328,4,up,0.2542,,0.5,0.3,"[3,1,2]",0.77941614,stimuli/card_100_transparent.png,100,4,0,4,0,1,,,,,,,,,,
,,,,62c331eb63e265c0c3adcf9d,A,2024-07-08_13h17.57.210,Slot Machine Game,2023.1.3,Win32,60.24096386,,,,,,,,,,,,,,,,,,,,,,,,,,,230,,,,,,,,,,,,,,,,,,,,,3,3,,,324.8161,5,up,0.1558,,1,0.3,"[3,1,2]",0.622145672,stimuli/card_100_transparent.png,100,5,0,5,0,1,,,,,,,,,,
,,,,62c331eb63e265c0c3adcf9d,A,2024-07-08_13h17.57.210,Slot Machine Game,2023.1.3,Win32,60.24096386,,,,,,,,,,,,,,,,,,,,,,,,,,,330,,,,,,,,,,,,,,,,,,,,,3,3,,,326.7717,6,up,0.596,,0.5,0.3,"[3,1,2]",0.48878215,stimuli/card_100_transparent.png,100,6,0,6,0,1,,,,,,,,,,
,,,,62c331eb63e265c0c3adcf9d,A,2024-07-08_13h17.57.210,Slot Machine Game,2023.1.3,Win32,60.24096386,,,,,,,,,,,,,,,,,,,,,,,,,,,430,,,,,,,,,,,,,,,,,,,,,3,3,,,328.6999,7,up,0.5477,,0.5,0.3,"[3,1,2]",0.203266623,stimuli/card_100_transparent.png,100,7,0,7,0,1,,,,,,,,,,
,,,,62c331eb63e265c0c3adcf9d,A,2024-07-08_13h17.57.210,Slot Machine Game,2023.1.3,Win32,60.24096386,,,,,,,,,,,,,,,,,,,,,,,,,,,440,,,,,,,,,,,,,,,,,,,,,3,3,,,330.5667,8,up,0.4033,,0.5,0.3,"[3,1,2]",0.146906503,stimuli/card_10_transparent.png,10,8,0,8,0,1,,,,,,,,,,
,,,,62c331eb63e265c0c3adcf9d,A,2024-07-08_13h17.57.210,Slot Machine Game,2023.1.3,Win32,60.24096386,,,,,,,,,,,,,,,,,,,,,,,,,,,540,,,,,,,,,,,,,,,,,,,,,3,3,,,332.2994,9,up,0.4282,,0.5,0.3,"[3,1,2]",0.536483238,stimuli/card_100_transparent.png,100,9,0,9,0,1,,,,,,,,,,
,,,,62c331eb63e265c0c3adcf9d,A,2024-07-08_13h17.57.210,Slot Machine Game,2023.1.3,Win32,60.24096386,,,,,,,,,,,,,,,,,,,,,,,,,,,640,,,,,,,,,,,,,,,,,,,,,3,3,,,334.0495,10,up,0.1159,,1.5,0.3,"[3,1,2]",0.904409129,stimuli/card_100_transparent.png,100,10,0,10,0,1,,,,,,,,,,
,,,,62c331eb63e265c0c3adcf9d,A,2024-07-08_13h17.57.210,Slot Machine Game,2023.1.3,Win32,60.24096386,,,,,,,,,,,,,,,,,,,,,,,,,,,740,,,,,,,,,,,,,,,,,,,,,3,3,,,336.4827,11,up,0.3576,,0.5,0.3,"[3,1,2]",0.590726192,stimuli/card_100_transparent.png,100,11,0,11,0,1,,,,,,,,,,
,,,,62c331eb63e265c0c3adcf9d,A,2024-07-08_13h17.57.210,Slot Machine Game,2023.1.3,Win32,60.24096386,,,,,,,,,,,,,,,,,,,,,,,,,,,840,,,,,,,,,,,,,,,,,,,,,3,3,,,338.1664,12,up,0.0661,,0.5,0.3,"[3,1,2]",0.905679132,stimuli/card_100_transparent.png,100,12,0,12,0,1,,,,,,,,,,
,,,,62c331eb63e265c0c3adcf9d,A,2024-07-08_13h17.57.210,Slot Machine Game,2023.1.3,Win32,60.24096386,,,,,,,,,,,,,,,,,,,,,,,,,,,940,,,,,,,,,,,,,,,,,,,,,3,3,,,339.5495,13,up,0.3409,,1.5,0.3,"[3,1,2]",0.955534546,stimuli/card_100_transparent.png,100,13,0,13,0,1,,,,,,,,,,
,,,,62c331eb63e265c0c3adcf9d,A,2024-07-08_13h17.57.210,Slot Machine Game,2023.1.3,Win32,60.24096386,,,,,,,,,,,,,,,,,,,,,,,,,,,1040,,,,,,,,,,,,,,,,,,,,,3,3,,,342.2329,14,up,0.0407,,1,0.3,"[3,1,2]",0.849119226,stimuli/card_100_transparent.png,100,14,0,14,0,1,,,,,,,,,,
,,,,62c331eb63e265c0c3adcf9d,A,2024-07-08_13h17.57.210,Slot Machine Game,2023.1.3,Win32,60.24096386,,,,,,,,,,,,,,,,,,,,,,,,,,,,,,,,,,,344.0833,,,,,,,,,,,,,,,,,,,,,,,,,,,,,,,,,"[930,460,1040]",2,0,2,0,1,,,,
,,,,62c331eb63e265c0c3adcf9d,A,2024-07-08_13h17.57.210,Slot Machine Game,2023.1.3,Win32,60.24096386,,,,,,,,,,,,,,,,,,,,,,,,,,,100,,,,,,,,,,,,,,,,,,,,,4,4,"[7,15]","[[2,3,1],[1,2,3]]",349.0901,0,up,0.1486,,1,0.3,"[2,3,1]",0.057742277,stimuli/card_100_transparent.png,100,0,0,0,0,1,,,,,,,,,,
,,,,62c331eb63e265c0c3adcf9d,A,2024-07-08_13h17.57.210,Slot Machine Game,2023.1.3,Win32,60.24096386,,,,,,,,,,,,,,,,,,,,,,,,,,,100,,,,,,,,,,,,,,,,,,,,,4,4,,,351.0497,1,up,0.1532,,1.5,0.3,"[2,3,1]",0.961553458,stimuli/card_0_transparent.png,0,1,0,1,0,1,,,,,,,,,,
,,,,62c331eb63e265c0c3adcf9d,A,2024-07-08_13h17.57.210,Slot Machine Game,2023.1.3,Win32,60.24096386,,,,,,,,,,,,,,,,,,,,,,,,,,,200,,,,,,,,,,,,,,,,,,,,,4,4,,,353.5496,2,right,0.2996,,1.5,0.3,"[2,3,1]",0.469167039,stimuli/card_100_transparent.png,100,2,0,2,0,1,,,,,,,,,,
,,,,62c331eb63e265c0c3adcf9d,A,2024-07-08_13h17.57.210,Slot Machine Game,2023.1.3,Win32,60.24096386,,,,,,,,,,,,,,,,,,,,,,,,,,,300,,,,,,,,,,,,,,,,,,,,,4,4,,,356.1662,3,right,0.9114,,1,0.3,"[2,3,1]",0.717362326,stimuli/card_100_transparent.png,100,3,0,3,0,1,,,,,,,,,,
,,,,62c331eb63e265c0c3adcf9d,A,2024-07-08_13h17.57.210,Slot Machine Game,2023.1.3,Win32,60.24096386,,,,,,,,,,,,,,,,,,,,,,,,,,,310,,,,,,,,,,,,,,,,,,,,,4,4,,,358.8996,4,right,0.1355,,1.5,0.3,"[2,3,1]",0.174820237,stimuli/card_10_transparent.png,10,4,0,4,0,1,,,,,,,,,,
,,,,62c331eb63e265c0c3adcf9d,A,2024-07-08_13h17.57.210,Slot Machine Game,2023.1.3,Win32,60.24096386,,,,,,,,,,,,,,,,,,,,,,,,,,,320,,,,,,,,,,,,,,,,,,,,,4,4,,,361.3713,5,left,0.3352,,1.5,0.3,"[2,3,1]",0.523855731,stimuli/card_10_transparent.png,10,5,0,5,0,1,,,,,,,,,,
,,,,62c331eb63e265c0c3adcf9d,A,2024-07-08_13h17.57.210,Slot Machine Game,2023.1.3,Win32,60.24096386,,,,,,,,,,,,,,,,,,,,,,,,,,,330,,,,,,,,,,,,,,,,,,,,,4,4,,,364.0496,6,up,0.2509,,1.5,0.3,"[2,3,1]",0.184877552,stimuli/card_10_transparent.png,10,6,0,6,0,1,,,,,,,,,,
,,,,62c331eb63e265c0c3adcf9d,A,2024-07-08_13h17.57.210,Slot Machine Game,2023.1.3,Win32,60.24096386,,,,,,,,,,,,,,,,,,,,,,,,,,,430,,,,,,,,,,,,,,,,,,,,,4,4,,,366.5997,7,left,0.2545,,1,0.3,"[1,2,3]",0.308945294,stimuli/card_100_transparent.png,100,7,0,7,0,1,,,,,,,,,,
,,,,62c331eb63e265c0c3adcf9d,A,2024-07-08_13h17.57.210,Slot Machine Game,2023.1.3,Win32,60.24096386,,,,,,,,,,,,,,,,,,,,,,,,,,,530,,,,,,,,,,,,,,,,,,,,,4,4,,,368.683,8,left,0.3396,,0.5,0.3,"[1,2,3]",0.21176068,stimuli/card_100_transparent.png,100,8,0,8,0,1,,,,,,,,,,
,,,,62c331eb63e265c0c3adcf9d,A,2024-07-08_13h17.57.210,Slot Machine Game,2023.1.3,Win32,60.24096386,,,,,,,,,,,,,,,,,,,,,,,,,,,530,,,,,,,,,,,,,,,,,,,,,4,4,,,370.3498,9,left,0.2377,,1,0.3,"[1,2,3]",0.052313609,stimuli/card_0_transparent.png,0,9,0,9,0,1,,,,,,,,,,
,,,,62c331eb63e265c0c3adcf9d,A,2024-07-08_13h17.57.210,Slot Machine Game,2023.1.3,Win32,60.24096386,,,,,,,,,,,,,,,,,,,,,,,,,,,540,,,,,,,,,,,,,,,,,,,,,4,4,,,372.4328,10,up,0.0005,,0.5,0.3,"[1,2,3]",0.577580401,stimuli/card_10_transparent.png,10,10,0,10,0,1,,,,,,,,,,
,,,,62c331eb63e265c0c3adcf9d,A,2024-07-08_13h17.57.210,Slot Machine Game,2023.1.3,Win32,60.24096386,,,,,,,,,,,,,,,,,,,,,,,,,,,550,,,,,,,,,,,,,,,,,,,,,4,4,,,373.7495,11,right,0.0007,,1,0.3,"[1,2,3]",0.163385403,stimuli/card_10_transparent.png,10,11,0,11,0,1,,,,,,,,,,
,,,,62c331eb63e265c0c3adcf9d,A,2024-07-08_13h17.57.210,Slot Machine Game,2023.1.3,Win32,60.24096386,,,,,,,,,,,,,,,,,,,,,,,,,,,550,,,,,,,,,,,,,,,,,,,,,4,4,,,375.5831,12,up,0.1318,,1,0.3,"[1,2,3]",0.079181234,stimuli/card_0_transparent.png,0,12,0,12,0,1,,,,,,,,,,
,,,,62c331eb63e265c0c3adcf9d,A,2024-07-08_13h17.57.210,Slot Machine Game,2023.1.3,Win32,60.24096386,,,,,,,,,,,,,,,,,,,,,,,,,,,650,,,,,,,,,,,,,,,,,,,,,4,4,,,377.5231,13,left,0.1341,,1.5,0.3,"[1,2,3]",0.879865325,stimuli/card_100_transparent.png,100,13,0,13,0,1,,,,,,,,,,
,,,,62c331eb63e265c0c3adcf9d,A,2024-07-08_13h17.57.210,Slot Machine Game,2023.1.3,Win32,60.24096386,,,,,,,,,,,,,,,,,,,,,,,,,,,750,,,,,,,,,,,,,,,,,,,,,4,4,,,379.983,14,left,0.5124,,1.5,0.3,"[1,2,3]",0.984642609,stimuli/card_100_transparent.png,100,14,0,14,0,1,,,,,,,,,,
,,,,62c331eb63e265c0c3adcf9d,A,2024-07-08_13h17.57.210,Slot Machine Game,2023.1.3,Win32,60.24096386,,,,,,,,,,,,,,,,,,,,,,,,,,,,,,,,,,,382.8215,,,,,,,,,,,,,,,,,,,,,,,,,,,,,,,,,"[930,460,1040,750]",3,0,3,0,1,,,,
,,,,62c331eb63e265c0c3adcf9d,A,2024-07-08_13h17.57.210,Slot Machine Game,2023.1.3,Win32,60.24096386,,,,,,,,,,,,,,,,,,,,,,,,,,,100,,,,,,,,,,,,,,,,,,,,,5,5,"[5,15]","[[1,2,3],[3,1,2]]",387.8251,0,left,0.1952,,1.5,0.3,"[1,2,3]",0.612772291,stimuli/card_100_transparent.png,100,0,0,0,0,1,,,,,,,,,,
,,,,62c331eb63e265c0c3adcf9d,A,2024-07-08_13h17.57.210,Slot Machine Game,2023.1.3,Win32,60.24096386,,,,,,,,,,,,,,,,,,,,,,,,,,,200,,,,,,,,,,,,,,,,,,,,,5,5,,,390.3332,1,left,0.1601,,0.5,0.3,"[1,2,3]",0.46889231,stimuli/card_100_transparent.png,100,1,0,1,0,1,,,,,,,,,,
,,,,62c331eb63e265c0c3adcf9d,A,2024-07-08_13h17.57.210,Slot Machine Game,2023.1.3,Win32,60.24096386,,,,,,,,,,,,,,,,,,,,,,,,,,,300,,,,,,,,,,,,,,,,,,,,,5,5,,,391.8002,2,left,0.3855,,0.5,0.3,"[1,2,3]",0.28047734,stimuli/card_100_transparent.png,100,2,0,2,0,1,,,,,,,,,,
,,,,62c331eb63e265c0c3adcf9d,A,2024-07-08_13h17.57.210,Slot Machine Game,2023.1.3,Win32,60.24096386,,,,,,,,,,,,,,,,,,,,,,,,,,,310,,,,,,,,,,,,,,,,,,,,,5,5,,,393.5205,3,left,0.4738,,1,0.3,"[1,2,3]",0.126523748,stimuli/card_10_transparent.png,10,3,0,3,0,1,,,,,,,,,,
,,,,62c331eb63e265c0c3adcf9d,A,2024-07-08_13h17.57.210,Slot Machine Game,2023.1.3,Win32,60.24096386,,,,,,,,,,,,,,,,,,,,,,,,,,,410,,,,,,,,,,,,,,,,,,,,,5,5,,,395.7997,4,left,0.0689,,1.5,0.3,"[1,2,3]",0.462592666,stimuli/card_100_transparent.png,100,4,0,4,0,1,,,,,,,,,,
,,,,62c331eb63e265c0c3adcf9d,A,2024-07-08_13h17.57.210,Slot Machine Game,2023.1.3,Win32,60.24096386,,,,,,,,,,,,,,,,,,,,,,,,,,,510,,,,,,,,,,,,,,,,,,,,,5,5,,,398.2064,5,up,0.9089,,0.5,0.3,"[3,1,2]",0.829537773,stimuli/card_100_transparent.png,100,5,0,5,0,1,,,,,,,,,,
,,,,62c331eb63e265c0c3adcf9d,A,2024-07-08_13h17.57.210,Slot Machine Game,2023.1.3,Win32,60.24096386,,,,,,,,,,,,,,,,,,,,,,,,,,,610,,,,,,,,,,,,,,,,,,,,,5,5,,,400.4496,6,up,0.1057,,1.5,0.3,"[3,1,2]",0.585790118,stimuli/card_100_transparent.png,100,6,0,6,0,1,,,,,,,,,,
,,,,62c331eb63e265c0c3adcf9d,A,2024-07-08_13h17.57.210,Slot Machine Game,2023.1.3,Win32,60.24096386,,,,,,,,,,,,,,,,,,,,,,,,,,,710,,,,,,,,,,,,,,,,,,,,,5,5,,,402.887,7,up,0.1128,,1,0.3,"[3,1,2]",0.290403287,stimuli/card_100_transparent.png,100,7,0,7,0,1,,,,,,,,,,
,,,,62c331eb63e265c0c3adcf9d,A,2024-07-08_13h17.57.210,Slot Machine Game,2023.1.3,Win32,60.24096386,,,,,,,,,,,,,,,,,,,,,,,,,,,710,,,,,,,,,,,,,,,,,,,,,5,5,,,404.8161,8,up,0.17,,1,0.3,"[3,1,2]",0.030092695,stimuli/card_0_transparent.png,0,8,0,8,0,1,,,,,,,,,,
,,,,62c331eb63e265c0c3adcf9d,A,2024-07-08_13h17.57.210,Slot Machine Game,2023.1.3,Win32,60.24096386,,,,,,,,,,,,,,,,,,,,,,,,,,,710,,,,,,,,,,,,,,,,,,,,,5,5,,,406.8162,9,left,0.0692,,1,0.3,"[3,1,2]",0.610192898,stimuli/card_0_transparent.png,0,9,0,9,0,1,,,,,,,,,,
,,,,62c331eb63e265c0c3adcf9d,A,2024-07-08_13h17.57.210,Slot Machine Game,2023.1.3,Win32,60.24096386,,,,,,,,,,,,,,,,,,,,,,,,,,,720,,,,,,,,,,,,,,,,,,,,,5,5,,,408.7164,10,right,0.0822,,1,0.3,"[3,1,2]",0.697710953,stimuli/card_10_transparent.png,10,10,0,10,0,1,,,,,,,,,,
,,,,62c331eb63e265c0c3adcf9d,A,2024-07-08_13h17.57.210,Slot Machine Game,2023.1.3,Win32,60.24096386,,,,,,,,,,,,,,,,,,,,,,,,,,,820,,,,,,,,,,,,,,,,,,,,,5,5,,,410.6328,11,up,0.0673,,1.5,0.3,"[3,1,2]",0.809309577,stimuli/card_100_transparent.png,100,11,0,11,0,1,,,,,,,,,,
,,,,62c331eb63e265c0c3adcf9d,A,2024-07-08_13h17.57.210,Slot Machine Game,2023.1.3,Win32,60.24096386,,,,,,,,,,,,,,,,,,,,,,,,,,,920,,,,,,,,,,,,,,,,,,,,,5,5,,,413.033,12,up,0.2017,,1,0.3,"[3,1,2]",0.800086444,stimuli/card_100_transparent.png,100,12,0,12,0,1,,,,,,,,,,
,,,,62c331eb63e265c0c3adcf9d,A,2024-07-08_13h17.57.210,Slot Machine Game,2023.1.3,Win32,60.24096386,,,,,,,,,,,,,,,,,,,,,,,,,,,1020,,,,,,,,,,,,,,,,,,,,,5,5,,,415.0664,13,up,0.0332,,0.5,0.3,"[3,1,2]",0.843883991,stimuli/card_100_transparent.png,100,13,0,13,0,1,,,,,,,,,,
,,,,62c331eb63e265c0c3adcf9d,A,2024-07-08_13h17.57.210,Slot Machine Game,2023.1.3,Win32,60.24096386,,,,,,,,,,,,,,,,,,,,,,,,,,,1120,,,,,,,,,,,,,,,,,,,,,5,5,,,416.4328,14,up,0.0647,,0.5,0.3,"[3,1,2]",0.866210015,stimuli/card_100_transparent.png,100,14,0,14,0,1,,,,,,,,,,
,,,,62c331eb63e265c0c3adcf9d,A,2024-07-08_13h17.57.210,Slot Machine Game,2023.1.3,Win32,60.24096386,,,,,,,,,,,,,,,,,,,,,,,,,,,,,,,,,,,417.8327,,,,,,,,,,,,,,,,,,,,,,,,,,,,,,,,,"[930,460,1040,750,1120]",4,0,4,0,1,,,,
,,,,62c331eb63e265c0c3adcf9d,A,2024-07-08_13h17.57.210,Slot Machine Game,2023.1.3,Win32,60.24096386,,,,,,,,,,,,,,,,,,,,,,,,,,,0,,,,,,,,,,,,,,,,,,,,,6,6,"[4,10,15]","[[2,3,1],[1,3,2],[3,2,1]]",422.8448,0,up,0.0649,,1.5,0.3,"[2,3,1]",0.884711329,stimuli/card_0_transparent.png,0,0,0,0,0,1,,,,,,,,,,
,,,,62c331eb63e265c0c3adcf9d,A,2024-07-08_13h17.57.210,Slot Machine Game,2023.1.3,Win32,60.24096386,,,,,,,,,,,,,,,,,,,,,,,,,,,10,,,,,,,,,,,,,,,,,,,,,6,6,,,425.2054,1,left,0.0524,,1.5,0.3,"[2,3,1]",0.95060849,stimuli/card_10_transparent.png,10,1,0,1,0,1,,,,,,,,,,
,,,,62c331eb63e265c0c3adcf9d,A,2024-07-08_13h17.57.210,Slot Machine Game,2023.1.3,Win32,60.24096386,,,,,,,,,,,,,,,,,,,,,,,,,,,110,,,,,,,,,,,,,,,,,,,,,6,6,,,427.5832,2,right,0.2395,,1,0.3,"[2,3,1]",0.67907071,stimuli/card_100_transparent.png,100,2,0,2,0,1,,,,,,,,,,
,,,,62c331eb63e265c0c3adcf9d,A,2024-07-08_13h17.57.210,Slot Machine Game,2023.1.3,Win32,60.24096386,,,,,,,,,,,,,,,,,,,,,,,,,,,210,,,,,,,,,,,,,,,,,,,,,6,6,,,429.6392,3,right,0.3873,,1.5,0.3,"[2,3,1]",0.474288989,stimuli/card_100_transparent.png,100,3,0,3,0,1,,,,,,,,,,
,,,,62c331eb63e265c0c3adcf9d,A,2024-07-08_13h17.57.210,Slot Machine Game,2023.1.3,Win32,60.24096386,,,,,,,,,,,,,,,,,,,,,,,,,,,220,,,,,,,,,,,,,,,,,,,,,6,6,,,432.3497,4,right,0.0886,,1.5,0.3,"[1,3,2]",0.700598611,stimuli/card_10_transparent.png,10,4,0,4,0,1,,,,,,,,,,
,,,,62c331eb63e265c0c3adcf9d,A,2024-07-08_13h17.57.210,Slot Machine Game,2023.1.3,Win32,60.24096386,,,,,,,,,,,,,,,,,,,,,,,,,,,230,,,,,,,,,,,,,,,,,,,,,6,6,,,434.7496,5,right,0.0873,,1.5,0.3,"[1,3,2]",0.910120356,stimuli/card_10_transparent.png,10,5,0,5,0,1,,,,,,,,,,
,,,,62c331eb63e265c0c3adcf9d,A,2024-07-08_13h17.57.210,Slot Machine Game,2023.1.3,Win32,60.24096386,,,,,,,,,,,,,,,,,,,,,,,,,,,230,,,,,,,,,,,,,,,,,,,,,6,6,,,437.1662,6,up,0.868,,1,0.3,"[1,3,2]",0.283657812,stimuli/card_0_transparent.png,0,6,0,6,0,1,,,,,,,,,,
,,,,62c331eb63e265c0c3adcf9d,A,2024-07-08_13h17.57.210,Slot Machine Game,2023.1.3,Win32,60.24096386,,,,,,,,,,,,,,,,,,,,,,,,,,,330,,,,,,,,,,,,,,,,,,,,,6,6,,,439.8666,7,left,0.609,,0.5,0.3,"[1,3,2]",0.617347594,stimuli/card_100_transparent.png,100,7,0,7,0,1,,,,,,,,,,
,,,,62c331eb63e265c0c3adcf9d,A,2024-07-08_13h17.57.210,Slot Machine Game,2023.1.3,Win32,60.24096386,,,,,,,,,,,,,,,,,,,,,,,,,,,340,,,,,,,,,,,,,,,,,,,,,6,6,,,441.783,8,left,0.038,,1,0.3,"[1,3,2]",0.177320699,stimuli/card_10_transparent.png,10,8,0,8,0,1,,,,,,,,,,
,,,,62c331eb63e265c0c3adcf9d,A,2024-07-08_13h17.57.210,Slot Machine Game,2023.1.3,Win32,60.24096386,,,,,,,,,,,,,,,,,,,,,,,,,,,340,,,,,,,,,,,,,,,,,,,,,6,6,,,443.6332,9,up,0.1983,,1.5,0.3,"[1,3,2]",0.522816358,stimuli/card_0_transparent.png,0,9,0,9,0,1,,,,,,,,,,
,,,,62c331eb63e265c0c3adcf9d,A,2024-07-08_13h17.57.210,Slot Machine Game,2023.1.3,Win32,60.24096386,,,,,,,,,,,,,,,,,,,,,,,,,,,440,,,,,,,,,,,,,,,,,,,,,6,6,,,446.1668,10,right,0.5605,,1.5,0.3,"[3,2,1]",0.660636732,stimuli/card_100_transparent.png,100,10,0,10,0,1,,,,,,,,,,
,,,,62c331eb63e265c0c3adcf9d,A,2024-07-08_13h17.57.210,Slot Machine Game,2023.1.3,Win32,60.24096386,,,,,,,,,,,,,,,,,,,,,,,,,,,450,,,,,,,,,,,,,,,,,,,,,6,6,,,449.0541,11,right,0.0005,,1,0.3,"[3,2,1]",0.155359528,stimuli/card_10_transparent.png,10,11,0,11,0,1,,,,,,,,,,
,,,,62c331eb63e265c0c3adcf9d,A,2024-07-08_13h17.57.210,Slot Machine Game,2023.1.3,Win32,60.24096386,,,,,,,,,,,,,,,,,,,,,,,,,,,460,,,,,,,,,,,,,,,,,,,,,6,6,,,450.883,12,up,0.2037,,0.5,0.3,"[3,2,1]",0.293533504,stimuli/card_10_transparent.png,10,12,0,12,0,1,,,,,,,,,,
,,,,62c331eb63e265c0c3adcf9d,A,2024-07-08_13h17.57.210,Slot Machine Game,2023.1.3,Win32,60.24096386,,,,,,,,,,,,,,,,,,,,,,,,,,,460,,,,,,,,,,,,,,,,,,,,,6,6,,,452.3997,13,left,0.1259,,0.5,0.3,"[3,2,1]",0.592405743,stimuli/card_0_transparent.png,0,13,0,13,0,1,,,,,,,,,,
,,,,62c331eb63e265c0c3adcf9d,A,2024-07-08_13h17.57.210,Slot Machine Game,2023.1.3,Win32,60.24096386,,,,,,,,,,,,,,,,,,,,,,,,,,,470,,,,,,,,,,,,,,,,,,,,,6,6,,,453.8665,14,up,0.3676,,0.5,0.3,"[3,2,1]",0.549279376,stimuli/card_10_transparent.png,10,14,0,14,0,1,,,,,,,,,,
,,,,62c331eb63e265c0c3adcf9d,A,2024-07-08_13h17.57.210,Slot Machine Game,2023.1.3,Win32,60.24096386,,,,,,,,,,,,,,,,,,,,,,,,,,,,,,,,,,,455.5828,,,,,,,,,,,,,,,,,,,,,,,,,,,,,,,,,"[930,460,1040,750,1120,470]",5,0,5,0,1,,,,
,,,,62c331eb63e265c0c3adcf9d,A,2024-07-08_13h17.57.210,Slot Machine Game,2023.1.3,Win32,60.24096386,,,,,,,,,,,,,,,,,,,,,,,,,,,100,,,,,,,,,,,,,,,,,,,,,7,7,"[9,15]","[[1,3,2],[2,3,1]]",460.5923,0,right,0.3362,,1,0.3,"[1,3,2]",0.127474926,stimuli/card_100_transparent.png,100,0,0,0,0,1,,,,,,,,,,
,,,,62c331eb63e265c0c3adcf9d,A,2024-07-08_13h17.57.210,Slot Machine Game,2023.1.3,Win32,60.24096386,,,,,,,,,,,,,,,,,,,,,,,,,,,110,,,,,,,,,,,,,,,,,,,,,7,7,,,462.7665,1,right,0.1076,,1.5,0.3,"[1,3,2]",0.335957126,stimuli/card_10_transparent.png,10,1,0,1,0,1,,,,,,,,,,
,,,,62c331eb63e265c0c3adcf9d,A,2024-07-08_13h17.57.210,Slot Machine Game,2023.1.3,Win32,60.24096386,,,,,,,,,,,,,,,,,,,,,,,,,,,110,,,,,,,,,,,,,,,,,,,,,7,7,,,465.2164,2,up,0.2959,,1.5,0.3,"[1,3,2]",0.563295981,stimuli/card_0_transparent.png,0,2,0,2,0,1,,,,,,,,,,
,,,,62c331eb63e265c0c3adcf9d,A,2024-07-08_13h17.57.210,Slot Machine Game,2023.1.3,Win32,60.24096386,,,,,,,,,,,,,,,,,,,,,,,,,,,210,,,,,,,,,,,,,,,,,,,,,7,7,,,467.8334,3,left,0.0005,,1.5,0.3,"[1,3,2]",0.779667816,stimuli/card_100_transparent.png,100,3,0,3,0,1,,,,,,,,,,
,,,,62c331eb63e265c0c3adcf9d,A,2024-07-08_13h17.57.210,Slot Machine Game,2023.1.3,Win32,60.24096386,,,,,,,,,,,,,,,,,,,,,,,,,,,310,,,,,,,,,,,,,,,,,,,,,7,7,,,470.166,4,left,0.3042,,1,0.3,"[1,3,2]",0.735515938,stimuli/card_100_transparent.png,100,4,0,4,0,1,,,,,,,,,,
,,,,62c331eb63e265c0c3adcf9d,A,2024-07-08_13h17.57.210,Slot Machine Game,2023.1.3,Win32,60.24096386,,,,,,,,,,,,,,,,,,,,,,,,,,,410,,,,,,,,,,,,,,,,,,,,,7,7,,,472.289,5,left,0.1383,,1,0.3,"[1,3,2]",0.697098432,stimuli/card_100_transparent.png,100,5,0,5,0,1,,,,,,,,,,
,,,,62c331eb63e265c0c3adcf9d,A,2024-07-08_13h17.57.210,Slot Machine Game,2023.1.3,Win32,60.24096386,,,,,,,,,,,,,,,,,,,,,,,,,,,510,,,,,,,,,,,,,,,,,,,,,7,7,,,474.233,6,left,0.9517,,1.5,0.3,"[1,3,2]",0.501411428,stimuli/card_100_transparent.png,100,6,0,6,0,1,,,,,,,,,,
,,,,62c331eb63e265c0c3adcf9d,A,2024-07-08_13h17.57.210,Slot Machine Game,2023.1.3,Win32,60.24096386,,,,,,,,,,,,,,,,,,,,,,,,,,,610,,,,,,,,,,,,,,,,,,,,,7,7,,,477.5064,7,left,0.2272,,1,0.3,"[1,3,2]",0.862182646,stimuli/card_100_transparent.png,100,7,0,7,0,1,,,,,,,,,,
,,,,62c331eb63e265c0c3adcf9d,A,2024-07-08_13h17.57.210,Slot Machine Game,2023.1.3,Win32,60.24096386,,,,,,,,,,,,,,,,,,,,,,,,,,,710,,,,,,,,,,,,,,,,,,,,,7,7,,,479.5498,8,left,0.199,,1.5,0.3,"[1,3,2]",0.245372936,stimuli/card_100_transparent.png,100,8,0,8,0,1,,,,,,,,,,
,,,,62c331eb63e265c0c3adcf9d,A,2024-07-08_13h17.57.210,Slot Machine Game,2023.1.3,Win32,60.24096386,,,,,,,,,,,,,,,,,,,,,,,,,,,720,,,,,,,,,,,,,,,,,,,,,7,7,,,482.0663,9,left,2.2196,,1.5,0.3,"[2,3,1]",0.356016595,stimuli/card_10_transparent.png,10,9,0,9,0,1,,,,,,,,,,
,,,,62c331eb63e265c0c3adcf9d,A,2024-07-08_13h17.57.210,Slot Machine Game,2023.1.3,Win32,60.24096386,,,,,,,,,,,,,,,,,,,,,,,,,,,820,,,,,,,,,,,,,,,,,,,,,7,7,,,486.6326,10,right,0.8398,,0.5,0.3,"[2,3,1]",0.558255028,stimuli/card_100_transparent.png,100,10,0,10,0,1,,,,,,,,,,
,,,,62c331eb63e265c0c3adcf9d,A,2024-07-08_13h17.57.210,Slot Machine Game,2023.1.3,Win32,60.24096386,,,,,,,,,,,,,,,,,,,,,,,,,,,820,,,,,,,,,,,,,,,,,,,,,7,7,,,488.7734,11,right,0.1036,,1.5,0.3,"[2,3,1]",0.044415639,stimuli/card_0_transparent.png,0,11,0,11,0,1,,,,,,,,,,
,,,,62c331eb63e265c0c3adcf9d,A,2024-07-08_13h17.57.210,Slot Machine Game,2023.1.3,Win32,60.24096386,,,,,,,,,,,,,,,,,,,,,,,,,,,820,,,,,,,,,,,,,,,,,,,,,7,7,,,491.1894,12,up,0.1516,,1,0.3,"[2,3,1]",0.51433561,stimuli/card_0_transparent.png,0,12,0,12,0,1,,,,,,,,,,
,,,,62c331eb63e265c0c3adcf9d,A,2024-07-08_13h17.57.210,Slot Machine Game,2023.1.3,Win32,60.24096386,,,,,,,,,,,,,,,,,,,,,,,,,,,830,,,,,,,,,,,,,,,,,,,,,7,7,,,493.1663,13,left,0.0006,,0.5,0.3,"[2,3,1]",0.676792076,stimuli/card_10_transparent.png,10,13,0,13,0,1,,,,,,,,,,
,,,,62c331eb63e265c0c3adcf9d,A,2024-07-08_13h17.57.210,Slot Machine Game,2023.1.3,Win32,60.24096386,,,,,,,,,,,,,,,,,,,,,,,,,,,840,,,,,,,,,,,,,,,,,,,,,7,7,,,494.4995,14,left,0.2174,,0.5,0.3,"[2,3,1]",0.511167076,stimuli/card_10_transparent.png,10,14,0,14,0,1,,,,,,,,,,
,,,,62c331eb63e265c0c3adcf9d,A,2024-07-08_13h17.57.210,Slot Machine Game,2023.1.3,Win32,60.24096386,,,,,,,,,,,,,,,,,,,,,,,,,,,,,,,,,,,496.0383,,,,,,,,,,,,,,,,,,,,,,,,,,,,,,,,,"[930,460,1040,750,1120,470,840]",6,0,6,0,1,,,,
,,,,62c331eb63e265c0c3adcf9d,A,2024-07-08_13h17.57.210,Slot Machine Game,2023.1.3,Win32,60.24096386,,,,,,,,,,,,,,,,,,,,,,,,,,,10,,,,,,,,,,,,,,,,,,,,,8,8,"[11,15]","[[2,1,3],[1,2,3]]",501.0452,0,left,3.9481,,1,0.3,"[2,1,3]",0.972560162,stimuli/card_10_transparent.png,10,0,0,0,0,1,,,,,,,,,,
,,,,62c331eb63e265c0c3adcf9d,A,2024-07-08_13h17.57.210,Slot Machine Game,2023.1.3,Win32,60.24096386,,,,,,,,,,,,,,,,,,,,,,,,,,,110,,,,,,,,,,,,,,,,,,,,,8,8,,,506.7998,1,up,1.4701,,1.5,0.3,"[2,1,3]",0.833618737,stimuli/card_100_transparent.png,100,1,0,1,0,1,,,,,,,,,,
,,,,62c331eb63e265c0c3adcf9d,A,2024-07-08_13h17.57.210,Slot Machine Game,2023.1.3,Win32,60.24096386,,,,,,,,,,,,,,,,,,,,,,,,,,,210,,,,,,,,,,,,,,,,,,,,,8,8,,,510.5996,2,up,0.2611,,1,0.3,"[2,1,3]",0.630657062,stimuli/card_100_transparent.png,100,2,0,2,0,1,,,,,,,,,,
,,,,62c331eb63e265c0c3adcf9d,A,2024-07-08_13h17.57.210,Slot Machine Game,2023.1.3,Win32,60.24096386,,,,,,,,,,,,,,,,,,,,,,,,,,,310,,,,,,,,,,,,,,,,,,,,,8,8,,,512.7003,3,up,0.0277,,1.5,0.3,"[2,1,3]",0.82105682,stimuli/card_100_transparent.png,100,3,0,3,0,1,,,,,,,,,,
,,,,62c331eb63e265c0c3adcf9d,A,2024-07-08_13h17.57.210,Slot Machine Game,2023.1.3,Win32,60.24096386,,,,,,,,,,,,,,,,,,,,,,,,,,,410,,,,,,,,,,,,,,,,,,,,,8,8,,,515.0328,4,up,2.1848,,1.5,0.3,"[2,1,3]",0.486427009,stimuli/card_100_transparent.png,100,4,0,4,0,1,,,,,,,,,,
,,,,62c331eb63e265c0c3adcf9d,A,2024-07-08_13h17.57.210,Slot Machine Game,2023.1.3,Win32,60.24096386,,,,,,,,,,,,,,,,,,,,,,,,,,,510,,,,,,,,,,,,,,,,,,,,,8,8,,,519.5219,5,up,3.2594,,1,0.3,"[2,1,3]",0.272633635,stimuli/card_100_transparent.png,100,5,0,5,0,1,,,,,,,,,,
,,,,62c331eb63e265c0c3adcf9d,A,2024-07-08_13h17.57.210,Slot Machine Game,2023.1.3,Win32,60.24096386,,,,,,,,,,,,,,,,,,,,,,,,,,,610,,,,,,,,,,,,,,,,,,,,,8,8,,,524.6005,6,up,0.2549,,1.5,0.3,"[2,1,3]",0.880805168,stimuli/card_100_transparent.png,100,6,0,6,0,1,,,,,,,,,,
,,,,62c331eb63e265c0c3adcf9d,A,2024-07-08_13h17.57.210,Slot Machine Game,2023.1.3,Win32,60.24096386,,,,,,,,,,,,,,,,,,,,,,,,,,,710,,,,,,,,,,,,,,,,,,,,,8,8,,,527.1885,7,up,0.0357,,0.5,0.3,"[2,1,3]",0.561067735,stimuli/card_100_transparent.png,100,7,0,7,0,1,,,,,,,,,,
,,,,62c331eb63e265c0c3adcf9d,A,2024-07-08_13h17.57.210,Slot Machine Game,2023.1.3,Win32,60.24096386,,,,,,,,,,,,,,,,,,,,,,,,,,,720,,,,,,,,,,,,,,,,,,,,,8,8,,,528.55,8,up,0.0272,,0.5,0.3,"[2,1,3]",0.103052338,stimuli/card_10_transparent.png,10,8,0,8,0,1,,,,,,,,,,
,,,,62c331eb63e265c0c3adcf9d,A,2024-07-08_13h17.57.210,Slot Machine Game,2023.1.3,Win32,60.24096386,,,,,,,,,,,,,,,,,,,,,,,,,,,820,,,,,,,,,,,,,,,,,,,,,8,8,,,529.8999,9,right,0.2838,,1.5,0.3,"[2,1,3]",0.017541288,stimuli/card_100_transparent.png,100,9,0,9,0,1,,,,,,,,,,
,,,,62c331eb63e265c0c3adcf9d,A,2024-07-08_13h17.57.210,Slot Machine Game,2023.1.3,Win32,60.24096386,,,,,,,,,,,,,,,,,,,,,,,,,,,820,,,,,,,,,,,,,,,,,,,,,8,8,,,532.5,10,right,0.2499,,0.5,0.3,"[2,1,3]",0.94438039,stimuli/card_0_transparent.png,0,10,0,10,0,1,,,,,,,,,,
,,,,62c331eb63e265c0c3adcf9d,A,2024-07-08_13h17.57.210,Slot Machine Game,2023.1.3,Win32,60.24096386,,,,,,,,,,,,,,,,,,,,,,,,,,,920,,,,,,,,,,,,,,,,,,,,,8,8,,,534.083,11,left,0.2679,,0.5,0.3,"[1,2,3]",0.982286598,stimuli/card_100_transparent.png,100,11,0,11,0,1,,,,,,,,,,
,,,,62c331eb63e265c0c3adcf9d,A,2024-07-08_13h17.57.210,Slot Machine Game,2023.1.3,Win32,60.24096386,,,,,,,,,,,,,,,,,,,,,,,,,,,1020,,,,,,,,,,,,,,,,,,,,,8,8,,,535.6665,12,left,0.3165,,0.5,0.3,"[1,2,3]",0.767027433,stimuli/card_100_transparent.png,100,12,0,12,0,1,,,,,,,,,,
,,,,62c331eb63e265c0c3adcf9d,A,2024-07-08_13h17.57.210,Slot Machine Game,2023.1.3,Win32,60.24096386,,,,,,,,,,,,,,,,,,,,,,,,,,,1120,,,,,,,,,,,,,,,,,,,,,8,8,,,537.2998,13,left,0.2642,,1.5,0.3,"[1,2,3]",0.491046474,stimuli/card_100_transparent.png,100,13,0,13,0,1,,,,,,,,,,
,,,,62c331eb63e265c0c3adcf9d,A,2024-07-08_13h17.57.210,Slot Machine Game,2023.1.3,Win32,60.24096386,,,,,,,,,,,,,,,,,,,,,,,,,,,1130,,,,,,,,,,,,,,,,,,,,,8,8,,,539.8729,14,left,0.3165,,1.5,0.3,"[1,2,3]",0.117076379,stimuli/card_10_transparent.png,10,14,0,14,0,1,,,,,,,,,,
,,,,62c331eb63e265c0c3adcf9d,A,2024-07-08_13h17.57.210,Slot Machine Game,2023.1.3,Win32,60.24096386,,,,,,,,,,,,,,,,,,,,,,,,,,,,,,,,,,,542.5164,,,,,,,,,,,,,,,,,,,,,,,,,,,,,,,,,"[930,460,1040,750,1120,470,840,1130]",7,0,7,0,1,,,,
,,,,62c331eb63e265c0c3adcf9d,A,2024-07-08_13h17.57.210,Slot Machine Game,2023.1.3,Win32,60.24096386,,,,,,,,,,,,,,,,,,,,,,,,,,,10,,,,,,,,,,,,,,,,,,,,,9,9,"[8,15]","[[3,2,1],[3,1,2]]",547.5245,0,up,0.2171,,0.5,0.3,"[3,2,1]",0.759050819,stimuli/card_10_transparent.png,10,0,0,0,0,1,,,,,,,,,,
,,,,62c331eb63e265c0c3adcf9d,A,2024-07-08_13h17.57.210,Slot Machine Game,2023.1.3,Win32,60.24096386,,,,,,,,,,,,,,,,,,,,,,,,,,,110,,,,,,,,,,,,,,,,,,,,,9,9,,,549.0666,1,left,0.0473,,1.5,0.3,"[3,2,1]",0.078787212,stimuli/card_100_transparent.png,100,1,0,1,0,1,,,,,,,,,,
,,,,62c331eb63e265c0c3adcf9d,A,2024-07-08_13h17.57.210,Slot Machine Game,2023.1.3,Win32,60.24096386,,,,,,,,,,,,,,,,,,,,,,,,,,,110,,,,,,,,,,,,,,,,,,,,,9,9,,,551.4507,2,left,0.0686,,1.5,0.3,"[3,2,1]",0.689839969,stimuli/card_0_transparent.png,0,2,0,2,0,1,,,,,,,,,,
,,,,62c331eb63e265c0c3adcf9d,A,2024-07-08_13h17.57.210,Slot Machine Game,2023.1.3,Win32,60.24096386,,,,,,,,,,,,,,,,,,,,,,,,,,,120,,,,,,,,,,,,,,,,,,,,,9,9,,,553.8397,3,up,0.391,,1,0.3,"[3,2,1]",0.642193729,stimuli/card_10_transparent.png,10,3,0,3,0,1,,,,,,,,,,
,,,,62c331eb63e265c0c3adcf9d,A,2024-07-08_13h17.57.210,Slot Machine Game,2023.1.3,Win32,60.24096386,,,,,,,,,,,,,,,,,,,,,,,,,,,120,,,,,,,,,,,,,,,,,,,,,9,9,,,556.0663,4,up,2.0062,,1,0.3,"[3,2,1]",0.063616055,stimuli/card_0_transparent.png,0,4,0,4,0,1,,,,,,,,,,
,,,,62c331eb63e265c0c3adcf9d,A,2024-07-08_13h17.57.210,Slot Machine Game,2023.1.3,Win32,60.24096386,,,,,,,,,,,,,,,,,,,,,,,,,,,120,,,,,,,,,,,,,,,,,,,,,9,9,,,559.9171,5,right,1.6352,,1,0.3,"[3,2,1]",0.097098639,stimuli/card_0_transparent.png,0,5,0,5,0,1,,,,,,,,,,
,,,,62c331eb63e265c0c3adcf9d,A,2024-07-08_13h17.57.210,Slot Machine Game,2023.1.3,Win32,60.24096386,,,,,,,,,,,,,,,,,,,,,,,,,,,130,,,,,,,,,,,,,,,,,,,,,9,9,,,563.4055,6,up,0.0828,,1,0.3,"[3,2,1]",0.869355492,stimuli/card_10_transparent.png,10,6,0,6,0,1,,,,,,,,,,
,,,,62c331eb63e265c0c3adcf9d,A,2024-07-08_13h17.57.210,Slot Machine Game,2023.1.3,Win32,60.24096386,,,,,,,,,,,,,,,,,,,,,,,,,,,140,,,,,,,,,,,,,,,,,,,,,9,9,,,565.2998,7,up,0.1744,,0.5,0.3,"[3,2,1]",0.646494769,stimuli/card_10_transparent.png,10,7,0,7,0,1,,,,,,,,,,
,,,,62c331eb63e265c0c3adcf9d,A,2024-07-08_13h17.57.210,Slot Machine Game,2023.1.3,Win32,60.24096386,,,,,,,,,,,,,,,,,,,,,,,,,,,140,,,,,,,,,,,,,,,,,,,,,9,9,,,566.7893,8,left,0.2107,,1.5,0.3,"[3,1,2]",0.897340494,stimuli/card_0_transparent.png,0,8,0,8,0,1,,,,,,,,,,
,,,,62c331eb63e265c0c3adcf9d,A,2024-07-08_13h17.57.210,Slot Machine Game,2023.1.3,Win32,60.24096386,,,,,,,,,,,,,,,,,,,,,,,,,,,240,,,,,,,,,,,,,,,,,,,,,9,9,,,569.3329,9,up,0.0006,,1,0.3,"[3,1,2]",0.984797896,stimuli/card_100_transparent.png,100,9,0,9,0,1,,,,,,,,,,
,,,,62c331eb63e265c0c3adcf9d,A,2024-07-08_13h17.57.210,Slot Machine Game,2023.1.3,Win32,60.24096386,,,,,,,,,,,,,,,,,,,,,,,,,,,240,,,,,,,,,,,,,,,,,,,,,9,9,,,571.1499,10,up,0.0342,,0.5,0.3,"[3,1,2]",0.017037149,stimuli/card_0_transparent.png,0,10,0,10,0,1,,,,,,,,,,
,,,,62c331eb63e265c0c3adcf9d,A,2024-07-08_13h17.57.210,Slot Machine Game,2023.1.3,Win32,60.24096386,,,,,,,,,,,,,,,,,,,,,,,,,,,340,,,,,,,,,,,,,,,,,,,,,9,9,,,572.5071,11,up,0.1737,,0.5,0.3,"[3,1,2]",0.698565359,stimuli/card_100_transparent.png,100,11,0,11,0,1,,,,,,,,,,
,,,,62c331eb63e265c0c3adcf9d,A,2024-07-08_13h17.57.210,Slot Machine Game,2023.1.3,Win32,60.24096386,,,,,,,,,,,,,,,,,,,,,,,,,,,440,,,,,,,,,,,,,,,,,,,,,9,9,,,574.0167,12,up,0.013,,1,0.3,"[3,1,2]",0.912518878,stimuli/card_100_transparent.png,100,12,0,12,0,1,,,,,,,,,,
,,,,62c331eb63e265c0c3adcf9d,A,2024-07-08_13h17.57.210,Slot Machine Game,2023.1.3,Win32,60.24096386,,,,,,,,,,,,,,,,,,,,,,,,,,,540,,,,,,,,,,,,,,,,,,,,,9,9,,,575.8504,13,up,1.0324,,0.5,0.3,"[3,1,2]",0.216197705,stimuli/card_100_transparent.png,100,13,0,13,0,1,,,,,,,,,,
,,,,62c331eb63e265c0c3adcf9d,A,2024-07-08_13h17.57.210,Slot Machine Game,2023.1.3,Win32,60.24096386,,,,,,,,,,,,,,,,,,,,,,,,,,,640,,,,,,,,,,,,,,,,,,,,,9,9,,,578.2163,14,up,0.0997,,1.5,0.3,"[3,1,2]",0.558671402,stimuli/card_100_transparent.png,100,14,0,14,0,1,,,,,,,,,,
,,,,62c331eb63e265c0c3adcf9d,A,2024-07-08_13h17.57.210,Slot Machine Game,2023.1.3,Win32,60.24096386,,,,,,,,,,,,,,,,,,,,,,,,,,,,,,,,,,,580.6331,,,,,,,,,,,,,,,,,,,,,,,,,,,,,,,,,"[930,460,1040,750,1120,470,840,1130,640]",8,0,8,0,1,,,,
,,,,62c331eb63e265c0c3adcf9d,A,2024-07-08_13h17.57.210,Slot Machine Game,2023.1.3,Win32,60.24096386,,,,,,,,,,,,,,,,,,,,,,,,,,,10,,,,,,,,,,,,,,,,,,,,,10,10,"[10,15]","[[3,1,2],[1,3,2]]",585.6536,0,up,0.2389,,1,0.3,"[3,1,2]",0.117404229,stimuli/card_10_transparent.png,10,0,0,0,0,1,,,,,,,,,,
,,,,62c331eb63e265c0c3adcf9d,A,2024-07-08_13h17.57.210,Slot Machine Game,2023.1.3,Win32,60.24096386,,,,,,,,,,,,,,,,,,,,,,,,,,,110,,,,,,,,,,,,,,,,,,,,,10,10,,,587.7167,1,left,0.068,,0.5,0.3,"[3,1,2]",0.016674303,stimuli/card_100_transparent.png,100,1,0,1,0,1,,,,,,,,,,
,,,,62c331eb63e265c0c3adcf9d,A,2024-07-08_13h17.57.210,Slot Machine Game,2023.1.3,Win32,60.24096386,,,,,,,,,,,,,,,,,,,,,,,,,,,110,,,,,,,,,,,,,,,,,,,,,10,10,,,589.1329,2,left,0.0818,,0.5,0.3,"[3,1,2]",0.431782282,stimuli/card_0_transparent.png,0,2,0,2,0,1,,,,,,,,,,
,,,,62c331eb63e265c0c3adcf9d,A,2024-07-08_13h17.57.210,Slot Machine Game,2023.1.3,Win32,60.24096386,,,,,,,,,,,,,,,,,,,,,,,,,,,110,,,,,,,,,,,,,,,,,,,,,10,10,,,590.55,3,up,0.0091,,0.5,0.3,"[3,1,2]",0.013855873,stimuli/card_0_transparent.png,0,3,0,3,0,1,,,,,,,,,,
,,,,62c331eb63e265c0c3adcf9d,A,2024-07-08_13h17.57.210,Slot Machine Game,2023.1.3,Win32,60.24096386,,,,,,,,,,,,,,,,,,,,,,,,,,,120,,,,,,,,,,,,,,,,,,,,,10,10,,,591.9,4,right,0.0887,,1,0.3,"[3,1,2]",0.93387803,stimuli/card_10_transparent.png,10,4,0,4,0,1,,,,,,,,,,
,,,,62c331eb63e265c0c3adcf9d,A,2024-07-08_13h17.57.210,Slot Machine Game,2023.1.3,Win32,60.24096386,,,,,,,,,,,,,,,,,,,,,,,,,,,220,,,,,,,,,,,,,,,,,,,,,10,10,,,593.8164,5,up,0.0516,,1,0.3,"[3,1,2]",0.61946119,stimuli/card_100_transparent.png,100,5,0,5,0,1,,,,,,,,,,
,,,,62c331eb63e265c0c3adcf9d,A,2024-07-08_13h17.57.210,Slot Machine Game,2023.1.3,Win32,60.24096386,,,,,,,,,,,,,,,,,,,,,,,,,,,230,,,,,,,,,,,,,,,,,,,,,10,10,,,595.6995,6,up,0.2044,,1.5,0.3,"[3,1,2]",0.104354793,stimuli/card_10_transparent.png,10,6,0,6,0,1,,,,,,,,,,
,,,,62c331eb63e265c0c3adcf9d,A,2024-07-08_13h17.57.210,Slot Machine Game,2023.1.3,Win32,60.24096386,,,,,,,,,,,,,,,,,,,,,,,,,,,330,,,,,,,,,,,,,,,,,,,,,10,10,,,598.2329,7,up,0.2073,,1.5,0.3,"[3,1,2]",0.247871517,stimuli/card_100_transparent.png,100,7,0,7,0,1,,,,,,,,,,
,,,,62c331eb63e265c0c3adcf9d,A,2024-07-08_13h17.57.210,Slot Machine Game,2023.1.3,Win32,60.24096386,,,,,,,,,,,,,,,,,,,,,,,,,,,430,,,,,,,,,,,,,,,,,,,,,10,10,,,600.7667,8,up,2.0879,,1,0.3,"[3,1,2]",0.514941559,stimuli/card_100_transparent.png,100,8,0,8,0,1,,,,,,,,,,
,,,,62c331eb63e265c0c3adcf9d,A,2024-07-08_13h17.57.210,Slot Machine Game,2023.1.3,Win32,60.24096386,,,,,,,,,,,,,,,,,,,,,,,,,,,530,,,,,,,,,,,,,,,,,,,,,10,10,,,604.6827,9,up,0.2197,,1.5,0.3,"[3,1,2]",0.717909875,stimuli/card_100_transparent.png,100,9,0,9,0,1,,,,,,,,,,
,,,,62c331eb63e265c0c3adcf9d,A,2024-07-08_13h17.57.210,Slot Machine Game,2023.1.3,Win32,60.24096386,,,,,,,,,,,,,,,,,,,,,,,,,,,630,,,,,,,,,,,,,,,,,,,,,10,10,,,607.233,10,up,0.758,,1.5,0.3,"[1,3,2]",0.000224402,stimuli/card_100_transparent.png,100,10,0,10,0,1,,,,,,,,,,
,,,,62c331eb63e265c0c3adcf9d,A,2024-07-08_13h17.57.210,Slot Machine Game,2023.1.3,Win32,60.24096386,,,,,,,,,,,,,,,,,,,,,,,,,,,630,,,,,,,,,,,,,,,,,,,,,10,10,,,610.3164,11,up,0.3169,,1,0.3,"[1,3,2]",0.73887691,stimuli/card_0_transparent.png,0,11,0,11,0,1,,,,,,,,,,
,,,,62c331eb63e265c0c3adcf9d,A,2024-07-08_13h17.57.210,Slot Machine Game,2023.1.3,Win32,60.24096386,,,,,,,,,,,,,,,,,,,,,,,,,,,730,,,,,,,,,,,,,,,,,,,,,10,10,,,612.4662,12,left,0.3043,,0.5,0.3,"[1,3,2]",0.571952949,stimuli/card_100_transparent.png,100,12,0,12,0,1,,,,,,,,,,
,,,,62c331eb63e265c0c3adcf9d,A,2024-07-08_13h17.57.210,Slot Machine Game,2023.1.3,Win32,60.24096386,,,,,,,,,,,,,,,,,,,,,,,,,,,730,,,,,,,,,,,,,,,,,,,,,10,10,,,614.0995,13,left,0.0224,,1,0.3,"[1,3,2]",0.008423683,stimuli/card_0_transparent.png,0,13,0,13,0,1,,,,,,,,,,
,,,,62c331eb63e265c0c3adcf9d,A,2024-07-08_13h17.57.210,Slot Machine Game,2023.1.3,Win32,60.24096386,,,,,,,,,,,,,,,,,,,,,,,,,,,740,,,,,,,,,,,,,,,,,,,,,10,10,,,615.9328,14,right,0.2175,,0.5,0.3,"[1,3,2]",0.999366506,stimuli/card_10_transparent.png,10,14,0,14,0,1,,,,,,,,,,
,,,,62c331eb63e265c0c3adcf9d,A,2024-07-08_13h17.57.210,Slot Machine Game,2023.1.3,Win32,60.24096386,,,,,,,,,,,,,,,,,,,,,,,,,,,,,,,,,,,617.4829,,,,,,,,,,,,,,,,,,,,,,,,,,,,,,,,,"[930,460,1040,750,1120,470,840,1130,640,740]",9,0,9,0,1,,,,
,,,,62c331eb63e265c0c3adcf9d,A,2024-07-08_13h17.57.210,Slot Machine Game,2023.1.3,Win32,60.24096386,,,,,,,,,,,,,,,,,,,,,,,,,,,,,,,,,,,,,,,,,,,,,,,,,,,,,,,,,,,,,,,,,,,,,,,,,,9,"[930,460,1040,750,1120,470,840,1130,640,740]",10.4,2024-07-08_13h28.23.799
