key_resp_welcome_started,key_resp_welcome_keys,key_resp_welcome_rt,key_resp_welcome_duration,prolific_id,path_id,date,expName,psychopyVersion,OS,frameRate,key_resp_instruction1_started,key_resp_instruction1_keys,key_resp_instruction1_rt,key_resp_instruction1_duration,key_resp_instruction2_started,key_resp_instruction2_keys,key_resp_instruction2_rt,key_resp_instruction2_duration,key_resp_instruction3_started,key_resp_instruction3_keys,key_resp_instruction3_rt,key_resp_instruction3_duration,key_resp_instruction4_started,key_resp_instruction4_keys,key_resp_instruction4_rt,key_resp_instruction4_duration,practiceCondition,practice_reward_seqs,practice_trial_started,practice_trial_num,practice_resp_rt,practice_resp_duration,practice_resp_keys,prac_presentationInterval,"practice_reward_seq: 2,1,3",reward_img,cumulative_reward,trial_reward,practice_trials.thisRepN,practice_trials.thisTrialN,practice_trials.thisN,practice_trials.thisIndex,practice_trials.ran,"practice_reward_seq: 2,3,1",block_break_started,"practice_reward_seq: 1,3,2","practice_reward_seq: 3,1,2",practice_end_time,practice_end_keys,practice_end_rt,practice_end_duration,main_instruction_text_started,block_condition,block_order_indices,main_instruction_keys,main_instruction_rt,main_instruction_duration,block_number,block_assignment,current_condition,main_reward_seqs,main_trial_started,main_trial_num,main_trial_keys,main_trial_rt,main_trial_duration,main_presentationInterval,reward_presentation_time,main_reward_seq,reward_rand_val,main_reward_img,current_reward,main_trials.thisRepN,main_trials.thisTrialN,main_trials.thisN,main_trials.thisIndex,main_trials.ran,block_reward,block.thisRepN,block.thisTrialN,block.thisN,block.thisIndex,block.ran,block_reward.length,block_reward_all,reward_amount,date_end_task
0.0003,space,4.2929,,6306d4da805f2e38a841c3ad,B,2024-06-21_18h05.19.480,Slot Machine Game,2023.1.3,Win32,59.52380952,,,,,,,,,,,,,,,,,,,,,,,,,,,,,,,,,,,,,,,,,,,,,,,,,,,,,,,,,,,,,,,,,,,,,,,,,,,,,
,,,,6306d4da805f2e38a841c3ad,B,2024-06-21_18h05.19.480,Slot Machine Game,2023.1.3,Win32,59.52380952,4.3134,space,9.6828,,,,,,,,,,,,,,,,,,,,,,,,,,,,,,,,,,,,,,,,,,,,,,,,,,,,,,,,,,,,,,,,,,,,,,,,,,
,,,,6306d4da805f2e38a841c3ad,B,2024-06-21_18h05.19.480,Slot Machine Game,2023.1.3,Win32,59.52380952,,,,,14.0288,space,10.0641,,,,,,,,,,,,,,,,,,,,,,,,,,,,,,,,,,,,,,,,,,,,,,,,,,,,,,,,,,,,,,,,,,,,,,
,,,,6306d4da805f2e38a841c3ad,B,2024-06-21_18h05.19.480,Slot Machine Game,2023.1.3,Win32,59.52380952,,,,,,,,,24.1429,space,5.6239,,,,,,,,,,,,,,,,,,,,,,,,,,,,,,,,,,,,,,,,,,,,,,,,,,,,,,,,,,,,,,,,,,
,,,,6306d4da805f2e38a841c3ad,B,2024-06-21_18h05.19.480,Slot Machine Game,2023.1.3,Win32,59.52380952,,,,,,,,,,,,,,,,,,,,,,,,,,,,,,,,,,,,,,,,,,,,,,,,,,,,,,,,,,,,,,,,,,,,,,,,,,,,,
,,,,6306d4da805f2e38a841c3ad,B,2024-06-21_18h05.19.480,Slot Machine Game,2023.1.3,Win32,59.52380952,,,,,,,,,,,,,171.5141,right,2.3188,,,,,,,,,,,,,,,,,,,,,,,,,,,,,,,,,,,,,,,,,,,,,,,,,,,,,,,,,,,,,,
,,,,6306d4da805f2e38a841c3ad,B,2024-06-21_18h05.19.480,Slot Machine Game,2023.1.3,Win32,59.52380952,,,,,,,,,,,,,,,,,"[9,15]","[[2,1,3],[2,3,1]]",173.8604,0,1.0172,,right,1.5,,stimuli/card_0_transparent.png,0,0,0,0,0,0,1,,,,,,,,,,,,,,,,,,,,,,,,,,,,,,,,,,,,,,,,,,,,
,,,,6306d4da805f2e38a841c3ad,B,2024-06-21_18h05.19.480,Slot Machine Game,2023.1.3,Win32,59.52380952,,,,,,,,,,,,,,,,,,,177.2056,1,2.1836,,up,1,,stimuli/card_100_transparent.png,100,100,1,0,1,0,1,,,,,,,,,,,,,,,,,,,,,,,,,,,,,,,,,,,,,,,,,,,,
,,,,6306d4da805f2e38a841c3ad,B,2024-06-21_18h05.19.480,Slot Machine Game,2023.1.3,Win32,59.52380952,,,,,,,,,,,,,,,,,,,181.2049,2,0.4254,,up,1.5,,stimuli/card_100_transparent.png,200,100,2,0,2,0,1,,,,,,,,,,,,,,,,,,,,,,,,,,,,,,,,,,,,,,,,,,,,
,,,,6306d4da805f2e38a841c3ad,B,2024-06-21_18h05.19.480,Slot Machine Game,2023.1.3,Win32,59.52380952,,,,,,,,,,,,,,,,,,,183.9751,3,0.4725,,up,1.5,,stimuli/card_100_transparent.png,300,100,3,0,3,0,1,,,,,,,,,,,,,,,,,,,,,,,,,,,,,,,,,,,,,,,,,,,,
,,,,6306d4da805f2e38a841c3ad,B,2024-06-21_18h05.19.480,Slot Machine Game,2023.1.3,Win32,59.52380952,,,,,,,,,,,,,,,,,,,186.7865,4,0.071,,up,1,,stimuli/card_100_transparent.png,400,100,4,0,4,0,1,,,,,,,,,,,,,,,,,,,,,,,,,,,,,,,,,,,,,,,,,,,,
,,,,6306d4da805f2e38a841c3ad,B,2024-06-21_18h05.19.480,Slot Machine Game,2023.1.3,Win32,59.52380952,,,,,,,,,,,,,,,,,,,188.7031,5,0.3725,,up,0.5,,stimuli/card_100_transparent.png,500,100,5,0,5,0,1,,,,,,,,,,,,,,,,,,,,,,,,,,,,,,,,,,,,,,,,,,,,
,,,,6306d4da805f2e38a841c3ad,B,2024-06-21_18h05.19.480,Slot Machine Game,2023.1.3,Win32,59.52380952,,,,,,,,,,,,,,,,,,,190.4197,6,0.2215,,up,1.5,,stimuli/card_100_transparent.png,600,100,6,0,6,0,1,,,,,,,,,,,,,,,,,,,,,,,,,,,,,,,,,,,,,,,,,,,,
,,,,6306d4da805f2e38a841c3ad,B,2024-06-21_18h05.19.480,Slot Machine Game,2023.1.3,Win32,59.52380952,,,,,,,,,,,,,,,,,,,192.9859,7,0.4011,,up,0.5,,stimuli/card_100_transparent.png,700,100,7,0,7,0,1,,,,,,,,,,,,,,,,,,,,,,,,,,,,,,,,,,,,,,,,,,,,
,,,,6306d4da805f2e38a841c3ad,B,2024-06-21_18h05.19.480,Slot Machine Game,2023.1.3,Win32,59.52380952,,,,,,,,,,,,,,,,,,,194.7352,8,0.3761,,up,1.5,,stimuli/card_100_transparent.png,800,100,8,0,8,0,1,,,,,,,,,,,,,,,,,,,,,,,,,,,,,,,,,,,,,,,,,,,,
,,,,6306d4da805f2e38a841c3ad,B,2024-06-21_18h05.19.480,Slot Machine Game,2023.1.3,Win32,59.52380952,,,,,,,,,,,,,,,,,,,197.435,9,0.1675,,up,0.5,,stimuli/card_0_transparent.png,800,0,9,0,9,0,1,,,,,,,,,,,,,,,,,,,,,,,,,,,,,,,,,,,,,,,,,,,,
,,,,6306d4da805f2e38a841c3ad,B,2024-06-21_18h05.19.480,Slot Machine Game,2023.1.3,Win32,59.52380952,,,,,,,,,,,,,,,,,,,198.952,10,0.0867,,left,0.5,,stimuli/card_0_transparent.png,800,0,10,0,10,0,1,,,,,,,,,,,,,,,,,,,,,,,,,,,,,,,,,,,,,,,,,,,,
,,,,6306d4da805f2e38a841c3ad,B,2024-06-21_18h05.19.480,Slot Machine Game,2023.1.3,Win32,59.52380952,,,,,,,,,,,,,,,,,,,200.3678,11,0.1376,,right,1.5,,stimuli/card_100_transparent.png,900,100,11,0,11,0,1,,,,,,,,,,,,,,,,,,,,,,,,,,,,,,,,,,,,,,,,,,,,
,,,,6306d4da805f2e38a841c3ad,B,2024-06-21_18h05.19.480,Slot Machine Game,2023.1.3,Win32,59.52380952,,,,,,,,,,,,,,,,,,,202.8344,12,0.294,,right,1,,stimuli/card_100_transparent.png,1000,100,12,0,12,0,1,,,,,,,,,,,,,,,,,,,,,,,,,,,,,,,,,,,,,,,,,,,,
,,,,6306d4da805f2e38a841c3ad,B,2024-06-21_18h05.19.480,Slot Machine Game,2023.1.3,Win32,59.52380952,,,,,,,,,,,,,,,,,,,204.9679,13,0.3596,,right,0.5,,stimuli/card_100_transparent.png,1100,100,13,0,13,0,1,,,,,,,,,,,,,,,,,,,,,,,,,,,,,,,,,,,,,,,,,,,,
,,,,6306d4da805f2e38a841c3ad,B,2024-06-21_18h05.19.480,Slot Machine Game,2023.1.3,Win32,59.52380952,,,,,,,,,,,,,,,,,,,206.6511,14,0.252,,right,1,,stimuli/card_100_transparent.png,1200,100,14,0,14,0,1,,,,,,,,,,,,,,,,,,,,,,,,,,,,,,,,,,,,,,,,,,,,
,,,,6306d4da805f2e38a841c3ad,B,2024-06-21_18h05.19.480,Slot Machine Game,2023.1.3,Win32,59.52380952,,,,,,,,,,,,,,,,,"[6,15]","[[1,3,2],[3,1,2]]",213.7778,0,0.7208,,up,1.5,,stimuli/card_0_transparent.png,0,0,0,0,0,0,1,,208.7624,,,,,,,,,,,,,,,,,,,,,,,,,,,,,,,,,,,,,,,,,,
,,,,6306d4da805f2e38a841c3ad,B,2024-06-21_18h05.19.480,Slot Machine Game,2023.1.3,Win32,59.52380952,,,,,,,,,,,,,,,,,,,216.8325,1,0.3355,,right,1,,stimuli/card_10_transparent.png,10,10,1,0,1,0,1,,,,,,,,,,,,,,,,,,,,,,,,,,,,,,,,,,,,,,,,,,,,
,,,,6306d4da805f2e38a841c3ad,B,2024-06-21_18h05.19.480,Slot Machine Game,2023.1.3,Win32,59.52380952,,,,,,,,,,,,,,,,,,,218.9993,2,0.1738,,left,0.5,,stimuli/card_10_transparent.png,20,10,2,0,2,0,1,,,,,,,,,,,,,,,,,,,,,,,,,,,,,,,,,,,,,,,,,,,,
,,,,6306d4da805f2e38a841c3ad,B,2024-06-21_18h05.19.480,Slot Machine Game,2023.1.3,Win32,59.52380952,,,,,,,,,,,,,,,,,,,220.5158,3,0.3517,,left,0.5,,stimuli/card_100_transparent.png,120,100,3,0,3,0,1,,,,,,,,,,,,,,,,,,,,,,,,,,,,,,,,,,,,,,,,,,,,
,,,,6306d4da805f2e38a841c3ad,B,2024-06-21_18h05.19.480,Slot Machine Game,2023.1.3,Win32,59.52380952,,,,,,,,,,,,,,,,,,,222.202,4,0.3413,,left,1,,stimuli/card_10_transparent.png,130,10,4,0,4,0,1,,,,,,,,,,,,,,,,,,,,,,,,,,,,,,,,,,,,,,,,,,,,
,,,,6306d4da805f2e38a841c3ad,B,2024-06-21_18h05.19.480,Slot Machine Game,2023.1.3,Win32,59.52380952,,,,,,,,,,,,,,,,,,,224.3648,5,0.051,,left,0.5,,stimuli/card_0_transparent.png,130,0,5,0,5,0,1,,,,,,,,,,,,,,,,,,,,,,,,,,,,,,,,,,,,,,,,,,,,
,,,,6306d4da805f2e38a841c3ad,B,2024-06-21_18h05.19.480,Slot Machine Game,2023.1.3,Win32,59.52380952,,,,,,,,,,,,,,,,,,,225.7312,6,0.1319,,right,1,,stimuli/card_10_transparent.png,140,10,6,0,6,0,1,,,,,,,,,,,,,,,,,,,,,,,,,,,,,,,,,,,,,,,,,,,,
,,,,6306d4da805f2e38a841c3ad,B,2024-06-21_18h05.19.480,Slot Machine Game,2023.1.3,Win32,59.52380952,,,,,,,,,,,,,,,,,,,227.6976,7,0.2014,,up,1.5,,stimuli/card_100_transparent.png,240,100,7,0,7,0,1,,,,,,,,,,,,,,,,,,,,,,,,,,,,,,,,,,,,,,,,,,,,
,,,,6306d4da805f2e38a841c3ad,B,2024-06-21_18h05.19.480,Slot Machine Game,2023.1.3,Win32,59.52380952,,,,,,,,,,,,,,,,,,,230.248,8,0.1605,,up,0.5,,stimuli/card_100_transparent.png,340,100,8,0,8,0,1,,,,,,,,,,,,,,,,,,,,,,,,,,,,,,,,,,,,,,,,,,,,
,,,,6306d4da805f2e38a841c3ad,B,2024-06-21_18h05.19.480,Slot Machine Game,2023.1.3,Win32,59.52380952,,,,,,,,,,,,,,,,,,,231.7472,9,0.0843,,up,0.5,,stimuli/card_100_transparent.png,440,100,9,0,9,0,1,,,,,,,,,,,,,,,,,,,,,,,,,,,,,,,,,,,,,,,,,,,,
,,,,6306d4da805f2e38a841c3ad,B,2024-06-21_18h05.19.480,Slot Machine Game,2023.1.3,Win32,59.52380952,,,,,,,,,,,,,,,,,,,233.1801,10,0.1115,,up,1.5,,stimuli/card_0_transparent.png,440,0,10,0,10,0,1,,,,,,,,,,,,,,,,,,,,,,,,,,,,,,,,,,,,,,,,,,,,
,,,,6306d4da805f2e38a841c3ad,B,2024-06-21_18h05.19.480,Slot Machine Game,2023.1.3,Win32,59.52380952,,,,,,,,,,,,,,,,,,,235.6133,11,0.4053,,up,1,,stimuli/card_100_transparent.png,540,100,11,0,11,0,1,,,,,,,,,,,,,,,,,,,,,,,,,,,,,,,,,,,,,,,,,,,,
,,,,6306d4da805f2e38a841c3ad,B,2024-06-21_18h05.19.480,Slot Machine Game,2023.1.3,Win32,59.52380952,,,,,,,,,,,,,,,,,,,237.8634,12,0.0528,,up,0.5,,stimuli/card_100_transparent.png,640,100,12,0,12,0,1,,,,,,,,,,,,,,,,,,,,,,,,,,,,,,,,,,,,,,,,,,,,
,,,,6306d4da805f2e38a841c3ad,B,2024-06-21_18h05.19.480,Slot Machine Game,2023.1.3,Win32,59.52380952,,,,,,,,,,,,,,,,,,,239.2628,13,0.0787,,up,0.5,,stimuli/card_100_transparent.png,740,100,13,0,13,0,1,,,,,,,,,,,,,,,,,,,,,,,,,,,,,,,,,,,,,,,,,,,,
,,,,6306d4da805f2e38a841c3ad,B,2024-06-21_18h05.19.480,Slot Machine Game,2023.1.3,Win32,59.52380952,,,,,,,,,,,,,,,,,,,240.6631,14,0.0522,,up,1.5,,stimuli/card_100_transparent.png,840,100,14,0,14,0,1,,,,,,,,,,,,,,,,,,,,,,,,,,,,,,,,,,,,,,,,,,,,
,,,,6306d4da805f2e38a841c3ad,B,2024-06-21_18h05.19.480,Slot Machine Game,2023.1.3,Win32,59.52380952,,,,,,,,,,,,,,,,,,,,,,,,,,,,,,,,,,,243.0464,,,248.0483,space,2.1817,,,,,,,,,,,,,,,,,,,,,,,,,,,,,,,,,,,,,
,,,,6306d4da805f2e38a841c3ad,B,2024-06-21_18h05.19.480,Slot Machine Game,2023.1.3,Win32,59.52380952,,,,,,,,,,,,,,,,,,,,,,,,,,,,,,,,,,,,,,,,,,250.2483,3,"[0,4,6,3,5,7,8,1,9,2]",space,1.2647,,,,,,,,,,,,,,,,,,,,,,,,,,,,,,,
,,,,6306d4da805f2e38a841c3ad,B,2024-06-21_18h05.19.480,Slot Machine Game,2023.1.3,Win32,59.52380952,,,,,,,,,,,,,,,,,,,,,,,,,,,100,,,,,,,,,,,,,,,,,,,,,1,1,"[12,15]","[[2,1,3],[2,3,1]]",251.5431,0,up,0.0006,,1.5,0.3,"[2,1,3]",0.899783893,stimuli/card_100_transparent.png,100,0,0,0,0,1,,,,,,,,,,
,,,,6306d4da805f2e38a841c3ad,B,2024-06-21_18h05.19.480,Slot Machine Game,2023.1.3,Win32,59.52380952,,,,,,,,,,,,,,,,,,,,,,,,,,,200,,,,,,,,,,,,,,,,,,,,,1,1,,,253.8619,1,up,0.3491,,0.5,0.3,"[2,1,3]",0.257906173,stimuli/card_100_transparent.png,100,1,0,1,0,1,,,,,,,,,,
,,,,6306d4da805f2e38a841c3ad,B,2024-06-21_18h05.19.480,Slot Machine Game,2023.1.3,Win32,59.52380952,,,,,,,,,,,,,,,,,,,,,,,,,,,200,,,,,,,,,,,,,,,,,,,,,1,1,,,255.5278,2,up,0.0356,,0.5,0.3,"[2,1,3]",0.02677396,stimuli/card_0_transparent.png,0,2,0,2,0,1,,,,,,,,,,
,,,,6306d4da805f2e38a841c3ad,B,2024-06-21_18h05.19.480,Slot Machine Game,2023.1.3,Win32,59.52380952,,,,,,,,,,,,,,,,,,,,,,,,,,,300,,,,,,,,,,,,,,,,,,,,,1,1,,,256.911,3,up,0.3503,,1.5,0.3,"[2,1,3]",0.697376774,stimuli/card_100_transparent.png,100,3,0,3,0,1,,,,,,,,,,
,,,,6306d4da805f2e38a841c3ad,B,2024-06-21_18h05.19.480,Slot Machine Game,2023.1.3,Win32,59.52380952,,,,,,,,,,,,,,,,,,,,,,,,,,,310,,,,,,,,,,,,,,,,,,,,,1,1,,,259.5769,4,up,0.3013,,1,0.3,"[2,1,3]",0.143708833,stimuli/card_10_transparent.png,10,4,0,4,0,1,,,,,,,,,,
,,,,6306d4da805f2e38a841c3ad,B,2024-06-21_18h05.19.480,Slot Machine Game,2023.1.3,Win32,59.52380952,,,,,,,,,,,,,,,,,,,,,,,,,,,410,,,,,,,,,,,,,,,,,,,,,1,1,,,261.7267,5,up,0.0003,,1,0.3,"[2,1,3]",0.818305324,stimuli/card_100_transparent.png,100,5,0,5,0,1,,,,,,,,,,
,,,,6306d4da805f2e38a841c3ad,B,2024-06-21_18h05.19.480,Slot Machine Game,2023.1.3,Win32,59.52380952,,,,,,,,,,,,,,,,,,,,,,,,,,,510,,,,,,,,,,,,,,,,,,,,,1,1,,,263.5603,6,up,0.1168,,1,0.3,"[2,1,3]",0.770072175,stimuli/card_100_transparent.png,100,6,0,6,0,1,,,,,,,,,,
,,,,6306d4da805f2e38a841c3ad,B,2024-06-21_18h05.19.480,Slot Machine Game,2023.1.3,Win32,59.52380952,,,,,,,,,,,,,,,,,,,,,,,,,,,610,,,,,,,,,,,,,,,,,,,,,1,1,,,265.5099,7,up,0.3422,,1,0.3,"[2,1,3]",0.487357876,stimuli/card_100_transparent.png,100,7,0,7,0,1,,,,,,,,,,
,,,,6306d4da805f2e38a841c3ad,B,2024-06-21_18h05.19.480,Slot Machine Game,2023.1.3,Win32,59.52380952,,,,,,,,,,,,,,,,,,,,,,,,,,,710,,,,,,,,,,,,,,,,,,,,,1,1,,,267.6924,8,up,0.2586,,0.5,0.3,"[2,1,3]",0.413598815,stimuli/card_100_transparent.png,100,8,0,8,0,1,,,,,,,,,,
,,,,6306d4da805f2e38a841c3ad,B,2024-06-21_18h05.19.480,Slot Machine Game,2023.1.3,Win32,59.52380952,,,,,,,,,,,,,,,,,,,,,,,,,,,810,,,,,,,,,,,,,,,,,,,,,1,1,,,269.2927,9,up,0.1053,,1,0.3,"[2,1,3]",0.890993106,stimuli/card_100_transparent.png,100,9,0,9,0,1,,,,,,,,,,
,,,,6306d4da805f2e38a841c3ad,B,2024-06-21_18h05.19.480,Slot Machine Game,2023.1.3,Win32,59.52380952,,,,,,,,,,,,,,,,,,,,,,,,,,,910,,,,,,,,,,,,,,,,,,,,,1,1,,,271.242,10,up,0.085,,1.5,0.3,"[2,1,3]",0.523274406,stimuli/card_100_transparent.png,100,10,0,10,0,1,,,,,,,,,,
,,,,6306d4da805f2e38a841c3ad,B,2024-06-21_18h05.19.480,Slot Machine Game,2023.1.3,Win32,59.52380952,,,,,,,,,,,,,,,,,,,,,,,,,,,1010,,,,,,,,,,,,,,,,,,,,,1,1,,,273.675,11,up,0.3682,,1,0.3,"[2,1,3]",0.887002917,stimuli/card_100_transparent.png,100,11,0,11,0,1,,,,,,,,,,
,,,,6306d4da805f2e38a841c3ad,B,2024-06-21_18h05.19.480,Slot Machine Game,2023.1.3,Win32,59.52380952,,,,,,,,,,,,,,,,,,,,,,,,,,,1010,,,,,,,,,,,,,,,,,,,,,1,1,,,275.8745,12,up,0.2009,,0.5,0.3,"[2,3,1]",0.848287717,stimuli/card_0_transparent.png,0,12,0,12,0,1,,,,,,,,,,
,,,,6306d4da805f2e38a841c3ad,B,2024-06-21_18h05.19.480,Slot Machine Game,2023.1.3,Win32,59.52380952,,,,,,,,,,,,,,,,,,,,,,,,,,,1020,,,,,,,,,,,,,,,,,,,,,1,1,,,277.3912,13,right,0.0337,,0.5,0.3,"[2,3,1]",0.187147712,stimuli/card_10_transparent.png,10,13,0,13,0,1,,,,,,,,,,
,,,,6306d4da805f2e38a841c3ad,B,2024-06-21_18h05.19.480,Slot Machine Game,2023.1.3,Win32,59.52380952,,,,,,,,,,,,,,,,,,,,,,,,,,,1120,,,,,,,,,,,,,,,,,,,,,1,1,,,278.7582,14,right,0.6574,,1,0.3,"[2,3,1]",0.260761166,stimuli/card_100_transparent.png,100,14,0,14,0,1,,,,,,,,,,
,,,,6306d4da805f2e38a841c3ad,B,2024-06-21_18h05.19.480,Slot Machine Game,2023.1.3,Win32,59.52380952,,,,,,,,,,,,,,,,,,,,,,,,,,,,,,,,,,,281.2576,,,,,,,,,,,,,,,,,,,,,,,,,,,,,,,,,[1120],0,0,0,0,1,,,,
,,,,6306d4da805f2e38a841c3ad,B,2024-06-21_18h05.19.480,Slot Machine Game,2023.1.3,Win32,59.52380952,,,,,,,,,,,,,,,,,,,,,,,,,,,10,,,,,,,,,,,,,,,,,,,,,2,5,"[5,15]","[[1,2,3],[3,1,2]]",286.2697,0,up,0.2009,,1,0.3,"[1,2,3]",0.230622641,stimuli/card_10_transparent.png,10,0,0,0,0,1,,,,,,,,,,
,,,,6306d4da805f2e38a841c3ad,B,2024-06-21_18h05.19.480,Slot Machine Game,2023.1.3,Win32,59.52380952,,,,,,,,,,,,,,,,,,,,,,,,,,,10,,,,,,,,,,,,,,,,,,,,,2,5,,,288.2735,1,right,0.2847,,1.5,0.3,"[1,2,3]",0.960337786,stimuli/card_0_transparent.png,0,1,0,1,0,1,,,,,,,,,,
,,,,6306d4da805f2e38a841c3ad,B,2024-06-21_18h05.19.480,Slot Machine Game,2023.1.3,Win32,59.52380952,,,,,,,,,,,,,,,,,,,,,,,,,,,110,,,,,,,,,,,,,,,,,,,,,2,5,,,290.9061,2,left,0.3019,,0.5,0.3,"[1,2,3]",0.77563346,stimuli/card_100_transparent.png,100,2,0,2,0,1,,,,,,,,,,
,,,,6306d4da805f2e38a841c3ad,B,2024-06-21_18h05.19.480,Slot Machine Game,2023.1.3,Win32,59.52380952,,,,,,,,,,,,,,,,,,,,,,,,,,,210,,,,,,,,,,,,,,,,,,,,,2,5,,,292.5394,3,left,0.1346,,1.5,0.3,"[1,2,3]",0.666191765,stimuli/card_100_transparent.png,100,3,0,3,0,1,,,,,,,,,,
,,,,6306d4da805f2e38a841c3ad,B,2024-06-21_18h05.19.480,Slot Machine Game,2023.1.3,Win32,59.52380952,,,,,,,,,,,,,,,,,,,,,,,,,,,310,,,,,,,,,,,,,,,,,,,,,2,5,,,295.006,4,left,0.1043,,1.5,0.3,"[1,2,3]",0.588558531,stimuli/card_100_transparent.png,100,4,0,4,0,1,,,,,,,,,,
,,,,6306d4da805f2e38a841c3ad,B,2024-06-21_18h05.19.480,Slot Machine Game,2023.1.3,Win32,59.52380952,,,,,,,,,,,,,,,,,,,,,,,,,,,410,,,,,,,,,,,,,,,,,,,,,2,5,,,297.439,5,left,0.3548,,0.5,0.3,"[3,1,2]",0.090206583,stimuli/card_100_transparent.png,100,5,0,5,0,1,,,,,,,,,,
,,,,6306d4da805f2e38a841c3ad,B,2024-06-21_18h05.19.480,Slot Machine Game,2023.1.3,Win32,59.52380952,,,,,,,,,,,,,,,,,,,,,,,,,,,410,,,,,,,,,,,,,,,,,,,,,2,5,,,299.139,6,left,0.1575,,1.5,0.3,"[3,1,2]",0.765391593,stimuli/card_0_transparent.png,0,6,0,6,0,1,,,,,,,,,,
,,,,6306d4da805f2e38a841c3ad,B,2024-06-21_18h05.19.480,Slot Machine Game,2023.1.3,Win32,59.52380952,,,,,,,,,,,,,,,,,,,,,,,,,,,420,,,,,,,,,,,,,,,,,,,,,2,5,,,301.6213,7,left,0.2003,,1,0.3,"[3,1,2]",0.150159643,stimuli/card_10_transparent.png,10,7,0,7,0,1,,,,,,,,,,
,,,,6306d4da805f2e38a841c3ad,B,2024-06-21_18h05.19.480,Slot Machine Game,2023.1.3,Win32,59.52380952,,,,,,,,,,,,,,,,,,,,,,,,,,,430,,,,,,,,,,,,,,,,,,,,,2,5,,,303.6381,8,right,0.2059,,0.5,0.3,"[3,1,2]",0.60819685,stimuli/card_10_transparent.png,10,8,0,8,0,1,,,,,,,,,,
,,,,6306d4da805f2e38a841c3ad,B,2024-06-21_18h05.19.480,Slot Machine Game,2023.1.3,Win32,59.52380952,,,,,,,,,,,,,,,,,,,,,,,,,,,530,,,,,,,,,,,,,,,,,,,,,2,5,,,305.1877,9,up,0.2558,,1.5,0.3,"[3,1,2]",0.349140885,stimuli/card_100_transparent.png,100,9,0,9,0,1,,,,,,,,,,
,,,,6306d4da805f2e38a841c3ad,B,2024-06-21_18h05.19.480,Slot Machine Game,2023.1.3,Win32,59.52380952,,,,,,,,,,,,,,,,,,,,,,,,,,,630,,,,,,,,,,,,,,,,,,,,,2,5,,,307.7708,10,up,0.218,,0.5,0.3,"[3,1,2]",0.67446291,stimuli/card_100_transparent.png,100,10,0,10,0,1,,,,,,,,,,
,,,,6306d4da805f2e38a841c3ad,B,2024-06-21_18h05.19.480,Slot Machine Game,2023.1.3,Win32,59.52380952,,,,,,,,,,,,,,,,,,,,,,,,,,,730,,,,,,,,,,,,,,,,,,,,,2,5,,,309.3204,11,up,0.2049,,1,0.3,"[3,1,2]",0.250214067,stimuli/card_100_transparent.png,100,11,0,11,0,1,,,,,,,,,,
,,,,6306d4da805f2e38a841c3ad,B,2024-06-21_18h05.19.480,Slot Machine Game,2023.1.3,Win32,59.52380952,,,,,,,,,,,,,,,,,,,,,,,,,,,830,,,,,,,,,,,,,,,,,,,,,2,5,,,311.3535,12,up,0.3779,,1.5,0.3,"[3,1,2]",0.414776773,stimuli/card_100_transparent.png,100,12,0,12,0,1,,,,,,,,,,
,,,,6306d4da805f2e38a841c3ad,B,2024-06-21_18h05.19.480,Slot Machine Game,2023.1.3,Win32,59.52380952,,,,,,,,,,,,,,,,,,,,,,,,,,,930,,,,,,,,,,,,,,,,,,,,,2,5,,,314.0587,13,up,0.0005,,1.5,0.3,"[3,1,2]",0.764465095,stimuli/card_100_transparent.png,100,13,0,13,0,1,,,,,,,,,,
,,,,6306d4da805f2e38a841c3ad,B,2024-06-21_18h05.19.480,Slot Machine Game,2023.1.3,Win32,59.52380952,,,,,,,,,,,,,,,,,,,,,,,,,,,1030,,,,,,,,,,,,,,,,,,,,,2,5,,,316.3862,14,up,0.0196,,0.5,0.3,"[3,1,2]",0.815998438,stimuli/card_100_transparent.png,100,14,0,14,0,1,,,,,,,,,,
,,,,6306d4da805f2e38a841c3ad,B,2024-06-21_18h05.19.480,Slot Machine Game,2023.1.3,Win32,59.52380952,,,,,,,,,,,,,,,,,,,,,,,,,,,,,,,,,,,317.753,,,,,,,,,,,,,,,,,,,,,,,,,,,,,,,,,"[1120,1030]",1,0,1,0,1,,,,
,,,,6306d4da805f2e38a841c3ad,B,2024-06-21_18h05.19.480,Slot Machine Game,2023.1.3,Win32,59.52380952,,,,,,,,,,,,,,,,,,,,,,,,,,,10,,,,,,,,,,,,,,,,,,,,,3,7,"[9,15]","[[1,3,2],[2,3,1]]",322.7642,0,right,0.4761,,0.5,0.3,"[1,3,2]",0.812884352,stimuli/card_10_transparent.png,10,0,0,0,0,1,,,,,,,,,,
,,,,6306d4da805f2e38a841c3ad,B,2024-06-21_18h05.19.480,Slot Machine Game,2023.1.3,Win32,59.52380952,,,,,,,,,,,,,,,,,,,,,,,,,,,10,,,,,,,,,,,,,,,,,,,,,3,7,,,324.5684,1,up,0.252,,0.5,0.3,"[1,3,2]",0.691986819,stimuli/card_0_transparent.png,0,1,0,1,0,1,,,,,,,,,,
,,,,6306d4da805f2e38a841c3ad,B,2024-06-21_18h05.19.480,Slot Machine Game,2023.1.3,Win32,59.52380952,,,,,,,,,,,,,,,,,,,,,,,,,,,110,,,,,,,,,,,,,,,,,,,,,3,7,,,326.1685,2,left,0.071,,0.5,0.3,"[1,3,2]",0.459273309,stimuli/card_100_transparent.png,100,2,0,2,0,1,,,,,,,,,,
,,,,6306d4da805f2e38a841c3ad,B,2024-06-21_18h05.19.480,Slot Machine Game,2023.1.3,Win32,59.52380952,,,,,,,,,,,,,,,,,,,,,,,,,,,110,,,,,,,,,,,,,,,,,,,,,3,7,,,327.5677,3,left,0.1517,,1,0.3,"[1,3,2]",0.071884526,stimuli/card_0_transparent.png,0,3,0,3,0,1,,,,,,,,,,
,,,,6306d4da805f2e38a841c3ad,B,2024-06-21_18h05.19.480,Slot Machine Game,2023.1.3,Win32,59.52380952,,,,,,,,,,,,,,,,,,,,,,,,,,,110,,,,,,,,,,,,,,,,,,,,,3,7,,,329.5678,4,left,0.073,,0.5,0.3,"[1,3,2]",0.026404396,stimuli/card_0_transparent.png,0,4,0,4,0,1,,,,,,,,,,
,,,,6306d4da805f2e38a841c3ad,B,2024-06-21_18h05.19.480,Slot Machine Game,2023.1.3,Win32,59.52380952,,,,,,,,,,,,,,,,,,,,,,,,,,,110,,,,,,,,,,,,,,,,,,,,,3,7,,,330.984,5,up,0.355,,0.5,0.3,"[1,3,2]",0.845847675,stimuli/card_0_transparent.png,0,5,0,5,0,1,,,,,,,,,,
,,,,6306d4da805f2e38a841c3ad,B,2024-06-21_18h05.19.480,Slot Machine Game,2023.1.3,Win32,59.52380952,,,,,,,,,,,,,,,,,,,,,,,,,,,120,,,,,,,,,,,,,,,,,,,,,3,7,,,332.6885,6,right,0.0174,,0.5,0.3,"[1,3,2]",0.752626579,stimuli/card_10_transparent.png,10,6,0,6,0,1,,,,,,,,,,
,,,,6306d4da805f2e38a841c3ad,B,2024-06-21_18h05.19.480,Slot Machine Game,2023.1.3,Win32,59.52380952,,,,,,,,,,,,,,,,,,,,,,,,,,,130,,,,,,,,,,,,,,,,,,,,,3,7,,,334.0341,7,right,0.0846,,1,0.3,"[1,3,2]",0.706522832,stimuli/card_10_transparent.png,10,7,0,7,0,1,,,,,,,,,,
,,,,6306d4da805f2e38a841c3ad,B,2024-06-21_18h05.19.480,Slot Machine Game,2023.1.3,Win32,59.52380952,,,,,,,,,,,,,,,,,,,,,,,,,,,140,,,,,,,,,,,,,,,,,,,,,3,7,,,335.9667,8,left,0.0589,,1.5,0.3,"[1,3,2]",0.129261173,stimuli/card_10_transparent.png,10,8,0,8,0,1,,,,,,,,,,
,,,,6306d4da805f2e38a841c3ad,B,2024-06-21_18h05.19.480,Slot Machine Game,2023.1.3,Win32,59.52380952,,,,,,,,,,,,,,,,,,,,,,,,,,,140,,,,,,,,,,,,,,,,,,,,,3,7,,,338.3712,9,up,0.2604,,0.5,0.3,"[2,3,1]",0.611838213,stimuli/card_0_transparent.png,0,9,0,9,0,1,,,,,,,,,,
,,,,6306d4da805f2e38a841c3ad,B,2024-06-21_18h05.19.480,Slot Machine Game,2023.1.3,Win32,59.52380952,,,,,,,,,,,,,,,,,,,,,,,,,,,150,,,,,,,,,,,,,,,,,,,,,3,7,,,339.9665,10,left,0.4835,,0.5,0.3,"[2,3,1]",0.390717954,stimuli/card_10_transparent.png,10,10,0,10,0,1,,,,,,,,,,
,,,,6306d4da805f2e38a841c3ad,B,2024-06-21_18h05.19.480,Slot Machine Game,2023.1.3,Win32,59.52380952,,,,,,,,,,,,,,,,,,,,,,,,,,,150,,,,,,,,,,,,,,,,,,,,,3,7,,,341.7827,11,left,0.0829,,1,0.3,"[2,3,1]",0.020731954,stimuli/card_0_transparent.png,0,11,0,11,0,1,,,,,,,,,,
,,,,6306d4da805f2e38a841c3ad,B,2024-06-21_18h05.19.480,Slot Machine Game,2023.1.3,Win32,59.52380952,,,,,,,,,,,,,,,,,,,,,,,,,,,160,,,,,,,,,,,,,,,,,,,,,3,7,,,343.6991,12,right,0.1346,,0.5,0.3,"[2,3,1]",0.164886001,stimuli/card_10_transparent.png,10,12,0,12,0,1,,,,,,,,,,
,,,,6306d4da805f2e38a841c3ad,B,2024-06-21_18h05.19.480,Slot Machine Game,2023.1.3,Win32,59.52380952,,,,,,,,,,,,,,,,,,,,,,,,,,,260,,,,,,,,,,,,,,,,,,,,,3,7,,,345.1827,13,up,0.1903,,0.5,0.3,"[2,3,1]",0.052274231,stimuli/card_100_transparent.png,100,13,0,13,0,1,,,,,,,,,,
,,,,6306d4da805f2e38a841c3ad,B,2024-06-21_18h05.19.480,Slot Machine Game,2023.1.3,Win32,59.52380952,,,,,,,,,,,,,,,,,,,,,,,,,,,260,,,,,,,,,,,,,,,,,,,,,3,7,,,346.7159,14,up,0.1175,,1,0.3,"[2,3,1]",0.205698998,stimuli/card_0_transparent.png,0,14,0,14,0,1,,,,,,,,,,
,,,,6306d4da805f2e38a841c3ad,B,2024-06-21_18h05.19.480,Slot Machine Game,2023.1.3,Win32,59.52380952,,,,,,,,,,,,,,,,,,,,,,,,,,,,,,,,,,,348.6656,,,,,,,,,,,,,,,,,,,,,,,,,,,,,,,,,"[1120,1030,260]",2,0,2,0,1,,,,
,,,,6306d4da805f2e38a841c3ad,B,2024-06-21_18h05.19.480,Slot Machine Game,2023.1.3,Win32,59.52380952,,,,,,,,,,,,,,,,,,,,,,,,,,,0,,,,,,,,,,,,,,,,,,,,,4,4,"[7,15]","[[2,3,1],[1,2,3]]",353.6775,0,up,0.6387,,1,0.3,"[2,3,1]",0.935322585,stimuli/card_0_transparent.png,0,0,0,0,0,1,,,,,,,,,,
,,,,6306d4da805f2e38a841c3ad,B,2024-06-21_18h05.19.480,Slot Machine Game,2023.1.3,Win32,59.52380952,,,,,,,,,,,,,,,,,,,,,,,,,,,100,,,,,,,,,,,,,,,,,,,,,4,4,,,356.1474,1,right,0.9566,,0.5,0.3,"[2,3,1]",0.93473807,stimuli/card_100_transparent.png,100,1,0,1,0,1,,,,,,,,,,
,,,,6306d4da805f2e38a841c3ad,B,2024-06-21_18h05.19.480,Slot Machine Game,2023.1.3,Win32,59.52380952,,,,,,,,,,,,,,,,,,,,,,,,,,,200,,,,,,,,,,,,,,,,,,,,,4,4,,,358.4309,2,right,0.4936,,0.5,0.3,"[2,3,1]",0.821609269,stimuli/card_100_transparent.png,100,2,0,2,0,1,,,,,,,,,,
,,,,6306d4da805f2e38a841c3ad,B,2024-06-21_18h05.19.480,Slot Machine Game,2023.1.3,Win32,59.52380952,,,,,,,,,,,,,,,,,,,,,,,,,,,300,,,,,,,,,,,,,,,,,,,,,4,4,,,360.2634,3,right,0.2497,,0.5,0.3,"[2,3,1]",0.954006798,stimuli/card_100_transparent.png,100,3,0,3,0,1,,,,,,,,,,
,,,,6306d4da805f2e38a841c3ad,B,2024-06-21_18h05.19.480,Slot Machine Game,2023.1.3,Win32,59.52380952,,,,,,,,,,,,,,,,,,,,,,,,,,,400,,,,,,,,,,,,,,,,,,,,,4,4,,,361.8467,4,right,0.4007,,0.5,0.3,"[2,3,1]",0.274257375,stimuli/card_100_transparent.png,100,4,0,4,0,1,,,,,,,,,,
,,,,6306d4da805f2e38a841c3ad,B,2024-06-21_18h05.19.480,Slot Machine Game,2023.1.3,Win32,59.52380952,,,,,,,,,,,,,,,,,,,,,,,,,,,500,,,,,,,,,,,,,,,,,,,,,4,4,,,363.5797,5,right,0.1205,,1,0.3,"[2,3,1]",0.38654717,stimuli/card_100_transparent.png,100,5,0,5,0,1,,,,,,,,,,
,,,,6306d4da805f2e38a841c3ad,B,2024-06-21_18h05.19.480,Slot Machine Game,2023.1.3,Win32,59.52380952,,,,,,,,,,,,,,,,,,,,,,,,,,,600,,,,,,,,,,,,,,,,,,,,,4,4,,,365.5295,6,right,0.3421,,0.5,0.3,"[2,3,1]",0.524658064,stimuli/card_100_transparent.png,100,6,0,6,0,1,,,,,,,,,,
,,,,6306d4da805f2e38a841c3ad,B,2024-06-21_18h05.19.480,Slot Machine Game,2023.1.3,Win32,59.52380952,,,,,,,,,,,,,,,,,,,,,,,,,,,700,,,,,,,,,,,,,,,,,,,,,4,4,,,367.1961,7,right,0.3119,,0.5,0.3,"[1,2,3]",0.061252194,stimuli/card_100_transparent.png,100,7,0,7,0,1,,,,,,,,,,
,,,,6306d4da805f2e38a841c3ad,B,2024-06-21_18h05.19.480,Slot Machine Game,2023.1.3,Win32,59.52380952,,,,,,,,,,,,,,,,,,,,,,,,,,,710,,,,,,,,,,,,,,,,,,,,,4,4,,,368.829,8,right,0.1683,,0.5,0.3,"[1,2,3]",0.128419761,stimuli/card_10_transparent.png,10,8,0,8,0,1,,,,,,,,,,
,,,,6306d4da805f2e38a841c3ad,B,2024-06-21_18h05.19.480,Slot Machine Game,2023.1.3,Win32,59.52380952,,,,,,,,,,,,,,,,,,,,,,,,,,,720,,,,,,,,,,,,,,,,,,,,,4,4,,,370.3457,9,up,0.6072,,1.5,0.3,"[1,2,3]",0.533812175,stimuli/card_10_transparent.png,10,9,0,9,0,1,,,,,,,,,,
,,,,6306d4da805f2e38a841c3ad,B,2024-06-21_18h05.19.480,Slot Machine Game,2023.1.3,Win32,59.52380952,,,,,,,,,,,,,,,,,,,,,,,,,,,730,,,,,,,,,,,,,,,,,,,,,4,4,,,373.2953,10,up,0.3343,,1,0.3,"[1,2,3]",0.880658632,stimuli/card_10_transparent.png,10,10,0,10,0,1,,,,,,,,,,
,,,,6306d4da805f2e38a841c3ad,B,2024-06-21_18h05.19.480,Slot Machine Game,2023.1.3,Win32,59.52380952,,,,,,,,,,,,,,,,,,,,,,,,,,,830,,,,,,,,,,,,,,,,,,,,,4,4,,,375.4786,11,left,0.2419,,0.5,0.3,"[1,2,3]",0.721331124,stimuli/card_100_transparent.png,100,11,0,11,0,1,,,,,,,,,,
,,,,6306d4da805f2e38a841c3ad,B,2024-06-21_18h05.19.480,Slot Machine Game,2023.1.3,Win32,59.52380952,,,,,,,,,,,,,,,,,,,,,,,,,,,930,,,,,,,,,,,,,,,,,,,,,4,4,,,377.0618,12,left,0.185,,1,0.3,"[1,2,3]",0.406450233,stimuli/card_100_transparent.png,100,12,0,12,0,1,,,,,,,,,,
,,,,6306d4da805f2e38a841c3ad,B,2024-06-21_18h05.19.480,Slot Machine Game,2023.1.3,Win32,59.52380952,,,,,,,,,,,,,,,,,,,,,,,,,,,1030,,,,,,,,,,,,,,,,,,,,,4,4,,,379.0784,13,left,0.0542,,1.5,0.3,"[1,2,3]",0.735098011,stimuli/card_100_transparent.png,100,13,0,13,0,1,,,,,,,,,,
,,,,6306d4da805f2e38a841c3ad,B,2024-06-21_18h05.19.480,Slot Machine Game,2023.1.3,Win32,59.52380952,,,,,,,,,,,,,,,,,,,,,,,,,,,1130,,,,,,,,,,,,,,,,,,,,,4,4,,,381.4614,14,left,0.3883,,0.5,0.3,"[1,2,3]",0.475621685,stimuli/card_100_transparent.png,100,14,0,14,0,1,,,,,,,,,,
,,,,6306d4da805f2e38a841c3ad,B,2024-06-21_18h05.19.480,Slot Machine Game,2023.1.3,Win32,59.52380952,,,,,,,,,,,,,,,,,,,,,,,,,,,,,,,,,,,383.1942,,,,,,,,,,,,,,,,,,,,,,,,,,,,,,,,,"[1120,1030,260,1130]",3,0,3,0,1,,,,
,,,,6306d4da805f2e38a841c3ad,B,2024-06-21_18h05.19.480,Slot Machine Game,2023.1.3,Win32,59.52380952,,,,,,,,,,,,,,,,,,,,,,,,,,,,,,,,,,,,,,,,,,,,,,,,5,6,"[4,10,15]","[[2,3,1],[1,3,2],[3,2,1]]",388.2065,0,,,,0.5,0.3,,,,,0,0,0,0,1,,,,,,,,,,
,,,,6306d4da805f2e38a841c3ad,B,2024-06-21_18h05.19.480,Slot Machine Game,2023.1.3,Win32,59.52380952,,,,,,,,,,,,,,,,,,,,,,,,,,,,,,,,,,,,,,,,,,,,,,,,5,6,,,393.7134,1,,,,0.5,0.3,,,,,1,0,1,0,1,,,,,,,,,,
,,,,6306d4da805f2e38a841c3ad,B,2024-06-21_18h05.19.480,Slot Machine Game,2023.1.3,Win32,59.52380952,,,,,,,,,,,,,,,,,,,,,,,,,,,10,,,,,,,,,,,,,,,,,,,,,5,6,,,399.2269,2,left,0.1226,,0.5,0.3,"[2,3,1]",0.434779099,stimuli/card_10_transparent.png,10,2,0,2,0,1,,,,,,,,,,
,,,,6306d4da805f2e38a841c3ad,B,2024-06-21_18h05.19.480,Slot Machine Game,2023.1.3,Win32,59.52380952,,,,,,,,,,,,,,,,,,,,,,,,,,,10,,,,,,,,,,,,,,,,,,,,,5,6,,,400.675,3,up,0.4153,,1,0.3,"[2,3,1]",0.746357851,stimuli/card_0_transparent.png,0,3,0,3,0,1,,,,,,,,,,
,,,,6306d4da805f2e38a841c3ad,B,2024-06-21_18h05.19.480,Slot Machine Game,2023.1.3,Win32,59.52380952,,,,,,,,,,,,,,,,,,,,,,,,,,,20,,,,,,,,,,,,,,,,,,,,,5,6,,,402.9248,4,right,0.0583,,1.5,0.3,"[1,3,2]",0.808193036,stimuli/card_10_transparent.png,10,4,0,4,0,1,,,,,,,,,,
,,,,6306d4da805f2e38a841c3ad,B,2024-06-21_18h05.19.480,Slot Machine Game,2023.1.3,Win32,59.52380952,,,,,,,,,,,,,,,,,,,,,,,,,,,30,,,,,,,,,,,,,,,,,,,,,5,6,,,405.308,5,right,0.2036,,1,0.3,"[1,3,2]",0.519255733,stimuli/card_10_transparent.png,10,5,0,5,0,1,,,,,,,,,,
,,,,6306d4da805f2e38a841c3ad,B,2024-06-21_18h05.19.480,Slot Machine Game,2023.1.3,Win32,59.52380952,,,,,,,,,,,,,,,,,,,,,,,,,,,130,,,,,,,,,,,,,,,,,,,,,5,6,,,407.3454,6,left,0.3026,,1.5,0.3,"[1,3,2]",0.947112747,stimuli/card_100_transparent.png,100,6,0,6,0,1,,,,,,,,,,
,,,,6306d4da805f2e38a841c3ad,B,2024-06-21_18h05.19.480,Slot Machine Game,2023.1.3,Win32,59.52380952,,,,,,,,,,,,,,,,,,,,,,,,,,,130,,,,,,,,,,,,,,,,,,,,,5,6,,,409.9918,7,left,0.1186,,1,0.3,"[1,3,2]",0.099317262,stimuli/card_0_transparent.png,0,7,0,7,0,1,,,,,,,,,,
,,,,6306d4da805f2e38a841c3ad,B,2024-06-21_18h05.19.480,Slot Machine Game,2023.1.3,Win32,59.52380952,,,,,,,,,,,,,,,,,,,,,,,,,,,130,,,,,,,,,,,,,,,,,,,,,5,6,,,411.9456,8,up,0.5344,,1.5,0.3,"[1,3,2]",0.944223783,stimuli/card_0_transparent.png,0,8,0,8,0,1,,,,,,,,,,
,,,,6306d4da805f2e38a841c3ad,B,2024-06-21_18h05.19.480,Slot Machine Game,2023.1.3,Win32,59.52380952,,,,,,,,,,,,,,,,,,,,,,,,,,,230,,,,,,,,,,,,,,,,,,,,,5,6,,,414.8234,9,left,0.094,,0.5,0.3,"[1,3,2]",0.523021721,stimuli/card_100_transparent.png,100,9,0,9,0,1,,,,,,,,,,
,,,,6306d4da805f2e38a841c3ad,B,2024-06-21_18h05.19.480,Slot Machine Game,2023.1.3,Win32,59.52380952,,,,,,,,,,,,,,,,,,,,,,,,,,,230,,,,,,,,,,,,,,,,,,,,,5,6,,,416.2566,10,left,0.1927,,0.5,0.3,"[3,2,1]",0.723764904,stimuli/card_0_transparent.png,0,10,0,10,0,1,,,,,,,,,,
,,,,6306d4da805f2e38a841c3ad,B,2024-06-21_18h05.19.480,Slot Machine Game,2023.1.3,Win32,59.52380952,,,,,,,,,,,,,,,,,,,,,,,,,,,230,,,,,,,,,,,,,,,,,,,,,5,6,,,417.7895,11,left,0.2832,,1.5,0.3,"[3,2,1]",0.824434818,stimuli/card_0_transparent.png,0,11,0,11,0,1,,,,,,,,,,
,,,,6306d4da805f2e38a841c3ad,B,2024-06-21_18h05.19.480,Slot Machine Game,2023.1.3,Win32,59.52380952,,,,,,,,,,,,,,,,,,,,,,,,,,,230,,,,,,,,,,,,,,,,,,,,,5,6,,,420.3894,12,right,0.258,,0.5,0.3,"[3,2,1]",0.074542273,stimuli/card_0_transparent.png,0,12,0,12,0,1,,,,,,,,,,
,,,,6306d4da805f2e38a841c3ad,B,2024-06-21_18h05.19.480,Slot Machine Game,2023.1.3,Win32,59.52380952,,,,,,,,,,,,,,,,,,,,,,,,,,,240,,,,,,,,,,,,,,,,,,,,,5,6,,,421.9893,13,up,0.3178,,1.5,0.3,"[3,2,1]",0.881583929,stimuli/card_10_transparent.png,10,13,0,13,0,1,,,,,,,,,,
,,,,6306d4da805f2e38a841c3ad,B,2024-06-21_18h05.19.480,Slot Machine Game,2023.1.3,Win32,59.52380952,,,,,,,,,,,,,,,,,,,,,,,,,,,250,,,,,,,,,,,,,,,,,,,,,5,6,,,424.6383,14,up,0.3014,,1.5,0.3,"[3,2,1]",0.603278612,stimuli/card_10_transparent.png,10,14,0,14,0,1,,,,,,,,,,
,,,,6306d4da805f2e38a841c3ad,B,2024-06-21_18h05.19.480,Slot Machine Game,2023.1.3,Win32,59.52380952,,,,,,,,,,,,,,,,,,,,,,,,,,,,,,,,,,,427.2883,,,,,,,,,,,,,,,,,,,,,,,,,,,,,,,,,"[1120,1030,260,1130,250]",4,0,4,0,1,,,,
,,,,6306d4da805f2e38a841c3ad,B,2024-06-21_18h05.19.480,Slot Machine Game,2023.1.3,Win32,59.52380952,,,,,,,,,,,,,,,,,,,,,,,,,,,,,,,,,,,,,,,,,,,,,,,,6,8,"[11,15]","[[2,1,3],[1,2,3]]",432.3025,0,,,,0.5,0.3,,,,,0,0,0,0,1,,,,,,,,,,
,,,,6306d4da805f2e38a841c3ad,B,2024-06-21_18h05.19.480,Slot Machine Game,2023.1.3,Win32,59.52380952,,,,,,,,,,,,,,,,,,,,,,,,,,,10,,,,,,,,,,,,,,,,,,,,,6,8,,,437.808,1,left,0.4845,,0.5,0.3,"[2,1,3]",0.278710013,stimuli/card_10_transparent.png,10,1,0,1,0,1,,,,,,,,,,
,,,,6306d4da805f2e38a841c3ad,B,2024-06-21_18h05.19.480,Slot Machine Game,2023.1.3,Win32,59.52380952,,,,,,,,,,,,,,,,,,,,,,,,,,,110,,,,,,,,,,,,,,,,,,,,,6,8,,,439.6201,2,up,0.3023,,1,0.3,"[2,1,3]",0.576209031,stimuli/card_100_transparent.png,100,2,0,2,0,1,,,,,,,,,,
,,,,6306d4da805f2e38a841c3ad,B,2024-06-21_18h05.19.480,Slot Machine Game,2023.1.3,Win32,59.52380952,,,,,,,,,,,,,,,,,,,,,,,,,,,210,,,,,,,,,,,,,,,,,,,,,6,8,,,441.753,3,up,0.3175,,1.5,0.3,"[2,1,3]",0.742729061,stimuli/card_100_transparent.png,100,3,0,3,0,1,,,,,,,,,,
,,,,6306d4da805f2e38a841c3ad,B,2024-06-21_18h05.19.480,Slot Machine Game,2023.1.3,Win32,59.52380952,,,,,,,,,,,,,,,,,,,,,,,,,,,310,,,,,,,,,,,,,,,,,,,,,6,8,,,444.403,4,up,0.1593,,1.5,0.3,"[2,1,3]",0.726211508,stimuli/card_100_transparent.png,100,4,0,4,0,1,,,,,,,,,,
,,,,6306d4da805f2e38a841c3ad,B,2024-06-21_18h05.19.480,Slot Machine Game,2023.1.3,Win32,59.52380952,,,,,,,,,,,,,,,,,,,,,,,,,,,410,,,,,,,,,,,,,,,,,,,,,6,8,,,446.886,5,up,0.0006,,1.5,0.3,"[2,1,3]",0.209336209,stimuli/card_100_transparent.png,100,5,0,5,0,1,,,,,,,,,,
,,,,6306d4da805f2e38a841c3ad,B,2024-06-21_18h05.19.480,Slot Machine Game,2023.1.3,Win32,59.52380952,,,,,,,,,,,,,,,,,,,,,,,,,,,510,,,,,,,,,,,,,,,,,,,,,6,8,,,449.2186,6,up,0.0507,,1,0.3,"[2,1,3]",0.37187158,stimuli/card_100_transparent.png,100,6,0,6,0,1,,,,,,,,,,
,,,,6306d4da805f2e38a841c3ad,B,2024-06-21_18h05.19.480,Slot Machine Game,2023.1.3,Win32,59.52380952,,,,,,,,,,,,,,,,,,,,,,,,,,,610,,,,,,,,,,,,,,,,,,,,,6,8,,,451.1183,7,up,0.3689,,1.5,0.3,"[2,1,3]",0.380352599,stimuli/card_100_transparent.png,100,7,0,7,0,1,,,,,,,,,,
,,,,6306d4da805f2e38a841c3ad,B,2024-06-21_18h05.19.480,Slot Machine Game,2023.1.3,Win32,59.52380952,,,,,,,,,,,,,,,,,,,,,,,,,,,710,,,,,,,,,,,,,,,,,,,,,6,8,,,453.8344,8,up,0.1208,,0.5,0.3,"[2,1,3]",0.250616007,stimuli/card_100_transparent.png,100,8,0,8,0,1,,,,,,,,,,
,,,,6306d4da805f2e38a841c3ad,B,2024-06-21_18h05.19.480,Slot Machine Game,2023.1.3,Win32,59.52380952,,,,,,,,,,,,,,,,,,,,,,,,,,,810,,,,,,,,,,,,,,,,,,,,,6,8,,,455.3017,9,up,0.1848,,1.5,0.3,"[2,1,3]",0.62149804,stimuli/card_100_transparent.png,100,9,0,9,0,1,,,,,,,,,,
,,,,6306d4da805f2e38a841c3ad,B,2024-06-21_18h05.19.480,Slot Machine Game,2023.1.3,Win32,59.52380952,,,,,,,,,,,,,,,,,,,,,,,,,,,820,,,,,,,,,,,,,,,,,,,,,6,8,,,457.8174,10,up,0.0375,,1,0.3,"[2,1,3]",0.161136719,stimuli/card_10_transparent.png,10,10,0,10,0,1,,,,,,,,,,
,,,,6306d4da805f2e38a841c3ad,B,2024-06-21_18h05.19.480,Slot Machine Game,2023.1.3,Win32,59.52380952,,,,,,,,,,,,,,,,,,,,,,,,,,,830,,,,,,,,,,,,,,,,,,,,,6,8,,,459.7005,11,right,0.3013,,1,0.3,"[1,2,3]",0.152466004,stimuli/card_10_transparent.png,10,11,0,11,0,1,,,,,,,,,,
,,,,6306d4da805f2e38a841c3ad,B,2024-06-21_18h05.19.480,Slot Machine Game,2023.1.3,Win32,59.52380952,,,,,,,,,,,,,,,,,,,,,,,,,,,830,,,,,,,,,,,,,,,,,,,,,6,8,,,461.8338,12,right,0.1514,,1.5,0.3,"[1,2,3]",0.646732969,stimuli/card_0_transparent.png,0,12,0,12,0,1,,,,,,,,,,
,,,,6306d4da805f2e38a841c3ad,B,2024-06-21_18h05.19.480,Slot Machine Game,2023.1.3,Win32,59.52380952,,,,,,,,,,,,,,,,,,,,,,,,,,,930,,,,,,,,,,,,,,,,,,,,,6,8,,,464.3331,13,left,0.318,,1.5,0.3,"[1,2,3]",0.62934694,stimuli/card_100_transparent.png,100,13,0,13,0,1,,,,,,,,,,
,,,,6306d4da805f2e38a841c3ad,B,2024-06-21_18h05.19.480,Slot Machine Game,2023.1.3,Win32,59.52380952,,,,,,,,,,,,,,,,,,,,,,,,,,,1030,,,,,,,,,,,,,,,,,,,,,6,8,,,466.9998,14,left,0.0687,,1.5,0.3,"[1,2,3]",0.662663214,stimuli/card_100_transparent.png,100,14,0,14,0,1,,,,,,,,,,
,,,,6306d4da805f2e38a841c3ad,B,2024-06-21_18h05.19.480,Slot Machine Game,2023.1.3,Win32,59.52380952,,,,,,,,,,,,,,,,,,,,,,,,,,,,,,,,,,,469.4162,,,,,,,,,,,,,,,,,,,,,,,,,,,,,,,,,"[1120,1030,260,1130,250,1030]",5,0,5,0,1,,,,
,,,,6306d4da805f2e38a841c3ad,B,2024-06-21_18h05.19.480,Slot Machine Game,2023.1.3,Win32,59.52380952,,,,,,,,,,,,,,,,,,,,,,,,,,,100,,,,,,,,,,,,,,,,,,,,,7,9,"[8,15]","[[3,2,1],[3,1,2]]",474.4285,0,right,0.3853,,1,0.3,"[3,2,1]",0.211606384,stimuli/card_100_transparent.png,100,0,0,0,0,1,,,,,,,,,,
,,,,6306d4da805f2e38a841c3ad,B,2024-06-21_18h05.19.480,Slot Machine Game,2023.1.3,Win32,59.52380952,,,,,,,,,,,,,,,,,,,,,,,,,,,200,,,,,,,,,,,,,,,,,,,,,7,9,,,476.6492,1,right,0.1246,,0.5,0.3,"[3,2,1]",0.538712699,stimuli/card_100_transparent.png,100,1,0,1,0,1,,,,,,,,,,
,,,,6306d4da805f2e38a841c3ad,B,2024-06-21_18h05.19.480,Slot Machine Game,2023.1.3,Win32,59.52380952,,,,,,,,,,,,,,,,,,,,,,,,,,,300,,,,,,,,,,,,,,,,,,,,,7,9,,,478.1149,2,right,0.2534,,1,0.3,"[3,2,1]",0.578247735,stimuli/card_100_transparent.png,100,2,0,2,0,1,,,,,,,,,,
,,,,6306d4da805f2e38a841c3ad,B,2024-06-21_18h05.19.480,Slot Machine Game,2023.1.3,Win32,59.52380952,,,,,,,,,,,,,,,,,,,,,,,,,,,400,,,,,,,,,,,,,,,,,,,,,7,9,,,480.1982,3,right,0.0854,,1.5,0.3,"[3,2,1]",0.469745309,stimuli/card_100_transparent.png,100,3,0,3,0,1,,,,,,,,,,
,,,,6306d4da805f2e38a841c3ad,B,2024-06-21_18h05.19.480,Slot Machine Game,2023.1.3,Win32,59.52380952,,,,,,,,,,,,,,,,,,,,,,,,,,,500,,,,,,,,,,,,,,,,,,,,,7,9,,,482.6355,4,right,0.2877,,0.5,0.3,"[3,2,1]",0.448622234,stimuli/card_100_transparent.png,100,4,0,4,0,1,,,,,,,,,,
,,,,6306d4da805f2e38a841c3ad,B,2024-06-21_18h05.19.480,Slot Machine Game,2023.1.3,Win32,59.52380952,,,,,,,,,,,,,,,,,,,,,,,,,,,600,,,,,,,,,,,,,,,,,,,,,7,9,,,484.2526,5,right,0.3868,,1.5,0.3,"[3,2,1]",0.939942858,stimuli/card_100_transparent.png,100,5,0,5,0,1,,,,,,,,,,
,,,,6306d4da805f2e38a841c3ad,B,2024-06-21_18h05.19.480,Slot Machine Game,2023.1.3,Win32,59.52380952,,,,,,,,,,,,,,,,,,,,,,,,,,,610,,,,,,,,,,,,,,,,,,,,,7,9,,,486.9803,6,right,0.1047,,1.5,0.3,"[3,2,1]",0.101575878,stimuli/card_10_transparent.png,10,6,0,6,0,1,,,,,,,,,,
,,,,6306d4da805f2e38a841c3ad,B,2024-06-21_18h05.19.480,Slot Machine Game,2023.1.3,Win32,59.52380952,,,,,,,,,,,,,,,,,,,,,,,,,,,710,,,,,,,,,,,,,,,,,,,,,7,9,,,489.4304,7,up,0.1582,,1,0.3,"[3,2,1]",0.107739762,stimuli/card_100_transparent.png,100,7,0,7,0,1,,,,,,,,,,
,,,,6306d4da805f2e38a841c3ad,B,2024-06-21_18h05.19.480,Slot Machine Game,2023.1.3,Win32,59.52380952,,,,,,,,,,,,,,,,,,,,,,,,,,,810,,,,,,,,,,,,,,,,,,,,,7,9,,,491.4296,8,up,0.0506,,0.5,0.3,"[3,1,2]",0.500340518,stimuli/card_100_transparent.png,100,8,0,8,0,1,,,,,,,,,,
,,,,6306d4da805f2e38a841c3ad,B,2024-06-21_18h05.19.480,Slot Machine Game,2023.1.3,Win32,59.52380952,,,,,,,,,,,,,,,,,,,,,,,,,,,910,,,,,,,,,,,,,,,,,,,,,7,9,,,492.8127,9,up,0.107,,1,0.3,"[3,1,2]",0.370637974,stimuli/card_100_transparent.png,100,9,0,9,0,1,,,,,,,,,,
,,,,6306d4da805f2e38a841c3ad,B,2024-06-21_18h05.19.480,Slot Machine Game,2023.1.3,Win32,59.52380952,,,,,,,,,,,,,,,,,,,,,,,,,,,1010,,,,,,,,,,,,,,,,,,,,,7,9,,,494.7464,10,up,0.344,,1,0.3,"[3,1,2]",0.624588451,stimuli/card_100_transparent.png,100,10,0,10,0,1,,,,,,,,,,
,,,,6306d4da805f2e38a841c3ad,B,2024-06-21_18h05.19.480,Slot Machine Game,2023.1.3,Win32,59.52380952,,,,,,,,,,,,,,,,,,,,,,,,,,,1110,,,,,,,,,,,,,,,,,,,,,7,9,,,496.929,11,up,0.3023,,1.5,0.3,"[3,1,2]",0.24736382,stimuli/card_100_transparent.png,100,11,0,11,0,1,,,,,,,,,,
,,,,6306d4da805f2e38a841c3ad,B,2024-06-21_18h05.19.480,Slot Machine Game,2023.1.3,Win32,59.52380952,,,,,,,,,,,,,,,,,,,,,,,,,,,1210,,,,,,,,,,,,,,,,,,,,,7,9,,,499.5624,12,up,0.239,,1,0.3,"[3,1,2]",0.221125648,stimuli/card_100_transparent.png,100,12,0,12,0,1,,,,,,,,,,
,,,,6306d4da805f2e38a841c3ad,B,2024-06-21_18h05.19.480,Slot Machine Game,2023.1.3,Win32,59.52380952,,,,,,,,,,,,,,,,,,,,,,,,,,,1210,,,,,,,,,,,,,,,,,,,,,7,9,,,501.6117,13,up,0.3982,,1.5,0.3,"[3,1,2]",0.014634728,stimuli/card_0_transparent.png,0,13,0,13,0,1,,,,,,,,,,
,,,,6306d4da805f2e38a841c3ad,B,2024-06-21_18h05.19.480,Slot Machine Game,2023.1.3,Win32,59.52380952,,,,,,,,,,,,,,,,,,,,,,,,,,,1210,,,,,,,,,,,,,,,,,,,,,7,9,,,504.328,14,left,0.0505,,1,0.3,"[3,1,2]",0.315666417,stimuli/card_0_transparent.png,0,14,0,14,0,1,,,,,,,,,,
,,,,6306d4da805f2e38a841c3ad,B,2024-06-21_18h05.19.480,Slot Machine Game,2023.1.3,Win32,59.52380952,,,,,,,,,,,,,,,,,,,,,,,,,,,,,,,,,,,506.2117,,,,,,,,,,,,,,,,,,,,,,,,,,,,,,,,,"[1120,1030,260,1130,250,1030,1210]",6,0,6,0,1,,,,
,,,,6306d4da805f2e38a841c3ad,B,2024-06-21_18h05.19.480,Slot Machine Game,2023.1.3,Win32,59.52380952,,,,,,,,,,,,,,,,,,,,,,,,,,,0,,,,,,,,,,,,,,,,,,,,,8,2,"[6,15]","[[1,3,2],[3,2,1]]",511.2234,0,up,0.234,,1,0.3,"[1,3,2]",0.444257435,stimuli/card_0_transparent.png,0,0,0,0,0,1,,,,,,,,,,
,,,,6306d4da805f2e38a841c3ad,B,2024-06-21_18h05.19.480,Slot Machine Game,2023.1.3,Win32,59.52380952,,,,,,,,,,,,,,,,,,,,,,,,,,,10,,,,,,,,,,,,,,,,,,,,,8,2,,,513.2774,1,left,0.5317,,1,0.3,"[1,3,2]",0.119425878,stimuli/card_10_transparent.png,10,1,0,1,0,1,,,,,,,,,,
,,,,6306d4da805f2e38a841c3ad,B,2024-06-21_18h05.19.480,Slot Machine Game,2023.1.3,Win32,59.52380952,,,,,,,,,,,,,,,,,,,,,,,,,,,110,,,,,,,,,,,,,,,,,,,,,8,2,,,515.6431,2,left,0.0902,,1.5,0.3,"[1,3,2]",0.840830977,stimuli/card_100_transparent.png,100,2,0,2,0,1,,,,,,,,,,
,,,,6306d4da805f2e38a841c3ad,B,2024-06-21_18h05.19.480,Slot Machine Game,2023.1.3,Win32,59.52380952,,,,,,,,,,,,,,,,,,,,,,,,,,,210,,,,,,,,,,,,,,,,,,,,,8,2,,,518.0598,3,left,0.3842,,0.5,0.3,"[1,3,2]",0.994599479,stimuli/card_100_transparent.png,100,3,0,3,0,1,,,,,,,,,,
,,,,6306d4da805f2e38a841c3ad,B,2024-06-21_18h05.19.480,Slot Machine Game,2023.1.3,Win32,59.52380952,,,,,,,,,,,,,,,,,,,,,,,,,,,310,,,,,,,,,,,,,,,,,,,,,8,2,,,519.7761,4,left,0.6698,,1.5,0.3,"[1,3,2]",0.433665888,stimuli/card_100_transparent.png,100,4,0,4,0,1,,,,,,,,,,
,,,,6306d4da805f2e38a841c3ad,B,2024-06-21_18h05.19.480,Slot Machine Game,2023.1.3,Win32,59.52380952,,,,,,,,,,,,,,,,,,,,,,,,,,,410,,,,,,,,,,,,,,,,,,,,,8,2,,,522.7761,5,left,0.4089,,1,0.3,"[1,3,2]",0.690921983,stimuli/card_100_transparent.png,100,5,0,5,0,1,,,,,,,,,,
,,,,6306d4da805f2e38a841c3ad,B,2024-06-21_18h05.19.480,Slot Machine Game,2023.1.3,Win32,59.52380952,,,,,,,,,,,,,,,,,,,,,,,,,,,410,,,,,,,,,,,,,,,,,,,,,8,2,,,525.0136,6,left,0.5582,,0.5,0.3,"[3,2,1]",0.559129486,stimuli/card_0_transparent.png,0,6,0,6,0,1,,,,,,,,,,
,,,,6306d4da805f2e38a841c3ad,B,2024-06-21_18h05.19.480,Slot Machine Game,2023.1.3,Win32,59.52380952,,,,,,,,,,,,,,,,,,,,,,,,,,,420,,,,,,,,,,,,,,,,,,,,,8,2,,,526.9088,7,up,0.3434,,0.5,0.3,"[3,2,1]",0.507740513,stimuli/card_10_transparent.png,10,7,0,7,0,1,,,,,,,,,,
,,,,6306d4da805f2e38a841c3ad,B,2024-06-21_18h05.19.480,Slot Machine Game,2023.1.3,Win32,59.52380952,,,,,,,,,,,,,,,,,,,,,,,,,,,520,,,,,,,,,,,,,,,,,,,,,8,2,,,528.5753,8,right,0.0508,,1.5,0.3,"[3,2,1]",0.241351658,stimuli/card_100_transparent.png,100,8,0,8,0,1,,,,,,,,,,
,,,,6306d4da805f2e38a841c3ad,B,2024-06-21_18h05.19.480,Slot Machine Game,2023.1.3,Win32,59.52380952,,,,,,,,,,,,,,,,,,,,,,,,,,,620,,,,,,,,,,,,,,,,,,,,,8,2,,,530.958,9,right,0.1557,,1,0.3,"[3,2,1]",0.457824819,stimuli/card_100_transparent.png,100,9,0,9,0,1,,,,,,,,,,
,,,,6306d4da805f2e38a841c3ad,B,2024-06-21_18h05.19.480,Slot Machine Game,2023.1.3,Win32,59.52380952,,,,,,,,,,,,,,,,,,,,,,,,,,,720,,,,,,,,,,,,,,,,,,,,,8,2,,,532.9409,10,right,0.3514,,1.5,0.3,"[3,2,1]",0.446763484,stimuli/card_100_transparent.png,100,10,0,10,0,1,,,,,,,,,,
,,,,6306d4da805f2e38a841c3ad,B,2024-06-21_18h05.19.480,Slot Machine Game,2023.1.3,Win32,59.52380952,,,,,,,,,,,,,,,,,,,,,,,,,,,820,,,,,,,,,,,,,,,,,,,,,8,2,,,535.6241,11,right,0.3347,,1,0.3,"[3,2,1]",0.846105427,stimuli/card_100_transparent.png,100,11,0,11,0,1,,,,,,,,,,
,,,,6306d4da805f2e38a841c3ad,B,2024-06-21_18h05.19.480,Slot Machine Game,2023.1.3,Win32,59.52380952,,,,,,,,,,,,,,,,,,,,,,,,,,,920,,,,,,,,,,,,,,,,,,,,,8,2,,,537.7904,12,right,0.0005,,1.5,0.3,"[3,2,1]",0.812298294,stimuli/card_100_transparent.png,100,12,0,12,0,1,,,,,,,,,,
,,,,6306d4da805f2e38a841c3ad,B,2024-06-21_18h05.19.480,Slot Machine Game,2023.1.3,Win32,59.52380952,,,,,,,,,,,,,,,,,,,,,,,,,,,1020,,,,,,,,,,,,,,,,,,,,,8,2,,,540.127,13,right,0.2691,,0.5,0.3,"[3,2,1]",0.310368031,stimuli/card_100_transparent.png,100,13,0,13,0,1,,,,,,,,,,
,,,,6306d4da805f2e38a841c3ad,B,2024-06-21_18h05.19.480,Slot Machine Game,2023.1.3,Win32,59.52380952,,,,,,,,,,,,,,,,,,,,,,,,,,,1120,,,,,,,,,,,,,,,,,,,,,8,2,,,541.74,14,right,0.1786,,0.5,0.3,"[3,2,1]",0.789159367,stimuli/card_100_transparent.png,100,14,0,14,0,1,,,,,,,,,,
,,,,6306d4da805f2e38a841c3ad,B,2024-06-21_18h05.19.480,Slot Machine Game,2023.1.3,Win32,59.52380952,,,,,,,,,,,,,,,,,,,,,,,,,,,,,,,,,,,543.2568,,,,,,,,,,,,,,,,,,,,,,,,,,,,,,,,,"[1120,1030,260,1130,250,1030,1210,1120]",7,0,7,0,1,,,,
,,,,6306d4da805f2e38a841c3ad,B,2024-06-21_18h05.19.480,Slot Machine Game,2023.1.3,Win32,59.52380952,,,,,,,,,,,,,,,,,,,,,,,,,,,0,,,,,,,,,,,,,,,,,,,,,9,10,"[10,15]","[[3,1,2],[1,3,2]]",548.2705,0,left,0.654,,1,0.3,"[3,1,2]",0.710994847,stimuli/card_0_transparent.png,0,0,0,0,0,1,,,,,,,,,,
,,,,6306d4da805f2e38a841c3ad,B,2024-06-21_18h05.19.480,Slot Machine Game,2023.1.3,Win32,59.52380952,,,,,,,,,,,,,,,,,,,,,,,,,,,0,,,,,,,,,,,,,,,,,,,,,9,10,,,550.7557,1,up,0.3157,,1.5,0.3,"[3,1,2]",0.039607884,stimuli/card_0_transparent.png,0,1,0,1,0,1,,,,,,,,,,
,,,,6306d4da805f2e38a841c3ad,B,2024-06-21_18h05.19.480,Slot Machine Game,2023.1.3,Win32,59.52380952,,,,,,,,,,,,,,,,,,,,,,,,,,,10,,,,,,,,,,,,,,,,,,,,,9,10,,,553.3887,2,right,0.2941,,1.5,0.3,"[3,1,2]",0.452525803,stimuli/card_10_transparent.png,10,2,0,2,0,1,,,,,,,,,,
,,,,6306d4da805f2e38a841c3ad,B,2024-06-21_18h05.19.480,Slot Machine Game,2023.1.3,Win32,59.52380952,,,,,,,,,,,,,,,,,,,,,,,,,,,20,,,,,,,,,,,,,,,,,,,,,9,10,,,556.0218,3,right,0.3009,,1.5,0.3,"[3,1,2]",0.749369884,stimuli/card_10_transparent.png,10,3,0,3,0,1,,,,,,,,,,
,,,,6306d4da805f2e38a841c3ad,B,2024-06-21_18h05.19.480,Slot Machine Game,2023.1.3,Win32,59.52380952,,,,,,,,,,,,,,,,,,,,,,,,,,,120,,,,,,,,,,,,,,,,,,,,,9,10,,,558.6711,4,up,0.1403,,0.5,0.3,"[3,1,2]",0.569805151,stimuli/card_100_transparent.png,100,4,0,4,0,1,,,,,,,,,,
,,,,6306d4da805f2e38a841c3ad,B,2024-06-21_18h05.19.480,Slot Machine Game,2023.1.3,Win32,59.52380952,,,,,,,,,,,,,,,,,,,,,,,,,,,220,,,,,,,,,,,,,,,,,,,,,9,10,,,560.1539,5,up,0.5003,,1.5,0.3,"[3,1,2]",0.381525182,stimuli/card_100_transparent.png,100,5,0,5,0,1,,,,,,,,,,
,,,,6306d4da805f2e38a841c3ad,B,2024-06-21_18h05.19.480,Slot Machine Game,2023.1.3,Win32,59.52380952,,,,,,,,,,,,,,,,,,,,,,,,,,,220,,,,,,,,,,,,,,,,,,,,,9,10,,,562.9907,6,up,0.4875,,1,0.3,"[3,1,2]",0.035195101,stimuli/card_0_transparent.png,0,6,0,6,0,1,,,,,,,,,,
,,,,6306d4da805f2e38a841c3ad,B,2024-06-21_18h05.19.480,Slot Machine Game,2023.1.3,Win32,59.52380952,,,,,,,,,,,,,,,,,,,,,,,,,,,320,,,,,,,,,,,,,,,,,,,,,9,10,,,565.3201,7,up,0.3386,,1,0.3,"[3,1,2]",0.914004476,stimuli/card_100_transparent.png,100,7,0,7,0,1,,,,,,,,,,
,,,,6306d4da805f2e38a841c3ad,B,2024-06-21_18h05.19.480,Slot Machine Game,2023.1.3,Win32,59.52380952,,,,,,,,,,,,,,,,,,,,,,,,,,,330,,,,,,,,,,,,,,,,,,,,,9,10,,,567.5033,8,up,0.0166,,1,0.3,"[3,1,2]",0.164214095,stimuli/card_10_transparent.png,10,8,0,8,0,1,,,,,,,,,,
,,,,6306d4da805f2e38a841c3ad,B,2024-06-21_18h05.19.480,Slot Machine Game,2023.1.3,Win32,59.52380952,,,,,,,,,,,,,,,,,,,,,,,,,,,330,,,,,,,,,,,,,,,,,,,,,9,10,,,569.3532,9,left,0.1049,,1.5,0.3,"[3,1,2]",0.647375035,stimuli/card_0_transparent.png,0,9,0,9,0,1,,,,,,,,,,
,,,,6306d4da805f2e38a841c3ad,B,2024-06-21_18h05.19.480,Slot Machine Game,2023.1.3,Win32,59.52380952,,,,,,,,,,,,,,,,,,,,,,,,,,,430,,,,,,,,,,,,,,,,,,,,,9,10,,,571.8027,10,right,0.3215,,1.5,0.3,"[1,3,2]",0.166490484,stimuli/card_100_transparent.png,100,10,0,10,0,1,,,,,,,,,,
,,,,6306d4da805f2e38a841c3ad,B,2024-06-21_18h05.19.480,Slot Machine Game,2023.1.3,Win32,59.52380952,,,,,,,,,,,,,,,,,,,,,,,,,,,530,,,,,,,,,,,,,,,,,,,,,9,10,,,574.469,11,right,0.1375,,0.5,0.3,"[1,3,2]",0.150985744,stimuli/card_100_transparent.png,100,11,0,11,0,1,,,,,,,,,,
,,,,6306d4da805f2e38a841c3ad,B,2024-06-21_18h05.19.480,Slot Machine Game,2023.1.3,Win32,59.52380952,,,,,,,,,,,,,,,,,,,,,,,,,,,540,,,,,,,,,,,,,,,,,,,,,9,10,,,575.9523,12,right,0.117,,0.5,0.3,"[1,3,2]",0.283853452,stimuli/card_10_transparent.png,10,12,0,12,0,1,,,,,,,,,,
,,,,6306d4da805f2e38a841c3ad,B,2024-06-21_18h05.19.480,Slot Machine Game,2023.1.3,Win32,59.52380952,,,,,,,,,,,,,,,,,,,,,,,,,,,550,,,,,,,,,,,,,,,,,,,,,9,10,,,577.402,13,right,0.1222,,1,0.3,"[1,3,2]",0.812948349,stimuli/card_10_transparent.png,10,13,0,13,0,1,,,,,,,,,,
,,,,6306d4da805f2e38a841c3ad,B,2024-06-21_18h05.19.480,Slot Machine Game,2023.1.3,Win32,59.52380952,,,,,,,,,,,,,,,,,,,,,,,,,,,550,,,,,,,,,,,,,,,,,,,,,9,10,,,579.3685,14,up,0.0345,,0.5,0.3,"[1,3,2]",0.328951071,stimuli/card_0_transparent.png,0,14,0,14,0,1,,,,,,,,,,
,,,,6306d4da805f2e38a841c3ad,B,2024-06-21_18h05.19.480,Slot Machine Game,2023.1.3,Win32,59.52380952,,,,,,,,,,,,,,,,,,,,,,,,,,,,,,,,,,,580.7209,,,,,,,,,,,,,,,,,,,,,,,,,,,,,,,,,"[1120,1030,260,1130,250,1030,1210,1120,550]",8,0,8,0,1,,,,
,,,,6306d4da805f2e38a841c3ad,B,2024-06-21_18h05.19.480,Slot Machine Game,2023.1.3,Win32,59.52380952,,,,,,,,,,,,,,,,,,,,,,,,,,,0,,,,,,,,,,,,,,,,,,,,,10,3,"[15,15]","[[3,1,2],[3,1,2]]",585.7303,0,left,0.3386,,1.5,0.3,"[3,1,2]",0.638797776,stimuli/card_0_transparent.png,0,0,0,0,0,1,,,,,,,,,,
,,,,6306d4da805f2e38a841c3ad,B,2024-06-21_18h05.19.480,Slot Machine Game,2023.1.3,Win32,59.52380952,,,,,,,,,,,,,,,,,,,,,,,,,,,100,,,,,,,,,,,,,,,,,,,,,10,3,,,588.4008,1,right,0.3345,,0.5,0.3,"[3,1,2]",0.142765717,stimuli/card_100_transparent.png,100,1,0,1,0,1,,,,,,,,,,
,,,,6306d4da805f2e38a841c3ad,B,2024-06-21_18h05.19.480,Slot Machine Game,2023.1.3,Win32,59.52380952,,,,,,,,,,,,,,,,,,,,,,,,,,,110,,,,,,,,,,,,,,,,,,,,,10,3,,,590.0667,2,right,0.0329,,0.5,0.3,"[3,1,2]",0.581067046,stimuli/card_10_transparent.png,10,2,0,2,0,1,,,,,,,,,,
,,,,6306d4da805f2e38a841c3ad,B,2024-06-21_18h05.19.480,Slot Machine Game,2023.1.3,Win32,59.52380952,,,,,,,,,,,,,,,,,,,,,,,,,,,120,,,,,,,,,,,,,,,,,,,,,10,3,,,591.4385,3,right,0.2857,,1,0.3,"[3,1,2]",0.654512325,stimuli/card_10_transparent.png,10,3,0,3,0,1,,,,,,,,,,
,,,,6306d4da805f2e38a841c3ad,B,2024-06-21_18h05.19.480,Slot Machine Game,2023.1.3,Win32,59.52380952,,,,,,,,,,,,,,,,,,,,,,,,,,,130,,,,,,,,,,,,,,,,,,,,,10,3,,,593.5663,4,right,0.0766,,0.5,0.3,"[3,1,2]",0.356642715,stimuli/card_10_transparent.png,10,4,0,4,0,1,,,,,,,,,,
,,,,6306d4da805f2e38a841c3ad,B,2024-06-21_18h05.19.480,Slot Machine Game,2023.1.3,Win32,59.52380952,,,,,,,,,,,,,,,,,,,,,,,,,,,130,,,,,,,,,,,,,,,,,,,,,10,3,,,594.971,5,up,0.3181,,1.5,0.3,"[3,1,2]",0.050237499,stimuli/card_0_transparent.png,0,5,0,5,0,1,,,,,,,,,,
,,,,6306d4da805f2e38a841c3ad,B,2024-06-21_18h05.19.480,Slot Machine Game,2023.1.3,Win32,59.52380952,,,,,,,,,,,,,,,,,,,,,,,,,,,140,,,,,,,,,,,,,,,,,,,,,10,3,,,597.599,6,right,0.0211,,0.5,0.3,"[3,1,2]",0.760132403,stimuli/card_10_transparent.png,10,6,0,6,0,1,,,,,,,,,,
,,,,6306d4da805f2e38a841c3ad,B,2024-06-21_18h05.19.480,Slot Machine Game,2023.1.3,Win32,59.52380952,,,,,,,,,,,,,,,,,,,,,,,,,,,140,,,,,,,,,,,,,,,,,,,,,10,3,,,598.9655,7,left,0.1019,,0.5,0.3,"[3,1,2]",0.841821342,stimuli/card_0_transparent.png,0,7,0,7,0,1,,,,,,,,,,
,,,,6306d4da805f2e38a841c3ad,B,2024-06-21_18h05.19.480,Slot Machine Game,2023.1.3,Win32,59.52380952,,,,,,,,,,,,,,,,,,,,,,,,,,,240,,,,,,,,,,,,,,,,,,,,,10,3,,,600.4157,8,up,0.3276,,1.5,0.3,"[3,1,2]",0.44086068,stimuli/card_100_transparent.png,100,8,0,8,0,1,,,,,,,,,,
,,,,6306d4da805f2e38a841c3ad,B,2024-06-21_18h05.19.480,Slot Machine Game,2023.1.3,Win32,59.52380952,,,,,,,,,,,,,,,,,,,,,,,,,,,340,,,,,,,,,,,,,,,,,,,,,10,3,,,603.0822,9,up,0.3661,,1.5,0.3,"[3,1,2]",0.4883791,stimuli/card_100_transparent.png,100,9,0,9,0,1,,,,,,,,,,
,,,,6306d4da805f2e38a841c3ad,B,2024-06-21_18h05.19.480,Slot Machine Game,2023.1.3,Win32,59.52380952,,,,,,,,,,,,,,,,,,,,,,,,,,,440,,,,,,,,,,,,,,,,,,,,,10,3,,,605.7821,10,up,0.0515,,0.5,0.3,"[3,1,2]",0.451617157,stimuli/card_100_transparent.png,100,10,0,10,0,1,,,,,,,,,,
,,,,6306d4da805f2e38a841c3ad,B,2024-06-21_18h05.19.480,Slot Machine Game,2023.1.3,Win32,59.52380952,,,,,,,,,,,,,,,,,,,,,,,,,,,540,,,,,,,,,,,,,,,,,,,,,10,3,,,607.1812,11,up,0.0764,,1,0.3,"[3,1,2]",0.782531884,stimuli/card_100_transparent.png,100,11,0,11,0,1,,,,,,,,,,
,,,,6306d4da805f2e38a841c3ad,B,2024-06-21_18h05.19.480,Slot Machine Game,2023.1.3,Win32,59.52380952,,,,,,,,,,,,,,,,,,,,,,,,,,,640,,,,,,,,,,,,,,,,,,,,,10,3,,,609.0976,12,up,0.1031,,1,0.3,"[3,1,2]",0.267676246,stimuli/card_100_transparent.png,100,12,0,12,0,1,,,,,,,,,,
,,,,6306d4da805f2e38a841c3ad,B,2024-06-21_18h05.19.480,Slot Machine Game,2023.1.3,Win32,59.52380952,,,,,,,,,,,,,,,,,,,,,,,,,,,740,,,,,,,,,,,,,,,,,,,,,10,3,,,611.0476,13,up,0.3511,,0.5,0.3,"[3,1,2]",0.768769004,stimuli/card_100_transparent.png,100,13,0,13,0,1,,,,,,,,,,
,,,,6306d4da805f2e38a841c3ad,B,2024-06-21_18h05.19.480,Slot Machine Game,2023.1.3,Win32,59.52380952,,,,,,,,,,,,,,,,,,,,,,,,,,,840,,,,,,,,,,,,,,,,,,,,,10,3,,,612.7472,14,up,0.2172,,1.5,0.3,"[3,1,2]",0.649390411,stimuli/card_100_transparent.png,100,14,0,14,0,1,,,,,,,,,,
,,,,6306d4da805f2e38a841c3ad,B,2024-06-21_18h05.19.480,Slot Machine Game,2023.1.3,Win32,59.52380952,,,,,,,,,,,,,,,,,,,,,,,,,,,,,,,,,,,615.2805,,,,,,,,,,,,,,,,,,,,,,,,,,,,,,,,,"[1120,1030,260,1130,250,1030,1210,1120,550,840]",9,0,9,0,1,,,,
,,,,6306d4da805f2e38a841c3ad,B,2024-06-21_18h05.19.480,Slot Machine Game,2023.1.3,Win32,59.52380952,,,,,,,,,,,,,,,,,,,,,,,,,,,,,,,,,,,,,,,,,,,,,,,,,,,,,,,,,,,,,,,,,,,,,,,,,,9,"[1120,1030,260,1130,250,1030,1210,1120,550,840]",10.3,2024-06-21_18h15.43.936
