key_resp_welcome_started,key_resp_welcome_keys,key_resp_welcome_rt,key_resp_welcome_duration,prolific_id,path_id,date,expName,psychopyVersion,OS,frameRate,key_resp_instruction1_started,key_resp_instruction1_keys,key_resp_instruction1_rt,key_resp_instruction1_duration,key_resp_instruction2_started,key_resp_instruction2_keys,key_resp_instruction2_rt,key_resp_instruction2_duration,key_resp_instruction3_started,key_resp_instruction3_keys,key_resp_instruction3_rt,key_resp_instruction3_duration,key_resp_instruction4_started,key_resp_instruction4_keys,key_resp_instruction4_rt,key_resp_instruction4_duration,practiceCondition,practice_reward_seqs,practice_trial_started,practice_trial_num,prac_presentationInterval,"practice_reward_seq: 2,1,3",practice_trials.thisRepN,practice_trials.thisTrialN,practice_trials.thisN,practice_trials.thisIndex,practice_trials.ran,practice_resp_rt,practice_resp_duration,practice_resp_keys,reward_img,cumulative_reward,trial_reward,"practice_reward_seq: 2,3,1",block_break_started,"practice_reward_seq: 1,3,2","practice_reward_seq: 3,1,2",practice_end_time,practice_end_keys,practice_end_rt,practice_end_duration,main_instruction_text_started,block_condition,block_order_indices,main_instruction_keys,main_instruction_rt,main_instruction_duration,block_number,block_assignment,current_condition,main_reward_seqs,main_trial_started,main_trial_num,main_trial_keys,main_trial_rt,main_trial_duration,main_presentationInterval,reward_presentation_time,main_reward_seq,reward_rand_val,main_reward_img,current_reward,main_trials.thisRepN,main_trials.thisTrialN,main_trials.thisN,main_trials.thisIndex,main_trials.ran,block_reward,block.thisRepN,block.thisTrialN,block.thisN,block.thisIndex,block.ran,block_reward.length,block_reward_all,reward_amount,date_end_task
0.0003,space,14.3543,,6310a8e72d2a091bb08a0c97,A,2024-07-01_10h29.32.247,Slot Machine Game,2023.1.3,Win32,59.17159763,,,,,,,,,,,,,,,,,,,,,,,,,,,,,,,,,,,,,,,,,,,,,,,,,,,,,,,,,,,,,,,,,,,,,,,,,,,,,
,,,,6310a8e72d2a091bb08a0c97,A,2024-07-01_10h29.32.247,Slot Machine Game,2023.1.3,Win32,59.17159763,14.3685,space,9.44,,,,,,,,,,,,,,,,,,,,,,,,,,,,,,,,,,,,,,,,,,,,,,,,,,,,,,,,,,,,,,,,,,,,,,,,,,
,,,,6310a8e72d2a091bb08a0c97,A,2024-07-01_10h29.32.247,Slot Machine Game,2023.1.3,Win32,59.17159763,,,,,23.8337,return,33.3684,,,,,,,,,,,,,,,,,,,,,,,,,,,,,,,,,,,,,,,,,,,,,,,,,,,,,,,,,,,,,,,,,,,,,,
,,,,6310a8e72d2a091bb08a0c97,A,2024-07-01_10h29.32.247,Slot Machine Game,2023.1.3,Win32,59.17159763,,,,,,,,,57.265,return,8.15,,,,,,,,,,,,,,,,,,,,,,,,,,,,,,,,,,,,,,,,,,,,,,,,,,,,,,,,,,,,,,,,,,
,,,,6310a8e72d2a091bb08a0c97,A,2024-07-01_10h29.32.247,Slot Machine Game,2023.1.3,Win32,59.17159763,,,,,,,,,,,,,,,,,,,,,,,,,,,,,,,,,,,,,,,,,,,,,,,,,,,,,,,,,,,,,,,,,,,,,,,,,,,,,
,,,,6310a8e72d2a091bb08a0c97,A,2024-07-01_10h29.32.247,Slot Machine Game,2023.1.3,Win32,59.17159763,,,,,,,,,,,,,207.6926,space,351.8134,,,,,,,,,,,,,,,,,,,,,,,,,,,,,,,,,,,,,,,,,,,,,,,,,,,,,,,,,,,,,,
,,,,6310a8e72d2a091bb08a0c97,A,2024-07-01_10h29.32.247,Slot Machine Game,2023.1.3,Win32,59.17159763,,,,,,,,,,,,,,,,,"[9,15]","[[2,1,3],[2,3,1]]",559.5247,0,1,,0,0,0,0,1,,,,,,,,,,,,,,,,,,,,,,,,,,,,,,,,,,,,,,,,,,,,,,,,,,
,,,,6310a8e72d2a091bb08a0c97,A,2024-07-01_10h29.32.247,Slot Machine Game,2023.1.3,Win32,59.17159763,,,,,,,,,,,,,,,,,,,565.0526,1,1.5,,1,0,1,0,1,,,,,,,,,,,,,,,,,,,,,,,,,,,,,,,,,,,,,,,,,,,,,,,,,,
,,,,6310a8e72d2a091bb08a0c97,A,2024-07-01_10h29.32.247,Slot Machine Game,2023.1.3,Win32,59.17159763,,,,,,,,,,,,,,,,,,,570.5655,2,1.5,,2,0,2,0,1,0.0208,,right,stimuli/card_0_transparent.png,0,0,,,,,,,,,,,,,,,,,,,,,,,,,,,,,,,,,,,,,,,,,,,,
,,,,6310a8e72d2a091bb08a0c97,A,2024-07-01_10h29.32.247,Slot Machine Game,2023.1.3,Win32,59.17159763,,,,,,,,,,,,,,,,,,,572.9124,3,1,,3,0,3,0,1,1.1161,,up,stimuli/card_10_transparent.png,10,10,,,,,,,,,,,,,,,,,,,,,,,,,,,,,,,,,,,,,,,,,,,,
,,,,6310a8e72d2a091bb08a0c97,A,2024-07-01_10h29.32.247,Slot Machine Game,2023.1.3,Win32,59.17159763,,,,,,,,,,,,,,,,,,,575.8457,4,1.5,,4,0,4,0,1,0.0656,,left,stimuli/card_10_transparent.png,20,10,,,,,,,,,,,,,,,,,,,,,,,,,,,,,,,,,,,,,,,,,,,,
,,,,6310a8e72d2a091bb08a0c97,A,2024-07-01_10h29.32.247,Slot Machine Game,2023.1.3,Win32,59.17159763,,,,,,,,,,,,,,,,,,,578.2459,5,0.5,,5,0,5,0,1,0.0722,,left,stimuli/card_100_transparent.png,120,100,,,,,,,,,,,,,,,,,,,,,,,,,,,,,,,,,,,,,,,,,,,,
,,,,6310a8e72d2a091bb08a0c97,A,2024-07-01_10h29.32.247,Slot Machine Game,2023.1.3,Win32,59.17159763,,,,,,,,,,,,,,,,,,,579.6456,6,1.5,,6,0,6,0,1,0.2913,,left,stimuli/card_10_transparent.png,130,10,,,,,,,,,,,,,,,,,,,,,,,,,,,,,,,,,,,,,,,,,,,,
,,,,6310a8e72d2a091bb08a0c97,A,2024-07-01_10h29.32.247,Slot Machine Game,2023.1.3,Win32,59.17159763,,,,,,,,,,,,,,,,,,,582.2458,7,1.5,,7,0,7,0,1,0.2241,,up,stimuli/card_100_transparent.png,230,100,,,,,,,,,,,,,,,,,,,,,,,,,,,,,,,,,,,,,,,,,,,,
,,,,6310a8e72d2a091bb08a0c97,A,2024-07-01_10h29.32.247,Slot Machine Game,2023.1.3,Win32,59.17159763,,,,,,,,,,,,,,,,,,,584.7962,8,1.5,,8,0,8,0,1,1.6922,,right,stimuli/card_0_transparent.png,230,0,,,,,,,,,,,,,,,,,,,,,,,,,,,,,,,,,,,,,,,,,,,,
,,,,6310a8e72d2a091bb08a0c97,A,2024-07-01_10h29.32.247,Slot Machine Game,2023.1.3,Win32,59.17159763,,,,,,,,,,,,,,,,,,,588.8124,9,0.5,,9,0,9,0,1,0.2981,,up,stimuli/card_0_transparent.png,230,0,,,,,,,,,,,,,,,,,,,,,,,,,,,,,,,,,,,,,,,,,,,,
,,,,6310a8e72d2a091bb08a0c97,A,2024-07-01_10h29.32.247,Slot Machine Game,2023.1.3,Win32,59.17159763,,,,,,,,,,,,,,,,,,,590.446,10,1,,10,0,10,0,1,0.4838,,left,stimuli/card_10_transparent.png,240,10,,,,,,,,,,,,,,,,,,,,,,,,,,,,,,,,,,,,,,,,,,,,
,,,,6310a8e72d2a091bb08a0c97,A,2024-07-01_10h29.32.247,Slot Machine Game,2023.1.3,Win32,59.17159763,,,,,,,,,,,,,,,,,,,592.7624,11,1,,11,0,11,0,1,1.5159,,left,stimuli/card_100_transparent.png,340,100,,,,,,,,,,,,,,,,,,,,,,,,,,,,,,,,,,,,,,,,,,,,
,,,,6310a8e72d2a091bb08a0c97,A,2024-07-01_10h29.32.247,Slot Machine Game,2023.1.3,Win32,59.17159763,,,,,,,,,,,,,,,,,,,596.1125,12,1.5,,12,0,12,0,1,0.3598,,left,stimuli/card_0_transparent.png,340,0,,,,,,,,,,,,,,,,,,,,,,,,,,,,,,,,,,,,,,,,,,,,
,,,,6310a8e72d2a091bb08a0c97,A,2024-07-01_10h29.32.247,Slot Machine Game,2023.1.3,Win32,59.17159763,,,,,,,,,,,,,,,,,,,598.7957,13,0.5,,13,0,13,0,1,1.307,,up,stimuli/card_0_transparent.png,340,0,,,,,,,,,,,,,,,,,,,,,,,,,,,,,,,,,,,,,,,,,,,,
,,,,6310a8e72d2a091bb08a0c97,A,2024-07-01_10h29.32.247,Slot Machine Game,2023.1.3,Win32,59.17159763,,,,,,,,,,,,,,,,,,,601.4293,14,1.5,,14,0,14,0,1,0.8673,,up,stimuli/card_0_transparent.png,340,0,,,,,,,,,,,,,,,,,,,,,,,,,,,,,,,,,,,,,,,,,,,,
,,,,6310a8e72d2a091bb08a0c97,A,2024-07-01_10h29.32.247,Slot Machine Game,2023.1.3,Win32,59.17159763,,,,,,,,,,,,,,,,,"[6,15]","[[1,3,2],[3,1,2]]",609.6624,0,1.5,,0,0,0,0,1,,,,,,,,604.6426,,,,,,,,,,,,,,,,,,,,,,,,,,,,,,,,,,,,,,,,,,
,,,,6310a8e72d2a091bb08a0c97,A,2024-07-01_10h29.32.247,Slot Machine Game,2023.1.3,Win32,59.17159763,,,,,,,,,,,,,,,,,,,615.1838,1,1,,1,0,1,0,1,0.3862,,left,stimuli/card_100_transparent.png,100,100,,,,,,,,,,,,,,,,,,,,,,,,,,,,,,,,,,,,,,,,,,,,
,,,,6310a8e72d2a091bb08a0c97,A,2024-07-01_10h29.32.247,Slot Machine Game,2023.1.3,Win32,59.17159763,,,,,,,,,,,,,,,,,,,617.3857,2,0.5,,2,0,2,0,1,2.3499,,up,stimuli/card_0_transparent.png,100,0,,,,,,,,,,,,,,,,,,,,,,,,,,,,,,,,,,,,,,,,,,,,
,,,,6310a8e72d2a091bb08a0c97,A,2024-07-01_10h29.32.247,Slot Machine Game,2023.1.3,Win32,59.17159763,,,,,,,,,,,,,,,,,,,621.0623,3,0.5,,3,0,3,0,1,0.5527,,left,stimuli/card_100_transparent.png,200,100,,,,,,,,,,,,,,,,,,,,,,,,,,,,,,,,,,,,,,,,,,,,
,,,,6310a8e72d2a091bb08a0c97,A,2024-07-01_10h29.32.247,Slot Machine Game,2023.1.3,Win32,59.17159763,,,,,,,,,,,,,,,,,,,622.936,4,0.5,,4,0,4,0,1,0.2215,,up,stimuli/card_100_transparent.png,300,100,,,,,,,,,,,,,,,,,,,,,,,,,,,,,,,,,,,,,,,,,,,,
,,,,6310a8e72d2a091bb08a0c97,A,2024-07-01_10h29.32.247,Slot Machine Game,2023.1.3,Win32,59.17159763,,,,,,,,,,,,,,,,,,,624.4786,5,1,,5,0,5,0,1,2.3173,,left,stimuli/card_10_transparent.png,310,10,,,,,,,,,,,,,,,,,,,,,,,,,,,,,,,,,,,,,,,,,,,,
,,,,6310a8e72d2a091bb08a0c97,A,2024-07-01_10h29.32.247,Slot Machine Game,2023.1.3,Win32,59.17159763,,,,,,,,,,,,,,,,,,,628.6291,6,0.5,,6,0,6,0,1,0.4668,,up,stimuli/card_100_transparent.png,410,100,,,,,,,,,,,,,,,,,,,,,,,,,,,,,,,,,,,,,,,,,,,,
,,,,6310a8e72d2a091bb08a0c97,A,2024-07-01_10h29.32.247,Slot Machine Game,2023.1.3,Win32,59.17159763,,,,,,,,,,,,,,,,,,,630.4185,7,0.5,,7,0,7,0,1,0.2899,,up,stimuli/card_100_transparent.png,510,100,,,,,,,,,,,,,,,,,,,,,,,,,,,,,,,,,,,,,,,,,,,,
,,,,6310a8e72d2a091bb08a0c97,A,2024-07-01_10h29.32.247,Slot Machine Game,2023.1.3,Win32,59.17159763,,,,,,,,,,,,,,,,,,,632.029,8,1.5,,8,0,8,0,1,0.4578,,up,stimuli/card_100_transparent.png,610,100,,,,,,,,,,,,,,,,,,,,,,,,,,,,,,,,,,,,,,,,,,,,
,,,,6310a8e72d2a091bb08a0c97,A,2024-07-01_10h29.32.247,Slot Machine Game,2023.1.3,Win32,59.17159763,,,,,,,,,,,,,,,,,,,634.8288,9,1.5,,9,0,9,0,1,0.2513,,up,stimuli/card_100_transparent.png,710,100,,,,,,,,,,,,,,,,,,,,,,,,,,,,,,,,,,,,,,,,,,,,
,,,,6310a8e72d2a091bb08a0c97,A,2024-07-01_10h29.32.247,Slot Machine Game,2023.1.3,Win32,59.17159763,,,,,,,,,,,,,,,,,,,637.3957,10,1,,10,0,10,0,1,1.2063,,up,stimuli/card_100_transparent.png,810,100,,,,,,,,,,,,,,,,,,,,,,,,,,,,,,,,,,,,,,,,,,,,
,,,,6310a8e72d2a091bb08a0c97,A,2024-07-01_10h29.32.247,Slot Machine Game,2023.1.3,Win32,59.17159763,,,,,,,,,,,,,,,,,,,640.4288,11,1,,11,0,11,0,1,1.475,,up,stimuli/card_10_transparent.png,820,10,,,,,,,,,,,,,,,,,,,,,,,,,,,,,,,,,,,,,,,,,,,,
,,,,6310a8e72d2a091bb08a0c97,A,2024-07-01_10h29.32.247,Slot Machine Game,2023.1.3,Win32,59.17159763,,,,,,,,,,,,,,,,,,,643.6966,12,1.5,,12,0,12,0,1,0.236,,up,stimuli/card_10_transparent.png,830,10,,,,,,,,,,,,,,,,,,,,,,,,,,,,,,,,,,,,,,,,,,,,
,,,,6310a8e72d2a091bb08a0c97,A,2024-07-01_10h29.32.247,Slot Machine Game,2023.1.3,Win32,59.17159763,,,,,,,,,,,,,,,,,,,646.2623,13,1.5,,13,0,13,0,1,0.6076,,left,stimuli/card_0_transparent.png,830,0,,,,,,,,,,,,,,,,,,,,,,,,,,,,,,,,,,,,,,,,,,,,
,,,,6310a8e72d2a091bb08a0c97,A,2024-07-01_10h29.32.247,Slot Machine Game,2023.1.3,Win32,59.17159763,,,,,,,,,,,,,,,,,,,649.1954,14,1,,14,0,14,0,1,0.9029,,right,stimuli/card_0_transparent.png,830,0,,,,,,,,,,,,,,,,,,,,,,,,,,,,,,,,,,,,,,,,,,,,
,,,,6310a8e72d2a091bb08a0c97,A,2024-07-01_10h29.32.247,Slot Machine Game,2023.1.3,Win32,59.17159763,,,,,,,,,,,,,,,,,,,,,,,,,,,,,,,,,,,651.9293,,,656.9318,space,2.7697,,,,,,,,,,,,,,,,,,,,,,,,,,,,,,,,,,,,,
,,,,6310a8e72d2a091bb08a0c97,A,2024-07-01_10h29.32.247,Slot Machine Game,2023.1.3,Win32,59.17159763,,,,,,,,,,,,,,,,,,,,,,,,,,,,,,,,,,,,,,,,,,659.7313,2,"[2,4,8,0,1,3,9,6,8,5]",space,3.9158,,,,,,,,,,,,,,,,,,,,,,,,,,,,,,,
,,,,6310a8e72d2a091bb08a0c97,A,2024-07-01_10h29.32.247,Slot Machine Game,2023.1.3,Win32,59.17159763,,,,,,,,,,,,,,,,,,,,,,,,,,,,,,,,100,,,,,,,,,,,,,,,,1,3,"[15,15]","[[3,1,2],[3,1,2]]",663.6986,0,up,0.8379,,0.5,0.3,"[3,1,2]",0.201974637,stimuli/card_100_transparent.png,100,0,0,0,0,1,,,,,,,,,,
,,,,6310a8e72d2a091bb08a0c97,A,2024-07-01_10h29.32.247,Slot Machine Game,2023.1.3,Win32,59.17159763,,,,,,,,,,,,,,,,,,,,,,,,,,,,,,,,200,,,,,,,,,,,,,,,,1,3,,,665.8624,1,up,0.4412,,1,0.3,"[3,1,2]",0.317454809,stimuli/card_100_transparent.png,100,1,0,1,0,1,,,,,,,,,,
,,,,6310a8e72d2a091bb08a0c97,A,2024-07-01_10h29.32.247,Slot Machine Game,2023.1.3,Win32,59.17159763,,,,,,,,,,,,,,,,,,,,,,,,,,,,,,,,300,,,,,,,,,,,,,,,,1,3,,,668.129,2,up,0.9157,,0.5,0.3,"[3,1,2]",0.754715925,stimuli/card_100_transparent.png,100,2,0,2,0,1,,,,,,,,,,
,,,,6310a8e72d2a091bb08a0c97,A,2024-07-01_10h29.32.247,Slot Machine Game,2023.1.3,Win32,59.17159763,,,,,,,,,,,,,,,,,,,,,,,,,,,,,,,,400,,,,,,,,,,,,,,,,1,3,,,670.3793,3,up,0.5021,,0.5,0.3,"[3,1,2]",0.26793737,stimuli/card_100_transparent.png,100,3,0,3,0,1,,,,,,,,,,
,,,,6310a8e72d2a091bb08a0c97,A,2024-07-01_10h29.32.247,Slot Machine Game,2023.1.3,Win32,59.17159763,,,,,,,,,,,,,,,,,,,,,,,,,,,,,,,,500,,,,,,,,,,,,,,,,1,3,,,672.2121,4,up,0.1335,,0.5,0.3,"[3,1,2]",0.400673441,stimuli/card_100_transparent.png,100,4,0,4,0,1,,,,,,,,,,
,,,,6310a8e72d2a091bb08a0c97,A,2024-07-01_10h29.32.247,Slot Machine Game,2023.1.3,Win32,59.17159763,,,,,,,,,,,,,,,,,,,,,,,,,,,,,,,,600,,,,,,,,,,,,,,,,1,3,,,673.6788,5,up,0.2013,,1,0.3,"[3,1,2]",0.577565603,stimuli/card_100_transparent.png,100,5,0,5,0,1,,,,,,,,,,
,,,,6310a8e72d2a091bb08a0c97,A,2024-07-01_10h29.32.247,Slot Machine Game,2023.1.3,Win32,59.17159763,,,,,,,,,,,,,,,,,,,,,,,,,,,,,,,,700,,,,,,,,,,,,,,,,1,3,,,675.7122,6,up,0.1675,,1.5,0.3,"[3,1,2]",0.288769736,stimuli/card_100_transparent.png,100,6,0,6,0,1,,,,,,,,,,
,,,,6310a8e72d2a091bb08a0c97,A,2024-07-01_10h29.32.247,Slot Machine Game,2023.1.3,Win32,59.17159763,,,,,,,,,,,,,,,,,,,,,,,,,,,,,,,,800,,,,,,,,,,,,,,,,1,3,,,678.2121,7,up,0.57,,1,0.3,"[3,1,2]",0.909899814,stimuli/card_100_transparent.png,100,7,0,7,0,1,,,,,,,,,,
,,,,6310a8e72d2a091bb08a0c97,A,2024-07-01_10h29.32.247,Slot Machine Game,2023.1.3,Win32,59.17159763,,,,,,,,,,,,,,,,,,,,,,,,,,,,,,,,900,,,,,,,,,,,,,,,,1,3,,,680.612,8,up,1.3343,,1,0.3,"[3,1,2]",0.666347479,stimuli/card_100_transparent.png,100,8,0,8,0,1,,,,,,,,,,
,,,,6310a8e72d2a091bb08a0c97,A,2024-07-01_10h29.32.247,Slot Machine Game,2023.1.3,Win32,59.17159763,,,,,,,,,,,,,,,,,,,,,,,,,,,,,,,,1000,,,,,,,,,,,,,,,,1,3,,,683.7623,9,up,2.1031,,1,0.3,"[3,1,2]",0.727414656,stimuli/card_100_transparent.png,100,9,0,9,0,1,,,,,,,,,,
,,,,6310a8e72d2a091bb08a0c97,A,2024-07-01_10h29.32.247,Slot Machine Game,2023.1.3,Win32,59.17159763,,,,,,,,,,,,,,,,,,,,,,,,,,,,,,,,1100,,,,,,,,,,,,,,,,1,3,,,687.6955,10,up,0.0234,,0.5,0.3,"[3,1,2]",0.638496519,stimuli/card_100_transparent.png,100,10,0,10,0,1,,,,,,,,,,
,,,,6310a8e72d2a091bb08a0c97,A,2024-07-01_10h29.32.247,Slot Machine Game,2023.1.3,Win32,59.17159763,,,,,,,,,,,,,,,,,,,,,,,,,,,,,,,,1200,,,,,,,,,,,,,,,,1,3,,,689.0451,11,up,2.0418,,1,0.3,"[3,1,2]",0.212369465,stimuli/card_100_transparent.png,100,11,0,11,0,1,,,,,,,,,,
,,,,6310a8e72d2a091bb08a0c97,A,2024-07-01_10h29.32.247,Slot Machine Game,2023.1.3,Win32,59.17159763,,,,,,,,,,,,,,,,,,,,,,,,,,,,,,,,1300,,,,,,,,,,,,,,,,1,3,,,692.9118,12,up,2.2006,,1,0.3,"[3,1,2]",0.506597147,stimuli/card_100_transparent.png,100,12,0,12,0,1,,,,,,,,,,
,,,,6310a8e72d2a091bb08a0c97,A,2024-07-01_10h29.32.247,Slot Machine Game,2023.1.3,Win32,59.17159763,,,,,,,,,,,,,,,,,,,,,,,,,,,,,,,,1400,,,,,,,,,,,,,,,,1,3,,,696.9451,13,up,1.7254,,1.5,0.3,"[3,1,2]",0.577472898,stimuli/card_100_transparent.png,100,13,0,13,0,1,,,,,,,,,,
,,,,6310a8e72d2a091bb08a0c97,A,2024-07-01_10h29.32.247,Slot Machine Game,2023.1.3,Win32,59.17159763,,,,,,,,,,,,,,,,,,,,,,,,,,,,,,,,1500,,,,,,,,,,,,,,,,1,3,,,700.9951,14,up,0.6674,,1,0.3,"[3,1,2]",0.238651998,stimuli/card_100_transparent.png,100,14,0,14,0,1,,,,,,,,,,
,,,,6310a8e72d2a091bb08a0c97,A,2024-07-01_10h29.32.247,Slot Machine Game,2023.1.3,Win32,59.17159763,,,,,,,,,,,,,,,,,,,,,,,,,,,,,,,,,,,703.4683,,,,,,,,,,,,,,,,,,,,,,,,,,,,,,,,,[1500],0,0,0,0,1,,,,
,,,,6310a8e72d2a091bb08a0c97,A,2024-07-01_10h29.32.247,Slot Machine Game,2023.1.3,Win32,59.17159763,,,,,,,,,,,,,,,,,,,,,,,,,,,,,,,,10,,,,,,,,,,,,,,,,2,5,"[5,15]","[[1,2,3],[3,1,2]]",708.4821,0,up,0.1841,,1,0.3,"[1,2,3]",0.807165933,stimuli/card_10_transparent.png,10,0,0,0,0,1,,,,,,,,,,
,,,,6310a8e72d2a091bb08a0c97,A,2024-07-01_10h29.32.247,Slot Machine Game,2023.1.3,Win32,59.17159763,,,,,,,,,,,,,,,,,,,,,,,,,,,,,,,,10,,,,,,,,,,,,,,,,2,5,,,710.4955,1,left,0.5005,,1,0.3,"[1,2,3]",0.084795176,stimuli/card_0_transparent.png,0,1,0,1,0,1,,,,,,,,,,
,,,,6310a8e72d2a091bb08a0c97,A,2024-07-01_10h29.32.247,Slot Machine Game,2023.1.3,Win32,59.17159763,,,,,,,,,,,,,,,,,,,,,,,,,,,,,,,,110,,,,,,,,,,,,,,,,2,5,,,712.8285,2,right,0.4098,,0.5,0.3,"[1,2,3]",0.02202992,stimuli/card_100_transparent.png,100,2,0,2,0,1,,,,,,,,,,
,,,,6310a8e72d2a091bb08a0c97,A,2024-07-01_10h29.32.247,Slot Machine Game,2023.1.3,Win32,59.17159763,,,,,,,,,,,,,,,,,,,,,,,,,,,,,,,,110,,,,,,,,,,,,,,,,2,5,,,714.5622,3,right,0.9394,,1.5,0.3,"[1,2,3]",0.365260435,stimuli/card_0_transparent.png,0,3,0,3,0,1,,,,,,,,,,
,,,,6310a8e72d2a091bb08a0c97,A,2024-07-01_10h29.32.247,Slot Machine Game,2023.1.3,Win32,59.17159763,,,,,,,,,,,,,,,,,,,,,,,,,,,,,,,,120,,,,,,,,,,,,,,,,2,5,,,717.8286,4,up,0.0419,,1,0.3,"[1,2,3]",0.794872193,stimuli/card_10_transparent.png,10,4,0,4,0,1,,,,,,,,,,
,,,,6310a8e72d2a091bb08a0c97,A,2024-07-01_10h29.32.247,Slot Machine Game,2023.1.3,Win32,59.17159763,,,,,,,,,,,,,,,,,,,,,,,,,,,,,,,,130,,,,,,,,,,,,,,,,2,5,,,719.6951,5,right,0.1919,,0.5,0.3,"[3,1,2]",0.984163768,stimuli/card_10_transparent.png,10,5,0,5,0,1,,,,,,,,,,
,,,,6310a8e72d2a091bb08a0c97,A,2024-07-01_10h29.32.247,Slot Machine Game,2023.1.3,Win32,59.17159763,,,,,,,,,,,,,,,,,,,,,,,,,,,,,,,,140,,,,,,,,,,,,,,,,2,5,,,721.1951,6,left,0.5833,,0.5,0.3,"[3,1,2]",0.149581411,stimuli/card_10_transparent.png,10,6,0,6,0,1,,,,,,,,,,
,,,,6310a8e72d2a091bb08a0c97,A,2024-07-01_10h29.32.247,Slot Machine Game,2023.1.3,Win32,59.17159763,,,,,,,,,,,,,,,,,,,,,,,,,,,,,,,,150,,,,,,,,,,,,,,,,2,5,,,723.0954,7,right,1.3059,,1,0.3,"[3,1,2]",0.448613052,stimuli/card_10_transparent.png,10,7,0,7,0,1,,,,,,,,,,
,,,,6310a8e72d2a091bb08a0c97,A,2024-07-01_10h29.32.247,Slot Machine Game,2023.1.3,Win32,59.17159763,,,,,,,,,,,,,,,,,,,,,,,,,,,,,,,,150,,,,,,,,,,,,,,,,2,5,,,726.2193,8,up,0.5374,,0.5,0.3,"[3,1,2]",0.086561018,stimuli/card_0_transparent.png,0,8,0,8,0,1,,,,,,,,,,
,,,,6310a8e72d2a091bb08a0c97,A,2024-07-01_10h29.32.247,Slot Machine Game,2023.1.3,Win32,59.17159763,,,,,,,,,,,,,,,,,,,,,,,,,,,,,,,,150,,,,,,,,,,,,,,,,2,5,,,728.0951,9,left,0.7594,,0.5,0.3,"[3,1,2]",0.783199378,stimuli/card_0_transparent.png,0,9,0,9,0,1,,,,,,,,,,
,,,,6310a8e72d2a091bb08a0c97,A,2024-07-01_10h29.32.247,Slot Machine Game,2023.1.3,Win32,59.17159763,,,,,,,,,,,,,,,,,,,,,,,,,,,,,,,,160,,,,,,,,,,,,,,,,2,5,,,730.1952,10,right,0.0185,,0.5,0.3,"[3,1,2]",0.379536121,stimuli/card_10_transparent.png,10,10,0,10,0,1,,,,,,,,,,
,,,,6310a8e72d2a091bb08a0c97,A,2024-07-01_10h29.32.247,Slot Machine Game,2023.1.3,Win32,59.17159763,,,,,,,,,,,,,,,,,,,,,,,,,,,,,,,,170,,,,,,,,,,,,,,,,2,5,,,731.5452,11,right,0.4167,,0.5,0.3,"[3,1,2]",0.402848028,stimuli/card_10_transparent.png,10,11,0,11,0,1,,,,,,,,,,
,,,,6310a8e72d2a091bb08a0c97,A,2024-07-01_10h29.32.247,Slot Machine Game,2023.1.3,Win32,59.17159763,,,,,,,,,,,,,,,,,,,,,,,,,,,,,,,,180,,,,,,,,,,,,,,,,2,5,,,733.2954,12,right,0.0347,,1.5,0.3,"[3,1,2]",0.386957966,stimuli/card_10_transparent.png,10,12,0,12,0,1,,,,,,,,,,
,,,,6310a8e72d2a091bb08a0c97,A,2024-07-01_10h29.32.247,Slot Machine Game,2023.1.3,Win32,59.17159763,,,,,,,,,,,,,,,,,,,,,,,,,,,,,,,,190,,,,,,,,,,,,,,,,2,5,,,735.6619,13,right,0.8251,,1,0.3,"[3,1,2]",0.617758694,stimuli/card_10_transparent.png,10,13,0,13,0,1,,,,,,,,,,
,,,,6310a8e72d2a091bb08a0c97,A,2024-07-01_10h29.32.247,Slot Machine Game,2023.1.3,Win32,59.17159763,,,,,,,,,,,,,,,,,,,,,,,,,,,,,,,,290,,,,,,,,,,,,,,,,2,5,,,738.3118,14,right,1.2704,,1.5,0.3,"[3,1,2]",0.163768694,stimuli/card_100_transparent.png,100,14,0,14,0,1,,,,,,,,,,
,,,,6310a8e72d2a091bb08a0c97,A,2024-07-01_10h29.32.247,Slot Machine Game,2023.1.3,Win32,59.17159763,,,,,,,,,,,,,,,,,,,,,,,,,,,,,,,,,,,741.9118,,,,,,,,,,,,,,,,,,,,,,,,,,,,,,,,,"[1500,290]",1,0,1,0,1,,,,
,,,,6310a8e72d2a091bb08a0c97,A,2024-07-01_10h29.32.247,Slot Machine Game,2023.1.3,Win32,59.17159763,,,,,,,,,,,,,,,,,,,,,,,,,,,,,,,,100,,,,,,,,,,,,,,,,3,9,"[8,15]","[[3,2,1],[3,1,2]]",746.9271,0,right,0.1185,,1.5,0.3,"[3,2,1]",0.273527453,stimuli/card_100_transparent.png,100,0,0,0,0,1,,,,,,,,,,
,,,,6310a8e72d2a091bb08a0c97,A,2024-07-01_10h29.32.247,Slot Machine Game,2023.1.3,Win32,59.17159763,,,,,,,,,,,,,,,,,,,,,,,,,,,,,,,,200,,,,,,,,,,,,,,,,3,9,,,749.362,1,right,0.3323,,0.5,0.3,"[3,2,1]",0.919403781,stimuli/card_100_transparent.png,100,1,0,1,0,1,,,,,,,,,,
,,,,6310a8e72d2a091bb08a0c97,A,2024-07-01_10h29.32.247,Slot Machine Game,2023.1.3,Win32,59.17159763,,,,,,,,,,,,,,,,,,,,,,,,,,,,,,,,300,,,,,,,,,,,,,,,,3,9,,,751.0286,2,right,0.9375,,0.5,0.3,"[3,2,1]",0.822410524,stimuli/card_100_transparent.png,100,2,0,2,0,1,,,,,,,,,,
,,,,6310a8e72d2a091bb08a0c97,A,2024-07-01_10h29.32.247,Slot Machine Game,2023.1.3,Win32,59.17159763,,,,,,,,,,,,,,,,,,,,,,,,,,,,,,,,400,,,,,,,,,,,,,,,,3,9,,,753.2949,3,right,1.5007,,1.5,0.3,"[3,2,1]",0.605747786,stimuli/card_100_transparent.png,100,3,0,3,0,1,,,,,,,,,,
,,,,6310a8e72d2a091bb08a0c97,A,2024-07-01_10h29.32.247,Slot Machine Game,2023.1.3,Win32,59.17159763,,,,,,,,,,,,,,,,,,,,,,,,,,,,,,,,500,,,,,,,,,,,,,,,,3,9,,,757.1119,4,right,2.8176,,1.5,0.3,"[3,2,1]",0.25492772,stimuli/card_100_transparent.png,100,4,0,4,0,1,,,,,,,,,,
,,,,6310a8e72d2a091bb08a0c97,A,2024-07-01_10h29.32.247,Slot Machine Game,2023.1.3,Win32,59.17159763,,,,,,,,,,,,,,,,,,,,,,,,,,,,,,,,,,,,,,,,,,,,,,,,3,9,,,762.2616,5,,,,0.5,0.3,,,,,5,0,5,0,1,,,,,,,,,,
,,,,6310a8e72d2a091bb08a0c97,A,2024-07-01_10h29.32.247,Slot Machine Game,2023.1.3,Win32,59.17159763,,,,,,,,,,,,,,,,,,,,,,,,,,,,,,,,,,,,,,,,,,,,,,,,3,9,,,767.7637,6,,,,1.5,0.3,,,,,6,0,6,0,1,,,,,,,,,,
,,,,6310a8e72d2a091bb08a0c97,A,2024-07-01_10h29.32.247,Slot Machine Game,2023.1.3,Win32,59.17159763,,,,,,,,,,,,,,,,,,,,,,,,,,,,,,,,510,,,,,,,,,,,,,,,,3,9,,,773.2789,7,up,2.417,0.0002,0.5,0.3,"[3,2,1]",0.74740737,stimuli/card_10_transparent.png,10,7,0,7,0,1,,,,,,,,,,
,,,,6310a8e72d2a091bb08a0c97,A,2024-07-01_10h29.32.247,Slot Machine Game,2023.1.3,Win32,59.17159763,,,,,,,,,,,,,,,,,,,,,,,,,,,,,,,,520,,,,,,,,,,,,,,,,3,9,,,776.9585,8,up,0.6253,,0.5,0.3,"[3,1,2]",0.195512837,stimuli/card_10_transparent.png,10,8,0,8,0,1,,,,,,,,,,
,,,,6310a8e72d2a091bb08a0c97,A,2024-07-01_10h29.32.247,Slot Machine Game,2023.1.3,Win32,59.17159763,,,,,,,,,,,,,,,,,,,,,,,,,,,,,,,,620,,,,,,,,,,,,,,,,3,9,,,778.8955,9,up,2.0955,,0.5,0.3,"[3,1,2]",0.200995935,stimuli/card_100_transparent.png,100,9,0,9,0,1,,,,,,,,,,
,,,,6310a8e72d2a091bb08a0c97,A,2024-07-01_10h29.32.247,Slot Machine Game,2023.1.3,Win32,59.17159763,,,,,,,,,,,,,,,,,,,,,,,,,,,,,,,,720,,,,,,,,,,,,,,,,3,9,,,782.3285,10,up,0.0301,,0.5,0.3,"[3,1,2]",0.638913703,stimuli/card_100_transparent.png,100,10,0,10,0,1,,,,,,,,,,
,,,,6310a8e72d2a091bb08a0c97,A,2024-07-01_10h29.32.247,Slot Machine Game,2023.1.3,Win32,59.17159763,,,,,,,,,,,,,,,,,,,,,,,,,,,,,,,,820,,,,,,,,,,,,,,,,3,9,,,783.6684,11,up,0.8187,,1,0.3,"[3,1,2]",0.482075962,stimuli/card_100_transparent.png,100,11,0,11,0,1,,,,,,,,,,
,,,,6310a8e72d2a091bb08a0c97,A,2024-07-01_10h29.32.247,Slot Machine Game,2023.1.3,Win32,59.17159763,,,,,,,,,,,,,,,,,,,,,,,,,,,,,,,,,,,,,,,,,,,,,,,,3,9,,,786.3115,12,,,,1.5,0.3,,,,,12,0,12,0,1,,,,,,,,,,
,,,,6310a8e72d2a091bb08a0c97,A,2024-07-01_10h29.32.247,Slot Machine Game,2023.1.3,Win32,59.17159763,,,,,,,,,,,,,,,,,,,,,,,,,,,,,,,,,,,,,,,,,,,,,,,,3,9,,,791.8535,13,,,,1,0.3,,,,,13,0,13,0,1,,,,,,,,,,
,,,,6310a8e72d2a091bb08a0c97,A,2024-07-01_10h29.32.247,Slot Machine Game,2023.1.3,Win32,59.17159763,,,,,,,,,,,,,,,,,,,,,,,,,,,,,,,,,,,,,,,,,,,,,,,,3,9,,,797.3624,14,,,,1.5,0.3,,,,,14,0,14,0,1,,,,,,,,,,
,,,,6310a8e72d2a091bb08a0c97,A,2024-07-01_10h29.32.247,Slot Machine Game,2023.1.3,Win32,59.17159763,,,,,,,,,,,,,,,,,,,,,,,,,,,,,,,,,,,802.8789,,,,,,,,,,,,,,,,,,,,,,,,,,,,,,,,,"[1500,290,820]",2,0,2,0,1,,,,
,,,,6310a8e72d2a091bb08a0c97,A,2024-07-01_10h29.32.247,Slot Machine Game,2023.1.3,Win32,59.17159763,,,,,,,,,,,,,,,,,,,,,,,,,,,,,,,,10,,,,,,,,,,,,,,,,4,1,"[12,15]","[[2,1,3],[2,3,1]]",807.8919,0,up,3.5748,0.0008,0.5,0.3,"[2,1,3]",0.117933264,stimuli/card_10_transparent.png,10,0,0,0,0,1,,,,,,,,,,
,,,,6310a8e72d2a091bb08a0c97,A,2024-07-01_10h29.32.247,Slot Machine Game,2023.1.3,Win32,59.17159763,,,,,,,,,,,,,,,,,,,,,,,,,,,,,,,,,,,,,,,,,,,,,,,,4,1,,,812.8438,1,,,,1.5,0.3,,,,,1,0,1,0,1,,,,,,,,,,
,,,,6310a8e72d2a091bb08a0c97,A,2024-07-01_10h29.32.247,Slot Machine Game,2023.1.3,Win32,59.17159763,,,,,,,,,,,,,,,,,,,,,,,,,,,,,,,,,,,,,,,,,,,,,,,,4,1,,,818.3486,2,,,,1.5,0.3,,,,,2,0,2,0,1,,,,,,,,,,
,,,,6310a8e72d2a091bb08a0c97,A,2024-07-01_10h29.32.247,Slot Machine Game,2023.1.3,Win32,59.17159763,,,,,,,,,,,,,,,,,,,,,,,,,,,,,,,,,,,,,,,,,,,,,,,,4,1,,,823.862,3,,,,0.5,0.3,,,,,3,0,3,0,1,,,,,,,,,,
,,,,6310a8e72d2a091bb08a0c97,A,2024-07-01_10h29.32.247,Slot Machine Game,2023.1.3,Win32,59.17159763,,,,,,,,,,,,,,,,,,,,,,,,,,,,,,,,,,,,,,,,,,,,,,,,4,1,,,829.379,4,,,,1,0.3,,,,,4,0,4,0,1,,,,,,,,,,
,,,,6310a8e72d2a091bb08a0c97,A,2024-07-01_10h29.32.247,Slot Machine Game,2023.1.3,Win32,59.17159763,,,,,,,,,,,,,,,,,,,,,,,,,,,,,,,,,,,,,,,,,,,,,,,,4,1,,,834.8957,5,,,,0.5,0.3,,,,,5,0,5,0,1,,,,,,,,,,
,,,,6310a8e72d2a091bb08a0c97,A,2024-07-01_10h29.32.247,Slot Machine Game,2023.1.3,Win32,59.17159763,,,,,,,,,,,,,,,,,,,,,,,,,,,,,,,,,,,,,,,,,,,,,,,,4,1,,,840.4121,6,,,,1,0.3,,,,,6,0,6,0,1,,,,,,,,,,
,,,,6310a8e72d2a091bb08a0c97,A,2024-07-01_10h29.32.247,Slot Machine Game,2023.1.3,Win32,59.17159763,,,,,,,,,,,,,,,,,,,,,,,,,,,,,,,,,,,,,,,,,,,,,,,,4,1,,,845.9288,7,,,,0.5,0.3,,,,,7,0,7,0,1,,,,,,,,,,
,,,,6310a8e72d2a091bb08a0c97,A,2024-07-01_10h29.32.247,Slot Machine Game,2023.1.3,Win32,59.17159763,,,,,,,,,,,,,,,,,,,,,,,,,,,,,,,,10,,,,,,,,,,,,,,,,4,1,,,851.4451,8,up,3.2955,,1,0.3,"[2,1,3]",0.013201098,stimuli/card_0_transparent.png,0,8,0,8,0,1,,,,,,,,,,
,,,,6310a8e72d2a091bb08a0c97,A,2024-07-01_10h29.32.247,Slot Machine Game,2023.1.3,Win32,59.17159763,,,,,,,,,,,,,,,,,,,,,,,,,,,,,,,,20,,,,,,,,,,,,,,,,4,1,,,856.5781,9,right,0.6678,,1,0.3,"[2,1,3]",0.161359106,stimuli/card_10_transparent.png,10,9,0,9,0,1,,,,,,,,,,
,,,,6310a8e72d2a091bb08a0c97,A,2024-07-01_10h29.32.247,Slot Machine Game,2023.1.3,Win32,59.17159763,,,,,,,,,,,,,,,,,,,,,,,,,,,,,,,,30,,,,,,,,,,,,,,,,4,1,,,859.0952,10,left,0.2228,,0.5,0.3,"[2,1,3]",0.515530896,stimuli/card_10_transparent.png,10,10,0,10,0,1,,,,,,,,,,
,,,,6310a8e72d2a091bb08a0c97,A,2024-07-01_10h29.32.247,Slot Machine Game,2023.1.3,Win32,59.17159763,,,,,,,,,,,,,,,,,,,,,,,,,,,,,,,,40,,,,,,,,,,,,,,,,4,1,,,860.645,11,left,0.5339,,1,0.3,"[2,1,3]",0.761154323,stimuli/card_10_transparent.png,10,11,0,11,0,1,,,,,,,,,,
,,,,6310a8e72d2a091bb08a0c97,A,2024-07-01_10h29.32.247,Slot Machine Game,2023.1.3,Win32,59.17159763,,,,,,,,,,,,,,,,,,,,,,,,,,,,,,,,40,,,,,,,,,,,,,,,,4,1,,,863.0114,12,up,0.0996,,1.5,0.3,"[2,3,1]",0.339352407,stimuli/card_0_transparent.png,0,12,0,12,0,1,,,,,,,,,,
,,,,6310a8e72d2a091bb08a0c97,A,2024-07-01_10h29.32.247,Slot Machine Game,2023.1.3,Win32,59.17159763,,,,,,,,,,,,,,,,,,,,,,,,,,,,,,,,40,,,,,,,,,,,,,,,,4,1,,,865.445,13,up,1.1855,,1,0.3,"[2,3,1]",0.254813982,stimuli/card_0_transparent.png,0,13,0,13,0,1,,,,,,,,,,
,,,,6310a8e72d2a091bb08a0c97,A,2024-07-01_10h29.32.247,Slot Machine Game,2023.1.3,Win32,59.17159763,,,,,,,,,,,,,,,,,,,,,,,,,,,,,,,,140,,,,,,,,,,,,,,,,4,1,,,868.4623,14,right,0.4503,,1,0.3,"[2,3,1]",0.54266998,stimuli/card_100_transparent.png,100,14,0,14,0,1,,,,,,,,,,
,,,,6310a8e72d2a091bb08a0c97,A,2024-07-01_10h29.32.247,Slot Machine Game,2023.1.3,Win32,59.17159763,,,,,,,,,,,,,,,,,,,,,,,,,,,,,,,,,,,870.7449,,,,,,,,,,,,,,,,,,,,,,,,,,,,,,,,,"[1500,290,820,140]",3,0,3,0,1,,,,
,,,,6310a8e72d2a091bb08a0c97,A,2024-07-01_10h29.32.247,Slot Machine Game,2023.1.3,Win32,59.17159763,,,,,,,,,,,,,,,,,,,,,,,,,,,,,,,,10,,,,,,,,,,,,,,,,5,2,"[6,15]","[[1,3,2],[3,2,1]]",875.7601,0,right,0.0004,,1.5,0.3,"[1,3,2]",0.599577044,stimuli/card_10_transparent.png,10,0,0,0,0,1,,,,,,,,,,
,,,,6310a8e72d2a091bb08a0c97,A,2024-07-01_10h29.32.247,Slot Machine Game,2023.1.3,Win32,59.17159763,,,,,,,,,,,,,,,,,,,,,,,,,,,,,,,,20,,,,,,,,,,,,,,,,5,2,,,878.0682,1,right,2.4322,,1.5,0.3,"[1,3,2]",0.264405183,stimuli/card_10_transparent.png,10,1,0,1,0,1,,,,,,,,,,
,,,,6310a8e72d2a091bb08a0c97,A,2024-07-01_10h29.32.247,Slot Machine Game,2023.1.3,Win32,59.17159763,,,,,,,,,,,,,,,,,,,,,,,,,,,,,,,,30,,,,,,,,,,,,,,,,5,2,,,882.8281,2,up,0.5496,,1,0.3,"[1,3,2]",0.158697247,stimuli/card_10_transparent.png,10,2,0,2,0,1,,,,,,,,,,
,,,,6310a8e72d2a091bb08a0c97,A,2024-07-01_10h29.32.247,Slot Machine Game,2023.1.3,Win32,59.17159763,,,,,,,,,,,,,,,,,,,,,,,,,,,,,,,,130,,,,,,,,,,,,,,,,5,2,,,885.2017,3,left,0.534,,0.5,0.3,"[1,3,2]",0.216332322,stimuli/card_100_transparent.png,100,3,0,3,0,1,,,,,,,,,,
,,,,6310a8e72d2a091bb08a0c97,A,2024-07-01_10h29.32.247,Slot Machine Game,2023.1.3,Win32,59.17159763,,,,,,,,,,,,,,,,,,,,,,,,,,,,,,,,230,,,,,,,,,,,,,,,,5,2,,,887.0678,4,left,0.4185,,0.5,0.3,"[1,3,2]",0.475824148,stimuli/card_100_transparent.png,100,4,0,4,0,1,,,,,,,,,,
,,,,6310a8e72d2a091bb08a0c97,A,2024-07-01_10h29.32.247,Slot Machine Game,2023.1.3,Win32,59.17159763,,,,,,,,,,,,,,,,,,,,,,,,,,,,,,,,330,,,,,,,,,,,,,,,,5,2,,,888.8197,5,left,0.4498,,1.5,0.3,"[1,3,2]",0.655611284,stimuli/card_100_transparent.png,100,5,0,5,0,1,,,,,,,,,,
,,,,6310a8e72d2a091bb08a0c97,A,2024-07-01_10h29.32.247,Slot Machine Game,2023.1.3,Win32,59.17159763,,,,,,,,,,,,,,,,,,,,,,,,,,,,,,,,330,,,,,,,,,,,,,,,,5,2,,,891.601,6,left,0.0495,,1.5,0.3,"[3,2,1]",0.832221599,stimuli/card_0_transparent.png,0,6,0,6,0,1,,,,,,,,,,
,,,,6310a8e72d2a091bb08a0c97,A,2024-07-01_10h29.32.247,Slot Machine Game,2023.1.3,Win32,59.17159763,,,,,,,,,,,,,,,,,,,,,,,,,,,,,,,,430,,,,,,,,,,,,,,,,5,2,,,893.9895,7,left,0.4676,,0.5,0.3,"[3,2,1]",0.092231844,stimuli/card_100_transparent.png,100,7,0,7,0,1,,,,,,,,,,
,,,,6310a8e72d2a091bb08a0c97,A,2024-07-01_10h29.32.247,Slot Machine Game,2023.1.3,Win32,59.17159763,,,,,,,,,,,,,,,,,,,,,,,,,,,,,,,,430,,,,,,,,,,,,,,,,5,2,,,895.7844,8,left,0.035,,1.5,0.3,"[3,2,1]",0.702379879,stimuli/card_0_transparent.png,0,8,0,8,0,1,,,,,,,,,,
,,,,6310a8e72d2a091bb08a0c97,A,2024-07-01_10h29.32.247,Slot Machine Game,2023.1.3,Win32,59.17159763,,,,,,,,,,,,,,,,,,,,,,,,,,,,,,,,530,,,,,,,,,,,,,,,,5,2,,,898.1515,9,left,1.3,,1,0.3,"[3,2,1]",0.0204239,stimuli/card_100_transparent.png,100,9,0,9,0,1,,,,,,,,,,
,,,,6310a8e72d2a091bb08a0c97,A,2024-07-01_10h29.32.247,Slot Machine Game,2023.1.3,Win32,59.17159763,,,,,,,,,,,,,,,,,,,,,,,,,,,,,,,,530,,,,,,,,,,,,,,,,5,2,,,901.2678,10,left,0.3172,,0.5,0.3,"[3,2,1]",0.569084352,stimuli/card_0_transparent.png,0,10,0,10,0,1,,,,,,,,,,
,,,,6310a8e72d2a091bb08a0c97,A,2024-07-01_10h29.32.247,Slot Machine Game,2023.1.3,Win32,59.17159763,,,,,,,,,,,,,,,,,,,,,,,,,,,,,,,,530,,,,,,,,,,,,,,,,5,2,,,902.918,11,left,0.5337,,1.5,0.3,"[3,2,1]",0.435508757,stimuli/card_0_transparent.png,0,11,0,11,0,1,,,,,,,,,,
,,,,6310a8e72d2a091bb08a0c97,A,2024-07-01_10h29.32.247,Slot Machine Game,2023.1.3,Win32,59.17159763,,,,,,,,,,,,,,,,,,,,,,,,,,,,,,,,540,,,,,,,,,,,,,,,,5,2,,,905.7845,12,left,0.265,,1,0.3,"[3,2,1]",0.146015833,stimuli/card_10_transparent.png,10,12,0,12,0,1,,,,,,,,,,
,,,,6310a8e72d2a091bb08a0c97,A,2024-07-01_10h29.32.247,Slot Machine Game,2023.1.3,Win32,59.17159763,,,,,,,,,,,,,,,,,,,,,,,,,,,,,,,,540,,,,,,,,,,,,,,,,5,2,,,907.8676,13,left,1.3988,,1.5,0.3,"[3,2,1]",0.696037227,stimuli/card_0_transparent.png,0,13,0,13,0,1,,,,,,,,,,
,,,,6310a8e72d2a091bb08a0c97,A,2024-07-01_10h29.32.247,Slot Machine Game,2023.1.3,Win32,59.17159763,,,,,,,,,,,,,,,,,,,,,,,,,,,,,,,,550,,,,,,,,,,,,,,,,5,2,,,911.6009,14,up,0.2011,,0.5,0.3,"[3,2,1]",0.529844055,stimuli/card_10_transparent.png,10,14,0,14,0,1,,,,,,,,,,
,,,,6310a8e72d2a091bb08a0c97,A,2024-07-01_10h29.32.247,Slot Machine Game,2023.1.3,Win32,59.17159763,,,,,,,,,,,,,,,,,,,,,,,,,,,,,,,,,,,913.1342,,,,,,,,,,,,,,,,,,,,,,,,,,,,,,,,,"[1500,290,820,140,550]",4,0,4,0,1,,,,
,,,,6310a8e72d2a091bb08a0c97,A,2024-07-01_10h29.32.247,Slot Machine Game,2023.1.3,Win32,59.17159763,,,,,,,,,,,,,,,,,,,,,,,,,,,,,,,,100,,,,,,,,,,,,,,,,6,4,"[7,15]","[[2,3,1],[1,2,3]]",918.1515,0,right,0.2023,,1,0.3,"[2,3,1]",0.586817086,stimuli/card_100_transparent.png,100,0,0,0,0,1,,,,,,,,,,
,,,,6310a8e72d2a091bb08a0c97,A,2024-07-01_10h29.32.247,Slot Machine Game,2023.1.3,Win32,59.17159763,,,,,,,,,,,,,,,,,,,,,,,,,,,,,,,,200,,,,,,,,,,,,,,,,6,4,,,920.1948,1,right,0.0008,,1,0.3,"[2,3,1]",0.420130781,stimuli/card_100_transparent.png,100,1,0,1,0,1,,,,,,,,,,
,,,,6310a8e72d2a091bb08a0c97,A,2024-07-01_10h29.32.247,Slot Machine Game,2023.1.3,Win32,59.17159763,,,,,,,,,,,,,,,,,,,,,,,,,,,,,,,,300,,,,,,,,,,,,,,,,6,4,,,922.0119,2,right,0.3669,,1.5,0.3,"[2,3,1]",0.46793862,stimuli/card_100_transparent.png,100,2,0,2,0,1,,,,,,,,,,
,,,,6310a8e72d2a091bb08a0c97,A,2024-07-01_10h29.32.247,Slot Machine Game,2023.1.3,Win32,59.17159763,,,,,,,,,,,,,,,,,,,,,,,,,,,,,,,,400,,,,,,,,,,,,,,,,6,4,,,924.7113,3,right,0.767,,1,0.3,"[2,3,1]",0.669178052,stimuli/card_100_transparent.png,100,3,0,3,0,1,,,,,,,,,,
,,,,6310a8e72d2a091bb08a0c97,A,2024-07-01_10h29.32.247,Slot Machine Game,2023.1.3,Win32,59.17159763,,,,,,,,,,,,,,,,,,,,,,,,,,,,,,,,500,,,,,,,,,,,,,,,,6,4,,,927.3177,4,right,1.0715,,1,0.3,"[2,3,1]",0.920259696,stimuli/card_100_transparent.png,100,4,0,4,0,1,,,,,,,,,,
,,,,6310a8e72d2a091bb08a0c97,A,2024-07-01_10h29.32.247,Slot Machine Game,2023.1.3,Win32,59.17159763,,,,,,,,,,,,,,,,,,,,,,,,,,,,,,,,510,,,,,,,,,,,,,,,,6,4,,,930.2113,5,right,1.3541,,1.5,0.3,"[2,3,1]",0.171366713,stimuli/card_10_transparent.png,10,5,0,5,0,1,,,,,,,,,,
,,,,6310a8e72d2a091bb08a0c97,A,2024-07-01_10h29.32.247,Slot Machine Game,2023.1.3,Win32,59.17159763,,,,,,,,,,,,,,,,,,,,,,,,,,,,,,,,610,,,,,,,,,,,,,,,,6,4,,,933.8946,6,right,2.1033,,1.5,0.3,"[2,3,1]",0.881141835,stimuli/card_100_transparent.png,100,6,0,6,0,1,,,,,,,,,,
,,,,6310a8e72d2a091bb08a0c97,A,2024-07-01_10h29.32.247,Slot Machine Game,2023.1.3,Win32,59.17159763,,,,,,,,,,,,,,,,,,,,,,,,,,,,,,,,610,,,,,,,,,,,,,,,,6,4,,,938.3113,7,right,0.135,,0.5,0.3,"[1,2,3]",0.739823506,stimuli/card_0_transparent.png,0,7,0,7,0,1,,,,,,,,,,
,,,,6310a8e72d2a091bb08a0c97,A,2024-07-01_10h29.32.247,Slot Machine Game,2023.1.3,Win32,59.17159763,,,,,,,,,,,,,,,,,,,,,,,,,,,,,,,,620,,,,,,,,,,,,,,,,6,4,,,939.7777,8,up,0.0043,,0.5,0.3,"[1,2,3]",0.956553702,stimuli/card_10_transparent.png,10,8,0,8,0,1,,,,,,,,,,
,,,,6310a8e72d2a091bb08a0c97,A,2024-07-01_10h29.32.247,Slot Machine Game,2023.1.3,Win32,59.17159763,,,,,,,,,,,,,,,,,,,,,,,,,,,,,,,,720,,,,,,,,,,,,,,,,6,4,,,941.1113,9,left,0.0231,,1.5,0.3,"[1,2,3]",0.78320334,stimuli/card_100_transparent.png,100,9,0,9,0,1,,,,,,,,,,
,,,,6310a8e72d2a091bb08a0c97,A,2024-07-01_10h29.32.247,Slot Machine Game,2023.1.3,Win32,59.17159763,,,,,,,,,,,,,,,,,,,,,,,,,,,,,,,,720,,,,,,,,,,,,,,,,6,4,,,943.461,10,left,0.4993,,1.5,0.3,"[1,2,3]",0.068966673,stimuli/card_0_transparent.png,0,10,0,10,0,1,,,,,,,,,,
,,,,6310a8e72d2a091bb08a0c97,A,2024-07-01_10h29.32.247,Slot Machine Game,2023.1.3,Win32,59.17159763,,,,,,,,,,,,,,,,,,,,,,,,,,,,,,,,730,,,,,,,,,,,,,,,,6,4,,,946.2944,11,right,0.8655,,1,0.3,"[1,2,3]",0.121154487,stimuli/card_10_transparent.png,10,11,0,11,0,1,,,,,,,,,,
,,,,6310a8e72d2a091bb08a0c97,A,2024-07-01_10h29.32.247,Slot Machine Game,2023.1.3,Win32,59.17159763,,,,,,,,,,,,,,,,,,,,,,,,,,,,,,,,830,,,,,,,,,,,,,,,,6,4,,,948.9948,12,up,0.5677,,1.5,0.3,"[1,2,3]",0.139025398,stimuli/card_100_transparent.png,100,12,0,12,0,1,,,,,,,,,,
,,,,6310a8e72d2a091bb08a0c97,A,2024-07-01_10h29.32.247,Slot Machine Game,2023.1.3,Win32,59.17159763,,,,,,,,,,,,,,,,,,,,,,,,,,,,,,,,840,,,,,,,,,,,,,,,,6,4,,,951.895,13,up,0.92,,1,0.3,"[1,2,3]",0.441056745,stimuli/card_10_transparent.png,10,13,0,13,0,1,,,,,,,,,,
,,,,6310a8e72d2a091bb08a0c97,A,2024-07-01_10h29.32.247,Slot Machine Game,2023.1.3,Win32,59.17159763,,,,,,,,,,,,,,,,,,,,,,,,,,,,,,,,850,,,,,,,,,,,,,,,,6,4,,,954.6279,14,up,0.4896,,0.5,0.3,"[1,2,3]",0.797474693,stimuli/card_10_transparent.png,10,14,0,14,0,1,,,,,,,,,,
,,,,6310a8e72d2a091bb08a0c97,A,2024-07-01_10h29.32.247,Slot Machine Game,2023.1.3,Win32,59.17159763,,,,,,,,,,,,,,,,,,,,,,,,,,,,,,,,,,,956.4447,,,,,,,,,,,,,,,,,,,,,,,,,,,,,,,,,"[1500,290,820,140,550,850]",5,0,5,0,1,,,,
,,,,6310a8e72d2a091bb08a0c97,A,2024-07-01_10h29.32.247,Slot Machine Game,2023.1.3,Win32,59.17159763,,,,,,,,,,,,,,,,,,,,,,,,,,,,,,,,100,,,,,,,,,,,,,,,,7,10,"[10,15]","[[3,1,2],[1,3,2]]",961.4584,0,right,0.8507,,1.5,0.3,"[3,1,2]",0.175306245,stimuli/card_100_transparent.png,100,0,0,0,0,1,,,,,,,,,,
,,,,6310a8e72d2a091bb08a0c97,A,2024-07-01_10h29.32.247,Slot Machine Game,2023.1.3,Win32,59.17159763,,,,,,,,,,,,,,,,,,,,,,,,,,,,,,,,110,,,,,,,,,,,,,,,,7,10,,,964.6446,1,right,0.1906,,1,0.3,"[3,1,2]",0.346734887,stimuli/card_10_transparent.png,10,1,0,1,0,1,,,,,,,,,,
,,,,6310a8e72d2a091bb08a0c97,A,2024-07-01_10h29.32.247,Slot Machine Game,2023.1.3,Win32,59.17159763,,,,,,,,,,,,,,,,,,,,,,,,,,,,,,,,210,,,,,,,,,,,,,,,,7,10,,,966.6612,2,right,0.5927,,1,0.3,"[3,1,2]",0.154787896,stimuli/card_100_transparent.png,100,2,0,2,0,1,,,,,,,,,,
,,,,6310a8e72d2a091bb08a0c97,A,2024-07-01_10h29.32.247,Slot Machine Game,2023.1.3,Win32,59.17159763,,,,,,,,,,,,,,,,,,,,,,,,,,,,,,,,220,,,,,,,,,,,,,,,,7,10,,,969.078,3,right,0.5674,,0.5,0.3,"[3,1,2]",0.715904798,stimuli/card_10_transparent.png,10,3,0,3,0,1,,,,,,,,,,
,,,,6310a8e72d2a091bb08a0c97,A,2024-07-01_10h29.32.247,Slot Machine Game,2023.1.3,Win32,59.17159763,,,,,,,,,,,,,,,,,,,,,,,,,,,,,,,,230,,,,,,,,,,,,,,,,7,10,,,970.9777,4,right,0.2183,,1,0.3,"[3,1,2]",0.29914538,stimuli/card_10_transparent.png,10,4,0,4,0,1,,,,,,,,,,
,,,,6310a8e72d2a091bb08a0c97,A,2024-07-01_10h29.32.247,Slot Machine Game,2023.1.3,Win32,59.17159763,,,,,,,,,,,,,,,,,,,,,,,,,,,,,,,,330,,,,,,,,,,,,,,,,7,10,,,973.0276,5,up,0.4187,,1,0.3,"[3,1,2]",0.47534624,stimuli/card_100_transparent.png,100,5,0,5,0,1,,,,,,,,,,
,,,,6310a8e72d2a091bb08a0c97,A,2024-07-01_10h29.32.247,Slot Machine Game,2023.1.3,Win32,59.17159763,,,,,,,,,,,,,,,,,,,,,,,,,,,,,,,,430,,,,,,,,,,,,,,,,7,10,,,975.2619,6,up,0.4498,,1.5,0.3,"[3,1,2]",0.645630731,stimuli/card_100_transparent.png,100,6,0,6,0,1,,,,,,,,,,
,,,,6310a8e72d2a091bb08a0c97,A,2024-07-01_10h29.32.247,Slot Machine Game,2023.1.3,Win32,59.17159763,,,,,,,,,,,,,,,,,,,,,,,,,,,,,,,,530,,,,,,,,,,,,,,,,7,10,,,978.0445,7,up,0.457,,0.5,0.3,"[3,1,2]",0.442802608,stimuli/card_100_transparent.png,100,7,0,7,0,1,,,,,,,,,,
,,,,6310a8e72d2a091bb08a0c97,A,2024-07-01_10h29.32.247,Slot Machine Game,2023.1.3,Win32,59.17159763,,,,,,,,,,,,,,,,,,,,,,,,,,,,,,,,630,,,,,,,,,,,,,,,,7,10,,,979.8276,8,up,0.3502,,1.5,0.3,"[3,1,2]",0.700149949,stimuli/card_100_transparent.png,100,8,0,8,0,1,,,,,,,,,,
,,,,6310a8e72d2a091bb08a0c97,A,2024-07-01_10h29.32.247,Slot Machine Game,2023.1.3,Win32,59.17159763,,,,,,,,,,,,,,,,,,,,,,,,,,,,,,,,730,,,,,,,,,,,,,,,,7,10,,,982.5112,9,up,0.3675,,1,0.3,"[3,1,2]",0.993728613,stimuli/card_100_transparent.png,100,9,0,9,0,1,,,,,,,,,,
,,,,6310a8e72d2a091bb08a0c97,A,2024-07-01_10h29.32.247,Slot Machine Game,2023.1.3,Win32,59.17159763,,,,,,,,,,,,,,,,,,,,,,,,,,,,,,,,730,,,,,,,,,,,,,,,,7,10,,,984.7109,10,up,0.1265,,1.5,0.3,"[1,3,2]",0.428185637,stimuli/card_0_transparent.png,0,10,0,10,0,1,,,,,,,,,,
,,,,6310a8e72d2a091bb08a0c97,A,2024-07-01_10h29.32.247,Slot Machine Game,2023.1.3,Win32,59.17159763,,,,,,,,,,,,,,,,,,,,,,,,,,,,,,,,730,,,,,,,,,,,,,,,,7,10,,,987.1442,11,up,0.3653,,1,0.3,"[1,3,2]",0.256293015,stimuli/card_0_transparent.png,0,11,0,11,0,1,,,,,,,,,,
,,,,6310a8e72d2a091bb08a0c97,A,2024-07-01_10h29.32.247,Slot Machine Game,2023.1.3,Win32,59.17159763,,,,,,,,,,,,,,,,,,,,,,,,,,,,,,,,730,,,,,,,,,,,,,,,,7,10,,,989.3444,12,up,0.0839,,0.5,0.3,"[1,3,2]",0.719207967,stimuli/card_0_transparent.png,0,12,0,12,0,1,,,,,,,,,,
,,,,6310a8e72d2a091bb08a0c97,A,2024-07-01_10h29.32.247,Slot Machine Game,2023.1.3,Win32,59.17159763,,,,,,,,,,,,,,,,,,,,,,,,,,,,,,,,730,,,,,,,,,,,,,,,,7,10,,,990.7612,13,up,0.6164,,1,0.3,"[1,3,2]",0.786943779,stimuli/card_0_transparent.png,0,13,0,13,0,1,,,,,,,,,,
,,,,6310a8e72d2a091bb08a0c97,A,2024-07-01_10h29.32.247,Slot Machine Game,2023.1.3,Win32,59.17159763,,,,,,,,,,,,,,,,,,,,,,,,,,,,,,,,830,,,,,,,,,,,,,,,,7,10,,,993.2111,14,left,0.0349,,0.5,0.3,"[1,3,2]",0.375509304,stimuli/card_100_transparent.png,100,14,0,14,0,1,,,,,,,,,,
,,,,6310a8e72d2a091bb08a0c97,A,2024-07-01_10h29.32.247,Slot Machine Game,2023.1.3,Win32,59.17159763,,,,,,,,,,,,,,,,,,,,,,,,,,,,,,,,,,,994.5781,,,,,,,,,,,,,,,,,,,,,,,,,,,,,,,,,"[1500,290,820,140,550,850,830]",6,0,6,0,1,,,,
,,,,6310a8e72d2a091bb08a0c97,A,2024-07-01_10h29.32.247,Slot Machine Game,2023.1.3,Win32,59.17159763,,,,,,,,,,,,,,,,,,,,,,,,,,,,,,,,10,,,,,,,,,,,,,,,,8,7,"[9,15]","[[1,3,2],[2,3,1]]",999.5928,0,right,0.3509,,1.5,0.3,"[1,3,2]",0.905475403,stimuli/card_10_transparent.png,10,0,0,0,0,1,,,,,,,,,,
,,,,6310a8e72d2a091bb08a0c97,A,2024-07-01_10h29.32.247,Slot Machine Game,2023.1.3,Win32,59.17159763,,,,,,,,,,,,,,,,,,,,,,,,,,,,,,,,110,,,,,,,,,,,,,,,,8,7,,,1002.278,1,left,0.2169,,1.5,0.3,"[1,3,2]",0.928994415,stimuli/card_100_transparent.png,100,1,0,1,0,1,,,,,,,,,,
,,,,6310a8e72d2a091bb08a0c97,A,2024-07-01_10h29.32.247,Slot Machine Game,2023.1.3,Win32,59.17159763,,,,,,,,,,,,,,,,,,,,,,,,,,,,,,,,120,,,,,,,,,,,,,,,,8,7,,,1004.8276,2,left,0.3505,,0.5,0.3,"[1,3,2]",0.1932069,stimuli/card_10_transparent.png,10,2,0,2,0,1,,,,,,,,,,
,,,,6310a8e72d2a091bb08a0c97,A,2024-07-01_10h29.32.247,Slot Machine Game,2023.1.3,Win32,59.17159763,,,,,,,,,,,,,,,,,,,,,,,,,,,,,,,,220,,,,,,,,,,,,,,,,8,7,,,1006.4943,3,left,0.623,,0.5,0.3,"[1,3,2]",0.587448702,stimuli/card_100_transparent.png,100,3,0,3,0,1,,,,,,,,,,
,,,,6310a8e72d2a091bb08a0c97,A,2024-07-01_10h29.32.247,Slot Machine Game,2023.1.3,Win32,59.17159763,,,,,,,,,,,,,,,,,,,,,,,,,,,,,,,,320,,,,,,,,,,,,,,,,8,7,,,1008.4446,4,left,2.5509,,1.5,0.3,"[1,3,2]",0.701996774,stimuli/card_100_transparent.png,100,4,0,4,0,1,,,,,,,,,,
,,,,6310a8e72d2a091bb08a0c97,A,2024-07-01_10h29.32.247,Slot Machine Game,2023.1.3,Win32,59.17159763,,,,,,,,,,,,,,,,,,,,,,,,,,,,,,,,420,,,,,,,,,,,,,,,,8,7,,,1013.334,5,left,1.4837,,0.5,0.3,"[1,3,2]",0.92462529,stimuli/card_100_transparent.png,100,5,0,5,0,1,,,,,,,,,,
,,,,6310a8e72d2a091bb08a0c97,A,2024-07-01_10h29.32.247,Slot Machine Game,2023.1.3,Win32,59.17159763,,,,,,,,,,,,,,,,,,,,,,,,,,,,,,,,520,,,,,,,,,,,,,,,,8,7,,,1016.1443,6,left,0.7735,,1.5,0.3,"[1,3,2]",0.202777761,stimuli/card_100_transparent.png,100,6,0,6,0,1,,,,,,,,,,
,,,,6310a8e72d2a091bb08a0c97,A,2024-07-01_10h29.32.247,Slot Machine Game,2023.1.3,Win32,59.17159763,,,,,,,,,,,,,,,,,,,,,,,,,,,,,,,,620,,,,,,,,,,,,,,,,8,7,,,1019.2278,7,left,0.49,,1,0.3,"[1,3,2]",0.427755571,stimuli/card_100_transparent.png,100,7,0,7,0,1,,,,,,,,,,
,,,,6310a8e72d2a091bb08a0c97,A,2024-07-01_10h29.32.247,Slot Machine Game,2023.1.3,Win32,59.17159763,,,,,,,,,,,,,,,,,,,,,,,,,,,,,,,,720,,,,,,,,,,,,,,,,8,7,,,1021.545,8,left,1.0843,,1.5,0.3,"[1,3,2]",0.492792573,stimuli/card_100_transparent.png,100,8,0,8,0,1,,,,,,,,,,
,,,,6310a8e72d2a091bb08a0c97,A,2024-07-01_10h29.32.247,Slot Machine Game,2023.1.3,Win32,59.17159763,,,,,,,,,,,,,,,,,,,,,,,,,,,,,,,,730,,,,,,,,,,,,,,,,8,7,,,1024.9608,9,left,0.1732,,1.5,0.3,"[2,3,1]",0.234722365,stimuli/card_10_transparent.png,10,9,0,9,0,1,,,,,,,,,,
,,,,6310a8e72d2a091bb08a0c97,A,2024-07-01_10h29.32.247,Slot Machine Game,2023.1.3,Win32,59.17159763,,,,,,,,,,,,,,,,,,,,,,,,,,,,,,,,730,,,,,,,,,,,,,,,,8,7,,,1027.4441,10,left,0.0575,,0.5,0.3,"[2,3,1]",0.089733051,stimuli/card_0_transparent.png,0,10,0,10,0,1,,,,,,,,,,
,,,,6310a8e72d2a091bb08a0c97,A,2024-07-01_10h29.32.247,Slot Machine Game,2023.1.3,Win32,59.17159763,,,,,,,,,,,,,,,,,,,,,,,,,,,,,,,,730,,,,,,,,,,,,,,,,8,7,,,1028.8275,11,up,0.3536,,1,0.3,"[2,3,1]",0.488967773,stimuli/card_0_transparent.png,0,11,0,11,0,1,,,,,,,,,,
,,,,6310a8e72d2a091bb08a0c97,A,2024-07-01_10h29.32.247,Slot Machine Game,2023.1.3,Win32,59.17159763,,,,,,,,,,,,,,,,,,,,,,,,,,,,,,,,730,,,,,,,,,,,,,,,,8,7,,,1031.0111,12,right,0.1711,,0.5,0.3,"[2,3,1]",0.094873603,stimuli/card_0_transparent.png,0,12,0,12,0,1,,,,,,,,,,
,,,,6310a8e72d2a091bb08a0c97,A,2024-07-01_10h29.32.247,Slot Machine Game,2023.1.3,Win32,59.17159763,,,,,,,,,,,,,,,,,,,,,,,,,,,,,,,,740,,,,,,,,,,,,,,,,8,7,,,1032.5107,13,left,0.3345,,1,0.3,"[2,3,1]",0.301204328,stimuli/card_10_transparent.png,10,13,0,13,0,1,,,,,,,,,,
,,,,6310a8e72d2a091bb08a0c97,A,2024-07-01_10h29.32.247,Slot Machine Game,2023.1.3,Win32,59.17159763,,,,,,,,,,,,,,,,,,,,,,,,,,,,,,,,750,,,,,,,,,,,,,,,,8,7,,,1034.6777,14,left,0.1363,,1.5,0.3,"[2,3,1]",0.309451068,stimuli/card_10_transparent.png,10,14,0,14,0,1,,,,,,,,,,
,,,,6310a8e72d2a091bb08a0c97,A,2024-07-01_10h29.32.247,Slot Machine Game,2023.1.3,Win32,59.17159763,,,,,,,,,,,,,,,,,,,,,,,,,,,,,,,,,,,1037.1441,,,,,,,,,,,,,,,,,,,,,,,,,,,,,,,,,"[1500,290,820,140,550,850,830,750]",7,0,7,0,1,,,,
,,,,6310a8e72d2a091bb08a0c97,A,2024-07-01_10h29.32.247,Slot Machine Game,2023.1.3,Win32,59.17159763,,,,,,,,,,,,,,,,,,,,,,,,,,,,,,,,100,,,,,,,,,,,,,,,,9,9,[15],"[[3,1,2]]",1042.1584,0,up,0.2345,,0.5,0.3,"[3,1,2]",0.953875298,stimuli/card_100_transparent.png,100,0,0,0,0,1,,,,,,,,,,
,,,,6310a8e72d2a091bb08a0c97,A,2024-07-01_10h29.32.247,Slot Machine Game,2023.1.3,Win32,59.17159763,,,,,,,,,,,,,,,,,,,,,,,,,,,,,,,,,,,,,,,,,,,,,,,,9,9,,,1043.6942,1,,,,1.5,0.3,,,,,1,0,1,0,1,,,,,,,,,,
,,,,6310a8e72d2a091bb08a0c97,A,2024-07-01_10h29.32.247,Slot Machine Game,2023.1.3,Win32,59.17159763,,,,,,,,,,,,,,,,,,,,,,,,,,,,,,,,,,,,,,,,,,,,,,,,9,9,,,1049.2147,2,,,,1.5,0.3,,,,,2,0,2,0,1,,,,,,,,,,
,,,,6310a8e72d2a091bb08a0c97,A,2024-07-01_10h29.32.247,Slot Machine Game,2023.1.3,Win32,59.17159763,,,,,,,,,,,,,,,,,,,,,,,,,,,,,,,,,,,,,,,,,,,,,,,,9,9,,,1054.728,3,,,,0.5,0.3,,,,,3,0,3,0,1,,,,,,,,,,
,,,,6310a8e72d2a091bb08a0c97,A,2024-07-01_10h29.32.247,Slot Machine Game,2023.1.3,Win32,59.17159763,,,,,,,,,,,,,,,,,,,,,,,,,,,,,,,,110,,,,,,,,,,,,,,,,9,9,,,1182.7766,4,right,2.2045,,1.5,0.3,"[3,1,2]",0.47969863,stimuli/card_10_transparent.png,10,4,0,4,0,1,,,,,,,,,,
,,,,6310a8e72d2a091bb08a0c97,A,2024-07-01_10h29.32.247,Slot Machine Game,2023.1.3,Win32,59.17159763,,,,,,,,,,,,,,,,,,,,,,,,,,,,,,,,210,,,,,,,,,,,,,,,,9,9,,,1187.2941,5,right,0.5355,,0.5,0.3,"[3,1,2]",0.180056467,stimuli/card_100_transparent.png,100,5,0,5,0,1,,,,,,,,,,
,,,,6310a8e72d2a091bb08a0c97,A,2024-07-01_10h29.32.247,Slot Machine Game,2023.1.3,Win32,59.17159763,,,,,,,,,,,,,,,,,,,,,,,,,,,,,,,,310,,,,,,,,,,,,,,,,9,9,,,1189.1607,6,up,1.3335,,1.5,0.3,"[3,1,2]",0.931813984,stimuli/card_100_transparent.png,100,6,0,6,0,1,,,,,,,,,,
,,,,6310a8e72d2a091bb08a0c97,A,2024-07-01_10h29.32.247,Slot Machine Game,2023.1.3,Win32,59.17159763,,,,,,,,,,,,,,,,,,,,,,,,,,,,,,,,410,,,,,,,,,,,,,,,,9,9,,,1192.8271,7,up,0.4197,,0.5,0.3,"[3,1,2]",0.724633227,stimuli/card_100_transparent.png,100,7,0,7,0,1,,,,,,,,,,
,,,,6310a8e72d2a091bb08a0c97,A,2024-07-01_10h29.32.247,Slot Machine Game,2023.1.3,Win32,59.17159763,,,,,,,,,,,,,,,,,,,,,,,,,,,,,,,,510,,,,,,,,,,,,,,,,9,9,,,1194.577,8,up,0.2684,,0.5,0.3,"[3,1,2]",0.282684551,stimuli/card_100_transparent.png,100,8,0,8,0,1,,,,,,,,,,
,,,,6310a8e72d2a091bb08a0c97,A,2024-07-01_10h29.32.247,Slot Machine Game,2023.1.3,Win32,59.17159763,,,,,,,,,,,,,,,,,,,,,,,,,,,,,,,,610,,,,,,,,,,,,,,,,9,9,,,1196.1608,9,up,0.2851,,1,0.3,"[3,1,2]",0.900726051,stimuli/card_100_transparent.png,100,9,0,9,0,1,,,,,,,,,,
,,,,6310a8e72d2a091bb08a0c97,A,2024-07-01_10h29.32.247,Slot Machine Game,2023.1.3,Win32,59.17159763,,,,,,,,,,,,,,,,,,,,,,,,,,,,,,,,620,,,,,,,,,,,,,,,,9,9,,,1198.2609,10,up,0.8165,,1.5,0.3,"[3,1,2]",0.192724598,stimuli/card_10_transparent.png,10,10,0,10,0,1,,,,,,,,,,
,,,,6310a8e72d2a091bb08a0c97,A,2024-07-01_10h29.32.247,Slot Machine Game,2023.1.3,Win32,59.17159763,,,,,,,,,,,,,,,,,,,,,,,,,,,,,,,,720,,,,,,,,,,,,,,,,9,9,,,1201.4104,11,up,0.4001,,0.5,0.3,"[3,1,2]",0.817816243,stimuli/card_100_transparent.png,100,11,0,11,0,1,,,,,,,,,,
,,,,6310a8e72d2a091bb08a0c97,A,2024-07-01_10h29.32.247,Slot Machine Game,2023.1.3,Win32,59.17159763,,,,,,,,,,,,,,,,,,,,,,,,,,,,,,,,820,,,,,,,,,,,,,,,,9,9,,,1203.1271,12,up,0.2091,,1,0.3,"[3,1,2]",0.758649991,stimuli/card_100_transparent.png,100,12,0,12,0,1,,,,,,,,,,
,,,,6310a8e72d2a091bb08a0c97,A,2024-07-01_10h29.32.247,Slot Machine Game,2023.1.3,Win32,59.17159763,,,,,,,,,,,,,,,,,,,,,,,,,,,,,,,,920,,,,,,,,,,,,,,,,9,9,,,1205.1602,13,up,0.221,,1.5,0.3,"[3,1,2]",0.975527973,stimuli/card_100_transparent.png,100,13,0,13,0,1,,,,,,,,,,
,,,,6310a8e72d2a091bb08a0c97,A,2024-07-01_10h29.32.247,Slot Machine Game,2023.1.3,Win32,59.17159763,,,,,,,,,,,,,,,,,,,,,,,,,,,,,,,,1020,,,,,,,,,,,,,,,,9,9,,,1207.6938,14,up,0.455,,1.5,0.3,"[3,1,2]",0.228737372,stimuli/card_100_transparent.png,100,14,0,14,0,1,,,,,,,,,,
,,,,6310a8e72d2a091bb08a0c97,A,2024-07-01_10h29.32.247,Slot Machine Game,2023.1.3,Win32,59.17159763,,,,,,,,,,,,,,,,,,,,,,,,,,,,,,,,,,,1210.4774,,,,,,,,,,,,,,,,,,,,,,,,,,,,,,,,,"[1500,290,820,140,550,850,830,750,1020]",8,0,8,0,1,,,,
,,,,6310a8e72d2a091bb08a0c97,A,2024-07-01_10h29.32.247,Slot Machine Game,2023.1.3,Win32,59.17159763,,,,,,,,,,,,,,,,,,,,,,,,,,,,,,,,,,,,,,,,,,,,,,,,10,6,"[4,10,15]","[[2,3,1],[1,3,2],[3,2,1]]",1215.493,0,,,,1,0.3,,,,,0,0,0,0,1,,,,,,,,,,
,,,,6310a8e72d2a091bb08a0c97,A,2024-07-01_10h29.32.247,Slot Machine Game,2023.1.3,Win32,59.17159763,,,,,,,,,,,,,,,,,,,,,,,,,,,,,,,,,,,,,,,,,,,,,,,,10,6,,,1220.9976,1,,,,1,0.3,,,,,1,0,1,0,1,,,,,,,,,,
,,,,6310a8e72d2a091bb08a0c97,A,2024-07-01_10h29.32.247,Slot Machine Game,2023.1.3,Win32,59.17159763,,,,,,,,,,,,,,,,,,,,,,,,,,,,,,,,,,,,,,,,,,,,,,,,10,6,,,1226.5109,2,,,,1.5,0.3,,,,,2,0,2,0,1,,,,,,,,,,
,,,,6310a8e72d2a091bb08a0c97,A,2024-07-01_10h29.32.247,Slot Machine Game,2023.1.3,Win32,59.17159763,,,,,,,,,,,,,,,,,,,,,,,,,,,,,,,,,,,,,,,,,,,,,,,,10,6,,,1232.0283,3,,,,1,0.3,,,,,3,0,3,0,1,,,,,,,,,,
,,,,6310a8e72d2a091bb08a0c97,A,2024-07-01_10h29.32.247,Slot Machine Game,2023.1.3,Win32,59.17159763,,,,,,,,,,,,,,,,,,,,,,,,,,,,,,,,,,,,,,,,,,,,,,,,10,6,,,1237.544,4,,,,0.5,0.3,,,,,4,0,4,0,1,,,,,,,,,,
,,,,6310a8e72d2a091bb08a0c97,A,2024-07-01_10h29.32.247,Slot Machine Game,2023.1.3,Win32,59.17159763,,,,,,,,,,,,,,,,,,,,,,,,,,,,,,,,,,,,,,,,,,,,,,,,10,6,,,1243.0609,5,,,,1.5,0.3,,,,,5,0,5,0,1,,,,,,,,,,
,,,,6310a8e72d2a091bb08a0c97,A,2024-07-01_10h29.32.247,Slot Machine Game,2023.1.3,Win32,59.17159763,,,,,,,,,,,,,,,,,,,,,,,,,,,,,,,,,,,,,,,,,,,,,,,,10,6,,,1248.5771,6,,,,0.5,0.3,,,,,6,0,6,0,1,,,,,,,,,,
,,,,6310a8e72d2a091bb08a0c97,A,2024-07-01_10h29.32.247,Slot Machine Game,2023.1.3,Win32,59.17159763,,,,,,,,,,,,,,,,,,,,,,,,,,,,,,,,,,,,,,,,,,,,,,,,10,6,,,1254.0939,7,,,,0.5,0.3,,,,,7,0,7,0,1,,,,,,,,,,
,,,,6310a8e72d2a091bb08a0c97,A,2024-07-01_10h29.32.247,Slot Machine Game,2023.1.3,Win32,59.17159763,,,,,,,,,,,,,,,,,,,,,,,,,,,,,,,,,,,,,,,,,,,,,,,,10,6,,,1259.6103,8,,,,1.5,0.3,,,,,8,0,8,0,1,,,,,,,,,,
,,,,6310a8e72d2a091bb08a0c97,A,2024-07-01_10h29.32.247,Slot Machine Game,2023.1.3,Win32,59.17159763,,,,,,,,,,,,,,,,,,,,,,,,,,,,,,,,,,,,,,,,,,,,,,,,10,6,,,1265.1275,9,,,,1,0.3,,,,,9,0,9,0,1,,,,,,,,,,
,,,,6310a8e72d2a091bb08a0c97,A,2024-07-01_10h29.32.247,Slot Machine Game,2023.1.3,Win32,59.17159763,,,,,,,,,,,,,,,,,,,,,,,,,,,,,,,,,,,,,,,,,,,,,,,,10,6,,,1270.6437,10,,,,1,0.3,,,,,10,0,10,0,1,,,,,,,,,,
,,,,6310a8e72d2a091bb08a0c97,A,2024-07-01_10h29.32.247,Slot Machine Game,2023.1.3,Win32,59.17159763,,,,,,,,,,,,,,,,,,,,,,,,,,,,,,,,,,,,,,,,,,,,,,,,10,6,,,1276.1609,11,,,,1,0.3,,,,,11,0,11,0,1,,,,,,,,,,
,,,,6310a8e72d2a091bb08a0c97,A,2024-07-01_10h29.32.247,Slot Machine Game,2023.1.3,Win32,59.17159763,,,,,,,,,,,,,,,,,,,,,,,,,,,,,,,,,,,,,,,,,,,,,,,,10,6,,,1281.6775,12,,,,1.5,0.3,,,,,12,0,12,0,1,,,,,,,,,,
,,,,6310a8e72d2a091bb08a0c97,A,2024-07-01_10h29.32.247,Slot Machine Game,2023.1.3,Win32,59.17159763,,,,,,,,,,,,,,,,,,,,,,,,,,,,,,,,,,,,,,,,,,,,,,,,10,6,,,1287.194,13,,,,0.5,0.3,,,,,13,0,13,0,1,,,,,,,,,,
,,,,6310a8e72d2a091bb08a0c97,A,2024-07-01_10h29.32.247,Slot Machine Game,2023.1.3,Win32,59.17159763,,,,,,,,,,,,,,,,,,,,,,,,,,,,,,,,,,,,,,,,,,,,,,,,10,6,,,1292.7103,14,,,,1.5,0.3,,,,,14,0,14,0,1,,,,,,,,,,
,,,,6310a8e72d2a091bb08a0c97,A,2024-07-01_10h29.32.247,Slot Machine Game,2023.1.3,Win32,59.17159763,,,,,,,,,,,,,,,,,,,,,,,,,,,,,,,,,,,1298.2269,,,,,,,,,,,,,,,,,,,,,,,,,,,,,,,,,"[1500,290,820,140,550,850,830,750,1020,0]",9,0,9,0,1,,,,
,,,,6310a8e72d2a091bb08a0c97,A,2024-07-01_10h29.32.247,Slot Machine Game,2023.1.3,Win32,59.17159763,,,,,,,,,,,,,,,,,,,,,,,,,,,,,,,,,,,,,,,,,,,,,,,,,,,,,,,,,,,,,,,,,,,,,,,,,,9,"[1500,290,820,140,550,850,830,750,1020,0]",8.3,2024-07-01_10h51.19.735
