key_resp_welcome_started,key_resp_welcome_keys,key_resp_welcome_rt,key_resp_welcome_duration,prolific_id,path_id,date,expName,psychopyVersion,OS,frameRate,key_resp_instruction1_started,key_resp_instruction1_keys,key_resp_instruction1_rt,key_resp_instruction1_duration,key_resp_instruction2_started,key_resp_instruction2_keys,key_resp_instruction2_rt,key_resp_instruction2_duration,key_resp_instruction3_started,key_resp_instruction3_keys,key_resp_instruction3_rt,key_resp_instruction3_duration,key_resp_instruction4_started,key_resp_instruction4_keys,key_resp_instruction4_rt,key_resp_instruction4_duration,practiceCondition,practice_reward_seqs,practice_trial_started,practice_trial_num,practice_resp_rt,practice_resp_duration,practice_resp_keys,prac_presentationInterval,"practice_reward_seq: 2,1,3",reward_img,cumulative_reward,trial_reward,practice_trials.thisRepN,practice_trials.thisTrialN,practice_trials.thisN,practice_trials.thisIndex,practice_trials.ran,"practice_reward_seq: 2,3,1",block_break_started,"practice_reward_seq: 1,3,2","practice_reward_seq: 3,1,2",practice_end_time,practice_end_keys,practice_end_rt,practice_end_duration,main_instruction_text_started,block_condition,block_order_indices,main_instruction_keys,main_instruction_rt,main_instruction_duration,block_number,block_assignment,current_condition,main_reward_seqs,main_trial_started,main_trial_num,main_trial_keys,main_trial_rt,main_trial_duration,main_presentationInterval,reward_presentation_time,main_reward_seq,reward_rand_val,main_reward_img,current_reward,main_trials.thisRepN,main_trials.thisTrialN,main_trials.thisN,main_trials.thisIndex,main_trials.ran,block_reward,block.thisRepN,block.thisTrialN,block.thisN,block.thisIndex,block.ran,block_reward.length,block_reward_all,reward_amount,date_end_task
0.0006,space,3.8447,,6312bdcf64c0abf681b89dd5,B,2024-06-21_17h05.22.270,Slot Machine Game,2023.1.3,Win32,59.88023952,,,,,,,,,,,,,,,,,,,,,,,,,,,,,,,,,,,,,,,,,,,,,,,,,,,,,,,,,,,,,,,,,,,,,,,,,,,,,
,,,,6312bdcf64c0abf681b89dd5,B,2024-06-21_17h05.22.270,Slot Machine Game,2023.1.3,Win32,59.88023952,3.8611,space,9.8731,,,,,,,,,,,,,,,,,,,,,,,,,,,,,,,,,,,,,,,,,,,,,,,,,,,,,,,,,,,,,,,,,,,,,,,,,,
,,,,6312bdcf64c0abf681b89dd5,B,2024-06-21_17h05.22.270,Slot Machine Game,2023.1.3,Win32,59.88023952,,,,,13.7466,space,26.0954,,,,,,,,,,,,,,,,,,,,,,,,,,,,,,,,,,,,,,,,,,,,,,,,,,,,,,,,,,,,,,,,,,,,,,
,,,,6312bdcf64c0abf681b89dd5,B,2024-06-21_17h05.22.270,Slot Machine Game,2023.1.3,Win32,59.88023952,,,,,,,,,39.8607,space,8.6356,,,,,,,,,,,,,,,,,,,,,,,,,,,,,,,,,,,,,,,,,,,,,,,,,,,,,,,,,,,,,,,,,,
,,,,6312bdcf64c0abf681b89dd5,B,2024-06-21_17h05.22.270,Slot Machine Game,2023.1.3,Win32,59.88023952,,,,,,,,,,,,,,,,,,,,,,,,,,,,,,,,,,,,,,,,,,,,,,,,,,,,,,,,,,,,,,,,,,,,,,,,,,,,,
,,,,6312bdcf64c0abf681b89dd5,B,2024-06-21_17h05.22.270,Slot Machine Game,2023.1.3,Win32,59.88023952,,,,,,,,,,,,,190.2115,space,4.1169,,,,,,,,,,,,,,,,,,,,,,,,,,,,,,,,,,,,,,,,,,,,,,,,,,,,,,,,,,,,,,
,,,,6312bdcf64c0abf681b89dd5,B,2024-06-21_17h05.22.270,Slot Machine Game,2023.1.3,Win32,59.88023952,,,,,,,,,,,,,,,,,"[9,15]","[[2,1,3],[2,3,1]]",194.3529,0,2.6016,,left,1.5,,stimuli/card_10_transparent.png,10,10,0,0,0,0,1,,,,,,,,,,,,,,,,,,,,,,,,,,,,,,,,,,,,,,,,,,,,
,,,,6312bdcf64c0abf681b89dd5,B,2024-06-21_17h05.22.270,Slot Machine Game,2023.1.3,Win32,59.88023952,,,,,,,,,,,,,,,,,,,199.281,1,0.6527,,up,1.5,,stimuli/card_100_transparent.png,110,100,1,0,1,0,1,,,,,,,,,,,,,,,,,,,,,,,,,,,,,,,,,,,,,,,,,,,,
,,,,6312bdcf64c0abf681b89dd5,B,2024-06-21_17h05.22.270,Slot Machine Game,2023.1.3,Win32,59.88023952,,,,,,,,,,,,,,,,,,,202.2814,2,0.7505,,up,0.5,,stimuli/card_100_transparent.png,210,100,2,0,2,0,1,,,,,,,,,,,,,,,,,,,,,,,,,,,,,,,,,,,,,,,,,,,,
,,,,6312bdcf64c0abf681b89dd5,B,2024-06-21_17h05.22.270,Slot Machine Game,2023.1.3,Win32,59.88023952,,,,,,,,,,,,,,,,,,,204.36,3,0.0006,,up,0.5,,stimuli/card_100_transparent.png,310,100,3,0,3,0,1,,,,,,,,,,,,,,,,,,,,,,,,,,,,,,,,,,,,,,,,,,,,
,,,,6312bdcf64c0abf681b89dd5,B,2024-06-21_17h05.22.270,Slot Machine Game,2023.1.3,Win32,59.88023952,,,,,,,,,,,,,,,,,,,205.6955,4,0.077,,up,1,,stimuli/card_100_transparent.png,410,100,4,0,4,0,1,,,,,,,,,,,,,,,,,,,,,,,,,,,,,,,,,,,,,,,,,,,,
,,,,6312bdcf64c0abf681b89dd5,B,2024-06-21_17h05.22.270,Slot Machine Game,2023.1.3,Win32,59.88023952,,,,,,,,,,,,,,,,,,,207.5766,5,0.0009,,up,1.5,,stimuli/card_0_transparent.png,410,0,5,0,5,0,1,,,,,,,,,,,,,,,,,,,,,,,,,,,,,,,,,,,,,,,,,,,,
,,,,6312bdcf64c0abf681b89dd5,B,2024-06-21_17h05.22.270,Slot Machine Game,2023.1.3,Win32,59.88023952,,,,,,,,,,,,,,,,,,,209.8932,6,0.3007,,up,1.5,,stimuli/card_100_transparent.png,510,100,6,0,6,0,1,,,,,,,,,,,,,,,,,,,,,,,,,,,,,,,,,,,,,,,,,,,,
,,,,6312bdcf64c0abf681b89dd5,B,2024-06-21_17h05.22.270,Slot Machine Game,2023.1.3,Win32,59.88023952,,,,,,,,,,,,,,,,,,,212.5121,7,0.0009,,up,0.5,,stimuli/card_100_transparent.png,610,100,7,0,7,0,1,,,,,,,,,,,,,,,,,,,,,,,,,,,,,,,,,,,,,,,,,,,,
,,,,6312bdcf64c0abf681b89dd5,B,2024-06-21_17h05.22.270,Slot Machine Game,2023.1.3,Win32,59.88023952,,,,,,,,,,,,,,,,,,,213.8435,8,0.0147,,up,1.5,,stimuli/card_100_transparent.png,710,100,8,0,8,0,1,,,,,,,,,,,,,,,,,,,,,,,,,,,,,,,,,,,,,,,,,,,,
,,,,6312bdcf64c0abf681b89dd5,B,2024-06-21_17h05.22.270,Slot Machine Game,2023.1.3,Win32,59.88023952,,,,,,,,,,,,,,,,,,,216.1934,9,0.7506,,up,1,,stimuli/card_0_transparent.png,710,0,9,0,9,0,1,,,,,,,,,,,,,,,,,,,,,,,,,,,,,,,,,,,,,,,,,,,,
,,,,6312bdcf64c0abf681b89dd5,B,2024-06-21_17h05.22.270,Slot Machine Game,2023.1.3,Win32,59.88023952,,,,,,,,,,,,,,,,,,,218.7602,10,0.0502,,up,1,,stimuli/card_0_transparent.png,710,0,10,0,10,0,1,,,,,,,,,,,,,,,,,,,,,,,,,,,,,,,,,,,,,,,,,,,,
,,,,6312bdcf64c0abf681b89dd5,B,2024-06-21_17h05.22.270,Slot Machine Game,2023.1.3,Win32,59.88023952,,,,,,,,,,,,,,,,,,,220.6433,11,0.1647,,right,1.5,,stimuli/card_100_transparent.png,810,100,11,0,11,0,1,,,,,,,,,,,,,,,,,,,,,,,,,,,,,,,,,,,,,,,,,,,,
,,,,6312bdcf64c0abf681b89dd5,B,2024-06-21_17h05.22.270,Slot Machine Game,2023.1.3,Win32,59.88023952,,,,,,,,,,,,,,,,,,,223.1098,12,0.2309,,right,0.5,,stimuli/card_100_transparent.png,910,100,12,0,12,0,1,,,,,,,,,,,,,,,,,,,,,,,,,,,,,,,,,,,,,,,,,,,,
,,,,6312bdcf64c0abf681b89dd5,B,2024-06-21_17h05.22.270,Slot Machine Game,2023.1.3,Win32,59.88023952,,,,,,,,,,,,,,,,,,,224.6649,13,0.4229,,right,1,,stimuli/card_100_transparent.png,1010,100,13,0,13,0,1,,,,,,,,,,,,,,,,,,,,,,,,,,,,,,,,,,,,,,,,,,,,
,,,,6312bdcf64c0abf681b89dd5,B,2024-06-21_17h05.22.270,Slot Machine Game,2023.1.3,Win32,59.88023952,,,,,,,,,,,,,,,,,,,226.9265,14,0.2996,,right,1.5,,stimuli/card_0_transparent.png,1010,0,14,0,14,0,1,,,,,,,,,,,,,,,,,,,,,,,,,,,,,,,,,,,,,,,,,,,,
,,,,6312bdcf64c0abf681b89dd5,B,2024-06-21_17h05.22.270,Slot Machine Game,2023.1.3,Win32,59.88023952,,,,,,,,,,,,,,,,,"[6,15]","[[1,3,2],[3,1,2]]",234.5671,0,1.3593,,up,1,,stimuli/card_100_transparent.png,100,100,0,0,0,0,1,,229.5561,,,,,,,,,,,,,,,,,,,,,,,,,,,,,,,,,,,,,,,,,,
,,,,6312bdcf64c0abf681b89dd5,B,2024-06-21_17h05.22.270,Slot Machine Game,2023.1.3,Win32,59.88023952,,,,,,,,,,,,,,,,,,,237.7599,1,0.5839,,up,0.5,,stimuli/card_0_transparent.png,100,0,1,0,1,0,1,,,,,,,,,,,,,,,,,,,,,,,,,,,,,,,,,,,,,,,,,,,,
,,,,6312bdcf64c0abf681b89dd5,B,2024-06-21_17h05.22.270,Slot Machine Game,2023.1.3,Win32,59.88023952,,,,,,,,,,,,,,,,,,,239.6765,2,0.0711,,up,1.5,,stimuli/card_0_transparent.png,100,0,2,0,2,0,1,,,,,,,,,,,,,,,,,,,,,,,,,,,,,,,,,,,,,,,,,,,,
,,,,6312bdcf64c0abf681b89dd5,B,2024-06-21_17h05.22.270,Slot Machine Game,2023.1.3,Win32,59.88023952,,,,,,,,,,,,,,,,,,,242.0934,3,0.677,,left,0.5,,stimuli/card_100_transparent.png,200,100,3,0,3,0,1,,,,,,,,,,,,,,,,,,,,,,,,,,,,,,,,,,,,,,,,,,,,
,,,,6312bdcf64c0abf681b89dd5,B,2024-06-21_17h05.22.270,Slot Machine Game,2023.1.3,Win32,59.88023952,,,,,,,,,,,,,,,,,,,244.0765,4,0.068,,left,1,,stimuli/card_100_transparent.png,300,100,4,0,4,0,1,,,,,,,,,,,,,,,,,,,,,,,,,,,,,,,,,,,,,,,,,,,,
,,,,6312bdcf64c0abf681b89dd5,B,2024-06-21_17h05.22.270,Slot Machine Game,2023.1.3,Win32,59.88023952,,,,,,,,,,,,,,,,,,,245.9782,5,0.4886,,left,0.5,,stimuli/card_100_transparent.png,400,100,5,0,5,0,1,,,,,,,,,,,,,,,,,,,,,,,,,,,,,,,,,,,,,,,,,,,,
,,,,6312bdcf64c0abf681b89dd5,B,2024-06-21_17h05.22.270,Slot Machine Game,2023.1.3,Win32,59.88023952,,,,,,,,,,,,,,,,,,,247.7936,6,0.2602,,left,0.5,,stimuli/card_0_transparent.png,400,0,6,0,6,0,1,,,,,,,,,,,,,,,,,,,,,,,,,,,,,,,,,,,,,,,,,,,,
,,,,6312bdcf64c0abf681b89dd5,B,2024-06-21_17h05.22.270,Slot Machine Game,2023.1.3,Win32,59.88023952,,,,,,,,,,,,,,,,,,,249.3764,7,0.034,,left,0.5,,stimuli/card_0_transparent.png,400,0,7,0,7,0,1,,,,,,,,,,,,,,,,,,,,,,,,,,,,,,,,,,,,,,,,,,,,
,,,,6312bdcf64c0abf681b89dd5,B,2024-06-21_17h05.22.270,Slot Machine Game,2023.1.3,Win32,59.88023952,,,,,,,,,,,,,,,,,,,250.7102,8,0.431,,up,0.5,,stimuli/card_100_transparent.png,500,100,8,0,8,0,1,,,,,,,,,,,,,,,,,,,,,,,,,,,,,,,,,,,,,,,,,,,,
,,,,6312bdcf64c0abf681b89dd5,B,2024-06-21_17h05.22.270,Slot Machine Game,2023.1.3,Win32,59.88023952,,,,,,,,,,,,,,,,,,,252.462,9,0.2993,,up,0.5,,stimuli/card_100_transparent.png,600,100,9,0,9,0,1,,,,,,,,,,,,,,,,,,,,,,,,,,,,,,,,,,,,,,,,,,,,
,,,,6312bdcf64c0abf681b89dd5,B,2024-06-21_17h05.22.270,Slot Machine Game,2023.1.3,Win32,59.88023952,,,,,,,,,,,,,,,,,,,254.0932,10,0.1196,,up,1,,stimuli/card_100_transparent.png,700,100,10,0,10,0,1,,,,,,,,,,,,,,,,,,,,,,,,,,,,,,,,,,,,,,,,,,,,
,,,,6312bdcf64c0abf681b89dd5,B,2024-06-21_17h05.22.270,Slot Machine Game,2023.1.3,Win32,59.88023952,,,,,,,,,,,,,,,,,,,256.0266,11,0.0335,,up,1,,stimuli/card_100_transparent.png,800,100,11,0,11,0,1,,,,,,,,,,,,,,,,,,,,,,,,,,,,,,,,,,,,,,,,,,,,
,,,,6312bdcf64c0abf681b89dd5,B,2024-06-21_17h05.22.270,Slot Machine Game,2023.1.3,Win32,59.88023952,,,,,,,,,,,,,,,,,,,257.8767,12,0.0041,,up,1,,stimuli/card_100_transparent.png,900,100,12,0,12,0,1,,,,,,,,,,,,,,,,,,,,,,,,,,,,,,,,,,,,,,,,,,,,
,,,,6312bdcf64c0abf681b89dd5,B,2024-06-21_17h05.22.270,Slot Machine Game,2023.1.3,Win32,59.88023952,,,,,,,,,,,,,,,,,,,259.6779,13,0.4506,,up,0.5,,stimuli/card_100_transparent.png,1000,100,13,0,13,0,1,,,,,,,,,,,,,,,,,,,,,,,,,,,,,,,,,,,,,,,,,,,,
,,,,6312bdcf64c0abf681b89dd5,B,2024-06-21_17h05.22.270,Slot Machine Game,2023.1.3,Win32,59.88023952,,,,,,,,,,,,,,,,,,,261.4431,14,0.1339,,up,0.5,,stimuli/card_100_transparent.png,1100,100,14,0,14,0,1,,,,,,,,,,,,,,,,,,,,,,,,,,,,,,,,,,,,,,,,,,,,
,,,,6312bdcf64c0abf681b89dd5,B,2024-06-21_17h05.22.270,Slot Machine Game,2023.1.3,Win32,59.88023952,,,,,,,,,,,,,,,,,,,,,,,,,,,,,,,,,,,262.8949,,,267.8942,space,2.7684,,,,,,,,,,,,,,,,,,,,,,,,,,,,,,,,,,,,,
,,,,6312bdcf64c0abf681b89dd5,B,2024-06-21_17h05.22.270,Slot Machine Game,2023.1.3,Win32,59.88023952,,,,,,,,,,,,,,,,,,,,,,,,,,,,,,,,,,,,,,,,,,270.6816,3,"[0,4,6,3,5,7,8,1,9,2]",space,3.3486,,,,,,,,,,,,,,,,,,,,,,,,,,,,,,,
,,,,6312bdcf64c0abf681b89dd5,B,2024-06-21_17h05.22.270,Slot Machine Game,2023.1.3,Win32,59.88023952,,,,,,,,,,,,,,,,,,,,,,,,,,,100,,,,,,,,,,,,,,,,,,,,,1,1,"[12,15]","[[2,1,3],[2,3,1]]",274.0677,0,left,0.2582,,1.5,0.3,"[2,1,3]",0.15041307,stimuli/card_100_transparent.png,100,0,0,0,0,1,,,,,,,,,,
,,,,6312bdcf64c0abf681b89dd5,B,2024-06-21_17h05.22.270,Slot Machine Game,2023.1.3,Win32,59.88023952,,,,,,,,,,,,,,,,,,,,,,,,,,,200,,,,,,,,,,,,,,,,,,,,,1,1,,,276.6433,1,left,0.5781,,0.5,0.3,"[2,1,3]",0.105432884,stimuli/card_100_transparent.png,100,1,0,1,0,1,,,,,,,,,,
,,,,6312bdcf64c0abf681b89dd5,B,2024-06-21_17h05.22.270,Slot Machine Game,2023.1.3,Win32,59.88023952,,,,,,,,,,,,,,,,,,,,,,,,,,,210,,,,,,,,,,,,,,,,,,,,,1,1,,,278.543,2,left,0.284,,1.5,0.3,"[2,1,3]",0.467314342,stimuli/card_10_transparent.png,10,2,0,2,0,1,,,,,,,,,,
,,,,6312bdcf64c0abf681b89dd5,B,2024-06-21_17h05.22.270,Slot Machine Game,2023.1.3,Win32,59.88023952,,,,,,,,,,,,,,,,,,,,,,,,,,,310,,,,,,,,,,,,,,,,,,,,,1,1,,,281.1597,3,up,0.1104,,1.5,0.3,"[2,1,3]",0.634446272,stimuli/card_100_transparent.png,100,3,0,3,0,1,,,,,,,,,,
,,,,6312bdcf64c0abf681b89dd5,B,2024-06-21_17h05.22.270,Slot Machine Game,2023.1.3,Win32,59.88023952,,,,,,,,,,,,,,,,,,,,,,,,,,,410,,,,,,,,,,,,,,,,,,,,,1,1,,,283.5931,4,up,0.0033,,1,0.3,"[2,1,3]",0.87156654,stimuli/card_100_transparent.png,100,4,0,4,0,1,,,,,,,,,,
,,,,6312bdcf64c0abf681b89dd5,B,2024-06-21_17h05.22.270,Slot Machine Game,2023.1.3,Win32,59.88023952,,,,,,,,,,,,,,,,,,,,,,,,,,,510,,,,,,,,,,,,,,,,,,,,,1,1,,,285.4096,5,up,0.3218,,1,0.3,"[2,1,3]",0.751234088,stimuli/card_100_transparent.png,100,5,0,5,0,1,,,,,,,,,,
,,,,6312bdcf64c0abf681b89dd5,B,2024-06-21_17h05.22.270,Slot Machine Game,2023.1.3,Win32,59.88023952,,,,,,,,,,,,,,,,,,,,,,,,,,,610,,,,,,,,,,,,,,,,,,,,,1,1,,,287.5597,6,up,0.0547,,1.5,0.3,"[2,1,3]",0.854382953,stimuli/card_100_transparent.png,100,6,0,6,0,1,,,,,,,,,,
,,,,6312bdcf64c0abf681b89dd5,B,2024-06-21_17h05.22.270,Slot Machine Game,2023.1.3,Win32,59.88023952,,,,,,,,,,,,,,,,,,,,,,,,,,,710,,,,,,,,,,,,,,,,,,,,,1,1,,,289.943,7,up,0.303,,0.5,0.3,"[2,1,3]",0.676211135,stimuli/card_100_transparent.png,100,7,0,7,0,1,,,,,,,,,,
,,,,6312bdcf64c0abf681b89dd5,B,2024-06-21_17h05.22.270,Slot Machine Game,2023.1.3,Win32,59.88023952,,,,,,,,,,,,,,,,,,,,,,,,,,,810,,,,,,,,,,,,,,,,,,,,,1,1,,,291.5764,8,up,0.2769,,1.5,0.3,"[2,1,3]",0.854979941,stimuli/card_100_transparent.png,100,8,0,8,0,1,,,,,,,,,,
,,,,6312bdcf64c0abf681b89dd5,B,2024-06-21_17h05.22.270,Slot Machine Game,2023.1.3,Win32,59.88023952,,,,,,,,,,,,,,,,,,,,,,,,,,,910,,,,,,,,,,,,,,,,,,,,,1,1,,,294.1764,9,up,0.1025,,1.5,0.3,"[2,1,3]",0.631583892,stimuli/card_100_transparent.png,100,9,0,9,0,1,,,,,,,,,,
,,,,6312bdcf64c0abf681b89dd5,B,2024-06-21_17h05.22.270,Slot Machine Game,2023.1.3,Win32,59.88023952,,,,,,,,,,,,,,,,,,,,,,,,,,,1010,,,,,,,,,,,,,,,,,,,,,1,1,,,296.6099,10,up,0.0325,,0.5,0.3,"[2,1,3]",0.837940968,stimuli/card_100_transparent.png,100,10,0,10,0,1,,,,,,,,,,
,,,,6312bdcf64c0abf681b89dd5,B,2024-06-21_17h05.22.270,Slot Machine Game,2023.1.3,Win32,59.88023952,,,,,,,,,,,,,,,,,,,,,,,,,,,1110,,,,,,,,,,,,,,,,,,,,,1,1,,,297.9764,11,up,0.0512,,1,0.3,"[2,1,3]",0.566992189,stimuli/card_100_transparent.png,100,11,0,11,0,1,,,,,,,,,,
,,,,6312bdcf64c0abf681b89dd5,B,2024-06-21_17h05.22.270,Slot Machine Game,2023.1.3,Win32,59.88023952,,,,,,,,,,,,,,,,,,,,,,,,,,,1110,,,,,,,,,,,,,,,,,,,,,1,1,,,299.8596,12,up,0.0412,,0.5,0.3,"[2,3,1]",0.889113961,stimuli/card_0_transparent.png,0,12,0,12,0,1,,,,,,,,,,
,,,,6312bdcf64c0abf681b89dd5,B,2024-06-21_17h05.22.270,Slot Machine Game,2023.1.3,Win32,59.88023952,,,,,,,,,,,,,,,,,,,,,,,,,,,1210,,,,,,,,,,,,,,,,,,,,,1,1,,,301.2268,13,right,0.1033,,1.5,0.3,"[2,3,1]",0.382537529,stimuli/card_100_transparent.png,100,13,0,13,0,1,,,,,,,,,,
,,,,6312bdcf64c0abf681b89dd5,B,2024-06-21_17h05.22.270,Slot Machine Game,2023.1.3,Win32,59.88023952,,,,,,,,,,,,,,,,,,,,,,,,,,,1310,,,,,,,,,,,,,,,,,,,,,1,1,,,303.6598,14,right,0.0534,,0.5,0.3,"[2,3,1]",0.246176399,stimuli/card_100_transparent.png,100,14,0,14,0,1,,,,,,,,,,
,,,,6312bdcf64c0abf681b89dd5,B,2024-06-21_17h05.22.270,Slot Machine Game,2023.1.3,Win32,59.88023952,,,,,,,,,,,,,,,,,,,,,,,,,,,,,,,,,,,305.0431,,,,,,,,,,,,,,,,,,,,,,,,,,,,,,,,,[1310],0,0,0,0,1,,,,
,,,,6312bdcf64c0abf681b89dd5,B,2024-06-21_17h05.22.270,Slot Machine Game,2023.1.3,Win32,59.88023952,,,,,,,,,,,,,,,,,,,,,,,,,,,0,,,,,,,,,,,,,,,,,,,,,2,5,"[5,15]","[[1,2,3],[3,1,2]]",310.0513,0,left,0.1791,,0.5,0.3,"[1,2,3]",0.00764491,stimuli/card_0_transparent.png,0,0,0,0,0,1,,,,,,,,,,
,,,,6312bdcf64c0abf681b89dd5,B,2024-06-21_17h05.22.270,Slot Machine Game,2023.1.3,Win32,59.88023952,,,,,,,,,,,,,,,,,,,,,,,,,,,10,,,,,,,,,,,,,,,,,,,,,2,5,,,311.5429,1,up,0.2475,,1,0.3,"[1,2,3]",0.703006607,stimuli/card_10_transparent.png,10,1,0,1,0,1,,,,,,,,,,
,,,,6312bdcf64c0abf681b89dd5,B,2024-06-21_17h05.22.270,Slot Machine Game,2023.1.3,Win32,59.88023952,,,,,,,,,,,,,,,,,,,,,,,,,,,10,,,,,,,,,,,,,,,,,,,,,2,5,,,313.6097,2,right,0.1534,,1,0.3,"[1,2,3]",0.23014162,stimuli/card_0_transparent.png,0,2,0,2,0,1,,,,,,,,,,
,,,,6312bdcf64c0abf681b89dd5,B,2024-06-21_17h05.22.270,Slot Machine Game,2023.1.3,Win32,59.88023952,,,,,,,,,,,,,,,,,,,,,,,,,,,20,,,,,,,,,,,,,,,,,,,,,2,5,,,315.593,3,up,0.2447,,1,0.3,"[1,2,3]",0.885085507,stimuli/card_10_transparent.png,10,3,0,3,0,1,,,,,,,,,,
,,,,6312bdcf64c0abf681b89dd5,B,2024-06-21_17h05.22.270,Slot Machine Game,2023.1.3,Win32,59.88023952,,,,,,,,,,,,,,,,,,,,,,,,,,,120,,,,,,,,,,,,,,,,,,,,,2,5,,,317.6596,4,left,0.403,,1,0.3,"[1,2,3]",0.457913548,stimuli/card_100_transparent.png,100,4,0,4,0,1,,,,,,,,,,
,,,,6312bdcf64c0abf681b89dd5,B,2024-06-21_17h05.22.270,Slot Machine Game,2023.1.3,Win32,59.88023952,,,,,,,,,,,,,,,,,,,,,,,,,,,120,,,,,,,,,,,,,,,,,,,,,2,5,,,319.8929,5,left,0.0671,,1.5,0.3,"[3,1,2]",0.376905552,stimuli/card_0_transparent.png,0,5,0,5,0,1,,,,,,,,,,
,,,,6312bdcf64c0abf681b89dd5,B,2024-06-21_17h05.22.270,Slot Machine Game,2023.1.3,Win32,59.88023952,,,,,,,,,,,,,,,,,,,,,,,,,,,120,,,,,,,,,,,,,,,,,,,,,2,5,,,322.2765,6,left,0.385,,1,0.3,"[3,1,2]",0.902262559,stimuli/card_0_transparent.png,0,6,0,6,0,1,,,,,,,,,,
,,,,6312bdcf64c0abf681b89dd5,B,2024-06-21_17h05.22.270,Slot Machine Game,2023.1.3,Win32,59.88023952,,,,,,,,,,,,,,,,,,,,,,,,,,,220,,,,,,,,,,,,,,,,,,,,,2,5,,,324.4931,7,up,0.0837,,1,0.3,"[3,1,2]",0.894544183,stimuli/card_100_transparent.png,100,7,0,7,0,1,,,,,,,,,,
,,,,6312bdcf64c0abf681b89dd5,B,2024-06-21_17h05.22.270,Slot Machine Game,2023.1.3,Win32,59.88023952,,,,,,,,,,,,,,,,,,,,,,,,,,,230,,,,,,,,,,,,,,,,,,,,,2,5,,,326.4095,8,up,0.2858,,1,0.3,"[3,1,2]",0.167613336,stimuli/card_10_transparent.png,10,8,0,8,0,1,,,,,,,,,,
,,,,6312bdcf64c0abf681b89dd5,B,2024-06-21_17h05.22.270,Slot Machine Game,2023.1.3,Win32,59.88023952,,,,,,,,,,,,,,,,,,,,,,,,,,,330,,,,,,,,,,,,,,,,,,,,,2,5,,,328.5267,9,up,0.2937,,1,0.3,"[3,1,2]",0.958469912,stimuli/card_100_transparent.png,100,9,0,9,0,1,,,,,,,,,,
,,,,6312bdcf64c0abf681b89dd5,B,2024-06-21_17h05.22.270,Slot Machine Game,2023.1.3,Win32,59.88023952,,,,,,,,,,,,,,,,,,,,,,,,,,,430,,,,,,,,,,,,,,,,,,,,,2,5,,,330.643,10,up,0.3067,,1.5,0.3,"[3,1,2]",0.293312822,stimuli/card_100_transparent.png,100,10,0,10,0,1,,,,,,,,,,
,,,,6312bdcf64c0abf681b89dd5,B,2024-06-21_17h05.22.270,Slot Machine Game,2023.1.3,Win32,59.88023952,,,,,,,,,,,,,,,,,,,,,,,,,,,430,,,,,,,,,,,,,,,,,,,,,2,5,,,333.2761,11,up,0.6196,,0.5,0.3,"[3,1,2]",0.070067331,stimuli/card_0_transparent.png,0,11,0,11,0,1,,,,,,,,,,
,,,,6312bdcf64c0abf681b89dd5,B,2024-06-21_17h05.22.270,Slot Machine Game,2023.1.3,Win32,59.88023952,,,,,,,,,,,,,,,,,,,,,,,,,,,530,,,,,,,,,,,,,,,,,,,,,2,5,,,335.2262,12,right,0.7077,,1,0.3,"[3,1,2]",0.107387821,stimuli/card_100_transparent.png,100,12,0,12,0,1,,,,,,,,,,
,,,,6312bdcf64c0abf681b89dd5,B,2024-06-21_17h05.22.270,Slot Machine Game,2023.1.3,Win32,59.88023952,,,,,,,,,,,,,,,,,,,,,,,,,,,540,,,,,,,,,,,,,,,,,,,,,2,5,,,337.7428,13,right,0.1007,,0.5,0.3,"[3,1,2]",0.540957055,stimuli/card_10_transparent.png,10,13,0,13,0,1,,,,,,,,,,
,,,,6312bdcf64c0abf681b89dd5,B,2024-06-21_17h05.22.270,Slot Machine Game,2023.1.3,Win32,59.88023952,,,,,,,,,,,,,,,,,,,,,,,,,,,550,,,,,,,,,,,,,,,,,,,,,2,5,,,339.1598,14,right,0.0274,,0.5,0.3,"[3,1,2]",0.800577436,stimuli/card_10_transparent.png,10,14,0,14,0,1,,,,,,,,,,
,,,,6312bdcf64c0abf681b89dd5,B,2024-06-21_17h05.22.270,Slot Machine Game,2023.1.3,Win32,59.88023952,,,,,,,,,,,,,,,,,,,,,,,,,,,,,,,,,,,340.5097,,,,,,,,,,,,,,,,,,,,,,,,,,,,,,,,,"[1310,550]",1,0,1,0,1,,,,
,,,,6312bdcf64c0abf681b89dd5,B,2024-06-21_17h05.22.270,Slot Machine Game,2023.1.3,Win32,59.88023952,,,,,,,,,,,,,,,,,,,,,,,,,,,100,,,,,,,,,,,,,,,,,,,,,3,7,"[9,15]","[[1,3,2],[2,3,1]]",345.5278,0,left,0.0709,,1,0.3,"[1,3,2]",0.323031911,stimuli/card_100_transparent.png,100,0,0,0,0,1,,,,,,,,,,
,,,,6312bdcf64c0abf681b89dd5,B,2024-06-21_17h05.22.270,Slot Machine Game,2023.1.3,Win32,59.88023952,,,,,,,,,,,,,,,,,,,,,,,,,,,200,,,,,,,,,,,,,,,,,,,,,3,7,,,347.4263,1,left,0.0984,,1,0.3,"[1,3,2]",0.402122448,stimuli/card_100_transparent.png,100,1,0,1,0,1,,,,,,,,,,
,,,,6312bdcf64c0abf681b89dd5,B,2024-06-21_17h05.22.270,Slot Machine Game,2023.1.3,Win32,59.88023952,,,,,,,,,,,,,,,,,,,,,,,,,,,300,,,,,,,,,,,,,,,,,,,,,3,7,,,349.3428,2,left,0.0005,,1,0.3,"[1,3,2]",0.762786866,stimuli/card_100_transparent.png,100,2,0,2,0,1,,,,,,,,,,
,,,,6312bdcf64c0abf681b89dd5,B,2024-06-21_17h05.22.270,Slot Machine Game,2023.1.3,Win32,59.88023952,,,,,,,,,,,,,,,,,,,,,,,,,,,400,,,,,,,,,,,,,,,,,,,,,3,7,,,351.1762,3,left,0.4099,,1,0.3,"[1,3,2]",0.375693176,stimuli/card_100_transparent.png,100,3,0,3,0,1,,,,,,,,,,
,,,,6312bdcf64c0abf681b89dd5,B,2024-06-21_17h05.22.270,Slot Machine Game,2023.1.3,Win32,59.88023952,,,,,,,,,,,,,,,,,,,,,,,,,,,500,,,,,,,,,,,,,,,,,,,,,3,7,,,353.3929,4,left,0.0861,,0.5,0.3,"[1,3,2]",0.36724522,stimuli/card_100_transparent.png,100,4,0,4,0,1,,,,,,,,,,
,,,,6312bdcf64c0abf681b89dd5,B,2024-06-21_17h05.22.270,Slot Machine Game,2023.1.3,Win32,59.88023952,,,,,,,,,,,,,,,,,,,,,,,,,,,600,,,,,,,,,,,,,,,,,,,,,3,7,,,354.8098,5,left,0.167,,1,0.3,"[1,3,2]",0.365961008,stimuli/card_100_transparent.png,100,5,0,5,0,1,,,,,,,,,,
,,,,6312bdcf64c0abf681b89dd5,B,2024-06-21_17h05.22.270,Slot Machine Game,2023.1.3,Win32,59.88023952,,,,,,,,,,,,,,,,,,,,,,,,,,,700,,,,,,,,,,,,,,,,,,,,,3,7,,,356.8096,6,left,0.7159,,1,0.3,"[1,3,2]",0.571491762,stimuli/card_100_transparent.png,100,6,0,6,0,1,,,,,,,,,,
,,,,6312bdcf64c0abf681b89dd5,B,2024-06-21_17h05.22.270,Slot Machine Game,2023.1.3,Win32,59.88023952,,,,,,,,,,,,,,,,,,,,,,,,,,,800,,,,,,,,,,,,,,,,,,,,,3,7,,,359.3595,7,left,0.3014,,0.5,0.3,"[1,3,2]",0.209751792,stimuli/card_100_transparent.png,100,7,0,7,0,1,,,,,,,,,,
,,,,6312bdcf64c0abf681b89dd5,B,2024-06-21_17h05.22.270,Slot Machine Game,2023.1.3,Win32,59.88023952,,,,,,,,,,,,,,,,,,,,,,,,,,,900,,,,,,,,,,,,,,,,,,,,,3,7,,,360.9928,8,left,0.1419,,0.5,0.3,"[1,3,2]",0.913488812,stimuli/card_100_transparent.png,100,8,0,8,0,1,,,,,,,,,,
,,,,6312bdcf64c0abf681b89dd5,B,2024-06-21_17h05.22.270,Slot Machine Game,2023.1.3,Win32,59.88023952,,,,,,,,,,,,,,,,,,,,,,,,,,,910,,,,,,,,,,,,,,,,,,,,,3,7,,,362.4598,9,left,0.1688,,0.5,0.3,"[2,3,1]",0.265243518,stimuli/card_10_transparent.png,10,9,0,9,0,1,,,,,,,,,,
,,,,6312bdcf64c0abf681b89dd5,B,2024-06-21_17h05.22.270,Slot Machine Game,2023.1.3,Win32,59.88023952,,,,,,,,,,,,,,,,,,,,,,,,,,,1010,,,,,,,,,,,,,,,,,,,,,3,7,,,363.9595,10,right,0.7036,,1,0.3,"[2,3,1]",0.689948011,stimuli/card_100_transparent.png,100,10,0,10,0,1,,,,,,,,,,
,,,,6312bdcf64c0abf681b89dd5,B,2024-06-21_17h05.22.270,Slot Machine Game,2023.1.3,Win32,59.88023952,,,,,,,,,,,,,,,,,,,,,,,,,,,1010,,,,,,,,,,,,,,,,,,,,,3,7,,,366.493,11,right,0.0473,,0.5,0.3,"[2,3,1]",0.028452224,stimuli/card_0_transparent.png,0,11,0,11,0,1,,,,,,,,,,
,,,,6312bdcf64c0abf681b89dd5,B,2024-06-21_17h05.22.270,Slot Machine Game,2023.1.3,Win32,59.88023952,,,,,,,,,,,,,,,,,,,,,,,,,,,1010,,,,,,,,,,,,,,,,,,,,,3,7,,,367.8597,12,up,0.2373,,1.5,0.3,"[2,3,1]",0.261023477,stimuli/card_0_transparent.png,0,12,0,12,0,1,,,,,,,,,,
,,,,6312bdcf64c0abf681b89dd5,B,2024-06-21_17h05.22.270,Slot Machine Game,2023.1.3,Win32,59.88023952,,,,,,,,,,,,,,,,,,,,,,,,,,,1020,,,,,,,,,,,,,,,,,,,,,3,7,,,370.4262,13,left,0.1099,,1.5,0.3,"[2,3,1]",0.394171306,stimuli/card_10_transparent.png,10,13,0,13,0,1,,,,,,,,,,
,,,,6312bdcf64c0abf681b89dd5,B,2024-06-21_17h05.22.270,Slot Machine Game,2023.1.3,Win32,59.88023952,,,,,,,,,,,,,,,,,,,,,,,,,,,1120,,,,,,,,,,,,,,,,,,,,,3,7,,,372.8594,14,right,0.3786,,0.5,0.3,"[2,3,1]",0.38496591,stimuli/card_100_transparent.png,100,14,0,14,0,1,,,,,,,,,,
,,,,6312bdcf64c0abf681b89dd5,B,2024-06-21_17h05.22.270,Slot Machine Game,2023.1.3,Win32,59.88023952,,,,,,,,,,,,,,,,,,,,,,,,,,,,,,,,,,,374.5594,,,,,,,,,,,,,,,,,,,,,,,,,,,,,,,,,"[1310,550,1120]",2,0,2,0,1,,,,
,,,,6312bdcf64c0abf681b89dd5,B,2024-06-21_17h05.22.270,Slot Machine Game,2023.1.3,Win32,59.88023952,,,,,,,,,,,,,,,,,,,,,,,,,,,10,,,,,,,,,,,,,,,,,,,,,4,4,"[7,15]","[[2,3,1],[1,2,3]]",379.5773,0,left,0.1629,,1.5,0.3,"[2,3,1]",0.722173705,stimuli/card_10_transparent.png,10,0,0,0,0,1,,,,,,,,,,
,,,,6312bdcf64c0abf681b89dd5,B,2024-06-21_17h05.22.270,Slot Machine Game,2023.1.3,Win32,59.88023952,,,,,,,,,,,,,,,,,,,,,,,,,,,110,,,,,,,,,,,,,,,,,,,,,4,4,,,382.0596,1,right,0.4278,,1.5,0.3,"[2,3,1]",0.486190202,stimuli/card_100_transparent.png,100,1,0,1,0,1,,,,,,,,,,
,,,,6312bdcf64c0abf681b89dd5,B,2024-06-21_17h05.22.270,Slot Machine Game,2023.1.3,Win32,59.88023952,,,,,,,,,,,,,,,,,,,,,,,,,,,210,,,,,,,,,,,,,,,,,,,,,4,4,,,384.8094,2,right,0.5694,,1,0.3,"[2,3,1]",0.332494178,stimuli/card_100_transparent.png,100,2,0,2,0,1,,,,,,,,,,
,,,,6312bdcf64c0abf681b89dd5,B,2024-06-21_17h05.22.270,Slot Machine Game,2023.1.3,Win32,59.88023952,,,,,,,,,,,,,,,,,,,,,,,,,,,310,,,,,,,,,,,,,,,,,,,,,4,4,,,387.1928,3,right,0.3192,,1.5,0.3,"[2,3,1]",0.510555054,stimuli/card_100_transparent.png,100,3,0,3,0,1,,,,,,,,,,
,,,,6312bdcf64c0abf681b89dd5,B,2024-06-21_17h05.22.270,Slot Machine Game,2023.1.3,Win32,59.88023952,,,,,,,,,,,,,,,,,,,,,,,,,,,410,,,,,,,,,,,,,,,,,,,,,4,4,,,389.8428,4,right,0.2226,,0.5,0.3,"[2,3,1]",0.900913154,stimuli/card_100_transparent.png,100,4,0,4,0,1,,,,,,,,,,
,,,,6312bdcf64c0abf681b89dd5,B,2024-06-21_17h05.22.270,Slot Machine Game,2023.1.3,Win32,59.88023952,,,,,,,,,,,,,,,,,,,,,,,,,,,510,,,,,,,,,,,,,,,,,,,,,4,4,,,391.3928,5,right,0.562,,0.5,0.3,"[2,3,1]",0.864744068,stimuli/card_100_transparent.png,100,5,0,5,0,1,,,,,,,,,,
,,,,6312bdcf64c0abf681b89dd5,B,2024-06-21_17h05.22.270,Slot Machine Game,2023.1.3,Win32,59.88023952,,,,,,,,,,,,,,,,,,,,,,,,,,,610,,,,,,,,,,,,,,,,,,,,,4,4,,,393.2762,6,right,0.426,,0.5,0.3,"[2,3,1]",0.218116737,stimuli/card_100_transparent.png,100,6,0,6,0,1,,,,,,,,,,
,,,,6312bdcf64c0abf681b89dd5,B,2024-06-21_17h05.22.270,Slot Machine Game,2023.1.3,Win32,59.88023952,,,,,,,,,,,,,,,,,,,,,,,,,,,610,,,,,,,,,,,,,,,,,,,,,4,4,,,395.0262,7,right,0.262,,0.5,0.3,"[1,2,3]",0.512438649,stimuli/card_0_transparent.png,0,7,0,7,0,1,,,,,,,,,,
,,,,6312bdcf64c0abf681b89dd5,B,2024-06-21_17h05.22.270,Slot Machine Game,2023.1.3,Win32,59.88023952,,,,,,,,,,,,,,,,,,,,,,,,,,,620,,,,,,,,,,,,,,,,,,,,,4,4,,,396.6094,8,right,1.269,,1,0.3,"[1,2,3]",0.157561445,stimuli/card_10_transparent.png,10,8,0,8,0,1,,,,,,,,,,
,,,,6312bdcf64c0abf681b89dd5,B,2024-06-21_17h05.22.270,Slot Machine Game,2023.1.3,Win32,59.88023952,,,,,,,,,,,,,,,,,,,,,,,,,,,630,,,,,,,,,,,,,,,,,,,,,4,4,,,399.7095,9,up,0.1518,,1,0.3,"[1,2,3]",0.400697616,stimuli/card_10_transparent.png,10,9,0,9,0,1,,,,,,,,,,
,,,,6312bdcf64c0abf681b89dd5,B,2024-06-21_17h05.22.270,Slot Machine Game,2023.1.3,Win32,59.88023952,,,,,,,,,,,,,,,,,,,,,,,,,,,730,,,,,,,,,,,,,,,,,,,,,4,4,,,401.6928,10,left,0.1333,,1,0.3,"[1,2,3]",0.828992104,stimuli/card_100_transparent.png,100,10,0,10,0,1,,,,,,,,,,
,,,,6312bdcf64c0abf681b89dd5,B,2024-06-21_17h05.22.270,Slot Machine Game,2023.1.3,Win32,59.88023952,,,,,,,,,,,,,,,,,,,,,,,,,,,730,,,,,,,,,,,,,,,,,,,,,4,4,,,403.6594,11,left,0.6017,,1,0.3,"[1,2,3]",0.034323138,stimuli/card_0_transparent.png,0,11,0,11,0,1,,,,,,,,,,
,,,,6312bdcf64c0abf681b89dd5,B,2024-06-21_17h05.22.270,Slot Machine Game,2023.1.3,Win32,59.88023952,,,,,,,,,,,,,,,,,,,,,,,,,,,730,,,,,,,,,,,,,,,,,,,,,4,4,,,406.0928,12,right,0.1515,,1,0.3,"[1,2,3]",0.544443497,stimuli/card_0_transparent.png,0,12,0,12,0,1,,,,,,,,,,
,,,,6312bdcf64c0abf681b89dd5,B,2024-06-21_17h05.22.270,Slot Machine Game,2023.1.3,Win32,59.88023952,,,,,,,,,,,,,,,,,,,,,,,,,,,740,,,,,,,,,,,,,,,,,,,,,4,4,,,408.076,13,up,0.2351,,1.5,0.3,"[1,2,3]",0.557768795,stimuli/card_10_transparent.png,10,13,0,13,0,1,,,,,,,,,,
,,,,6312bdcf64c0abf681b89dd5,B,2024-06-21_17h05.22.270,Slot Machine Game,2023.1.3,Win32,59.88023952,,,,,,,,,,,,,,,,,,,,,,,,,,,840,,,,,,,,,,,,,,,,,,,,,4,4,,,410.6427,14,right,0.0381,,0.5,0.3,"[1,2,3]",0.055615139,stimuli/card_100_transparent.png,100,14,0,14,0,1,,,,,,,,,,
,,,,6312bdcf64c0abf681b89dd5,B,2024-06-21_17h05.22.270,Slot Machine Game,2023.1.3,Win32,59.88023952,,,,,,,,,,,,,,,,,,,,,,,,,,,,,,,,,,,412.0094,,,,,,,,,,,,,,,,,,,,,,,,,,,,,,,,,"[1310,550,1120,840]",3,0,3,0,1,,,,
,,,,6312bdcf64c0abf681b89dd5,B,2024-06-21_17h05.22.270,Slot Machine Game,2023.1.3,Win32,59.88023952,,,,,,,,,,,,,,,,,,,,,,,,,,,10,,,,,,,,,,,,,,,,,,,,,5,6,"[4,10,15]","[[2,3,1],[1,3,2],[3,2,1]]",417.0315,0,left,0.4343,,1,0.3,"[2,3,1]",0.624305371,stimuli/card_10_transparent.png,10,0,0,0,0,1,,,,,,,,,,
,,,,6312bdcf64c0abf681b89dd5,B,2024-06-21_17h05.22.270,Slot Machine Game,2023.1.3,Win32,59.88023952,,,,,,,,,,,,,,,,,,,,,,,,,,,20,,,,,,,,,,,,,,,,,,,,,5,6,,,419.2926,1,up,0.4492,,1,0.3,"[2,3,1]",0.164969654,stimuli/card_10_transparent.png,10,1,0,1,0,1,,,,,,,,,,
,,,,6312bdcf64c0abf681b89dd5,B,2024-06-21_17h05.22.270,Slot Machine Game,2023.1.3,Win32,59.88023952,,,,,,,,,,,,,,,,,,,,,,,,,,,30,,,,,,,,,,,,,,,,,,,,,5,6,,,421.5616,2,left,0.0887,,1.5,0.3,"[2,3,1]",0.767822534,stimuli/card_10_transparent.png,10,2,0,2,0,1,,,,,,,,,,
,,,,6312bdcf64c0abf681b89dd5,B,2024-06-21_17h05.22.270,Slot Machine Game,2023.1.3,Win32,59.88023952,,,,,,,,,,,,,,,,,,,,,,,,,,,130,,,,,,,,,,,,,,,,,,,,,5,6,,,423.9594,3,right,0.0826,,0.5,0.3,"[2,3,1]",0.326956462,stimuli/card_100_transparent.png,100,3,0,3,0,1,,,,,,,,,,
,,,,6312bdcf64c0abf681b89dd5,B,2024-06-21_17h05.22.270,Slot Machine Game,2023.1.3,Win32,59.88023952,,,,,,,,,,,,,,,,,,,,,,,,,,,140,,,,,,,,,,,,,,,,,,,,,5,6,,,425.3621,4,right,0.5174,,0.5,0.3,"[1,3,2]",0.942372708,stimuli/card_10_transparent.png,10,4,0,4,0,1,,,,,,,,,,
,,,,6312bdcf64c0abf681b89dd5,B,2024-06-21_17h05.22.270,Slot Machine Game,2023.1.3,Win32,59.88023952,,,,,,,,,,,,,,,,,,,,,,,,,,,150,,,,,,,,,,,,,,,,,,,,,5,6,,,427.2113,5,right,0.1163,,0.5,0.3,"[1,3,2]",0.953085902,stimuli/card_10_transparent.png,10,5,0,5,0,1,,,,,,,,,,
,,,,6312bdcf64c0abf681b89dd5,B,2024-06-21_17h05.22.270,Slot Machine Game,2023.1.3,Win32,59.88023952,,,,,,,,,,,,,,,,,,,,,,,,,,,250,,,,,,,,,,,,,,,,,,,,,5,6,,,428.6427,6,left,0.384,,1,0.3,"[1,3,2]",0.922422678,stimuli/card_100_transparent.png,100,6,0,6,0,1,,,,,,,,,,
,,,,6312bdcf64c0abf681b89dd5,B,2024-06-21_17h05.22.270,Slot Machine Game,2023.1.3,Win32,59.88023952,,,,,,,,,,,,,,,,,,,,,,,,,,,250,,,,,,,,,,,,,,,,,,,,,5,6,,,430.8452,7,up,0.7838,,1.5,0.3,"[1,3,2]",0.209534666,stimuli/card_0_transparent.png,0,7,0,7,0,1,,,,,,,,,,
,,,,6312bdcf64c0abf681b89dd5,B,2024-06-21_17h05.22.270,Slot Machine Game,2023.1.3,Win32,59.88023952,,,,,,,,,,,,,,,,,,,,,,,,,,,350,,,,,,,,,,,,,,,,,,,,,5,6,,,433.9613,8,left,0.2162,,1.5,0.3,"[1,3,2]",0.452291098,stimuli/card_100_transparent.png,100,8,0,8,0,1,,,,,,,,,,
,,,,6312bdcf64c0abf681b89dd5,B,2024-06-21_17h05.22.270,Slot Machine Game,2023.1.3,Win32,59.88023952,,,,,,,,,,,,,,,,,,,,,,,,,,,360,,,,,,,,,,,,,,,,,,,,,5,6,,,436.4928,9,left,0.5,,0.5,0.3,"[1,3,2]",0.118342215,stimuli/card_10_transparent.png,10,9,0,9,0,1,,,,,,,,,,
,,,,6312bdcf64c0abf681b89dd5,B,2024-06-21_17h05.22.270,Slot Machine Game,2023.1.3,Win32,59.88023952,,,,,,,,,,,,,,,,,,,,,,,,,,,360,,,,,,,,,,,,,,,,,,,,,5,6,,,438.3125,10,left,0.3949,,1.5,0.3,"[3,2,1]",0.460983102,stimuli/card_0_transparent.png,0,10,0,10,0,1,,,,,,,,,,
,,,,6312bdcf64c0abf681b89dd5,B,2024-06-21_17h05.22.270,Slot Machine Game,2023.1.3,Win32,59.88023952,,,,,,,,,,,,,,,,,,,,,,,,,,,370,,,,,,,,,,,,,,,,,,,,,5,6,,,441.0452,11,right,0.1984,,1,0.3,"[3,2,1]",0.106389272,stimuli/card_10_transparent.png,10,11,0,11,0,1,,,,,,,,,,
,,,,6312bdcf64c0abf681b89dd5,B,2024-06-21_17h05.22.270,Slot Machine Game,2023.1.3,Win32,59.88023952,,,,,,,,,,,,,,,,,,,,,,,,,,,380,,,,,,,,,,,,,,,,,,,,,5,6,,,443.0594,12,up,0.6185,,0.5,0.3,"[3,2,1]",0.301407276,stimuli/card_10_transparent.png,10,12,0,12,0,1,,,,,,,,,,
,,,,6312bdcf64c0abf681b89dd5,B,2024-06-21_17h05.22.270,Slot Machine Game,2023.1.3,Win32,59.88023952,,,,,,,,,,,,,,,,,,,,,,,,,,,390,,,,,,,,,,,,,,,,,,,,,5,6,,,445.0115,13,up,1.7367,,0.5,0.3,"[3,2,1]",0.289898307,stimuli/card_10_transparent.png,10,13,0,13,0,1,,,,,,,,,,
,,,,6312bdcf64c0abf681b89dd5,B,2024-06-21_17h05.22.270,Slot Machine Game,2023.1.3,Win32,59.88023952,,,,,,,,,,,,,,,,,,,,,,,,,,,390,,,,,,,,,,,,,,,,,,,,,5,6,,,448.0965,14,left,0.3335,,0.5,0.3,"[3,2,1]",0.759766281,stimuli/card_0_transparent.png,0,14,0,14,0,1,,,,,,,,,,
,,,,6312bdcf64c0abf681b89dd5,B,2024-06-21_17h05.22.270,Slot Machine Game,2023.1.3,Win32,59.88023952,,,,,,,,,,,,,,,,,,,,,,,,,,,,,,,,,,,449.7613,,,,,,,,,,,,,,,,,,,,,,,,,,,,,,,,,"[1310,550,1120,840,390]",4,0,4,0,1,,,,
,,,,6312bdcf64c0abf681b89dd5,B,2024-06-21_17h05.22.270,Slot Machine Game,2023.1.3,Win32,59.88023952,,,,,,,,,,,,,,,,,,,,,,,,,,,0,,,,,,,,,,,,,,,,,,,,,6,8,"[11,15]","[[2,1,3],[1,2,3]]",454.7688,0,right,0.0007,,1,0.3,"[2,1,3]",0.6874708,stimuli/card_0_transparent.png,0,0,0,0,0,1,,,,,,,,,,
,,,,6312bdcf64c0abf681b89dd5,B,2024-06-21_17h05.22.270,Slot Machine Game,2023.1.3,Win32,59.88023952,,,,,,,,,,,,,,,,,,,,,,,,,,,100,,,,,,,,,,,,,,,,,,,,,6,8,,,456.593,1,up,0.8504,,1,0.3,"[2,1,3]",0.427099427,stimuli/card_100_transparent.png,100,1,0,1,0,1,,,,,,,,,,
,,,,6312bdcf64c0abf681b89dd5,B,2024-06-21_17h05.22.270,Slot Machine Game,2023.1.3,Win32,59.88023952,,,,,,,,,,,,,,,,,,,,,,,,,,,100,,,,,,,,,,,,,,,,,,,,,6,8,,,459.2592,2,up,0.0813,,1.5,0.3,"[2,1,3]",0.077300993,stimuli/card_0_transparent.png,0,2,0,2,0,1,,,,,,,,,,
,,,,6312bdcf64c0abf681b89dd5,B,2024-06-21_17h05.22.270,Slot Machine Game,2023.1.3,Win32,59.88023952,,,,,,,,,,,,,,,,,,,,,,,,,,,200,,,,,,,,,,,,,,,,,,,,,6,8,,,461.6775,3,up,0.747,,1,0.3,"[2,1,3]",0.248765751,stimuli/card_100_transparent.png,100,3,0,3,0,1,,,,,,,,,,
,,,,6312bdcf64c0abf681b89dd5,B,2024-06-21_17h05.22.270,Slot Machine Game,2023.1.3,Win32,59.88023952,,,,,,,,,,,,,,,,,,,,,,,,,,,200,,,,,,,,,,,,,,,,,,,,,6,8,,,464.2426,4,up,0.1996,,1.5,0.3,"[2,1,3]",0.082200873,stimuli/card_0_transparent.png,0,4,0,4,0,1,,,,,,,,,,
,,,,6312bdcf64c0abf681b89dd5,B,2024-06-21_17h05.22.270,Slot Machine Game,2023.1.3,Win32,59.88023952,,,,,,,,,,,,,,,,,,,,,,,,,,,300,,,,,,,,,,,,,,,,,,,,,6,8,,,466.7612,5,up,0.4651,,1,0.3,"[2,1,3]",0.47227719,stimuli/card_100_transparent.png,100,5,0,5,0,1,,,,,,,,,,
,,,,6312bdcf64c0abf681b89dd5,B,2024-06-21_17h05.22.270,Slot Machine Game,2023.1.3,Win32,59.88023952,,,,,,,,,,,,,,,,,,,,,,,,,,,310,,,,,,,,,,,,,,,,,,,,,6,8,,,469.0621,6,left,0.2469,,1,0.3,"[2,1,3]",0.965345122,stimuli/card_10_transparent.png,10,6,0,6,0,1,,,,,,,,,,
,,,,6312bdcf64c0abf681b89dd5,B,2024-06-21_17h05.22.270,Slot Machine Game,2023.1.3,Win32,59.88023952,,,,,,,,,,,,,,,,,,,,,,,,,,,410,,,,,,,,,,,,,,,,,,,,,6,8,,,471.1446,7,up,0.0336,,1.5,0.3,"[2,1,3]",0.89382708,stimuli/card_100_transparent.png,100,7,0,7,0,1,,,,,,,,,,
,,,,6312bdcf64c0abf681b89dd5,B,2024-06-21_17h05.22.270,Slot Machine Game,2023.1.3,Win32,59.88023952,,,,,,,,,,,,,,,,,,,,,,,,,,,410,,,,,,,,,,,,,,,,,,,,,6,8,,,473.4949,8,right,0.6503,,1,0.3,"[2,1,3]",0.261924486,stimuli/card_0_transparent.png,0,8,0,8,0,1,,,,,,,,,,
,,,,6312bdcf64c0abf681b89dd5,B,2024-06-21_17h05.22.270,Slot Machine Game,2023.1.3,Win32,59.88023952,,,,,,,,,,,,,,,,,,,,,,,,,,,510,,,,,,,,,,,,,,,,,,,,,6,8,,,475.9795,9,up,0.3005,,0.5,0.3,"[2,1,3]",0.4263615,stimuli/card_100_transparent.png,100,9,0,9,0,1,,,,,,,,,,
,,,,6312bdcf64c0abf681b89dd5,B,2024-06-21_17h05.22.270,Slot Machine Game,2023.1.3,Win32,59.88023952,,,,,,,,,,,,,,,,,,,,,,,,,,,610,,,,,,,,,,,,,,,,,,,,,6,8,,,477.6135,10,up,0.2835,,0.5,0.3,"[2,1,3]",0.697124473,stimuli/card_100_transparent.png,100,10,0,10,0,1,,,,,,,,,,
,,,,6312bdcf64c0abf681b89dd5,B,2024-06-21_17h05.22.270,Slot Machine Game,2023.1.3,Win32,59.88023952,,,,,,,,,,,,,,,,,,,,,,,,,,,620,,,,,,,,,,,,,,,,,,,,,6,8,,,479.2272,11,up,0.4019,,1,0.3,"[1,2,3]",0.324432311,stimuli/card_10_transparent.png,10,11,0,11,0,1,,,,,,,,,,
,,,,6312bdcf64c0abf681b89dd5,B,2024-06-21_17h05.22.270,Slot Machine Game,2023.1.3,Win32,59.88023952,,,,,,,,,,,,,,,,,,,,,,,,,,,630,,,,,,,,,,,,,,,,,,,,,6,8,,,481.4613,12,up,0.3833,,1.5,0.3,"[1,2,3]",0.615854269,stimuli/card_10_transparent.png,10,12,0,12,0,1,,,,,,,,,,
,,,,6312bdcf64c0abf681b89dd5,B,2024-06-21_17h05.22.270,Slot Machine Game,2023.1.3,Win32,59.88023952,,,,,,,,,,,,,,,,,,,,,,,,,,,730,,,,,,,,,,,,,,,,,,,,,6,8,,,484.177,13,left,0.2355,,1,0.3,"[1,2,3]",0.254211252,stimuli/card_100_transparent.png,100,13,0,13,0,1,,,,,,,,,,
,,,,6312bdcf64c0abf681b89dd5,B,2024-06-21_17h05.22.270,Slot Machine Game,2023.1.3,Win32,59.88023952,,,,,,,,,,,,,,,,,,,,,,,,,,,830,,,,,,,,,,,,,,,,,,,,,6,8,,,486.2424,14,left,0.1504,,1,0.3,"[1,2,3]",0.326660331,stimuli/card_100_transparent.png,100,14,0,14,0,1,,,,,,,,,,
,,,,6312bdcf64c0abf681b89dd5,B,2024-06-21_17h05.22.270,Slot Machine Game,2023.1.3,Win32,59.88023952,,,,,,,,,,,,,,,,,,,,,,,,,,,,,,,,,,,488.2122,,,,,,,,,,,,,,,,,,,,,,,,,,,,,,,,,"[1310,550,1120,840,390,830]",5,0,5,0,1,,,,
,,,,6312bdcf64c0abf681b89dd5,B,2024-06-21_17h05.22.270,Slot Machine Game,2023.1.3,Win32,59.88023952,,,,,,,,,,,,,,,,,,,,,,,,,,,100,,,,,,,,,,,,,,,,,,,,,7,9,"[8,15]","[[3,2,1],[3,1,2]]",493.2188,0,right,0.6345,,0.5,0.3,"[3,2,1]",0.351971042,stimuli/card_100_transparent.png,100,0,0,0,0,1,,,,,,,,,,
,,,,6312bdcf64c0abf681b89dd5,B,2024-06-21_17h05.22.270,Slot Machine Game,2023.1.3,Win32,59.88023952,,,,,,,,,,,,,,,,,,,,,,,,,,,200,,,,,,,,,,,,,,,,,,,,,7,9,,,495.176,1,right,0.4975,,1,0.3,"[3,2,1]",0.663532431,stimuli/card_100_transparent.png,100,1,0,1,0,1,,,,,,,,,,
,,,,6312bdcf64c0abf681b89dd5,B,2024-06-21_17h05.22.270,Slot Machine Game,2023.1.3,Win32,59.88023952,,,,,,,,,,,,,,,,,,,,,,,,,,,300,,,,,,,,,,,,,,,,,,,,,7,9,,,497.4961,2,right,0.4181,,1.5,0.3,"[3,2,1]",0.227694205,stimuli/card_100_transparent.png,100,2,0,2,0,1,,,,,,,,,,
,,,,6312bdcf64c0abf681b89dd5,B,2024-06-21_17h05.22.270,Slot Machine Game,2023.1.3,Win32,59.88023952,,,,,,,,,,,,,,,,,,,,,,,,,,,400,,,,,,,,,,,,,,,,,,,,,7,9,,,500.2446,3,right,0.1938,,1.5,0.3,"[3,2,1]",0.9655402,stimuli/card_100_transparent.png,100,3,0,3,0,1,,,,,,,,,,
,,,,6312bdcf64c0abf681b89dd5,B,2024-06-21_17h05.22.270,Slot Machine Game,2023.1.3,Win32,59.88023952,,,,,,,,,,,,,,,,,,,,,,,,,,,500,,,,,,,,,,,,,,,,,,,,,7,9,,,502.7757,4,right,0.5346,,1.5,0.3,"[3,2,1]",0.909311624,stimuli/card_100_transparent.png,100,4,0,4,0,1,,,,,,,,,,
,,,,6312bdcf64c0abf681b89dd5,B,2024-06-21_17h05.22.270,Slot Machine Game,2023.1.3,Win32,59.88023952,,,,,,,,,,,,,,,,,,,,,,,,,,,600,,,,,,,,,,,,,,,,,,,,,7,9,,,505.6468,5,right,0.3657,,1.5,0.3,"[3,2,1]",0.478775773,stimuli/card_100_transparent.png,100,5,0,5,0,1,,,,,,,,,,
,,,,6312bdcf64c0abf681b89dd5,B,2024-06-21_17h05.22.270,Slot Machine Game,2023.1.3,Win32,59.88023952,,,,,,,,,,,,,,,,,,,,,,,,,,,600,,,,,,,,,,,,,,,,,,,,,7,9,,,508.3446,6,right,0.2008,,1.5,0.3,"[3,2,1]",0.073796619,stimuli/card_0_transparent.png,0,6,0,6,0,1,,,,,,,,,,
,,,,6312bdcf64c0abf681b89dd5,B,2024-06-21_17h05.22.270,Slot Machine Game,2023.1.3,Win32,59.88023952,,,,,,,,,,,,,,,,,,,,,,,,,,,610,,,,,,,,,,,,,,,,,,,,,7,9,,,510.8615,7,up,0.167,,0.5,0.3,"[3,2,1]",0.44147076,stimuli/card_10_transparent.png,10,7,0,7,0,1,,,,,,,,,,
,,,,6312bdcf64c0abf681b89dd5,B,2024-06-21_17h05.22.270,Slot Machine Game,2023.1.3,Win32,59.88023952,,,,,,,,,,,,,,,,,,,,,,,,,,,620,,,,,,,,,,,,,,,,,,,,,7,9,,,512.3591,8,left,0.2335,,0.5,0.3,"[3,1,2]",0.103229927,stimuli/card_10_transparent.png,10,8,0,8,0,1,,,,,,,,,,
,,,,6312bdcf64c0abf681b89dd5,B,2024-06-21_17h05.22.270,Slot Machine Game,2023.1.3,Win32,59.88023952,,,,,,,,,,,,,,,,,,,,,,,,,,,720,,,,,,,,,,,,,,,,,,,,,7,9,,,513.9104,9,right,0.3667,,1,0.3,"[3,1,2]",0.150637074,stimuli/card_100_transparent.png,100,9,0,9,0,1,,,,,,,,,,
,,,,6312bdcf64c0abf681b89dd5,B,2024-06-21_17h05.22.270,Slot Machine Game,2023.1.3,Win32,59.88023952,,,,,,,,,,,,,,,,,,,,,,,,,,,820,,,,,,,,,,,,,,,,,,,,,7,9,,,516.1107,10,right,0.584,,0.5,0.3,"[3,1,2]",0.161257757,stimuli/card_100_transparent.png,100,10,0,10,0,1,,,,,,,,,,
,,,,6312bdcf64c0abf681b89dd5,B,2024-06-21_17h05.22.270,Slot Machine Game,2023.1.3,Win32,59.88023952,,,,,,,,,,,,,,,,,,,,,,,,,,,830,,,,,,,,,,,,,,,,,,,,,7,9,,,518.0265,11,right,0.4091,,1,0.3,"[3,1,2]",0.351575375,stimuli/card_10_transparent.png,10,11,0,11,0,1,,,,,,,,,,
,,,,6312bdcf64c0abf681b89dd5,B,2024-06-21_17h05.22.270,Slot Machine Game,2023.1.3,Win32,59.88023952,,,,,,,,,,,,,,,,,,,,,,,,,,,930,,,,,,,,,,,,,,,,,,,,,7,9,,,520.2622,12,up,0.2486,,1,0.3,"[3,1,2]",0.668187326,stimuli/card_100_transparent.png,100,12,0,12,0,1,,,,,,,,,,
,,,,6312bdcf64c0abf681b89dd5,B,2024-06-21_17h05.22.270,Slot Machine Game,2023.1.3,Win32,59.88023952,,,,,,,,,,,,,,,,,,,,,,,,,,,1030,,,,,,,,,,,,,,,,,,,,,7,9,,,522.3425,13,up,0.3269,,0.5,0.3,"[3,1,2]",0.452695351,stimuli/card_100_transparent.png,100,13,0,13,0,1,,,,,,,,,,
,,,,6312bdcf64c0abf681b89dd5,B,2024-06-21_17h05.22.270,Slot Machine Game,2023.1.3,Win32,59.88023952,,,,,,,,,,,,,,,,,,,,,,,,,,,1130,,,,,,,,,,,,,,,,,,,,,7,9,,,523.9947,14,up,0.418,,1,0.3,"[3,1,2]",0.734298065,stimuli/card_100_transparent.png,100,14,0,14,0,1,,,,,,,,,,
,,,,6312bdcf64c0abf681b89dd5,B,2024-06-21_17h05.22.270,Slot Machine Game,2023.1.3,Win32,59.88023952,,,,,,,,,,,,,,,,,,,,,,,,,,,,,,,,,,,526.23,,,,,,,,,,,,,,,,,,,,,,,,,,,,,,,,,"[1310,550,1120,840,390,830,1130]",6,0,6,0,1,,,,
,,,,6312bdcf64c0abf681b89dd5,B,2024-06-21_17h05.22.270,Slot Machine Game,2023.1.3,Win32,59.88023952,,,,,,,,,,,,,,,,,,,,,,,,,,,10,,,,,,,,,,,,,,,,,,,,,8,2,"[6,15]","[[1,3,2],[3,2,1]]",531.2378,0,right,0.3007,,1.5,0.3,"[1,3,2]",0.418170223,stimuli/card_10_transparent.png,10,0,0,0,0,1,,,,,,,,,,
,,,,6312bdcf64c0abf681b89dd5,B,2024-06-21_17h05.22.270,Slot Machine Game,2023.1.3,Win32,59.88023952,,,,,,,,,,,,,,,,,,,,,,,,,,,110,,,,,,,,,,,,,,,,,,,,,8,2,,,533.8611,1,left,0.0163,,0.5,0.3,"[1,3,2]",0.894291236,stimuli/card_100_transparent.png,100,1,0,1,0,1,,,,,,,,,,
,,,,6312bdcf64c0abf681b89dd5,B,2024-06-21_17h05.22.270,Slot Machine Game,2023.1.3,Win32,59.88023952,,,,,,,,,,,,,,,,,,,,,,,,,,,120,,,,,,,,,,,,,,,,,,,,,8,2,,,535.1955,2,left,0.2857,,0.5,0.3,"[1,3,2]",0.142332175,stimuli/card_10_transparent.png,10,2,0,2,0,1,,,,,,,,,,
,,,,6312bdcf64c0abf681b89dd5,B,2024-06-21_17h05.22.270,Slot Machine Game,2023.1.3,Win32,59.88023952,,,,,,,,,,,,,,,,,,,,,,,,,,,220,,,,,,,,,,,,,,,,,,,,,8,2,,,536.8257,3,left,0.2361,,1.5,0.3,"[1,3,2]",0.991148952,stimuli/card_100_transparent.png,100,3,0,3,0,1,,,,,,,,,,
,,,,6312bdcf64c0abf681b89dd5,B,2024-06-21_17h05.22.270,Slot Machine Game,2023.1.3,Win32,59.88023952,,,,,,,,,,,,,,,,,,,,,,,,,,,320,,,,,,,,,,,,,,,,,,,,,8,2,,,539.3945,4,left,0.2664,,1.5,0.3,"[1,3,2]",0.677741637,stimuli/card_100_transparent.png,100,4,0,4,0,1,,,,,,,,,,
,,,,6312bdcf64c0abf681b89dd5,B,2024-06-21_17h05.22.270,Slot Machine Game,2023.1.3,Win32,59.88023952,,,,,,,,,,,,,,,,,,,,,,,,,,,420,,,,,,,,,,,,,,,,,,,,,8,2,,,541.9788,5,left,0.433,,0.5,0.3,"[1,3,2]",0.486458648,stimuli/card_100_transparent.png,100,5,0,5,0,1,,,,,,,,,,
,,,,6312bdcf64c0abf681b89dd5,B,2024-06-21_17h05.22.270,Slot Machine Game,2023.1.3,Win32,59.88023952,,,,,,,,,,,,,,,,,,,,,,,,,,,520,,,,,,,,,,,,,,,,,,,,,8,2,,,543.7296,6,left,0.4175,,1.5,0.3,"[3,2,1]",0.07236213,stimuli/card_100_transparent.png,100,6,0,6,0,1,,,,,,,,,,
,,,,6312bdcf64c0abf681b89dd5,B,2024-06-21_17h05.22.270,Slot Machine Game,2023.1.3,Win32,59.88023952,,,,,,,,,,,,,,,,,,,,,,,,,,,520,,,,,,,,,,,,,,,,,,,,,8,2,,,546.4803,7,left,0.0501,,0.5,0.3,"[3,2,1]",0.496494549,stimuli/card_0_transparent.png,0,7,0,7,0,1,,,,,,,,,,
,,,,6312bdcf64c0abf681b89dd5,B,2024-06-21_17h05.22.270,Slot Machine Game,2023.1.3,Win32,59.88023952,,,,,,,,,,,,,,,,,,,,,,,,,,,620,,,,,,,,,,,,,,,,,,,,,8,2,,,547.8611,8,left,0.292,,1,0.3,"[3,2,1]",0.074692621,stimuli/card_100_transparent.png,100,8,0,8,0,1,,,,,,,,,,
,,,,6312bdcf64c0abf681b89dd5,B,2024-06-21_17h05.22.270,Slot Machine Game,2023.1.3,Win32,59.88023952,,,,,,,,,,,,,,,,,,,,,,,,,,,620,,,,,,,,,,,,,,,,,,,,,8,2,,,549.9612,9,left,0.518,,1,0.3,"[3,2,1]",0.85632726,stimuli/card_0_transparent.png,0,9,0,9,0,1,,,,,,,,,,
,,,,6312bdcf64c0abf681b89dd5,B,2024-06-21_17h05.22.270,Slot Machine Game,2023.1.3,Win32,59.88023952,,,,,,,,,,,,,,,,,,,,,,,,,,,720,,,,,,,,,,,,,,,,,,,,,8,2,,,552.3092,10,left,0.8161,,1.5,0.3,"[3,2,1]",0.057593633,stimuli/card_100_transparent.png,100,10,0,10,0,1,,,,,,,,,,
,,,,6312bdcf64c0abf681b89dd5,B,2024-06-21_17h05.22.270,Slot Machine Game,2023.1.3,Win32,59.88023952,,,,,,,,,,,,,,,,,,,,,,,,,,,720,,,,,,,,,,,,,,,,,,,,,8,2,,,555.4442,11,left,0.0674,,0.5,0.3,"[3,2,1]",0.810893984,stimuli/card_0_transparent.png,0,11,0,11,0,1,,,,,,,,,,
,,,,6312bdcf64c0abf681b89dd5,B,2024-06-21_17h05.22.270,Slot Machine Game,2023.1.3,Win32,59.88023952,,,,,,,,,,,,,,,,,,,,,,,,,,,720,,,,,,,,,,,,,,,,,,,,,8,2,,,556.8257,12,left,0.0171,,1.5,0.3,"[3,2,1]",0.617021985,stimuli/card_0_transparent.png,0,12,0,12,0,1,,,,,,,,,,
,,,,6312bdcf64c0abf681b89dd5,B,2024-06-21_17h05.22.270,Slot Machine Game,2023.1.3,Win32,59.88023952,,,,,,,,,,,,,,,,,,,,,,,,,,,820,,,,,,,,,,,,,,,,,,,,,8,2,,,559.1797,13,right,0.3002,,1.5,0.3,"[3,2,1]",0.930498541,stimuli/card_100_transparent.png,100,13,0,13,0,1,,,,,,,,,,
,,,,6312bdcf64c0abf681b89dd5,B,2024-06-21_17h05.22.270,Slot Machine Game,2023.1.3,Win32,59.88023952,,,,,,,,,,,,,,,,,,,,,,,,,,,920,,,,,,,,,,,,,,,,,,,,,8,2,,,561.8118,14,right,0.3177,,1,0.3,"[3,2,1]",0.490197542,stimuli/card_100_transparent.png,100,14,0,14,0,1,,,,,,,,,,
,,,,6312bdcf64c0abf681b89dd5,B,2024-06-21_17h05.22.270,Slot Machine Game,2023.1.3,Win32,59.88023952,,,,,,,,,,,,,,,,,,,,,,,,,,,,,,,,,,,563.945,,,,,,,,,,,,,,,,,,,,,,,,,,,,,,,,,"[1310,550,1120,840,390,830,1130,920]",7,0,7,0,1,,,,
,,,,6312bdcf64c0abf681b89dd5,B,2024-06-21_17h05.22.270,Slot Machine Game,2023.1.3,Win32,59.88023952,,,,,,,,,,,,,,,,,,,,,,,,,,,0,,,,,,,,,,,,,,,,,,,,,9,10,"[10,15]","[[3,1,2],[1,3,2]]",568.9526,0,left,0.6001,,0.5,0.3,"[3,1,2]",0.752032229,stimuli/card_0_transparent.png,0,0,0,0,0,1,,,,,,,,,,
,,,,6312bdcf64c0abf681b89dd5,B,2024-06-21_17h05.22.270,Slot Machine Game,2023.1.3,Win32,59.88023952,,,,,,,,,,,,,,,,,,,,,,,,,,,10,,,,,,,,,,,,,,,,,,,,,9,10,,,570.8755,1,right,0.1309,,1,0.3,"[3,1,2]",0.766150659,stimuli/card_10_transparent.png,10,1,0,1,0,1,,,,,,,,,,
,,,,6312bdcf64c0abf681b89dd5,B,2024-06-21_17h05.22.270,Slot Machine Game,2023.1.3,Win32,59.88023952,,,,,,,,,,,,,,,,,,,,,,,,,,,10,,,,,,,,,,,,,,,,,,,,,9,10,,,572.8261,2,up,0.1903,,1.5,0.3,"[3,1,2]",0.039889584,stimuli/card_0_transparent.png,0,2,0,2,0,1,,,,,,,,,,
,,,,6312bdcf64c0abf681b89dd5,B,2024-06-21_17h05.22.270,Slot Machine Game,2023.1.3,Win32,59.88023952,,,,,,,,,,,,,,,,,,,,,,,,,,,20,,,,,,,,,,,,,,,,,,,,,9,10,,,575.3596,3,right,0.184,,1.5,0.3,"[3,1,2]",0.858336102,stimuli/card_10_transparent.png,10,3,0,3,0,1,,,,,,,,,,
,,,,6312bdcf64c0abf681b89dd5,B,2024-06-21_17h05.22.270,Slot Machine Game,2023.1.3,Win32,59.88023952,,,,,,,,,,,,,,,,,,,,,,,,,,,20,,,,,,,,,,,,,,,,,,,,,9,10,,,577.86,4,left,0.0172,,0.5,0.3,"[3,1,2]",0.866335043,stimuli/card_0_transparent.png,0,4,0,4,0,1,,,,,,,,,,
,,,,6312bdcf64c0abf681b89dd5,B,2024-06-21_17h05.22.270,Slot Machine Game,2023.1.3,Win32,59.88023952,,,,,,,,,,,,,,,,,,,,,,,,,,,20,,,,,,,,,,,,,,,,,,,,,9,10,,,579.2119,5,right,0.0623,,1.5,0.3,"[3,1,2]",0.096662104,stimuli/card_0_transparent.png,0,5,0,5,0,1,,,,,,,,,,
,,,,6312bdcf64c0abf681b89dd5,B,2024-06-21_17h05.22.270,Slot Machine Game,2023.1.3,Win32,59.88023952,,,,,,,,,,,,,,,,,,,,,,,,,,,120,,,,,,,,,,,,,,,,,,,,,9,10,,,581.5923,6,up,0.3335,,1.5,0.3,"[3,1,2]",0.515506301,stimuli/card_100_transparent.png,100,6,0,6,0,1,,,,,,,,,,
,,,,6312bdcf64c0abf681b89dd5,B,2024-06-21_17h05.22.270,Slot Machine Game,2023.1.3,Win32,59.88023952,,,,,,,,,,,,,,,,,,,,,,,,,,,220,,,,,,,,,,,,,,,,,,,,,9,10,,,584.2422,7,up,0.2803,,1,0.3,"[3,1,2]",0.830808182,stimuli/card_100_transparent.png,100,7,0,7,0,1,,,,,,,,,,
,,,,6312bdcf64c0abf681b89dd5,B,2024-06-21_17h05.22.270,Slot Machine Game,2023.1.3,Win32,59.88023952,,,,,,,,,,,,,,,,,,,,,,,,,,,320,,,,,,,,,,,,,,,,,,,,,9,10,,,586.3446,8,up,0.3012,,0.5,0.3,"[3,1,2]",0.354291699,stimuli/card_100_transparent.png,100,8,0,8,0,1,,,,,,,,,,
,,,,6312bdcf64c0abf681b89dd5,B,2024-06-21_17h05.22.270,Slot Machine Game,2023.1.3,Win32,59.88023952,,,,,,,,,,,,,,,,,,,,,,,,,,,420,,,,,,,,,,,,,,,,,,,,,9,10,,,587.9796,9,up,0.498,,0.5,0.3,"[3,1,2]",0.849002305,stimuli/card_100_transparent.png,100,9,0,9,0,1,,,,,,,,,,
,,,,6312bdcf64c0abf681b89dd5,B,2024-06-21_17h05.22.270,Slot Machine Game,2023.1.3,Win32,59.88023952,,,,,,,,,,,,,,,,,,,,,,,,,,,420,,,,,,,,,,,,,,,,,,,,,9,10,,,589.7924,10,up,0.5005,,0.5,0.3,"[1,3,2]",0.992108958,stimuli/card_0_transparent.png,0,10,0,10,0,1,,,,,,,,,,
,,,,6312bdcf64c0abf681b89dd5,B,2024-06-21_17h05.22.270,Slot Machine Game,2023.1.3,Win32,59.88023952,,,,,,,,,,,,,,,,,,,,,,,,,,,520,,,,,,,,,,,,,,,,,,,,,9,10,,,591.6108,11,up,0.2499,,1.5,0.3,"[1,3,2]",0.015588527,stimuli/card_100_transparent.png,100,11,0,11,0,1,,,,,,,,,,
,,,,6312bdcf64c0abf681b89dd5,B,2024-06-21_17h05.22.270,Slot Machine Game,2023.1.3,Win32,59.88023952,,,,,,,,,,,,,,,,,,,,,,,,,,,620,,,,,,,,,,,,,,,,,,,,,9,10,,,594.1941,12,up,0.8122,,1,0.3,"[1,3,2]",0.060903034,stimuli/card_100_transparent.png,100,12,0,12,0,1,,,,,,,,,,
,,,,6312bdcf64c0abf681b89dd5,B,2024-06-21_17h05.22.270,Slot Machine Game,2023.1.3,Win32,59.88023952,,,,,,,,,,,,,,,,,,,,,,,,,,,620,,,,,,,,,,,,,,,,,,,,,9,10,,,596.8307,13,up,0.0753,,0.5,0.3,"[1,3,2]",0.879546856,stimuli/card_0_transparent.png,0,13,0,13,0,1,,,,,,,,,,
,,,,6312bdcf64c0abf681b89dd5,B,2024-06-21_17h05.22.270,Slot Machine Game,2023.1.3,Win32,59.88023952,,,,,,,,,,,,,,,,,,,,,,,,,,,720,,,,,,,,,,,,,,,,,,,,,9,10,,,598.2445,14,right,0.474,,1.5,0.3,"[1,3,2]",0.135868935,stimuli/card_100_transparent.png,100,14,0,14,0,1,,,,,,,,,,
,,,,6312bdcf64c0abf681b89dd5,B,2024-06-21_17h05.22.270,Slot Machine Game,2023.1.3,Win32,59.88023952,,,,,,,,,,,,,,,,,,,,,,,,,,,,,,,,,,,601.059,,,,,,,,,,,,,,,,,,,,,,,,,,,,,,,,,"[1310,550,1120,840,390,830,1130,920,720]",8,0,8,0,1,,,,
,,,,6312bdcf64c0abf681b89dd5,B,2024-06-21_17h05.22.270,Slot Machine Game,2023.1.3,Win32,59.88023952,,,,,,,,,,,,,,,,,,,,,,,,,,,100,,,,,,,,,,,,,,,,,,,,,10,3,"[15,15]","[[3,1,2],[3,1,2]]",606.085,0,up,0.1771,,1,0.3,"[3,1,2]",0.927135791,stimuli/card_100_transparent.png,100,0,0,0,0,1,,,,,,,,,,
,,,,6312bdcf64c0abf681b89dd5,B,2024-06-21_17h05.22.270,Slot Machine Game,2023.1.3,Win32,59.88023952,,,,,,,,,,,,,,,,,,,,,,,,,,,200,,,,,,,,,,,,,,,,,,,,,10,3,,,608.0947,1,up,0.2339,,1,0.3,"[3,1,2]",0.91427906,stimuli/card_100_transparent.png,100,1,0,1,0,1,,,,,,,,,,
,,,,6312bdcf64c0abf681b89dd5,B,2024-06-21_17h05.22.270,Slot Machine Game,2023.1.3,Win32,59.88023952,,,,,,,,,,,,,,,,,,,,,,,,,,,300,,,,,,,,,,,,,,,,,,,,,10,3,,,610.1618,2,up,0.0948,,0.5,0.3,"[3,1,2]",0.305485448,stimuli/card_100_transparent.png,100,2,0,2,0,1,,,,,,,,,,
,,,,6312bdcf64c0abf681b89dd5,B,2024-06-21_17h05.22.270,Slot Machine Game,2023.1.3,Win32,59.88023952,,,,,,,,,,,,,,,,,,,,,,,,,,,300,,,,,,,,,,,,,,,,,,,,,10,3,,,611.5946,3,up,0.1483,,1.5,0.3,"[3,1,2]",0.03909871,stimuli/card_0_transparent.png,0,3,0,3,0,1,,,,,,,,,,
,,,,6312bdcf64c0abf681b89dd5,B,2024-06-21_17h05.22.270,Slot Machine Game,2023.1.3,Win32,59.88023952,,,,,,,,,,,,,,,,,,,,,,,,,,,300,,,,,,,,,,,,,,,,,,,,,10,3,,,614.0622,4,left,1.3667,,1.5,0.3,"[3,1,2]",0.43975421,stimuli/card_0_transparent.png,0,4,0,4,0,1,,,,,,,,,,
,,,,6312bdcf64c0abf681b89dd5,B,2024-06-21_17h05.22.270,Slot Machine Game,2023.1.3,Win32,59.88023952,,,,,,,,,,,,,,,,,,,,,,,,,,,310,,,,,,,,,,,,,,,,,,,,,10,3,,,617.7608,5,up,0.0142,,1.5,0.3,"[3,1,2]",0.172723473,stimuli/card_10_transparent.png,10,5,0,5,0,1,,,,,,,,,,
,,,,6312bdcf64c0abf681b89dd5,B,2024-06-21_17h05.22.270,Slot Machine Game,2023.1.3,Win32,59.88023952,,,,,,,,,,,,,,,,,,,,,,,,,,,320,,,,,,,,,,,,,,,,,,,,,10,3,,,620.111,6,right,0.2648,,1,0.3,"[3,1,2]",0.990358863,stimuli/card_10_transparent.png,10,6,0,6,0,1,,,,,,,,,,
,,,,6312bdcf64c0abf681b89dd5,B,2024-06-21_17h05.22.270,Slot Machine Game,2023.1.3,Win32,59.88023952,,,,,,,,,,,,,,,,,,,,,,,,,,,420,,,,,,,,,,,,,,,,,,,,,10,3,,,622.1755,7,up,0.248,,1.5,0.3,"[3,1,2]",0.845443962,stimuli/card_100_transparent.png,100,7,0,7,0,1,,,,,,,,,,
,,,,6312bdcf64c0abf681b89dd5,B,2024-06-21_17h05.22.270,Slot Machine Game,2023.1.3,Win32,59.88023952,,,,,,,,,,,,,,,,,,,,,,,,,,,520,,,,,,,,,,,,,,,,,,,,,10,3,,,624.7421,8,up,0.2644,,1.5,0.3,"[3,1,2]",0.558726785,stimuli/card_100_transparent.png,100,8,0,8,0,1,,,,,,,,,,
,,,,6312bdcf64c0abf681b89dd5,B,2024-06-21_17h05.22.270,Slot Machine Game,2023.1.3,Win32,59.88023952,,,,,,,,,,,,,,,,,,,,,,,,,,,620,,,,,,,,,,,,,,,,,,,,,10,3,,,627.3292,9,up,0.0495,,0.5,0.3,"[3,1,2]",0.706510122,stimuli/card_100_transparent.png,100,9,0,9,0,1,,,,,,,,,,
,,,,6312bdcf64c0abf681b89dd5,B,2024-06-21_17h05.22.270,Slot Machine Game,2023.1.3,Win32,59.88023952,,,,,,,,,,,,,,,,,,,,,,,,,,,720,,,,,,,,,,,,,,,,,,,,,10,3,,,628.7126,10,up,0.0852,,0.5,0.3,"[3,1,2]",0.762372073,stimuli/card_100_transparent.png,100,10,0,10,0,1,,,,,,,,,,
,,,,6312bdcf64c0abf681b89dd5,B,2024-06-21_17h05.22.270,Slot Machine Game,2023.1.3,Win32,59.88023952,,,,,,,,,,,,,,,,,,,,,,,,,,,730,,,,,,,,,,,,,,,,,,,,,10,3,,,630.1293,11,up,0.0505,,0.5,0.3,"[3,1,2]",0.110736461,stimuli/card_10_transparent.png,10,11,0,11,0,1,,,,,,,,,,
,,,,6312bdcf64c0abf681b89dd5,B,2024-06-21_17h05.22.270,Slot Machine Game,2023.1.3,Win32,59.88023952,,,,,,,,,,,,,,,,,,,,,,,,,,,740,,,,,,,,,,,,,,,,,,,,,10,3,,,631.5108,12,up,0.1164,,1.5,0.3,"[3,1,2]",0.182550061,stimuli/card_10_transparent.png,10,12,0,12,0,1,,,,,,,,,,
,,,,6312bdcf64c0abf681b89dd5,B,2024-06-21_17h05.22.270,Slot Machine Game,2023.1.3,Win32,59.88023952,,,,,,,,,,,,,,,,,,,,,,,,,,,750,,,,,,,,,,,,,,,,,,,,,10,3,,,633.96,13,up,0.4791,,0.5,0.3,"[3,1,2]",0.169209044,stimuli/card_10_transparent.png,10,13,0,13,0,1,,,,,,,,,,
,,,,6312bdcf64c0abf681b89dd5,B,2024-06-21_17h05.22.270,Slot Machine Game,2023.1.3,Win32,59.88023952,,,,,,,,,,,,,,,,,,,,,,,,,,,760,,,,,,,,,,,,,,,,,,,,,10,3,,,635.7762,14,right,1.917,,0.5,0.3,"[3,1,2]",0.884825064,stimuli/card_10_transparent.png,10,14,0,14,0,1,,,,,,,,,,
,,,,6312bdcf64c0abf681b89dd5,B,2024-06-21_17h05.22.270,Slot Machine Game,2023.1.3,Win32,59.88023952,,,,,,,,,,,,,,,,,,,,,,,,,,,,,,,,,,,639.0116,,,,,,,,,,,,,,,,,,,,,,,,,,,,,,,,,"[1310,550,1120,840,390,830,1130,920,720,760]",9,0,9,0,1,,,,
,,,,6312bdcf64c0abf681b89dd5,B,2024-06-21_17h05.22.270,Slot Machine Game,2023.1.3,Win32,59.88023952,,,,,,,,,,,,,,,,,,,,,,,,,,,,,,,,,,,,,,,,,,,,,,,,,,,,,,,,,,,,,,,,,,,,,,,,,,9,"[1310,550,1120,840,390,830,1130,920,720,760]",11.2,2024-06-21_17h16.10.394
