key_resp_welcome_started,key_resp_welcome_keys,key_resp_welcome_rt,key_resp_welcome_duration,prolific_id,path_id,date,expName,psychopyVersion,OS,frameRate,key_resp_instruction1_started,key_resp_instruction1_keys,key_resp_instruction1_rt,key_resp_instruction1_duration,key_resp_instruction2_started,key_resp_instruction2_keys,key_resp_instruction2_rt,key_resp_instruction2_duration,key_resp_instruction3_started,key_resp_instruction3_keys,key_resp_instruction3_rt,key_resp_instruction3_duration,key_resp_instruction4_started,key_resp_instruction4_keys,key_resp_instruction4_rt,key_resp_instruction4_duration,practiceCondition,practice_reward_seqs,practice_trial_started,practice_trial_num,practice_resp_rt,practice_resp_duration,practice_resp_keys,prac_presentationInterval,"practice_reward_seq: 2,1,3",reward_img,cumulative_reward,trial_reward,practice_trials.thisRepN,practice_trials.thisTrialN,practice_trials.thisN,practice_trials.thisIndex,practice_trials.ran,"practice_reward_seq: 2,3,1",block_break_started,"practice_reward_seq: 1,3,2","practice_reward_seq: 3,1,2",practice_end_time,practice_end_keys,practice_end_rt,practice_end_duration,main_instruction_text_started,block_condition,block_order_indices,main_instruction_keys,main_instruction_rt,main_instruction_duration,block_number,block_assignment,current_condition,main_reward_seqs,main_trial_started,main_trial_num,main_trial_keys,main_trial_rt,main_trial_duration,main_presentationInterval,reward_presentation_time,main_reward_seq,reward_rand_val,main_reward_img,current_reward,main_trials.thisRepN,main_trials.thisTrialN,main_trials.thisN,main_trials.thisIndex,main_trials.ran,block_reward,block.thisRepN,block.thisTrialN,block.thisN,block.thisIndex,block.ran,block_reward.length,block_reward_all,reward_amount,date_end_task
0.0004,space,1.9132,,63136677f717f899a9d12cbc,A,2024-07-10_15h16.15.116,Slot Machine Game,2023.1.3,Win32,59.88023952,,,,,,,,,,,,,,,,,,,,,,,,,,,,,,,,,,,,,,,,,,,,,,,,,,,,,,,,,,,,,,,,,,,,,,,,,,,,,
,,,,63136677f717f899a9d12cbc,A,2024-07-10_15h16.15.116,Slot Machine Game,2023.1.3,Win32,59.88023952,1.9263,space,6.3678,,,,,,,,,,,,,,,,,,,,,,,,,,,,,,,,,,,,,,,,,,,,,,,,,,,,,,,,,,,,,,,,,,,,,,,,,,
,,,,63136677f717f899a9d12cbc,A,2024-07-10_15h16.15.116,Slot Machine Game,2023.1.3,Win32,59.88023952,,,,,8.3214,space,17.0329,,,,,,,,,,,,,,,,,,,,,,,,,,,,,,,,,,,,,,,,,,,,,,,,,,,,,,,,,,,,,,,,,,,,,,
,,,,63136677f717f899a9d12cbc,A,2024-07-10_15h16.15.116,Slot Machine Game,2023.1.3,Win32,59.88023952,,,,,,,,,25.4051,space,6.6435,,,,,,,,,,,,,,,,,,,,,,,,,,,,,,,,,,,,,,,,,,,,,,,,,,,,,,,,,,,,,,,,,,
,,,,63136677f717f899a9d12cbc,A,2024-07-10_15h16.15.116,Slot Machine Game,2023.1.3,Win32,59.88023952,,,,,,,,,,,,,,,,,,,,,,,,,,,,,,,,,,,,,,,,,,,,,,,,,,,,,,,,,,,,,,,,,,,,,,,,,,,,,
,,,,63136677f717f899a9d12cbc,A,2024-07-10_15h16.15.116,Slot Machine Game,2023.1.3,Win32,59.88023952,,,,,,,,,,,,,174.0278,space,4.0763,,,,,,,,,,,,,,,,,,,,,,,,,,,,,,,,,,,,,,,,,,,,,,,,,,,,,,,,,,,,,,
,,,,63136677f717f899a9d12cbc,A,2024-07-10_15h16.15.116,Slot Machine Game,2023.1.3,Win32,59.88023952,,,,,,,,,,,,,,,,,"[9,15]","[[2,1,3],[2,3,1]]",178.1338,0,0.3475,,left,1.5,,stimuli/card_10_transparent.png,10,10,0,0,0,0,1,,,,,,,,,,,,,,,,,,,,,,,,,,,,,,,,,,,,,,,,,,,,
,,,,63136677f717f899a9d12cbc,A,2024-07-10_15h16.15.116,Slot Machine Game,2023.1.3,Win32,59.88023952,,,,,,,,,,,,,,,,,,,180.8017,1,0.0846,,left,1.5,,stimuli/card_10_transparent.png,20,10,1,0,1,0,1,,,,,,,,,,,,,,,,,,,,,,,,,,,,,,,,,,,,,,,,,,,,
,,,,63136677f717f899a9d12cbc,A,2024-07-10_15h16.15.116,Slot Machine Game,2023.1.3,Win32,59.88023952,,,,,,,,,,,,,,,,,,,183.2154,2,2.6458,,up,0.5,,stimuli/card_10_transparent.png,30,10,2,0,2,0,1,,,,,,,,,,,,,,,,,,,,,,,,,,,,,,,,,,,,,,,,,,,,
,,,,63136677f717f899a9d12cbc,A,2024-07-10_15h16.15.116,Slot Machine Game,2023.1.3,Win32,59.88023952,,,,,,,,,,,,,,,,,,,187.1955,3,0.1839,,right,0.5,,stimuli/card_0_transparent.png,30,0,3,0,3,0,1,,,,,,,,,,,,,,,,,,,,,,,,,,,,,,,,,,,,,,,,,,,,
,,,,63136677f717f899a9d12cbc,A,2024-07-10_15h16.15.116,Slot Machine Game,2023.1.3,Win32,59.88023952,,,,,,,,,,,,,,,,,,,188.711,4,2.0864,,right,1.5,,stimuli/card_0_transparent.png,30,0,4,0,4,0,1,,,,,,,,,,,,,,,,,,,,,,,,,,,,,,,,,,,,,,,,,,,,
,,,,63136677f717f899a9d12cbc,A,2024-07-10_15h16.15.116,Slot Machine Game,2023.1.3,Win32,59.88023952,,,,,,,,,,,,,,,,,,,193.1237,5,2.1596,,up,1,,stimuli/card_10_transparent.png,40,10,5,0,5,0,1,,,,,,,,,,,,,,,,,,,,,,,,,,,,,,,,,,,,,,,,,,,,
,,,,63136677f717f899a9d12cbc,A,2024-07-10_15h16.15.116,Slot Machine Game,2023.1.3,Win32,59.88023952,,,,,,,,,,,,,,,,,,,197.1036,6,0.47,,left,1,,stimuli/card_0_transparent.png,40,0,6,0,6,0,1,,,,,,,,,,,,,,,,,,,,,,,,,,,,,,,,,,,,,,,,,,,,
,,,,63136677f717f899a9d12cbc,A,2024-07-10_15h16.15.116,Slot Machine Game,2023.1.3,Win32,59.88023952,,,,,,,,,,,,,,,,,,,199.4015,7,0.0617,,left,0.5,,stimuli/card_100_transparent.png,140,100,7,0,7,0,1,,,,,,,,,,,,,,,,,,,,,,,,,,,,,,,,,,,,,,,,,,,,
,,,,63136677f717f899a9d12cbc,A,2024-07-10_15h16.15.116,Slot Machine Game,2023.1.3,Win32,59.88023952,,,,,,,,,,,,,,,,,,,200.7837,8,0.3107,,left,1,,stimuli/card_10_transparent.png,150,10,8,0,8,0,1,,,,,,,,,,,,,,,,,,,,,,,,,,,,,,,,,,,,,,,,,,,,
,,,,63136677f717f899a9d12cbc,A,2024-07-10_15h16.15.116,Slot Machine Game,2023.1.3,Win32,59.88023952,,,,,,,,,,,,,,,,,,,202.915,9,2.3509,,left,0.5,,stimuli/card_10_transparent.png,160,10,9,0,9,0,1,,,,,,,,,,,,,,,,,,,,,,,,,,,,,,,,,,,,,,,,,,,,
,,,,63136677f717f899a9d12cbc,A,2024-07-10_15h16.15.116,Slot Machine Game,2023.1.3,Win32,59.88023952,,,,,,,,,,,,,,,,,,,206.5952,10,0.6387,,up,1,,stimuli/card_0_transparent.png,160,0,10,0,10,0,1,,,,,,,,,,,,,,,,,,,,,,,,,,,,,,,,,,,,,,,,,,,,
,,,,63136677f717f899a9d12cbc,A,2024-07-10_15h16.15.116,Slot Machine Game,2023.1.3,Win32,59.88023952,,,,,,,,,,,,,,,,,,,209.0596,11,0.5083,,right,1,,stimuli/card_100_transparent.png,260,100,11,0,11,0,1,,,,,,,,,,,,,,,,,,,,,,,,,,,,,,,,,,,,,,,,,,,,
,,,,63136677f717f899a9d12cbc,A,2024-07-10_15h16.15.116,Slot Machine Game,2023.1.3,Win32,59.88023952,,,,,,,,,,,,,,,,,,,211.3912,12,2.1991,,right,0.5,,stimuli/card_100_transparent.png,360,100,12,0,12,0,1,,,,,,,,,,,,,,,,,,,,,,,,,,,,,,,,,,,,,,,,,,,,
,,,,63136677f717f899a9d12cbc,A,2024-07-10_15h16.15.116,Slot Machine Game,2023.1.3,Win32,59.88023952,,,,,,,,,,,,,,,,,,,214.9214,13,0.254,,right,1.5,,stimuli/card_100_transparent.png,460,100,13,0,13,0,1,,,,,,,,,,,,,,,,,,,,,,,,,,,,,,,,,,,,,,,,,,,,
,,,,63136677f717f899a9d12cbc,A,2024-07-10_15h16.15.116,Slot Machine Game,2023.1.3,Win32,59.88023952,,,,,,,,,,,,,,,,,,,217.5024,14,0.0113,,right,1.5,,stimuli/card_100_transparent.png,560,100,14,0,14,0,1,,,,,,,,,,,,,,,,,,,,,,,,,,,,,,,,,,,,,,,,,,,,
,,,,63136677f717f899a9d12cbc,A,2024-07-10_15h16.15.116,Slot Machine Game,2023.1.3,Win32,59.88023952,,,,,,,,,,,,,,,,,"[6,15]","[[1,3,2],[3,1,2]]",224.8553,0,0.0006,,right,1.5,,stimuli/card_100_transparent.png,100,100,0,0,0,0,1,,219.8455,,,,,,,,,,,,,,,,,,,,,,,,,,,,,,,,,,,,,,,,,,
,,,,63136677f717f899a9d12cbc,A,2024-07-10_15h16.15.116,Slot Machine Game,2023.1.3,Win32,59.88023952,,,,,,,,,,,,,,,,,,,227.1771,1,3.4408,,right,1.5,,stimuli/card_10_transparent.png,110,10,1,0,1,0,1,,,,,,,,,,,,,,,,,,,,,,,,,,,,,,,,,,,,,,,,,,,,
,,,,63136677f717f899a9d12cbc,A,2024-07-10_15h16.15.116,Slot Machine Game,2023.1.3,Win32,59.88023952,,,,,,,,,,,,,,,,,,,232.9389,2,3.0035,,right,0.5,,stimuli/card_100_transparent.png,210,100,2,0,2,0,1,,,,,,,,,,,,,,,,,,,,,,,,,,,,,,,,,,,,,,,,,,,,
,,,,63136677f717f899a9d12cbc,A,2024-07-10_15h16.15.116,Slot Machine Game,2023.1.3,Win32,59.88023952,,,,,,,,,,,,,,,,,,,237.2684,3,0.217,,right,1,,stimuli/card_100_transparent.png,310,100,3,0,3,0,1,,,,,,,,,,,,,,,,,,,,,,,,,,,,,,,,,,,,,,,,,,,,
,,,,63136677f717f899a9d12cbc,A,2024-07-10_15h16.15.116,Slot Machine Game,2023.1.3,Win32,59.88023952,,,,,,,,,,,,,,,,,,,239.3163,4,0.2413,,right,0.5,,stimuli/card_0_transparent.png,310,0,4,0,4,0,1,,,,,,,,,,,,,,,,,,,,,,,,,,,,,,,,,,,,,,,,,,,,
,,,,63136677f717f899a9d12cbc,A,2024-07-10_15h16.15.116,Slot Machine Game,2023.1.3,Win32,59.88023952,,,,,,,,,,,,,,,,,,,240.882,5,0.0085,,right,1.5,,stimuli/card_10_transparent.png,320,10,5,0,5,0,1,,,,,,,,,,,,,,,,,,,,,,,,,,,,,,,,,,,,,,,,,,,,
,,,,63136677f717f899a9d12cbc,A,2024-07-10_15h16.15.116,Slot Machine Game,2023.1.3,Win32,59.88023952,,,,,,,,,,,,,,,,,,,243.2133,6,2.856,,right,0.5,,stimuli/card_10_transparent.png,330,10,6,0,6,0,1,,,,,,,,,,,,,,,,,,,,,,,,,,,,,,,,,,,,,,,,,,,,
,,,,63136677f717f899a9d12cbc,A,2024-07-10_15h16.15.116,Slot Machine Game,2023.1.3,Win32,59.88023952,,,,,,,,,,,,,,,,,,,247.393,7,0.084,,up,1,,stimuli/card_100_transparent.png,430,100,7,0,7,0,1,,,,,,,,,,,,,,,,,,,,,,,,,,,,,,,,,,,,,,,,,,,,
,,,,63136677f717f899a9d12cbc,A,2024-07-10_15h16.15.116,Slot Machine Game,2023.1.3,Win32,59.88023952,,,,,,,,,,,,,,,,,,,249.3078,8,1.8855,,up,1,,stimuli/card_100_transparent.png,530,100,8,0,8,0,1,,,,,,,,,,,,,,,,,,,,,,,,,,,,,,,,,,,,,,,,,,,,
,,,,63136677f717f899a9d12cbc,A,2024-07-10_15h16.15.116,Slot Machine Game,2023.1.3,Win32,59.88023952,,,,,,,,,,,,,,,,,,,253.0214,9,0.3513,,up,1,,stimuli/card_100_transparent.png,630,100,9,0,9,0,1,,,,,,,,,,,,,,,,,,,,,,,,,,,,,,,,,,,,,,,,,,,,
,,,,63136677f717f899a9d12cbc,A,2024-07-10_15h16.15.116,Slot Machine Game,2023.1.3,Win32,59.88023952,,,,,,,,,,,,,,,,,,,255.2029,10,0.2663,,up,1.5,,stimuli/card_100_transparent.png,730,100,10,0,10,0,1,,,,,,,,,,,,,,,,,,,,,,,,,,,,,,,,,,,,,,,,,,,,
,,,,63136677f717f899a9d12cbc,A,2024-07-10_15h16.15.116,Slot Machine Game,2023.1.3,Win32,59.88023952,,,,,,,,,,,,,,,,,,,257.8006,11,3.2495,,up,1.5,,stimuli/card_100_transparent.png,830,100,11,0,11,0,1,,,,,,,,,,,,,,,,,,,,,,,,,,,,,,,,,,,,,,,,,,,,
,,,,63136677f717f899a9d12cbc,A,2024-07-10_15h16.15.116,Slot Machine Game,2023.1.3,Win32,59.88023952,,,,,,,,,,,,,,,,,,,263.3789,12,0.1545,,up,0.5,,stimuli/card_100_transparent.png,930,100,12,0,12,0,1,,,,,,,,,,,,,,,,,,,,,,,,,,,,,,,,,,,,,,,,,,,,
,,,,63136677f717f899a9d12cbc,A,2024-07-10_15h16.15.116,Slot Machine Game,2023.1.3,Win32,59.88023952,,,,,,,,,,,,,,,,,,,264.861,13,0.3029,,up,0.5,,stimuli/card_100_transparent.png,1030,100,13,0,13,0,1,,,,,,,,,,,,,,,,,,,,,,,,,,,,,,,,,,,,,,,,,,,,
,,,,63136677f717f899a9d12cbc,A,2024-07-10_15h16.15.116,Slot Machine Game,2023.1.3,Win32,59.88023952,,,,,,,,,,,,,,,,,,,266.4929,14,0.4118,,up,0.5,,stimuli/card_100_transparent.png,1130,100,14,0,14,0,1,,,,,,,,,,,,,,,,,,,,,,,,,,,,,,,,,,,,,,,,,,,,
,,,,63136677f717f899a9d12cbc,A,2024-07-10_15h16.15.116,Slot Machine Game,2023.1.3,Win32,59.88023952,,,,,,,,,,,,,,,,,,,,,,,,,,,,,,,,,,,268.2247,,,273.2216,space,1.8739,,,,,,,,,,,,,,,,,,,,,,,,,,,,,,,,,,,,,
,,,,63136677f717f899a9d12cbc,A,2024-07-10_15h16.15.116,Slot Machine Game,2023.1.3,Win32,59.88023952,,,,,,,,,,,,,,,,,,,,,,,,,,,,,,,,,,,,,,,,,,275.1199,2,"[2,4,8,0,1,3,9,6,8,5]",space,1.0813,,,,,,,,,,,,,,,,,,,,,,,,,,,,,,,
,,,,63136677f717f899a9d12cbc,A,2024-07-10_15h16.15.116,Slot Machine Game,2023.1.3,Win32,59.88023952,,,,,,,,,,,,,,,,,,,,,,,,,,,100,,,,,,,,,,,,,,,,,,,,,1,3,"[15,15]","[[3,1,2],[3,1,2]]",276.231,0,up,0.531,,1,0.3,"[3,1,2]",0.813835629,stimuli/card_100_transparent.png,100,0,0,0,0,1,,,,,,,,,,
,,,,63136677f717f899a9d12cbc,A,2024-07-10_15h16.15.116,Slot Machine Game,2023.1.3,Win32,59.88023952,,,,,,,,,,,,,,,,,,,,,,,,,,,200,,,,,,,,,,,,,,,,,,,,,1,3,,,278.5827,1,up,0.0227,,1.5,0.3,"[3,1,2]",0.303574495,stimuli/card_100_transparent.png,100,1,0,1,0,1,,,,,,,,,,
,,,,63136677f717f899a9d12cbc,A,2024-07-10_15h16.15.116,Slot Machine Game,2023.1.3,Win32,59.88023952,,,,,,,,,,,,,,,,,,,,,,,,,,,300,,,,,,,,,,,,,,,,,,,,,1,3,,,280.9306,2,up,0.0225,,1,0.3,"[3,1,2]",0.603386322,stimuli/card_100_transparent.png,100,2,0,2,0,1,,,,,,,,,,
,,,,63136677f717f899a9d12cbc,A,2024-07-10_15h16.15.116,Slot Machine Game,2023.1.3,Win32,59.88023952,,,,,,,,,,,,,,,,,,,,,,,,,,,300,,,,,,,,,,,,,,,,,,,,,1,3,,,282.7789,3,up,2.4653,,0.5,0.3,"[3,1,2]",0.037150569,stimuli/card_0_transparent.png,0,3,0,3,0,1,,,,,,,,,,
,,,,63136677f717f899a9d12cbc,A,2024-07-10_15h16.15.116,Slot Machine Game,2023.1.3,Win32,59.88023952,,,,,,,,,,,,,,,,,,,,,,,,,,,400,,,,,,,,,,,,,,,,,,,,,1,3,,,286.5751,4,up,0.1872,,1,0.3,"[3,1,2]",0.223519769,stimuli/card_100_transparent.png,100,4,0,4,0,1,,,,,,,,,,
,,,,63136677f717f899a9d12cbc,A,2024-07-10_15h16.15.116,Slot Machine Game,2023.1.3,Win32,59.88023952,,,,,,,,,,,,,,,,,,,,,,,,,,,500,,,,,,,,,,,,,,,,,,,,,1,3,,,288.5903,5,up,0.1166,,0.5,0.3,"[3,1,2]",0.550187792,stimuli/card_100_transparent.png,100,5,0,5,0,1,,,,,,,,,,
,,,,63136677f717f899a9d12cbc,A,2024-07-10_15h16.15.116,Slot Machine Game,2023.1.3,Win32,59.88023952,,,,,,,,,,,,,,,,,,,,,,,,,,,600,,,,,,,,,,,,,,,,,,,,,1,3,,,290.0388,6,up,0.0732,,1,0.3,"[3,1,2]",0.502572234,stimuli/card_100_transparent.png,100,6,0,6,0,1,,,,,,,,,,
,,,,63136677f717f899a9d12cbc,A,2024-07-10_15h16.15.116,Slot Machine Game,2023.1.3,Win32,59.88023952,,,,,,,,,,,,,,,,,,,,,,,,,,,700,,,,,,,,,,,,,,,,,,,,,1,3,,,291.9374,7,up,0.9236,,0.5,0.3,"[3,1,2]",0.62900734,stimuli/card_100_transparent.png,100,7,0,7,0,1,,,,,,,,,,
,,,,63136677f717f899a9d12cbc,A,2024-07-10_15h16.15.116,Slot Machine Game,2023.1.3,Win32,59.88023952,,,,,,,,,,,,,,,,,,,,,,,,,,,700,,,,,,,,,,,,,,,,,,,,,1,3,,,294.1855,8,up,0.1211,,0.5,0.3,"[3,1,2]",0.004067009,stimuli/card_0_transparent.png,0,8,0,8,0,1,,,,,,,,,,
,,,,63136677f717f899a9d12cbc,A,2024-07-10_15h16.15.116,Slot Machine Game,2023.1.3,Win32,59.88023952,,,,,,,,,,,,,,,,,,,,,,,,,,,800,,,,,,,,,,,,,,,,,,,,,1,3,,,295.6342,9,up,1.0258,,0.5,0.3,"[3,1,2]",0.38005261,stimuli/card_100_transparent.png,100,9,0,9,0,1,,,,,,,,,,
,,,,63136677f717f899a9d12cbc,A,2024-07-10_15h16.15.116,Slot Machine Game,2023.1.3,Win32,59.88023952,,,,,,,,,,,,,,,,,,,,,,,,,,,900,,,,,,,,,,,,,,,,,,,,,1,3,,,297.9823,10,up,0.162,,1,0.3,"[3,1,2]",0.535949742,stimuli/card_100_transparent.png,100,10,0,10,0,1,,,,,,,,,,
,,,,63136677f717f899a9d12cbc,A,2024-07-10_15h16.15.116,Slot Machine Game,2023.1.3,Win32,59.88023952,,,,,,,,,,,,,,,,,,,,,,,,,,,1000,,,,,,,,,,,,,,,,,,,,,1,3,,,299.9637,11,up,0.0582,,0.5,0.3,"[3,1,2]",0.667487395,stimuli/card_100_transparent.png,100,11,0,11,0,1,,,,,,,,,,
,,,,63136677f717f899a9d12cbc,A,2024-07-10_15h16.15.116,Slot Machine Game,2023.1.3,Win32,59.88023952,,,,,,,,,,,,,,,,,,,,,,,,,,,1100,,,,,,,,,,,,,,,,,,,,,1,3,,,301.3458,12,up,0.1214,,0.5,0.3,"[3,1,2]",0.470035866,stimuli/card_100_transparent.png,100,12,0,12,0,1,,,,,,,,,,
,,,,63136677f717f899a9d12cbc,A,2024-07-10_15h16.15.116,Slot Machine Game,2023.1.3,Win32,59.88023952,,,,,,,,,,,,,,,,,,,,,,,,,,,1200,,,,,,,,,,,,,,,,,,,,,1,3,,,302.7946,13,up,0.0171,,1,0.3,"[3,1,2]",0.958267699,stimuli/card_100_transparent.png,100,13,0,13,0,1,,,,,,,,,,
,,,,63136677f717f899a9d12cbc,A,2024-07-10_15h16.15.116,Slot Machine Game,2023.1.3,Win32,59.88023952,,,,,,,,,,,,,,,,,,,,,,,,,,,1300,,,,,,,,,,,,,,,,,,,,,1,3,,,304.6432,14,up,1.4756,,1.5,0.3,"[3,1,2]",0.405623929,stimuli/card_100_transparent.png,100,14,0,14,0,1,,,,,,,,,,
,,,,63136677f717f899a9d12cbc,A,2024-07-10_15h16.15.116,Slot Machine Game,2023.1.3,Win32,59.88023952,,,,,,,,,,,,,,,,,,,,,,,,,,,,,,,,,,,308.4397,,,,,,,,,,,,,,,,,,,,,,,,,,,,,,,,,[1300],0,0,0,0,1,,,,
,,,,63136677f717f899a9d12cbc,A,2024-07-10_15h16.15.116,Slot Machine Game,2023.1.3,Win32,59.88023952,,,,,,,,,,,,,,,,,,,,,,,,,,,10,,,,,,,,,,,,,,,,,,,,,2,5,"[5,15]","[[1,2,3],[3,1,2]]",313.4528,0,up,0.5455,,1.5,0.3,"[1,2,3]",0.546382551,stimuli/card_10_transparent.png,10,0,0,0,0,1,,,,,,,,,,
,,,,63136677f717f899a9d12cbc,A,2024-07-10_15h16.15.116,Slot Machine Game,2023.1.3,Win32,59.88023952,,,,,,,,,,,,,,,,,,,,,,,,,,,20,,,,,,,,,,,,,,,,,,,,,2,5,,,316.317,1,up,0.7369,,0.5,0.3,"[1,2,3]",0.628806009,stimuli/card_10_transparent.png,10,1,0,1,0,1,,,,,,,,,,
,,,,63136677f717f899a9d12cbc,A,2024-07-10_15h16.15.116,Slot Machine Game,2023.1.3,Win32,59.88023952,,,,,,,,,,,,,,,,,,,,,,,,,,,30,,,,,,,,,,,,,,,,,,,,,2,5,,,318.3985,2,up,0.1498,,0.5,0.3,"[1,2,3]",0.278437572,stimuli/card_10_transparent.png,10,2,0,2,0,1,,,,,,,,,,
,,,,63136677f717f899a9d12cbc,A,2024-07-10_15h16.15.116,Slot Machine Game,2023.1.3,Win32,59.88023952,,,,,,,,,,,,,,,,,,,,,,,,,,,30,,,,,,,,,,,,,,,,,,,,,2,5,,,319.8641,3,left,0.2333,,1.5,0.3,"[1,2,3]",0.06353446,stimuli/card_0_transparent.png,0,3,0,3,0,1,,,,,,,,,,
,,,,63136677f717f899a9d12cbc,A,2024-07-10_15h16.15.116,Slot Machine Game,2023.1.3,Win32,59.88023952,,,,,,,,,,,,,,,,,,,,,,,,,,,30,,,,,,,,,,,,,,,,,,,,,2,5,,,322.4283,4,left,1.1799,,1.5,0.3,"[1,2,3]",0.037222981,stimuli/card_0_transparent.png,0,4,0,4,0,1,,,,,,,,,,
,,,,63136677f717f899a9d12cbc,A,2024-07-10_15h16.15.116,Slot Machine Game,2023.1.3,Win32,59.88023952,,,,,,,,,,,,,,,,,,,,,,,,,,,40,,,,,,,,,,,,,,,,,,,,,2,5,,,325.9256,5,right,0.1334,,1.5,0.3,"[3,1,2]",0.449420413,stimuli/card_10_transparent.png,10,5,0,5,0,1,,,,,,,,,,
,,,,63136677f717f899a9d12cbc,A,2024-07-10_15h16.15.116,Slot Machine Game,2023.1.3,Win32,59.88023952,,,,,,,,,,,,,,,,,,,,,,,,,,,50,,,,,,,,,,,,,,,,,,,,,2,5,,,328.3954,6,right,0.4178,,1.5,0.3,"[3,1,2]",0.45561336,stimuli/card_10_transparent.png,10,6,0,6,0,1,,,,,,,,,,
,,,,63136677f717f899a9d12cbc,A,2024-07-10_15h16.15.116,Slot Machine Game,2023.1.3,Win32,59.88023952,,,,,,,,,,,,,,,,,,,,,,,,,,,50,,,,,,,,,,,,,,,,,,,,,2,5,,,331.1596,7,right,0.06,,1,0.3,"[3,1,2]",0.009854683,stimuli/card_0_transparent.png,0,7,0,7,0,1,,,,,,,,,,
,,,,63136677f717f899a9d12cbc,A,2024-07-10_15h16.15.116,Slot Machine Game,2023.1.3,Win32,59.88023952,,,,,,,,,,,,,,,,,,,,,,,,,,,50,,,,,,,,,,,,,,,,,,,,,2,5,,,333.0357,8,left,0.1501,,0.5,0.3,"[3,1,2]",0.77888412,stimuli/card_0_transparent.png,0,8,0,8,0,1,,,,,,,,,,
,,,,63136677f717f899a9d12cbc,A,2024-07-10_15h16.15.116,Slot Machine Game,2023.1.3,Win32,59.88023952,,,,,,,,,,,,,,,,,,,,,,,,,,,150,,,,,,,,,,,,,,,,,,,,,2,5,,,334.5172,9,up,0.0724,,0.5,0.3,"[3,1,2]",0.459699115,stimuli/card_100_transparent.png,100,9,0,9,0,1,,,,,,,,,,
,,,,63136677f717f899a9d12cbc,A,2024-07-10_15h16.15.116,Slot Machine Game,2023.1.3,Win32,59.88023952,,,,,,,,,,,,,,,,,,,,,,,,,,,160,,,,,,,,,,,,,,,,,,,,,2,5,,,335.9332,10,up,0.1903,,1.5,0.3,"[3,1,2]",0.133244117,stimuli/card_10_transparent.png,10,10,0,10,0,1,,,,,,,,,,
,,,,63136677f717f899a9d12cbc,A,2024-07-10_15h16.15.116,Slot Machine Game,2023.1.3,Win32,59.88023952,,,,,,,,,,,,,,,,,,,,,,,,,,,260,,,,,,,,,,,,,,,,,,,,,2,5,,,338.447,11,up,0.4343,,1.5,0.3,"[3,1,2]",0.978270557,stimuli/card_100_transparent.png,100,11,0,11,0,1,,,,,,,,,,
,,,,63136677f717f899a9d12cbc,A,2024-07-10_15h16.15.116,Slot Machine Game,2023.1.3,Win32,59.88023952,,,,,,,,,,,,,,,,,,,,,,,,,,,360,,,,,,,,,,,,,,,,,,,,,2,5,,,341.2116,12,up,0.1171,,0.5,0.3,"[3,1,2]",0.458161695,stimuli/card_100_transparent.png,100,12,0,12,0,1,,,,,,,,,,
,,,,63136677f717f899a9d12cbc,A,2024-07-10_15h16.15.116,Slot Machine Game,2023.1.3,Win32,59.88023952,,,,,,,,,,,,,,,,,,,,,,,,,,,460,,,,,,,,,,,,,,,,,,,,,2,5,,,342.6602,13,up,0.1784,,1.5,0.3,"[3,1,2]",0.986298375,stimuli/card_100_transparent.png,100,13,0,13,0,1,,,,,,,,,,
,,,,63136677f717f899a9d12cbc,A,2024-07-10_15h16.15.116,Slot Machine Game,2023.1.3,Win32,59.88023952,,,,,,,,,,,,,,,,,,,,,,,,,,,460,,,,,,,,,,,,,,,,,,,,,2,5,,,345.1581,14,up,0.4695,,1.5,0.3,"[3,1,2]",0.098514324,stimuli/card_0_transparent.png,0,14,0,14,0,1,,,,,,,,,,
,,,,63136677f717f899a9d12cbc,A,2024-07-10_15h16.15.116,Slot Machine Game,2023.1.3,Win32,59.88023952,,,,,,,,,,,,,,,,,,,,,,,,,,,,,,,,,,,347.973,,,,,,,,,,,,,,,,,,,,,,,,,,,,,,,,,"[1300,460]",1,0,1,0,1,,,,
,,,,63136677f717f899a9d12cbc,A,2024-07-10_15h16.15.116,Slot Machine Game,2023.1.3,Win32,59.88023952,,,,,,,,,,,,,,,,,,,,,,,,,,,0,,,,,,,,,,,,,,,,,,,,,3,9,"[8,15]","[[3,2,1],[3,1,2]]",352.9807,0,up,0.2346,,1.5,0.3,"[3,2,1]",0.023324488,stimuli/card_0_transparent.png,0,0,0,0,0,1,,,,,,,,,,
,,,,63136677f717f899a9d12cbc,A,2024-07-10_15h16.15.116,Slot Machine Game,2023.1.3,Win32,59.88023952,,,,,,,,,,,,,,,,,,,,,,,,,,,10,,,,,,,,,,,,,,,,,,,,,3,9,,,355.5493,1,up,0.222,,1.5,0.3,"[3,2,1]",0.528509408,stimuli/card_10_transparent.png,10,1,0,1,0,1,,,,,,,,,,
,,,,63136677f717f899a9d12cbc,A,2024-07-10_15h16.15.116,Slot Machine Game,2023.1.3,Win32,59.88023952,,,,,,,,,,,,,,,,,,,,,,,,,,,20,,,,,,,,,,,,,,,,,,,,,3,9,,,358.0974,2,up,0.2493,,0.5,0.3,"[3,2,1]",0.243977979,stimuli/card_10_transparent.png,10,2,0,2,0,1,,,,,,,,,,
,,,,63136677f717f899a9d12cbc,A,2024-07-10_15h16.15.116,Slot Machine Game,2023.1.3,Win32,59.88023952,,,,,,,,,,,,,,,,,,,,,,,,,,,30,,,,,,,,,,,,,,,,,,,,,3,9,,,359.6681,3,up,0.2855,,1.5,0.3,"[3,2,1]",0.344297808,stimuli/card_10_transparent.png,10,3,0,3,0,1,,,,,,,,,,
,,,,63136677f717f899a9d12cbc,A,2024-07-10_15h16.15.116,Slot Machine Game,2023.1.3,Win32,59.88023952,,,,,,,,,,,,,,,,,,,,,,,,,,,130,,,,,,,,,,,,,,,,,,,,,3,9,,,362.2937,4,left,0.1169,,0.5,0.3,"[3,2,1]",0.069412512,stimuli/card_100_transparent.png,100,4,0,4,0,1,,,,,,,,,,
,,,,63136677f717f899a9d12cbc,A,2024-07-10_15h16.15.116,Slot Machine Game,2023.1.3,Win32,59.88023952,,,,,,,,,,,,,,,,,,,,,,,,,,,130,,,,,,,,,,,,,,,,,,,,,3,9,,,363.7256,5,left,0.1089,,1.5,0.3,"[3,2,1]",0.90280379,stimuli/card_0_transparent.png,0,5,0,5,0,1,,,,,,,,,,
,,,,63136677f717f899a9d12cbc,A,2024-07-10_15h16.15.116,Slot Machine Game,2023.1.3,Win32,59.88023952,,,,,,,,,,,,,,,,,,,,,,,,,,,130,,,,,,,,,,,,,,,,,,,,,3,9,,,366.1565,6,left,0.3259,,1.5,0.3,"[3,2,1]",0.618364777,stimuli/card_0_transparent.png,0,6,0,6,0,1,,,,,,,,,,
,,,,63136677f717f899a9d12cbc,A,2024-07-10_15h16.15.116,Slot Machine Game,2023.1.3,Win32,59.88023952,,,,,,,,,,,,,,,,,,,,,,,,,,,130,,,,,,,,,,,,,,,,,,,,,3,9,,,368.8048,7,left,0.2797,,1,0.3,"[3,2,1]",0.767341157,stimuli/card_0_transparent.png,0,7,0,7,0,1,,,,,,,,,,
,,,,63136677f717f899a9d12cbc,A,2024-07-10_15h16.15.116,Slot Machine Game,2023.1.3,Win32,59.88023952,,,,,,,,,,,,,,,,,,,,,,,,,,,140,,,,,,,,,,,,,,,,,,,,,3,9,,,370.9191,8,right,0.0666,,1.5,0.3,"[3,1,2]",0.209151635,stimuli/card_10_transparent.png,10,8,0,8,0,1,,,,,,,,,,
,,,,63136677f717f899a9d12cbc,A,2024-07-10_15h16.15.116,Slot Machine Game,2023.1.3,Win32,59.88023952,,,,,,,,,,,,,,,,,,,,,,,,,,,150,,,,,,,,,,,,,,,,,,,,,3,9,,,373.3175,9,right,0.1051,,1.5,0.3,"[3,1,2]",0.50911885,stimuli/card_10_transparent.png,10,9,0,9,0,1,,,,,,,,,,
,,,,63136677f717f899a9d12cbc,A,2024-07-10_15h16.15.116,Slot Machine Game,2023.1.3,Win32,59.88023952,,,,,,,,,,,,,,,,,,,,,,,,,,,150,,,,,,,,,,,,,,,,,,,,,3,9,,,375.7639,10,up,0.0004,,1.5,0.3,"[3,1,2]",0.01289144,stimuli/card_0_transparent.png,0,10,0,10,0,1,,,,,,,,,,
,,,,63136677f717f899a9d12cbc,A,2024-07-10_15h16.15.116,Slot Machine Game,2023.1.3,Win32,59.88023952,,,,,,,,,,,,,,,,,,,,,,,,,,,160,,,,,,,,,,,,,,,,,,,,,3,9,,,378.0962,11,right,1.2822,,1,0.3,"[3,1,2]",0.796314329,stimuli/card_10_transparent.png,10,11,0,11,0,1,,,,,,,,,,
,,,,63136677f717f899a9d12cbc,A,2024-07-10_15h16.15.116,Slot Machine Game,2023.1.3,Win32,59.88023952,,,,,,,,,,,,,,,,,,,,,,,,,,,160,,,,,,,,,,,,,,,,,,,,,3,9,,,381.2118,12,left,0.0703,,0.5,0.3,"[3,1,2]",0.324188542,stimuli/card_0_transparent.png,0,12,0,12,0,1,,,,,,,,,,
,,,,63136677f717f899a9d12cbc,A,2024-07-10_15h16.15.116,Slot Machine Game,2023.1.3,Win32,59.88023952,,,,,,,,,,,,,,,,,,,,,,,,,,,160,,,,,,,,,,,,,,,,,,,,,3,9,,,382.609,13,left,0.0005,,1,0.3,"[3,1,2]",0.961135248,stimuli/card_0_transparent.png,0,13,0,13,0,1,,,,,,,,,,
,,,,63136677f717f899a9d12cbc,A,2024-07-10_15h16.15.116,Slot Machine Game,2023.1.3,Win32,59.88023952,,,,,,,,,,,,,,,,,,,,,,,,,,,260,,,,,,,,,,,,,,,,,,,,,3,9,,,384.4409,14,up,0.2682,,1.5,0.3,"[3,1,2]",0.392423779,stimuli/card_100_transparent.png,100,14,0,14,0,1,,,,,,,,,,
,,,,63136677f717f899a9d12cbc,A,2024-07-10_15h16.15.116,Slot Machine Game,2023.1.3,Win32,59.88023952,,,,,,,,,,,,,,,,,,,,,,,,,,,,,,,,,,,387.0386,,,,,,,,,,,,,,,,,,,,,,,,,,,,,,,,,"[1300,460,260]",2,0,2,0,1,,,,
,,,,63136677f717f899a9d12cbc,A,2024-07-10_15h16.15.116,Slot Machine Game,2023.1.3,Win32,59.88023952,,,,,,,,,,,,,,,,,,,,,,,,,,,100,,,,,,,,,,,,,,,,,,,,,4,1,"[12,15]","[[2,1,3],[2,3,1]]",392.0461,0,up,0.0006,,1.5,0.3,"[2,1,3]",0.610662115,stimuli/card_100_transparent.png,100,0,0,0,0,1,,,,,,,,,,
,,,,63136677f717f899a9d12cbc,A,2024-07-10_15h16.15.116,Slot Machine Game,2023.1.3,Win32,59.88023952,,,,,,,,,,,,,,,,,,,,,,,,,,,200,,,,,,,,,,,,,,,,,,,,,4,1,,,394.3658,1,up,0.2328,,0.5,0.3,"[2,1,3]",0.895689872,stimuli/card_100_transparent.png,100,1,0,1,0,1,,,,,,,,,,
,,,,63136677f717f899a9d12cbc,A,2024-07-10_15h16.15.116,Slot Machine Game,2023.1.3,Win32,59.88023952,,,,,,,,,,,,,,,,,,,,,,,,,,,200,,,,,,,,,,,,,,,,,,,,,4,1,,,395.9142,2,up,0.1628,,0.5,0.3,"[2,1,3]",0.086505155,stimuli/card_0_transparent.png,0,2,0,2,0,1,,,,,,,,,,
,,,,63136677f717f899a9d12cbc,A,2024-07-10_15h16.15.116,Slot Machine Game,2023.1.3,Win32,59.88023952,,,,,,,,,,,,,,,,,,,,,,,,,,,300,,,,,,,,,,,,,,,,,,,,,4,1,,,397.3965,3,up,0.1164,,0.5,0.3,"[2,1,3]",0.304359117,stimuli/card_100_transparent.png,100,3,0,3,0,1,,,,,,,,,,
,,,,63136677f717f899a9d12cbc,A,2024-07-10_15h16.15.116,Slot Machine Game,2023.1.3,Win32,59.88023952,,,,,,,,,,,,,,,,,,,,,,,,,,,400,,,,,,,,,,,,,,,,,,,,,4,1,,,398.8448,4,up,0.0564,,1.5,0.3,"[2,1,3]",0.60246444,stimuli/card_100_transparent.png,100,4,0,4,0,1,,,,,,,,,,
,,,,63136677f717f899a9d12cbc,A,2024-07-10_15h16.15.116,Slot Machine Game,2023.1.3,Win32,59.88023952,,,,,,,,,,,,,,,,,,,,,,,,,,,500,,,,,,,,,,,,,,,,,,,,,4,1,,,401.2261,5,up,0.2175,,1,0.3,"[2,1,3]",0.694133938,stimuli/card_100_transparent.png,100,5,0,5,0,1,,,,,,,,,,
,,,,63136677f717f899a9d12cbc,A,2024-07-10_15h16.15.116,Slot Machine Game,2023.1.3,Win32,59.88023952,,,,,,,,,,,,,,,,,,,,,,,,,,,600,,,,,,,,,,,,,,,,,,,,,4,1,,,403.2578,6,up,0.3389,,0.5,0.3,"[2,1,3]",0.570179004,stimuli/card_100_transparent.png,100,6,0,6,0,1,,,,,,,,,,
,,,,63136677f717f899a9d12cbc,A,2024-07-10_15h16.15.116,Slot Machine Game,2023.1.3,Win32,59.88023952,,,,,,,,,,,,,,,,,,,,,,,,,,,610,,,,,,,,,,,,,,,,,,,,,4,1,,,404.9389,7,up,0.2717,,1,0.3,"[2,1,3]",0.179375272,stimuli/card_10_transparent.png,10,7,0,7,0,1,,,,,,,,,,
,,,,63136677f717f899a9d12cbc,A,2024-07-10_15h16.15.116,Slot Machine Game,2023.1.3,Win32,59.88023952,,,,,,,,,,,,,,,,,,,,,,,,,,,620,,,,,,,,,,,,,,,,,,,,,4,1,,,407.0374,8,up,0.0004,,1,0.3,"[2,1,3]",0.186254683,stimuli/card_10_transparent.png,10,8,0,8,0,1,,,,,,,,,,
,,,,63136677f717f899a9d12cbc,A,2024-07-10_15h16.15.116,Slot Machine Game,2023.1.3,Win32,59.88023952,,,,,,,,,,,,,,,,,,,,,,,,,,,720,,,,,,,,,,,,,,,,,,,,,4,1,,,408.8694,9,up,0.0459,,1.5,0.3,"[2,1,3]",0.26681457,stimuli/card_100_transparent.png,100,9,0,9,0,1,,,,,,,,,,
,,,,63136677f717f899a9d12cbc,A,2024-07-10_15h16.15.116,Slot Machine Game,2023.1.3,Win32,59.88023952,,,,,,,,,,,,,,,,,,,,,,,,,,,720,,,,,,,,,,,,,,,,,,,,,4,1,,,411.2506,10,up,0.0291,,1,0.3,"[2,1,3]",0.069561238,stimuli/card_0_transparent.png,0,10,0,10,0,1,,,,,,,,,,
,,,,63136677f717f899a9d12cbc,A,2024-07-10_15h16.15.116,Slot Machine Game,2023.1.3,Win32,59.88023952,,,,,,,,,,,,,,,,,,,,,,,,,,,820,,,,,,,,,,,,,,,,,,,,,4,1,,,413.1157,11,up,0.1344,,1.5,0.3,"[2,1,3]",0.502448958,stimuli/card_100_transparent.png,100,11,0,11,0,1,,,,,,,,,,
,,,,63136677f717f899a9d12cbc,A,2024-07-10_15h16.15.116,Slot Machine Game,2023.1.3,Win32,59.88023952,,,,,,,,,,,,,,,,,,,,,,,,,,,820,,,,,,,,,,,,,,,,,,,,,4,1,,,415.5804,12,up,0.1083,,1,0.3,"[2,3,1]",0.848484156,stimuli/card_0_transparent.png,0,12,0,12,0,1,,,,,,,,,,
,,,,63136677f717f899a9d12cbc,A,2024-07-10_15h16.15.116,Slot Machine Game,2023.1.3,Win32,59.88023952,,,,,,,,,,,,,,,,,,,,,,,,,,,820,,,,,,,,,,,,,,,,,,,,,4,1,,,417.515,13,up,0.1961,,1,0.3,"[2,3,1]",0.855240042,stimuli/card_0_transparent.png,0,13,0,13,0,1,,,,,,,,,,
,,,,63136677f717f899a9d12cbc,A,2024-07-10_15h16.15.116,Slot Machine Game,2023.1.3,Win32,59.88023952,,,,,,,,,,,,,,,,,,,,,,,,,,,820,,,,,,,,,,,,,,,,,,,,,4,1,,,419.5264,14,up,0.1485,,0.5,0.3,"[2,3,1]",0.451866345,stimuli/card_0_transparent.png,0,14,0,14,0,1,,,,,,,,,,
,,,,63136677f717f899a9d12cbc,A,2024-07-10_15h16.15.116,Slot Machine Game,2023.1.3,Win32,59.88023952,,,,,,,,,,,,,,,,,,,,,,,,,,,,,,,,,,,420.9916,,,,,,,,,,,,,,,,,,,,,,,,,,,,,,,,,"[1300,460,260,820]",3,0,3,0,1,,,,
,,,,63136677f717f899a9d12cbc,A,2024-07-10_15h16.15.116,Slot Machine Game,2023.1.3,Win32,59.88023952,,,,,,,,,,,,,,,,,,,,,,,,,,,100,,,,,,,,,,,,,,,,,,,,,5,2,"[6,15]","[[1,3,2],[3,2,1]]",425.9983,0,up,0.254,,1.5,0.3,"[1,3,2]",0.004334755,stimuli/card_100_transparent.png,100,0,0,0,0,1,,,,,,,,,,
,,,,63136677f717f899a9d12cbc,A,2024-07-10_15h16.15.116,Slot Machine Game,2023.1.3,Win32,59.88023952,,,,,,,,,,,,,,,,,,,,,,,,,,,100,,,,,,,,,,,,,,,,,,,,,5,2,,,428.5866,1,up,0.1358,,0.5,0.3,"[1,3,2]",0.531914541,stimuli/card_0_transparent.png,0,1,0,1,0,1,,,,,,,,,,
,,,,63136677f717f899a9d12cbc,A,2024-07-10_15h16.15.116,Slot Machine Game,2023.1.3,Win32,59.88023952,,,,,,,,,,,,,,,,,,,,,,,,,,,100,,,,,,,,,,,,,,,,,,,,,5,2,,,430.0675,2,up,0.1558,,1.5,0.3,"[1,3,2]",0.370455173,stimuli/card_0_transparent.png,0,2,0,2,0,1,,,,,,,,,,
,,,,63136677f717f899a9d12cbc,A,2024-07-10_15h16.15.116,Slot Machine Game,2023.1.3,Win32,59.88023952,,,,,,,,,,,,,,,,,,,,,,,,,,,100,,,,,,,,,,,,,,,,,,,,,5,2,,,432.5655,3,up,0.4571,,1.5,0.3,"[1,3,2]",0.808775241,stimuli/card_0_transparent.png,0,3,0,3,0,1,,,,,,,,,,
,,,,63136677f717f899a9d12cbc,A,2024-07-10_15h16.15.116,Slot Machine Game,2023.1.3,Win32,59.88023952,,,,,,,,,,,,,,,,,,,,,,,,,,,110,,,,,,,,,,,,,,,,,,,,,5,2,,,435.3464,4,right,0.338,,1,0.3,"[1,3,2]",0.874257611,stimuli/card_10_transparent.png,10,4,0,4,0,1,,,,,,,,,,
,,,,63136677f717f899a9d12cbc,A,2024-07-10_15h16.15.116,Slot Machine Game,2023.1.3,Win32,59.88023952,,,,,,,,,,,,,,,,,,,,,,,,,,,120,,,,,,,,,,,,,,,,,,,,,5,2,,,437.4946,5,right,0.1546,,1,0.3,"[1,3,2]",0.791062951,stimuli/card_10_transparent.png,10,5,0,5,0,1,,,,,,,,,,
,,,,63136677f717f899a9d12cbc,A,2024-07-10_15h16.15.116,Slot Machine Game,2023.1.3,Win32,59.88023952,,,,,,,,,,,,,,,,,,,,,,,,,,,130,,,,,,,,,,,,,,,,,,,,,5,2,,,439.4763,6,up,0.2001,,1.5,0.3,"[3,2,1]",0.773211588,stimuli/card_10_transparent.png,10,6,0,6,0,1,,,,,,,,,,
,,,,63136677f717f899a9d12cbc,A,2024-07-10_15h16.15.116,Slot Machine Game,2023.1.3,Win32,59.88023952,,,,,,,,,,,,,,,,,,,,,,,,,,,230,,,,,,,,,,,,,,,,,,,,,5,2,,,442.0071,7,left,0.1278,,1.5,0.3,"[3,2,1]",0.022094391,stimuli/card_100_transparent.png,100,7,0,7,0,1,,,,,,,,,,
,,,,63136677f717f899a9d12cbc,A,2024-07-10_15h16.15.116,Slot Machine Game,2023.1.3,Win32,59.88023952,,,,,,,,,,,,,,,,,,,,,,,,,,,230,,,,,,,,,,,,,,,,,,,,,5,2,,,444.4719,8,left,0.2682,,1.5,0.3,"[3,2,1]",0.617385683,stimuli/card_0_transparent.png,0,8,0,8,0,1,,,,,,,,,,
,,,,63136677f717f899a9d12cbc,A,2024-07-10_15h16.15.116,Slot Machine Game,2023.1.3,Win32,59.88023952,,,,,,,,,,,,,,,,,,,,,,,,,,,230,,,,,,,,,,,,,,,,,,,,,5,2,,,447.0854,9,left,0.187,,0.5,0.3,"[3,2,1]",0.790732185,stimuli/card_0_transparent.png,0,9,0,9,0,1,,,,,,,,,,
,,,,63136677f717f899a9d12cbc,A,2024-07-10_15h16.15.116,Slot Machine Game,2023.1.3,Win32,59.88023952,,,,,,,,,,,,,,,,,,,,,,,,,,,330,,,,,,,,,,,,,,,,,,,,,5,2,,,448.6017,10,left,0.2371,,1,0.3,"[3,2,1]",0.045325725,stimuli/card_100_transparent.png,100,10,0,10,0,1,,,,,,,,,,
,,,,63136677f717f899a9d12cbc,A,2024-07-10_15h16.15.116,Slot Machine Game,2023.1.3,Win32,59.88023952,,,,,,,,,,,,,,,,,,,,,,,,,,,330,,,,,,,,,,,,,,,,,,,,,5,2,,,450.6664,11,left,1.174,,0.5,0.3,"[3,2,1]",0.459140951,stimuli/card_0_transparent.png,0,11,0,11,0,1,,,,,,,,,,
,,,,63136677f717f899a9d12cbc,A,2024-07-10_15h16.15.116,Slot Machine Game,2023.1.3,Win32,59.88023952,,,,,,,,,,,,,,,,,,,,,,,,,,,340,,,,,,,,,,,,,,,,,,,,,5,2,,,453.1814,12,left,0.2532,,1.5,0.3,"[3,2,1]",0.10301552,stimuli/card_10_transparent.png,10,12,0,12,0,1,,,,,,,,,,
,,,,63136677f717f899a9d12cbc,A,2024-07-10_15h16.15.116,Slot Machine Game,2023.1.3,Win32,59.88023952,,,,,,,,,,,,,,,,,,,,,,,,,,,,,,,,,,,,,,,,,,,,,,,,5,2,,,455.7672,13,,,,1,0.3,,,,,13,0,13,0,1,,,,,,,,,,
,,,,63136677f717f899a9d12cbc,A,2024-07-10_15h16.15.116,Slot Machine Game,2023.1.3,Win32,59.88023952,,,,,,,,,,,,,,,,,,,,,,,,,,,340,,,,,,,,,,,,,,,,,,,,,5,2,,,461.2767,14,left,2.839,,1.5,0.3,"[3,2,1]",0.237899603,stimuli/card_0_transparent.png,0,14,0,14,0,1,,,,,,,,,,
,,,,63136677f717f899a9d12cbc,A,2024-07-10_15h16.15.116,Slot Machine Game,2023.1.3,Win32,59.88023952,,,,,,,,,,,,,,,,,,,,,,,,,,,,,,,,,,,466.453,,,,,,,,,,,,,,,,,,,,,,,,,,,,,,,,,"[1300,460,260,820,340]",4,0,4,0,1,,,,
,,,,63136677f717f899a9d12cbc,A,2024-07-10_15h16.15.116,Slot Machine Game,2023.1.3,Win32,59.88023952,,,,,,,,,,,,,,,,,,,,,,,,,,,10,,,,,,,,,,,,,,,,,,,,,6,4,"[7,15]","[[2,3,1],[1,2,3]]",471.4608,0,left,2.5653,,1.5,0.3,"[2,3,1]",0.254516798,stimuli/card_10_transparent.png,10,0,0,0,0,1,,,,,,,,,,
,,,,63136677f717f899a9d12cbc,A,2024-07-10_15h16.15.116,Slot Machine Game,2023.1.3,Win32,59.88023952,,,,,,,,,,,,,,,,,,,,,,,,,,,20,,,,,,,,,,,,,,,,,,,,,6,4,,,476.3438,1,left,4.2979,,0.5,0.3,"[2,3,1]",0.570302835,stimuli/card_10_transparent.png,10,1,0,1,0,1,,,,,,,,,,
,,,,63136677f717f899a9d12cbc,A,2024-07-10_15h16.15.116,Slot Machine Game,2023.1.3,Win32,59.88023952,,,,,,,,,,,,,,,,,,,,,,,,,,,30,,,,,,,,,,,,,,,,,,,,,6,4,,,481.9884,2,left,0.051,,1,0.3,"[2,3,1]",0.85249258,stimuli/card_10_transparent.png,10,2,0,2,0,1,,,,,,,,,,
,,,,63136677f717f899a9d12cbc,A,2024-07-10_15h16.15.116,Slot Machine Game,2023.1.3,Win32,59.88023952,,,,,,,,,,,,,,,,,,,,,,,,,,,130,,,,,,,,,,,,,,,,,,,,,6,4,,,483.8874,3,right,0.12,,1,0.3,"[2,3,1]",0.970497282,stimuli/card_100_transparent.png,100,3,0,3,0,1,,,,,,,,,,
,,,,63136677f717f899a9d12cbc,A,2024-07-10_15h16.15.116,Slot Machine Game,2023.1.3,Win32,59.88023952,,,,,,,,,,,,,,,,,,,,,,,,,,,140,,,,,,,,,,,,,,,,,,,,,6,4,,,485.8355,4,right,0.3343,,1.5,0.3,"[2,3,1]",0.187733426,stimuli/card_10_transparent.png,10,4,0,4,0,1,,,,,,,,,,
,,,,63136677f717f899a9d12cbc,A,2024-07-10_15h16.15.116,Slot Machine Game,2023.1.3,Win32,59.88023952,,,,,,,,,,,,,,,,,,,,,,,,,,,240,,,,,,,,,,,,,,,,,,,,,6,4,,,488.5002,5,right,0.2152,,0.5,0.3,"[2,3,1]",0.405628382,stimuli/card_100_transparent.png,100,5,0,5,0,1,,,,,,,,,,
,,,,63136677f717f899a9d12cbc,A,2024-07-10_15h16.15.116,Slot Machine Game,2023.1.3,Win32,59.88023952,,,,,,,,,,,,,,,,,,,,,,,,,,,340,,,,,,,,,,,,,,,,,,,,,6,4,,,490.0489,6,right,0.2741,,1.5,0.3,"[2,3,1]",0.372793767,stimuli/card_100_transparent.png,100,6,0,6,0,1,,,,,,,,,,
,,,,63136677f717f899a9d12cbc,A,2024-07-10_15h16.15.116,Slot Machine Game,2023.1.3,Win32,59.88023952,,,,,,,,,,,,,,,,,,,,,,,,,,,340,,,,,,,,,,,,,,,,,,,,,6,4,,,492.6466,7,right,0.251,,0.5,0.3,"[1,2,3]",0.275110266,stimuli/card_0_transparent.png,0,7,0,7,0,1,,,,,,,,,,
,,,,63136677f717f899a9d12cbc,A,2024-07-10_15h16.15.116,Slot Machine Game,2023.1.3,Win32,59.88023952,,,,,,,,,,,,,,,,,,,,,,,,,,,340,,,,,,,,,,,,,,,,,,,,,6,4,,,494.2452,8,right,0.3728,,1.5,0.3,"[1,2,3]",0.24698407,stimuli/card_0_transparent.png,0,8,0,8,0,1,,,,,,,,,,
,,,,63136677f717f899a9d12cbc,A,2024-07-10_15h16.15.116,Slot Machine Game,2023.1.3,Win32,59.88023952,,,,,,,,,,,,,,,,,,,,,,,,,,,340,,,,,,,,,,,,,,,,,,,,,6,4,,,496.9598,9,right,0.3298,,1,0.3,"[1,2,3]",0.325725542,stimuli/card_0_transparent.png,0,9,0,9,0,1,,,,,,,,,,
,,,,63136677f717f899a9d12cbc,A,2024-07-10_15h16.15.116,Slot Machine Game,2023.1.3,Win32,59.88023952,,,,,,,,,,,,,,,,,,,,,,,,,,,350,,,,,,,,,,,,,,,,,,,,,6,4,,,499.1132,10,up,1.1522,,1.5,0.3,"[1,2,3]",0.346206631,stimuli/card_10_transparent.png,10,10,0,10,0,1,,,,,,,,,,
,,,,63136677f717f899a9d12cbc,A,2024-07-10_15h16.15.116,Slot Machine Game,2023.1.3,Win32,59.88023952,,,,,,,,,,,,,,,,,,,,,,,,,,,450,,,,,,,,,,,,,,,,,,,,,6,4,,,502.5877,11,left,0.0205,,1.5,0.3,"[1,2,3]",0.686371451,stimuli/card_100_transparent.png,100,11,0,11,0,1,,,,,,,,,,
,,,,63136677f717f899a9d12cbc,A,2024-07-10_15h16.15.116,Slot Machine Game,2023.1.3,Win32,59.88023952,,,,,,,,,,,,,,,,,,,,,,,,,,,550,,,,,,,,,,,,,,,,,,,,,6,4,,,504.953,12,left,0.267,,1,0.3,"[1,2,3]",0.468090573,stimuli/card_100_transparent.png,100,12,0,12,0,1,,,,,,,,,,
,,,,63136677f717f899a9d12cbc,A,2024-07-10_15h16.15.116,Slot Machine Game,2023.1.3,Win32,59.88023952,,,,,,,,,,,,,,,,,,,,,,,,,,,650,,,,,,,,,,,,,,,,,,,,,6,4,,,507.0506,13,left,0.304,,0.5,0.3,"[1,2,3]",0.587065442,stimuli/card_100_transparent.png,100,13,0,13,0,1,,,,,,,,,,
,,,,63136677f717f899a9d12cbc,A,2024-07-10_15h16.15.116,Slot Machine Game,2023.1.3,Win32,59.88023952,,,,,,,,,,,,,,,,,,,,,,,,,,,750,,,,,,,,,,,,,,,,,,,,,6,4,,,508.6991,14,left,0.0496,,1.5,0.3,"[1,2,3]",0.209923798,stimuli/card_100_transparent.png,100,14,0,14,0,1,,,,,,,,,,
,,,,63136677f717f899a9d12cbc,A,2024-07-10_15h16.15.116,Slot Machine Game,2023.1.3,Win32,59.88023952,,,,,,,,,,,,,,,,,,,,,,,,,,,,,,,,,,,511.0801,,,,,,,,,,,,,,,,,,,,,,,,,,,,,,,,,"[1300,460,260,820,340,750]",5,0,5,0,1,,,,
,,,,63136677f717f899a9d12cbc,A,2024-07-10_15h16.15.116,Slot Machine Game,2023.1.3,Win32,59.88023952,,,,,,,,,,,,,,,,,,,,,,,,,,,0,,,,,,,,,,,,,,,,,,,,,7,10,"[10,15]","[[3,1,2],[1,3,2]]",516.0954,0,left,0.2546,,0.5,0.3,"[3,1,2]",0.393012205,stimuli/card_0_transparent.png,0,0,0,0,0,1,,,,,,,,,,
,,,,63136677f717f899a9d12cbc,A,2024-07-10_15h16.15.116,Slot Machine Game,2023.1.3,Win32,59.88023952,,,,,,,,,,,,,,,,,,,,,,,,,,,0,,,,,,,,,,,,,,,,,,,,,7,10,,,517.6757,1,left,0.018,,0.5,0.3,"[3,1,2]",0.744146918,stimuli/card_0_transparent.png,0,1,0,1,0,1,,,,,,,,,,
,,,,63136677f717f899a9d12cbc,A,2024-07-10_15h16.15.116,Slot Machine Game,2023.1.3,Win32,59.88023952,,,,,,,,,,,,,,,,,,,,,,,,,,,0,,,,,,,,,,,,,,,,,,,,,7,10,,,519.0234,2,left,0.3535,,1,0.3,"[3,1,2]",0.718221586,stimuli/card_0_transparent.png,0,2,0,2,0,1,,,,,,,,,,
,,,,63136677f717f899a9d12cbc,A,2024-07-10_15h16.15.116,Slot Machine Game,2023.1.3,Win32,59.88023952,,,,,,,,,,,,,,,,,,,,,,,,,,,0,,,,,,,,,,,,,,,,,,,,,7,10,,,521.2215,3,up,1.6853,,1,0.3,"[3,1,2]",0.022645564,stimuli/card_0_transparent.png,0,3,0,3,0,1,,,,,,,,,,
,,,,63136677f717f899a9d12cbc,A,2024-07-10_15h16.15.116,Slot Machine Game,2023.1.3,Win32,59.88023952,,,,,,,,,,,,,,,,,,,,,,,,,,,100,,,,,,,,,,,,,,,,,,,,,7,10,,,524.7517,4,up,0.0202,,1,0.3,"[3,1,2]",0.923037018,stimuli/card_100_transparent.png,100,4,0,4,0,1,,,,,,,,,,
,,,,63136677f717f899a9d12cbc,A,2024-07-10_15h16.15.116,Slot Machine Game,2023.1.3,Win32,59.88023952,,,,,,,,,,,,,,,,,,,,,,,,,,,200,,,,,,,,,,,,,,,,,,,,,7,10,,,526.6165,5,up,0.0175,,1,0.3,"[3,1,2]",0.381854632,stimuli/card_100_transparent.png,100,5,0,5,0,1,,,,,,,,,,
,,,,63136677f717f899a9d12cbc,A,2024-07-10_15h16.15.116,Slot Machine Game,2023.1.3,Win32,59.88023952,,,,,,,,,,,,,,,,,,,,,,,,,,,300,,,,,,,,,,,,,,,,,,,,,7,10,,,528.4652,6,up,0.4336,,1.5,0.3,"[3,1,2]",0.720420003,stimuli/card_100_transparent.png,100,6,0,6,0,1,,,,,,,,,,
,,,,63136677f717f899a9d12cbc,A,2024-07-10_15h16.15.116,Slot Machine Game,2023.1.3,Win32,59.88023952,,,,,,,,,,,,,,,,,,,,,,,,,,,400,,,,,,,,,,,,,,,,,,,,,7,10,,,531.2292,7,up,0.104,,1.5,0.3,"[3,1,2]",0.428333829,stimuli/card_100_transparent.png,100,7,0,7,0,1,,,,,,,,,,
,,,,63136677f717f899a9d12cbc,A,2024-07-10_15h16.15.116,Slot Machine Game,2023.1.3,Win32,59.88023952,,,,,,,,,,,,,,,,,,,,,,,,,,,500,,,,,,,,,,,,,,,,,,,,,7,10,,,533.6606,8,up,0.0671,,1.5,0.3,"[3,1,2]",0.984210756,stimuli/card_100_transparent.png,100,8,0,8,0,1,,,,,,,,,,
,,,,63136677f717f899a9d12cbc,A,2024-07-10_15h16.15.116,Slot Machine Game,2023.1.3,Win32,59.88023952,,,,,,,,,,,,,,,,,,,,,,,,,,,600,,,,,,,,,,,,,,,,,,,,,7,10,,,536.0588,9,up,0.0529,,0.5,0.3,"[3,1,2]",0.455501035,stimuli/card_100_transparent.png,100,9,0,9,0,1,,,,,,,,,,
,,,,63136677f717f899a9d12cbc,A,2024-07-10_15h16.15.116,Slot Machine Game,2023.1.3,Win32,59.88023952,,,,,,,,,,,,,,,,,,,,,,,,,,,600,,,,,,,,,,,,,,,,,,,,,7,10,,,537.4568,10,up,2.3647,,0.5,0.3,"[1,3,2]",0.513136006,stimuli/card_0_transparent.png,0,10,0,10,0,1,,,,,,,,,,
,,,,63136677f717f899a9d12cbc,A,2024-07-10_15h16.15.116,Slot Machine Game,2023.1.3,Win32,59.88023952,,,,,,,,,,,,,,,,,,,,,,,,,,,600,,,,,,,,,,,,,,,,,,,,,7,10,,,541.1545,11,up,0.3038,,1.5,0.3,"[1,3,2]",0.748384351,stimuli/card_0_transparent.png,0,11,0,11,0,1,,,,,,,,,,
,,,,63136677f717f899a9d12cbc,A,2024-07-10_15h16.15.116,Slot Machine Game,2023.1.3,Win32,59.88023952,,,,,,,,,,,,,,,,,,,,,,,,,,,600,,,,,,,,,,,,,,,,,,,,,7,10,,,543.8016,12,up,0.0305,,0.5,0.3,"[1,3,2]",0.986092026,stimuli/card_0_transparent.png,0,12,0,12,0,1,,,,,,,,,,
,,,,63136677f717f899a9d12cbc,A,2024-07-10_15h16.15.116,Slot Machine Game,2023.1.3,Win32,59.88023952,,,,,,,,,,,,,,,,,,,,,,,,,,,600,,,,,,,,,,,,,,,,,,,,,7,10,,,545.151,13,up,0.2117,,1.5,0.3,"[1,3,2]",0.91113078,stimuli/card_0_transparent.png,0,13,0,13,0,1,,,,,,,,,,
,,,,63136677f717f899a9d12cbc,A,2024-07-10_15h16.15.116,Slot Machine Game,2023.1.3,Win32,59.88023952,,,,,,,,,,,,,,,,,,,,,,,,,,,610,,,,,,,,,,,,,,,,,,,,,7,10,,,547.6821,14,right,0.5515,,0.5,0.3,"[1,3,2]",0.225933426,stimuli/card_10_transparent.png,10,14,0,14,0,1,,,,,,,,,,
,,,,63136677f717f899a9d12cbc,A,2024-07-10_15h16.15.116,Slot Machine Game,2023.1.3,Win32,59.88023952,,,,,,,,,,,,,,,,,,,,,,,,,,,,,,,,,,,549.5467,,,,,,,,,,,,,,,,,,,,,,,,,,,,,,,,,"[1300,460,260,820,340,750,610]",6,0,6,0,1,,,,
,,,,63136677f717f899a9d12cbc,A,2024-07-10_15h16.15.116,Slot Machine Game,2023.1.3,Win32,59.88023952,,,,,,,,,,,,,,,,,,,,,,,,,,,0,,,,,,,,,,,,,,,,,,,,,8,7,"[9,15]","[[1,3,2],[2,3,1]]",554.5529,0,up,2.0735,,0.5,0.3,"[1,3,2]",0.723387898,stimuli/card_0_transparent.png,0,0,0,0,0,1,,,,,,,,,,
,,,,63136677f717f899a9d12cbc,A,2024-07-10_15h16.15.116,Slot Machine Game,2023.1.3,Win32,59.88023952,,,,,,,,,,,,,,,,,,,,,,,,,,,100,,,,,,,,,,,,,,,,,,,,,8,7,,,557.956,1,right,0.4917,,1.5,0.3,"[1,3,2]",0.112172012,stimuli/card_100_transparent.png,100,1,0,1,0,1,,,,,,,,,,
,,,,63136677f717f899a9d12cbc,A,2024-07-10_15h16.15.116,Slot Machine Game,2023.1.3,Win32,59.88023952,,,,,,,,,,,,,,,,,,,,,,,,,,,110,,,,,,,,,,,,,,,,,,,,,8,7,,,560.77,2,right,0.233,,1,0.3,"[1,3,2]",0.358675382,stimuli/card_10_transparent.png,10,2,0,2,0,1,,,,,,,,,,
,,,,63136677f717f899a9d12cbc,A,2024-07-10_15h16.15.116,Slot Machine Game,2023.1.3,Win32,59.88023952,,,,,,,,,,,,,,,,,,,,,,,,,,,120,,,,,,,,,,,,,,,,,,,,,8,7,,,562.819,3,right,0.2154,,1,0.3,"[1,3,2]",0.961117053,stimuli/card_10_transparent.png,10,3,0,3,0,1,,,,,,,,,,
,,,,63136677f717f899a9d12cbc,A,2024-07-10_15h16.15.116,Slot Machine Game,2023.1.3,Win32,59.88023952,,,,,,,,,,,,,,,,,,,,,,,,,,,120,,,,,,,,,,,,,,,,,,,,,8,7,,,564.8558,4,right,1.6147,,1,0.3,"[1,3,2]",0.089883755,stimuli/card_0_transparent.png,0,4,0,4,0,1,,,,,,,,,,
,,,,63136677f717f899a9d12cbc,A,2024-07-10_15h16.15.116,Slot Machine Game,2023.1.3,Win32,59.88023952,,,,,,,,,,,,,,,,,,,,,,,,,,,,,,,,,,,,,,,,,,,,,,,,8,7,,,568.2805,5,,,,1,0.3,,,,,5,0,5,0,1,,,,,,,,,,
,,,,63136677f717f899a9d12cbc,A,2024-07-10_15h16.15.116,Slot Machine Game,2023.1.3,Win32,59.88023952,,,,,,,,,,,,,,,,,,,,,,,,,,,,,,,,,,,,,,,,,,,,,,,,8,7,,,573.7933,6,,,,0.5,0.3,,,,,6,0,6,0,1,,,,,,,,,,
,,,,63136677f717f899a9d12cbc,A,2024-07-10_15h16.15.116,Slot Machine Game,2023.1.3,Win32,59.88023952,,,,,,,,,,,,,,,,,,,,,,,,,,,130,,,,,,,,,,,,,,,,,,,,,8,7,,,579.3053,7,right,2.5831,,1,0.3,"[1,3,2]",0.924993661,stimuli/card_10_transparent.png,10,7,0,7,0,1,,,,,,,,,,
,,,,63136677f717f899a9d12cbc,A,2024-07-10_15h16.15.116,Slot Machine Game,2023.1.3,Win32,59.88023952,,,,,,,,,,,,,,,,,,,,,,,,,,,140,,,,,,,,,,,,,,,,,,,,,8,7,,,583.7334,8,right,0.419,,1.5,0.3,"[1,3,2]",0.359475538,stimuli/card_10_transparent.png,10,8,0,8,0,1,,,,,,,,,,
,,,,63136677f717f899a9d12cbc,A,2024-07-10_15h16.15.116,Slot Machine Game,2023.1.3,Win32,59.88023952,,,,,,,,,,,,,,,,,,,,,,,,,,,150,,,,,,,,,,,,,,,,,,,,,8,7,,,586.4815,9,left,0.2789,,1,0.3,"[2,3,1]",0.978530163,stimuli/card_10_transparent.png,10,9,0,9,0,1,,,,,,,,,,
,,,,63136677f717f899a9d12cbc,A,2024-07-10_15h16.15.116,Slot Machine Game,2023.1.3,Win32,59.88023952,,,,,,,,,,,,,,,,,,,,,,,,,,,150,,,,,,,,,,,,,,,,,,,,,8,7,,,588.58,10,up,0.3422,,0.5,0.3,"[2,3,1]",0.390633173,stimuli/card_0_transparent.png,0,10,0,10,0,1,,,,,,,,,,
,,,,63136677f717f899a9d12cbc,A,2024-07-10_15h16.15.116,Slot Machine Game,2023.1.3,Win32,59.88023952,,,,,,,,,,,,,,,,,,,,,,,,,,,150,,,,,,,,,,,,,,,,,,,,,8,7,,,590.2446,11,up,0.3655,,0.5,0.3,"[2,3,1]",0.667022295,stimuli/card_0_transparent.png,0,11,0,11,0,1,,,,,,,,,,
,,,,63136677f717f899a9d12cbc,A,2024-07-10_15h16.15.116,Slot Machine Game,2023.1.3,Win32,59.88023952,,,,,,,,,,,,,,,,,,,,,,,,,,,160,,,,,,,,,,,,,,,,,,,,,8,7,,,591.926,12,left,0.1032,,0.5,0.3,"[2,3,1]",0.209052385,stimuli/card_10_transparent.png,10,12,0,12,0,1,,,,,,,,,,
,,,,63136677f717f899a9d12cbc,A,2024-07-10_15h16.15.116,Slot Machine Game,2023.1.3,Win32,59.88023952,,,,,,,,,,,,,,,,,,,,,,,,,,,160,,,,,,,,,,,,,,,,,,,,,8,7,,,593.375,13,left,0.1,,1.5,0.3,"[2,3,1]",0.024975988,stimuli/card_0_transparent.png,0,13,0,13,0,1,,,,,,,,,,
,,,,63136677f717f899a9d12cbc,A,2024-07-10_15h16.15.116,Slot Machine Game,2023.1.3,Win32,59.88023952,,,,,,,,,,,,,,,,,,,,,,,,,,,170,,,,,,,,,,,,,,,,,,,,,8,7,,,595.8066,14,left,0.1015,,1,0.3,"[2,3,1]",0.784803068,stimuli/card_10_transparent.png,10,14,0,14,0,1,,,,,,,,,,
,,,,63136677f717f899a9d12cbc,A,2024-07-10_15h16.15.116,Slot Machine Game,2023.1.3,Win32,59.88023952,,,,,,,,,,,,,,,,,,,,,,,,,,,,,,,,,,,597.7554,,,,,,,,,,,,,,,,,,,,,,,,,,,,,,,,,"[1300,460,260,820,340,750,610,170]",7,0,7,0,1,,,,
,,,,63136677f717f899a9d12cbc,A,2024-07-10_15h16.15.116,Slot Machine Game,2023.1.3,Win32,59.88023952,,,,,,,,,,,,,,,,,,,,,,,,,,,100,,,,,,,,,,,,,,,,,,,,,9,9,[15],"[[3,1,2]]",602.762,0,up,0.0606,,0.5,0.3,"[3,1,2]",0.828034655,stimuli/card_100_transparent.png,100,0,0,0,0,1,,,,,,,,,,
,,,,63136677f717f899a9d12cbc,A,2024-07-10_15h16.15.116,Slot Machine Game,2023.1.3,Win32,59.88023952,,,,,,,,,,,,,,,,,,,,,,,,,,,100,,,,,,,,,,,,,,,,,,,,,9,9,,,604.1219,1,up,0.1311,,0.5,0.3,"[3,1,2]",0.027578828,stimuli/card_0_transparent.png,0,1,0,1,0,1,,,,,,,,,,
,,,,63136677f717f899a9d12cbc,A,2024-07-10_15h16.15.116,Slot Machine Game,2023.1.3,Win32,59.88023952,,,,,,,,,,,,,,,,,,,,,,,,,,,200,,,,,,,,,,,,,,,,,,,,,9,9,,,605.5808,2,up,0.2828,,0.5,0.3,"[3,1,2]",0.95857321,stimuli/card_100_transparent.png,100,2,0,2,0,1,,,,,,,,,,
,,,,63136677f717f899a9d12cbc,A,2024-07-10_15h16.15.116,Slot Machine Game,2023.1.3,Win32,59.88023952,,,,,,,,,,,,,,,,,,,,,,,,,,,300,,,,,,,,,,,,,,,,,,,,,9,9,,,607.1802,3,up,0.2722,,0.5,0.3,"[3,1,2]",0.253031436,stimuli/card_100_transparent.png,100,3,0,3,0,1,,,,,,,,,,
,,,,63136677f717f899a9d12cbc,A,2024-07-10_15h16.15.116,Slot Machine Game,2023.1.3,Win32,59.88023952,,,,,,,,,,,,,,,,,,,,,,,,,,,400,,,,,,,,,,,,,,,,,,,,,9,9,,,608.801,4,up,0.0259,,0.5,0.3,"[3,1,2]",0.763795827,stimuli/card_100_transparent.png,100,4,0,4,0,1,,,,,,,,,,
,,,,63136677f717f899a9d12cbc,A,2024-07-10_15h16.15.116,Slot Machine Game,2023.1.3,Win32,59.88023952,,,,,,,,,,,,,,,,,,,,,,,,,,,500,,,,,,,,,,,,,,,,,,,,,9,9,,,610.1635,5,up,0.0849,,1.5,0.3,"[3,1,2]",0.59092602,stimuli/card_100_transparent.png,100,5,0,5,0,1,,,,,,,,,,
,,,,63136677f717f899a9d12cbc,A,2024-07-10_15h16.15.116,Slot Machine Game,2023.1.3,Win32,59.88023952,,,,,,,,,,,,,,,,,,,,,,,,,,,600,,,,,,,,,,,,,,,,,,,,,9,9,,,612.5921,6,up,0.0556,,1,0.3,"[3,1,2]",0.208881274,stimuli/card_100_transparent.png,100,6,0,6,0,1,,,,,,,,,,
,,,,63136677f717f899a9d12cbc,A,2024-07-10_15h16.15.116,Slot Machine Game,2023.1.3,Win32,59.88023952,,,,,,,,,,,,,,,,,,,,,,,,,,,700,,,,,,,,,,,,,,,,,,,,,9,9,,,614.4904,7,up,0.1475,,1.5,0.3,"[3,1,2]",0.369869916,stimuli/card_100_transparent.png,100,7,0,7,0,1,,,,,,,,,,
,,,,63136677f717f899a9d12cbc,A,2024-07-10_15h16.15.116,Slot Machine Game,2023.1.3,Win32,59.88023952,,,,,,,,,,,,,,,,,,,,,,,,,,,800,,,,,,,,,,,,,,,,,,,,,9,9,,,616.9549,8,up,0.2383,,1,0.3,"[3,1,2]",0.581185191,stimuli/card_100_transparent.png,100,8,0,8,0,1,,,,,,,,,,
,,,,63136677f717f899a9d12cbc,A,2024-07-10_15h16.15.116,Slot Machine Game,2023.1.3,Win32,59.88023952,,,,,,,,,,,,,,,,,,,,,,,,,,,800,,,,,,,,,,,,,,,,,,,,,9,9,,,619.0194,9,up,0.1882,,1.5,0.3,"[3,1,2]",0.09321513,stimuli/card_0_transparent.png,0,9,0,9,0,1,,,,,,,,,,
,,,,63136677f717f899a9d12cbc,A,2024-07-10_15h16.15.116,Slot Machine Game,2023.1.3,Win32,59.88023952,,,,,,,,,,,,,,,,,,,,,,,,,,,900,,,,,,,,,,,,,,,,,,,,,9,9,,,621.5341,10,up,0.483,,1.5,0.3,"[3,1,2]",0.717226912,stimuli/card_100_transparent.png,100,10,0,10,0,1,,,,,,,,,,
,,,,63136677f717f899a9d12cbc,A,2024-07-10_15h16.15.116,Slot Machine Game,2023.1.3,Win32,59.88023952,,,,,,,,,,,,,,,,,,,,,,,,,,,1000,,,,,,,,,,,,,,,,,,,,,9,9,,,624.3311,11,up,0.0669,,1,0.3,"[3,1,2]",0.52699944,stimuli/card_100_transparent.png,100,11,0,11,0,1,,,,,,,,,,
,,,,63136677f717f899a9d12cbc,A,2024-07-10_15h16.15.116,Slot Machine Game,2023.1.3,Win32,59.88023952,,,,,,,,,,,,,,,,,,,,,,,,,,,1100,,,,,,,,,,,,,,,,,,,,,9,9,,,626.2134,12,up,0.0192,,0.5,0.3,"[3,1,2]",0.483095012,stimuli/card_100_transparent.png,100,12,0,12,0,1,,,,,,,,,,
,,,,63136677f717f899a9d12cbc,A,2024-07-10_15h16.15.116,Slot Machine Game,2023.1.3,Win32,59.88023952,,,,,,,,,,,,,,,,,,,,,,,,,,,1200,,,,,,,,,,,,,,,,,,,,,9,9,,,627.5624,13,up,0.0215,,0.5,0.3,"[3,1,2]",0.227456141,stimuli/card_100_transparent.png,100,13,0,13,0,1,,,,,,,,,,
,,,,63136677f717f899a9d12cbc,A,2024-07-10_15h16.15.116,Slot Machine Game,2023.1.3,Win32,59.88023952,,,,,,,,,,,,,,,,,,,,,,,,,,,1200,,,,,,,,,,,,,,,,,,,,,9,9,,,628.9331,14,up,0.3181,,1.5,0.3,"[3,1,2]",0.070575949,stimuli/card_0_transparent.png,0,14,0,14,0,1,,,,,,,,,,
,,,,63136677f717f899a9d12cbc,A,2024-07-10_15h16.15.116,Slot Machine Game,2023.1.3,Win32,59.88023952,,,,,,,,,,,,,,,,,,,,,,,,,,,,,,,,,,,631.5917,,,,,,,,,,,,,,,,,,,,,,,,,,,,,,,,,"[1300,460,260,820,340,750,610,170,1200]",8,0,8,0,1,,,,
,,,,63136677f717f899a9d12cbc,A,2024-07-10_15h16.15.116,Slot Machine Game,2023.1.3,Win32,59.88023952,,,,,,,,,,,,,,,,,,,,,,,,,,,0,,,,,,,,,,,,,,,,,,,,,10,6,"[4,10,15]","[[2,3,1],[1,3,2],[3,2,1]]",636.6005,0,up,0.0839,,1.5,0.3,"[2,3,1]",0.655913951,stimuli/card_0_transparent.png,0,0,0,0,0,1,,,,,,,,,,
,,,,63136677f717f899a9d12cbc,A,2024-07-10_15h16.15.116,Slot Machine Game,2023.1.3,Win32,59.88023952,,,,,,,,,,,,,,,,,,,,,,,,,,,0,,,,,,,,,,,,,,,,,,,,,10,6,,,639.0022,1,up,0.0252,,1.5,0.3,"[2,3,1]",0.21749048,stimuli/card_0_transparent.png,0,1,0,1,0,1,,,,,,,,,,
,,,,63136677f717f899a9d12cbc,A,2024-07-10_15h16.15.116,Slot Machine Game,2023.1.3,Win32,59.88023952,,,,,,,,,,,,,,,,,,,,,,,,,,,100,,,,,,,,,,,,,,,,,,,,,10,6,,,641.35,2,up,0.0484,,0.5,0.3,"[2,3,1]",0.065042402,stimuli/card_100_transparent.png,100,2,0,2,0,1,,,,,,,,,,
,,,,63136677f717f899a9d12cbc,A,2024-07-10_15h16.15.116,Slot Machine Game,2023.1.3,Win32,59.88023952,,,,,,,,,,,,,,,,,,,,,,,,,,,100,,,,,,,,,,,,,,,,,,,,,10,6,,,642.7324,3,up,0.3832,,0.5,0.3,"[2,3,1]",0.59856744,stimuli/card_0_transparent.png,0,3,0,3,0,1,,,,,,,,,,
,,,,63136677f717f899a9d12cbc,A,2024-07-10_15h16.15.116,Slot Machine Game,2023.1.3,Win32,59.88023952,,,,,,,,,,,,,,,,,,,,,,,,,,,100,,,,,,,,,,,,,,,,,,,,,10,6,,,644.4469,4,up,0.2065,,0.5,0.3,"[1,3,2]",0.505374207,stimuli/card_0_transparent.png,0,4,0,4,0,1,,,,,,,,,,
,,,,63136677f717f899a9d12cbc,A,2024-07-10_15h16.15.116,Slot Machine Game,2023.1.3,Win32,59.88023952,,,,,,,,,,,,,,,,,,,,,,,,,,,100,,,,,,,,,,,,,,,,,,,,,10,6,,,646.0024,5,up,0.3365,,1,0.3,"[1,3,2]",0.255286851,stimuli/card_0_transparent.png,0,5,0,5,0,1,,,,,,,,,,
,,,,63136677f717f899a9d12cbc,A,2024-07-10_15h16.15.116,Slot Machine Game,2023.1.3,Win32,59.88023952,,,,,,,,,,,,,,,,,,,,,,,,,,,110,,,,,,,,,,,,,,,,,,,,,10,6,,,648.1778,6,right,1.1093,,1.5,0.3,"[1,3,2]",0.992160976,stimuli/card_10_transparent.png,10,6,0,6,0,1,,,,,,,,,,
,,,,63136677f717f899a9d12cbc,A,2024-07-10_15h16.15.116,Slot Machine Game,2023.1.3,Win32,59.88023952,,,,,,,,,,,,,,,,,,,,,,,,,,,210,,,,,,,,,,,,,,,,,,,,,10,6,,,651.6245,7,left,0.1209,,1.5,0.3,"[1,3,2]",0.44151213,stimuli/card_100_transparent.png,100,7,0,7,0,1,,,,,,,,,,
,,,,63136677f717f899a9d12cbc,A,2024-07-10_15h16.15.116,Slot Machine Game,2023.1.3,Win32,59.88023952,,,,,,,,,,,,,,,,,,,,,,,,,,,220,,,,,,,,,,,,,,,,,,,,,10,6,,,654.072,8,left,0.3294,,1,0.3,"[1,3,2]",0.140401239,stimuli/card_10_transparent.png,10,8,0,8,0,1,,,,,,,,,,
,,,,63136677f717f899a9d12cbc,A,2024-07-10_15h16.15.116,Slot Machine Game,2023.1.3,Win32,59.88023952,,,,,,,,,,,,,,,,,,,,,,,,,,,320,,,,,,,,,,,,,,,,,,,,,10,6,,,656.2039,9,left,0.0587,,1,0.3,"[1,3,2]",0.800040638,stimuli/card_100_transparent.png,100,9,0,9,0,1,,,,,,,,,,
,,,,63136677f717f899a9d12cbc,A,2024-07-10_15h16.15.116,Slot Machine Game,2023.1.3,Win32,59.88023952,,,,,,,,,,,,,,,,,,,,,,,,,,,330,,,,,,,,,,,,,,,,,,,,,10,6,,,658.102,10,left,0.3005,,1.5,0.3,"[3,2,1]",0.120086358,stimuli/card_10_transparent.png,10,10,0,10,0,1,,,,,,,,,,
,,,,63136677f717f899a9d12cbc,A,2024-07-10_15h16.15.116,Slot Machine Game,2023.1.3,Win32,59.88023952,,,,,,,,,,,,,,,,,,,,,,,,,,,330,,,,,,,,,,,,,,,,,,,,,10,6,,,660.7161,11,left,0.215,,0.5,0.3,"[3,2,1]",0.539034802,stimuli/card_0_transparent.png,0,11,0,11,0,1,,,,,,,,,,
,,,,63136677f717f899a9d12cbc,A,2024-07-10_15h16.15.116,Slot Machine Game,2023.1.3,Win32,59.88023952,,,,,,,,,,,,,,,,,,,,,,,,,,,330,,,,,,,,,,,,,,,,,,,,,10,6,,,662.2379,12,left,0.3507,,1.5,0.3,"[3,2,1]",0.565293906,stimuli/card_0_transparent.png,0,12,0,12,0,1,,,,,,,,,,
,,,,63136677f717f899a9d12cbc,A,2024-07-10_15h16.15.116,Slot Machine Game,2023.1.3,Win32,59.88023952,,,,,,,,,,,,,,,,,,,,,,,,,,,340,,,,,,,,,,,,,,,,,,,,,10,6,,,664.9126,13,left,0.1444,,1.5,0.3,"[3,2,1]",0.122830681,stimuli/card_10_transparent.png,10,13,0,13,0,1,,,,,,,,,,
,,,,63136677f717f899a9d12cbc,A,2024-07-10_15h16.15.116,Slot Machine Game,2023.1.3,Win32,59.88023952,,,,,,,,,,,,,,,,,,,,,,,,,,,350,,,,,,,,,,,,,,,,,,,,,10,6,,,667.3604,14,up,0.7998,,1,0.3,"[3,2,1]",0.835506122,stimuli/card_10_transparent.png,10,14,0,14,0,1,,,,,,,,,,
,,,,63136677f717f899a9d12cbc,A,2024-07-10_15h16.15.116,Slot Machine Game,2023.1.3,Win32,59.88023952,,,,,,,,,,,,,,,,,,,,,,,,,,,,,,,,,,,669.9917,,,,,,,,,,,,,,,,,,,,,,,,,,,,,,,,,"[1300,460,260,820,340,750,610,170,1200,350]",9,0,9,0,1,,,,
,,,,63136677f717f899a9d12cbc,A,2024-07-10_15h16.15.116,Slot Machine Game,2023.1.3,Win32,59.88023952,,,,,,,,,,,,,,,,,,,,,,,,,,,,,,,,,,,,,,,,,,,,,,,,,,,,,,,,,,,,,,,,,,,,,,,,,,9,"[1300,460,260,820,340,750,610,170,1200,350]",6.1,2024-07-10_15h27.34.229
