key_resp_welcome_started,key_resp_welcome_keys,key_resp_welcome_rt,key_resp_welcome_duration,prolific_id,path_id,date,expName,psychopyVersion,OS,frameRate,key_resp_instruction1_started,key_resp_instruction1_keys,key_resp_instruction1_rt,key_resp_instruction1_duration,key_resp_instruction2_started,key_resp_instruction2_keys,key_resp_instruction2_rt,key_resp_instruction2_duration,key_resp_instruction3_started,key_resp_instruction3_keys,key_resp_instruction3_rt,key_resp_instruction3_duration,key_resp_instruction4_started,key_resp_instruction4_keys,key_resp_instruction4_rt,key_resp_instruction4_duration,practiceCondition,practice_reward_seqs,practice_trial_started,practice_trial_num,practice_resp_rt,practice_resp_duration,practice_resp_keys,prac_presentationInterval,"practice_reward_seq: 2,1,3",reward_img,cumulative_reward,trial_reward,practice_trials.thisRepN,practice_trials.thisTrialN,practice_trials.thisN,practice_trials.thisIndex,practice_trials.ran,"practice_reward_seq: 2,3,1",block_break_started,"practice_reward_seq: 1,3,2","practice_reward_seq: 3,1,2",practice_end_time,practice_end_keys,practice_end_rt,practice_end_duration,main_instruction_text_started,block_condition,block_order_indices,main_instruction_keys,main_instruction_rt,main_instruction_duration,block_number,block_assignment,current_condition,main_reward_seqs,main_trial_started,main_trial_num,main_trial_keys,main_trial_rt,main_trial_duration,main_presentationInterval,reward_presentation_time,main_reward_seq,reward_rand_val,main_reward_img,current_reward,main_trials.thisRepN,main_trials.thisTrialN,main_trials.thisN,main_trials.thisIndex,main_trials.ran,block_reward,block.thisRepN,block.thisTrialN,block.thisN,block.thisIndex,block.ran,block_reward.length,block_reward_all,reward_amount,date_end_task
0.0003,down,3.3585,,63220fb95b15e676e19d7af8,B,2024-06-21_22h37.26.214,Slot Machine Game,2023.1.3,Win32,60.24096386,,,,,,,,,,,,,,,,,,,,,,,,,,,,,,,,,,,,,,,,,,,,,,,,,,,,,,,,,,,,,,,,,,,,,,,,,,,,,
,,,,63220fb95b15e676e19d7af8,B,2024-06-21_22h37.26.214,Slot Machine Game,2023.1.3,Win32,60.24096386,3.3737,down,15.0123,,,,,,,,,,,,,,,,,,,,,,,,,,,,,,,,,,,,,,,,,,,,,,,,,,,,,,,,,,,,,,,,,,,,,,,,,,
,,,,63220fb95b15e676e19d7af8,B,2024-06-21_22h37.26.214,Slot Machine Game,2023.1.3,Win32,60.24096386,,,,,18.4148,down,19.2184,,,,,,,,,,,,,,,,,,,,,,,,,,,,,,,,,,,,,,,,,,,,,,,,,,,,,,,,,,,,,,,,,,,,,,
,,,,63220fb95b15e676e19d7af8,B,2024-06-21_22h37.26.214,Slot Machine Game,2023.1.3,Win32,60.24096386,,,,,,,,,37.6699,down,5.5053,,,,,,,,,,,,,,,,,,,,,,,,,,,,,,,,,,,,,,,,,,,,,,,,,,,,,,,,,,,,,,,,,,
,,,,63220fb95b15e676e19d7af8,B,2024-06-21_22h37.26.214,Slot Machine Game,2023.1.3,Win32,60.24096386,,,,,,,,,,,,,,,,,,,,,,,,,,,,,,,,,,,,,,,,,,,,,,,,,,,,,,,,,,,,,,,,,,,,,,,,,,,,,
,,,,63220fb95b15e676e19d7af8,B,2024-06-21_22h37.26.214,Slot Machine Game,2023.1.3,Win32,60.24096386,,,,,,,,,,,,,185.5331,right,1.7105,,,,,,,,,,,,,,,,,,,,,,,,,,,,,,,,,,,,,,,,,,,,,,,,,,,,,,,,,,,,,,
,,,,63220fb95b15e676e19d7af8,B,2024-06-21_22h37.26.214,Slot Machine Game,2023.1.3,Win32,60.24096386,,,,,,,,,,,,,,,,,"[9,15]","[[2,1,3],[2,3,1]]",187.2574,0,0.1011,,right,0.5,,stimuli/card_0_transparent.png,0,0,0,0,0,0,1,,,,,,,,,,,,,,,,,,,,,,,,,,,,,,,,,,,,,,,,,,,,
,,,,63220fb95b15e676e19d7af8,B,2024-06-21_22h37.26.214,Slot Machine Game,2023.1.3,Win32,60.24096386,,,,,,,,,,,,,,,,,,,188.687,1,1.2173,,up,1.5,,stimuli/card_100_transparent.png,100,100,1,0,1,0,1,,,,,,,,,,,,,,,,,,,,,,,,,,,,,,,,,,,,,,,,,,,,
,,,,63220fb95b15e676e19d7af8,B,2024-06-21_22h37.26.214,Slot Machine Game,2023.1.3,Win32,60.24096386,,,,,,,,,,,,,,,,,,,192.2334,2,0.1159,,up,1.5,,stimuli/card_100_transparent.png,200,100,2,0,2,0,1,,,,,,,,,,,,,,,,,,,,,,,,,,,,,,,,,,,,,,,,,,,,
,,,,63220fb95b15e676e19d7af8,B,2024-06-21_22h37.26.214,Slot Machine Game,2023.1.3,Win32,60.24096386,,,,,,,,,,,,,,,,,,,194.6662,3,1.5333,,up,1.5,,stimuli/card_100_transparent.png,300,100,3,0,3,0,1,,,,,,,,,,,,,,,,,,,,,,,,,,,,,,,,,,,,,,,,,,,,
,,,,63220fb95b15e676e19d7af8,B,2024-06-21_22h37.26.214,Slot Machine Game,2023.1.3,Win32,60.24096386,,,,,,,,,,,,,,,,,,,198.5311,4,0.5183,,up,1,,stimuli/card_100_transparent.png,400,100,4,0,4,0,1,,,,,,,,,,,,,,,,,,,,,,,,,,,,,,,,,,,,,,,,,,,,
,,,,63220fb95b15e676e19d7af8,B,2024-06-21_22h37.26.214,Slot Machine Game,2023.1.3,Win32,60.24096386,,,,,,,,,,,,,,,,,,,200.8793,5,0.2353,,up,1,,stimuli/card_100_transparent.png,500,100,5,0,5,0,1,,,,,,,,,,,,,,,,,,,,,,,,,,,,,,,,,,,,,,,,,,,,
,,,,63220fb95b15e676e19d7af8,B,2024-06-21_22h37.26.214,Slot Machine Game,2023.1.3,Win32,60.24096386,,,,,,,,,,,,,,,,,,,202.9448,6,0.0343,,up,1,,stimuli/card_100_transparent.png,600,100,6,0,6,0,1,,,,,,,,,,,,,,,,,,,,,,,,,,,,,,,,,,,,,,,,,,,,
,,,,63220fb95b15e676e19d7af8,B,2024-06-21_22h37.26.214,Slot Machine Game,2023.1.3,Win32,60.24096386,,,,,,,,,,,,,,,,,,,204.81,7,0.0016,,up,1,,stimuli/card_100_transparent.png,700,100,7,0,7,0,1,,,,,,,,,,,,,,,,,,,,,,,,,,,,,,,,,,,,,,,,,,,,
,,,,63220fb95b15e676e19d7af8,B,2024-06-21_22h37.26.214,Slot Machine Game,2023.1.3,Win32,60.24096386,,,,,,,,,,,,,,,,,,,206.6265,8,0.1917,,up,1,,stimuli/card_100_transparent.png,800,100,8,0,8,0,1,,,,,,,,,,,,,,,,,,,,,,,,,,,,,,,,,,,,,,,,,,,,
,,,,63220fb95b15e676e19d7af8,B,2024-06-21_22h37.26.214,Slot Machine Game,2023.1.3,Win32,60.24096386,,,,,,,,,,,,,,,,,,,208.6418,9,0.5262,,up,1.5,,stimuli/card_0_transparent.png,800,0,9,0,9,0,1,,,,,,,,,,,,,,,,,,,,,,,,,,,,,,,,,,,,,,,,,,,,
,,,,63220fb95b15e676e19d7af8,B,2024-06-21_22h37.26.214,Slot Machine Game,2023.1.3,Win32,60.24096386,,,,,,,,,,,,,,,,,,,211.4893,10,0.0555,,up,1.5,,stimuli/card_0_transparent.png,800,0,10,0,10,0,1,,,,,,,,,,,,,,,,,,,,,,,,,,,,,,,,,,,,,,,,,,,,
,,,,63220fb95b15e676e19d7af8,B,2024-06-21_22h37.26.214,Slot Machine Game,2023.1.3,Win32,60.24096386,,,,,,,,,,,,,,,,,,,213.855,11,0.34,,left,0.5,,stimuli/card_10_transparent.png,810,10,11,0,11,0,1,,,,,,,,,,,,,,,,,,,,,,,,,,,,,,,,,,,,,,,,,,,,
,,,,63220fb95b15e676e19d7af8,B,2024-06-21_22h37.26.214,Slot Machine Game,2023.1.3,Win32,60.24096386,,,,,,,,,,,,,,,,,,,215.5207,12,0.0078,,right,0.5,,stimuli/card_100_transparent.png,910,100,12,0,12,0,1,,,,,,,,,,,,,,,,,,,,,,,,,,,,,,,,,,,,,,,,,,,,
,,,,63220fb95b15e676e19d7af8,B,2024-06-21_22h37.26.214,Slot Machine Game,2023.1.3,Win32,60.24096386,,,,,,,,,,,,,,,,,,,216.8375,13,0.3512,,right,1.5,,stimuli/card_100_transparent.png,1010,100,13,0,13,0,1,,,,,,,,,,,,,,,,,,,,,,,,,,,,,,,,,,,,,,,,,,,,
,,,,63220fb95b15e676e19d7af8,B,2024-06-21_22h37.26.214,Slot Machine Game,2023.1.3,Win32,60.24096386,,,,,,,,,,,,,,,,,,,219.519,14,0.0502,,right,1,,stimuli/card_100_transparent.png,1110,100,14,0,14,0,1,,,,,,,,,,,,,,,,,,,,,,,,,,,,,,,,,,,,,,,,,,,,
,,,,63220fb95b15e676e19d7af8,B,2024-06-21_22h37.26.214,Slot Machine Game,2023.1.3,Win32,60.24096386,,,,,,,,,,,,,,,,,"[6,15]","[[1,3,2],[3,1,2]]",226.4293,0,0.0175,,left,1.5,,stimuli/card_100_transparent.png,100,100,0,0,0,0,1,,221.4234,,,,,,,,,,,,,,,,,,,,,,,,,,,,,,,,,,,,,,,,,,
,,,,63220fb95b15e676e19d7af8,B,2024-06-21_22h37.26.214,Slot Machine Game,2023.1.3,Win32,60.24096386,,,,,,,,,,,,,,,,,,,228.7638,1,0.3747,,left,0.5,,stimuli/card_0_transparent.png,100,0,1,0,1,0,1,,,,,,,,,,,,,,,,,,,,,,,,,,,,,,,,,,,,,,,,,,,,
,,,,63220fb95b15e676e19d7af8,B,2024-06-21_22h37.26.214,Slot Machine Game,2023.1.3,Win32,60.24096386,,,,,,,,,,,,,,,,,,,230.4622,2,0.2863,,up,1,,stimuli/card_0_transparent.png,100,0,2,0,2,0,1,,,,,,,,,,,,,,,,,,,,,,,,,,,,,,,,,,,,,,,,,,,,
,,,,63220fb95b15e676e19d7af8,B,2024-06-21_22h37.26.214,Slot Machine Game,2023.1.3,Win32,60.24096386,,,,,,,,,,,,,,,,,,,232.5787,3,0.0507,,right,1.5,,stimuli/card_10_transparent.png,110,10,3,0,3,0,1,,,,,,,,,,,,,,,,,,,,,,,,,,,,,,,,,,,,,,,,,,,,
,,,,63220fb95b15e676e19d7af8,B,2024-06-21_22h37.26.214,Slot Machine Game,2023.1.3,Win32,60.24096386,,,,,,,,,,,,,,,,,,,234.9604,4,0.3077,,left,0.5,,stimuli/card_100_transparent.png,210,100,4,0,4,0,1,,,,,,,,,,,,,,,,,,,,,,,,,,,,,,,,,,,,,,,,,,,,
,,,,63220fb95b15e676e19d7af8,B,2024-06-21_22h37.26.214,Slot Machine Game,2023.1.3,Win32,60.24096386,,,,,,,,,,,,,,,,,,,236.5926,5,0.1512,,left,1.5,,stimuli/card_100_transparent.png,310,100,5,0,5,0,1,,,,,,,,,,,,,,,,,,,,,,,,,,,,,,,,,,,,,,,,,,,,
,,,,63220fb95b15e676e19d7af8,B,2024-06-21_22h37.26.214,Slot Machine Game,2023.1.3,Win32,60.24096386,,,,,,,,,,,,,,,,,,,239.0749,6,0.4658,,left,1.5,,stimuli/card_100_transparent.png,410,100,6,0,6,0,1,,,,,,,,,,,,,,,,,,,,,,,,,,,,,,,,,,,,,,,,,,,,
,,,,63220fb95b15e676e19d7af8,B,2024-06-21_22h37.26.214,Slot Machine Game,2023.1.3,Win32,60.24096386,,,,,,,,,,,,,,,,,,,241.8731,7,0.1588,,left,1.5,,stimuli/card_10_transparent.png,420,10,7,0,7,0,1,,,,,,,,,,,,,,,,,,,,,,,,,,,,,,,,,,,,,,,,,,,,
,,,,63220fb95b15e676e19d7af8,B,2024-06-21_22h37.26.214,Slot Machine Game,2023.1.3,Win32,60.24096386,,,,,,,,,,,,,,,,,,,244.3552,8,0.5839,,left,0.5,,stimuli/card_0_transparent.png,420,0,8,0,8,0,1,,,,,,,,,,,,,,,,,,,,,,,,,,,,,,,,,,,,,,,,,,,,
,,,,63220fb95b15e676e19d7af8,B,2024-06-21_22h37.26.214,Slot Machine Game,2023.1.3,Win32,60.24096386,,,,,,,,,,,,,,,,,,,246.2706,9,0.1007,,up,1,,stimuli/card_100_transparent.png,520,100,9,0,9,0,1,,,,,,,,,,,,,,,,,,,,,,,,,,,,,,,,,,,,,,,,,,,,
,,,,63220fb95b15e676e19d7af8,B,2024-06-21_22h37.26.214,Slot Machine Game,2023.1.3,Win32,60.24096386,,,,,,,,,,,,,,,,,,,248.2029,10,0.0506,,up,1.5,,stimuli/card_100_transparent.png,620,100,10,0,10,0,1,,,,,,,,,,,,,,,,,,,,,,,,,,,,,,,,,,,,,,,,,,,,
,,,,63220fb95b15e676e19d7af8,B,2024-06-21_22h37.26.214,Slot Machine Game,2023.1.3,Win32,60.24096386,,,,,,,,,,,,,,,,,,,250.5852,11,0.0224,,up,0.5,,stimuli/card_100_transparent.png,720,100,11,0,11,0,1,,,,,,,,,,,,,,,,,,,,,,,,,,,,,,,,,,,,,,,,,,,,
,,,,63220fb95b15e676e19d7af8,B,2024-06-21_22h37.26.214,Slot Machine Game,2023.1.3,Win32,60.24096386,,,,,,,,,,,,,,,,,,,251.9336,12,0.125,,up,1.5,,stimuli/card_10_transparent.png,730,10,12,0,12,0,1,,,,,,,,,,,,,,,,,,,,,,,,,,,,,,,,,,,,,,,,,,,,
,,,,63220fb95b15e676e19d7af8,B,2024-06-21_22h37.26.214,Slot Machine Game,2023.1.3,Win32,60.24096386,,,,,,,,,,,,,,,,,,,254.3657,13,0.3313,,up,1,,stimuli/card_100_transparent.png,830,100,13,0,13,0,1,,,,,,,,,,,,,,,,,,,,,,,,,,,,,,,,,,,,,,,,,,,,
,,,,63220fb95b15e676e19d7af8,B,2024-06-21_22h37.26.214,Slot Machine Game,2023.1.3,Win32,60.24096386,,,,,,,,,,,,,,,,,,,256.5312,14,0.1702,,up,1.5,,stimuli/card_100_transparent.png,930,100,14,0,14,0,1,,,,,,,,,,,,,,,,,,,,,,,,,,,,,,,,,,,,,,,,,,,,
,,,,63220fb95b15e676e19d7af8,B,2024-06-21_22h37.26.214,Slot Machine Game,2023.1.3,Win32,60.24096386,,,,,,,,,,,,,,,,,,,,,,,,,,,,,,,,,,,259.0303,,,264.0279,space,2.6945,,,,,,,,,,,,,,,,,,,,,,,,,,,,,,,,,,,,,
,,,,63220fb95b15e676e19d7af8,B,2024-06-21_22h37.26.214,Slot Machine Game,2023.1.3,Win32,60.24096386,,,,,,,,,,,,,,,,,,,,,,,,,,,,,,,,,,,,,,,,,,266.7441,1,"[0,1,2,3,4,5,6,7,8,9]",space,1.9063,,,,,,,,,,,,,,,,,,,,,,,,,,,,,,,
,,,,63220fb95b15e676e19d7af8,B,2024-06-21_22h37.26.214,Slot Machine Game,2023.1.3,Win32,60.24096386,,,,,,,,,,,,,,,,,,,,,,,,,,,100,,,,,,,,,,,,,,,,,,,,,1,1,"[12,15]","[[2,1,3],[2,3,1]]",268.7031,0,up,0.7331,,1,0.3,"[2,1,3]",0.87822228,stimuli/card_100_transparent.png,100,0,0,0,0,1,,,,,,,,,,
,,,,63220fb95b15e676e19d7af8,B,2024-06-21_22h37.26.214,Slot Machine Game,2023.1.3,Win32,60.24096386,,,,,,,,,,,,,,,,,,,,,,,,,,,200,,,,,,,,,,,,,,,,,,,,,1,1,,,271.2577,1,up,0.1531,,1,0.3,"[2,1,3]",0.972873673,stimuli/card_100_transparent.png,100,1,0,1,0,1,,,,,,,,,,
,,,,63220fb95b15e676e19d7af8,B,2024-06-21_22h37.26.214,Slot Machine Game,2023.1.3,Win32,60.24096386,,,,,,,,,,,,,,,,,,,,,,,,,,,300,,,,,,,,,,,,,,,,,,,,,1,1,,,273.2396,2,up,0.687,,0.5,0.3,"[2,1,3]",0.306903443,stimuli/card_100_transparent.png,100,2,0,2,0,1,,,,,,,,,,
,,,,63220fb95b15e676e19d7af8,B,2024-06-21_22h37.26.214,Slot Machine Game,2023.1.3,Win32,60.24096386,,,,,,,,,,,,,,,,,,,,,,,,,,,400,,,,,,,,,,,,,,,,,,,,,1,1,,,275.2548,3,up,0.2148,,0.5,0.3,"[2,1,3]",0.29282668,stimuli/card_100_transparent.png,100,3,0,3,0,1,,,,,,,,,,
,,,,63220fb95b15e676e19d7af8,B,2024-06-21_22h37.26.214,Slot Machine Game,2023.1.3,Win32,60.24096386,,,,,,,,,,,,,,,,,,,,,,,,,,,500,,,,,,,,,,,,,,,,,,,,,1,1,,,276.804,4,up,0.1692,,1,0.3,"[2,1,3]",0.446078812,stimuli/card_100_transparent.png,100,4,0,4,0,1,,,,,,,,,,
,,,,63220fb95b15e676e19d7af8,B,2024-06-21_22h37.26.214,Slot Machine Game,2023.1.3,Win32,60.24096386,,,,,,,,,,,,,,,,,,,,,,,,,,,600,,,,,,,,,,,,,,,,,,,,,1,1,,,278.8027,5,up,0.5978,,1,0.3,"[2,1,3]",0.536168403,stimuli/card_100_transparent.png,100,5,0,5,0,1,,,,,,,,,,
,,,,63220fb95b15e676e19d7af8,B,2024-06-21_22h37.26.214,Slot Machine Game,2023.1.3,Win32,60.24096386,,,,,,,,,,,,,,,,,,,,,,,,,,,700,,,,,,,,,,,,,,,,,,,,,1,1,,,281.235,6,up,0.3413,,1,0.3,"[2,1,3]",0.591139148,stimuli/card_100_transparent.png,100,6,0,6,0,1,,,,,,,,,,
,,,,63220fb95b15e676e19d7af8,B,2024-06-21_22h37.26.214,Slot Machine Game,2023.1.3,Win32,60.24096386,,,,,,,,,,,,,,,,,,,,,,,,,,,800,,,,,,,,,,,,,,,,,,,,,1,1,,,283.4002,7,up,0.0201,,1,0.3,"[2,1,3]",0.259350365,stimuli/card_100_transparent.png,100,7,0,7,0,1,,,,,,,,,,
,,,,63220fb95b15e676e19d7af8,B,2024-06-21_22h37.26.214,Slot Machine Game,2023.1.3,Win32,60.24096386,,,,,,,,,,,,,,,,,,,,,,,,,,,900,,,,,,,,,,,,,,,,,,,,,1,1,,,285.2482,8,up,0.1515,,1,0.3,"[2,1,3]",0.372406781,stimuli/card_100_transparent.png,100,8,0,8,0,1,,,,,,,,,,
,,,,63220fb95b15e676e19d7af8,B,2024-06-21_22h37.26.214,Slot Machine Game,2023.1.3,Win32,60.24096386,,,,,,,,,,,,,,,,,,,,,,,,,,,1000,,,,,,,,,,,,,,,,,,,,,1,1,,,287.2313,9,up,0.7916,,1.5,0.3,"[2,1,3]",0.833632962,stimuli/card_100_transparent.png,100,9,0,9,0,1,,,,,,,,,,
,,,,63220fb95b15e676e19d7af8,B,2024-06-21_22h37.26.214,Slot Machine Game,2023.1.3,Win32,60.24096386,,,,,,,,,,,,,,,,,,,,,,,,,,,1100,,,,,,,,,,,,,,,,,,,,,1,1,,,290.3464,10,up,0.0505,,1,0.3,"[2,1,3]",0.872106393,stimuli/card_100_transparent.png,100,10,0,10,0,1,,,,,,,,,,
,,,,63220fb95b15e676e19d7af8,B,2024-06-21_22h37.26.214,Slot Machine Game,2023.1.3,Win32,60.24096386,,,,,,,,,,,,,,,,,,,,,,,,,,,1200,,,,,,,,,,,,,,,,,,,,,1,1,,,292.2282,11,up,0.6389,,1,0.3,"[2,1,3]",0.865049413,stimuli/card_100_transparent.png,100,11,0,11,0,1,,,,,,,,,,
,,,,63220fb95b15e676e19d7af8,B,2024-06-21_22h37.26.214,Slot Machine Game,2023.1.3,Win32,60.24096386,,,,,,,,,,,,,,,,,,,,,,,,,,,1200,,,,,,,,,,,,,,,,,,,,,1,1,,,294.6777,12,up,0.552,,1.5,0.3,"[2,3,1]",0.947376963,stimuli/card_0_transparent.png,0,12,0,12,0,1,,,,,,,,,,
,,,,63220fb95b15e676e19d7af8,B,2024-06-21_22h37.26.214,Slot Machine Game,2023.1.3,Win32,60.24096386,,,,,,,,,,,,,,,,,,,,,,,,,,,1200,,,,,,,,,,,,,,,,,,,,,1,1,,,297.5596,13,up,0.2105,,1.5,0.3,"[2,3,1]",0.267229472,stimuli/card_0_transparent.png,0,13,0,13,0,1,,,,,,,,,,
,,,,63220fb95b15e676e19d7af8,B,2024-06-21_22h37.26.214,Slot Machine Game,2023.1.3,Win32,60.24096386,,,,,,,,,,,,,,,,,,,,,,,,,,,1300,,,,,,,,,,,,,,,,,,,,,1,1,,,300.0908,14,right,0.3695,,1,0.3,"[2,3,1]",0.558178229,stimuli/card_100_transparent.png,100,14,0,14,0,1,,,,,,,,,,
,,,,63220fb95b15e676e19d7af8,B,2024-06-21_22h37.26.214,Slot Machine Game,2023.1.3,Win32,60.24096386,,,,,,,,,,,,,,,,,,,,,,,,,,,,,,,,,,,302.2903,,,,,,,,,,,,,,,,,,,,,,,,,,,,,,,,,[1300],0,0,0,0,1,,,,
,,,,63220fb95b15e676e19d7af8,B,2024-06-21_22h37.26.214,Slot Machine Game,2023.1.3,Win32,60.24096386,,,,,,,,,,,,,,,,,,,,,,,,,,,100,,,,,,,,,,,,,,,,,,,,,2,2,"[6,15]","[[1,3,2],[3,2,1]]",307.3139,0,left,0.0758,,1,0.3,"[1,3,2]",0.472700296,stimuli/card_100_transparent.png,100,0,0,0,0,1,,,,,,,,,,
,,,,63220fb95b15e676e19d7af8,B,2024-06-21_22h37.26.214,Slot Machine Game,2023.1.3,Win32,60.24096386,,,,,,,,,,,,,,,,,,,,,,,,,,,200,,,,,,,,,,,,,,,,,,,,,2,2,,,309.2029,1,left,0.5514,,0.5,0.3,"[1,3,2]",0.920044365,stimuli/card_100_transparent.png,100,1,0,1,0,1,,,,,,,,,,
,,,,63220fb95b15e676e19d7af8,B,2024-06-21_22h37.26.214,Slot Machine Game,2023.1.3,Win32,60.24096386,,,,,,,,,,,,,,,,,,,,,,,,,,,300,,,,,,,,,,,,,,,,,,,,,2,2,,,311.0848,2,left,0.3819,,1.5,0.3,"[1,3,2]",0.594587051,stimuli/card_100_transparent.png,100,2,0,2,0,1,,,,,,,,,,
,,,,63220fb95b15e676e19d7af8,B,2024-06-21_22h37.26.214,Slot Machine Game,2023.1.3,Win32,60.24096386,,,,,,,,,,,,,,,,,,,,,,,,,,,400,,,,,,,,,,,,,,,,,,,,,2,2,,,313.7999,3,left,0.5173,,0.5,0.3,"[1,3,2]",0.924421718,stimuli/card_100_transparent.png,100,3,0,3,0,1,,,,,,,,,,
,,,,63220fb95b15e676e19d7af8,B,2024-06-21_22h37.26.214,Slot Machine Game,2023.1.3,Win32,60.24096386,,,,,,,,,,,,,,,,,,,,,,,,,,,500,,,,,,,,,,,,,,,,,,,,,2,2,,,315.6319,4,left,0.3733,,1.5,0.3,"[1,3,2]",0.4589111,stimuli/card_100_transparent.png,100,4,0,4,0,1,,,,,,,,,,
,,,,63220fb95b15e676e19d7af8,B,2024-06-21_22h37.26.214,Slot Machine Game,2023.1.3,Win32,60.24096386,,,,,,,,,,,,,,,,,,,,,,,,,,,600,,,,,,,,,,,,,,,,,,,,,2,2,,,318.331,5,left,0.2682,,1,0.3,"[1,3,2]",0.421565144,stimuli/card_100_transparent.png,100,5,0,5,0,1,,,,,,,,,,
,,,,63220fb95b15e676e19d7af8,B,2024-06-21_22h37.26.214,Slot Machine Game,2023.1.3,Win32,60.24096386,,,,,,,,,,,,,,,,,,,,,,,,,,,600,,,,,,,,,,,,,,,,,,,,,2,2,,,320.4297,6,left,0.7224,,0.5,0.3,"[3,2,1]",0.887345258,stimuli/card_0_transparent.png,0,6,0,6,0,1,,,,,,,,,,
,,,,63220fb95b15e676e19d7af8,B,2024-06-21_22h37.26.214,Slot Machine Game,2023.1.3,Win32,60.24096386,,,,,,,,,,,,,,,,,,,,,,,,,,,600,,,,,,,,,,,,,,,,,,,,,2,2,,,322.4787,7,left,0.088,,1.5,0.3,"[3,2,1]",0.682591168,stimuli/card_0_transparent.png,0,7,0,7,0,1,,,,,,,,,,
,,,,63220fb95b15e676e19d7af8,B,2024-06-21_22h37.26.214,Slot Machine Game,2023.1.3,Win32,60.24096386,,,,,,,,,,,,,,,,,,,,,,,,,,,610,,,,,,,,,,,,,,,,,,,,,2,2,,,324.8939,8,up,0.2551,,1,0.3,"[3,2,1]",0.728776289,stimuli/card_10_transparent.png,10,8,0,8,0,1,,,,,,,,,,
,,,,63220fb95b15e676e19d7af8,B,2024-06-21_22h37.26.214,Slot Machine Game,2023.1.3,Win32,60.24096386,,,,,,,,,,,,,,,,,,,,,,,,,,,710,,,,,,,,,,,,,,,,,,,,,2,2,,,326.9756,9,right,0.5083,,1,0.3,"[3,2,1]",0.233451022,stimuli/card_100_transparent.png,100,9,0,9,0,1,,,,,,,,,,
,,,,63220fb95b15e676e19d7af8,B,2024-06-21_22h37.26.214,Slot Machine Game,2023.1.3,Win32,60.24096386,,,,,,,,,,,,,,,,,,,,,,,,,,,810,,,,,,,,,,,,,,,,,,,,,2,2,,,329.3081,10,right,0.0407,,1.5,0.3,"[3,2,1]",0.457543223,stimuli/card_100_transparent.png,100,10,0,10,0,1,,,,,,,,,,
,,,,63220fb95b15e676e19d7af8,B,2024-06-21_22h37.26.214,Slot Machine Game,2023.1.3,Win32,60.24096386,,,,,,,,,,,,,,,,,,,,,,,,,,,910,,,,,,,,,,,,,,,,,,,,,2,2,,,331.6737,11,right,0.1032,,1,0.3,"[3,2,1]",0.650339667,stimuli/card_100_transparent.png,100,11,0,11,0,1,,,,,,,,,,
,,,,63220fb95b15e676e19d7af8,B,2024-06-21_22h37.26.214,Slot Machine Game,2023.1.3,Win32,60.24096386,,,,,,,,,,,,,,,,,,,,,,,,,,,1010,,,,,,,,,,,,,,,,,,,,,2,2,,,333.6059,12,right,0.5825,,1,0.3,"[3,2,1]",0.660079321,stimuli/card_100_transparent.png,100,12,0,12,0,1,,,,,,,,,,
,,,,63220fb95b15e676e19d7af8,B,2024-06-21_22h37.26.214,Slot Machine Game,2023.1.3,Win32,60.24096386,,,,,,,,,,,,,,,,,,,,,,,,,,,1110,,,,,,,,,,,,,,,,,,,,,2,2,,,336.0203,13,right,0.4554,,1,0.3,"[3,2,1]",0.752411818,stimuli/card_100_transparent.png,100,13,0,13,0,1,,,,,,,,,,
,,,,63220fb95b15e676e19d7af8,B,2024-06-21_22h37.26.214,Slot Machine Game,2023.1.3,Win32,60.24096386,,,,,,,,,,,,,,,,,,,,,,,,,,,1210,,,,,,,,,,,,,,,,,,,,,2,2,,,338.2869,14,right,0.4338,,0.5,0.3,"[3,2,1]",0.649489813,stimuli/card_100_transparent.png,100,14,0,14,0,1,,,,,,,,,,
,,,,63220fb95b15e676e19d7af8,B,2024-06-21_22h37.26.214,Slot Machine Game,2023.1.3,Win32,60.24096386,,,,,,,,,,,,,,,,,,,,,,,,,,,,,,,,,,,340.0522,,,,,,,,,,,,,,,,,,,,,,,,,,,,,,,,,"[1300,1210]",1,0,1,0,1,,,,
,,,,63220fb95b15e676e19d7af8,B,2024-06-21_22h37.26.214,Slot Machine Game,2023.1.3,Win32,60.24096386,,,,,,,,,,,,,,,,,,,,,,,,,,,100,,,,,,,,,,,,,,,,,,,,,3,3,"[15,15]","[[3,1,2],[3,1,2]]",345.062,0,up,0.0083,,0.5,0.3,"[3,1,2]",0.787587938,stimuli/card_100_transparent.png,100,0,0,0,0,1,,,,,,,,,,
,,,,63220fb95b15e676e19d7af8,B,2024-06-21_22h37.26.214,Slot Machine Game,2023.1.3,Win32,60.24096386,,,,,,,,,,,,,,,,,,,,,,,,,,,200,,,,,,,,,,,,,,,,,,,,,3,3,,,346.382,1,up,0.3544,,1,0.3,"[3,1,2]",0.983010964,stimuli/card_100_transparent.png,100,1,0,1,0,1,,,,,,,,,,
,,,,63220fb95b15e676e19d7af8,B,2024-06-21_22h37.26.214,Slot Machine Game,2023.1.3,Win32,60.24096386,,,,,,,,,,,,,,,,,,,,,,,,,,,300,,,,,,,,,,,,,,,,,,,,,3,3,,,348.5642,2,up,0.3521,,1,0.3,"[3,1,2]",0.579032889,stimuli/card_100_transparent.png,100,2,0,2,0,1,,,,,,,,,,
,,,,63220fb95b15e676e19d7af8,B,2024-06-21_22h37.26.214,Slot Machine Game,2023.1.3,Win32,60.24096386,,,,,,,,,,,,,,,,,,,,,,,,,,,400,,,,,,,,,,,,,,,,,,,,,3,3,,,350.7463,3,up,0.0172,,0.5,0.3,"[3,1,2]",0.93473053,stimuli/card_100_transparent.png,100,3,0,3,0,1,,,,,,,,,,
,,,,63220fb95b15e676e19d7af8,B,2024-06-21_22h37.26.214,Slot Machine Game,2023.1.3,Win32,60.24096386,,,,,,,,,,,,,,,,,,,,,,,,,,,500,,,,,,,,,,,,,,,,,,,,,3,3,,,352.0953,4,up,0.0007,,1.5,0.3,"[3,1,2]",0.688925566,stimuli/card_100_transparent.png,100,4,0,4,0,1,,,,,,,,,,
,,,,63220fb95b15e676e19d7af8,B,2024-06-21_22h37.26.214,Slot Machine Game,2023.1.3,Win32,60.24096386,,,,,,,,,,,,,,,,,,,,,,,,,,,600,,,,,,,,,,,,,,,,,,,,,3,3,,,354.4277,5,up,0.103,,0.5,0.3,"[3,1,2]",0.464929698,stimuli/card_100_transparent.png,100,5,0,5,0,1,,,,,,,,,,
,,,,63220fb95b15e676e19d7af8,B,2024-06-21_22h37.26.214,Slot Machine Game,2023.1.3,Win32,60.24096386,,,,,,,,,,,,,,,,,,,,,,,,,,,700,,,,,,,,,,,,,,,,,,,,,3,3,,,355.8604,6,up,0.4417,,1,0.3,"[3,1,2]",0.796546964,stimuli/card_100_transparent.png,100,6,0,6,0,1,,,,,,,,,,
,,,,63220fb95b15e676e19d7af8,B,2024-06-21_22h37.26.214,Slot Machine Game,2023.1.3,Win32,60.24096386,,,,,,,,,,,,,,,,,,,,,,,,,,,800,,,,,,,,,,,,,,,,,,,,,3,3,,,358.1259,7,up,0.9299,,0.5,0.3,"[3,1,2]",0.956817284,stimuli/card_100_transparent.png,100,7,0,7,0,1,,,,,,,,,,
,,,,63220fb95b15e676e19d7af8,B,2024-06-21_22h37.26.214,Slot Machine Game,2023.1.3,Win32,60.24096386,,,,,,,,,,,,,,,,,,,,,,,,,,,900,,,,,,,,,,,,,,,,,,,,,3,3,,,360.3909,8,up,0.2566,,1.5,0.3,"[3,1,2]",0.655571688,stimuli/card_100_transparent.png,100,8,0,8,0,1,,,,,,,,,,
,,,,63220fb95b15e676e19d7af8,B,2024-06-21_22h37.26.214,Slot Machine Game,2023.1.3,Win32,60.24096386,,,,,,,,,,,,,,,,,,,,,,,,,,,1000,,,,,,,,,,,,,,,,,,,,,3,3,,,362.972,9,up,0.0716,,1.5,0.3,"[3,1,2]",0.220426937,stimuli/card_100_transparent.png,100,9,0,9,0,1,,,,,,,,,,
,,,,63220fb95b15e676e19d7af8,B,2024-06-21_22h37.26.214,Slot Machine Game,2023.1.3,Win32,60.24096386,,,,,,,,,,,,,,,,,,,,,,,,,,,1100,,,,,,,,,,,,,,,,,,,,,3,3,,,365.355,10,up,0.8508,,1,0.3,"[3,1,2]",0.325276619,stimuli/card_100_transparent.png,100,10,0,10,0,1,,,,,,,,,,
,,,,63220fb95b15e676e19d7af8,B,2024-06-21_22h37.26.214,Slot Machine Game,2023.1.3,Win32,60.24096386,,,,,,,,,,,,,,,,,,,,,,,,,,,1200,,,,,,,,,,,,,,,,,,,,,3,3,,,368.036,11,up,0.1365,,0.5,0.3,"[3,1,2]",0.573064798,stimuli/card_100_transparent.png,100,11,0,11,0,1,,,,,,,,,,
,,,,63220fb95b15e676e19d7af8,B,2024-06-21_22h37.26.214,Slot Machine Game,2023.1.3,Win32,60.24096386,,,,,,,,,,,,,,,,,,,,,,,,,,,1300,,,,,,,,,,,,,,,,,,,,,3,3,,,369.5024,12,up,0.6416,,1.5,0.3,"[3,1,2]",0.479576238,stimuli/card_100_transparent.png,100,12,0,12,0,1,,,,,,,,,,
,,,,63220fb95b15e676e19d7af8,B,2024-06-21_22h37.26.214,Slot Machine Game,2023.1.3,Win32,60.24096386,,,,,,,,,,,,,,,,,,,,,,,,,,,1400,,,,,,,,,,,,,,,,,,,,,3,3,,,372.4678,13,up,0.9826,,0.5,0.3,"[3,1,2]",0.639492008,stimuli/card_100_transparent.png,100,13,0,13,0,1,,,,,,,,,,
,,,,63220fb95b15e676e19d7af8,B,2024-06-21_22h37.26.214,Slot Machine Game,2023.1.3,Win32,60.24096386,,,,,,,,,,,,,,,,,,,,,,,,,,,1500,,,,,,,,,,,,,,,,,,,,,3,3,,,374.7823,14,up,0.399,,1,0.3,"[3,1,2]",0.653613494,stimuli/card_100_transparent.png,100,14,0,14,0,1,,,,,,,,,,
,,,,63220fb95b15e676e19d7af8,B,2024-06-21_22h37.26.214,Slot Machine Game,2023.1.3,Win32,60.24096386,,,,,,,,,,,,,,,,,,,,,,,,,,,,,,,,,,,376.9979,,,,,,,,,,,,,,,,,,,,,,,,,,,,,,,,,"[1300,1210,1500]",2,0,2,0,1,,,,
,,,,63220fb95b15e676e19d7af8,B,2024-06-21_22h37.26.214,Slot Machine Game,2023.1.3,Win32,60.24096386,,,,,,,,,,,,,,,,,,,,,,,,,,,10,,,,,,,,,,,,,,,,,,,,,4,4,"[7,15]","[[2,3,1],[1,2,3]]",382.0115,0,left,0.1213,,1.5,0.3,"[2,3,1]",0.951793256,stimuli/card_10_transparent.png,10,0,0,0,0,1,,,,,,,,,,
,,,,63220fb95b15e676e19d7af8,B,2024-06-21_22h37.26.214,Slot Machine Game,2023.1.3,Win32,60.24096386,,,,,,,,,,,,,,,,,,,,,,,,,,,110,,,,,,,,,,,,,,,,,,,,,4,4,,,384.4443,1,right,0.2338,,1.5,0.3,"[2,3,1]",0.277034203,stimuli/card_100_transparent.png,100,1,0,1,0,1,,,,,,,,,,
,,,,63220fb95b15e676e19d7af8,B,2024-06-21_22h37.26.214,Slot Machine Game,2023.1.3,Win32,60.24096386,,,,,,,,,,,,,,,,,,,,,,,,,,,120,,,,,,,,,,,,,,,,,,,,,4,4,,,387.01,2,right,0.4223,,1,0.3,"[2,3,1]",0.195813404,stimuli/card_10_transparent.png,10,2,0,2,0,1,,,,,,,,,,
,,,,63220fb95b15e676e19d7af8,B,2024-06-21_22h37.26.214,Slot Machine Game,2023.1.3,Win32,60.24096386,,,,,,,,,,,,,,,,,,,,,,,,,,,130,,,,,,,,,,,,,,,,,,,,,4,4,,,389.2586,3,right,0.5518,,1,0.3,"[2,3,1]",0.100187715,stimuli/card_10_transparent.png,10,3,0,3,0,1,,,,,,,,,,
,,,,63220fb95b15e676e19d7af8,B,2024-06-21_22h37.26.214,Slot Machine Game,2023.1.3,Win32,60.24096386,,,,,,,,,,,,,,,,,,,,,,,,,,,130,,,,,,,,,,,,,,,,,,,,,4,4,,,391.6404,4,up,0.0098,,1.5,0.3,"[2,3,1]",0.922715545,stimuli/card_0_transparent.png,0,4,0,4,0,1,,,,,,,,,,
,,,,63220fb95b15e676e19d7af8,B,2024-06-21_22h37.26.214,Slot Machine Game,2023.1.3,Win32,60.24096386,,,,,,,,,,,,,,,,,,,,,,,,,,,140,,,,,,,,,,,,,,,,,,,,,4,4,,,393.9725,5,left,0.4039,,0.5,0.3,"[2,3,1]",0.657489691,stimuli/card_10_transparent.png,10,5,0,5,0,1,,,,,,,,,,
,,,,63220fb95b15e676e19d7af8,B,2024-06-21_22h37.26.214,Slot Machine Game,2023.1.3,Win32,60.24096386,,,,,,,,,,,,,,,,,,,,,,,,,,,150,,,,,,,,,,,,,,,,,,,,,4,4,,,395.7048,6,up,0.0089,,1.5,0.3,"[2,3,1]",0.102630427,stimuli/card_10_transparent.png,10,6,0,6,0,1,,,,,,,,,,
,,,,63220fb95b15e676e19d7af8,B,2024-06-21_22h37.26.214,Slot Machine Game,2023.1.3,Win32,60.24096386,,,,,,,,,,,,,,,,,,,,,,,,,,,150,,,,,,,,,,,,,,,,,,,,,4,4,,,398.037,7,right,0.1578,,1,0.3,"[1,2,3]",0.236766143,stimuli/card_0_transparent.png,0,7,0,7,0,1,,,,,,,,,,
,,,,63220fb95b15e676e19d7af8,B,2024-06-21_22h37.26.214,Slot Machine Game,2023.1.3,Win32,60.24096386,,,,,,,,,,,,,,,,,,,,,,,,,,,250,,,,,,,,,,,,,,,,,,,,,4,4,,,400.0193,8,left,0.419,,0.5,0.3,"[1,2,3]",0.703215309,stimuli/card_100_transparent.png,100,8,0,8,0,1,,,,,,,,,,
,,,,63220fb95b15e676e19d7af8,B,2024-06-21_22h37.26.214,Slot Machine Game,2023.1.3,Win32,60.24096386,,,,,,,,,,,,,,,,,,,,,,,,,,,350,,,,,,,,,,,,,,,,,,,,,4,4,,,401.7685,9,left,0.3586,,1.5,0.3,"[1,2,3]",0.989396062,stimuli/card_100_transparent.png,100,9,0,9,0,1,,,,,,,,,,
,,,,63220fb95b15e676e19d7af8,B,2024-06-21_22h37.26.214,Slot Machine Game,2023.1.3,Win32,60.24096386,,,,,,,,,,,,,,,,,,,,,,,,,,,350,,,,,,,,,,,,,,,,,,,,,4,4,,,404.4488,10,left,0.6238,,0.5,0.3,"[1,2,3]",0.09227478,stimuli/card_0_transparent.png,0,10,0,10,0,1,,,,,,,,,,
,,,,63220fb95b15e676e19d7af8,B,2024-06-21_22h37.26.214,Slot Machine Game,2023.1.3,Win32,60.24096386,,,,,,,,,,,,,,,,,,,,,,,,,,,450,,,,,,,,,,,,,,,,,,,,,4,4,,,406.3822,11,left,0.6228,,0.5,0.3,"[1,2,3]",0.8367369,stimuli/card_100_transparent.png,100,11,0,11,0,1,,,,,,,,,,
,,,,63220fb95b15e676e19d7af8,B,2024-06-21_22h37.26.214,Slot Machine Game,2023.1.3,Win32,60.24096386,,,,,,,,,,,,,,,,,,,,,,,,,,,450,,,,,,,,,,,,,,,,,,,,,4,4,,,408.3313,12,left,0.2696,,1.5,0.3,"[1,2,3]",0.041049408,stimuli/card_0_transparent.png,0,12,0,12,0,1,,,,,,,,,,
,,,,63220fb95b15e676e19d7af8,B,2024-06-21_22h37.26.214,Slot Machine Game,2023.1.3,Win32,60.24096386,,,,,,,,,,,,,,,,,,,,,,,,,,,550,,,,,,,,,,,,,,,,,,,,,4,4,,,410.9299,13,left,0.2328,,1,0.3,"[1,2,3]",0.759936049,stimuli/card_100_transparent.png,100,13,0,13,0,1,,,,,,,,,,
,,,,63220fb95b15e676e19d7af8,B,2024-06-21_22h37.26.214,Slot Machine Game,2023.1.3,Win32,60.24096386,,,,,,,,,,,,,,,,,,,,,,,,,,,550,,,,,,,,,,,,,,,,,,,,,4,4,,,412.9949,14,left,0.1694,,0.5,0.3,"[1,2,3]",0.080993641,stimuli/card_0_transparent.png,0,14,0,14,0,1,,,,,,,,,,
,,,,63220fb95b15e676e19d7af8,B,2024-06-21_22h37.26.214,Slot Machine Game,2023.1.3,Win32,60.24096386,,,,,,,,,,,,,,,,,,,,,,,,,,,,,,,,,,,414.478,,,,,,,,,,,,,,,,,,,,,,,,,,,,,,,,,"[1300,1210,1500,550]",3,0,3,0,1,,,,
,,,,63220fb95b15e676e19d7af8,B,2024-06-21_22h37.26.214,Slot Machine Game,2023.1.3,Win32,60.24096386,,,,,,,,,,,,,,,,,,,,,,,,,,,10,,,,,,,,,,,,,,,,,,,,,5,5,"[5,15]","[[1,2,3],[3,1,2]]",419.4972,0,up,0.6725,,1.5,0.3,"[1,2,3]",0.984593534,stimuli/card_10_transparent.png,10,0,0,0,0,1,,,,,,,,,,
,,,,63220fb95b15e676e19d7af8,B,2024-06-21_22h37.26.214,Slot Machine Game,2023.1.3,Win32,60.24096386,,,,,,,,,,,,,,,,,,,,,,,,,,,110,,,,,,,,,,,,,,,,,,,,,5,5,,,422.4901,1,left,0.3497,,1,0.3,"[1,2,3]",0.225759459,stimuli/card_100_transparent.png,100,1,0,1,0,1,,,,,,,,,,
,,,,63220fb95b15e676e19d7af8,B,2024-06-21_22h37.26.214,Slot Machine Game,2023.1.3,Win32,60.24096386,,,,,,,,,,,,,,,,,,,,,,,,,,,110,,,,,,,,,,,,,,,,,,,,,5,5,,,424.6558,2,left,0.153,,0.5,0.3,"[1,2,3]",0.095798137,stimuli/card_0_transparent.png,0,2,0,2,0,1,,,,,,,,,,
,,,,63220fb95b15e676e19d7af8,B,2024-06-21_22h37.26.214,Slot Machine Game,2023.1.3,Win32,60.24096386,,,,,,,,,,,,,,,,,,,,,,,,,,,110,,,,,,,,,,,,,,,,,,,,,5,5,,,426.1216,3,right,0.4027,,1.5,0.3,"[1,2,3]",0.590128584,stimuli/card_0_transparent.png,0,3,0,3,0,1,,,,,,,,,,
,,,,63220fb95b15e676e19d7af8,B,2024-06-21_22h37.26.214,Slot Machine Game,2023.1.3,Win32,60.24096386,,,,,,,,,,,,,,,,,,,,,,,,,,,210,,,,,,,,,,,,,,,,,,,,,5,5,,,428.8524,4,left,0.5029,,1.5,0.3,"[1,2,3]",0.612800948,stimuli/card_100_transparent.png,100,4,0,4,0,1,,,,,,,,,,
,,,,63220fb95b15e676e19d7af8,B,2024-06-21_22h37.26.214,Slot Machine Game,2023.1.3,Win32,60.24096386,,,,,,,,,,,,,,,,,,,,,,,,,,,210,,,,,,,,,,,,,,,,,,,,,5,5,,,431.7016,5,left,0.0671,,1.5,0.3,"[3,1,2]",0.829422385,stimuli/card_0_transparent.png,0,5,0,5,0,1,,,,,,,,,,
,,,,63220fb95b15e676e19d7af8,B,2024-06-21_22h37.26.214,Slot Machine Game,2023.1.3,Win32,60.24096386,,,,,,,,,,,,,,,,,,,,,,,,,,,220,,,,,,,,,,,,,,,,,,,,,5,5,,,434.1003,6,right,0.2999,,1,0.3,"[3,1,2]",0.440909527,stimuli/card_10_transparent.png,10,6,0,6,0,1,,,,,,,,,,
,,,,63220fb95b15e676e19d7af8,B,2024-06-21_22h37.26.214,Slot Machine Game,2023.1.3,Win32,60.24096386,,,,,,,,,,,,,,,,,,,,,,,,,,,230,,,,,,,,,,,,,,,,,,,,,5,5,,,436.2316,7,up,0.1507,,1,0.3,"[3,1,2]",0.188263279,stimuli/card_10_transparent.png,10,7,0,7,0,1,,,,,,,,,,
,,,,63220fb95b15e676e19d7af8,B,2024-06-21_22h37.26.214,Slot Machine Game,2023.1.3,Win32,60.24096386,,,,,,,,,,,,,,,,,,,,,,,,,,,230,,,,,,,,,,,,,,,,,,,,,5,5,,,438.1979,8,left,0.6084,,1,0.3,"[3,1,2]",0.855697929,stimuli/card_0_transparent.png,0,8,0,8,0,1,,,,,,,,,,
,,,,63220fb95b15e676e19d7af8,B,2024-06-21_22h37.26.214,Slot Machine Game,2023.1.3,Win32,60.24096386,,,,,,,,,,,,,,,,,,,,,,,,,,,330,,,,,,,,,,,,,,,,,,,,,5,5,,,440.6298,9,up,0.3976,,0.5,0.3,"[3,1,2]",0.365181179,stimuli/card_100_transparent.png,100,9,0,9,0,1,,,,,,,,,,
,,,,63220fb95b15e676e19d7af8,B,2024-06-21_22h37.26.214,Slot Machine Game,2023.1.3,Win32,60.24096386,,,,,,,,,,,,,,,,,,,,,,,,,,,430,,,,,,,,,,,,,,,,,,,,,5,5,,,442.3623,10,up,0.4336,,1.5,0.3,"[3,1,2]",0.700437315,stimuli/card_100_transparent.png,100,10,0,10,0,1,,,,,,,,,,
,,,,63220fb95b15e676e19d7af8,B,2024-06-21_22h37.26.214,Slot Machine Game,2023.1.3,Win32,60.24096386,,,,,,,,,,,,,,,,,,,,,,,,,,,530,,,,,,,,,,,,,,,,,,,,,5,5,,,445.127,11,up,2.1743,,0.5,0.3,"[3,1,2]",0.605455812,stimuli/card_100_transparent.png,100,11,0,11,0,1,,,,,,,,,,
,,,,63220fb95b15e676e19d7af8,B,2024-06-21_22h37.26.214,Slot Machine Game,2023.1.3,Win32,60.24096386,,,,,,,,,,,,,,,,,,,,,,,,,,,630,,,,,,,,,,,,,,,,,,,,,5,5,,,448.6152,12,up,0.7656,,1.5,0.3,"[3,1,2]",0.37714877,stimuli/card_100_transparent.png,100,12,0,12,0,1,,,,,,,,,,
,,,,63220fb95b15e676e19d7af8,B,2024-06-21_22h37.26.214,Slot Machine Game,2023.1.3,Win32,60.24096386,,,,,,,,,,,,,,,,,,,,,,,,,,,730,,,,,,,,,,,,,,,,,,,,,5,5,,,451.6904,13,up,0.2684,,0.5,0.3,"[3,1,2]",0.503988461,stimuli/card_100_transparent.png,100,13,0,13,0,1,,,,,,,,,,
,,,,63220fb95b15e676e19d7af8,B,2024-06-21_22h37.26.214,Slot Machine Game,2023.1.3,Win32,60.24096386,,,,,,,,,,,,,,,,,,,,,,,,,,,830,,,,,,,,,,,,,,,,,,,,,5,5,,,453.2728,14,up,0.222,,1.5,0.3,"[3,1,2]",0.228971399,stimuli/card_100_transparent.png,100,14,0,14,0,1,,,,,,,,,,
,,,,63220fb95b15e676e19d7af8,B,2024-06-21_22h37.26.214,Slot Machine Game,2023.1.3,Win32,60.24096386,,,,,,,,,,,,,,,,,,,,,,,,,,,,,,,,,,,455.8049,,,,,,,,,,,,,,,,,,,,,,,,,,,,,,,,,"[1300,1210,1500,550,830]",4,0,4,0,1,,,,
,,,,63220fb95b15e676e19d7af8,B,2024-06-21_22h37.26.214,Slot Machine Game,2023.1.3,Win32,60.24096386,,,,,,,,,,,,,,,,,,,,,,,,,,,100,,,,,,,,,,,,,,,,,,,,,6,6,"[4,10,15]","[[2,3,1],[1,3,2],[3,2,1]]",460.8314,0,right,1.1879,,0.5,0.3,"[2,3,1]",0.210730804,stimuli/card_100_transparent.png,100,0,0,0,0,1,,,,,,,,,,
,,,,63220fb95b15e676e19d7af8,B,2024-06-21_22h37.26.214,Slot Machine Game,2023.1.3,Win32,60.24096386,,,,,,,,,,,,,,,,,,,,,,,,,,,200,,,,,,,,,,,,,,,,,,,,,6,6,,,463.3341,1,right,0.2204,,1.5,0.3,"[2,3,1]",0.908338805,stimuli/card_100_transparent.png,100,1,0,1,0,1,,,,,,,,,,
,,,,63220fb95b15e676e19d7af8,B,2024-06-21_22h37.26.214,Slot Machine Game,2023.1.3,Win32,60.24096386,,,,,,,,,,,,,,,,,,,,,,,,,,,300,,,,,,,,,,,,,,,,,,,,,6,6,,,465.8826,2,right,0.7026,,1,0.3,"[2,3,1]",0.375663871,stimuli/card_100_transparent.png,100,2,0,2,0,1,,,,,,,,,,
,,,,63220fb95b15e676e19d7af8,B,2024-06-21_22h37.26.214,Slot Machine Game,2023.1.3,Win32,60.24096386,,,,,,,,,,,,,,,,,,,,,,,,,,,400,,,,,,,,,,,,,,,,,,,,,6,6,,,468.4147,3,right,0.1483,,1,0.3,"[2,3,1]",0.647722407,stimuli/card_100_transparent.png,100,3,0,3,0,1,,,,,,,,,,
,,,,63220fb95b15e676e19d7af8,B,2024-06-21_22h37.26.214,Slot Machine Game,2023.1.3,Win32,60.24096386,,,,,,,,,,,,,,,,,,,,,,,,,,,400,,,,,,,,,,,,,,,,,,,,,6,6,,,470.3968,4,right,0.6686,,1,0.3,"[1,3,2]",0.020777011,stimuli/card_0_transparent.png,0,4,0,4,0,1,,,,,,,,,,
,,,,63220fb95b15e676e19d7af8,B,2024-06-21_22h37.26.214,Slot Machine Game,2023.1.3,Win32,60.24096386,,,,,,,,,,,,,,,,,,,,,,,,,,,410,,,,,,,,,,,,,,,,,,,,,6,6,,,472.8955,5,right,0.103,,0.5,0.3,"[1,3,2]",0.405757242,stimuli/card_10_transparent.png,10,5,0,5,0,1,,,,,,,,,,
,,,,63220fb95b15e676e19d7af8,B,2024-06-21_22h37.26.214,Slot Machine Game,2023.1.3,Win32,60.24096386,,,,,,,,,,,,,,,,,,,,,,,,,,,510,,,,,,,,,,,,,,,,,,,,,6,6,,,474.3279,6,left,0.0191,,1,0.3,"[1,3,2]",0.30600556,stimuli/card_100_transparent.png,100,6,0,6,0,1,,,,,,,,,,
,,,,63220fb95b15e676e19d7af8,B,2024-06-21_22h37.26.214,Slot Machine Game,2023.1.3,Win32,60.24096386,,,,,,,,,,,,,,,,,,,,,,,,,,,610,,,,,,,,,,,,,,,,,,,,,6,6,,,476.1772,7,left,0.767,,0.5,0.3,"[1,3,2]",0.25103203,stimuli/card_100_transparent.png,100,7,0,7,0,1,,,,,,,,,,
,,,,63220fb95b15e676e19d7af8,B,2024-06-21_22h37.26.214,Slot Machine Game,2023.1.3,Win32,60.24096386,,,,,,,,,,,,,,,,,,,,,,,,,,,710,,,,,,,,,,,,,,,,,,,,,6,6,,,478.2755,8,left,0.0675,,1,0.3,"[1,3,2]",0.342594559,stimuli/card_100_transparent.png,100,8,0,8,0,1,,,,,,,,,,
,,,,63220fb95b15e676e19d7af8,B,2024-06-21_22h37.26.214,Slot Machine Game,2023.1.3,Win32,60.24096386,,,,,,,,,,,,,,,,,,,,,,,,,,,810,,,,,,,,,,,,,,,,,,,,,6,6,,,480.1747,9,left,0.1174,,0.5,0.3,"[1,3,2]",0.597334363,stimuli/card_100_transparent.png,100,9,0,9,0,1,,,,,,,,,,
,,,,63220fb95b15e676e19d7af8,B,2024-06-21_22h37.26.214,Slot Machine Game,2023.1.3,Win32,60.24096386,,,,,,,,,,,,,,,,,,,,,,,,,,,820,,,,,,,,,,,,,,,,,,,,,6,6,,,481.6238,10,left,0.4759,,1,0.3,"[3,2,1]",0.148943756,stimuli/card_10_transparent.png,10,10,0,10,0,1,,,,,,,,,,
,,,,63220fb95b15e676e19d7af8,B,2024-06-21_22h37.26.214,Slot Machine Game,2023.1.3,Win32,60.24096386,,,,,,,,,,,,,,,,,,,,,,,,,,,820,,,,,,,,,,,,,,,,,,,,,6,6,,,483.9224,11,left,0.4171,,0.5,0.3,"[3,2,1]",0.514633017,stimuli/card_0_transparent.png,0,11,0,11,0,1,,,,,,,,,,
,,,,63220fb95b15e676e19d7af8,B,2024-06-21_22h37.26.214,Slot Machine Game,2023.1.3,Win32,60.24096386,,,,,,,,,,,,,,,,,,,,,,,,,,,830,,,,,,,,,,,,,,,,,,,,,6,6,,,485.6717,12,up,0.0348,,1.5,0.3,"[3,2,1]",0.259284629,stimuli/card_10_transparent.png,10,12,0,12,0,1,,,,,,,,,,
,,,,63220fb95b15e676e19d7af8,B,2024-06-21_22h37.26.214,Slot Machine Game,2023.1.3,Win32,60.24096386,,,,,,,,,,,,,,,,,,,,,,,,,,,930,,,,,,,,,,,,,,,,,,,,,6,6,,,488.0361,13,right,0.8581,,1.5,0.3,"[3,2,1]",0.81280938,stimuli/card_100_transparent.png,100,13,0,13,0,1,,,,,,,,,,
,,,,63220fb95b15e676e19d7af8,B,2024-06-21_22h37.26.214,Slot Machine Game,2023.1.3,Win32,60.24096386,,,,,,,,,,,,,,,,,,,,,,,,,,,940,,,,,,,,,,,,,,,,,,,,,6,6,,,491.2019,14,right,0.0008,,0.5,0.3,"[3,2,1]",0.106328197,stimuli/card_10_transparent.png,10,14,0,14,0,1,,,,,,,,,,
,,,,63220fb95b15e676e19d7af8,B,2024-06-21_22h37.26.214,Slot Machine Game,2023.1.3,Win32,60.24096386,,,,,,,,,,,,,,,,,,,,,,,,,,,,,,,,,,,492.5335,,,,,,,,,,,,,,,,,,,,,,,,,,,,,,,,,"[1300,1210,1500,550,830,940]",5,0,5,0,1,,,,
,,,,63220fb95b15e676e19d7af8,B,2024-06-21_22h37.26.214,Slot Machine Game,2023.1.3,Win32,60.24096386,,,,,,,,,,,,,,,,,,,,,,,,,,,100,,,,,,,,,,,,,,,,,,,,,7,7,"[9,15]","[[1,3,2],[2,3,1]]",497.5541,0,left,0.7755,,1.5,0.3,"[1,3,2]",0.207224365,stimuli/card_100_transparent.png,100,0,0,0,0,1,,,,,,,,,,
,,,,63220fb95b15e676e19d7af8,B,2024-06-21_22h37.26.214,Slot Machine Game,2023.1.3,Win32,60.24096386,,,,,,,,,,,,,,,,,,,,,,,,,,,200,,,,,,,,,,,,,,,,,,,,,7,7,,,500.6464,1,left,0.0495,,1.5,0.3,"[1,3,2]",0.827518266,stimuli/card_100_transparent.png,100,1,0,1,0,1,,,,,,,,,,
,,,,63220fb95b15e676e19d7af8,B,2024-06-21_22h37.26.214,Slot Machine Game,2023.1.3,Win32,60.24096386,,,,,,,,,,,,,,,,,,,,,,,,,,,300,,,,,,,,,,,,,,,,,,,,,7,7,,,503.0122,2,left,0.5405,,1.5,0.3,"[1,3,2]",0.641985392,stimuli/card_100_transparent.png,100,2,0,2,0,1,,,,,,,,,,
,,,,63220fb95b15e676e19d7af8,B,2024-06-21_22h37.26.214,Slot Machine Game,2023.1.3,Win32,60.24096386,,,,,,,,,,,,,,,,,,,,,,,,,,,400,,,,,,,,,,,,,,,,,,,,,7,7,,,505.8836,3,left,0.234,,0.5,0.3,"[1,3,2]",0.747189666,stimuli/card_100_transparent.png,100,3,0,3,0,1,,,,,,,,,,
,,,,63220fb95b15e676e19d7af8,B,2024-06-21_22h37.26.214,Slot Machine Game,2023.1.3,Win32,60.24096386,,,,,,,,,,,,,,,,,,,,,,,,,,,400,,,,,,,,,,,,,,,,,,,,,7,7,,,507.443,4,left,0.1853,,0.5,0.3,"[1,3,2]",0.077718344,stimuli/card_0_transparent.png,0,4,0,4,0,1,,,,,,,,,,
,,,,63220fb95b15e676e19d7af8,B,2024-06-21_22h37.26.214,Slot Machine Game,2023.1.3,Win32,60.24096386,,,,,,,,,,,,,,,,,,,,,,,,,,,500,,,,,,,,,,,,,,,,,,,,,7,7,,,508.9591,5,left,0.1002,,0.5,0.3,"[1,3,2]",0.57307381,stimuli/card_100_transparent.png,100,5,0,5,0,1,,,,,,,,,,
,,,,63220fb95b15e676e19d7af8,B,2024-06-21_22h37.26.214,Slot Machine Game,2023.1.3,Win32,60.24096386,,,,,,,,,,,,,,,,,,,,,,,,,,,600,,,,,,,,,,,,,,,,,,,,,7,7,,,510.3747,6,left,0.45,,1.5,0.3,"[1,3,2]",0.673032025,stimuli/card_100_transparent.png,100,6,0,6,0,1,,,,,,,,,,
,,,,63220fb95b15e676e19d7af8,B,2024-06-21_22h37.26.214,Slot Machine Game,2023.1.3,Win32,60.24096386,,,,,,,,,,,,,,,,,,,,,,,,,,,700,,,,,,,,,,,,,,,,,,,,,7,7,,,513.1566,7,left,0.5667,,0.5,0.3,"[1,3,2]",0.780519686,stimuli/card_100_transparent.png,100,7,0,7,0,1,,,,,,,,,,
,,,,63220fb95b15e676e19d7af8,B,2024-06-21_22h37.26.214,Slot Machine Game,2023.1.3,Win32,60.24096386,,,,,,,,,,,,,,,,,,,,,,,,,,,800,,,,,,,,,,,,,,,,,,,,,7,7,,,515.0555,8,left,0.2074,,1,0.3,"[1,3,2]",0.684319592,stimuli/card_100_transparent.png,100,8,0,8,0,1,,,,,,,,,,
,,,,63220fb95b15e676e19d7af8,B,2024-06-21_22h37.26.214,Slot Machine Game,2023.1.3,Win32,60.24096386,,,,,,,,,,,,,,,,,,,,,,,,,,,810,,,,,,,,,,,,,,,,,,,,,7,7,,,517.0874,9,left,0.5994,,0.5,0.3,"[2,3,1]",0.879281195,stimuli/card_10_transparent.png,10,9,0,9,0,1,,,,,,,,,,
,,,,63220fb95b15e676e19d7af8,B,2024-06-21_22h37.26.214,Slot Machine Game,2023.1.3,Win32,60.24096386,,,,,,,,,,,,,,,,,,,,,,,,,,,820,,,,,,,,,,,,,,,,,,,,,7,7,,,519.0037,10,left,0.3815,,1,0.3,"[2,3,1]",0.652869849,stimuli/card_10_transparent.png,10,10,0,10,0,1,,,,,,,,,,
,,,,63220fb95b15e676e19d7af8,B,2024-06-21_22h37.26.214,Slot Machine Game,2023.1.3,Win32,60.24096386,,,,,,,,,,,,,,,,,,,,,,,,,,,820,,,,,,,,,,,,,,,,,,,,,7,7,,,521.202,11,up,0.0578,,1,0.3,"[2,3,1]",0.631973666,stimuli/card_0_transparent.png,0,11,0,11,0,1,,,,,,,,,,
,,,,63220fb95b15e676e19d7af8,B,2024-06-21_22h37.26.214,Slot Machine Game,2023.1.3,Win32,60.24096386,,,,,,,,,,,,,,,,,,,,,,,,,,,920,,,,,,,,,,,,,,,,,,,,,7,7,,,523.0842,12,right,0.0112,,1,0.3,"[2,3,1]",0.341267034,stimuli/card_100_transparent.png,100,12,0,12,0,1,,,,,,,,,,
,,,,63220fb95b15e676e19d7af8,B,2024-06-21_22h37.26.214,Slot Machine Game,2023.1.3,Win32,60.24096386,,,,,,,,,,,,,,,,,,,,,,,,,,,930,,,,,,,,,,,,,,,,,,,,,7,7,,,524.9164,13,right,0.5783,,1,0.3,"[2,3,1]",0.15215516,stimuli/card_10_transparent.png,10,13,0,13,0,1,,,,,,,,,,
,,,,63220fb95b15e676e19d7af8,B,2024-06-21_22h37.26.214,Slot Machine Game,2023.1.3,Win32,60.24096386,,,,,,,,,,,,,,,,,,,,,,,,,,,1030,,,,,,,,,,,,,,,,,,,,,7,7,,,527.3144,14,right,0.4042,,1.5,0.3,"[2,3,1]",0.400167052,stimuli/card_100_transparent.png,100,14,0,14,0,1,,,,,,,,,,
,,,,63220fb95b15e676e19d7af8,B,2024-06-21_22h37.26.214,Slot Machine Game,2023.1.3,Win32,60.24096386,,,,,,,,,,,,,,,,,,,,,,,,,,,,,,,,,,,530.047,,,,,,,,,,,,,,,,,,,,,,,,,,,,,,,,,"[1300,1210,1500,550,830,940,1030]",6,0,6,0,1,,,,
,,,,63220fb95b15e676e19d7af8,B,2024-06-21_22h37.26.214,Slot Machine Game,2023.1.3,Win32,60.24096386,,,,,,,,,,,,,,,,,,,,,,,,,,,100,,,,,,,,,,,,,,,,,,,,,8,8,"[11,15]","[[2,1,3],[1,2,3]]",535.0691,0,up,0.7357,,0.5,0.3,"[2,1,3]",0.384247697,stimuli/card_100_transparent.png,100,0,0,0,0,1,,,,,,,,,,
,,,,63220fb95b15e676e19d7af8,B,2024-06-21_22h37.26.214,Slot Machine Game,2023.1.3,Win32,60.24096386,,,,,,,,,,,,,,,,,,,,,,,,,,,200,,,,,,,,,,,,,,,,,,,,,8,8,,,537.1265,1,up,0.1367,,1.5,0.3,"[2,1,3]",0.772997889,stimuli/card_100_transparent.png,100,1,0,1,0,1,,,,,,,,,,
,,,,63220fb95b15e676e19d7af8,B,2024-06-21_22h37.26.214,Slot Machine Game,2023.1.3,Win32,60.24096386,,,,,,,,,,,,,,,,,,,,,,,,,,,300,,,,,,,,,,,,,,,,,,,,,8,8,,,539.5919,2,up,0.0025,,1,0.3,"[2,1,3]",0.92764457,stimuli/card_100_transparent.png,100,2,0,2,0,1,,,,,,,,,,
,,,,63220fb95b15e676e19d7af8,B,2024-06-21_22h37.26.214,Slot Machine Game,2023.1.3,Win32,60.24096386,,,,,,,,,,,,,,,,,,,,,,,,,,,400,,,,,,,,,,,,,,,,,,,,,8,8,,,541.4242,3,up,0.1549,,1.5,0.3,"[2,1,3]",0.510396464,stimuli/card_100_transparent.png,100,3,0,3,0,1,,,,,,,,,,
,,,,63220fb95b15e676e19d7af8,B,2024-06-21_22h37.26.214,Slot Machine Game,2023.1.3,Win32,60.24096386,,,,,,,,,,,,,,,,,,,,,,,,,,,500,,,,,,,,,,,,,,,,,,,,,8,8,,,543.9063,4,up,0.3005,,0.5,0.3,"[2,1,3]",0.704882798,stimuli/card_100_transparent.png,100,4,0,4,0,1,,,,,,,,,,
,,,,63220fb95b15e676e19d7af8,B,2024-06-21_22h37.26.214,Slot Machine Game,2023.1.3,Win32,60.24096386,,,,,,,,,,,,,,,,,,,,,,,,,,,600,,,,,,,,,,,,,,,,,,,,,8,8,,,545.5387,5,up,0.0175,,1,0.3,"[2,1,3]",0.561893665,stimuli/card_100_transparent.png,100,5,0,5,0,1,,,,,,,,,,
,,,,63220fb95b15e676e19d7af8,B,2024-06-21_22h37.26.214,Slot Machine Game,2023.1.3,Win32,60.24096386,,,,,,,,,,,,,,,,,,,,,,,,,,,700,,,,,,,,,,,,,,,,,,,,,8,8,,,547.3879,6,up,0.1329,,1,0.3,"[2,1,3]",0.286084445,stimuli/card_100_transparent.png,100,6,0,6,0,1,,,,,,,,,,
,,,,63220fb95b15e676e19d7af8,B,2024-06-21_22h37.26.214,Slot Machine Game,2023.1.3,Win32,60.24096386,,,,,,,,,,,,,,,,,,,,,,,,,,,800,,,,,,,,,,,,,,,,,,,,,8,8,,,549.3532,7,up,0.0182,,1,0.3,"[2,1,3]",0.506542769,stimuli/card_100_transparent.png,100,7,0,7,0,1,,,,,,,,,,
,,,,63220fb95b15e676e19d7af8,B,2024-06-21_22h37.26.214,Slot Machine Game,2023.1.3,Win32,60.24096386,,,,,,,,,,,,,,,,,,,,,,,,,,,900,,,,,,,,,,,,,,,,,,,,,8,8,,,551.2023,8,up,0.0535,,1,0.3,"[2,1,3]",0.280600145,stimuli/card_100_transparent.png,100,8,0,8,0,1,,,,,,,,,,
,,,,63220fb95b15e676e19d7af8,B,2024-06-21_22h37.26.214,Slot Machine Game,2023.1.3,Win32,60.24096386,,,,,,,,,,,,,,,,,,,,,,,,,,,1000,,,,,,,,,,,,,,,,,,,,,8,8,,,553.0833,9,up,0.112,,0.5,0.3,"[2,1,3]",0.937743141,stimuli/card_100_transparent.png,100,9,0,9,0,1,,,,,,,,,,
,,,,63220fb95b15e676e19d7af8,B,2024-06-21_22h37.26.214,Slot Machine Game,2023.1.3,Win32,60.24096386,,,,,,,,,,,,,,,,,,,,,,,,,,,1100,,,,,,,,,,,,,,,,,,,,,8,8,,,554.5171,10,up,0.1835,,0.5,0.3,"[2,1,3]",0.922545954,stimuli/card_100_transparent.png,100,10,0,10,0,1,,,,,,,,,,
,,,,63220fb95b15e676e19d7af8,B,2024-06-21_22h37.26.214,Slot Machine Game,2023.1.3,Win32,60.24096386,,,,,,,,,,,,,,,,,,,,,,,,,,,1110,,,,,,,,,,,,,,,,,,,,,8,8,,,556.0321,11,up,0.1172,,1.5,0.3,"[1,2,3]",0.310586964,stimuli/card_10_transparent.png,10,11,0,11,0,1,,,,,,,,,,
,,,,63220fb95b15e676e19d7af8,B,2024-06-21_22h37.26.214,Slot Machine Game,2023.1.3,Win32,60.24096386,,,,,,,,,,,,,,,,,,,,,,,,,,,1120,,,,,,,,,,,,,,,,,,,,,8,8,,,558.4817,12,up,0.0347,,1,0.3,"[1,2,3]",0.436176744,stimuli/card_10_transparent.png,10,12,0,12,0,1,,,,,,,,,,
,,,,63220fb95b15e676e19d7af8,B,2024-06-21_22h37.26.214,Slot Machine Game,2023.1.3,Win32,60.24096386,,,,,,,,,,,,,,,,,,,,,,,,,,,1220,,,,,,,,,,,,,,,,,,,,,8,8,,,560.3471,13,left,0.5565,,0.5,0.3,"[1,2,3]",0.612972334,stimuli/card_100_transparent.png,100,13,0,13,0,1,,,,,,,,,,
,,,,63220fb95b15e676e19d7af8,B,2024-06-21_22h37.26.214,Slot Machine Game,2023.1.3,Win32,60.24096386,,,,,,,,,,,,,,,,,,,,,,,,,,,1320,,,,,,,,,,,,,,,,,,,,,8,8,,,562.2296,14,left,0.1216,,0.5,0.3,"[1,2,3]",0.556568879,stimuli/card_100_transparent.png,100,14,0,14,0,1,,,,,,,,,,
,,,,63220fb95b15e676e19d7af8,B,2024-06-21_22h37.26.214,Slot Machine Game,2023.1.3,Win32,60.24096386,,,,,,,,,,,,,,,,,,,,,,,,,,,,,,,,,,,563.6787,,,,,,,,,,,,,,,,,,,,,,,,,,,,,,,,,"[1300,1210,1500,550,830,940,1030,1320]",7,0,7,0,1,,,,
,,,,63220fb95b15e676e19d7af8,B,2024-06-21_22h37.26.214,Slot Machine Game,2023.1.3,Win32,60.24096386,,,,,,,,,,,,,,,,,,,,,,,,,,,100,,,,,,,,,,,,,,,,,,,,,9,9,"[8,15]","[[3,2,1],[3,1,2]]",568.7015,0,right,0.2839,,1.5,0.3,"[3,2,1]",0.755818676,stimuli/card_100_transparent.png,100,0,0,0,0,1,,,,,,,,,,
,,,,63220fb95b15e676e19d7af8,B,2024-06-21_22h37.26.214,Slot Machine Game,2023.1.3,Win32,60.24096386,,,,,,,,,,,,,,,,,,,,,,,,,,,110,,,,,,,,,,,,,,,,,,,,,9,9,,,571.3076,1,right,0.051,,0.5,0.3,"[3,2,1]",0.106999729,stimuli/card_10_transparent.png,10,1,0,1,0,1,,,,,,,,,,
,,,,63220fb95b15e676e19d7af8,B,2024-06-21_22h37.26.214,Slot Machine Game,2023.1.3,Win32,60.24096386,,,,,,,,,,,,,,,,,,,,,,,,,,,210,,,,,,,,,,,,,,,,,,,,,9,9,,,572.6903,2,right,0.2509,,1.5,0.3,"[3,2,1]",0.831971896,stimuli/card_100_transparent.png,100,2,0,2,0,1,,,,,,,,,,
,,,,63220fb95b15e676e19d7af8,B,2024-06-21_22h37.26.214,Slot Machine Game,2023.1.3,Win32,60.24096386,,,,,,,,,,,,,,,,,,,,,,,,,,,310,,,,,,,,,,,,,,,,,,,,,9,9,,,575.2722,3,right,1.6164,,1,0.3,"[3,2,1]",0.203682576,stimuli/card_100_transparent.png,100,3,0,3,0,1,,,,,,,,,,
,,,,63220fb95b15e676e19d7af8,B,2024-06-21_22h37.26.214,Slot Machine Game,2023.1.3,Win32,60.24096386,,,,,,,,,,,,,,,,,,,,,,,,,,,320,,,,,,,,,,,,,,,,,,,,,9,9,,,578.7205,4,right,0.2877,,0.5,0.3,"[3,2,1]",0.120167404,stimuli/card_10_transparent.png,10,4,0,4,0,1,,,,,,,,,,
,,,,63220fb95b15e676e19d7af8,B,2024-06-21_22h37.26.214,Slot Machine Game,2023.1.3,Win32,60.24096386,,,,,,,,,,,,,,,,,,,,,,,,,,,420,,,,,,,,,,,,,,,,,,,,,9,9,,,580.3359,5,right,0.1749,,1.5,0.3,"[3,2,1]",0.469265527,stimuli/card_100_transparent.png,100,5,0,5,0,1,,,,,,,,,,
,,,,63220fb95b15e676e19d7af8,B,2024-06-21_22h37.26.214,Slot Machine Game,2023.1.3,Win32,60.24096386,,,,,,,,,,,,,,,,,,,,,,,,,,,520,,,,,,,,,,,,,,,,,,,,,9,9,,,582.8341,6,right,0.1522,,0.5,0.3,"[3,2,1]",0.636088943,stimuli/card_100_transparent.png,100,6,0,6,0,1,,,,,,,,,,
,,,,63220fb95b15e676e19d7af8,B,2024-06-21_22h37.26.214,Slot Machine Game,2023.1.3,Win32,60.24096386,,,,,,,,,,,,,,,,,,,,,,,,,,,620,,,,,,,,,,,,,,,,,,,,,9,9,,,584.3173,7,right,0.2813,,0.5,0.3,"[3,2,1]",0.785010617,stimuli/card_100_transparent.png,100,7,0,7,0,1,,,,,,,,,,
,,,,63220fb95b15e676e19d7af8,B,2024-06-21_22h37.26.214,Slot Machine Game,2023.1.3,Win32,60.24096386,,,,,,,,,,,,,,,,,,,,,,,,,,,630,,,,,,,,,,,,,,,,,,,,,9,9,,,585.9322,8,right,0.1011,,1.5,0.3,"[3,1,2]",0.472472486,stimuli/card_10_transparent.png,10,8,0,8,0,1,,,,,,,,,,
,,,,63220fb95b15e676e19d7af8,B,2024-06-21_22h37.26.214,Slot Machine Game,2023.1.3,Win32,60.24096386,,,,,,,,,,,,,,,,,,,,,,,,,,,640,,,,,,,,,,,,,,,,,,,,,9,9,,,588.3483,9,right,0.0222,,0.5,0.3,"[3,1,2]",0.60306477,stimuli/card_10_transparent.png,10,9,0,9,0,1,,,,,,,,,,
,,,,63220fb95b15e676e19d7af8,B,2024-06-21_22h37.26.214,Slot Machine Game,2023.1.3,Win32,60.24096386,,,,,,,,,,,,,,,,,,,,,,,,,,,740,,,,,,,,,,,,,,,,,,,,,9,9,,,589.6976,10,up,0.3658,,0.5,0.3,"[3,1,2]",0.457913368,stimuli/card_100_transparent.png,100,10,0,10,0,1,,,,,,,,,,
,,,,63220fb95b15e676e19d7af8,B,2024-06-21_22h37.26.214,Slot Machine Game,2023.1.3,Win32,60.24096386,,,,,,,,,,,,,,,,,,,,,,,,,,,840,,,,,,,,,,,,,,,,,,,,,9,9,,,591.3967,11,up,0.2331,,1.5,0.3,"[3,1,2]",0.828163515,stimuli/card_100_transparent.png,100,11,0,11,0,1,,,,,,,,,,
,,,,63220fb95b15e676e19d7af8,B,2024-06-21_22h37.26.214,Slot Machine Game,2023.1.3,Win32,60.24096386,,,,,,,,,,,,,,,,,,,,,,,,,,,940,,,,,,,,,,,,,,,,,,,,,9,9,,,593.9615,12,up,0.1535,,1.5,0.3,"[3,1,2]",0.92307484,stimuli/card_100_transparent.png,100,12,0,12,0,1,,,,,,,,,,
,,,,63220fb95b15e676e19d7af8,B,2024-06-21_22h37.26.214,Slot Machine Game,2023.1.3,Win32,60.24096386,,,,,,,,,,,,,,,,,,,,,,,,,,,1040,,,,,,,,,,,,,,,,,,,,,9,9,,,596.4441,13,up,0.8571,,1.5,0.3,"[3,1,2]",0.647014084,stimuli/card_100_transparent.png,100,13,0,13,0,1,,,,,,,,,,
,,,,63220fb95b15e676e19d7af8,B,2024-06-21_22h37.26.214,Slot Machine Game,2023.1.3,Win32,60.24096386,,,,,,,,,,,,,,,,,,,,,,,,,,,1140,,,,,,,,,,,,,,,,,,,,,9,9,,,599.6254,14,up,0.3599,,1.5,0.3,"[3,1,2]",0.56674206,stimuli/card_100_transparent.png,100,14,0,14,0,1,,,,,,,,,,
,,,,63220fb95b15e676e19d7af8,B,2024-06-21_22h37.26.214,Slot Machine Game,2023.1.3,Win32,60.24096386,,,,,,,,,,,,,,,,,,,,,,,,,,,,,,,,,,,602.3073,,,,,,,,,,,,,,,,,,,,,,,,,,,,,,,,,"[1300,1210,1500,550,830,940,1030,1320,1140]",8,0,8,0,1,,,,
,,,,63220fb95b15e676e19d7af8,B,2024-06-21_22h37.26.214,Slot Machine Game,2023.1.3,Win32,60.24096386,,,,,,,,,,,,,,,,,,,,,,,,,,,0,,,,,,,,,,,,,,,,,,,,,10,10,"[10,15]","[[3,1,2],[1,3,2]]",607.326,0,left,0.7192,,1,0.3,"[3,1,2]",0.232334854,stimuli/card_0_transparent.png,0,0,0,0,0,1,,,,,,,,,,
,,,,63220fb95b15e676e19d7af8,B,2024-06-21_22h37.26.214,Slot Machine Game,2023.1.3,Win32,60.24096386,,,,,,,,,,,,,,,,,,,,,,,,,,,10,,,,,,,,,,,,,,,,,,,,,10,10,,,609.8696,1,up,0.1173,,1,0.3,"[3,1,2]",0.199744509,stimuli/card_10_transparent.png,10,1,0,1,0,1,,,,,,,,,,
,,,,63220fb95b15e676e19d7af8,B,2024-06-21_22h37.26.214,Slot Machine Game,2023.1.3,Win32,60.24096386,,,,,,,,,,,,,,,,,,,,,,,,,,,20,,,,,,,,,,,,,,,,,,,,,10,10,,,611.8189,2,right,0.0783,,1,0.3,"[3,1,2]",0.53274952,stimuli/card_10_transparent.png,10,2,0,2,0,1,,,,,,,,,,
,,,,63220fb95b15e676e19d7af8,B,2024-06-21_22h37.26.214,Slot Machine Game,2023.1.3,Win32,60.24096386,,,,,,,,,,,,,,,,,,,,,,,,,,,120,,,,,,,,,,,,,,,,,,,,,10,10,,,613.7068,3,up,0.0212,,0.5,0.3,"[3,1,2]",0.455322947,stimuli/card_100_transparent.png,100,3,0,3,0,1,,,,,,,,,,
,,,,63220fb95b15e676e19d7af8,B,2024-06-21_22h37.26.214,Slot Machine Game,2023.1.3,Win32,60.24096386,,,,,,,,,,,,,,,,,,,,,,,,,,,220,,,,,,,,,,,,,,,,,,,,,10,10,,,615.0492,4,up,0.3191,,0.5,0.3,"[3,1,2]",0.476899758,stimuli/card_100_transparent.png,100,4,0,4,0,1,,,,,,,,,,
,,,,63220fb95b15e676e19d7af8,B,2024-06-21_22h37.26.214,Slot Machine Game,2023.1.3,Win32,60.24096386,,,,,,,,,,,,,,,,,,,,,,,,,,,320,,,,,,,,,,,,,,,,,,,,,10,10,,,616.6996,5,up,0.2425,,1.5,0.3,"[3,1,2]",0.679044276,stimuli/card_100_transparent.png,100,5,0,5,0,1,,,,,,,,,,
,,,,63220fb95b15e676e19d7af8,B,2024-06-21_22h37.26.214,Slot Machine Game,2023.1.3,Win32,60.24096386,,,,,,,,,,,,,,,,,,,,,,,,,,,330,,,,,,,,,,,,,,,,,,,,,10,10,,,619.2707,6,up,0.1516,,1.5,0.3,"[3,1,2]",0.194688222,stimuli/card_10_transparent.png,10,6,0,6,0,1,,,,,,,,,,
,,,,63220fb95b15e676e19d7af8,B,2024-06-21_22h37.26.214,Slot Machine Game,2023.1.3,Win32,60.24096386,,,,,,,,,,,,,,,,,,,,,,,,,,,430,,,,,,,,,,,,,,,,,,,,,10,10,,,621.7634,7,up,0.2098,,0.5,0.3,"[3,1,2]",0.373665866,stimuli/card_100_transparent.png,100,7,0,7,0,1,,,,,,,,,,
,,,,63220fb95b15e676e19d7af8,B,2024-06-21_22h37.26.214,Slot Machine Game,2023.1.3,Win32,60.24096386,,,,,,,,,,,,,,,,,,,,,,,,,,,440,,,,,,,,,,,,,,,,,,,,,10,10,,,623.2954,8,up,0.8757,,1,0.3,"[3,1,2]",0.181979082,stimuli/card_10_transparent.png,10,8,0,8,0,1,,,,,,,,,,
,,,,63220fb95b15e676e19d7af8,B,2024-06-21_22h37.26.214,Slot Machine Game,2023.1.3,Win32,60.24096386,,,,,,,,,,,,,,,,,,,,,,,,,,,450,,,,,,,,,,,,,,,,,,,,,10,10,,,626.0111,9,right,0.1306,,0.5,0.3,"[3,1,2]",0.775410643,stimuli/card_10_transparent.png,10,9,0,9,0,1,,,,,,,,,,
,,,,63220fb95b15e676e19d7af8,B,2024-06-21_22h37.26.214,Slot Machine Game,2023.1.3,Win32,60.24096386,,,,,,,,,,,,,,,,,,,,,,,,,,,550,,,,,,,,,,,,,,,,,,,,,10,10,,,627.4593,10,left,0.3723,,0.5,0.3,"[1,3,2]",0.476784899,stimuli/card_100_transparent.png,100,10,0,10,0,1,,,,,,,,,,
,,,,63220fb95b15e676e19d7af8,B,2024-06-21_22h37.26.214,Slot Machine Game,2023.1.3,Win32,60.24096386,,,,,,,,,,,,,,,,,,,,,,,,,,,650,,,,,,,,,,,,,,,,,,,,,10,10,,,629.1593,11,left,0.3674,,1.5,0.3,"[1,3,2]",0.872310912,stimuli/card_100_transparent.png,100,11,0,11,0,1,,,,,,,,,,
,,,,63220fb95b15e676e19d7af8,B,2024-06-21_22h37.26.214,Slot Machine Game,2023.1.3,Win32,60.24096386,,,,,,,,,,,,,,,,,,,,,,,,,,,750,,,,,,,,,,,,,,,,,,,,,10,10,,,631.8572,12,left,0.0685,,1.5,0.3,"[1,3,2]",0.532696313,stimuli/card_100_transparent.png,100,12,0,12,0,1,,,,,,,,,,
,,,,63220fb95b15e676e19d7af8,B,2024-06-21_22h37.26.214,Slot Machine Game,2023.1.3,Win32,60.24096386,,,,,,,,,,,,,,,,,,,,,,,,,,,850,,,,,,,,,,,,,,,,,,,,,10,10,,,634.2729,13,left,0.0496,,0.5,0.3,"[1,3,2]",0.837931927,stimuli/card_100_transparent.png,100,13,0,13,0,1,,,,,,,,,,
,,,,63220fb95b15e676e19d7af8,B,2024-06-21_22h37.26.214,Slot Machine Game,2023.1.3,Win32,60.24096386,,,,,,,,,,,,,,,,,,,,,,,,,,,950,,,,,,,,,,,,,,,,,,,,,10,10,,,635.639,14,left,0.1348,,1.5,0.3,"[1,3,2]",0.899076104,stimuli/card_100_transparent.png,100,14,0,14,0,1,,,,,,,,,,
,,,,63220fb95b15e676e19d7af8,B,2024-06-21_22h37.26.214,Slot Machine Game,2023.1.3,Win32,60.24096386,,,,,,,,,,,,,,,,,,,,,,,,,,,,,,,,,,,638.1106,,,,,,,,,,,,,,,,,,,,,,,,,,,,,,,,,"[1300,1210,1500,550,830,940,1030,1320,1140,950]",9,0,9,0,1,,,,
,,,,63220fb95b15e676e19d7af8,B,2024-06-21_22h37.26.214,Slot Machine Game,2023.1.3,Win32,60.24096386,,,,,,,,,,,,,,,,,,,,,,,,,,,,,,,,,,,,,,,,,,,,,,,,,,,,,,,,,,,,,,,,,,,,,,,,,,9,"[1300,1210,1500,550,830,940,1030,1320,1140,950]",5.5,2024-06-21_22h48.13.433
