key_resp_welcome_started,key_resp_welcome_keys,key_resp_welcome_rt,key_resp_welcome_duration,prolific_id,path_id,date,expName,psychopyVersion,OS,frameRate,key_resp_instruction1_started,key_resp_instruction1_keys,key_resp_instruction1_rt,key_resp_instruction1_duration,key_resp_instruction2_started,key_resp_instruction2_keys,key_resp_instruction2_rt,key_resp_instruction2_duration,key_resp_instruction3_started,key_resp_instruction3_keys,key_resp_instruction3_rt,key_resp_instruction3_duration,key_resp_instruction4_started,key_resp_instruction4_keys,key_resp_instruction4_rt,key_resp_instruction4_duration,practiceCondition,practice_reward_seqs,practice_trial_started,practice_trial_num,practice_resp_rt,practice_resp_duration,practice_resp_keys,prac_presentationInterval,"practice_reward_seq: 2,1,3",reward_img,cumulative_reward,trial_reward,practice_trials.thisRepN,practice_trials.thisTrialN,practice_trials.thisN,practice_trials.thisIndex,practice_trials.ran,"practice_reward_seq: 2,3,1",block_break_started,"practice_reward_seq: 1,3,2","practice_reward_seq: 3,1,2",practice_end_time,practice_end_keys,practice_end_rt,practice_end_duration,main_instruction_text_started,block_condition,block_order_indices,main_instruction_keys,main_instruction_rt,main_instruction_duration,block_number,block_assignment,current_condition,main_reward_seqs,main_trial_started,main_trial_num,main_trial_keys,main_trial_rt,main_trial_duration,main_presentationInterval,reward_presentation_time,main_reward_seq,reward_rand_val,main_reward_img,current_reward,main_trials.thisRepN,main_trials.thisTrialN,main_trials.thisN,main_trials.thisIndex,main_trials.ran,block_reward,block.thisRepN,block.thisTrialN,block.thisN,block.thisIndex,block.ran,block_reward.length,block_reward_all,reward_amount,date_end_task
1E-04,space,2.2765,,63e51ddb19fccd05514c629c,B,2024-06-21_16h40.39.765,Slot Machine Game,2023.1.3,Win32,99.00990099,,,,,,,,,,,,,,,,,,,,,,,,,,,,,,,,,,,,,,,,,,,,,,,,,,,,,,,,,,,,,,,,,,,,,,,,,,,,,
,,,,63e51ddb19fccd05514c629c,B,2024-06-21_16h40.39.765,Slot Machine Game,2023.1.3,Win32,99.00990099,2.2815,a,19.9574,,,,,,,,,,,,,,,,,,,,,,,,,,,,,,,,,,,,,,,,,,,,,,,,,,,,,,,,,,,,,,,,,,,,,,,,,,
,,,,63e51ddb19fccd05514c629c,B,2024-06-21_16h40.39.765,Slot Machine Game,2023.1.3,Win32,99.00990099,,,,,22.2505,space,21.2287,,,,,,,,,,,,,,,,,,,,,,,,,,,,,,,,,,,,,,,,,,,,,,,,,,,,,,,,,,,,,,,,,,,,,,
,,,,63e51ddb19fccd05514c629c,B,2024-06-21_16h40.39.765,Slot Machine Game,2023.1.3,Win32,99.00990099,,,,,,,,,43.4919,space,5.694,,,,,,,,,,,,,,,,,,,,,,,,,,,,,,,,,,,,,,,,,,,,,,,,,,,,,,,,,,,,,,,,,,
,,,,63e51ddb19fccd05514c629c,B,2024-06-21_16h40.39.765,Slot Machine Game,2023.1.3,Win32,99.00990099,,,,,,,,,,,,,,,,,,,,,,,,,,,,,,,,,,,,,,,,,,,,,,,,,,,,,,,,,,,,,,,,,,,,,,,,,,,,,
,,,,63e51ddb19fccd05514c629c,B,2024-06-21_16h40.39.765,Slot Machine Game,2023.1.3,Win32,99.00990099,,,,,,,,,,,,,190.8302,left,2.4172,,,,,,,,,,,,,,,,,,,,,,,,,,,,,,,,,,,,,,,,,,,,,,,,,,,,,,,,,,,,,,
,,,,63e51ddb19fccd05514c629c,B,2024-06-21_16h40.39.765,Slot Machine Game,2023.1.3,Win32,99.00990099,,,,,,,,,,,,,,,,,"[9,15]","[[2,1,3],[2,3,1]]",193.261,0,0.6754,,left,1.5,,stimuli/card_10_transparent.png,10,10,0,0,0,0,1,,,,,,,,,,,,,,,,,,,,,,,,,,,,,,,,,,,,,,,,,,,,
,,,,63e51ddb19fccd05514c629c,B,2024-06-21_16h40.39.765,Slot Machine Game,2023.1.3,Win32,99.00990099,,,,,,,,,,,,,,,,,,,196.2606,1,0.5894,,left,1,,stimuli/card_0_transparent.png,10,0,1,0,1,0,1,,,,,,,,,,,,,,,,,,,,,,,,,,,,,,,,,,,,,,,,,,,,
,,,,63e51ddb19fccd05514c629c,B,2024-06-21_16h40.39.765,Slot Machine Game,2023.1.3,Win32,99.00990099,,,,,,,,,,,,,,,,,,,198.6529,2,0.0695,,left,1,,stimuli/card_10_transparent.png,20,10,2,0,2,0,1,,,,,,,,,,,,,,,,,,,,,,,,,,,,,,,,,,,,,,,,,,,,
,,,,63e51ddb19fccd05514c629c,B,2024-06-21_16h40.39.765,Slot Machine Game,2023.1.3,Win32,99.00990099,,,,,,,,,,,,,,,,,,,200.5246,3,0.0201,,up,0.5,,stimuli/card_10_transparent.png,30,10,3,0,3,0,1,,,,,,,,,,,,,,,,,,,,,,,,,,,,,,,,,,,,,,,,,,,,
,,,,63e51ddb19fccd05514c629c,B,2024-06-21_16h40.39.765,Slot Machine Game,2023.1.3,Win32,99.00990099,,,,,,,,,,,,,,,,,,,201.8559,4,1.9634,,right,1,,stimuli/card_0_transparent.png,30,0,4,0,4,0,1,,,,,,,,,,,,,,,,,,,,,,,,,,,,,,,,,,,,,,,,,,,,
,,,,63e51ddb19fccd05514c629c,B,2024-06-21_16h40.39.765,Slot Machine Game,2023.1.3,Win32,99.00990099,,,,,,,,,,,,,,,,,,,205.6398,5,0.4699,,left,1.5,,stimuli/card_10_transparent.png,40,10,5,0,5,0,1,,,,,,,,,,,,,,,,,,,,,,,,,,,,,,,,,,,,,,,,,,,,
,,,,63e51ddb19fccd05514c629c,B,2024-06-21_16h40.39.765,Slot Machine Game,2023.1.3,Win32,99.00990099,,,,,,,,,,,,,,,,,,,208.4129,6,0.6412,,up,1.5,,stimuli/card_100_transparent.png,140,100,6,0,6,0,1,,,,,,,,,,,,,,,,,,,,,,,,,,,,,,,,,,,,,,,,,,,,
,,,,63e51ddb19fccd05514c629c,B,2024-06-21_16h40.39.765,Slot Machine Game,2023.1.3,Win32,99.00990099,,,,,,,,,,,,,,,,,,,211.3854,7,0.1362,,up,1.5,,stimuli/card_100_transparent.png,240,100,7,0,7,0,1,,,,,,,,,,,,,,,,,,,,,,,,,,,,,,,,,,,,,,,,,,,,
,,,,63e51ddb19fccd05514c629c,B,2024-06-21_16h40.39.765,Slot Machine Game,2023.1.3,Win32,99.00990099,,,,,,,,,,,,,,,,,,,213.8278,8,0.0602,,up,1,,stimuli/card_100_transparent.png,340,100,8,0,8,0,1,,,,,,,,,,,,,,,,,,,,,,,,,,,,,,,,,,,,,,,,,,,,
,,,,63e51ddb19fccd05514c629c,B,2024-06-21_16h40.39.765,Slot Machine Game,2023.1.3,Win32,99.00990099,,,,,,,,,,,,,,,,,,,215.6994,9,0.5993,,up,0.5,,stimuli/card_0_transparent.png,340,0,9,0,9,0,1,,,,,,,,,,,,,,,,,,,,,,,,,,,,,,,,,,,,,,,,,,,,
,,,,63e51ddb19fccd05514c629c,B,2024-06-21_16h40.39.765,Slot Machine Game,2023.1.3,Win32,99.00990099,,,,,,,,,,,,,,,,,,,217.6014,10,0.3065,,up,0.5,,stimuli/card_0_transparent.png,340,0,10,0,10,0,1,,,,,,,,,,,,,,,,,,,,,,,,,,,,,,,,,,,,,,,,,,,,
,,,,63e51ddb19fccd05514c629c,B,2024-06-21_16h40.39.765,Slot Machine Game,2023.1.3,Win32,99.00990099,,,,,,,,,,,,,,,,,,,219.223,11,0.7659,,right,1,,stimuli/card_100_transparent.png,440,100,11,0,11,0,1,,,,,,,,,,,,,,,,,,,,,,,,,,,,,,,,,,,,,,,,,,,,
,,,,63e51ddb19fccd05514c629c,B,2024-06-21_16h40.39.765,Slot Machine Game,2023.1.3,Win32,99.00990099,,,,,,,,,,,,,,,,,,,221.8057,12,0.594,,right,0.5,,stimuli/card_100_transparent.png,540,100,12,0,12,0,1,,,,,,,,,,,,,,,,,,,,,,,,,,,,,,,,,,,,,,,,,,,,
,,,,63e51ddb19fccd05514c629c,B,2024-06-21_16h40.39.765,Slot Machine Game,2023.1.3,Win32,99.00990099,,,,,,,,,,,,,,,,,,,223.7177,13,0.2595,,right,1,,stimuli/card_100_transparent.png,640,100,13,0,13,0,1,,,,,,,,,,,,,,,,,,,,,,,,,,,,,,,,,,,,,,,,,,,,
,,,,63e51ddb19fccd05514c629c,B,2024-06-21_16h40.39.765,Slot Machine Game,2023.1.3,Win32,99.00990099,,,,,,,,,,,,,,,,,,,225.7898,14,0.6803,,right,0.5,,stimuli/card_100_transparent.png,740,100,14,0,14,0,1,,,,,,,,,,,,,,,,,,,,,,,,,,,,,,,,,,,,,,,,,,,,
,,,,63e51ddb19fccd05514c629c,B,2024-06-21_16h40.39.765,Slot Machine Game,2023.1.3,Win32,99.00990099,,,,,,,,,,,,,,,,,"[6,15]","[[1,3,2],[3,1,2]]",232.793,0,2.9399,,up,1,,stimuli/card_0_transparent.png,0,0,0,0,0,0,1,,227.7853,,,,,,,,,,,,,,,,,,,,,,,,,,,,,,,,,,,,,,,,,,
,,,,63e51ddb19fccd05514c629c,B,2024-06-21_16h40.39.765,Slot Machine Game,2023.1.3,Win32,99.00990099,,,,,,,,,,,,,,,,,,,237.5512,1,1.4913,,left,1.5,,stimuli/card_100_transparent.png,100,100,1,0,1,0,1,,,,,,,,,,,,,,,,,,,,,,,,,,,,,,,,,,,,,,,,,,,,
,,,,63e51ddb19fccd05514c629c,B,2024-06-21_16h40.39.765,Slot Machine Game,2023.1.3,Win32,99.00990099,,,,,,,,,,,,,,,,,,,241.3445,2,1.0711,,left,1,,stimuli/card_100_transparent.png,200,100,2,0,2,0,1,,,,,,,,,,,,,,,,,,,,,,,,,,,,,,,,,,,,,,,,,,,,
,,,,63e51ddb19fccd05514c629c,B,2024-06-21_16h40.39.765,Slot Machine Game,2023.1.3,Win32,99.00990099,,,,,,,,,,,,,,,,,,,244.2273,3,0.6002,,left,1,,stimuli/card_100_transparent.png,300,100,3,0,3,0,1,,,,,,,,,,,,,,,,,,,,,,,,,,,,,,,,,,,,,,,,,,,,
,,,,63e51ddb19fccd05514c629c,B,2024-06-21_16h40.39.765,Slot Machine Game,2023.1.3,Win32,99.00990099,,,,,,,,,,,,,,,,,,,246.6396,4,1.6315,,left,0.5,,stimuli/card_100_transparent.png,400,100,4,0,4,0,1,,,,,,,,,,,,,,,,,,,,,,,,,,,,,,,,,,,,,,,,,,,,
,,,,63e51ddb19fccd05514c629c,B,2024-06-21_16h40.39.765,Slot Machine Game,2023.1.3,Win32,99.00990099,,,,,,,,,,,,,,,,,,,249.5826,5,0.5611,,left,0.5,,stimuli/card_100_transparent.png,500,100,5,0,5,0,1,,,,,,,,,,,,,,,,,,,,,,,,,,,,,,,,,,,,,,,,,,,,
,,,,63e51ddb19fccd05514c629c,B,2024-06-21_16h40.39.765,Slot Machine Game,2023.1.3,Win32,99.00990099,,,,,,,,,,,,,,,,,,,251.4544,6,0.6607,,left,0.5,,stimuli/card_0_transparent.png,500,0,6,0,6,0,1,,,,,,,,,,,,,,,,,,,,,,,,,,,,,,,,,,,,,,,,,,,,
,,,,63e51ddb19fccd05514c629c,B,2024-06-21_16h40.39.765,Slot Machine Game,2023.1.3,Win32,99.00990099,,,,,,,,,,,,,,,,,,,253.4262,7,0.7285,,right,0.5,,stimuli/card_10_transparent.png,510,10,7,0,7,0,1,,,,,,,,,,,,,,,,,,,,,,,,,,,,,,,,,,,,,,,,,,,,
,,,,63e51ddb19fccd05514c629c,B,2024-06-21_16h40.39.765,Slot Machine Game,2023.1.3,Win32,99.00990099,,,,,,,,,,,,,,,,,,,255.4585,8,0.4088,,left,0.5,,stimuli/card_0_transparent.png,510,0,8,0,8,0,1,,,,,,,,,,,,,,,,,,,,,,,,,,,,,,,,,,,,,,,,,,,,
,,,,63e51ddb19fccd05514c629c,B,2024-06-21_16h40.39.765,Slot Machine Game,2023.1.3,Win32,99.00990099,,,,,,,,,,,,,,,,,,,257.17,9,0.2896,,up,0.5,,stimuli/card_10_transparent.png,520,10,9,0,9,0,1,,,,,,,,,,,,,,,,,,,,,,,,,,,,,,,,,,,,,,,,,,,,
,,,,63e51ddb19fccd05514c629c,B,2024-06-21_16h40.39.765,Slot Machine Game,2023.1.3,Win32,99.00990099,,,,,,,,,,,,,,,,,,,258.7615,10,0.1965,,up,1,,stimuli/card_100_transparent.png,620,100,10,0,10,0,1,,,,,,,,,,,,,,,,,,,,,,,,,,,,,,,,,,,,,,,,,,,,
,,,,63e51ddb19fccd05514c629c,B,2024-06-21_16h40.39.765,Slot Machine Game,2023.1.3,Win32,99.00990099,,,,,,,,,,,,,,,,,,,260.7736,11,0.0698,,up,0.5,,stimuli/card_10_transparent.png,630,10,11,0,11,0,1,,,,,,,,,,,,,,,,,,,,,,,,,,,,,,,,,,,,,,,,,,,,
,,,,63e51ddb19fccd05514c629c,B,2024-06-21_16h40.39.765,Slot Machine Game,2023.1.3,Win32,99.00990099,,,,,,,,,,,,,,,,,,,262.1451,12,0.6578,,up,0.5,,stimuli/card_0_transparent.png,630,0,12,0,12,0,1,,,,,,,,,,,,,,,,,,,,,,,,,,,,,,,,,,,,,,,,,,,,
,,,,63e51ddb19fccd05514c629c,B,2024-06-21_16h40.39.765,Slot Machine Game,2023.1.3,Win32,99.00990099,,,,,,,,,,,,,,,,,,,264.1067,13,0.0579,,right,0.5,,stimuli/card_10_transparent.png,640,10,13,0,13,0,1,,,,,,,,,,,,,,,,,,,,,,,,,,,,,,,,,,,,,,,,,,,,
,,,,63e51ddb19fccd05514c629c,B,2024-06-21_16h40.39.765,Slot Machine Game,2023.1.3,Win32,99.00990099,,,,,,,,,,,,,,,,,,,265.4682,14,0.1355,,left,1,,stimuli/card_100_transparent.png,740,100,14,0,14,0,1,,,,,,,,,,,,,,,,,,,,,,,,,,,,,,,,,,,,,,,,,,,,
,,,,63e51ddb19fccd05514c629c,B,2024-06-21_16h40.39.765,Slot Machine Game,2023.1.3,Win32,99.00990099,,,,,,,,,,,,,,,,,,,,,,,,,,,,,,,,,,,267.41,,,272.4055,space,1.9443,,,,,,,,,,,,,,,,,,,,,,,,,,,,,,,,,,,,,
,,,,63e51ddb19fccd05514c629c,B,2024-06-21_16h40.39.765,Slot Machine Game,2023.1.3,Win32,99.00990099,,,,,,,,,,,,,,,,,,,,,,,,,,,,,,,,,,,,,,,,,,274.3676,3,"[0,4,6,3,5,7,8,1,9,2]",space,2.0358,,,,,,,,,,,,,,,,,,,,,,,,,,,,,,,
,,,,63e51ddb19fccd05514c629c,B,2024-06-21_16h40.39.765,Slot Machine Game,2023.1.3,Win32,99.00990099,,,,,,,,,,,,,,,,,,,,,,,,,,,100,,,,,,,,,,,,,,,,,,,,,1,1,"[12,15]","[[2,1,3],[2,3,1]]",276.43,0,up,0.9885,,0.5,0.3,"[2,1,3]",0.319449002,stimuli/card_100_transparent.png,100,0,0,0,0,1,,,,,,,,,,
,,,,63e51ddb19fccd05514c629c,B,2024-06-21_16h40.39.765,Slot Machine Game,2023.1.3,Win32,99.00990099,,,,,,,,,,,,,,,,,,,,,,,,,,,200,,,,,,,,,,,,,,,,,,,,,1,1,,,278.7414,1,up,0.124,,1.5,0.3,"[2,1,3]",0.622848227,stimuli/card_100_transparent.png,100,1,0,1,0,1,,,,,,,,,,
,,,,63e51ddb19fccd05514c629c,B,2024-06-21_16h40.39.765,Slot Machine Game,2023.1.3,Win32,99.00990099,,,,,,,,,,,,,,,,,,,,,,,,,,,200,,,,,,,,,,,,,,,,,,,,,1,1,,,281.1733,2,up,0.0022,,1,0.3,"[2,1,3]",0.096948511,stimuli/card_0_transparent.png,0,2,0,2,0,1,,,,,,,,,,
,,,,63e51ddb19fccd05514c629c,B,2024-06-21_16h40.39.765,Slot Machine Game,2023.1.3,Win32,99.00990099,,,,,,,,,,,,,,,,,,,,,,,,,,,210,,,,,,,,,,,,,,,,,,,,,1,1,,,282.9854,3,left,0.8833,,0.5,0.3,"[2,1,3]",0.569079015,stimuli/card_10_transparent.png,10,3,0,3,0,1,,,,,,,,,,
,,,,63e51ddb19fccd05514c629c,B,2024-06-21_16h40.39.765,Slot Machine Game,2023.1.3,Win32,99.00990099,,,,,,,,,,,,,,,,,,,,,,,,,,,210,,,,,,,,,,,,,,,,,,,,,1,1,,,285.1775,4,right,0.2621,,0.5,0.3,"[2,1,3]",0.728985093,stimuli/card_0_transparent.png,0,4,0,4,0,1,,,,,,,,,,
,,,,63e51ddb19fccd05514c629c,B,2024-06-21_16h40.39.765,Slot Machine Game,2023.1.3,Win32,99.00990099,,,,,,,,,,,,,,,,,,,,,,,,,,,210,,,,,,,,,,,,,,,,,,,,,1,1,,,286.749,5,right,0.019,,1.5,0.3,"[2,1,3]",0.427194021,stimuli/card_0_transparent.png,0,5,0,5,0,1,,,,,,,,,,
,,,,63e51ddb19fccd05514c629c,B,2024-06-21_16h40.39.765,Slot Machine Game,2023.1.3,Win32,99.00990099,,,,,,,,,,,,,,,,,,,,,,,,,,,310,,,,,,,,,,,,,,,,,,,,,1,1,,,289.081,6,left,0.3153,,1.5,0.3,"[2,1,3]",0.128634916,stimuli/card_100_transparent.png,100,6,0,6,0,1,,,,,,,,,,
,,,,63e51ddb19fccd05514c629c,B,2024-06-21_16h40.39.765,Slot Machine Game,2023.1.3,Win32,99.00990099,,,,,,,,,,,,,,,,,,,,,,,,,,,320,,,,,,,,,,,,,,,,,,,,,1,1,,,291.7143,7,left,0.1029,,0.5,0.3,"[2,1,3]",0.233573093,stimuli/card_10_transparent.png,10,7,0,7,0,1,,,,,,,,,,
,,,,63e51ddb19fccd05514c629c,B,2024-06-21_16h40.39.765,Slot Machine Game,2023.1.3,Win32,99.00990099,,,,,,,,,,,,,,,,,,,,,,,,,,,330,,,,,,,,,,,,,,,,,,,,,1,1,,,293.135,8,left,0.2176,,1,0.3,"[2,1,3]",0.466684829,stimuli/card_10_transparent.png,10,8,0,8,0,1,,,,,,,,,,
,,,,63e51ddb19fccd05514c629c,B,2024-06-21_16h40.39.765,Slot Machine Game,2023.1.3,Win32,99.00990099,,,,,,,,,,,,,,,,,,,,,,,,,,,330,,,,,,,,,,,,,,,,,,,,,1,1,,,295.1575,9,right,0.9445,,1,0.3,"[2,1,3]",0.942459923,stimuli/card_0_transparent.png,0,9,0,9,0,1,,,,,,,,,,
,,,,63e51ddb19fccd05514c629c,B,2024-06-21_16h40.39.765,Slot Machine Game,2023.1.3,Win32,99.00990099,,,,,,,,,,,,,,,,,,,,,,,,,,,430,,,,,,,,,,,,,,,,,,,,,1,1,,,297.9096,10,up,0.3373,,1,0.3,"[2,1,3]",0.528339159,stimuli/card_100_transparent.png,100,10,0,10,0,1,,,,,,,,,,
,,,,63e51ddb19fccd05514c629c,B,2024-06-21_16h40.39.765,Slot Machine Game,2023.1.3,Win32,99.00990099,,,,,,,,,,,,,,,,,,,,,,,,,,,530,,,,,,,,,,,,,,,,,,,,,1,1,,,300.0624,11,up,0.2652,,1,0.3,"[2,1,3]",0.850283955,stimuli/card_100_transparent.png,100,11,0,11,0,1,,,,,,,,,,
,,,,63e51ddb19fccd05514c629c,B,2024-06-21_16h40.39.765,Slot Machine Game,2023.1.3,Win32,99.00990099,,,,,,,,,,,,,,,,,,,,,,,,,,,530,,,,,,,,,,,,,,,,,,,,,1,1,,,302.1441,12,up,0.0098,,1.5,0.3,"[2,3,1]",0.421980663,stimuli/card_0_transparent.png,0,12,0,12,0,1,,,,,,,,,,
,,,,63e51ddb19fccd05514c629c,B,2024-06-21_16h40.39.765,Slot Machine Game,2023.1.3,Win32,99.00990099,,,,,,,,,,,,,,,,,,,,,,,,,,,540,,,,,,,,,,,,,,,,,,,,,1,1,,,304.4562,13,left,0.0944,,1.5,0.3,"[2,3,1]",0.826868802,stimuli/card_10_transparent.png,10,13,0,13,0,1,,,,,,,,,,
,,,,63e51ddb19fccd05514c629c,B,2024-06-21_16h40.39.765,Slot Machine Game,2023.1.3,Win32,99.00990099,,,,,,,,,,,,,,,,,,,,,,,,,,,,,,,,,,,,,,,,,,,,,,,,1,1,,,306.8587,14,,,,0.5,0.3,,,,,14,0,14,0,1,,,,,,,,,,
,,,,63e51ddb19fccd05514c629c,B,2024-06-21_16h40.39.765,Slot Machine Game,2023.1.3,Win32,99.00990099,,,,,,,,,,,,,,,,,,,,,,,,,,,,,,,,,,,312.3658,,,,,,,,,,,,,,,,,,,,,,,,,,,,,,,,,[540],0,0,0,0,1,,,,
,,,,63e51ddb19fccd05514c629c,B,2024-06-21_16h40.39.765,Slot Machine Game,2023.1.3,Win32,99.00990099,,,,,,,,,,,,,,,,,,,,,,,,,,,0,,,,,,,,,,,,,,,,,,,,,2,5,"[5,15]","[[1,2,3],[3,1,2]]",317.3613,0,left,1.0625,,0.5,0.3,"[1,2,3]",0.069936894,stimuli/card_0_transparent.png,0,0,0,0,0,1,,,,,,,,,,
,,,,63e51ddb19fccd05514c629c,B,2024-06-21_16h40.39.765,Slot Machine Game,2023.1.3,Win32,99.00990099,,,,,,,,,,,,,,,,,,,,,,,,,,,100,,,,,,,,,,,,,,,,,,,,,2,5,,,319.7414,1,up,0.4262,,1,0.3,"[1,2,3]",0.101975864,stimuli/card_100_transparent.png,100,1,0,1,0,1,,,,,,,,,,
,,,,63e51ddb19fccd05514c629c,B,2024-06-21_16h40.39.765,Slot Machine Game,2023.1.3,Win32,99.00990099,,,,,,,,,,,,,,,,,,,,,,,,,,,110,,,,,,,,,,,,,,,,,,,,,2,5,,,321.9836,2,up,0.3068,,1,0.3,"[1,2,3]",0.640006287,stimuli/card_10_transparent.png,10,2,0,2,0,1,,,,,,,,,,
,,,,63e51ddb19fccd05514c629c,B,2024-06-21_16h40.39.765,Slot Machine Game,2023.1.3,Win32,99.00990099,,,,,,,,,,,,,,,,,,,,,,,,,,,120,,,,,,,,,,,,,,,,,,,,,2,5,,,324.0957,3,up,0.1699,,0.5,0.3,"[1,2,3]",0.766598498,stimuli/card_10_transparent.png,10,3,0,3,0,1,,,,,,,,,,
,,,,63e51ddb19fccd05514c629c,B,2024-06-21_16h40.39.765,Slot Machine Game,2023.1.3,Win32,99.00990099,,,,,,,,,,,,,,,,,,,,,,,,,,,120,,,,,,,,,,,,,,,,,,,,,2,5,,,325.5774,4,right,0.4711,,1.5,0.3,"[1,2,3]",0.921233747,stimuli/card_0_transparent.png,0,4,0,4,0,1,,,,,,,,,,
,,,,63e51ddb19fccd05514c629c,B,2024-06-21_16h40.39.765,Slot Machine Game,2023.1.3,Win32,99.00990099,,,,,,,,,,,,,,,,,,,,,,,,,,,130,,,,,,,,,,,,,,,,,,,,,2,5,,,328.3597,5,right,0.6641,,1,0.3,"[3,1,2]",0.298212664,stimuli/card_10_transparent.png,10,5,0,5,0,1,,,,,,,,,,
,,,,63e51ddb19fccd05514c629c,B,2024-06-21_16h40.39.765,Slot Machine Game,2023.1.3,Win32,99.00990099,,,,,,,,,,,,,,,,,,,,,,,,,,,130,,,,,,,,,,,,,,,,,,,,,2,5,,,330.8318,6,left,1.0136,,0.5,0.3,"[3,1,2]",0.247112189,stimuli/card_0_transparent.png,0,6,0,6,0,1,,,,,,,,,,
,,,,63e51ddb19fccd05514c629c,B,2024-06-21_16h40.39.765,Slot Machine Game,2023.1.3,Win32,99.00990099,,,,,,,,,,,,,,,,,,,,,,,,,,,130,,,,,,,,,,,,,,,,,,,,,2,5,,,333.1542,7,left,0.0608,,0.5,0.3,"[3,1,2]",0.789529291,stimuli/card_0_transparent.png,0,7,0,7,0,1,,,,,,,,,,
,,,,63e51ddb19fccd05514c629c,B,2024-06-21_16h40.39.765,Slot Machine Game,2023.1.3,Win32,99.00990099,,,,,,,,,,,,,,,,,,,,,,,,,,,230,,,,,,,,,,,,,,,,,,,,,2,5,,,334.526,8,up,0.6594,,1,0.3,"[3,1,2]",0.52657678,stimuli/card_100_transparent.png,100,8,0,8,0,1,,,,,,,,,,
,,,,63e51ddb19fccd05514c629c,B,2024-06-21_16h40.39.765,Slot Machine Game,2023.1.3,Win32,99.00990099,,,,,,,,,,,,,,,,,,,,,,,,,,,330,,,,,,,,,,,,,,,,,,,,,2,5,,,336.9979,9,up,0.0301,,1.5,0.3,"[3,1,2]",0.383502964,stimuli/card_100_transparent.png,100,9,0,9,0,1,,,,,,,,,,
,,,,63e51ddb19fccd05514c629c,B,2024-06-21_16h40.39.765,Slot Machine Game,2023.1.3,Win32,99.00990099,,,,,,,,,,,,,,,,,,,,,,,,,,,430,,,,,,,,,,,,,,,,,,,,,2,5,,,339.3403,10,up,0.4111,,1,0.3,"[3,1,2]",0.294694104,stimuli/card_100_transparent.png,100,10,0,10,0,1,,,,,,,,,,
,,,,63e51ddb19fccd05514c629c,B,2024-06-21_16h40.39.765,Slot Machine Game,2023.1.3,Win32,99.00990099,,,,,,,,,,,,,,,,,,,,,,,,,,,530,,,,,,,,,,,,,,,,,,,,,2,5,,,341.5628,11,up,0.4477,,1,0.3,"[3,1,2]",0.936717961,stimuli/card_100_transparent.png,100,11,0,11,0,1,,,,,,,,,,
,,,,63e51ddb19fccd05514c629c,B,2024-06-21_16h40.39.765,Slot Machine Game,2023.1.3,Win32,99.00990099,,,,,,,,,,,,,,,,,,,,,,,,,,,630,,,,,,,,,,,,,,,,,,,,,2,5,,,343.8149,12,up,0.2466,,1,0.3,"[3,1,2]",0.701048472,stimuli/card_100_transparent.png,100,12,0,12,0,1,,,,,,,,,,
,,,,63e51ddb19fccd05514c629c,B,2024-06-21_16h40.39.765,Slot Machine Game,2023.1.3,Win32,99.00990099,,,,,,,,,,,,,,,,,,,,,,,,,,,630,,,,,,,,,,,,,,,,,,,,,2,5,,,345.8671,13,up,0.5232,,1.5,0.3,"[3,1,2]",0.030064032,stimuli/card_0_transparent.png,0,13,0,13,0,1,,,,,,,,,,
,,,,63e51ddb19fccd05514c629c,B,2024-06-21_16h40.39.765,Slot Machine Game,2023.1.3,Win32,99.00990099,,,,,,,,,,,,,,,,,,,,,,,,,,,640,,,,,,,,,,,,,,,,,,,,,2,5,,,348.7094,14,right,0.173,,1,0.3,"[3,1,2]",0.542653104,stimuli/card_10_transparent.png,10,14,0,14,0,1,,,,,,,,,,
,,,,63e51ddb19fccd05514c629c,B,2024-06-21_16h40.39.765,Slot Machine Game,2023.1.3,Win32,99.00990099,,,,,,,,,,,,,,,,,,,,,,,,,,,,,,,,,,,350.6999,,,,,,,,,,,,,,,,,,,,,,,,,,,,,,,,,"[540,640]",1,0,1,0,1,,,,
,,,,63e51ddb19fccd05514c629c,B,2024-06-21_16h40.39.765,Slot Machine Game,2023.1.3,Win32,99.00990099,,,,,,,,,,,,,,,,,,,,,,,,,,,10,,,,,,,,,,,,,,,,,,,,,3,7,"[9,15]","[[1,3,2],[2,3,1]]",355.7057,0,left,0.3102,,1,0.3,"[1,3,2]",0.13487985,stimuli/card_10_transparent.png,10,0,0,0,0,1,,,,,,,,,,
,,,,63e51ddb19fccd05514c629c,B,2024-06-21_16h40.39.765,Slot Machine Game,2023.1.3,Win32,99.00990099,,,,,,,,,,,,,,,,,,,,,,,,,,,110,,,,,,,,,,,,,,,,,,,,,3,7,,,357.8284,1,left,0.6975,,0.5,0.3,"[1,3,2]",0.392455469,stimuli/card_100_transparent.png,100,1,0,1,0,1,,,,,,,,,,
,,,,63e51ddb19fccd05514c629c,B,2024-06-21_16h40.39.765,Slot Machine Game,2023.1.3,Win32,99.00990099,,,,,,,,,,,,,,,,,,,,,,,,,,,110,,,,,,,,,,,,,,,,,,,,,3,7,,,359.8306,2,left,0.1017,,1,0.3,"[1,3,2]",0.053634051,stimuli/card_0_transparent.png,0,2,0,2,0,1,,,,,,,,,,
,,,,63e51ddb19fccd05514c629c,B,2024-06-21_16h40.39.765,Slot Machine Game,2023.1.3,Win32,99.00990099,,,,,,,,,,,,,,,,,,,,,,,,,,,110,,,,,,,,,,,,,,,,,,,,,3,7,,,361.7424,3,up,0.5231,,1.5,0.3,"[1,3,2]",0.46545896,stimuli/card_0_transparent.png,0,3,0,3,0,1,,,,,,,,,,
,,,,63e51ddb19fccd05514c629c,B,2024-06-21_16h40.39.765,Slot Machine Game,2023.1.3,Win32,99.00990099,,,,,,,,,,,,,,,,,,,,,,,,,,,120,,,,,,,,,,,,,,,,,,,,,3,7,,,364.5753,4,right,0.3954,,1,0.3,"[1,3,2]",0.578915284,stimuli/card_10_transparent.png,10,4,0,4,0,1,,,,,,,,,,
,,,,63e51ddb19fccd05514c629c,B,2024-06-21_16h40.39.765,Slot Machine Game,2023.1.3,Win32,99.00990099,,,,,,,,,,,,,,,,,,,,,,,,,,,130,,,,,,,,,,,,,,,,,,,,,3,7,,,366.7772,5,right,0.2223,,1,0.3,"[1,3,2]",0.905013435,stimuli/card_10_transparent.png,10,5,0,5,0,1,,,,,,,,,,
,,,,63e51ddb19fccd05514c629c,B,2024-06-21_16h40.39.765,Slot Machine Game,2023.1.3,Win32,99.00990099,,,,,,,,,,,,,,,,,,,,,,,,,,,230,,,,,,,,,,,,,,,,,,,,,3,7,,,368.8092,6,left,0.2209,,1,0.3,"[1,3,2]",0.524534226,stimuli/card_100_transparent.png,100,6,0,6,0,1,,,,,,,,,,
,,,,63e51ddb19fccd05514c629c,B,2024-06-21_16h40.39.765,Slot Machine Game,2023.1.3,Win32,99.00990099,,,,,,,,,,,,,,,,,,,,,,,,,,,330,,,,,,,,,,,,,,,,,,,,,3,7,,,370.8414,7,left,0.5232,,1,0.3,"[1,3,2]",0.759982932,stimuli/card_100_transparent.png,100,7,0,7,0,1,,,,,,,,,,
,,,,63e51ddb19fccd05514c629c,B,2024-06-21_16h40.39.765,Slot Machine Game,2023.1.3,Win32,99.00990099,,,,,,,,,,,,,,,,,,,,,,,,,,,330,,,,,,,,,,,,,,,,,,,,,3,7,,,373.1736,8,left,0.339,,0.5,0.3,"[1,3,2]",0.042835295,stimuli/card_0_transparent.png,0,8,0,8,0,1,,,,,,,,,,
,,,,63e51ddb19fccd05514c629c,B,2024-06-21_16h40.39.765,Slot Machine Game,2023.1.3,Win32,99.00990099,,,,,,,,,,,,,,,,,,,,,,,,,,,340,,,,,,,,,,,,,,,,,,,,,3,7,,,374.8155,9,left,0.1375,,1.5,0.3,"[2,3,1]",0.32452249,stimuli/card_10_transparent.png,10,9,0,9,0,1,,,,,,,,,,
,,,,63e51ddb19fccd05514c629c,B,2024-06-21_16h40.39.765,Slot Machine Game,2023.1.3,Win32,99.00990099,,,,,,,,,,,,,,,,,,,,,,,,,,,350,,,,,,,,,,,,,,,,,,,,,3,7,,,377.2679,10,left,0.0533,,1.5,0.3,"[2,3,1]",0.784868614,stimuli/card_10_transparent.png,10,10,0,10,0,1,,,,,,,,,,
,,,,63e51ddb19fccd05514c629c,B,2024-06-21_16h40.39.765,Slot Machine Game,2023.1.3,Win32,99.00990099,,,,,,,,,,,,,,,,,,,,,,,,,,,350,,,,,,,,,,,,,,,,,,,,,3,7,,,379.6399,11,up,0.1269,,0.5,0.3,"[2,3,1]",0.732084779,stimuli/card_0_transparent.png,0,11,0,11,0,1,,,,,,,,,,
,,,,63e51ddb19fccd05514c629c,B,2024-06-21_16h40.39.765,Slot Machine Game,2023.1.3,Win32,99.00990099,,,,,,,,,,,,,,,,,,,,,,,,,,,350,,,,,,,,,,,,,,,,,,,,,3,7,,,381.0716,12,right,0.0065,,0.5,0.3,"[2,3,1]",0.021501263,stimuli/card_0_transparent.png,0,12,0,12,0,1,,,,,,,,,,
,,,,63e51ddb19fccd05514c629c,B,2024-06-21_16h40.39.765,Slot Machine Game,2023.1.3,Win32,99.00990099,,,,,,,,,,,,,,,,,,,,,,,,,,,450,,,,,,,,,,,,,,,,,,,,,3,7,,,382.3725,13,right,0.565,,1.5,0.3,"[2,3,1]",0.788351206,stimuli/card_100_transparent.png,100,13,0,13,0,1,,,,,,,,,,
,,,,63e51ddb19fccd05514c629c,B,2024-06-21_16h40.39.765,Slot Machine Game,2023.1.3,Win32,99.00990099,,,,,,,,,,,,,,,,,,,,,,,,,,,450,,,,,,,,,,,,,,,,,,,,,3,7,,,385.2457,14,right,0.3457,,0.5,0.3,"[2,3,1]",0.036890687,stimuli/card_0_transparent.png,0,14,0,14,0,1,,,,,,,,,,
,,,,63e51ddb19fccd05514c629c,B,2024-06-21_16h40.39.765,Slot Machine Game,2023.1.3,Win32,99.00990099,,,,,,,,,,,,,,,,,,,,,,,,,,,,,,,,,,,386.8973,,,,,,,,,,,,,,,,,,,,,,,,,,,,,,,,,"[540,640,450]",2,0,2,0,1,,,,
,,,,63e51ddb19fccd05514c629c,B,2024-06-21_16h40.39.765,Slot Machine Game,2023.1.3,Win32,99.00990099,,,,,,,,,,,,,,,,,,,,,,,,,,,100,,,,,,,,,,,,,,,,,,,,,4,4,"[7,15]","[[2,3,1],[1,2,3]]",391.9015,0,right,0.0069,,1.5,0.3,"[2,3,1]",0.686332401,stimuli/card_100_transparent.png,100,0,0,0,0,1,,,,,,,,,,
,,,,63e51ddb19fccd05514c629c,B,2024-06-21_16h40.39.765,Slot Machine Game,2023.1.3,Win32,99.00990099,,,,,,,,,,,,,,,,,,,,,,,,,,,100,,,,,,,,,,,,,,,,,,,,,4,4,,,394.2136,1,up,0.1068,,1.5,0.3,"[2,3,1]",0.494224218,stimuli/card_0_transparent.png,0,1,0,1,0,1,,,,,,,,,,
,,,,63e51ddb19fccd05514c629c,B,2024-06-21_16h40.39.765,Slot Machine Game,2023.1.3,Win32,99.00990099,,,,,,,,,,,,,,,,,,,,,,,,,,,200,,,,,,,,,,,,,,,,,,,,,4,4,,,396.626,2,right,0.0271,,1,0.3,"[2,3,1]",0.810591805,stimuli/card_100_transparent.png,100,2,0,2,0,1,,,,,,,,,,
,,,,63e51ddb19fccd05514c629c,B,2024-06-21_16h40.39.765,Slot Machine Game,2023.1.3,Win32,99.00990099,,,,,,,,,,,,,,,,,,,,,,,,,,,300,,,,,,,,,,,,,,,,,,,,,4,4,,,398.4583,3,right,0.393,,1,0.3,"[2,3,1]",0.334437968,stimuli/card_100_transparent.png,100,3,0,3,0,1,,,,,,,,,,
,,,,63e51ddb19fccd05514c629c,B,2024-06-21_16h40.39.765,Slot Machine Game,2023.1.3,Win32,99.00990099,,,,,,,,,,,,,,,,,,,,,,,,,,,310,,,,,,,,,,,,,,,,,,,,,4,4,,,400.6604,4,left,1.295,,1,0.3,"[2,3,1]",0.814855917,stimuli/card_10_transparent.png,10,4,0,4,0,1,,,,,,,,,,
,,,,63e51ddb19fccd05514c629c,B,2024-06-21_16h40.39.765,Slot Machine Game,2023.1.3,Win32,99.00990099,,,,,,,,,,,,,,,,,,,,,,,,,,,320,,,,,,,,,,,,,,,,,,,,,4,4,,,403.7636,5,right,0.1666,,1,0.3,"[2,3,1]",0.125724132,stimuli/card_10_transparent.png,10,5,0,5,0,1,,,,,,,,,,
,,,,63e51ddb19fccd05514c629c,B,2024-06-21_16h40.39.765,Slot Machine Game,2023.1.3,Win32,99.00990099,,,,,,,,,,,,,,,,,,,,,,,,,,,420,,,,,,,,,,,,,,,,,,,,,4,4,,,405.7454,6,right,0.2052,,1,0.3,"[2,3,1]",0.651939874,stimuli/card_100_transparent.png,100,6,0,6,0,1,,,,,,,,,,
,,,,63e51ddb19fccd05514c629c,B,2024-06-21_16h40.39.765,Slot Machine Game,2023.1.3,Win32,99.00990099,,,,,,,,,,,,,,,,,,,,,,,,,,,430,,,,,,,,,,,,,,,,,,,,,4,4,,,407.7573,7,left,1.0417,,0.5,0.3,"[1,2,3]",0.162482689,stimuli/card_10_transparent.png,10,7,0,7,0,1,,,,,,,,,,
,,,,63e51ddb19fccd05514c629c,B,2024-06-21_16h40.39.765,Slot Machine Game,2023.1.3,Win32,99.00990099,,,,,,,,,,,,,,,,,,,,,,,,,,,430,,,,,,,,,,,,,,,,,,,,,4,4,,,410.1096,8,right,0.1352,,1,0.3,"[1,2,3]",0.808896852,stimuli/card_0_transparent.png,0,8,0,8,0,1,,,,,,,,,,
,,,,63e51ddb19fccd05514c629c,B,2024-06-21_16h40.39.765,Slot Machine Game,2023.1.3,Win32,99.00990099,,,,,,,,,,,,,,,,,,,,,,,,,,,430,,,,,,,,,,,,,,,,,,,,,4,4,,,412.0515,9,right,0.0541,,0.5,0.3,"[1,2,3]",0.867321136,stimuli/card_0_transparent.png,0,9,0,9,0,1,,,,,,,,,,
,,,,63e51ddb19fccd05514c629c,B,2024-06-21_16h40.39.765,Slot Machine Game,2023.1.3,Win32,99.00990099,,,,,,,,,,,,,,,,,,,,,,,,,,,530,,,,,,,,,,,,,,,,,,,,,4,4,,,413.4124,10,left,0.0238,,1,0.3,"[1,2,3]",0.815173794,stimuli/card_100_transparent.png,100,10,0,10,0,1,,,,,,,,,,
,,,,63e51ddb19fccd05514c629c,B,2024-06-21_16h40.39.765,Slot Machine Game,2023.1.3,Win32,99.00990099,,,,,,,,,,,,,,,,,,,,,,,,,,,530,,,,,,,,,,,,,,,,,,,,,4,4,,,415.2447,11,left,0.2207,,1.5,0.3,"[1,2,3]",0.026156454,stimuli/card_0_transparent.png,0,11,0,11,0,1,,,,,,,,,,
,,,,63e51ddb19fccd05514c629c,B,2024-06-21_16h40.39.765,Slot Machine Game,2023.1.3,Win32,99.00990099,,,,,,,,,,,,,,,,,,,,,,,,,,,540,,,,,,,,,,,,,,,,,,,,,4,4,,,417.7875,12,right,0.4356,,1.5,0.3,"[1,2,3]",0.188997687,stimuli/card_10_transparent.png,10,12,0,12,0,1,,,,,,,,,,
,,,,63e51ddb19fccd05514c629c,B,2024-06-21_16h40.39.765,Slot Machine Game,2023.1.3,Win32,99.00990099,,,,,,,,,,,,,,,,,,,,,,,,,,,540,,,,,,,,,,,,,,,,,,,,,4,4,,,420.5297,13,up,0.321,,1.5,0.3,"[1,2,3]",0.003423809,stimuli/card_0_transparent.png,0,13,0,13,0,1,,,,,,,,,,
,,,,63e51ddb19fccd05514c629c,B,2024-06-21_16h40.39.765,Slot Machine Game,2023.1.3,Win32,99.00990099,,,,,,,,,,,,,,,,,,,,,,,,,,,640,,,,,,,,,,,,,,,,,,,,,4,4,,,423.1623,14,left,0.645,,1,0.3,"[1,2,3]",0.45639251,stimuli/card_100_transparent.png,100,14,0,14,0,1,,,,,,,,,,
,,,,63e51ddb19fccd05514c629c,B,2024-06-21_16h40.39.765,Slot Machine Game,2023.1.3,Win32,99.00990099,,,,,,,,,,,,,,,,,,,,,,,,,,,,,,,,,,,425.6148,,,,,,,,,,,,,,,,,,,,,,,,,,,,,,,,,"[540,640,450,640]",3,0,3,0,1,,,,
,,,,63e51ddb19fccd05514c629c,B,2024-06-21_16h40.39.765,Slot Machine Game,2023.1.3,Win32,99.00990099,,,,,,,,,,,,,,,,,,,,,,,,,,,0,,,,,,,,,,,,,,,,,,,,,5,6,"[4,10,15]","[[2,3,1],[1,3,2],[3,2,1]]",430.6165,0,left,0.1323,,1,0.3,"[2,3,1]",0.032028811,stimuli/card_0_transparent.png,0,0,0,0,0,1,,,,,,,,,,
,,,,63e51ddb19fccd05514c629c,B,2024-06-21_16h40.39.765,Slot Machine Game,2023.1.3,Win32,99.00990099,,,,,,,,,,,,,,,,,,,,,,,,,,,0,,,,,,,,,,,,,,,,,,,,,5,6,,,432.5613,1,up,0.3428,,1,0.3,"[2,3,1]",0.535201312,stimuli/card_0_transparent.png,0,1,0,1,0,1,,,,,,,,,,
,,,,63e51ddb19fccd05514c629c,B,2024-06-21_16h40.39.765,Slot Machine Game,2023.1.3,Win32,99.00990099,,,,,,,,,,,,,,,,,,,,,,,,,,,0,,,,,,,,,,,,,,,,,,,,,5,6,,,434.7138,2,right,0.0574,,1,0.3,"[2,3,1]",0.095978725,stimuli/card_0_transparent.png,0,2,0,2,0,1,,,,,,,,,,
,,,,63e51ddb19fccd05514c629c,B,2024-06-21_16h40.39.765,Slot Machine Game,2023.1.3,Win32,99.00990099,,,,,,,,,,,,,,,,,,,,,,,,,,,10,,,,,,,,,,,,,,,,,,,,,5,6,,,436.5755,3,left,0.1728,,1.5,0.3,"[2,3,1]",0.877580206,stimuli/card_10_transparent.png,10,3,0,3,0,1,,,,,,,,,,
,,,,63e51ddb19fccd05514c629c,B,2024-06-21_16h40.39.765,Slot Machine Game,2023.1.3,Win32,99.00990099,,,,,,,,,,,,,,,,,,,,,,,,,,,110,,,,,,,,,,,,,,,,,,,,,5,6,,,439.0579,4,left,0.0961,,1,0.3,"[1,3,2]",0.235956828,stimuli/card_100_transparent.png,100,4,0,4,0,1,,,,,,,,,,
,,,,63e51ddb19fccd05514c629c,B,2024-06-21_16h40.39.765,Slot Machine Game,2023.1.3,Win32,99.00990099,,,,,,,,,,,,,,,,,,,,,,,,,,,210,,,,,,,,,,,,,,,,,,,,,5,6,,,440.9595,5,left,0.3642,,1.5,0.3,"[1,3,2]",0.305381569,stimuli/card_100_transparent.png,100,5,0,5,0,1,,,,,,,,,,
,,,,63e51ddb19fccd05514c629c,B,2024-06-21_16h40.39.765,Slot Machine Game,2023.1.3,Win32,99.00990099,,,,,,,,,,,,,,,,,,,,,,,,,,,310,,,,,,,,,,,,,,,,,,,,,5,6,,,443.6324,6,left,0.1348,,1,0.3,"[1,3,2]",0.925200846,stimuli/card_100_transparent.png,100,6,0,6,0,1,,,,,,,,,,
,,,,63e51ddb19fccd05514c629c,B,2024-06-21_16h40.39.765,Slot Machine Game,2023.1.3,Win32,99.00990099,,,,,,,,,,,,,,,,,,,,,,,,,,,310,,,,,,,,,,,,,,,,,,,,,5,6,,,445.5742,7,left,0.433,,0.5,0.3,"[1,3,2]",0.060438869,stimuli/card_0_transparent.png,0,7,0,7,0,1,,,,,,,,,,
,,,,63e51ddb19fccd05514c629c,B,2024-06-21_16h40.39.765,Slot Machine Game,2023.1.3,Win32,99.00990099,,,,,,,,,,,,,,,,,,,,,,,,,,,320,,,,,,,,,,,,,,,,,,,,,5,6,,,447.316,8,up,0.1647,,0.5,0.3,"[1,3,2]",0.157171773,stimuli/card_10_transparent.png,10,8,0,8,0,1,,,,,,,,,,
,,,,63e51ddb19fccd05514c629c,B,2024-06-21_16h40.39.765,Slot Machine Game,2023.1.3,Win32,99.00990099,,,,,,,,,,,,,,,,,,,,,,,,,,,330,,,,,,,,,,,,,,,,,,,,,5,6,,,448.7875,9,right,0.1146,,1.5,0.3,"[1,3,2]",0.36940416,stimuli/card_10_transparent.png,10,9,0,9,0,1,,,,,,,,,,
,,,,63e51ddb19fccd05514c629c,B,2024-06-21_16h40.39.765,Slot Machine Game,2023.1.3,Win32,99.00990099,,,,,,,,,,,,,,,,,,,,,,,,,,,430,,,,,,,,,,,,,,,,,,,,,5,6,,,451.2097,10,right,0.3539,,1.5,0.3,"[3,2,1]",0.434838118,stimuli/card_100_transparent.png,100,10,0,10,0,1,,,,,,,,,,
,,,,63e51ddb19fccd05514c629c,B,2024-06-21_16h40.39.765,Slot Machine Game,2023.1.3,Win32,99.00990099,,,,,,,,,,,,,,,,,,,,,,,,,,,430,,,,,,,,,,,,,,,,,,,,,5,6,,,453.8726,11,right,0.1446,,1.5,0.3,"[3,2,1]",0.068466851,stimuli/card_0_transparent.png,0,11,0,11,0,1,,,,,,,,,,
,,,,63e51ddb19fccd05514c629c,B,2024-06-21_16h40.39.765,Slot Machine Game,2023.1.3,Win32,99.00990099,,,,,,,,,,,,,,,,,,,,,,,,,,,530,,,,,,,,,,,,,,,,,,,,,5,6,,,456.3247,12,left,0.4362,,0.5,0.3,"[3,2,1]",0.094418532,stimuli/card_100_transparent.png,100,12,0,12,0,1,,,,,,,,,,
,,,,63e51ddb19fccd05514c629c,B,2024-06-21_16h40.39.765,Slot Machine Game,2023.1.3,Win32,99.00990099,,,,,,,,,,,,,,,,,,,,,,,,,,,530,,,,,,,,,,,,,,,,,,,,,5,6,,,458.0664,13,left,0.1126,,0.5,0.3,"[3,2,1]",0.894953006,stimuli/card_0_transparent.png,0,13,0,13,0,1,,,,,,,,,,
,,,,63e51ddb19fccd05514c629c,B,2024-06-21_16h40.39.765,Slot Machine Game,2023.1.3,Win32,99.00990099,,,,,,,,,,,,,,,,,,,,,,,,,,,540,,,,,,,,,,,,,,,,,,,,,5,6,,,459.4875,14,up,0.1608,,1.5,0.3,"[3,2,1]",0.603595436,stimuli/card_10_transparent.png,10,14,0,14,0,1,,,,,,,,,,
,,,,63e51ddb19fccd05514c629c,B,2024-06-21_16h40.39.765,Slot Machine Game,2023.1.3,Win32,99.00990099,,,,,,,,,,,,,,,,,,,,,,,,,,,,,,,,,,,461.9602,,,,,,,,,,,,,,,,,,,,,,,,,,,,,,,,,"[540,640,450,640,540]",4,0,4,0,1,,,,
,,,,63e51ddb19fccd05514c629c,B,2024-06-21_16h40.39.765,Slot Machine Game,2023.1.3,Win32,99.00990099,,,,,,,,,,,,,,,,,,,,,,,,,,,100,,,,,,,,,,,,,,,,,,,,,6,8,"[11,15]","[[2,1,3],[1,2,3]]",466.9612,0,left,0.0215,,0.5,0.3,"[2,1,3]",0.130129804,stimuli/card_100_transparent.png,100,0,0,0,0,1,,,,,,,,,,
,,,,63e51ddb19fccd05514c629c,B,2024-06-21_16h40.39.765,Slot Machine Game,2023.1.3,Win32,99.00990099,,,,,,,,,,,,,,,,,,,,,,,,,,,110,,,,,,,,,,,,,,,,,,,,,6,8,,,468.2965,1,left,0.143,,1,0.3,"[2,1,3]",0.50009857,stimuli/card_10_transparent.png,10,1,0,1,0,1,,,,,,,,,,
,,,,63e51ddb19fccd05514c629c,B,2024-06-21_16h40.39.765,Slot Machine Game,2023.1.3,Win32,99.00990099,,,,,,,,,,,,,,,,,,,,,,,,,,,210,,,,,,,,,,,,,,,,,,,,,6,8,,,470.2483,2,up,0.4054,,0.5,0.3,"[2,1,3]",0.208222229,stimuli/card_100_transparent.png,100,2,0,2,0,1,,,,,,,,,,
,,,,63e51ddb19fccd05514c629c,B,2024-06-21_16h40.39.765,Slot Machine Game,2023.1.3,Win32,99.00990099,,,,,,,,,,,,,,,,,,,,,,,,,,,310,,,,,,,,,,,,,,,,,,,,,6,8,,,471.9601,3,up,0.1921,,1.5,0.3,"[2,1,3]",0.613723214,stimuli/card_100_transparent.png,100,3,0,3,0,1,,,,,,,,,,
,,,,63e51ddb19fccd05514c629c,B,2024-06-21_16h40.39.765,Slot Machine Game,2023.1.3,Win32,99.00990099,,,,,,,,,,,,,,,,,,,,,,,,,,,410,,,,,,,,,,,,,,,,,,,,,6,8,,,474.4626,4,up,0.2681,,1.5,0.3,"[2,1,3]",0.508024332,stimuli/card_100_transparent.png,100,4,0,4,0,1,,,,,,,,,,
,,,,63e51ddb19fccd05514c629c,B,2024-06-21_16h40.39.765,Slot Machine Game,2023.1.3,Win32,99.00990099,,,,,,,,,,,,,,,,,,,,,,,,,,,420,,,,,,,,,,,,,,,,,,,,,6,8,,,477.0352,5,right,0.0974,,0.5,0.3,"[2,1,3]",0.137895315,stimuli/card_10_transparent.png,10,5,0,5,0,1,,,,,,,,,,
,,,,63e51ddb19fccd05514c629c,B,2024-06-21_16h40.39.765,Slot Machine Game,2023.1.3,Win32,99.00990099,,,,,,,,,,,,,,,,,,,,,,,,,,,430,,,,,,,,,,,,,,,,,,,,,6,8,,,478.4365,6,up,0.1733,,1,0.3,"[2,1,3]",0.128584581,stimuli/card_10_transparent.png,10,6,0,6,0,1,,,,,,,,,,
,,,,63e51ddb19fccd05514c629c,B,2024-06-21_16h40.39.765,Slot Machine Game,2023.1.3,Win32,99.00990099,,,,,,,,,,,,,,,,,,,,,,,,,,,440,,,,,,,,,,,,,,,,,,,,,6,8,,,480.4185,7,left,0.2242,,1.5,0.3,"[2,1,3]",0.922002916,stimuli/card_10_transparent.png,10,7,0,7,0,1,,,,,,,,,,
,,,,63e51ddb19fccd05514c629c,B,2024-06-21_16h40.39.765,Slot Machine Game,2023.1.3,Win32,99.00990099,,,,,,,,,,,,,,,,,,,,,,,,,,,540,,,,,,,,,,,,,,,,,,,,,6,8,,,482.9606,8,up,0.1317,,1,0.3,"[2,1,3]",0.340749635,stimuli/card_100_transparent.png,100,8,0,8,0,1,,,,,,,,,,
,,,,63e51ddb19fccd05514c629c,B,2024-06-21_16h40.39.765,Slot Machine Game,2023.1.3,Win32,99.00990099,,,,,,,,,,,,,,,,,,,,,,,,,,,640,,,,,,,,,,,,,,,,,,,,,6,8,,,484.9027,9,up,0.0664,,0.5,0.3,"[2,1,3]",0.501365378,stimuli/card_100_transparent.png,100,9,0,9,0,1,,,,,,,,,,
,,,,63e51ddb19fccd05514c629c,B,2024-06-21_16h40.39.765,Slot Machine Game,2023.1.3,Win32,99.00990099,,,,,,,,,,,,,,,,,,,,,,,,,,,740,,,,,,,,,,,,,,,,,,,,,6,8,,,486.2739,10,up,0.022,,1,0.3,"[2,1,3]",0.517380782,stimuli/card_100_transparent.png,100,10,0,10,0,1,,,,,,,,,,
,,,,63e51ddb19fccd05514c629c,B,2024-06-21_16h40.39.765,Slot Machine Game,2023.1.3,Win32,99.00990099,,,,,,,,,,,,,,,,,,,,,,,,,,,750,,,,,,,,,,,,,,,,,,,,,6,8,,,488.1055,11,up,0.2819,,1.5,0.3,"[1,2,3]",0.675782651,stimuli/card_10_transparent.png,10,11,0,11,0,1,,,,,,,,,,
,,,,63e51ddb19fccd05514c629c,B,2024-06-21_16h40.39.765,Slot Machine Game,2023.1.3,Win32,99.00990099,,,,,,,,,,,,,,,,,,,,,,,,,,,760,,,,,,,,,,,,,,,,,,,,,6,8,,,490.6985,12,up,0.1845,,1.5,0.3,"[1,2,3]",0.288204202,stimuli/card_10_transparent.png,10,12,0,12,0,1,,,,,,,,,,
,,,,63e51ddb19fccd05514c629c,B,2024-06-21_16h40.39.765,Slot Machine Game,2023.1.3,Win32,99.00990099,,,,,,,,,,,,,,,,,,,,,,,,,,,860,,,,,,,,,,,,,,,,,,,,,6,8,,,493.1909,13,up,0.072,,1,0.3,"[1,2,3]",0.171422729,stimuli/card_100_transparent.png,100,13,0,13,0,1,,,,,,,,,,
,,,,63e51ddb19fccd05514c629c,B,2024-06-21_16h40.39.765,Slot Machine Game,2023.1.3,Win32,99.00990099,,,,,,,,,,,,,,,,,,,,,,,,,,,870,,,,,,,,,,,,,,,,,,,,,6,8,,,495.0728,14,up,0.0505,,1.5,0.3,"[1,2,3]",0.597464853,stimuli/card_10_transparent.png,10,14,0,14,0,1,,,,,,,,,,
,,,,63e51ddb19fccd05514c629c,B,2024-06-21_16h40.39.765,Slot Machine Game,2023.1.3,Win32,99.00990099,,,,,,,,,,,,,,,,,,,,,,,,,,,,,,,,,,,497.4452,,,,,,,,,,,,,,,,,,,,,,,,,,,,,,,,,"[540,640,450,640,540,870]",5,0,5,0,1,,,,
,,,,63e51ddb19fccd05514c629c,B,2024-06-21_16h40.39.765,Slot Machine Game,2023.1.3,Win32,99.00990099,,,,,,,,,,,,,,,,,,,,,,,,,,,100,,,,,,,,,,,,,,,,,,,,,7,9,"[8,15]","[[3,2,1],[3,1,2]]",502.4485,0,right,0.1259,,0.5,0.3,"[3,2,1]",0.890821275,stimuli/card_100_transparent.png,100,0,0,0,0,1,,,,,,,,,,
,,,,63e51ddb19fccd05514c629c,B,2024-06-21_16h40.39.765,Slot Machine Game,2023.1.3,Win32,99.00990099,,,,,,,,,,,,,,,,,,,,,,,,,,,200,,,,,,,,,,,,,,,,,,,,,7,9,,,503.8814,1,right,0.0159,,1.5,0.3,"[3,2,1]",0.718088597,stimuli/card_100_transparent.png,100,1,0,1,0,1,,,,,,,,,,
,,,,63e51ddb19fccd05514c629c,B,2024-06-21_16h40.39.765,Slot Machine Game,2023.1.3,Win32,99.00990099,,,,,,,,,,,,,,,,,,,,,,,,,,,300,,,,,,,,,,,,,,,,,,,,,7,9,,,506.2038,2,right,0.1383,,1,0.3,"[3,2,1]",0.722778843,stimuli/card_100_transparent.png,100,2,0,2,0,1,,,,,,,,,,
,,,,63e51ddb19fccd05514c629c,B,2024-06-21_16h40.39.765,Slot Machine Game,2023.1.3,Win32,99.00990099,,,,,,,,,,,,,,,,,,,,,,,,,,,300,,,,,,,,,,,,,,,,,,,,,7,9,,,508.1455,3,right,0.1737,,1.5,0.3,"[3,2,1]",0.065461667,stimuli/card_0_transparent.png,0,3,0,3,0,1,,,,,,,,,,
,,,,63e51ddb19fccd05514c629c,B,2024-06-21_16h40.39.765,Slot Machine Game,2023.1.3,Win32,99.00990099,,,,,,,,,,,,,,,,,,,,,,,,,,,400,,,,,,,,,,,,,,,,,,,,,7,9,,,510.628,4,right,0.1999,,1.5,0.3,"[3,2,1]",0.737420369,stimuli/card_100_transparent.png,100,4,0,4,0,1,,,,,,,,,,
,,,,63e51ddb19fccd05514c629c,B,2024-06-21_16h40.39.765,Slot Machine Game,2023.1.3,Win32,99.00990099,,,,,,,,,,,,,,,,,,,,,,,,,,,500,,,,,,,,,,,,,,,,,,,,,7,9,,,513.1503,5,right,0.0423,,0.5,0.3,"[3,2,1]",0.919396443,stimuli/card_100_transparent.png,100,5,0,5,0,1,,,,,,,,,,
,,,,63e51ddb19fccd05514c629c,B,2024-06-21_16h40.39.765,Slot Machine Game,2023.1.3,Win32,99.00990099,,,,,,,,,,,,,,,,,,,,,,,,,,,600,,,,,,,,,,,,,,,,,,,,,7,9,,,514.5014,6,right,0.1581,,1.5,0.3,"[3,2,1]",0.226683283,stimuli/card_100_transparent.png,100,6,0,6,0,1,,,,,,,,,,
,,,,63e51ddb19fccd05514c629c,B,2024-06-21_16h40.39.765,Slot Machine Game,2023.1.3,Win32,99.00990099,,,,,,,,,,,,,,,,,,,,,,,,,,,700,,,,,,,,,,,,,,,,,,,,,7,9,,,516.9636,7,right,0.1424,,1,0.3,"[3,2,1]",0.233080755,stimuli/card_100_transparent.png,100,7,0,7,0,1,,,,,,,,,,
,,,,63e51ddb19fccd05514c629c,B,2024-06-21_16h40.39.765,Slot Machine Game,2023.1.3,Win32,99.00990099,,,,,,,,,,,,,,,,,,,,,,,,,,,710,,,,,,,,,,,,,,,,,,,,,7,9,,,518.916,8,right,0.065,,1,0.3,"[3,1,2]",0.331837997,stimuli/card_10_transparent.png,10,8,0,8,0,1,,,,,,,,,,
,,,,63e51ddb19fccd05514c629c,B,2024-06-21_16h40.39.765,Slot Machine Game,2023.1.3,Win32,99.00990099,,,,,,,,,,,,,,,,,,,,,,,,,,,720,,,,,,,,,,,,,,,,,,,,,7,9,,,520.7877,9,right,0.1416,,1.5,0.3,"[3,1,2]",0.657755526,stimuli/card_10_transparent.png,10,9,0,9,0,1,,,,,,,,,,
,,,,63e51ddb19fccd05514c629c,B,2024-06-21_16h40.39.765,Slot Machine Game,2023.1.3,Win32,99.00990099,,,,,,,,,,,,,,,,,,,,,,,,,,,730,,,,,,,,,,,,,,,,,,,,,7,9,,,523.2398,10,right,0.1475,,1,0.3,"[3,1,2]",0.216996668,stimuli/card_10_transparent.png,10,10,0,10,0,1,,,,,,,,,,
,,,,63e51ddb19fccd05514c629c,B,2024-06-21_16h40.39.765,Slot Machine Game,2023.1.3,Win32,99.00990099,,,,,,,,,,,,,,,,,,,,,,,,,,,730,,,,,,,,,,,,,,,,,,,,,7,9,,,525.1921,11,left,0.0514,,0.5,0.3,"[3,1,2]",0.538729145,stimuli/card_0_transparent.png,0,11,0,11,0,1,,,,,,,,,,
,,,,63e51ddb19fccd05514c629c,B,2024-06-21_16h40.39.765,Slot Machine Game,2023.1.3,Win32,99.00990099,,,,,,,,,,,,,,,,,,,,,,,,,,,830,,,,,,,,,,,,,,,,,,,,,7,9,,,526.5533,12,up,0.1434,,1,0.3,"[3,1,2]",0.912371269,stimuli/card_100_transparent.png,100,12,0,12,0,1,,,,,,,,,,
,,,,63e51ddb19fccd05514c629c,B,2024-06-21_16h40.39.765,Slot Machine Game,2023.1.3,Win32,99.00990099,,,,,,,,,,,,,,,,,,,,,,,,,,,840,,,,,,,,,,,,,,,,,,,,,7,9,,,528.505,13,up,0.2121,,0.5,0.3,"[3,1,2]",0.17999873,stimuli/card_10_transparent.png,10,13,0,13,0,1,,,,,,,,,,
,,,,63e51ddb19fccd05514c629c,B,2024-06-21_16h40.39.765,Slot Machine Game,2023.1.3,Win32,99.00990099,,,,,,,,,,,,,,,,,,,,,,,,,,,940,,,,,,,,,,,,,,,,,,,,,7,9,,,530.0267,14,up,0.0179,,1,0.3,"[3,1,2]",0.980006395,stimuli/card_100_transparent.png,100,14,0,14,0,1,,,,,,,,,,
,,,,63e51ddb19fccd05514c629c,B,2024-06-21_16h40.39.765,Slot Machine Game,2023.1.3,Win32,99.00990099,,,,,,,,,,,,,,,,,,,,,,,,,,,,,,,,,,,531.8487,,,,,,,,,,,,,,,,,,,,,,,,,,,,,,,,,"[540,640,450,640,540,870,940]",6,0,6,0,1,,,,
,,,,63e51ddb19fccd05514c629c,B,2024-06-21_16h40.39.765,Slot Machine Game,2023.1.3,Win32,99.00990099,,,,,,,,,,,,,,,,,,,,,,,,,,,10,,,,,,,,,,,,,,,,,,,,,8,2,"[6,15]","[[1,3,2],[3,2,1]]",536.8521,0,up,0.2828,,1.5,0.3,"[1,3,2]",0.181297787,stimuli/card_10_transparent.png,10,0,0,0,0,1,,,,,,,,,,
,,,,63e51ddb19fccd05514c629c,B,2024-06-21_16h40.39.765,Slot Machine Game,2023.1.3,Win32,99.00990099,,,,,,,,,,,,,,,,,,,,,,,,,,,10,,,,,,,,,,,,,,,,,,,,,8,2,,,539.4455,1,up,0.9926,,1.5,0.3,"[1,3,2]",0.320882508,stimuli/card_0_transparent.png,0,1,0,1,0,1,,,,,,,,,,
,,,,63e51ddb19fccd05514c629c,B,2024-06-21_16h40.39.765,Slot Machine Game,2023.1.3,Win32,99.00990099,,,,,,,,,,,,,,,,,,,,,,,,,,,20,,,,,,,,,,,,,,,,,,,,,8,2,,,542.7493,2,right,0.0275,,1,0.3,"[1,3,2]",0.847510705,stimuli/card_10_transparent.png,10,2,0,2,0,1,,,,,,,,,,
,,,,63e51ddb19fccd05514c629c,B,2024-06-21_16h40.39.765,Slot Machine Game,2023.1.3,Win32,99.00990099,,,,,,,,,,,,,,,,,,,,,,,,,,,120,,,,,,,,,,,,,,,,,,,,,8,2,,,544.5809,3,left,0.1168,,0.5,0.3,"[1,3,2]",0.353837083,stimuli/card_100_transparent.png,100,3,0,3,0,1,,,,,,,,,,
,,,,63e51ddb19fccd05514c629c,B,2024-06-21_16h40.39.765,Slot Machine Game,2023.1.3,Win32,99.00990099,,,,,,,,,,,,,,,,,,,,,,,,,,,220,,,,,,,,,,,,,,,,,,,,,8,2,,,546.0025,4,left,0.1176,,1.5,0.3,"[1,3,2]",0.666513922,stimuli/card_100_transparent.png,100,4,0,4,0,1,,,,,,,,,,
,,,,63e51ddb19fccd05514c629c,B,2024-06-21_16h40.39.765,Slot Machine Game,2023.1.3,Win32,99.00990099,,,,,,,,,,,,,,,,,,,,,,,,,,,320,,,,,,,,,,,,,,,,,,,,,8,2,,,548.425,5,left,0.0631,,1.5,0.3,"[1,3,2]",0.334718114,stimuli/card_100_transparent.png,100,5,0,5,0,1,,,,,,,,,,
,,,,63e51ddb19fccd05514c629c,B,2024-06-21_16h40.39.765,Slot Machine Game,2023.1.3,Win32,99.00990099,,,,,,,,,,,,,,,,,,,,,,,,,,,320,,,,,,,,,,,,,,,,,,,,,8,2,,,550.8071,6,left,0.0617,,1,0.3,"[3,2,1]",0.603047532,stimuli/card_0_transparent.png,0,6,0,6,0,1,,,,,,,,,,
,,,,63e51ddb19fccd05514c629c,B,2024-06-21_16h40.39.765,Slot Machine Game,2023.1.3,Win32,99.00990099,,,,,,,,,,,,,,,,,,,,,,,,,,,320,,,,,,,,,,,,,,,,,,,,,8,2,,,552.6786,7,left,0.072,,0.5,0.3,"[3,2,1]",0.595618969,stimuli/card_0_transparent.png,0,7,0,7,0,1,,,,,,,,,,
,,,,63e51ddb19fccd05514c629c,B,2024-06-21_16h40.39.765,Slot Machine Game,2023.1.3,Win32,99.00990099,,,,,,,,,,,,,,,,,,,,,,,,,,,420,,,,,,,,,,,,,,,,,,,,,8,2,,,554.0604,8,right,0.2055,,0.5,0.3,"[3,2,1]",0.738486454,stimuli/card_100_transparent.png,100,8,0,8,0,1,,,,,,,,,,
,,,,63e51ddb19fccd05514c629c,B,2024-06-21_16h40.39.765,Slot Machine Game,2023.1.3,Win32,99.00990099,,,,,,,,,,,,,,,,,,,,,,,,,,,520,,,,,,,,,,,,,,,,,,,,,8,2,,,555.5716,9,right,0.2392,,1.5,0.3,"[3,2,1]",0.571767034,stimuli/card_100_transparent.png,100,9,0,9,0,1,,,,,,,,,,
,,,,63e51ddb19fccd05514c629c,B,2024-06-21_16h40.39.765,Slot Machine Game,2023.1.3,Win32,99.00990099,,,,,,,,,,,,,,,,,,,,,,,,,,,620,,,,,,,,,,,,,,,,,,,,,8,2,,,558.1243,10,right,0.1164,,1.5,0.3,"[3,2,1]",0.734323483,stimuli/card_100_transparent.png,100,10,0,10,0,1,,,,,,,,,,
,,,,63e51ddb19fccd05514c629c,B,2024-06-21_16h40.39.765,Slot Machine Game,2023.1.3,Win32,99.00990099,,,,,,,,,,,,,,,,,,,,,,,,,,,720,,,,,,,,,,,,,,,,,,,,,8,2,,,560.5464,11,right,0.2114,,1,0.3,"[3,2,1]",0.335742664,stimuli/card_100_transparent.png,100,11,0,11,0,1,,,,,,,,,,
,,,,63e51ddb19fccd05514c629c,B,2024-06-21_16h40.39.765,Slot Machine Game,2023.1.3,Win32,99.00990099,,,,,,,,,,,,,,,,,,,,,,,,,,,820,,,,,,,,,,,,,,,,,,,,,8,2,,,562.5687,12,right,0.227,,1.5,0.3,"[3,2,1]",0.373724444,stimuli/card_100_transparent.png,100,12,0,12,0,1,,,,,,,,,,
,,,,63e51ddb19fccd05514c629c,B,2024-06-21_16h40.39.765,Slot Machine Game,2023.1.3,Win32,99.00990099,,,,,,,,,,,,,,,,,,,,,,,,,,,830,,,,,,,,,,,,,,,,,,,,,8,2,,,565.1009,13,up,0.267,,1,0.3,"[3,2,1]",0.327961039,stimuli/card_10_transparent.png,10,13,0,13,0,1,,,,,,,,,,
,,,,63e51ddb19fccd05514c629c,B,2024-06-21_16h40.39.765,Slot Machine Game,2023.1.3,Win32,99.00990099,,,,,,,,,,,,,,,,,,,,,,,,,,,840,,,,,,,,,,,,,,,,,,,,,8,2,,,567.1732,14,right,0.237,,1,0.3,"[3,2,1]",0.121078718,stimuli/card_10_transparent.png,10,14,0,14,0,1,,,,,,,,,,
,,,,63e51ddb19fccd05514c629c,B,2024-06-21_16h40.39.765,Slot Machine Game,2023.1.3,Win32,99.00990099,,,,,,,,,,,,,,,,,,,,,,,,,,,,,,,,,,,569.2152,,,,,,,,,,,,,,,,,,,,,,,,,,,,,,,,,"[540,640,450,640,540,870,940,840]",7,0,7,0,1,,,,
,,,,63e51ddb19fccd05514c629c,B,2024-06-21_16h40.39.765,Slot Machine Game,2023.1.3,Win32,99.00990099,,,,,,,,,,,,,,,,,,,,,,,,,,,0,,,,,,,,,,,,,,,,,,,,,9,10,"[10,15]","[[3,1,2],[1,3,2]]",574.2187,0,left,0.7359,,1,0.3,"[3,1,2]",0.531731128,stimuli/card_0_transparent.png,0,0,0,0,0,1,,,,,,,,,,
,,,,63e51ddb19fccd05514c629c,B,2024-06-21_16h40.39.765,Slot Machine Game,2023.1.3,Win32,99.00990099,,,,,,,,,,,,,,,,,,,,,,,,,,,100,,,,,,,,,,,,,,,,,,,,,9,10,,,576.7625,1,up,0.4584,,1.5,0.3,"[3,1,2]",0.84700902,stimuli/card_100_transparent.png,100,1,0,1,0,1,,,,,,,,,,
,,,,63e51ddb19fccd05514c629c,B,2024-06-21_16h40.39.765,Slot Machine Game,2023.1.3,Win32,99.00990099,,,,,,,,,,,,,,,,,,,,,,,,,,,200,,,,,,,,,,,,,,,,,,,,,9,10,,,579.5246,2,up,1.1643,,1,0.3,"[3,1,2]",0.390790952,stimuli/card_100_transparent.png,100,2,0,2,0,1,,,,,,,,,,
,,,,63e51ddb19fccd05514c629c,B,2024-06-21_16h40.39.765,Slot Machine Game,2023.1.3,Win32,99.00990099,,,,,,,,,,,,,,,,,,,,,,,,,,,300,,,,,,,,,,,,,,,,,,,,,9,10,,,582.4981,3,up,0.7329,,0.5,0.3,"[3,1,2]",0.406756761,stimuli/card_100_transparent.png,100,3,0,3,0,1,,,,,,,,,,
,,,,63e51ddb19fccd05514c629c,B,2024-06-21_16h40.39.765,Slot Machine Game,2023.1.3,Win32,99.00990099,,,,,,,,,,,,,,,,,,,,,,,,,,,400,,,,,,,,,,,,,,,,,,,,,9,10,,,584.5397,4,up,0.4412,,1.5,0.3,"[3,1,2]",0.808133652,stimuli/card_100_transparent.png,100,4,0,4,0,1,,,,,,,,,,
,,,,63e51ddb19fccd05514c629c,B,2024-06-21_16h40.39.765,Slot Machine Game,2023.1.3,Win32,99.00990099,,,,,,,,,,,,,,,,,,,,,,,,,,,500,,,,,,,,,,,,,,,,,,,,,9,10,,,587.2932,5,up,0.7825,,1.5,0.3,"[3,1,2]",0.573833311,stimuli/card_100_transparent.png,100,5,0,5,0,1,,,,,,,,,,
,,,,63e51ddb19fccd05514c629c,B,2024-06-21_16h40.39.765,Slot Machine Game,2023.1.3,Win32,99.00990099,,,,,,,,,,,,,,,,,,,,,,,,,,,600,,,,,,,,,,,,,,,,,,,,,9,10,,,590.3959,6,up,0.2642,,1,0.3,"[3,1,2]",0.855510736,stimuli/card_100_transparent.png,100,6,0,6,0,1,,,,,,,,,,
,,,,63e51ddb19fccd05514c629c,B,2024-06-21_16h40.39.765,Slot Machine Game,2023.1.3,Win32,99.00990099,,,,,,,,,,,,,,,,,,,,,,,,,,,700,,,,,,,,,,,,,,,,,,,,,9,10,,,592.4678,7,up,0.0829,,1.5,0.3,"[3,1,2]",0.264887233,stimuli/card_100_transparent.png,100,7,0,7,0,1,,,,,,,,,,
,,,,63e51ddb19fccd05514c629c,B,2024-06-21_16h40.39.765,Slot Machine Game,2023.1.3,Win32,99.00990099,,,,,,,,,,,,,,,,,,,,,,,,,,,800,,,,,,,,,,,,,,,,,,,,,9,10,,,594.8602,8,up,0.3027,,0.5,0.3,"[3,1,2]",0.516873572,stimuli/card_100_transparent.png,100,8,0,8,0,1,,,,,,,,,,
,,,,63e51ddb19fccd05514c629c,B,2024-06-21_16h40.39.765,Slot Machine Game,2023.1.3,Win32,99.00990099,,,,,,,,,,,,,,,,,,,,,,,,,,,900,,,,,,,,,,,,,,,,,,,,,9,10,,,596.4711,9,up,0.2706,,1,0.3,"[3,1,2]",0.580344956,stimuli/card_100_transparent.png,100,9,0,9,0,1,,,,,,,,,,
,,,,63e51ddb19fccd05514c629c,B,2024-06-21_16h40.39.765,Slot Machine Game,2023.1.3,Win32,99.00990099,,,,,,,,,,,,,,,,,,,,,,,,,,,900,,,,,,,,,,,,,,,,,,,,,9,10,,,598.5538,10,up,0.2131,,1.5,0.3,"[1,3,2]",0.582409735,stimuli/card_0_transparent.png,0,10,0,10,0,1,,,,,,,,,,
,,,,63e51ddb19fccd05514c629c,B,2024-06-21_16h40.39.765,Slot Machine Game,2023.1.3,Win32,99.00990099,,,,,,,,,,,,,,,,,,,,,,,,,,,900,,,,,,,,,,,,,,,,,,,,,9,10,,,601.0761,11,up,0.5906,,1.5,0.3,"[1,3,2]",0.668749681,stimuli/card_0_transparent.png,0,11,0,11,0,1,,,,,,,,,,
,,,,63e51ddb19fccd05514c629c,B,2024-06-21_16h40.39.765,Slot Machine Game,2023.1.3,Win32,99.00990099,,,,,,,,,,,,,,,,,,,,,,,,,,,910,,,,,,,,,,,,,,,,,,,,,9,10,,,603.9793,12,right,0.2107,,1,0.3,"[1,3,2]",0.984431521,stimuli/card_10_transparent.png,10,12,0,12,0,1,,,,,,,,,,
,,,,63e51ddb19fccd05514c629c,B,2024-06-21_16h40.39.765,Slot Machine Game,2023.1.3,Win32,99.00990099,,,,,,,,,,,,,,,,,,,,,,,,,,,1010,,,,,,,,,,,,,,,,,,,,,9,10,,,606.0005,13,left,0.7999,,0.5,0.3,"[1,3,2]",0.879508268,stimuli/card_100_transparent.png,100,13,0,13,0,1,,,,,,,,,,
,,,,63e51ddb19fccd05514c629c,B,2024-06-21_16h40.39.765,Slot Machine Game,2023.1.3,Win32,99.00990099,,,,,,,,,,,,,,,,,,,,,,,,,,,1110,,,,,,,,,,,,,,,,,,,,,9,10,,,608.1132,14,left,0.5826,,1,0.3,"[1,3,2]",0.951895175,stimuli/card_100_transparent.png,100,14,0,14,0,1,,,,,,,,,,
,,,,63e51ddb19fccd05514c629c,B,2024-06-21_16h40.39.765,Slot Machine Game,2023.1.3,Win32,99.00990099,,,,,,,,,,,,,,,,,,,,,,,,,,,,,,,,,,,610.5055,,,,,,,,,,,,,,,,,,,,,,,,,,,,,,,,,"[540,640,450,640,540,870,940,840,1110]",8,0,8,0,1,,,,
,,,,63e51ddb19fccd05514c629c,B,2024-06-21_16h40.39.765,Slot Machine Game,2023.1.3,Win32,99.00990099,,,,,,,,,,,,,,,,,,,,,,,,,,,0,,,,,,,,,,,,,,,,,,,,,10,3,"[15,15]","[[3,1,2],[3,1,2]]",615.5077,0,left,0.2379,,1,0.3,"[3,1,2]",0.971181084,stimuli/card_0_transparent.png,0,0,0,0,0,1,,,,,,,,,,
,,,,63e51ddb19fccd05514c629c,B,2024-06-21_16h40.39.765,Slot Machine Game,2023.1.3,Win32,99.00990099,,,,,,,,,,,,,,,,,,,,,,,,,,,100,,,,,,,,,,,,,,,,,,,,,10,3,,,617.5525,1,up,0.6866,,1.5,0.3,"[3,1,2]",0.671399181,stimuli/card_100_transparent.png,100,1,0,1,0,1,,,,,,,,,,
,,,,63e51ddb19fccd05514c629c,B,2024-06-21_16h40.39.765,Slot Machine Game,2023.1.3,Win32,99.00990099,,,,,,,,,,,,,,,,,,,,,,,,,,,200,,,,,,,,,,,,,,,,,,,,,10,3,,,620.5453,2,up,0.0324,,1.5,0.3,"[3,1,2]",0.550841047,stimuli/card_100_transparent.png,100,2,0,2,0,1,,,,,,,,,,
,,,,63e51ddb19fccd05514c629c,B,2024-06-21_16h40.39.765,Slot Machine Game,2023.1.3,Win32,99.00990099,,,,,,,,,,,,,,,,,,,,,,,,,,,300,,,,,,,,,,,,,,,,,,,,,10,3,,,622.8879,3,up,0.0112,,1,0.3,"[3,1,2]",0.858315093,stimuli/card_100_transparent.png,100,3,0,3,0,1,,,,,,,,,,
,,,,63e51ddb19fccd05514c629c,B,2024-06-21_16h40.39.765,Slot Machine Game,2023.1.3,Win32,99.00990099,,,,,,,,,,,,,,,,,,,,,,,,,,,400,,,,,,,,,,,,,,,,,,,,,10,3,,,624.7094,4,up,0.8839,,1.5,0.3,"[3,1,2]",0.696475209,stimuli/card_100_transparent.png,100,4,0,4,0,1,,,,,,,,,,
,,,,63e51ddb19fccd05514c629c,B,2024-06-21_16h40.39.765,Slot Machine Game,2023.1.3,Win32,99.00990099,,,,,,,,,,,,,,,,,,,,,,,,,,,500,,,,,,,,,,,,,,,,,,,,,10,3,,,627.9019,5,up,0.3315,,1.5,0.3,"[3,1,2]",0.620714886,stimuli/card_100_transparent.png,100,5,0,5,0,1,,,,,,,,,,
,,,,63e51ddb19fccd05514c629c,B,2024-06-21_16h40.39.765,Slot Machine Game,2023.1.3,Win32,99.00990099,,,,,,,,,,,,,,,,,,,,,,,,,,,600,,,,,,,,,,,,,,,,,,,,,10,3,,,630.5451,6,up,0.0408,,1,0.3,"[3,1,2]",0.712042368,stimuli/card_100_transparent.png,100,6,0,6,0,1,,,,,,,,,,
,,,,63e51ddb19fccd05514c629c,B,2024-06-21_16h40.39.765,Slot Machine Game,2023.1.3,Win32,99.00990099,,,,,,,,,,,,,,,,,,,,,,,,,,,700,,,,,,,,,,,,,,,,,,,,,10,3,,,632.3968,7,up,0.1287,,1,0.3,"[3,1,2]",0.854057789,stimuli/card_100_transparent.png,100,7,0,7,0,1,,,,,,,,,,
,,,,63e51ddb19fccd05514c629c,B,2024-06-21_16h40.39.765,Slot Machine Game,2023.1.3,Win32,99.00990099,,,,,,,,,,,,,,,,,,,,,,,,,,,800,,,,,,,,,,,,,,,,,,,,,10,3,,,634.3289,8,up,0.1779,,1,0.3,"[3,1,2]",0.453894251,stimuli/card_100_transparent.png,100,8,0,8,0,1,,,,,,,,,,
,,,,63e51ddb19fccd05514c629c,B,2024-06-21_16h40.39.765,Slot Machine Game,2023.1.3,Win32,99.00990099,,,,,,,,,,,,,,,,,,,,,,,,,,,800,,,,,,,,,,,,,,,,,,,,,10,3,,,636.3108,9,up,0.1931,,1,0.3,"[3,1,2]",0.049510011,stimuli/card_0_transparent.png,0,9,0,9,0,1,,,,,,,,,,
,,,,63e51ddb19fccd05514c629c,B,2024-06-21_16h40.39.765,Slot Machine Game,2023.1.3,Win32,99.00990099,,,,,,,,,,,,,,,,,,,,,,,,,,,900,,,,,,,,,,,,,,,,,,,,,10,3,,,638.3126,10,right,0.1539,,0.5,0.3,"[3,1,2]",0.164669521,stimuli/card_100_transparent.png,100,10,0,10,0,1,,,,,,,,,,
,,,,63e51ddb19fccd05514c629c,B,2024-06-21_16h40.39.765,Slot Machine Game,2023.1.3,Win32,99.00990099,,,,,,,,,,,,,,,,,,,,,,,,,,,910,,,,,,,,,,,,,,,,,,,,,10,3,,,639.7738,11,right,0.1822,,1.5,0.3,"[3,1,2]",0.458406293,stimuli/card_10_transparent.png,10,11,0,11,0,1,,,,,,,,,,
,,,,63e51ddb19fccd05514c629c,B,2024-06-21_16h40.39.765,Slot Machine Game,2023.1.3,Win32,99.00990099,,,,,,,,,,,,,,,,,,,,,,,,,,,920,,,,,,,,,,,,,,,,,,,,,10,3,,,642.2661,12,right,0.3781,,0.5,0.3,"[3,1,2]",0.77823114,stimuli/card_10_transparent.png,10,12,0,12,0,1,,,,,,,,,,
,,,,63e51ddb19fccd05514c629c,B,2024-06-21_16h40.39.765,Slot Machine Game,2023.1.3,Win32,99.00990099,,,,,,,,,,,,,,,,,,,,,,,,,,,930,,,,,,,,,,,,,,,,,,,,,10,3,,,643.9481,13,right,1.6919,,1.5,0.3,"[3,1,2]",0.678043582,stimuli/card_10_transparent.png,10,13,0,13,0,1,,,,,,,,,,
,,,,63e51ddb19fccd05514c629c,B,2024-06-21_16h40.39.765,Slot Machine Game,2023.1.3,Win32,99.00990099,,,,,,,,,,,,,,,,,,,,,,,,,,,1030,,,,,,,,,,,,,,,,,,,,,10,3,,,647.9515,14,up,0.1414,,0.5,0.3,"[3,1,2]",0.698582656,stimuli/card_100_transparent.png,100,14,0,14,0,1,,,,,,,,,,
,,,,63e51ddb19fccd05514c629c,B,2024-06-21_16h40.39.765,Slot Machine Game,2023.1.3,Win32,99.00990099,,,,,,,,,,,,,,,,,,,,,,,,,,,,,,,,,,,649.4034,,,,,,,,,,,,,,,,,,,,,,,,,,,,,,,,,"[540,640,450,640,540,870,940,840,1110,1030]",9,0,9,0,1,,,,
,,,,63e51ddb19fccd05514c629c,B,2024-06-21_16h40.39.765,Slot Machine Game,2023.1.3,Win32,99.00990099,,,,,,,,,,,,,,,,,,,,,,,,,,,,,,,,,,,,,,,,,,,,,,,,,,,,,,,,,,,,,,,,,,,,,,,,,,9,"[540,640,450,640,540,870,940,840,1110,1030]",8.7,2024-06-21_16h51.38.236
