key_resp_welcome_started,key_resp_welcome_keys,key_resp_welcome_rt,key_resp_welcome_duration,prolific_id,path_id,date,expName,psychopyVersion,OS,frameRate,key_resp_instruction1_started,key_resp_instruction1_keys,key_resp_instruction1_rt,key_resp_instruction1_duration,key_resp_instruction2_started,key_resp_instruction2_keys,key_resp_instruction2_rt,key_resp_instruction2_duration,key_resp_instruction3_started,key_resp_instruction3_keys,key_resp_instruction3_rt,key_resp_instruction3_duration,key_resp_instruction4_started,key_resp_instruction4_keys,key_resp_instruction4_rt,key_resp_instruction4_duration,practiceCondition,practice_reward_seqs,practice_trial_started,practice_trial_num,prac_presentationInterval,"practice_reward_seq: 2,1,3",practice_trials.thisRepN,practice_trials.thisTrialN,practice_trials.thisN,practice_trials.thisIndex,practice_trials.ran,practice_resp_rt,practice_resp_duration,practice_resp_keys,reward_img,cumulative_reward,trial_reward,"practice_reward_seq: 2,3,1",block_break_started,"practice_reward_seq: 1,3,2","practice_reward_seq: 3,1,2",practice_end_time,practice_end_keys,practice_end_rt,practice_end_duration,main_instruction_text_started,block_condition,block_order_indices,main_instruction_keys,main_instruction_rt,main_instruction_duration,block_number,block_assignment,current_condition,main_reward_seqs,main_trial_started,main_trial_num,main_trial_keys,main_trial_rt,main_trial_duration,main_presentationInterval,reward_presentation_time,main_reward_seq,reward_rand_val,main_reward_img,current_reward,main_trials.thisRepN,main_trials.thisTrialN,main_trials.thisN,main_trials.thisIndex,main_trials.ran,block_reward,block.thisRepN,block.thisTrialN,block.thisN,block.thisIndex,block.ran,block_reward.length,block_reward_all,reward_amount,date_end_task
0.0009,return,1497.6234,,63e541874bfc845f9ff78828,A,2024-07-15_19h11.33.997,Slot Machine Game,2023.1.3,Win32,59.88023952,,,,,,,,,,,,,,,,,,,,,,,,,,,,,,,,,,,,,,,,,,,,,,,,,,,,,,,,,,,,,,,,,,,,,,,,,,,,,
,,,,63e541874bfc845f9ff78828,A,2024-07-15_19h11.33.997,Slot Machine Game,2023.1.3,Win32,59.88023952,1497.6452,return,9.026,,,,,,,,,,,,,,,,,,,,,,,,,,,,,,,,,,,,,,,,,,,,,,,,,,,,,,,,,,,,,,,,,,,,,,,,,,
,,,,63e541874bfc845f9ff78828,A,2024-07-15_19h11.33.997,Slot Machine Game,2023.1.3,Win32,59.88023952,,,,,1506.8937,return,86.1699,,,,,,,,,,,,,,,,,,,,,,,,,,,,,,,,,,,,,,,,,,,,,,,,,,,,,,,,,,,,,,,,,,,,,,
,,,,63e541874bfc845f9ff78828,A,2024-07-15_19h11.33.997,Slot Machine Game,2023.1.3,Win32,59.88023952,,,,,,,,,1593.1132,return,6.6276,,,,,,,,,,,,,,,,,,,,,,,,,,,,,,,,,,,,,,,,,,,,,,,,,,,,,,,,,,,,,,,,,,
,,,,63e541874bfc845f9ff78828,A,2024-07-15_19h11.33.997,Slot Machine Game,2023.1.3,Win32,59.88023952,,,,,,,,,,,,,,,,,,,,,,,,,,,,,,,,,,,,,,,,,,,,,,,,,,,,,,,,,,,,,,,,,,,,,,,,,,,,,
,,,,63e541874bfc845f9ff78828,A,2024-07-15_19h11.33.997,Slot Machine Game,2023.1.3,Win32,59.88023952,,,,,,,,,,,,,1742.2689,return,26.6833,,,,,,,,,,,,,,,,,,,,,,,,,,,,,,,,,,,,,,,,,,,,,,,,,,,,,,,,,,,,,,
,,,,63e541874bfc845f9ff78828,A,2024-07-15_19h11.33.997,Slot Machine Game,2023.1.3,Win32,59.88023952,,,,,,,,,,,,,,,,,"[9,15]","[[2,1,3],[2,3,1]]",1768.9778,0,1.5,,0,0,0,0,1,,,,,,,,,,,,,,,,,,,,,,,,,,,,,,,,,,,,,,,,,,,,,,,,,,
,,,,63e541874bfc845f9ff78828,A,2024-07-15_19h11.33.997,Slot Machine Game,2023.1.3,Win32,59.88023952,,,,,,,,,,,,,,,,,,,1774.5089,1,0.5,,1,0,1,0,1,3.2657,,up,stimuli/card_10_transparent.png,10,10,,,,,,,,,,,,,,,,,,,,,,,,,,,,,,,,,,,,,,,,,,,,
,,,,63e541874bfc845f9ff78828,A,2024-07-15_19h11.33.997,Slot Machine Game,2023.1.3,Win32,59.88023952,,,,,,,,,,,,,,,,,,,1779.0862,2,1.5,,2,0,2,0,1,2.9174,,up,stimuli/card_100_transparent.png,110,100,,,,,,,,,,,,,,,,,,,,,,,,,,,,,,,,,,,,,,,,,,,,
,,,,63e541874bfc845f9ff78828,A,2024-07-15_19h11.33.997,Slot Machine Game,2023.1.3,Win32,59.88023952,,,,,,,,,,,,,,,,,,,1784.3316,3,0.5,,3,0,3,0,1,2.019,,left,stimuli/card_10_transparent.png,120,10,,,,,,,,,,,,,,,,,,,,,,,,,,,,,,,,,,,,,,,,,,,,
,,,,63e541874bfc845f9ff78828,A,2024-07-15_19h11.33.997,Slot Machine Game,2023.1.3,Win32,59.88023952,,,,,,,,,,,,,,,,,,,1787.6857,4,1,,4,0,4,0,1,1.1736,,left,stimuli/card_10_transparent.png,130,10,,,,,,,,,,,,,,,,,,,,,,,,,,,,,,,,,,,,,,,,,,,,
,,,,63e541874bfc845f9ff78828,A,2024-07-15_19h11.33.997,Slot Machine Game,2023.1.3,Win32,59.88023952,,,,,,,,,,,,,,,,,,,1790.6766,5,0.5,,5,0,5,0,1,1.3343,,left,stimuli/card_10_transparent.png,140,10,,,,,,,,,,,,,,,,,,,,,,,,,,,,,,,,,,,,,,,,,,,,
,,,,63e541874bfc845f9ff78828,A,2024-07-15_19h11.33.997,Slot Machine Game,2023.1.3,Win32,59.88023952,,,,,,,,,,,,,,,,,,,1793.3574,6,1.5,,6,0,6,0,1,,,,,,,,,,,,,,,,,,,,,,,,,,,,,,,,,,,,,,,,,,,,,,,,,,
,,,,63e541874bfc845f9ff78828,A,2024-07-15_19h11.33.997,Slot Machine Game,2023.1.3,Win32,59.88023952,,,,,,,,,,,,,,,,,,,1798.8738,7,1,,7,0,7,0,1,2.2564,,up,stimuli/card_100_transparent.png,240,100,,,,,,,,,,,,,,,,,,,,,,,,,,,,,,,,,,,,,,,,,,,,
,,,,63e541874bfc845f9ff78828,A,2024-07-15_19h11.33.997,Slot Machine Game,2023.1.3,Win32,59.88023952,,,,,,,,,,,,,,,,,,,1802.9651,8,0.5,,8,0,8,0,1,1.9822,,right,stimuli/card_0_transparent.png,240,0,,,,,,,,,,,,,,,,,,,,,,,,,,,,,,,,,,,,,,,,,,,,
,,,,63e541874bfc845f9ff78828,A,2024-07-15_19h11.33.997,Slot Machine Game,2023.1.3,Win32,59.88023952,,,,,,,,,,,,,,,,,,,1806.2822,9,1.5,,9,0,9,0,1,2.7172,,right,stimuli/card_100_transparent.png,340,100,,,,,,,,,,,,,,,,,,,,,,,,,,,,,,,,,,,,,,,,,,,,
,,,,63e541874bfc845f9ff78828,A,2024-07-15_19h11.33.997,Slot Machine Game,2023.1.3,Win32,59.88023952,,,,,,,,,,,,,,,,,,,1811.3405,10,1.5,,10,0,10,0,1,2.2513,,left,stimuli/card_10_transparent.png,350,10,,,,,,,,,,,,,,,,,,,,,,,,,,,,,,,,,,,,,,,,,,,,
,,,,63e541874bfc845f9ff78828,A,2024-07-15_19h11.33.997,Slot Machine Game,2023.1.3,Win32,59.88023952,,,,,,,,,,,,,,,,,,,1815.9363,11,1,,11,0,11,0,1,2.8344,,left,stimuli/card_10_transparent.png,360,10,,,,,,,,,,,,,,,,,,,,,,,,,,,,,,,,,,,,,,,,,,,,
,,,,63e541874bfc845f9ff78828,A,2024-07-15_19h11.33.997,Slot Machine Game,2023.1.3,Win32,59.88023952,,,,,,,,,,,,,,,,,,,1820.6155,12,1.5,,12,0,12,0,1,2.2821,,up,stimuli/card_0_transparent.png,360,0,,,,,,,,,,,,,,,,,,,,,,,,,,,,,,,,,,,,,,,,,,,,
,,,,63e541874bfc845f9ff78828,A,2024-07-15_19h11.33.997,Slot Machine Game,2023.1.3,Win32,59.88023952,,,,,,,,,,,,,,,,,,,1825.2276,13,0.5,,13,0,13,0,1,0.469,,right,stimuli/card_0_transparent.png,360,0,,,,,,,,,,,,,,,,,,,,,,,,,,,,,,,,,,,,,,,,,,,,
,,,,63e541874bfc845f9ff78828,A,2024-07-15_19h11.33.997,Slot Machine Game,2023.1.3,Win32,59.88023952,,,,,,,,,,,,,,,,,,,1827.0423,14,0.5,,14,0,14,0,1,0.6344,,up,stimuli/card_100_transparent.png,460,100,,,,,,,,,,,,,,,,,,,,,,,,,,,,,,,,,,,,,,,,,,,,
,,,,63e541874bfc845f9ff78828,A,2024-07-15_19h11.33.997,Slot Machine Game,2023.1.3,Win32,59.88023952,,,,,,,,,,,,,,,,,"[6,15]","[[1,3,2],[3,1,2]]",1834.0396,0,1,,0,0,0,0,1,3.6521,,left,stimuli/card_100_transparent.png,100,100,,1829.027,,,,,,,,,,,,,,,,,,,,,,,,,,,,,,,,,,,,,,,,,,
,,,,63e541874bfc845f9ff78828,A,2024-07-15_19h11.33.997,Slot Machine Game,2023.1.3,Win32,59.88023952,,,,,,,,,,,,,,,,,,,1839.513,1,1.5,,1,0,1,0,1,0.3754,,left,stimuli/card_0_transparent.png,100,0,,,,,,,,,,,,,,,,,,,,,,,,,,,,,,,,,,,,,,,,,,,,
,,,,63e541874bfc845f9ff78828,A,2024-07-15_19h11.33.997,Slot Machine Game,2023.1.3,Win32,59.88023952,,,,,,,,,,,,,,,,,,,1842.2113,2,0.5,,2,0,2,0,1,,,,,,,,,,,,,,,,,,,,,,,,,,,,,,,,,,,,,,,,,,,,,,,,,,
,,,,63e541874bfc845f9ff78828,A,2024-07-15_19h11.33.997,Slot Machine Game,2023.1.3,Win32,59.88023952,,,,,,,,,,,,,,,,,,,1847.7169,3,0.5,,3,0,3,0,1,0.9329,,up,stimuli/card_100_transparent.png,200,100,,,,,,,,,,,,,,,,,,,,,,,,,,,,,,,,,,,,,,,,,,,,
,,,,63e541874bfc845f9ff78828,A,2024-07-15_19h11.33.997,Slot Machine Game,2023.1.3,Win32,59.88023952,,,,,,,,,,,,,,,,,,,1849.9704,4,1,,4,0,4,0,1,0.066,,up,stimuli/card_0_transparent.png,200,0,,,,,,,,,,,,,,,,,,,,,,,,,,,,,,,,,,,,,,,,,,,,
,,,,63e541874bfc845f9ff78828,A,2024-07-15_19h11.33.997,Slot Machine Game,2023.1.3,Win32,59.88023952,,,,,,,,,,,,,,,,,,,1851.8692,5,0.5,,5,0,5,0,1,1.4529,,right,stimuli/card_100_transparent.png,300,100,,,,,,,,,,,,,,,,,,,,,,,,,,,,,,,,,,,,,,,,,,,,
,,,,63e541874bfc845f9ff78828,A,2024-07-15_19h11.33.997,Slot Machine Game,2023.1.3,Win32,59.88023952,,,,,,,,,,,,,,,,,,,1854.6493,6,1,,6,0,6,0,1,2.6473,,up,stimuli/card_0_transparent.png,300,0,,,,,,,,,,,,,,,,,,,,,,,,,,,,,,,,,,,,,,,,,,,,
,,,,63e541874bfc845f9ff78828,A,2024-07-15_19h11.33.997,Slot Machine Game,2023.1.3,Win32,59.88023952,,,,,,,,,,,,,,,,,,,1859.1123,7,1,,7,0,7,0,1,0.1436,,up,stimuli/card_100_transparent.png,400,100,,,,,,,,,,,,,,,,,,,,,,,,,,,,,,,,,,,,,,,,,,,,
,,,,63e541874bfc845f9ff78828,A,2024-07-15_19h11.33.997,Slot Machine Game,2023.1.3,Win32,59.88023952,,,,,,,,,,,,,,,,,,,1861.0604,8,1.5,,8,0,8,0,1,0.2349,,left,stimuli/card_100_transparent.png,500,100,,,,,,,,,,,,,,,,,,,,,,,,,,,,,,,,,,,,,,,,,,,,
,,,,63e541874bfc845f9ff78828,A,2024-07-15_19h11.33.997,Slot Machine Game,2023.1.3,Win32,59.88023952,,,,,,,,,,,,,,,,,,,1863.6415,9,0.5,,9,0,9,0,1,0.07,,left,stimuli/card_100_transparent.png,600,100,,,,,,,,,,,,,,,,,,,,,,,,,,,,,,,,,,,,,,,,,,,,
,,,,63e541874bfc845f9ff78828,A,2024-07-15_19h11.33.997,Slot Machine Game,2023.1.3,Win32,59.88023952,,,,,,,,,,,,,,,,,,,1865.0402,10,1.5,,10,0,10,0,1,0.2858,,up,stimuli/card_100_transparent.png,700,100,,,,,,,,,,,,,,,,,,,,,,,,,,,,,,,,,,,,,,,,,,,,
,,,,63e541874bfc845f9ff78828,A,2024-07-15_19h11.33.997,Slot Machine Game,2023.1.3,Win32,59.88023952,,,,,,,,,,,,,,,,,,,1867.6714,11,1,,11,0,11,0,1,0.5702,,right,stimuli/card_10_transparent.png,710,10,,,,,,,,,,,,,,,,,,,,,,,,,,,,,,,,,,,,,,,,,,,,
,,,,63e541874bfc845f9ff78828,A,2024-07-15_19h11.33.997,Slot Machine Game,2023.1.3,Win32,59.88023952,,,,,,,,,,,,,,,,,,,1870.0944,12,0.5,,12,0,12,0,1,0.3198,,right,stimuli/card_10_transparent.png,720,10,,,,,,,,,,,,,,,,,,,,,,,,,,,,,,,,,,,,,,,,,,,,
,,,,63e541874bfc845f9ff78828,A,2024-07-15_19h11.33.997,Slot Machine Game,2023.1.3,Win32,59.88023952,,,,,,,,,,,,,,,,,,,1871.7507,13,1,,13,0,13,0,1,0.8742,,up,stimuli/card_100_transparent.png,820,100,,,,,,,,,,,,,,,,,,,,,,,,,,,,,,,,,,,,,,,,,,,,
,,,,63e541874bfc845f9ff78828,A,2024-07-15_19h11.33.997,Slot Machine Game,2023.1.3,Win32,59.88023952,,,,,,,,,,,,,,,,,,,1874.4649,14,0.5,,14,0,14,0,1,0.2522,,up,stimuli/card_100_transparent.png,920,100,,,,,,,,,,,,,,,,,,,,,,,,,,,,,,,,,,,,,,,,,,,,
,,,,63e541874bfc845f9ff78828,A,2024-07-15_19h11.33.997,Slot Machine Game,2023.1.3,Win32,59.88023952,,,,,,,,,,,,,,,,,,,,,,,,,,,,,,,,,,,1876.0469,,,1881.0439,space,4.5311,,,,,,,,,,,,,,,,,,,,,,,,,,,,,,,,,,,,,
,,,,63e541874bfc845f9ff78828,A,2024-07-15_19h11.33.997,Slot Machine Game,2023.1.3,Win32,59.88023952,,,,,,,,,,,,,,,,,,,,,,,,,,,,,,,,,,,,,,,,,,1885.6073,3,"[0,4,6,3,5,7,8,1,9,2]",space,1.6829,,,,,,,,,,,,,,,,,,,,,,,,,,,,,,,
,,,,63e541874bfc845f9ff78828,A,2024-07-15_19h11.33.997,Slot Machine Game,2023.1.3,Win32,59.88023952,,,,,,,,,,,,,,,,,,,,,,,,,,,,,,,,10,,,,,,,,,,,,,,,,1,1,"[12,15]","[[2,1,3],[2,3,1]]",1887.3257,0,left,1.7045,,1,0.3,"[2,1,3]",0.222678284,stimuli/card_10_transparent.png,10,0,0,0,0,1,,,,,,,,,,
,,,,63e541874bfc845f9ff78828,A,2024-07-15_19h11.33.997,Slot Machine Game,2023.1.3,Win32,59.88023952,,,,,,,,,,,,,,,,,,,,,,,,,,,,,,,,110,,,,,,,,,,,,,,,,1,1,,,1890.874,1,up,1.2203,,0.5,0.3,"[2,1,3]",0.920349819,stimuli/card_100_transparent.png,100,1,0,1,0,1,,,,,,,,,,
,,,,63e541874bfc845f9ff78828,A,2024-07-15_19h11.33.997,Slot Machine Game,2023.1.3,Win32,59.88023952,,,,,,,,,,,,,,,,,,,,,,,,,,,,,,,,210,,,,,,,,,,,,,,,,1,1,,,1893.431,2,up,1.5065,,1,0.3,"[2,1,3]",0.990867514,stimuli/card_100_transparent.png,100,2,0,2,0,1,,,,,,,,,,
,,,,63e541874bfc845f9ff78828,A,2024-07-15_19h11.33.997,Slot Machine Game,2023.1.3,Win32,59.88023952,,,,,,,,,,,,,,,,,,,,,,,,,,,,,,,,310,,,,,,,,,,,,,,,,1,1,,,1896.7606,3,up,0.1793,,0.5,0.3,"[2,1,3]",0.650703461,stimuli/card_100_transparent.png,100,3,0,3,0,1,,,,,,,,,,
,,,,63e541874bfc845f9ff78828,A,2024-07-15_19h11.33.997,Slot Machine Game,2023.1.3,Win32,59.88023952,,,,,,,,,,,,,,,,,,,,,,,,,,,,,,,,410,,,,,,,,,,,,,,,,1,1,,,1898.2594,4,up,0.4338,,1.5,0.3,"[2,1,3]",0.447773387,stimuli/card_100_transparent.png,100,4,0,4,0,1,,,,,,,,,,
,,,,63e541874bfc845f9ff78828,A,2024-07-15_19h11.33.997,Slot Machine Game,2023.1.3,Win32,59.88023952,,,,,,,,,,,,,,,,,,,,,,,,,,,,,,,,510,,,,,,,,,,,,,,,,1,1,,,1901.0234,5,right,2.7176,,1.5,0.3,"[2,1,3]",0.031708576,stimuli/card_100_transparent.png,100,5,0,5,0,1,,,,,,,,,,
,,,,63e541874bfc845f9ff78828,A,2024-07-15_19h11.33.997,Slot Machine Game,2023.1.3,Win32,59.88023952,,,,,,,,,,,,,,,,,,,,,,,,,,,,,,,,610,,,,,,,,,,,,,,,,1,1,,,1906.0852,6,right,0.1185,,1.5,0.3,"[2,1,3]",0.028471095,stimuli/card_100_transparent.png,100,6,0,6,0,1,,,,,,,,,,
,,,,63e541874bfc845f9ff78828,A,2024-07-15_19h11.33.997,Slot Machine Game,2023.1.3,Win32,59.88023952,,,,,,,,,,,,,,,,,,,,,,,,,,,,,,,,610,,,,,,,,,,,,,,,,1,1,,,1908.5329,7,right,0.4036,,0.5,0.3,"[2,1,3]",0.574931472,stimuli/card_0_transparent.png,0,7,0,7,0,1,,,,,,,,,,
,,,,63e541874bfc845f9ff78828,A,2024-07-15_19h11.33.997,Slot Machine Game,2023.1.3,Win32,59.88023952,,,,,,,,,,,,,,,,,,,,,,,,,,,,,,,,620,,,,,,,,,,,,,,,,1,1,,,1910.2673,8,left,0.7854,,1.5,0.3,"[2,1,3]",0.865620131,stimuli/card_10_transparent.png,10,8,0,8,0,1,,,,,,,,,,
,,,,63e541874bfc845f9ff78828,A,2024-07-15_19h11.33.997,Slot Machine Game,2023.1.3,Win32,59.88023952,,,,,,,,,,,,,,,,,,,,,,,,,,,,,,,,630,,,,,,,,,,,,,,,,1,1,,,1913.399,9,left,1.0102,,1,0.3,"[2,1,3]",0.734671474,stimuli/card_10_transparent.png,10,9,0,9,0,1,,,,,,,,,,
,,,,63e541874bfc845f9ff78828,A,2024-07-15_19h11.33.997,Slot Machine Game,2023.1.3,Win32,59.88023952,,,,,,,,,,,,,,,,,,,,,,,,,,,,,,,,730,,,,,,,,,,,,,,,,1,1,,,1916.2419,10,up,0.1377,,1.5,0.3,"[2,1,3]",0.229056411,stimuli/card_100_transparent.png,100,10,0,10,0,1,,,,,,,,,,
,,,,63e541874bfc845f9ff78828,A,2024-07-15_19h11.33.997,Slot Machine Game,2023.1.3,Win32,59.88023952,,,,,,,,,,,,,,,,,,,,,,,,,,,,,,,,830,,,,,,,,,,,,,,,,1,1,,,1918.723,11,up,0.1524,,1,0.3,"[2,1,3]",0.468127586,stimuli/card_100_transparent.png,100,11,0,11,0,1,,,,,,,,,,
,,,,63e541874bfc845f9ff78828,A,2024-07-15_19h11.33.997,Slot Machine Game,2023.1.3,Win32,59.88023952,,,,,,,,,,,,,,,,,,,,,,,,,,,,,,,,830,,,,,,,,,,,,,,,,1,1,,,1920.7212,12,up,0.633,,1.5,0.3,"[2,3,1]",0.330578554,stimuli/card_0_transparent.png,0,12,0,12,0,1,,,,,,,,,,
,,,,63e541874bfc845f9ff78828,A,2024-07-15_19h11.33.997,Slot Machine Game,2023.1.3,Win32,59.88023952,,,,,,,,,,,,,,,,,,,,,,,,,,,,,,,,840,,,,,,,,,,,,,,,,1,1,,,1923.6777,13,left,0.2335,,0.5,0.3,"[2,3,1]",0.400883087,stimuli/card_10_transparent.png,10,13,0,13,0,1,,,,,,,,,,
,,,,63e541874bfc845f9ff78828,A,2024-07-15_19h11.33.997,Slot Machine Game,2023.1.3,Win32,59.88023952,,,,,,,,,,,,,,,,,,,,,,,,,,,,,,,,940,,,,,,,,,,,,,,,,1,1,,,1925.2334,14,right,0.3175,,0.5,0.3,"[2,3,1]",0.714407539,stimuli/card_100_transparent.png,100,14,0,14,0,1,,,,,,,,,,
,,,,63e541874bfc845f9ff78828,A,2024-07-15_19h11.33.997,Slot Machine Game,2023.1.3,Win32,59.88023952,,,,,,,,,,,,,,,,,,,,,,,,,,,,,,,,,,,1926.8831,,,,,,,,,,,,,,,,,,,,,,,,,,,,,,,,,[940],0,0,0,0,1,,,,
,,,,63e541874bfc845f9ff78828,A,2024-07-15_19h11.33.997,Slot Machine Game,2023.1.3,Win32,59.88023952,,,,,,,,,,,,,,,,,,,,,,,,,,,,,,,,100,,,,,,,,,,,,,,,,2,5,"[5,15]","[[1,2,3],[3,1,2]]",1931.9003,0,left,3.2841,,1.5,0.3,"[1,2,3]",0.646023472,stimuli/card_100_transparent.png,100,0,0,0,0,1,,,,,,,,,,
,,,,63e541874bfc845f9ff78828,A,2024-07-15_19h11.33.997,Slot Machine Game,2023.1.3,Win32,59.88023952,,,,,,,,,,,,,,,,,,,,,,,,,,,,,,,,200,,,,,,,,,,,,,,,,2,5,,,1937.5061,1,left,0.8515,,1,0.3,"[1,2,3]",0.723287289,stimuli/card_100_transparent.png,100,1,0,1,0,1,,,,,,,,,,
,,,,63e541874bfc845f9ff78828,A,2024-07-15_19h11.33.997,Slot Machine Game,2023.1.3,Win32,59.88023952,,,,,,,,,,,,,,,,,,,,,,,,,,,,,,,,210,,,,,,,,,,,,,,,,2,5,,,1940.1865,2,left,1.498,,1.5,0.3,"[1,2,3]",0.102243552,stimuli/card_10_transparent.png,10,2,0,2,0,1,,,,,,,,,,
,,,,63e541874bfc845f9ff78828,A,2024-07-15_19h11.33.997,Slot Machine Game,2023.1.3,Win32,59.88023952,,,,,,,,,,,,,,,,,,,,,,,,,,,,,,,,220,,,,,,,,,,,,,,,,2,5,,,1944.0175,3,up,0.4864,,0.5,0.3,"[1,2,3]",0.84347295,stimuli/card_10_transparent.png,10,3,0,3,0,1,,,,,,,,,,
,,,,63e541874bfc845f9ff78828,A,2024-07-15_19h11.33.997,Slot Machine Game,2023.1.3,Win32,59.88023952,,,,,,,,,,,,,,,,,,,,,,,,,,,,,,,,230,,,,,,,,,,,,,,,,2,5,,,1945.8479,4,right,1.1334,,1,0.3,"[1,2,3]",0.141526394,stimuli/card_10_transparent.png,10,4,0,4,0,1,,,,,,,,,,
,,,,63e541874bfc845f9ff78828,A,2024-07-15_19h11.33.997,Slot Machine Game,2023.1.3,Win32,59.88023952,,,,,,,,,,,,,,,,,,,,,,,,,,,,,,,,330,,,,,,,,,,,,,,,,2,5,,,1948.795,5,up,0.1673,,0.5,0.3,"[3,1,2]",0.444200321,stimuli/card_100_transparent.png,100,5,0,5,0,1,,,,,,,,,,
,,,,63e541874bfc845f9ff78828,A,2024-07-15_19h11.33.997,Slot Machine Game,2023.1.3,Win32,59.88023952,,,,,,,,,,,,,,,,,,,,,,,,,,,,,,,,330,,,,,,,,,,,,,,,,2,5,,,1950.294,6,left,0.0503,,0.5,0.3,"[3,1,2]",0.253540169,stimuli/card_0_transparent.png,0,6,0,6,0,1,,,,,,,,,,
,,,,63e541874bfc845f9ff78828,A,2024-07-15_19h11.33.997,Slot Machine Game,2023.1.3,Win32,59.88023952,,,,,,,,,,,,,,,,,,,,,,,,,,,,,,,,430,,,,,,,,,,,,,,,,2,5,,,1951.6683,7,up,2.0093,,1,0.3,"[3,1,2]",0.885485893,stimuli/card_100_transparent.png,100,7,0,7,0,1,,,,,,,,,,
,,,,63e541874bfc845f9ff78828,A,2024-07-15_19h11.33.997,Slot Machine Game,2023.1.3,Win32,59.88023952,,,,,,,,,,,,,,,,,,,,,,,,,,,,,,,,430,,,,,,,,,,,,,,,,2,5,,,1955.5066,8,left,0.3171,,1.5,0.3,"[3,1,2]",0.684012247,stimuli/card_0_transparent.png,0,8,0,8,0,1,,,,,,,,,,
,,,,63e541874bfc845f9ff78828,A,2024-07-15_19h11.33.997,Slot Machine Game,2023.1.3,Win32,59.88023952,,,,,,,,,,,,,,,,,,,,,,,,,,,,,,,,530,,,,,,,,,,,,,,,,2,5,,,1958.1532,9,left,0.24,,1.5,0.3,"[3,1,2]",0.070175799,stimuli/card_100_transparent.png,100,9,0,9,0,1,,,,,,,,,,
,,,,63e541874bfc845f9ff78828,A,2024-07-15_19h11.33.997,Slot Machine Game,2023.1.3,Win32,59.88023952,,,,,,,,,,,,,,,,,,,,,,,,,,,,,,,,630,,,,,,,,,,,,,,,,2,5,,,1960.7374,10,up,0.1039,,1.5,0.3,"[3,1,2]",0.642749343,stimuli/card_100_transparent.png,100,10,0,10,0,1,,,,,,,,,,
,,,,63e541874bfc845f9ff78828,A,2024-07-15_19h11.33.997,Slot Machine Game,2023.1.3,Win32,59.88023952,,,,,,,,,,,,,,,,,,,,,,,,,,,,,,,,630,,,,,,,,,,,,,,,,2,5,,,1963.182,11,up,0.7965,,0.5,0.3,"[3,1,2]",0.090575653,stimuli/card_0_transparent.png,0,11,0,11,0,1,,,,,,,,,,
,,,,63e541874bfc845f9ff78828,A,2024-07-15_19h11.33.997,Slot Machine Game,2023.1.3,Win32,59.88023952,,,,,,,,,,,,,,,,,,,,,,,,,,,,,,,,630,,,,,,,,,,,,,,,,2,5,,,1965.2967,12,right,0.7007,,1.5,0.3,"[3,1,2]",0.02061376,stimuli/card_0_transparent.png,0,12,0,12,0,1,,,,,,,,,,
,,,,63e541874bfc845f9ff78828,A,2024-07-15_19h11.33.997,Slot Machine Game,2023.1.3,Win32,59.88023952,,,,,,,,,,,,,,,,,,,,,,,,,,,,,,,,730,,,,,,,,,,,,,,,,2,5,,,1968.3179,13,up,1.6355,,1.5,0.3,"[3,1,2]",0.765477322,stimuli/card_100_transparent.png,100,13,0,13,0,1,,,,,,,,,,
,,,,63e541874bfc845f9ff78828,A,2024-07-15_19h11.33.997,Slot Machine Game,2023.1.3,Win32,59.88023952,,,,,,,,,,,,,,,,,,,,,,,,,,,,,,,,730,,,,,,,,,,,,,,,,2,5,,,1972.2902,14,left,0.392,,1,0.3,"[3,1,2]",0.225800699,stimuli/card_0_transparent.png,0,14,0,14,0,1,,,,,,,,,,
,,,,63e541874bfc845f9ff78828,A,2024-07-15_19h11.33.997,Slot Machine Game,2023.1.3,Win32,59.88023952,,,,,,,,,,,,,,,,,,,,,,,,,,,,,,,,,,,1974.5215,,,,,,,,,,,,,,,,,,,,,,,,,,,,,,,,,"[940,730]",1,0,1,0,1,,,,
,,,,63e541874bfc845f9ff78828,A,2024-07-15_19h11.33.997,Slot Machine Game,2023.1.3,Win32,59.88023952,,,,,,,,,,,,,,,,,,,,,,,,,,,,,,,,0,,,,,,,,,,,,,,,,3,7,"[9,15]","[[1,3,2],[2,3,1]]",1979.5375,0,up,0.5709,,1,0.3,"[1,3,2]",0.466088199,stimuli/card_0_transparent.png,0,0,0,0,0,1,,,,,,,,,,
,,,,63e541874bfc845f9ff78828,A,2024-07-15_19h11.33.997,Slot Machine Game,2023.1.3,Win32,59.88023952,,,,,,,,,,,,,,,,,,,,,,,,,,,,,,,,10,,,,,,,,,,,,,,,,3,7,,,1981.9302,1,right,0.088,,0.5,0.3,"[1,3,2]",0.73591243,stimuli/card_10_transparent.png,10,1,0,1,0,1,,,,,,,,,,
,,,,63e541874bfc845f9ff78828,A,2024-07-15_19h11.33.997,Slot Machine Game,2023.1.3,Win32,59.88023952,,,,,,,,,,,,,,,,,,,,,,,,,,,,,,,,110,,,,,,,,,,,,,,,,3,7,,,1983.3463,2,up,0.0339,,1.5,0.3,"[1,3,2]",0.035088188,stimuli/card_100_transparent.png,100,2,0,2,0,1,,,,,,,,,,
,,,,63e541874bfc845f9ff78828,A,2024-07-15_19h11.33.997,Slot Machine Game,2023.1.3,Win32,59.88023952,,,,,,,,,,,,,,,,,,,,,,,,,,,,,,,,110,,,,,,,,,,,,,,,,3,7,,,1985.7111,3,up,0.0736,,1,0.3,"[1,3,2]",0.325991032,stimuli/card_0_transparent.png,0,3,0,3,0,1,,,,,,,,,,
,,,,63e541874bfc845f9ff78828,A,2024-07-15_19h11.33.997,Slot Machine Game,2023.1.3,Win32,59.88023952,,,,,,,,,,,,,,,,,,,,,,,,,,,,,,,,210,,,,,,,,,,,,,,,,3,7,,,1987.609,4,left,1.0118,,0.5,0.3,"[1,3,2]",0.899060124,stimuli/card_100_transparent.png,100,4,0,4,0,1,,,,,,,,,,
,,,,63e541874bfc845f9ff78828,A,2024-07-15_19h11.33.997,Slot Machine Game,2023.1.3,Win32,59.88023952,,,,,,,,,,,,,,,,,,,,,,,,,,,,,,,,220,,,,,,,,,,,,,,,,3,7,,,1989.9396,5,left,1.0857,,1,0.3,"[1,3,2]",0.146966616,stimuli/card_10_transparent.png,10,5,0,5,0,1,,,,,,,,,,
,,,,63e541874bfc845f9ff78828,A,2024-07-15_19h11.33.997,Slot Machine Game,2023.1.3,Win32,59.88023952,,,,,,,,,,,,,,,,,,,,,,,,,,,,,,,,220,,,,,,,,,,,,,,,,3,7,,,1992.8714,6,up,2.6649,,1.5,0.3,"[1,3,2]",0.242157078,stimuli/card_0_transparent.png,0,6,0,6,0,1,,,,,,,,,,
,,,,63e541874bfc845f9ff78828,A,2024-07-15_19h11.33.997,Slot Machine Game,2023.1.3,Win32,59.88023952,,,,,,,,,,,,,,,,,,,,,,,,,,,,,,,,230,,,,,,,,,,,,,,,,3,7,,,1997.8573,7,right,1.274,,1.5,0.3,"[1,3,2]",0.757119682,stimuli/card_10_transparent.png,10,7,0,7,0,1,,,,,,,,,,
,,,,63e541874bfc845f9ff78828,A,2024-07-15_19h11.33.997,Slot Machine Game,2023.1.3,Win32,59.88023952,,,,,,,,,,,,,,,,,,,,,,,,,,,,,,,,230,,,,,,,,,,,,,,,,3,7,,,2001.4455,8,up,0.018,,0.5,0.3,"[1,3,2]",0.316304425,stimuli/card_0_transparent.png,0,8,0,8,0,1,,,,,,,,,,
,,,,63e541874bfc845f9ff78828,A,2024-07-15_19h11.33.997,Slot Machine Game,2023.1.3,Win32,59.88023952,,,,,,,,,,,,,,,,,,,,,,,,,,,,,,,,230,,,,,,,,,,,,,,,,3,7,,,2002.7942,9,left,0.7332,,1.5,0.3,"[2,3,1]",0.05866384,stimuli/card_0_transparent.png,0,9,0,9,0,1,,,,,,,,,,
,,,,63e541874bfc845f9ff78828,A,2024-07-15_19h11.33.997,Slot Machine Game,2023.1.3,Win32,59.88023952,,,,,,,,,,,,,,,,,,,,,,,,,,,,,,,,230,,,,,,,,,,,,,,,,3,7,,,2005.8576,10,up,0.5054,,1.5,0.3,"[2,3,1]",0.919829053,stimuli/card_0_transparent.png,0,10,0,10,0,1,,,,,,,,,,
,,,,63e541874bfc845f9ff78828,A,2024-07-15_19h11.33.997,Slot Machine Game,2023.1.3,Win32,59.88023952,,,,,,,,,,,,,,,,,,,,,,,,,,,,,,,,240,,,,,,,,,,,,,,,,3,7,,,2008.6883,11,left,1.05,,1,0.3,"[2,3,1]",0.578013187,stimuli/card_10_transparent.png,10,11,0,11,0,1,,,,,,,,,,
,,,,63e541874bfc845f9ff78828,A,2024-07-15_19h11.33.997,Slot Machine Game,2023.1.3,Win32,59.88023952,,,,,,,,,,,,,,,,,,,,,,,,,,,,,,,,250,,,,,,,,,,,,,,,,3,7,,,2011.5695,12,right,0.7003,,1.5,0.3,"[2,3,1]",0.179255181,stimuli/card_10_transparent.png,10,12,0,12,0,1,,,,,,,,,,
,,,,63e541874bfc845f9ff78828,A,2024-07-15_19h11.33.997,Slot Machine Game,2023.1.3,Win32,59.88023952,,,,,,,,,,,,,,,,,,,,,,,,,,,,,,,,250,,,,,,,,,,,,,,,,3,7,,,2014.5993,13,right,0.367,,0.5,0.3,"[2,3,1]",0.049749872,stimuli/card_0_transparent.png,0,13,0,13,0,1,,,,,,,,,,
,,,,63e541874bfc845f9ff78828,A,2024-07-15_19h11.33.997,Slot Machine Game,2023.1.3,Win32,59.88023952,,,,,,,,,,,,,,,,,,,,,,,,,,,,,,,,350,,,,,,,,,,,,,,,,3,7,,,2016.2981,14,right,0.1689,,1.5,0.3,"[2,3,1]",0.871694624,stimuli/card_100_transparent.png,100,14,0,14,0,1,,,,,,,,,,
,,,,63e541874bfc845f9ff78828,A,2024-07-15_19h11.33.997,Slot Machine Game,2023.1.3,Win32,59.88023952,,,,,,,,,,,,,,,,,,,,,,,,,,,,,,,,,,,2018.796,,,,,,,,,,,,,,,,,,,,,,,,,,,,,,,,,"[940,730,350]",2,0,2,0,1,,,,
,,,,63e541874bfc845f9ff78828,A,2024-07-15_19h11.33.997,Slot Machine Game,2023.1.3,Win32,59.88023952,,,,,,,,,,,,,,,,,,,,,,,,,,,,,,,,10,,,,,,,,,,,,,,,,4,4,"[7,15]","[[2,3,1],[1,2,3]]",2023.8125,0,left,2.393,,1.5,0.3,"[2,3,1]",0.586981609,stimuli/card_10_transparent.png,10,0,0,0,0,1,,,,,,,,,,
,,,,63e541874bfc845f9ff78828,A,2024-07-15_19h11.33.997,Slot Machine Game,2023.1.3,Win32,59.88023952,,,,,,,,,,,,,,,,,,,,,,,,,,,,,,,,20,,,,,,,,,,,,,,,,4,4,,,2028.53,1,left,1.9702,,0.5,0.3,"[2,3,1]",0.81791846,stimuli/card_10_transparent.png,10,1,0,1,0,1,,,,,,,,,,
,,,,63e541874bfc845f9ff78828,A,2024-07-15_19h11.33.997,Slot Machine Game,2023.1.3,Win32,59.88023952,,,,,,,,,,,,,,,,,,,,,,,,,,,,,,,,20,,,,,,,,,,,,,,,,4,4,,,2031.8343,2,up,0.0684,,0.5,0.3,"[2,3,1]",0.530819805,stimuli/card_0_transparent.png,0,2,0,2,0,1,,,,,,,,,,
,,,,63e541874bfc845f9ff78828,A,2024-07-15_19h11.33.997,Slot Machine Game,2023.1.3,Win32,59.88023952,,,,,,,,,,,,,,,,,,,,,,,,,,,,,,,,20,,,,,,,,,,,,,,,,4,4,,,2033.2498,3,up,0.0342,,1,0.3,"[2,3,1]",0.306707297,stimuli/card_0_transparent.png,0,3,0,3,0,1,,,,,,,,,,
,,,,63e541874bfc845f9ff78828,A,2024-07-15_19h11.33.997,Slot Machine Game,2023.1.3,Win32,59.88023952,,,,,,,,,,,,,,,,,,,,,,,,,,,,,,,,120,,,,,,,,,,,,,,,,4,4,,,2035.1143,4,right,0.0062,,0.5,0.3,"[2,3,1]",0.620913001,stimuli/card_100_transparent.png,100,4,0,4,0,1,,,,,,,,,,
,,,,63e541874bfc845f9ff78828,A,2024-07-15_19h11.33.997,Slot Machine Game,2023.1.3,Win32,59.88023952,,,,,,,,,,,,,,,,,,,,,,,,,,,,,,,,130,,,,,,,,,,,,,,,,4,4,,,2036.439,5,right,1.0513,,0.5,0.3,"[2,3,1]",0.164114792,stimuli/card_10_transparent.png,10,5,0,5,0,1,,,,,,,,,,
,,,,63e541874bfc845f9ff78828,A,2024-07-15_19h11.33.997,Slot Machine Game,2023.1.3,Win32,59.88023952,,,,,,,,,,,,,,,,,,,,,,,,,,,,,,,,130,,,,,,,,,,,,,,,,4,4,,,2038.8282,6,up,0.7233,,1,0.3,"[2,3,1]",0.700398081,stimuli/card_0_transparent.png,0,6,0,6,0,1,,,,,,,,,,
,,,,63e541874bfc845f9ff78828,A,2024-07-15_19h11.33.997,Slot Machine Game,2023.1.3,Win32,59.88023952,,,,,,,,,,,,,,,,,,,,,,,,,,,,,,,,130,,,,,,,,,,,,,,,,4,4,,,2041.3914,7,up,1.3321,,0.5,0.3,"[1,2,3]",0.070373982,stimuli/card_0_transparent.png,0,7,0,7,0,1,,,,,,,,,,
,,,,63e541874bfc845f9ff78828,A,2024-07-15_19h11.33.997,Slot Machine Game,2023.1.3,Win32,59.88023952,,,,,,,,,,,,,,,,,,,,,,,,,,,,,,,,230,,,,,,,,,,,,,,,,4,4,,,2044.043,8,left,0.1261,,1.5,0.3,"[1,2,3]",0.412451103,stimuli/card_100_transparent.png,100,8,0,8,0,1,,,,,,,,,,
,,,,63e541874bfc845f9ff78828,A,2024-07-15_19h11.33.997,Slot Machine Game,2023.1.3,Win32,59.88023952,,,,,,,,,,,,,,,,,,,,,,,,,,,,,,,,330,,,,,,,,,,,,,,,,4,4,,,2046.5042,9,left,1.6063,,1,0.3,"[1,2,3]",0.951897488,stimuli/card_100_transparent.png,100,9,0,9,0,1,,,,,,,,,,
,,,,63e541874bfc845f9ff78828,A,2024-07-15_19h11.33.997,Slot Machine Game,2023.1.3,Win32,59.88023952,,,,,,,,,,,,,,,,,,,,,,,,,,,,,,,,340,,,,,,,,,,,,,,,,4,4,,,2049.9342,10,left,0.0007,,0.5,0.3,"[1,2,3]",0.166199319,stimuli/card_10_transparent.png,10,10,0,10,0,1,,,,,,,,,,
,,,,63e541874bfc845f9ff78828,A,2024-07-15_19h11.33.997,Slot Machine Game,2023.1.3,Win32,59.88023952,,,,,,,,,,,,,,,,,,,,,,,,,,,,,,,,440,,,,,,,,,,,,,,,,4,4,,,2051.275,11,left,1.4835,,1.5,0.3,"[1,2,3]",0.849602361,stimuli/card_100_transparent.png,100,11,0,11,0,1,,,,,,,,,,
,,,,63e541874bfc845f9ff78828,A,2024-07-15_19h11.33.997,Slot Machine Game,2023.1.3,Win32,59.88023952,,,,,,,,,,,,,,,,,,,,,,,,,,,,,,,,540,,,,,,,,,,,,,,,,4,4,,,2055.104,12,left,0.147,,1,0.3,"[1,2,3]",0.974507135,stimuli/card_100_transparent.png,100,12,0,12,0,1,,,,,,,,,,
,,,,63e541874bfc845f9ff78828,A,2024-07-15_19h11.33.997,Slot Machine Game,2023.1.3,Win32,59.88023952,,,,,,,,,,,,,,,,,,,,,,,,,,,,,,,,550,,,,,,,,,,,,,,,,4,4,,,2057.0869,13,up,0.5334,,0.5,0.3,"[1,2,3]",0.205394483,stimuli/card_10_transparent.png,10,13,0,13,0,1,,,,,,,,,,
,,,,63e541874bfc845f9ff78828,A,2024-07-15_19h11.33.997,Slot Machine Game,2023.1.3,Win32,59.88023952,,,,,,,,,,,,,,,,,,,,,,,,,,,,,,,,550,,,,,,,,,,,,,,,,4,4,,,2058.9352,14,right,1.304,,1,0.3,"[1,2,3]",0.342492336,stimuli/card_0_transparent.png,0,14,0,14,0,1,,,,,,,,,,
,,,,63e541874bfc845f9ff78828,A,2024-07-15_19h11.33.997,Slot Machine Game,2023.1.3,Win32,59.88023952,,,,,,,,,,,,,,,,,,,,,,,,,,,,,,,,,,,2062.083,,,,,,,,,,,,,,,,,,,,,,,,,,,,,,,,,"[940,730,350,550]",3,0,3,0,1,,,,
,,,,63e541874bfc845f9ff78828,A,2024-07-15_19h11.33.997,Slot Machine Game,2023.1.3,Win32,59.88023952,,,,,,,,,,,,,,,,,,,,,,,,,,,,,,,,10,,,,,,,,,,,,,,,,5,6,"[4,10,15]","[[2,3,1],[1,3,2],[3,2,1]]",2067.1087,0,left,0.6386,,0.5,0.3,"[2,3,1]",0.985838956,stimuli/card_10_transparent.png,10,0,0,0,0,1,,,,,,,,,,
,,,,63e541874bfc845f9ff78828,A,2024-07-15_19h11.33.997,Slot Machine Game,2023.1.3,Win32,59.88023952,,,,,,,,,,,,,,,,,,,,,,,,,,,,,,,,20,,,,,,,,,,,,,,,,5,6,,,2069.0656,1,left,0.2332,,1.5,0.3,"[2,3,1]",0.349801003,stimuli/card_10_transparent.png,10,1,0,1,0,1,,,,,,,,,,
,,,,63e541874bfc845f9ff78828,A,2024-07-15_19h11.33.997,Slot Machine Game,2023.1.3,Win32,59.88023952,,,,,,,,,,,,,,,,,,,,,,,,,,,,,,,,30,,,,,,,,,,,,,,,,5,6,,,2071.6295,2,left,0.1842,,0.5,0.3,"[2,3,1]",0.931441612,stimuli/card_10_transparent.png,10,2,0,2,0,1,,,,,,,,,,
,,,,63e541874bfc845f9ff78828,A,2024-07-15_19h11.33.997,Slot Machine Game,2023.1.3,Win32,59.88023952,,,,,,,,,,,,,,,,,,,,,,,,,,,,,,,,130,,,,,,,,,,,,,,,,5,6,,,2073.1451,3,up,0.1476,,0.5,0.3,"[2,3,1]",0.071731564,stimuli/card_100_transparent.png,100,3,0,3,0,1,,,,,,,,,,
,,,,63e541874bfc845f9ff78828,A,2024-07-15_19h11.33.997,Slot Machine Game,2023.1.3,Win32,59.88023952,,,,,,,,,,,,,,,,,,,,,,,,,,,,,,,,140,,,,,,,,,,,,,,,,5,6,,,2074.6267,4,up,0.1185,,0.5,0.3,"[1,3,2]",0.100043213,stimuli/card_10_transparent.png,10,4,0,4,0,1,,,,,,,,,,
,,,,63e541874bfc845f9ff78828,A,2024-07-15_19h11.33.997,Slot Machine Game,2023.1.3,Win32,59.88023952,,,,,,,,,,,,,,,,,,,,,,,,,,,,,,,,140,,,,,,,,,,,,,,,,5,6,,,2076.0756,5,right,0.0072,,1,0.3,"[1,3,2]",0.032450165,stimuli/card_0_transparent.png,0,5,0,5,0,1,,,,,,,,,,
,,,,63e541874bfc845f9ff78828,A,2024-07-15_19h11.33.997,Slot Machine Game,2023.1.3,Win32,59.88023952,,,,,,,,,,,,,,,,,,,,,,,,,,,,,,,,150,,,,,,,,,,,,,,,,5,6,,,2077.9073,6,right,1.9642,,1.5,0.3,"[1,3,2]",0.462581397,stimuli/card_10_transparent.png,10,6,0,6,0,1,,,,,,,,,,
,,,,63e541874bfc845f9ff78828,A,2024-07-15_19h11.33.997,Slot Machine Game,2023.1.3,Win32,59.88023952,,,,,,,,,,,,,,,,,,,,,,,,,,,,,,,,250,,,,,,,,,,,,,,,,5,6,,,2082.1951,7,up,0.4374,,0.5,0.3,"[1,3,2]",0.078542847,stimuli/card_100_transparent.png,100,7,0,7,0,1,,,,,,,,,,
,,,,63e541874bfc845f9ff78828,A,2024-07-15_19h11.33.997,Slot Machine Game,2023.1.3,Win32,59.88023952,,,,,,,,,,,,,,,,,,,,,,,,,,,,,,,,260,,,,,,,,,,,,,,,,5,6,,,2083.9521,8,right,1.3496,,1.5,0.3,"[1,3,2]",0.497975554,stimuli/card_10_transparent.png,10,8,0,8,0,1,,,,,,,,,,
,,,,63e541874bfc845f9ff78828,A,2024-07-15_19h11.33.997,Slot Machine Game,2023.1.3,Win32,59.88023952,,,,,,,,,,,,,,,,,,,,,,,,,,,,,,,,270,,,,,,,,,,,,,,,,5,6,,,2087.6157,9,right,1.0724,,0.5,0.3,"[1,3,2]",0.719552344,stimuli/card_10_transparent.png,10,9,0,9,0,1,,,,,,,,,,
,,,,63e541874bfc845f9ff78828,A,2024-07-15_19h11.33.997,Slot Machine Game,2023.1.3,Win32,59.88023952,,,,,,,,,,,,,,,,,,,,,,,,,,,,,,,,270,,,,,,,,,,,,,,,,5,6,,,2090.0124,10,up,1.1996,,1.5,0.3,"[3,2,1]",0.072830724,stimuli/card_0_transparent.png,0,10,0,10,0,1,,,,,,,,,,
,,,,63e541874bfc845f9ff78828,A,2024-07-15_19h11.33.997,Slot Machine Game,2023.1.3,Win32,59.88023952,,,,,,,,,,,,,,,,,,,,,,,,,,,,,,,,370,,,,,,,,,,,,,,,,5,6,,,2093.5426,11,up,1.5494,,1.5,0.3,"[3,2,1]",0.10838111,stimuli/card_100_transparent.png,100,11,0,11,0,1,,,,,,,,,,
,,,,63e541874bfc845f9ff78828,A,2024-07-15_19h11.33.997,Slot Machine Game,2023.1.3,Win32,59.88023952,,,,,,,,,,,,,,,,,,,,,,,,,,,,,,,,380,,,,,,,,,,,,,,,,5,6,,,2097.4226,12,up,0.1008,,1,0.3,"[3,2,1]",0.462998043,stimuli/card_10_transparent.png,10,12,0,12,0,1,,,,,,,,,,
,,,,63e541874bfc845f9ff78828,A,2024-07-15_19h11.33.997,Slot Machine Game,2023.1.3,Win32,59.88023952,,,,,,,,,,,,,,,,,,,,,,,,,,,,,,,,480,,,,,,,,,,,,,,,,5,6,,,2099.3542,13,left,0.0856,,0.5,0.3,"[3,2,1]",0.044818928,stimuli/card_100_transparent.png,100,13,0,13,0,1,,,,,,,,,,
,,,,63e541874bfc845f9ff78828,A,2024-07-15_19h11.33.997,Slot Machine Game,2023.1.3,Win32,59.88023952,,,,,,,,,,,,,,,,,,,,,,,,,,,,,,,,490,,,,,,,,,,,,,,,,5,6,,,2100.7695,14,left,0.5822,,1.5,0.3,"[3,2,1]",0.191619611,stimuli/card_10_transparent.png,10,14,0,14,0,1,,,,,,,,,,
,,,,63e541874bfc845f9ff78828,A,2024-07-15_19h11.33.997,Slot Machine Game,2023.1.3,Win32,59.88023952,,,,,,,,,,,,,,,,,,,,,,,,,,,,,,,,,,,2103.6834,,,,,,,,,,,,,,,,,,,,,,,,,,,,,,,,,"[940,730,350,550,490]",4,0,4,0,1,,,,
,,,,63e541874bfc845f9ff78828,A,2024-07-15_19h11.33.997,Slot Machine Game,2023.1.3,Win32,59.88023952,,,,,,,,,,,,,,,,,,,,,,,,,,,,,,,,10,,,,,,,,,,,,,,,,6,8,"[11,15]","[[2,1,3],[1,2,3]]",2108.7026,0,left,0.5059,,1.5,0.3,"[2,1,3]",0.430127101,stimuli/card_10_transparent.png,10,0,0,0,0,1,,,,,,,,,,
,,,,63e541874bfc845f9ff78828,A,2024-07-15_19h11.33.997,Slot Machine Game,2023.1.3,Win32,59.88023952,,,,,,,,,,,,,,,,,,,,,,,,,,,,,,,,20,,,,,,,,,,,,,,,,6,8,,,2111.5345,1,left,0.9669,,1.5,0.3,"[2,1,3]",0.901644975,stimuli/card_10_transparent.png,10,1,0,1,0,1,,,,,,,,,,
,,,,63e541874bfc845f9ff78828,A,2024-07-15_19h11.33.997,Slot Machine Game,2023.1.3,Win32,59.88023952,,,,,,,,,,,,,,,,,,,,,,,,,,,,,,,,120,,,,,,,,,,,,,,,,6,8,,,2114.8142,2,up,0.5,,1.5,0.3,"[2,1,3]",0.747473079,stimuli/card_100_transparent.png,100,2,0,2,0,1,,,,,,,,,,
,,,,63e541874bfc845f9ff78828,A,2024-07-15_19h11.33.997,Slot Machine Game,2023.1.3,Win32,59.88023952,,,,,,,,,,,,,,,,,,,,,,,,,,,,,,,,120,,,,,,,,,,,,,,,,6,8,,,2117.6207,3,right,1.3102,,1.5,0.3,"[2,1,3]",0.753218122,stimuli/card_0_transparent.png,0,3,0,3,0,1,,,,,,,,,,
,,,,63e541874bfc845f9ff78828,A,2024-07-15_19h11.33.997,Slot Machine Game,2023.1.3,Win32,59.88023952,,,,,,,,,,,,,,,,,,,,,,,,,,,,,,,,220,,,,,,,,,,,,,,,,6,8,,,2121.2527,4,up,0.1991,,0.5,0.3,"[2,1,3]",0.755408446,stimuli/card_100_transparent.png,100,4,0,4,0,1,,,,,,,,,,
,,,,63e541874bfc845f9ff78828,A,2024-07-15_19h11.33.997,Slot Machine Game,2023.1.3,Win32,59.88023952,,,,,,,,,,,,,,,,,,,,,,,,,,,,,,,,320,,,,,,,,,,,,,,,,6,8,,,2122.7828,5,up,0.7491,,0.5,0.3,"[2,1,3]",0.580618774,stimuli/card_100_transparent.png,100,5,0,5,0,1,,,,,,,,,,
,,,,63e541874bfc845f9ff78828,A,2024-07-15_19h11.33.997,Slot Machine Game,2023.1.3,Win32,59.88023952,,,,,,,,,,,,,,,,,,,,,,,,,,,,,,,,320,,,,,,,,,,,,,,,,6,8,,,2124.864,6,left,1.8675,,1,0.3,"[2,1,3]",0.019944179,stimuli/card_0_transparent.png,0,6,0,6,0,1,,,,,,,,,,
,,,,63e541874bfc845f9ff78828,A,2024-07-15_19h11.33.997,Slot Machine Game,2023.1.3,Win32,59.88023952,,,,,,,,,,,,,,,,,,,,,,,,,,,,,,,,330,,,,,,,,,,,,,,,,6,8,,,2128.5599,7,left,0.0679,,0.5,0.3,"[2,1,3]",0.348636202,stimuli/card_10_transparent.png,10,7,0,7,0,1,,,,,,,,,,
,,,,63e541874bfc845f9ff78828,A,2024-07-15_19h11.33.997,Slot Machine Game,2023.1.3,Win32,59.88023952,,,,,,,,,,,,,,,,,,,,,,,,,,,,,,,,330,,,,,,,,,,,,,,,,6,8,,,2129.9588,8,up,0.8832,,1.5,0.3,"[2,1,3]",0.010758346,stimuli/card_0_transparent.png,0,8,0,8,0,1,,,,,,,,,,
,,,,63e541874bfc845f9ff78828,A,2024-07-15_19h11.33.997,Slot Machine Game,2023.1.3,Win32,59.88023952,,,,,,,,,,,,,,,,,,,,,,,,,,,,,,,,330,,,,,,,,,,,,,,,,6,8,,,2133.1723,9,right,0.0507,,1.5,0.3,"[2,1,3]",0.90224878,stimuli/card_0_transparent.png,0,9,0,9,0,1,,,,,,,,,,
,,,,63e541874bfc845f9ff78828,A,2024-07-15_19h11.33.997,Slot Machine Game,2023.1.3,Win32,59.88023952,,,,,,,,,,,,,,,,,,,,,,,,,,,,,,,,430,,,,,,,,,,,,,,,,6,8,,,2135.5533,10,right,0.1504,,0.5,0.3,"[2,1,3]",0.088760954,stimuli/card_100_transparent.png,100,10,0,10,0,1,,,,,,,,,,
,,,,63e541874bfc845f9ff78828,A,2024-07-15_19h11.33.997,Slot Machine Game,2023.1.3,Win32,59.88023952,,,,,,,,,,,,,,,,,,,,,,,,,,,,,,,,440,,,,,,,,,,,,,,,,6,8,,,2137.0355,11,up,0.6046,,1.5,0.3,"[1,2,3]",0.201508276,stimuli/card_10_transparent.png,10,11,0,11,0,1,,,,,,,,,,
,,,,63e541874bfc845f9ff78828,A,2024-07-15_19h11.33.997,Slot Machine Game,2023.1.3,Win32,59.88023952,,,,,,,,,,,,,,,,,,,,,,,,,,,,,,,,440,,,,,,,,,,,,,,,,6,8,,,2139.9662,12,right,0.0342,,1,0.3,"[1,2,3]",0.613594192,stimuli/card_0_transparent.png,0,12,0,12,0,1,,,,,,,,,,
,,,,63e541874bfc845f9ff78828,A,2024-07-15_19h11.33.997,Slot Machine Game,2023.1.3,Win32,59.88023952,,,,,,,,,,,,,,,,,,,,,,,,,,,,,,,,540,,,,,,,,,,,,,,,,6,8,,,2141.8308,13,left,0.7008,,1,0.3,"[1,2,3]",0.869079725,stimuli/card_100_transparent.png,100,13,0,13,0,1,,,,,,,,,,
,,,,63e541874bfc845f9ff78828,A,2024-07-15_19h11.33.997,Slot Machine Game,2023.1.3,Win32,59.88023952,,,,,,,,,,,,,,,,,,,,,,,,,,,,,,,,550,,,,,,,,,,,,,,,,6,8,,,2144.3622,14,left,2.1828,,1,0.3,"[1,2,3]",0.180893024,stimuli/card_10_transparent.png,10,14,0,14,0,1,,,,,,,,,,
,,,,63e541874bfc845f9ff78828,A,2024-07-15_19h11.33.997,Slot Machine Game,2023.1.3,Win32,59.88023952,,,,,,,,,,,,,,,,,,,,,,,,,,,,,,,,,,,2148.3748,,,,,,,,,,,,,,,,,,,,,,,,,,,,,,,,,"[940,730,350,550,490,550]",5,0,5,0,1,,,,
,,,,63e541874bfc845f9ff78828,A,2024-07-15_19h11.33.997,Slot Machine Game,2023.1.3,Win32,59.88023952,,,,,,,,,,,,,,,,,,,,,,,,,,,,,,,,0,,,,,,,,,,,,,,,,7,9,"[8,15]","[[3,2,1],[3,1,2]]",2153.3915,0,left,0.2714,,1.5,0.3,"[3,2,1]",0.474875287,stimuli/card_0_transparent.png,0,0,0,0,0,1,,,,,,,,,,
,,,,63e541874bfc845f9ff78828,A,2024-07-15_19h11.33.997,Slot Machine Game,2023.1.3,Win32,59.88023952,,,,,,,,,,,,,,,,,,,,,,,,,,,,,,,,0,,,,,,,,,,,,,,,,7,9,,,2155.9876,1,left,0.1651,,1,0.3,"[3,2,1]",0.713042661,stimuli/card_0_transparent.png,0,1,0,1,0,1,,,,,,,,,,
,,,,63e541874bfc845f9ff78828,A,2024-07-15_19h11.33.997,Slot Machine Game,2023.1.3,Win32,59.88023952,,,,,,,,,,,,,,,,,,,,,,,,,,,,,,,,100,,,,,,,,,,,,,,,,7,9,,,2157.9831,2,up,0.3214,,1,0.3,"[3,2,1]",0.107848192,stimuli/card_100_transparent.png,100,2,0,2,0,1,,,,,,,,,,
,,,,63e541874bfc845f9ff78828,A,2024-07-15_19h11.33.997,Slot Machine Game,2023.1.3,Win32,59.88023952,,,,,,,,,,,,,,,,,,,,,,,,,,,,,,,,200,,,,,,,,,,,,,,,,7,9,,,2160.1482,3,right,0.3956,,0.5,0.3,"[3,2,1]",0.901602004,stimuli/card_100_transparent.png,100,3,0,3,0,1,,,,,,,,,,
,,,,63e541874bfc845f9ff78828,A,2024-07-15_19h11.33.997,Slot Machine Game,2023.1.3,Win32,59.88023952,,,,,,,,,,,,,,,,,,,,,,,,,,,,,,,,300,,,,,,,,,,,,,,,,7,9,,,2161.88,4,right,0.0246,,0.5,0.3,"[3,2,1]",0.871665503,stimuli/card_100_transparent.png,100,4,0,4,0,1,,,,,,,,,,
,,,,63e541874bfc845f9ff78828,A,2024-07-15_19h11.33.997,Slot Machine Game,2023.1.3,Win32,59.88023952,,,,,,,,,,,,,,,,,,,,,,,,,,,,,,,,300,,,,,,,,,,,,,,,,7,9,,,2163.245,5,right,0.6987,,0.5,0.3,"[3,2,1]",0.020303317,stimuli/card_0_transparent.png,0,5,0,5,0,1,,,,,,,,,,
,,,,63e541874bfc845f9ff78828,A,2024-07-15_19h11.33.997,Slot Machine Game,2023.1.3,Win32,59.88023952,,,,,,,,,,,,,,,,,,,,,,,,,,,,,,,,300,,,,,,,,,,,,,,,,7,9,,,2165.2686,6,up,0.5453,,1,0.3,"[3,2,1]",0.065262033,stimuli/card_0_transparent.png,0,6,0,6,0,1,,,,,,,,,,
,,,,63e541874bfc845f9ff78828,A,2024-07-15_19h11.33.997,Slot Machine Game,2023.1.3,Win32,59.88023952,,,,,,,,,,,,,,,,,,,,,,,,,,,,,,,,310,,,,,,,,,,,,,,,,7,9,,,2167.641,7,up,0.1161,,1,0.3,"[3,2,1]",0.825758065,stimuli/card_10_transparent.png,10,7,0,7,0,1,,,,,,,,,,
,,,,63e541874bfc845f9ff78828,A,2024-07-15_19h11.33.997,Slot Machine Game,2023.1.3,Win32,59.88023952,,,,,,,,,,,,,,,,,,,,,,,,,,,,,,,,310,,,,,,,,,,,,,,,,7,9,,,2169.5963,8,left,0.16,,1.5,0.3,"[3,1,2]",0.669386152,stimuli/card_0_transparent.png,0,8,0,8,0,1,,,,,,,,,,
,,,,63e541874bfc845f9ff78828,A,2024-07-15_19h11.33.997,Slot Machine Game,2023.1.3,Win32,59.88023952,,,,,,,,,,,,,,,,,,,,,,,,,,,,,,,,310,,,,,,,,,,,,,,,,7,9,,,2172.0777,9,left,0.0524,,1.5,0.3,"[3,1,2]",0.746127815,stimuli/card_0_transparent.png,0,9,0,9,0,1,,,,,,,,,,
,,,,63e541874bfc845f9ff78828,A,2024-07-15_19h11.33.997,Slot Machine Game,2023.1.3,Win32,59.88023952,,,,,,,,,,,,,,,,,,,,,,,,,,,,,,,,310,,,,,,,,,,,,,,,,7,9,,,2174.4515,10,left,0.3846,,1,0.3,"[3,1,2]",0.719102578,stimuli/card_0_transparent.png,0,10,0,10,0,1,,,,,,,,,,
,,,,63e541874bfc845f9ff78828,A,2024-07-15_19h11.33.997,Slot Machine Game,2023.1.3,Win32,59.88023952,,,,,,,,,,,,,,,,,,,,,,,,,,,,,,,,310,,,,,,,,,,,,,,,,7,9,,,2176.6663,11,left,0.6154,,1,0.3,"[3,1,2]",0.64976808,stimuli/card_0_transparent.png,0,11,0,11,0,1,,,,,,,,,,
,,,,63e541874bfc845f9ff78828,A,2024-07-15_19h11.33.997,Slot Machine Game,2023.1.3,Win32,59.88023952,,,,,,,,,,,,,,,,,,,,,,,,,,,,,,,,310,,,,,,,,,,,,,,,,7,9,,,2179.1174,12,left,2.6212,,1.5,0.3,"[3,1,2]",0.926112293,stimuli/card_0_transparent.png,0,12,0,12,0,1,,,,,,,,,,
,,,,63e541874bfc845f9ff78828,A,2024-07-15_19h11.33.997,Slot Machine Game,2023.1.3,Win32,59.88023952,,,,,,,,,,,,,,,,,,,,,,,,,,,,,,,,410,,,,,,,,,,,,,,,,7,9,,,2184.0759,13,up,0.2483,,1.5,0.3,"[3,1,2]",0.539291684,stimuli/card_100_transparent.png,100,13,0,13,0,1,,,,,,,,,,
,,,,63e541874bfc845f9ff78828,A,2024-07-15_19h11.33.997,Slot Machine Game,2023.1.3,Win32,59.88023952,,,,,,,,,,,,,,,,,,,,,,,,,,,,,,,,410,,,,,,,,,,,,,,,,7,9,,,2186.6399,14,right,1.3435,,1,0.3,"[3,1,2]",0.074381612,stimuli/card_0_transparent.png,0,14,0,14,0,1,,,,,,,,,,
,,,,63e541874bfc845f9ff78828,A,2024-07-15_19h11.33.997,Slot Machine Game,2023.1.3,Win32,59.88023952,,,,,,,,,,,,,,,,,,,,,,,,,,,,,,,,,,,2189.8101,,,,,,,,,,,,,,,,,,,,,,,,,,,,,,,,,"[940,730,350,550,490,550,410]",6,0,6,0,1,,,,
,,,,63e541874bfc845f9ff78828,A,2024-07-15_19h11.33.997,Slot Machine Game,2023.1.3,Win32,59.88023952,,,,,,,,,,,,,,,,,,,,,,,,,,,,,,,,100,,,,,,,,,,,,,,,,8,2,"[6,15]","[[1,3,2],[3,2,1]]",2194.821,0,left,0.5176,,1.5,0.3,"[1,3,2]",0.737880859,stimuli/card_100_transparent.png,100,0,0,0,0,1,,,,,,,,,,
,,,,63e541874bfc845f9ff78828,A,2024-07-15_19h11.33.997,Slot Machine Game,2023.1.3,Win32,59.88023952,,,,,,,,,,,,,,,,,,,,,,,,,,,,,,,,200,,,,,,,,,,,,,,,,8,2,,,2197.6631,1,left,0.636,,0.5,0.3,"[1,3,2]",0.941470802,stimuli/card_100_transparent.png,100,1,0,1,0,1,,,,,,,,,,
,,,,63e541874bfc845f9ff78828,A,2024-07-15_19h11.33.997,Slot Machine Game,2023.1.3,Win32,59.88023952,,,,,,,,,,,,,,,,,,,,,,,,,,,,,,,,200,,,,,,,,,,,,,,,,8,2,,,2199.6448,2,left,0.3148,,1,0.3,"[1,3,2]",0.081873834,stimuli/card_0_transparent.png,0,2,0,2,0,1,,,,,,,,,,
,,,,63e541874bfc845f9ff78828,A,2024-07-15_19h11.33.997,Slot Machine Game,2023.1.3,Win32,59.88023952,,,,,,,,,,,,,,,,,,,,,,,,,,,,,,,,200,,,,,,,,,,,,,,,,8,2,,,2201.8018,3,up,0.2262,,1.5,0.3,"[1,3,2]",0.626244343,stimuli/card_0_transparent.png,0,3,0,3,0,1,,,,,,,,,,
,,,,63e541874bfc845f9ff78828,A,2024-07-15_19h11.33.997,Slot Machine Game,2023.1.3,Win32,59.88023952,,,,,,,,,,,,,,,,,,,,,,,,,,,,,,,,300,,,,,,,,,,,,,,,,8,2,,,2204.3565,4,right,1.7105,,0.5,0.3,"[1,3,2]",0.137111969,stimuli/card_100_transparent.png,100,4,0,4,0,1,,,,,,,,,,
,,,,63e541874bfc845f9ff78828,A,2024-07-15_19h11.33.997,Slot Machine Game,2023.1.3,Win32,59.88023952,,,,,,,,,,,,,,,,,,,,,,,,,,,,,,,,310,,,,,,,,,,,,,,,,8,2,,,2207.3965,5,right,0.3152,,0.5,0.3,"[1,3,2]",0.518183906,stimuli/card_10_transparent.png,10,5,0,5,0,1,,,,,,,,,,
,,,,63e541874bfc845f9ff78828,A,2024-07-15_19h11.33.997,Slot Machine Game,2023.1.3,Win32,59.88023952,,,,,,,,,,,,,,,,,,,,,,,,,,,,,,,,310,,,,,,,,,,,,,,,,8,2,,,2209.0354,6,up,1.4329,,0.5,0.3,"[3,2,1]",0.000969256,stimuli/card_0_transparent.png,0,6,0,6,0,1,,,,,,,,,,
,,,,63e541874bfc845f9ff78828,A,2024-07-15_19h11.33.997,Slot Machine Game,2023.1.3,Win32,59.88023952,,,,,,,,,,,,,,,,,,,,,,,,,,,,,,,,320,,,,,,,,,,,,,,,,8,2,,,2211.8087,7,up,0.0714,,0.5,0.3,"[3,2,1]",0.320031322,stimuli/card_10_transparent.png,10,7,0,7,0,1,,,,,,,,,,
,,,,63e541874bfc845f9ff78828,A,2024-07-15_19h11.33.997,Slot Machine Game,2023.1.3,Win32,59.88023952,,,,,,,,,,,,,,,,,,,,,,,,,,,,,,,,420,,,,,,,,,,,,,,,,8,2,,,2213.1989,8,right,0.8278,,1.5,0.3,"[3,2,1]",0.647108454,stimuli/card_100_transparent.png,100,8,0,8,0,1,,,,,,,,,,
,,,,63e541874bfc845f9ff78828,A,2024-07-15_19h11.33.997,Slot Machine Game,2023.1.3,Win32,59.88023952,,,,,,,,,,,,,,,,,,,,,,,,,,,,,,,,520,,,,,,,,,,,,,,,,8,2,,,2216.3624,9,right,0.0811,,1.5,0.3,"[3,2,1]",0.566557027,stimuli/card_100_transparent.png,100,9,0,9,0,1,,,,,,,,,,
,,,,63e541874bfc845f9ff78828,A,2024-07-15_19h11.33.997,Slot Machine Game,2023.1.3,Win32,59.88023952,,,,,,,,,,,,,,,,,,,,,,,,,,,,,,,,620,,,,,,,,,,,,,,,,8,2,,,2218.7801,10,left,1.5006,,0.5,0.3,"[3,2,1]",0.058500014,stimuli/card_100_transparent.png,100,10,0,10,0,1,,,,,,,,,,
,,,,63e541874bfc845f9ff78828,A,2024-07-15_19h11.33.997,Slot Machine Game,2023.1.3,Win32,59.88023952,,,,,,,,,,,,,,,,,,,,,,,,,,,,,,,,720,,,,,,,,,,,,,,,,8,2,,,2221.6276,11,left,0.9996,,1,0.3,"[3,2,1]",0.071073682,stimuli/card_100_transparent.png,100,11,0,11,0,1,,,,,,,,,,
,,,,63e541874bfc845f9ff78828,A,2024-07-15_19h11.33.997,Slot Machine Game,2023.1.3,Win32,59.88023952,,,,,,,,,,,,,,,,,,,,,,,,,,,,,,,,720,,,,,,,,,,,,,,,,8,2,,,2224.4623,12,left,0.5348,,1.5,0.3,"[3,2,1]",0.97527067,stimuli/card_0_transparent.png,0,12,0,12,0,1,,,,,,,,,,
,,,,63e541874bfc845f9ff78828,A,2024-07-15_19h11.33.997,Slot Machine Game,2023.1.3,Win32,59.88023952,,,,,,,,,,,,,,,,,,,,,,,,,,,,,,,,730,,,,,,,,,,,,,,,,8,2,,,2227.3358,13,up,1.6648,,1.5,0.3,"[3,2,1]",0.256408608,stimuli/card_10_transparent.png,10,13,0,13,0,1,,,,,,,,,,
,,,,63e541874bfc845f9ff78828,A,2024-07-15_19h11.33.997,Slot Machine Game,2023.1.3,Win32,59.88023952,,,,,,,,,,,,,,,,,,,,,,,,,,,,,,,,740,,,,,,,,,,,,,,,,8,2,,,2231.3318,14,up,0.5384,,0.5,0.3,"[3,2,1]",0.217363164,stimuli/card_10_transparent.png,10,14,0,14,0,1,,,,,,,,,,
,,,,63e541874bfc845f9ff78828,A,2024-07-15_19h11.33.997,Slot Machine Game,2023.1.3,Win32,59.88023952,,,,,,,,,,,,,,,,,,,,,,,,,,,,,,,,,,,2233.2205,,,,,,,,,,,,,,,,,,,,,,,,,,,,,,,,,"[940,730,350,550,490,550,410,740]",7,0,7,0,1,,,,
,,,,63e541874bfc845f9ff78828,A,2024-07-15_19h11.33.997,Slot Machine Game,2023.1.3,Win32,59.88023952,,,,,,,,,,,,,,,,,,,,,,,,,,,,,,,,100,,,,,,,,,,,,,,,,9,10,"[10,15]","[[3,1,2],[1,3,2]]",2238.2375,0,up,1.6891,,1.5,0.3,"[3,1,2]",0.709186588,stimuli/card_100_transparent.png,100,0,0,0,0,1,,,,,,,,,,
,,,,63e541874bfc845f9ff78828,A,2024-07-15_19h11.33.997,Slot Machine Game,2023.1.3,Win32,59.88023952,,,,,,,,,,,,,,,,,,,,,,,,,,,,,,,,200,,,,,,,,,,,,,,,,9,10,,,2242.2543,1,up,1.0987,,1,0.3,"[3,1,2]",0.44847278,stimuli/card_100_transparent.png,100,1,0,1,0,1,,,,,,,,,,
,,,,63e541874bfc845f9ff78828,A,2024-07-15_19h11.33.997,Slot Machine Game,2023.1.3,Win32,59.88023952,,,,,,,,,,,,,,,,,,,,,,,,,,,,,,,,300,,,,,,,,,,,,,,,,9,10,,,2245.1776,2,up,1.8104,,1.5,0.3,"[3,1,2]",0.323538497,stimuli/card_100_transparent.png,100,2,0,2,0,1,,,,,,,,,,
,,,,63e541874bfc845f9ff78828,A,2024-07-15_19h11.33.997,Slot Machine Game,2023.1.3,Win32,59.88023952,,,,,,,,,,,,,,,,,,,,,,,,,,,,,,,,310,,,,,,,,,,,,,,,,9,10,,,2249.3146,3,right,0.2151,,1,0.3,"[3,1,2]",0.675490323,stimuli/card_10_transparent.png,10,3,0,3,0,1,,,,,,,,,,
,,,,63e541874bfc845f9ff78828,A,2024-07-15_19h11.33.997,Slot Machine Game,2023.1.3,Win32,59.88023952,,,,,,,,,,,,,,,,,,,,,,,,,,,,,,,,410,,,,,,,,,,,,,,,,9,10,,,2251.3624,4,right,0.1004,,1,0.3,"[3,1,2]",0.143679626,stimuli/card_100_transparent.png,100,4,0,4,0,1,,,,,,,,,,
,,,,63e541874bfc845f9ff78828,A,2024-07-15_19h11.33.997,Slot Machine Game,2023.1.3,Win32,59.88023952,,,,,,,,,,,,,,,,,,,,,,,,,,,,,,,,420,,,,,,,,,,,,,,,,9,10,,,2253.2684,5,right,0.7618,,1,0.3,"[3,1,2]",0.838895511,stimuli/card_10_transparent.png,10,5,0,5,0,1,,,,,,,,,,
,,,,63e541874bfc845f9ff78828,A,2024-07-15_19h11.33.997,Slot Machine Game,2023.1.3,Win32,59.88023952,,,,,,,,,,,,,,,,,,,,,,,,,,,,,,,,430,,,,,,,,,,,,,,,,9,10,,,2255.8673,6,left,0.8011,,1,0.3,"[3,1,2]",0.106124008,stimuli/card_10_transparent.png,10,6,0,6,0,1,,,,,,,,,,
,,,,63e541874bfc845f9ff78828,A,2024-07-15_19h11.33.997,Slot Machine Game,2023.1.3,Win32,59.88023952,,,,,,,,,,,,,,,,,,,,,,,,,,,,,,,,430,,,,,,,,,,,,,,,,9,10,,,2258.5137,7,left,2.3227,,0.5,0.3,"[3,1,2]",0.845660062,stimuli/card_0_transparent.png,0,7,0,7,0,1,,,,,,,,,,
,,,,63e541874bfc845f9ff78828,A,2024-07-15_19h11.33.997,Slot Machine Game,2023.1.3,Win32,59.88023952,,,,,,,,,,,,,,,,,,,,,,,,,,,,,,,,440,,,,,,,,,,,,,,,,9,10,,,2262.1563,8,right,2.2781,,0.5,0.3,"[3,1,2]",0.916738516,stimuli/card_10_transparent.png,10,8,0,8,0,1,,,,,,,,,,
,,,,63e541874bfc845f9ff78828,A,2024-07-15_19h11.33.997,Slot Machine Game,2023.1.3,Win32,59.88023952,,,,,,,,,,,,,,,,,,,,,,,,,,,,,,,,440,,,,,,,,,,,,,,,,9,10,,,2265.7581,9,left,1.8146,,1.5,0.3,"[3,1,2]",0.376992628,stimuli/card_0_transparent.png,0,9,0,9,0,1,,,,,,,,,,
,,,,63e541874bfc845f9ff78828,A,2024-07-15_19h11.33.997,Slot Machine Game,2023.1.3,Win32,59.88023952,,,,,,,,,,,,,,,,,,,,,,,,,,,,,,,,450,,,,,,,,,,,,,,,,9,10,,,2269.8993,10,left,3.1169,,0.5,0.3,"[1,3,2]",0.140087278,stimuli/card_10_transparent.png,10,10,0,10,0,1,,,,,,,,,,
,,,,63e541874bfc845f9ff78828,A,2024-07-15_19h11.33.997,Slot Machine Game,2023.1.3,Win32,59.88023952,,,,,,,,,,,,,,,,,,,,,,,,,,,,,,,,550,,,,,,,,,,,,,,,,9,10,,,2274.3458,11,left,0.7655,,1.5,0.3,"[1,3,2]",0.76404087,stimuli/card_100_transparent.png,100,11,0,11,0,1,,,,,,,,,,
,,,,63e541874bfc845f9ff78828,A,2024-07-15_19h11.33.997,Slot Machine Game,2023.1.3,Win32,59.88023952,,,,,,,,,,,,,,,,,,,,,,,,,,,,,,,,550,,,,,,,,,,,,,,,,9,10,,,2277.4387,12,up,4.269,,1.5,0.3,"[1,3,2]",0.640627573,stimuli/card_0_transparent.png,0,12,0,12,0,1,,,,,,,,,,
,,,,63e541874bfc845f9ff78828,A,2024-07-15_19h11.33.997,Slot Machine Game,2023.1.3,Win32,59.88023952,,,,,,,,,,,,,,,,,,,,,,,,,,,,,,,,560,,,,,,,,,,,,,,,,9,10,,,2284.049,13,right,0.5116,,0.5,0.3,"[1,3,2]",0.537525539,stimuli/card_10_transparent.png,10,13,0,13,0,1,,,,,,,,,,
,,,,63e541874bfc845f9ff78828,A,2024-07-15_19h11.33.997,Slot Machine Game,2023.1.3,Win32,59.88023952,,,,,,,,,,,,,,,,,,,,,,,,,,,,,,,,560,,,,,,,,,,,,,,,,9,10,,,2285.8813,14,right,0.2344,,1,0.3,"[1,3,2]",0.045728092,stimuli/card_0_transparent.png,0,14,0,14,0,1,,,,,,,,,,
,,,,63e541874bfc845f9ff78828,A,2024-07-15_19h11.33.997,Slot Machine Game,2023.1.3,Win32,59.88023952,,,,,,,,,,,,,,,,,,,,,,,,,,,,,,,,,,,2287.9456,,,,,,,,,,,,,,,,,,,,,,,,,,,,,,,,,"[940,730,350,550,490,550,410,740,560]",8,0,8,0,1,,,,
,,,,63e541874bfc845f9ff78828,A,2024-07-15_19h11.33.997,Slot Machine Game,2023.1.3,Win32,59.88023952,,,,,,,,,,,,,,,,,,,,,,,,,,,,,,,,0,,,,,,,,,,,,,,,,10,3,"[15,15]","[[3,1,2],[3,1,2]]",2292.9621,0,left,0.3007,,1,0.3,"[3,1,2]",0.438326585,stimuli/card_0_transparent.png,0,0,0,0,0,1,,,,,,,,,,
,,,,63e541874bfc845f9ff78828,A,2024-07-15_19h11.33.997,Slot Machine Game,2023.1.3,Win32,59.88023952,,,,,,,,,,,,,,,,,,,,,,,,,,,,,,,,100,,,,,,,,,,,,,,,,10,3,,,2295.0715,1,up,0.1442,,1,0.3,"[3,1,2]",0.985707392,stimuli/card_100_transparent.png,100,1,0,1,0,1,,,,,,,,,,
,,,,63e541874bfc845f9ff78828,A,2024-07-15_19h11.33.997,Slot Machine Game,2023.1.3,Win32,59.88023952,,,,,,,,,,,,,,,,,,,,,,,,,,,,,,,,200,,,,,,,,,,,,,,,,10,3,,,2297.0625,2,up,0.0007,,1.5,0.3,"[3,1,2]",0.575806942,stimuli/card_100_transparent.png,100,2,0,2,0,1,,,,,,,,,,
,,,,63e541874bfc845f9ff78828,A,2024-07-15_19h11.33.997,Slot Machine Game,2023.1.3,Win32,59.88023952,,,,,,,,,,,,,,,,,,,,,,,,,,,,,,,,210,,,,,,,,,,,,,,,,10,3,,,2299.3883,3,right,0.0606,,0.5,0.3,"[3,1,2]",0.576371198,stimuli/card_10_transparent.png,10,3,0,3,0,1,,,,,,,,,,
,,,,63e541874bfc845f9ff78828,A,2024-07-15_19h11.33.997,Slot Machine Game,2023.1.3,Win32,59.88023952,,,,,,,,,,,,,,,,,,,,,,,,,,,,,,,,220,,,,,,,,,,,,,,,,10,3,,,2300.7835,4,right,0.1159,,1,0.3,"[3,1,2]",0.969270361,stimuli/card_10_transparent.png,10,4,0,4,0,1,,,,,,,,,,
,,,,63e541874bfc845f9ff78828,A,2024-07-15_19h11.33.997,Slot Machine Game,2023.1.3,Win32,59.88023952,,,,,,,,,,,,,,,,,,,,,,,,,,,,,,,,220,,,,,,,,,,,,,,,,10,3,,,2302.7239,5,left,0.4079,,0.5,0.3,"[3,1,2]",0.874203214,stimuli/card_0_transparent.png,0,5,0,5,0,1,,,,,,,,,,
,,,,63e541874bfc845f9ff78828,A,2024-07-15_19h11.33.997,Slot Machine Game,2023.1.3,Win32,59.88023952,,,,,,,,,,,,,,,,,,,,,,,,,,,,,,,,320,,,,,,,,,,,,,,,,10,3,,,2304.4463,6,up,0.9007,,1,0.3,"[3,1,2]",0.564825912,stimuli/card_100_transparent.png,100,6,0,6,0,1,,,,,,,,,,
,,,,63e541874bfc845f9ff78828,A,2024-07-15_19h11.33.997,Slot Machine Game,2023.1.3,Win32,59.88023952,,,,,,,,,,,,,,,,,,,,,,,,,,,,,,,,320,,,,,,,,,,,,,,,,10,3,,,2307.1607,7,left,2.6797,,1,0.3,"[3,1,2]",0.672823394,stimuli/card_0_transparent.png,0,7,0,7,0,1,,,,,,,,,,
,,,,63e541874bfc845f9ff78828,A,2024-07-15_19h11.33.997,Slot Machine Game,2023.1.3,Win32,59.88023952,,,,,,,,,,,,,,,,,,,,,,,,,,,,,,,,320,,,,,,,,,,,,,,,,10,3,,,2311.6603,8,left,2.9327,,1.5,0.3,"[3,1,2]",0.533154723,stimuli/card_0_transparent.png,0,8,0,8,0,1,,,,,,,,,,
,,,,63e541874bfc845f9ff78828,A,2024-07-15_19h11.33.997,Slot Machine Game,2023.1.3,Win32,59.88023952,,,,,,,,,,,,,,,,,,,,,,,,,,,,,,,,320,,,,,,,,,,,,,,,,10,3,,,2316.9184,9,up,1.533,,1,0.3,"[3,1,2]",0.099914767,stimuli/card_0_transparent.png,0,9,0,9,0,1,,,,,,,,,,
,,,,63e541874bfc845f9ff78828,A,2024-07-15_19h11.33.997,Slot Machine Game,2023.1.3,Win32,59.88023952,,,,,,,,,,,,,,,,,,,,,,,,,,,,,,,,320,,,,,,,,,,,,,,,,10,3,,,2320.2666,10,left,0.1012,,1,0.3,"[3,1,2]",0.303010801,stimuli/card_0_transparent.png,0,10,0,10,0,1,,,,,,,,,,
,,,,63e541874bfc845f9ff78828,A,2024-07-15_19h11.33.997,Slot Machine Game,2023.1.3,Win32,59.88023952,,,,,,,,,,,,,,,,,,,,,,,,,,,,,,,,420,,,,,,,,,,,,,,,,10,3,,,2322.1726,11,up,0.2285,,1.5,0.3,"[3,1,2]",0.590252189,stimuli/card_100_transparent.png,100,11,0,11,0,1,,,,,,,,,,
,,,,63e541874bfc845f9ff78828,A,2024-07-15_19h11.33.997,Slot Machine Game,2023.1.3,Win32,59.88023952,,,,,,,,,,,,,,,,,,,,,,,,,,,,,,,,520,,,,,,,,,,,,,,,,10,3,,,2324.7278,12,up,0.26,,1,0.3,"[3,1,2]",0.466500219,stimuli/card_100_transparent.png,100,12,0,12,0,1,,,,,,,,,,
,,,,63e541874bfc845f9ff78828,A,2024-07-15_19h11.33.997,Slot Machine Game,2023.1.3,Win32,59.88023952,,,,,,,,,,,,,,,,,,,,,,,,,,,,,,,,530,,,,,,,,,,,,,,,,10,3,,,2326.817,13,right,0.6579,,1.5,0.3,"[3,1,2]",0.205667574,stimuli/card_10_transparent.png,10,13,0,13,0,1,,,,,,,,,,
,,,,63e541874bfc845f9ff78828,A,2024-07-15_19h11.33.997,Slot Machine Game,2023.1.3,Win32,59.88023952,,,,,,,,,,,,,,,,,,,,,,,,,,,,,,,,530,,,,,,,,,,,,,,,,10,3,,,2329.8065,14,right,1.1027,,1.5,0.3,"[3,1,2]",0.025108204,stimuli/card_0_transparent.png,0,14,0,14,0,1,,,,,,,,,,
,,,,63e541874bfc845f9ff78828,A,2024-07-15_19h11.33.997,Slot Machine Game,2023.1.3,Win32,59.88023952,,,,,,,,,,,,,,,,,,,,,,,,,,,,,,,,,,,2333.2195,,,,,,,,,,,,,,,,,,,,,,,,,,,,,,,,,"[940,730,350,550,490,550,410,740,560,530]",9,0,9,0,1,,,,
,,,,63e541874bfc845f9ff78828,A,2024-07-15_19h11.33.997,Slot Machine Game,2023.1.3,Win32,59.88023952,,,,,,,,,,,,,,,,,,,,,,,,,,,,,,,,,,,,,,,,,,,,,,,,,,,,,,,,,,,,,,,,,,,,,,,,,,9,"[940,730,350,550,490,550,410,740,560,530]",3.5,2024-07-15_19h50.36.397
