key_resp_welcome_started,key_resp_welcome_keys,key_resp_welcome_rt,key_resp_welcome_duration,prolific_id,path_id,date,expName,psychopyVersion,OS,frameRate,key_resp_instruction1_started,key_resp_instruction1_keys,key_resp_instruction1_rt,key_resp_instruction1_duration,key_resp_instruction2_started,key_resp_instruction2_keys,key_resp_instruction2_rt,key_resp_instruction2_duration,key_resp_instruction3_started,key_resp_instruction3_keys,key_resp_instruction3_rt,key_resp_instruction3_duration,key_resp_instruction4_started,key_resp_instruction4_keys,key_resp_instruction4_rt,key_resp_instruction4_duration,practiceCondition,practice_reward_seqs,practice_trial_started,practice_trial_num,practice_resp_rt,practice_resp_duration,practice_resp_keys,prac_presentationInterval,"practice_reward_seq: 2,1,3",reward_img,cumulative_reward,trial_reward,practice_trials.thisRepN,practice_trials.thisTrialN,practice_trials.thisN,practice_trials.thisIndex,practice_trials.ran,"practice_reward_seq: 2,3,1",block_break_started,"practice_reward_seq: 1,3,2","practice_reward_seq: 3,1,2",practice_end_time,practice_end_keys,practice_end_rt,practice_end_duration,main_instruction_text_started,block_condition,block_order_indices,main_instruction_keys,main_instruction_rt,main_instruction_duration,block_number,block_assignment,current_condition,main_reward_seqs,main_trial_started,main_trial_num,main_trial_keys,main_trial_rt,main_trial_duration,main_presentationInterval,reward_presentation_time,main_reward_seq,reward_rand_val,main_reward_img,current_reward,main_trials.thisRepN,main_trials.thisTrialN,main_trials.thisN,main_trials.thisIndex,main_trials.ran,block_reward,block.thisRepN,block.thisTrialN,block.thisN,block.thisIndex,block.ran,block_reward.length,block_reward_all,reward_amount,date_end_task
0,right,1.821,,63ea87b44ffb19ba667c3abc,A,2024-07-15_14h01.46.227,Slot Machine Game,2023.1.3,Win32,62.5,,,,,,,,,,,,,,,,,,,,,,,,,,,,,,,,,,,,,,,,,,,,,,,,,,,,,,,,,,,,,,,,,,,,,,,,,,,,,
,,,,63ea87b44ffb19ba667c3abc,A,2024-07-15_14h01.46.227,Slot Machine Game,2023.1.3,Win32,62.5,1.829,down,5.837,,,,,,,,,,,,,,,,,,,,,,,,,,,,,,,,,,,,,,,,,,,,,,,,,,,,,,,,,,,,,,,,,,,,,,,,,,
,,,,63ea87b44ffb19ba667c3abc,A,2024-07-15_14h01.46.227,Slot Machine Game,2023.1.3,Win32,62.5,,,,,7.683,right,16.21,,,,,,,,,,,,,,,,,,,,,,,,,,,,,,,,,,,,,,,,,,,,,,,,,,,,,,,,,,,,,,,,,,,,,,
,,,,63ea87b44ffb19ba667c3abc,A,2024-07-15_14h01.46.227,Slot Machine Game,2023.1.3,Win32,62.5,,,,,,,,,23.93,right,4.143,,,,,,,,,,,,,,,,,,,,,,,,,,,,,,,,,,,,,,,,,,,,,,,,,,,,,,,,,,,,,,,,,,
,,,,63ea87b44ffb19ba667c3abc,A,2024-07-15_14h01.46.227,Slot Machine Game,2023.1.3,Win32,62.5,,,,,,,,,,,,,,,,,,,,,,,,,,,,,,,,,,,,,,,,,,,,,,,,,,,,,,,,,,,,,,,,,,,,,,,,,,,,,
,,,,63ea87b44ffb19ba667c3abc,A,2024-07-15_14h01.46.227,Slot Machine Game,2023.1.3,Win32,62.5,,,,,,,,,,,,,169.808,left,0.798,,,,,,,,,,,,,,,,,,,,,,,,,,,,,,,,,,,,,,,,,,,,,,,,,,,,,,,,,,,,,,
,,,,63ea87b44ffb19ba667c3abc,A,2024-07-15_14h01.46.227,Slot Machine Game,2023.1.3,Win32,62.5,,,,,,,,,,,,,,,,,"[9,15]","[[2,1,3],[2,3,1]]",170.619,0,1.522,,left,1,,stimuli/card_10_transparent.png,10,10,0,0,0,0,1,,,,,,,,,,,,,,,,,,,,,,,,,,,,,,,,,,,,,,,,,,,,
,,,,63ea87b44ffb19ba667c3abc,A,2024-07-15_14h01.46.227,Slot Machine Game,2023.1.3,Win32,62.5,,,,,,,,,,,,,,,,,,,173.988,1,0.152,,up,1,,stimuli/card_100_transparent.png,110,100,1,0,1,0,1,,,,,,,,,,,,,,,,,,,,,,,,,,,,,,,,,,,,,,,,,,,,
,,,,63ea87b44ffb19ba667c3abc,A,2024-07-15_14h01.46.227,Slot Machine Game,2023.1.3,Win32,62.5,,,,,,,,,,,,,,,,,,,175.972,2,0.04,,right,0.5,,stimuli/card_0_transparent.png,110,0,2,0,2,0,1,,,,,,,,,,,,,,,,,,,,,,,,,,,,,,,,,,,,,,,,,,,,
,,,,63ea87b44ffb19ba667c3abc,A,2024-07-15_14h01.46.227,Slot Machine Game,2023.1.3,Win32,62.5,,,,,,,,,,,,,,,,,,,177.326,3,0.425,,up,0.5,,stimuli/card_100_transparent.png,210,100,3,0,3,0,1,,,,,,,,,,,,,,,,,,,,,,,,,,,,,,,,,,,,,,,,,,,,
,,,,63ea87b44ffb19ba667c3abc,A,2024-07-15_14h01.46.227,Slot Machine Game,2023.1.3,Win32,62.5,,,,,,,,,,,,,,,,,,,179.092,4,0.081,,up,0.5,,stimuli/card_100_transparent.png,310,100,4,0,4,0,1,,,,,,,,,,,,,,,,,,,,,,,,,,,,,,,,,,,,,,,,,,,,
,,,,63ea87b44ffb19ba667c3abc,A,2024-07-15_14h01.46.227,Slot Machine Game,2023.1.3,Win32,62.5,,,,,,,,,,,,,,,,,,,180.494,5,0.195,,up,1.5,,stimuli/card_100_transparent.png,410,100,5,0,5,0,1,,,,,,,,,,,,,,,,,,,,,,,,,,,,,,,,,,,,,,,,,,,,
,,,,63ea87b44ffb19ba667c3abc,A,2024-07-15_14h01.46.227,Slot Machine Game,2023.1.3,Win32,62.5,,,,,,,,,,,,,,,,,,,183.029,6,0.167,,up,0.5,,stimuli/card_100_transparent.png,510,100,6,0,6,0,1,,,,,,,,,,,,,,,,,,,,,,,,,,,,,,,,,,,,,,,,,,,,
,,,,63ea87b44ffb19ba667c3abc,A,2024-07-15_14h01.46.227,Slot Machine Game,2023.1.3,Win32,62.5,,,,,,,,,,,,,,,,,,,184.53,7,0.126,,up,1.5,,stimuli/card_10_transparent.png,520,10,7,0,7,0,1,,,,,,,,,,,,,,,,,,,,,,,,,,,,,,,,,,,,,,,,,,,,
,,,,63ea87b44ffb19ba667c3abc,A,2024-07-15_14h01.46.227,Slot Machine Game,2023.1.3,Win32,62.5,,,,,,,,,,,,,,,,,,,186.965,8,0.268,,up,1.5,,stimuli/card_100_transparent.png,620,100,8,0,8,0,1,,,,,,,,,,,,,,,,,,,,,,,,,,,,,,,,,,,,,,,,,,,,
,,,,63ea87b44ffb19ba667c3abc,A,2024-07-15_14h01.46.227,Slot Machine Game,2023.1.3,Win32,62.5,,,,,,,,,,,,,,,,,,,189.534,9,0.103,,up,1.5,,stimuli/card_0_transparent.png,620,0,9,0,9,0,1,,,,,,,,,,,,,,,,,,,,,,,,,,,,,,,,,,,,,,,,,,,,
,,,,63ea87b44ffb19ba667c3abc,A,2024-07-15_14h01.46.227,Slot Machine Game,2023.1.3,Win32,62.5,,,,,,,,,,,,,,,,,,,191.969,10,0.103,,up,1.5,,stimuli/card_0_transparent.png,620,0,10,0,10,0,1,,,,,,,,,,,,,,,,,,,,,,,,,,,,,,,,,,,,,,,,,,,,
,,,,63ea87b44ffb19ba667c3abc,A,2024-07-15_14h01.46.227,Slot Machine Game,2023.1.3,Win32,62.5,,,,,,,,,,,,,,,,,,,194.405,11,0.174,,up,0.5,,stimuli/card_0_transparent.png,620,0,11,0,11,0,1,,,,,,,,,,,,,,,,,,,,,,,,,,,,,,,,,,,,,,,,,,,,
,,,,63ea87b44ffb19ba667c3abc,A,2024-07-15_14h01.46.227,Slot Machine Game,2023.1.3,Win32,62.5,,,,,,,,,,,,,,,,,,,195.905,12,0.153,,up,0.5,,stimuli/card_0_transparent.png,620,0,12,0,12,0,1,,,,,,,,,,,,,,,,,,,,,,,,,,,,,,,,,,,,,,,,,,,,
,,,,63ea87b44ffb19ba667c3abc,A,2024-07-15_14h01.46.227,Slot Machine Game,2023.1.3,Win32,62.5,,,,,,,,,,,,,,,,,,,197.374,13,0.111,,up,0.5,,stimuli/card_0_transparent.png,620,0,13,0,13,0,1,,,,,,,,,,,,,,,,,,,,,,,,,,,,,,,,,,,,,,,,,,,,
,,,,63ea87b44ffb19ba667c3abc,A,2024-07-15_14h01.46.227,Slot Machine Game,2023.1.3,Win32,62.5,,,,,,,,,,,,,,,,,,,198.808,14,,,,1.5,,,,,14,0,14,0,1,,,,,,,,,,,,,,,,,,,,,,,,,,,,,,,,,,,,,,,,,,,,
,,,,63ea87b44ffb19ba667c3abc,A,2024-07-15_14h01.46.227,Slot Machine Game,2023.1.3,Win32,62.5,,,,,,,,,,,,,,,,,"[6,15]","[[1,3,2],[3,1,2]]",209.321,0,0.254,,up,0.5,,stimuli/card_0_transparent.png,0,0,0,0,0,0,1,,204.318,,,,,,,,,,,,,,,,,,,,,,,,,,,,,,,,,,,,,,,,,,
,,,,63ea87b44ffb19ba667c3abc,A,2024-07-15_14h01.46.227,Slot Machine Game,2023.1.3,Win32,62.5,,,,,,,,,,,,,,,,,,,210.901,1,1.032,,up,1,,stimuli/card_0_transparent.png,0,0,1,0,1,0,1,,,,,,,,,,,,,,,,,,,,,,,,,,,,,,,,,,,,,,,,,,,,
,,,,63ea87b44ffb19ba667c3abc,A,2024-07-15_14h01.46.227,Slot Machine Game,2023.1.3,Win32,62.5,,,,,,,,,,,,,,,,,,,213.737,2,0,,up,0.5,,stimuli/card_0_transparent.png,0,0,2,0,2,0,1,,,,,,,,,,,,,,,,,,,,,,,,,,,,,,,,,,,,,,,,,,,,
,,,,63ea87b44ffb19ba667c3abc,A,2024-07-15_14h01.46.227,Slot Machine Game,2023.1.3,Win32,62.5,,,,,,,,,,,,,,,,,,,215.055,3,0.162,,up,0.5,,stimuli/card_0_transparent.png,0,0,3,0,3,0,1,,,,,,,,,,,,,,,,,,,,,,,,,,,,,,,,,,,,,,,,,,,,
,,,,63ea87b44ffb19ba667c3abc,A,2024-07-15_14h01.46.227,Slot Machine Game,2023.1.3,Win32,62.5,,,,,,,,,,,,,,,,,,,216.522,4,3.059,,left,1,,stimuli/card_100_transparent.png,100,100,4,0,4,0,1,,,,,,,,,,,,,,,,,,,,,,,,,,,,,,,,,,,,,,,,,,,,
,,,,63ea87b44ffb19ba667c3abc,A,2024-07-15_14h01.46.227,Slot Machine Game,2023.1.3,Win32,62.5,,,,,,,,,,,,,,,,,,,221.393,5,1.815,,left,1,,stimuli/card_0_transparent.png,100,0,5,0,5,0,1,,,,,,,,,,,,,,,,,,,,,,,,,,,,,,,,,,,,,,,,,,,,
,,,,63ea87b44ffb19ba667c3abc,A,2024-07-15_14h01.46.227,Slot Machine Game,2023.1.3,Win32,62.5,,,,,,,,,,,,,,,,,,,225.03,6,0.145,,left,0.5,,stimuli/card_100_transparent.png,200,100,6,0,6,0,1,,,,,,,,,,,,,,,,,,,,,,,,,,,,,,,,,,,,,,,,,,,,
,,,,63ea87b44ffb19ba667c3abc,A,2024-07-15_14h01.46.227,Slot Machine Game,2023.1.3,Win32,62.5,,,,,,,,,,,,,,,,,,,226.498,7,0.101,,left,0.5,,stimuli/card_0_transparent.png,200,0,7,0,7,0,1,,,,,,,,,,,,,,,,,,,,,,,,,,,,,,,,,,,,,,,,,,,,
,,,,63ea87b44ffb19ba667c3abc,A,2024-07-15_14h01.46.227,Slot Machine Game,2023.1.3,Win32,62.5,,,,,,,,,,,,,,,,,,,227.915,8,0.972,,left,0.5,,stimuli/card_0_transparent.png,200,0,8,0,8,0,1,,,,,,,,,,,,,,,,,,,,,,,,,,,,,,,,,,,,,,,,,,,,
,,,,63ea87b44ffb19ba667c3abc,A,2024-07-15_14h01.46.227,Slot Machine Game,2023.1.3,Win32,62.5,,,,,,,,,,,,,,,,,,,230.201,9,0.185,,right,0.5,,stimuli/card_10_transparent.png,210,10,9,0,9,0,1,,,,,,,,,,,,,,,,,,,,,,,,,,,,,,,,,,,,,,,,,,,,
,,,,63ea87b44ffb19ba667c3abc,A,2024-07-15_14h01.46.227,Slot Machine Game,2023.1.3,Win32,62.5,,,,,,,,,,,,,,,,,,,231.702,10,0.148,,up,0.5,,stimuli/card_100_transparent.png,310,100,10,0,10,0,1,,,,,,,,,,,,,,,,,,,,,,,,,,,,,,,,,,,,,,,,,,,,
,,,,63ea87b44ffb19ba667c3abc,A,2024-07-15_14h01.46.227,Slot Machine Game,2023.1.3,Win32,62.5,,,,,,,,,,,,,,,,,,,233.153,11,0.301,,up,1.5,,stimuli/card_100_transparent.png,410,100,11,0,11,0,1,,,,,,,,,,,,,,,,,,,,,,,,,,,,,,,,,,,,,,,,,,,,
,,,,63ea87b44ffb19ba667c3abc,A,2024-07-15_14h01.46.227,Slot Machine Game,2023.1.3,Win32,62.5,,,,,,,,,,,,,,,,,,,235.773,12,0.658,,up,0.5,,stimuli/card_100_transparent.png,510,100,12,0,12,0,1,,,,,,,,,,,,,,,,,,,,,,,,,,,,,,,,,,,,,,,,,,,,
,,,,63ea87b44ffb19ba667c3abc,A,2024-07-15_14h01.46.227,Slot Machine Game,2023.1.3,Win32,62.5,,,,,,,,,,,,,,,,,,,237.758,13,0.225,,up,0.5,,stimuli/card_0_transparent.png,510,0,13,0,13,0,1,,,,,,,,,,,,,,,,,,,,,,,,,,,,,,,,,,,,,,,,,,,,
,,,,63ea87b44ffb19ba667c3abc,A,2024-07-15_14h01.46.227,Slot Machine Game,2023.1.3,Win32,62.5,,,,,,,,,,,,,,,,,,,239.308,14,0.156,,up,1.5,,stimuli/card_100_transparent.png,610,100,14,0,14,0,1,,,,,,,,,,,,,,,,,,,,,,,,,,,,,,,,,,,,,,,,,,,,
,,,,63ea87b44ffb19ba667c3abc,A,2024-07-15_14h01.46.227,Slot Machine Game,2023.1.3,Win32,62.5,,,,,,,,,,,,,,,,,,,,,,,,,,,,,,,,,,,241.794,,,246.798,space,2.328,,,,,,,,,,,,,,,,,,,,,,,,,,,,,,,,,,,,,
,,,,63ea87b44ffb19ba667c3abc,A,2024-07-15_14h01.46.227,Slot Machine Game,2023.1.3,Win32,62.5,,,,,,,,,,,,,,,,,,,,,,,,,,,,,,,,,,,,,,,,,,249.15,2,"[2,4,8,0,1,3,9,6,8,5]",space,85.731,,,,,,,,,,,,,,,,,,,,,,,,,,,,,,,
,,,,63ea87b44ffb19ba667c3abc,A,2024-07-15_14h01.46.227,Slot Machine Game,2023.1.3,Win32,62.5,,,,,,,,,,,,,,,,,,,,,,,,,,,0,,,,,,,,,,,,,,,,,,,,,1,3,"[15,15]","[[3,1,2],[3,1,2]]",334.906,0,left,0.451,,1.5,0.3,"[3,1,2]",0.522365949,stimuli/card_0_transparent.png,0,0,0,0,0,1,,,,,,,,,,
,,,,63ea87b44ffb19ba667c3abc,A,2024-07-15_14h01.46.227,Slot Machine Game,2023.1.3,Win32,62.5,,,,,,,,,,,,,,,,,,,,,,,,,,,100,,,,,,,,,,,,,,,,,,,,,1,3,,,337.706,1,up,1.168,,1.5,0.3,"[3,1,2]",0.557369248,stimuli/card_100_transparent.png,100,1,0,1,0,1,,,,,,,,,,
,,,,63ea87b44ffb19ba667c3abc,A,2024-07-15_14h01.46.227,Slot Machine Game,2023.1.3,Win32,62.5,,,,,,,,,,,,,,,,,,,,,,,,,,,200,,,,,,,,,,,,,,,,,,,,,1,3,,,341.211,2,up,0.371,,1.5,0.3,"[3,1,2]",0.941022724,stimuli/card_100_transparent.png,100,2,0,2,0,1,,,,,,,,,,
,,,,63ea87b44ffb19ba667c3abc,A,2024-07-15_14h01.46.227,Slot Machine Game,2023.1.3,Win32,62.5,,,,,,,,,,,,,,,,,,,,,,,,,,,300,,,,,,,,,,,,,,,,,,,,,1,3,,,343.929,3,up,0.053,,1,0.3,"[3,1,2]",0.727272765,stimuli/card_100_transparent.png,100,3,0,3,0,1,,,,,,,,,,
,,,,63ea87b44ffb19ba667c3abc,A,2024-07-15_14h01.46.227,Slot Machine Game,2023.1.3,Win32,62.5,,,,,,,,,,,,,,,,,,,,,,,,,,,400,,,,,,,,,,,,,,,,,,,,,1,3,,,345.83,4,up,0.134,,1.5,0.3,"[3,1,2]",0.670108065,stimuli/card_100_transparent.png,100,4,0,4,0,1,,,,,,,,,,
,,,,63ea87b44ffb19ba667c3abc,A,2024-07-15_14h01.46.227,Slot Machine Game,2023.1.3,Win32,62.5,,,,,,,,,,,,,,,,,,,,,,,,,,,500,,,,,,,,,,,,,,,,,,,,,1,3,,,348.299,5,up,0.19,,1,0.3,"[3,1,2]",0.590226142,stimuli/card_100_transparent.png,100,5,0,5,0,1,,,,,,,,,,
,,,,63ea87b44ffb19ba667c3abc,A,2024-07-15_14h01.46.227,Slot Machine Game,2023.1.3,Win32,62.5,,,,,,,,,,,,,,,,,,,,,,,,,,,500,,,,,,,,,,,,,,,,,,,,,1,3,,,350.317,6,up,0.066,,1,0.3,"[3,1,2]",0.007554876,stimuli/card_0_transparent.png,0,6,0,6,0,1,,,,,,,,,,
,,,,63ea87b44ffb19ba667c3abc,A,2024-07-15_14h01.46.227,Slot Machine Game,2023.1.3,Win32,62.5,,,,,,,,,,,,,,,,,,,,,,,,,,,600,,,,,,,,,,,,,,,,,,,,,1,3,,,352.219,7,up,0.022,,0.5,0.3,"[3,1,2]",0.922002051,stimuli/card_100_transparent.png,100,7,0,7,0,1,,,,,,,,,,
,,,,63ea87b44ffb19ba667c3abc,A,2024-07-15_14h01.46.227,Slot Machine Game,2023.1.3,Win32,62.5,,,,,,,,,,,,,,,,,,,,,,,,,,,700,,,,,,,,,,,,,,,,,,,,,1,3,,,353.553,8,up,0.264,,1.5,0.3,"[3,1,2]",0.51949021,stimuli/card_100_transparent.png,100,8,0,8,0,1,,,,,,,,,,
,,,,63ea87b44ffb19ba667c3abc,A,2024-07-15_14h01.46.227,Slot Machine Game,2023.1.3,Win32,62.5,,,,,,,,,,,,,,,,,,,,,,,,,,,710,,,,,,,,,,,,,,,,,,,,,1,3,,,356.139,9,up,0.001,,1.5,0.3,"[3,1,2]",0.151147132,stimuli/card_10_transparent.png,10,9,0,9,0,1,,,,,,,,,,
,,,,63ea87b44ffb19ba667c3abc,A,2024-07-15_14h01.46.227,Slot Machine Game,2023.1.3,Win32,62.5,,,,,,,,,,,,,,,,,,,,,,,,,,,810,,,,,,,,,,,,,,,,,,,,,1,3,,,358.457,10,up,0.118,,0.5,0.3,"[3,1,2]",0.491888647,stimuli/card_100_transparent.png,100,10,0,10,0,1,,,,,,,,,,
,,,,63ea87b44ffb19ba667c3abc,A,2024-07-15_14h01.46.227,Slot Machine Game,2023.1.3,Win32,62.5,,,,,,,,,,,,,,,,,,,,,,,,,,,910,,,,,,,,,,,,,,,,,,,,,1,3,,,359.908,11,up,0.127,,1.5,0.3,"[3,1,2]",0.786063195,stimuli/card_100_transparent.png,100,11,0,11,0,1,,,,,,,,,,
,,,,63ea87b44ffb19ba667c3abc,A,2024-07-15_14h01.46.227,Slot Machine Game,2023.1.3,Win32,62.5,,,,,,,,,,,,,,,,,,,,,,,,,,,1010,,,,,,,,,,,,,,,,,,,,,1,3,,,362.36,12,up,0.126,,0.5,0.3,"[3,1,2]",0.494076964,stimuli/card_100_transparent.png,100,12,0,12,0,1,,,,,,,,,,
,,,,63ea87b44ffb19ba667c3abc,A,2024-07-15_14h01.46.227,Slot Machine Game,2023.1.3,Win32,62.5,,,,,,,,,,,,,,,,,,,,,,,,,,,1110,,,,,,,,,,,,,,,,,,,,,1,3,,,363.811,13,up,0.135,,1,0.3,"[3,1,2]",0.306179236,stimuli/card_100_transparent.png,100,13,0,13,0,1,,,,,,,,,,
,,,,63ea87b44ffb19ba667c3abc,A,2024-07-15_14h01.46.227,Slot Machine Game,2023.1.3,Win32,62.5,,,,,,,,,,,,,,,,,,,,,,,,,,,1210,,,,,,,,,,,,,,,,,,,,,1,3,,,365.763,14,up,0.024,,1.5,0.3,"[3,1,2]",0.907964622,stimuli/card_100_transparent.png,100,14,0,14,0,1,,,,,,,,,,
,,,,63ea87b44ffb19ba667c3abc,A,2024-07-15_14h01.46.227,Slot Machine Game,2023.1.3,Win32,62.5,,,,,,,,,,,,,,,,,,,,,,,,,,,,,,,,,,,368.115,,,,,,,,,,,,,,,,,,,,,,,,,,,,,,,,,[1210],0,0,0,0,1,,,,
,,,,63ea87b44ffb19ba667c3abc,A,2024-07-15_14h01.46.227,Slot Machine Game,2023.1.3,Win32,62.5,,,,,,,,,,,,,,,,,,,,,,,,,,,100,,,,,,,,,,,,,,,,,,,,,2,5,"[5,15]","[[1,2,3],[3,1,2]]",373.125,0,left,0.679,,1,0.3,"[1,2,3]",0.411027895,stimuli/card_100_transparent.png,100,0,0,0,0,1,,,,,,,,,,
,,,,63ea87b44ffb19ba667c3abc,A,2024-07-15_14h01.46.227,Slot Machine Game,2023.1.3,Win32,62.5,,,,,,,,,,,,,,,,,,,,,,,,,,,100,,,,,,,,,,,,,,,,,,,,,2,5,,,375.638,1,left,0.326,,1,0.3,"[1,2,3]",0.015364517,stimuli/card_0_transparent.png,0,1,0,1,0,1,,,,,,,,,,
,,,,63ea87b44ffb19ba667c3abc,A,2024-07-15_14h01.46.227,Slot Machine Game,2023.1.3,Win32,62.5,,,,,,,,,,,,,,,,,,,,,,,,,,,100,,,,,,,,,,,,,,,,,,,,,2,5,,,377.79,2,left,0.626,,1,0.3,"[1,2,3]",0.024629786,stimuli/card_0_transparent.png,0,2,0,2,0,1,,,,,,,,,,
,,,,63ea87b44ffb19ba667c3abc,A,2024-07-15_14h01.46.227,Slot Machine Game,2023.1.3,Win32,62.5,,,,,,,,,,,,,,,,,,,,,,,,,,,110,,,,,,,,,,,,,,,,,,,,,2,5,,,380.242,3,up,0.288,,1,0.3,"[1,2,3]",0.362842175,stimuli/card_10_transparent.png,10,3,0,3,0,1,,,,,,,,,,
,,,,63ea87b44ffb19ba667c3abc,A,2024-07-15_14h01.46.227,Slot Machine Game,2023.1.3,Win32,62.5,,,,,,,,,,,,,,,,,,,,,,,,,,,110,,,,,,,,,,,,,,,,,,,,,2,5,,,382.36,4,right,0.458,,1,0.3,"[1,2,3]",0.564483117,stimuli/card_0_transparent.png,0,4,0,4,0,1,,,,,,,,,,
,,,,63ea87b44ffb19ba667c3abc,A,2024-07-15_14h01.46.227,Slot Machine Game,2023.1.3,Win32,62.5,,,,,,,,,,,,,,,,,,,,,,,,,,,210,,,,,,,,,,,,,,,,,,,,,2,5,,,384.629,5,up,0.352,,1.5,0.3,"[3,1,2]",0.219070348,stimuli/card_100_transparent.png,100,5,0,5,0,1,,,,,,,,,,
,,,,63ea87b44ffb19ba667c3abc,A,2024-07-15_14h01.46.227,Slot Machine Game,2023.1.3,Win32,62.5,,,,,,,,,,,,,,,,,,,,,,,,,,,310,,,,,,,,,,,,,,,,,,,,,2,5,,,387.298,6,up,0.174,,1,0.3,"[3,1,2]",0.955463372,stimuli/card_100_transparent.png,100,6,0,6,0,1,,,,,,,,,,
,,,,63ea87b44ffb19ba667c3abc,A,2024-07-15_14h01.46.227,Slot Machine Game,2023.1.3,Win32,62.5,,,,,,,,,,,,,,,,,,,,,,,,,,,410,,,,,,,,,,,,,,,,,,,,,2,5,,,389.299,7,up,0.191,,1.5,0.3,"[3,1,2]",0.93447325,stimuli/card_100_transparent.png,100,7,0,7,0,1,,,,,,,,,,
,,,,63ea87b44ffb19ba667c3abc,A,2024-07-15_14h01.46.227,Slot Machine Game,2023.1.3,Win32,62.5,,,,,,,,,,,,,,,,,,,,,,,,,,,510,,,,,,,,,,,,,,,,,,,,,2,5,,,391.818,8,up,0.217,,1.5,0.3,"[3,1,2]",0.209119101,stimuli/card_100_transparent.png,100,8,0,8,0,1,,,,,,,,,,
,,,,63ea87b44ffb19ba667c3abc,A,2024-07-15_14h01.46.227,Slot Machine Game,2023.1.3,Win32,62.5,,,,,,,,,,,,,,,,,,,,,,,,,,,610,,,,,,,,,,,,,,,,,,,,,2,5,,,394.37,9,up,0.134,,0.5,0.3,"[3,1,2]",0.98849544,stimuli/card_100_transparent.png,100,9,0,9,0,1,,,,,,,,,,
,,,,63ea87b44ffb19ba667c3abc,A,2024-07-15_14h01.46.227,Slot Machine Game,2023.1.3,Win32,62.5,,,,,,,,,,,,,,,,,,,,,,,,,,,710,,,,,,,,,,,,,,,,,,,,,2,5,,,395.822,10,up,0.057,,1,0.3,"[3,1,2]",0.969549366,stimuli/card_100_transparent.png,100,10,0,10,0,1,,,,,,,,,,
,,,,63ea87b44ffb19ba667c3abc,A,2024-07-15_14h01.46.227,Slot Machine Game,2023.1.3,Win32,62.5,,,,,,,,,,,,,,,,,,,,,,,,,,,810,,,,,,,,,,,,,,,,,,,,,2,5,,,397.706,11,up,0.028,,0.5,0.3,"[3,1,2]",0.492054414,stimuli/card_100_transparent.png,100,11,0,11,0,1,,,,,,,,,,
,,,,63ea87b44ffb19ba667c3abc,A,2024-07-15_14h01.46.227,Slot Machine Game,2023.1.3,Win32,62.5,,,,,,,,,,,,,,,,,,,,,,,,,,,810,,,,,,,,,,,,,,,,,,,,,2,5,,,399.04,12,up,0.242,,1,0.3,"[3,1,2]",0.019652504,stimuli/card_0_transparent.png,0,12,0,12,0,1,,,,,,,,,,
,,,,63ea87b44ffb19ba667c3abc,A,2024-07-15_14h01.46.227,Slot Machine Game,2023.1.3,Win32,62.5,,,,,,,,,,,,,,,,,,,,,,,,,,,910,,,,,,,,,,,,,,,,,,,,,2,5,,,401.11,13,up,0.1,,0.5,0.3,"[3,1,2]",0.917661058,stimuli/card_100_transparent.png,100,13,0,13,0,1,,,,,,,,,,
,,,,63ea87b44ffb19ba667c3abc,A,2024-07-15_14h01.46.227,Slot Machine Game,2023.1.3,Win32,62.5,,,,,,,,,,,,,,,,,,,,,,,,,,,1010,,,,,,,,,,,,,,,,,,,,,2,5,,,402.543,14,up,0.135,,0.5,0.3,"[3,1,2]",0.80713108,stimuli/card_100_transparent.png,100,14,0,14,0,1,,,,,,,,,,
,,,,63ea87b44ffb19ba667c3abc,A,2024-07-15_14h01.46.227,Slot Machine Game,2023.1.3,Win32,62.5,,,,,,,,,,,,,,,,,,,,,,,,,,,,,,,,,,,404.012,,,,,,,,,,,,,,,,,,,,,,,,,,,,,,,,,"[1210,1010]",1,0,1,0,1,,,,
,,,,63ea87b44ffb19ba667c3abc,A,2024-07-15_14h01.46.227,Slot Machine Game,2023.1.3,Win32,62.5,,,,,,,,,,,,,,,,,,,,,,,,,,,0,,,,,,,,,,,,,,,,,,,,,3,9,"[8,15]","[[3,2,1],[3,1,2]]",409.02,0,left,0.395,,1.5,0.3,"[3,2,1]",0.322244903,stimuli/card_0_transparent.png,0,0,0,0,0,1,,,,,,,,,,
,,,,63ea87b44ffb19ba667c3abc,A,2024-07-15_14h01.46.227,Slot Machine Game,2023.1.3,Win32,62.5,,,,,,,,,,,,,,,,,,,,,,,,,,,10,,,,,,,,,,,,,,,,,,,,,3,9,,,411.751,1,up,0.689,,0.5,0.3,"[3,2,1]",0.315810921,stimuli/card_10_transparent.png,10,1,0,1,0,1,,,,,,,,,,
,,,,63ea87b44ffb19ba667c3abc,A,2024-07-15_14h01.46.227,Slot Machine Game,2023.1.3,Win32,62.5,,,,,,,,,,,,,,,,,,,,,,,,,,,110,,,,,,,,,,,,,,,,,,,,,3,9,,,413.769,2,right,0.007,,1,0.3,"[3,2,1]",0.974112146,stimuli/card_100_transparent.png,100,2,0,2,0,1,,,,,,,,,,
,,,,63ea87b44ffb19ba667c3abc,A,2024-07-15_14h01.46.227,Slot Machine Game,2023.1.3,Win32,62.5,,,,,,,,,,,,,,,,,,,,,,,,,,,210,,,,,,,,,,,,,,,,,,,,,3,9,,,415.605,3,right,0.355,,1.5,0.3,"[3,2,1]",0.751500418,stimuli/card_100_transparent.png,100,3,0,3,0,1,,,,,,,,,,
,,,,63ea87b44ffb19ba667c3abc,A,2024-07-15_14h01.46.227,Slot Machine Game,2023.1.3,Win32,62.5,,,,,,,,,,,,,,,,,,,,,,,,,,,220,,,,,,,,,,,,,,,,,,,,,3,9,,,418.273,4,right,0.353,,0.5,0.3,"[3,2,1]",0.159673209,stimuli/card_10_transparent.png,10,4,0,4,0,1,,,,,,,,,,
,,,,63ea87b44ffb19ba667c3abc,A,2024-07-15_14h01.46.227,Slot Machine Game,2023.1.3,Win32,62.5,,,,,,,,,,,,,,,,,,,,,,,,,,,320,,,,,,,,,,,,,,,,,,,,,3,9,,,419.941,5,right,0.291,,1.5,0.3,"[3,2,1]",0.954420332,stimuli/card_100_transparent.png,100,5,0,5,0,1,,,,,,,,,,
,,,,63ea87b44ffb19ba667c3abc,A,2024-07-15_14h01.46.227,Slot Machine Game,2023.1.3,Win32,62.5,,,,,,,,,,,,,,,,,,,,,,,,,,,420,,,,,,,,,,,,,,,,,,,,,3,9,,,422.543,6,right,0.07,,1,0.3,"[3,2,1]",0.330223662,stimuli/card_100_transparent.png,100,6,0,6,0,1,,,,,,,,,,
,,,,63ea87b44ffb19ba667c3abc,A,2024-07-15_14h01.46.227,Slot Machine Game,2023.1.3,Win32,62.5,,,,,,,,,,,,,,,,,,,,,,,,,,,520,,,,,,,,,,,,,,,,,,,,,3,9,,,424.445,7,right,0.136,,0.5,0.3,"[3,2,1]",0.94998545,stimuli/card_100_transparent.png,100,7,0,7,0,1,,,,,,,,,,
,,,,63ea87b44ffb19ba667c3abc,A,2024-07-15_14h01.46.227,Slot Machine Game,2023.1.3,Win32,62.5,,,,,,,,,,,,,,,,,,,,,,,,,,,530,,,,,,,,,,,,,,,,,,,,,3,9,,,425.913,8,right,0.038,,1,0.3,"[3,1,2]",0.651261668,stimuli/card_10_transparent.png,10,8,0,8,0,1,,,,,,,,,,
,,,,63ea87b44ffb19ba667c3abc,A,2024-07-15_14h01.46.227,Slot Machine Game,2023.1.3,Win32,62.5,,,,,,,,,,,,,,,,,,,,,,,,,,,540,,,,,,,,,,,,,,,,,,,,,3,9,,,427.781,9,right,0.133,,1.5,0.3,"[3,1,2]",0.67020438,stimuli/card_10_transparent.png,10,9,0,9,0,1,,,,,,,,,,
,,,,63ea87b44ffb19ba667c3abc,A,2024-07-15_14h01.46.227,Slot Machine Game,2023.1.3,Win32,62.5,,,,,,,,,,,,,,,,,,,,,,,,,,,550,,,,,,,,,,,,,,,,,,,,,3,9,,,430.233,10,right,3.073,,0.5,0.3,"[3,1,2]",0.400248755,stimuli/card_10_transparent.png,10,10,0,10,0,1,,,,,,,,,,
,,,,63ea87b44ffb19ba667c3abc,A,2024-07-15_14h01.46.227,Slot Machine Game,2023.1.3,Win32,62.5,,,,,,,,,,,,,,,,,,,,,,,,,,,650,,,,,,,,,,,,,,,,,,,,,3,9,,,434.62,11,up,0.168,,1.5,0.3,"[3,1,2]",0.757544646,stimuli/card_100_transparent.png,100,11,0,11,0,1,,,,,,,,,,
,,,,63ea87b44ffb19ba667c3abc,A,2024-07-15_14h01.46.227,Slot Machine Game,2023.1.3,Win32,62.5,,,,,,,,,,,,,,,,,,,,,,,,,,,750,,,,,,,,,,,,,,,,,,,,,3,9,,,437.122,12,up,0.244,,1,0.3,"[3,1,2]",0.529803422,stimuli/card_100_transparent.png,100,12,0,12,0,1,,,,,,,,,,
,,,,63ea87b44ffb19ba667c3abc,A,2024-07-15_14h01.46.227,Slot Machine Game,2023.1.3,Win32,62.5,,,,,,,,,,,,,,,,,,,,,,,,,,,850,,,,,,,,,,,,,,,,,,,,,3,9,,,439.19,13,up,0,,1.5,0.3,"[3,1,2]",0.381944667,stimuli/card_100_transparent.png,100,13,0,13,0,1,,,,,,,,,,
,,,,63ea87b44ffb19ba667c3abc,A,2024-07-15_14h01.46.227,Slot Machine Game,2023.1.3,Win32,62.5,,,,,,,,,,,,,,,,,,,,,,,,,,,950,,,,,,,,,,,,,,,,,,,,,3,9,,,441.509,14,up,0.061,,1,0.3,"[3,1,2]",0.475676834,stimuli/card_100_transparent.png,100,14,0,14,0,1,,,,,,,,,,
,,,,63ea87b44ffb19ba667c3abc,A,2024-07-15_14h01.46.227,Slot Machine Game,2023.1.3,Win32,62.5,,,,,,,,,,,,,,,,,,,,,,,,,,,,,,,,,,,443.394,,,,,,,,,,,,,,,,,,,,,,,,,,,,,,,,,"[1210,1010,950]",2,0,2,0,1,,,,
,,,,63ea87b44ffb19ba667c3abc,A,2024-07-15_14h01.46.227,Slot Machine Game,2023.1.3,Win32,62.5,,,,,,,,,,,,,,,,,,,,,,,,,,,10,,,,,,,,,,,,,,,,,,,,,4,1,"[12,15]","[[2,1,3],[2,3,1]]",448.403,0,left,0.28,,1,0.3,"[2,1,3]",0.779386293,stimuli/card_10_transparent.png,10,0,0,0,0,1,,,,,,,,,,
,,,,63ea87b44ffb19ba667c3abc,A,2024-07-15_14h01.46.227,Slot Machine Game,2023.1.3,Win32,62.5,,,,,,,,,,,,,,,,,,,,,,,,,,,110,,,,,,,,,,,,,,,,,,,,,4,1,,,450.5,1,up,0.091,,1.5,0.3,"[2,1,3]",0.406821421,stimuli/card_100_transparent.png,100,1,0,1,0,1,,,,,,,,,,
,,,,63ea87b44ffb19ba667c3abc,A,2024-07-15_14h01.46.227,Slot Machine Game,2023.1.3,Win32,62.5,,,,,,,,,,,,,,,,,,,,,,,,,,,120,,,,,,,,,,,,,,,,,,,,,4,1,,,452.918,2,up,0.072,,1,0.3,"[2,1,3]",0.135842461,stimuli/card_10_transparent.png,10,2,0,2,0,1,,,,,,,,,,
,,,,63ea87b44ffb19ba667c3abc,A,2024-07-15_14h01.46.227,Slot Machine Game,2023.1.3,Win32,62.5,,,,,,,,,,,,,,,,,,,,,,,,,,,120,,,,,,,,,,,,,,,,,,,,,4,1,,,454.821,3,right,0.407,,0.5,0.3,"[2,1,3]",0.622296687,stimuli/card_0_transparent.png,0,3,0,3,0,1,,,,,,,,,,
,,,,63ea87b44ffb19ba667c3abc,A,2024-07-15_14h01.46.227,Slot Machine Game,2023.1.3,Win32,62.5,,,,,,,,,,,,,,,,,,,,,,,,,,,220,,,,,,,,,,,,,,,,,,,,,4,1,,,456.539,4,left,0.185,,1,0.3,"[2,1,3]",0.103364811,stimuli/card_100_transparent.png,100,4,0,4,0,1,,,,,,,,,,
,,,,63ea87b44ffb19ba667c3abc,A,2024-07-15_14h01.46.227,Slot Machine Game,2023.1.3,Win32,62.5,,,,,,,,,,,,,,,,,,,,,,,,,,,230,,,,,,,,,,,,,,,,,,,,,4,1,,,458.54,5,left,0.06,,1,0.3,"[2,1,3]",0.75702469,stimuli/card_10_transparent.png,10,5,0,5,0,1,,,,,,,,,,
,,,,63ea87b44ffb19ba667c3abc,A,2024-07-15_14h01.46.227,Slot Machine Game,2023.1.3,Win32,62.5,,,,,,,,,,,,,,,,,,,,,,,,,,,240,,,,,,,,,,,,,,,,,,,,,4,1,,,460.425,6,left,0.34,,1.5,0.3,"[2,1,3]",0.333331032,stimuli/card_10_transparent.png,10,6,0,6,0,1,,,,,,,,,,
,,,,63ea87b44ffb19ba667c3abc,A,2024-07-15_14h01.46.227,Slot Machine Game,2023.1.3,Win32,62.5,,,,,,,,,,,,,,,,,,,,,,,,,,,240,,,,,,,,,,,,,,,,,,,,,4,1,,,463.094,7,right,0.342,,1,0.3,"[2,1,3]",0.813100466,stimuli/card_0_transparent.png,0,7,0,7,0,1,,,,,,,,,,
,,,,63ea87b44ffb19ba667c3abc,A,2024-07-15_14h01.46.227,Slot Machine Game,2023.1.3,Win32,62.5,,,,,,,,,,,,,,,,,,,,,,,,,,,340,,,,,,,,,,,,,,,,,,,,,4,1,,,465.245,8,up,0.535,,1,0.3,"[2,1,3]",0.811877677,stimuli/card_100_transparent.png,100,8,0,8,0,1,,,,,,,,,,
,,,,63ea87b44ffb19ba667c3abc,A,2024-07-15_14h01.46.227,Slot Machine Game,2023.1.3,Win32,62.5,,,,,,,,,,,,,,,,,,,,,,,,,,,440,,,,,,,,,,,,,,,,,,,,,4,1,,,467.614,9,up,0.024,,0.5,0.3,"[2,1,3]",0.800246373,stimuli/card_100_transparent.png,100,9,0,9,0,1,,,,,,,,,,
,,,,63ea87b44ffb19ba667c3abc,A,2024-07-15_14h01.46.227,Slot Machine Game,2023.1.3,Win32,62.5,,,,,,,,,,,,,,,,,,,,,,,,,,,450,,,,,,,,,,,,,,,,,,,,,4,1,,,468.948,10,up,0.095,,1.5,0.3,"[2,1,3]",0.198824672,stimuli/card_10_transparent.png,10,10,0,10,0,1,,,,,,,,,,
,,,,63ea87b44ffb19ba667c3abc,A,2024-07-15_14h01.46.227,Slot Machine Game,2023.1.3,Win32,62.5,,,,,,,,,,,,,,,,,,,,,,,,,,,550,,,,,,,,,,,,,,,,,,,,,4,1,,,471.351,11,up,0.095,,1.5,0.3,"[2,1,3]",0.533448726,stimuli/card_100_transparent.png,100,11,0,11,0,1,,,,,,,,,,
,,,,63ea87b44ffb19ba667c3abc,A,2024-07-15_14h01.46.227,Slot Machine Game,2023.1.3,Win32,62.5,,,,,,,,,,,,,,,,,,,,,,,,,,,560,,,,,,,,,,,,,,,,,,,,,4,1,,,473.769,12,up,0.042,,1,0.3,"[2,3,1]",0.192862244,stimuli/card_10_transparent.png,10,12,0,12,0,1,,,,,,,,,,
,,,,63ea87b44ffb19ba667c3abc,A,2024-07-15_14h01.46.227,Slot Machine Game,2023.1.3,Win32,62.5,,,,,,,,,,,,,,,,,,,,,,,,,,,560,,,,,,,,,,,,,,,,,,,,,4,1,,,475.637,13,up,0.175,,0.5,0.3,"[2,3,1]",0.600528428,stimuli/card_0_transparent.png,0,13,0,13,0,1,,,,,,,,,,
,,,,63ea87b44ffb19ba667c3abc,A,2024-07-15_14h01.46.227,Slot Machine Game,2023.1.3,Win32,62.5,,,,,,,,,,,,,,,,,,,,,,,,,,,570,,,,,,,,,,,,,,,,,,,,,4,1,,,477.122,14,up,0.044,,1.5,0.3,"[2,3,1]",0.10227004,stimuli/card_10_transparent.png,10,14,0,14,0,1,,,,,,,,,,
,,,,63ea87b44ffb19ba667c3abc,A,2024-07-15_14h01.46.227,Slot Machine Game,2023.1.3,Win32,62.5,,,,,,,,,,,,,,,,,,,,,,,,,,,,,,,,,,,479.474,,,,,,,,,,,,,,,,,,,,,,,,,,,,,,,,,"[1210,1010,950,570]",3,0,3,0,1,,,,
,,,,63ea87b44ffb19ba667c3abc,A,2024-07-15_14h01.46.227,Slot Machine Game,2023.1.3,Win32,62.5,,,,,,,,,,,,,,,,,,,,,,,,,,,0,,,,,,,,,,,,,,,,,,,,,5,2,"[6,15]","[[1,3,2],[3,2,1]]",484.466,0,up,0.409,,1,0.3,"[1,3,2]",0.243929228,stimuli/card_0_transparent.png,0,0,0,0,0,1,,,,,,,,,,
,,,,63ea87b44ffb19ba667c3abc,A,2024-07-15_14h01.46.227,Slot Machine Game,2023.1.3,Win32,62.5,,,,,,,,,,,,,,,,,,,,,,,,,,,100,,,,,,,,,,,,,,,,,,,,,5,2,,,486.714,1,left,1.565,,1.5,0.3,"[1,3,2]",0.818361766,stimuli/card_100_transparent.png,100,1,0,1,0,1,,,,,,,,,,
,,,,63ea87b44ffb19ba667c3abc,A,2024-07-15_14h01.46.227,Slot Machine Game,2023.1.3,Win32,62.5,,,,,,,,,,,,,,,,,,,,,,,,,,,100,,,,,,,,,,,,,,,,,,,,,5,2,,,490.6,2,left,0.206,,1,0.3,"[1,3,2]",0.067711276,stimuli/card_0_transparent.png,0,2,0,2,0,1,,,,,,,,,,
,,,,63ea87b44ffb19ba667c3abc,A,2024-07-15_14h01.46.227,Slot Machine Game,2023.1.3,Win32,62.5,,,,,,,,,,,,,,,,,,,,,,,,,,,200,,,,,,,,,,,,,,,,,,,,,5,2,,,492.634,3,left,0.261,,1.5,0.3,"[1,3,2]",0.706917465,stimuli/card_100_transparent.png,100,3,0,3,0,1,,,,,,,,,,
,,,,63ea87b44ffb19ba667c3abc,A,2024-07-15_14h01.46.227,Slot Machine Game,2023.1.3,Win32,62.5,,,,,,,,,,,,,,,,,,,,,,,,,,,300,,,,,,,,,,,,,,,,,,,,,5,2,,,495.221,4,left,0.168,,0.5,0.3,"[1,3,2]",0.290657626,stimuli/card_100_transparent.png,100,4,0,4,0,1,,,,,,,,,,
,,,,63ea87b44ffb19ba667c3abc,A,2024-07-15_14h01.46.227,Slot Machine Game,2023.1.3,Win32,62.5,,,,,,,,,,,,,,,,,,,,,,,,,,,400,,,,,,,,,,,,,,,,,,,,,5,2,,,496.721,5,left,0.358,,1.5,0.3,"[1,3,2]",0.26926139,stimuli/card_100_transparent.png,100,5,0,5,0,1,,,,,,,,,,
,,,,63ea87b44ffb19ba667c3abc,A,2024-07-15_14h01.46.227,Slot Machine Game,2023.1.3,Win32,62.5,,,,,,,,,,,,,,,,,,,,,,,,,,,410,,,,,,,,,,,,,,,,,,,,,5,2,,,499.408,6,left,0.036,,1.5,0.3,"[3,2,1]",0.15840443,stimuli/card_10_transparent.png,10,6,0,6,0,1,,,,,,,,,,
,,,,63ea87b44ffb19ba667c3abc,A,2024-07-15_14h01.46.227,Slot Machine Game,2023.1.3,Win32,62.5,,,,,,,,,,,,,,,,,,,,,,,,,,,410,,,,,,,,,,,,,,,,,,,,,5,2,,,501.76,7,left,0.031,,0.5,0.3,"[3,2,1]",0.282913253,stimuli/card_0_transparent.png,0,7,0,7,0,1,,,,,,,,,,
,,,,63ea87b44ffb19ba667c3abc,A,2024-07-15_14h01.46.227,Slot Machine Game,2023.1.3,Win32,62.5,,,,,,,,,,,,,,,,,,,,,,,,,,,410,,,,,,,,,,,,,,,,,,,,,5,2,,,503.127,8,left,0.053,,1,0.3,"[3,2,1]",0.491559104,stimuli/card_0_transparent.png,0,8,0,8,0,1,,,,,,,,,,
,,,,63ea87b44ffb19ba667c3abc,A,2024-07-15_14h01.46.227,Slot Machine Game,2023.1.3,Win32,62.5,,,,,,,,,,,,,,,,,,,,,,,,,,,410,,,,,,,,,,,,,,,,,,,,,5,2,,,505.012,9,left,0.333,,1,0.3,"[3,2,1]",0.758107799,stimuli/card_0_transparent.png,0,9,0,9,0,1,,,,,,,,,,
,,,,63ea87b44ffb19ba667c3abc,A,2024-07-15_14h01.46.227,Slot Machine Game,2023.1.3,Win32,62.5,,,,,,,,,,,,,,,,,,,,,,,,,,,510,,,,,,,,,,,,,,,,,,,,,5,2,,,507.163,10,right,0.004,,1,0.3,"[3,2,1]",0.886730706,stimuli/card_100_transparent.png,100,10,0,10,0,1,,,,,,,,,,
,,,,63ea87b44ffb19ba667c3abc,A,2024-07-15_14h01.46.227,Slot Machine Game,2023.1.3,Win32,62.5,,,,,,,,,,,,,,,,,,,,,,,,,,,510,,,,,,,,,,,,,,,,,,,,,5,2,,,508.982,11,right,0.424,,0.5,0.3,"[3,2,1]",0.05630705,stimuli/card_0_transparent.png,0,11,0,11,0,1,,,,,,,,,,
,,,,63ea87b44ffb19ba667c3abc,A,2024-07-15_14h01.46.227,Slot Machine Game,2023.1.3,Win32,62.5,,,,,,,,,,,,,,,,,,,,,,,,,,,610,,,,,,,,,,,,,,,,,,,,,5,2,,,510.734,12,right,0.06,,1,0.3,"[3,2,1]",0.917831839,stimuli/card_100_transparent.png,100,12,0,12,0,1,,,,,,,,,,
,,,,63ea87b44ffb19ba667c3abc,A,2024-07-15_14h01.46.227,Slot Machine Game,2023.1.3,Win32,62.5,,,,,,,,,,,,,,,,,,,,,,,,,,,710,,,,,,,,,,,,,,,,,,,,,5,2,,,512.601,13,right,0.231,,0.5,0.3,"[3,2,1]",0.291525359,stimuli/card_100_transparent.png,100,13,0,13,0,1,,,,,,,,,,
,,,,63ea87b44ffb19ba667c3abc,A,2024-07-15_14h01.46.227,Slot Machine Game,2023.1.3,Win32,62.5,,,,,,,,,,,,,,,,,,,,,,,,,,,810,,,,,,,,,,,,,,,,,,,,,5,2,,,514.136,14,right,0.158,,0.5,0.3,"[3,2,1]",0.440974012,stimuli/card_100_transparent.png,100,14,0,14,0,1,,,,,,,,,,
,,,,63ea87b44ffb19ba667c3abc,A,2024-07-15_14h01.46.227,Slot Machine Game,2023.1.3,Win32,62.5,,,,,,,,,,,,,,,,,,,,,,,,,,,,,,,,,,,515.621,,,,,,,,,,,,,,,,,,,,,,,,,,,,,,,,,"[1210,1010,950,570,810]",4,0,4,0,1,,,,
,,,,63ea87b44ffb19ba667c3abc,A,2024-07-15_14h01.46.227,Slot Machine Game,2023.1.3,Win32,62.5,,,,,,,,,,,,,,,,,,,,,,,,,,,100,,,,,,,,,,,,,,,,,,,,,6,4,"[7,15]","[[2,3,1],[1,2,3]]",520.63,0,right,0.253,,1.5,0.3,"[2,3,1]",0.640164022,stimuli/card_100_transparent.png,100,0,0,0,0,1,,,,,,,,,,
,,,,63ea87b44ffb19ba667c3abc,A,2024-07-15_14h01.46.227,Slot Machine Game,2023.1.3,Win32,62.5,,,,,,,,,,,,,,,,,,,,,,,,,,,200,,,,,,,,,,,,,,,,,,,,,6,4,,,523.21,1,right,0.026,,1.5,0.3,"[2,3,1]",0.942446553,stimuli/card_100_transparent.png,100,1,0,1,0,1,,,,,,,,,,
,,,,63ea87b44ffb19ba667c3abc,A,2024-07-15_14h01.46.227,Slot Machine Game,2023.1.3,Win32,62.5,,,,,,,,,,,,,,,,,,,,,,,,,,,300,,,,,,,,,,,,,,,,,,,,,6,4,,,525.546,2,right,0.021,,0.5,0.3,"[2,3,1]",0.203010623,stimuli/card_100_transparent.png,100,2,0,2,0,1,,,,,,,,,,
,,,,63ea87b44ffb19ba667c3abc,A,2024-07-15_14h01.46.227,Slot Machine Game,2023.1.3,Win32,62.5,,,,,,,,,,,,,,,,,,,,,,,,,,,400,,,,,,,,,,,,,,,,,,,,,6,4,,,526.913,3,right,0.042,,1.5,0.3,"[2,3,1]",0.651202617,stimuli/card_100_transparent.png,100,3,0,3,0,1,,,,,,,,,,
,,,,63ea87b44ffb19ba667c3abc,A,2024-07-15_14h01.46.227,Slot Machine Game,2023.1.3,Win32,62.5,,,,,,,,,,,,,,,,,,,,,,,,,,,500,,,,,,,,,,,,,,,,,,,,,6,4,,,529.282,4,right,0.035,,0.5,0.3,"[2,3,1]",0.507736924,stimuli/card_100_transparent.png,100,4,0,4,0,1,,,,,,,,,,
,,,,63ea87b44ffb19ba667c3abc,A,2024-07-15_14h01.46.227,Slot Machine Game,2023.1.3,Win32,62.5,,,,,,,,,,,,,,,,,,,,,,,,,,,600,,,,,,,,,,,,,,,,,,,,,6,4,,,530.65,5,right,0.057,,1.5,0.3,"[2,3,1]",0.769458856,stimuli/card_100_transparent.png,100,5,0,5,0,1,,,,,,,,,,
,,,,63ea87b44ffb19ba667c3abc,A,2024-07-15_14h01.46.227,Slot Machine Game,2023.1.3,Win32,62.5,,,,,,,,,,,,,,,,,,,,,,,,,,,700,,,,,,,,,,,,,,,,,,,,,6,4,,,533.035,6,right,0.035,,1,0.3,"[2,3,1]",0.762222345,stimuli/card_100_transparent.png,100,6,0,6,0,1,,,,,,,,,,
,,,,63ea87b44ffb19ba667c3abc,A,2024-07-15_14h01.46.227,Slot Machine Game,2023.1.3,Win32,62.5,,,,,,,,,,,,,,,,,,,,,,,,,,,710,,,,,,,,,,,,,,,,,,,,,6,4,,,534.903,7,right,0.188,,1,0.3,"[1,2,3]",0.186481061,stimuli/card_10_transparent.png,10,7,0,7,0,1,,,,,,,,,,
,,,,63ea87b44ffb19ba667c3abc,A,2024-07-15_14h01.46.227,Slot Machine Game,2023.1.3,Win32,62.5,,,,,,,,,,,,,,,,,,,,,,,,,,,710,,,,,,,,,,,,,,,,,,,,,6,4,,,536.922,8,right,0.155,,0.5,0.3,"[1,2,3]",0.763891905,stimuli/card_0_transparent.png,0,8,0,8,0,1,,,,,,,,,,
,,,,63ea87b44ffb19ba667c3abc,A,2024-07-15_14h01.46.227,Slot Machine Game,2023.1.3,Win32,62.5,,,,,,,,,,,,,,,,,,,,,,,,,,,710,,,,,,,,,,,,,,,,,,,,,6,4,,,538.406,9,right,0.094,,1,0.3,"[1,2,3]",0.576815838,stimuli/card_0_transparent.png,0,9,0,9,0,1,,,,,,,,,,
,,,,63ea87b44ffb19ba667c3abc,A,2024-07-15_14h01.46.227,Slot Machine Game,2023.1.3,Win32,62.5,,,,,,,,,,,,,,,,,,,,,,,,,,,710,,,,,,,,,,,,,,,,,,,,,6,4,,,540.325,10,right,0.215,,1.5,0.3,"[1,2,3]",0.715206715,stimuli/card_0_transparent.png,0,10,0,10,0,1,,,,,,,,,,
,,,,63ea87b44ffb19ba667c3abc,A,2024-07-15_14h01.46.227,Slot Machine Game,2023.1.3,Win32,62.5,,,,,,,,,,,,,,,,,,,,,,,,,,,720,,,,,,,,,,,,,,,,,,,,,6,4,,,542.846,11,up,0.274,,1.5,0.3,"[1,2,3]",0.88033946,stimuli/card_10_transparent.png,10,11,0,11,0,1,,,,,,,,,,
,,,,63ea87b44ffb19ba667c3abc,A,2024-07-15_14h01.46.227,Slot Machine Game,2023.1.3,Win32,62.5,,,,,,,,,,,,,,,,,,,,,,,,,,,820,,,,,,,,,,,,,,,,,,,,,6,4,,,545.445,12,left,0.177,,1.5,0.3,"[1,2,3]",0.935039129,stimuli/card_100_transparent.png,100,12,0,12,0,1,,,,,,,,,,
,,,,63ea87b44ffb19ba667c3abc,A,2024-07-15_14h01.46.227,Slot Machine Game,2023.1.3,Win32,62.5,,,,,,,,,,,,,,,,,,,,,,,,,,,920,,,,,,,,,,,,,,,,,,,,,6,4,,,547.948,13,left,0.079,,0.5,0.3,"[1,2,3]",0.927415147,stimuli/card_100_transparent.png,100,13,0,13,0,1,,,,,,,,,,
,,,,63ea87b44ffb19ba667c3abc,A,2024-07-15_14h01.46.227,Slot Machine Game,2023.1.3,Win32,62.5,,,,,,,,,,,,,,,,,,,,,,,,,,,1020,,,,,,,,,,,,,,,,,,,,,6,4,,,549.365,14,left,0.191,,1.5,0.3,"[1,2,3]",0.70185871,stimuli/card_100_transparent.png,100,14,0,14,0,1,,,,,,,,,,
,,,,63ea87b44ffb19ba667c3abc,A,2024-07-15_14h01.46.227,Slot Machine Game,2023.1.3,Win32,62.5,,,,,,,,,,,,,,,,,,,,,,,,,,,,,,,,,,,551.867,,,,,,,,,,,,,,,,,,,,,,,,,,,,,,,,,"[1210,1010,950,570,810,1020]",5,0,5,0,1,,,,
,,,,63ea87b44ffb19ba667c3abc,A,2024-07-15_14h01.46.227,Slot Machine Game,2023.1.3,Win32,62.5,,,,,,,,,,,,,,,,,,,,,,,,,,,10,,,,,,,,,,,,,,,,,,,,,7,10,"[10,15]","[[3,1,2],[1,3,2]]",556.86,0,left,0.172,,1.5,0.3,"[3,1,2]",0.100443528,stimuli/card_10_transparent.png,10,0,0,0,0,1,,,,,,,,,,
,,,,63ea87b44ffb19ba667c3abc,A,2024-07-15_14h01.46.227,Slot Machine Game,2023.1.3,Win32,62.5,,,,,,,,,,,,,,,,,,,,,,,,,,,20,,,,,,,,,,,,,,,,,,,,,7,10,,,559.357,1,up,0.773,,1,0.3,"[3,1,2]",0.109271581,stimuli/card_10_transparent.png,10,1,0,1,0,1,,,,,,,,,,
,,,,63ea87b44ffb19ba667c3abc,A,2024-07-15_14h01.46.227,Slot Machine Game,2023.1.3,Win32,62.5,,,,,,,,,,,,,,,,,,,,,,,,,,,30,,,,,,,,,,,,,,,,,,,,,7,10,,,561.959,2,right,0.245,,0.5,0.3,"[3,1,2]",0.689483359,stimuli/card_10_transparent.png,10,2,0,2,0,1,,,,,,,,,,
,,,,63ea87b44ffb19ba667c3abc,A,2024-07-15_14h01.46.227,Slot Machine Game,2023.1.3,Win32,62.5,,,,,,,,,,,,,,,,,,,,,,,,,,,30,,,,,,,,,,,,,,,,,,,,,7,10,,,563.51,3,left,0.251,,1.5,0.3,"[3,1,2]",0.792850226,stimuli/card_0_transparent.png,0,3,0,3,0,1,,,,,,,,,,
,,,,63ea87b44ffb19ba667c3abc,A,2024-07-15_14h01.46.227,Slot Machine Game,2023.1.3,Win32,62.5,,,,,,,,,,,,,,,,,,,,,,,,,,,130,,,,,,,,,,,,,,,,,,,,,7,10,,,566.079,4,up,0.203,,1,0.3,"[3,1,2]",0.874175955,stimuli/card_100_transparent.png,100,4,0,4,0,1,,,,,,,,,,
,,,,63ea87b44ffb19ba667c3abc,A,2024-07-15_14h01.46.227,Slot Machine Game,2023.1.3,Win32,62.5,,,,,,,,,,,,,,,,,,,,,,,,,,,230,,,,,,,,,,,,,,,,,,,,,7,10,,,568.114,5,up,0.331,,1.5,0.3,"[3,1,2]",0.574052395,stimuli/card_100_transparent.png,100,5,0,5,0,1,,,,,,,,,,
,,,,63ea87b44ffb19ba667c3abc,A,2024-07-15_14h01.46.227,Slot Machine Game,2023.1.3,Win32,62.5,,,,,,,,,,,,,,,,,,,,,,,,,,,230,,,,,,,,,,,,,,,,,,,,,7,10,,,570.75,6,up,0.257,,1,0.3,"[3,1,2]",0.072778711,stimuli/card_0_transparent.png,0,6,0,6,0,1,,,,,,,,,,
,,,,63ea87b44ffb19ba667c3abc,A,2024-07-15_14h01.46.227,Slot Machine Game,2023.1.3,Win32,62.5,,,,,,,,,,,,,,,,,,,,,,,,,,,330,,,,,,,,,,,,,,,,,,,,,7,10,,,572.837,7,up,0.003,,1.5,0.3,"[3,1,2]",0.933311518,stimuli/card_100_transparent.png,100,7,0,7,0,1,,,,,,,,,,
,,,,63ea87b44ffb19ba667c3abc,A,2024-07-15_14h01.46.227,Slot Machine Game,2023.1.3,Win32,62.5,,,,,,,,,,,,,,,,,,,,,,,,,,,430,,,,,,,,,,,,,,,,,,,,,7,10,,,575.186,8,up,0.005,,1,0.3,"[3,1,2]",0.824102002,stimuli/card_100_transparent.png,100,8,0,8,0,1,,,,,,,,,,
,,,,63ea87b44ffb19ba667c3abc,A,2024-07-15_14h01.46.227,Slot Machine Game,2023.1.3,Win32,62.5,,,,,,,,,,,,,,,,,,,,,,,,,,,530,,,,,,,,,,,,,,,,,,,,,7,10,,,577.022,9,up,0.118,,1,0.3,"[3,1,2]",0.38597871,stimuli/card_100_transparent.png,100,9,0,9,0,1,,,,,,,,,,
,,,,63ea87b44ffb19ba667c3abc,A,2024-07-15_14h01.46.227,Slot Machine Game,2023.1.3,Win32,62.5,,,,,,,,,,,,,,,,,,,,,,,,,,,530,,,,,,,,,,,,,,,,,,,,,7,10,,,578.973,10,up,0,,0.5,0.3,"[1,3,2]",0.529311412,stimuli/card_0_transparent.png,0,10,0,10,0,1,,,,,,,,,,
,,,,63ea87b44ffb19ba667c3abc,A,2024-07-15_14h01.46.227,Slot Machine Game,2023.1.3,Win32,62.5,,,,,,,,,,,,,,,,,,,,,,,,,,,530,,,,,,,,,,,,,,,,,,,,,7,10,,,580.292,11,up,0.277,,1.5,0.3,"[1,3,2]",0.812347248,stimuli/card_0_transparent.png,0,11,0,11,0,1,,,,,,,,,,
,,,,63ea87b44ffb19ba667c3abc,A,2024-07-15_14h01.46.227,Slot Machine Game,2023.1.3,Win32,62.5,,,,,,,,,,,,,,,,,,,,,,,,,,,540,,,,,,,,,,,,,,,,,,,,,7,10,,,582.893,12,right,0.056,,1,0.3,"[1,3,2]",0.347542175,stimuli/card_10_transparent.png,10,12,0,12,0,1,,,,,,,,,,
,,,,63ea87b44ffb19ba667c3abc,A,2024-07-15_14h01.46.227,Slot Machine Game,2023.1.3,Win32,62.5,,,,,,,,,,,,,,,,,,,,,,,,,,,640,,,,,,,,,,,,,,,,,,,,,7,10,,,584.778,13,left,0.369,,1,0.3,"[1,3,2]",0.550968849,stimuli/card_100_transparent.png,100,13,0,13,0,1,,,,,,,,,,
,,,,63ea87b44ffb19ba667c3abc,A,2024-07-15_14h01.46.227,Slot Machine Game,2023.1.3,Win32,62.5,,,,,,,,,,,,,,,,,,,,,,,,,,,740,,,,,,,,,,,,,,,,,,,,,7,10,,,586.98,14,left,0.152,,0.5,0.3,"[1,3,2]",0.275242629,stimuli/card_100_transparent.png,100,14,0,14,0,1,,,,,,,,,,
,,,,63ea87b44ffb19ba667c3abc,A,2024-07-15_14h01.46.227,Slot Machine Game,2023.1.3,Win32,62.5,,,,,,,,,,,,,,,,,,,,,,,,,,,,,,,,,,,588.447,,,,,,,,,,,,,,,,,,,,,,,,,,,,,,,,,"[1210,1010,950,570,810,1020,740]",6,0,6,0,1,,,,
,,,,63ea87b44ffb19ba667c3abc,A,2024-07-15_14h01.46.227,Slot Machine Game,2023.1.3,Win32,62.5,,,,,,,,,,,,,,,,,,,,,,,,,,,100,,,,,,,,,,,,,,,,,,,,,8,7,"[9,15]","[[1,3,2],[2,3,1]]",593.44,0,left,0.103,,1.5,0.3,"[1,3,2]",0.252483347,stimuli/card_100_transparent.png,100,0,0,0,0,1,,,,,,,,,,
,,,,63ea87b44ffb19ba667c3abc,A,2024-07-15_14h01.46.227,Slot Machine Game,2023.1.3,Win32,62.5,,,,,,,,,,,,,,,,,,,,,,,,,,,200,,,,,,,,,,,,,,,,,,,,,8,7,,,595.887,1,left,0.001,,0.5,0.3,"[1,3,2]",0.272524736,stimuli/card_100_transparent.png,100,1,0,1,0,1,,,,,,,,,,
,,,,63ea87b44ffb19ba667c3abc,A,2024-07-15_14h01.46.227,Slot Machine Game,2023.1.3,Win32,62.5,,,,,,,,,,,,,,,,,,,,,,,,,,,300,,,,,,,,,,,,,,,,,,,,,8,7,,,597.205,2,left,0.284,,0.5,0.3,"[1,3,2]",0.261628527,stimuli/card_100_transparent.png,100,2,0,2,0,1,,,,,,,,,,
,,,,63ea87b44ffb19ba667c3abc,A,2024-07-15_14h01.46.227,Slot Machine Game,2023.1.3,Win32,62.5,,,,,,,,,,,,,,,,,,,,,,,,,,,400,,,,,,,,,,,,,,,,,,,,,8,7,,,598.823,3,left,0.234,,0.5,0.3,"[1,3,2]",0.5410639,stimuli/card_100_transparent.png,100,3,0,3,0,1,,,,,,,,,,
,,,,63ea87b44ffb19ba667c3abc,A,2024-07-15_14h01.46.227,Slot Machine Game,2023.1.3,Win32,62.5,,,,,,,,,,,,,,,,,,,,,,,,,,,500,,,,,,,,,,,,,,,,,,,,,8,7,,,600.374,4,left,0.216,,1.5,0.3,"[1,3,2]",0.540810323,stimuli/card_100_transparent.png,100,4,0,4,0,1,,,,,,,,,,
,,,,63ea87b44ffb19ba667c3abc,A,2024-07-15_14h01.46.227,Slot Machine Game,2023.1.3,Win32,62.5,,,,,,,,,,,,,,,,,,,,,,,,,,,600,,,,,,,,,,,,,,,,,,,,,8,7,,,602.926,5,left,0.137,,1,0.3,"[1,3,2]",0.621339496,stimuli/card_100_transparent.png,100,5,0,5,0,1,,,,,,,,,,
,,,,63ea87b44ffb19ba667c3abc,A,2024-07-15_14h01.46.227,Slot Machine Game,2023.1.3,Win32,62.5,,,,,,,,,,,,,,,,,,,,,,,,,,,600,,,,,,,,,,,,,,,,,,,,,8,7,,,604.894,6,left,0.117,,1.5,0.3,"[1,3,2]",0.098316959,stimuli/card_0_transparent.png,0,6,0,6,0,1,,,,,,,,,,
,,,,63ea87b44ffb19ba667c3abc,A,2024-07-15_14h01.46.227,Slot Machine Game,2023.1.3,Win32,62.5,,,,,,,,,,,,,,,,,,,,,,,,,,,610,,,,,,,,,,,,,,,,,,,,,8,7,,,607.347,7,right,0.008,,1,0.3,"[1,3,2]",0.725697135,stimuli/card_10_transparent.png,10,7,0,7,0,1,,,,,,,,,,
,,,,63ea87b44ffb19ba667c3abc,A,2024-07-15_14h01.46.227,Slot Machine Game,2023.1.3,Win32,62.5,,,,,,,,,,,,,,,,,,,,,,,,,,,710,,,,,,,,,,,,,,,,,,,,,8,7,,,609.165,8,left,0.15,,0.5,0.3,"[1,3,2]",0.38870425,stimuli/card_100_transparent.png,100,8,0,8,0,1,,,,,,,,,,
,,,,63ea87b44ffb19ba667c3abc,A,2024-07-15_14h01.46.227,Slot Machine Game,2023.1.3,Win32,62.5,,,,,,,,,,,,,,,,,,,,,,,,,,,720,,,,,,,,,,,,,,,,,,,,,8,7,,,610.633,9,left,0.367,,1.5,0.3,"[2,3,1]",0.588238979,stimuli/card_10_transparent.png,10,9,0,9,0,1,,,,,,,,,,
,,,,63ea87b44ffb19ba667c3abc,A,2024-07-15_14h01.46.227,Slot Machine Game,2023.1.3,Win32,62.5,,,,,,,,,,,,,,,,,,,,,,,,,,,730,,,,,,,,,,,,,,,,,,,,,8,7,,,613.318,10,left,0.062,,1.5,0.3,"[2,3,1]",0.313213826,stimuli/card_10_transparent.png,10,10,0,10,0,1,,,,,,,,,,
,,,,63ea87b44ffb19ba667c3abc,A,2024-07-15_14h01.46.227,Slot Machine Game,2023.1.3,Win32,62.5,,,,,,,,,,,,,,,,,,,,,,,,,,,740,,,,,,,,,,,,,,,,,,,,,8,7,,,615.687,11,up,0.096,,0.5,0.3,"[2,3,1]",0.175427352,stimuli/card_10_transparent.png,10,11,0,11,0,1,,,,,,,,,,
,,,,63ea87b44ffb19ba667c3abc,A,2024-07-15_14h01.46.227,Slot Machine Game,2023.1.3,Win32,62.5,,,,,,,,,,,,,,,,,,,,,,,,,,,740,,,,,,,,,,,,,,,,,,,,,8,7,,,617.105,12,up,0.21,,0.5,0.3,"[2,3,1]",0.555432636,stimuli/card_0_transparent.png,0,12,0,12,0,1,,,,,,,,,,
,,,,63ea87b44ffb19ba667c3abc,A,2024-07-15_14h01.46.227,Slot Machine Game,2023.1.3,Win32,62.5,,,,,,,,,,,,,,,,,,,,,,,,,,,840,,,,,,,,,,,,,,,,,,,,,8,7,,,618.639,13,right,0.1,,1.5,0.3,"[2,3,1]",0.971561042,stimuli/card_100_transparent.png,100,13,0,13,0,1,,,,,,,,,,
,,,,63ea87b44ffb19ba667c3abc,A,2024-07-15_14h01.46.227,Slot Machine Game,2023.1.3,Win32,62.5,,,,,,,,,,,,,,,,,,,,,,,,,,,940,,,,,,,,,,,,,,,,,,,,,8,7,,,621.058,14,right,0.047,,1.5,0.3,"[2,3,1]",0.225154896,stimuli/card_100_transparent.png,100,14,0,14,0,1,,,,,,,,,,
,,,,63ea87b44ffb19ba667c3abc,A,2024-07-15_14h01.46.227,Slot Machine Game,2023.1.3,Win32,62.5,,,,,,,,,,,,,,,,,,,,,,,,,,,,,,,,,,,623.409,,,,,,,,,,,,,,,,,,,,,,,,,,,,,,,,,"[1210,1010,950,570,810,1020,740,940]",7,0,7,0,1,,,,
,,,,63ea87b44ffb19ba667c3abc,A,2024-07-15_14h01.46.227,Slot Machine Game,2023.1.3,Win32,62.5,,,,,,,,,,,,,,,,,,,,,,,,,,,0,,,,,,,,,,,,,,,,,,,,,9,9,[15],"[[3,1,2]]",628.402,0,left,0.447,,1.5,0.3,"[3,1,2]",0.578549443,stimuli/card_0_transparent.png,0,0,0,0,0,1,,,,,,,,,,
,,,,63ea87b44ffb19ba667c3abc,A,2024-07-15_14h01.46.227,Slot Machine Game,2023.1.3,Win32,62.5,,,,,,,,,,,,,,,,,,,,,,,,,,,10,,,,,,,,,,,,,,,,,,,,,9,9,,,631.182,1,right,0.566,,0.5,0.3,"[3,1,2]",0.365738267,stimuli/card_10_transparent.png,10,1,0,1,0,1,,,,,,,,,,
,,,,63ea87b44ffb19ba667c3abc,A,2024-07-15_14h01.46.227,Slot Machine Game,2023.1.3,Win32,62.5,,,,,,,,,,,,,,,,,,,,,,,,,,,110,,,,,,,,,,,,,,,,,,,,,9,9,,,633.084,2,up,0.324,,1.5,0.3,"[3,1,2]",0.968932904,stimuli/card_100_transparent.png,100,2,0,2,0,1,,,,,,,,,,
,,,,63ea87b44ffb19ba667c3abc,A,2024-07-15_14h01.46.227,Slot Machine Game,2023.1.3,Win32,62.5,,,,,,,,,,,,,,,,,,,,,,,,,,,210,,,,,,,,,,,,,,,,,,,,,9,9,,,635.737,3,up,0.338,,0.5,0.3,"[3,1,2]",0.854303984,stimuli/card_100_transparent.png,100,3,0,3,0,1,,,,,,,,,,
,,,,63ea87b44ffb19ba667c3abc,A,2024-07-15_14h01.46.227,Slot Machine Game,2023.1.3,Win32,62.5,,,,,,,,,,,,,,,,,,,,,,,,,,,310,,,,,,,,,,,,,,,,,,,,,9,9,,,637.388,4,up,0.257,,1,0.3,"[3,1,2]",0.962517698,stimuli/card_100_transparent.png,100,4,0,4,0,1,,,,,,,,,,
,,,,63ea87b44ffb19ba667c3abc,A,2024-07-15_14h01.46.227,Slot Machine Game,2023.1.3,Win32,62.5,,,,,,,,,,,,,,,,,,,,,,,,,,,410,,,,,,,,,,,,,,,,,,,,,9,9,,,639.473,5,up,0.139,,1,0.3,"[3,1,2]",0.275906103,stimuli/card_100_transparent.png,100,5,0,5,0,1,,,,,,,,,,
,,,,63ea87b44ffb19ba667c3abc,A,2024-07-15_14h01.46.227,Slot Machine Game,2023.1.3,Win32,62.5,,,,,,,,,,,,,,,,,,,,,,,,,,,410,,,,,,,,,,,,,,,,,,,,,9,9,,,641.441,6,up,0.133,,1,0.3,"[3,1,2]",0.012738689,stimuli/card_0_transparent.png,0,6,0,6,0,1,,,,,,,,,,
,,,,63ea87b44ffb19ba667c3abc,A,2024-07-15_14h01.46.227,Slot Machine Game,2023.1.3,Win32,62.5,,,,,,,,,,,,,,,,,,,,,,,,,,,420,,,,,,,,,,,,,,,,,,,,,9,9,,,643.393,7,right,0,,1,0.3,"[3,1,2]",0.558424962,stimuli/card_10_transparent.png,10,7,0,7,0,1,,,,,,,,,,
,,,,63ea87b44ffb19ba667c3abc,A,2024-07-15_14h01.46.227,Slot Machine Game,2023.1.3,Win32,62.5,,,,,,,,,,,,,,,,,,,,,,,,,,,520,,,,,,,,,,,,,,,,,,,,,9,9,,,645.211,8,up,0.227,,1.5,0.3,"[3,1,2]",0.374149087,stimuli/card_100_transparent.png,100,8,0,8,0,1,,,,,,,,,,
,,,,63ea87b44ffb19ba667c3abc,A,2024-07-15_14h01.46.227,Slot Machine Game,2023.1.3,Win32,62.5,,,,,,,,,,,,,,,,,,,,,,,,,,,620,,,,,,,,,,,,,,,,,,,,,9,9,,,647.763,9,up,0.307,,1,0.3,"[3,1,2]",0.598883562,stimuli/card_100_transparent.png,100,9,0,9,0,1,,,,,,,,,,
,,,,63ea87b44ffb19ba667c3abc,A,2024-07-15_14h01.46.227,Slot Machine Game,2023.1.3,Win32,62.5,,,,,,,,,,,,,,,,,,,,,,,,,,,720,,,,,,,,,,,,,,,,,,,,,9,9,,,649.899,10,up,0.228,,1,0.3,"[3,1,2]",0.414709745,stimuli/card_100_transparent.png,100,10,0,10,0,1,,,,,,,,,,
,,,,63ea87b44ffb19ba667c3abc,A,2024-07-15_14h01.46.227,Slot Machine Game,2023.1.3,Win32,62.5,,,,,,,,,,,,,,,,,,,,,,,,,,,820,,,,,,,,,,,,,,,,,,,,,9,9,,,651.934,11,up,0,,0.5,0.3,"[3,1,2]",0.932203483,stimuli/card_100_transparent.png,100,11,0,11,0,1,,,,,,,,,,
,,,,63ea87b44ffb19ba667c3abc,A,2024-07-15_14h01.46.227,Slot Machine Game,2023.1.3,Win32,62.5,,,,,,,,,,,,,,,,,,,,,,,,,,,920,,,,,,,,,,,,,,,,,,,,,9,9,,,653.268,12,up,0.106,,1.5,0.3,"[3,1,2]",0.792563656,stimuli/card_100_transparent.png,100,12,0,12,0,1,,,,,,,,,,
,,,,63ea87b44ffb19ba667c3abc,A,2024-07-15_14h01.46.227,Slot Machine Game,2023.1.3,Win32,62.5,,,,,,,,,,,,,,,,,,,,,,,,,,,1020,,,,,,,,,,,,,,,,,,,,,9,9,,,655.703,13,up,0.323,,1,0.3,"[3,1,2]",0.596261614,stimuli/card_100_transparent.png,100,13,0,13,0,1,,,,,,,,,,
,,,,63ea87b44ffb19ba667c3abc,A,2024-07-15_14h01.46.227,Slot Machine Game,2023.1.3,Win32,62.5,,,,,,,,,,,,,,,,,,,,,,,,,,,1120,,,,,,,,,,,,,,,,,,,,,9,9,,,657.855,14,up,0.119,,0.5,0.3,"[3,1,2]",0.663694522,stimuli/card_100_transparent.png,100,14,0,14,0,1,,,,,,,,,,
,,,,63ea87b44ffb19ba667c3abc,A,2024-07-15_14h01.46.227,Slot Machine Game,2023.1.3,Win32,62.5,,,,,,,,,,,,,,,,,,,,,,,,,,,,,,,,,,,659.306,,,,,,,,,,,,,,,,,,,,,,,,,,,,,,,,,"[1210,1010,950,570,810,1020,740,940,1120]",8,0,8,0,1,,,,
,,,,63ea87b44ffb19ba667c3abc,A,2024-07-15_14h01.46.227,Slot Machine Game,2023.1.3,Win32,62.5,,,,,,,,,,,,,,,,,,,,,,,,,,,100,,,,,,,,,,,,,,,,,,,,,10,6,"[4,10,15]","[[2,3,1],[1,3,2],[3,2,1]]",664.298,0,right,0.552,,1,0.3,"[2,3,1]",0.569080043,stimuli/card_100_transparent.png,100,0,0,0,0,1,,,,,,,,,,
,,,,63ea87b44ffb19ba667c3abc,A,2024-07-15_14h01.46.227,Slot Machine Game,2023.1.3,Win32,62.5,,,,,,,,,,,,,,,,,,,,,,,,,,,200,,,,,,,,,,,,,,,,,,,,,10,6,,,666.679,1,right,0.133,,1.5,0.3,"[2,3,1]",0.398648155,stimuli/card_100_transparent.png,100,1,0,1,0,1,,,,,,,,,,
,,,,63ea87b44ffb19ba667c3abc,A,2024-07-15_14h01.46.227,Slot Machine Game,2023.1.3,Win32,62.5,,,,,,,,,,,,,,,,,,,,,,,,,,,300,,,,,,,,,,,,,,,,,,,,,10,6,,,669.131,2,right,0.208,,1,0.3,"[2,3,1]",0.553162149,stimuli/card_100_transparent.png,100,2,0,2,0,1,,,,,,,,,,
,,,,63ea87b44ffb19ba667c3abc,A,2024-07-15_14h01.46.227,Slot Machine Game,2023.1.3,Win32,62.5,,,,,,,,,,,,,,,,,,,,,,,,,,,310,,,,,,,,,,,,,,,,,,,,,10,6,,,671.166,3,right,0.267,,0.5,0.3,"[2,3,1]",0.105869027,stimuli/card_10_transparent.png,10,3,0,3,0,1,,,,,,,,,,
,,,,63ea87b44ffb19ba667c3abc,A,2024-07-15_14h01.46.227,Slot Machine Game,2023.1.3,Win32,62.5,,,,,,,,,,,,,,,,,,,,,,,,,,,320,,,,,,,,,,,,,,,,,,,,,10,6,,,672.767,4,right,0.125,,0.5,0.3,"[1,3,2]",0.580668054,stimuli/card_10_transparent.png,10,4,0,4,0,1,,,,,,,,,,
,,,,63ea87b44ffb19ba667c3abc,A,2024-07-15_14h01.46.227,Slot Machine Game,2023.1.3,Win32,62.5,,,,,,,,,,,,,,,,,,,,,,,,,,,420,,,,,,,,,,,,,,,,,,,,,10,6,,,674.219,5,left,0.313,,1,0.3,"[1,3,2]",0.482522062,stimuli/card_100_transparent.png,100,5,0,5,0,1,,,,,,,,,,
,,,,63ea87b44ffb19ba667c3abc,A,2024-07-15_14h01.46.227,Slot Machine Game,2023.1.3,Win32,62.5,,,,,,,,,,,,,,,,,,,,,,,,,,,520,,,,,,,,,,,,,,,,,,,,,10,6,,,676.336,6,left,0.164,,0.5,0.3,"[1,3,2]",0.993459882,stimuli/card_100_transparent.png,100,6,0,6,0,1,,,,,,,,,,
,,,,63ea87b44ffb19ba667c3abc,A,2024-07-15_14h01.46.227,Slot Machine Game,2023.1.3,Win32,62.5,,,,,,,,,,,,,,,,,,,,,,,,,,,620,,,,,,,,,,,,,,,,,,,,,10,6,,,677.823,7,left,0.338,,1.5,0.3,"[1,3,2]",0.532078487,stimuli/card_100_transparent.png,100,7,0,7,0,1,,,,,,,,,,
,,,,63ea87b44ffb19ba667c3abc,A,2024-07-15_14h01.46.227,Slot Machine Game,2023.1.3,Win32,62.5,,,,,,,,,,,,,,,,,,,,,,,,,,,720,,,,,,,,,,,,,,,,,,,,,10,6,,,680.508,8,left,0.087,,1,0.3,"[1,3,2]",0.897356501,stimuli/card_100_transparent.png,100,8,0,8,0,1,,,,,,,,,,
,,,,63ea87b44ffb19ba667c3abc,A,2024-07-15_14h01.46.227,Slot Machine Game,2023.1.3,Win32,62.5,,,,,,,,,,,,,,,,,,,,,,,,,,,820,,,,,,,,,,,,,,,,,,,,,10,6,,,682.425,9,left,0.386,,1,0.3,"[1,3,2]",0.781995503,stimuli/card_100_transparent.png,100,9,0,9,0,1,,,,,,,,,,
,,,,63ea87b44ffb19ba667c3abc,A,2024-07-15_14h01.46.227,Slot Machine Game,2023.1.3,Win32,62.5,,,,,,,,,,,,,,,,,,,,,,,,,,,920,,,,,,,,,,,,,,,,,,,,,10,6,,,684.644,10,left,0.189,,1,0.3,"[3,2,1]",0.077388446,stimuli/card_100_transparent.png,100,10,0,10,0,1,,,,,,,,,,
,,,,63ea87b44ffb19ba667c3abc,A,2024-07-15_14h01.46.227,Slot Machine Game,2023.1.3,Win32,62.5,,,,,,,,,,,,,,,,,,,,,,,,,,,920,,,,,,,,,,,,,,,,,,,,,10,6,,,686.662,11,left,0.001,,0.5,0.3,"[3,2,1]",0.944856162,stimuli/card_0_transparent.png,0,11,0,11,0,1,,,,,,,,,,
,,,,63ea87b44ffb19ba667c3abc,A,2024-07-15_14h01.46.227,Slot Machine Game,2023.1.3,Win32,62.5,,,,,,,,,,,,,,,,,,,,,,,,,,,920,,,,,,,,,,,,,,,,,,,,,10,6,,,687.98,12,left,0.353,,1.5,0.3,"[3,2,1]",0.629317878,stimuli/card_0_transparent.png,0,12,0,12,0,1,,,,,,,,,,
,,,,63ea87b44ffb19ba667c3abc,A,2024-07-15_14h01.46.227,Slot Machine Game,2023.1.3,Win32,62.5,,,,,,,,,,,,,,,,,,,,,,,,,,,1020,,,,,,,,,,,,,,,,,,,,,10,6,,,690.666,13,up,0.569,,1,0.3,"[3,2,1]",0.122641663,stimuli/card_100_transparent.png,100,13,0,13,0,1,,,,,,,,,,
,,,,63ea87b44ffb19ba667c3abc,A,2024-07-15_14h01.46.227,Slot Machine Game,2023.1.3,Win32,62.5,,,,,,,,,,,,,,,,,,,,,,,,,,,1030,,,,,,,,,,,,,,,,,,,,,10,6,,,693.051,14,up,0.258,,1.5,0.3,"[3,2,1]",0.276051584,stimuli/card_10_transparent.png,10,14,0,14,0,1,,,,,,,,,,
,,,,63ea87b44ffb19ba667c3abc,A,2024-07-15_14h01.46.227,Slot Machine Game,2023.1.3,Win32,62.5,,,,,,,,,,,,,,,,,,,,,,,,,,,,,,,,,,,695.638,,,,,,,,,,,,,,,,,,,,,,,,,,,,,,,,,"[1210,1010,950,570,810,1020,740,940,1120,1030]",9,0,9,0,1,,,,
,,,,63ea87b44ffb19ba667c3abc,A,2024-07-15_14h01.46.227,Slot Machine Game,2023.1.3,Win32,62.5,,,,,,,,,,,,,,,,,,,,,,,,,,,,,,,,,,,,,,,,,,,,,,,,,,,,,,,,,,,,,,,,,,,,,,,,,,9,"[1210,1010,950,570,810,1020,740,940,1120,1030]",11.2,2024-07-15_14h13.30.915
