key_resp_welcome_started,key_resp_welcome_keys,key_resp_welcome_rt,key_resp_welcome_duration,prolific_id,path_id,date,expName,psychopyVersion,OS,frameRate,key_resp_instruction1_started,key_resp_instruction1_keys,key_resp_instruction1_rt,key_resp_instruction1_duration,key_resp_instruction2_started,key_resp_instruction2_keys,key_resp_instruction2_rt,key_resp_instruction2_duration,key_resp_instruction3_started,key_resp_instruction3_keys,key_resp_instruction3_rt,key_resp_instruction3_duration,key_resp_instruction4_started,key_resp_instruction4_keys,key_resp_instruction4_rt,key_resp_instruction4_duration,practiceCondition,practice_reward_seqs,practice_trial_started,practice_trial_num,practice_resp_rt,practice_resp_duration,practice_resp_keys,prac_presentationInterval,"practice_reward_seq: 2,1,3",reward_img,cumulative_reward,trial_reward,practice_trials.thisRepN,practice_trials.thisTrialN,practice_trials.thisN,practice_trials.thisIndex,practice_trials.ran,"practice_reward_seq: 2,3,1",block_break_started,"practice_reward_seq: 1,3,2","practice_reward_seq: 3,1,2",practice_end_time,practice_end_keys,practice_end_rt,practice_end_duration,main_instruction_text_started,block_condition,block_order_indices,main_instruction_keys,main_instruction_rt,main_instruction_duration,block_number,block_assignment,current_condition,main_reward_seqs,main_trial_started,main_trial_num,main_trial_keys,main_trial_rt,main_trial_duration,main_presentationInterval,reward_presentation_time,main_reward_seq,reward_rand_val,main_reward_img,current_reward,main_trials.thisRepN,main_trials.thisTrialN,main_trials.thisN,main_trials.thisIndex,main_trials.ran,block_reward,block.thisRepN,block.thisTrialN,block.thisN,block.thisIndex,block.ran,block_reward.length,block_reward_all,reward_amount,date_end_task
0.0002,space,2.402,,6413577c3565b8c76d846034,A,2024-07-08_16h11.55.736,Slot Machine Game,2023.1.3,Win32,59.88023952,,,,,,,,,,,,,,,,,,,,,,,,,,,,,,,,,,,,,,,,,,,,,,,,,,,,,,,,,,,,,,,,,,,,,,,,,,,,,
,,,,6413577c3565b8c76d846034,A,2024-07-08_16h11.55.736,Slot Machine Game,2023.1.3,Win32,59.88023952,2.4196,space,8.1682,,,,,,,,,,,,,,,,,,,,,,,,,,,,,,,,,,,,,,,,,,,,,,,,,,,,,,,,,,,,,,,,,,,,,,,,,,
,,,,6413577c3565b8c76d846034,A,2024-07-08_16h11.55.736,Slot Machine Game,2023.1.3,Win32,59.88023952,,,,,10.6064,space,26.9484,,,,,,,,,,,,,,,,,,,,,,,,,,,,,,,,,,,,,,,,,,,,,,,,,,,,,,,,,,,,,,,,,,,,,,
,,,,6413577c3565b8c76d846034,A,2024-07-08_16h11.55.736,Slot Machine Game,2023.1.3,Win32,59.88023952,,,,,,,,,37.5999,space,7.4117,,,,,,,,,,,,,,,,,,,,,,,,,,,,,,,,,,,,,,,,,,,,,,,,,,,,,,,,,,,,,,,,,,
,,,,6413577c3565b8c76d846034,A,2024-07-08_16h11.55.736,Slot Machine Game,2023.1.3,Win32,59.88023952,,,,,,,,,,,,,,,,,,,,,,,,,,,,,,,,,,,,,,,,,,,,,,,,,,,,,,,,,,,,,,,,,,,,,,,,,,,,,
,,,,6413577c3565b8c76d846034,A,2024-07-08_16h11.55.736,Slot Machine Game,2023.1.3,Win32,59.88023952,,,,,,,,,,,,,187.2276,space,3.7046,,,,,,,,,,,,,,,,,,,,,,,,,,,,,,,,,,,,,,,,,,,,,,,,,,,,,,,,,,,,,,
,,,,6413577c3565b8c76d846034,A,2024-07-08_16h11.55.736,Slot Machine Game,2023.1.3,Win32,59.88023952,,,,,,,,,,,,,,,,,"[9,15]","[[2,1,3],[2,3,1]]",190.9605,0,1.8944,,up,1,,stimuli/card_100_transparent.png,100,100,0,0,0,0,1,,,,,,,,,,,,,,,,,,,,,,,,,,,,,,,,,,,,,,,,,,,,
,,,,6413577c3565b8c76d846034,A,2024-07-08_16h11.55.736,Slot Machine Game,2023.1.3,Win32,59.88023952,,,,,,,,,,,,,,,,,,,194.6796,1,0.6316,,up,0.5,,stimuli/card_100_transparent.png,200,100,1,0,1,0,1,,,,,,,,,,,,,,,,,,,,,,,,,,,,,,,,,,,,,,,,,,,,
,,,,6413577c3565b8c76d846034,A,2024-07-08_16h11.55.736,Slot Machine Game,2023.1.3,Win32,59.88023952,,,,,,,,,,,,,,,,,,,196.6268,2,0.6799,,up,1,,stimuli/card_0_transparent.png,200,0,2,0,2,0,1,,,,,,,,,,,,,,,,,,,,,,,,,,,,,,,,,,,,,,,,,,,,
,,,,6413577c3565b8c76d846034,A,2024-07-08_16h11.55.736,Slot Machine Game,2023.1.3,Win32,59.88023952,,,,,,,,,,,,,,,,,,,199.111,3,0.8504,,left,1,,stimuli/card_10_transparent.png,210,10,3,0,3,0,1,,,,,,,,,,,,,,,,,,,,,,,,,,,,,,,,,,,,,,,,,,,,
,,,,6413577c3565b8c76d846034,A,2024-07-08_16h11.55.736,Slot Machine Game,2023.1.3,Win32,59.88023952,,,,,,,,,,,,,,,,,,,201.7788,4,0.9339,,right,1.5,,stimuli/card_0_transparent.png,210,0,4,0,4,0,1,,,,,,,,,,,,,,,,,,,,,,,,,,,,,,,,,,,,,,,,,,,,
,,,,6413577c3565b8c76d846034,A,2024-07-08_16h11.55.736,Slot Machine Game,2023.1.3,Win32,59.88023952,,,,,,,,,,,,,,,,,,,205.0133,5,0.2604,,up,1.5,,stimuli/card_100_transparent.png,310,100,5,0,5,0,1,,,,,,,,,,,,,,,,,,,,,,,,,,,,,,,,,,,,,,,,,,,,
,,,,6413577c3565b8c76d846034,A,2024-07-08_16h11.55.736,Slot Machine Game,2023.1.3,Win32,59.88023952,,,,,,,,,,,,,,,,,,,207.5843,6,0.3169,,up,1.5,,stimuli/card_100_transparent.png,410,100,6,0,6,0,1,,,,,,,,,,,,,,,,,,,,,,,,,,,,,,,,,,,,,,,,,,,,
,,,,6413577c3565b8c76d846034,A,2024-07-08_16h11.55.736,Slot Machine Game,2023.1.3,Win32,59.88023952,,,,,,,,,,,,,,,,,,,210.2187,7,0.6096,,up,0.5,,stimuli/card_10_transparent.png,420,10,7,0,7,0,1,,,,,,,,,,,,,,,,,,,,,,,,,,,,,,,,,,,,,,,,,,,,
,,,,6413577c3565b8c76d846034,A,2024-07-08_16h11.55.736,Slot Machine Game,2023.1.3,Win32,59.88023952,,,,,,,,,,,,,,,,,,,212.1327,8,0.6747,,left,1.5,,stimuli/card_10_transparent.png,430,10,8,0,8,0,1,,,,,,,,,,,,,,,,,,,,,,,,,,,,,,,,,,,,,,,,,,,,
,,,,6413577c3565b8c76d846034,A,2024-07-08_16h11.55.736,Slot Machine Game,2023.1.3,Win32,59.88023952,,,,,,,,,,,,,,,,,,,215.1172,9,0.5567,,up,0.5,,stimuli/card_0_transparent.png,430,0,9,0,9,0,1,,,,,,,,,,,,,,,,,,,,,,,,,,,,,,,,,,,,,,,,,,,,
,,,,6413577c3565b8c76d846034,A,2024-07-08_16h11.55.736,Slot Machine Game,2023.1.3,Win32,59.88023952,,,,,,,,,,,,,,,,,,,216.9846,10,0.3006,,right,1,,stimuli/card_100_transparent.png,530,100,10,0,10,0,1,,,,,,,,,,,,,,,,,,,,,,,,,,,,,,,,,,,,,,,,,,,,
,,,,6413577c3565b8c76d846034,A,2024-07-08_16h11.55.736,Slot Machine Game,2023.1.3,Win32,59.88023952,,,,,,,,,,,,,,,,,,,219.1186,11,0.7589,,right,0.5,,stimuli/card_100_transparent.png,630,100,11,0,11,0,1,,,,,,,,,,,,,,,,,,,,,,,,,,,,,,,,,,,,,,,,,,,,
,,,,6413577c3565b8c76d846034,A,2024-07-08_16h11.55.736,Slot Machine Game,2023.1.3,Win32,59.88023952,,,,,,,,,,,,,,,,,,,221.1861,12,0.1938,,right,1.5,,stimuli/card_100_transparent.png,730,100,12,0,12,0,1,,,,,,,,,,,,,,,,,,,,,,,,,,,,,,,,,,,,,,,,,,,,
,,,,6413577c3565b8c76d846034,A,2024-07-08_16h11.55.736,Slot Machine Game,2023.1.3,Win32,59.88023952,,,,,,,,,,,,,,,,,,,223.6704,13,0.234,,right,0.5,,stimuli/card_10_transparent.png,740,10,13,0,13,0,1,,,,,,,,,,,,,,,,,,,,,,,,,,,,,,,,,,,,,,,,,,,,
,,,,6413577c3565b8c76d846034,A,2024-07-08_16h11.55.736,Slot Machine Game,2023.1.3,Win32,59.88023952,,,,,,,,,,,,,,,,,,,225.221,14,0.9404,,left,0.5,,stimuli/card_10_transparent.png,750,10,14,0,14,0,1,,,,,,,,,,,,,,,,,,,,,,,,,,,,,,,,,,,,,,,,,,,,
,,,,6413577c3565b8c76d846034,A,2024-07-08_16h11.55.736,Slot Machine Game,2023.1.3,Win32,59.88023952,,,,,,,,,,,,,,,,,"[6,15]","[[1,3,2],[3,1,2]]",232.4841,0,0.431,,up,0.5,,stimuli/card_0_transparent.png,0,0,0,0,0,0,1,,227.4792,,,,,,,,,,,,,,,,,,,,,,,,,,,,,,,,,,,,,,,,,,
,,,,6413577c3565b8c76d846034,A,2024-07-08_16h11.55.736,Slot Machine Game,2023.1.3,Win32,59.88023952,,,,,,,,,,,,,,,,,,,234.2446,1,0.0946,,left,0.5,,stimuli/card_100_transparent.png,100,100,1,0,1,0,1,,,,,,,,,,,,,,,,,,,,,,,,,,,,,,,,,,,,,,,,,,,,
,,,,6413577c3565b8c76d846034,A,2024-07-08_16h11.55.736,Slot Machine Game,2023.1.3,Win32,59.88023952,,,,,,,,,,,,,,,,,,,235.6751,2,0.2255,,left,1.5,,stimuli/card_0_transparent.png,100,0,2,0,2,0,1,,,,,,,,,,,,,,,,,,,,,,,,,,,,,,,,,,,,,,,,,,,,
,,,,6413577c3565b8c76d846034,A,2024-07-08_16h11.55.736,Slot Machine Game,2023.1.3,Win32,59.88023952,,,,,,,,,,,,,,,,,,,238.2093,3,0.7849,,right,1,,stimuli/card_10_transparent.png,110,10,3,0,3,0,1,,,,,,,,,,,,,,,,,,,,,,,,,,,,,,,,,,,,,,,,,,,,
,,,,6413577c3565b8c76d846034,A,2024-07-08_16h11.55.736,Slot Machine Game,2023.1.3,Win32,59.88023952,,,,,,,,,,,,,,,,,,,240.8304,4,0.1516,,up,1,,stimuli/card_0_transparent.png,110,0,4,0,4,0,1,,,,,,,,,,,,,,,,,,,,,,,,,,,,,,,,,,,,,,,,,,,,
,,,,6413577c3565b8c76d846034,A,2024-07-08_16h11.55.736,Slot Machine Game,2023.1.3,Win32,59.88023952,,,,,,,,,,,,,,,,,,,242.7979,5,1.5013,,left,1,,stimuli/card_100_transparent.png,210,100,5,0,5,0,1,,,,,,,,,,,,,,,,,,,,,,,,,,,,,,,,,,,,,,,,,,,,
,,,,6413577c3565b8c76d846034,A,2024-07-08_16h11.55.736,Slot Machine Game,2023.1.3,Win32,59.88023952,,,,,,,,,,,,,,,,,,,246.1457,6,0.3805,,left,1,,stimuli/card_0_transparent.png,210,0,6,0,6,0,1,,,,,,,,,,,,,,,,,,,,,,,,,,,,,,,,,,,,,,,,,,,,
,,,,6413577c3565b8c76d846034,A,2024-07-08_16h11.55.736,Slot Machine Game,2023.1.3,Win32,59.88023952,,,,,,,,,,,,,,,,,,,248.3466,7,0.5982,,up,0.5,,stimuli/card_100_transparent.png,310,100,7,0,7,0,1,,,,,,,,,,,,,,,,,,,,,,,,,,,,,,,,,,,,,,,,,,,,
,,,,6413577c3565b8c76d846034,A,2024-07-08_16h11.55.736,Slot Machine Game,2023.1.3,Win32,59.88023952,,,,,,,,,,,,,,,,,,,250.2841,8,0.3535,,up,1.5,,stimuli/card_10_transparent.png,320,10,8,0,8,0,1,,,,,,,,,,,,,,,,,,,,,,,,,,,,,,,,,,,,,,,,,,,,
,,,,6413577c3565b8c76d846034,A,2024-07-08_16h11.55.736,Slot Machine Game,2023.1.3,Win32,59.88023952,,,,,,,,,,,,,,,,,,,252.9816,9,0.7895,,right,1.5,,stimuli/card_10_transparent.png,330,10,9,0,9,0,1,,,,,,,,,,,,,,,,,,,,,,,,,,,,,,,,,,,,,,,,,,,,
,,,,6413577c3565b8c76d846034,A,2024-07-08_16h11.55.736,Slot Machine Game,2023.1.3,Win32,59.88023952,,,,,,,,,,,,,,,,,,,256.0828,10,0.1499,,left,1.5,,stimuli/card_0_transparent.png,330,0,10,0,10,0,1,,,,,,,,,,,,,,,,,,,,,,,,,,,,,,,,,,,,,,,,,,,,
,,,,6413577c3565b8c76d846034,A,2024-07-08_16h11.55.736,Slot Machine Game,2023.1.3,Win32,59.88023952,,,,,,,,,,,,,,,,,,,258.5338,11,0.5372,,up,0.5,,stimuli/card_100_transparent.png,430,100,11,0,11,0,1,,,,,,,,,,,,,,,,,,,,,,,,,,,,,,,,,,,,,,,,,,,,
,,,,6413577c3565b8c76d846034,A,2024-07-08_16h11.55.736,Slot Machine Game,2023.1.3,Win32,59.88023952,,,,,,,,,,,,,,,,,,,260.4178,12,0.1502,,up,1,,stimuli/card_100_transparent.png,530,100,12,0,12,0,1,,,,,,,,,,,,,,,,,,,,,,,,,,,,,,,,,,,,,,,,,,,,
,,,,6413577c3565b8c76d846034,A,2024-07-08_16h11.55.736,Slot Machine Game,2023.1.3,Win32,59.88023952,,,,,,,,,,,,,,,,,,,262.3852,13,0.2527,,up,1,,stimuli/card_100_transparent.png,630,100,13,0,13,0,1,,,,,,,,,,,,,,,,,,,,,,,,,,,,,,,,,,,,,,,,,,,,
,,,,6413577c3565b8c76d846034,A,2024-07-08_16h11.55.736,Slot Machine Game,2023.1.3,Win32,59.88023952,,,,,,,,,,,,,,,,,,,264.4526,14,0.1671,,up,1,,stimuli/card_100_transparent.png,730,100,14,0,14,0,1,,,,,,,,,,,,,,,,,,,,,,,,,,,,,,,,,,,,,,,,,,,,
,,,,6413577c3565b8c76d846034,A,2024-07-08_16h11.55.736,Slot Machine Game,2023.1.3,Win32,59.88023952,,,,,,,,,,,,,,,,,,,,,,,,,,,,,,,,,,,266.4532,,,271.4423,space,1.6173,,,,,,,,,,,,,,,,,,,,,,,,,,,,,,,,,,,,,
,,,,6413577c3565b8c76d846034,A,2024-07-08_16h11.55.736,Slot Machine Game,2023.1.3,Win32,59.88023952,,,,,,,,,,,,,,,,,,,,,,,,,,,,,,,,,,,,,,,,,,273.0764,3,"[0,4,6,3,5,7,8,1,9,2]",space,2.5061,,,,,,,,,,,,,,,,,,,,,,,,,,,,,,,
,,,,6413577c3565b8c76d846034,A,2024-07-08_16h11.55.736,Slot Machine Game,2023.1.3,Win32,59.88023952,,,,,,,,,,,,,,,,,,,,,,,,,,,100,,,,,,,,,,,,,,,,,,,,,1,1,"[12,15]","[[2,1,3],[2,3,1]]",275.6163,0,up,0.1256,,0.5,0.3,"[2,1,3]",0.964961919,stimuli/card_100_transparent.png,100,0,0,0,0,1,,,,,,,,,,
,,,,6413577c3565b8c76d846034,A,2024-07-08_16h11.55.736,Slot Machine Game,2023.1.3,Win32,59.88023952,,,,,,,,,,,,,,,,,,,,,,,,,,,200,,,,,,,,,,,,,,,,,,,,,1,1,,,277.0743,1,up,0.1504,,1,0.3,"[2,1,3]",0.31760172,stimuli/card_100_transparent.png,100,1,0,1,0,1,,,,,,,,,,
,,,,6413577c3565b8c76d846034,A,2024-07-08_16h11.55.736,Slot Machine Game,2023.1.3,Win32,59.88023952,,,,,,,,,,,,,,,,,,,,,,,,,,,300,,,,,,,,,,,,,,,,,,,,,1,1,,,279.0416,2,up,0.3372,,1.5,0.3,"[2,1,3]",0.522105588,stimuli/card_100_transparent.png,100,2,0,2,0,1,,,,,,,,,,
,,,,6413577c3565b8c76d846034,A,2024-07-08_16h11.55.736,Slot Machine Game,2023.1.3,Win32,59.88023952,,,,,,,,,,,,,,,,,,,,,,,,,,,400,,,,,,,,,,,,,,,,,,,,,1,1,,,281.6926,3,up,0.502,,1.5,0.3,"[2,1,3]",0.669665564,stimuli/card_100_transparent.png,100,3,0,3,0,1,,,,,,,,,,
,,,,6413577c3565b8c76d846034,A,2024-07-08_16h11.55.736,Slot Machine Game,2023.1.3,Win32,59.88023952,,,,,,,,,,,,,,,,,,,,,,,,,,,500,,,,,,,,,,,,,,,,,,,,,1,1,,,284.5104,4,up,0.4863,,1,0.3,"[2,1,3]",0.783264372,stimuli/card_100_transparent.png,100,4,0,4,0,1,,,,,,,,,,
,,,,6413577c3565b8c76d846034,A,2024-07-08_16h11.55.736,Slot Machine Game,2023.1.3,Win32,59.88023952,,,,,,,,,,,,,,,,,,,,,,,,,,,600,,,,,,,,,,,,,,,,,,,,,1,1,,,286.8446,5,up,0.2672,,0.5,0.3,"[2,1,3]",0.812667618,stimuli/card_100_transparent.png,100,5,0,5,0,1,,,,,,,,,,
,,,,6413577c3565b8c76d846034,A,2024-07-08_16h11.55.736,Slot Machine Game,2023.1.3,Win32,59.88023952,,,,,,,,,,,,,,,,,,,,,,,,,,,700,,,,,,,,,,,,,,,,,,,,,1,1,,,288.4453,6,up,0.3667,,1,0.3,"[2,1,3]",0.774002133,stimuli/card_100_transparent.png,100,6,0,6,0,1,,,,,,,,,,
,,,,6413577c3565b8c76d846034,A,2024-07-08_16h11.55.736,Slot Machine Game,2023.1.3,Win32,59.88023952,,,,,,,,,,,,,,,,,,,,,,,,,,,800,,,,,,,,,,,,,,,,,,,,,1,1,,,290.646,7,up,0.0395,,1,0.3,"[2,1,3]",0.855745144,stimuli/card_100_transparent.png,100,7,0,7,0,1,,,,,,,,,,
,,,,6413577c3565b8c76d846034,A,2024-07-08_16h11.55.736,Slot Machine Game,2023.1.3,Win32,59.88023952,,,,,,,,,,,,,,,,,,,,,,,,,,,900,,,,,,,,,,,,,,,,,,,,,1,1,,,292.5134,8,up,0.3002,,1,0.3,"[2,1,3]",0.850660127,stimuli/card_100_transparent.png,100,8,0,8,0,1,,,,,,,,,,
,,,,6413577c3565b8c76d846034,A,2024-07-08_16h11.55.736,Slot Machine Game,2023.1.3,Win32,59.88023952,,,,,,,,,,,,,,,,,,,,,,,,,,,1000,,,,,,,,,,,,,,,,,,,,,1,1,,,294.6309,9,up,0.3023,,0.5,0.3,"[2,1,3]",0.694759182,stimuli/card_100_transparent.png,100,9,0,9,0,1,,,,,,,,,,
,,,,6413577c3565b8c76d846034,A,2024-07-08_16h11.55.736,Slot Machine Game,2023.1.3,Win32,59.88023952,,,,,,,,,,,,,,,,,,,,,,,,,,,1100,,,,,,,,,,,,,,,,,,,,,1,1,,,296.2683,10,up,0.5232,,1,0.3,"[2,1,3]",0.959111078,stimuli/card_100_transparent.png,100,10,0,10,0,1,,,,,,,,,,
,,,,6413577c3565b8c76d846034,A,2024-07-08_16h11.55.736,Slot Machine Game,2023.1.3,Win32,59.88023952,,,,,,,,,,,,,,,,,,,,,,,,,,,1200,,,,,,,,,,,,,,,,,,,,,1,1,,,298.6191,11,up,0.3064,,1,0.3,"[2,1,3]",0.496863706,stimuli/card_100_transparent.png,100,11,0,11,0,1,,,,,,,,,,
,,,,6413577c3565b8c76d846034,A,2024-07-08_16h11.55.736,Slot Machine Game,2023.1.3,Win32,59.88023952,,,,,,,,,,,,,,,,,,,,,,,,,,,1200,,,,,,,,,,,,,,,,,,,,,1,1,,,300.7665,12,up,0.4521,,1,0.3,"[2,3,1]",0.696034873,stimuli/card_0_transparent.png,0,12,0,12,0,1,,,,,,,,,,
,,,,6413577c3565b8c76d846034,A,2024-07-08_16h11.55.736,Slot Machine Game,2023.1.3,Win32,59.88023952,,,,,,,,,,,,,,,,,,,,,,,,,,,1200,,,,,,,,,,,,,,,,,,,,,1,1,,,303.0338,13,up,1.0594,,1.5,0.3,"[2,3,1]",0.508796673,stimuli/card_0_transparent.png,0,13,0,13,0,1,,,,,,,,,,
,,,,6413577c3565b8c76d846034,A,2024-07-08_16h11.55.736,Slot Machine Game,2023.1.3,Win32,59.88023952,,,,,,,,,,,,,,,,,,,,,,,,,,,1210,,,,,,,,,,,,,,,,,,,,,1,1,,,306.402,14,left,0.6539,,0.5,0.3,"[2,3,1]",0.622583509,stimuli/card_10_transparent.png,10,14,0,14,0,1,,,,,,,,,,
,,,,6413577c3565b8c76d846034,A,2024-07-08_16h11.55.736,Slot Machine Game,2023.1.3,Win32,59.88023952,,,,,,,,,,,,,,,,,,,,,,,,,,,,,,,,,,,308.3695,,,,,,,,,,,,,,,,,,,,,,,,,,,,,,,,,[1210],0,0,0,0,1,,,,
,,,,6413577c3565b8c76d846034,A,2024-07-08_16h11.55.736,Slot Machine Game,2023.1.3,Win32,59.88023952,,,,,,,,,,,,,,,,,,,,,,,,,,,100,,,,,,,,,,,,,,,,,,,,,2,5,"[5,15]","[[1,2,3],[3,1,2]]",313.3823,0,left,0.3608,,1.5,0.3,"[1,2,3]",0.316636219,stimuli/card_100_transparent.png,100,0,0,0,0,1,,,,,,,,,,
,,,,6413577c3565b8c76d846034,A,2024-07-08_16h11.55.736,Slot Machine Game,2023.1.3,Win32,59.88023952,,,,,,,,,,,,,,,,,,,,,,,,,,,100,,,,,,,,,,,,,,,,,,,,,2,5,,,316.0722,1,left,0.2836,,1.5,0.3,"[1,2,3]",0.05434997,stimuli/card_0_transparent.png,0,1,0,1,0,1,,,,,,,,,,
,,,,6413577c3565b8c76d846034,A,2024-07-08_16h11.55.736,Slot Machine Game,2023.1.3,Win32,59.88023952,,,,,,,,,,,,,,,,,,,,,,,,,,,110,,,,,,,,,,,,,,,,,,,,,2,5,,,318.6734,2,left,1.7041,,1,0.3,"[1,2,3]",0.138637267,stimuli/card_10_transparent.png,10,2,0,2,0,1,,,,,,,,,,
,,,,6413577c3565b8c76d846034,A,2024-07-08_16h11.55.736,Slot Machine Game,2023.1.3,Win32,59.88023952,,,,,,,,,,,,,,,,,,,,,,,,,,,120,,,,,,,,,,,,,,,,,,,,,2,5,,,322.208,3,up,0.4005,,0.5,0.3,"[1,2,3]",0.608849369,stimuli/card_10_transparent.png,10,3,0,3,0,1,,,,,,,,,,
,,,,6413577c3565b8c76d846034,A,2024-07-08_16h11.55.736,Slot Machine Game,2023.1.3,Win32,59.88023952,,,,,,,,,,,,,,,,,,,,,,,,,,,130,,,,,,,,,,,,,,,,,,,,,2,5,,,323.9254,4,right,0.5758,,1.5,0.3,"[1,2,3]",0.155027664,stimuli/card_10_transparent.png,10,4,0,4,0,1,,,,,,,,,,
,,,,6413577c3565b8c76d846034,A,2024-07-08_16h11.55.736,Slot Machine Game,2023.1.3,Win32,59.88023952,,,,,,,,,,,,,,,,,,,,,,,,,,,130,,,,,,,,,,,,,,,,,,,,,2,5,,,326.8134,5,left,0.325,,0.5,0.3,"[3,1,2]",0.652414652,stimuli/card_0_transparent.png,0,5,0,5,0,1,,,,,,,,,,
,,,,6413577c3565b8c76d846034,A,2024-07-08_16h11.55.736,Slot Machine Game,2023.1.3,Win32,59.88023952,,,,,,,,,,,,,,,,,,,,,,,,,,,230,,,,,,,,,,,,,,,,,,,,,2,5,,,328.4437,6,up,0.2867,,1,0.3,"[3,1,2]",0.758699062,stimuli/card_100_transparent.png,100,6,0,6,0,1,,,,,,,,,,
,,,,6413577c3565b8c76d846034,A,2024-07-08_16h11.55.736,Slot Machine Game,2023.1.3,Win32,59.88023952,,,,,,,,,,,,,,,,,,,,,,,,,,,240,,,,,,,,,,,,,,,,,,,,,2,5,,,330.5612,7,up,0.1233,,0.5,0.3,"[3,1,2]",0.187631711,stimuli/card_10_transparent.png,10,7,0,7,0,1,,,,,,,,,,
,,,,6413577c3565b8c76d846034,A,2024-07-08_16h11.55.736,Slot Machine Game,2023.1.3,Win32,59.88023952,,,,,,,,,,,,,,,,,,,,,,,,,,,340,,,,,,,,,,,,,,,,,,,,,2,5,,,331.9951,8,up,0.5022,,0.5,0.3,"[3,1,2]",0.77925193,stimuli/card_100_transparent.png,100,8,0,8,0,1,,,,,,,,,,
,,,,6413577c3565b8c76d846034,A,2024-07-08_16h11.55.736,Slot Machine Game,2023.1.3,Win32,59.88023952,,,,,,,,,,,,,,,,,,,,,,,,,,,440,,,,,,,,,,,,,,,,,,,,,2,5,,,333.8122,9,up,0.3134,,0.5,0.3,"[3,1,2]",0.238292662,stimuli/card_100_transparent.png,100,9,0,9,0,1,,,,,,,,,,
,,,,6413577c3565b8c76d846034,A,2024-07-08_16h11.55.736,Slot Machine Game,2023.1.3,Win32,59.88023952,,,,,,,,,,,,,,,,,,,,,,,,,,,540,,,,,,,,,,,,,,,,,,,,,2,5,,,335.4297,10,up,0.2003,,1.5,0.3,"[3,1,2]",0.500843465,stimuli/card_100_transparent.png,100,10,0,10,0,1,,,,,,,,,,
,,,,6413577c3565b8c76d846034,A,2024-07-08_16h11.55.736,Slot Machine Game,2023.1.3,Win32,59.88023952,,,,,,,,,,,,,,,,,,,,,,,,,,,550,,,,,,,,,,,,,,,,,,,,,2,5,,,337.9307,11,up,0.5005,,1,0.3,"[3,1,2]",0.150642038,stimuli/card_10_transparent.png,10,11,0,11,0,1,,,,,,,,,,
,,,,6413577c3565b8c76d846034,A,2024-07-08_16h11.55.736,Slot Machine Game,2023.1.3,Win32,59.88023952,,,,,,,,,,,,,,,,,,,,,,,,,,,650,,,,,,,,,,,,,,,,,,,,,2,5,,,340.248,12,up,0.467,,0.5,0.3,"[3,1,2]",0.657553375,stimuli/card_100_transparent.png,100,12,0,12,0,1,,,,,,,,,,
,,,,6413577c3565b8c76d846034,A,2024-07-08_16h11.55.736,Slot Machine Game,2023.1.3,Win32,59.88023952,,,,,,,,,,,,,,,,,,,,,,,,,,,750,,,,,,,,,,,,,,,,,,,,,2,5,,,342.049,13,up,0.2603,,1.5,0.3,"[3,1,2]",0.840290523,stimuli/card_100_transparent.png,100,13,0,13,0,1,,,,,,,,,,
,,,,6413577c3565b8c76d846034,A,2024-07-08_16h11.55.736,Slot Machine Game,2023.1.3,Win32,59.88023952,,,,,,,,,,,,,,,,,,,,,,,,,,,850,,,,,,,,,,,,,,,,,,,,,2,5,,,344.6166,14,up,0.1705,,1,0.3,"[3,1,2]",0.426165954,stimuli/card_100_transparent.png,100,14,0,14,0,1,,,,,,,,,,
,,,,6413577c3565b8c76d846034,A,2024-07-08_16h11.55.736,Slot Machine Game,2023.1.3,Win32,59.88023952,,,,,,,,,,,,,,,,,,,,,,,,,,,,,,,,,,,346.6008,,,,,,,,,,,,,,,,,,,,,,,,,,,,,,,,,"[1210,850]",1,0,1,0,1,,,,
,,,,6413577c3565b8c76d846034,A,2024-07-08_16h11.55.736,Slot Machine Game,2023.1.3,Win32,59.88023952,,,,,,,,,,,,,,,,,,,,,,,,,,,0,,,,,,,,,,,,,,,,,,,,,3,7,"[9,15]","[[1,3,2],[2,3,1]]",351.6105,0,up,0.5602,,0.5,0.3,"[1,3,2]",0.948243348,stimuli/card_0_transparent.png,0,0,0,0,0,1,,,,,,,,,,
,,,,6413577c3565b8c76d846034,A,2024-07-08_16h11.55.736,Slot Machine Game,2023.1.3,Win32,59.88023952,,,,,,,,,,,,,,,,,,,,,,,,,,,100,,,,,,,,,,,,,,,,,,,,,3,7,,,353.5033,1,left,0.2699,,0.5,0.3,"[1,3,2]",0.699926189,stimuli/card_100_transparent.png,100,1,0,1,0,1,,,,,,,,,,
,,,,6413577c3565b8c76d846034,A,2024-07-08_16h11.55.736,Slot Machine Game,2023.1.3,Win32,59.88023952,,,,,,,,,,,,,,,,,,,,,,,,,,,200,,,,,,,,,,,,,,,,,,,,,3,7,,,355.0873,2,left,0.3683,,0.5,0.3,"[1,3,2]",0.905198629,stimuli/card_100_transparent.png,100,2,0,2,0,1,,,,,,,,,,
,,,,6413577c3565b8c76d846034,A,2024-07-08_16h11.55.736,Slot Machine Game,2023.1.3,Win32,59.88023952,,,,,,,,,,,,,,,,,,,,,,,,,,,200,,,,,,,,,,,,,,,,,,,,,3,7,,,356.7913,3,left,0.1597,,0.5,0.3,"[1,3,2]",0.071876234,stimuli/card_0_transparent.png,0,3,0,3,0,1,,,,,,,,,,
,,,,6413577c3565b8c76d846034,A,2024-07-08_16h11.55.736,Slot Machine Game,2023.1.3,Win32,59.88023952,,,,,,,,,,,,,,,,,,,,,,,,,,,300,,,,,,,,,,,,,,,,,,,,,3,7,,,358.2718,4,left,0.421,,0.5,0.3,"[1,3,2]",0.287314831,stimuli/card_100_transparent.png,100,4,0,4,0,1,,,,,,,,,,
,,,,6413577c3565b8c76d846034,A,2024-07-08_16h11.55.736,Slot Machine Game,2023.1.3,Win32,59.88023952,,,,,,,,,,,,,,,,,,,,,,,,,,,400,,,,,,,,,,,,,,,,,,,,,3,7,,,360.0059,5,left,0.1859,,1.5,0.3,"[1,3,2]",0.230775796,stimuli/card_100_transparent.png,100,5,0,5,0,1,,,,,,,,,,
,,,,6413577c3565b8c76d846034,A,2024-07-08_16h11.55.736,Slot Machine Game,2023.1.3,Win32,59.88023952,,,,,,,,,,,,,,,,,,,,,,,,,,,410,,,,,,,,,,,,,,,,,,,,,3,7,,,362.5068,6,left,0.2032,,1.5,0.3,"[1,3,2]",0.149961443,stimuli/card_10_transparent.png,10,6,0,6,0,1,,,,,,,,,,
,,,,6413577c3565b8c76d846034,A,2024-07-08_16h11.55.736,Slot Machine Game,2023.1.3,Win32,59.88023952,,,,,,,,,,,,,,,,,,,,,,,,,,,510,,,,,,,,,,,,,,,,,,,,,3,7,,,365.0244,7,left,0.4283,,0.5,0.3,"[1,3,2]",0.685651484,stimuli/card_100_transparent.png,100,7,0,7,0,1,,,,,,,,,,
,,,,6413577c3565b8c76d846034,A,2024-07-08_16h11.55.736,Slot Machine Game,2023.1.3,Win32,59.88023952,,,,,,,,,,,,,,,,,,,,,,,,,,,610,,,,,,,,,,,,,,,,,,,,,3,7,,,366.7584,8,left,0.3873,,0.5,0.3,"[1,3,2]",0.993165852,stimuli/card_100_transparent.png,100,8,0,8,0,1,,,,,,,,,,
,,,,6413577c3565b8c76d846034,A,2024-07-08_16h11.55.736,Slot Machine Game,2023.1.3,Win32,59.88023952,,,,,,,,,,,,,,,,,,,,,,,,,,,620,,,,,,,,,,,,,,,,,,,,,3,7,,,368.459,9,left,0.2587,,1,0.3,"[2,3,1]",0.736556146,stimuli/card_10_transparent.png,10,9,0,9,0,1,,,,,,,,,,
,,,,6413577c3565b8c76d846034,A,2024-07-08_16h11.55.736,Slot Machine Game,2023.1.3,Win32,59.88023952,,,,,,,,,,,,,,,,,,,,,,,,,,,630,,,,,,,,,,,,,,,,,,,,,3,7,,,370.5599,10,left,0.2775,,1.5,0.3,"[2,3,1]",0.554862598,stimuli/card_10_transparent.png,10,10,0,10,0,1,,,,,,,,,,
,,,,6413577c3565b8c76d846034,A,2024-07-08_16h11.55.736,Slot Machine Game,2023.1.3,Win32,59.88023952,,,,,,,,,,,,,,,,,,,,,,,,,,,640,,,,,,,,,,,,,,,,,,,,,3,7,,,373.1442,11,left,0.367,,1.5,0.3,"[2,3,1]",0.261575717,stimuli/card_10_transparent.png,10,11,0,11,0,1,,,,,,,,,,
,,,,6413577c3565b8c76d846034,A,2024-07-08_16h11.55.736,Slot Machine Game,2023.1.3,Win32,59.88023952,,,,,,,,,,,,,,,,,,,,,,,,,,,640,,,,,,,,,,,,,,,,,,,,,3,7,,,375.8119,12,up,0.0766,,0.5,0.3,"[2,3,1]",0.522183642,stimuli/card_0_transparent.png,0,12,0,12,0,1,,,,,,,,,,
,,,,6413577c3565b8c76d846034,A,2024-07-08_16h11.55.736,Slot Machine Game,2023.1.3,Win32,59.88023952,,,,,,,,,,,,,,,,,,,,,,,,,,,740,,,,,,,,,,,,,,,,,,,,,3,7,,,377.2323,13,right,0.5902,,1,0.3,"[2,3,1]",0.904281644,stimuli/card_100_transparent.png,100,13,0,13,0,1,,,,,,,,,,
,,,,6413577c3565b8c76d846034,A,2024-07-08_16h11.55.736,Slot Machine Game,2023.1.3,Win32,59.88023952,,,,,,,,,,,,,,,,,,,,,,,,,,,840,,,,,,,,,,,,,,,,,,,,,3,7,,,379.6501,14,right,0.25,,1.5,0.3,"[2,3,1]",0.980800588,stimuli/card_100_transparent.png,100,14,0,14,0,1,,,,,,,,,,
,,,,6413577c3565b8c76d846034,A,2024-07-08_16h11.55.736,Slot Machine Game,2023.1.3,Win32,59.88023952,,,,,,,,,,,,,,,,,,,,,,,,,,,,,,,,,,,382.2309,,,,,,,,,,,,,,,,,,,,,,,,,,,,,,,,,"[1210,850,840]",2,0,2,0,1,,,,
,,,,6413577c3565b8c76d846034,A,2024-07-08_16h11.55.736,Slot Machine Game,2023.1.3,Win32,59.88023952,,,,,,,,,,,,,,,,,,,,,,,,,,,0,,,,,,,,,,,,,,,,,,,,,4,4,"[7,15]","[[2,3,1],[1,2,3]]",387.241,0,up,0.3556,,0.5,0.3,"[2,3,1]",0.500666416,stimuli/card_0_transparent.png,0,0,0,0,0,1,,,,,,,,,,
,,,,6413577c3565b8c76d846034,A,2024-07-08_16h11.55.736,Slot Machine Game,2023.1.3,Win32,59.88023952,,,,,,,,,,,,,,,,,,,,,,,,,,,100,,,,,,,,,,,,,,,,,,,,,4,4,,,388.9168,1,right,0.1242,,1.5,0.3,"[2,3,1]",0.899252255,stimuli/card_100_transparent.png,100,1,0,1,0,1,,,,,,,,,,
,,,,6413577c3565b8c76d846034,A,2024-07-08_16h11.55.736,Slot Machine Game,2023.1.3,Win32,59.88023952,,,,,,,,,,,,,,,,,,,,,,,,,,,200,,,,,,,,,,,,,,,,,,,,,4,4,,,391.3512,2,right,0.2079,,0.5,0.3,"[2,3,1]",0.240901229,stimuli/card_100_transparent.png,100,2,0,2,0,1,,,,,,,,,,
,,,,6413577c3565b8c76d846034,A,2024-07-08_16h11.55.736,Slot Machine Game,2023.1.3,Win32,59.88023952,,,,,,,,,,,,,,,,,,,,,,,,,,,300,,,,,,,,,,,,,,,,,,,,,4,4,,,392.8848,3,right,0.0837,,1,0.3,"[2,3,1]",0.550831582,stimuli/card_100_transparent.png,100,3,0,3,0,1,,,,,,,,,,
,,,,6413577c3565b8c76d846034,A,2024-07-08_16h11.55.736,Slot Machine Game,2023.1.3,Win32,59.88023952,,,,,,,,,,,,,,,,,,,,,,,,,,,400,,,,,,,,,,,,,,,,,,,,,4,4,,,394.7858,4,right,0.2369,,1.5,0.3,"[2,3,1]",0.244746845,stimuli/card_100_transparent.png,100,4,0,4,0,1,,,,,,,,,,
,,,,6413577c3565b8c76d846034,A,2024-07-08_16h11.55.736,Slot Machine Game,2023.1.3,Win32,59.88023952,,,,,,,,,,,,,,,,,,,,,,,,,,,500,,,,,,,,,,,,,,,,,,,,,4,4,,,397.3365,5,right,0.0009,,1,0.3,"[2,3,1]",0.899209437,stimuli/card_100_transparent.png,100,5,0,5,0,1,,,,,,,,,,
,,,,6413577c3565b8c76d846034,A,2024-07-08_16h11.55.736,Slot Machine Game,2023.1.3,Win32,59.88023952,,,,,,,,,,,,,,,,,,,,,,,,,,,600,,,,,,,,,,,,,,,,,,,,,4,4,,,399.1541,6,right,0.1222,,0.5,0.3,"[2,3,1]",0.262236446,stimuli/card_100_transparent.png,100,6,0,6,0,1,,,,,,,,,,
,,,,6413577c3565b8c76d846034,A,2024-07-08_16h11.55.736,Slot Machine Game,2023.1.3,Win32,59.88023952,,,,,,,,,,,,,,,,,,,,,,,,,,,600,,,,,,,,,,,,,,,,,,,,,4,4,,,400.588,7,right,0.0375,,1.5,0.3,"[1,2,3]",0.507668429,stimuli/card_0_transparent.png,0,7,0,7,0,1,,,,,,,,,,
,,,,6413577c3565b8c76d846034,A,2024-07-08_16h11.55.736,Slot Machine Game,2023.1.3,Win32,59.88023952,,,,,,,,,,,,,,,,,,,,,,,,,,,600,,,,,,,,,,,,,,,,,,,,,4,4,,,402.9389,8,right,0.3814,,0.5,0.3,"[1,2,3]",0.736106164,stimuli/card_0_transparent.png,0,8,0,8,0,1,,,,,,,,,,
,,,,6413577c3565b8c76d846034,A,2024-07-08_16h11.55.736,Slot Machine Game,2023.1.3,Win32,59.88023952,,,,,,,,,,,,,,,,,,,,,,,,,,,700,,,,,,,,,,,,,,,,,,,,,4,4,,,404.6562,9,left,0.2675,,0.5,0.3,"[1,2,3]",0.577666417,stimuli/card_100_transparent.png,100,9,0,9,0,1,,,,,,,,,,
,,,,6413577c3565b8c76d846034,A,2024-07-08_16h11.55.736,Slot Machine Game,2023.1.3,Win32,59.88023952,,,,,,,,,,,,,,,,,,,,,,,,,,,710,,,,,,,,,,,,,,,,,,,,,4,4,,,406.2402,10,left,0.2225,,0.5,0.3,"[1,2,3]",0.116868437,stimuli/card_10_transparent.png,10,10,0,10,0,1,,,,,,,,,,
,,,,6413577c3565b8c76d846034,A,2024-07-08_16h11.55.736,Slot Machine Game,2023.1.3,Win32,59.88023952,,,,,,,,,,,,,,,,,,,,,,,,,,,810,,,,,,,,,,,,,,,,,,,,,4,4,,,407.7907,11,left,0.5245,,1,0.3,"[1,2,3]",0.381871571,stimuli/card_100_transparent.png,100,11,0,11,0,1,,,,,,,,,,
,,,,6413577c3565b8c76d846034,A,2024-07-08_16h11.55.736,Slot Machine Game,2023.1.3,Win32,59.88023952,,,,,,,,,,,,,,,,,,,,,,,,,,,910,,,,,,,,,,,,,,,,,,,,,4,4,,,410.1286,12,left,0.1836,,1,0.3,"[1,2,3]",0.862170073,stimuli/card_100_transparent.png,100,12,0,12,0,1,,,,,,,,,,
,,,,6413577c3565b8c76d846034,A,2024-07-08_16h11.55.736,Slot Machine Game,2023.1.3,Win32,59.88023952,,,,,,,,,,,,,,,,,,,,,,,,,,,910,,,,,,,,,,,,,,,,,,,,,4,4,,,412.1292,13,left,0.1324,,1,0.3,"[1,2,3]",0.031919761,stimuli/card_0_transparent.png,0,13,0,13,0,1,,,,,,,,,,
,,,,6413577c3565b8c76d846034,A,2024-07-08_16h11.55.736,Slot Machine Game,2023.1.3,Win32,59.88023952,,,,,,,,,,,,,,,,,,,,,,,,,,,1010,,,,,,,,,,,,,,,,,,,,,4,4,,,414.0764,14,left,0.4141,,0.5,0.3,"[1,2,3]",0.996993891,stimuli/card_100_transparent.png,100,14,0,14,0,1,,,,,,,,,,
,,,,6413577c3565b8c76d846034,A,2024-07-08_16h11.55.736,Slot Machine Game,2023.1.3,Win32,59.88023952,,,,,,,,,,,,,,,,,,,,,,,,,,,,,,,,,,,415.8106,,,,,,,,,,,,,,,,,,,,,,,,,,,,,,,,,"[1210,850,840,1010]",3,0,3,0,1,,,,
,,,,6413577c3565b8c76d846034,A,2024-07-08_16h11.55.736,Slot Machine Game,2023.1.3,Win32,59.88023952,,,,,,,,,,,,,,,,,,,,,,,,,,,10,,,,,,,,,,,,,,,,,,,,,5,6,"[4,10,15]","[[2,3,1],[1,3,2],[3,2,1]]",420.8202,0,up,0.5186,,1.5,0.3,"[2,3,1]",0.133400332,stimuli/card_10_transparent.png,10,0,0,0,0,1,,,,,,,,,,
,,,,6413577c3565b8c76d846034,A,2024-07-08_16h11.55.736,Slot Machine Game,2023.1.3,Win32,59.88023952,,,,,,,,,,,,,,,,,,,,,,,,,,,20,,,,,,,,,,,,,,,,,,,,,5,6,,,423.6669,1,left,0.2894,,0.5,0.3,"[2,3,1]",0.898180669,stimuli/card_10_transparent.png,10,1,0,1,0,1,,,,,,,,,,
,,,,6413577c3565b8c76d846034,A,2024-07-08_16h11.55.736,Slot Machine Game,2023.1.3,Win32,59.88023952,,,,,,,,,,,,,,,,,,,,,,,,,,,120,,,,,,,,,,,,,,,,,,,,,5,6,,,425.2973,2,right,0.989,,1.5,0.3,"[2,3,1]",0.695849502,stimuli/card_100_transparent.png,100,2,0,2,0,1,,,,,,,,,,
,,,,6413577c3565b8c76d846034,A,2024-07-08_16h11.55.736,Slot Machine Game,2023.1.3,Win32,59.88023952,,,,,,,,,,,,,,,,,,,,,,,,,,,220,,,,,,,,,,,,,,,,,,,,,5,6,,,428.5987,3,right,1.8284,,1.5,0.3,"[2,3,1]",0.58435129,stimuli/card_100_transparent.png,100,3,0,3,0,1,,,,,,,,,,
,,,,6413577c3565b8c76d846034,A,2024-07-08_16h11.55.736,Slot Machine Game,2023.1.3,Win32,59.88023952,,,,,,,,,,,,,,,,,,,,,,,,,,,230,,,,,,,,,,,,,,,,,,,,,5,6,,,432.717,4,right,0.7476,,1,0.3,"[1,3,2]",0.495503368,stimuli/card_10_transparent.png,10,4,0,4,0,1,,,,,,,,,,
,,,,6413577c3565b8c76d846034,A,2024-07-08_16h11.55.736,Slot Machine Game,2023.1.3,Win32,59.88023952,,,,,,,,,,,,,,,,,,,,,,,,,,,240,,,,,,,,,,,,,,,,,,,,,5,6,,,435.2846,5,right,0.8338,,0.5,0.3,"[1,3,2]",0.305747503,stimuli/card_10_transparent.png,10,5,0,5,0,1,,,,,,,,,,
,,,,6413577c3565b8c76d846034,A,2024-07-08_16h11.55.736,Slot Machine Game,2023.1.3,Win32,59.88023952,,,,,,,,,,,,,,,,,,,,,,,,,,,240,,,,,,,,,,,,,,,,,,,,,5,6,,,437.4353,6,up,0.2613,,1,0.3,"[1,3,2]",0.524480899,stimuli/card_0_transparent.png,0,6,0,6,0,1,,,,,,,,,,
,,,,6413577c3565b8c76d846034,A,2024-07-08_16h11.55.736,Slot Machine Game,2023.1.3,Win32,59.88023952,,,,,,,,,,,,,,,,,,,,,,,,,,,340,,,,,,,,,,,,,,,,,,,,,5,6,,,439.5195,7,left,1.2724,,1.5,0.3,"[1,3,2]",0.450828704,stimuli/card_100_transparent.png,100,7,0,7,0,1,,,,,,,,,,
,,,,6413577c3565b8c76d846034,A,2024-07-08_16h11.55.736,Slot Machine Game,2023.1.3,Win32,59.88023952,,,,,,,,,,,,,,,,,,,,,,,,,,,440,,,,,,,,,,,,,,,,,,,,,5,6,,,443.1209,8,left,0.3275,,1.5,0.3,"[1,3,2]",0.629230279,stimuli/card_100_transparent.png,100,8,0,8,0,1,,,,,,,,,,
,,,,6413577c3565b8c76d846034,A,2024-07-08_16h11.55.736,Slot Machine Game,2023.1.3,Win32,59.88023952,,,,,,,,,,,,,,,,,,,,,,,,,,,540,,,,,,,,,,,,,,,,,,,,,5,6,,,445.7553,9,left,0.3522,,0.5,0.3,"[1,3,2]",0.695109969,stimuli/card_100_transparent.png,100,9,0,9,0,1,,,,,,,,,,
,,,,6413577c3565b8c76d846034,A,2024-07-08_16h11.55.736,Slot Machine Game,2023.1.3,Win32,59.88023952,,,,,,,,,,,,,,,,,,,,,,,,,,,540,,,,,,,,,,,,,,,,,,,,,5,6,,,447.4222,10,left,0.2835,,1.5,0.3,"[3,2,1]",0.584392641,stimuli/card_0_transparent.png,0,10,0,10,0,1,,,,,,,,,,
,,,,6413577c3565b8c76d846034,A,2024-07-08_16h11.55.736,Slot Machine Game,2023.1.3,Win32,59.88023952,,,,,,,,,,,,,,,,,,,,,,,,,,,540,,,,,,,,,,,,,,,,,,,,,5,6,,,450.0068,11,left,0.3834,,1.5,0.3,"[3,2,1]",0.419316058,stimuli/card_0_transparent.png,0,11,0,11,0,1,,,,,,,,,,
,,,,6413577c3565b8c76d846034,A,2024-07-08_16h11.55.736,Slot Machine Game,2023.1.3,Win32,59.88023952,,,,,,,,,,,,,,,,,,,,,,,,,,,550,,,,,,,,,,,,,,,,,,,,,5,6,,,452.6909,12,up,0.2294,,1.5,0.3,"[3,2,1]",0.256786658,stimuli/card_10_transparent.png,10,12,0,12,0,1,,,,,,,,,,
,,,,6413577c3565b8c76d846034,A,2024-07-08_16h11.55.736,Slot Machine Game,2023.1.3,Win32,59.88023952,,,,,,,,,,,,,,,,,,,,,,,,,,,560,,,,,,,,,,,,,,,,,,,,,5,6,,,455.2256,13,right,0.1206,,1,0.3,"[3,2,1]",0.144490953,stimuli/card_10_transparent.png,10,13,0,13,0,1,,,,,,,,,,
,,,,6413577c3565b8c76d846034,A,2024-07-08_16h11.55.736,Slot Machine Game,2023.1.3,Win32,59.88023952,,,,,,,,,,,,,,,,,,,,,,,,,,,660,,,,,,,,,,,,,,,,,,,,,5,6,,,457.1763,14,right,0.2163,,1,0.3,"[3,2,1]",0.243237544,stimuli/card_100_transparent.png,100,14,0,14,0,1,,,,,,,,,,
,,,,6413577c3565b8c76d846034,A,2024-07-08_16h11.55.736,Slot Machine Game,2023.1.3,Win32,59.88023952,,,,,,,,,,,,,,,,,,,,,,,,,,,,,,,,,,,459.1937,,,,,,,,,,,,,,,,,,,,,,,,,,,,,,,,,"[1210,850,840,1010,660]",4,0,4,0,1,,,,
,,,,6413577c3565b8c76d846034,A,2024-07-08_16h11.55.736,Slot Machine Game,2023.1.3,Win32,59.88023952,,,,,,,,,,,,,,,,,,,,,,,,,,,100,,,,,,,,,,,,,,,,,,,,,6,8,"[11,15]","[[2,1,3],[1,2,3]]",464.2035,0,up,0.5034,,1.5,0.3,"[2,1,3]",0.249236099,stimuli/card_100_transparent.png,100,0,0,0,0,1,,,,,,,,,,
,,,,6413577c3565b8c76d846034,A,2024-07-08_16h11.55.736,Slot Machine Game,2023.1.3,Win32,59.88023952,,,,,,,,,,,,,,,,,,,,,,,,,,,200,,,,,,,,,,,,,,,,,,,,,6,8,,,467.0301,1,up,0.2783,,1.5,0.3,"[2,1,3]",0.50486708,stimuli/card_100_transparent.png,100,1,0,1,0,1,,,,,,,,,,
,,,,6413577c3565b8c76d846034,A,2024-07-08_16h11.55.736,Slot Machine Game,2023.1.3,Win32,59.88023952,,,,,,,,,,,,,,,,,,,,,,,,,,,300,,,,,,,,,,,,,,,,,,,,,6,8,,,469.631,2,up,0.442,,1.5,0.3,"[2,1,3]",0.688010683,stimuli/card_100_transparent.png,100,2,0,2,0,1,,,,,,,,,,
,,,,6413577c3565b8c76d846034,A,2024-07-08_16h11.55.736,Slot Machine Game,2023.1.3,Win32,59.88023952,,,,,,,,,,,,,,,,,,,,,,,,,,,400,,,,,,,,,,,,,,,,,,,,,6,8,,,472.3854,3,up,0.705,,0.5,0.3,"[2,1,3]",0.593259819,stimuli/card_100_transparent.png,100,3,0,3,0,1,,,,,,,,,,
,,,,6413577c3565b8c76d846034,A,2024-07-08_16h11.55.736,Slot Machine Game,2023.1.3,Win32,59.88023952,,,,,,,,,,,,,,,,,,,,,,,,,,,500,,,,,,,,,,,,,,,,,,,,,6,8,,,474.4161,4,up,0.7504,,1.5,0.3,"[2,1,3]",0.52388857,stimuli/card_100_transparent.png,100,4,0,4,0,1,,,,,,,,,,
,,,,6413577c3565b8c76d846034,A,2024-07-08_16h11.55.736,Slot Machine Game,2023.1.3,Win32,59.88023952,,,,,,,,,,,,,,,,,,,,,,,,,,,600,,,,,,,,,,,,,,,,,,,,,6,8,,,477.4711,5,up,0.4103,,1.5,0.3,"[2,1,3]",0.730689035,stimuli/card_100_transparent.png,100,5,0,5,0,1,,,,,,,,,,
,,,,6413577c3565b8c76d846034,A,2024-07-08_16h11.55.736,Slot Machine Game,2023.1.3,Win32,59.88023952,,,,,,,,,,,,,,,,,,,,,,,,,,,700,,,,,,,,,,,,,,,,,,,,,6,8,,,480.2017,6,up,0.7382,,1.5,0.3,"[2,1,3]",0.945429681,stimuli/card_100_transparent.png,100,6,0,6,0,1,,,,,,,,,,
,,,,6413577c3565b8c76d846034,A,2024-07-08_16h11.55.736,Slot Machine Game,2023.1.3,Win32,59.88023952,,,,,,,,,,,,,,,,,,,,,,,,,,,800,,,,,,,,,,,,,,,,,,,,,6,8,,,483.2527,7,up,0.5706,,1,0.3,"[2,1,3]",0.657079455,stimuli/card_100_transparent.png,100,7,0,7,0,1,,,,,,,,,,
,,,,6413577c3565b8c76d846034,A,2024-07-08_16h11.55.736,Slot Machine Game,2023.1.3,Win32,59.88023952,,,,,,,,,,,,,,,,,,,,,,,,,,,900,,,,,,,,,,,,,,,,,,,,,6,8,,,485.6371,8,up,0.2692,,1,0.3,"[2,1,3]",0.867071973,stimuli/card_100_transparent.png,100,8,0,8,0,1,,,,,,,,,,
,,,,6413577c3565b8c76d846034,A,2024-07-08_16h11.55.736,Slot Machine Game,2023.1.3,Win32,59.88023952,,,,,,,,,,,,,,,,,,,,,,,,,,,1000,,,,,,,,,,,,,,,,,,,,,6,8,,,487.7212,9,up,0.2033,,1,0.3,"[2,1,3]",0.732134568,stimuli/card_100_transparent.png,100,9,0,9,0,1,,,,,,,,,,
,,,,6413577c3565b8c76d846034,A,2024-07-08_16h11.55.736,Slot Machine Game,2023.1.3,Win32,59.88023952,,,,,,,,,,,,,,,,,,,,,,,,,,,1100,,,,,,,,,,,,,,,,,,,,,6,8,,,489.7386,10,up,0.5706,,1.5,0.3,"[2,1,3]",0.987241925,stimuli/card_100_transparent.png,100,10,0,10,0,1,,,,,,,,,,
,,,,6413577c3565b8c76d846034,A,2024-07-08_16h11.55.736,Slot Machine Game,2023.1.3,Win32,59.88023952,,,,,,,,,,,,,,,,,,,,,,,,,,,1200,,,,,,,,,,,,,,,,,,,,,6,8,,,492.6398,11,up,0.3201,,1.5,0.3,"[1,2,3]",0.177538663,stimuli/card_100_transparent.png,100,11,0,11,0,1,,,,,,,,,,
,,,,6413577c3565b8c76d846034,A,2024-07-08_16h11.55.736,Slot Machine Game,2023.1.3,Win32,59.88023952,,,,,,,,,,,,,,,,,,,,,,,,,,,1210,,,,,,,,,,,,,,,,,,,,,6,8,,,495.2742,12,up,0.1337,,0.5,0.3,"[1,2,3]",0.68607566,stimuli/card_10_transparent.png,10,12,0,12,0,1,,,,,,,,,,
,,,,6413577c3565b8c76d846034,A,2024-07-08_16h11.55.736,Slot Machine Game,2023.1.3,Win32,59.88023952,,,,,,,,,,,,,,,,,,,,,,,,,,,1210,,,,,,,,,,,,,,,,,,,,,6,8,,,496.7279,13,up,0.8261,,1.5,0.3,"[1,2,3]",0.081102417,stimuli/card_0_transparent.png,0,13,0,13,0,1,,,,,,,,,,
,,,,6413577c3565b8c76d846034,A,2024-07-08_16h11.55.736,Slot Machine Game,2023.1.3,Win32,59.88023952,,,,,,,,,,,,,,,,,,,,,,,,,,,1310,,,,,,,,,,,,,,,,,,,,,6,8,,,499.876,14,left,0.2413,,1.5,0.3,"[1,2,3]",0.528842239,stimuli/card_100_transparent.png,100,14,0,14,0,1,,,,,,,,,,
,,,,6413577c3565b8c76d846034,A,2024-07-08_16h11.55.736,Slot Machine Game,2023.1.3,Win32,59.88023952,,,,,,,,,,,,,,,,,,,,,,,,,,,,,,,,,,,502.4437,,,,,,,,,,,,,,,,,,,,,,,,,,,,,,,,,"[1210,850,840,1010,660,1310]",5,0,5,0,1,,,,
,,,,6413577c3565b8c76d846034,A,2024-07-08_16h11.55.736,Slot Machine Game,2023.1.3,Win32,59.88023952,,,,,,,,,,,,,,,,,,,,,,,,,,,0,,,,,,,,,,,,,,,,,,,,,7,9,"[8,15]","[[3,2,1],[3,1,2]]",507.4537,0,left,0.8178,,1,0.3,"[3,2,1]",0.994918332,stimuli/card_0_transparent.png,0,0,0,0,0,1,,,,,,,,,,
,,,,6413577c3565b8c76d846034,A,2024-07-08_16h11.55.736,Slot Machine Game,2023.1.3,Win32,59.88023952,,,,,,,,,,,,,,,,,,,,,,,,,,,10,,,,,,,,,,,,,,,,,,,,,7,9,,,510.0965,1,up,0.3423,,1,0.3,"[3,2,1]",0.839721375,stimuli/card_10_transparent.png,10,1,0,1,0,1,,,,,,,,,,
,,,,6413577c3565b8c76d846034,A,2024-07-08_16h11.55.736,Slot Machine Game,2023.1.3,Win32,59.88023952,,,,,,,,,,,,,,,,,,,,,,,,,,,110,,,,,,,,,,,,,,,,,,,,,7,9,,,512.2473,2,right,0.1031,,1.5,0.3,"[3,2,1]",0.984575504,stimuli/card_100_transparent.png,100,2,0,2,0,1,,,,,,,,,,
,,,,6413577c3565b8c76d846034,A,2024-07-08_16h11.55.736,Slot Machine Game,2023.1.3,Win32,59.88023952,,,,,,,,,,,,,,,,,,,,,,,,,,,210,,,,,,,,,,,,,,,,,,,,,7,9,,,514.6649,3,right,0.4703,,1,0.3,"[3,2,1]",0.212732246,stimuli/card_100_transparent.png,100,3,0,3,0,1,,,,,,,,,,
,,,,6413577c3565b8c76d846034,A,2024-07-08_16h11.55.736,Slot Machine Game,2023.1.3,Win32,59.88023952,,,,,,,,,,,,,,,,,,,,,,,,,,,310,,,,,,,,,,,,,,,,,,,,,7,9,,,516.9655,4,right,0.2219,,0.5,0.3,"[3,2,1]",0.709079949,stimuli/card_100_transparent.png,100,4,0,4,0,1,,,,,,,,,,
,,,,6413577c3565b8c76d846034,A,2024-07-08_16h11.55.736,Slot Machine Game,2023.1.3,Win32,59.88023952,,,,,,,,,,,,,,,,,,,,,,,,,,,410,,,,,,,,,,,,,,,,,,,,,7,9,,,518.4998,5,right,0.37,,1.5,0.3,"[3,2,1]",0.5613249,stimuli/card_100_transparent.png,100,5,0,5,0,1,,,,,,,,,,
,,,,6413577c3565b8c76d846034,A,2024-07-08_16h11.55.736,Slot Machine Game,2023.1.3,Win32,59.88023952,,,,,,,,,,,,,,,,,,,,,,,,,,,510,,,,,,,,,,,,,,,,,,,,,7,9,,,521.2041,6,right,0.3337,,1.5,0.3,"[3,2,1]",0.693757766,stimuli/card_100_transparent.png,100,6,0,6,0,1,,,,,,,,,,
,,,,6413577c3565b8c76d846034,A,2024-07-08_16h11.55.736,Slot Machine Game,2023.1.3,Win32,59.88023952,,,,,,,,,,,,,,,,,,,,,,,,,,,610,,,,,,,,,,,,,,,,,,,,,7,9,,,523.8514,7,right,0.4309,,1.5,0.3,"[3,2,1]",0.236996146,stimuli/card_100_transparent.png,100,7,0,7,0,1,,,,,,,,,,
,,,,6413577c3565b8c76d846034,A,2024-07-08_16h11.55.736,Slot Machine Game,2023.1.3,Win32,59.88023952,,,,,,,,,,,,,,,,,,,,,,,,,,,620,,,,,,,,,,,,,,,,,,,,,7,9,,,526.6029,8,right,0.0504,,0.5,0.3,"[3,1,2]",0.923959966,stimuli/card_10_transparent.png,10,8,0,8,0,1,,,,,,,,,,
,,,,6413577c3565b8c76d846034,A,2024-07-08_16h11.55.736,Slot Machine Game,2023.1.3,Win32,59.88023952,,,,,,,,,,,,,,,,,,,,,,,,,,,630,,,,,,,,,,,,,,,,,,,,,7,9,,,527.9699,9,right,0.6857,,0.5,0.3,"[3,1,2]",0.235981047,stimuli/card_10_transparent.png,10,9,0,9,0,1,,,,,,,,,,
,,,,6413577c3565b8c76d846034,A,2024-07-08_16h11.55.736,Slot Machine Game,2023.1.3,Win32,59.88023952,,,,,,,,,,,,,,,,,,,,,,,,,,,730,,,,,,,,,,,,,,,,,,,,,7,9,,,529.9707,10,up,0.2501,,1,0.3,"[3,1,2]",0.56498956,stimuli/card_100_transparent.png,100,10,0,10,0,1,,,,,,,,,,
,,,,6413577c3565b8c76d846034,A,2024-07-08_16h11.55.736,Slot Machine Game,2023.1.3,Win32,59.88023952,,,,,,,,,,,,,,,,,,,,,,,,,,,830,,,,,,,,,,,,,,,,,,,,,7,9,,,532.0216,11,up,0.1876,,1,0.3,"[3,1,2]",0.748090091,stimuli/card_100_transparent.png,100,11,0,11,0,1,,,,,,,,,,
,,,,6413577c3565b8c76d846034,A,2024-07-08_16h11.55.736,Slot Machine Game,2023.1.3,Win32,59.88023952,,,,,,,,,,,,,,,,,,,,,,,,,,,930,,,,,,,,,,,,,,,,,,,,,7,9,,,534.0223,12,up,0.4305,,1,0.3,"[3,1,2]",0.852040038,stimuli/card_100_transparent.png,100,12,0,12,0,1,,,,,,,,,,
,,,,6413577c3565b8c76d846034,A,2024-07-08_16h11.55.736,Slot Machine Game,2023.1.3,Win32,59.88023952,,,,,,,,,,,,,,,,,,,,,,,,,,,930,,,,,,,,,,,,,,,,,,,,,7,9,,,536.2565,13,up,0.1032,,1.5,0.3,"[3,1,2]",0.065921599,stimuli/card_0_transparent.png,0,13,0,13,0,1,,,,,,,,,,
,,,,6413577c3565b8c76d846034,A,2024-07-08_16h11.55.736,Slot Machine Game,2023.1.3,Win32,59.88023952,,,,,,,,,,,,,,,,,,,,,,,,,,,940,,,,,,,,,,,,,,,,,,,,,7,9,,,538.6741,14,up,0.5172,,0.5,0.3,"[3,1,2]",0.149604931,stimuli/card_10_transparent.png,10,14,0,14,0,1,,,,,,,,,,
,,,,6413577c3565b8c76d846034,A,2024-07-08_16h11.55.736,Slot Machine Game,2023.1.3,Win32,59.88023952,,,,,,,,,,,,,,,,,,,,,,,,,,,,,,,,,,,540.5081,,,,,,,,,,,,,,,,,,,,,,,,,,,,,,,,,"[1210,850,840,1010,660,1310,940]",6,0,6,0,1,,,,
,,,,6413577c3565b8c76d846034,A,2024-07-08_16h11.55.736,Slot Machine Game,2023.1.3,Win32,59.88023952,,,,,,,,,,,,,,,,,,,,,,,,,,,0,,,,,,,,,,,,,,,,,,,,,8,2,"[6,15]","[[1,3,2],[3,2,1]]",545.5181,0,up,0.4784,,0.5,0.3,"[1,3,2]",0.797010643,stimuli/card_0_transparent.png,0,0,0,0,0,1,,,,,,,,,,
,,,,6413577c3565b8c76d846034,A,2024-07-08_16h11.55.736,Slot Machine Game,2023.1.3,Win32,59.88023952,,,,,,,,,,,,,,,,,,,,,,,,,,,100,,,,,,,,,,,,,,,,,,,,,8,2,,,547.3106,1,left,1.1005,,1.5,0.3,"[1,3,2]",0.680172291,stimuli/card_100_transparent.png,100,1,0,1,0,1,,,,,,,,,,
,,,,6413577c3565b8c76d846034,A,2024-07-08_16h11.55.736,Slot Machine Game,2023.1.3,Win32,59.88023952,,,,,,,,,,,,,,,,,,,,,,,,,,,200,,,,,,,,,,,,,,,,,,,,,8,2,,,550.7619,2,left,0.3005,,1.5,0.3,"[1,3,2]",0.753209905,stimuli/card_100_transparent.png,100,2,0,2,0,1,,,,,,,,,,
,,,,6413577c3565b8c76d846034,A,2024-07-08_16h11.55.736,Slot Machine Game,2023.1.3,Win32,59.88023952,,,,,,,,,,,,,,,,,,,,,,,,,,,300,,,,,,,,,,,,,,,,,,,,,8,2,,,553.3797,3,left,0.3238,,1,0.3,"[1,3,2]",0.622067312,stimuli/card_100_transparent.png,100,3,0,3,0,1,,,,,,,,,,
,,,,6413577c3565b8c76d846034,A,2024-07-08_16h11.55.736,Slot Machine Game,2023.1.3,Win32,59.88023952,,,,,,,,,,,,,,,,,,,,,,,,,,,400,,,,,,,,,,,,,,,,,,,,,8,2,,,555.5138,4,left,0.4586,,1,0.3,"[1,3,2]",0.254647416,stimuli/card_100_transparent.png,100,4,0,4,0,1,,,,,,,,,,
,,,,6413577c3565b8c76d846034,A,2024-07-08_16h11.55.736,Slot Machine Game,2023.1.3,Win32,59.88023952,,,,,,,,,,,,,,,,,,,,,,,,,,,500,,,,,,,,,,,,,,,,,,,,,8,2,,,557.7981,5,left,0.3258,,0.5,0.3,"[1,3,2]",0.931262439,stimuli/card_100_transparent.png,100,5,0,5,0,1,,,,,,,,,,
,,,,6413577c3565b8c76d846034,A,2024-07-08_16h11.55.736,Slot Machine Game,2023.1.3,Win32,59.88023952,,,,,,,,,,,,,,,,,,,,,,,,,,,600,,,,,,,,,,,,,,,,,,,,,8,2,,,559.4349,6,left,0.8179,,0.5,0.3,"[3,2,1]",0.084094505,stimuli/card_100_transparent.png,100,6,0,6,0,1,,,,,,,,,,
,,,,6413577c3565b8c76d846034,A,2024-07-08_16h11.55.736,Slot Machine Game,2023.1.3,Win32,59.88023952,,,,,,,,,,,,,,,,,,,,,,,,,,,600,,,,,,,,,,,,,,,,,,,,,8,2,,,561.5825,7,left,0.8286,,0.5,0.3,"[3,2,1]",0.555251915,stimuli/card_0_transparent.png,0,7,0,7,0,1,,,,,,,,,,
,,,,6413577c3565b8c76d846034,A,2024-07-08_16h11.55.736,Slot Machine Game,2023.1.3,Win32,59.88023952,,,,,,,,,,,,,,,,,,,,,,,,,,,600,,,,,,,,,,,,,,,,,,,,,8,2,,,563.7169,8,left,1.3562,,1,0.3,"[3,2,1]",0.588598578,stimuli/card_0_transparent.png,0,8,0,8,0,1,,,,,,,,,,
,,,,6413577c3565b8c76d846034,A,2024-07-08_16h11.55.736,Slot Machine Game,2023.1.3,Win32,59.88023952,,,,,,,,,,,,,,,,,,,,,,,,,,,600,,,,,,,,,,,,,,,,,,,,,8,2,,,566.8848,9,right,0.6173,,1,0.3,"[3,2,1]",0.086818351,stimuli/card_0_transparent.png,0,9,0,9,0,1,,,,,,,,,,
,,,,6413577c3565b8c76d846034,A,2024-07-08_16h11.55.736,Slot Machine Game,2023.1.3,Win32,59.88023952,,,,,,,,,,,,,,,,,,,,,,,,,,,610,,,,,,,,,,,,,,,,,,,,,8,2,,,569.3191,10,up,0.9735,,0.5,0.3,"[3,2,1]",0.211117079,stimuli/card_10_transparent.png,10,10,0,10,0,1,,,,,,,,,,
,,,,6413577c3565b8c76d846034,A,2024-07-08_16h11.55.736,Slot Machine Game,2023.1.3,Win32,59.88023952,,,,,,,,,,,,,,,,,,,,,,,,,,,610,,,,,,,,,,,,,,,,,,,,,8,2,,,571.6068,11,left,0.2427,,1,0.3,"[3,2,1]",0.299928771,stimuli/card_0_transparent.png,0,11,0,11,0,1,,,,,,,,,,
,,,,6413577c3565b8c76d846034,A,2024-07-08_16h11.55.736,Slot Machine Game,2023.1.3,Win32,59.88023952,,,,,,,,,,,,,,,,,,,,,,,,,,,710,,,,,,,,,,,,,,,,,,,,,8,2,,,573.6541,12,right,0.3835,,1,0.3,"[3,2,1]",0.322836564,stimuli/card_100_transparent.png,100,12,0,12,0,1,,,,,,,,,,
,,,,6413577c3565b8c76d846034,A,2024-07-08_16h11.55.736,Slot Machine Game,2023.1.3,Win32,59.88023952,,,,,,,,,,,,,,,,,,,,,,,,,,,810,,,,,,,,,,,,,,,,,,,,,8,2,,,575.8717,13,right,0.4026,,1,0.3,"[3,2,1]",0.73920134,stimuli/card_100_transparent.png,100,13,0,13,0,1,,,,,,,,,,
,,,,6413577c3565b8c76d846034,A,2024-07-08_16h11.55.736,Slot Machine Game,2023.1.3,Win32,59.88023952,,,,,,,,,,,,,,,,,,,,,,,,,,,910,,,,,,,,,,,,,,,,,,,,,8,2,,,578.0892,14,right,0.1952,,0.5,0.3,"[3,2,1]",0.902301559,stimuli/card_100_transparent.png,100,14,0,14,0,1,,,,,,,,,,
,,,,6413577c3565b8c76d846034,A,2024-07-08_16h11.55.736,Slot Machine Game,2023.1.3,Win32,59.88023952,,,,,,,,,,,,,,,,,,,,,,,,,,,,,,,,,,,579.6064,,,,,,,,,,,,,,,,,,,,,,,,,,,,,,,,,"[1210,850,840,1010,660,1310,940,910]",7,0,7,0,1,,,,
,,,,6413577c3565b8c76d846034,A,2024-07-08_16h11.55.736,Slot Machine Game,2023.1.3,Win32,59.88023952,,,,,,,,,,,,,,,,,,,,,,,,,,,100,,,,,,,,,,,,,,,,,,,,,9,10,"[10,15]","[[3,1,2],[1,3,2]]",584.6162,0,up,0.3335,,1,0.3,"[3,1,2]",0.959115693,stimuli/card_100_transparent.png,100,0,0,0,0,1,,,,,,,,,,
,,,,6413577c3565b8c76d846034,A,2024-07-08_16h11.55.736,Slot Machine Game,2023.1.3,Win32,59.88023952,,,,,,,,,,,,,,,,,,,,,,,,,,,200,,,,,,,,,,,,,,,,,,,,,9,10,,,586.7958,1,up,0.0744,,0.5,0.3,"[3,1,2]",0.513836084,stimuli/card_100_transparent.png,100,1,0,1,0,1,,,,,,,,,,
,,,,6413577c3565b8c76d846034,A,2024-07-08_16h11.55.736,Slot Machine Game,2023.1.3,Win32,59.88023952,,,,,,,,,,,,,,,,,,,,,,,,,,,300,,,,,,,,,,,,,,,,,,,,,9,10,,,588.1764,2,up,0.3198,,1.5,0.3,"[3,1,2]",0.757338352,stimuli/card_100_transparent.png,100,2,0,2,0,1,,,,,,,,,,
,,,,6413577c3565b8c76d846034,A,2024-07-08_16h11.55.736,Slot Machine Game,2023.1.3,Win32,59.88023952,,,,,,,,,,,,,,,,,,,,,,,,,,,400,,,,,,,,,,,,,,,,,,,,,9,10,,,590.8106,3,up,0.0763,,0.5,0.3,"[3,1,2]",0.216843476,stimuli/card_100_transparent.png,100,3,0,3,0,1,,,,,,,,,,
,,,,6413577c3565b8c76d846034,A,2024-07-08_16h11.55.736,Slot Machine Game,2023.1.3,Win32,59.88023952,,,,,,,,,,,,,,,,,,,,,,,,,,,500,,,,,,,,,,,,,,,,,,,,,9,10,,,592.1945,4,up,0.4122,,1.5,0.3,"[3,1,2]",0.355446877,stimuli/card_100_transparent.png,100,4,0,4,0,1,,,,,,,,,,
,,,,6413577c3565b8c76d846034,A,2024-07-08_16h11.55.736,Slot Machine Game,2023.1.3,Win32,59.88023952,,,,,,,,,,,,,,,,,,,,,,,,,,,600,,,,,,,,,,,,,,,,,,,,,9,10,,,594.9122,5,up,0.8339,,0.5,0.3,"[3,1,2]",0.299700628,stimuli/card_100_transparent.png,100,5,0,5,0,1,,,,,,,,,,
,,,,6413577c3565b8c76d846034,A,2024-07-08_16h11.55.736,Slot Machine Game,2023.1.3,Win32,59.88023952,,,,,,,,,,,,,,,,,,,,,,,,,,,700,,,,,,,,,,,,,,,,,,,,,9,10,,,597.0798,6,up,0.8143,,0.5,0.3,"[3,1,2]",0.419846655,stimuli/card_100_transparent.png,100,6,0,6,0,1,,,,,,,,,,
,,,,6413577c3565b8c76d846034,A,2024-07-08_16h11.55.736,Slot Machine Game,2023.1.3,Win32,59.88023952,,,,,,,,,,,,,,,,,,,,,,,,,,,800,,,,,,,,,,,,,,,,,,,,,9,10,,,599.2139,7,up,0.4501,,0.5,0.3,"[3,1,2]",0.925944992,stimuli/card_100_transparent.png,100,7,0,7,0,1,,,,,,,,,,
,,,,6413577c3565b8c76d846034,A,2024-07-08_16h11.55.736,Slot Machine Game,2023.1.3,Win32,59.88023952,,,,,,,,,,,,,,,,,,,,,,,,,,,900,,,,,,,,,,,,,,,,,,,,,9,10,,,600.9645,8,up,0.6197,,1.5,0.3,"[3,1,2]",0.50254197,stimuli/card_100_transparent.png,100,8,0,8,0,1,,,,,,,,,,
,,,,6413577c3565b8c76d846034,A,2024-07-08_16h11.55.736,Slot Machine Game,2023.1.3,Win32,59.88023952,,,,,,,,,,,,,,,,,,,,,,,,,,,1000,,,,,,,,,,,,,,,,,,,,,9,10,,,603.899,9,up,0.9006,,1.5,0.3,"[3,1,2]",0.874129526,stimuli/card_100_transparent.png,100,9,0,9,0,1,,,,,,,,,,
,,,,6413577c3565b8c76d846034,A,2024-07-08_16h11.55.736,Slot Machine Game,2023.1.3,Win32,59.88023952,,,,,,,,,,,,,,,,,,,,,,,,,,,1000,,,,,,,,,,,,,,,,,,,,,9,10,,,607.1003,10,up,0.4173,,1.5,0.3,"[1,3,2]",0.568582859,stimuli/card_0_transparent.png,0,10,0,10,0,1,,,,,,,,,,
,,,,6413577c3565b8c76d846034,A,2024-07-08_16h11.55.736,Slot Machine Game,2023.1.3,Win32,59.88023952,,,,,,,,,,,,,,,,,,,,,,,,,,,1000,,,,,,,,,,,,,,,,,,,,,9,10,,,609.8346,11,up,0.6627,,1,0.3,"[1,3,2]",0.707146372,stimuli/card_0_transparent.png,0,11,0,11,0,1,,,,,,,,,,
,,,,6413577c3565b8c76d846034,A,2024-07-08_16h11.55.736,Slot Machine Game,2023.1.3,Win32,59.88023952,,,,,,,,,,,,,,,,,,,,,,,,,,,1100,,,,,,,,,,,,,,,,,,,,,9,10,,,612.3023,12,left,0.3897,,1.5,0.3,"[1,3,2]",0.758135866,stimuli/card_100_transparent.png,100,12,0,12,0,1,,,,,,,,,,
,,,,6413577c3565b8c76d846034,A,2024-07-08_16h11.55.736,Slot Machine Game,2023.1.3,Win32,59.88023952,,,,,,,,,,,,,,,,,,,,,,,,,,,1110,,,,,,,,,,,,,,,,,,,,,9,10,,,615.02,13,left,0.5634,,1.5,0.3,"[1,3,2]",0.196758632,stimuli/card_10_transparent.png,10,13,0,13,0,1,,,,,,,,,,
,,,,6413577c3565b8c76d846034,A,2024-07-08_16h11.55.736,Slot Machine Game,2023.1.3,Win32,59.88023952,,,,,,,,,,,,,,,,,,,,,,,,,,,1210,,,,,,,,,,,,,,,,,,,,,9,10,,,617.9044,14,left,0.8371,,1.5,0.3,"[1,3,2]",0.618701157,stimuli/card_100_transparent.png,100,14,0,14,0,1,,,,,,,,,,
,,,,6413577c3565b8c76d846034,A,2024-07-08_16h11.55.736,Slot Machine Game,2023.1.3,Win32,59.88023952,,,,,,,,,,,,,,,,,,,,,,,,,,,,,,,,,,,621.0556,,,,,,,,,,,,,,,,,,,,,,,,,,,,,,,,,"[1210,850,840,1010,660,1310,940,910,1210]",8,0,8,0,1,,,,
,,,,6413577c3565b8c76d846034,A,2024-07-08_16h11.55.736,Slot Machine Game,2023.1.3,Win32,59.88023952,,,,,,,,,,,,,,,,,,,,,,,,,,,0,,,,,,,,,,,,,,,,,,,,,10,3,"[15,15]","[[3,1,2],[3,1,2]]",626.0681,0,up,1.1505,,1,0.3,"[3,1,2]",0.050354953,stimuli/card_0_transparent.png,0,0,0,0,0,1,,,,,,,,,,
,,,,6413577c3565b8c76d846034,A,2024-07-08_16h11.55.736,Slot Machine Game,2023.1.3,Win32,59.88023952,,,,,,,,,,,,,,,,,,,,,,,,,,,0,,,,,,,,,,,,,,,,,,,,,10,3,,,629.0253,1,left,0.0002,,0.5,0.3,"[3,1,2]",0.594563095,stimuli/card_0_transparent.png,0,1,0,1,0,1,,,,,,,,,,
,,,,6413577c3565b8c76d846034,A,2024-07-08_16h11.55.736,Slot Machine Game,2023.1.3,Win32,59.88023952,,,,,,,,,,,,,,,,,,,,,,,,,,,10,,,,,,,,,,,,,,,,,,,,,10,3,,,630.3424,2,right,0.1336,,0.5,0.3,"[3,1,2]",0.287497989,stimuli/card_10_transparent.png,10,2,0,2,0,1,,,,,,,,,,
,,,,6413577c3565b8c76d846034,A,2024-07-08_16h11.55.736,Slot Machine Game,2023.1.3,Win32,59.88023952,,,,,,,,,,,,,,,,,,,,,,,,,,,110,,,,,,,,,,,,,,,,,,,,,10,3,,,631.7764,3,up,1.3062,,0.5,0.3,"[3,1,2]",0.770210088,stimuli/card_100_transparent.png,100,3,0,3,0,1,,,,,,,,,,
,,,,6413577c3565b8c76d846034,A,2024-07-08_16h11.55.736,Slot Machine Game,2023.1.3,Win32,59.88023952,,,,,,,,,,,,,,,,,,,,,,,,,,,210,,,,,,,,,,,,,,,,,,,,,10,3,,,634.3939,4,up,0.2078,,1.5,0.3,"[3,1,2]",0.394429849,stimuli/card_100_transparent.png,100,4,0,4,0,1,,,,,,,,,,
,,,,6413577c3565b8c76d846034,A,2024-07-08_16h11.55.736,Slot Machine Game,2023.1.3,Win32,59.88023952,,,,,,,,,,,,,,,,,,,,,,,,,,,220,,,,,,,,,,,,,,,,,,,,,10,3,,,636.928,5,up,0.0448,,1,0.3,"[3,1,2]",0.138526055,stimuli/card_10_transparent.png,10,5,0,5,0,1,,,,,,,,,,
,,,,6413577c3565b8c76d846034,A,2024-07-08_16h11.55.736,Slot Machine Game,2023.1.3,Win32,59.88023952,,,,,,,,,,,,,,,,,,,,,,,,,,,320,,,,,,,,,,,,,,,,,,,,,10,3,,,638.7791,6,up,0.245,,1,0.3,"[3,1,2]",0.876772319,stimuli/card_100_transparent.png,100,6,0,6,0,1,,,,,,,,,,
,,,,6413577c3565b8c76d846034,A,2024-07-08_16h11.55.736,Slot Machine Game,2023.1.3,Win32,59.88023952,,,,,,,,,,,,,,,,,,,,,,,,,,,420,,,,,,,,,,,,,,,,,,,,,10,3,,,640.8297,7,up,0.0591,,0.5,0.3,"[3,1,2]",0.823240572,stimuli/card_100_transparent.png,100,7,0,7,0,1,,,,,,,,,,
,,,,6413577c3565b8c76d846034,A,2024-07-08_16h11.55.736,Slot Machine Game,2023.1.3,Win32,59.88023952,,,,,,,,,,,,,,,,,,,,,,,,,,,520,,,,,,,,,,,,,,,,,,,,,10,3,,,642.2136,8,up,0.3604,,1.5,0.3,"[3,1,2]",0.757218833,stimuli/card_100_transparent.png,100,8,0,8,0,1,,,,,,,,,,
,,,,6413577c3565b8c76d846034,A,2024-07-08_16h11.55.736,Slot Machine Game,2023.1.3,Win32,59.88023952,,,,,,,,,,,,,,,,,,,,,,,,,,,620,,,,,,,,,,,,,,,,,,,,,10,3,,,644.881,9,up,0.4173,,0.5,0.3,"[3,1,2]",0.53454987,stimuli/card_100_transparent.png,100,9,0,9,0,1,,,,,,,,,,
,,,,6413577c3565b8c76d846034,A,2024-07-08_16h11.55.736,Slot Machine Game,2023.1.3,Win32,59.88023952,,,,,,,,,,,,,,,,,,,,,,,,,,,720,,,,,,,,,,,,,,,,,,,,,10,3,,,646.5986,10,up,0.5837,,1.5,0.3,"[3,1,2]",0.452860374,stimuli/card_100_transparent.png,100,10,0,10,0,1,,,,,,,,,,
,,,,6413577c3565b8c76d846034,A,2024-07-08_16h11.55.736,Slot Machine Game,2023.1.3,Win32,59.88023952,,,,,,,,,,,,,,,,,,,,,,,,,,,820,,,,,,,,,,,,,,,,,,,,,10,3,,,649.4828,11,up,0.1734,,0.5,0.3,"[3,1,2]",0.685420749,stimuli/card_100_transparent.png,100,11,0,11,0,1,,,,,,,,,,
,,,,6413577c3565b8c76d846034,A,2024-07-08_16h11.55.736,Slot Machine Game,2023.1.3,Win32,59.88023952,,,,,,,,,,,,,,,,,,,,,,,,,,,920,,,,,,,,,,,,,,,,,,,,,10,3,,,650.9669,12,up,0.4955,,1,0.3,"[3,1,2]",0.634159484,stimuli/card_100_transparent.png,100,12,0,12,0,1,,,,,,,,,,
,,,,6413577c3565b8c76d846034,A,2024-07-08_16h11.55.736,Slot Machine Game,2023.1.3,Win32,59.88023952,,,,,,,,,,,,,,,,,,,,,,,,,,,1020,,,,,,,,,,,,,,,,,,,,,10,3,,,653.2678,13,up,0.1671,,0.5,0.3,"[3,1,2]",0.43631885,stimuli/card_100_transparent.png,100,13,0,13,0,1,,,,,,,,,,
,,,,6413577c3565b8c76d846034,A,2024-07-08_16h11.55.736,Slot Machine Game,2023.1.3,Win32,59.88023952,,,,,,,,,,,,,,,,,,,,,,,,,,,1120,,,,,,,,,,,,,,,,,,,,,10,3,,,654.7514,14,up,0.5271,,1.5,0.3,"[3,1,2]",0.481232043,stimuli/card_100_transparent.png,100,14,0,14,0,1,,,,,,,,,,
,,,,6413577c3565b8c76d846034,A,2024-07-08_16h11.55.736,Slot Machine Game,2023.1.3,Win32,59.88023952,,,,,,,,,,,,,,,,,,,,,,,,,,,,,,,,,,,657.5862,,,,,,,,,,,,,,,,,,,,,,,,,,,,,,,,,"[1210,850,840,1010,660,1310,940,910,1210,1120]",9,0,9,0,1,,,,
,,,,6413577c3565b8c76d846034,A,2024-07-08_16h11.55.736,Slot Machine Game,2023.1.3,Win32,59.88023952,,,,,,,,,,,,,,,,,,,,,,,,,,,,,,,,,,,,,,,,,,,,,,,,,,,,,,,,,,,,,,,,,,,,,,,,,,9,"[1210,850,840,1010,660,1310,940,910,1210,1120]",12.1,2024-07-08_16h23.02.416
