key_resp_welcome_started,key_resp_welcome_keys,key_resp_welcome_rt,key_resp_welcome_duration,prolific_id,path_id,date,expName,psychopyVersion,OS,frameRate,key_resp_instruction1_started,key_resp_instruction1_keys,key_resp_instruction1_rt,key_resp_instruction1_duration,key_resp_instruction2_started,key_resp_instruction2_keys,key_resp_instruction2_rt,key_resp_instruction2_duration,key_resp_instruction3_started,key_resp_instruction3_keys,key_resp_instruction3_rt,key_resp_instruction3_duration,key_resp_instruction4_started,key_resp_instruction4_keys,key_resp_instruction4_rt,key_resp_instruction4_duration,practiceCondition,practice_reward_seqs,practice_trial_started,practice_trial_num,practice_resp_rt,practice_resp_duration,practice_resp_keys,prac_presentationInterval,"practice_reward_seq: 2,1,3",reward_img,cumulative_reward,trial_reward,practice_trials.thisRepN,practice_trials.thisTrialN,practice_trials.thisN,practice_trials.thisIndex,practice_trials.ran,"practice_reward_seq: 2,3,1",block_break_started,"practice_reward_seq: 1,3,2","practice_reward_seq: 3,1,2",practice_end_time,practice_end_keys,practice_end_rt,practice_end_duration,main_instruction_text_started,block_condition,block_order_indices,main_instruction_keys,main_instruction_rt,main_instruction_duration,block_number,block_assignment,current_condition,main_reward_seqs,main_trial_started,main_trial_num,main_trial_keys,main_trial_rt,main_trial_duration,main_presentationInterval,reward_presentation_time,main_reward_seq,reward_rand_val,main_reward_img,current_reward,main_trials.thisRepN,main_trials.thisTrialN,main_trials.thisN,main_trials.thisIndex,main_trials.ran,block_reward,block.thisRepN,block.thisTrialN,block.thisN,block.thisIndex,block.ran,block_reward.length,block_reward_all,reward_amount,date_end_task
0.0006,space,1.5244,,6441a242a7d85d5c3e49a173,A,2024-07-02_12h02.14.593,Slot Machine Game,2023.1.3,Win32,60.60606061,,,,,,,,,,,,,,,,,,,,,,,,,,,,,,,,,,,,,,,,,,,,,,,,,,,,,,,,,,,,,,,,,,,,,,,,,,,,,
,,,,6441a242a7d85d5c3e49a173,A,2024-07-02_12h02.14.593,Slot Machine Game,2023.1.3,Win32,60.60606061,1.5429,space,5.5848,,,,,,,,,,,,,,,,,,,,,,,,,,,,,,,,,,,,,,,,,,,,,,,,,,,,,,,,,,,,,,,,,,,,,,,,,,
,,,,6441a242a7d85d5c3e49a173,A,2024-07-02_12h02.14.593,Slot Machine Game,2023.1.3,Win32,60.60606061,,,,,7.1432,space,19.3199,,,,,,,,,,,,,,,,,,,,,,,,,,,,,,,,,,,,,,,,,,,,,,,,,,,,,,,,,,,,,,,,,,,,,,
,,,,6441a242a7d85d5c3e49a173,A,2024-07-02_12h02.14.593,Slot Machine Game,2023.1.3,Win32,60.60606061,,,,,,,,,26.4933,space,6.9913,,,,,,,,,,,,,,,,,,,,,,,,,,,,,,,,,,,,,,,,,,,,,,,,,,,,,,,,,,,,,,,,,,
,,,,6441a242a7d85d5c3e49a173,A,2024-07-02_12h02.14.593,Slot Machine Game,2023.1.3,Win32,60.60606061,,,,,,,,,,,,,,,,,,,,,,,,,,,,,,,,,,,,,,,,,,,,,,,,,,,,,,,,,,,,,,,,,,,,,,,,,,,,,
,,,,6441a242a7d85d5c3e49a173,A,2024-07-02_12h02.14.593,Slot Machine Game,2023.1.3,Win32,60.60606061,,,,,,,,,,,,,175.2092,space,2.8889,,,,,,,,,,,,,,,,,,,,,,,,,,,,,,,,,,,,,,,,,,,,,,,,,,,,,,,,,,,,,,
,,,,6441a242a7d85d5c3e49a173,A,2024-07-02_12h02.14.593,Slot Machine Game,2023.1.3,Win32,60.60606061,,,,,,,,,,,,,,,,,"[9,15]","[[2,1,3],[2,3,1]]",178.1109,0,1.3563,,left,1,,stimuli/card_10_transparent.png,10,10,0,0,0,0,1,,,,,,,,,,,,,,,,,,,,,,,,,,,,,,,,,,,,,,,,,,,,
,,,,6441a242a7d85d5c3e49a173,A,2024-07-02_12h02.14.593,Slot Machine Game,2023.1.3,Win32,60.60606061,,,,,,,,,,,,,,,,,,,181.2919,1,0.2694,,up,1,,stimuli/card_100_transparent.png,110,100,1,0,1,0,1,,,,,,,,,,,,,,,,,,,,,,,,,,,,,,,,,,,,,,,,,,,,
,,,,6441a242a7d85d5c3e49a173,A,2024-07-02_12h02.14.593,Slot Machine Game,2023.1.3,Win32,60.60606061,,,,,,,,,,,,,,,,,,,183.392,2,0.0502,,right,1,,stimuli/card_0_transparent.png,110,0,2,0,2,0,1,,,,,,,,,,,,,,,,,,,,,,,,,,,,,,,,,,,,,,,,,,,,
,,,,6441a242a7d85d5c3e49a173,A,2024-07-02_12h02.14.593,Slot Machine Game,2023.1.3,Win32,60.60606061,,,,,,,,,,,,,,,,,,,185.275,3,1.3455,,up,1.5,,stimuli/card_100_transparent.png,210,100,3,0,3,0,1,,,,,,,,,,,,,,,,,,,,,,,,,,,,,,,,,,,,,,,,,,,,
,,,,6441a242a7d85d5c3e49a173,A,2024-07-02_12h02.14.593,Slot Machine Game,2023.1.3,Win32,60.60606061,,,,,,,,,,,,,,,,,,,188.9418,4,0.3108,,up,1,,stimuli/card_100_transparent.png,310,100,4,0,4,0,1,,,,,,,,,,,,,,,,,,,,,,,,,,,,,,,,,,,,,,,,,,,,
,,,,6441a242a7d85d5c3e49a173,A,2024-07-02_12h02.14.593,Slot Machine Game,2023.1.3,Win32,60.60606061,,,,,,,,,,,,,,,,,,,191.075,5,0.2104,,up,1.5,,stimuli/card_100_transparent.png,410,100,5,0,5,0,1,,,,,,,,,,,,,,,,,,,,,,,,,,,,,,,,,,,,,,,,,,,,
,,,,6441a242a7d85d5c3e49a173,A,2024-07-02_12h02.14.593,Slot Machine Game,2023.1.3,Win32,60.60606061,,,,,,,,,,,,,,,,,,,193.6085,6,0.0224,,up,1,,stimuli/card_100_transparent.png,510,100,6,0,6,0,1,,,,,,,,,,,,,,,,,,,,,,,,,,,,,,,,,,,,,,,,,,,,
,,,,6441a242a7d85d5c3e49a173,A,2024-07-02_12h02.14.593,Slot Machine Game,2023.1.3,Win32,60.60606061,,,,,,,,,,,,,,,,,,,195.4584,7,0.3266,,up,0.5,,stimuli/card_100_transparent.png,610,100,7,0,7,0,1,,,,,,,,,,,,,,,,,,,,,,,,,,,,,,,,,,,,,,,,,,,,
,,,,6441a242a7d85d5c3e49a173,A,2024-07-02_12h02.14.593,Slot Machine Game,2023.1.3,Win32,60.60606061,,,,,,,,,,,,,,,,,,,197.1083,8,0.3064,,up,1,,stimuli/card_10_transparent.png,620,10,8,0,8,0,1,,,,,,,,,,,,,,,,,,,,,,,,,,,,,,,,,,,,,,,,,,,,
,,,,6441a242a7d85d5c3e49a173,A,2024-07-02_12h02.14.593,Slot Machine Game,2023.1.3,Win32,60.60606061,,,,,,,,,,,,,,,,,,,199.2251,9,0.0175,,up,0.5,,stimuli/card_10_transparent.png,630,10,9,0,9,0,1,,,,,,,,,,,,,,,,,,,,,,,,,,,,,,,,,,,,,,,,,,,,
,,,,6441a242a7d85d5c3e49a173,A,2024-07-02_12h02.14.593,Slot Machine Game,2023.1.3,Win32,60.60606061,,,,,,,,,,,,,,,,,,,200.5751,10,0.4837,,up,1,,stimuli/card_0_transparent.png,630,0,10,0,10,0,1,,,,,,,,,,,,,,,,,,,,,,,,,,,,,,,,,,,,,,,,,,,,
,,,,6441a242a7d85d5c3e49a173,A,2024-07-02_12h02.14.593,Slot Machine Game,2023.1.3,Win32,60.60606061,,,,,,,,,,,,,,,,,,,202.8917,11,0.4051,,left,0.5,,stimuli/card_10_transparent.png,640,10,11,0,11,0,1,,,,,,,,,,,,,,,,,,,,,,,,,,,,,,,,,,,,,,,,,,,,
,,,,6441a242a7d85d5c3e49a173,A,2024-07-02_12h02.14.593,Slot Machine Game,2023.1.3,Win32,60.60606061,,,,,,,,,,,,,,,,,,,204.625,12,0.517,,left,1,,stimuli/card_10_transparent.png,650,10,12,0,12,0,1,,,,,,,,,,,,,,,,,,,,,,,,,,,,,,,,,,,,,,,,,,,,
,,,,6441a242a7d85d5c3e49a173,A,2024-07-02_12h02.14.593,Slot Machine Game,2023.1.3,Win32,60.60606061,,,,,,,,,,,,,,,,,,,206.975,13,0.4979,,right,1.5,,stimuli/card_100_transparent.png,750,100,13,0,13,0,1,,,,,,,,,,,,,,,,,,,,,,,,,,,,,,,,,,,,,,,,,,,,
,,,,6441a242a7d85d5c3e49a173,A,2024-07-02_12h02.14.593,Slot Machine Game,2023.1.3,Win32,60.60606061,,,,,,,,,,,,,,,,,,,209.7917,14,0.2013,,right,1,,stimuli/card_100_transparent.png,850,100,14,0,14,0,1,,,,,,,,,,,,,,,,,,,,,,,,,,,,,,,,,,,,,,,,,,,,
,,,,6441a242a7d85d5c3e49a173,A,2024-07-02_12h02.14.593,Slot Machine Game,2023.1.3,Win32,60.60606061,,,,,,,,,,,,,,,,,"[6,15]","[[1,3,2],[3,1,2]]",216.8318,0,0.7404,,right,1.5,,stimuli/card_10_transparent.png,10,10,0,0,0,0,1,,211.8316,,,,,,,,,,,,,,,,,,,,,,,,,,,,,,,,,,,,,,,,,,
,,,,6441a242a7d85d5c3e49a173,A,2024-07-02_12h02.14.593,Slot Machine Game,2023.1.3,Win32,60.60606061,,,,,,,,,,,,,,,,,,,219.8918,1,1.2116,,up,1.5,,stimuli/card_0_transparent.png,10,0,1,0,1,0,1,,,,,,,,,,,,,,,,,,,,,,,,,,,,,,,,,,,,,,,,,,,,
,,,,6441a242a7d85d5c3e49a173,A,2024-07-02_12h02.14.593,Slot Machine Game,2023.1.3,Win32,60.60606061,,,,,,,,,,,,,,,,,,,223.4249,2,0.4243,,left,1.5,,stimuli/card_0_transparent.png,10,0,2,0,2,0,1,,,,,,,,,,,,,,,,,,,,,,,,,,,,,,,,,,,,,,,,,,,,
,,,,6441a242a7d85d5c3e49a173,A,2024-07-02_12h02.14.593,Slot Machine Game,2023.1.3,Win32,60.60606061,,,,,,,,,,,,,,,,,,,226.1584,3,0.3218,,right,0.5,,stimuli/card_10_transparent.png,20,10,3,0,3,0,1,,,,,,,,,,,,,,,,,,,,,,,,,,,,,,,,,,,,,,,,,,,,
,,,,6441a242a7d85d5c3e49a173,A,2024-07-02_12h02.14.593,Slot Machine Game,2023.1.3,Win32,60.60606061,,,,,,,,,,,,,,,,,,,227.8082,4,0.7347,,up,1,,stimuli/card_10_transparent.png,30,10,4,0,4,0,1,,,,,,,,,,,,,,,,,,,,,,,,,,,,,,,,,,,,,,,,,,,,
,,,,6441a242a7d85d5c3e49a173,A,2024-07-02_12h02.14.593,Slot Machine Game,2023.1.3,Win32,60.60606061,,,,,,,,,,,,,,,,,,,230.3584,5,0.0263,,up,1,,stimuli/card_0_transparent.png,30,0,5,0,5,0,1,,,,,,,,,,,,,,,,,,,,,,,,,,,,,,,,,,,,,,,,,,,,
,,,,6441a242a7d85d5c3e49a173,A,2024-07-02_12h02.14.593,Slot Machine Game,2023.1.3,Win32,60.60606061,,,,,,,,,,,,,,,,,,,232.2082,6,0.3001,,left,0.5,,stimuli/card_0_transparent.png,30,0,6,0,6,0,1,,,,,,,,,,,,,,,,,,,,,,,,,,,,,,,,,,,,,,,,,,,,
,,,,6441a242a7d85d5c3e49a173,A,2024-07-02_12h02.14.593,Slot Machine Game,2023.1.3,Win32,60.60606061,,,,,,,,,,,,,,,,,,,233.8248,7,0.0565,,right,0.5,,stimuli/card_10_transparent.png,40,10,7,0,7,0,1,,,,,,,,,,,,,,,,,,,,,,,,,,,,,,,,,,,,,,,,,,,,
,,,,6441a242a7d85d5c3e49a173,A,2024-07-02_12h02.14.593,Slot Machine Game,2023.1.3,Win32,60.60606061,,,,,,,,,,,,,,,,,,,235.1916,8,0.2052,,right,1,,stimuli/card_10_transparent.png,50,10,8,0,8,0,1,,,,,,,,,,,,,,,,,,,,,,,,,,,,,,,,,,,,,,,,,,,,
,,,,6441a242a7d85d5c3e49a173,A,2024-07-02_12h02.14.593,Slot Machine Game,2023.1.3,Win32,60.60606061,,,,,,,,,,,,,,,,,,,237.225,9,0.4002,,right,1,,stimuli/card_10_transparent.png,60,10,9,0,9,0,1,,,,,,,,,,,,,,,,,,,,,,,,,,,,,,,,,,,,,,,,,,,,
,,,,6441a242a7d85d5c3e49a173,A,2024-07-02_12h02.14.593,Slot Machine Game,2023.1.3,Win32,60.60606061,,,,,,,,,,,,,,,,,,,239.4582,10,0.3185,,left,1.5,,stimuli/card_0_transparent.png,60,0,10,0,10,0,1,,,,,,,,,,,,,,,,,,,,,,,,,,,,,,,,,,,,,,,,,,,,
,,,,6441a242a7d85d5c3e49a173,A,2024-07-02_12h02.14.593,Slot Machine Game,2023.1.3,Win32,60.60606061,,,,,,,,,,,,,,,,,,,242.0915,11,0.2647,,left,0.5,,stimuli/card_0_transparent.png,60,0,11,0,11,0,1,,,,,,,,,,,,,,,,,,,,,,,,,,,,,,,,,,,,,,,,,,,,
,,,,6441a242a7d85d5c3e49a173,A,2024-07-02_12h02.14.593,Slot Machine Game,2023.1.3,Win32,60.60606061,,,,,,,,,,,,,,,,,,,243.675,12,0.0238,,up,0.5,,stimuli/card_100_transparent.png,160,100,12,0,12,0,1,,,,,,,,,,,,,,,,,,,,,,,,,,,,,,,,,,,,,,,,,,,,
,,,,6441a242a7d85d5c3e49a173,A,2024-07-02_12h02.14.593,Slot Machine Game,2023.1.3,Win32,60.60606061,,,,,,,,,,,,,,,,,,,245.0249,13,0.2668,,up,0.5,,stimuli/card_10_transparent.png,170,10,13,0,13,0,1,,,,,,,,,,,,,,,,,,,,,,,,,,,,,,,,,,,,,,,,,,,,
,,,,6441a242a7d85d5c3e49a173,A,2024-07-02_12h02.14.593,Slot Machine Game,2023.1.3,Win32,60.60606061,,,,,,,,,,,,,,,,,,,246.6248,14,0.1621,,up,0.5,,stimuli/card_100_transparent.png,270,100,14,0,14,0,1,,,,,,,,,,,,,,,,,,,,,,,,,,,,,,,,,,,,,,,,,,,,
,,,,6441a242a7d85d5c3e49a173,A,2024-07-02_12h02.14.593,Slot Machine Game,2023.1.3,Win32,60.60606061,,,,,,,,,,,,,,,,,,,,,,,,,,,,,,,,,,,248.1083,,,253.1085,space,1.5572,,,,,,,,,,,,,,,,,,,,,,,,,,,,,,,,,,,,,
,,,,6441a242a7d85d5c3e49a173,A,2024-07-02_12h02.14.593,Slot Machine Game,2023.1.3,Win32,60.60606061,,,,,,,,,,,,,,,,,,,,,,,,,,,,,,,,,,,,,,,,,,254.6751,1,"[0,1,2,3,4,5,6,7,8,9]",space,1.534,,,,,,,,,,,,,,,,,,,,,,,,,,,,,,,
,,,,6441a242a7d85d5c3e49a173,A,2024-07-02_12h02.14.593,Slot Machine Game,2023.1.3,Win32,60.60606061,,,,,,,,,,,,,,,,,,,,,,,,,,,100,,,,,,,,,,,,,,,,,,,,,1,1,"[12,15]","[[2,1,3],[2,3,1]]",256.2339,0,up,0.0754,,0.5,0.3,"[2,1,3]",0.900286943,stimuli/card_100_transparent.png,100,0,0,0,0,1,,,,,,,,,,
,,,,6441a242a7d85d5c3e49a173,A,2024-07-02_12h02.14.593,Slot Machine Game,2023.1.3,Win32,60.60606061,,,,,,,,,,,,,,,,,,,,,,,,,,,200,,,,,,,,,,,,,,,,,,,,,1,1,,,257.625,1,up,0.2122,,1,0.3,"[2,1,3]",0.25837162,stimuli/card_100_transparent.png,100,1,0,1,0,1,,,,,,,,,,
,,,,6441a242a7d85d5c3e49a173,A,2024-07-02_12h02.14.593,Slot Machine Game,2023.1.3,Win32,60.60606061,,,,,,,,,,,,,,,,,,,,,,,,,,,300,,,,,,,,,,,,,,,,,,,,,1,1,,,259.6583,2,up,0.118,,0.5,0.3,"[2,1,3]",0.479523661,stimuli/card_100_transparent.png,100,2,0,2,0,1,,,,,,,,,,
,,,,6441a242a7d85d5c3e49a173,A,2024-07-02_12h02.14.593,Slot Machine Game,2023.1.3,Win32,60.60606061,,,,,,,,,,,,,,,,,,,,,,,,,,,400,,,,,,,,,,,,,,,,,,,,,1,1,,,261.1081,3,up,0.3516,,1.5,0.3,"[2,1,3]",0.871544399,stimuli/card_100_transparent.png,100,3,0,3,0,1,,,,,,,,,,
,,,,6441a242a7d85d5c3e49a173,A,2024-07-02_12h02.14.593,Slot Machine Game,2023.1.3,Win32,60.60606061,,,,,,,,,,,,,,,,,,,,,,,,,,,500,,,,,,,,,,,,,,,,,,,,,1,1,,,263.7749,4,up,0.0461,,1.5,0.3,"[2,1,3]",0.709173985,stimuli/card_100_transparent.png,100,4,0,4,0,1,,,,,,,,,,
,,,,6441a242a7d85d5c3e49a173,A,2024-07-02_12h02.14.593,Slot Machine Game,2023.1.3,Win32,60.60606061,,,,,,,,,,,,,,,,,,,,,,,,,,,600,,,,,,,,,,,,,,,,,,,,,1,1,,,266.1415,5,up,0.041,,1,0.3,"[2,1,3]",0.835726489,stimuli/card_100_transparent.png,100,5,0,5,0,1,,,,,,,,,,
,,,,6441a242a7d85d5c3e49a173,A,2024-07-02_12h02.14.593,Slot Machine Game,2023.1.3,Win32,60.60606061,,,,,,,,,,,,,,,,,,,,,,,,,,,610,,,,,,,,,,,,,,,,,,,,,1,1,,,268.0082,6,up,0.1043,,1,0.3,"[2,1,3]",0.118978312,stimuli/card_10_transparent.png,10,6,0,6,0,1,,,,,,,,,,
,,,,6441a242a7d85d5c3e49a173,A,2024-07-02_12h02.14.593,Slot Machine Game,2023.1.3,Win32,60.60606061,,,,,,,,,,,,,,,,,,,,,,,,,,,710,,,,,,,,,,,,,,,,,,,,,1,1,,,269.9415,7,up,0.0917,,0.5,0.3,"[2,1,3]",0.316091688,stimuli/card_100_transparent.png,100,7,0,7,0,1,,,,,,,,,,
,,,,6441a242a7d85d5c3e49a173,A,2024-07-02_12h02.14.593,Slot Machine Game,2023.1.3,Win32,60.60606061,,,,,,,,,,,,,,,,,,,,,,,,,,,810,,,,,,,,,,,,,,,,,,,,,1,1,,,271.3582,8,up,0.0965,,1,0.3,"[2,1,3]",0.944463995,stimuli/card_100_transparent.png,100,8,0,8,0,1,,,,,,,,,,
,,,,6441a242a7d85d5c3e49a173,A,2024-07-02_12h02.14.593,Slot Machine Game,2023.1.3,Win32,60.60606061,,,,,,,,,,,,,,,,,,,,,,,,,,,820,,,,,,,,,,,,,,,,,,,,,1,1,,,273.2583,9,up,0.0866,,1,0.3,"[2,1,3]",0.190640176,stimuli/card_10_transparent.png,10,9,0,9,0,1,,,,,,,,,,
,,,,6441a242a7d85d5c3e49a173,A,2024-07-02_12h02.14.593,Slot Machine Game,2023.1.3,Win32,60.60606061,,,,,,,,,,,,,,,,,,,,,,,,,,,920,,,,,,,,,,,,,,,,,,,,,1,1,,,275.1747,10,up,1.1194,,0.5,0.3,"[2,1,3]",0.412589847,stimuli/card_100_transparent.png,100,10,0,10,0,1,,,,,,,,,,
,,,,6441a242a7d85d5c3e49a173,A,2024-07-02_12h02.14.593,Slot Machine Game,2023.1.3,Win32,60.60606061,,,,,,,,,,,,,,,,,,,,,,,,,,,1020,,,,,,,,,,,,,,,,,,,,,1,1,,,277.6247,11,up,0.0107,,1,0.3,"[2,1,3]",0.865638147,stimuli/card_100_transparent.png,100,11,0,11,0,1,,,,,,,,,,
,,,,6441a242a7d85d5c3e49a173,A,2024-07-02_12h02.14.593,Slot Machine Game,2023.1.3,Win32,60.60606061,,,,,,,,,,,,,,,,,,,,,,,,,,,1020,,,,,,,,,,,,,,,,,,,,,1,1,,,279.4581,12,up,0.4794,,1.5,0.3,"[2,3,1]",0.363849688,stimuli/card_0_transparent.png,0,12,0,12,0,1,,,,,,,,,,
,,,,6441a242a7d85d5c3e49a173,A,2024-07-02_12h02.14.593,Slot Machine Game,2023.1.3,Win32,60.60606061,,,,,,,,,,,,,,,,,,,,,,,,,,,1030,,,,,,,,,,,,,,,,,,,,,1,1,,,282.2582,13,up,1.4575,,1,0.3,"[2,3,1]",0.154884825,stimuli/card_10_transparent.png,10,13,0,13,0,1,,,,,,,,,,
,,,,6441a242a7d85d5c3e49a173,A,2024-07-02_12h02.14.593,Slot Machine Game,2023.1.3,Win32,60.60606061,,,,,,,,,,,,,,,,,,,,,,,,,,,1130,,,,,,,,,,,,,,,,,,,,,1,1,,,285.5413,14,right,0.4502,,1,0.3,"[2,3,1]",0.767094905,stimuli/card_100_transparent.png,100,14,0,14,0,1,,,,,,,,,,
,,,,6441a242a7d85d5c3e49a173,A,2024-07-02_12h02.14.593,Slot Machine Game,2023.1.3,Win32,60.60606061,,,,,,,,,,,,,,,,,,,,,,,,,,,,,,,,,,,287.8248,,,,,,,,,,,,,,,,,,,,,,,,,,,,,,,,,[1130],0,0,0,0,1,,,,
,,,,6441a242a7d85d5c3e49a173,A,2024-07-02_12h02.14.593,Slot Machine Game,2023.1.3,Win32,60.60606061,,,,,,,,,,,,,,,,,,,,,,,,,,,10,,,,,,,,,,,,,,,,,,,,,2,2,"[6,15]","[[1,3,2],[3,2,1]]",292.832,0,right,0.222,,0.5,0.3,"[1,3,2]",0.990173277,stimuli/card_10_transparent.png,10,0,0,0,0,1,,,,,,,,,,
,,,,6441a242a7d85d5c3e49a173,A,2024-07-02_12h02.14.593,Slot Machine Game,2023.1.3,Win32,60.60606061,,,,,,,,,,,,,,,,,,,,,,,,,,,20,,,,,,,,,,,,,,,,,,,,,2,2,,,294.3746,1,left,0.5651,,1,0.3,"[1,3,2]",0.187824317,stimuli/card_10_transparent.png,10,1,0,1,0,1,,,,,,,,,,
,,,,6441a242a7d85d5c3e49a173,A,2024-07-02_12h02.14.593,Slot Machine Game,2023.1.3,Win32,60.60606061,,,,,,,,,,,,,,,,,,,,,,,,,,,20,,,,,,,,,,,,,,,,,,,,,2,2,,,296.758,2,up,0.045,,0.5,0.3,"[1,3,2]",0.933544466,stimuli/card_0_transparent.png,0,2,0,2,0,1,,,,,,,,,,
,,,,6441a242a7d85d5c3e49a173,A,2024-07-02_12h02.14.593,Slot Machine Game,2023.1.3,Win32,60.60606061,,,,,,,,,,,,,,,,,,,,,,,,,,,30,,,,,,,,,,,,,,,,,,,,,2,2,,,298.1245,3,right,0.2791,,1.5,0.3,"[1,3,2]",0.622841931,stimuli/card_10_transparent.png,10,3,0,3,0,1,,,,,,,,,,
,,,,6441a242a7d85d5c3e49a173,A,2024-07-02_12h02.14.593,Slot Machine Game,2023.1.3,Win32,60.60606061,,,,,,,,,,,,,,,,,,,,,,,,,,,130,,,,,,,,,,,,,,,,,,,,,2,2,,,300.7081,4,left,0.1202,,1,0.3,"[1,3,2]",0.549399078,stimuli/card_100_transparent.png,100,4,0,4,0,1,,,,,,,,,,
,,,,6441a242a7d85d5c3e49a173,A,2024-07-02_12h02.14.593,Slot Machine Game,2023.1.3,Win32,60.60606061,,,,,,,,,,,,,,,,,,,,,,,,,,,230,,,,,,,,,,,,,,,,,,,,,2,2,,,302.6579,5,left,0.2667,,0.5,0.3,"[1,3,2]",0.774874216,stimuli/card_100_transparent.png,100,5,0,5,0,1,,,,,,,,,,
,,,,6441a242a7d85d5c3e49a173,A,2024-07-02_12h02.14.593,Slot Machine Game,2023.1.3,Win32,60.60606061,,,,,,,,,,,,,,,,,,,,,,,,,,,240,,,,,,,,,,,,,,,,,,,,,2,2,,,304.258,6,left,0.1032,,0.5,0.3,"[3,2,1]",0.11817558,stimuli/card_10_transparent.png,10,6,0,6,0,1,,,,,,,,,,
,,,,6441a242a7d85d5c3e49a173,A,2024-07-02_12h02.14.593,Slot Machine Game,2023.1.3,Win32,60.60606061,,,,,,,,,,,,,,,,,,,,,,,,,,,240,,,,,,,,,,,,,,,,,,,,,2,2,,,305.6747,7,left,0.1744,,1,0.3,"[3,2,1]",0.561321621,stimuli/card_0_transparent.png,0,7,0,7,0,1,,,,,,,,,,
,,,,6441a242a7d85d5c3e49a173,A,2024-07-02_12h02.14.593,Slot Machine Game,2023.1.3,Win32,60.60606061,,,,,,,,,,,,,,,,,,,,,,,,,,,240,,,,,,,,,,,,,,,,,,,,,2,2,,,307.6749,8,left,0.0914,,1,0.3,"[3,2,1]",0.642723756,stimuli/card_0_transparent.png,0,8,0,8,0,1,,,,,,,,,,
,,,,6441a242a7d85d5c3e49a173,A,2024-07-02_12h02.14.593,Slot Machine Game,2023.1.3,Win32,60.60606061,,,,,,,,,,,,,,,,,,,,,,,,,,,340,,,,,,,,,,,,,,,,,,,,,2,2,,,309.5912,9,right,0.1368,,0.5,0.3,"[3,2,1]",0.865805205,stimuli/card_100_transparent.png,100,9,0,9,0,1,,,,,,,,,,
,,,,6441a242a7d85d5c3e49a173,A,2024-07-02_12h02.14.593,Slot Machine Game,2023.1.3,Win32,60.60606061,,,,,,,,,,,,,,,,,,,,,,,,,,,440,,,,,,,,,,,,,,,,,,,,,2,2,,,311.0579,10,right,0.1113,,0.5,0.3,"[3,2,1]",0.327090807,stimuli/card_100_transparent.png,100,10,0,10,0,1,,,,,,,,,,
,,,,6441a242a7d85d5c3e49a173,A,2024-07-02_12h02.14.593,Slot Machine Game,2023.1.3,Win32,60.60606061,,,,,,,,,,,,,,,,,,,,,,,,,,,540,,,,,,,,,,,,,,,,,,,,,2,2,,,312.4746,11,right,0.0002,,0.5,0.3,"[3,2,1]",0.640534496,stimuli/card_100_transparent.png,100,11,0,11,0,1,,,,,,,,,,
,,,,6441a242a7d85d5c3e49a173,A,2024-07-02_12h02.14.593,Slot Machine Game,2023.1.3,Win32,60.60606061,,,,,,,,,,,,,,,,,,,,,,,,,,,640,,,,,,,,,,,,,,,,,,,,,2,2,,,313.8079,12,right,0.1334,,1,0.3,"[3,2,1]",0.31847207,stimuli/card_100_transparent.png,100,12,0,12,0,1,,,,,,,,,,
,,,,6441a242a7d85d5c3e49a173,A,2024-07-02_12h02.14.593,Slot Machine Game,2023.1.3,Win32,60.60606061,,,,,,,,,,,,,,,,,,,,,,,,,,,740,,,,,,,,,,,,,,,,,,,,,2,2,,,315.7747,13,right,0.0433,,1.5,0.3,"[3,2,1]",0.233993596,stimuli/card_100_transparent.png,100,13,0,13,0,1,,,,,,,,,,
,,,,6441a242a7d85d5c3e49a173,A,2024-07-02_12h02.14.593,Slot Machine Game,2023.1.3,Win32,60.60606061,,,,,,,,,,,,,,,,,,,,,,,,,,,840,,,,,,,,,,,,,,,,,,,,,2,2,,,318.1411,14,right,0.0003,,1,0.3,"[3,2,1]",0.216116713,stimuli/card_100_transparent.png,100,14,0,14,0,1,,,,,,,,,,
,,,,6441a242a7d85d5c3e49a173,A,2024-07-02_12h02.14.593,Slot Machine Game,2023.1.3,Win32,60.60606061,,,,,,,,,,,,,,,,,,,,,,,,,,,,,,,,,,,319.9746,,,,,,,,,,,,,,,,,,,,,,,,,,,,,,,,,"[1130,840]",1,0,1,0,1,,,,
,,,,6441a242a7d85d5c3e49a173,A,2024-07-02_12h02.14.593,Slot Machine Game,2023.1.3,Win32,60.60606061,,,,,,,,,,,,,,,,,,,,,,,,,,,100,,,,,,,,,,,,,,,,,,,,,3,3,"[15,15]","[[3,1,2],[3,1,2]]",324.9819,0,up,0.2391,,1,0.3,"[3,1,2]",0.269464029,stimuli/card_100_transparent.png,100,0,0,0,0,1,,,,,,,,,,
,,,,6441a242a7d85d5c3e49a173,A,2024-07-02_12h02.14.593,Slot Machine Game,2023.1.3,Win32,60.60606061,,,,,,,,,,,,,,,,,,,,,,,,,,,200,,,,,,,,,,,,,,,,,,,,,3,3,,,327.0411,1,up,0.0292,,0.5,0.3,"[3,1,2]",0.823187203,stimuli/card_100_transparent.png,100,1,0,1,0,1,,,,,,,,,,
,,,,6441a242a7d85d5c3e49a173,A,2024-07-02_12h02.14.593,Slot Machine Game,2023.1.3,Win32,60.60606061,,,,,,,,,,,,,,,,,,,,,,,,,,,300,,,,,,,,,,,,,,,,,,,,,3,3,,,328.3746,2,up,0.0649,,1.5,0.3,"[3,1,2]",0.854177755,stimuli/card_100_transparent.png,100,2,0,2,0,1,,,,,,,,,,
,,,,6441a242a7d85d5c3e49a173,A,2024-07-02_12h02.14.593,Slot Machine Game,2023.1.3,Win32,60.60606061,,,,,,,,,,,,,,,,,,,,,,,,,,,400,,,,,,,,,,,,,,,,,,,,,3,3,,,330.7412,3,up,0.4085,,1.5,0.3,"[3,1,2]",0.601966572,stimuli/card_100_transparent.png,100,3,0,3,0,1,,,,,,,,,,
,,,,6441a242a7d85d5c3e49a173,A,2024-07-02_12h02.14.593,Slot Machine Game,2023.1.3,Win32,60.60606061,,,,,,,,,,,,,,,,,,,,,,,,,,,500,,,,,,,,,,,,,,,,,,,,,3,3,,,333.4745,4,up,0.0177,,0.5,0.3,"[3,1,2]",0.581781517,stimuli/card_100_transparent.png,100,4,0,4,0,1,,,,,,,,,,
,,,,6441a242a7d85d5c3e49a173,A,2024-07-02_12h02.14.593,Slot Machine Game,2023.1.3,Win32,60.60606061,,,,,,,,,,,,,,,,,,,,,,,,,,,600,,,,,,,,,,,,,,,,,,,,,3,3,,,334.8079,5,up,0.0407,,1.5,0.3,"[3,1,2]",0.839755491,stimuli/card_100_transparent.png,100,5,0,5,0,1,,,,,,,,,,
,,,,6441a242a7d85d5c3e49a173,A,2024-07-02_12h02.14.593,Slot Machine Game,2023.1.3,Win32,60.60606061,,,,,,,,,,,,,,,,,,,,,,,,,,,700,,,,,,,,,,,,,,,,,,,,,3,3,,,337.1747,6,up,0.0409,,0.5,0.3,"[3,1,2]",0.365005575,stimuli/card_100_transparent.png,100,6,0,6,0,1,,,,,,,,,,
,,,,6441a242a7d85d5c3e49a173,A,2024-07-02_12h02.14.593,Slot Machine Game,2023.1.3,Win32,60.60606061,,,,,,,,,,,,,,,,,,,,,,,,,,,800,,,,,,,,,,,,,,,,,,,,,3,3,,,338.5414,7,up,0.0068,,1,0.3,"[3,1,2]",0.755391149,stimuli/card_100_transparent.png,100,7,0,7,0,1,,,,,,,,,,
,,,,6441a242a7d85d5c3e49a173,A,2024-07-02_12h02.14.593,Slot Machine Game,2023.1.3,Win32,60.60606061,,,,,,,,,,,,,,,,,,,,,,,,,,,900,,,,,,,,,,,,,,,,,,,,,3,3,,,340.3745,8,up,0.3419,,1.5,0.3,"[3,1,2]",0.392455624,stimuli/card_100_transparent.png,100,8,0,8,0,1,,,,,,,,,,
,,,,6441a242a7d85d5c3e49a173,A,2024-07-02_12h02.14.593,Slot Machine Game,2023.1.3,Win32,60.60606061,,,,,,,,,,,,,,,,,,,,,,,,,,,910,,,,,,,,,,,,,,,,,,,,,3,3,,,343.041,9,up,0.041,,1,0.3,"[3,1,2]",0.192431227,stimuli/card_10_transparent.png,10,9,0,9,0,1,,,,,,,,,,
,,,,6441a242a7d85d5c3e49a173,A,2024-07-02_12h02.14.593,Slot Machine Game,2023.1.3,Win32,60.60606061,,,,,,,,,,,,,,,,,,,,,,,,,,,1010,,,,,,,,,,,,,,,,,,,,,3,3,,,344.8914,10,up,0.4036,,0.5,0.3,"[3,1,2]",0.338969623,stimuli/card_100_transparent.png,100,10,0,10,0,1,,,,,,,,,,
,,,,6441a242a7d85d5c3e49a173,A,2024-07-02_12h02.14.593,Slot Machine Game,2023.1.3,Win32,60.60606061,,,,,,,,,,,,,,,,,,,,,,,,,,,1110,,,,,,,,,,,,,,,,,,,,,3,3,,,346.6246,11,up,0.0843,,0.5,0.3,"[3,1,2]",0.689443326,stimuli/card_100_transparent.png,100,11,0,11,0,1,,,,,,,,,,
,,,,6441a242a7d85d5c3e49a173,A,2024-07-02_12h02.14.593,Slot Machine Game,2023.1.3,Win32,60.60606061,,,,,,,,,,,,,,,,,,,,,,,,,,,1210,,,,,,,,,,,,,,,,,,,,,3,3,,,348.041,12,up,0.0898,,0.5,0.3,"[3,1,2]",0.973899518,stimuli/card_100_transparent.png,100,12,0,12,0,1,,,,,,,,,,
,,,,6441a242a7d85d5c3e49a173,A,2024-07-02_12h02.14.593,Slot Machine Game,2023.1.3,Win32,60.60606061,,,,,,,,,,,,,,,,,,,,,,,,,,,1310,,,,,,,,,,,,,,,,,,,,,3,3,,,349.441,13,up,0.2277,,1.5,0.3,"[3,1,2]",0.464457433,stimuli/card_100_transparent.png,100,13,0,13,0,1,,,,,,,,,,
,,,,6441a242a7d85d5c3e49a173,A,2024-07-02_12h02.14.593,Slot Machine Game,2023.1.3,Win32,60.60606061,,,,,,,,,,,,,,,,,,,,,,,,,,,1310,,,,,,,,,,,,,,,,,,,,,3,3,,,351.9744,14,up,0.1045,,1,0.3,"[3,1,2]",0.091195706,stimuli/card_0_transparent.png,0,14,0,14,0,1,,,,,,,,,,
,,,,6441a242a7d85d5c3e49a173,A,2024-07-02_12h02.14.593,Slot Machine Game,2023.1.3,Win32,60.60606061,,,,,,,,,,,,,,,,,,,,,,,,,,,,,,,,,,,353.8911,,,,,,,,,,,,,,,,,,,,,,,,,,,,,,,,,"[1130,840,1310]",2,0,2,0,1,,,,
,,,,6441a242a7d85d5c3e49a173,A,2024-07-02_12h02.14.593,Slot Machine Game,2023.1.3,Win32,60.60606061,,,,,,,,,,,,,,,,,,,,,,,,,,,10,,,,,,,,,,,,,,,,,,,,,4,4,"[7,15]","[[2,3,1],[1,2,3]]",358.898,0,left,0.4181,,1,0.3,"[2,3,1]",0.401087283,stimuli/card_10_transparent.png,10,0,0,0,0,1,,,,,,,,,,
,,,,6441a242a7d85d5c3e49a173,A,2024-07-02_12h02.14.593,Slot Machine Game,2023.1.3,Win32,60.60606061,,,,,,,,,,,,,,,,,,,,,,,,,,,110,,,,,,,,,,,,,,,,,,,,,4,4,,,361.141,1,right,0.3852,,1.5,0.3,"[2,3,1]",0.700810557,stimuli/card_100_transparent.png,100,1,0,1,0,1,,,,,,,,,,
,,,,6441a242a7d85d5c3e49a173,A,2024-07-02_12h02.14.593,Slot Machine Game,2023.1.3,Win32,60.60606061,,,,,,,,,,,,,,,,,,,,,,,,,,,210,,,,,,,,,,,,,,,,,,,,,4,4,,,363.8577,2,right,0.0716,,0.5,0.3,"[2,3,1]",0.21305497,stimuli/card_100_transparent.png,100,2,0,2,0,1,,,,,,,,,,
,,,,6441a242a7d85d5c3e49a173,A,2024-07-02_12h02.14.593,Slot Machine Game,2023.1.3,Win32,60.60606061,,,,,,,,,,,,,,,,,,,,,,,,,,,310,,,,,,,,,,,,,,,,,,,,,4,4,,,365.2577,3,right,0.0977,,0.5,0.3,"[2,3,1]",0.440434939,stimuli/card_100_transparent.png,100,3,0,3,0,1,,,,,,,,,,
,,,,6441a242a7d85d5c3e49a173,A,2024-07-02_12h02.14.593,Slot Machine Game,2023.1.3,Win32,60.60606061,,,,,,,,,,,,,,,,,,,,,,,,,,,410,,,,,,,,,,,,,,,,,,,,,4,4,,,366.6577,4,right,0.1016,,0.5,0.3,"[2,3,1]",0.881874867,stimuli/card_100_transparent.png,100,4,0,4,0,1,,,,,,,,,,
,,,,6441a242a7d85d5c3e49a173,A,2024-07-02_12h02.14.593,Slot Machine Game,2023.1.3,Win32,60.60606061,,,,,,,,,,,,,,,,,,,,,,,,,,,420,,,,,,,,,,,,,,,,,,,,,4,4,,,368.091,5,right,0.138,,0.5,0.3,"[2,3,1]",0.18541713,stimuli/card_10_transparent.png,10,5,0,5,0,1,,,,,,,,,,
,,,,6441a242a7d85d5c3e49a173,A,2024-07-02_12h02.14.593,Slot Machine Game,2023.1.3,Win32,60.60606061,,,,,,,,,,,,,,,,,,,,,,,,,,,420,,,,,,,,,,,,,,,,,,,,,4,4,,,369.5579,6,right,0.0374,,1,0.3,"[2,3,1]",0.033510499,stimuli/card_0_transparent.png,0,6,0,6,0,1,,,,,,,,,,
,,,,6441a242a7d85d5c3e49a173,A,2024-07-02_12h02.14.593,Slot Machine Game,2023.1.3,Win32,60.60606061,,,,,,,,,,,,,,,,,,,,,,,,,,,430,,,,,,,,,,,,,,,,,,,,,4,4,,,371.4245,7,up,0.0569,,1,0.3,"[1,2,3]",0.308864264,stimuli/card_10_transparent.png,10,7,0,7,0,1,,,,,,,,,,
,,,,6441a242a7d85d5c3e49a173,A,2024-07-02_12h02.14.593,Slot Machine Game,2023.1.3,Win32,60.60606061,,,,,,,,,,,,,,,,,,,,,,,,,,,440,,,,,,,,,,,,,,,,,,,,,4,4,,,373.3078,8,up,0.3237,,1.5,0.3,"[1,2,3]",0.573456458,stimuli/card_10_transparent.png,10,8,0,8,0,1,,,,,,,,,,
,,,,6441a242a7d85d5c3e49a173,A,2024-07-02_12h02.14.593,Slot Machine Game,2023.1.3,Win32,60.60606061,,,,,,,,,,,,,,,,,,,,,,,,,,,540,,,,,,,,,,,,,,,,,,,,,4,4,,,375.9579,9,left,0.1303,,1,0.3,"[1,2,3]",0.408482114,stimuli/card_100_transparent.png,100,9,0,9,0,1,,,,,,,,,,
,,,,6441a242a7d85d5c3e49a173,A,2024-07-02_12h02.14.593,Slot Machine Game,2023.1.3,Win32,60.60606061,,,,,,,,,,,,,,,,,,,,,,,,,,,550,,,,,,,,,,,,,,,,,,,,,4,4,,,377.9077,10,left,0.0772,,1,0.3,"[1,2,3]",0.157349098,stimuli/card_10_transparent.png,10,10,0,10,0,1,,,,,,,,,,
,,,,6441a242a7d85d5c3e49a173,A,2024-07-02_12h02.14.593,Slot Machine Game,2023.1.3,Win32,60.60606061,,,,,,,,,,,,,,,,,,,,,,,,,,,650,,,,,,,,,,,,,,,,,,,,,4,4,,,379.8076,11,left,0.0021,,1.5,0.3,"[1,2,3]",0.66211096,stimuli/card_100_transparent.png,100,11,0,11,0,1,,,,,,,,,,
,,,,6441a242a7d85d5c3e49a173,A,2024-07-02_12h02.14.593,Slot Machine Game,2023.1.3,Win32,60.60606061,,,,,,,,,,,,,,,,,,,,,,,,,,,750,,,,,,,,,,,,,,,,,,,,,4,4,,,382.1242,12,left,0.0276,,0.5,0.3,"[1,2,3]",0.696847442,stimuli/card_100_transparent.png,100,12,0,12,0,1,,,,,,,,,,
,,,,6441a242a7d85d5c3e49a173,A,2024-07-02_12h02.14.593,Slot Machine Game,2023.1.3,Win32,60.60606061,,,,,,,,,,,,,,,,,,,,,,,,,,,850,,,,,,,,,,,,,,,,,,,,,4,4,,,383.4576,13,left,0.0269,,0.5,0.3,"[1,2,3]",0.921343962,stimuli/card_100_transparent.png,100,13,0,13,0,1,,,,,,,,,,
,,,,6441a242a7d85d5c3e49a173,A,2024-07-02_12h02.14.593,Slot Machine Game,2023.1.3,Win32,60.60606061,,,,,,,,,,,,,,,,,,,,,,,,,,,950,,,,,,,,,,,,,,,,,,,,,4,4,,,384.8077,14,left,0.1343,,0.5,0.3,"[1,2,3]",0.264970172,stimuli/card_100_transparent.png,100,14,0,14,0,1,,,,,,,,,,
,,,,6441a242a7d85d5c3e49a173,A,2024-07-02_12h02.14.593,Slot Machine Game,2023.1.3,Win32,60.60606061,,,,,,,,,,,,,,,,,,,,,,,,,,,,,,,,,,,386.2744,,,,,,,,,,,,,,,,,,,,,,,,,,,,,,,,,"[1130,840,1310,950]",3,0,3,0,1,,,,
,,,,6441a242a7d85d5c3e49a173,A,2024-07-02_12h02.14.593,Slot Machine Game,2023.1.3,Win32,60.60606061,,,,,,,,,,,,,,,,,,,,,,,,,,,0,,,,,,,,,,,,,,,,,,,,,5,5,"[5,15]","[[1,2,3],[3,1,2]]",391.2816,0,right,0.237,,0.5,0.3,"[1,2,3]",0.420515437,stimuli/card_0_transparent.png,0,0,0,0,0,1,,,,,,,,,,
,,,,6441a242a7d85d5c3e49a173,A,2024-07-02_12h02.14.593,Slot Machine Game,2023.1.3,Win32,60.60606061,,,,,,,,,,,,,,,,,,,,,,,,,,,100,,,,,,,,,,,,,,,,,,,,,5,5,,,392.8409,1,left,0.0965,,0.5,0.3,"[1,2,3]",0.40163186,stimuli/card_100_transparent.png,100,1,0,1,0,1,,,,,,,,,,
,,,,6441a242a7d85d5c3e49a173,A,2024-07-02_12h02.14.593,Slot Machine Game,2023.1.3,Win32,60.60606061,,,,,,,,,,,,,,,,,,,,,,,,,,,200,,,,,,,,,,,,,,,,,,,,,5,5,,,394.2408,2,left,0.1102,,0.5,0.3,"[1,2,3]",0.877357924,stimuli/card_100_transparent.png,100,2,0,2,0,1,,,,,,,,,,
,,,,6441a242a7d85d5c3e49a173,A,2024-07-02_12h02.14.593,Slot Machine Game,2023.1.3,Win32,60.60606061,,,,,,,,,,,,,,,,,,,,,,,,,,,300,,,,,,,,,,,,,,,,,,,,,5,5,,,395.6576,3,left,0.0174,,0.5,0.3,"[1,2,3]",0.279672586,stimuli/card_100_transparent.png,100,3,0,3,0,1,,,,,,,,,,
,,,,6441a242a7d85d5c3e49a173,A,2024-07-02_12h02.14.593,Slot Machine Game,2023.1.3,Win32,60.60606061,,,,,,,,,,,,,,,,,,,,,,,,,,,400,,,,,,,,,,,,,,,,,,,,,5,5,,,397.0076,4,left,0.1438,,1.5,0.3,"[1,2,3]",0.98004122,stimuli/card_100_transparent.png,100,4,0,4,0,1,,,,,,,,,,
,,,,6441a242a7d85d5c3e49a173,A,2024-07-02_12h02.14.593,Slot Machine Game,2023.1.3,Win32,60.60606061,,,,,,,,,,,,,,,,,,,,,,,,,,,400,,,,,,,,,,,,,,,,,,,,,5,5,,,399.4744,5,left,0.0937,,1.5,0.3,"[3,1,2]",0.305099135,stimuli/card_0_transparent.png,0,5,0,5,0,1,,,,,,,,,,
,,,,6441a242a7d85d5c3e49a173,A,2024-07-02_12h02.14.593,Slot Machine Game,2023.1.3,Win32,60.60606061,,,,,,,,,,,,,,,,,,,,,,,,,,,500,,,,,,,,,,,,,,,,,,,,,5,5,,,401.8909,6,left,0.5053,,0.5,0.3,"[3,1,2]",0.078185834,stimuli/card_100_transparent.png,100,6,0,6,0,1,,,,,,,,,,
,,,,6441a242a7d85d5c3e49a173,A,2024-07-02_12h02.14.593,Slot Machine Game,2023.1.3,Win32,60.60606061,,,,,,,,,,,,,,,,,,,,,,,,,,,600,,,,,,,,,,,,,,,,,,,,,5,5,,,403.7243,7,left,0.1336,,1.5,0.3,"[3,1,2]",0.073723278,stimuli/card_100_transparent.png,100,7,0,7,0,1,,,,,,,,,,
,,,,6441a242a7d85d5c3e49a173,A,2024-07-02_12h02.14.593,Slot Machine Game,2023.1.3,Win32,60.60606061,,,,,,,,,,,,,,,,,,,,,,,,,,,600,,,,,,,,,,,,,,,,,,,,,5,5,,,406.1908,8,left,0.1504,,1.5,0.3,"[3,1,2]",0.323044484,stimuli/card_0_transparent.png,0,8,0,8,0,1,,,,,,,,,,
,,,,6441a242a7d85d5c3e49a173,A,2024-07-02_12h02.14.593,Slot Machine Game,2023.1.3,Win32,60.60606061,,,,,,,,,,,,,,,,,,,,,,,,,,,600,,,,,,,,,,,,,,,,,,,,,5,5,,,408.6742,9,left,0.1904,,0.5,0.3,"[3,1,2]",0.279100205,stimuli/card_0_transparent.png,0,9,0,9,0,1,,,,,,,,,,
,,,,6441a242a7d85d5c3e49a173,A,2024-07-02_12h02.14.593,Slot Machine Game,2023.1.3,Win32,60.60606061,,,,,,,,,,,,,,,,,,,,,,,,,,,700,,,,,,,,,,,,,,,,,,,,,5,5,,,410.1745,10,up,0.27,,1.5,0.3,"[3,1,2]",0.916806731,stimuli/card_100_transparent.png,100,10,0,10,0,1,,,,,,,,,,
,,,,6441a242a7d85d5c3e49a173,A,2024-07-02_12h02.14.593,Slot Machine Game,2023.1.3,Win32,60.60606061,,,,,,,,,,,,,,,,,,,,,,,,,,,700,,,,,,,,,,,,,,,,,,,,,5,5,,,412.7743,11,up,0.0499,,1.5,0.3,"[3,1,2]",0.040086278,stimuli/card_0_transparent.png,0,11,0,11,0,1,,,,,,,,,,
,,,,6441a242a7d85d5c3e49a173,A,2024-07-02_12h02.14.593,Slot Machine Game,2023.1.3,Win32,60.60606061,,,,,,,,,,,,,,,,,,,,,,,,,,,800,,,,,,,,,,,,,,,,,,,,,5,5,,,415.1407,12,up,0.1279,,1.5,0.3,"[3,1,2]",0.582848489,stimuli/card_100_transparent.png,100,12,0,12,0,1,,,,,,,,,,
,,,,6441a242a7d85d5c3e49a173,A,2024-07-02_12h02.14.593,Slot Machine Game,2023.1.3,Win32,60.60606061,,,,,,,,,,,,,,,,,,,,,,,,,,,900,,,,,,,,,,,,,,,,,,,,,5,5,,,417.5744,13,up,0.1837,,1.5,0.3,"[3,1,2]",0.91673264,stimuli/card_100_transparent.png,100,13,0,13,0,1,,,,,,,,,,
,,,,6441a242a7d85d5c3e49a173,A,2024-07-02_12h02.14.593,Slot Machine Game,2023.1.3,Win32,60.60606061,,,,,,,,,,,,,,,,,,,,,,,,,,,1000,,,,,,,,,,,,,,,,,,,,,5,5,,,420.0907,14,up,0.031,,0.5,0.3,"[3,1,2]",0.456138564,stimuli/card_100_transparent.png,100,14,0,14,0,1,,,,,,,,,,
,,,,6441a242a7d85d5c3e49a173,A,2024-07-02_12h02.14.593,Slot Machine Game,2023.1.3,Win32,60.60606061,,,,,,,,,,,,,,,,,,,,,,,,,,,,,,,,,,,421.4241,,,,,,,,,,,,,,,,,,,,,,,,,,,,,,,,,"[1130,840,1310,950,1000]",4,0,4,0,1,,,,
,,,,6441a242a7d85d5c3e49a173,A,2024-07-02_12h02.14.593,Slot Machine Game,2023.1.3,Win32,60.60606061,,,,,,,,,,,,,,,,,,,,,,,,,,,10,,,,,,,,,,,,,,,,,,,,,6,6,"[4,10,15]","[[2,3,1],[1,3,2],[3,2,1]]",426.4315,0,up,0.2347,,1,0.3,"[2,3,1]",0.148164484,stimuli/card_10_transparent.png,10,0,0,0,0,1,,,,,,,,,,
,,,,6441a242a7d85d5c3e49a173,A,2024-07-02_12h02.14.593,Slot Machine Game,2023.1.3,Win32,60.60606061,,,,,,,,,,,,,,,,,,,,,,,,,,,110,,,,,,,,,,,,,,,,,,,,,6,6,,,428.4907,1,right,0.3452,,0.5,0.3,"[2,3,1]",0.595497209,stimuli/card_100_transparent.png,100,1,0,1,0,1,,,,,,,,,,
,,,,6441a242a7d85d5c3e49a173,A,2024-07-02_12h02.14.593,Slot Machine Game,2023.1.3,Win32,60.60606061,,,,,,,,,,,,,,,,,,,,,,,,,,,210,,,,,,,,,,,,,,,,,,,,,6,6,,,430.1574,2,right,0.1197,,1.5,0.3,"[2,3,1]",0.241475395,stimuli/card_100_transparent.png,100,2,0,2,0,1,,,,,,,,,,
,,,,6441a242a7d85d5c3e49a173,A,2024-07-02_12h02.14.593,Slot Machine Game,2023.1.3,Win32,60.60606061,,,,,,,,,,,,,,,,,,,,,,,,,,,310,,,,,,,,,,,,,,,,,,,,,6,6,,,432.6077,3,right,0.0767,,0.5,0.3,"[2,3,1]",0.727431025,stimuli/card_100_transparent.png,100,3,0,3,0,1,,,,,,,,,,
,,,,6441a242a7d85d5c3e49a173,A,2024-07-02_12h02.14.593,Slot Machine Game,2023.1.3,Win32,60.60606061,,,,,,,,,,,,,,,,,,,,,,,,,,,320,,,,,,,,,,,,,,,,,,,,,6,6,,,434.0074,4,right,0.1312,,0.5,0.3,"[1,3,2]",0.99224938,stimuli/card_10_transparent.png,10,4,0,4,0,1,,,,,,,,,,
,,,,6441a242a7d85d5c3e49a173,A,2024-07-02_12h02.14.593,Slot Machine Game,2023.1.3,Win32,60.60606061,,,,,,,,,,,,,,,,,,,,,,,,,,,330,,,,,,,,,,,,,,,,,,,,,6,6,,,435.4409,5,right,0.4098,,1,0.3,"[1,3,2]",0.530100113,stimuli/card_10_transparent.png,10,5,0,5,0,1,,,,,,,,,,
,,,,6441a242a7d85d5c3e49a173,A,2024-07-02_12h02.14.593,Slot Machine Game,2023.1.3,Win32,60.60606061,,,,,,,,,,,,,,,,,,,,,,,,,,,330,,,,,,,,,,,,,,,,,,,,,6,6,,,437.6743,6,up,0.5948,,0.5,0.3,"[1,3,2]",0.833147466,stimuli/card_0_transparent.png,0,6,0,6,0,1,,,,,,,,,,
,,,,6441a242a7d85d5c3e49a173,A,2024-07-02_12h02.14.593,Slot Machine Game,2023.1.3,Win32,60.60606061,,,,,,,,,,,,,,,,,,,,,,,,,,,430,,,,,,,,,,,,,,,,,,,,,6,6,,,439.5907,7,left,0.0522,,0.5,0.3,"[1,3,2]",0.396138634,stimuli/card_100_transparent.png,100,7,0,7,0,1,,,,,,,,,,
,,,,6441a242a7d85d5c3e49a173,A,2024-07-02_12h02.14.593,Slot Machine Game,2023.1.3,Win32,60.60606061,,,,,,,,,,,,,,,,,,,,,,,,,,,530,,,,,,,,,,,,,,,,,,,,,6,6,,,440.974,8,left,0.1071,,1.5,0.3,"[1,3,2]",0.47322153,stimuli/card_100_transparent.png,100,8,0,8,0,1,,,,,,,,,,
,,,,6441a242a7d85d5c3e49a173,A,2024-07-02_12h02.14.593,Slot Machine Game,2023.1.3,Win32,60.60606061,,,,,,,,,,,,,,,,,,,,,,,,,,,630,,,,,,,,,,,,,,,,,,,,,6,6,,,443.4073,9,left,0.0111,,1,0.3,"[1,3,2]",0.767017275,stimuli/card_100_transparent.png,100,9,0,9,0,1,,,,,,,,,,
,,,,6441a242a7d85d5c3e49a173,A,2024-07-02_12h02.14.593,Slot Machine Game,2023.1.3,Win32,60.60606061,,,,,,,,,,,,,,,,,,,,,,,,,,,630,,,,,,,,,,,,,,,,,,,,,6,6,,,445.2407,10,left,0.1391,,0.5,0.3,"[3,2,1]",0.377438626,stimuli/card_0_transparent.png,0,10,0,10,0,1,,,,,,,,,,
,,,,6441a242a7d85d5c3e49a173,A,2024-07-02_12h02.14.593,Slot Machine Game,2023.1.3,Win32,60.60606061,,,,,,,,,,,,,,,,,,,,,,,,,,,630,,,,,,,,,,,,,,,,,,,,,6,6,,,446.7073,11,left,0.3993,,1,0.3,"[3,2,1]",0.387387474,stimuli/card_0_transparent.png,0,11,0,11,0,1,,,,,,,,,,
,,,,6441a242a7d85d5c3e49a173,A,2024-07-02_12h02.14.593,Slot Machine Game,2023.1.3,Win32,60.60606061,,,,,,,,,,,,,,,,,,,,,,,,,,,640,,,,,,,,,,,,,,,,,,,,,6,6,,,448.9407,12,up,0.1268,,0.5,0.3,"[3,2,1]",0.668956102,stimuli/card_10_transparent.png,10,12,0,12,0,1,,,,,,,,,,
,,,,6441a242a7d85d5c3e49a173,A,2024-07-02_12h02.14.593,Slot Machine Game,2023.1.3,Win32,60.60606061,,,,,,,,,,,,,,,,,,,,,,,,,,,740,,,,,,,,,,,,,,,,,,,,,6,6,,,450.3742,13,right,0.4009,,0.5,0.3,"[3,2,1]",0.335448606,stimuli/card_100_transparent.png,100,13,0,13,0,1,,,,,,,,,,
,,,,6441a242a7d85d5c3e49a173,A,2024-07-02_12h02.14.593,Slot Machine Game,2023.1.3,Win32,60.60606061,,,,,,,,,,,,,,,,,,,,,,,,,,,840,,,,,,,,,,,,,,,,,,,,,6,6,,,452.1074,14,right,0.0113,,1.5,0.3,"[3,2,1]",0.217859567,stimuli/card_100_transparent.png,100,14,0,14,0,1,,,,,,,,,,
,,,,6441a242a7d85d5c3e49a173,A,2024-07-02_12h02.14.593,Slot Machine Game,2023.1.3,Win32,60.60606061,,,,,,,,,,,,,,,,,,,,,,,,,,,,,,,,,,,454.4407,,,,,,,,,,,,,,,,,,,,,,,,,,,,,,,,,"[1130,840,1310,950,1000,840]",5,0,5,0,1,,,,
,,,,6441a242a7d85d5c3e49a173,A,2024-07-02_12h02.14.593,Slot Machine Game,2023.1.3,Win32,60.60606061,,,,,,,,,,,,,,,,,,,,,,,,,,,10,,,,,,,,,,,,,,,,,,,,,7,7,"[9,15]","[[1,3,2],[2,3,1]]",459.4481,0,right,0.1344,,1.5,0.3,"[1,3,2]",0.623932283,stimuli/card_10_transparent.png,10,0,0,0,0,1,,,,,,,,,,
,,,,6441a242a7d85d5c3e49a173,A,2024-07-02_12h02.14.593,Slot Machine Game,2023.1.3,Win32,60.60606061,,,,,,,,,,,,,,,,,,,,,,,,,,,110,,,,,,,,,,,,,,,,,,,,,7,7,,,461.9074,1,left,0.2568,,1.5,0.3,"[1,3,2]",0.39986744,stimuli/card_100_transparent.png,100,1,0,1,0,1,,,,,,,,,,
,,,,6441a242a7d85d5c3e49a173,A,2024-07-02_12h02.14.593,Slot Machine Game,2023.1.3,Win32,60.60606061,,,,,,,,,,,,,,,,,,,,,,,,,,,210,,,,,,,,,,,,,,,,,,,,,7,7,,,464.4906,2,left,0.0508,,1,0.3,"[1,3,2]",0.514099786,stimuli/card_100_transparent.png,100,2,0,2,0,1,,,,,,,,,,
,,,,6441a242a7d85d5c3e49a173,A,2024-07-02_12h02.14.593,Slot Machine Game,2023.1.3,Win32,60.60606061,,,,,,,,,,,,,,,,,,,,,,,,,,,310,,,,,,,,,,,,,,,,,,,,,7,7,,,466.374,3,left,0.0123,,1,0.3,"[1,3,2]",0.436329535,stimuli/card_100_transparent.png,100,3,0,3,0,1,,,,,,,,,,
,,,,6441a242a7d85d5c3e49a173,A,2024-07-02_12h02.14.593,Slot Machine Game,2023.1.3,Win32,60.60606061,,,,,,,,,,,,,,,,,,,,,,,,,,,410,,,,,,,,,,,,,,,,,,,,,7,7,,,468.1908,4,left,0.1352,,1,0.3,"[1,3,2]",0.827660944,stimuli/card_100_transparent.png,100,4,0,4,0,1,,,,,,,,,,
,,,,6441a242a7d85d5c3e49a173,A,2024-07-02_12h02.14.593,Slot Machine Game,2023.1.3,Win32,60.60606061,,,,,,,,,,,,,,,,,,,,,,,,,,,510,,,,,,,,,,,,,,,,,,,,,7,7,,,470.1573,5,left,0.0339,,1.5,0.3,"[1,3,2]",0.744075278,stimuli/card_100_transparent.png,100,5,0,5,0,1,,,,,,,,,,
,,,,6441a242a7d85d5c3e49a173,A,2024-07-02_12h02.14.593,Slot Machine Game,2023.1.3,Win32,60.60606061,,,,,,,,,,,,,,,,,,,,,,,,,,,610,,,,,,,,,,,,,,,,,,,,,7,7,,,472.5239,6,left,0.1192,,0.5,0.3,"[1,3,2]",0.97823883,stimuli/card_100_transparent.png,100,6,0,6,0,1,,,,,,,,,,
,,,,6441a242a7d85d5c3e49a173,A,2024-07-02_12h02.14.593,Slot Machine Game,2023.1.3,Win32,60.60606061,,,,,,,,,,,,,,,,,,,,,,,,,,,620,,,,,,,,,,,,,,,,,,,,,7,7,,,473.9739,7,left,0.0039,,1,0.3,"[1,3,2]",0.186664899,stimuli/card_10_transparent.png,10,7,0,7,0,1,,,,,,,,,,
,,,,6441a242a7d85d5c3e49a173,A,2024-07-02_12h02.14.593,Slot Machine Game,2023.1.3,Win32,60.60606061,,,,,,,,,,,,,,,,,,,,,,,,,,,720,,,,,,,,,,,,,,,,,,,,,7,7,,,475.8072,8,left,0.0053,,0.5,0.3,"[1,3,2]",0.499741086,stimuli/card_100_transparent.png,100,8,0,8,0,1,,,,,,,,,,
,,,,6441a242a7d85d5c3e49a173,A,2024-07-02_12h02.14.593,Slot Machine Game,2023.1.3,Win32,60.60606061,,,,,,,,,,,,,,,,,,,,,,,,,,,720,,,,,,,,,,,,,,,,,,,,,7,7,,,477.1406,9,left,0.1356,,1,0.3,"[2,3,1]",0.044779185,stimuli/card_0_transparent.png,0,9,0,9,0,1,,,,,,,,,,
,,,,6441a242a7d85d5c3e49a173,A,2024-07-02_12h02.14.593,Slot Machine Game,2023.1.3,Win32,60.60606061,,,,,,,,,,,,,,,,,,,,,,,,,,,730,,,,,,,,,,,,,,,,,,,,,7,7,,,479.1072,10,left,0.0707,,0.5,0.3,"[2,3,1]",0.78328115,stimuli/card_10_transparent.png,10,10,0,10,0,1,,,,,,,,,,
,,,,6441a242a7d85d5c3e49a173,A,2024-07-02_12h02.14.593,Slot Machine Game,2023.1.3,Win32,60.60606061,,,,,,,,,,,,,,,,,,,,,,,,,,,740,,,,,,,,,,,,,,,,,,,,,7,7,,,480.5072,11,up,0.1168,,0.5,0.3,"[2,3,1]",0.179195521,stimuli/card_10_transparent.png,10,11,0,11,0,1,,,,,,,,,,
,,,,6441a242a7d85d5c3e49a173,A,2024-07-02_12h02.14.593,Slot Machine Game,2023.1.3,Win32,60.60606061,,,,,,,,,,,,,,,,,,,,,,,,,,,740,,,,,,,,,,,,,,,,,,,,,7,7,,,481.9571,12,up,0.7949,,1,0.3,"[2,3,1]",0.564188221,stimuli/card_0_transparent.png,0,12,0,12,0,1,,,,,,,,,,
,,,,6441a242a7d85d5c3e49a173,A,2024-07-02_12h02.14.593,Slot Machine Game,2023.1.3,Win32,60.60606061,,,,,,,,,,,,,,,,,,,,,,,,,,,750,,,,,,,,,,,,,,,,,,,,,7,7,,,484.5738,13,right,0.0552,,1,0.3,"[2,3,1]",0.162706987,stimuli/card_10_transparent.png,10,13,0,13,0,1,,,,,,,,,,
,,,,6441a242a7d85d5c3e49a173,A,2024-07-02_12h02.14.593,Slot Machine Game,2023.1.3,Win32,60.60606061,,,,,,,,,,,,,,,,,,,,,,,,,,,850,,,,,,,,,,,,,,,,,,,,,7,7,,,486.4406,14,right,0.4562,,1.5,0.3,"[2,3,1]",0.531828797,stimuli/card_100_transparent.png,100,14,0,14,0,1,,,,,,,,,,
,,,,6441a242a7d85d5c3e49a173,A,2024-07-02_12h02.14.593,Slot Machine Game,2023.1.3,Win32,60.60606061,,,,,,,,,,,,,,,,,,,,,,,,,,,,,,,,,,,489.2239,,,,,,,,,,,,,,,,,,,,,,,,,,,,,,,,,"[1130,840,1310,950,1000,840,850]",6,0,6,0,1,,,,
,,,,6441a242a7d85d5c3e49a173,A,2024-07-02_12h02.14.593,Slot Machine Game,2023.1.3,Win32,60.60606061,,,,,,,,,,,,,,,,,,,,,,,,,,,10,,,,,,,,,,,,,,,,,,,,,8,8,"[11,15]","[[2,1,3],[1,2,3]]",494.2312,0,right,0.3227,,1.5,0.3,"[2,1,3]",0.184949318,stimuli/card_10_transparent.png,10,0,0,0,0,1,,,,,,,,,,
,,,,6441a242a7d85d5c3e49a173,A,2024-07-02_12h02.14.593,Slot Machine Game,2023.1.3,Win32,60.60606061,,,,,,,,,,,,,,,,,,,,,,,,,,,20,,,,,,,,,,,,,,,,,,,,,8,8,,,496.8739,1,left,0.2844,,0.5,0.3,"[2,1,3]",0.730644445,stimuli/card_10_transparent.png,10,1,0,1,0,1,,,,,,,,,,
,,,,6441a242a7d85d5c3e49a173,A,2024-07-02_12h02.14.593,Slot Machine Game,2023.1.3,Win32,60.60606061,,,,,,,,,,,,,,,,,,,,,,,,,,,120,,,,,,,,,,,,,,,,,,,,,8,8,,,498.4905,2,up,0.0193,,0.5,0.3,"[2,1,3]",0.512879425,stimuli/card_100_transparent.png,100,2,0,2,0,1,,,,,,,,,,
,,,,6441a242a7d85d5c3e49a173,A,2024-07-02_12h02.14.593,Slot Machine Game,2023.1.3,Win32,60.60606061,,,,,,,,,,,,,,,,,,,,,,,,,,,220,,,,,,,,,,,,,,,,,,,,,8,8,,,499.8406,3,up,0.0714,,1,0.3,"[2,1,3]",0.34867948,stimuli/card_100_transparent.png,100,3,0,3,0,1,,,,,,,,,,
,,,,6441a242a7d85d5c3e49a173,A,2024-07-02_12h02.14.593,Slot Machine Game,2023.1.3,Win32,60.60606061,,,,,,,,,,,,,,,,,,,,,,,,,,,320,,,,,,,,,,,,,,,,,,,,,8,8,,,501.7404,4,up,0.0498,,1.5,0.3,"[2,1,3]",0.315758695,stimuli/card_100_transparent.png,100,4,0,4,0,1,,,,,,,,,,
,,,,6441a242a7d85d5c3e49a173,A,2024-07-02_12h02.14.593,Slot Machine Game,2023.1.3,Win32,60.60606061,,,,,,,,,,,,,,,,,,,,,,,,,,,420,,,,,,,,,,,,,,,,,,,,,8,8,,,504.1237,5,up,0.0673,,1,0.3,"[2,1,3]",0.862963456,stimuli/card_100_transparent.png,100,5,0,5,0,1,,,,,,,,,,
,,,,6441a242a7d85d5c3e49a173,A,2024-07-02_12h02.14.593,Slot Machine Game,2023.1.3,Win32,60.60606061,,,,,,,,,,,,,,,,,,,,,,,,,,,520,,,,,,,,,,,,,,,,,,,,,8,8,,,506.0241,6,up,0.0238,,1.5,0.3,"[2,1,3]",0.448152313,stimuli/card_100_transparent.png,100,6,0,6,0,1,,,,,,,,,,
,,,,6441a242a7d85d5c3e49a173,A,2024-07-02_12h02.14.593,Slot Machine Game,2023.1.3,Win32,60.60606061,,,,,,,,,,,,,,,,,,,,,,,,,,,620,,,,,,,,,,,,,,,,,,,,,8,8,,,508.3738,7,up,0.1259,,1,0.3,"[2,1,3]",0.650600705,stimuli/card_100_transparent.png,100,7,0,7,0,1,,,,,,,,,,
,,,,6441a242a7d85d5c3e49a173,A,2024-07-02_12h02.14.593,Slot Machine Game,2023.1.3,Win32,60.60606061,,,,,,,,,,,,,,,,,,,,,,,,,,,720,,,,,,,,,,,,,,,,,,,,,8,8,,,510.3238,8,up,0.1526,,0.5,0.3,"[2,1,3]",0.337052087,stimuli/card_100_transparent.png,100,8,0,8,0,1,,,,,,,,,,
,,,,6441a242a7d85d5c3e49a173,A,2024-07-02_12h02.14.593,Slot Machine Game,2023.1.3,Win32,60.60606061,,,,,,,,,,,,,,,,,,,,,,,,,,,820,,,,,,,,,,,,,,,,,,,,,8,8,,,511.807,9,up,0.05,,0.5,0.3,"[2,1,3]",0.229934246,stimuli/card_100_transparent.png,100,9,0,9,0,1,,,,,,,,,,
,,,,6441a242a7d85d5c3e49a173,A,2024-07-02_12h02.14.593,Slot Machine Game,2023.1.3,Win32,60.60606061,,,,,,,,,,,,,,,,,,,,,,,,,,,920,,,,,,,,,,,,,,,,,,,,,8,8,,,513.1904,10,up,0.0707,,0.5,0.3,"[2,1,3]",0.853366231,stimuli/card_100_transparent.png,100,10,0,10,0,1,,,,,,,,,,
,,,,6441a242a7d85d5c3e49a173,A,2024-07-02_12h02.14.593,Slot Machine Game,2023.1.3,Win32,60.60606061,,,,,,,,,,,,,,,,,,,,,,,,,,,930,,,,,,,,,,,,,,,,,,,,,8,8,,,514.5904,11,up,0.0629,,1,0.3,"[1,2,3]",0.597413556,stimuli/card_10_transparent.png,10,11,0,11,0,1,,,,,,,,,,
,,,,6441a242a7d85d5c3e49a173,A,2024-07-02_12h02.14.593,Slot Machine Game,2023.1.3,Win32,60.60606061,,,,,,,,,,,,,,,,,,,,,,,,,,,940,,,,,,,,,,,,,,,,,,,,,8,8,,,516.4739,12,up,0.663,,1.5,0.3,"[1,2,3]",0.345189957,stimuli/card_10_transparent.png,10,12,0,12,0,1,,,,,,,,,,
,,,,6441a242a7d85d5c3e49a173,A,2024-07-02_12h02.14.593,Slot Machine Game,2023.1.3,Win32,60.60606061,,,,,,,,,,,,,,,,,,,,,,,,,,,940,,,,,,,,,,,,,,,,,,,,,8,8,,,519.4571,13,right,0.3634,,1,0.3,"[1,2,3]",0.390935928,stimuli/card_0_transparent.png,0,13,0,13,0,1,,,,,,,,,,
,,,,6441a242a7d85d5c3e49a173,A,2024-07-02_12h02.14.593,Slot Machine Game,2023.1.3,Win32,60.60606061,,,,,,,,,,,,,,,,,,,,,,,,,,,1040,,,,,,,,,,,,,,,,,,,,,8,8,,,521.6238,14,left,0.0118,,1.5,0.3,"[1,2,3]",0.604035977,stimuli/card_100_transparent.png,100,14,0,14,0,1,,,,,,,,,,
,,,,6441a242a7d85d5c3e49a173,A,2024-07-02_12h02.14.593,Slot Machine Game,2023.1.3,Win32,60.60606061,,,,,,,,,,,,,,,,,,,,,,,,,,,,,,,,,,,523.957,,,,,,,,,,,,,,,,,,,,,,,,,,,,,,,,,"[1130,840,1310,950,1000,840,850,1040]",7,0,7,0,1,,,,
,,,,6441a242a7d85d5c3e49a173,A,2024-07-02_12h02.14.593,Slot Machine Game,2023.1.3,Win32,60.60606061,,,,,,,,,,,,,,,,,,,,,,,,,,,0,,,,,,,,,,,,,,,,,,,,,9,9,"[8,15]","[[3,2,1],[3,1,2]]",528.964,0,left,0.1727,,0.5,0.3,"[3,2,1]",0.763216053,stimuli/card_0_transparent.png,0,0,0,0,0,1,,,,,,,,,,
,,,,6441a242a7d85d5c3e49a173,A,2024-07-02_12h02.14.593,Slot Machine Game,2023.1.3,Win32,60.60606061,,,,,,,,,,,,,,,,,,,,,,,,,,,10,,,,,,,,,,,,,,,,,,,,,9,9,,,530.457,1,up,0.2048,,1,0.3,"[3,2,1]",0.824429332,stimuli/card_10_transparent.png,10,1,0,1,0,1,,,,,,,,,,
,,,,6441a242a7d85d5c3e49a173,A,2024-07-02_12h02.14.593,Slot Machine Game,2023.1.3,Win32,60.60606061,,,,,,,,,,,,,,,,,,,,,,,,,,,110,,,,,,,,,,,,,,,,,,,,,9,9,,,532.4904,2,right,0.1202,,0.5,0.3,"[3,2,1]",0.839891438,stimuli/card_100_transparent.png,100,2,0,2,0,1,,,,,,,,,,
,,,,6441a242a7d85d5c3e49a173,A,2024-07-02_12h02.14.593,Slot Machine Game,2023.1.3,Win32,60.60606061,,,,,,,,,,,,,,,,,,,,,,,,,,,210,,,,,,,,,,,,,,,,,,,,,9,9,,,533.9237,3,right,0.0789,,1.5,0.3,"[3,2,1]",0.560747256,stimuli/card_100_transparent.png,100,3,0,3,0,1,,,,,,,,,,
,,,,6441a242a7d85d5c3e49a173,A,2024-07-02_12h02.14.593,Slot Machine Game,2023.1.3,Win32,60.60606061,,,,,,,,,,,,,,,,,,,,,,,,,,,310,,,,,,,,,,,,,,,,,,,,,9,9,,,536.3237,4,right,0.0775,,1,0.3,"[3,2,1]",0.464145472,stimuli/card_100_transparent.png,100,4,0,4,0,1,,,,,,,,,,
,,,,6441a242a7d85d5c3e49a173,A,2024-07-02_12h02.14.593,Slot Machine Game,2023.1.3,Win32,60.60606061,,,,,,,,,,,,,,,,,,,,,,,,,,,410,,,,,,,,,,,,,,,,,,,,,9,9,,,538.2237,5,right,0.0124,,1.5,0.3,"[3,2,1]",0.341825589,stimuli/card_100_transparent.png,100,5,0,5,0,1,,,,,,,,,,
,,,,6441a242a7d85d5c3e49a173,A,2024-07-02_12h02.14.593,Slot Machine Game,2023.1.3,Win32,60.60606061,,,,,,,,,,,,,,,,,,,,,,,,,,,510,,,,,,,,,,,,,,,,,,,,,9,9,,,540.5404,6,right,0.0591,,1.5,0.3,"[3,2,1]",0.93555647,stimuli/card_100_transparent.png,100,6,0,6,0,1,,,,,,,,,,
,,,,6441a242a7d85d5c3e49a173,A,2024-07-02_12h02.14.593,Slot Machine Game,2023.1.3,Win32,60.60606061,,,,,,,,,,,,,,,,,,,,,,,,,,,520,,,,,,,,,,,,,,,,,,,,,9,9,,,542.9237,7,right,0.1121,,1.5,0.3,"[3,2,1]",0.185282881,stimuli/card_10_transparent.png,10,7,0,7,0,1,,,,,,,,,,
,,,,6441a242a7d85d5c3e49a173,A,2024-07-02_12h02.14.593,Slot Machine Game,2023.1.3,Win32,60.60606061,,,,,,,,,,,,,,,,,,,,,,,,,,,520,,,,,,,,,,,,,,,,,,,,,9,9,,,545.357,8,right,0.2047,,0.5,0.3,"[3,1,2]",0.03668849,stimuli/card_0_transparent.png,0,8,0,8,0,1,,,,,,,,,,
,,,,6441a242a7d85d5c3e49a173,A,2024-07-02_12h02.14.593,Slot Machine Game,2023.1.3,Win32,60.60606061,,,,,,,,,,,,,,,,,,,,,,,,,,,620,,,,,,,,,,,,,,,,,,,,,9,9,,,546.8904,9,up,0.4542,,0.5,0.3,"[3,1,2]",0.262916138,stimuli/card_100_transparent.png,100,9,0,9,0,1,,,,,,,,,,
,,,,6441a242a7d85d5c3e49a173,A,2024-07-02_12h02.14.593,Slot Machine Game,2023.1.3,Win32,60.60606061,,,,,,,,,,,,,,,,,,,,,,,,,,,720,,,,,,,,,,,,,,,,,,,,,9,9,,,548.6736,10,up,0.0307,,1.5,0.3,"[3,1,2]",0.621294281,stimuli/card_100_transparent.png,100,10,0,10,0,1,,,,,,,,,,
,,,,6441a242a7d85d5c3e49a173,A,2024-07-02_12h02.14.593,Slot Machine Game,2023.1.3,Win32,60.60606061,,,,,,,,,,,,,,,,,,,,,,,,,,,820,,,,,,,,,,,,,,,,,,,,,9,9,,,551.007,11,up,0.3897,,1.5,0.3,"[3,1,2]",0.447577003,stimuli/card_100_transparent.png,100,11,0,11,0,1,,,,,,,,,,
,,,,6441a242a7d85d5c3e49a173,A,2024-07-02_12h02.14.593,Slot Machine Game,2023.1.3,Win32,60.60606061,,,,,,,,,,,,,,,,,,,,,,,,,,,920,,,,,,,,,,,,,,,,,,,,,9,9,,,553.7236,12,up,0.0038,,1,0.3,"[3,1,2]",0.589657751,stimuli/card_100_transparent.png,100,12,0,12,0,1,,,,,,,,,,
,,,,6441a242a7d85d5c3e49a173,A,2024-07-02_12h02.14.593,Slot Machine Game,2023.1.3,Win32,60.60606061,,,,,,,,,,,,,,,,,,,,,,,,,,,1020,,,,,,,,,,,,,,,,,,,,,9,9,,,555.5404,13,up,0.0036,,1.5,0.3,"[3,1,2]",0.436051369,stimuli/card_100_transparent.png,100,13,0,13,0,1,,,,,,,,,,
,,,,6441a242a7d85d5c3e49a173,A,2024-07-02_12h02.14.593,Slot Machine Game,2023.1.3,Win32,60.60606061,,,,,,,,,,,,,,,,,,,,,,,,,,,1020,,,,,,,,,,,,,,,,,,,,,9,9,,,557.8736,14,up,0.0817,,0.5,0.3,"[3,1,2]",0.078196793,stimuli/card_0_transparent.png,0,14,0,14,0,1,,,,,,,,,,
,,,,6441a242a7d85d5c3e49a173,A,2024-07-02_12h02.14.593,Slot Machine Game,2023.1.3,Win32,60.60606061,,,,,,,,,,,,,,,,,,,,,,,,,,,,,,,,,,,559.2569,,,,,,,,,,,,,,,,,,,,,,,,,,,,,,,,,"[1130,840,1310,950,1000,840,850,1040,1020]",8,0,8,0,1,,,,
,,,,6441a242a7d85d5c3e49a173,A,2024-07-02_12h02.14.593,Slot Machine Game,2023.1.3,Win32,60.60606061,,,,,,,,,,,,,,,,,,,,,,,,,,,0,,,,,,,,,,,,,,,,,,,,,10,10,"[10,15]","[[3,1,2],[1,3,2]]",564.264,0,left,0.1136,,0.5,0.3,"[3,1,2]",0.508487648,stimuli/card_0_transparent.png,0,0,0,0,0,1,,,,,,,,,,
,,,,6441a242a7d85d5c3e49a173,A,2024-07-02_12h02.14.593,Slot Machine Game,2023.1.3,Win32,60.60606061,,,,,,,,,,,,,,,,,,,,,,,,,,,100,,,,,,,,,,,,,,,,,,,,,10,10,,,565.6904,1,up,0.1571,,0.5,0.3,"[3,1,2]",0.834244762,stimuli/card_100_transparent.png,100,1,0,1,0,1,,,,,,,,,,
,,,,6441a242a7d85d5c3e49a173,A,2024-07-02_12h02.14.593,Slot Machine Game,2023.1.3,Win32,60.60606061,,,,,,,,,,,,,,,,,,,,,,,,,,,200,,,,,,,,,,,,,,,,,,,,,10,10,,,567.1736,2,up,0.0364,,1.5,0.3,"[3,1,2]",0.872096641,stimuli/card_100_transparent.png,100,2,0,2,0,1,,,,,,,,,,
,,,,6441a242a7d85d5c3e49a173,A,2024-07-02_12h02.14.593,Slot Machine Game,2023.1.3,Win32,60.60606061,,,,,,,,,,,,,,,,,,,,,,,,,,,300,,,,,,,,,,,,,,,,,,,,,10,10,,,569.5402,3,up,0.0934,,0.5,0.3,"[3,1,2]",0.929895418,stimuli/card_100_transparent.png,100,3,0,3,0,1,,,,,,,,,,
,,,,6441a242a7d85d5c3e49a173,A,2024-07-02_12h02.14.593,Slot Machine Game,2023.1.3,Win32,60.60606061,,,,,,,,,,,,,,,,,,,,,,,,,,,400,,,,,,,,,,,,,,,,,,,,,10,10,,,570.9569,4,up,2.2304,,1.5,0.3,"[3,1,2]",0.988715637,stimuli/card_100_transparent.png,100,4,0,4,0,1,,,,,,,,,,
,,,,6441a242a7d85d5c3e49a173,A,2024-07-02_12h02.14.593,Slot Machine Game,2023.1.3,Win32,60.60606061,,,,,,,,,,,,,,,,,,,,,,,,,,,500,,,,,,,,,,,,,,,,,,,,,10,10,,,575.5069,5,up,1.7735,,0.5,0.3,"[3,1,2]",0.353252974,stimuli/card_100_transparent.png,100,5,0,5,0,1,,,,,,,,,,
,,,,6441a242a7d85d5c3e49a173,A,2024-07-02_12h02.14.593,Slot Machine Game,2023.1.3,Win32,60.60606061,,,,,,,,,,,,,,,,,,,,,,,,,,,600,,,,,,,,,,,,,,,,,,,,,10,10,,,578.6069,6,up,0.0257,,1,0.3,"[3,1,2]",0.316745839,stimuli/card_100_transparent.png,100,6,0,6,0,1,,,,,,,,,,
,,,,6441a242a7d85d5c3e49a173,A,2024-07-02_12h02.14.593,Slot Machine Game,2023.1.3,Win32,60.60606061,,,,,,,,,,,,,,,,,,,,,,,,,,,700,,,,,,,,,,,,,,,,,,,,,10,10,,,580.4571,7,up,0.008,,1.5,0.3,"[3,1,2]",0.279526827,stimuli/card_100_transparent.png,100,7,0,7,0,1,,,,,,,,,,
,,,,6441a242a7d85d5c3e49a173,A,2024-07-02_12h02.14.593,Slot Machine Game,2023.1.3,Win32,60.60606061,,,,,,,,,,,,,,,,,,,,,,,,,,,710,,,,,,,,,,,,,,,,,,,,,10,10,,,582.7901,8,up,0.0383,,1,0.3,"[3,1,2]",0.148532268,stimuli/card_10_transparent.png,10,8,0,8,0,1,,,,,,,,,,
,,,,6441a242a7d85d5c3e49a173,A,2024-07-02_12h02.14.593,Slot Machine Game,2023.1.3,Win32,60.60606061,,,,,,,,,,,,,,,,,,,,,,,,,,,810,,,,,,,,,,,,,,,,,,,,,10,10,,,584.6568,9,up,0.3863,,1.5,0.3,"[3,1,2]",0.890098744,stimuli/card_100_transparent.png,100,9,0,9,0,1,,,,,,,,,,
,,,,6441a242a7d85d5c3e49a173,A,2024-07-02_12h02.14.593,Slot Machine Game,2023.1.3,Win32,60.60606061,,,,,,,,,,,,,,,,,,,,,,,,,,,810,,,,,,,,,,,,,,,,,,,,,10,10,,,587.3735,10,up,0.0703,,1,0.3,"[1,3,2]",0.780297456,stimuli/card_0_transparent.png,0,10,0,10,0,1,,,,,,,,,,
,,,,6441a242a7d85d5c3e49a173,A,2024-07-02_12h02.14.593,Slot Machine Game,2023.1.3,Win32,60.60606061,,,,,,,,,,,,,,,,,,,,,,,,,,,810,,,,,,,,,,,,,,,,,,,,,10,10,,,589.2735,11,up,0.2424,,1,0.3,"[1,3,2]",0.91297384,stimuli/card_0_transparent.png,0,11,0,11,0,1,,,,,,,,,,
,,,,6441a242a7d85d5c3e49a173,A,2024-07-02_12h02.14.593,Slot Machine Game,2023.1.3,Win32,60.60606061,,,,,,,,,,,,,,,,,,,,,,,,,,,820,,,,,,,,,,,,,,,,,,,,,10,10,,,591.3403,12,right,0.1388,,1,0.3,"[1,3,2]",0.78575078,stimuli/card_10_transparent.png,10,12,0,12,0,1,,,,,,,,,,
,,,,6441a242a7d85d5c3e49a173,A,2024-07-02_12h02.14.593,Slot Machine Game,2023.1.3,Win32,60.60606061,,,,,,,,,,,,,,,,,,,,,,,,,,,920,,,,,,,,,,,,,,,,,,,,,10,10,,,593.3068,13,left,0.37,,1.5,0.3,"[1,3,2]",0.68705211,stimuli/card_100_transparent.png,100,13,0,13,0,1,,,,,,,,,,
,,,,6441a242a7d85d5c3e49a173,A,2024-07-02_12h02.14.593,Slot Machine Game,2023.1.3,Win32,60.60606061,,,,,,,,,,,,,,,,,,,,,,,,,,,1020,,,,,,,,,,,,,,,,,,,,,10,10,,,595.9901,14,left,0.0392,,0.5,0.3,"[1,3,2]",0.610497289,stimuli/card_100_transparent.png,100,14,0,14,0,1,,,,,,,,,,
,,,,6441a242a7d85d5c3e49a173,A,2024-07-02_12h02.14.593,Slot Machine Game,2023.1.3,Win32,60.60606061,,,,,,,,,,,,,,,,,,,,,,,,,,,,,,,,,,,597.3567,,,,,,,,,,,,,,,,,,,,,,,,,,,,,,,,,"[1130,840,1310,950,1000,840,850,1040,1020,1020]",9,0,9,0,1,,,,
,,,,6441a242a7d85d5c3e49a173,A,2024-07-02_12h02.14.593,Slot Machine Game,2023.1.3,Win32,60.60606061,,,,,,,,,,,,,,,,,,,,,,,,,,,,,,,,,,,,,,,,,,,,,,,,,,,,,,,,,,,,,,,,,,,,,,,,,,9,"[1130,840,1310,950,1000,840,850,1040,1020,1020]",8.4,2024-07-02_12h12.21.029
