key_resp_welcome_started,key_resp_welcome_keys,key_resp_welcome_rt,key_resp_welcome_duration,prolific_id,path_id,date,expName,psychopyVersion,OS,frameRate,key_resp_instruction1_started,key_resp_instruction1_keys,key_resp_instruction1_rt,key_resp_instruction1_duration,key_resp_instruction2_started,key_resp_instruction2_keys,key_resp_instruction2_rt,key_resp_instruction2_duration,key_resp_instruction3_started,key_resp_instruction3_keys,key_resp_instruction3_rt,key_resp_instruction3_duration,key_resp_instruction4_started,key_resp_instruction4_keys,key_resp_instruction4_rt,key_resp_instruction4_duration,practiceCondition,practice_reward_seqs,practice_trial_started,practice_trial_num,practice_resp_rt,practice_resp_duration,practice_resp_keys,prac_presentationInterval,"practice_reward_seq: 2,1,3",reward_img,cumulative_reward,trial_reward,practice_trials.thisRepN,practice_trials.thisTrialN,practice_trials.thisN,practice_trials.thisIndex,practice_trials.ran,"practice_reward_seq: 2,3,1",block_break_started,"practice_reward_seq: 1,3,2","practice_reward_seq: 3,1,2",practice_end_time,practice_end_keys,practice_end_rt,practice_end_duration,main_instruction_text_started,block_condition,block_order_indices,main_instruction_keys,main_instruction_rt,main_instruction_duration,block_number,block_assignment,current_condition,main_reward_seqs,main_trial_started,main_trial_num,main_trial_keys,main_trial_rt,main_trial_duration,main_presentationInterval,reward_presentation_time,main_reward_seq,reward_rand_val,main_reward_img,current_reward,main_trials.thisRepN,main_trials.thisTrialN,main_trials.thisN,main_trials.thisIndex,main_trials.ran,block_reward,block.thisRepN,block.thisTrialN,block.thisN,block.thisIndex,block.ran,block_reward.length,block_reward_all,reward_amount,date_end_task
0.0002,space,11.3848,,644e70a29cba8cc79d738a7a,B,2024-06-23_09h10.36.225,Slot Machine Game,2023.1.3,Win32,59.88023952,,,,,,,,,,,,,,,,,,,,,,,,,,,,,,,,,,,,,,,,,,,,,,,,,,,,,,,,,,,,,,,,,,,,,,,,,,,,,
,,,,644e70a29cba8cc79d738a7a,B,2024-06-23_09h10.36.225,Slot Machine Game,2023.1.3,Win32,59.88023952,11.3979,space,8.6927,,,,,,,,,,,,,,,,,,,,,,,,,,,,,,,,,,,,,,,,,,,,,,,,,,,,,,,,,,,,,,,,,,,,,,,,,,
,,,,644e70a29cba8cc79d738a7a,B,2024-06-23_09h10.36.225,Slot Machine Game,2023.1.3,Win32,59.88023952,,,,,20.1219,return,91.1811,,,,,,,,,,,,,,,,,,,,,,,,,,,,,,,,,,,,,,,,,,,,,,,,,,,,,,,,,,,,,,,,,,,,,,
,,,,644e70a29cba8cc79d738a7a,B,2024-06-23_09h10.36.225,Slot Machine Game,2023.1.3,Win32,59.88023952,,,,,,,,,111.3676,return,7.1109,,,,,,,,,,,,,,,,,,,,,,,,,,,,,,,,,,,,,,,,,,,,,,,,,,,,,,,,,,,,,,,,,,
,,,,644e70a29cba8cc79d738a7a,B,2024-06-23_09h10.36.225,Slot Machine Game,2023.1.3,Win32,59.88023952,,,,,,,,,,,,,,,,,,,,,,,,,,,,,,,,,,,,,,,,,,,,,,,,,,,,,,,,,,,,,,,,,,,,,,,,,,,,,
,,,,644e70a29cba8cc79d738a7a,B,2024-06-23_09h10.36.225,Slot Machine Game,2023.1.3,Win32,59.88023952,,,,,,,,,,,,,260.3628,return,2.9852,,,,,,,,,,,,,,,,,,,,,,,,,,,,,,,,,,,,,,,,,,,,,,,,,,,,,,,,,,,,,,
,,,,644e70a29cba8cc79d738a7a,B,2024-06-23_09h10.36.225,Slot Machine Game,2023.1.3,Win32,59.88023952,,,,,,,,,,,,,,,,,"[9,15]","[[2,1,3],[2,3,1]]",263.371,0,0.6514,,up,1,,stimuli/card_100_transparent.png,100,100,0,0,0,0,1,,,,,,,,,,,,,,,,,,,,,,,,,,,,,,,,,,,,,,,,,,,,
,,,,644e70a29cba8cc79d738a7a,B,2024-06-23_09h10.36.225,Slot Machine Game,2023.1.3,Win32,59.88023952,,,,,,,,,,,,,,,,,,,265.8658,1,0.3892,,up,0.5,,stimuli/card_100_transparent.png,200,100,1,0,1,0,1,,,,,,,,,,,,,,,,,,,,,,,,,,,,,,,,,,,,,,,,,,,,
,,,,644e70a29cba8cc79d738a7a,B,2024-06-23_09h10.36.225,Slot Machine Game,2023.1.3,Win32,59.88023952,,,,,,,,,,,,,,,,,,,267.5737,2,0.0352,,up,0.5,,stimuli/card_100_transparent.png,300,100,2,0,2,0,1,,,,,,,,,,,,,,,,,,,,,,,,,,,,,,,,,,,,,,,,,,,,
,,,,644e70a29cba8cc79d738a7a,B,2024-06-23_09h10.36.225,Slot Machine Game,2023.1.3,Win32,59.88023952,,,,,,,,,,,,,,,,,,,268.9415,3,1.3879,,up,1.5,,stimuli/card_100_transparent.png,400,100,3,0,3,0,1,,,,,,,,,,,,,,,,,,,,,,,,,,,,,,,,,,,,,,,,,,,,
,,,,644e70a29cba8cc79d738a7a,B,2024-06-23_09h10.36.225,Slot Machine Game,2023.1.3,Win32,59.88023952,,,,,,,,,,,,,,,,,,,272.6453,4,0.0225,,up,0.5,,stimuli/card_100_transparent.png,500,100,4,0,4,0,1,,,,,,,,,,,,,,,,,,,,,,,,,,,,,,,,,,,,,,,,,,,,
,,,,644e70a29cba8cc79d738a7a,B,2024-06-23_09h10.36.225,Slot Machine Game,2023.1.3,Win32,59.88023952,,,,,,,,,,,,,,,,,,,273.9799,5,1.0186,,up,1,,stimuli/card_100_transparent.png,600,100,5,0,5,0,1,,,,,,,,,,,,,,,,,,,,,,,,,,,,,,,,,,,,,,,,,,,,
,,,,644e70a29cba8cc79d738a7a,B,2024-06-23_09h10.36.225,Slot Machine Game,2023.1.3,Win32,59.88023952,,,,,,,,,,,,,,,,,,,276.8331,6,0.046,,up,0.5,,stimuli/card_10_transparent.png,610,10,6,0,6,0,1,,,,,,,,,,,,,,,,,,,,,,,,,,,,,,,,,,,,,,,,,,,,
,,,,644e70a29cba8cc79d738a7a,B,2024-06-23_09h10.36.225,Slot Machine Game,2023.1.3,Win32,59.88023952,,,,,,,,,,,,,,,,,,,278.2177,7,0.0872,,left,1.5,,stimuli/card_10_transparent.png,620,10,7,0,7,0,1,,,,,,,,,,,,,,,,,,,,,,,,,,,,,,,,,,,,,,,,,,,,
,,,,644e70a29cba8cc79d738a7a,B,2024-06-23_09h10.36.225,Slot Machine Game,2023.1.3,Win32,59.88023952,,,,,,,,,,,,,,,,,,,280.6365,8,0.4345,,right,0.5,,stimuli/card_0_transparent.png,620,0,8,0,8,0,1,,,,,,,,,,,,,,,,,,,,,,,,,,,,,,,,,,,,,,,,,,,,
,,,,644e70a29cba8cc79d738a7a,B,2024-06-23_09h10.36.225,Slot Machine Game,2023.1.3,Win32,59.88023952,,,,,,,,,,,,,,,,,,,282.3877,9,0.0924,,up,1.5,,stimuli/card_0_transparent.png,620,0,9,0,9,0,1,,,,,,,,,,,,,,,,,,,,,,,,,,,,,,,,,,,,,,,,,,,,
,,,,644e70a29cba8cc79d738a7a,B,2024-06-23_09h10.36.225,Slot Machine Game,2023.1.3,Win32,59.88023952,,,,,,,,,,,,,,,,,,,284.8121,10,0.1385,,left,0.5,,stimuli/card_10_transparent.png,630,10,10,0,10,0,1,,,,,,,,,,,,,,,,,,,,,,,,,,,,,,,,,,,,,,,,,,,,
,,,,644e70a29cba8cc79d738a7a,B,2024-06-23_09h10.36.225,Slot Machine Game,2023.1.3,Win32,59.88023952,,,,,,,,,,,,,,,,,,,286.2754,11,0.1844,,up,0.5,,stimuli/card_10_transparent.png,640,10,11,0,11,0,1,,,,,,,,,,,,,,,,,,,,,,,,,,,,,,,,,,,,,,,,,,,,
,,,,644e70a29cba8cc79d738a7a,B,2024-06-23_09h10.36.225,Slot Machine Game,2023.1.3,Win32,59.88023952,,,,,,,,,,,,,,,,,,,287.7876,12,0.0009,,right,1,,stimuli/card_0_transparent.png,640,0,12,0,12,0,1,,,,,,,,,,,,,,,,,,,,,,,,,,,,,,,,,,,,,,,,,,,,
,,,,644e70a29cba8cc79d738a7a,B,2024-06-23_09h10.36.225,Slot Machine Game,2023.1.3,Win32,59.88023952,,,,,,,,,,,,,,,,,,,289.6226,13,0.9898,,up,0.5,,stimuli/card_0_transparent.png,640,0,13,0,13,0,1,,,,,,,,,,,,,,,,,,,,,,,,,,,,,,,,,,,,,,,,,,,,
,,,,644e70a29cba8cc79d738a7a,B,2024-06-23_09h10.36.225,Slot Machine Game,2023.1.3,Win32,59.88023952,,,,,,,,,,,,,,,,,,,291.9317,14,0.3754,,up,1.5,,stimuli/card_0_transparent.png,640,0,14,0,14,0,1,,,,,,,,,,,,,,,,,,,,,,,,,,,,,,,,,,,,,,,,,,,,
,,,,644e70a29cba8cc79d738a7a,B,2024-06-23_09h10.36.225,Slot Machine Game,2023.1.3,Win32,59.88023952,,,,,,,,,,,,,,,,,"[6,15]","[[1,3,2],[3,1,2]]",299.6857,0,1.0521,,left,0.5,,stimuli/card_100_transparent.png,100,100,0,0,0,0,1,,294.6795,,,,,,,,,,,,,,,,,,,,,,,,,,,,,,,,,,,,,,,,,,
,,,,644e70a29cba8cc79d738a7a,B,2024-06-23_09h10.36.225,Slot Machine Game,2023.1.3,Win32,59.88023952,,,,,,,,,,,,,,,,,,,302.058,1,0.5206,,left,1.5,,stimuli/card_100_transparent.png,200,100,1,0,1,0,1,,,,,,,,,,,,,,,,,,,,,,,,,,,,,,,,,,,,,,,,,,,,
,,,,644e70a29cba8cc79d738a7a,B,2024-06-23_09h10.36.225,Slot Machine Game,2023.1.3,Win32,59.88023952,,,,,,,,,,,,,,,,,,,304.9107,2,0.1172,,left,1,,stimuli/card_100_transparent.png,300,100,2,0,2,0,1,,,,,,,,,,,,,,,,,,,,,,,,,,,,,,,,,,,,,,,,,,,,
,,,,644e70a29cba8cc79d738a7a,B,2024-06-23_09h10.36.225,Slot Machine Game,2023.1.3,Win32,59.88023952,,,,,,,,,,,,,,,,,,,306.8459,3,0.4898,,left,1.5,,stimuli/card_100_transparent.png,400,100,3,0,3,0,1,,,,,,,,,,,,,,,,,,,,,,,,,,,,,,,,,,,,,,,,,,,,
,,,,644e70a29cba8cc79d738a7a,B,2024-06-23_09h10.36.225,Slot Machine Game,2023.1.3,Win32,59.88023952,,,,,,,,,,,,,,,,,,,309.6584,4,0.0843,,left,1,,stimuli/card_100_transparent.png,500,100,4,0,4,0,1,,,,,,,,,,,,,,,,,,,,,,,,,,,,,,,,,,,,,,,,,,,,
,,,,644e70a29cba8cc79d738a7a,B,2024-06-23_09h10.36.225,Slot Machine Game,2023.1.3,Win32,59.88023952,,,,,,,,,,,,,,,,,,,311.5505,5,0.2198,,left,0.5,,stimuli/card_100_transparent.png,600,100,5,0,5,0,1,,,,,,,,,,,,,,,,,,,,,,,,,,,,,,,,,,,,,,,,,,,,
,,,,644e70a29cba8cc79d738a7a,B,2024-06-23_09h10.36.225,Slot Machine Game,2023.1.3,Win32,59.88023952,,,,,,,,,,,,,,,,,,,313.1022,6,0.2512,,left,1.5,,stimuli/card_0_transparent.png,600,0,6,0,6,0,1,,,,,,,,,,,,,,,,,,,,,,,,,,,,,,,,,,,,,,,,,,,,
,,,,644e70a29cba8cc79d738a7a,B,2024-06-23_09h10.36.225,Slot Machine Game,2023.1.3,Win32,59.88023952,,,,,,,,,,,,,,,,,,,315.6816,7,0.1385,,up,1.5,,stimuli/card_100_transparent.png,700,100,7,0,7,0,1,,,,,,,,,,,,,,,,,,,,,,,,,,,,,,,,,,,,,,,,,,,,
,,,,644e70a29cba8cc79d738a7a,B,2024-06-23_09h10.36.225,Slot Machine Game,2023.1.3,Win32,59.88023952,,,,,,,,,,,,,,,,,,,318.1573,8,0.0006,,up,1,,stimuli/card_0_transparent.png,700,0,8,0,8,0,1,,,,,,,,,,,,,,,,,,,,,,,,,,,,,,,,,,,,,,,,,,,,
,,,,644e70a29cba8cc79d738a7a,B,2024-06-23_09h10.36.225,Slot Machine Game,2023.1.3,Win32,59.88023952,,,,,,,,,,,,,,,,,,,319.9758,9,0.1641,,right,1.5,,stimuli/card_10_transparent.png,710,10,9,0,9,0,1,,,,,,,,,,,,,,,,,,,,,,,,,,,,,,,,,,,,,,,,,,,,
,,,,644e70a29cba8cc79d738a7a,B,2024-06-23_09h10.36.225,Slot Machine Game,2023.1.3,Win32,59.88023952,,,,,,,,,,,,,,,,,,,322.4615,10,0.1559,,up,0.5,,stimuli/card_100_transparent.png,810,100,10,0,10,0,1,,,,,,,,,,,,,,,,,,,,,,,,,,,,,,,,,,,,,,,,,,,,
,,,,644e70a29cba8cc79d738a7a,B,2024-06-23_09h10.36.225,Slot Machine Game,2023.1.3,Win32,59.88023952,,,,,,,,,,,,,,,,,,,323.9302,11,0.1843,,up,1.5,,stimuli/card_100_transparent.png,910,100,11,0,11,0,1,,,,,,,,,,,,,,,,,,,,,,,,,,,,,,,,,,,,,,,,,,,,
,,,,644e70a29cba8cc79d738a7a,B,2024-06-23_09h10.36.225,Slot Machine Game,2023.1.3,Win32,59.88023952,,,,,,,,,,,,,,,,,,,326.449,12,0.0681,,up,0.5,,stimuli/card_100_transparent.png,1010,100,12,0,12,0,1,,,,,,,,,,,,,,,,,,,,,,,,,,,,,,,,,,,,,,,,,,,,
,,,,644e70a29cba8cc79d738a7a,B,2024-06-23_09h10.36.225,Slot Machine Game,2023.1.3,Win32,59.88023952,,,,,,,,,,,,,,,,,,,327.8335,13,0.0008,,up,1,,stimuli/card_100_transparent.png,1110,100,13,0,13,0,1,,,,,,,,,,,,,,,,,,,,,,,,,,,,,,,,,,,,,,,,,,,,
,,,,644e70a29cba8cc79d738a7a,B,2024-06-23_09h10.36.225,Slot Machine Game,2023.1.3,Win32,59.88023952,,,,,,,,,,,,,,,,,,,329.6521,14,0.0373,,up,0.5,,stimuli/card_100_transparent.png,1210,100,14,0,14,0,1,,,,,,,,,,,,,,,,,,,,,,,,,,,,,,,,,,,,,,,,,,,,
,,,,644e70a29cba8cc79d738a7a,B,2024-06-23_09h10.36.225,Slot Machine Game,2023.1.3,Win32,59.88023952,,,,,,,,,,,,,,,,,,,,,,,,,,,,,,,,,,,331.0113,,,336.0095,space,3.6204,,,,,,,,,,,,,,,,,,,,,,,,,,,,,,,,,,,,,
,,,,644e70a29cba8cc79d738a7a,B,2024-06-23_09h10.36.225,Slot Machine Game,2023.1.3,Win32,59.88023952,,,,,,,,,,,,,,,,,,,,,,,,,,,,,,,,,,,,,,,,,,339.658,2,"[2,4,8,0,1,3,9,6,8,5]",space,3.3315,,,,,,,,,,,,,,,,,,,,,,,,,,,,,,,
,,,,644e70a29cba8cc79d738a7a,B,2024-06-23_09h10.36.225,Slot Machine Game,2023.1.3,Win32,59.88023952,,,,,,,,,,,,,,,,,,,,,,,,,,,0,,,,,,,,,,,,,,,,,,,,,1,3,"[15,15]","[[3,1,2],[3,1,2]]",343.0477,0,up,0.416,,0.5,0.3,"[3,1,2]",0.055038944,stimuli/card_0_transparent.png,0,0,0,0,0,1,,,,,,,,,,
,,,,644e70a29cba8cc79d738a7a,B,2024-06-23_09h10.36.225,Slot Machine Game,2023.1.3,Win32,59.88023952,,,,,,,,,,,,,,,,,,,,,,,,,,,0,,,,,,,,,,,,,,,,,,,,,1,3,,,344.7725,1,left,0.0921,,0.5,0.3,"[3,1,2]",0.814186355,stimuli/card_0_transparent.png,0,1,0,1,0,1,,,,,,,,,,
,,,,644e70a29cba8cc79d738a7a,B,2024-06-23_09h10.36.225,Slot Machine Game,2023.1.3,Win32,59.88023952,,,,,,,,,,,,,,,,,,,,,,,,,,,0,,,,,,,,,,,,,,,,,,,,,1,3,,,346.195,2,right,0.0926,,0.5,0.3,"[3,1,2]",0.054190993,stimuli/card_0_transparent.png,0,2,0,2,0,1,,,,,,,,,,
,,,,644e70a29cba8cc79d738a7a,B,2024-06-23_09h10.36.225,Slot Machine Game,2023.1.3,Win32,59.88023952,,,,,,,,,,,,,,,,,,,,,,,,,,,100,,,,,,,,,,,,,,,,,,,,,1,3,,,347.6297,3,up,0.1009,,0.5,0.3,"[3,1,2]",0.48554532,stimuli/card_100_transparent.png,100,3,0,3,0,1,,,,,,,,,,
,,,,644e70a29cba8cc79d738a7a,B,2024-06-23_09h10.36.225,Slot Machine Game,2023.1.3,Win32,59.88023952,,,,,,,,,,,,,,,,,,,,,,,,,,,200,,,,,,,,,,,,,,,,,,,,,1,3,,,349.0475,4,up,0.1391,,1.5,0.3,"[3,1,2]",0.493591903,stimuli/card_100_transparent.png,100,4,0,4,0,1,,,,,,,,,,
,,,,644e70a29cba8cc79d738a7a,B,2024-06-23_09h10.36.225,Slot Machine Game,2023.1.3,Win32,59.88023952,,,,,,,,,,,,,,,,,,,,,,,,,,,210,,,,,,,,,,,,,,,,,,,,,1,3,,,351.5072,5,up,0.1511,,1.5,0.3,"[3,1,2]",0.172587121,stimuli/card_10_transparent.png,10,5,0,5,0,1,,,,,,,,,,
,,,,644e70a29cba8cc79d738a7a,B,2024-06-23_09h10.36.225,Slot Machine Game,2023.1.3,Win32,59.88023952,,,,,,,,,,,,,,,,,,,,,,,,,,,310,,,,,,,,,,,,,,,,,,,,,1,3,,,353.9866,6,right,0.0642,,0.5,0.3,"[3,1,2]",0.145448718,stimuli/card_100_transparent.png,100,6,0,6,0,1,,,,,,,,,,
,,,,644e70a29cba8cc79d738a7a,B,2024-06-23_09h10.36.225,Slot Machine Game,2023.1.3,Win32,59.88023952,,,,,,,,,,,,,,,,,,,,,,,,,,,320,,,,,,,,,,,,,,,,,,,,,1,3,,,355.3823,7,right,0.1359,,1.5,0.3,"[3,1,2]",0.831812043,stimuli/card_10_transparent.png,10,7,0,7,0,1,,,,,,,,,,
,,,,644e70a29cba8cc79d738a7a,B,2024-06-23_09h10.36.225,Slot Machine Game,2023.1.3,Win32,59.88023952,,,,,,,,,,,,,,,,,,,,,,,,,,,320,,,,,,,,,,,,,,,,,,,,,1,3,,,357.8634,8,left,0.0791,,0.5,0.3,"[3,1,2]",0.810743336,stimuli/card_0_transparent.png,0,8,0,8,0,1,,,,,,,,,,
,,,,644e70a29cba8cc79d738a7a,B,2024-06-23_09h10.36.225,Slot Machine Game,2023.1.3,Win32,59.88023952,,,,,,,,,,,,,,,,,,,,,,,,,,,320,,,,,,,,,,,,,,,,,,,,,1,3,,,359.2648,9,up,0.0507,,1,0.3,"[3,1,2]",0.009677208,stimuli/card_0_transparent.png,0,9,0,9,0,1,,,,,,,,,,
,,,,644e70a29cba8cc79d738a7a,B,2024-06-23_09h10.36.225,Slot Machine Game,2023.1.3,Win32,59.88023952,,,,,,,,,,,,,,,,,,,,,,,,,,,420,,,,,,,,,,,,,,,,,,,,,1,3,,,361.1442,10,right,0.0127,,0.5,0.3,"[3,1,2]",0.188446101,stimuli/card_100_transparent.png,100,10,0,10,0,1,,,,,,,,,,
,,,,644e70a29cba8cc79d738a7a,B,2024-06-23_09h10.36.225,Slot Machine Game,2023.1.3,Win32,59.88023952,,,,,,,,,,,,,,,,,,,,,,,,,,,430,,,,,,,,,,,,,,,,,,,,,1,3,,,362.4849,11,right,0.151,,1,0.3,"[3,1,2]",0.456354115,stimuli/card_10_transparent.png,10,11,0,11,0,1,,,,,,,,,,
,,,,644e70a29cba8cc79d738a7a,B,2024-06-23_09h10.36.225,Slot Machine Game,2023.1.3,Win32,59.88023952,,,,,,,,,,,,,,,,,,,,,,,,,,,530,,,,,,,,,,,,,,,,,,,,,1,3,,,364.4535,12,up,0.6211,,1.5,0.3,"[3,1,2]",0.317439534,stimuli/card_100_transparent.png,100,12,0,12,0,1,,,,,,,,,,
,,,,644e70a29cba8cc79d738a7a,B,2024-06-23_09h10.36.225,Slot Machine Game,2023.1.3,Win32,59.88023952,,,,,,,,,,,,,,,,,,,,,,,,,,,530,,,,,,,,,,,,,,,,,,,,,1,3,,,367.3896,13,up,0.1413,,1,0.3,"[3,1,2]",0.018529673,stimuli/card_0_transparent.png,0,13,0,13,0,1,,,,,,,,,,
,,,,644e70a29cba8cc79d738a7a,B,2024-06-23_09h10.36.225,Slot Machine Game,2023.1.3,Win32,59.88023952,,,,,,,,,,,,,,,,,,,,,,,,,,,530,,,,,,,,,,,,,,,,,,,,,1,3,,,369.3415,14,left,0.0292,,1,0.3,"[3,1,2]",0.839109936,stimuli/card_0_transparent.png,0,14,0,14,0,1,,,,,,,,,,
,,,,644e70a29cba8cc79d738a7a,B,2024-06-23_09h10.36.225,Slot Machine Game,2023.1.3,Win32,59.88023952,,,,,,,,,,,,,,,,,,,,,,,,,,,,,,,,,,,371.1875,,,,,,,,,,,,,,,,,,,,,,,,,,,,,,,,,[530],0,0,0,0,1,,,,
,,,,644e70a29cba8cc79d738a7a,B,2024-06-23_09h10.36.225,Slot Machine Game,2023.1.3,Win32,59.88023952,,,,,,,,,,,,,,,,,,,,,,,,,,,0,,,,,,,,,,,,,,,,,,,,,2,5,"[5,15]","[[1,2,3],[3,1,2]]",376.2218,0,right,0.2678,,0.5,0.3,"[1,2,3]",0.53333668,stimuli/card_0_transparent.png,0,0,0,0,0,1,,,,,,,,,,
,,,,644e70a29cba8cc79d738a7a,B,2024-06-23_09h10.36.225,Slot Machine Game,2023.1.3,Win32,59.88023952,,,,,,,,,,,,,,,,,,,,,,,,,,,10,,,,,,,,,,,,,,,,,,,,,2,5,,,377.8167,1,up,0.2012,,1.5,0.3,"[1,2,3]",0.850622645,stimuli/card_10_transparent.png,10,1,0,1,0,1,,,,,,,,,,
,,,,644e70a29cba8cc79d738a7a,B,2024-06-23_09h10.36.225,Slot Machine Game,2023.1.3,Win32,59.88023952,,,,,,,,,,,,,,,,,,,,,,,,,,,110,,,,,,,,,,,,,,,,,,,,,2,5,,,380.3359,2,left,0.0007,,0.5,0.3,"[1,2,3]",0.414418772,stimuli/card_100_transparent.png,100,2,0,2,0,1,,,,,,,,,,
,,,,644e70a29cba8cc79d738a7a,B,2024-06-23_09h10.36.225,Slot Machine Game,2023.1.3,Win32,59.88023952,,,,,,,,,,,,,,,,,,,,,,,,,,,210,,,,,,,,,,,,,,,,,,,,,2,5,,,381.6539,3,left,0.0035,,1.5,0.3,"[1,2,3]",0.352083386,stimuli/card_100_transparent.png,100,3,0,3,0,1,,,,,,,,,,
,,,,644e70a29cba8cc79d738a7a,B,2024-06-23_09h10.36.225,Slot Machine Game,2023.1.3,Win32,59.88023952,,,,,,,,,,,,,,,,,,,,,,,,,,,310,,,,,,,,,,,,,,,,,,,,,2,5,,,383.9732,4,left,0.1842,,1.5,0.3,"[1,2,3]",0.369254082,stimuli/card_100_transparent.png,100,4,0,4,0,1,,,,,,,,,,
,,,,644e70a29cba8cc79d738a7a,B,2024-06-23_09h10.36.225,Slot Machine Game,2023.1.3,Win32,59.88023952,,,,,,,,,,,,,,,,,,,,,,,,,,,320,,,,,,,,,,,,,,,,,,,,,2,5,,,386.492,5,left,0.0637,,1,0.3,"[3,1,2]",0.162648581,stimuli/card_10_transparent.png,10,5,0,5,0,1,,,,,,,,,,
,,,,644e70a29cba8cc79d738a7a,B,2024-06-23_09h10.36.225,Slot Machine Game,2023.1.3,Win32,59.88023952,,,,,,,,,,,,,,,,,,,,,,,,,,,420,,,,,,,,,,,,,,,,,,,,,2,5,,,388.3778,6,up,0.051,,1.5,0.3,"[3,1,2]",0.828350676,stimuli/card_100_transparent.png,100,6,0,6,0,1,,,,,,,,,,
,,,,644e70a29cba8cc79d738a7a,B,2024-06-23_09h10.36.225,Slot Machine Game,2023.1.3,Win32,59.88023952,,,,,,,,,,,,,,,,,,,,,,,,,,,520,,,,,,,,,,,,,,,,,,,,,2,5,,,390.7462,7,up,0.0842,,0.5,0.3,"[3,1,2]",0.945498603,stimuli/card_100_transparent.png,100,7,0,7,0,1,,,,,,,,,,
,,,,644e70a29cba8cc79d738a7a,B,2024-06-23_09h10.36.225,Slot Machine Game,2023.1.3,Win32,59.88023952,,,,,,,,,,,,,,,,,,,,,,,,,,,620,,,,,,,,,,,,,,,,,,,,,2,5,,,392.1477,8,up,0.1172,,0.5,0.3,"[3,1,2]",0.441162081,stimuli/card_100_transparent.png,100,8,0,8,0,1,,,,,,,,,,
,,,,644e70a29cba8cc79d738a7a,B,2024-06-23_09h10.36.225,Slot Machine Game,2023.1.3,Win32,59.88023952,,,,,,,,,,,,,,,,,,,,,,,,,,,720,,,,,,,,,,,,,,,,,,,,,2,5,,,393.5824,9,up,0.0823,,0.5,0.3,"[3,1,2]",0.308754934,stimuli/card_100_transparent.png,100,9,0,9,0,1,,,,,,,,,,
,,,,644e70a29cba8cc79d738a7a,B,2024-06-23_09h10.36.225,Slot Machine Game,2023.1.3,Win32,59.88023952,,,,,,,,,,,,,,,,,,,,,,,,,,,820,,,,,,,,,,,,,,,,,,,,,2,5,,,394.984,10,up,0.1372,,0.5,0.3,"[3,1,2]",0.572541787,stimuli/card_100_transparent.png,100,10,0,10,0,1,,,,,,,,,,
,,,,644e70a29cba8cc79d738a7a,B,2024-06-23_09h10.36.225,Slot Machine Game,2023.1.3,Win32,59.88023952,,,,,,,,,,,,,,,,,,,,,,,,,,,920,,,,,,,,,,,,,,,,,,,,,2,5,,,396.4352,11,up,0.1308,,1.5,0.3,"[3,1,2]",0.907756887,stimuli/card_100_transparent.png,100,11,0,11,0,1,,,,,,,,,,
,,,,644e70a29cba8cc79d738a7a,B,2024-06-23_09h10.36.225,Slot Machine Game,2023.1.3,Win32,59.88023952,,,,,,,,,,,,,,,,,,,,,,,,,,,920,,,,,,,,,,,,,,,,,,,,,2,5,,,398.8876,12,up,0.1373,,1,0.3,"[3,1,2]",0.056410861,stimuli/card_0_transparent.png,0,12,0,12,0,1,,,,,,,,,,
,,,,644e70a29cba8cc79d738a7a,B,2024-06-23_09h10.36.225,Slot Machine Game,2023.1.3,Win32,59.88023952,,,,,,,,,,,,,,,,,,,,,,,,,,,930,,,,,,,,,,,,,,,,,,,,,2,5,,,400.8396,13,right,0.1534,,1.5,0.3,"[3,1,2]",0.205958556,stimuli/card_10_transparent.png,10,13,0,13,0,1,,,,,,,,,,
,,,,644e70a29cba8cc79d738a7a,B,2024-06-23_09h10.36.225,Slot Machine Game,2023.1.3,Win32,59.88023952,,,,,,,,,,,,,,,,,,,,,,,,,,,1030,,,,,,,,,,,,,,,,,,,,,2,5,,,403.3087,14,left,0.0257,,1,0.3,"[3,1,2]",0.026519616,stimuli/card_100_transparent.png,100,14,0,14,0,1,,,,,,,,,,
,,,,644e70a29cba8cc79d738a7a,B,2024-06-23_09h10.36.225,Slot Machine Game,2023.1.3,Win32,59.88023952,,,,,,,,,,,,,,,,,,,,,,,,,,,,,,,,,,,405.1609,,,,,,,,,,,,,,,,,,,,,,,,,,,,,,,,,"[530,1030]",1,0,1,0,1,,,,
,,,,644e70a29cba8cc79d738a7a,B,2024-06-23_09h10.36.225,Slot Machine Game,2023.1.3,Win32,59.88023952,,,,,,,,,,,,,,,,,,,,,,,,,,,0,,,,,,,,,,,,,,,,,,,,,3,9,"[8,15]","[[3,2,1],[3,1,2]]",410.1808,0,left,0.0841,,1,0.3,"[3,2,1]",0.527858845,stimuli/card_0_transparent.png,0,0,0,0,0,1,,,,,,,,,,
,,,,644e70a29cba8cc79d738a7a,B,2024-06-23_09h10.36.225,Slot Machine Game,2023.1.3,Win32,59.88023952,,,,,,,,,,,,,,,,,,,,,,,,,,,10,,,,,,,,,,,,,,,,,,,,,3,9,,,412.0773,1,up,0.1259,,1,0.3,"[3,2,1]",0.611040436,stimuli/card_10_transparent.png,10,1,0,1,0,1,,,,,,,,,,
,,,,644e70a29cba8cc79d738a7a,B,2024-06-23_09h10.36.225,Slot Machine Game,2023.1.3,Win32,59.88023952,,,,,,,,,,,,,,,,,,,,,,,,,,,110,,,,,,,,,,,,,,,,,,,,,3,9,,,414.0209,2,right,0.0048,,0.5,0.3,"[3,2,1]",0.561442866,stimuli/card_100_transparent.png,100,2,0,2,0,1,,,,,,,,,,
,,,,644e70a29cba8cc79d738a7a,B,2024-06-23_09h10.36.225,Slot Machine Game,2023.1.3,Win32,59.88023952,,,,,,,,,,,,,,,,,,,,,,,,,,,210,,,,,,,,,,,,,,,,,,,,,3,9,,,415.3542,3,right,0.1304,,1.5,0.3,"[3,2,1]",0.289143485,stimuli/card_100_transparent.png,100,3,0,3,0,1,,,,,,,,,,
,,,,644e70a29cba8cc79d738a7a,B,2024-06-23_09h10.36.225,Slot Machine Game,2023.1.3,Win32,59.88023952,,,,,,,,,,,,,,,,,,,,,,,,,,,310,,,,,,,,,,,,,,,,,,,,,3,9,,,417.8068,4,right,0.0507,,1.5,0.3,"[3,2,1]",0.915943672,stimuli/card_100_transparent.png,100,4,0,4,0,1,,,,,,,,,,
,,,,644e70a29cba8cc79d738a7a,B,2024-06-23_09h10.36.225,Slot Machine Game,2023.1.3,Win32,59.88023952,,,,,,,,,,,,,,,,,,,,,,,,,,,320,,,,,,,,,,,,,,,,,,,,,3,9,,,420.1756,5,right,0.1009,,0.5,0.3,"[3,2,1]",0.139677975,stimuli/card_10_transparent.png,10,5,0,5,0,1,,,,,,,,,,
,,,,644e70a29cba8cc79d738a7a,B,2024-06-23_09h10.36.225,Slot Machine Game,2023.1.3,Win32,59.88023952,,,,,,,,,,,,,,,,,,,,,,,,,,,330,,,,,,,,,,,,,,,,,,,,,3,9,,,421.5937,6,up,0.0474,,1,0.3,"[3,2,1]",0.378126158,stimuli/card_10_transparent.png,10,6,0,6,0,1,,,,,,,,,,
,,,,644e70a29cba8cc79d738a7a,B,2024-06-23_09h10.36.225,Slot Machine Game,2023.1.3,Win32,59.88023952,,,,,,,,,,,,,,,,,,,,,,,,,,,340,,,,,,,,,,,,,,,,,,,,,3,9,,,423.4623,7,left,0.1548,,1,0.3,"[3,2,1]",0.16419354,stimuli/card_10_transparent.png,10,7,0,7,0,1,,,,,,,,,,
,,,,644e70a29cba8cc79d738a7a,B,2024-06-23_09h10.36.225,Slot Machine Game,2023.1.3,Win32,59.88023952,,,,,,,,,,,,,,,,,,,,,,,,,,,440,,,,,,,,,,,,,,,,,,,,,3,9,,,425.4308,8,up,0.0507,,0.5,0.3,"[3,1,2]",0.437463809,stimuli/card_100_transparent.png,100,8,0,8,0,1,,,,,,,,,,
,,,,644e70a29cba8cc79d738a7a,B,2024-06-23_09h10.36.225,Slot Machine Game,2023.1.3,Win32,59.88023952,,,,,,,,,,,,,,,,,,,,,,,,,,,540,,,,,,,,,,,,,,,,,,,,,3,9,,,426.7985,9,up,0.1691,,1.5,0.3,"[3,1,2]",0.80537085,stimuli/card_100_transparent.png,100,9,0,9,0,1,,,,,,,,,,
,,,,644e70a29cba8cc79d738a7a,B,2024-06-23_09h10.36.225,Slot Machine Game,2023.1.3,Win32,59.88023952,,,,,,,,,,,,,,,,,,,,,,,,,,,640,,,,,,,,,,,,,,,,,,,,,3,9,,,429.2846,10,up,0.1159,,1,0.3,"[3,1,2]",0.289379228,stimuli/card_100_transparent.png,100,10,0,10,0,1,,,,,,,,,,
,,,,644e70a29cba8cc79d738a7a,B,2024-06-23_09h10.36.225,Slot Machine Game,2023.1.3,Win32,59.88023952,,,,,,,,,,,,,,,,,,,,,,,,,,,740,,,,,,,,,,,,,,,,,,,,,3,9,,,431.2199,11,up,0.005,,1,0.3,"[3,1,2]",0.309955058,stimuli/card_100_transparent.png,100,11,0,11,0,1,,,,,,,,,,
,,,,644e70a29cba8cc79d738a7a,B,2024-06-23_09h10.36.225,Slot Machine Game,2023.1.3,Win32,59.88023952,,,,,,,,,,,,,,,,,,,,,,,,,,,840,,,,,,,,,,,,,,,,,,,,,3,9,,,433.0385,12,up,0.1142,,0.5,0.3,"[3,1,2]",0.553488107,stimuli/card_100_transparent.png,100,12,0,12,0,1,,,,,,,,,,
,,,,644e70a29cba8cc79d738a7a,B,2024-06-23_09h10.36.225,Slot Machine Game,2023.1.3,Win32,59.88023952,,,,,,,,,,,,,,,,,,,,,,,,,,,940,,,,,,,,,,,,,,,,,,,,,3,9,,,434.4732,13,up,0.1508,,0.5,0.3,"[3,1,2]",0.793656596,stimuli/card_100_transparent.png,100,13,0,13,0,1,,,,,,,,,,
,,,,644e70a29cba8cc79d738a7a,B,2024-06-23_09h10.36.225,Slot Machine Game,2023.1.3,Win32,59.88023952,,,,,,,,,,,,,,,,,,,,,,,,,,,1040,,,,,,,,,,,,,,,,,,,,,3,9,,,435.9413,14,up,0.1309,,1,0.3,"[3,1,2]",0.910547571,stimuli/card_100_transparent.png,100,14,0,14,0,1,,,,,,,,,,
,,,,644e70a29cba8cc79d738a7a,B,2024-06-23_09h10.36.225,Slot Machine Game,2023.1.3,Win32,59.88023952,,,,,,,,,,,,,,,,,,,,,,,,,,,,,,,,,,,437.8933,,,,,,,,,,,,,,,,,,,,,,,,,,,,,,,,,"[530,1030,1040]",2,0,2,0,1,,,,
,,,,644e70a29cba8cc79d738a7a,B,2024-06-23_09h10.36.225,Slot Machine Game,2023.1.3,Win32,59.88023952,,,,,,,,,,,,,,,,,,,,,,,,,,,10,,,,,,,,,,,,,,,,,,,,,4,1,"[12,15]","[[2,1,3],[2,3,1]]",442.9118,0,left,0.0638,,1,0.3,"[2,1,3]",0.231822673,stimuli/card_10_transparent.png,10,0,0,0,0,1,,,,,,,,,,
,,,,644e70a29cba8cc79d738a7a,B,2024-06-23_09h10.36.225,Slot Machine Game,2023.1.3,Win32,59.88023952,,,,,,,,,,,,,,,,,,,,,,,,,,,110,,,,,,,,,,,,,,,,,,,,,4,1,,,444.8005,1,up,0.0009,,0.5,0.3,"[2,1,3]",0.29476004,stimuli/card_100_transparent.png,100,1,0,1,0,1,,,,,,,,,,
,,,,644e70a29cba8cc79d738a7a,B,2024-06-23_09h10.36.225,Slot Machine Game,2023.1.3,Win32,59.88023952,,,,,,,,,,,,,,,,,,,,,,,,,,,210,,,,,,,,,,,,,,,,,,,,,4,1,,,446.1181,2,up,0.0008,,0.5,0.3,"[2,1,3]",0.602071584,stimuli/card_100_transparent.png,100,2,0,2,0,1,,,,,,,,,,
,,,,644e70a29cba8cc79d738a7a,B,2024-06-23_09h10.36.225,Slot Machine Game,2023.1.3,Win32,59.88023952,,,,,,,,,,,,,,,,,,,,,,,,,,,310,,,,,,,,,,,,,,,,,,,,,4,1,,,447.4461,3,up,0.0342,,1,0.3,"[2,1,3]",0.368212789,stimuli/card_100_transparent.png,100,3,0,3,0,1,,,,,,,,,,
,,,,644e70a29cba8cc79d738a7a,B,2024-06-23_09h10.36.225,Slot Machine Game,2023.1.3,Win32,59.88023952,,,,,,,,,,,,,,,,,,,,,,,,,,,310,,,,,,,,,,,,,,,,,,,,,4,1,,,449.2977,4,up,0.0844,,1.5,0.3,"[2,1,3]",0.027576322,stimuli/card_0_transparent.png,0,4,0,4,0,1,,,,,,,,,,
,,,,644e70a29cba8cc79d738a7a,B,2024-06-23_09h10.36.225,Slot Machine Game,2023.1.3,Win32,59.88023952,,,,,,,,,,,,,,,,,,,,,,,,,,,310,,,,,,,,,,,,,,,,,,,,,4,1,,,451.707,5,right,0.1675,,1.5,0.3,"[2,1,3]",0.662414954,stimuli/card_0_transparent.png,0,5,0,5,0,1,,,,,,,,,,
,,,,644e70a29cba8cc79d738a7a,B,2024-06-23_09h10.36.225,Slot Machine Game,2023.1.3,Win32,59.88023952,,,,,,,,,,,,,,,,,,,,,,,,,,,320,,,,,,,,,,,,,,,,,,,,,4,1,,,454.1811,6,left,0.1176,,1,0.3,"[2,1,3]",0.481529393,stimuli/card_10_transparent.png,10,6,0,6,0,1,,,,,,,,,,
,,,,644e70a29cba8cc79d738a7a,B,2024-06-23_09h10.36.225,Slot Machine Game,2023.1.3,Win32,59.88023952,,,,,,,,,,,,,,,,,,,,,,,,,,,420,,,,,,,,,,,,,,,,,,,,,4,1,,,456.128,7,up,0.0485,,0.5,0.3,"[2,1,3]",0.442222142,stimuli/card_100_transparent.png,100,7,0,7,0,1,,,,,,,,,,
,,,,644e70a29cba8cc79d738a7a,B,2024-06-23_09h10.36.225,Slot Machine Game,2023.1.3,Win32,59.88023952,,,,,,,,,,,,,,,,,,,,,,,,,,,430,,,,,,,,,,,,,,,,,,,,,4,1,,,457.4865,8,up,0.0008,,0.5,0.3,"[2,1,3]",0.116921683,stimuli/card_10_transparent.png,10,8,0,8,0,1,,,,,,,,,,
,,,,644e70a29cba8cc79d738a7a,B,2024-06-23_09h10.36.225,Slot Machine Game,2023.1.3,Win32,59.88023952,,,,,,,,,,,,,,,,,,,,,,,,,,,440,,,,,,,,,,,,,,,,,,,,,4,1,,,458.8074,9,left,0.1424,,0.5,0.3,"[2,1,3]",0.902242749,stimuli/card_10_transparent.png,10,9,0,9,0,1,,,,,,,,,,
,,,,644e70a29cba8cc79d738a7a,B,2024-06-23_09h10.36.225,Slot Machine Game,2023.1.3,Win32,59.88023952,,,,,,,,,,,,,,,,,,,,,,,,,,,440,,,,,,,,,,,,,,,,,,,,,4,1,,,460.2672,10,up,0.0342,,1.5,0.3,"[2,1,3]",0.088999884,stimuli/card_0_transparent.png,0,10,0,10,0,1,,,,,,,,,,
,,,,644e70a29cba8cc79d738a7a,B,2024-06-23_09h10.36.225,Slot Machine Game,2023.1.3,Win32,59.88023952,,,,,,,,,,,,,,,,,,,,,,,,,,,450,,,,,,,,,,,,,,,,,,,,,4,1,,,462.6183,11,left,0.0677,,1.5,0.3,"[2,1,3]",0.636208224,stimuli/card_10_transparent.png,10,11,0,11,0,1,,,,,,,,,,
,,,,644e70a29cba8cc79d738a7a,B,2024-06-23_09h10.36.225,Slot Machine Game,2023.1.3,Win32,59.88023952,,,,,,,,,,,,,,,,,,,,,,,,,,,550,,,,,,,,,,,,,,,,,,,,,4,1,,,464.9966,12,right,0.1341,,1,0.3,"[2,3,1]",0.742674644,stimuli/card_100_transparent.png,100,12,0,12,0,1,,,,,,,,,,
,,,,644e70a29cba8cc79d738a7a,B,2024-06-23_09h10.36.225,Slot Machine Game,2023.1.3,Win32,59.88023952,,,,,,,,,,,,,,,,,,,,,,,,,,,650,,,,,,,,,,,,,,,,,,,,,4,1,,,466.9556,13,right,0.2152,,0.5,0.3,"[2,3,1]",0.359213457,stimuli/card_100_transparent.png,100,13,0,13,0,1,,,,,,,,,,
,,,,644e70a29cba8cc79d738a7a,B,2024-06-23_09h10.36.225,Slot Machine Game,2023.1.3,Win32,59.88023952,,,,,,,,,,,,,,,,,,,,,,,,,,,750,,,,,,,,,,,,,,,,,,,,,4,1,,,468.4907,14,right,0.114,,1,0.3,"[2,3,1]",0.668004454,stimuli/card_100_transparent.png,100,14,0,14,0,1,,,,,,,,,,
,,,,644e70a29cba8cc79d738a7a,B,2024-06-23_09h10.36.225,Slot Machine Game,2023.1.3,Win32,59.88023952,,,,,,,,,,,,,,,,,,,,,,,,,,,,,,,,,,,470.4258,,,,,,,,,,,,,,,,,,,,,,,,,,,,,,,,,"[530,1030,1040,750]",3,0,3,0,1,,,,
,,,,644e70a29cba8cc79d738a7a,B,2024-06-23_09h10.36.225,Slot Machine Game,2023.1.3,Win32,59.88023952,,,,,,,,,,,,,,,,,,,,,,,,,,,0,,,,,,,,,,,,,,,,,,,,,5,2,"[6,15]","[[1,3,2],[3,2,1]]",475.4397,0,up,0.0137,,1,0.3,"[1,3,2]",0.610935536,stimuli/card_0_transparent.png,0,0,0,0,0,1,,,,,,,,,,
,,,,644e70a29cba8cc79d738a7a,B,2024-06-23_09h10.36.225,Slot Machine Game,2023.1.3,Win32,59.88023952,,,,,,,,,,,,,,,,,,,,,,,,,,,10,,,,,,,,,,,,,,,,,,,,,5,2,,,477.2878,1,right,0.1177,,1,0.3,"[1,3,2]",0.89703871,stimuli/card_10_transparent.png,10,1,0,1,0,1,,,,,,,,,,
,,,,644e70a29cba8cc79d738a7a,B,2024-06-23_09h10.36.225,Slot Machine Game,2023.1.3,Win32,59.88023952,,,,,,,,,,,,,,,,,,,,,,,,,,,110,,,,,,,,,,,,,,,,,,,,,5,2,,,479.2444,2,left,0.0471,,1,0.3,"[1,3,2]",0.410814657,stimuli/card_100_transparent.png,100,2,0,2,0,1,,,,,,,,,,
,,,,644e70a29cba8cc79d738a7a,B,2024-06-23_09h10.36.225,Slot Machine Game,2023.1.3,Win32,59.88023952,,,,,,,,,,,,,,,,,,,,,,,,,,,210,,,,,,,,,,,,,,,,,,,,,5,2,,,481.1197,3,left,0.1371,,1,0.3,"[1,3,2]",0.408098868,stimuli/card_100_transparent.png,100,3,0,3,0,1,,,,,,,,,,
,,,,644e70a29cba8cc79d738a7a,B,2024-06-23_09h10.36.225,Slot Machine Game,2023.1.3,Win32,59.88023952,,,,,,,,,,,,,,,,,,,,,,,,,,,310,,,,,,,,,,,,,,,,,,,,,5,2,,,483.065,4,left,0.1678,,0.5,0.3,"[1,3,2]",0.936222855,stimuli/card_100_transparent.png,100,4,0,4,0,1,,,,,,,,,,
,,,,644e70a29cba8cc79d738a7a,B,2024-06-23_09h10.36.225,Slot Machine Game,2023.1.3,Win32,59.88023952,,,,,,,,,,,,,,,,,,,,,,,,,,,410,,,,,,,,,,,,,,,,,,,,,5,2,,,484.5565,5,left,0.1014,,0.5,0.3,"[1,3,2]",0.403713336,stimuli/card_100_transparent.png,100,5,0,5,0,1,,,,,,,,,,
,,,,644e70a29cba8cc79d738a7a,B,2024-06-23_09h10.36.225,Slot Machine Game,2023.1.3,Win32,59.88023952,,,,,,,,,,,,,,,,,,,,,,,,,,,410,,,,,,,,,,,,,,,,,,,,,5,2,,,485.9677,6,left,0.101,,1.5,0.3,"[3,2,1]",0.235504453,stimuli/card_0_transparent.png,0,6,0,6,0,1,,,,,,,,,,
,,,,644e70a29cba8cc79d738a7a,B,2024-06-23_09h10.36.225,Slot Machine Game,2023.1.3,Win32,59.88023952,,,,,,,,,,,,,,,,,,,,,,,,,,,420,,,,,,,,,,,,,,,,,,,,,5,2,,,488.3949,7,up,0.1177,,1.5,0.3,"[3,2,1]",0.797060162,stimuli/card_10_transparent.png,10,7,0,7,0,1,,,,,,,,,,
,,,,644e70a29cba8cc79d738a7a,B,2024-06-23_09h10.36.225,Slot Machine Game,2023.1.3,Win32,59.88023952,,,,,,,,,,,,,,,,,,,,,,,,,,,520,,,,,,,,,,,,,,,,,,,,,5,2,,,490.8226,8,right,0.0034,,1.5,0.3,"[3,2,1]",0.885129786,stimuli/card_100_transparent.png,100,8,0,8,0,1,,,,,,,,,,
,,,,644e70a29cba8cc79d738a7a,B,2024-06-23_09h10.36.225,Slot Machine Game,2023.1.3,Win32,59.88023952,,,,,,,,,,,,,,,,,,,,,,,,,,,620,,,,,,,,,,,,,,,,,,,,,5,2,,,493.1483,9,right,0.1509,,0.5,0.3,"[3,2,1]",0.832729103,stimuli/card_100_transparent.png,100,9,0,9,0,1,,,,,,,,,,
,,,,644e70a29cba8cc79d738a7a,B,2024-06-23_09h10.36.225,Slot Machine Game,2023.1.3,Win32,59.88023952,,,,,,,,,,,,,,,,,,,,,,,,,,,720,,,,,,,,,,,,,,,,,,,,,5,2,,,494.6332,10,right,0.0806,,0.5,0.3,"[3,2,1]",0.286735869,stimuli/card_100_transparent.png,100,10,0,10,0,1,,,,,,,,,,
,,,,644e70a29cba8cc79d738a7a,B,2024-06-23_09h10.36.225,Slot Machine Game,2023.1.3,Win32,59.88023952,,,,,,,,,,,,,,,,,,,,,,,,,,,820,,,,,,,,,,,,,,,,,,,,,5,2,,,496.0348,11,right,0.0373,,0.5,0.3,"[3,2,1]",0.500713457,stimuli/card_100_transparent.png,100,11,0,11,0,1,,,,,,,,,,
,,,,644e70a29cba8cc79d738a7a,B,2024-06-23_09h10.36.225,Slot Machine Game,2023.1.3,Win32,59.88023952,,,,,,,,,,,,,,,,,,,,,,,,,,,920,,,,,,,,,,,,,,,,,,,,,5,2,,,497.4032,12,right,0.1491,,1,0.3,"[3,2,1]",0.822292657,stimuli/card_100_transparent.png,100,12,0,12,0,1,,,,,,,,,,
,,,,644e70a29cba8cc79d738a7a,B,2024-06-23_09h10.36.225,Slot Machine Game,2023.1.3,Win32,59.88023952,,,,,,,,,,,,,,,,,,,,,,,,,,,1020,,,,,,,,,,,,,,,,,,,,,5,2,,,499.388,13,right,0.1344,,0.5,0.3,"[3,2,1]",0.338047479,stimuli/card_100_transparent.png,100,13,0,13,0,1,,,,,,,,,,
,,,,644e70a29cba8cc79d738a7a,B,2024-06-23_09h10.36.225,Slot Machine Game,2023.1.3,Win32,59.88023952,,,,,,,,,,,,,,,,,,,,,,,,,,,1120,,,,,,,,,,,,,,,,,,,,,5,2,,,500.8394,14,right,0.001,,1.5,0.3,"[3,2,1]",0.871992971,stimuli/card_100_transparent.png,100,14,0,14,0,1,,,,,,,,,,
,,,,644e70a29cba8cc79d738a7a,B,2024-06-23_09h10.36.225,Slot Machine Game,2023.1.3,Win32,59.88023952,,,,,,,,,,,,,,,,,,,,,,,,,,,,,,,,,,,503.1585,,,,,,,,,,,,,,,,,,,,,,,,,,,,,,,,,"[530,1030,1040,750,1120]",4,0,4,0,1,,,,
,,,,644e70a29cba8cc79d738a7a,B,2024-06-23_09h10.36.225,Slot Machine Game,2023.1.3,Win32,59.88023952,,,,,,,,,,,,,,,,,,,,,,,,,,,0,,,,,,,,,,,,,,,,,,,,,6,4,"[7,15]","[[2,3,1],[1,2,3]]",508.178,0,up,0.1024,,1,0.3,"[2,3,1]",0.532454128,stimuli/card_0_transparent.png,0,0,0,0,0,1,,,,,,,,,,
,,,,644e70a29cba8cc79d738a7a,B,2024-06-23_09h10.36.225,Slot Machine Game,2023.1.3,Win32,59.88023952,,,,,,,,,,,,,,,,,,,,,,,,,,,100,,,,,,,,,,,,,,,,,,,,,6,4,,,510.0986,1,right,0.1641,,1.5,0.3,"[2,3,1]",0.832202543,stimuli/card_100_transparent.png,100,1,0,1,0,1,,,,,,,,,,
,,,,644e70a29cba8cc79d738a7a,B,2024-06-23_09h10.36.225,Slot Machine Game,2023.1.3,Win32,59.88023952,,,,,,,,,,,,,,,,,,,,,,,,,,,200,,,,,,,,,,,,,,,,,,,,,6,4,,,512.5845,2,right,0.0971,,1.5,0.3,"[2,3,1]",0.727131787,stimuli/card_100_transparent.png,100,2,0,2,0,1,,,,,,,,,,
,,,,644e70a29cba8cc79d738a7a,B,2024-06-23_09h10.36.225,Slot Machine Game,2023.1.3,Win32,59.88023952,,,,,,,,,,,,,,,,,,,,,,,,,,,300,,,,,,,,,,,,,,,,,,,,,6,4,,,515.0036,3,right,0.0543,,1,0.3,"[2,3,1]",0.414264122,stimuli/card_100_transparent.png,100,3,0,3,0,1,,,,,,,,,,
,,,,644e70a29cba8cc79d738a7a,B,2024-06-23_09h10.36.225,Slot Machine Game,2023.1.3,Win32,59.88023952,,,,,,,,,,,,,,,,,,,,,,,,,,,400,,,,,,,,,,,,,,,,,,,,,6,4,,,516.8887,4,right,0.0317,,1,0.3,"[2,3,1]",0.779897683,stimuli/card_100_transparent.png,100,4,0,4,0,1,,,,,,,,,,
,,,,644e70a29cba8cc79d738a7a,B,2024-06-23_09h10.36.225,Slot Machine Game,2023.1.3,Win32,59.88023952,,,,,,,,,,,,,,,,,,,,,,,,,,,500,,,,,,,,,,,,,,,,,,,,,6,4,,,518.7407,5,right,0.0991,,0.5,0.3,"[2,3,1]",0.515127811,stimuli/card_100_transparent.png,100,5,0,5,0,1,,,,,,,,,,
,,,,644e70a29cba8cc79d738a7a,B,2024-06-23_09h10.36.225,Slot Machine Game,2023.1.3,Win32,59.88023952,,,,,,,,,,,,,,,,,,,,,,,,,,,510,,,,,,,,,,,,,,,,,,,,,6,4,,,520.1754,6,right,0.1843,,0.5,0.3,"[2,3,1]",0.105252962,stimuli/card_10_transparent.png,10,6,0,6,0,1,,,,,,,,,,
,,,,644e70a29cba8cc79d738a7a,B,2024-06-23_09h10.36.225,Slot Machine Game,2023.1.3,Win32,59.88023952,,,,,,,,,,,,,,,,,,,,,,,,,,,610,,,,,,,,,,,,,,,,,,,,,6,4,,,521.6771,7,left,0.1842,,1,0.3,"[1,2,3]",0.416231049,stimuli/card_100_transparent.png,100,7,0,7,0,1,,,,,,,,,,
,,,,644e70a29cba8cc79d738a7a,B,2024-06-23_09h10.36.225,Slot Machine Game,2023.1.3,Win32,59.88023952,,,,,,,,,,,,,,,,,,,,,,,,,,,710,,,,,,,,,,,,,,,,,,,,,6,4,,,523.6955,8,left,0.1307,,0.5,0.3,"[1,2,3]",0.216096199,stimuli/card_100_transparent.png,100,8,0,8,0,1,,,,,,,,,,
,,,,644e70a29cba8cc79d738a7a,B,2024-06-23_09h10.36.225,Slot Machine Game,2023.1.3,Win32,59.88023952,,,,,,,,,,,,,,,,,,,,,,,,,,,810,,,,,,,,,,,,,,,,,,,,,6,4,,,525.1475,9,left,0.1845,,0.5,0.3,"[1,2,3]",0.383861572,stimuli/card_100_transparent.png,100,9,0,9,0,1,,,,,,,,,,
,,,,644e70a29cba8cc79d738a7a,B,2024-06-23_09h10.36.225,Slot Machine Game,2023.1.3,Win32,59.88023952,,,,,,,,,,,,,,,,,,,,,,,,,,,910,,,,,,,,,,,,,,,,,,,,,6,4,,,526.6654,10,left,0.1474,,1.5,0.3,"[1,2,3]",0.384835451,stimuli/card_100_transparent.png,100,10,0,10,0,1,,,,,,,,,,
,,,,644e70a29cba8cc79d738a7a,B,2024-06-23_09h10.36.225,Slot Machine Game,2023.1.3,Win32,59.88023952,,,,,,,,,,,,,,,,,,,,,,,,,,,1010,,,,,,,,,,,,,,,,,,,,,6,4,,,529.151,11,left,0.1809,,0.5,0.3,"[1,2,3]",0.203693914,stimuli/card_100_transparent.png,100,11,0,11,0,1,,,,,,,,,,
,,,,644e70a29cba8cc79d738a7a,B,2024-06-23_09h10.36.225,Slot Machine Game,2023.1.3,Win32,59.88023952,,,,,,,,,,,,,,,,,,,,,,,,,,,1010,,,,,,,,,,,,,,,,,,,,,6,4,,,530.6525,12,left,0.02,,1,0.3,"[1,2,3]",0.020919639,stimuli/card_0_transparent.png,0,12,0,12,0,1,,,,,,,,,,
,,,,644e70a29cba8cc79d738a7a,B,2024-06-23_09h10.36.225,Slot Machine Game,2023.1.3,Win32,59.88023952,,,,,,,,,,,,,,,,,,,,,,,,,,,1110,,,,,,,,,,,,,,,,,,,,,6,4,,,532.4877,13,left,0.0327,,1.5,0.3,"[1,2,3]",0.831826571,stimuli/card_100_transparent.png,100,13,0,13,0,1,,,,,,,,,,
,,,,644e70a29cba8cc79d738a7a,B,2024-06-23_09h10.36.225,Slot Machine Game,2023.1.3,Win32,59.88023952,,,,,,,,,,,,,,,,,,,,,,,,,,,1210,,,,,,,,,,,,,,,,,,,,,6,4,,,534.8402,14,left,0.1046,,0.5,0.3,"[1,2,3]",0.60072592,stimuli/card_100_transparent.png,100,14,0,14,0,1,,,,,,,,,,
,,,,644e70a29cba8cc79d738a7a,B,2024-06-23_09h10.36.225,Slot Machine Game,2023.1.3,Win32,59.88023952,,,,,,,,,,,,,,,,,,,,,,,,,,,,,,,,,,,536.2582,,,,,,,,,,,,,,,,,,,,,,,,,,,,,,,,,"[530,1030,1040,750,1120,1210]",5,0,5,0,1,,,,
,,,,644e70a29cba8cc79d738a7a,B,2024-06-23_09h10.36.225,Slot Machine Game,2023.1.3,Win32,59.88023952,,,,,,,,,,,,,,,,,,,,,,,,,,,100,,,,,,,,,,,,,,,,,,,,,7,10,"[10,15]","[[3,1,2],[1,3,2]]",541.278,0,right,0.1048,,1,0.3,"[3,1,2]",0.154709315,stimuli/card_100_transparent.png,100,0,0,0,0,1,,,,,,,,,,
,,,,644e70a29cba8cc79d738a7a,B,2024-06-23_09h10.36.225,Slot Machine Game,2023.1.3,Win32,59.88023952,,,,,,,,,,,,,,,,,,,,,,,,,,,200,,,,,,,,,,,,,,,,,,,,,7,10,,,543.1983,1,right,0.1542,,0.5,0.3,"[3,1,2]",0.146013991,stimuli/card_100_transparent.png,100,1,0,1,0,1,,,,,,,,,,
,,,,644e70a29cba8cc79d738a7a,B,2024-06-23_09h10.36.225,Slot Machine Game,2023.1.3,Win32,59.88023952,,,,,,,,,,,,,,,,,,,,,,,,,,,210,,,,,,,,,,,,,,,,,,,,,7,10,,,544.6666,2,right,0.0009,,1,0.3,"[3,1,2]",0.983337719,stimuli/card_10_transparent.png,10,2,0,2,0,1,,,,,,,,,,
,,,,644e70a29cba8cc79d738a7a,B,2024-06-23_09h10.36.225,Slot Machine Game,2023.1.3,Win32,59.88023952,,,,,,,,,,,,,,,,,,,,,,,,,,,310,,,,,,,,,,,,,,,,,,,,,7,10,,,546.5016,3,up,0.3009,,1,0.3,"[3,1,2]",0.640033371,stimuli/card_100_transparent.png,100,3,0,3,0,1,,,,,,,,,,
,,,,644e70a29cba8cc79d738a7a,B,2024-06-23_09h10.36.225,Slot Machine Game,2023.1.3,Win32,59.88023952,,,,,,,,,,,,,,,,,,,,,,,,,,,410,,,,,,,,,,,,,,,,,,,,,7,10,,,548.6207,4,up,0.0357,,0.5,0.3,"[3,1,2]",0.966467194,stimuli/card_100_transparent.png,100,4,0,4,0,1,,,,,,,,,,
,,,,644e70a29cba8cc79d738a7a,B,2024-06-23_09h10.36.225,Slot Machine Game,2023.1.3,Win32,59.88023952,,,,,,,,,,,,,,,,,,,,,,,,,,,410,,,,,,,,,,,,,,,,,,,,,7,10,,,549.9884,5,up,0.0201,,0.5,0.3,"[3,1,2]",0.097651219,stimuli/card_0_transparent.png,0,5,0,5,0,1,,,,,,,,,,
,,,,644e70a29cba8cc79d738a7a,B,2024-06-23_09h10.36.225,Slot Machine Game,2023.1.3,Win32,59.88023952,,,,,,,,,,,,,,,,,,,,,,,,,,,410,,,,,,,,,,,,,,,,,,,,,7,10,,,551.3231,6,left,0.0139,,0.5,0.3,"[3,1,2]",0.855888,stimuli/card_0_transparent.png,0,6,0,6,0,1,,,,,,,,,,
,,,,644e70a29cba8cc79d738a7a,B,2024-06-23_09h10.36.225,Slot Machine Game,2023.1.3,Win32,59.88023952,,,,,,,,,,,,,,,,,,,,,,,,,,,510,,,,,,,,,,,,,,,,,,,,,7,10,,,552.6578,7,up,0.3348,,0.5,0.3,"[3,1,2]",0.811631177,stimuli/card_100_transparent.png,100,7,0,7,0,1,,,,,,,,,,
,,,,644e70a29cba8cc79d738a7a,B,2024-06-23_09h10.36.225,Slot Machine Game,2023.1.3,Win32,59.88023952,,,,,,,,,,,,,,,,,,,,,,,,,,,610,,,,,,,,,,,,,,,,,,,,,7,10,,,554.3098,8,up,0.0008,,1,0.3,"[3,1,2]",0.537357665,stimuli/card_100_transparent.png,100,8,0,8,0,1,,,,,,,,,,
,,,,644e70a29cba8cc79d738a7a,B,2024-06-23_09h10.36.225,Slot Machine Game,2023.1.3,Win32,59.88023952,,,,,,,,,,,,,,,,,,,,,,,,,,,710,,,,,,,,,,,,,,,,,,,,,7,10,,,556.128,9,up,0.1675,,1.5,0.3,"[3,1,2]",0.267958537,stimuli/card_100_transparent.png,100,9,0,9,0,1,,,,,,,,,,
,,,,644e70a29cba8cc79d738a7a,B,2024-06-23_09h10.36.225,Slot Machine Game,2023.1.3,Win32,59.88023952,,,,,,,,,,,,,,,,,,,,,,,,,,,710,,,,,,,,,,,,,,,,,,,,,7,10,,,558.6303,10,up,0.0675,,0.5,0.3,"[1,3,2]",0.461473948,stimuli/card_0_transparent.png,0,10,0,10,0,1,,,,,,,,,,
,,,,644e70a29cba8cc79d738a7a,B,2024-06-23_09h10.36.225,Slot Machine Game,2023.1.3,Win32,59.88023952,,,,,,,,,,,,,,,,,,,,,,,,,,,710,,,,,,,,,,,,,,,,,,,,,7,10,,,560.0154,11,up,0.0307,,1,0.3,"[1,3,2]",0.90709794,stimuli/card_0_transparent.png,0,11,0,11,0,1,,,,,,,,,,
,,,,644e70a29cba8cc79d738a7a,B,2024-06-23_09h10.36.225,Slot Machine Game,2023.1.3,Win32,59.88023952,,,,,,,,,,,,,,,,,,,,,,,,,,,720,,,,,,,,,,,,,,,,,,,,,7,10,,,561.8835,12,right,0.0689,,1,0.3,"[1,3,2]",0.311250832,stimuli/card_10_transparent.png,10,12,0,12,0,1,,,,,,,,,,
,,,,644e70a29cba8cc79d738a7a,B,2024-06-23_09h10.36.225,Slot Machine Game,2023.1.3,Win32,59.88023952,,,,,,,,,,,,,,,,,,,,,,,,,,,730,,,,,,,,,,,,,,,,,,,,,7,10,,,563.7682,13,right,0.1517,,0.5,0.3,"[1,3,2]",0.70320555,stimuli/card_10_transparent.png,10,13,0,13,0,1,,,,,,,,,,
,,,,644e70a29cba8cc79d738a7a,B,2024-06-23_09h10.36.225,Slot Machine Game,2023.1.3,Win32,59.88023952,,,,,,,,,,,,,,,,,,,,,,,,,,,730,,,,,,,,,,,,,,,,,,,,,7,10,,,565.2374,14,left,0.2029,,1,0.3,"[1,3,2]",0.010044665,stimuli/card_0_transparent.png,0,14,0,14,0,1,,,,,,,,,,
,,,,644e70a29cba8cc79d738a7a,B,2024-06-23_09h10.36.225,Slot Machine Game,2023.1.3,Win32,59.88023952,,,,,,,,,,,,,,,,,,,,,,,,,,,,,,,,,,,567.2724,,,,,,,,,,,,,,,,,,,,,,,,,,,,,,,,,"[530,1030,1040,750,1120,1210,730]",6,0,6,0,1,,,,
,,,,644e70a29cba8cc79d738a7a,B,2024-06-23_09h10.36.225,Slot Machine Game,2023.1.3,Win32,59.88023952,,,,,,,,,,,,,,,,,,,,,,,,,,,100,,,,,,,,,,,,,,,,,,,,,8,7,"[9,15]","[[1,3,2],[2,3,1]]",572.2918,0,left,0.0338,,1.5,0.3,"[1,3,2]",0.596115729,stimuli/card_100_transparent.png,100,0,0,0,0,1,,,,,,,,,,
,,,,644e70a29cba8cc79d738a7a,B,2024-06-23_09h10.36.225,Slot Machine Game,2023.1.3,Win32,59.88023952,,,,,,,,,,,,,,,,,,,,,,,,,,,200,,,,,,,,,,,,,,,,,,,,,8,7,,,574.6563,1,left,0.0812,,1,0.3,"[1,3,2]",0.864719492,stimuli/card_100_transparent.png,100,1,0,1,0,1,,,,,,,,,,
,,,,644e70a29cba8cc79d738a7a,B,2024-06-23_09h10.36.225,Slot Machine Game,2023.1.3,Win32,59.88023952,,,,,,,,,,,,,,,,,,,,,,,,,,,200,,,,,,,,,,,,,,,,,,,,,8,7,,,576.5583,2,left,0.151,,1.5,0.3,"[1,3,2]",0.039299268,stimuli/card_0_transparent.png,0,2,0,2,0,1,,,,,,,,,,
,,,,644e70a29cba8cc79d738a7a,B,2024-06-23_09h10.36.225,Slot Machine Game,2023.1.3,Win32,59.88023952,,,,,,,,,,,,,,,,,,,,,,,,,,,300,,,,,,,,,,,,,,,,,,,,,8,7,,,579.0178,3,right,0.1205,,1,0.3,"[1,3,2]",0.170227969,stimuli/card_100_transparent.png,100,3,0,3,0,1,,,,,,,,,,
,,,,644e70a29cba8cc79d738a7a,B,2024-06-23_09h10.36.225,Slot Machine Game,2023.1.3,Win32,59.88023952,,,,,,,,,,,,,,,,,,,,,,,,,,,310,,,,,,,,,,,,,,,,,,,,,8,7,,,580.9625,4,right,0.1473,,1,0.3,"[1,3,2]",0.441608065,stimuli/card_10_transparent.png,10,4,0,4,0,1,,,,,,,,,,
,,,,644e70a29cba8cc79d738a7a,B,2024-06-23_09h10.36.225,Slot Machine Game,2023.1.3,Win32,59.88023952,,,,,,,,,,,,,,,,,,,,,,,,,,,310,,,,,,,,,,,,,,,,,,,,,8,7,,,582.9487,5,up,0.034,,1,0.3,"[1,3,2]",0.715314953,stimuli/card_0_transparent.png,0,5,0,5,0,1,,,,,,,,,,
,,,,644e70a29cba8cc79d738a7a,B,2024-06-23_09h10.36.225,Slot Machine Game,2023.1.3,Win32,59.88023952,,,,,,,,,,,,,,,,,,,,,,,,,,,310,,,,,,,,,,,,,,,,,,,,,8,7,,,584.8114,6,right,0.1339,,1.5,0.3,"[1,3,2]",0.050690331,stimuli/card_0_transparent.png,0,6,0,6,0,1,,,,,,,,,,
,,,,644e70a29cba8cc79d738a7a,B,2024-06-23_09h10.36.225,Slot Machine Game,2023.1.3,Win32,59.88023952,,,,,,,,,,,,,,,,,,,,,,,,,,,410,,,,,,,,,,,,,,,,,,,,,8,7,,,587.2766,7,left,0.1175,,1.5,0.3,"[1,3,2]",0.250328617,stimuli/card_100_transparent.png,100,7,0,7,0,1,,,,,,,,,,
,,,,644e70a29cba8cc79d738a7a,B,2024-06-23_09h10.36.225,Slot Machine Game,2023.1.3,Win32,59.88023952,,,,,,,,,,,,,,,,,,,,,,,,,,,510,,,,,,,,,,,,,,,,,,,,,8,7,,,589.7114,8,left,0.017,,0.5,0.3,"[1,3,2]",0.745230075,stimuli/card_100_transparent.png,100,8,0,8,0,1,,,,,,,,,,
,,,,644e70a29cba8cc79d738a7a,B,2024-06-23_09h10.36.225,Slot Machine Game,2023.1.3,Win32,59.88023952,,,,,,,,,,,,,,,,,,,,,,,,,,,520,,,,,,,,,,,,,,,,,,,,,8,7,,,591.0401,9,left,0.0844,,1.5,0.3,"[2,3,1]",0.619678715,stimuli/card_10_transparent.png,10,9,0,9,0,1,,,,,,,,,,
,,,,644e70a29cba8cc79d738a7a,B,2024-06-23_09h10.36.225,Slot Machine Game,2023.1.3,Win32,59.88023952,,,,,,,,,,,,,,,,,,,,,,,,,,,520,,,,,,,,,,,,,,,,,,,,,8,7,,,593.4583,10,up,0.0567,,1.5,0.3,"[2,3,1]",0.579471799,stimuli/card_0_transparent.png,0,10,0,10,0,1,,,,,,,,,,
,,,,644e70a29cba8cc79d738a7a,B,2024-06-23_09h10.36.225,Slot Machine Game,2023.1.3,Win32,59.88023952,,,,,,,,,,,,,,,,,,,,,,,,,,,620,,,,,,,,,,,,,,,,,,,,,8,7,,,595.8441,11,right,0.3011,,0.5,0.3,"[2,3,1]",0.780443594,stimuli/card_100_transparent.png,100,11,0,11,0,1,,,,,,,,,,
,,,,644e70a29cba8cc79d738a7a,B,2024-06-23_09h10.36.225,Slot Machine Game,2023.1.3,Win32,59.88023952,,,,,,,,,,,,,,,,,,,,,,,,,,,720,,,,,,,,,,,,,,,,,,,,,8,7,,,597.4793,12,right,0.1707,,1.5,0.3,"[2,3,1]",0.65134023,stimuli/card_100_transparent.png,100,12,0,12,0,1,,,,,,,,,,
,,,,644e70a29cba8cc79d738a7a,B,2024-06-23_09h10.36.225,Slot Machine Game,2023.1.3,Win32,59.88023952,,,,,,,,,,,,,,,,,,,,,,,,,,,820,,,,,,,,,,,,,,,,,,,,,8,7,,,599.9717,13,right,0.0368,,1.5,0.3,"[2,3,1]",0.26940254,stimuli/card_100_transparent.png,100,13,0,13,0,1,,,,,,,,,,
,,,,644e70a29cba8cc79d738a7a,B,2024-06-23_09h10.36.225,Slot Machine Game,2023.1.3,Win32,59.88023952,,,,,,,,,,,,,,,,,,,,,,,,,,,920,,,,,,,,,,,,,,,,,,,,,8,7,,,602.3239,14,right,0.1164,,1.5,0.3,"[2,3,1]",0.596079241,stimuli/card_100_transparent.png,100,14,0,14,0,1,,,,,,,,,,
,,,,644e70a29cba8cc79d738a7a,B,2024-06-23_09h10.36.225,Slot Machine Game,2023.1.3,Win32,59.88023952,,,,,,,,,,,,,,,,,,,,,,,,,,,,,,,,,,,604.7598,,,,,,,,,,,,,,,,,,,,,,,,,,,,,,,,,"[530,1030,1040,750,1120,1210,730,920]",7,0,7,0,1,,,,
,,,,644e70a29cba8cc79d738a7a,B,2024-06-23_09h10.36.225,Slot Machine Game,2023.1.3,Win32,59.88023952,,,,,,,,,,,,,,,,,,,,,,,,,,,100,,,,,,,,,,,,,,,,,,,,,9,9,[15],"[[3,1,2]]",609.7759,0,up,0.1309,,0.5,0.3,"[3,1,2]",0.788587937,stimuli/card_100_transparent.png,100,0,0,0,0,1,,,,,,,,,,
,,,,644e70a29cba8cc79d738a7a,B,2024-06-23_09h10.36.225,Slot Machine Game,2023.1.3,Win32,59.88023952,,,,,,,,,,,,,,,,,,,,,,,,,,,200,,,,,,,,,,,,,,,,,,,,,9,9,,,611.2261,1,up,0.1673,,1,0.3,"[3,1,2]",0.200211807,stimuli/card_100_transparent.png,100,1,0,1,0,1,,,,,,,,,,
,,,,644e70a29cba8cc79d738a7a,B,2024-06-23_09h10.36.225,Slot Machine Game,2023.1.3,Win32,59.88023952,,,,,,,,,,,,,,,,,,,,,,,,,,,300,,,,,,,,,,,,,,,,,,,,,9,9,,,613.2183,2,up,0.1844,,1,0.3,"[3,1,2]",0.267289293,stimuli/card_100_transparent.png,100,2,0,2,0,1,,,,,,,,,,
,,,,644e70a29cba8cc79d738a7a,B,2024-06-23_09h10.36.225,Slot Machine Game,2023.1.3,Win32,59.88023952,,,,,,,,,,,,,,,,,,,,,,,,,,,310,,,,,,,,,,,,,,,,,,,,,9,9,,,615.2203,3,up,0.0201,,0.5,0.3,"[3,1,2]",0.148880403,stimuli/card_10_transparent.png,10,3,0,3,0,1,,,,,,,,,,
,,,,644e70a29cba8cc79d738a7a,B,2024-06-23_09h10.36.225,Slot Machine Game,2023.1.3,Win32,59.88023952,,,,,,,,,,,,,,,,,,,,,,,,,,,310,,,,,,,,,,,,,,,,,,,,,9,9,,,616.5548,4,left,0.1307,,1,0.3,"[3,1,2]",0.682494386,stimuli/card_0_transparent.png,0,4,0,4,0,1,,,,,,,,,,
,,,,644e70a29cba8cc79d738a7a,B,2024-06-23_09h10.36.225,Slot Machine Game,2023.1.3,Win32,59.88023952,,,,,,,,,,,,,,,,,,,,,,,,,,,320,,,,,,,,,,,,,,,,,,,,,9,9,,,618.5071,5,right,0.1174,,1,0.3,"[3,1,2]",0.400897895,stimuli/card_10_transparent.png,10,5,0,5,0,1,,,,,,,,,,
,,,,644e70a29cba8cc79d738a7a,B,2024-06-23_09h10.36.225,Slot Machine Game,2023.1.3,Win32,59.88023952,,,,,,,,,,,,,,,,,,,,,,,,,,,420,,,,,,,,,,,,,,,,,,,,,9,9,,,620.4589,6,up,0.0473,,1.5,0.3,"[3,1,2]",0.904605186,stimuli/card_100_transparent.png,100,6,0,6,0,1,,,,,,,,,,
,,,,644e70a29cba8cc79d738a7a,B,2024-06-23_09h10.36.225,Slot Machine Game,2023.1.3,Win32,59.88023952,,,,,,,,,,,,,,,,,,,,,,,,,,,520,,,,,,,,,,,,,,,,,,,,,9,9,,,622.8279,7,up,0.0806,,1,0.3,"[3,1,2]",0.528120888,stimuli/card_100_transparent.png,100,7,0,7,0,1,,,,,,,,,,
,,,,644e70a29cba8cc79d738a7a,B,2024-06-23_09h10.36.225,Slot Machine Game,2023.1.3,Win32,59.88023952,,,,,,,,,,,,,,,,,,,,,,,,,,,620,,,,,,,,,,,,,,,,,,,,,9,9,,,624.7464,8,up,0.0224,,1,0.3,"[3,1,2]",0.846053722,stimuli/card_100_transparent.png,100,8,0,8,0,1,,,,,,,,,,
,,,,644e70a29cba8cc79d738a7a,B,2024-06-23_09h10.36.225,Slot Machine Game,2023.1.3,Win32,59.88023952,,,,,,,,,,,,,,,,,,,,,,,,,,,620,,,,,,,,,,,,,,,,,,,,,9,9,,,626.5816,9,up,0.0307,,0.5,0.3,"[3,1,2]",0.093853907,stimuli/card_0_transparent.png,0,9,0,9,0,1,,,,,,,,,,
,,,,644e70a29cba8cc79d738a7a,B,2024-06-23_09h10.36.225,Slot Machine Game,2023.1.3,Win32,59.88023952,,,,,,,,,,,,,,,,,,,,,,,,,,,630,,,,,,,,,,,,,,,,,,,,,9,9,,,627.933,10,right,0.1479,,0.5,0.3,"[3,1,2]",0.412549432,stimuli/card_10_transparent.png,10,10,0,10,0,1,,,,,,,,,,
,,,,644e70a29cba8cc79d738a7a,B,2024-06-23_09h10.36.225,Slot Machine Game,2023.1.3,Win32,59.88023952,,,,,,,,,,,,,,,,,,,,,,,,,,,630,,,,,,,,,,,,,,,,,,,,,9,9,,,629.4012,11,left,0.064,,1.5,0.3,"[3,1,2]",0.61482409,stimuli/card_0_transparent.png,0,11,0,11,0,1,,,,,,,,,,
,,,,644e70a29cba8cc79d738a7a,B,2024-06-23_09h10.36.225,Slot Machine Game,2023.1.3,Win32,59.88023952,,,,,,,,,,,,,,,,,,,,,,,,,,,730,,,,,,,,,,,,,,,,,,,,,9,9,,,631.8035,12,up,0.1842,,1,0.3,"[3,1,2]",0.968565965,stimuli/card_100_transparent.png,100,12,0,12,0,1,,,,,,,,,,
,,,,644e70a29cba8cc79d738a7a,B,2024-06-23_09h10.36.225,Slot Machine Game,2023.1.3,Win32,59.88023952,,,,,,,,,,,,,,,,,,,,,,,,,,,830,,,,,,,,,,,,,,,,,,,,,9,9,,,633.8058,13,up,0.2979,,0.5,0.3,"[3,1,2]",0.681360519,stimuli/card_100_transparent.png,100,13,0,13,0,1,,,,,,,,,,
,,,,644e70a29cba8cc79d738a7a,B,2024-06-23_09h10.36.225,Slot Machine Game,2023.1.3,Win32,59.88023952,,,,,,,,,,,,,,,,,,,,,,,,,,,930,,,,,,,,,,,,,,,,,,,,,9,9,,,635.4404,14,up,0.0806,,0.5,0.3,"[3,1,2]",0.318436239,stimuli/card_100_transparent.png,100,14,0,14,0,1,,,,,,,,,,
,,,,644e70a29cba8cc79d738a7a,B,2024-06-23_09h10.36.225,Slot Machine Game,2023.1.3,Win32,59.88023952,,,,,,,,,,,,,,,,,,,,,,,,,,,,,,,,,,,636.8584,,,,,,,,,,,,,,,,,,,,,,,,,,,,,,,,,"[530,1030,1040,750,1120,1210,730,920,930]",8,0,8,0,1,,,,
,,,,644e70a29cba8cc79d738a7a,B,2024-06-23_09h10.36.225,Slot Machine Game,2023.1.3,Win32,59.88023952,,,,,,,,,,,,,,,,,,,,,,,,,,,0,,,,,,,,,,,,,,,,,,,,,10,6,"[4,10,15]","[[2,3,1],[1,3,2],[3,2,1]]",641.8783,0,up,0.1178,,1.5,0.3,"[2,3,1]",0.940868896,stimuli/card_0_transparent.png,0,0,0,0,0,1,,,,,,,,,,
,,,,644e70a29cba8cc79d738a7a,B,2024-06-23_09h10.36.225,Slot Machine Game,2023.1.3,Win32,59.88023952,,,,,,,,,,,,,,,,,,,,,,,,,,,100,,,,,,,,,,,,,,,,,,,,,10,6,,,644.3258,1,right,0.1425,,0.5,0.3,"[2,3,1]",0.705772444,stimuli/card_100_transparent.png,100,1,0,1,0,1,,,,,,,,,,
,,,,644e70a29cba8cc79d738a7a,B,2024-06-23_09h10.36.225,Slot Machine Game,2023.1.3,Win32,59.88023952,,,,,,,,,,,,,,,,,,,,,,,,,,,200,,,,,,,,,,,,,,,,,,,,,10,6,,,645.7675,2,right,0.0009,,0.5,0.3,"[2,3,1]",0.993160179,stimuli/card_100_transparent.png,100,2,0,2,0,1,,,,,,,,,,
,,,,644e70a29cba8cc79d738a7a,B,2024-06-23_09h10.36.225,Slot Machine Game,2023.1.3,Win32,59.88023952,,,,,,,,,,,,,,,,,,,,,,,,,,,300,,,,,,,,,,,,,,,,,,,,,10,6,,,647.1023,3,right,0.0851,,1.5,0.3,"[2,3,1]",0.254086894,stimuli/card_100_transparent.png,100,3,0,3,0,1,,,,,,,,,,
,,,,644e70a29cba8cc79d738a7a,B,2024-06-23_09h10.36.225,Slot Machine Game,2023.1.3,Win32,59.88023952,,,,,,,,,,,,,,,,,,,,,,,,,,,310,,,,,,,,,,,,,,,,,,,,,10,6,,,649.5214,4,right,0.1763,,1.5,0.3,"[1,3,2]",0.377134391,stimuli/card_10_transparent.png,10,4,0,4,0,1,,,,,,,,,,
,,,,644e70a29cba8cc79d738a7a,B,2024-06-23_09h10.36.225,Slot Machine Game,2023.1.3,Win32,59.88023952,,,,,,,,,,,,,,,,,,,,,,,,,,,310,,,,,,,,,,,,,,,,,,,,,10,6,,,652.007,5,left,0.0306,,0.5,0.3,"[1,3,2]",0.045976063,stimuli/card_0_transparent.png,0,5,0,5,0,1,,,,,,,,,,
,,,,644e70a29cba8cc79d738a7a,B,2024-06-23_09h10.36.225,Slot Machine Game,2023.1.3,Win32,59.88023952,,,,,,,,,,,,,,,,,,,,,,,,,,,310,,,,,,,,,,,,,,,,,,,,,10,6,,,653.375,6,up,0.0343,,1.5,0.3,"[1,3,2]",0.991715347,stimuli/card_0_transparent.png,0,6,0,6,0,1,,,,,,,,,,
,,,,644e70a29cba8cc79d738a7a,B,2024-06-23_09h10.36.225,Slot Machine Game,2023.1.3,Win32,59.88023952,,,,,,,,,,,,,,,,,,,,,,,,,,,320,,,,,,,,,,,,,,,,,,,,,10,6,,,655.7441,7,right,0.0343,,1.5,0.3,"[1,3,2]",0.336583505,stimuli/card_10_transparent.png,10,7,0,7,0,1,,,,,,,,,,
,,,,644e70a29cba8cc79d738a7a,B,2024-06-23_09h10.36.225,Slot Machine Game,2023.1.3,Win32,59.88023952,,,,,,,,,,,,,,,,,,,,,,,,,,,320,,,,,,,,,,,,,,,,,,,,,10,6,,,658.113,8,up,0.9352,,1.5,0.3,"[1,3,2]",0.904091531,stimuli/card_0_transparent.png,0,8,0,8,0,1,,,,,,,,,,
,,,,644e70a29cba8cc79d738a7a,B,2024-06-23_09h10.36.225,Slot Machine Game,2023.1.3,Win32,59.88023952,,,,,,,,,,,,,,,,,,,,,,,,,,,330,,,,,,,,,,,,,,,,,,,,,10,6,,,661.376,9,left,0.1511,,1.5,0.3,"[1,3,2]",0.139559055,stimuli/card_10_transparent.png,10,9,0,9,0,1,,,,,,,,,,
,,,,644e70a29cba8cc79d738a7a,B,2024-06-23_09h10.36.225,Slot Machine Game,2023.1.3,Win32,59.88023952,,,,,,,,,,,,,,,,,,,,,,,,,,,430,,,,,,,,,,,,,,,,,,,,,10,6,,,663.8367,10,right,0.1882,,0.5,0.3,"[3,2,1]",0.708146641,stimuli/card_100_transparent.png,100,10,0,10,0,1,,,,,,,,,,
,,,,644e70a29cba8cc79d738a7a,B,2024-06-23_09h10.36.225,Slot Machine Game,2023.1.3,Win32,59.88023952,,,,,,,,,,,,,,,,,,,,,,,,,,,530,,,,,,,,,,,,,,,,,,,,,10,6,,,665.3536,11,right,0.0971,,0.5,0.3,"[3,2,1]",0.892899438,stimuli/card_100_transparent.png,100,11,0,11,0,1,,,,,,,,,,
,,,,644e70a29cba8cc79d738a7a,B,2024-06-23_09h10.36.225,Slot Machine Game,2023.1.3,Win32,59.88023952,,,,,,,,,,,,,,,,,,,,,,,,,,,630,,,,,,,,,,,,,,,,,,,,,10,6,,,666.7886,12,right,0.0831,,1,0.3,"[3,2,1]",0.718008165,stimuli/card_100_transparent.png,100,12,0,12,0,1,,,,,,,,,,
,,,,644e70a29cba8cc79d738a7a,B,2024-06-23_09h10.36.225,Slot Machine Game,2023.1.3,Win32,59.88023952,,,,,,,,,,,,,,,,,,,,,,,,,,,730,,,,,,,,,,,,,,,,,,,,,10,6,,,668.7071,13,right,0.1895,,1.5,0.3,"[3,2,1]",0.376962686,stimuli/card_100_transparent.png,100,13,0,13,0,1,,,,,,,,,,
,,,,644e70a29cba8cc79d738a7a,B,2024-06-23_09h10.36.225,Slot Machine Game,2023.1.3,Win32,59.88023952,,,,,,,,,,,,,,,,,,,,,,,,,,,830,,,,,,,,,,,,,,,,,,,,,10,6,,,671.2261,14,right,0.1165,,0.5,0.3,"[3,2,1]",0.214407361,stimuli/card_100_transparent.png,100,14,0,14,0,1,,,,,,,,,,
,,,,644e70a29cba8cc79d738a7a,B,2024-06-23_09h10.36.225,Slot Machine Game,2023.1.3,Win32,59.88023952,,,,,,,,,,,,,,,,,,,,,,,,,,,,,,,,,,,672.6608,,,,,,,,,,,,,,,,,,,,,,,,,,,,,,,,,"[530,1030,1040,750,1120,1210,730,920,930,830]",9,0,9,0,1,,,,
,,,,644e70a29cba8cc79d738a7a,B,2024-06-23_09h10.36.225,Slot Machine Game,2023.1.3,Win32,59.88023952,,,,,,,,,,,,,,,,,,,,,,,,,,,,,,,,,,,,,,,,,,,,,,,,,,,,,,,,,,,,,,,,,,,,,,,,,,9,"[530,1030,1040,750,1120,1210,730,920,930,830]",10.4,2024-06-23_09h21.58.001
