key_resp_welcome_started,key_resp_welcome_keys,key_resp_welcome_rt,key_resp_welcome_duration,prolific_id,path_id,date,expName,psychopyVersion,OS,frameRate,key_resp_instruction1_started,key_resp_instruction1_keys,key_resp_instruction1_rt,key_resp_instruction1_duration,key_resp_instruction2_started,key_resp_instruction2_keys,key_resp_instruction2_rt,key_resp_instruction2_duration,key_resp_instruction3_started,key_resp_instruction3_keys,key_resp_instruction3_rt,key_resp_instruction3_duration,key_resp_instruction4_started,key_resp_instruction4_keys,key_resp_instruction4_rt,key_resp_instruction4_duration,practiceCondition,practice_reward_seqs,practice_trial_started,practice_trial_num,practice_resp_rt,practice_resp_duration,practice_resp_keys,prac_presentationInterval,"practice_reward_seq: 2,1,3",reward_img,cumulative_reward,trial_reward,practice_trials.thisRepN,practice_trials.thisTrialN,practice_trials.thisN,practice_trials.thisIndex,practice_trials.ran,"practice_reward_seq: 2,3,1",block_break_started,"practice_reward_seq: 1,3,2","practice_reward_seq: 3,1,2",practice_end_time,practice_end_keys,practice_end_rt,practice_end_duration,main_instruction_text_started,block_condition,block_order_indices,main_instruction_keys,main_instruction_rt,main_instruction_duration,block_number,block_assignment,current_condition,main_reward_seqs,main_trial_started,main_trial_num,main_trial_keys,main_trial_rt,main_trial_duration,main_presentationInterval,reward_presentation_time,main_reward_seq,reward_rand_val,main_reward_img,current_reward,main_trials.thisRepN,main_trials.thisTrialN,main_trials.thisN,main_trials.thisIndex,main_trials.ran,block_reward,block.thisRepN,block.thisTrialN,block.thisN,block.thisIndex,block.ran,block_reward.length,block_reward_all,reward_amount,date_end_task
0.0003,space,3.3362,,6479c87daabda4a5809a752d,A,2024-07-02_14h03.54.419,Slot Machine Game,2023.1.3,Win32,59.17159763,,,,,,,,,,,,,,,,,,,,,,,,,,,,,,,,,,,,,,,,,,,,,,,,,,,,,,,,,,,,,,,,,,,,,,,,,,,,,
,,,,6479c87daabda4a5809a752d,A,2024-07-02_14h03.54.419,Slot Machine Game,2023.1.3,Win32,59.17159763,3.3488,space,6.4683,,,,,,,,,,,,,,,,,,,,,,,,,,,,,,,,,,,,,,,,,,,,,,,,,,,,,,,,,,,,,,,,,,,,,,,,,,
,,,,6479c87daabda4a5809a752d,A,2024-07-02_14h03.54.419,Slot Machine Game,2023.1.3,Win32,59.17159763,,,,,9.8349,space,6.8028,,,,,,,,,,,,,,,,,,,,,,,,,,,,,,,,,,,,,,,,,,,,,,,,,,,,,,,,,,,,,,,,,,,,,,
,,,,6479c87daabda4a5809a752d,A,2024-07-02_14h03.54.419,Slot Machine Game,2023.1.3,Win32,59.17159763,,,,,,,,,16.7005,space,0.4852,,,,,,,,,,,,,,,,,,,,,,,,,,,,,,,,,,,,,,,,,,,,,,,,,,,,,,,,,,,,,,,,,,
,,,,6479c87daabda4a5809a752d,A,2024-07-02_14h03.54.419,Slot Machine Game,2023.1.3,Win32,59.17159763,,,,,,,,,,,,,,,,,,,,,,,,,,,,,,,,,,,,,,,,,,,,,,,,,,,,,,,,,,,,,,,,,,,,,,,,,,,,,
,,,,6479c87daabda4a5809a752d,A,2024-07-02_14h03.54.419,Slot Machine Game,2023.1.3,Win32,59.17159763,,,,,,,,,,,,,158.9498,right,0.3401,,,,,,,,,,,,,,,,,,,,,,,,,,,,,,,,,,,,,,,,,,,,,,,,,,,,,,,,,,,,,,
,,,,6479c87daabda4a5809a752d,A,2024-07-02_14h03.54.419,Slot Machine Game,2023.1.3,Win32,59.17159763,,,,,,,,,,,,,,,,,"[9,15]","[[2,1,3],[2,3,1]]",159.328,0,0.0009,,left,1,,stimuli/card_10_transparent.png,10,10,0,0,0,0,1,,,,,,,,,,,,,,,,,,,,,,,,,,,,,,,,,,,,,,,,,,,,
,,,,6479c87daabda4a5809a752d,A,2024-07-02_14h03.54.419,Slot Machine Game,2023.1.3,Win32,59.17159763,,,,,,,,,,,,,,,,,,,161.1741,1,0.0776,,up,1,,stimuli/card_100_transparent.png,110,100,1,0,1,0,1,,,,,,,,,,,,,,,,,,,,,,,,,,,,,,,,,,,,,,,,,,,,
,,,,6479c87daabda4a5809a752d,A,2024-07-02_14h03.54.419,Slot Machine Game,2023.1.3,Win32,59.17159763,,,,,,,,,,,,,,,,,,,163.0813,2,0.1501,,right,1.5,,stimuli/card_0_transparent.png,110,0,2,0,2,0,1,,,,,,,,,,,,,,,,,,,,,,,,,,,,,,,,,,,,,,,,,,,,
,,,,6479c87daabda4a5809a752d,A,2024-07-02_14h03.54.419,Slot Machine Game,2023.1.3,Win32,59.17159763,,,,,,,,,,,,,,,,,,,165.5605,3,0.1867,,right,1,,stimuli/card_0_transparent.png,110,0,3,0,3,0,1,,,,,,,,,,,,,,,,,,,,,,,,,,,,,,,,,,,,,,,,,,,,
,,,,6479c87daabda4a5809a752d,A,2024-07-02_14h03.54.419,Slot Machine Game,2023.1.3,Win32,59.17159763,,,,,,,,,,,,,,,,,,,167.576,4,0.1358,,right,1,,stimuli/card_0_transparent.png,110,0,4,0,4,0,1,,,,,,,,,,,,,,,,,,,,,,,,,,,,,,,,,,,,,,,,,,,,
,,,,6479c87daabda4a5809a752d,A,2024-07-02_14h03.54.419,Slot Machine Game,2023.1.3,Win32,59.17159763,,,,,,,,,,,,,,,,,,,169.5394,5,0.1023,,up,1.5,,stimuli/card_100_transparent.png,210,100,5,0,5,0,1,,,,,,,,,,,,,,,,,,,,,,,,,,,,,,,,,,,,,,,,,,,,
,,,,6479c87daabda4a5809a752d,A,2024-07-02_14h03.54.419,Slot Machine Game,2023.1.3,Win32,59.17159763,,,,,,,,,,,,,,,,,,,171.9712,6,0.0737,,up,1.5,,stimuli/card_100_transparent.png,310,100,6,0,6,0,1,,,,,,,,,,,,,,,,,,,,,,,,,,,,,,,,,,,,,,,,,,,,
,,,,6479c87daabda4a5809a752d,A,2024-07-02_14h03.54.419,Slot Machine Game,2023.1.3,Win32,59.17159763,,,,,,,,,,,,,,,,,,,174.3712,7,0.0861,,up,1,,stimuli/card_100_transparent.png,410,100,7,0,7,0,1,,,,,,,,,,,,,,,,,,,,,,,,,,,,,,,,,,,,,,,,,,,,
,,,,6479c87daabda4a5809a752d,A,2024-07-02_14h03.54.419,Slot Machine Game,2023.1.3,Win32,59.17159763,,,,,,,,,,,,,,,,,,,176.2901,8,0.072,,up,0.5,,stimuli/card_100_transparent.png,510,100,8,0,8,0,1,,,,,,,,,,,,,,,,,,,,,,,,,,,,,,,,,,,,,,,,,,,,
,,,,6479c87daabda4a5809a752d,A,2024-07-02_14h03.54.419,Slot Machine Game,2023.1.3,Win32,59.17159763,,,,,,,,,,,,,,,,,,,177.6874,9,0.4099,,up,0.5,,stimuli/card_0_transparent.png,510,0,9,0,9,0,1,,,,,,,,,,,,,,,,,,,,,,,,,,,,,,,,,,,,,,,,,,,,
,,,,6479c87daabda4a5809a752d,A,2024-07-02_14h03.54.419,Slot Machine Game,2023.1.3,Win32,59.17159763,,,,,,,,,,,,,,,,,,,179.4202,10,0.1015,,left,0.5,,stimuli/card_10_transparent.png,520,10,10,0,10,0,1,,,,,,,,,,,,,,,,,,,,,,,,,,,,,,,,,,,,,,,,,,,,
,,,,6479c87daabda4a5809a752d,A,2024-07-02_14h03.54.419,Slot Machine Game,2023.1.3,Win32,59.17159763,,,,,,,,,,,,,,,,,,,180.8528,11,0.306,,up,1,,stimuli/card_100_transparent.png,620,100,11,0,11,0,1,,,,,,,,,,,,,,,,,,,,,,,,,,,,,,,,,,,,,,,,,,,,
,,,,6479c87daabda4a5809a752d,A,2024-07-02_14h03.54.419,Slot Machine Game,2023.1.3,Win32,59.17159763,,,,,,,,,,,,,,,,,,,182.9862,12,0.2447,,up,1,,stimuli/card_0_transparent.png,620,0,12,0,12,0,1,,,,,,,,,,,,,,,,,,,,,,,,,,,,,,,,,,,,,,,,,,,,
,,,,6479c87daabda4a5809a752d,A,2024-07-02_14h03.54.419,Slot Machine Game,2023.1.3,Win32,59.17159763,,,,,,,,,,,,,,,,,,,185.0532,13,0.0036,,right,1,,stimuli/card_100_transparent.png,720,100,13,0,13,0,1,,,,,,,,,,,,,,,,,,,,,,,,,,,,,,,,,,,,,,,,,,,,
,,,,6479c87daabda4a5809a752d,A,2024-07-02_14h03.54.419,Slot Machine Game,2023.1.3,Win32,59.17159763,,,,,,,,,,,,,,,,,,,186.8862,14,0.1527,,right,0.5,,stimuli/card_10_transparent.png,730,10,14,0,14,0,1,,,,,,,,,,,,,,,,,,,,,,,,,,,,,,,,,,,,,,,,,,,,
,,,,6479c87daabda4a5809a752d,A,2024-07-02_14h03.54.419,Slot Machine Game,2023.1.3,Win32,59.17159763,,,,,,,,,,,,,,,,,"[6,15]","[[1,3,2],[3,1,2]]",193.4255,0,0.2176,,up,1.5,,stimuli/card_0_transparent.png,0,0,0,0,0,0,1,,188.4095,,,,,,,,,,,,,,,,,,,,,,,,,,,,,,,,,,,,,,,,,,
,,,,6479c87daabda4a5809a752d,A,2024-07-02_14h03.54.419,Slot Machine Game,2023.1.3,Win32,59.17159763,,,,,,,,,,,,,,,,,,,195.9683,1,0.2517,,left,1.5,,stimuli/card_0_transparent.png,0,0,1,0,1,0,1,,,,,,,,,,,,,,,,,,,,,,,,,,,,,,,,,,,,,,,,,,,,
,,,,6479c87daabda4a5809a752d,A,2024-07-02_14h03.54.419,Slot Machine Game,2023.1.3,Win32,59.17159763,,,,,,,,,,,,,,,,,,,198.5501,2,0.4011,,right,1.5,,stimuli/card_10_transparent.png,10,10,2,0,2,0,1,,,,,,,,,,,,,,,,,,,,,,,,,,,,,,,,,,,,,,,,,,,,
,,,,6479c87daabda4a5809a752d,A,2024-07-02_14h03.54.419,Slot Machine Game,2023.1.3,Win32,59.17159763,,,,,,,,,,,,,,,,,,,201.2842,3,0.1011,,right,1.5,,stimuli/card_10_transparent.png,20,10,3,0,3,0,1,,,,,,,,,,,,,,,,,,,,,,,,,,,,,,,,,,,,,,,,,,,,
,,,,6479c87daabda4a5809a752d,A,2024-07-02_14h03.54.419,Slot Machine Game,2023.1.3,Win32,59.17159763,,,,,,,,,,,,,,,,,,,203.7165,4,0.3096,,up,1.5,,stimuli/card_100_transparent.png,120,100,4,0,4,0,1,,,,,,,,,,,,,,,,,,,,,,,,,,,,,,,,,,,,,,,,,,,,
,,,,6479c87daabda4a5809a752d,A,2024-07-02_14h03.54.419,Slot Machine Game,2023.1.3,Win32,59.17159763,,,,,,,,,,,,,,,,,,,206.3487,5,0.0184,,up,0.5,,stimuli/card_0_transparent.png,120,0,5,0,5,0,1,,,,,,,,,,,,,,,,,,,,,,,,,,,,,,,,,,,,,,,,,,,,
,,,,6479c87daabda4a5809a752d,A,2024-07-02_14h03.54.419,Slot Machine Game,2023.1.3,Win32,59.17159763,,,,,,,,,,,,,,,,,,,207.6995,6,0.0355,,left,1.5,,stimuli/card_0_transparent.png,120,0,6,0,6,0,1,,,,,,,,,,,,,,,,,,,,,,,,,,,,,,,,,,,,,,,,,,,,
,,,,6479c87daabda4a5809a752d,A,2024-07-02_14h03.54.419,Slot Machine Game,2023.1.3,Win32,59.17159763,,,,,,,,,,,,,,,,,,,210.0644,7,0.1407,,right,1.5,,stimuli/card_10_transparent.png,130,10,7,0,7,0,1,,,,,,,,,,,,,,,,,,,,,,,,,,,,,,,,,,,,,,,,,,,,
,,,,6479c87daabda4a5809a752d,A,2024-07-02_14h03.54.419,Slot Machine Game,2023.1.3,Win32,59.17159763,,,,,,,,,,,,,,,,,,,212.5153,8,0.4466,,up,1.5,,stimuli/card_100_transparent.png,230,100,8,0,8,0,1,,,,,,,,,,,,,,,,,,,,,,,,,,,,,,,,,,,,,,,,,,,,
,,,,6479c87daabda4a5809a752d,A,2024-07-02_14h03.54.419,Slot Machine Game,2023.1.3,Win32,59.17159763,,,,,,,,,,,,,,,,,,,215.2978,9,0.0731,,up,0.5,,stimuli/card_100_transparent.png,330,100,9,0,9,0,1,,,,,,,,,,,,,,,,,,,,,,,,,,,,,,,,,,,,,,,,,,,,
,,,,6479c87daabda4a5809a752d,A,2024-07-02_14h03.54.419,Slot Machine Game,2023.1.3,Win32,59.17159763,,,,,,,,,,,,,,,,,,,216.6981,10,0.1026,,up,1,,stimuli/card_100_transparent.png,430,100,10,0,10,0,1,,,,,,,,,,,,,,,,,,,,,,,,,,,,,,,,,,,,,,,,,,,,
,,,,6479c87daabda4a5809a752d,A,2024-07-02_14h03.54.419,Slot Machine Game,2023.1.3,Win32,59.17159763,,,,,,,,,,,,,,,,,,,218.63,11,0.1347,,up,1,,stimuli/card_100_transparent.png,530,100,11,0,11,0,1,,,,,,,,,,,,,,,,,,,,,,,,,,,,,,,,,,,,,,,,,,,,
,,,,6479c87daabda4a5809a752d,A,2024-07-02_14h03.54.419,Slot Machine Game,2023.1.3,Win32,59.17159763,,,,,,,,,,,,,,,,,,,220.5955,12,0.0744,,up,0.5,,stimuli/card_100_transparent.png,630,100,12,0,12,0,1,,,,,,,,,,,,,,,,,,,,,,,,,,,,,,,,,,,,,,,,,,,,
,,,,6479c87daabda4a5809a752d,A,2024-07-02_14h03.54.419,Slot Machine Game,2023.1.3,Win32,59.17159763,,,,,,,,,,,,,,,,,,,221.9972,13,0.2188,,up,1,,stimuli/card_100_transparent.png,730,100,13,0,13,0,1,,,,,,,,,,,,,,,,,,,,,,,,,,,,,,,,,,,,,,,,,,,,
,,,,6479c87daabda4a5809a752d,A,2024-07-02_14h03.54.419,Slot Machine Game,2023.1.3,Win32,59.17159763,,,,,,,,,,,,,,,,,,,224.0467,14,0.2182,,up,1,,stimuli/card_100_transparent.png,830,100,14,0,14,0,1,,,,,,,,,,,,,,,,,,,,,,,,,,,,,,,,,,,,,,,,,,,,
,,,,6479c87daabda4a5809a752d,A,2024-07-02_14h03.54.419,Slot Machine Game,2023.1.3,Win32,59.17159763,,,,,,,,,,,,,,,,,,,,,,,,,,,,,,,,,,,226.096,,,231.0982,space,2.6573,,,,,,,,,,,,,,,,,,,,,,,,,,,,,,,,,,,,,
,,,,6479c87daabda4a5809a752d,A,2024-07-02_14h03.54.419,Slot Machine Game,2023.1.3,Win32,59.17159763,,,,,,,,,,,,,,,,,,,,,,,,,,,,,,,,,,,,,,,,,,233.7826,3,"[0,4,6,3,5,7,8,1,9,2]",space,2.2833,,,,,,,,,,,,,,,,,,,,,,,,,,,,,,,
,,,,6479c87daabda4a5809a752d,A,2024-07-02_14h03.54.419,Slot Machine Game,2023.1.3,Win32,59.17159763,,,,,,,,,,,,,,,,,,,,,,,,,,,100,,,,,,,,,,,,,,,,,,,,,1,1,"[12,15]","[[2,1,3],[2,3,1]]",236.1442,0,up,1.1176,,1.5,0.3,"[2,1,3]",0.865808993,stimuli/card_100_transparent.png,100,0,0,0,0,1,,,,,,,,,,
,,,,6479c87daabda4a5809a752d,A,2024-07-02_14h03.54.419,Slot Machine Game,2023.1.3,Win32,59.17159763,,,,,,,,,,,,,,,,,,,,,,,,,,,100,,,,,,,,,,,,,,,,,,,,,1,1,,,239.5946,1,up,0.2021,,1.5,0.3,"[2,1,3]",0.010782482,stimuli/card_0_transparent.png,0,1,0,1,0,1,,,,,,,,,,
,,,,6479c87daabda4a5809a752d,A,2024-07-02_14h03.54.419,Slot Machine Game,2023.1.3,Win32,59.17159763,,,,,,,,,,,,,,,,,,,,,,,,,,,200,,,,,,,,,,,,,,,,,,,,,1,1,,,242.127,2,up,0.3514,,1,0.3,"[2,1,3]",0.935406872,stimuli/card_100_transparent.png,100,2,0,2,0,1,,,,,,,,,,
,,,,6479c87daabda4a5809a752d,A,2024-07-02_14h03.54.419,Slot Machine Game,2023.1.3,Win32,59.17159763,,,,,,,,,,,,,,,,,,,,,,,,,,,300,,,,,,,,,,,,,,,,,,,,,1,1,,,244.3093,3,up,0.157,,0.5,0.3,"[2,1,3]",0.552555464,stimuli/card_100_transparent.png,100,3,0,3,0,1,,,,,,,,,,
,,,,6479c87daabda4a5809a752d,A,2024-07-02_14h03.54.419,Slot Machine Game,2023.1.3,Win32,59.17159763,,,,,,,,,,,,,,,,,,,,,,,,,,,400,,,,,,,,,,,,,,,,,,,,,1,1,,,245.7925,4,up,0.0857,,1.5,0.3,"[2,1,3]",0.901938022,stimuli/card_100_transparent.png,100,4,0,4,0,1,,,,,,,,,,
,,,,6479c87daabda4a5809a752d,A,2024-07-02_14h03.54.419,Slot Machine Game,2023.1.3,Win32,59.17159763,,,,,,,,,,,,,,,,,,,,,,,,,,,500,,,,,,,,,,,,,,,,,,,,,1,1,,,248.2084,5,up,0.2331,,1.5,0.3,"[2,1,3]",0.367797067,stimuli/card_100_transparent.png,100,5,0,5,0,1,,,,,,,,,,
,,,,6479c87daabda4a5809a752d,A,2024-07-02_14h03.54.419,Slot Machine Game,2023.1.3,Win32,59.17159763,,,,,,,,,,,,,,,,,,,,,,,,,,,600,,,,,,,,,,,,,,,,,,,,,1,1,,,250.7735,6,up,0.1423,,1.5,0.3,"[2,1,3]",0.517167736,stimuli/card_100_transparent.png,100,6,0,6,0,1,,,,,,,,,,
,,,,6479c87daabda4a5809a752d,A,2024-07-02_14h03.54.419,Slot Machine Game,2023.1.3,Win32,59.17159763,,,,,,,,,,,,,,,,,,,,,,,,,,,700,,,,,,,,,,,,,,,,,,,,,1,1,,,253.241,7,up,0.0849,,1.5,0.3,"[2,1,3]",0.257491715,stimuli/card_100_transparent.png,100,7,0,7,0,1,,,,,,,,,,
,,,,6479c87daabda4a5809a752d,A,2024-07-02_14h03.54.419,Slot Machine Game,2023.1.3,Win32,59.17159763,,,,,,,,,,,,,,,,,,,,,,,,,,,700,,,,,,,,,,,,,,,,,,,,,1,1,,,255.6444,8,up,0.2272,,1.5,0.3,"[2,1,3]",0.023733216,stimuli/card_0_transparent.png,0,8,0,8,0,1,,,,,,,,,,
,,,,6479c87daabda4a5809a752d,A,2024-07-02_14h03.54.419,Slot Machine Game,2023.1.3,Win32,59.17159763,,,,,,,,,,,,,,,,,,,,,,,,,,,800,,,,,,,,,,,,,,,,,,,,,1,1,,,258.1789,9,up,0.1184,,1.5,0.3,"[2,1,3]",0.928037792,stimuli/card_100_transparent.png,100,9,0,9,0,1,,,,,,,,,,
,,,,6479c87daabda4a5809a752d,A,2024-07-02_14h03.54.419,Slot Machine Game,2023.1.3,Win32,59.17159763,,,,,,,,,,,,,,,,,,,,,,,,,,,900,,,,,,,,,,,,,,,,,,,,,1,1,,,260.6232,10,up,0.0859,,0.5,0.3,"[2,1,3]",0.324156717,stimuli/card_100_transparent.png,100,10,0,10,0,1,,,,,,,,,,
,,,,6479c87daabda4a5809a752d,A,2024-07-02_14h03.54.419,Slot Machine Game,2023.1.3,Win32,59.17159763,,,,,,,,,,,,,,,,,,,,,,,,,,,900,,,,,,,,,,,,,,,,,,,,,1,1,,,262.0302,11,up,0.2188,,0.5,0.3,"[2,1,3]",0.03051342,stimuli/card_0_transparent.png,0,11,0,11,0,1,,,,,,,,,,
,,,,6479c87daabda4a5809a752d,A,2024-07-02_14h03.54.419,Slot Machine Game,2023.1.3,Win32,59.17159763,,,,,,,,,,,,,,,,,,,,,,,,,,,900,,,,,,,,,,,,,,,,,,,,,1,1,,,263.5785,12,up,0.1492,,1.5,0.3,"[2,3,1]",0.33496164,stimuli/card_0_transparent.png,0,12,0,12,0,1,,,,,,,,,,
,,,,6479c87daabda4a5809a752d,A,2024-07-02_14h03.54.419,Slot Machine Game,2023.1.3,Win32,59.17159763,,,,,,,,,,,,,,,,,,,,,,,,,,,900,,,,,,,,,,,,,,,,,,,,,1,1,,,266.0448,13,up,0.1366,,1,0.3,"[2,3,1]",0.422450856,stimuli/card_0_transparent.png,0,13,0,13,0,1,,,,,,,,,,
,,,,6479c87daabda4a5809a752d,A,2024-07-02_14h03.54.419,Slot Machine Game,2023.1.3,Win32,59.17159763,,,,,,,,,,,,,,,,,,,,,,,,,,,910,,,,,,,,,,,,,,,,,,,,,1,1,,,268.0088,14,left,0.1501,,1.5,0.3,"[2,3,1]",0.680990465,stimuli/card_10_transparent.png,10,14,0,14,0,1,,,,,,,,,,
,,,,6479c87daabda4a5809a752d,A,2024-07-02_14h03.54.419,Slot Machine Game,2023.1.3,Win32,59.17159763,,,,,,,,,,,,,,,,,,,,,,,,,,,,,,,,,,,270.4926,,,,,,,,,,,,,,,,,,,,,,,,,,,,,,,,,[910],0,0,0,0,1,,,,
,,,,6479c87daabda4a5809a752d,A,2024-07-02_14h03.54.419,Slot Machine Game,2023.1.3,Win32,59.17159763,,,,,,,,,,,,,,,,,,,,,,,,,,,0,,,,,,,,,,,,,,,,,,,,,2,5,"[5,15]","[[1,2,3],[3,1,2]]",275.5181,0,right,0.1507,,0.5,0.3,"[1,2,3]",0.318261373,stimuli/card_0_transparent.png,0,0,0,0,0,1,,,,,,,,,,
,,,,6479c87daabda4a5809a752d,A,2024-07-02_14h03.54.419,Slot Machine Game,2023.1.3,Win32,59.17159763,,,,,,,,,,,,,,,,,,,,,,,,,,,0,,,,,,,,,,,,,,,,,,,,,2,5,,,276.987,1,left,0.217,,0.5,0.3,"[1,2,3]",0.037456787,stimuli/card_0_transparent.png,0,1,0,1,0,1,,,,,,,,,,
,,,,6479c87daabda4a5809a752d,A,2024-07-02_14h03.54.419,Slot Machine Game,2023.1.3,Win32,59.17159763,,,,,,,,,,,,,,,,,,,,,,,,,,,100,,,,,,,,,,,,,,,,,,,,,2,5,,,278.5202,2,up,0.1893,,0.5,0.3,"[1,2,3]",0.134084584,stimuli/card_100_transparent.png,100,2,0,2,0,1,,,,,,,,,,
,,,,6479c87daabda4a5809a752d,A,2024-07-02_14h03.54.419,Slot Machine Game,2023.1.3,Win32,59.17159763,,,,,,,,,,,,,,,,,,,,,,,,,,,110,,,,,,,,,,,,,,,,,,,,,2,5,,,280.0362,3,up,0.0403,,0.5,0.3,"[1,2,3]",0.217382683,stimuli/card_10_transparent.png,10,3,0,3,0,1,,,,,,,,,,
,,,,6479c87daabda4a5809a752d,A,2024-07-02_14h03.54.419,Slot Machine Game,2023.1.3,Win32,59.17159763,,,,,,,,,,,,,,,,,,,,,,,,,,,210,,,,,,,,,,,,,,,,,,,,,2,5,,,281.4019,4,up,0.1332,,0.5,0.3,"[1,2,3]",0.103905701,stimuli/card_100_transparent.png,100,4,0,4,0,1,,,,,,,,,,
,,,,6479c87daabda4a5809a752d,A,2024-07-02_14h03.54.419,Slot Machine Game,2023.1.3,Win32,59.17159763,,,,,,,,,,,,,,,,,,,,,,,,,,,310,,,,,,,,,,,,,,,,,,,,,2,5,,,282.852,5,up,0.1846,,0.5,0.3,"[3,1,2]",0.220839991,stimuli/card_100_transparent.png,100,5,0,5,0,1,,,,,,,,,,
,,,,6479c87daabda4a5809a752d,A,2024-07-02_14h03.54.419,Slot Machine Game,2023.1.3,Win32,59.17159763,,,,,,,,,,,,,,,,,,,,,,,,,,,410,,,,,,,,,,,,,,,,,,,,,2,5,,,284.3573,6,up,0.1848,,1.5,0.3,"[3,1,2]",0.904407502,stimuli/card_100_transparent.png,100,6,0,6,0,1,,,,,,,,,,
,,,,6479c87daabda4a5809a752d,A,2024-07-02_14h03.54.419,Slot Machine Game,2023.1.3,Win32,59.17159763,,,,,,,,,,,,,,,,,,,,,,,,,,,510,,,,,,,,,,,,,,,,,,,,,2,5,,,286.854,7,up,0.0023,,0.5,0.3,"[3,1,2]",0.466276846,stimuli/card_100_transparent.png,100,7,0,7,0,1,,,,,,,,,,
,,,,6479c87daabda4a5809a752d,A,2024-07-02_14h03.54.419,Slot Machine Game,2023.1.3,Win32,59.17159763,,,,,,,,,,,,,,,,,,,,,,,,,,,610,,,,,,,,,,,,,,,,,,,,,2,5,,,288.1915,8,up,0.0212,,0.5,0.3,"[3,1,2]",0.231797702,stimuli/card_100_transparent.png,100,8,0,8,0,1,,,,,,,,,,
,,,,6479c87daabda4a5809a752d,A,2024-07-02_14h03.54.419,Slot Machine Game,2023.1.3,Win32,59.17159763,,,,,,,,,,,,,,,,,,,,,,,,,,,710,,,,,,,,,,,,,,,,,,,,,2,5,,,289.5505,9,up,0.2195,,1.5,0.3,"[3,1,2]",0.222552293,stimuli/card_100_transparent.png,100,9,0,9,0,1,,,,,,,,,,
,,,,6479c87daabda4a5809a752d,A,2024-07-02_14h03.54.419,Slot Machine Game,2023.1.3,Win32,59.17159763,,,,,,,,,,,,,,,,,,,,,,,,,,,810,,,,,,,,,,,,,,,,,,,,,2,5,,,292.1008,10,up,0.0271,,0.5,0.3,"[3,1,2]",0.349362034,stimuli/card_100_transparent.png,100,10,0,10,0,1,,,,,,,,,,
,,,,6479c87daabda4a5809a752d,A,2024-07-02_14h03.54.419,Slot Machine Game,2023.1.3,Win32,59.17159763,,,,,,,,,,,,,,,,,,,,,,,,,,,910,,,,,,,,,,,,,,,,,,,,,2,5,,,293.4562,11,up,0.2677,,0.5,0.3,"[3,1,2]",0.730185586,stimuli/card_100_transparent.png,100,11,0,11,0,1,,,,,,,,,,
,,,,6479c87daabda4a5809a752d,A,2024-07-02_14h03.54.419,Slot Machine Game,2023.1.3,Win32,59.17159763,,,,,,,,,,,,,,,,,,,,,,,,,,,1010,,,,,,,,,,,,,,,,,,,,,2,5,,,295.039,12,up,0.2334,,1,0.3,"[3,1,2]",0.587776099,stimuli/card_100_transparent.png,100,12,0,12,0,1,,,,,,,,,,
,,,,6479c87daabda4a5809a752d,A,2024-07-02_14h03.54.419,Slot Machine Game,2023.1.3,Win32,59.17159763,,,,,,,,,,,,,,,,,,,,,,,,,,,1020,,,,,,,,,,,,,,,,,,,,,2,5,,,297.0908,13,up,0.2012,,1.5,0.3,"[3,1,2]",0.194797856,stimuli/card_10_transparent.png,10,13,0,13,0,1,,,,,,,,,,
,,,,6479c87daabda4a5809a752d,A,2024-07-02_14h03.54.419,Slot Machine Game,2023.1.3,Win32,59.17159763,,,,,,,,,,,,,,,,,,,,,,,,,,,1120,,,,,,,,,,,,,,,,,,,,,2,5,,,299.6208,14,up,0.052,,0.5,0.3,"[3,1,2]",0.260095039,stimuli/card_100_transparent.png,100,14,0,14,0,1,,,,,,,,,,
,,,,6479c87daabda4a5809a752d,A,2024-07-02_14h03.54.419,Slot Machine Game,2023.1.3,Win32,59.17159763,,,,,,,,,,,,,,,,,,,,,,,,,,,,,,,,,,,301.0031,,,,,,,,,,,,,,,,,,,,,,,,,,,,,,,,,"[910,1120]",1,0,1,0,1,,,,
,,,,6479c87daabda4a5809a752d,A,2024-07-02_14h03.54.419,Slot Machine Game,2023.1.3,Win32,59.17159763,,,,,,,,,,,,,,,,,,,,,,,,,,,0,,,,,,,,,,,,,,,,,,,,,3,7,"[9,15]","[[1,3,2],[2,3,1]]",306.0404,0,up,0.0179,,1,0.3,"[1,3,2]",0.441004311,stimuli/card_0_transparent.png,0,0,0,0,0,1,,,,,,,,,,
,,,,6479c87daabda4a5809a752d,A,2024-07-02_14h03.54.419,Slot Machine Game,2023.1.3,Win32,59.17159763,,,,,,,,,,,,,,,,,,,,,,,,,,,0,,,,,,,,,,,,,,,,,,,,,3,7,,,307.8822,1,right,0.0908,,0.5,0.3,"[1,3,2]",0.000723412,stimuli/card_0_transparent.png,0,1,0,1,0,1,,,,,,,,,,
,,,,6479c87daabda4a5809a752d,A,2024-07-02_14h03.54.419,Slot Machine Game,2023.1.3,Win32,59.17159763,,,,,,,,,,,,,,,,,,,,,,,,,,,100,,,,,,,,,,,,,,,,,,,,,3,7,,,309.3043,2,left,0.0165,,1.5,0.3,"[1,3,2]",0.356777064,stimuli/card_100_transparent.png,100,2,0,2,0,1,,,,,,,,,,
,,,,6479c87daabda4a5809a752d,A,2024-07-02_14h03.54.419,Slot Machine Game,2023.1.3,Win32,59.17159763,,,,,,,,,,,,,,,,,,,,,,,,,,,200,,,,,,,,,,,,,,,,,,,,,3,7,,,311.6511,3,left,0.2499,,1,0.3,"[1,3,2]",0.35499685,stimuli/card_100_transparent.png,100,3,0,3,0,1,,,,,,,,,,
,,,,6479c87daabda4a5809a752d,A,2024-07-02_14h03.54.419,Slot Machine Game,2023.1.3,Win32,59.17159763,,,,,,,,,,,,,,,,,,,,,,,,,,,210,,,,,,,,,,,,,,,,,,,,,3,7,,,313.717,4,left,0.179,,1.5,0.3,"[1,3,2]",0.128527737,stimuli/card_10_transparent.png,10,4,0,4,0,1,,,,,,,,,,
,,,,6479c87daabda4a5809a752d,A,2024-07-02_14h03.54.419,Slot Machine Game,2023.1.3,Win32,59.17159763,,,,,,,,,,,,,,,,,,,,,,,,,,,310,,,,,,,,,,,,,,,,,,,,,3,7,,,316.2305,5,left,0.0099,,0.5,0.3,"[1,3,2]",0.427960322,stimuli/card_100_transparent.png,100,5,0,5,0,1,,,,,,,,,,
,,,,6479c87daabda4a5809a752d,A,2024-07-02_14h03.54.419,Slot Machine Game,2023.1.3,Win32,59.17159763,,,,,,,,,,,,,,,,,,,,,,,,,,,410,,,,,,,,,,,,,,,,,,,,,3,7,,,317.5812,6,left,0.1183,,1,0.3,"[1,3,2]",0.462399299,stimuli/card_100_transparent.png,100,6,0,6,0,1,,,,,,,,,,
,,,,6479c87daabda4a5809a752d,A,2024-07-02_14h03.54.419,Slot Machine Game,2023.1.3,Win32,59.17159763,,,,,,,,,,,,,,,,,,,,,,,,,,,510,,,,,,,,,,,,,,,,,,,,,3,7,,,319.5139,7,left,0.1867,,0.5,0.3,"[1,3,2]",0.312383203,stimuli/card_100_transparent.png,100,7,0,7,0,1,,,,,,,,,,
,,,,6479c87daabda4a5809a752d,A,2024-07-02_14h03.54.419,Slot Machine Game,2023.1.3,Win32,59.17159763,,,,,,,,,,,,,,,,,,,,,,,,,,,520,,,,,,,,,,,,,,,,,,,,,3,7,,,321.0193,8,left,0.232,,1.5,0.3,"[1,3,2]",0.159884182,stimuli/card_10_transparent.png,10,8,0,8,0,1,,,,,,,,,,
,,,,6479c87daabda4a5809a752d,A,2024-07-02_14h03.54.419,Slot Machine Game,2023.1.3,Win32,59.17159763,,,,,,,,,,,,,,,,,,,,,,,,,,,530,,,,,,,,,,,,,,,,,,,,,3,7,,,323.5801,9,left,0.2405,,0.5,0.3,"[2,3,1]",0.702535358,stimuli/card_10_transparent.png,10,9,0,9,0,1,,,,,,,,,,
,,,,6479c87daabda4a5809a752d,A,2024-07-02_14h03.54.419,Slot Machine Game,2023.1.3,Win32,59.17159763,,,,,,,,,,,,,,,,,,,,,,,,,,,630,,,,,,,,,,,,,,,,,,,,,3,7,,,325.1355,10,left,0.0704,,1.5,0.3,"[2,3,1]",0.161875891,stimuli/card_100_transparent.png,100,10,0,10,0,1,,,,,,,,,,
,,,,6479c87daabda4a5809a752d,A,2024-07-02_14h03.54.419,Slot Machine Game,2023.1.3,Win32,59.17159763,,,,,,,,,,,,,,,,,,,,,,,,,,,640,,,,,,,,,,,,,,,,,,,,,3,7,,,327.5279,11,left,0.1046,,1,0.3,"[2,3,1]",0.738283152,stimuli/card_10_transparent.png,10,11,0,11,0,1,,,,,,,,,,
,,,,6479c87daabda4a5809a752d,A,2024-07-02_14h03.54.419,Slot Machine Game,2023.1.3,Win32,59.17159763,,,,,,,,,,,,,,,,,,,,,,,,,,,640,,,,,,,,,,,,,,,,,,,,,3,7,,,329.4442,12,left,0.1346,,1.5,0.3,"[2,3,1]",0.017257612,stimuli/card_0_transparent.png,0,12,0,12,0,1,,,,,,,,,,
,,,,6479c87daabda4a5809a752d,A,2024-07-02_14h03.54.419,Slot Machine Game,2023.1.3,Win32,59.17159763,,,,,,,,,,,,,,,,,,,,,,,,,,,650,,,,,,,,,,,,,,,,,,,,,3,7,,,331.9106,13,left,0.0055,,1.5,0.3,"[2,3,1]",0.713378,stimuli/card_10_transparent.png,10,13,0,13,0,1,,,,,,,,,,
,,,,6479c87daabda4a5809a752d,A,2024-07-02_14h03.54.419,Slot Machine Game,2023.1.3,Win32,59.17159763,,,,,,,,,,,,,,,,,,,,,,,,,,,660,,,,,,,,,,,,,,,,,,,,,3,7,,,334.2448,14,left,0.1684,,1.5,0.3,"[2,3,1]",0.913382595,stimuli/card_10_transparent.png,10,14,0,14,0,1,,,,,,,,,,
,,,,6479c87daabda4a5809a752d,A,2024-07-02_14h03.54.419,Slot Machine Game,2023.1.3,Win32,59.17159763,,,,,,,,,,,,,,,,,,,,,,,,,,,,,,,,,,,336.7439,,,,,,,,,,,,,,,,,,,,,,,,,,,,,,,,,"[910,1120,660]",2,0,2,0,1,,,,
,,,,6479c87daabda4a5809a752d,A,2024-07-02_14h03.54.419,Slot Machine Game,2023.1.3,Win32,59.17159763,,,,,,,,,,,,,,,,,,,,,,,,,,,100,,,,,,,,,,,,,,,,,,,,,4,4,"[7,15]","[[2,3,1],[1,2,3]]",341.7552,0,right,0.0427,,0.5,0.3,"[2,3,1]",0.649108057,stimuli/card_100_transparent.png,100,0,0,0,0,1,,,,,,,,,,
,,,,6479c87daabda4a5809a752d,A,2024-07-02_14h03.54.419,Slot Machine Game,2023.1.3,Win32,59.17159763,,,,,,,,,,,,,,,,,,,,,,,,,,,110,,,,,,,,,,,,,,,,,,,,,4,4,,,343.1109,1,right,0.1755,,1,0.3,"[2,3,1]",0.163174399,stimuli/card_10_transparent.png,10,1,0,1,0,1,,,,,,,,,,
,,,,6479c87daabda4a5809a752d,A,2024-07-02_14h03.54.419,Slot Machine Game,2023.1.3,Win32,59.17159763,,,,,,,,,,,,,,,,,,,,,,,,,,,210,,,,,,,,,,,,,,,,,,,,,4,4,,,345.1096,2,right,0.2048,,1.5,0.3,"[2,3,1]",0.461968146,stimuli/card_100_transparent.png,100,2,0,2,0,1,,,,,,,,,,
,,,,6479c87daabda4a5809a752d,A,2024-07-02_14h03.54.419,Slot Machine Game,2023.1.3,Win32,59.17159763,,,,,,,,,,,,,,,,,,,,,,,,,,,310,,,,,,,,,,,,,,,,,,,,,4,4,,,347.6419,3,right,0.3347,,1.5,0.3,"[2,3,1]",0.700381174,stimuli/card_100_transparent.png,100,3,0,3,0,1,,,,,,,,,,
,,,,6479c87daabda4a5809a752d,A,2024-07-02_14h03.54.419,Slot Machine Game,2023.1.3,Win32,59.17159763,,,,,,,,,,,,,,,,,,,,,,,,,,,410,,,,,,,,,,,,,,,,,,,,,4,4,,,350.3085,4,right,0.2682,,1,0.3,"[2,3,1]",0.851330531,stimuli/card_100_transparent.png,100,4,0,4,0,1,,,,,,,,,,
,,,,6479c87daabda4a5809a752d,A,2024-07-02_14h03.54.419,Slot Machine Game,2023.1.3,Win32,59.17159763,,,,,,,,,,,,,,,,,,,,,,,,,,,510,,,,,,,,,,,,,,,,,,,,,4,4,,,352.4077,5,right,0.1009,,1,0.3,"[2,3,1]",0.874055433,stimuli/card_100_transparent.png,100,5,0,5,0,1,,,,,,,,,,
,,,,6479c87daabda4a5809a752d,A,2024-07-02_14h03.54.419,Slot Machine Game,2023.1.3,Win32,59.17159763,,,,,,,,,,,,,,,,,,,,,,,,,,,610,,,,,,,,,,,,,,,,,,,,,4,4,,,354.3416,6,right,0.033,,0.5,0.3,"[2,3,1]",0.738734875,stimuli/card_100_transparent.png,100,6,0,6,0,1,,,,,,,,,,
,,,,6479c87daabda4a5809a752d,A,2024-07-02_14h03.54.419,Slot Machine Game,2023.1.3,Win32,59.17159763,,,,,,,,,,,,,,,,,,,,,,,,,,,610,,,,,,,,,,,,,,,,,,,,,4,4,,,355.7076,7,right,0.2051,,1,0.3,"[1,2,3]",0.589207801,stimuli/card_0_transparent.png,0,7,0,7,0,1,,,,,,,,,,
,,,,6479c87daabda4a5809a752d,A,2024-07-02_14h03.54.419,Slot Machine Game,2023.1.3,Win32,59.17159763,,,,,,,,,,,,,,,,,,,,,,,,,,,610,,,,,,,,,,,,,,,,,,,,,4,4,,,357.7405,8,right,0.3516,,0.5,0.3,"[1,2,3]",0.918987194,stimuli/card_0_transparent.png,0,8,0,8,0,1,,,,,,,,,,
,,,,6479c87daabda4a5809a752d,A,2024-07-02_14h03.54.419,Slot Machine Game,2023.1.3,Win32,59.17159763,,,,,,,,,,,,,,,,,,,,,,,,,,,610,,,,,,,,,,,,,,,,,,,,,4,4,,,359.4228,9,right,0.0592,,0.5,0.3,"[1,2,3]",0.850468543,stimuli/card_0_transparent.png,0,9,0,9,0,1,,,,,,,,,,
,,,,6479c87daabda4a5809a752d,A,2024-07-02_14h03.54.419,Slot Machine Game,2023.1.3,Win32,59.17159763,,,,,,,,,,,,,,,,,,,,,,,,,,,710,,,,,,,,,,,,,,,,,,,,,4,4,,,360.8065,10,left,0.0671,,1,0.3,"[1,2,3]",0.888857278,stimuli/card_100_transparent.png,100,10,0,10,0,1,,,,,,,,,,
,,,,6479c87daabda4a5809a752d,A,2024-07-02_14h03.54.419,Slot Machine Game,2023.1.3,Win32,59.17159763,,,,,,,,,,,,,,,,,,,,,,,,,,,810,,,,,,,,,,,,,,,,,,,,,4,4,,,362.7088,11,left,0.2802,,1.5,0.3,"[1,2,3]",0.622711152,stimuli/card_100_transparent.png,100,11,0,11,0,1,,,,,,,,,,
,,,,6479c87daabda4a5809a752d,A,2024-07-02_14h03.54.419,Slot Machine Game,2023.1.3,Win32,59.17159763,,,,,,,,,,,,,,,,,,,,,,,,,,,910,,,,,,,,,,,,,,,,,,,,,4,4,,,365.3062,12,left,0.2367,,0.5,0.3,"[1,2,3]",0.328959299,stimuli/card_100_transparent.png,100,12,0,12,0,1,,,,,,,,,,
,,,,6479c87daabda4a5809a752d,A,2024-07-02_14h03.54.419,Slot Machine Game,2023.1.3,Win32,59.17159763,,,,,,,,,,,,,,,,,,,,,,,,,,,1010,,,,,,,,,,,,,,,,,,,,,4,4,,,366.8726,13,left,0.0674,,0.5,0.3,"[1,2,3]",0.551013562,stimuli/card_100_transparent.png,100,13,0,13,0,1,,,,,,,,,,
,,,,6479c87daabda4a5809a752d,A,2024-07-02_14h03.54.419,Slot Machine Game,2023.1.3,Win32,59.17159763,,,,,,,,,,,,,,,,,,,,,,,,,,,1110,,,,,,,,,,,,,,,,,,,,,4,4,,,368.272,14,left,0.0534,,1.5,0.3,"[1,2,3]",0.204108526,stimuli/card_100_transparent.png,100,14,0,14,0,1,,,,,,,,,,
,,,,6479c87daabda4a5809a752d,A,2024-07-02_14h03.54.419,Slot Machine Game,2023.1.3,Win32,59.17159763,,,,,,,,,,,,,,,,,,,,,,,,,,,,,,,,,,,370.6545,,,,,,,,,,,,,,,,,,,,,,,,,,,,,,,,,"[910,1120,660,1110]",3,0,3,0,1,,,,
,,,,6479c87daabda4a5809a752d,A,2024-07-02_14h03.54.419,Slot Machine Game,2023.1.3,Win32,59.17159763,,,,,,,,,,,,,,,,,,,,,,,,,,,100,,,,,,,,,,,,,,,,,,,,,5,6,"[4,10,15]","[[2,3,1],[1,3,2],[3,2,1]]",375.6991,0,up,0.184,,0.5,0.3,"[2,3,1]",0.045882929,stimuli/card_100_transparent.png,100,0,0,0,0,1,,,,,,,,,,
,,,,6479c87daabda4a5809a752d,A,2024-07-02_14h03.54.419,Slot Machine Game,2023.1.3,Win32,59.17159763,,,,,,,,,,,,,,,,,,,,,,,,,,,200,,,,,,,,,,,,,,,,,,,,,5,6,,,377.2038,1,up,0.3008,,1,0.3,"[2,3,1]",0.098629402,stimuli/card_100_transparent.png,100,1,0,1,0,1,,,,,,,,,,
,,,,6479c87daabda4a5809a752d,A,2024-07-02_14h03.54.419,Slot Machine Game,2023.1.3,Win32,59.17159763,,,,,,,,,,,,,,,,,,,,,,,,,,,200,,,,,,,,,,,,,,,,,,,,,5,6,,,379.3373,2,up,0.035,,1,0.3,"[2,3,1]",0.829735078,stimuli/card_0_transparent.png,0,2,0,2,0,1,,,,,,,,,,
,,,,6479c87daabda4a5809a752d,A,2024-07-02_14h03.54.419,Slot Machine Game,2023.1.3,Win32,59.17159763,,,,,,,,,,,,,,,,,,,,,,,,,,,200,,,,,,,,,,,,,,,,,,,,,5,6,,,381.2035,3,up,0.1183,,1.5,0.3,"[2,3,1]",0.229122057,stimuli/card_0_transparent.png,0,3,0,3,0,1,,,,,,,,,,
,,,,6479c87daabda4a5809a752d,A,2024-07-02_14h03.54.419,Slot Machine Game,2023.1.3,Win32,59.17159763,,,,,,,,,,,,,,,,,,,,,,,,,,,200,,,,,,,,,,,,,,,,,,,,,5,6,,,383.6531,4,up,0.1182,,0.5,0.3,"[1,3,2]",0.972558589,stimuli/card_0_transparent.png,0,4,0,4,0,1,,,,,,,,,,
,,,,6479c87daabda4a5809a752d,A,2024-07-02_14h03.54.419,Slot Machine Game,2023.1.3,Win32,59.17159763,,,,,,,,,,,,,,,,,,,,,,,,,,,200,,,,,,,,,,,,,,,,,,,,,5,6,,,385.1027,5,up,0.0612,,1.5,0.3,"[1,3,2]",0.507624818,stimuli/card_0_transparent.png,0,5,0,5,0,1,,,,,,,,,,
,,,,6479c87daabda4a5809a752d,A,2024-07-02_14h03.54.419,Slot Machine Game,2023.1.3,Win32,59.17159763,,,,,,,,,,,,,,,,,,,,,,,,,,,300,,,,,,,,,,,,,,,,,,,,,5,6,,,387.485,6,left,0.2005,,1.5,0.3,"[1,3,2]",0.452028676,stimuli/card_100_transparent.png,100,6,0,6,0,1,,,,,,,,,,
,,,,6479c87daabda4a5809a752d,A,2024-07-02_14h03.54.419,Slot Machine Game,2023.1.3,Win32,59.17159763,,,,,,,,,,,,,,,,,,,,,,,,,,,400,,,,,,,,,,,,,,,,,,,,,5,6,,,390.019,7,left,0.1724,,1.5,0.3,"[1,3,2]",0.625490561,stimuli/card_100_transparent.png,100,7,0,7,0,1,,,,,,,,,,
,,,,6479c87daabda4a5809a752d,A,2024-07-02_14h03.54.419,Slot Machine Game,2023.1.3,Win32,59.17159763,,,,,,,,,,,,,,,,,,,,,,,,,,,410,,,,,,,,,,,,,,,,,,,,,5,6,,,392.5188,8,left,0.0511,,1.5,0.3,"[1,3,2]",0.188326537,stimuli/card_10_transparent.png,10,8,0,8,0,1,,,,,,,,,,
,,,,6479c87daabda4a5809a752d,A,2024-07-02_14h03.54.419,Slot Machine Game,2023.1.3,Win32,59.17159763,,,,,,,,,,,,,,,,,,,,,,,,,,,510,,,,,,,,,,,,,,,,,,,,,5,6,,,394.9044,9,left,0.203,,1.5,0.3,"[1,3,2]",0.87401617,stimuli/card_100_transparent.png,100,9,0,9,0,1,,,,,,,,,,
,,,,6479c87daabda4a5809a752d,A,2024-07-02_14h03.54.419,Slot Machine Game,2023.1.3,Win32,59.17159763,,,,,,,,,,,,,,,,,,,,,,,,,,,510,,,,,,,,,,,,,,,,,,,,,5,6,,,397.4339,10,left,0.1634,,1,0.3,"[3,2,1]",0.857965647,stimuli/card_0_transparent.png,0,10,0,10,0,1,,,,,,,,,,
,,,,6479c87daabda4a5809a752d,A,2024-07-02_14h03.54.419,Slot Machine Game,2023.1.3,Win32,59.17159763,,,,,,,,,,,,,,,,,,,,,,,,,,,510,,,,,,,,,,,,,,,,,,,,,5,6,,,399.4177,11,left,0.069,,1,0.3,"[3,2,1]",0.243340782,stimuli/card_0_transparent.png,0,11,0,11,0,1,,,,,,,,,,
,,,,6479c87daabda4a5809a752d,A,2024-07-02_14h03.54.419,Slot Machine Game,2023.1.3,Win32,59.17159763,,,,,,,,,,,,,,,,,,,,,,,,,,,610,,,,,,,,,,,,,,,,,,,,,5,6,,,401.3159,12,right,0.0663,,1.5,0.3,"[3,2,1]",0.999001645,stimuli/card_100_transparent.png,100,12,0,12,0,1,,,,,,,,,,
,,,,6479c87daabda4a5809a752d,A,2024-07-02_14h03.54.419,Slot Machine Game,2023.1.3,Win32,59.17159763,,,,,,,,,,,,,,,,,,,,,,,,,,,620,,,,,,,,,,,,,,,,,,,,,5,6,,,403.7159,13,right,0.1839,,1.5,0.3,"[3,2,1]",0.116205133,stimuli/card_10_transparent.png,10,13,0,13,0,1,,,,,,,,,,
,,,,6479c87daabda4a5809a752d,A,2024-07-02_14h03.54.419,Slot Machine Game,2023.1.3,Win32,59.17159763,,,,,,,,,,,,,,,,,,,,,,,,,,,720,,,,,,,,,,,,,,,,,,,,,5,6,,,406.2315,14,right,0.2011,,1,0.3,"[3,2,1]",0.237738667,stimuli/card_100_transparent.png,100,14,0,14,0,1,,,,,,,,,,
,,,,6479c87daabda4a5809a752d,A,2024-07-02_14h03.54.419,Slot Machine Game,2023.1.3,Win32,59.17159763,,,,,,,,,,,,,,,,,,,,,,,,,,,,,,,,,,,408.2496,,,,,,,,,,,,,,,,,,,,,,,,,,,,,,,,,"[910,1120,660,1110,720]",4,0,4,0,1,,,,
,,,,6479c87daabda4a5809a752d,A,2024-07-02_14h03.54.419,Slot Machine Game,2023.1.3,Win32,59.17159763,,,,,,,,,,,,,,,,,,,,,,,,,,,10,,,,,,,,,,,,,,,,,,,,,6,8,"[11,15]","[[2,1,3],[1,2,3]]",413.2905,0,left,0.1937,,0.5,0.3,"[2,1,3]",0.782926999,stimuli/card_10_transparent.png,10,0,0,0,0,1,,,,,,,,,,
,,,,6479c87daabda4a5809a752d,A,2024-07-02_14h03.54.419,Slot Machine Game,2023.1.3,Win32,59.17159763,,,,,,,,,,,,,,,,,,,,,,,,,,,10,,,,,,,,,,,,,,,,,,,,,6,8,,,414.7977,1,right,0.0169,,1,0.3,"[2,1,3]",0.289605838,stimuli/card_0_transparent.png,0,1,0,1,0,1,,,,,,,,,,
,,,,6479c87daabda4a5809a752d,A,2024-07-02_14h03.54.419,Slot Machine Game,2023.1.3,Win32,59.17159763,,,,,,,,,,,,,,,,,,,,,,,,,,,10,,,,,,,,,,,,,,,,,,,,,6,8,,,416.6479,2,up,0.2335,,1,0.3,"[2,1,3]",0.051575286,stimuli/card_0_transparent.png,0,2,0,2,0,1,,,,,,,,,,
,,,,6479c87daabda4a5809a752d,A,2024-07-02_14h03.54.419,Slot Machine Game,2023.1.3,Win32,59.17159763,,,,,,,,,,,,,,,,,,,,,,,,,,,20,,,,,,,,,,,,,,,,,,,,,6,8,,,418.7147,3,left,0.3539,,1,0.3,"[2,1,3]",0.906529009,stimuli/card_10_transparent.png,10,3,0,3,0,1,,,,,,,,,,
,,,,6479c87daabda4a5809a752d,A,2024-07-02_14h03.54.419,Slot Machine Game,2023.1.3,Win32,59.17159763,,,,,,,,,,,,,,,,,,,,,,,,,,,20,,,,,,,,,,,,,,,,,,,,,6,8,,,420.8967,4,right,0.3517,,1.5,0.3,"[2,1,3]",0.804624034,stimuli/card_0_transparent.png,0,4,0,4,0,1,,,,,,,,,,
,,,,6479c87daabda4a5809a752d,A,2024-07-02_14h03.54.419,Slot Machine Game,2023.1.3,Win32,59.17159763,,,,,,,,,,,,,,,,,,,,,,,,,,,120,,,,,,,,,,,,,,,,,,,,,6,8,,,423.5796,5,up,0.2344,,1.5,0.3,"[2,1,3]",0.505965467,stimuli/card_100_transparent.png,100,5,0,5,0,1,,,,,,,,,,
,,,,6479c87daabda4a5809a752d,A,2024-07-02_14h03.54.419,Slot Machine Game,2023.1.3,Win32,59.17159763,,,,,,,,,,,,,,,,,,,,,,,,,,,220,,,,,,,,,,,,,,,,,,,,,6,8,,,426.1462,6,up,0.1192,,0.5,0.3,"[2,1,3]",0.572623055,stimuli/card_100_transparent.png,100,6,0,6,0,1,,,,,,,,,,
,,,,6479c87daabda4a5809a752d,A,2024-07-02_14h03.54.419,Slot Machine Game,2023.1.3,Win32,59.17159763,,,,,,,,,,,,,,,,,,,,,,,,,,,320,,,,,,,,,,,,,,,,,,,,,6,8,,,427.5798,7,up,0.2943,,1.5,0.3,"[2,1,3]",0.707962508,stimuli/card_100_transparent.png,100,7,0,7,0,1,,,,,,,,,,
,,,,6479c87daabda4a5809a752d,A,2024-07-02_14h03.54.419,Slot Machine Game,2023.1.3,Win32,59.17159763,,,,,,,,,,,,,,,,,,,,,,,,,,,420,,,,,,,,,,,,,,,,,,,,,6,8,,,430.1953,8,up,0.2179,,1,0.3,"[2,1,3]",0.877671739,stimuli/card_100_transparent.png,100,8,0,8,0,1,,,,,,,,,,
,,,,6479c87daabda4a5809a752d,A,2024-07-02_14h03.54.419,Slot Machine Game,2023.1.3,Win32,59.17159763,,,,,,,,,,,,,,,,,,,,,,,,,,,520,,,,,,,,,,,,,,,,,,,,,6,8,,,432.2449,9,up,0.1342,,0.5,0.3,"[2,1,3]",0.672884021,stimuli/card_100_transparent.png,100,9,0,9,0,1,,,,,,,,,,
,,,,6479c87daabda4a5809a752d,A,2024-07-02_14h03.54.419,Slot Machine Game,2023.1.3,Win32,59.17159763,,,,,,,,,,,,,,,,,,,,,,,,,,,520,,,,,,,,,,,,,,,,,,,,,6,8,,,433.7114,10,up,0.0721,,1.5,0.3,"[2,1,3]",0.014364158,stimuli/card_0_transparent.png,0,10,0,10,0,1,,,,,,,,,,
,,,,6479c87daabda4a5809a752d,A,2024-07-02_14h03.54.419,Slot Machine Game,2023.1.3,Win32,59.17159763,,,,,,,,,,,,,,,,,,,,,,,,,,,530,,,,,,,,,,,,,,,,,,,,,6,8,,,436.1118,11,up,0.2883,,1,0.3,"[1,2,3]",0.840445961,stimuli/card_10_transparent.png,10,11,0,11,0,1,,,,,,,,,,
,,,,6479c87daabda4a5809a752d,A,2024-07-02_14h03.54.419,Slot Machine Game,2023.1.3,Win32,59.17159763,,,,,,,,,,,,,,,,,,,,,,,,,,,530,,,,,,,,,,,,,,,,,,,,,6,8,,,438.227,12,up,0.1513,,1.5,0.3,"[1,2,3]",0.000931505,stimuli/card_0_transparent.png,0,12,0,12,0,1,,,,,,,,,,
,,,,6479c87daabda4a5809a752d,A,2024-07-02_14h03.54.419,Slot Machine Game,2023.1.3,Win32,59.17159763,,,,,,,,,,,,,,,,,,,,,,,,,,,540,,,,,,,,,,,,,,,,,,,,,6,8,,,440.7105,13,up,0.3015,,1,0.3,"[1,2,3]",0.895496189,stimuli/card_10_transparent.png,10,13,0,13,0,1,,,,,,,,,,
,,,,6479c87daabda4a5809a752d,A,2024-07-02_14h03.54.419,Slot Machine Game,2023.1.3,Win32,59.17159763,,,,,,,,,,,,,,,,,,,,,,,,,,,640,,,,,,,,,,,,,,,,,,,,,6,8,,,442.8434,14,left,0.1916,,1,0.3,"[1,2,3]",0.212971776,stimuli/card_100_transparent.png,100,14,0,14,0,1,,,,,,,,,,
,,,,6479c87daabda4a5809a752d,A,2024-07-02_14h03.54.419,Slot Machine Game,2023.1.3,Win32,59.17159763,,,,,,,,,,,,,,,,,,,,,,,,,,,,,,,,,,,444.8585,,,,,,,,,,,,,,,,,,,,,,,,,,,,,,,,,"[910,1120,660,1110,720,640]",5,0,5,0,1,,,,
,,,,6479c87daabda4a5809a752d,A,2024-07-02_14h03.54.419,Slot Machine Game,2023.1.3,Win32,59.17159763,,,,,,,,,,,,,,,,,,,,,,,,,,,0,,,,,,,,,,,,,,,,,,,,,7,9,"[8,15]","[[3,2,1],[3,1,2]]",449.8716,0,left,0.3698,,0.5,0.3,"[3,2,1]",0.252251795,stimuli/card_0_transparent.png,0,0,0,0,0,1,,,,,,,,,,
,,,,6479c87daabda4a5809a752d,A,2024-07-02_14h03.54.419,Slot Machine Game,2023.1.3,Win32,59.17159763,,,,,,,,,,,,,,,,,,,,,,,,,,,0,,,,,,,,,,,,,,,,,,,,,7,9,,,451.5582,1,right,0.3848,,1,0.3,"[3,2,1]",0.063198822,stimuli/card_0_transparent.png,0,1,0,1,0,1,,,,,,,,,,
,,,,6479c87daabda4a5809a752d,A,2024-07-02_14h03.54.419,Slot Machine Game,2023.1.3,Win32,59.17159763,,,,,,,,,,,,,,,,,,,,,,,,,,,10,,,,,,,,,,,,,,,,,,,,,7,9,,,453.7646,2,up,0.1504,,0.5,0.3,"[3,2,1]",0.994625125,stimuli/card_10_transparent.png,10,2,0,2,0,1,,,,,,,,,,
,,,,6479c87daabda4a5809a752d,A,2024-07-02_14h03.54.419,Slot Machine Game,2023.1.3,Win32,59.17159763,,,,,,,,,,,,,,,,,,,,,,,,,,,10,,,,,,,,,,,,,,,,,,,,,7,9,,,455.2399,3,left,0.2187,,0.5,0.3,"[3,2,1]",0.733811858,stimuli/card_0_transparent.png,0,3,0,3,0,1,,,,,,,,,,
,,,,6479c87daabda4a5809a752d,A,2024-07-02_14h03.54.419,Slot Machine Game,2023.1.3,Win32,59.17159763,,,,,,,,,,,,,,,,,,,,,,,,,,,110,,,,,,,,,,,,,,,,,,,,,7,9,,,456.7798,4,right,0.1523,,1,0.3,"[3,2,1]",0.28080399,stimuli/card_100_transparent.png,100,4,0,4,0,1,,,,,,,,,,
,,,,6479c87daabda4a5809a752d,A,2024-07-02_14h03.54.419,Slot Machine Game,2023.1.3,Win32,59.17159763,,,,,,,,,,,,,,,,,,,,,,,,,,,210,,,,,,,,,,,,,,,,,,,,,7,9,,,458.7452,5,right,0.034,,1.5,0.3,"[3,2,1]",0.771503493,stimuli/card_100_transparent.png,100,5,0,5,0,1,,,,,,,,,,
,,,,6479c87daabda4a5809a752d,A,2024-07-02_14h03.54.419,Slot Machine Game,2023.1.3,Win32,59.17159763,,,,,,,,,,,,,,,,,,,,,,,,,,,220,,,,,,,,,,,,,,,,,,,,,7,9,,,461.107,6,right,0.2687,,1,0.3,"[3,2,1]",0.143809602,stimuli/card_10_transparent.png,10,6,0,6,0,1,,,,,,,,,,
,,,,6479c87daabda4a5809a752d,A,2024-07-02_14h03.54.419,Slot Machine Game,2023.1.3,Win32,59.17159763,,,,,,,,,,,,,,,,,,,,,,,,,,,320,,,,,,,,,,,,,,,,,,,,,7,9,,,463.1952,7,right,0.2701,,1.5,0.3,"[3,2,1]",0.299559817,stimuli/card_100_transparent.png,100,7,0,7,0,1,,,,,,,,,,
,,,,6479c87daabda4a5809a752d,A,2024-07-02_14h03.54.419,Slot Machine Game,2023.1.3,Win32,59.17159763,,,,,,,,,,,,,,,,,,,,,,,,,,,320,,,,,,,,,,,,,,,,,,,,,7,9,,,465.7885,8,right,0.0844,,0.5,0.3,"[3,1,2]",0.074118406,stimuli/card_0_transparent.png,0,8,0,8,0,1,,,,,,,,,,
,,,,6479c87daabda4a5809a752d,A,2024-07-02_14h03.54.419,Slot Machine Game,2023.1.3,Win32,59.17159763,,,,,,,,,,,,,,,,,,,,,,,,,,,330,,,,,,,,,,,,,,,,,,,,,7,9,,,467.1904,9,right,0.307,,0.5,0.3,"[3,1,2]",0.600956026,stimuli/card_10_transparent.png,10,9,0,9,0,1,,,,,,,,,,
,,,,6479c87daabda4a5809a752d,A,2024-07-02_14h03.54.419,Slot Machine Game,2023.1.3,Win32,59.17159763,,,,,,,,,,,,,,,,,,,,,,,,,,,330,,,,,,,,,,,,,,,,,,,,,7,9,,,468.8235,10,up,0.2327,,1,0.3,"[3,1,2]",0.038328412,stimuli/card_0_transparent.png,0,10,0,10,0,1,,,,,,,,,,
,,,,6479c87daabda4a5809a752d,A,2024-07-02_14h03.54.419,Slot Machine Game,2023.1.3,Win32,59.17159763,,,,,,,,,,,,,,,,,,,,,,,,,,,330,,,,,,,,,,,,,,,,,,,,,7,9,,,470.873,11,left,0.2687,,1.5,0.3,"[3,1,2]",0.879062317,stimuli/card_0_transparent.png,0,11,0,11,0,1,,,,,,,,,,
,,,,6479c87daabda4a5809a752d,A,2024-07-02_14h03.54.419,Slot Machine Game,2023.1.3,Win32,59.17159763,,,,,,,,,,,,,,,,,,,,,,,,,,,340,,,,,,,,,,,,,,,,,,,,,7,9,,,473.4719,12,right,0.3245,,0.5,0.3,"[3,1,2]",0.208321307,stimuli/card_10_transparent.png,10,12,0,12,0,1,,,,,,,,,,
,,,,6479c87daabda4a5809a752d,A,2024-07-02_14h03.54.419,Slot Machine Game,2023.1.3,Win32,59.17159763,,,,,,,,,,,,,,,,,,,,,,,,,,,340,,,,,,,,,,,,,,,,,,,,,7,9,,,475.122,13,right,0.0907,,1,0.3,"[3,1,2]",0.097527822,stimuli/card_0_transparent.png,0,13,0,13,0,1,,,,,,,,,,
,,,,6479c87daabda4a5809a752d,A,2024-07-02_14h03.54.419,Slot Machine Game,2023.1.3,Win32,59.17159763,,,,,,,,,,,,,,,,,,,,,,,,,,,440,,,,,,,,,,,,,,,,,,,,,7,9,,,477.0383,14,up,0.1519,,1.5,0.3,"[3,1,2]",0.274176829,stimuli/card_100_transparent.png,100,14,0,14,0,1,,,,,,,,,,
,,,,6479c87daabda4a5809a752d,A,2024-07-02_14h03.54.419,Slot Machine Game,2023.1.3,Win32,59.17159763,,,,,,,,,,,,,,,,,,,,,,,,,,,,,,,,,,,479.508,,,,,,,,,,,,,,,,,,,,,,,,,,,,,,,,,"[910,1120,660,1110,720,640,440]",6,0,6,0,1,,,,
,,,,6479c87daabda4a5809a752d,A,2024-07-02_14h03.54.419,Slot Machine Game,2023.1.3,Win32,59.17159763,,,,,,,,,,,,,,,,,,,,,,,,,,,0,,,,,,,,,,,,,,,,,,,,,8,2,"[6,15]","[[1,3,2],[3,2,1]]",484.548,0,right,0.317,,1.5,0.3,"[1,3,2]",0.00957629,stimuli/card_0_transparent.png,0,0,0,0,0,1,,,,,,,,,,
,,,,6479c87daabda4a5809a752d,A,2024-07-02_14h03.54.419,Slot Machine Game,2023.1.3,Win32,59.17159763,,,,,,,,,,,,,,,,,,,,,,,,,,,0,,,,,,,,,,,,,,,,,,,,,8,2,,,487.1691,1,up,0.1496,,1,0.3,"[1,3,2]",0.235332775,stimuli/card_0_transparent.png,0,1,0,1,0,1,,,,,,,,,,
,,,,6479c87daabda4a5809a752d,A,2024-07-02_14h03.54.419,Slot Machine Game,2023.1.3,Win32,59.17159763,,,,,,,,,,,,,,,,,,,,,,,,,,,0,,,,,,,,,,,,,,,,,,,,,8,2,,,489.153,2,left,0.3197,,1,0.3,"[1,3,2]",0.056057142,stimuli/card_0_transparent.png,0,2,0,2,0,1,,,,,,,,,,
,,,,6479c87daabda4a5809a752d,A,2024-07-02_14h03.54.419,Slot Machine Game,2023.1.3,Win32,59.17159763,,,,,,,,,,,,,,,,,,,,,,,,,,,10,,,,,,,,,,,,,,,,,,,,,8,2,,,491.3028,3,right,0.2402,,1,0.3,"[1,3,2]",0.893732583,stimuli/card_10_transparent.png,10,3,0,3,0,1,,,,,,,,,,
,,,,6479c87daabda4a5809a752d,A,2024-07-02_14h03.54.419,Slot Machine Game,2023.1.3,Win32,59.17159763,,,,,,,,,,,,,,,,,,,,,,,,,,,10,,,,,,,,,,,,,,,,,,,,,8,2,,,493.3706,4,up,0.2371,,1,0.3,"[1,3,2]",0.823286006,stimuli/card_0_transparent.png,0,4,0,4,0,1,,,,,,,,,,
,,,,6479c87daabda4a5809a752d,A,2024-07-02_14h03.54.419,Slot Machine Game,2023.1.3,Win32,59.17159763,,,,,,,,,,,,,,,,,,,,,,,,,,,110,,,,,,,,,,,,,,,,,,,,,8,2,,,495.4359,5,left,0.1367,,1,0.3,"[1,3,2]",0.62109055,stimuli/card_100_transparent.png,100,5,0,5,0,1,,,,,,,,,,
,,,,6479c87daabda4a5809a752d,A,2024-07-02_14h03.54.419,Slot Machine Game,2023.1.3,Win32,59.17159763,,,,,,,,,,,,,,,,,,,,,,,,,,,110,,,,,,,,,,,,,,,,,,,,,8,2,,,497.4004,6,left,0.1898,,0.5,0.3,"[3,2,1]",0.645207407,stimuli/card_0_transparent.png,0,6,0,6,0,1,,,,,,,,,,
,,,,6479c87daabda4a5809a752d,A,2024-07-02_14h03.54.419,Slot Machine Game,2023.1.3,Win32,59.17159763,,,,,,,,,,,,,,,,,,,,,,,,,,,110,,,,,,,,,,,,,,,,,,,,,8,2,,,498.8996,7,left,0.3051,,1,0.3,"[3,2,1]",0.657634447,stimuli/card_0_transparent.png,0,7,0,7,0,1,,,,,,,,,,
,,,,6479c87daabda4a5809a752d,A,2024-07-02_14h03.54.419,Slot Machine Game,2023.1.3,Win32,59.17159763,,,,,,,,,,,,,,,,,,,,,,,,,,,110,,,,,,,,,,,,,,,,,,,,,8,2,,,501.0177,8,left,0.1403,,1,0.3,"[3,2,1]",0.789534692,stimuli/card_0_transparent.png,0,8,0,8,0,1,,,,,,,,,,
,,,,6479c87daabda4a5809a752d,A,2024-07-02_14h03.54.419,Slot Machine Game,2023.1.3,Win32,59.17159763,,,,,,,,,,,,,,,,,,,,,,,,,,,110,,,,,,,,,,,,,,,,,,,,,8,2,,,502.9841,9,left,0.1346,,1.5,0.3,"[3,2,1]",0.77376341,stimuli/card_0_transparent.png,0,9,0,9,0,1,,,,,,,,,,
,,,,6479c87daabda4a5809a752d,A,2024-07-02_14h03.54.419,Slot Machine Game,2023.1.3,Win32,59.17159763,,,,,,,,,,,,,,,,,,,,,,,,,,,210,,,,,,,,,,,,,,,,,,,,,8,2,,,505.4501,10,left,0.0012,,1.5,0.3,"[3,2,1]",0.070306586,stimuli/card_100_transparent.png,100,10,0,10,0,1,,,,,,,,,,
,,,,6479c87daabda4a5809a752d,A,2024-07-02_14h03.54.419,Slot Machine Game,2023.1.3,Win32,59.17159763,,,,,,,,,,,,,,,,,,,,,,,,,,,210,,,,,,,,,,,,,,,,,,,,,8,2,,,507.7832,11,left,0.1295,,1,0.3,"[3,2,1]",0.476745364,stimuli/card_0_transparent.png,0,11,0,11,0,1,,,,,,,,,,
,,,,6479c87daabda4a5809a752d,A,2024-07-02_14h03.54.419,Slot Machine Game,2023.1.3,Win32,59.17159763,,,,,,,,,,,,,,,,,,,,,,,,,,,310,,,,,,,,,,,,,,,,,,,,,8,2,,,509.7336,12,right,0.2306,,1,0.3,"[3,2,1]",0.295092302,stimuli/card_100_transparent.png,100,12,0,12,0,1,,,,,,,,,,
,,,,6479c87daabda4a5809a752d,A,2024-07-02_14h03.54.419,Slot Machine Game,2023.1.3,Win32,59.17159763,,,,,,,,,,,,,,,,,,,,,,,,,,,410,,,,,,,,,,,,,,,,,,,,,8,2,,,511.7825,13,right,0.1795,,1,0.3,"[3,2,1]",0.643466886,stimuli/card_100_transparent.png,100,13,0,13,0,1,,,,,,,,,,
,,,,6479c87daabda4a5809a752d,A,2024-07-02_14h03.54.419,Slot Machine Game,2023.1.3,Win32,59.17159763,,,,,,,,,,,,,,,,,,,,,,,,,,,510,,,,,,,,,,,,,,,,,,,,,8,2,,,513.7813,14,right,0.0335,,1.5,0.3,"[3,2,1]",0.746045668,stimuli/card_100_transparent.png,100,14,0,14,0,1,,,,,,,,,,
,,,,6479c87daabda4a5809a752d,A,2024-07-02_14h03.54.419,Slot Machine Game,2023.1.3,Win32,59.17159763,,,,,,,,,,,,,,,,,,,,,,,,,,,,,,,,,,,516.1485,,,,,,,,,,,,,,,,,,,,,,,,,,,,,,,,,"[910,1120,660,1110,720,640,440,510]",7,0,7,0,1,,,,
,,,,6479c87daabda4a5809a752d,A,2024-07-02_14h03.54.419,Slot Machine Game,2023.1.3,Win32,59.17159763,,,,,,,,,,,,,,,,,,,,,,,,,,,100,,,,,,,,,,,,,,,,,,,,,9,10,"[10,15]","[[3,1,2],[1,3,2]]",521.1938,0,up,0.0681,,1,0.3,"[3,1,2]",0.706679284,stimuli/card_100_transparent.png,100,0,0,0,0,1,,,,,,,,,,
,,,,6479c87daabda4a5809a752d,A,2024-07-02_14h03.54.419,Slot Machine Game,2023.1.3,Win32,59.17159763,,,,,,,,,,,,,,,,,,,,,,,,,,,200,,,,,,,,,,,,,,,,,,,,,9,10,,,523.0817,1,up,0.0685,,0.5,0.3,"[3,1,2]",0.83126872,stimuli/card_100_transparent.png,100,1,0,1,0,1,,,,,,,,,,
,,,,6479c87daabda4a5809a752d,A,2024-07-02_14h03.54.419,Slot Machine Game,2023.1.3,Win32,59.17159763,,,,,,,,,,,,,,,,,,,,,,,,,,,300,,,,,,,,,,,,,,,,,,,,,9,10,,,524.4783,2,up,0.2179,,0.5,0.3,"[3,1,2]",0.850571057,stimuli/card_100_transparent.png,100,2,0,2,0,1,,,,,,,,,,
,,,,6479c87daabda4a5809a752d,A,2024-07-02_14h03.54.419,Slot Machine Game,2023.1.3,Win32,59.17159763,,,,,,,,,,,,,,,,,,,,,,,,,,,400,,,,,,,,,,,,,,,,,,,,,9,10,,,526.0127,3,up,0.253,,0.5,0.3,"[3,1,2]",0.936540423,stimuli/card_100_transparent.png,100,3,0,3,0,1,,,,,,,,,,
,,,,6479c87daabda4a5809a752d,A,2024-07-02_14h03.54.419,Slot Machine Game,2023.1.3,Win32,59.17159763,,,,,,,,,,,,,,,,,,,,,,,,,,,400,,,,,,,,,,,,,,,,,,,,,9,10,,,527.5961,4,up,0.0076,,0.5,0.3,"[3,1,2]",0.0315978,stimuli/card_0_transparent.png,0,4,0,4,0,1,,,,,,,,,,
,,,,6479c87daabda4a5809a752d,A,2024-07-02_14h03.54.419,Slot Machine Game,2023.1.3,Win32,59.17159763,,,,,,,,,,,,,,,,,,,,,,,,,,,500,,,,,,,,,,,,,,,,,,,,,9,10,,,528.9277,5,up,0.4113,,1.5,0.3,"[3,1,2]",0.277516188,stimuli/card_100_transparent.png,100,5,0,5,0,1,,,,,,,,,,
,,,,6479c87daabda4a5809a752d,A,2024-07-02_14h03.54.419,Slot Machine Game,2023.1.3,Win32,59.17159763,,,,,,,,,,,,,,,,,,,,,,,,,,,600,,,,,,,,,,,,,,,,,,,,,9,10,,,531.6456,6,up,0.1942,,0.5,0.3,"[3,1,2]",0.295893348,stimuli/card_100_transparent.png,100,6,0,6,0,1,,,,,,,,,,
,,,,6479c87daabda4a5809a752d,A,2024-07-02_14h03.54.419,Slot Machine Game,2023.1.3,Win32,59.17159763,,,,,,,,,,,,,,,,,,,,,,,,,,,610,,,,,,,,,,,,,,,,,,,,,9,10,,,533.1615,7,up,0.2523,,1,0.3,"[3,1,2]",0.120332979,stimuli/card_10_transparent.png,10,7,0,7,0,1,,,,,,,,,,
,,,,6479c87daabda4a5809a752d,A,2024-07-02_14h03.54.419,Slot Machine Game,2023.1.3,Win32,59.17159763,,,,,,,,,,,,,,,,,,,,,,,,,,,710,,,,,,,,,,,,,,,,,,,,,9,10,,,535.2443,8,up,0.0401,,1.5,0.3,"[3,1,2]",0.265386667,stimuli/card_100_transparent.png,100,8,0,8,0,1,,,,,,,,,,
,,,,6479c87daabda4a5809a752d,A,2024-07-02_14h03.54.419,Slot Machine Game,2023.1.3,Win32,59.17159763,,,,,,,,,,,,,,,,,,,,,,,,,,,720,,,,,,,,,,,,,,,,,,,,,9,10,,,537.6105,9,up,0.2689,,1.5,0.3,"[3,1,2]",0.172795735,stimuli/card_10_transparent.png,10,9,0,9,0,1,,,,,,,,,,
,,,,6479c87daabda4a5809a752d,A,2024-07-02_14h03.54.419,Slot Machine Game,2023.1.3,Win32,59.17159763,,,,,,,,,,,,,,,,,,,,,,,,,,,720,,,,,,,,,,,,,,,,,,,,,9,10,,,540.2092,10,up,0.0236,,1.5,0.3,"[1,3,2]",0.381912076,stimuli/card_0_transparent.png,0,10,0,10,0,1,,,,,,,,,,
,,,,6479c87daabda4a5809a752d,A,2024-07-02_14h03.54.419,Slot Machine Game,2023.1.3,Win32,59.17159763,,,,,,,,,,,,,,,,,,,,,,,,,,,730,,,,,,,,,,,,,,,,,,,,,9,10,,,542.5586,11,left,0.017,,1,0.3,"[1,3,2]",0.154664138,stimuli/card_10_transparent.png,10,11,0,11,0,1,,,,,,,,,,
,,,,6479c87daabda4a5809a752d,A,2024-07-02_14h03.54.419,Slot Machine Game,2023.1.3,Win32,59.17159763,,,,,,,,,,,,,,,,,,,,,,,,,,,740,,,,,,,,,,,,,,,,,,,,,9,10,,,544.409,12,right,0.2595,,0.5,0.3,"[1,3,2]",0.472978045,stimuli/card_10_transparent.png,10,12,0,12,0,1,,,,,,,,,,
,,,,6479c87daabda4a5809a752d,A,2024-07-02_14h03.54.419,Slot Machine Game,2023.1.3,Win32,59.17159763,,,,,,,,,,,,,,,,,,,,,,,,,,,740,,,,,,,,,,,,,,,,,,,,,9,10,,,545.9936,13,up,0.2756,,0.5,0.3,"[1,3,2]",0.297531858,stimuli/card_0_transparent.png,0,13,0,13,0,1,,,,,,,,,,
,,,,6479c87daabda4a5809a752d,A,2024-07-02_14h03.54.419,Slot Machine Game,2023.1.3,Win32,59.17159763,,,,,,,,,,,,,,,,,,,,,,,,,,,750,,,,,,,,,,,,,,,,,,,,,9,10,,,547.5923,14,right,0.2347,,1.5,0.3,"[1,3,2]",0.29158687,stimuli/card_10_transparent.png,10,14,0,14,0,1,,,,,,,,,,
,,,,6479c87daabda4a5809a752d,A,2024-07-02_14h03.54.419,Slot Machine Game,2023.1.3,Win32,59.17159763,,,,,,,,,,,,,,,,,,,,,,,,,,,,,,,,,,,550.1573,,,,,,,,,,,,,,,,,,,,,,,,,,,,,,,,,"[910,1120,660,1110,720,640,440,510,750]",8,0,8,0,1,,,,
,,,,6479c87daabda4a5809a752d,A,2024-07-02_14h03.54.419,Slot Machine Game,2023.1.3,Win32,59.17159763,,,,,,,,,,,,,,,,,,,,,,,,,,,10,,,,,,,,,,,,,,,,,,,,,10,3,"[15,15]","[[3,1,2],[3,1,2]]",555.1686,0,right,0.1077,,1,0.3,"[3,1,2]",0.593987151,stimuli/card_10_transparent.png,10,0,0,0,0,1,,,,,,,,,,
,,,,6479c87daabda4a5809a752d,A,2024-07-02_14h03.54.419,Slot Machine Game,2023.1.3,Win32,59.17159763,,,,,,,,,,,,,,,,,,,,,,,,,,,10,,,,,,,,,,,,,,,,,,,,,10,3,,,557.0897,1,left,0.4342,,0.5,0.3,"[3,1,2]",0.35721738,stimuli/card_0_transparent.png,0,1,0,1,0,1,,,,,,,,,,
,,,,6479c87daabda4a5809a752d,A,2024-07-02_14h03.54.419,Slot Machine Game,2023.1.3,Win32,59.17159763,,,,,,,,,,,,,,,,,,,,,,,,,,,110,,,,,,,,,,,,,,,,,,,,,10,3,,,558.8559,2,up,0.16,,1,0.3,"[3,1,2]",0.445424504,stimuli/card_100_transparent.png,100,2,0,2,0,1,,,,,,,,,,
,,,,6479c87daabda4a5809a752d,A,2024-07-02_14h03.54.419,Slot Machine Game,2023.1.3,Win32,59.17159763,,,,,,,,,,,,,,,,,,,,,,,,,,,210,,,,,,,,,,,,,,,,,,,,,10,3,,,560.839,3,up,0.5035,,1.5,0.3,"[3,1,2]",0.408577202,stimuli/card_100_transparent.png,100,3,0,3,0,1,,,,,,,,,,
,,,,6479c87daabda4a5809a752d,A,2024-07-02_14h03.54.419,Slot Machine Game,2023.1.3,Win32,59.17159763,,,,,,,,,,,,,,,,,,,,,,,,,,,310,,,,,,,,,,,,,,,,,,,,,10,3,,,563.6718,4,up,0.0739,,0.5,0.3,"[3,1,2]",0.550060747,stimuli/card_100_transparent.png,100,4,0,4,0,1,,,,,,,,,,
,,,,6479c87daabda4a5809a752d,A,2024-07-02_14h03.54.419,Slot Machine Game,2023.1.3,Win32,59.17159763,,,,,,,,,,,,,,,,,,,,,,,,,,,410,,,,,,,,,,,,,,,,,,,,,10,3,,,565.0716,5,up,0.0649,,1.5,0.3,"[3,1,2]",0.93832286,stimuli/card_100_transparent.png,100,5,0,5,0,1,,,,,,,,,,
,,,,6479c87daabda4a5809a752d,A,2024-07-02_14h03.54.419,Slot Machine Game,2023.1.3,Win32,59.17159763,,,,,,,,,,,,,,,,,,,,,,,,,,,510,,,,,,,,,,,,,,,,,,,,,10,3,,,567.4546,6,up,0.3399,,1.5,0.3,"[3,1,2]",0.928151693,stimuli/card_100_transparent.png,100,6,0,6,0,1,,,,,,,,,,
,,,,6479c87daabda4a5809a752d,A,2024-07-02_14h03.54.419,Slot Machine Game,2023.1.3,Win32,59.17159763,,,,,,,,,,,,,,,,,,,,,,,,,,,510,,,,,,,,,,,,,,,,,,,,,10,3,,,570.1211,7,up,0.0508,,1,0.3,"[3,1,2]",0.003231834,stimuli/card_0_transparent.png,0,7,0,7,0,1,,,,,,,,,,
,,,,6479c87daabda4a5809a752d,A,2024-07-02_14h03.54.419,Slot Machine Game,2023.1.3,Win32,59.17159763,,,,,,,,,,,,,,,,,,,,,,,,,,,610,,,,,,,,,,,,,,,,,,,,,10,3,,,572.0037,8,up,0.1082,,0.5,0.3,"[3,1,2]",0.528890698,stimuli/card_100_transparent.png,100,8,0,8,0,1,,,,,,,,,,
,,,,6479c87daabda4a5809a752d,A,2024-07-02_14h03.54.419,Slot Machine Game,2023.1.3,Win32,59.17159763,,,,,,,,,,,,,,,,,,,,,,,,,,,710,,,,,,,,,,,,,,,,,,,,,10,3,,,573.4372,9,up,0.173,,0.5,0.3,"[3,1,2]",0.440579169,stimuli/card_100_transparent.png,100,9,0,9,0,1,,,,,,,,,,
,,,,6479c87daabda4a5809a752d,A,2024-07-02_14h03.54.419,Slot Machine Game,2023.1.3,Win32,59.17159763,,,,,,,,,,,,,,,,,,,,,,,,,,,810,,,,,,,,,,,,,,,,,,,,,10,3,,,574.9367,10,up,0.2408,,0.5,0.3,"[3,1,2]",0.623011326,stimuli/card_100_transparent.png,100,10,0,10,0,1,,,,,,,,,,
,,,,6479c87daabda4a5809a752d,A,2024-07-02_14h03.54.419,Slot Machine Game,2023.1.3,Win32,59.17159763,,,,,,,,,,,,,,,,,,,,,,,,,,,820,,,,,,,,,,,,,,,,,,,,,10,3,,,576.503,11,up,0.2895,,1,0.3,"[3,1,2]",0.159858803,stimuli/card_10_transparent.png,10,11,0,11,0,1,,,,,,,,,,
,,,,6479c87daabda4a5809a752d,A,2024-07-02_14h03.54.419,Slot Machine Game,2023.1.3,Win32,59.17159763,,,,,,,,,,,,,,,,,,,,,,,,,,,820,,,,,,,,,,,,,,,,,,,,,10,3,,,578.6193,12,up,0.1506,,0.5,0.3,"[3,1,2]",0.07366265,stimuli/card_0_transparent.png,0,12,0,12,0,1,,,,,,,,,,
,,,,6479c87daabda4a5809a752d,A,2024-07-02_14h03.54.419,Slot Machine Game,2023.1.3,Win32,59.17159763,,,,,,,,,,,,,,,,,,,,,,,,,,,920,,,,,,,,,,,,,,,,,,,,,10,3,,,580.1024,13,left,0.2449,,0.5,0.3,"[3,1,2]",0.067565355,stimuli/card_100_transparent.png,100,13,0,13,0,1,,,,,,,,,,
,,,,6479c87daabda4a5809a752d,A,2024-07-02_14h03.54.419,Slot Machine Game,2023.1.3,Win32,59.17159763,,,,,,,,,,,,,,,,,,,,,,,,,,,920,,,,,,,,,,,,,,,,,,,,,10,3,,,581.6688,14,left,0.3346,,1,0.3,"[3,1,2]",0.463180409,stimuli/card_0_transparent.png,0,14,0,14,0,1,,,,,,,,,,
,,,,6479c87daabda4a5809a752d,A,2024-07-02_14h03.54.419,Slot Machine Game,2023.1.3,Win32,59.17159763,,,,,,,,,,,,,,,,,,,,,,,,,,,,,,,,,,,583.8364,,,,,,,,,,,,,,,,,,,,,,,,,,,,,,,,,"[910,1120,660,1110,720,640,440,510,750,920]",9,0,9,0,1,,,,
,,,,6479c87daabda4a5809a752d,A,2024-07-02_14h03.54.419,Slot Machine Game,2023.1.3,Win32,59.17159763,,,,,,,,,,,,,,,,,,,,,,,,,,,,,,,,,,,,,,,,,,,,,,,,,,,,,,,,,,,,,,,,,,,,,,,,,,9,"[910,1120,660,1110,720,640,440,510,750,920]",11.1,2024-07-02_14h13.47.431
