key_resp_welcome_started,key_resp_welcome_keys,key_resp_welcome_rt,key_resp_welcome_duration,prolific_id,path_id,date,expName,psychopyVersion,OS,frameRate,key_resp_instruction1_started,key_resp_instruction1_keys,key_resp_instruction1_rt,key_resp_instruction1_duration,key_resp_instruction2_started,key_resp_instruction2_keys,key_resp_instruction2_rt,key_resp_instruction2_duration,key_resp_instruction3_started,key_resp_instruction3_keys,key_resp_instruction3_rt,key_resp_instruction3_duration,key_resp_instruction4_started,key_resp_instruction4_keys,key_resp_instruction4_rt,key_resp_instruction4_duration,practiceCondition,practice_reward_seqs,practice_trial_started,practice_trial_num,practice_resp_rt,practice_resp_duration,practice_resp_keys,prac_presentationInterval,"practice_reward_seq: 2,1,3",reward_img,cumulative_reward,trial_reward,practice_trials.thisRepN,practice_trials.thisTrialN,practice_trials.thisN,practice_trials.thisIndex,practice_trials.ran,"practice_reward_seq: 2,3,1",block_break_started,"practice_reward_seq: 1,3,2","practice_reward_seq: 3,1,2",practice_end_time,practice_end_keys,practice_end_rt,practice_end_duration,main_instruction_text_started,block_condition,block_order_indices,main_instruction_keys,main_instruction_rt,main_instruction_duration,block_number,block_assignment,current_condition,main_reward_seqs,main_trial_started,main_trial_num,main_trial_keys,main_trial_rt,main_trial_duration,main_presentationInterval,reward_presentation_time,main_reward_seq,reward_rand_val,main_reward_img,current_reward,main_trials.thisRepN,main_trials.thisTrialN,main_trials.thisN,main_trials.thisIndex,main_trials.ran,block_reward,block.thisRepN,block.thisTrialN,block.thisN,block.thisIndex,block.ran,block_reward.length,block_reward_all,reward_amount,date_end_task
0.0031,space,1.9139,,64d5078f2a137d6c7b563d12,A,2024-07-03_16h27.57.331,Slot Machine Game,2023.1.3,MacIntel,59.88023952,,,,,,,,,,,,,,,,,,,,,,,,,,,,,,,,,,,,,,,,,,,,,,,,,,,,,,,,,,,,,,,,,,,,,,,,,,,,,
,,,,64d5078f2a137d6c7b563d12,A,2024-07-03_16h27.57.331,Slot Machine Game,2023.1.3,MacIntel,59.88023952,1.9368,space,7.943,,,,,,,,,,,,,,,,,,,,,,,,,,,,,,,,,,,,,,,,,,,,,,,,,,,,,,,,,,,,,,,,,,,,,,,,,,
,,,,64d5078f2a137d6c7b563d12,A,2024-07-03_16h27.57.331,Slot Machine Game,2023.1.3,MacIntel,59.88023952,,,,,9.9041,space,22.7443,,,,,,,,,,,,,,,,,,,,,,,,,,,,,,,,,,,,,,,,,,,,,,,,,,,,,,,,,,,,,,,,,,,,,,
,,,,64d5078f2a137d6c7b563d12,A,2024-07-03_16h27.57.331,Slot Machine Game,2023.1.3,MacIntel,59.88023952,,,,,,,,,32.6877,space,5.1437,,,,,,,,,,,,,,,,,,,,,,,,,,,,,,,,,,,,,,,,,,,,,,,,,,,,,,,,,,,,,,,,,,
,,,,64d5078f2a137d6c7b563d12,A,2024-07-03_16h27.57.331,Slot Machine Game,2023.1.3,MacIntel,59.88023952,,,,,,,,,,,,,,,,,,,,,,,,,,,,,,,,,,,,,,,,,,,,,,,,,,,,,,,,,,,,,,,,,,,,,,,,,,,,,
,,,,64d5078f2a137d6c7b563d12,A,2024-07-03_16h27.57.331,Slot Machine Game,2023.1.3,MacIntel,59.88023952,,,,,,,,,,,,,179.5882,space,2.5974,,,,,,,,,,,,,,,,,,,,,,,,,,,,,,,,,,,,,,,,,,,,,,,,,,,,,,,,,,,,,,
,,,,64d5078f2a137d6c7b563d12,A,2024-07-03_16h27.57.331,Slot Machine Game,2023.1.3,MacIntel,59.88023952,,,,,,,,,,,,,,,,,"[9,15]","[[2,1,3],[2,3,1]]",182.2104,0,0.7068,,up,1,,stimuli/card_100_transparent.png,100,100,0,0,0,0,1,,,,,,,,,,,,,,,,,,,,,,,,,,,,,,,,,,,,,,,,,,,,
,,,,64d5078f2a137d6c7b563d12,A,2024-07-03_16h27.57.331,Slot Machine Game,2023.1.3,MacIntel,59.88023952,,,,,,,,,,,,,,,,,,,184.7574,1,0.5181,,up,1.5,,stimuli/card_100_transparent.png,200,100,1,0,1,0,1,,,,,,,,,,,,,,,,,,,,,,,,,,,,,,,,,,,,,,,,,,,,
,,,,64d5078f2a137d6c7b563d12,A,2024-07-03_16h27.57.331,Slot Machine Game,2023.1.3,MacIntel,59.88023952,,,,,,,,,,,,,,,,,,,187.6069,2,0.1872,,left,1.5,,stimuli/card_10_transparent.png,210,10,2,0,2,0,1,,,,,,,,,,,,,,,,,,,,,,,,,,,,,,,,,,,,,,,,,,,,
,,,,64d5078f2a137d6c7b563d12,A,2024-07-03_16h27.57.331,Slot Machine Game,2023.1.3,MacIntel,59.88023952,,,,,,,,,,,,,,,,,,,190.1237,3,1.2822,,right,1,,stimuli/card_0_transparent.png,210,0,3,0,3,0,1,,,,,,,,,,,,,,,,,,,,,,,,,,,,,,,,,,,,,,,,,,,,
,,,,64d5078f2a137d6c7b563d12,A,2024-07-03_16h27.57.331,Slot Machine Game,2023.1.3,MacIntel,59.88023952,,,,,,,,,,,,,,,,,,,193.2243,4,0.601,,left,1.5,,stimuli/card_10_transparent.png,220,10,4,0,4,0,1,,,,,,,,,,,,,,,,,,,,,,,,,,,,,,,,,,,,,,,,,,,,
,,,,64d5078f2a137d6c7b563d12,A,2024-07-03_16h27.57.331,Slot Machine Game,2023.1.3,MacIntel,59.88023952,,,,,,,,,,,,,,,,,,,196.1573,5,1.9167,,up,1,,stimuli/card_100_transparent.png,320,100,5,0,5,0,1,,,,,,,,,,,,,,,,,,,,,,,,,,,,,,,,,,,,,,,,,,,,
,,,,64d5078f2a137d6c7b563d12,A,2024-07-03_16h27.57.331,Slot Machine Game,2023.1.3,MacIntel,59.88023952,,,,,,,,,,,,,,,,,,,199.9077,6,0.2873,,up,0.5,,stimuli/card_100_transparent.png,420,100,6,0,6,0,1,,,,,,,,,,,,,,,,,,,,,,,,,,,,,,,,,,,,,,,,,,,,
,,,,64d5078f2a137d6c7b563d12,A,2024-07-03_16h27.57.331,Slot Machine Game,2023.1.3,MacIntel,59.88023952,,,,,,,,,,,,,,,,,,,201.5245,7,0.4179,,up,1,,stimuli/card_10_transparent.png,430,10,7,0,7,0,1,,,,,,,,,,,,,,,,,,,,,,,,,,,,,,,,,,,,,,,,,,,,
,,,,64d5078f2a137d6c7b563d12,A,2024-07-03_16h27.57.331,Slot Machine Game,2023.1.3,MacIntel,59.88023952,,,,,,,,,,,,,,,,,,,203.7741,8,0.3325,,left,1,,stimuli/card_10_transparent.png,440,10,8,0,8,0,1,,,,,,,,,,,,,,,,,,,,,,,,,,,,,,,,,,,,,,,,,,,,
,,,,64d5078f2a137d6c7b563d12,A,2024-07-03_16h27.57.331,Slot Machine Game,2023.1.3,MacIntel,59.88023952,,,,,,,,,,,,,,,,,,,205.9404,9,0.4189,,left,1.5,,stimuli/card_100_transparent.png,540,100,9,0,9,0,1,,,,,,,,,,,,,,,,,,,,,,,,,,,,,,,,,,,,,,,,,,,,
,,,,64d5078f2a137d6c7b563d12,A,2024-07-03_16h27.57.331,Slot Machine Game,2023.1.3,MacIntel,59.88023952,,,,,,,,,,,,,,,,,,,208.6914,10,0.0826,,left,1.5,,stimuli/card_10_transparent.png,550,10,10,0,10,0,1,,,,,,,,,,,,,,,,,,,,,,,,,,,,,,,,,,,,,,,,,,,,
,,,,64d5078f2a137d6c7b563d12,A,2024-07-03_16h27.57.331,Slot Machine Game,2023.1.3,MacIntel,59.88023952,,,,,,,,,,,,,,,,,,,211.1081,11,0.0504,,right,0.5,,stimuli/card_100_transparent.png,650,100,11,0,11,0,1,,,,,,,,,,,,,,,,,,,,,,,,,,,,,,,,,,,,,,,,,,,,
,,,,64d5078f2a137d6c7b563d12,A,2024-07-03_16h27.57.331,Slot Machine Game,2023.1.3,MacIntel,59.88023952,,,,,,,,,,,,,,,,,,,212.4914,12,0.2007,,right,1,,stimuli/card_10_transparent.png,660,10,12,0,12,0,1,,,,,,,,,,,,,,,,,,,,,,,,,,,,,,,,,,,,,,,,,,,,
,,,,64d5078f2a137d6c7b563d12,A,2024-07-03_16h27.57.331,Slot Machine Game,2023.1.3,MacIntel,59.88023952,,,,,,,,,,,,,,,,,,,214.5241,13,0.7193,,left,1,,stimuli/card_10_transparent.png,670,10,13,0,13,0,1,,,,,,,,,,,,,,,,,,,,,,,,,,,,,,,,,,,,,,,,,,,,
,,,,64d5078f2a137d6c7b563d12,A,2024-07-03_16h27.57.331,Slot Machine Game,2023.1.3,MacIntel,59.88023952,,,,,,,,,,,,,,,,,,,217.0747,14,0.1609,,right,1.5,,stimuli/card_100_transparent.png,770,100,14,0,14,0,1,,,,,,,,,,,,,,,,,,,,,,,,,,,,,,,,,,,,,,,,,,,,
,,,,64d5078f2a137d6c7b563d12,A,2024-07-03_16h27.57.331,Slot Machine Game,2023.1.3,MacIntel,59.88023952,,,,,,,,,,,,,,,,,"[6,15]","[[1,3,2],[3,1,2]]",224.5916,0,3.4496,,left,1,,stimuli/card_100_transparent.png,100,100,0,0,0,0,1,,219.5743,,,,,,,,,,,,,,,,,,,,,,,,,,,,,,,,,,,,,,,,,,
,,,,64d5078f2a137d6c7b563d12,A,2024-07-03_16h27.57.331,Slot Machine Game,2023.1.3,MacIntel,59.88023952,,,,,,,,,,,,,,,,,,,229.8752,1,0.0329,,left,0.5,,stimuli/card_100_transparent.png,200,100,1,0,1,0,1,,,,,,,,,,,,,,,,,,,,,,,,,,,,,,,,,,,,,,,,,,,,
,,,,64d5078f2a137d6c7b563d12,A,2024-07-03_16h27.57.331,Slot Machine Game,2023.1.3,MacIntel,59.88023952,,,,,,,,,,,,,,,,,,,231.2414,2,0.2836,,left,0.5,,stimuli/card_100_transparent.png,300,100,2,0,2,0,1,,,,,,,,,,,,,,,,,,,,,,,,,,,,,,,,,,,,,,,,,,,,
,,,,64d5078f2a137d6c7b563d12,A,2024-07-03_16h27.57.331,Slot Machine Game,2023.1.3,MacIntel,59.88023952,,,,,,,,,,,,,,,,,,,232.8586,3,0.2267,,up,1.5,,stimuli/card_0_transparent.png,300,0,3,0,3,0,1,,,,,,,,,,,,,,,,,,,,,,,,,,,,,,,,,,,,,,,,,,,,
,,,,64d5078f2a137d6c7b563d12,A,2024-07-03_16h27.57.331,Slot Machine Game,2023.1.3,MacIntel,59.88023952,,,,,,,,,,,,,,,,,,,235.4077,4,0.3157,,right,1.5,,stimuli/card_10_transparent.png,310,10,4,0,4,0,1,,,,,,,,,,,,,,,,,,,,,,,,,,,,,,,,,,,,,,,,,,,,
,,,,64d5078f2a137d6c7b563d12,A,2024-07-03_16h27.57.331,Slot Machine Game,2023.1.3,MacIntel,59.88023952,,,,,,,,,,,,,,,,,,,238.0585,5,0.233,,right,0.5,,stimuli/card_10_transparent.png,320,10,5,0,5,0,1,,,,,,,,,,,,,,,,,,,,,,,,,,,,,,,,,,,,,,,,,,,,
,,,,64d5078f2a137d6c7b563d12,A,2024-07-03_16h27.57.331,Slot Machine Game,2023.1.3,MacIntel,59.88023952,,,,,,,,,,,,,,,,,,,239.6253,6,2.3033,,left,0.5,,stimuli/card_0_transparent.png,320,0,6,0,6,0,1,,,,,,,,,,,,,,,,,,,,,,,,,,,,,,,,,,,,,,,,,,,,
,,,,64d5078f2a137d6c7b563d12,A,2024-07-03_16h27.57.331,Slot Machine Game,2023.1.3,MacIntel,59.88023952,,,,,,,,,,,,,,,,,,,243.2588,7,0.0004,,up,1.5,,stimuli/card_100_transparent.png,420,100,7,0,7,0,1,,,,,,,,,,,,,,,,,,,,,,,,,,,,,,,,,,,,,,,,,,,,
,,,,64d5078f2a137d6c7b563d12,A,2024-07-03_16h27.57.331,Slot Machine Game,2023.1.3,MacIntel,59.88023952,,,,,,,,,,,,,,,,,,,245.5921,8,0.0628,,up,1,,stimuli/card_100_transparent.png,520,100,8,0,8,0,1,,,,,,,,,,,,,,,,,,,,,,,,,,,,,,,,,,,,,,,,,,,,
,,,,64d5078f2a137d6c7b563d12,A,2024-07-03_16h27.57.331,Slot Machine Game,2023.1.3,MacIntel,59.88023952,,,,,,,,,,,,,,,,,,,247.4756,9,0.0872,,up,1.5,,stimuli/card_0_transparent.png,520,0,9,0,9,0,1,,,,,,,,,,,,,,,,,,,,,,,,,,,,,,,,,,,,,,,,,,,,
,,,,64d5078f2a137d6c7b563d12,A,2024-07-03_16h27.57.331,Slot Machine Game,2023.1.3,MacIntel,59.88023952,,,,,,,,,,,,,,,,,,,249.8923,10,2.558,,right,1.5,,stimuli/card_10_transparent.png,530,10,10,0,10,0,1,,,,,,,,,,,,,,,,,,,,,,,,,,,,,,,,,,,,,,,,,,,,
,,,,64d5078f2a137d6c7b563d12,A,2024-07-03_16h27.57.331,Slot Machine Game,2023.1.3,MacIntel,59.88023952,,,,,,,,,,,,,,,,,,,254.7757,11,0.1047,,right,1,,stimuli/card_10_transparent.png,540,10,11,0,11,0,1,,,,,,,,,,,,,,,,,,,,,,,,,,,,,,,,,,,,,,,,,,,,
,,,,64d5078f2a137d6c7b563d12,A,2024-07-03_16h27.57.331,Slot Machine Game,2023.1.3,MacIntel,59.88023952,,,,,,,,,,,,,,,,,,,256.7087,12,0.5664,,left,1,,stimuli/card_0_transparent.png,540,0,12,0,12,0,1,,,,,,,,,,,,,,,,,,,,,,,,,,,,,,,,,,,,,,,,,,,,
,,,,64d5078f2a137d6c7b563d12,A,2024-07-03_16h27.57.331,Slot Machine Game,2023.1.3,MacIntel,59.88023952,,,,,,,,,,,,,,,,,,,259.1086,13,0.3979,,left,1.5,,stimuli/card_0_transparent.png,540,0,13,0,13,0,1,,,,,,,,,,,,,,,,,,,,,,,,,,,,,,,,,,,,,,,,,,,,
,,,,64d5078f2a137d6c7b563d12,A,2024-07-03_16h27.57.331,Slot Machine Game,2023.1.3,MacIntel,59.88023952,,,,,,,,,,,,,,,,,,,261.8253,14,2.4667,,up,1,,stimuli/card_100_transparent.png,640,100,14,0,14,0,1,,,,,,,,,,,,,,,,,,,,,,,,,,,,,,,,,,,,,,,,,,,,
,,,,64d5078f2a137d6c7b563d12,A,2024-07-03_16h27.57.331,Slot Machine Game,2023.1.3,MacIntel,59.88023952,,,,,,,,,,,,,,,,,,,,,,,,,,,,,,,,,,,266.1259,,,271.1269,space,2.5532,,,,,,,,,,,,,,,,,,,,,,,,,,,,,,,,,,,,,
,,,,64d5078f2a137d6c7b563d12,A,2024-07-03_16h27.57.331,Slot Machine Game,2023.1.3,MacIntel,59.88023952,,,,,,,,,,,,,,,,,,,,,,,,,,,,,,,,,,,,,,,,,,273.71,3,"[0,4,6,3,5,7,8,1,9,2]",space,1.5454,,,,,,,,,,,,,,,,,,,,,,,,,,,,,,,
,,,,64d5078f2a137d6c7b563d12,A,2024-07-03_16h27.57.331,Slot Machine Game,2023.1.3,MacIntel,59.88023952,,,,,,,,,,,,,,,,,,,,,,,,,,,10,,,,,,,,,,,,,,,,,,,,,1,1,"[12,15]","[[2,1,3],[2,3,1]]",275.2917,0,left,0.1994,,1,0.3,"[2,1,3]",0.32410388,stimuli/card_10_transparent.png,10,0,0,0,0,1,,,,,,,,,,
,,,,64d5078f2a137d6c7b563d12,A,2024-07-03_16h27.57.331,Slot Machine Game,2023.1.3,MacIntel,59.88023952,,,,,,,,,,,,,,,,,,,,,,,,,,,20,,,,,,,,,,,,,,,,,,,,,1,1,,,277.3099,1,up,0.0331,,0.5,0.3,"[2,1,3]",0.178472888,stimuli/card_10_transparent.png,10,1,0,1,0,1,,,,,,,,,,
,,,,64d5078f2a137d6c7b563d12,A,2024-07-03_16h27.57.331,Slot Machine Game,2023.1.3,MacIntel,59.88023952,,,,,,,,,,,,,,,,,,,,,,,,,,,20,,,,,,,,,,,,,,,,,,,,,1,1,,,278.6763,2,right,2.1202,,1,0.3,"[2,1,3]",0.800172273,stimuli/card_0_transparent.png,0,2,0,2,0,1,,,,,,,,,,
,,,,64d5078f2a137d6c7b563d12,A,2024-07-03_16h27.57.331,Slot Machine Game,2023.1.3,MacIntel,59.88023952,,,,,,,,,,,,,,,,,,,,,,,,,,,120,,,,,,,,,,,,,,,,,,,,,1,1,,,282.6263,3,up,0.0206,,1.5,0.3,"[2,1,3]",0.671930164,stimuli/card_100_transparent.png,100,3,0,3,0,1,,,,,,,,,,
,,,,64d5078f2a137d6c7b563d12,A,2024-07-03_16h27.57.331,Slot Machine Game,2023.1.3,MacIntel,59.88023952,,,,,,,,,,,,,,,,,,,,,,,,,,,220,,,,,,,,,,,,,,,,,,,,,1,1,,,284.9764,4,up,0.0842,,0.5,0.3,"[2,1,3]",0.810268555,stimuli/card_100_transparent.png,100,4,0,4,0,1,,,,,,,,,,
,,,,64d5078f2a137d6c7b563d12,A,2024-07-03_16h27.57.331,Slot Machine Game,2023.1.3,MacIntel,59.88023952,,,,,,,,,,,,,,,,,,,,,,,,,,,320,,,,,,,,,,,,,,,,,,,,,1,1,,,286.3922,5,up,0.1263,,0.5,0.3,"[2,1,3]",0.575911912,stimuli/card_100_transparent.png,100,5,0,5,0,1,,,,,,,,,,
,,,,64d5078f2a137d6c7b563d12,A,2024-07-03_16h27.57.331,Slot Machine Game,2023.1.3,MacIntel,59.88023952,,,,,,,,,,,,,,,,,,,,,,,,,,,420,,,,,,,,,,,,,,,,,,,,,1,1,,,287.826,6,up,0.4194,,1.5,0.3,"[2,1,3]",0.240278497,stimuli/card_100_transparent.png,100,6,0,6,0,1,,,,,,,,,,
,,,,64d5078f2a137d6c7b563d12,A,2024-07-03_16h27.57.331,Slot Machine Game,2023.1.3,MacIntel,59.88023952,,,,,,,,,,,,,,,,,,,,,,,,,,,430,,,,,,,,,,,,,,,,,,,,,1,1,,,290.5766,7,left,1.4567,,1.5,0.3,"[2,1,3]",0.552354963,stimuli/card_10_transparent.png,10,7,0,7,0,1,,,,,,,,,,
,,,,64d5078f2a137d6c7b563d12,A,2024-07-03_16h27.57.331,Slot Machine Game,2023.1.3,MacIntel,59.88023952,,,,,,,,,,,,,,,,,,,,,,,,,,,440,,,,,,,,,,,,,,,,,,,,,1,1,,,294.3599,8,left,2.5029,,1,0.3,"[2,1,3]",0.40681808,stimuli/card_10_transparent.png,10,8,0,8,0,1,,,,,,,,,,
,,,,64d5078f2a137d6c7b563d12,A,2024-07-03_16h27.57.331,Slot Machine Game,2023.1.3,MacIntel,59.88023952,,,,,,,,,,,,,,,,,,,,,,,,,,,440,,,,,,,,,,,,,,,,,,,,,1,1,,,298.6933,9,right,1.8238,,0.5,0.3,"[2,1,3]",0.220869911,stimuli/card_0_transparent.png,0,9,0,9,0,1,,,,,,,,,,
,,,,64d5078f2a137d6c7b563d12,A,2024-07-03_16h27.57.331,Slot Machine Game,2023.1.3,MacIntel,59.88023952,,,,,,,,,,,,,,,,,,,,,,,,,,,540,,,,,,,,,,,,,,,,,,,,,1,1,,,301.8434,10,right,0.2183,,0.5,0.3,"[2,1,3]",0.001040234,stimuli/card_100_transparent.png,100,10,0,10,0,1,,,,,,,,,,
,,,,64d5078f2a137d6c7b563d12,A,2024-07-03_16h27.57.331,Slot Machine Game,2023.1.3,MacIntel,59.88023952,,,,,,,,,,,,,,,,,,,,,,,,,,,540,,,,,,,,,,,,,,,,,,,,,1,1,,,303.3935,11,right,0.5537,,0.5,0.3,"[2,1,3]",0.285398423,stimuli/card_0_transparent.png,0,11,0,11,0,1,,,,,,,,,,
,,,,64d5078f2a137d6c7b563d12,A,2024-07-03_16h27.57.331,Slot Machine Game,2023.1.3,MacIntel,59.88023952,,,,,,,,,,,,,,,,,,,,,,,,,,,540,,,,,,,,,,,,,,,,,,,,,1,1,,,305.2759,12,up,0.1556,,0.5,0.3,"[2,3,1]",0.942460373,stimuli/card_0_transparent.png,0,12,0,12,0,1,,,,,,,,,,
,,,,64d5078f2a137d6c7b563d12,A,2024-07-03_16h27.57.331,Slot Machine Game,2023.1.3,MacIntel,59.88023952,,,,,,,,,,,,,,,,,,,,,,,,,,,550,,,,,,,,,,,,,,,,,,,,,1,1,,,306.7434,13,left,1.8188,,1.5,0.3,"[2,3,1]",0.570582837,stimuli/card_10_transparent.png,10,13,0,13,0,1,,,,,,,,,,
,,,,64d5078f2a137d6c7b563d12,A,2024-07-03_16h27.57.331,Slot Machine Game,2023.1.3,MacIntel,59.88023952,,,,,,,,,,,,,,,,,,,,,,,,,,,550,,,,,,,,,,,,,,,,,,,,,1,1,,,310.8935,14,up,1.8176,,1.5,0.3,"[2,3,1]",0.877080177,stimuli/card_0_transparent.png,0,14,0,14,0,1,,,,,,,,,,
,,,,64d5078f2a137d6c7b563d12,A,2024-07-03_16h27.57.331,Slot Machine Game,2023.1.3,MacIntel,59.88023952,,,,,,,,,,,,,,,,,,,,,,,,,,,,,,,,,,,315.0439,,,,,,,,,,,,,,,,,,,,,,,,,,,,,,,,,[550],0,0,0,0,1,,,,
,,,,64d5078f2a137d6c7b563d12,A,2024-07-03_16h27.57.331,Slot Machine Game,2023.1.3,MacIntel,59.88023952,,,,,,,,,,,,,,,,,,,,,,,,,,,10,,,,,,,,,,,,,,,,,,,,,2,5,"[5,15]","[[1,2,3],[3,1,2]]",320.0595,0,left,0.6181,,1.5,0.3,"[1,2,3]",0.186381475,stimuli/card_10_transparent.png,10,0,0,0,0,1,,,,,,,,,,
,,,,64d5078f2a137d6c7b563d12,A,2024-07-03_16h27.57.331,Slot Machine Game,2023.1.3,MacIntel,59.88023952,,,,,,,,,,,,,,,,,,,,,,,,,,,20,,,,,,,,,,,,,,,,,,,,,2,5,,,322.9927,1,up,2.6765,,1,0.3,"[1,2,3]",0.937126317,stimuli/card_10_transparent.png,10,1,0,1,0,1,,,,,,,,,,
,,,,64d5078f2a137d6c7b563d12,A,2024-07-03_16h27.57.331,Slot Machine Game,2023.1.3,MacIntel,59.88023952,,,,,,,,,,,,,,,,,,,,,,,,,,,30,,,,,,,,,,,,,,,,,,,,,2,5,,,327.4774,2,up,2.1907,,0.5,0.3,"[1,2,3]",0.521272589,stimuli/card_10_transparent.png,10,2,0,2,0,1,,,,,,,,,,
,,,,64d5078f2a137d6c7b563d12,A,2024-07-03_16h27.57.331,Slot Machine Game,2023.1.3,MacIntel,59.88023952,,,,,,,,,,,,,,,,,,,,,,,,,,,130,,,,,,,,,,,,,,,,,,,,,2,5,,,330.9935,3,left,0.0846,,0.5,0.3,"[1,2,3]",0.852359069,stimuli/card_100_transparent.png,100,3,0,3,0,1,,,,,,,,,,
,,,,64d5078f2a137d6c7b563d12,A,2024-07-03_16h27.57.331,Slot Machine Game,2023.1.3,MacIntel,59.88023952,,,,,,,,,,,,,,,,,,,,,,,,,,,230,,,,,,,,,,,,,,,,,,,,,2,5,,,332.4098,4,left,0.19,,0.5,0.3,"[1,2,3]",0.702104149,stimuli/card_100_transparent.png,100,4,0,4,0,1,,,,,,,,,,
,,,,64d5078f2a137d6c7b563d12,A,2024-07-03_16h27.57.331,Slot Machine Game,2023.1.3,MacIntel,59.88023952,,,,,,,,,,,,,,,,,,,,,,,,,,,230,,,,,,,,,,,,,,,,,,,,,2,5,,,333.9275,5,left,0.333,,0.5,0.3,"[3,1,2]",0.522942327,stimuli/card_0_transparent.png,0,5,0,5,0,1,,,,,,,,,,
,,,,64d5078f2a137d6c7b563d12,A,2024-07-03_16h27.57.331,Slot Machine Game,2023.1.3,MacIntel,59.88023952,,,,,,,,,,,,,,,,,,,,,,,,,,,230,,,,,,,,,,,,,,,,,,,,,2,5,,,335.5942,6,left,0.8182,,1.5,0.3,"[3,1,2]",0.991918992,stimuli/card_0_transparent.png,0,6,0,6,0,1,,,,,,,,,,
,,,,64d5078f2a137d6c7b563d12,A,2024-07-03_16h27.57.331,Slot Machine Game,2023.1.3,MacIntel,59.88023952,,,,,,,,,,,,,,,,,,,,,,,,,,,240,,,,,,,,,,,,,,,,,,,,,2,5,,,338.7432,7,right,0.0184,,1.5,0.3,"[3,1,2]",0.262420342,stimuli/card_10_transparent.png,10,7,0,7,0,1,,,,,,,,,,
,,,,64d5078f2a137d6c7b563d12,A,2024-07-03_16h27.57.331,Slot Machine Game,2023.1.3,MacIntel,59.88023952,,,,,,,,,,,,,,,,,,,,,,,,,,,250,,,,,,,,,,,,,,,,,,,,,2,5,,,341.0933,8,right,0.0181,,1.5,0.3,"[3,1,2]",0.529087425,stimuli/card_10_transparent.png,10,8,0,8,0,1,,,,,,,,,,
,,,,64d5078f2a137d6c7b563d12,A,2024-07-03_16h27.57.331,Slot Machine Game,2023.1.3,MacIntel,59.88023952,,,,,,,,,,,,,,,,,,,,,,,,,,,350,,,,,,,,,,,,,,,,,,,,,2,5,,,343.444,9,up,1.9689,,1,0.3,"[3,1,2]",0.673944429,stimuli/card_100_transparent.png,100,9,0,9,0,1,,,,,,,,,,
,,,,64d5078f2a137d6c7b563d12,A,2024-07-03_16h27.57.331,Slot Machine Game,2023.1.3,MacIntel,59.88023952,,,,,,,,,,,,,,,,,,,,,,,,,,,450,,,,,,,,,,,,,,,,,,,,,2,5,,,347.2444,10,up,0.2829,,1,0.3,"[3,1,2]",0.214188684,stimuli/card_100_transparent.png,100,10,0,10,0,1,,,,,,,,,,
,,,,64d5078f2a137d6c7b563d12,A,2024-07-03_16h27.57.331,Slot Machine Game,2023.1.3,MacIntel,59.88023952,,,,,,,,,,,,,,,,,,,,,,,,,,,550,,,,,,,,,,,,,,,,,,,,,2,5,,,349.3603,11,up,0.0517,,1.5,0.3,"[3,1,2]",0.941861762,stimuli/card_100_transparent.png,100,11,0,11,0,1,,,,,,,,,,
,,,,64d5078f2a137d6c7b563d12,A,2024-07-03_16h27.57.331,Slot Machine Game,2023.1.3,MacIntel,59.88023952,,,,,,,,,,,,,,,,,,,,,,,,,,,650,,,,,,,,,,,,,,,,,,,,,2,5,,,351.7435,12,up,0.4233,,0.5,0.3,"[3,1,2]",0.553890965,stimuli/card_100_transparent.png,100,12,0,12,0,1,,,,,,,,,,
,,,,64d5078f2a137d6c7b563d12,A,2024-07-03_16h27.57.331,Slot Machine Game,2023.1.3,MacIntel,59.88023952,,,,,,,,,,,,,,,,,,,,,,,,,,,750,,,,,,,,,,,,,,,,,,,,,2,5,,,353.4779,13,up,0.7763,,1.5,0.3,"[3,1,2]",0.340465784,stimuli/card_100_transparent.png,100,13,0,13,0,1,,,,,,,,,,
,,,,64d5078f2a137d6c7b563d12,A,2024-07-03_16h27.57.331,Slot Machine Game,2023.1.3,MacIntel,59.88023952,,,,,,,,,,,,,,,,,,,,,,,,,,,850,,,,,,,,,,,,,,,,,,,,,2,5,,,356.578,14,up,1.1017,,1,0.3,"[3,1,2]",0.847166995,stimuli/card_100_transparent.png,100,14,0,14,0,1,,,,,,,,,,
,,,,64d5078f2a137d6c7b563d12,A,2024-07-03_16h27.57.331,Slot Machine Game,2023.1.3,MacIntel,59.88023952,,,,,,,,,,,,,,,,,,,,,,,,,,,,,,,,,,,359.5114,,,,,,,,,,,,,,,,,,,,,,,,,,,,,,,,,"[550,850]",1,0,1,0,1,,,,
,,,,64d5078f2a137d6c7b563d12,A,2024-07-03_16h27.57.331,Slot Machine Game,2023.1.3,MacIntel,59.88023952,,,,,,,,,,,,,,,,,,,,,,,,,,,0,,,,,,,,,,,,,,,,,,,,,3,7,"[9,15]","[[1,3,2],[2,3,1]]",364.5296,0,up,0.5168,,1,0.3,"[1,3,2]",0.95666832,stimuli/card_0_transparent.png,0,0,0,0,0,1,,,,,,,,,,
,,,,64d5078f2a137d6c7b563d12,A,2024-07-03_16h27.57.331,Slot Machine Game,2023.1.3,MacIntel,59.88023952,,,,,,,,,,,,,,,,,,,,,,,,,,,100,,,,,,,,,,,,,,,,,,,,,3,7,,,366.8773,1,left,2.6069,,0.5,0.3,"[1,3,2]",0.9832851,stimuli/card_100_transparent.png,100,1,0,1,0,1,,,,,,,,,,
,,,,64d5078f2a137d6c7b563d12,A,2024-07-03_16h27.57.331,Slot Machine Game,2023.1.3,MacIntel,59.88023952,,,,,,,,,,,,,,,,,,,,,,,,,,,200,,,,,,,,,,,,,,,,,,,,,3,7,,,370.7946,2,left,3.1494,,0.5,0.3,"[1,3,2]",0.659024992,stimuli/card_100_transparent.png,100,2,0,2,0,1,,,,,,,,,,
,,,,64d5078f2a137d6c7b563d12,A,2024-07-03_16h27.57.331,Slot Machine Game,2023.1.3,MacIntel,59.88023952,,,,,,,,,,,,,,,,,,,,,,,,,,,210,,,,,,,,,,,,,,,,,,,,,3,7,,,375.2607,3,left,0.155,,1,0.3,"[1,3,2]",0.138447807,stimuli/card_10_transparent.png,10,3,0,3,0,1,,,,,,,,,,
,,,,64d5078f2a137d6c7b563d12,A,2024-07-03_16h27.57.331,Slot Machine Game,2023.1.3,MacIntel,59.88023952,,,,,,,,,,,,,,,,,,,,,,,,,,,220,,,,,,,,,,,,,,,,,,,,,3,7,,,377.2275,4,right,2.2549,,1,0.3,"[1,3,2]",0.298800104,stimuli/card_10_transparent.png,10,4,0,4,0,1,,,,,,,,,,
,,,,64d5078f2a137d6c7b563d12,A,2024-07-03_16h27.57.331,Slot Machine Game,2023.1.3,MacIntel,59.88023952,,,,,,,,,,,,,,,,,,,,,,,,,,,230,,,,,,,,,,,,,,,,,,,,,3,7,,,381.3109,5,right,0.1218,,1,0.3,"[1,3,2]",0.959204662,stimuli/card_10_transparent.png,10,5,0,5,0,1,,,,,,,,,,
,,,,64d5078f2a137d6c7b563d12,A,2024-07-03_16h27.57.331,Slot Machine Game,2023.1.3,MacIntel,59.88023952,,,,,,,,,,,,,,,,,,,,,,,,,,,230,,,,,,,,,,,,,,,,,,,,,3,7,,,383.2609,6,up,0.0619,,1,0.3,"[1,3,2]",0.865511697,stimuli/card_0_transparent.png,0,6,0,6,0,1,,,,,,,,,,
,,,,64d5078f2a137d6c7b563d12,A,2024-07-03_16h27.57.331,Slot Machine Game,2023.1.3,MacIntel,59.88023952,,,,,,,,,,,,,,,,,,,,,,,,,,,230,,,,,,,,,,,,,,,,,,,,,3,7,,,385.1287,7,up,2.3905,,1,0.3,"[1,3,2]",0.998846381,stimuli/card_0_transparent.png,0,7,0,7,0,1,,,,,,,,,,
,,,,64d5078f2a137d6c7b563d12,A,2024-07-03_16h27.57.331,Slot Machine Game,2023.1.3,MacIntel,59.88023952,,,,,,,,,,,,,,,,,,,,,,,,,,,330,,,,,,,,,,,,,,,,,,,,,3,7,,,389.3454,8,left,2.0174,,1,0.3,"[1,3,2]",0.243624965,stimuli/card_100_transparent.png,100,8,0,8,0,1,,,,,,,,,,
,,,,64d5078f2a137d6c7b563d12,A,2024-07-03_16h27.57.331,Slot Machine Game,2023.1.3,MacIntel,59.88023952,,,,,,,,,,,,,,,,,,,,,,,,,,,340,,,,,,,,,,,,,,,,,,,,,3,7,,,393.1955,9,left,0.6177,,0.5,0.3,"[2,3,1]",0.983138296,stimuli/card_10_transparent.png,10,9,0,9,0,1,,,,,,,,,,
,,,,64d5078f2a137d6c7b563d12,A,2024-07-03_16h27.57.331,Slot Machine Game,2023.1.3,MacIntel,59.88023952,,,,,,,,,,,,,,,,,,,,,,,,,,,440,,,,,,,,,,,,,,,,,,,,,3,7,,,395.1454,10,right,1.3671,,1,0.3,"[2,3,1]",0.260736236,stimuli/card_100_transparent.png,100,10,0,10,0,1,,,,,,,,,,
,,,,64d5078f2a137d6c7b563d12,A,2024-07-03_16h27.57.331,Slot Machine Game,2023.1.3,MacIntel,59.88023952,,,,,,,,,,,,,,,,,,,,,,,,,,,440,,,,,,,,,,,,,,,,,,,,,3,7,,,398.3456,11,up,1.3663,,0.5,0.3,"[2,3,1]",0.665353019,stimuli/card_0_transparent.png,0,11,0,11,0,1,,,,,,,,,,
,,,,64d5078f2a137d6c7b563d12,A,2024-07-03_16h27.57.331,Slot Machine Game,2023.1.3,MacIntel,59.88023952,,,,,,,,,,,,,,,,,,,,,,,,,,,540,,,,,,,,,,,,,,,,,,,,,3,7,,,401.0447,12,left,2.5712,,1,0.3,"[2,3,1]",0.189550041,stimuli/card_100_transparent.png,100,12,0,12,0,1,,,,,,,,,,
,,,,64d5078f2a137d6c7b563d12,A,2024-07-03_16h27.57.331,Slot Machine Game,2023.1.3,MacIntel,59.88023952,,,,,,,,,,,,,,,,,,,,,,,,,,,640,,,,,,,,,,,,,,,,,,,,,3,7,,,405.4292,13,left,0.8476,,0.5,0.3,"[2,3,1]",0.133811023,stimuli/card_100_transparent.png,100,13,0,13,0,1,,,,,,,,,,
,,,,64d5078f2a137d6c7b563d12,A,2024-07-03_16h27.57.331,Slot Machine Game,2023.1.3,MacIntel,59.88023952,,,,,,,,,,,,,,,,,,,,,,,,,,,650,,,,,,,,,,,,,,,,,,,,,3,7,,,407.6125,14,left,2.1994,,1.5,0.3,"[2,3,1]",0.807768505,stimuli/card_10_transparent.png,10,14,0,14,0,1,,,,,,,,,,
,,,,64d5078f2a137d6c7b563d12,A,2024-07-03_16h27.57.331,Slot Machine Game,2023.1.3,MacIntel,59.88023952,,,,,,,,,,,,,,,,,,,,,,,,,,,,,,,,,,,412.1449,,,,,,,,,,,,,,,,,,,,,,,,,,,,,,,,,"[550,850,650]",2,0,2,0,1,,,,
,,,,64d5078f2a137d6c7b563d12,A,2024-07-03_16h27.57.331,Slot Machine Game,2023.1.3,MacIntel,59.88023952,,,,,,,,,,,,,,,,,,,,,,,,,,,100,,,,,,,,,,,,,,,,,,,,,4,4,"[7,15]","[[2,3,1],[1,2,3]]",417.1568,0,right,0.2467,,1,0.3,"[2,3,1]",0.956154381,stimuli/card_100_transparent.png,100,0,0,0,0,1,,,,,,,,,,
,,,,64d5078f2a137d6c7b563d12,A,2024-07-03_16h27.57.331,Slot Machine Game,2023.1.3,MacIntel,59.88023952,,,,,,,,,,,,,,,,,,,,,,,,,,,200,,,,,,,,,,,,,,,,,,,,,4,4,,,419.2127,1,right,0.0003,,0.5,0.3,"[2,3,1]",0.620603358,stimuli/card_100_transparent.png,100,1,0,1,0,1,,,,,,,,,,
,,,,64d5078f2a137d6c7b563d12,A,2024-07-03_16h27.57.331,Slot Machine Game,2023.1.3,MacIntel,59.88023952,,,,,,,,,,,,,,,,,,,,,,,,,,,300,,,,,,,,,,,,,,,,,,,,,4,4,,,420.5457,2,right,1.9262,,1,0.3,"[2,3,1]",0.260477747,stimuli/card_100_transparent.png,100,2,0,2,0,1,,,,,,,,,,
,,,,64d5078f2a137d6c7b563d12,A,2024-07-03_16h27.57.331,Slot Machine Game,2023.1.3,MacIntel,59.88023952,,,,,,,,,,,,,,,,,,,,,,,,,,,400,,,,,,,,,,,,,,,,,,,,,4,4,,,424.2965,3,right,0.1501,,1.5,0.3,"[2,3,1]",0.568182639,stimuli/card_100_transparent.png,100,3,0,3,0,1,,,,,,,,,,
,,,,64d5078f2a137d6c7b563d12,A,2024-07-03_16h27.57.331,Slot Machine Game,2023.1.3,MacIntel,59.88023952,,,,,,,,,,,,,,,,,,,,,,,,,,,410,,,,,,,,,,,,,,,,,,,,,4,4,,,426.7794,4,left,0.1503,,1.5,0.3,"[2,3,1]",0.264863042,stimuli/card_10_transparent.png,10,4,0,4,0,1,,,,,,,,,,
,,,,64d5078f2a137d6c7b563d12,A,2024-07-03_16h27.57.331,Slot Machine Game,2023.1.3,MacIntel,59.88023952,,,,,,,,,,,,,,,,,,,,,,,,,,,410,,,,,,,,,,,,,,,,,,,,,4,4,,,429.2458,5,up,0.0033,,1.5,0.3,"[2,3,1]",0.239520647,stimuli/card_0_transparent.png,0,5,0,5,0,1,,,,,,,,,,
,,,,64d5078f2a137d6c7b563d12,A,2024-07-03_16h27.57.331,Slot Machine Game,2023.1.3,MacIntel,59.88023952,,,,,,,,,,,,,,,,,,,,,,,,,,,420,,,,,,,,,,,,,,,,,,,,,4,4,,,431.5798,6,left,0.0599,,0.5,0.3,"[2,3,1]",0.944158431,stimuli/card_10_transparent.png,10,6,0,6,0,1,,,,,,,,,,
,,,,64d5078f2a137d6c7b563d12,A,2024-07-03_16h27.57.331,Slot Machine Game,2023.1.3,MacIntel,59.88023952,,,,,,,,,,,,,,,,,,,,,,,,,,,420,,,,,,,,,,,,,,,,,,,,,4,4,,,432.9631,7,left,2.2833,,1.5,0.3,"[1,2,3]",0.006920699,stimuli/card_0_transparent.png,0,7,0,7,0,1,,,,,,,,,,
,,,,64d5078f2a137d6c7b563d12,A,2024-07-03_16h27.57.331,Slot Machine Game,2023.1.3,MacIntel,59.88023952,,,,,,,,,,,,,,,,,,,,,,,,,,,430,,,,,,,,,,,,,,,,,,,,,4,4,,,437.5799,8,up,3.4023,,1.5,0.3,"[1,2,3]",0.241174089,stimuli/card_10_transparent.png,10,8,0,8,0,1,,,,,,,,,,
,,,,64d5078f2a137d6c7b563d12,A,2024-07-03_16h27.57.331,Slot Machine Game,2023.1.3,MacIntel,59.88023952,,,,,,,,,,,,,,,,,,,,,,,,,,,440,,,,,,,,,,,,,,,,,,,,,4,4,,,443.3133,9,up,2.3206,,0.5,0.3,"[1,2,3]",0.913879632,stimuli/card_10_transparent.png,10,9,0,9,0,1,,,,,,,,,,
,,,,64d5078f2a137d6c7b563d12,A,2024-07-03_16h27.57.331,Slot Machine Game,2023.1.3,MacIntel,59.88023952,,,,,,,,,,,,,,,,,,,,,,,,,,,450,,,,,,,,,,,,,,,,,,,,,4,4,,,446.9629,10,up,0.0391,,1.5,0.3,"[1,2,3]",0.460422295,stimuli/card_10_transparent.png,10,10,0,10,0,1,,,,,,,,,,
,,,,64d5078f2a137d6c7b563d12,A,2024-07-03_16h27.57.331,Slot Machine Game,2023.1.3,MacIntel,59.88023952,,,,,,,,,,,,,,,,,,,,,,,,,,,460,,,,,,,,,,,,,,,,,,,,,4,4,,,449.3133,11,up,2.521,,1,0.3,"[1,2,3]",0.423971209,stimuli/card_10_transparent.png,10,11,0,11,0,1,,,,,,,,,,
,,,,64d5078f2a137d6c7b563d12,A,2024-07-03_16h27.57.331,Slot Machine Game,2023.1.3,MacIntel,59.88023952,,,,,,,,,,,,,,,,,,,,,,,,,,,460,,,,,,,,,,,,,,,,,,,,,4,4,,,453.6637,12,right,3.5124,,0.5,0.3,"[1,2,3]",0.657243248,stimuli/card_0_transparent.png,0,12,0,12,0,1,,,,,,,,,,
,,,,64d5078f2a137d6c7b563d12,A,2024-07-03_16h27.57.331,Slot Machine Game,2023.1.3,MacIntel,59.88023952,,,,,,,,,,,,,,,,,,,,,,,,,,,560,,,,,,,,,,,,,,,,,,,,,4,4,,,458.4961,13,left,0.0466,,1.5,0.3,"[1,2,3]",0.846948232,stimuli/card_100_transparent.png,100,13,0,13,0,1,,,,,,,,,,
,,,,64d5078f2a137d6c7b563d12,A,2024-07-03_16h27.57.331,Slot Machine Game,2023.1.3,MacIntel,59.88023952,,,,,,,,,,,,,,,,,,,,,,,,,,,660,,,,,,,,,,,,,,,,,,,,,4,4,,,460.847,14,left,2.1848,,0.5,0.3,"[1,2,3]",0.725382488,stimuli/card_100_transparent.png,100,14,0,14,0,1,,,,,,,,,,
,,,,64d5078f2a137d6c7b563d12,A,2024-07-03_16h27.57.331,Slot Machine Game,2023.1.3,MacIntel,59.88023952,,,,,,,,,,,,,,,,,,,,,,,,,,,,,,,,,,,464.3639,,,,,,,,,,,,,,,,,,,,,,,,,,,,,,,,,"[550,850,650,660]",3,0,3,0,1,,,,
,,,,64d5078f2a137d6c7b563d12,A,2024-07-03_16h27.57.331,Slot Machine Game,2023.1.3,MacIntel,59.88023952,,,,,,,,,,,,,,,,,,,,,,,,,,,10,,,,,,,,,,,,,,,,,,,,,5,6,"[4,10,15]","[[2,3,1],[1,3,2],[3,2,1]]",469.3783,0,left,0.2983,,1,0.3,"[2,3,1]",0.956413023,stimuli/card_10_transparent.png,10,0,0,0,0,1,,,,,,,,,,
,,,,64d5078f2a137d6c7b563d12,A,2024-07-03_16h27.57.331,Slot Machine Game,2023.1.3,MacIntel,59.88023952,,,,,,,,,,,,,,,,,,,,,,,,,,,110,,,,,,,,,,,,,,,,,,,,,5,6,,,471.4973,1,left,0.1462,,1,0.3,"[2,3,1]",0.118611393,stimuli/card_100_transparent.png,100,1,0,1,0,1,,,,,,,,,,
,,,,64d5078f2a137d6c7b563d12,A,2024-07-03_16h27.57.331,Slot Machine Game,2023.1.3,MacIntel,59.88023952,,,,,,,,,,,,,,,,,,,,,,,,,,,210,,,,,,,,,,,,,,,,,,,,,5,6,,,473.464,2,left,0.0213,,1.5,0.3,"[2,3,1]",0.161978668,stimuli/card_100_transparent.png,100,2,0,2,0,1,,,,,,,,,,
,,,,64d5078f2a137d6c7b563d12,A,2024-07-03_16h27.57.331,Slot Machine Game,2023.1.3,MacIntel,59.88023952,,,,,,,,,,,,,,,,,,,,,,,,,,,220,,,,,,,,,,,,,,,,,,,,,5,6,,,475.814,3,left,0.084,,1,0.3,"[2,3,1]",0.264349462,stimuli/card_10_transparent.png,10,3,0,3,0,1,,,,,,,,,,
,,,,64d5078f2a137d6c7b563d12,A,2024-07-03_16h27.57.331,Slot Machine Game,2023.1.3,MacIntel,59.88023952,,,,,,,,,,,,,,,,,,,,,,,,,,,220,,,,,,,,,,,,,,,,,,,,,5,6,,,477.7293,4,left,0.3893,,0.5,0.3,"[1,3,2]",0.093591124,stimuli/card_0_transparent.png,0,4,0,4,0,1,,,,,,,,,,
,,,,64d5078f2a137d6c7b563d12,A,2024-07-03_16h27.57.331,Slot Machine Game,2023.1.3,MacIntel,59.88023952,,,,,,,,,,,,,,,,,,,,,,,,,,,230,,,,,,,,,,,,,,,,,,,,,5,6,,,479.4299,5,right,0.0541,,1.5,0.3,"[1,3,2]",0.329682591,stimuli/card_10_transparent.png,10,5,0,5,0,1,,,,,,,,,,
,,,,64d5078f2a137d6c7b563d12,A,2024-07-03_16h27.57.331,Slot Machine Game,2023.1.3,MacIntel,59.88023952,,,,,,,,,,,,,,,,,,,,,,,,,,,230,,,,,,,,,,,,,,,,,,,,,5,6,,,481.7966,6,up,1.7159,,1,0.3,"[1,3,2]",0.590245651,stimuli/card_0_transparent.png,0,6,0,6,0,1,,,,,,,,,,
,,,,64d5078f2a137d6c7b563d12,A,2024-07-03_16h27.57.331,Slot Machine Game,2023.1.3,MacIntel,59.88023952,,,,,,,,,,,,,,,,,,,,,,,,,,,230,,,,,,,,,,,,,,,,,,,,,5,6,,,485.3299,7,up,2.0941,,1,0.3,"[1,3,2]",0.405444902,stimuli/card_0_transparent.png,0,7,0,7,0,1,,,,,,,,,,
,,,,64d5078f2a137d6c7b563d12,A,2024-07-03_16h27.57.331,Slot Machine Game,2023.1.3,MacIntel,59.88023952,,,,,,,,,,,,,,,,,,,,,,,,,,,240,,,,,,,,,,,,,,,,,,,,,5,6,,,489.2309,8,right,2.1415,,0.5,0.3,"[1,3,2]",0.88823098,stimuli/card_10_transparent.png,10,8,0,8,0,1,,,,,,,,,,
,,,,64d5078f2a137d6c7b563d12,A,2024-07-03_16h27.57.331,Slot Machine Game,2023.1.3,MacIntel,59.88023952,,,,,,,,,,,,,,,,,,,,,,,,,,,250,,,,,,,,,,,,,,,,,,,,,5,6,,,492.6978,9,right,2.4712,,1,0.3,"[1,3,2]",0.257704758,stimuli/card_10_transparent.png,10,9,0,9,0,1,,,,,,,,,,
,,,,64d5078f2a137d6c7b563d12,A,2024-07-03_16h27.57.331,Slot Machine Game,2023.1.3,MacIntel,59.88023952,,,,,,,,,,,,,,,,,,,,,,,,,,,260,,,,,,,,,,,,,,,,,,,,,5,6,,,496.9969,10,up,1.467,,0.5,0.3,"[3,2,1]",0.553791748,stimuli/card_10_transparent.png,10,10,0,10,0,1,,,,,,,,,,
,,,,64d5078f2a137d6c7b563d12,A,2024-07-03_16h27.57.331,Slot Machine Game,2023.1.3,MacIntel,59.88023952,,,,,,,,,,,,,,,,,,,,,,,,,,,260,,,,,,,,,,,,,,,,,,,,,5,6,,,499.7802,11,left,0.2002,,1.5,0.3,"[3,2,1]",0.742631171,stimuli/card_0_transparent.png,0,11,0,11,0,1,,,,,,,,,,
,,,,64d5078f2a137d6c7b563d12,A,2024-07-03_16h27.57.331,Slot Machine Game,2023.1.3,MacIntel,59.88023952,,,,,,,,,,,,,,,,,,,,,,,,,,,260,,,,,,,,,,,,,,,,,,,,,5,6,,,502.298,12,left,0.1703,,1.5,0.3,"[3,2,1]",0.467208919,stimuli/card_0_transparent.png,0,12,0,12,0,1,,,,,,,,,,
,,,,64d5078f2a137d6c7b563d12,A,2024-07-03_16h27.57.331,Slot Machine Game,2023.1.3,MacIntel,59.88023952,,,,,,,,,,,,,,,,,,,,,,,,,,,270,,,,,,,,,,,,,,,,,,,,,5,6,,,504.7971,13,up,2.42,,0.5,0.3,"[3,2,1]",0.910168392,stimuli/card_10_transparent.png,10,13,0,13,0,1,,,,,,,,,,
,,,,64d5078f2a137d6c7b563d12,A,2024-07-03_16h27.57.331,Slot Machine Game,2023.1.3,MacIntel,59.88023952,,,,,,,,,,,,,,,,,,,,,,,,,,,370,,,,,,,,,,,,,,,,,,,,,5,6,,,508.5315,14,right,0.2387,,1.5,0.3,"[3,2,1]",0.513087816,stimuli/card_100_transparent.png,100,14,0,14,0,1,,,,,,,,,,
,,,,64d5078f2a137d6c7b563d12,A,2024-07-03_16h27.57.331,Slot Machine Game,2023.1.3,MacIntel,59.88023952,,,,,,,,,,,,,,,,,,,,,,,,,,,,,,,,,,,511.0973,,,,,,,,,,,,,,,,,,,,,,,,,,,,,,,,,"[550,850,650,660,370]",4,0,4,0,1,,,,
,,,,64d5078f2a137d6c7b563d12,A,2024-07-03_16h27.57.331,Slot Machine Game,2023.1.3,MacIntel,59.88023952,,,,,,,,,,,,,,,,,,,,,,,,,,,10,,,,,,,,,,,,,,,,,,,,,6,8,"[11,15]","[[2,1,3],[1,2,3]]",516.1159,0,left,0.416,,1.5,0.3,"[2,1,3]",0.871257271,stimuli/card_10_transparent.png,10,0,0,0,0,1,,,,,,,,,,
,,,,64d5078f2a137d6c7b563d12,A,2024-07-03_16h27.57.331,Slot Machine Game,2023.1.3,MacIntel,59.88023952,,,,,,,,,,,,,,,,,,,,,,,,,,,20,,,,,,,,,,,,,,,,,,,,,6,8,,,518.8648,1,left,1.9683,,1,0.3,"[2,1,3]",0.516132814,stimuli/card_10_transparent.png,10,1,0,1,0,1,,,,,,,,,,
,,,,64d5078f2a137d6c7b563d12,A,2024-07-03_16h27.57.331,Slot Machine Game,2023.1.3,MacIntel,59.88023952,,,,,,,,,,,,,,,,,,,,,,,,,,,120,,,,,,,,,,,,,,,,,,,,,6,8,,,522.6651,2,up,2.8848,,1.5,0.3,"[2,1,3]",0.497463354,stimuli/card_100_transparent.png,100,2,0,2,0,1,,,,,,,,,,
,,,,64d5078f2a137d6c7b563d12,A,2024-07-03_16h27.57.331,Slot Machine Game,2023.1.3,MacIntel,59.88023952,,,,,,,,,,,,,,,,,,,,,,,,,,,220,,,,,,,,,,,,,,,,,,,,,6,8,,,527.8819,3,up,0.1167,,0.5,0.3,"[2,1,3]",0.835260465,stimuli/card_100_transparent.png,100,3,0,3,0,1,,,,,,,,,,
,,,,64d5078f2a137d6c7b563d12,A,2024-07-03_16h27.57.331,Slot Machine Game,2023.1.3,MacIntel,59.88023952,,,,,,,,,,,,,,,,,,,,,,,,,,,320,,,,,,,,,,,,,,,,,,,,,6,8,,,529.332,4,up,2.8181,,1.5,0.3,"[2,1,3]",0.877819035,stimuli/card_100_transparent.png,100,4,0,4,0,1,,,,,,,,,,
,,,,64d5078f2a137d6c7b563d12,A,2024-07-03_16h27.57.331,Slot Machine Game,2023.1.3,MacIntel,59.88023952,,,,,,,,,,,,,,,,,,,,,,,,,,,420,,,,,,,,,,,,,,,,,,,,,6,8,,,534.4821,5,up,0.0511,,0.5,0.3,"[2,1,3]",0.769619601,stimuli/card_100_transparent.png,100,5,0,5,0,1,,,,,,,,,,
,,,,64d5078f2a137d6c7b563d12,A,2024-07-03_16h27.57.331,Slot Machine Game,2023.1.3,MacIntel,59.88023952,,,,,,,,,,,,,,,,,,,,,,,,,,,430,,,,,,,,,,,,,,,,,,,,,6,8,,,535.8654,6,up,2.1847,,1.5,0.3,"[2,1,3]",0.123306179,stimuli/card_10_transparent.png,10,6,0,6,0,1,,,,,,,,,,
,,,,64d5078f2a137d6c7b563d12,A,2024-07-03_16h27.57.331,Slot Machine Game,2023.1.3,MacIntel,59.88023952,,,,,,,,,,,,,,,,,,,,,,,,,,,430,,,,,,,,,,,,,,,,,,,,,6,8,,,540.3822,7,right,0.2868,,1.5,0.3,"[2,1,3]",0.325139638,stimuli/card_0_transparent.png,0,7,0,7,0,1,,,,,,,,,,
,,,,64d5078f2a137d6c7b563d12,A,2024-07-03_16h27.57.331,Slot Machine Game,2023.1.3,MacIntel,59.88023952,,,,,,,,,,,,,,,,,,,,,,,,,,,530,,,,,,,,,,,,,,,,,,,,,6,8,,,542.9987,8,up,0.3461,,1,0.3,"[2,1,3]",0.329971136,stimuli/card_100_transparent.png,100,8,0,8,0,1,,,,,,,,,,
,,,,64d5078f2a137d6c7b563d12,A,2024-07-03_16h27.57.331,Slot Machine Game,2023.1.3,MacIntel,59.88023952,,,,,,,,,,,,,,,,,,,,,,,,,,,630,,,,,,,,,,,,,,,,,,,,,6,8,,,545.1656,9,up,1.9864,,1,0.3,"[2,1,3]",0.641843375,stimuli/card_100_transparent.png,100,9,0,9,0,1,,,,,,,,,,
,,,,64d5078f2a137d6c7b563d12,A,2024-07-03_16h27.57.331,Slot Machine Game,2023.1.3,MacIntel,59.88023952,,,,,,,,,,,,,,,,,,,,,,,,,,,730,,,,,,,,,,,,,,,,,,,,,6,8,,,548.9817,10,up,2.0838,,0.5,0.3,"[2,1,3]",0.558170812,stimuli/card_100_transparent.png,100,10,0,10,0,1,,,,,,,,,,
,,,,64d5078f2a137d6c7b563d12,A,2024-07-03_16h27.57.331,Slot Machine Game,2023.1.3,MacIntel,59.88023952,,,,,,,,,,,,,,,,,,,,,,,,,,,730,,,,,,,,,,,,,,,,,,,,,6,8,,,552.3991,11,up,0.1168,,0.5,0.3,"[1,2,3]",0.037364813,stimuli/card_0_transparent.png,0,11,0,11,0,1,,,,,,,,,,
,,,,64d5078f2a137d6c7b563d12,A,2024-07-03_16h27.57.331,Slot Machine Game,2023.1.3,MacIntel,59.88023952,,,,,,,,,,,,,,,,,,,,,,,,,,,740,,,,,,,,,,,,,,,,,,,,,6,8,,,553.849,12,left,2.3353,,0.5,0.3,"[1,2,3]",0.111879004,stimuli/card_10_transparent.png,10,12,0,12,0,1,,,,,,,,,,
,,,,64d5078f2a137d6c7b563d12,A,2024-07-03_16h27.57.331,Slot Machine Game,2023.1.3,MacIntel,59.88023952,,,,,,,,,,,,,,,,,,,,,,,,,,,840,,,,,,,,,,,,,,,,,,,,,6,8,,,557.515,13,left,0.3185,,1.5,0.3,"[1,2,3]",0.81428164,stimuli/card_100_transparent.png,100,13,0,13,0,1,,,,,,,,,,
,,,,64d5078f2a137d6c7b563d12,A,2024-07-03_16h27.57.331,Slot Machine Game,2023.1.3,MacIntel,59.88023952,,,,,,,,,,,,,,,,,,,,,,,,,,,940,,,,,,,,,,,,,,,,,,,,,6,8,,,560.165,14,left,0.2812,,1.5,0.3,"[1,2,3]",0.2590994,stimuli/card_100_transparent.png,100,14,0,14,0,1,,,,,,,,,,
,,,,64d5078f2a137d6c7b563d12,A,2024-07-03_16h27.57.331,Slot Machine Game,2023.1.3,MacIntel,59.88023952,,,,,,,,,,,,,,,,,,,,,,,,,,,,,,,,,,,562.7652,,,,,,,,,,,,,,,,,,,,,,,,,,,,,,,,,"[550,850,650,660,370,940]",5,0,5,0,1,,,,
,,,,64d5078f2a137d6c7b563d12,A,2024-07-03_16h27.57.331,Slot Machine Game,2023.1.3,MacIntel,59.88023952,,,,,,,,,,,,,,,,,,,,,,,,,,,0,,,,,,,,,,,,,,,,,,,,,7,9,"[8,15]","[[3,2,1],[3,1,2]]",567.7843,0,left,0.0828,,1.5,0.3,"[3,2,1]",0.844522993,stimuli/card_0_transparent.png,0,0,0,0,0,1,,,,,,,,,,
,,,,64d5078f2a137d6c7b563d12,A,2024-07-03_16h27.57.331,Slot Machine Game,2023.1.3,MacIntel,59.88023952,,,,,,,,,,,,,,,,,,,,,,,,,,,10,,,,,,,,,,,,,,,,,,,,,7,9,,,570.1985,1,up,0.2634,,1.5,0.3,"[3,2,1]",0.939468477,stimuli/card_10_transparent.png,10,1,0,1,0,1,,,,,,,,,,
,,,,64d5078f2a137d6c7b563d12,A,2024-07-03_16h27.57.331,Slot Machine Game,2023.1.3,MacIntel,59.88023952,,,,,,,,,,,,,,,,,,,,,,,,,,,110,,,,,,,,,,,,,,,,,,,,,7,9,,,572.7831,2,up,2.9337,,1.5,0.3,"[3,2,1]",0.19670206,stimuli/card_100_transparent.png,100,2,0,2,0,1,,,,,,,,,,
,,,,64d5078f2a137d6c7b563d12,A,2024-07-03_16h27.57.331,Slot Machine Game,2023.1.3,MacIntel,59.88023952,,,,,,,,,,,,,,,,,,,,,,,,,,,120,,,,,,,,,,,,,,,,,,,,,7,9,,,578.0484,3,up,1.2227,,1,0.3,"[3,2,1]",0.731441952,stimuli/card_10_transparent.png,10,3,0,3,0,1,,,,,,,,,,
,,,,64d5078f2a137d6c7b563d12,A,2024-07-03_16h27.57.331,Slot Machine Game,2023.1.3,MacIntel,59.88023952,,,,,,,,,,,,,,,,,,,,,,,,,,,130,,,,,,,,,,,,,,,,,,,,,7,9,,,581.0821,4,up,3.2964,,1.5,0.3,"[3,2,1]",0.643105029,stimuli/card_10_transparent.png,10,4,0,4,0,1,,,,,,,,,,
,,,,64d5078f2a137d6c7b563d12,A,2024-07-03_16h27.57.331,Slot Machine Game,2023.1.3,MacIntel,59.88023952,,,,,,,,,,,,,,,,,,,,,,,,,,,230,,,,,,,,,,,,,,,,,,,,,7,9,,,586.6833,5,left,3.4865,,0.5,0.3,"[3,2,1]",0.043734751,stimuli/card_100_transparent.png,100,5,0,5,0,1,,,,,,,,,,
,,,,64d5078f2a137d6c7b563d12,A,2024-07-03_16h27.57.331,Slot Machine Game,2023.1.3,MacIntel,59.88023952,,,,,,,,,,,,,,,,,,,,,,,,,,,230,,,,,,,,,,,,,,,,,,,,,7,9,,,591.499,6,left,0.005,,1.5,0.3,"[3,2,1]",0.896422072,stimuli/card_0_transparent.png,0,6,0,6,0,1,,,,,,,,,,
,,,,64d5078f2a137d6c7b563d12,A,2024-07-03_16h27.57.331,Slot Machine Game,2023.1.3,MacIntel,59.88023952,,,,,,,,,,,,,,,,,,,,,,,,,,,330,,,,,,,,,,,,,,,,,,,,,7,9,,,593.8167,7,right,3.1858,,1,0.3,"[3,2,1]",0.564749877,stimuli/card_100_transparent.png,100,7,0,7,0,1,,,,,,,,,,
,,,,64d5078f2a137d6c7b563d12,A,2024-07-03_16h27.57.331,Slot Machine Game,2023.1.3,MacIntel,59.88023952,,,,,,,,,,,,,,,,,,,,,,,,,,,340,,,,,,,,,,,,,,,,,,,,,7,9,,,598.8331,8,right,3.3545,,1,0.3,"[3,1,2]",0.758450057,stimuli/card_10_transparent.png,10,8,0,8,0,1,,,,,,,,,,
,,,,64d5078f2a137d6c7b563d12,A,2024-07-03_16h27.57.331,Slot Machine Game,2023.1.3,MacIntel,59.88023952,,,,,,,,,,,,,,,,,,,,,,,,,,,340,,,,,,,,,,,,,,,,,,,,,7,9,,,604.0164,9,right,3.9854,,1,0.3,"[3,1,2]",0.06052513,stimuli/card_0_transparent.png,0,9,0,9,0,1,,,,,,,,,,
,,,,64d5078f2a137d6c7b563d12,A,2024-07-03_16h27.57.331,Slot Machine Game,2023.1.3,MacIntel,59.88023952,,,,,,,,,,,,,,,,,,,,,,,,,,,350,,,,,,,,,,,,,,,,,,,,,7,9,,,609.8162,10,right,1.0822,,0.5,0.3,"[3,1,2]",0.223797585,stimuli/card_10_transparent.png,10,10,0,10,0,1,,,,,,,,,,
,,,,64d5078f2a137d6c7b563d12,A,2024-07-03_16h27.57.331,Slot Machine Game,2023.1.3,MacIntel,59.88023952,,,,,,,,,,,,,,,,,,,,,,,,,,,450,,,,,,,,,,,,,,,,,,,,,7,9,,,612.2171,11,up,2.1392,,1.5,0.3,"[3,1,2]",0.864969274,stimuli/card_100_transparent.png,100,11,0,11,0,1,,,,,,,,,,
,,,,64d5078f2a137d6c7b563d12,A,2024-07-03_16h27.57.331,Slot Machine Game,2023.1.3,MacIntel,59.88023952,,,,,,,,,,,,,,,,,,,,,,,,,,,450,,,,,,,,,,,,,,,,,,,,,7,9,,,616.6836,12,up,0.0999,,0.5,0.3,"[3,1,2]",0.02475976,stimuli/card_0_transparent.png,0,12,0,12,0,1,,,,,,,,,,
,,,,64d5078f2a137d6c7b563d12,A,2024-07-03_16h27.57.331,Slot Machine Game,2023.1.3,MacIntel,59.88023952,,,,,,,,,,,,,,,,,,,,,,,,,,,450,,,,,,,,,,,,,,,,,,,,,7,9,,,618.1006,13,left,0.4345,,1.5,0.3,"[3,1,2]",0.608102128,stimuli/card_0_transparent.png,0,13,0,13,0,1,,,,,,,,,,
,,,,64d5078f2a137d6c7b563d12,A,2024-07-03_16h27.57.331,Slot Machine Game,2023.1.3,MacIntel,59.88023952,,,,,,,,,,,,,,,,,,,,,,,,,,,450,,,,,,,,,,,,,,,,,,,,,7,9,,,620.8671,14,left,2.0178,,1.5,0.3,"[3,1,2]",0.930717429,stimuli/card_0_transparent.png,0,14,0,14,0,1,,,,,,,,,,
,,,,64d5078f2a137d6c7b563d12,A,2024-07-03_16h27.57.331,Slot Machine Game,2023.1.3,MacIntel,59.88023952,,,,,,,,,,,,,,,,,,,,,,,,,,,,,,,,,,,625.2002,,,,,,,,,,,,,,,,,,,,,,,,,,,,,,,,,"[550,850,650,660,370,940,450]",6,0,6,0,1,,,,
,,,,64d5078f2a137d6c7b563d12,A,2024-07-03_16h27.57.331,Slot Machine Game,2023.1.3,MacIntel,59.88023952,,,,,,,,,,,,,,,,,,,,,,,,,,,100,,,,,,,,,,,,,,,,,,,,,8,2,"[6,15]","[[1,3,2],[3,2,1]]",630.2189,0,left,0.4015,,0.5,0.3,"[1,3,2]",0.843846216,stimuli/card_100_transparent.png,100,0,0,0,0,1,,,,,,,,,,
,,,,64d5078f2a137d6c7b563d12,A,2024-07-03_16h27.57.331,Slot Machine Game,2023.1.3,MacIntel,59.88023952,,,,,,,,,,,,,,,,,,,,,,,,,,,200,,,,,,,,,,,,,,,,,,,,,8,2,,,631.9511,1,left,1.7121,,1,0.3,"[1,3,2]",0.522863843,stimuli/card_100_transparent.png,100,1,0,1,0,1,,,,,,,,,,
,,,,64d5078f2a137d6c7b563d12,A,2024-07-03_16h27.57.331,Slot Machine Game,2023.1.3,MacIntel,59.88023952,,,,,,,,,,,,,,,,,,,,,,,,,,,300,,,,,,,,,,,,,,,,,,,,,8,2,,,635.4845,2,left,0.0071,,1,0.3,"[1,3,2]",0.708042931,stimuli/card_100_transparent.png,100,2,0,2,0,1,,,,,,,,,,
,,,,64d5078f2a137d6c7b563d12,A,2024-07-03_16h27.57.331,Slot Machine Game,2023.1.3,MacIntel,59.88023952,,,,,,,,,,,,,,,,,,,,,,,,,,,400,,,,,,,,,,,,,,,,,,,,,8,2,,,637.3178,3,left,0.1672,,0.5,0.3,"[1,3,2]",0.653310322,stimuli/card_100_transparent.png,100,3,0,3,0,1,,,,,,,,,,
,,,,64d5078f2a137d6c7b563d12,A,2024-07-03_16h27.57.331,Slot Machine Game,2023.1.3,MacIntel,59.88023952,,,,,,,,,,,,,,,,,,,,,,,,,,,500,,,,,,,,,,,,,,,,,,,,,8,2,,,638.8178,4,left,0.0835,,1.5,0.3,"[1,3,2]",0.713014828,stimuli/card_100_transparent.png,100,4,0,4,0,1,,,,,,,,,,
,,,,64d5078f2a137d6c7b563d12,A,2024-07-03_16h27.57.331,Slot Machine Game,2023.1.3,MacIntel,59.88023952,,,,,,,,,,,,,,,,,,,,,,,,,,,510,,,,,,,,,,,,,,,,,,,,,8,2,,,641.2345,5,left,0.1519,,1.5,0.3,"[1,3,2]",0.181108272,stimuli/card_10_transparent.png,10,5,0,5,0,1,,,,,,,,,,
,,,,64d5078f2a137d6c7b563d12,A,2024-07-03_16h27.57.331,Slot Machine Game,2023.1.3,MacIntel,59.88023952,,,,,,,,,,,,,,,,,,,,,,,,,,,510,,,,,,,,,,,,,,,,,,,,,8,2,,,643.7174,6,left,2.5338,,0.5,0.3,"[3,2,1]",0.39395023,stimuli/card_0_transparent.png,0,6,0,6,0,1,,,,,,,,,,
,,,,64d5078f2a137d6c7b563d12,A,2024-07-03_16h27.57.331,Slot Machine Game,2023.1.3,MacIntel,59.88023952,,,,,,,,,,,,,,,,,,,,,,,,,,,610,,,,,,,,,,,,,,,,,,,,,8,2,,,647.5679,7,up,1.7008,,1,0.3,"[3,2,1]",0.153827407,stimuli/card_100_transparent.png,100,7,0,7,0,1,,,,,,,,,,
,,,,64d5078f2a137d6c7b563d12,A,2024-07-03_16h27.57.331,Slot Machine Game,2023.1.3,MacIntel,59.88023952,,,,,,,,,,,,,,,,,,,,,,,,,,,620,,,,,,,,,,,,,,,,,,,,,8,2,,,651.1015,8,up,2.7518,,1.5,0.3,"[3,2,1]",0.379429284,stimuli/card_10_transparent.png,10,8,0,8,0,1,,,,,,,,,,
,,,,64d5078f2a137d6c7b563d12,A,2024-07-03_16h27.57.331,Slot Machine Game,2023.1.3,MacIntel,59.88023952,,,,,,,,,,,,,,,,,,,,,,,,,,,630,,,,,,,,,,,,,,,,,,,,,8,2,,,656.185,9,right,0.7346,,0.5,0.3,"[3,2,1]",0.111152226,stimuli/card_10_transparent.png,10,9,0,9,0,1,,,,,,,,,,
,,,,64d5078f2a137d6c7b563d12,A,2024-07-03_16h27.57.331,Slot Machine Game,2023.1.3,MacIntel,59.88023952,,,,,,,,,,,,,,,,,,,,,,,,,,,730,,,,,,,,,,,,,,,,,,,,,8,2,,,658.2516,10,right,2.0943,,1,0.3,"[3,2,1]",0.87643546,stimuli/card_100_transparent.png,100,10,0,10,0,1,,,,,,,,,,
,,,,64d5078f2a137d6c7b563d12,A,2024-07-03_16h27.57.331,Slot Machine Game,2023.1.3,MacIntel,59.88023952,,,,,,,,,,,,,,,,,,,,,,,,,,,830,,,,,,,,,,,,,,,,,,,,,8,2,,,662.1684,11,right,0.1263,,1,0.3,"[3,2,1]",0.949018183,stimuli/card_100_transparent.png,100,11,0,11,0,1,,,,,,,,,,
,,,,64d5078f2a137d6c7b563d12,A,2024-07-03_16h27.57.331,Slot Machine Game,2023.1.3,MacIntel,59.88023952,,,,,,,,,,,,,,,,,,,,,,,,,,,930,,,,,,,,,,,,,,,,,,,,,8,2,,,664.1185,12,right,2.1509,,1.5,0.3,"[3,2,1]",0.937489827,stimuli/card_100_transparent.png,100,12,0,12,0,1,,,,,,,,,,
,,,,64d5078f2a137d6c7b563d12,A,2024-07-03_16h27.57.331,Slot Machine Game,2023.1.3,MacIntel,59.88023952,,,,,,,,,,,,,,,,,,,,,,,,,,,1030,,,,,,,,,,,,,,,,,,,,,8,2,,,668.6015,13,right,0.0228,,0.5,0.3,"[3,2,1]",0.96317292,stimuli/card_100_transparent.png,100,13,0,13,0,1,,,,,,,,,,
,,,,64d5078f2a137d6c7b563d12,A,2024-07-03_16h27.57.331,Slot Machine Game,2023.1.3,MacIntel,59.88023952,,,,,,,,,,,,,,,,,,,,,,,,,,,1040,,,,,,,,,,,,,,,,,,,,,8,2,,,669.9351,14,right,0.2999,,1.5,0.3,"[3,2,1]",0.17839171,stimuli/card_10_transparent.png,10,14,0,14,0,1,,,,,,,,,,
,,,,64d5078f2a137d6c7b563d12,A,2024-07-03_16h27.57.331,Slot Machine Game,2023.1.3,MacIntel,59.88023952,,,,,,,,,,,,,,,,,,,,,,,,,,,,,,,,,,,672.5684,,,,,,,,,,,,,,,,,,,,,,,,,,,,,,,,,"[550,850,650,660,370,940,450,1040]",7,0,7,0,1,,,,
,,,,64d5078f2a137d6c7b563d12,A,2024-07-03_16h27.57.331,Slot Machine Game,2023.1.3,MacIntel,59.88023952,,,,,,,,,,,,,,,,,,,,,,,,,,,10,,,,,,,,,,,,,,,,,,,,,9,10,"[10,15]","[[3,1,2],[1,3,2]]",677.5866,0,right,0.5004,,1.5,0.3,"[3,1,2]",0.504832562,stimuli/card_10_transparent.png,10,0,0,0,0,1,,,,,,,,,,
,,,,64d5078f2a137d6c7b563d12,A,2024-07-03_16h27.57.331,Slot Machine Game,2023.1.3,MacIntel,59.88023952,,,,,,,,,,,,,,,,,,,,,,,,,,,10,,,,,,,,,,,,,,,,,,,,,9,10,,,680.4188,1,up,2.8547,,0.5,0.3,"[3,1,2]",0.091536716,stimuli/card_0_transparent.png,0,1,0,1,0,1,,,,,,,,,,
,,,,64d5078f2a137d6c7b563d12,A,2024-07-03_16h27.57.331,Slot Machine Game,2023.1.3,MacIntel,59.88023952,,,,,,,,,,,,,,,,,,,,,,,,,,,110,,,,,,,,,,,,,,,,,,,,,9,10,,,684.6017,2,up,0.7159,,1.5,0.3,"[3,1,2]",0.549879481,stimuli/card_100_transparent.png,100,2,0,2,0,1,,,,,,,,,,
,,,,64d5078f2a137d6c7b563d12,A,2024-07-03_16h27.57.331,Slot Machine Game,2023.1.3,MacIntel,59.88023952,,,,,,,,,,,,,,,,,,,,,,,,,,,210,,,,,,,,,,,,,,,,,,,,,9,10,,,687.6356,3,up,2.8523,,1.5,0.3,"[3,1,2]",0.20452469,stimuli/card_100_transparent.png,100,3,0,3,0,1,,,,,,,,,,
,,,,64d5078f2a137d6c7b563d12,A,2024-07-03_16h27.57.331,Slot Machine Game,2023.1.3,MacIntel,59.88023952,,,,,,,,,,,,,,,,,,,,,,,,,,,310,,,,,,,,,,,,,,,,,,,,,9,10,,,692.8191,4,up,3.0836,,1,0.3,"[3,1,2]",0.511664732,stimuli/card_100_transparent.png,100,4,0,4,0,1,,,,,,,,,,
,,,,64d5078f2a137d6c7b563d12,A,2024-07-03_16h27.57.331,Slot Machine Game,2023.1.3,MacIntel,59.88023952,,,,,,,,,,,,,,,,,,,,,,,,,,,410,,,,,,,,,,,,,,,,,,,,,9,10,,,697.7358,5,up,0.0168,,1,0.3,"[3,1,2]",0.597243993,stimuli/card_100_transparent.png,100,5,0,5,0,1,,,,,,,,,,
,,,,64d5078f2a137d6c7b563d12,A,2024-07-03_16h27.57.331,Slot Machine Game,2023.1.3,MacIntel,59.88023952,,,,,,,,,,,,,,,,,,,,,,,,,,,410,,,,,,,,,,,,,,,,,,,,,9,10,,,699.5859,6,left,3.445,,1.5,0.3,"[3,1,2]",0.742515788,stimuli/card_0_transparent.png,0,6,0,6,0,1,,,,,,,,,,
,,,,64d5078f2a137d6c7b563d12,A,2024-07-03_16h27.57.331,Slot Machine Game,2023.1.3,MacIntel,59.88023952,,,,,,,,,,,,,,,,,,,,,,,,,,,410,,,,,,,,,,,,,,,,,,,,,9,10,,,705.3526,7,left,2.4332,,1,0.3,"[3,1,2]",0.913862706,stimuli/card_0_transparent.png,0,7,0,7,0,1,,,,,,,,,,
,,,,64d5078f2a137d6c7b563d12,A,2024-07-03_16h27.57.331,Slot Machine Game,2023.1.3,MacIntel,59.88023952,,,,,,,,,,,,,,,,,,,,,,,,,,,510,,,,,,,,,,,,,,,,,,,,,9,10,,,709.6195,8,up,2.0042,,1,0.3,"[3,1,2]",0.664172912,stimuli/card_100_transparent.png,100,8,0,8,0,1,,,,,,,,,,
,,,,64d5078f2a137d6c7b563d12,A,2024-07-03_16h27.57.331,Slot Machine Game,2023.1.3,MacIntel,59.88023952,,,,,,,,,,,,,,,,,,,,,,,,,,,610,,,,,,,,,,,,,,,,,,,,,9,10,,,713.4527,9,up,2.14,,1.5,0.3,"[3,1,2]",0.398862926,stimuli/card_100_transparent.png,100,9,0,9,0,1,,,,,,,,,,
,,,,64d5078f2a137d6c7b563d12,A,2024-07-03_16h27.57.331,Slot Machine Game,2023.1.3,MacIntel,59.88023952,,,,,,,,,,,,,,,,,,,,,,,,,,,710,,,,,,,,,,,,,,,,,,,,,9,10,,,717.9198,10,up,2.633,,1,0.3,"[1,3,2]",0.019101768,stimuli/card_100_transparent.png,100,10,0,10,0,1,,,,,,,,,,
,,,,64d5078f2a137d6c7b563d12,A,2024-07-03_16h27.57.331,Slot Machine Game,2023.1.3,MacIntel,59.88023952,,,,,,,,,,,,,,,,,,,,,,,,,,,710,,,,,,,,,,,,,,,,,,,,,9,10,,,722.3861,11,up,1.0622,,1.5,0.3,"[1,3,2]",0.224973782,stimuli/card_0_transparent.png,0,11,0,11,0,1,,,,,,,,,,
,,,,64d5078f2a137d6c7b563d12,A,2024-07-03_16h27.57.331,Slot Machine Game,2023.1.3,MacIntel,59.88023952,,,,,,,,,,,,,,,,,,,,,,,,,,,810,,,,,,,,,,,,,,,,,,,,,9,10,,,725.7699,12,right,2.8549,,1.5,0.3,"[1,3,2]",0.184421887,stimuli/card_100_transparent.png,100,12,0,12,0,1,,,,,,,,,,
,,,,64d5078f2a137d6c7b563d12,A,2024-07-03_16h27.57.331,Slot Machine Game,2023.1.3,MacIntel,59.88023952,,,,,,,,,,,,,,,,,,,,,,,,,,,820,,,,,,,,,,,,,,,,,,,,,9,10,,,730.9528,13,right,2,,0.5,0.3,"[1,3,2]",0.714861372,stimuli/card_10_transparent.png,10,13,0,13,0,1,,,,,,,,,,
,,,,64d5078f2a137d6c7b563d12,A,2024-07-03_16h27.57.331,Slot Machine Game,2023.1.3,MacIntel,59.88023952,,,,,,,,,,,,,,,,,,,,,,,,,,,830,,,,,,,,,,,,,,,,,,,,,9,10,,,734.27,14,right,2.6695,,0.5,0.3,"[1,3,2]",0.868127282,stimuli/card_10_transparent.png,10,14,0,14,0,1,,,,,,,,,,
,,,,64d5078f2a137d6c7b563d12,A,2024-07-03_16h27.57.331,Slot Machine Game,2023.1.3,MacIntel,59.88023952,,,,,,,,,,,,,,,,,,,,,,,,,,,,,,,,,,,738.2702,,,,,,,,,,,,,,,,,,,,,,,,,,,,,,,,,"[550,850,650,660,370,940,450,1040,830]",8,0,8,0,1,,,,
,,,,64d5078f2a137d6c7b563d12,A,2024-07-03_16h27.57.331,Slot Machine Game,2023.1.3,MacIntel,59.88023952,,,,,,,,,,,,,,,,,,,,,,,,,,,0,,,,,,,,,,,,,,,,,,,,,10,3,"[15,15]","[[3,1,2],[3,1,2]]",743.2886,0,left,0.1667,,1,0.3,"[3,1,2]",0.22433908,stimuli/card_0_transparent.png,0,0,0,0,0,1,,,,,,,,,,
,,,,64d5078f2a137d6c7b563d12,A,2024-07-03_16h27.57.331,Slot Machine Game,2023.1.3,MacIntel,59.88023952,,,,,,,,,,,,,,,,,,,,,,,,,,,0,,,,,,,,,,,,,,,,,,,,,10,3,,,745.2869,1,left,0.4515,,0.5,0.3,"[3,1,2]",0.838697546,stimuli/card_0_transparent.png,0,1,0,1,0,1,,,,,,,,,,
,,,,64d5078f2a137d6c7b563d12,A,2024-07-03_16h27.57.331,Slot Machine Game,2023.1.3,MacIntel,59.88023952,,,,,,,,,,,,,,,,,,,,,,,,,,,0,,,,,,,,,,,,,,,,,,,,,10,3,,,747.0703,2,up,0.767,,1,0.3,"[3,1,2]",0.069833441,stimuli/card_0_transparent.png,0,2,0,2,0,1,,,,,,,,,,
,,,,64d5078f2a137d6c7b563d12,A,2024-07-03_16h27.57.331,Slot Machine Game,2023.1.3,MacIntel,59.88023952,,,,,,,,,,,,,,,,,,,,,,,,,,,100,,,,,,,,,,,,,,,,,,,,,10,3,,,749.6704,3,up,1.2891,,1,0.3,"[3,1,2]",0.819598944,stimuli/card_100_transparent.png,100,3,0,3,0,1,,,,,,,,,,
,,,,64d5078f2a137d6c7b563d12,A,2024-07-03_16h27.57.331,Slot Machine Game,2023.1.3,MacIntel,59.88023952,,,,,,,,,,,,,,,,,,,,,,,,,,,200,,,,,,,,,,,,,,,,,,,,,10,3,,,752.7872,4,up,1.283,,1,0.3,"[3,1,2]",0.979726369,stimuli/card_100_transparent.png,100,4,0,4,0,1,,,,,,,,,,
,,,,64d5078f2a137d6c7b563d12,A,2024-07-03_16h27.57.331,Slot Machine Game,2023.1.3,MacIntel,59.88023952,,,,,,,,,,,,,,,,,,,,,,,,,,,300,,,,,,,,,,,,,,,,,,,,,10,3,,,755.9039,5,up,1.3526,,1.5,0.3,"[3,1,2]",0.432166514,stimuli/card_100_transparent.png,100,5,0,5,0,1,,,,,,,,,,
,,,,64d5078f2a137d6c7b563d12,A,2024-07-03_16h27.57.331,Slot Machine Game,2023.1.3,MacIntel,59.88023952,,,,,,,,,,,,,,,,,,,,,,,,,,,400,,,,,,,,,,,,,,,,,,,,,10,3,,,759.5873,6,up,0.1032,,0.5,0.3,"[3,1,2]",0.978508081,stimuli/card_100_transparent.png,100,6,0,6,0,1,,,,,,,,,,
,,,,64d5078f2a137d6c7b563d12,A,2024-07-03_16h27.57.331,Slot Machine Game,2023.1.3,MacIntel,59.88023952,,,,,,,,,,,,,,,,,,,,,,,,,,,500,,,,,,,,,,,,,,,,,,,,,10,3,,,761.0207,7,up,2.7499,,1,0.3,"[3,1,2]",0.280145988,stimuli/card_100_transparent.png,100,7,0,7,0,1,,,,,,,,,,
,,,,64d5078f2a137d6c7b563d12,A,2024-07-03_16h27.57.331,Slot Machine Game,2023.1.3,MacIntel,59.88023952,,,,,,,,,,,,,,,,,,,,,,,,,,,510,,,,,,,,,,,,,,,,,,,,,10,3,,,765.604,8,right,0.4665,,0.5,0.3,"[3,1,2]",0.315264146,stimuli/card_10_transparent.png,10,8,0,8,0,1,,,,,,,,,,
,,,,64d5078f2a137d6c7b563d12,A,2024-07-03_16h27.57.331,Slot Machine Game,2023.1.3,MacIntel,59.88023952,,,,,,,,,,,,,,,,,,,,,,,,,,,610,,,,,,,,,,,,,,,,,,,,,10,3,,,767.4041,9,up,0.683,,0.5,0.3,"[3,1,2]",0.54654057,stimuli/card_100_transparent.png,100,9,0,9,0,1,,,,,,,,,,
,,,,64d5078f2a137d6c7b563d12,A,2024-07-03_16h27.57.331,Slot Machine Game,2023.1.3,MacIntel,59.88023952,,,,,,,,,,,,,,,,,,,,,,,,,,,710,,,,,,,,,,,,,,,,,,,,,10,3,,,769.4209,10,up,0.1392,,0.5,0.3,"[3,1,2]",0.262405139,stimuli/card_100_transparent.png,100,10,0,10,0,1,,,,,,,,,,
,,,,64d5078f2a137d6c7b563d12,A,2024-07-03_16h27.57.331,Slot Machine Game,2023.1.3,MacIntel,59.88023952,,,,,,,,,,,,,,,,,,,,,,,,,,,810,,,,,,,,,,,,,,,,,,,,,10,3,,,770.8876,11,up,0.0348,,1.5,0.3,"[3,1,2]",0.609864358,stimuli/card_100_transparent.png,100,11,0,11,0,1,,,,,,,,,,
,,,,64d5078f2a137d6c7b563d12,A,2024-07-03_16h27.57.331,Slot Machine Game,2023.1.3,MacIntel,59.88023952,,,,,,,,,,,,,,,,,,,,,,,,,,,910,,,,,,,,,,,,,,,,,,,,,10,3,,,773.2542,12,up,0.1093,,1.5,0.3,"[3,1,2]",0.516907321,stimuli/card_100_transparent.png,100,12,0,12,0,1,,,,,,,,,,
,,,,64d5078f2a137d6c7b563d12,A,2024-07-03_16h27.57.331,Slot Machine Game,2023.1.3,MacIntel,59.88023952,,,,,,,,,,,,,,,,,,,,,,,,,,,920,,,,,,,,,,,,,,,,,,,,,10,3,,,775.6877,13,left,3.7855,,0.5,0.3,"[3,1,2]",0.152072854,stimuli/card_10_transparent.png,10,13,0,13,0,1,,,,,,,,,,
,,,,64d5078f2a137d6c7b563d12,A,2024-07-03_16h27.57.331,Slot Machine Game,2023.1.3,MacIntel,59.88023952,,,,,,,,,,,,,,,,,,,,,,,,,,,920,,,,,,,,,,,,,,,,,,,,,10,3,,,780.8045,14,left,0.117,,1.5,0.3,"[3,1,2]",0.728339125,stimuli/card_0_transparent.png,0,14,0,14,0,1,,,,,,,,,,
,,,,64d5078f2a137d6c7b563d12,A,2024-07-03_16h27.57.331,Slot Machine Game,2023.1.3,MacIntel,59.88023952,,,,,,,,,,,,,,,,,,,,,,,,,,,,,,,,,,,783.2539,,,,,,,,,,,,,,,,,,,,,,,,,,,,,,,,,"[550,850,650,660,370,940,450,1040,830,920]",9,0,9,0,1,,,,
,,,,64d5078f2a137d6c7b563d12,A,2024-07-03_16h27.57.331,Slot Machine Game,2023.1.3,MacIntel,59.88023952,,,,,,,,,,,,,,,,,,,,,,,,,,,,,,,,,,,,,,,,,,,,,,,,,,,,,,,,,,,,,,,,,,,,,,,,,,9,"[550,850,650,660,370,940,450,1040,830,920]",6.6,2024-07-03_16h41.09.669
