key_resp_welcome_started,key_resp_welcome_keys,key_resp_welcome_rt,key_resp_welcome_duration,prolific_id,path_id,date,expName,psychopyVersion,OS,frameRate,key_resp_instruction1_started,key_resp_instruction1_keys,key_resp_instruction1_rt,key_resp_instruction1_duration,key_resp_instruction2_started,key_resp_instruction2_keys,key_resp_instruction2_rt,key_resp_instruction2_duration,key_resp_instruction3_started,key_resp_instruction3_keys,key_resp_instruction3_rt,key_resp_instruction3_duration,key_resp_instruction4_started,key_resp_instruction4_keys,key_resp_instruction4_rt,key_resp_instruction4_duration,practiceCondition,practice_reward_seqs,practice_trial_started,practice_trial_num,practice_resp_rt,practice_resp_duration,practice_resp_keys,prac_presentationInterval,"practice_reward_seq: 2,1,3",reward_img,cumulative_reward,trial_reward,practice_trials.thisRepN,practice_trials.thisTrialN,practice_trials.thisN,practice_trials.thisIndex,practice_trials.ran,"practice_reward_seq: 2,3,1",block_break_started,"practice_reward_seq: 1,3,2","practice_reward_seq: 3,1,2",practice_end_time,practice_end_keys,practice_end_rt,practice_end_duration,main_instruction_text_started,block_condition,block_order_indices,main_instruction_keys,main_instruction_rt,main_instruction_duration,block_number,block_assignment,current_condition,main_reward_seqs,main_trial_started,main_trial_num,main_trial_keys,main_trial_rt,main_trial_duration,main_presentationInterval,reward_presentation_time,main_reward_seq,reward_rand_val,main_reward_img,current_reward,main_trials.thisRepN,main_trials.thisTrialN,main_trials.thisN,main_trials.thisIndex,main_trials.ran,block_reward,block.thisRepN,block.thisTrialN,block.thisN,block.thisIndex,block.ran,block_reward.length,block_reward_all,reward_amount,date_end_task
0.0018,return,1.5658,,650cbbfec37399108c60a734,A,2024-07-12_10h48.16.803,Slot Machine Game,2023.1.3,Win32,60.24096386,,,,,,,,,,,,,,,,,,,,,,,,,,,,,,,,,,,,,,,,,,,,,,,,,,,,,,,,,,,,,,,,,,,,,,,,,,,,,
,,,,650cbbfec37399108c60a734,A,2024-07-12_10h48.16.803,Slot Machine Game,2023.1.3,Win32,60.24096386,1.6174,return,1.4194,,,,,,,,,,,,,,,,,,,,,,,,,,,,,,,,,,,,,,,,,,,,,,,,,,,,,,,,,,,,,,,,,,,,,,,,,,
,,,,650cbbfec37399108c60a734,A,2024-07-12_10h48.16.803,Slot Machine Game,2023.1.3,Win32,60.24096386,,,,,3.0759,return,1.8925,,,,,,,,,,,,,,,,,,,,,,,,,,,,,,,,,,,,,,,,,,,,,,,,,,,,,,,,,,,,,,,,,,,,,,
,,,,650cbbfec37399108c60a734,A,2024-07-12_10h48.16.803,Slot Machine Game,2023.1.3,Win32,60.24096386,,,,,,,,,5.1025,return,1.1811,,,,,,,,,,,,,,,,,,,,,,,,,,,,,,,,,,,,,,,,,,,,,,,,,,,,,,,,,,,,,,,,,,
,,,,650cbbfec37399108c60a734,A,2024-07-12_10h48.16.803,Slot Machine Game,2023.1.3,Win32,60.24096386,,,,,,,,,,,,,,,,,,,,,,,,,,,,,,,,,,,,,,,,,,,,,,,,,,,,,,,,,,,,,,,,,,,,,,,,,,,,,
,,,,650cbbfec37399108c60a734,A,2024-07-12_10h48.16.803,Slot Machine Game,2023.1.3,Win32,60.24096386,,,,,,,,,,,,,149.1205,return,451.2334,,,,,,,,,,,,,,,,,,,,,,,,,,,,,,,,,,,,,,,,,,,,,,,,,,,,,,,,,,,,,,
,,,,650cbbfec37399108c60a734,A,2024-07-12_10h48.16.803,Slot Machine Game,2023.1.3,Win32,60.24096386,,,,,,,,,,,,,,,,,"[9,15]","[[2,1,3],[2,3,1]]",600.4081,0,1.479,,up,1.5,,stimuli/card_100_transparent.png,100,100,0,0,0,0,1,,,,,,,,,,,,,,,,,,,,,,,,,,,,,,,,,,,,,,,,,,,,
,,,,650cbbfec37399108c60a734,A,2024-07-12_10h48.16.803,Slot Machine Game,2023.1.3,Win32,60.24096386,,,,,,,,,,,,,,,,,,,604.222,1,0.0746,,up,1,,stimuli/card_100_transparent.png,200,100,1,0,1,0,1,,,,,,,,,,,,,,,,,,,,,,,,,,,,,,,,,,,,,,,,,,,,
,,,,650cbbfec37399108c60a734,A,2024-07-12_10h48.16.803,Slot Machine Game,2023.1.3,Win32,60.24096386,,,,,,,,,,,,,,,,,,,606.1113,2,0.4336,,up,1.5,,stimuli/card_10_transparent.png,210,10,2,0,2,0,1,,,,,,,,,,,,,,,,,,,,,,,,,,,,,,,,,,,,,,,,,,,,
,,,,650cbbfec37399108c60a734,A,2024-07-12_10h48.16.803,Slot Machine Game,2023.1.3,Win32,60.24096386,,,,,,,,,,,,,,,,,,,608.8519,3,0.0111,,right,0.5,,stimuli/card_0_transparent.png,210,0,3,0,3,0,1,,,,,,,,,,,,,,,,,,,,,,,,,,,,,,,,,,,,,,,,,,,,
,,,,650cbbfec37399108c60a734,A,2024-07-12_10h48.16.803,Slot Machine Game,2023.1.3,Win32,60.24096386,,,,,,,,,,,,,,,,,,,610.1781,4,0.537,,left,1.5,,stimuli/card_10_transparent.png,220,10,4,0,4,0,1,,,,,,,,,,,,,,,,,,,,,,,,,,,,,,,,,,,,,,,,,,,,
,,,,650cbbfec37399108c60a734,A,2024-07-12_10h48.16.803,Slot Machine Game,2023.1.3,Win32,60.24096386,,,,,,,,,,,,,,,,,,,613.0664,5,0.4051,,up,0.5,,stimuli/card_100_transparent.png,320,100,5,0,5,0,1,,,,,,,,,,,,,,,,,,,,,,,,,,,,,,,,,,,,,,,,,,,,
,,,,650cbbfec37399108c60a734,A,2024-07-12_10h48.16.803,Slot Machine Game,2023.1.3,Win32,60.24096386,,,,,,,,,,,,,,,,,,,614.8096,6,0.4244,,up,1,,stimuli/card_100_transparent.png,420,100,6,0,6,0,1,,,,,,,,,,,,,,,,,,,,,,,,,,,,,,,,,,,,,,,,,,,,
,,,,650cbbfec37399108c60a734,A,2024-07-12_10h48.16.803,Slot Machine Game,2023.1.3,Win32,60.24096386,,,,,,,,,,,,,,,,,,,617.0494,7,0.837,,up,0.5,,stimuli/card_0_transparent.png,420,0,7,0,7,0,1,,,,,,,,,,,,,,,,,,,,,,,,,,,,,,,,,,,,,,,,,,,,
,,,,650cbbfec37399108c60a734,A,2024-07-12_10h48.16.803,Slot Machine Game,2023.1.3,Win32,60.24096386,,,,,,,,,,,,,,,,,,,619.1989,8,0.9194,,up,0.5,,stimuli/card_100_transparent.png,520,100,8,0,8,0,1,,,,,,,,,,,,,,,,,,,,,,,,,,,,,,,,,,,,,,,,,,,,
,,,,650cbbfec37399108c60a734,A,2024-07-12_10h48.16.803,Slot Machine Game,2023.1.3,Win32,60.24096386,,,,,,,,,,,,,,,,,,,621.4491,9,0.2516,,up,1,,stimuli/card_0_transparent.png,520,0,9,0,9,0,1,,,,,,,,,,,,,,,,,,,,,,,,,,,,,,,,,,,,,,,,,,,,
,,,,650cbbfec37399108c60a734,A,2024-07-12_10h48.16.803,Slot Machine Game,2023.1.3,Win32,60.24096386,,,,,,,,,,,,,,,,,,,623.531,10,0.5838,,up,0.5,,stimuli/card_0_transparent.png,520,0,10,0,10,0,1,,,,,,,,,,,,,,,,,,,,,,,,,,,,,,,,,,,,,,,,,,,,
,,,,650cbbfec37399108c60a734,A,2024-07-12_10h48.16.803,Slot Machine Game,2023.1.3,Win32,60.24096386,,,,,,,,,,,,,,,,,,,625.4472,11,0.8824,,up,1.5,,stimuli/card_100_transparent.png,620,100,11,0,11,0,1,,,,,,,,,,,,,,,,,,,,,,,,,,,,,,,,,,,,,,,,,,,,
,,,,650cbbfec37399108c60a734,A,2024-07-12_10h48.16.803,Slot Machine Game,2023.1.3,Win32,60.24096386,,,,,,,,,,,,,,,,,,,628.6718,12,0.3015,,up,0.5,,stimuli/card_0_transparent.png,620,0,12,0,12,0,1,,,,,,,,,,,,,,,,,,,,,,,,,,,,,,,,,,,,,,,,,,,,
,,,,650cbbfec37399108c60a734,A,2024-07-12_10h48.16.803,Slot Machine Game,2023.1.3,Win32,60.24096386,,,,,,,,,,,,,,,,,,,630.2788,13,2.9814,,up,0.5,,stimuli/card_100_transparent.png,720,100,13,0,13,0,1,,,,,,,,,,,,,,,,,,,,,,,,,,,,,,,,,,,,,,,,,,,,
,,,,650cbbfec37399108c60a734,A,2024-07-12_10h48.16.803,Slot Machine Game,2023.1.3,Win32,60.24096386,,,,,,,,,,,,,,,,,,,634.5932,14,0.1213,,up,0.5,,stimuli/card_0_transparent.png,720,0,14,0,14,0,1,,,,,,,,,,,,,,,,,,,,,,,,,,,,,,,,,,,,,,,,,,,,
,,,,650cbbfec37399108c60a734,A,2024-07-12_10h48.16.803,Slot Machine Game,2023.1.3,Win32,60.24096386,,,,,,,,,,,,,,,,,"[6,15]","[[1,3,2],[3,1,2]]",641.1284,0,0.7516,,right,1,,stimuli/card_10_transparent.png,10,10,0,0,0,0,1,,636.1146,,,,,,,,,,,,,,,,,,,,,,,,,,,,,,,,,,,,,,,,,,
,,,,650cbbfec37399108c60a734,A,2024-07-12_10h48.16.803,Slot Machine Game,2023.1.3,Win32,60.24096386,,,,,,,,,,,,,,,,,,,643.7169,1,0.283,,up,0.5,,stimuli/card_10_transparent.png,20,10,1,0,1,0,1,,,,,,,,,,,,,,,,,,,,,,,,,,,,,,,,,,,,,,,,,,,,
,,,,650cbbfec37399108c60a734,A,2024-07-12_10h48.16.803,Slot Machine Game,2023.1.3,Win32,60.24096386,,,,,,,,,,,,,,,,,,,645.3235,2,0.3008,,right,0.5,,stimuli/card_10_transparent.png,30,10,2,0,2,0,1,,,,,,,,,,,,,,,,,,,,,,,,,,,,,,,,,,,,,,,,,,,,
,,,,650cbbfec37399108c60a734,A,2024-07-12_10h48.16.803,Slot Machine Game,2023.1.3,Win32,60.24096386,,,,,,,,,,,,,,,,,,,646.9563,3,0.2229,,left,1.5,,stimuli/card_100_transparent.png,130,100,3,0,3,0,1,,,,,,,,,,,,,,,,,,,,,,,,,,,,,,,,,,,,,,,,,,,,
,,,,650cbbfec37399108c60a734,A,2024-07-12_10h48.16.803,Slot Machine Game,2023.1.3,Win32,60.24096386,,,,,,,,,,,,,,,,,,,649.4983,4,0.1345,,left,1.5,,stimuli/card_100_transparent.png,230,100,4,0,4,0,1,,,,,,,,,,,,,,,,,,,,,,,,,,,,,,,,,,,,,,,,,,,,
,,,,650cbbfec37399108c60a734,A,2024-07-12_10h48.16.803,Slot Machine Game,2023.1.3,Win32,60.24096386,,,,,,,,,,,,,,,,,,,651.9452,5,1.651,,left,0.5,,stimuli/card_0_transparent.png,230,0,5,0,5,0,1,,,,,,,,,,,,,,,,,,,,,,,,,,,,,,,,,,,,,,,,,,,,
,,,,650cbbfec37399108c60a734,A,2024-07-12_10h48.16.803,Slot Machine Game,2023.1.3,Win32,60.24096386,,,,,,,,,,,,,,,,,,,654.9202,6,0.001,,up,1,,stimuli/card_100_transparent.png,330,100,6,0,6,0,1,,,,,,,,,,,,,,,,,,,,,,,,,,,,,,,,,,,,,,,,,,,,
,,,,650cbbfec37399108c60a734,A,2024-07-12_10h48.16.803,Slot Machine Game,2023.1.3,Win32,60.24096386,,,,,,,,,,,,,,,,,,,656.7527,7,0.0008,,up,1.5,,stimuli/card_100_transparent.png,430,100,7,0,7,0,1,,,,,,,,,,,,,,,,,,,,,,,,,,,,,,,,,,,,,,,,,,,,
,,,,650cbbfec37399108c60a734,A,2024-07-12_10h48.16.803,Slot Machine Game,2023.1.3,Win32,60.24096386,,,,,,,,,,,,,,,,,,,659.0873,8,0.5335,,up,1.5,,stimuli/card_100_transparent.png,530,100,8,0,8,0,1,,,,,,,,,,,,,,,,,,,,,,,,,,,,,,,,,,,,,,,,,,,,
,,,,650cbbfec37399108c60a734,A,2024-07-12_10h48.16.803,Slot Machine Game,2023.1.3,Win32,60.24096386,,,,,,,,,,,,,,,,,,,661.9508,9,0.2706,,up,1.5,,stimuli/card_100_transparent.png,630,100,9,0,9,0,1,,,,,,,,,,,,,,,,,,,,,,,,,,,,,,,,,,,,,,,,,,,,
,,,,650cbbfec37399108c60a734,A,2024-07-12_10h48.16.803,Slot Machine Game,2023.1.3,Win32,60.24096386,,,,,,,,,,,,,,,,,,,664.5497,10,0.3962,,up,1,,stimuli/card_100_transparent.png,730,100,10,0,10,0,1,,,,,,,,,,,,,,,,,,,,,,,,,,,,,,,,,,,,,,,,,,,,
,,,,650cbbfec37399108c60a734,A,2024-07-12_10h48.16.803,Slot Machine Game,2023.1.3,Win32,60.24096386,,,,,,,,,,,,,,,,,,,666.7825,11,0.2932,,up,1,,stimuli/card_100_transparent.png,830,100,11,0,11,0,1,,,,,,,,,,,,,,,,,,,,,,,,,,,,,,,,,,,,,,,,,,,,
,,,,650cbbfec37399108c60a734,A,2024-07-12_10h48.16.803,Slot Machine Game,2023.1.3,Win32,60.24096386,,,,,,,,,,,,,,,,,,,668.8986,12,0.068,,up,1.5,,stimuli/card_100_transparent.png,930,100,12,0,12,0,1,,,,,,,,,,,,,,,,,,,,,,,,,,,,,,,,,,,,,,,,,,,,
,,,,650cbbfec37399108c60a734,A,2024-07-12_10h48.16.803,Slot Machine Game,2023.1.3,Win32,60.24096386,,,,,,,,,,,,,,,,,,,671.2811,13,0.3852,,up,1.5,,stimuli/card_100_transparent.png,1030,100,13,0,13,0,1,,,,,,,,,,,,,,,,,,,,,,,,,,,,,,,,,,,,,,,,,,,,
,,,,650cbbfec37399108c60a734,A,2024-07-12_10h48.16.803,Slot Machine Game,2023.1.3,Win32,60.24096386,,,,,,,,,,,,,,,,,,,673.9805,14,0.0472,,up,1.5,,stimuli/card_100_transparent.png,1130,100,14,0,14,0,1,,,,,,,,,,,,,,,,,,,,,,,,,,,,,,,,,,,,,,,,,,,,
,,,,650cbbfec37399108c60a734,A,2024-07-12_10h48.16.803,Slot Machine Game,2023.1.3,Win32,60.24096386,,,,,,,,,,,,,,,,,,,,,,,,,,,,,,,,,,,676.3625,,,681.3728,space,2.4869,,,,,,,,,,,,,,,,,,,,,,,,,,,,,,,,,,,,,
,,,,650cbbfec37399108c60a734,A,2024-07-12_10h48.16.803,Slot Machine Game,2023.1.3,Win32,60.24096386,,,,,,,,,,,,,,,,,,,,,,,,,,,,,,,,,,,,,,,,,,683.8889,3,"[0,4,6,3,5,7,8,1,9,2]",space,1.4043,,,,,,,,,,,,,,,,,,,,,,,,,,,,,,,
,,,,650cbbfec37399108c60a734,A,2024-07-12_10h48.16.803,Slot Machine Game,2023.1.3,Win32,60.24096386,,,,,,,,,,,,,,,,,,,,,,,,,,,100,,,,,,,,,,,,,,,,,,,,,1,1,"[12,15]","[[2,1,3],[2,3,1]]",685.392,0,up,0.7506,,1.5,0.3,"[2,1,3]",0.773543664,stimuli/card_100_transparent.png,100,0,0,0,0,1,,,,,,,,,,
,,,,650cbbfec37399108c60a734,A,2024-07-12_10h48.16.803,Slot Machine Game,2023.1.3,Win32,60.24096386,,,,,,,,,,,,,,,,,,,,,,,,,,,200,,,,,,,,,,,,,,,,,,,,,1,1,,,688.4832,1,up,0.4678,,1.5,0.3,"[2,1,3]",0.467525806,stimuli/card_100_transparent.png,100,1,0,1,0,1,,,,,,,,,,
,,,,650cbbfec37399108c60a734,A,2024-07-12_10h48.16.803,Slot Machine Game,2023.1.3,Win32,60.24096386,,,,,,,,,,,,,,,,,,,,,,,,,,,300,,,,,,,,,,,,,,,,,,,,,1,1,,,691.2911,2,up,0.0523,,0.5,0.3,"[2,1,3]",0.546022631,stimuli/card_100_transparent.png,100,2,0,2,0,1,,,,,,,,,,
,,,,650cbbfec37399108c60a734,A,2024-07-12_10h48.16.803,Slot Machine Game,2023.1.3,Win32,60.24096386,,,,,,,,,,,,,,,,,,,,,,,,,,,400,,,,,,,,,,,,,,,,,,,,,1,1,,,692.6647,3,up,0.0009,,1,0.3,"[2,1,3]",0.593926751,stimuli/card_100_transparent.png,100,3,0,3,0,1,,,,,,,,,,
,,,,650cbbfec37399108c60a734,A,2024-07-12_10h48.16.803,Slot Machine Game,2023.1.3,Win32,60.24096386,,,,,,,,,,,,,,,,,,,,,,,,,,,500,,,,,,,,,,,,,,,,,,,,,1,1,,,694.4907,4,up,0.2007,,1.5,0.3,"[2,1,3]",0.825621206,stimuli/card_100_transparent.png,100,4,0,4,0,1,,,,,,,,,,
,,,,650cbbfec37399108c60a734,A,2024-07-12_10h48.16.803,Slot Machine Game,2023.1.3,Win32,60.24096386,,,,,,,,,,,,,,,,,,,,,,,,,,,600,,,,,,,,,,,,,,,,,,,,,1,1,,,697.0154,5,up,0.7646,,0.5,0.3,"[2,1,3]",0.527636919,stimuli/card_100_transparent.png,100,5,0,5,0,1,,,,,,,,,,
,,,,650cbbfec37399108c60a734,A,2024-07-12_10h48.16.803,Slot Machine Game,2023.1.3,Win32,60.24096386,,,,,,,,,,,,,,,,,,,,,,,,,,,700,,,,,,,,,,,,,,,,,,,,,1,1,,,699.1053,6,up,0.0629,,0.5,0.3,"[2,1,3]",0.385220392,stimuli/card_100_transparent.png,100,6,0,6,0,1,,,,,,,,,,
,,,,650cbbfec37399108c60a734,A,2024-07-12_10h48.16.803,Slot Machine Game,2023.1.3,Win32,60.24096386,,,,,,,,,,,,,,,,,,,,,,,,,,,800,,,,,,,,,,,,,,,,,,,,,1,1,,,700.4892,7,up,0.0015,,0.5,0.3,"[2,1,3]",0.996499025,stimuli/card_100_transparent.png,100,7,0,7,0,1,,,,,,,,,,
,,,,650cbbfec37399108c60a734,A,2024-07-12_10h48.16.803,Slot Machine Game,2023.1.3,Win32,60.24096386,,,,,,,,,,,,,,,,,,,,,,,,,,,900,,,,,,,,,,,,,,,,,,,,,1,1,,,701.8203,8,up,0.3888,,1,0.3,"[2,1,3]",0.654824634,stimuli/card_100_transparent.png,100,8,0,8,0,1,,,,,,,,,,
,,,,650cbbfec37399108c60a734,A,2024-07-12_10h48.16.803,Slot Machine Game,2023.1.3,Win32,60.24096386,,,,,,,,,,,,,,,,,,,,,,,,,,,1000,,,,,,,,,,,,,,,,,,,,,1,1,,,704.0363,9,up,0.3998,,0.5,0.3,"[2,1,3]",0.359732127,stimuli/card_100_transparent.png,100,9,0,9,0,1,,,,,,,,,,
,,,,650cbbfec37399108c60a734,A,2024-07-12_10h48.16.803,Slot Machine Game,2023.1.3,Win32,60.24096386,,,,,,,,,,,,,,,,,,,,,,,,,,,1100,,,,,,,,,,,,,,,,,,,,,1,1,,,705.7721,10,up,0.0744,,1.5,0.3,"[2,1,3]",0.823114424,stimuli/card_100_transparent.png,100,10,0,10,0,1,,,,,,,,,,
,,,,650cbbfec37399108c60a734,A,2024-07-12_10h48.16.803,Slot Machine Game,2023.1.3,Win32,60.24096386,,,,,,,,,,,,,,,,,,,,,,,,,,,1200,,,,,,,,,,,,,,,,,,,,,1,1,,,708.1689,11,up,0.0023,,1.5,0.3,"[2,1,3]",0.203594578,stimuli/card_100_transparent.png,100,11,0,11,0,1,,,,,,,,,,
,,,,650cbbfec37399108c60a734,A,2024-07-12_10h48.16.803,Slot Machine Game,2023.1.3,Win32,60.24096386,,,,,,,,,,,,,,,,,,,,,,,,,,,1200,,,,,,,,,,,,,,,,,,,,,1,1,,,710.5015,12,up,0.2047,,1,0.3,"[2,3,1]",0.268939398,stimuli/card_0_transparent.png,0,12,0,12,0,1,,,,,,,,,,
,,,,650cbbfec37399108c60a734,A,2024-07-12_10h48.16.803,Slot Machine Game,2023.1.3,Win32,60.24096386,,,,,,,,,,,,,,,,,,,,,,,,,,,1210,,,,,,,,,,,,,,,,,,,,,1,1,,,712.5347,13,up,0.2024,,0.5,0.3,"[2,3,1]",0.198396973,stimuli/card_10_transparent.png,10,13,0,13,0,1,,,,,,,,,,
,,,,650cbbfec37399108c60a734,A,2024-07-12_10h48.16.803,Slot Machine Game,2023.1.3,Win32,60.24096386,,,,,,,,,,,,,,,,,,,,,,,,,,,1210,,,,,,,,,,,,,,,,,,,,,1,1,,,714.0666,14,up,0.379,,1,0.3,"[2,3,1]",0.561836269,stimuli/card_0_transparent.png,0,14,0,14,0,1,,,,,,,,,,
,,,,650cbbfec37399108c60a734,A,2024-07-12_10h48.16.803,Slot Machine Game,2023.1.3,Win32,60.24096386,,,,,,,,,,,,,,,,,,,,,,,,,,,,,,,,,,,716.2659,,,,,,,,,,,,,,,,,,,,,,,,,,,,,,,,,[1210],0,0,0,0,1,,,,
,,,,650cbbfec37399108c60a734,A,2024-07-12_10h48.16.803,Slot Machine Game,2023.1.3,Win32,60.24096386,,,,,,,,,,,,,,,,,,,,,,,,,,,10,,,,,,,,,,,,,,,,,,,,,2,5,"[5,15]","[[1,2,3],[3,1,2]]",721.3232,0,up,0.3765,,0.5,0.3,"[1,2,3]",0.666925923,stimuli/card_10_transparent.png,10,0,0,0,0,1,,,,,,,,,,
,,,,650cbbfec37399108c60a734,A,2024-07-12_10h48.16.803,Slot Machine Game,2023.1.3,Win32,60.24096386,,,,,,,,,,,,,,,,,,,,,,,,,,,10,,,,,,,,,,,,,,,,,,,,,2,5,,,723.0393,1,right,0.3157,,1.5,0.3,"[1,2,3]",0.861730535,stimuli/card_0_transparent.png,0,1,0,1,0,1,,,,,,,,,,
,,,,650cbbfec37399108c60a734,A,2024-07-12_10h48.16.803,Slot Machine Game,2023.1.3,Win32,60.24096386,,,,,,,,,,,,,,,,,,,,,,,,,,,110,,,,,,,,,,,,,,,,,,,,,2,5,,,725.6797,2,up,0.3529,,1,0.3,"[1,2,3]",0.163132499,stimuli/card_100_transparent.png,100,2,0,2,0,1,,,,,,,,,,
,,,,650cbbfec37399108c60a734,A,2024-07-12_10h48.16.803,Slot Machine Game,2023.1.3,Win32,60.24096386,,,,,,,,,,,,,,,,,,,,,,,,,,,120,,,,,,,,,,,,,,,,,,,,,2,5,,,727.8753,3,up,0.3441,,1,0.3,"[1,2,3]",0.230270452,stimuli/card_10_transparent.png,10,3,0,3,0,1,,,,,,,,,,
,,,,650cbbfec37399108c60a734,A,2024-07-12_10h48.16.803,Slot Machine Game,2023.1.3,Win32,60.24096386,,,,,,,,,,,,,,,,,,,,,,,,,,,130,,,,,,,,,,,,,,,,,,,,,2,5,,,730.0275,4,up,0.0105,,0.5,0.3,"[1,2,3]",0.798723094,stimuli/card_10_transparent.png,10,4,0,4,0,1,,,,,,,,,,
,,,,650cbbfec37399108c60a734,A,2024-07-12_10h48.16.803,Slot Machine Game,2023.1.3,Win32,60.24096386,,,,,,,,,,,,,,,,,,,,,,,,,,,230,,,,,,,,,,,,,,,,,,,,,2,5,,,731.361,5,up,0.5467,,0.5,0.3,"[3,1,2]",0.454462286,stimuli/card_100_transparent.png,100,5,0,5,0,1,,,,,,,,,,
,,,,650cbbfec37399108c60a734,A,2024-07-12_10h48.16.803,Slot Machine Game,2023.1.3,Win32,60.24096386,,,,,,,,,,,,,,,,,,,,,,,,,,,330,,,,,,,,,,,,,,,,,,,,,2,5,,,733.2197,6,up,0.0676,,1,0.3,"[3,1,2]",0.597826779,stimuli/card_100_transparent.png,100,6,0,6,0,1,,,,,,,,,,
,,,,650cbbfec37399108c60a734,A,2024-07-12_10h48.16.803,Slot Machine Game,2023.1.3,Win32,60.24096386,,,,,,,,,,,,,,,,,,,,,,,,,,,430,,,,,,,,,,,,,,,,,,,,,2,5,,,735.1179,7,up,0.1239,,1,0.3,"[3,1,2]",0.27754132,stimuli/card_100_transparent.png,100,7,0,7,0,1,,,,,,,,,,
,,,,650cbbfec37399108c60a734,A,2024-07-12_10h48.16.803,Slot Machine Game,2023.1.3,Win32,60.24096386,,,,,,,,,,,,,,,,,,,,,,,,,,,530,,,,,,,,,,,,,,,,,,,,,2,5,,,737.0498,8,up,0.7188,,0.5,0.3,"[3,1,2]",0.41665877,stimuli/card_100_transparent.png,100,8,0,8,0,1,,,,,,,,,,
,,,,650cbbfec37399108c60a734,A,2024-07-12_10h48.16.803,Slot Machine Game,2023.1.3,Win32,60.24096386,,,,,,,,,,,,,,,,,,,,,,,,,,,530,,,,,,,,,,,,,,,,,,,,,2,5,,,739.0913,9,up,0.1849,,0.5,0.3,"[3,1,2]",0.029341263,stimuli/card_0_transparent.png,0,9,0,9,0,1,,,,,,,,,,
,,,,650cbbfec37399108c60a734,A,2024-07-12_10h48.16.803,Slot Machine Game,2023.1.3,Win32,60.24096386,,,,,,,,,,,,,,,,,,,,,,,,,,,630,,,,,,,,,,,,,,,,,,,,,2,5,,,740.6074,10,up,0.0524,,1,0.3,"[3,1,2]",0.797101292,stimuli/card_100_transparent.png,100,10,0,10,0,1,,,,,,,,,,
,,,,650cbbfec37399108c60a734,A,2024-07-12_10h48.16.803,Slot Machine Game,2023.1.3,Win32,60.24096386,,,,,,,,,,,,,,,,,,,,,,,,,,,730,,,,,,,,,,,,,,,,,,,,,2,5,,,742.4914,11,up,1.3013,,1.5,0.3,"[3,1,2]",0.639689874,stimuli/card_100_transparent.png,100,11,0,11,0,1,,,,,,,,,,
,,,,650cbbfec37399108c60a734,A,2024-07-12_10h48.16.803,Slot Machine Game,2023.1.3,Win32,60.24096386,,,,,,,,,,,,,,,,,,,,,,,,,,,830,,,,,,,,,,,,,,,,,,,,,2,5,,,746.1226,12,up,0.6341,,0.5,0.3,"[3,1,2]",0.702396302,stimuli/card_100_transparent.png,100,12,0,12,0,1,,,,,,,,,,
,,,,650cbbfec37399108c60a734,A,2024-07-12_10h48.16.803,Slot Machine Game,2023.1.3,Win32,60.24096386,,,,,,,,,,,,,,,,,,,,,,,,,,,930,,,,,,,,,,,,,,,,,,,,,2,5,,,748.0885,13,up,0.3038,,0.5,0.3,"[3,1,2]",0.358797169,stimuli/card_100_transparent.png,100,13,0,13,0,1,,,,,,,,,,
,,,,650cbbfec37399108c60a734,A,2024-07-12_10h48.16.803,Slot Machine Game,2023.1.3,Win32,60.24096386,,,,,,,,,,,,,,,,,,,,,,,,,,,1030,,,,,,,,,,,,,,,,,,,,,2,5,,,749.7215,14,up,3.8671,,0.5,0.3,"[3,1,2]",0.207995328,stimuli/card_100_transparent.png,100,14,0,14,0,1,,,,,,,,,,
,,,,650cbbfec37399108c60a734,A,2024-07-12_10h48.16.803,Slot Machine Game,2023.1.3,Win32,60.24096386,,,,,,,,,,,,,,,,,,,,,,,,,,,,,,,,,,,754.9023,,,,,,,,,,,,,,,,,,,,,,,,,,,,,,,,,"[1210,1030]",1,0,1,0,1,,,,
,,,,650cbbfec37399108c60a734,A,2024-07-12_10h48.16.803,Slot Machine Game,2023.1.3,Win32,60.24096386,,,,,,,,,,,,,,,,,,,,,,,,,,,0,,,,,,,,,,,,,,,,,,,,,3,7,"[9,15]","[[1,3,2],[2,3,1]]",759.9723,0,up,1.6047,,1,0.3,"[1,3,2]",0.854103268,stimuli/card_0_transparent.png,0,0,0,0,0,1,,,,,,,,,,
,,,,650cbbfec37399108c60a734,A,2024-07-12_10h48.16.803,Slot Machine Game,2023.1.3,Win32,60.24096386,,,,,,,,,,,,,,,,,,,,,,,,,,,100,,,,,,,,,,,,,,,,,,,,,3,7,,,763.3902,1,right,0.4139,,0.5,0.3,"[1,3,2]",0.104309981,stimuli/card_100_transparent.png,100,1,0,1,0,1,,,,,,,,,,
,,,,650cbbfec37399108c60a734,A,2024-07-12_10h48.16.803,Slot Machine Game,2023.1.3,Win32,60.24096386,,,,,,,,,,,,,,,,,,,,,,,,,,,110,,,,,,,,,,,,,,,,,,,,,3,7,,,765.1159,2,right,1.8741,,1,0.3,"[1,3,2]",0.92094571,stimuli/card_10_transparent.png,10,2,0,2,0,1,,,,,,,,,,
,,,,650cbbfec37399108c60a734,A,2024-07-12_10h48.16.803,Slot Machine Game,2023.1.3,Win32,60.24096386,,,,,,,,,,,,,,,,,,,,,,,,,,,120,,,,,,,,,,,,,,,,,,,,,3,7,,,768.8279,3,right,0.5338,,0.5,0.3,"[1,3,2]",0.900213755,stimuli/card_10_transparent.png,10,3,0,3,0,1,,,,,,,,,,
,,,,650cbbfec37399108c60a734,A,2024-07-12_10h48.16.803,Slot Machine Game,2023.1.3,Win32,60.24096386,,,,,,,,,,,,,,,,,,,,,,,,,,,220,,,,,,,,,,,,,,,,,,,,,3,7,,,770.6753,4,up,0.1179,,1,0.3,"[1,3,2]",0.039585436,stimuli/card_100_transparent.png,100,4,0,4,0,1,,,,,,,,,,
,,,,650cbbfec37399108c60a734,A,2024-07-12_10h48.16.803,Slot Machine Game,2023.1.3,Win32,60.24096386,,,,,,,,,,,,,,,,,,,,,,,,,,,220,,,,,,,,,,,,,,,,,,,,,3,7,,,772.6267,5,up,0.2375,,1.5,0.3,"[1,3,2]",0.797796142,stimuli/card_0_transparent.png,0,5,0,5,0,1,,,,,,,,,,
,,,,650cbbfec37399108c60a734,A,2024-07-12_10h48.16.803,Slot Machine Game,2023.1.3,Win32,60.24096386,,,,,,,,,,,,,,,,,,,,,,,,,,,220,,,,,,,,,,,,,,,,,,,,,3,7,,,775.1758,6,up,0.1225,,0.5,0.3,"[1,3,2]",0.532843285,stimuli/card_0_transparent.png,0,6,0,6,0,1,,,,,,,,,,
,,,,650cbbfec37399108c60a734,A,2024-07-12_10h48.16.803,Slot Machine Game,2023.1.3,Win32,60.24096386,,,,,,,,,,,,,,,,,,,,,,,,,,,220,,,,,,,,,,,,,,,,,,,,,3,7,,,776.6218,7,up,0.9616,,1.5,0.3,"[1,3,2]",0.656116593,stimuli/card_0_transparent.png,0,7,0,7,0,1,,,,,,,,,,
,,,,650cbbfec37399108c60a734,A,2024-07-12_10h48.16.803,Slot Machine Game,2023.1.3,Win32,60.24096386,,,,,,,,,,,,,,,,,,,,,,,,,,,230,,,,,,,,,,,,,,,,,,,,,3,7,,,779.88,8,right,0.408,,1.5,0.3,"[1,3,2]",0.888099188,stimuli/card_10_transparent.png,10,8,0,8,0,1,,,,,,,,,,
,,,,650cbbfec37399108c60a734,A,2024-07-12_10h48.16.803,Slot Machine Game,2023.1.3,Win32,60.24096386,,,,,,,,,,,,,,,,,,,,,,,,,,,240,,,,,,,,,,,,,,,,,,,,,3,7,,,782.6232,9,left,0.3054,,0.5,0.3,"[2,3,1]",0.556805192,stimuli/card_10_transparent.png,10,9,0,9,0,1,,,,,,,,,,
,,,,650cbbfec37399108c60a734,A,2024-07-12_10h48.16.803,Slot Machine Game,2023.1.3,Win32,60.24096386,,,,,,,,,,,,,,,,,,,,,,,,,,,250,,,,,,,,,,,,,,,,,,,,,3,7,,,784.226,10,left,0.0344,,1.5,0.3,"[2,3,1]",0.53182363,stimuli/card_10_transparent.png,10,10,0,10,0,1,,,,,,,,,,
,,,,650cbbfec37399108c60a734,A,2024-07-12_10h48.16.803,Slot Machine Game,2023.1.3,Win32,60.24096386,,,,,,,,,,,,,,,,,,,,,,,,,,,350,,,,,,,,,,,,,,,,,,,,,3,7,,,786.5924,11,right,0.803,,1.5,0.3,"[2,3,1]",0.793222028,stimuli/card_100_transparent.png,100,11,0,11,0,1,,,,,,,,,,
,,,,650cbbfec37399108c60a734,A,2024-07-12_10h48.16.803,Slot Machine Game,2023.1.3,Win32,60.24096386,,,,,,,,,,,,,,,,,,,,,,,,,,,450,,,,,,,,,,,,,,,,,,,,,3,7,,,789.7245,12,right,0.5071,,1.5,0.3,"[2,3,1]",0.837697481,stimuli/card_100_transparent.png,100,12,0,12,0,1,,,,,,,,,,
,,,,650cbbfec37399108c60a734,A,2024-07-12_10h48.16.803,Slot Machine Game,2023.1.3,Win32,60.24096386,,,,,,,,,,,,,,,,,,,,,,,,,,,550,,,,,,,,,,,,,,,,,,,,,3,7,,,792.5404,13,right,0.472,,1.5,0.3,"[2,3,1]",0.841103543,stimuli/card_100_transparent.png,100,13,0,13,0,1,,,,,,,,,,
,,,,650cbbfec37399108c60a734,A,2024-07-12_10h48.16.803,Slot Machine Game,2023.1.3,Win32,60.24096386,,,,,,,,,,,,,,,,,,,,,,,,,,,560,,,,,,,,,,,,,,,,,,,,,3,7,,,795.3393,14,right,0.4057,,1,0.3,"[2,3,1]",0.191287669,stimuli/card_10_transparent.png,10,14,0,14,0,1,,,,,,,,,,
,,,,650cbbfec37399108c60a734,A,2024-07-12_10h48.16.803,Slot Machine Game,2023.1.3,Win32,60.24096386,,,,,,,,,,,,,,,,,,,,,,,,,,,,,,,,,,,797.5501,,,,,,,,,,,,,,,,,,,,,,,,,,,,,,,,,"[1210,1030,560]",2,0,2,0,1,,,,
,,,,650cbbfec37399108c60a734,A,2024-07-12_10h48.16.803,Slot Machine Game,2023.1.3,Win32,60.24096386,,,,,,,,,,,,,,,,,,,,,,,,,,,100,,,,,,,,,,,,,,,,,,,,,4,4,"[7,15]","[[2,3,1],[1,2,3]]",802.6,0,right,0.1344,,1.5,0.3,"[2,3,1]",0.470147323,stimuli/card_100_transparent.png,100,0,0,0,0,1,,,,,,,,,,
,,,,650cbbfec37399108c60a734,A,2024-07-12_10h48.16.803,Slot Machine Game,2023.1.3,Win32,60.24096386,,,,,,,,,,,,,,,,,,,,,,,,,,,200,,,,,,,,,,,,,,,,,,,,,4,4,,,805.0444,1,right,0.5473,,1,0.3,"[2,3,1]",0.762367266,stimuli/card_100_transparent.png,100,1,0,1,0,1,,,,,,,,,,
,,,,650cbbfec37399108c60a734,A,2024-07-12_10h48.16.803,Slot Machine Game,2023.1.3,Win32,60.24096386,,,,,,,,,,,,,,,,,,,,,,,,,,,300,,,,,,,,,,,,,,,,,,,,,4,4,,,807.4188,2,right,0.4022,,0.5,0.3,"[2,3,1]",0.58387546,stimuli/card_100_transparent.png,100,2,0,2,0,1,,,,,,,,,,
,,,,650cbbfec37399108c60a734,A,2024-07-12_10h48.16.803,Slot Machine Game,2023.1.3,Win32,60.24096386,,,,,,,,,,,,,,,,,,,,,,,,,,,400,,,,,,,,,,,,,,,,,,,,,4,4,,,809.1505,3,right,1.2162,,1,0.3,"[2,3,1]",0.79709329,stimuli/card_100_transparent.png,100,3,0,3,0,1,,,,,,,,,,
,,,,650cbbfec37399108c60a734,A,2024-07-12_10h48.16.803,Slot Machine Game,2023.1.3,Win32,60.24096386,,,,,,,,,,,,,,,,,,,,,,,,,,,500,,,,,,,,,,,,,,,,,,,,,4,4,,,812.2002,4,right,0.9072,,0.5,0.3,"[2,3,1]",0.868162304,stimuli/card_100_transparent.png,100,4,0,4,0,1,,,,,,,,,,
,,,,650cbbfec37399108c60a734,A,2024-07-12_10h48.16.803,Slot Machine Game,2023.1.3,Win32,60.24096386,,,,,,,,,,,,,,,,,,,,,,,,,,,500,,,,,,,,,,,,,,,,,,,,,4,4,,,814.4334,5,right,0.0205,,1.5,0.3,"[2,3,1]",0.003025825,stimuli/card_0_transparent.png,0,5,0,5,0,1,,,,,,,,,,
,,,,650cbbfec37399108c60a734,A,2024-07-12_10h48.16.803,Slot Machine Game,2023.1.3,Win32,60.24096386,,,,,,,,,,,,,,,,,,,,,,,,,,,510,,,,,,,,,,,,,,,,,,,,,4,4,,,816.7824,6,right,0.0686,,1.5,0.3,"[2,3,1]",0.199359412,stimuli/card_10_transparent.png,10,6,0,6,0,1,,,,,,,,,,
,,,,650cbbfec37399108c60a734,A,2024-07-12_10h48.16.803,Slot Machine Game,2023.1.3,Win32,60.24096386,,,,,,,,,,,,,,,,,,,,,,,,,,,520,,,,,,,,,,,,,,,,,,,,,4,4,,,819.1902,7,up,0.3463,,0.5,0.3,"[1,2,3]",0.863422026,stimuli/card_10_transparent.png,10,7,0,7,0,1,,,,,,,,,,
,,,,650cbbfec37399108c60a734,A,2024-07-12_10h48.16.803,Slot Machine Game,2023.1.3,Win32,60.24096386,,,,,,,,,,,,,,,,,,,,,,,,,,,620,,,,,,,,,,,,,,,,,,,,,4,4,,,820.865,8,up,0.4063,,0.5,0.3,"[1,2,3]",0.130021203,stimuli/card_100_transparent.png,100,8,0,8,0,1,,,,,,,,,,
,,,,650cbbfec37399108c60a734,A,2024-07-12_10h48.16.803,Slot Machine Game,2023.1.3,Win32,60.24096386,,,,,,,,,,,,,,,,,,,,,,,,,,,630,,,,,,,,,,,,,,,,,,,,,4,4,,,822.5963,9,up,0.4036,,1.5,0.3,"[1,2,3]",0.213742954,stimuli/card_10_transparent.png,10,9,0,9,0,1,,,,,,,,,,
,,,,650cbbfec37399108c60a734,A,2024-07-12_10h48.16.803,Slot Machine Game,2023.1.3,Win32,60.24096386,,,,,,,,,,,,,,,,,,,,,,,,,,,640,,,,,,,,,,,,,,,,,,,,,4,4,,,825.3293,10,up,0.0324,,1,0.3,"[1,2,3]",0.710022213,stimuli/card_10_transparent.png,10,10,0,10,0,1,,,,,,,,,,
,,,,650cbbfec37399108c60a734,A,2024-07-12_10h48.16.803,Slot Machine Game,2023.1.3,Win32,60.24096386,,,,,,,,,,,,,,,,,,,,,,,,,,,640,,,,,,,,,,,,,,,,,,,,,4,4,,,827.2088,11,up,0.2841,,1.5,0.3,"[1,2,3]",0.085677034,stimuli/card_0_transparent.png,0,11,0,11,0,1,,,,,,,,,,
,,,,650cbbfec37399108c60a734,A,2024-07-12_10h48.16.803,Slot Machine Game,2023.1.3,Win32,60.24096386,,,,,,,,,,,,,,,,,,,,,,,,,,,640,,,,,,,,,,,,,,,,,,,,,4,4,,,829.8029,12,right,0.3007,,1.5,0.3,"[1,2,3]",0.958662063,stimuli/card_0_transparent.png,0,12,0,12,0,1,,,,,,,,,,
,,,,650cbbfec37399108c60a734,A,2024-07-12_10h48.16.803,Slot Machine Game,2023.1.3,Win32,60.24096386,,,,,,,,,,,,,,,,,,,,,,,,,,,640,,,,,,,,,,,,,,,,,,,,,4,4,,,832.4151,13,right,0.617,,1.5,0.3,"[1,2,3]",0.637090282,stimuli/card_0_transparent.png,0,13,0,13,0,1,,,,,,,,,,
,,,,650cbbfec37399108c60a734,A,2024-07-12_10h48.16.803,Slot Machine Game,2023.1.3,Win32,60.24096386,,,,,,,,,,,,,,,,,,,,,,,,,,,740,,,,,,,,,,,,,,,,,,,,,4,4,,,835.3678,14,up,0.241,,1.5,0.3,"[1,2,3]",0.173309938,stimuli/card_100_transparent.png,100,14,0,14,0,1,,,,,,,,,,
,,,,650cbbfec37399108c60a734,A,2024-07-12_10h48.16.803,Slot Machine Game,2023.1.3,Win32,60.24096386,,,,,,,,,,,,,,,,,,,,,,,,,,,,,,,,,,,837.9071,,,,,,,,,,,,,,,,,,,,,,,,,,,,,,,,,"[1210,1030,560,740]",3,0,3,0,1,,,,
,,,,650cbbfec37399108c60a734,A,2024-07-12_10h48.16.803,Slot Machine Game,2023.1.3,Win32,60.24096386,,,,,,,,,,,,,,,,,,,,,,,,,,,10,,,,,,,,,,,,,,,,,,,,,5,6,"[4,10,15]","[[2,3,1],[1,3,2],[3,2,1]]",842.9804,0,left,0.8368,,1,0.3,"[2,3,1]",0.578923604,stimuli/card_10_transparent.png,10,0,0,0,0,1,,,,,,,,,,
,,,,650cbbfec37399108c60a734,A,2024-07-12_10h48.16.803,Slot Machine Game,2023.1.3,Win32,60.24096386,,,,,,,,,,,,,,,,,,,,,,,,,,,10,,,,,,,,,,,,,,,,,,,,,5,6,,,845.6289,1,up,0.0503,,1.5,0.3,"[2,3,1]",0.522833923,stimuli/card_0_transparent.png,0,1,0,1,0,1,,,,,,,,,,
,,,,650cbbfec37399108c60a734,A,2024-07-12_10h48.16.803,Slot Machine Game,2023.1.3,Win32,60.24096386,,,,,,,,,,,,,,,,,,,,,,,,,,,110,,,,,,,,,,,,,,,,,,,,,5,6,,,847.9879,2,right,0.0244,,0.5,0.3,"[2,3,1]",0.607535524,stimuli/card_100_transparent.png,100,2,0,2,0,1,,,,,,,,,,
,,,,650cbbfec37399108c60a734,A,2024-07-12_10h48.16.803,Slot Machine Game,2023.1.3,Win32,60.24096386,,,,,,,,,,,,,,,,,,,,,,,,,,,210,,,,,,,,,,,,,,,,,,,,,5,6,,,849.337,3,right,1.0853,,1,0.3,"[2,3,1]",0.236337424,stimuli/card_100_transparent.png,100,3,0,3,0,1,,,,,,,,,,
,,,,650cbbfec37399108c60a734,A,2024-07-12_10h48.16.803,Slot Machine Game,2023.1.3,Win32,60.24096386,,,,,,,,,,,,,,,,,,,,,,,,,,,210,,,,,,,,,,,,,,,,,,,,,5,6,,,852.2529,4,right,0.3352,,1,0.3,"[1,3,2]",0.00978073,stimuli/card_0_transparent.png,0,4,0,4,0,1,,,,,,,,,,
,,,,650cbbfec37399108c60a734,A,2024-07-12_10h48.16.803,Slot Machine Game,2023.1.3,Win32,60.24096386,,,,,,,,,,,,,,,,,,,,,,,,,,,220,,,,,,,,,,,,,,,,,,,,,5,6,,,854.4188,5,right,0.6659,,1,0.3,"[1,3,2]",0.813501412,stimuli/card_10_transparent.png,10,5,0,5,0,1,,,,,,,,,,
,,,,650cbbfec37399108c60a734,A,2024-07-12_10h48.16.803,Slot Machine Game,2023.1.3,Win32,60.24096386,,,,,,,,,,,,,,,,,,,,,,,,,,,230,,,,,,,,,,,,,,,,,,,,,5,6,,,856.9298,6,right,0.3848,,1.5,0.3,"[1,3,2]",0.469373155,stimuli/card_10_transparent.png,10,6,0,6,0,1,,,,,,,,,,
,,,,650cbbfec37399108c60a734,A,2024-07-12_10h48.16.803,Slot Machine Game,2023.1.3,Win32,60.24096386,,,,,,,,,,,,,,,,,,,,,,,,,,,230,,,,,,,,,,,,,,,,,,,,,5,6,,,859.6141,7,up,0.3186,,0.5,0.3,"[1,3,2]",0.618995523,stimuli/card_0_transparent.png,0,7,0,7,0,1,,,,,,,,,,
,,,,650cbbfec37399108c60a734,A,2024-07-12_10h48.16.803,Slot Machine Game,2023.1.3,Win32,60.24096386,,,,,,,,,,,,,,,,,,,,,,,,,,,240,,,,,,,,,,,,,,,,,,,,,5,6,,,861.2357,8,up,0.1007,,1.5,0.3,"[1,3,2]",0.131873403,stimuli/card_10_transparent.png,10,8,0,8,0,1,,,,,,,,,,
,,,,650cbbfec37399108c60a734,A,2024-07-12_10h48.16.803,Slot Machine Game,2023.1.3,Win32,60.24096386,,,,,,,,,,,,,,,,,,,,,,,,,,,340,,,,,,,,,,,,,,,,,,,,,5,6,,,863.6495,9,right,0.5343,,1.5,0.3,"[1,3,2]",0.161651477,stimuli/card_100_transparent.png,100,9,0,9,0,1,,,,,,,,,,
,,,,650cbbfec37399108c60a734,A,2024-07-12_10h48.16.803,Slot Machine Game,2023.1.3,Win32,60.24096386,,,,,,,,,,,,,,,,,,,,,,,,,,,440,,,,,,,,,,,,,,,,,,,,,5,6,,,866.5144,10,right,0.2323,,1,0.3,"[3,2,1]",0.962402075,stimuli/card_100_transparent.png,100,10,0,10,0,1,,,,,,,,,,
,,,,650cbbfec37399108c60a734,A,2024-07-12_10h48.16.803,Slot Machine Game,2023.1.3,Win32,60.24096386,,,,,,,,,,,,,,,,,,,,,,,,,,,540,,,,,,,,,,,,,,,,,,,,,5,6,,,868.5839,11,right,0.2199,,1,0.3,"[3,2,1]",0.212962231,stimuli/card_100_transparent.png,100,11,0,11,0,1,,,,,,,,,,
,,,,650cbbfec37399108c60a734,A,2024-07-12_10h48.16.803,Slot Machine Game,2023.1.3,Win32,60.24096386,,,,,,,,,,,,,,,,,,,,,,,,,,,640,,,,,,,,,,,,,,,,,,,,,5,6,,,870.6299,12,right,0.4752,,0.5,0.3,"[3,2,1]",0.833811146,stimuli/card_100_transparent.png,100,12,0,12,0,1,,,,,,,,,,
,,,,650cbbfec37399108c60a734,A,2024-07-12_10h48.16.803,Slot Machine Game,2023.1.3,Win32,60.24096386,,,,,,,,,,,,,,,,,,,,,,,,,,,640,,,,,,,,,,,,,,,,,,,,,5,6,,,872.4299,13,right,2.6054,,1.5,0.3,"[3,2,1]",0.090083149,stimuli/card_0_transparent.png,0,13,0,13,0,1,,,,,,,,,,
,,,,650cbbfec37399108c60a734,A,2024-07-12_10h48.16.803,Slot Machine Game,2023.1.3,Win32,60.24096386,,,,,,,,,,,,,,,,,,,,,,,,,,,740,,,,,,,,,,,,,,,,,,,,,5,6,,,877.362,14,right,0.1637,,1,0.3,"[3,2,1]",0.341506737,stimuli/card_100_transparent.png,100,14,0,14,0,1,,,,,,,,,,
,,,,650cbbfec37399108c60a734,A,2024-07-12_10h48.16.803,Slot Machine Game,2023.1.3,Win32,60.24096386,,,,,,,,,,,,,,,,,,,,,,,,,,,,,,,,,,,879.3609,,,,,,,,,,,,,,,,,,,,,,,,,,,,,,,,,"[1210,1030,560,740,740]",4,0,4,0,1,,,,
,,,,650cbbfec37399108c60a734,A,2024-07-12_10h48.16.803,Slot Machine Game,2023.1.3,Win32,60.24096386,,,,,,,,,,,,,,,,,,,,,,,,,,,100,,,,,,,,,,,,,,,,,,,,,6,8,"[11,15]","[[2,1,3],[1,2,3]]",884.4209,0,up,0.6543,,0.5,0.3,"[2,1,3]",0.922492216,stimuli/card_100_transparent.png,100,0,0,0,0,1,,,,,,,,,,
,,,,650cbbfec37399108c60a734,A,2024-07-12_10h48.16.803,Slot Machine Game,2023.1.3,Win32,60.24096386,,,,,,,,,,,,,,,,,,,,,,,,,,,200,,,,,,,,,,,,,,,,,,,,,6,8,,,886.3812,1,up,0.1707,,1,0.3,"[2,1,3]",0.531096788,stimuli/card_100_transparent.png,100,1,0,1,0,1,,,,,,,,,,
,,,,650cbbfec37399108c60a734,A,2024-07-12_10h48.16.803,Slot Machine Game,2023.1.3,Win32,60.24096386,,,,,,,,,,,,,,,,,,,,,,,,,,,300,,,,,,,,,,,,,,,,,,,,,6,8,,,888.3742,2,up,0.0015,,0.5,0.3,"[2,1,3]",0.992279672,stimuli/card_100_transparent.png,100,2,0,2,0,1,,,,,,,,,,
,,,,650cbbfec37399108c60a734,A,2024-07-12_10h48.16.803,Slot Machine Game,2023.1.3,Win32,60.24096386,,,,,,,,,,,,,,,,,,,,,,,,,,,400,,,,,,,,,,,,,,,,,,,,,6,8,,,889.7073,3,up,1.2509,,1.5,0.3,"[2,1,3]",0.487433708,stimuli/card_100_transparent.png,100,3,0,3,0,1,,,,,,,,,,
,,,,650cbbfec37399108c60a734,A,2024-07-12_10h48.16.803,Slot Machine Game,2023.1.3,Win32,60.24096386,,,,,,,,,,,,,,,,,,,,,,,,,,,500,,,,,,,,,,,,,,,,,,,,,6,8,,,893.2887,4,up,0.8829,,0.5,0.3,"[2,1,3]",0.321526057,stimuli/card_100_transparent.png,100,4,0,4,0,1,,,,,,,,,,
,,,,650cbbfec37399108c60a734,A,2024-07-12_10h48.16.803,Slot Machine Game,2023.1.3,Win32,60.24096386,,,,,,,,,,,,,,,,,,,,,,,,,,,600,,,,,,,,,,,,,,,,,,,,,6,8,,,895.4885,5,up,0.0629,,1.5,0.3,"[2,1,3]",0.721793658,stimuli/card_100_transparent.png,100,5,0,5,0,1,,,,,,,,,,
,,,,650cbbfec37399108c60a734,A,2024-07-12_10h48.16.803,Slot Machine Game,2023.1.3,Win32,60.24096386,,,,,,,,,,,,,,,,,,,,,,,,,,,700,,,,,,,,,,,,,,,,,,,,,6,8,,,897.8878,6,up,0.3478,,0.5,0.3,"[2,1,3]",0.415435893,stimuli/card_100_transparent.png,100,6,0,6,0,1,,,,,,,,,,
,,,,650cbbfec37399108c60a734,A,2024-07-12_10h48.16.803,Slot Machine Game,2023.1.3,Win32,60.24096386,,,,,,,,,,,,,,,,,,,,,,,,,,,800,,,,,,,,,,,,,,,,,,,,,6,8,,,899.571,7,up,0.1849,,1,0.3,"[2,1,3]",0.34079369,stimuli/card_100_transparent.png,100,7,0,7,0,1,,,,,,,,,,
,,,,650cbbfec37399108c60a734,A,2024-07-12_10h48.16.803,Slot Machine Game,2023.1.3,Win32,60.24096386,,,,,,,,,,,,,,,,,,,,,,,,,,,900,,,,,,,,,,,,,,,,,,,,,6,8,,,901.5864,8,up,1.5726,,1.5,0.3,"[2,1,3]",0.756580511,stimuli/card_100_transparent.png,100,8,0,8,0,1,,,,,,,,,,
,,,,650cbbfec37399108c60a734,A,2024-07-12_10h48.16.803,Slot Machine Game,2023.1.3,Win32,60.24096386,,,,,,,,,,,,,,,,,,,,,,,,,,,1000,,,,,,,,,,,,,,,,,,,,,6,8,,,905.4853,9,up,0.0662,,1.5,0.3,"[2,1,3]",0.214892991,stimuli/card_100_transparent.png,100,9,0,9,0,1,,,,,,,,,,
,,,,650cbbfec37399108c60a734,A,2024-07-12_10h48.16.803,Slot Machine Game,2023.1.3,Win32,60.24096386,,,,,,,,,,,,,,,,,,,,,,,,,,,1100,,,,,,,,,,,,,,,,,,,,,6,8,,,907.8842,10,up,0.4967,,1,0.3,"[2,1,3]",0.943969216,stimuli/card_100_transparent.png,100,10,0,10,0,1,,,,,,,,,,
,,,,650cbbfec37399108c60a734,A,2024-07-12_10h48.16.803,Slot Machine Game,2023.1.3,Win32,60.24096386,,,,,,,,,,,,,,,,,,,,,,,,,,,1110,,,,,,,,,,,,,,,,,,,,,6,8,,,910.2201,11,up,0.1905,,1.5,0.3,"[1,2,3]",0.725426431,stimuli/card_10_transparent.png,10,11,0,11,0,1,,,,,,,,,,
,,,,650cbbfec37399108c60a734,A,2024-07-12_10h48.16.803,Slot Machine Game,2023.1.3,Win32,60.24096386,,,,,,,,,,,,,,,,,,,,,,,,,,,1120,,,,,,,,,,,,,,,,,,,,,6,8,,,912.7257,12,up,0.1678,,0.5,0.3,"[1,2,3]",0.888461863,stimuli/card_10_transparent.png,10,12,0,12,0,1,,,,,,,,,,
,,,,650cbbfec37399108c60a734,A,2024-07-12_10h48.16.803,Slot Machine Game,2023.1.3,Win32,60.24096386,,,,,,,,,,,,,,,,,,,,,,,,,,,1120,,,,,,,,,,,,,,,,,,,,,6,8,,,914.1913,13,right,0.367,,1.5,0.3,"[1,2,3]",0.439918446,stimuli/card_0_transparent.png,0,13,0,13,0,1,,,,,,,,,,
,,,,650cbbfec37399108c60a734,A,2024-07-12_10h48.16.803,Slot Machine Game,2023.1.3,Win32,60.24096386,,,,,,,,,,,,,,,,,,,,,,,,,,,1130,,,,,,,,,,,,,,,,,,,,,6,8,,,916.8818,14,up,0.3821,,1,0.3,"[1,2,3]",0.320023456,stimuli/card_10_transparent.png,10,14,0,14,0,1,,,,,,,,,,
,,,,650cbbfec37399108c60a734,A,2024-07-12_10h48.16.803,Slot Machine Game,2023.1.3,Win32,60.24096386,,,,,,,,,,,,,,,,,,,,,,,,,,,,,,,,,,,919.0895,,,,,,,,,,,,,,,,,,,,,,,,,,,,,,,,,"[1210,1030,560,740,740,1130]",5,0,5,0,1,,,,
,,,,650cbbfec37399108c60a734,A,2024-07-12_10h48.16.803,Slot Machine Game,2023.1.3,Win32,60.24096386,,,,,,,,,,,,,,,,,,,,,,,,,,,10,,,,,,,,,,,,,,,,,,,,,7,9,"[8,15]","[[3,2,1],[3,1,2]]",924.139,0,up,0.2106,,0.5,0.3,"[3,2,1]",0.358667291,stimuli/card_10_transparent.png,10,0,0,0,0,1,,,,,,,,,,
,,,,650cbbfec37399108c60a734,A,2024-07-12_10h48.16.803,Slot Machine Game,2023.1.3,Win32,60.24096386,,,,,,,,,,,,,,,,,,,,,,,,,,,110,,,,,,,,,,,,,,,,,,,,,7,9,,,925.6944,1,right,1.3982,,0.5,0.3,"[3,2,1]",0.895217253,stimuli/card_100_transparent.png,100,1,0,1,0,1,,,,,,,,,,
,,,,650cbbfec37399108c60a734,A,2024-07-12_10h48.16.803,Slot Machine Game,2023.1.3,Win32,60.24096386,,,,,,,,,,,,,,,,,,,,,,,,,,,210,,,,,,,,,,,,,,,,,,,,,7,9,,,928.4105,2,right,0.3573,,0.5,0.3,"[3,2,1]",0.400950636,stimuli/card_100_transparent.png,100,2,0,2,0,1,,,,,,,,,,
,,,,650cbbfec37399108c60a734,A,2024-07-12_10h48.16.803,Slot Machine Game,2023.1.3,Win32,60.24096386,,,,,,,,,,,,,,,,,,,,,,,,,,,310,,,,,,,,,,,,,,,,,,,,,7,9,,,930.0938,3,right,0.0357,,1.5,0.3,"[3,2,1]",0.321082707,stimuli/card_100_transparent.png,100,3,0,3,0,1,,,,,,,,,,
,,,,650cbbfec37399108c60a734,A,2024-07-12_10h48.16.803,Slot Machine Game,2023.1.3,Win32,60.24096386,,,,,,,,,,,,,,,,,,,,,,,,,,,410,,,,,,,,,,,,,,,,,,,,,7,9,,,932.4589,4,right,0.2496,,0.5,0.3,"[3,2,1]",0.733695971,stimuli/card_100_transparent.png,100,4,0,4,0,1,,,,,,,,,,
,,,,650cbbfec37399108c60a734,A,2024-07-12_10h48.16.803,Slot Machine Game,2023.1.3,Win32,60.24096386,,,,,,,,,,,,,,,,,,,,,,,,,,,510,,,,,,,,,,,,,,,,,,,,,7,9,,,934.0422,5,right,0.1196,,0.5,0.3,"[3,2,1]",0.530652882,stimuli/card_100_transparent.png,100,5,0,5,0,1,,,,,,,,,,
,,,,650cbbfec37399108c60a734,A,2024-07-12_10h48.16.803,Slot Machine Game,2023.1.3,Win32,60.24096386,,,,,,,,,,,,,,,,,,,,,,,,,,,610,,,,,,,,,,,,,,,,,,,,,7,9,,,935.5084,6,right,0.5408,,1.5,0.3,"[3,2,1]",0.536767814,stimuli/card_100_transparent.png,100,6,0,6,0,1,,,,,,,,,,
,,,,650cbbfec37399108c60a734,A,2024-07-12_10h48.16.803,Slot Machine Game,2023.1.3,Win32,60.24096386,,,,,,,,,,,,,,,,,,,,,,,,,,,710,,,,,,,,,,,,,,,,,,,,,7,9,,,938.3748,7,right,0.0015,,1,0.3,"[3,2,1]",0.696695913,stimuli/card_100_transparent.png,100,7,0,7,0,1,,,,,,,,,,
,,,,650cbbfec37399108c60a734,A,2024-07-12_10h48.16.803,Slot Machine Game,2023.1.3,Win32,60.24096386,,,,,,,,,,,,,,,,,,,,,,,,,,,720,,,,,,,,,,,,,,,,,,,,,7,9,,,940.2157,8,right,0.6737,,1,0.3,"[3,1,2]",0.279981772,stimuli/card_10_transparent.png,10,8,0,8,0,1,,,,,,,,,,
,,,,650cbbfec37399108c60a734,A,2024-07-12_10h48.16.803,Slot Machine Game,2023.1.3,Win32,60.24096386,,,,,,,,,,,,,,,,,,,,,,,,,,,730,,,,,,,,,,,,,,,,,,,,,7,9,,,942.712,9,right,0.3991,,0.5,0.3,"[3,1,2]",0.876148187,stimuli/card_10_transparent.png,10,9,0,9,0,1,,,,,,,,,,
,,,,650cbbfec37399108c60a734,A,2024-07-12_10h48.16.803,Slot Machine Game,2023.1.3,Win32,60.24096386,,,,,,,,,,,,,,,,,,,,,,,,,,,730,,,,,,,,,,,,,,,,,,,,,7,9,,,944.4519,10,up,0.6344,,0.5,0.3,"[3,1,2]",0.007360539,stimuli/card_0_transparent.png,0,10,0,10,0,1,,,,,,,,,,
,,,,650cbbfec37399108c60a734,A,2024-07-12_10h48.16.803,Slot Machine Game,2023.1.3,Win32,60.24096386,,,,,,,,,,,,,,,,,,,,,,,,,,,740,,,,,,,,,,,,,,,,,,,,,7,9,,,946.4038,11,right,0.3504,,1.5,0.3,"[3,1,2]",0.586188016,stimuli/card_10_transparent.png,10,11,0,11,0,1,,,,,,,,,,
,,,,650cbbfec37399108c60a734,A,2024-07-12_10h48.16.803,Slot Machine Game,2023.1.3,Win32,60.24096386,,,,,,,,,,,,,,,,,,,,,,,,,,,750,,,,,,,,,,,,,,,,,,,,,7,9,,,949.0869,12,right,0.7422,,0.5,0.3,"[3,1,2]",0.578037868,stimuli/card_10_transparent.png,10,12,0,12,0,1,,,,,,,,,,
,,,,650cbbfec37399108c60a734,A,2024-07-12_10h48.16.803,Slot Machine Game,2023.1.3,Win32,60.24096386,,,,,,,,,,,,,,,,,,,,,,,,,,,760,,,,,,,,,,,,,,,,,,,,,7,9,,,951.1524,13,right,3.9383,,0.5,0.3,"[3,1,2]",0.48375173,stimuli/card_10_transparent.png,10,13,0,13,0,1,,,,,,,,,,
,,,,650cbbfec37399108c60a734,A,2024-07-12_10h48.16.803,Slot Machine Game,2023.1.3,Win32,60.24096386,,,,,,,,,,,,,,,,,,,,,,,,,,,770,,,,,,,,,,,,,,,,,,,,,7,9,,,956.4173,14,right,2.8481,,1.5,0.3,"[3,1,2]",0.70680668,stimuli/card_10_transparent.png,10,14,0,14,0,1,,,,,,,,,,
,,,,650cbbfec37399108c60a734,A,2024-07-12_10h48.16.803,Slot Machine Game,2023.1.3,Win32,60.24096386,,,,,,,,,,,,,,,,,,,,,,,,,,,,,,,,,,,961.569,,,,,,,,,,,,,,,,,,,,,,,,,,,,,,,,,"[1210,1030,560,740,740,1130,770]",6,0,6,0,1,,,,
,,,,650cbbfec37399108c60a734,A,2024-07-12_10h48.16.803,Slot Machine Game,2023.1.3,Win32,60.24096386,,,,,,,,,,,,,,,,,,,,,,,,,,,10,,,,,,,,,,,,,,,,,,,,,8,2,"[6,15]","[[1,3,2],[3,2,1]]",966.6245,0,right,1.5171,,0.5,0.3,"[1,3,2]",0.802785332,stimuli/card_10_transparent.png,10,0,0,0,0,1,,,,,,,,,,
,,,,650cbbfec37399108c60a734,A,2024-07-12_10h48.16.803,Slot Machine Game,2023.1.3,Win32,60.24096386,,,,,,,,,,,,,,,,,,,,,,,,,,,10,,,,,,,,,,,,,,,,,,,,,8,2,,,969.4893,1,up,0.3528,,0.5,0.3,"[1,3,2]",0.991138267,stimuli/card_0_transparent.png,0,1,0,1,0,1,,,,,,,,,,
,,,,650cbbfec37399108c60a734,A,2024-07-12_10h48.16.803,Slot Machine Game,2023.1.3,Win32,60.24096386,,,,,,,,,,,,,,,,,,,,,,,,,,,,,,,,,,,,,,,,,,,,,,,,8,2,,,971.1689,2,,,,0.5,0.3,,,,,2,0,2,0,1,,,,,,,,,,
,,,,650cbbfec37399108c60a734,A,2024-07-12_10h48.16.803,Slot Machine Game,2023.1.3,Win32,60.24096386,,,,,,,,,,,,,,,,,,,,,,,,,,,,,,,,,,,,,,,,,,,,,,,,8,2,,,976.6808,3,,,,1,0.3,,,,,3,0,3,0,1,,,,,,,,,,
,,,,650cbbfec37399108c60a734,A,2024-07-12_10h48.16.803,Slot Machine Game,2023.1.3,Win32,60.24096386,,,,,,,,,,,,,,,,,,,,,,,,,,,10,,,,,,,,,,,,,,,,,,,,,8,2,,,982.1935,4,up,1.7746,,0.5,0.3,"[1,3,2]",0.8802429,stimuli/card_0_transparent.png,0,4,0,4,0,1,,,,,,,,,,
,,,,650cbbfec37399108c60a734,A,2024-07-12_10h48.16.803,Slot Machine Game,2023.1.3,Win32,60.24096386,,,,,,,,,,,,,,,,,,,,,,,,,,,20,,,,,,,,,,,,,,,,,,,,,8,2,,,985.3024,5,right,0.0664,,0.5,0.3,"[1,3,2]",0.759535222,stimuli/card_10_transparent.png,10,5,0,5,0,1,,,,,,,,,,
,,,,650cbbfec37399108c60a734,A,2024-07-12_10h48.16.803,Slot Machine Game,2023.1.3,Win32,60.24096386,,,,,,,,,,,,,,,,,,,,,,,,,,,30,,,,,,,,,,,,,,,,,,,,,8,2,,,986.6735,6,up,0.0019,,1,0.3,"[3,2,1]",0.840616619,stimuli/card_10_transparent.png,10,6,0,6,0,1,,,,,,,,,,
,,,,650cbbfec37399108c60a734,A,2024-07-12_10h48.16.803,Slot Machine Game,2023.1.3,Win32,60.24096386,,,,,,,,,,,,,,,,,,,,,,,,,,,30,,,,,,,,,,,,,,,,,,,,,8,2,,,988.5232,7,left,0.456,,0.5,0.3,"[3,2,1]",0.410955613,stimuli/card_0_transparent.png,0,7,0,7,0,1,,,,,,,,,,
,,,,650cbbfec37399108c60a734,A,2024-07-12_10h48.16.803,Slot Machine Game,2023.1.3,Win32,60.24096386,,,,,,,,,,,,,,,,,,,,,,,,,,,130,,,,,,,,,,,,,,,,,,,,,8,2,,,990.2988,8,right,0.155,,1.5,0.3,"[3,2,1]",0.722225711,stimuli/card_100_transparent.png,100,8,0,8,0,1,,,,,,,,,,
,,,,650cbbfec37399108c60a734,A,2024-07-12_10h48.16.803,Slot Machine Game,2023.1.3,Win32,60.24096386,,,,,,,,,,,,,,,,,,,,,,,,,,,230,,,,,,,,,,,,,,,,,,,,,8,2,,,992.7884,9,right,0.4001,,1,0.3,"[3,2,1]",0.94830713,stimuli/card_100_transparent.png,100,9,0,9,0,1,,,,,,,,,,
,,,,650cbbfec37399108c60a734,A,2024-07-12_10h48.16.803,Slot Machine Game,2023.1.3,Win32,60.24096386,,,,,,,,,,,,,,,,,,,,,,,,,,,330,,,,,,,,,,,,,,,,,,,,,8,2,,,995.0139,10,right,0.4623,,1.5,0.3,"[3,2,1]",0.774432871,stimuli/card_100_transparent.png,100,10,0,10,0,1,,,,,,,,,,
,,,,650cbbfec37399108c60a734,A,2024-07-12_10h48.16.803,Slot Machine Game,2023.1.3,Win32,60.24096386,,,,,,,,,,,,,,,,,,,,,,,,,,,430,,,,,,,,,,,,,,,,,,,,,8,2,,,997.8039,11,right,0.1299,,0.5,0.3,"[3,2,1]",0.95876528,stimuli/card_100_transparent.png,100,11,0,11,0,1,,,,,,,,,,
,,,,650cbbfec37399108c60a734,A,2024-07-12_10h48.16.803,Slot Machine Game,2023.1.3,Win32,60.24096386,,,,,,,,,,,,,,,,,,,,,,,,,,,530,,,,,,,,,,,,,,,,,,,,,8,2,,,999.2361,12,right,0.3654,,0.5,0.3,"[3,2,1]",0.766880882,stimuli/card_100_transparent.png,100,12,0,12,0,1,,,,,,,,,,
,,,,650cbbfec37399108c60a734,A,2024-07-12_10h48.16.803,Slot Machine Game,2023.1.3,Win32,60.24096386,,,,,,,,,,,,,,,,,,,,,,,,,,,630,,,,,,,,,,,,,,,,,,,,,8,2,,,1000.9208,13,right,3.6826,,1,0.3,"[3,2,1]",0.565664883,stimuli/card_100_transparent.png,100,13,0,13,0,1,,,,,,,,,,
,,,,650cbbfec37399108c60a734,A,2024-07-12_10h48.16.803,Slot Machine Game,2023.1.3,Win32,60.24096386,,,,,,,,,,,,,,,,,,,,,,,,,,,730,,,,,,,,,,,,,,,,,,,,,8,2,,,1006.4346,14,right,2.8532,,0.5,0.3,"[3,2,1]",0.528694057,stimuli/card_100_transparent.png,100,14,0,14,0,1,,,,,,,,,,
,,,,650cbbfec37399108c60a734,A,2024-07-12_10h48.16.803,Slot Machine Game,2023.1.3,Win32,60.24096386,,,,,,,,,,,,,,,,,,,,,,,,,,,,,,,,,,,1010.6131,,,,,,,,,,,,,,,,,,,,,,,,,,,,,,,,,"[1210,1030,560,740,740,1130,770,730]",7,0,7,0,1,,,,
,,,,650cbbfec37399108c60a734,A,2024-07-12_10h48.16.803,Slot Machine Game,2023.1.3,Win32,60.24096386,,,,,,,,,,,,,,,,,,,,,,,,,,,10,,,,,,,,,,,,,,,,,,,,,9,10,"[10,15]","[[3,1,2],[1,3,2]]",1015.6847,0,right,2.867,,1.5,0.3,"[3,1,2]",0.925996125,stimuli/card_10_transparent.png,10,0,0,0,0,1,,,,,,,,,,
,,,,650cbbfec37399108c60a734,A,2024-07-12_10h48.16.803,Slot Machine Game,2023.1.3,Win32,60.24096386,,,,,,,,,,,,,,,,,,,,,,,,,,,110,,,,,,,,,,,,,,,,,,,,,9,10,,,1020.8883,1,up,0.6618,,1,0.3,"[3,1,2]",0.960839328,stimuli/card_100_transparent.png,100,1,0,1,0,1,,,,,,,,,,
,,,,650cbbfec37399108c60a734,A,2024-07-12_10h48.16.803,Slot Machine Game,2023.1.3,Win32,60.24096386,,,,,,,,,,,,,,,,,,,,,,,,,,,210,,,,,,,,,,,,,,,,,,,,,9,10,,,1023.3712,2,up,0.1727,,1,0.3,"[3,1,2]",0.900956208,stimuli/card_100_transparent.png,100,2,0,2,0,1,,,,,,,,,,
,,,,650cbbfec37399108c60a734,A,2024-07-12_10h48.16.803,Slot Machine Game,2023.1.3,Win32,60.24096386,,,,,,,,,,,,,,,,,,,,,,,,,,,310,,,,,,,,,,,,,,,,,,,,,9,10,,,1025.3873,3,up,0.1507,,1.5,0.3,"[3,1,2]",0.778411981,stimuli/card_100_transparent.png,100,3,0,3,0,1,,,,,,,,,,
,,,,650cbbfec37399108c60a734,A,2024-07-12_10h48.16.803,Slot Machine Game,2023.1.3,Win32,60.24096386,,,,,,,,,,,,,,,,,,,,,,,,,,,320,,,,,,,,,,,,,,,,,,,,,9,10,,,1027.8603,4,up,0.463,,0.5,0.3,"[3,1,2]",0.122101525,stimuli/card_10_transparent.png,10,4,0,4,0,1,,,,,,,,,,
,,,,650cbbfec37399108c60a734,A,2024-07-12_10h48.16.803,Slot Machine Game,2023.1.3,Win32,60.24096386,,,,,,,,,,,,,,,,,,,,,,,,,,,420,,,,,,,,,,,,,,,,,,,,,9,10,,,1029.6594,5,up,0.7339,,1.5,0.3,"[3,1,2]",0.545929958,stimuli/card_100_transparent.png,100,5,0,5,0,1,,,,,,,,,,
,,,,650cbbfec37399108c60a734,A,2024-07-12_10h48.16.803,Slot Machine Game,2023.1.3,Win32,60.24096386,,,,,,,,,,,,,,,,,,,,,,,,,,,520,,,,,,,,,,,,,,,,,,,,,9,10,,,1032.698,6,up,0.0766,,1,0.3,"[3,1,2]",0.343228429,stimuli/card_100_transparent.png,100,6,0,6,0,1,,,,,,,,,,
,,,,650cbbfec37399108c60a734,A,2024-07-12_10h48.16.803,Slot Machine Game,2023.1.3,Win32,60.24096386,,,,,,,,,,,,,,,,,,,,,,,,,,,520,,,,,,,,,,,,,,,,,,,,,9,10,,,1034.5667,7,up,1.0006,,1,0.3,"[3,1,2]",0.074673785,stimuli/card_0_transparent.png,0,7,0,7,0,1,,,,,,,,,,
,,,,650cbbfec37399108c60a734,A,2024-07-12_10h48.16.803,Slot Machine Game,2023.1.3,Win32,60.24096386,,,,,,,,,,,,,,,,,,,,,,,,,,,620,,,,,,,,,,,,,,,,,,,,,9,10,,,1037.366,8,up,0.3038,,0.5,0.3,"[3,1,2]",0.220186958,stimuli/card_100_transparent.png,100,8,0,8,0,1,,,,,,,,,,
,,,,650cbbfec37399108c60a734,A,2024-07-12_10h48.16.803,Slot Machine Game,2023.1.3,Win32,60.24096386,,,,,,,,,,,,,,,,,,,,,,,,,,,720,,,,,,,,,,,,,,,,,,,,,9,10,,,1038.999,9,up,0.2345,,1,0.3,"[3,1,2]",0.755216767,stimuli/card_100_transparent.png,100,9,0,9,0,1,,,,,,,,,,
,,,,650cbbfec37399108c60a734,A,2024-07-12_10h48.16.803,Slot Machine Game,2023.1.3,Win32,60.24096386,,,,,,,,,,,,,,,,,,,,,,,,,,,720,,,,,,,,,,,,,,,,,,,,,9,10,,,1041.0568,10,up,1.4004,,0.5,0.3,"[1,3,2]",0.900614962,stimuli/card_0_transparent.png,0,10,0,10,0,1,,,,,,,,,,
,,,,650cbbfec37399108c60a734,A,2024-07-12_10h48.16.803,Slot Machine Game,2023.1.3,Win32,60.24096386,,,,,,,,,,,,,,,,,,,,,,,,,,,820,,,,,,,,,,,,,,,,,,,,,9,10,,,1043.7888,11,right,0.0164,,1.5,0.3,"[1,3,2]",0.188687579,stimuli/card_100_transparent.png,100,11,0,11,0,1,,,,,,,,,,
,,,,650cbbfec37399108c60a734,A,2024-07-12_10h48.16.803,Slot Machine Game,2023.1.3,Win32,60.24096386,,,,,,,,,,,,,,,,,,,,,,,,,,,830,,,,,,,,,,,,,,,,,,,,,9,10,,,1046.1369,12,right,2.3072,,1.5,0.3,"[1,3,2]",0.758819111,stimuli/card_10_transparent.png,10,12,0,12,0,1,,,,,,,,,,
,,,,650cbbfec37399108c60a734,A,2024-07-12_10h48.16.803,Slot Machine Game,2023.1.3,Win32,60.24096386,,,,,,,,,,,,,,,,,,,,,,,,,,,830,,,,,,,,,,,,,,,,,,,,,9,10,,,1050.7685,13,up,0.1212,,0.5,0.3,"[1,3,2]",0.939289223,stimuli/card_0_transparent.png,0,13,0,13,0,1,,,,,,,,,,
,,,,650cbbfec37399108c60a734,A,2024-07-12_10h48.16.803,Slot Machine Game,2023.1.3,Win32,60.24096386,,,,,,,,,,,,,,,,,,,,,,,,,,,840,,,,,,,,,,,,,,,,,,,,,9,10,,,1052.2037,14,right,0.1156,,1,0.3,"[1,3,2]",0.989510813,stimuli/card_10_transparent.png,10,14,0,14,0,1,,,,,,,,,,
,,,,650cbbfec37399108c60a734,A,2024-07-12_10h48.16.803,Slot Machine Game,2023.1.3,Win32,60.24096386,,,,,,,,,,,,,,,,,,,,,,,,,,,,,,,,,,,1054.1516,,,,,,,,,,,,,,,,,,,,,,,,,,,,,,,,,"[1210,1030,560,740,740,1130,770,730,840]",8,0,8,0,1,,,,
,,,,650cbbfec37399108c60a734,A,2024-07-12_10h48.16.803,Slot Machine Game,2023.1.3,Win32,60.24096386,,,,,,,,,,,,,,,,,,,,,,,,,,,100,,,,,,,,,,,,,,,,,,,,,10,3,"[15,15]","[[3,1,2],[3,1,2]]",1059.2121,0,up,0.1912,,1,0.3,"[3,1,2]",0.430950991,stimuli/card_100_transparent.png,100,0,0,0,0,1,,,,,,,,,,
,,,,650cbbfec37399108c60a734,A,2024-07-12_10h48.16.803,Slot Machine Game,2023.1.3,Win32,60.24096386,,,,,,,,,,,,,,,,,,,,,,,,,,,200,,,,,,,,,,,,,,,,,,,,,10,3,,,1061.2422,1,up,0.5472,,0.5,0.3,"[3,1,2]",0.750242186,stimuli/card_100_transparent.png,100,1,0,1,0,1,,,,,,,,,,
,,,,650cbbfec37399108c60a734,A,2024-07-12_10h48.16.803,Slot Machine Game,2023.1.3,Win32,60.24096386,,,,,,,,,,,,,,,,,,,,,,,,,,,300,,,,,,,,,,,,,,,,,,,,,10,3,,,1063.098,2,up,0.6075,,1,0.3,"[3,1,2]",0.694912424,stimuli/card_100_transparent.png,100,2,0,2,0,1,,,,,,,,,,
,,,,650cbbfec37399108c60a734,A,2024-07-12_10h48.16.803,Slot Machine Game,2023.1.3,Win32,60.24096386,,,,,,,,,,,,,,,,,,,,,,,,,,,400,,,,,,,,,,,,,,,,,,,,,10,3,,,1065.5308,3,up,0.3868,,1.5,0.3,"[3,1,2]",0.388394979,stimuli/card_100_transparent.png,100,3,0,3,0,1,,,,,,,,,,
,,,,650cbbfec37399108c60a734,A,2024-07-12_10h48.16.803,Slot Machine Game,2023.1.3,Win32,60.24096386,,,,,,,,,,,,,,,,,,,,,,,,,,,500,,,,,,,,,,,,,,,,,,,,,10,3,,,1068.2463,4,up,0.1522,,1.5,0.3,"[3,1,2]",0.967036187,stimuli/card_100_transparent.png,100,4,0,4,0,1,,,,,,,,,,
,,,,650cbbfec37399108c60a734,A,2024-07-12_10h48.16.803,Slot Machine Game,2023.1.3,Win32,60.24096386,,,,,,,,,,,,,,,,,,,,,,,,,,,600,,,,,,,,,,,,,,,,,,,,,10,3,,,1070.729,5,up,0.4719,,1.5,0.3,"[3,1,2]",0.381823594,stimuli/card_100_transparent.png,100,5,0,5,0,1,,,,,,,,,,
,,,,650cbbfec37399108c60a734,A,2024-07-12_10h48.16.803,Slot Machine Game,2023.1.3,Win32,60.24096386,,,,,,,,,,,,,,,,,,,,,,,,,,,610,,,,,,,,,,,,,,,,,,,,,10,3,,,1073.5275,6,up,0.4733,,0.5,0.3,"[3,1,2]",0.182048251,stimuli/card_10_transparent.png,10,6,0,6,0,1,,,,,,,,,,
,,,,650cbbfec37399108c60a734,A,2024-07-12_10h48.16.803,Slot Machine Game,2023.1.3,Win32,60.24096386,,,,,,,,,,,,,,,,,,,,,,,,,,,710,,,,,,,,,,,,,,,,,,,,,10,3,,,1075.3225,7,up,1.0628,,0.5,0.3,"[3,1,2]",0.709186876,stimuli/card_100_transparent.png,100,7,0,7,0,1,,,,,,,,,,
,,,,650cbbfec37399108c60a734,A,2024-07-12_10h48.16.803,Slot Machine Game,2023.1.3,Win32,60.24096386,,,,,,,,,,,,,,,,,,,,,,,,,,,710,,,,,,,,,,,,,,,,,,,,,10,3,,,1077.7045,8,up,0.7319,,1,0.3,"[3,1,2]",0.013434788,stimuli/card_0_transparent.png,0,8,0,8,0,1,,,,,,,,,,
,,,,650cbbfec37399108c60a734,A,2024-07-12_10h48.16.803,Slot Machine Game,2023.1.3,Win32,60.24096386,,,,,,,,,,,,,,,,,,,,,,,,,,,710,,,,,,,,,,,,,,,,,,,,,10,3,,,1080.2601,9,up,0.4853,,1,0.3,"[3,1,2]",0.046803522,stimuli/card_0_transparent.png,0,9,0,9,0,1,,,,,,,,,,
,,,,650cbbfec37399108c60a734,A,2024-07-12_10h48.16.803,Slot Machine Game,2023.1.3,Win32,60.24096386,,,,,,,,,,,,,,,,,,,,,,,,,,,720,,,,,,,,,,,,,,,,,,,,,10,3,,,1082.5745,10,right,0.0801,,1,0.3,"[3,1,2]",0.371338102,stimuli/card_10_transparent.png,10,10,0,10,0,1,,,,,,,,,,
,,,,650cbbfec37399108c60a734,A,2024-07-12_10h48.16.803,Slot Machine Game,2023.1.3,Win32,60.24096386,,,,,,,,,,,,,,,,,,,,,,,,,,,820,,,,,,,,,,,,,,,,,,,,,10,3,,,1084.483,11,right,0.906,,0.5,0.3,"[3,1,2]",0.162622506,stimuli/card_100_transparent.png,100,11,0,11,0,1,,,,,,,,,,
,,,,650cbbfec37399108c60a734,A,2024-07-12_10h48.16.803,Slot Machine Game,2023.1.3,Win32,60.24096386,,,,,,,,,,,,,,,,,,,,,,,,,,,830,,,,,,,,,,,,,,,,,,,,,10,3,,,1086.7004,12,right,0.0229,,1.5,0.3,"[3,1,2]",0.649231469,stimuli/card_10_transparent.png,10,12,0,12,0,1,,,,,,,,,,
,,,,650cbbfec37399108c60a734,A,2024-07-12_10h48.16.803,Slot Machine Game,2023.1.3,Win32,60.24096386,,,,,,,,,,,,,,,,,,,,,,,,,,,840,,,,,,,,,,,,,,,,,,,,,10,3,,,1089.0435,13,right,0.2037,,1,0.3,"[3,1,2]",0.431549353,stimuli/card_10_transparent.png,10,13,0,13,0,1,,,,,,,,,,
,,,,650cbbfec37399108c60a734,A,2024-07-12_10h48.16.803,Slot Machine Game,2023.1.3,Win32,60.24096386,,,,,,,,,,,,,,,,,,,,,,,,,,,850,,,,,,,,,,,,,,,,,,,,,10,3,,,1091.0552,14,right,0.0326,,1.5,0.3,"[3,1,2]",0.76534193,stimuli/card_10_transparent.png,10,14,0,14,0,1,,,,,,,,,,
,,,,650cbbfec37399108c60a734,A,2024-07-12_10h48.16.803,Slot Machine Game,2023.1.3,Win32,60.24096386,,,,,,,,,,,,,,,,,,,,,,,,,,,,,,,,,,,1093.4241,,,,,,,,,,,,,,,,,,,,,,,,,,,,,,,,,"[1210,1030,560,740,740,1130,770,730,840,850]",9,0,9,0,1,,,,
,,,,650cbbfec37399108c60a734,A,2024-07-12_10h48.16.803,Slot Machine Game,2023.1.3,Win32,60.24096386,,,,,,,,,,,,,,,,,,,,,,,,,,,,,,,,,,,,,,,,,,,,,,,,,,,,,,,,,,,,,,,,,,,,,,,,,,9,"[1210,1030,560,740,740,1130,770,730,840,850]",12.1,2024-07-12_11h06.39.858
