key_resp_welcome_started,key_resp_welcome_keys,key_resp_welcome_rt,key_resp_welcome_duration,prolific_id,path_id,date,expName,psychopyVersion,OS,frameRate,key_resp_instruction1_started,key_resp_instruction1_keys,key_resp_instruction1_rt,key_resp_instruction1_duration,key_resp_instruction2_started,key_resp_instruction2_keys,key_resp_instruction2_rt,key_resp_instruction2_duration,key_resp_instruction3_started,key_resp_instruction3_keys,key_resp_instruction3_rt,key_resp_instruction3_duration,key_resp_instruction4_started,key_resp_instruction4_keys,key_resp_instruction4_rt,key_resp_instruction4_duration,practiceCondition,practice_reward_seqs,practice_trial_started,practice_trial_num,practice_resp_rt,practice_resp_duration,practice_resp_keys,prac_presentationInterval,"practice_reward_seq: 2,1,3",reward_img,cumulative_reward,trial_reward,practice_trials.thisRepN,practice_trials.thisTrialN,practice_trials.thisN,practice_trials.thisIndex,practice_trials.ran,"practice_reward_seq: 2,3,1",block_break_started,"practice_reward_seq: 1,3,2","practice_reward_seq: 3,1,2",practice_end_time,practice_end_keys,practice_end_rt,practice_end_duration,main_instruction_text_started,block_condition,block_order_indices,main_instruction_keys,main_instruction_rt,main_instruction_duration,block_number,block_assignment,current_condition,main_reward_seqs,main_trial_started,main_trial_num,main_trial_keys,main_trial_rt,main_trial_duration,main_presentationInterval,reward_presentation_time,main_reward_seq,reward_rand_val,main_reward_img,current_reward,main_trials.thisRepN,main_trials.thisTrialN,main_trials.thisN,main_trials.thisIndex,main_trials.ran,block_reward,block.thisRepN,block.thisTrialN,block.thisN,block.thisIndex,block.ran,block_reward.length,block_reward_all,reward_amount,date_end_task
9.99999E-05,space,3.8639,,650da3cd39ce5bd96dac710d,A,2024-07-01_11h47.58.077,Slot Machine Game,2023.1.3,MacIntel,60.60606061,,,,,,,,,,,,,,,,,,,,,,,,,,,,,,,,,,,,,,,,,,,,,,,,,,,,,,,,,,,,,,,,,,,,,,,,,,,,,
,,,,650da3cd39ce5bd96dac710d,A,2024-07-01_11h47.58.077,Slot Machine Game,2023.1.3,MacIntel,60.60606061,3.8819,space,7.6301,,,,,,,,,,,,,,,,,,,,,,,,,,,,,,,,,,,,,,,,,,,,,,,,,,,,,,,,,,,,,,,,,,,,,,,,,,
,,,,650da3cd39ce5bd96dac710d,A,2024-07-01_11h47.58.077,Slot Machine Game,2023.1.3,MacIntel,60.60606061,,,,,11.5297,space,18.9665,,,,,,,,,,,,,,,,,,,,,,,,,,,,,,,,,,,,,,,,,,,,,,,,,,,,,,,,,,,,,,,,,,,,,,
,,,,650da3cd39ce5bd96dac710d,A,2024-07-01_11h47.58.077,Slot Machine Game,2023.1.3,MacIntel,60.60606061,,,,,,,,,30.5134,space,5.9828,,,,,,,,,,,,,,,,,,,,,,,,,,,,,,,,,,,,,,,,,,,,,,,,,,,,,,,,,,,,,,,,,,
,,,,650da3cd39ce5bd96dac710d,A,2024-07-01_11h47.58.077,Slot Machine Game,2023.1.3,MacIntel,60.60606061,,,,,,,,,,,,,,,,,,,,,,,,,,,,,,,,,,,,,,,,,,,,,,,,,,,,,,,,,,,,,,,,,,,,,,,,,,,,,
,,,,650da3cd39ce5bd96dac710d,A,2024-07-01_11h47.58.077,Slot Machine Game,2023.1.3,MacIntel,60.60606061,,,,,,,,,,,,,178.2305,space,2.787,,,,,,,,,,,,,,,,,,,,,,,,,,,,,,,,,,,,,,,,,,,,,,,,,,,,,,,,,,,,,,
,,,,650da3cd39ce5bd96dac710d,A,2024-07-01_11h47.58.077,Slot Machine Game,2023.1.3,MacIntel,60.60606061,,,,,,,,,,,,,,,,,"[9,15]","[[2,1,3],[2,3,1]]",181.0339,0,3.6248,,left,1,,stimuli/card_10_transparent.png,10,10,0,0,0,0,1,,,,,,,,,,,,,,,,,,,,,,,,,,,,,,,,,,,,,,,,,,,,
,,,,650da3cd39ce5bd96dac710d,A,2024-07-01_11h47.58.077,Slot Machine Game,2023.1.3,MacIntel,60.60606061,,,,,,,,,,,,,,,,,,,186.4809,1,1.4019,,up,0.5,,stimuli/card_100_transparent.png,110,100,1,0,1,0,1,,,,,,,,,,,,,,,,,,,,,,,,,,,,,,,,,,,,,,,,,,,,
,,,,650da3cd39ce5bd96dac710d,A,2024-07-01_11h47.58.077,Slot Machine Game,2023.1.3,MacIntel,60.60606061,,,,,,,,,,,,,,,,,,,189.2133,2,0.3476,,up,1.5,,stimuli/card_100_transparent.png,210,100,2,0,2,0,1,,,,,,,,,,,,,,,,,,,,,,,,,,,,,,,,,,,,,,,,,,,,
,,,,650da3cd39ce5bd96dac710d,A,2024-07-01_11h47.58.077,Slot Machine Game,2023.1.3,MacIntel,60.60606061,,,,,,,,,,,,,,,,,,,191.8799,3,0.7242,,up,1.5,,stimuli/card_100_transparent.png,310,100,3,0,3,0,1,,,,,,,,,,,,,,,,,,,,,,,,,,,,,,,,,,,,,,,,,,,,
,,,,650da3cd39ce5bd96dac710d,A,2024-07-01_11h47.58.077,Slot Machine Game,2023.1.3,MacIntel,60.60606061,,,,,,,,,,,,,,,,,,,194.9301,4,0.1445,,up,1.5,,stimuli/card_0_transparent.png,310,0,4,0,4,0,1,,,,,,,,,,,,,,,,,,,,,,,,,,,,,,,,,,,,,,,,,,,,
,,,,650da3cd39ce5bd96dac710d,A,2024-07-01_11h47.58.077,Slot Machine Game,2023.1.3,MacIntel,60.60606061,,,,,,,,,,,,,,,,,,,197.3957,5,0.6199,,up,1,,stimuli/card_100_transparent.png,410,100,5,0,5,0,1,,,,,,,,,,,,,,,,,,,,,,,,,,,,,,,,,,,,,,,,,,,,
,,,,650da3cd39ce5bd96dac710d,A,2024-07-01_11h47.58.077,Slot Machine Game,2023.1.3,MacIntel,60.60606061,,,,,,,,,,,,,,,,,,,199.83,6,0.0562,,up,1,,stimuli/card_100_transparent.png,510,100,6,0,6,0,1,,,,,,,,,,,,,,,,,,,,,,,,,,,,,,,,,,,,,,,,,,,,
,,,,650da3cd39ce5bd96dac710d,A,2024-07-01_11h47.58.077,Slot Machine Game,2023.1.3,MacIntel,60.60606061,,,,,,,,,,,,,,,,,,,201.7133,7,0.0446,,up,1,,stimuli/card_0_transparent.png,510,0,7,0,7,0,1,,,,,,,,,,,,,,,,,,,,,,,,,,,,,,,,,,,,,,,,,,,,
,,,,650da3cd39ce5bd96dac710d,A,2024-07-01_11h47.58.077,Slot Machine Game,2023.1.3,MacIntel,60.60606061,,,,,,,,,,,,,,,,,,,203.5801,8,0.1679,,up,1,,stimuli/card_100_transparent.png,610,100,8,0,8,0,1,,,,,,,,,,,,,,,,,,,,,,,,,,,,,,,,,,,,,,,,,,,,
,,,,650da3cd39ce5bd96dac710d,A,2024-07-01_11h47.58.077,Slot Machine Game,2023.1.3,MacIntel,60.60606061,,,,,,,,,,,,,,,,,,,205.58,9,0.016,,up,1,,stimuli/card_10_transparent.png,620,10,9,0,9,0,1,,,,,,,,,,,,,,,,,,,,,,,,,,,,,,,,,,,,,,,,,,,,
,,,,650da3cd39ce5bd96dac710d,A,2024-07-01_11h47.58.077,Slot Machine Game,2023.1.3,MacIntel,60.60606061,,,,,,,,,,,,,,,,,,,207.43,10,0.5354,,up,0.5,,stimuli/card_0_transparent.png,620,0,10,0,10,0,1,,,,,,,,,,,,,,,,,,,,,,,,,,,,,,,,,,,,,,,,,,,,
,,,,650da3cd39ce5bd96dac710d,A,2024-07-01_11h47.58.077,Slot Machine Game,2023.1.3,MacIntel,60.60606061,,,,,,,,,,,,,,,,,,,209.2969,11,0.2667,,right,1,,stimuli/card_100_transparent.png,720,100,11,0,11,0,1,,,,,,,,,,,,,,,,,,,,,,,,,,,,,,,,,,,,,,,,,,,,
,,,,650da3cd39ce5bd96dac710d,A,2024-07-01_11h47.58.077,Slot Machine Game,2023.1.3,MacIntel,60.60606061,,,,,,,,,,,,,,,,,,,211.3967,12,0.0134,,right,1,,stimuli/card_100_transparent.png,820,100,12,0,12,0,1,,,,,,,,,,,,,,,,,,,,,,,,,,,,,,,,,,,,,,,,,,,,
,,,,650da3cd39ce5bd96dac710d,A,2024-07-01_11h47.58.077,Slot Machine Game,2023.1.3,MacIntel,60.60606061,,,,,,,,,,,,,,,,,,,213.2296,13,0.1239,,right,1,,stimuli/card_100_transparent.png,920,100,13,0,13,0,1,,,,,,,,,,,,,,,,,,,,,,,,,,,,,,,,,,,,,,,,,,,,
,,,,650da3cd39ce5bd96dac710d,A,2024-07-01_11h47.58.077,Slot Machine Game,2023.1.3,MacIntel,60.60606061,,,,,,,,,,,,,,,,,,,215.1633,14,0.3851,,right,0.5,,stimuli/card_100_transparent.png,1020,100,14,0,14,0,1,,,,,,,,,,,,,,,,,,,,,,,,,,,,,,,,,,,,,,,,,,,,
,,,,650da3cd39ce5bd96dac710d,A,2024-07-01_11h47.58.077,Slot Machine Game,2023.1.3,MacIntel,60.60606061,,,,,,,,,,,,,,,,,"[6,15]","[[1,3,2],[3,1,2]]",221.9125,0,0.5176,,up,0.5,,stimuli/card_0_transparent.png,0,0,0,0,0,0,1,,216.8934,,,,,,,,,,,,,,,,,,,,,,,,,,,,,,,,,,,,,,,,,,
,,,,650da3cd39ce5bd96dac710d,A,2024-07-01_11h47.58.077,Slot Machine Game,2023.1.3,MacIntel,60.60606061,,,,,,,,,,,,,,,,,,,223.7467,1,0.2003,,left,1,,stimuli/card_100_transparent.png,100,100,1,0,1,0,1,,,,,,,,,,,,,,,,,,,,,,,,,,,,,,,,,,,,,,,,,,,,
,,,,650da3cd39ce5bd96dac710d,A,2024-07-01_11h47.58.077,Slot Machine Game,2023.1.3,MacIntel,60.60606061,,,,,,,,,,,,,,,,,,,225.7802,2,0.5848,,left,1.5,,stimuli/card_100_transparent.png,200,100,2,0,2,0,1,,,,,,,,,,,,,,,,,,,,,,,,,,,,,,,,,,,,,,,,,,,,
,,,,650da3cd39ce5bd96dac710d,A,2024-07-01_11h47.58.077,Slot Machine Game,2023.1.3,MacIntel,60.60606061,,,,,,,,,,,,,,,,,,,228.6968,3,0.2155,,left,1,,stimuli/card_100_transparent.png,300,100,3,0,3,0,1,,,,,,,,,,,,,,,,,,,,,,,,,,,,,,,,,,,,,,,,,,,,
,,,,650da3cd39ce5bd96dac710d,A,2024-07-01_11h47.58.077,Slot Machine Game,2023.1.3,MacIntel,60.60606061,,,,,,,,,,,,,,,,,,,230.7299,4,0.3781,,left,1.5,,stimuli/card_100_transparent.png,400,100,4,0,4,0,1,,,,,,,,,,,,,,,,,,,,,,,,,,,,,,,,,,,,,,,,,,,,
,,,,650da3cd39ce5bd96dac710d,A,2024-07-01_11h47.58.077,Slot Machine Game,2023.1.3,MacIntel,60.60606061,,,,,,,,,,,,,,,,,,,233.43,5,0.5143,,left,0.5,,stimuli/card_10_transparent.png,410,10,5,0,5,0,1,,,,,,,,,,,,,,,,,,,,,,,,,,,,,,,,,,,,,,,,,,,,
,,,,650da3cd39ce5bd96dac710d,A,2024-07-01_11h47.58.077,Slot Machine Game,2023.1.3,MacIntel,60.60606061,,,,,,,,,,,,,,,,,,,235.2633,6,0.1581,,left,0.5,,stimuli/card_0_transparent.png,410,0,6,0,6,0,1,,,,,,,,,,,,,,,,,,,,,,,,,,,,,,,,,,,,,,,,,,,,
,,,,650da3cd39ce5bd96dac710d,A,2024-07-01_11h47.58.077,Slot Machine Game,2023.1.3,MacIntel,60.60606061,,,,,,,,,,,,,,,,,,,236.7461,7,0.6507,,right,1.5,,stimuli/card_10_transparent.png,420,10,7,0,7,0,1,,,,,,,,,,,,,,,,,,,,,,,,,,,,,,,,,,,,,,,,,,,,
,,,,650da3cd39ce5bd96dac710d,A,2024-07-01_11h47.58.077,Slot Machine Game,2023.1.3,MacIntel,60.60606061,,,,,,,,,,,,,,,,,,,239.7135,8,0.2122,,up,1,,stimuli/card_100_transparent.png,520,100,8,0,8,0,1,,,,,,,,,,,,,,,,,,,,,,,,,,,,,,,,,,,,,,,,,,,,
,,,,650da3cd39ce5bd96dac710d,A,2024-07-01_11h47.58.077,Slot Machine Game,2023.1.3,MacIntel,60.60606061,,,,,,,,,,,,,,,,,,,241.7466,9,0.2569,,up,1,,stimuli/card_100_transparent.png,620,100,9,0,9,0,1,,,,,,,,,,,,,,,,,,,,,,,,,,,,,,,,,,,,,,,,,,,,
,,,,650da3cd39ce5bd96dac710d,A,2024-07-01_11h47.58.077,Slot Machine Game,2023.1.3,MacIntel,60.60606061,,,,,,,,,,,,,,,,,,,243.8299,10,0.2859,,up,1.5,,stimuli/card_100_transparent.png,720,100,10,0,10,0,1,,,,,,,,,,,,,,,,,,,,,,,,,,,,,,,,,,,,,,,,,,,,
,,,,650da3cd39ce5bd96dac710d,A,2024-07-01_11h47.58.077,Slot Machine Game,2023.1.3,MacIntel,60.60606061,,,,,,,,,,,,,,,,,,,246.4463,11,0.5171,,up,1.5,,stimuli/card_100_transparent.png,820,100,11,0,11,0,1,,,,,,,,,,,,,,,,,,,,,,,,,,,,,,,,,,,,,,,,,,,,
,,,,650da3cd39ce5bd96dac710d,A,2024-07-01_11h47.58.077,Slot Machine Game,2023.1.3,MacIntel,60.60606061,,,,,,,,,,,,,,,,,,,249.28,12,0.4866,,up,0.5,,stimuli/card_100_transparent.png,920,100,12,0,12,0,1,,,,,,,,,,,,,,,,,,,,,,,,,,,,,,,,,,,,,,,,,,,,
,,,,650da3cd39ce5bd96dac710d,A,2024-07-01_11h47.58.077,Slot Machine Game,2023.1.3,MacIntel,60.60606061,,,,,,,,,,,,,,,,,,,251.0967,13,0.2577,,up,0.5,,stimuli/card_10_transparent.png,930,10,13,0,13,0,1,,,,,,,,,,,,,,,,,,,,,,,,,,,,,,,,,,,,,,,,,,,,
,,,,650da3cd39ce5bd96dac710d,A,2024-07-01_11h47.58.077,Slot Machine Game,2023.1.3,MacIntel,60.60606061,,,,,,,,,,,,,,,,,,,252.68,14,0.1016,,up,1,,stimuli/card_10_transparent.png,940,10,14,0,14,0,1,,,,,,,,,,,,,,,,,,,,,,,,,,,,,,,,,,,,,,,,,,,,
,,,,650da3cd39ce5bd96dac710d,A,2024-07-01_11h47.58.077,Slot Machine Game,2023.1.3,MacIntel,60.60606061,,,,,,,,,,,,,,,,,,,,,,,,,,,,,,,,,,,254.6133,,,259.6142,space,0.939,,,,,,,,,,,,,,,,,,,,,,,,,,,,,,,,,,,,,
,,,,650da3cd39ce5bd96dac710d,A,2024-07-01_11h47.58.077,Slot Machine Game,2023.1.3,MacIntel,60.60606061,,,,,,,,,,,,,,,,,,,,,,,,,,,,,,,,,,,,,,,,,,260.5638,2,"[2,4,8,0,1,3,9,6,8,5]",space,1.981,,,,,,,,,,,,,,,,,,,,,,,,,,,,,,,
,,,,650da3cd39ce5bd96dac710d,A,2024-07-01_11h47.58.077,Slot Machine Game,2023.1.3,MacIntel,60.60606061,,,,,,,,,,,,,,,,,,,,,,,,,,,10,,,,,,,,,,,,,,,,,,,,,1,3,"[15,15]","[[3,1,2],[3,1,2]]",262.5809,0,up,0.5419,,1,0.3,"[3,1,2]",0.10142762,stimuli/card_10_transparent.png,10,0,0,0,0,1,,,,,,,,,,
,,,,650da3cd39ce5bd96dac710d,A,2024-07-01_11h47.58.077,Slot Machine Game,2023.1.3,MacIntel,60.60606061,,,,,,,,,,,,,,,,,,,,,,,,,,,20,,,,,,,,,,,,,,,,,,,,,1,3,,,264.9471,1,right,0.2514,,0.5,0.3,"[3,1,2]",0.39523542,stimuli/card_10_transparent.png,10,1,0,1,0,1,,,,,,,,,,
,,,,650da3cd39ce5bd96dac710d,A,2024-07-01_11h47.58.077,Slot Machine Game,2023.1.3,MacIntel,60.60606061,,,,,,,,,,,,,,,,,,,,,,,,,,,30,,,,,,,,,,,,,,,,,,,,,1,3,,,266.5299,2,left,0.038,,1,0.3,"[3,1,2]",0.151660428,stimuli/card_10_transparent.png,10,2,0,2,0,1,,,,,,,,,,
,,,,650da3cd39ce5bd96dac710d,A,2024-07-01_11h47.58.077,Slot Machine Game,2023.1.3,MacIntel,60.60606061,,,,,,,,,,,,,,,,,,,,,,,,,,,130,,,,,,,,,,,,,,,,,,,,,1,3,,,268.3969,3,up,0.035,,0.5,0.3,"[3,1,2]",0.531581348,stimuli/card_100_transparent.png,100,3,0,3,0,1,,,,,,,,,,
,,,,650da3cd39ce5bd96dac710d,A,2024-07-01_11h47.58.077,Slot Machine Game,2023.1.3,MacIntel,60.60606061,,,,,,,,,,,,,,,,,,,,,,,,,,,140,,,,,,,,,,,,,,,,,,,,,1,3,,,269.7634,4,up,0.3197,,1.5,0.3,"[3,1,2]",0.128014209,stimuli/card_10_transparent.png,10,4,0,4,0,1,,,,,,,,,,
,,,,650da3cd39ce5bd96dac710d,A,2024-07-01_11h47.58.077,Slot Machine Game,2023.1.3,MacIntel,60.60606061,,,,,,,,,,,,,,,,,,,,,,,,,,,140,,,,,,,,,,,,,,,,,,,,,1,3,,,272.4134,5,left,0.4965,,1,0.3,"[3,1,2]",0.601240539,stimuli/card_0_transparent.png,0,5,0,5,0,1,,,,,,,,,,
,,,,650da3cd39ce5bd96dac710d,A,2024-07-01_11h47.58.077,Slot Machine Game,2023.1.3,MacIntel,60.60606061,,,,,,,,,,,,,,,,,,,,,,,,,,,150,,,,,,,,,,,,,,,,,,,,,1,3,,,274.7301,6,right,0.0513,,1.5,0.3,"[3,1,2]",0.362752102,stimuli/card_10_transparent.png,10,6,0,6,0,1,,,,,,,,,,
,,,,650da3cd39ce5bd96dac710d,A,2024-07-01_11h47.58.077,Slot Machine Game,2023.1.3,MacIntel,60.60606061,,,,,,,,,,,,,,,,,,,,,,,,,,,160,,,,,,,,,,,,,,,,,,,,,1,3,,,277.1135,7,right,1.1055,,1.5,0.3,"[3,1,2]",0.75597899,stimuli/card_10_transparent.png,10,7,0,7,0,1,,,,,,,,,,
,,,,650da3cd39ce5bd96dac710d,A,2024-07-01_11h47.58.077,Slot Machine Game,2023.1.3,MacIntel,60.60606061,,,,,,,,,,,,,,,,,,,,,,,,,,,260,,,,,,,,,,,,,,,,,,,,,1,3,,,280.5467,8,up,0.15,,1.5,0.3,"[3,1,2]",0.959427931,stimuli/card_100_transparent.png,100,8,0,8,0,1,,,,,,,,,,
,,,,650da3cd39ce5bd96dac710d,A,2024-07-01_11h47.58.077,Slot Machine Game,2023.1.3,MacIntel,60.60606061,,,,,,,,,,,,,,,,,,,,,,,,,,,360,,,,,,,,,,,,,,,,,,,,,1,3,,,283.0299,9,up,0.2938,,0.5,0.3,"[3,1,2]",0.435665332,stimuli/card_100_transparent.png,100,9,0,9,0,1,,,,,,,,,,
,,,,650da3cd39ce5bd96dac710d,A,2024-07-01_11h47.58.077,Slot Machine Game,2023.1.3,MacIntel,60.60606061,,,,,,,,,,,,,,,,,,,,,,,,,,,460,,,,,,,,,,,,,,,,,,,,,1,3,,,284.6467,10,up,0.2135,,1.5,0.3,"[3,1,2]",0.570276275,stimuli/card_100_transparent.png,100,10,0,10,0,1,,,,,,,,,,
,,,,650da3cd39ce5bd96dac710d,A,2024-07-01_11h47.58.077,Slot Machine Game,2023.1.3,MacIntel,60.60606061,,,,,,,,,,,,,,,,,,,,,,,,,,,560,,,,,,,,,,,,,,,,,,,,,1,3,,,287.1801,11,up,0.1677,,0.5,0.3,"[3,1,2]",0.223565088,stimuli/card_100_transparent.png,100,11,0,11,0,1,,,,,,,,,,
,,,,650da3cd39ce5bd96dac710d,A,2024-07-01_11h47.58.077,Slot Machine Game,2023.1.3,MacIntel,60.60606061,,,,,,,,,,,,,,,,,,,,,,,,,,,660,,,,,,,,,,,,,,,,,,,,,1,3,,,288.68,12,up,0.0934,,1.5,0.3,"[3,1,2]",0.296662525,stimuli/card_100_transparent.png,100,12,0,12,0,1,,,,,,,,,,
,,,,650da3cd39ce5bd96dac710d,A,2024-07-01_11h47.58.077,Slot Machine Game,2023.1.3,MacIntel,60.60606061,,,,,,,,,,,,,,,,,,,,,,,,,,,670,,,,,,,,,,,,,,,,,,,,,1,3,,,291.0966,13,up,0.4956,,1.5,0.3,"[3,1,2]",0.194151234,stimuli/card_10_transparent.png,10,13,0,13,0,1,,,,,,,,,,
,,,,650da3cd39ce5bd96dac710d,A,2024-07-01_11h47.58.077,Slot Machine Game,2023.1.3,MacIntel,60.60606061,,,,,,,,,,,,,,,,,,,,,,,,,,,770,,,,,,,,,,,,,,,,,,,,,1,3,,,293.9132,14,up,0.3586,,0.5,0.3,"[3,1,2]",0.470353646,stimuli/card_100_transparent.png,100,14,0,14,0,1,,,,,,,,,,
,,,,650da3cd39ce5bd96dac710d,A,2024-07-01_11h47.58.077,Slot Machine Game,2023.1.3,MacIntel,60.60606061,,,,,,,,,,,,,,,,,,,,,,,,,,,,,,,,,,,295.5969,,,,,,,,,,,,,,,,,,,,,,,,,,,,,,,,,[770],0,0,0,0,1,,,,
,,,,650da3cd39ce5bd96dac710d,A,2024-07-01_11h47.58.077,Slot Machine Game,2023.1.3,MacIntel,60.60606061,,,,,,,,,,,,,,,,,,,,,,,,,,,10,,,,,,,,,,,,,,,,,,,,,2,5,"[5,15]","[[1,2,3],[3,1,2]]",300.6134,0,right,1.6143,,0.5,0.3,"[1,2,3]",0.141694477,stimuli/card_10_transparent.png,10,0,0,0,0,1,,,,,,,,,,
,,,,650da3cd39ce5bd96dac710d,A,2024-07-01_11h47.58.077,Slot Machine Game,2023.1.3,MacIntel,60.60606061,,,,,,,,,,,,,,,,,,,,,,,,,,,110,,,,,,,,,,,,,,,,,,,,,2,5,,,303.5467,1,up,0.0005,,0.5,0.3,"[1,2,3]",0.187398315,stimuli/card_100_transparent.png,100,1,0,1,0,1,,,,,,,,,,
,,,,650da3cd39ce5bd96dac710d,A,2024-07-01_11h47.58.077,Slot Machine Game,2023.1.3,MacIntel,60.60606061,,,,,,,,,,,,,,,,,,,,,,,,,,,120,,,,,,,,,,,,,,,,,,,,,2,5,,,304.8798,2,up,0.0754,,0.5,0.3,"[1,2,3]",0.274012376,stimuli/card_10_transparent.png,10,2,0,2,0,1,,,,,,,,,,
,,,,650da3cd39ce5bd96dac710d,A,2024-07-01_11h47.58.077,Slot Machine Game,2023.1.3,MacIntel,60.60606061,,,,,,,,,,,,,,,,,,,,,,,,,,,130,,,,,,,,,,,,,,,,,,,,,2,5,,,306.2803,3,up,0.3855,,1.5,0.3,"[1,2,3]",0.898056787,stimuli/card_10_transparent.png,10,3,0,3,0,1,,,,,,,,,,
,,,,650da3cd39ce5bd96dac710d,A,2024-07-01_11h47.58.077,Slot Machine Game,2023.1.3,MacIntel,60.60606061,,,,,,,,,,,,,,,,,,,,,,,,,,,230,,,,,,,,,,,,,,,,,,,,,2,5,,,308.9968,4,left,0.2848,,1.5,0.3,"[1,2,3]",0.269794872,stimuli/card_100_transparent.png,100,4,0,4,0,1,,,,,,,,,,
,,,,650da3cd39ce5bd96dac710d,A,2024-07-01_11h47.58.077,Slot Machine Game,2023.1.3,MacIntel,60.60606061,,,,,,,,,,,,,,,,,,,,,,,,,,,230,,,,,,,,,,,,,,,,,,,,,2,5,,,311.6123,5,left,0.3179,,0.5,0.3,"[3,1,2]",0.430012375,stimuli/card_0_transparent.png,0,5,0,5,0,1,,,,,,,,,,
,,,,650da3cd39ce5bd96dac710d,A,2024-07-01_11h47.58.077,Slot Machine Game,2023.1.3,MacIntel,60.60606061,,,,,,,,,,,,,,,,,,,,,,,,,,,230,,,,,,,,,,,,,,,,,,,,,2,5,,,313.2466,6,left,0.0178,,1,0.3,"[3,1,2]",0.57148331,stimuli/card_0_transparent.png,0,6,0,6,0,1,,,,,,,,,,
,,,,650da3cd39ce5bd96dac710d,A,2024-07-01_11h47.58.077,Slot Machine Game,2023.1.3,MacIntel,60.60606061,,,,,,,,,,,,,,,,,,,,,,,,,,,240,,,,,,,,,,,,,,,,,,,,,2,5,,,315.0966,7,right,0.0004,,0.5,0.3,"[3,1,2]",0.666539563,stimuli/card_10_transparent.png,10,7,0,7,0,1,,,,,,,,,,
,,,,650da3cd39ce5bd96dac710d,A,2024-07-01_11h47.58.077,Slot Machine Game,2023.1.3,MacIntel,60.60606061,,,,,,,,,,,,,,,,,,,,,,,,,,,250,,,,,,,,,,,,,,,,,,,,,2,5,,,316.4303,8,up,0.419,,1,0.3,"[3,1,2]",0.188641552,stimuli/card_10_transparent.png,10,8,0,8,0,1,,,,,,,,,,
,,,,650da3cd39ce5bd96dac710d,A,2024-07-01_11h47.58.077,Slot Machine Game,2023.1.3,MacIntel,60.60606061,,,,,,,,,,,,,,,,,,,,,,,,,,,250,,,,,,,,,,,,,,,,,,,,,2,5,,,318.68,9,left,0.2532,,1.5,0.3,"[3,1,2]",0.718528419,stimuli/card_0_transparent.png,0,9,0,9,0,1,,,,,,,,,,
,,,,650da3cd39ce5bd96dac710d,A,2024-07-01_11h47.58.077,Slot Machine Game,2023.1.3,MacIntel,60.60606061,,,,,,,,,,,,,,,,,,,,,,,,,,,260,,,,,,,,,,,,,,,,,,,,,2,5,,,321.2633,10,right,0.3349,,1.5,0.3,"[3,1,2]",0.327796958,stimuli/card_10_transparent.png,10,10,0,10,0,1,,,,,,,,,,
,,,,650da3cd39ce5bd96dac710d,A,2024-07-01_11h47.58.077,Slot Machine Game,2023.1.3,MacIntel,60.60606061,,,,,,,,,,,,,,,,,,,,,,,,,,,360,,,,,,,,,,,,,,,,,,,,,2,5,,,323.93,11,up,0.2407,,1,0.3,"[3,1,2]",0.50930063,stimuli/card_100_transparent.png,100,11,0,11,0,1,,,,,,,,,,
,,,,650da3cd39ce5bd96dac710d,A,2024-07-01_11h47.58.077,Slot Machine Game,2023.1.3,MacIntel,60.60606061,,,,,,,,,,,,,,,,,,,,,,,,,,,360,,,,,,,,,,,,,,,,,,,,,2,5,,,325.9967,12,up,0.0275,,0.5,0.3,"[3,1,2]",0.015108529,stimuli/card_0_transparent.png,0,12,0,12,0,1,,,,,,,,,,
,,,,650da3cd39ce5bd96dac710d,A,2024-07-01_11h47.58.077,Slot Machine Game,2023.1.3,MacIntel,60.60606061,,,,,,,,,,,,,,,,,,,,,,,,,,,460,,,,,,,,,,,,,,,,,,,,,2,5,,,327.3467,13,up,0.3353,,0.5,0.3,"[3,1,2]",0.761487583,stimuli/card_100_transparent.png,100,13,0,13,0,1,,,,,,,,,,
,,,,650da3cd39ce5bd96dac710d,A,2024-07-01_11h47.58.077,Slot Machine Game,2023.1.3,MacIntel,60.60606061,,,,,,,,,,,,,,,,,,,,,,,,,,,560,,,,,,,,,,,,,,,,,,,,,2,5,,,329.0133,14,up,0.252,,0.5,0.3,"[3,1,2]",0.41562123,stimuli/card_100_transparent.png,100,14,0,14,0,1,,,,,,,,,,
,,,,650da3cd39ce5bd96dac710d,A,2024-07-01_11h47.58.077,Slot Machine Game,2023.1.3,MacIntel,60.60606061,,,,,,,,,,,,,,,,,,,,,,,,,,,,,,,,,,,330.5967,,,,,,,,,,,,,,,,,,,,,,,,,,,,,,,,,"[770,560]",1,0,1,0,1,,,,
,,,,650da3cd39ce5bd96dac710d,A,2024-07-01_11h47.58.077,Slot Machine Game,2023.1.3,MacIntel,60.60606061,,,,,,,,,,,,,,,,,,,,,,,,,,,10,,,,,,,,,,,,,,,,,,,,,3,9,"[8,15]","[[3,2,1],[3,1,2]]",335.6125,0,up,0.3981,,1,0.3,"[3,2,1]",0.676770725,stimuli/card_10_transparent.png,10,0,0,0,0,1,,,,,,,,,,
,,,,650da3cd39ce5bd96dac710d,A,2024-07-01_11h47.58.077,Slot Machine Game,2023.1.3,MacIntel,60.60606061,,,,,,,,,,,,,,,,,,,,,,,,,,,110,,,,,,,,,,,,,,,,,,,,,3,9,,,337.8301,1,right,0.0182,,1.5,0.3,"[3,2,1]",0.221791064,stimuli/card_100_transparent.png,100,1,0,1,0,1,,,,,,,,,,
,,,,650da3cd39ce5bd96dac710d,A,2024-07-01_11h47.58.077,Slot Machine Game,2023.1.3,MacIntel,60.60606061,,,,,,,,,,,,,,,,,,,,,,,,,,,210,,,,,,,,,,,,,,,,,,,,,3,9,,,340.1801,2,right,0.0006,,1.5,0.3,"[3,2,1]",0.869106908,stimuli/card_100_transparent.png,100,2,0,2,0,1,,,,,,,,,,
,,,,650da3cd39ce5bd96dac710d,A,2024-07-01_11h47.58.077,Slot Machine Game,2023.1.3,MacIntel,60.60606061,,,,,,,,,,,,,,,,,,,,,,,,,,,310,,,,,,,,,,,,,,,,,,,,,3,9,,,342.5133,3,right,0.0103,,0.5,0.3,"[3,2,1]",0.780218725,stimuli/card_100_transparent.png,100,3,0,3,0,1,,,,,,,,,,
,,,,650da3cd39ce5bd96dac710d,A,2024-07-01_11h47.58.077,Slot Machine Game,2023.1.3,MacIntel,60.60606061,,,,,,,,,,,,,,,,,,,,,,,,,,,410,,,,,,,,,,,,,,,,,,,,,3,9,,,343.8468,4,right,0.0343,,1,0.3,"[3,2,1]",0.220261857,stimuli/card_100_transparent.png,100,4,0,4,0,1,,,,,,,,,,
,,,,650da3cd39ce5bd96dac710d,A,2024-07-01_11h47.58.077,Slot Machine Game,2023.1.3,MacIntel,60.60606061,,,,,,,,,,,,,,,,,,,,,,,,,,,420,,,,,,,,,,,,,,,,,,,,,3,9,,,345.7136,5,right,0.251,,1.5,0.3,"[3,2,1]",0.109839909,stimuli/card_10_transparent.png,10,5,0,5,0,1,,,,,,,,,,
,,,,650da3cd39ce5bd96dac710d,A,2024-07-01_11h47.58.077,Slot Machine Game,2023.1.3,MacIntel,60.60606061,,,,,,,,,,,,,,,,,,,,,,,,,,,520,,,,,,,,,,,,,,,,,,,,,3,9,,,348.2968,6,right,0.0014,,1,0.3,"[3,2,1]",0.981890261,stimuli/card_100_transparent.png,100,6,0,6,0,1,,,,,,,,,,
,,,,650da3cd39ce5bd96dac710d,A,2024-07-01_11h47.58.077,Slot Machine Game,2023.1.3,MacIntel,60.60606061,,,,,,,,,,,,,,,,,,,,,,,,,,,620,,,,,,,,,,,,,,,,,,,,,3,9,,,350.1302,7,right,0.1192,,0.5,0.3,"[3,2,1]",0.816766043,stimuli/card_100_transparent.png,100,7,0,7,0,1,,,,,,,,,,
,,,,650da3cd39ce5bd96dac710d,A,2024-07-01_11h47.58.077,Slot Machine Game,2023.1.3,MacIntel,60.60606061,,,,,,,,,,,,,,,,,,,,,,,,,,,630,,,,,,,,,,,,,,,,,,,,,3,9,,,351.5801,8,right,0.6942,,0.5,0.3,"[3,1,2]",0.537954256,stimuli/card_10_transparent.png,10,8,0,8,0,1,,,,,,,,,,
,,,,650da3cd39ce5bd96dac710d,A,2024-07-01_11h47.58.077,Slot Machine Game,2023.1.3,MacIntel,60.60606061,,,,,,,,,,,,,,,,,,,,,,,,,,,640,,,,,,,,,,,,,,,,,,,,,3,9,,,353.5967,9,right,0.0186,,0.5,0.3,"[3,1,2]",0.330207924,stimuli/card_10_transparent.png,10,9,0,9,0,1,,,,,,,,,,
,,,,650da3cd39ce5bd96dac710d,A,2024-07-01_11h47.58.077,Slot Machine Game,2023.1.3,MacIntel,60.60606061,,,,,,,,,,,,,,,,,,,,,,,,,,,650,,,,,,,,,,,,,,,,,,,,,3,9,,,354.9466,10,left,0.0447,,1,0.3,"[3,1,2]",0.179016722,stimuli/card_10_transparent.png,10,10,0,10,0,1,,,,,,,,,,
,,,,650da3cd39ce5bd96dac710d,A,2024-07-01_11h47.58.077,Slot Machine Game,2023.1.3,MacIntel,60.60606061,,,,,,,,,,,,,,,,,,,,,,,,,,,750,,,,,,,,,,,,,,,,,,,,,3,9,,,356.8133,11,up,1.441,,0.5,0.3,"[3,1,2]",0.563748183,stimuli/card_100_transparent.png,100,11,0,11,0,1,,,,,,,,,,
,,,,650da3cd39ce5bd96dac710d,A,2024-07-01_11h47.58.077,Slot Machine Game,2023.1.3,MacIntel,60.60606061,,,,,,,,,,,,,,,,,,,,,,,,,,,850,,,,,,,,,,,,,,,,,,,,,3,9,,,359.58,12,up,0.3711,,0.5,0.3,"[3,1,2]",0.214832381,stimuli/card_100_transparent.png,100,12,0,12,0,1,,,,,,,,,,
,,,,650da3cd39ce5bd96dac710d,A,2024-07-01_11h47.58.077,Slot Machine Game,2023.1.3,MacIntel,60.60606061,,,,,,,,,,,,,,,,,,,,,,,,,,,860,,,,,,,,,,,,,,,,,,,,,3,9,,,361.2801,13,up,0.2517,,1,0.3,"[3,1,2]",0.153399038,stimuli/card_10_transparent.png,10,13,0,13,0,1,,,,,,,,,,
,,,,650da3cd39ce5bd96dac710d,A,2024-07-01_11h47.58.077,Slot Machine Game,2023.1.3,MacIntel,60.60606061,,,,,,,,,,,,,,,,,,,,,,,,,,,960,,,,,,,,,,,,,,,,,,,,,3,9,,,363.3634,14,up,0.3497,,1.5,0.3,"[3,1,2]",0.657360131,stimuli/card_100_transparent.png,100,14,0,14,0,1,,,,,,,,,,
,,,,650da3cd39ce5bd96dac710d,A,2024-07-01_11h47.58.077,Slot Machine Game,2023.1.3,MacIntel,60.60606061,,,,,,,,,,,,,,,,,,,,,,,,,,,,,,,,,,,366.0468,,,,,,,,,,,,,,,,,,,,,,,,,,,,,,,,,"[770,560,960]",2,0,2,0,1,,,,
,,,,650da3cd39ce5bd96dac710d,A,2024-07-01_11h47.58.077,Slot Machine Game,2023.1.3,MacIntel,60.60606061,,,,,,,,,,,,,,,,,,,,,,,,,,,100,,,,,,,,,,,,,,,,,,,,,4,1,"[12,15]","[[2,1,3],[2,3,1]]",371.0632,0,up,0.2687,,0.5,0.3,"[2,1,3]",0.76879829,stimuli/card_100_transparent.png,100,0,0,0,0,1,,,,,,,,,,
,,,,650da3cd39ce5bd96dac710d,A,2024-07-01_11h47.58.077,Slot Machine Game,2023.1.3,MacIntel,60.60606061,,,,,,,,,,,,,,,,,,,,,,,,,,,100,,,,,,,,,,,,,,,,,,,,,4,1,,,372.6635,1,up,0.0678,,0.5,0.3,"[2,1,3]",0.059054962,stimuli/card_0_transparent.png,0,1,0,1,0,1,,,,,,,,,,
,,,,650da3cd39ce5bd96dac710d,A,2024-07-01_11h47.58.077,Slot Machine Game,2023.1.3,MacIntel,60.60606061,,,,,,,,,,,,,,,,,,,,,,,,,,,200,,,,,,,,,,,,,,,,,,,,,4,1,,,374.0635,2,up,0.0368,,0.5,0.3,"[2,1,3]",0.619234385,stimuli/card_100_transparent.png,100,2,0,2,0,1,,,,,,,,,,
,,,,650da3cd39ce5bd96dac710d,A,2024-07-01_11h47.58.077,Slot Machine Game,2023.1.3,MacIntel,60.60606061,,,,,,,,,,,,,,,,,,,,,,,,,,,300,,,,,,,,,,,,,,,,,,,,,4,1,,,375.4301,3,up,0.0173,,1,0.3,"[2,1,3]",0.874189641,stimuli/card_100_transparent.png,100,3,0,3,0,1,,,,,,,,,,
,,,,650da3cd39ce5bd96dac710d,A,2024-07-01_11h47.58.077,Slot Machine Game,2023.1.3,MacIntel,60.60606061,,,,,,,,,,,,,,,,,,,,,,,,,,,400,,,,,,,,,,,,,,,,,,,,,4,1,,,377.2802,4,up,0.084,,1,0.3,"[2,1,3]",0.521077842,stimuli/card_100_transparent.png,100,4,0,4,0,1,,,,,,,,,,
,,,,650da3cd39ce5bd96dac710d,A,2024-07-01_11h47.58.077,Slot Machine Game,2023.1.3,MacIntel,60.60606061,,,,,,,,,,,,,,,,,,,,,,,,,,,500,,,,,,,,,,,,,,,,,,,,,4,1,,,379.1984,5,up,0.193,,1,0.3,"[2,1,3]",0.652383739,stimuli/card_100_transparent.png,100,5,0,5,0,1,,,,,,,,,,
,,,,650da3cd39ce5bd96dac710d,A,2024-07-01_11h47.58.077,Slot Machine Game,2023.1.3,MacIntel,60.60606061,,,,,,,,,,,,,,,,,,,,,,,,,,,600,,,,,,,,,,,,,,,,,,,,,4,1,,,381.2133,6,up,0.1956,,1.5,0.3,"[2,1,3]",0.80493174,stimuli/card_100_transparent.png,100,6,0,6,0,1,,,,,,,,,,
,,,,650da3cd39ce5bd96dac710d,A,2024-07-01_11h47.58.077,Slot Machine Game,2023.1.3,MacIntel,60.60606061,,,,,,,,,,,,,,,,,,,,,,,,,,,610,,,,,,,,,,,,,,,,,,,,,4,1,,,383.7301,7,up,0.0836,,1,0.3,"[2,1,3]",0.153653926,stimuli/card_10_transparent.png,10,7,0,7,0,1,,,,,,,,,,
,,,,650da3cd39ce5bd96dac710d,A,2024-07-01_11h47.58.077,Slot Machine Game,2023.1.3,MacIntel,60.60606061,,,,,,,,,,,,,,,,,,,,,,,,,,,710,,,,,,,,,,,,,,,,,,,,,4,1,,,385.6467,8,up,0.0665,,1.5,0.3,"[2,1,3]",0.816645291,stimuli/card_100_transparent.png,100,8,0,8,0,1,,,,,,,,,,
,,,,650da3cd39ce5bd96dac710d,A,2024-07-01_11h47.58.077,Slot Machine Game,2023.1.3,MacIntel,60.60606061,,,,,,,,,,,,,,,,,,,,,,,,,,,810,,,,,,,,,,,,,,,,,,,,,4,1,,,388.0467,9,up,0.2856,,1,0.3,"[2,1,3]",0.415149825,stimuli/card_100_transparent.png,100,9,0,9,0,1,,,,,,,,,,
,,,,650da3cd39ce5bd96dac710d,A,2024-07-01_11h47.58.077,Slot Machine Game,2023.1.3,MacIntel,60.60606061,,,,,,,,,,,,,,,,,,,,,,,,,,,910,,,,,,,,,,,,,,,,,,,,,4,1,,,390.1634,10,up,0.1553,,0.5,0.3,"[2,1,3]",0.69038866,stimuli/card_100_transparent.png,100,10,0,10,0,1,,,,,,,,,,
,,,,650da3cd39ce5bd96dac710d,A,2024-07-01_11h47.58.077,Slot Machine Game,2023.1.3,MacIntel,60.60606061,,,,,,,,,,,,,,,,,,,,,,,,,,,1010,,,,,,,,,,,,,,,,,,,,,4,1,,,391.6466,11,up,0.0766,,0.5,0.3,"[2,1,3]",0.811745564,stimuli/card_100_transparent.png,100,11,0,11,0,1,,,,,,,,,,
,,,,650da3cd39ce5bd96dac710d,A,2024-07-01_11h47.58.077,Slot Machine Game,2023.1.3,MacIntel,60.60606061,,,,,,,,,,,,,,,,,,,,,,,,,,,1010,,,,,,,,,,,,,,,,,,,,,4,1,,,393.0465,12,up,0.0173,,1.5,0.3,"[2,3,1]",0.357429316,stimuli/card_0_transparent.png,0,12,0,12,0,1,,,,,,,,,,
,,,,650da3cd39ce5bd96dac710d,A,2024-07-01_11h47.58.077,Slot Machine Game,2023.1.3,MacIntel,60.60606061,,,,,,,,,,,,,,,,,,,,,,,,,,,1010,,,,,,,,,,,,,,,,,,,,,4,1,,,395.3967,13,up,0.3344,,0.5,0.3,"[2,3,1]",0.895371876,stimuli/card_0_transparent.png,0,13,0,13,0,1,,,,,,,,,,
,,,,650da3cd39ce5bd96dac710d,A,2024-07-01_11h47.58.077,Slot Machine Game,2023.1.3,MacIntel,60.60606061,,,,,,,,,,,,,,,,,,,,,,,,,,,1020,,,,,,,,,,,,,,,,,,,,,4,1,,,397.0633,14,left,0.0946,,1,0.3,"[2,3,1]",0.352881179,stimuli/card_10_transparent.png,10,14,0,14,0,1,,,,,,,,,,
,,,,650da3cd39ce5bd96dac710d,A,2024-07-01_11h47.58.077,Slot Machine Game,2023.1.3,MacIntel,60.60606061,,,,,,,,,,,,,,,,,,,,,,,,,,,,,,,,,,,398.9801,,,,,,,,,,,,,,,,,,,,,,,,,,,,,,,,,"[770,560,960,1020]",3,0,3,0,1,,,,
,,,,650da3cd39ce5bd96dac710d,A,2024-07-01_11h47.58.077,Slot Machine Game,2023.1.3,MacIntel,60.60606061,,,,,,,,,,,,,,,,,,,,,,,,,,,0,,,,,,,,,,,,,,,,,,,,,5,2,"[6,15]","[[1,3,2],[3,2,1]]",403.9951,0,up,0.1006,,1.5,0.3,"[1,3,2]",0.872906852,stimuli/card_0_transparent.png,0,0,0,0,0,1,,,,,,,,,,
,,,,650da3cd39ce5bd96dac710d,A,2024-07-01_11h47.58.077,Slot Machine Game,2023.1.3,MacIntel,60.60606061,,,,,,,,,,,,,,,,,,,,,,,,,,,100,,,,,,,,,,,,,,,,,,,,,5,2,,,406.4136,1,left,0.1011,,1.5,0.3,"[1,3,2]",0.307564755,stimuli/card_100_transparent.png,100,1,0,1,0,1,,,,,,,,,,
,,,,650da3cd39ce5bd96dac710d,A,2024-07-01_11h47.58.077,Slot Machine Game,2023.1.3,MacIntel,60.60606061,,,,,,,,,,,,,,,,,,,,,,,,,,,200,,,,,,,,,,,,,,,,,,,,,5,2,,,408.8467,2,left,0.0533,,1.5,0.3,"[1,3,2]",0.58063608,stimuli/card_100_transparent.png,100,2,0,2,0,1,,,,,,,,,,
,,,,650da3cd39ce5bd96dac710d,A,2024-07-01_11h47.58.077,Slot Machine Game,2023.1.3,MacIntel,60.60606061,,,,,,,,,,,,,,,,,,,,,,,,,,,300,,,,,,,,,,,,,,,,,,,,,5,2,,,411.2296,3,left,0.1576,,1.5,0.3,"[1,3,2]",0.491701526,stimuli/card_100_transparent.png,100,3,0,3,0,1,,,,,,,,,,
,,,,650da3cd39ce5bd96dac710d,A,2024-07-01_11h47.58.077,Slot Machine Game,2023.1.3,MacIntel,60.60606061,,,,,,,,,,,,,,,,,,,,,,,,,,,400,,,,,,,,,,,,,,,,,,,,,5,2,,,413.6967,4,left,0.0309,,1.5,0.3,"[1,3,2]",0.486827005,stimuli/card_100_transparent.png,100,4,0,4,0,1,,,,,,,,,,
,,,,650da3cd39ce5bd96dac710d,A,2024-07-01_11h47.58.077,Slot Machine Game,2023.1.3,MacIntel,60.60606061,,,,,,,,,,,,,,,,,,,,,,,,,,,500,,,,,,,,,,,,,,,,,,,,,5,2,,,416.0468,5,left,0.4004,,1,0.3,"[1,3,2]",0.321013023,stimuli/card_100_transparent.png,100,5,0,5,0,1,,,,,,,,,,
,,,,650da3cd39ce5bd96dac710d,A,2024-07-01_11h47.58.077,Slot Machine Game,2023.1.3,MacIntel,60.60606061,,,,,,,,,,,,,,,,,,,,,,,,,,,500,,,,,,,,,,,,,,,,,,,,,5,2,,,418.2799,6,left,0.0839,,1.5,0.3,"[3,2,1]",0.690300709,stimuli/card_0_transparent.png,0,6,0,6,0,1,,,,,,,,,,
,,,,650da3cd39ce5bd96dac710d,A,2024-07-01_11h47.58.077,Slot Machine Game,2023.1.3,MacIntel,60.60606061,,,,,,,,,,,,,,,,,,,,,,,,,,,500,,,,,,,,,,,,,,,,,,,,,5,2,,,420.6967,7,left,0.3683,,1,0.3,"[3,2,1]",0.284095231,stimuli/card_0_transparent.png,0,7,0,7,0,1,,,,,,,,,,
,,,,650da3cd39ce5bd96dac710d,A,2024-07-01_11h47.58.077,Slot Machine Game,2023.1.3,MacIntel,60.60606061,,,,,,,,,,,,,,,,,,,,,,,,,,,600,,,,,,,,,,,,,,,,,,,,,5,2,,,422.8967,8,right,0.3847,,1,0.3,"[3,2,1]",0.466961789,stimuli/card_100_transparent.png,100,8,0,8,0,1,,,,,,,,,,
,,,,650da3cd39ce5bd96dac710d,A,2024-07-01_11h47.58.077,Slot Machine Game,2023.1.3,MacIntel,60.60606061,,,,,,,,,,,,,,,,,,,,,,,,,,,700,,,,,,,,,,,,,,,,,,,,,5,2,,,425.1133,9,right,0.0596,,0.5,0.3,"[3,2,1]",0.407341503,stimuli/card_100_transparent.png,100,9,0,9,0,1,,,,,,,,,,
,,,,650da3cd39ce5bd96dac710d,A,2024-07-01_11h47.58.077,Slot Machine Game,2023.1.3,MacIntel,60.60606061,,,,,,,,,,,,,,,,,,,,,,,,,,,710,,,,,,,,,,,,,,,,,,,,,5,2,,,426.4967,10,right,0.0185,,1,0.3,"[3,2,1]",0.193603173,stimuli/card_10_transparent.png,10,10,0,10,0,1,,,,,,,,,,
,,,,650da3cd39ce5bd96dac710d,A,2024-07-01_11h47.58.077,Slot Machine Game,2023.1.3,MacIntel,60.60606061,,,,,,,,,,,,,,,,,,,,,,,,,,,810,,,,,,,,,,,,,,,,,,,,,5,2,,,428.3467,11,right,0.4018,,1,0.3,"[3,2,1]",0.32781041,stimuli/card_100_transparent.png,100,11,0,11,0,1,,,,,,,,,,
,,,,650da3cd39ce5bd96dac710d,A,2024-07-01_11h47.58.077,Slot Machine Game,2023.1.3,MacIntel,60.60606061,,,,,,,,,,,,,,,,,,,,,,,,,,,820,,,,,,,,,,,,,,,,,,,,,5,2,,,430.5801,12,right,0.334,,1.5,0.3,"[3,2,1]",0.155115915,stimuli/card_10_transparent.png,10,12,0,12,0,1,,,,,,,,,,
,,,,650da3cd39ce5bd96dac710d,A,2024-07-01_11h47.58.077,Slot Machine Game,2023.1.3,MacIntel,60.60606061,,,,,,,,,,,,,,,,,,,,,,,,,,,920,,,,,,,,,,,,,,,,,,,,,5,2,,,433.2467,13,right,0.0181,,1,0.3,"[3,2,1]",0.845240514,stimuli/card_100_transparent.png,100,13,0,13,0,1,,,,,,,,,,
,,,,650da3cd39ce5bd96dac710d,A,2024-07-01_11h47.58.077,Slot Machine Game,2023.1.3,MacIntel,60.60606061,,,,,,,,,,,,,,,,,,,,,,,,,,,1020,,,,,,,,,,,,,,,,,,,,,5,2,,,435.0967,14,right,0.0503,,1,0.3,"[3,2,1]",0.750548433,stimuli/card_100_transparent.png,100,14,0,14,0,1,,,,,,,,,,
,,,,650da3cd39ce5bd96dac710d,A,2024-07-01_11h47.58.077,Slot Machine Game,2023.1.3,MacIntel,60.60606061,,,,,,,,,,,,,,,,,,,,,,,,,,,,,,,,,,,436.98,,,,,,,,,,,,,,,,,,,,,,,,,,,,,,,,,"[770,560,960,1020,1020]",4,0,4,0,1,,,,
,,,,650da3cd39ce5bd96dac710d,A,2024-07-01_11h47.58.077,Slot Machine Game,2023.1.3,MacIntel,60.60606061,,,,,,,,,,,,,,,,,,,,,,,,,,,0,,,,,,,,,,,,,,,,,,,,,6,4,"[7,15]","[[2,3,1],[1,2,3]]",441.9966,0,up,0.179,,0.5,0.3,"[2,3,1]",0.652947485,stimuli/card_0_transparent.png,0,0,0,0,0,1,,,,,,,,,,
,,,,650da3cd39ce5bd96dac710d,A,2024-07-01_11h47.58.077,Slot Machine Game,2023.1.3,MacIntel,60.60606061,,,,,,,,,,,,,,,,,,,,,,,,,,,10,,,,,,,,,,,,,,,,,,,,,6,4,,,443.4968,1,left,0.1495,,1.5,0.3,"[2,3,1]",0.675054312,stimuli/card_10_transparent.png,10,1,0,1,0,1,,,,,,,,,,
,,,,650da3cd39ce5bd96dac710d,A,2024-07-01_11h47.58.077,Slot Machine Game,2023.1.3,MacIntel,60.60606061,,,,,,,,,,,,,,,,,,,,,,,,,,,110,,,,,,,,,,,,,,,,,,,,,6,4,,,445.9801,2,right,0.2341,,1.5,0.3,"[2,3,1]",0.524196238,stimuli/card_100_transparent.png,100,2,0,2,0,1,,,,,,,,,,
,,,,650da3cd39ce5bd96dac710d,A,2024-07-01_11h47.58.077,Slot Machine Game,2023.1.3,MacIntel,60.60606061,,,,,,,,,,,,,,,,,,,,,,,,,,,120,,,,,,,,,,,,,,,,,,,,,6,4,,,448.5467,3,right,0.1004,,0.5,0.3,"[2,3,1]",0.181934074,stimuli/card_10_transparent.png,10,3,0,3,0,1,,,,,,,,,,
,,,,650da3cd39ce5bd96dac710d,A,2024-07-01_11h47.58.077,Slot Machine Game,2023.1.3,MacIntel,60.60606061,,,,,,,,,,,,,,,,,,,,,,,,,,,220,,,,,,,,,,,,,,,,,,,,,6,4,,,449.98,4,right,0.3314,,0.5,0.3,"[2,3,1]",0.227939147,stimuli/card_100_transparent.png,100,4,0,4,0,1,,,,,,,,,,
,,,,650da3cd39ce5bd96dac710d,A,2024-07-01_11h47.58.077,Slot Machine Game,2023.1.3,MacIntel,60.60606061,,,,,,,,,,,,,,,,,,,,,,,,,,,320,,,,,,,,,,,,,,,,,,,,,6,4,,,451.63,5,right,0.0832,,1,0.3,"[2,3,1]",0.687015783,stimuli/card_100_transparent.png,100,5,0,5,0,1,,,,,,,,,,
,,,,650da3cd39ce5bd96dac710d,A,2024-07-01_11h47.58.077,Slot Machine Game,2023.1.3,MacIntel,60.60606061,,,,,,,,,,,,,,,,,,,,,,,,,,,420,,,,,,,,,,,,,,,,,,,,,6,4,,,453.5467,6,right,0.1519,,1,0.3,"[2,3,1]",0.638938487,stimuli/card_100_transparent.png,100,6,0,6,0,1,,,,,,,,,,
,,,,650da3cd39ce5bd96dac710d,A,2024-07-01_11h47.58.077,Slot Machine Game,2023.1.3,MacIntel,60.60606061,,,,,,,,,,,,,,,,,,,,,,,,,,,420,,,,,,,,,,,,,,,,,,,,,6,4,,,455.53,7,right,0.3013,,1,0.3,"[1,2,3]",0.374342487,stimuli/card_0_transparent.png,0,7,0,7,0,1,,,,,,,,,,
,,,,650da3cd39ce5bd96dac710d,A,2024-07-01_11h47.58.077,Slot Machine Game,2023.1.3,MacIntel,60.60606061,,,,,,,,,,,,,,,,,,,,,,,,,,,420,,,,,,,,,,,,,,,,,,,,,6,4,,,457.6623,8,right,0.3617,,1,0.3,"[1,2,3]",0.444516834,stimuli/card_0_transparent.png,0,8,0,8,0,1,,,,,,,,,,
,,,,650da3cd39ce5bd96dac710d,A,2024-07-01_11h47.58.077,Slot Machine Game,2023.1.3,MacIntel,60.60606061,,,,,,,,,,,,,,,,,,,,,,,,,,,430,,,,,,,,,,,,,,,,,,,,,6,4,,,459.83,9,up,0.2255,,1,0.3,"[1,2,3]",0.314917623,stimuli/card_10_transparent.png,10,9,0,9,0,1,,,,,,,,,,
,,,,650da3cd39ce5bd96dac710d,A,2024-07-01_11h47.58.077,Slot Machine Game,2023.1.3,MacIntel,60.60606061,,,,,,,,,,,,,,,,,,,,,,,,,,,530,,,,,,,,,,,,,,,,,,,,,6,4,,,461.8801,10,left,0.0275,,1,0.3,"[1,2,3]",0.868406991,stimuli/card_100_transparent.png,100,10,0,10,0,1,,,,,,,,,,
,,,,650da3cd39ce5bd96dac710d,A,2024-07-01_11h47.58.077,Slot Machine Game,2023.1.3,MacIntel,60.60606061,,,,,,,,,,,,,,,,,,,,,,,,,,,630,,,,,,,,,,,,,,,,,,,,,6,4,,,463.7299,11,left,0.2507,,1.5,0.3,"[1,2,3]",0.837061634,stimuli/card_100_transparent.png,100,11,0,11,0,1,,,,,,,,,,
,,,,650da3cd39ce5bd96dac710d,A,2024-07-01_11h47.58.077,Slot Machine Game,2023.1.3,MacIntel,60.60606061,,,,,,,,,,,,,,,,,,,,,,,,,,,730,,,,,,,,,,,,,,,,,,,,,6,4,,,466.3128,12,left,0.005,,0.5,0.3,"[1,2,3]",0.386850115,stimuli/card_100_transparent.png,100,12,0,12,0,1,,,,,,,,,,
,,,,650da3cd39ce5bd96dac710d,A,2024-07-01_11h47.58.077,Slot Machine Game,2023.1.3,MacIntel,60.60606061,,,,,,,,,,,,,,,,,,,,,,,,,,,830,,,,,,,,,,,,,,,,,,,,,6,4,,,467.6301,13,left,0.1006,,0.5,0.3,"[1,2,3]",0.729421489,stimuli/card_100_transparent.png,100,13,0,13,0,1,,,,,,,,,,
,,,,650da3cd39ce5bd96dac710d,A,2024-07-01_11h47.58.077,Slot Machine Game,2023.1.3,MacIntel,60.60606061,,,,,,,,,,,,,,,,,,,,,,,,,,,930,,,,,,,,,,,,,,,,,,,,,6,4,,,469.0634,14,left,0.3963,,0.5,0.3,"[1,2,3]",0.765857138,stimuli/card_100_transparent.png,100,14,0,14,0,1,,,,,,,,,,
,,,,650da3cd39ce5bd96dac710d,A,2024-07-01_11h47.58.077,Slot Machine Game,2023.1.3,MacIntel,60.60606061,,,,,,,,,,,,,,,,,,,,,,,,,,,,,,,,,,,470.7801,,,,,,,,,,,,,,,,,,,,,,,,,,,,,,,,,"[770,560,960,1020,1020,930]",5,0,5,0,1,,,,
,,,,650da3cd39ce5bd96dac710d,A,2024-07-01_11h47.58.077,Slot Machine Game,2023.1.3,MacIntel,60.60606061,,,,,,,,,,,,,,,,,,,,,,,,,,,0,,,,,,,,,,,,,,,,,,,,,7,10,"[10,15]","[[3,1,2],[1,3,2]]",475.7946,0,up,0.1327,,1.5,0.3,"[3,1,2]",0.091381369,stimuli/card_0_transparent.png,0,0,0,0,0,1,,,,,,,,,,
,,,,650da3cd39ce5bd96dac710d,A,2024-07-01_11h47.58.077,Slot Machine Game,2023.1.3,MacIntel,60.60606061,,,,,,,,,,,,,,,,,,,,,,,,,,,10,,,,,,,,,,,,,,,,,,,,,7,10,,,478.2467,1,right,0.2527,,0.5,0.3,"[3,1,2]",0.945622402,stimuli/card_10_transparent.png,10,1,0,1,0,1,,,,,,,,,,
,,,,650da3cd39ce5bd96dac710d,A,2024-07-01_11h47.58.077,Slot Machine Game,2023.1.3,MacIntel,60.60606061,,,,,,,,,,,,,,,,,,,,,,,,,,,10,,,,,,,,,,,,,,,,,,,,,7,10,,,479.8301,2,left,0.1019,,1,0.3,"[3,1,2]",0.880612306,stimuli/card_0_transparent.png,0,2,0,2,0,1,,,,,,,,,,
,,,,650da3cd39ce5bd96dac710d,A,2024-07-01_11h47.58.077,Slot Machine Game,2023.1.3,MacIntel,60.60606061,,,,,,,,,,,,,,,,,,,,,,,,,,,110,,,,,,,,,,,,,,,,,,,,,7,10,,,481.7635,3,up,1.5392,,1,0.3,"[3,1,2]",0.611496925,stimuli/card_100_transparent.png,100,3,0,3,0,1,,,,,,,,,,
,,,,650da3cd39ce5bd96dac710d,A,2024-07-01_11h47.58.077,Slot Machine Game,2023.1.3,MacIntel,60.60606061,,,,,,,,,,,,,,,,,,,,,,,,,,,210,,,,,,,,,,,,,,,,,,,,,7,10,,,485.13,4,up,0.2393,,1.5,0.3,"[3,1,2]",0.99528021,stimuli/card_100_transparent.png,100,4,0,4,0,1,,,,,,,,,,
,,,,650da3cd39ce5bd96dac710d,A,2024-07-01_11h47.58.077,Slot Machine Game,2023.1.3,MacIntel,60.60606061,,,,,,,,,,,,,,,,,,,,,,,,,,,310,,,,,,,,,,,,,,,,,,,,,7,10,,,487.6968,5,up,0.2048,,0.5,0.3,"[3,1,2]",0.550070076,stimuli/card_100_transparent.png,100,5,0,5,0,1,,,,,,,,,,
,,,,650da3cd39ce5bd96dac710d,A,2024-07-01_11h47.58.077,Slot Machine Game,2023.1.3,MacIntel,60.60606061,,,,,,,,,,,,,,,,,,,,,,,,,,,410,,,,,,,,,,,,,,,,,,,,,7,10,,,489.213,6,up,0.0009,,1.5,0.3,"[3,1,2]",0.867093281,stimuli/card_100_transparent.png,100,6,0,6,0,1,,,,,,,,,,
,,,,650da3cd39ce5bd96dac710d,A,2024-07-01_11h47.58.077,Slot Machine Game,2023.1.3,MacIntel,60.60606061,,,,,,,,,,,,,,,,,,,,,,,,,,,510,,,,,,,,,,,,,,,,,,,,,7,10,,,491.5468,7,up,0.1844,,1,0.3,"[3,1,2]",0.955659317,stimuli/card_100_transparent.png,100,7,0,7,0,1,,,,,,,,,,
,,,,650da3cd39ce5bd96dac710d,A,2024-07-01_11h47.58.077,Slot Machine Game,2023.1.3,MacIntel,60.60606061,,,,,,,,,,,,,,,,,,,,,,,,,,,610,,,,,,,,,,,,,,,,,,,,,7,10,,,493.5634,8,up,0.0201,,1,0.3,"[3,1,2]",0.870647376,stimuli/card_100_transparent.png,100,8,0,8,0,1,,,,,,,,,,
,,,,650da3cd39ce5bd96dac710d,A,2024-07-01_11h47.58.077,Slot Machine Game,2023.1.3,MacIntel,60.60606061,,,,,,,,,,,,,,,,,,,,,,,,,,,710,,,,,,,,,,,,,,,,,,,,,7,10,,,495.4134,9,up,0.2343,,1,0.3,"[3,1,2]",0.356498959,stimuli/card_100_transparent.png,100,9,0,9,0,1,,,,,,,,,,
,,,,650da3cd39ce5bd96dac710d,A,2024-07-01_11h47.58.077,Slot Machine Game,2023.1.3,MacIntel,60.60606061,,,,,,,,,,,,,,,,,,,,,,,,,,,710,,,,,,,,,,,,,,,,,,,,,7,10,,,497.4798,10,up,0.3062,,1.5,0.3,"[1,3,2]",0.742353808,stimuli/card_0_transparent.png,0,10,0,10,0,1,,,,,,,,,,
,,,,650da3cd39ce5bd96dac710d,A,2024-07-01_11h47.58.077,Slot Machine Game,2023.1.3,MacIntel,60.60606061,,,,,,,,,,,,,,,,,,,,,,,,,,,710,,,,,,,,,,,,,,,,,,,,,7,10,,,500.0967,11,up,0.2859,,1.5,0.3,"[1,3,2]",0.631996354,stimuli/card_0_transparent.png,0,11,0,11,0,1,,,,,,,,,,
,,,,650da3cd39ce5bd96dac710d,A,2024-07-01_11h47.58.077,Slot Machine Game,2023.1.3,MacIntel,60.60606061,,,,,,,,,,,,,,,,,,,,,,,,,,,710,,,,,,,,,,,,,,,,,,,,,7,10,,,502.7134,12,right,0.2772,,0.5,0.3,"[1,3,2]",0.0245175,stimuli/card_0_transparent.png,0,12,0,12,0,1,,,,,,,,,,
,,,,650da3cd39ce5bd96dac710d,A,2024-07-01_11h47.58.077,Slot Machine Game,2023.1.3,MacIntel,60.60606061,,,,,,,,,,,,,,,,,,,,,,,,,,,810,,,,,,,,,,,,,,,,,,,,,7,10,,,504.3133,13,left,0.2273,,1,0.3,"[1,3,2]",0.747166847,stimuli/card_100_transparent.png,100,13,0,13,0,1,,,,,,,,,,
,,,,650da3cd39ce5bd96dac710d,A,2024-07-01_11h47.58.077,Slot Machine Game,2023.1.3,MacIntel,60.60606061,,,,,,,,,,,,,,,,,,,,,,,,,,,910,,,,,,,,,,,,,,,,,,,,,7,10,,,506.3634,14,left,0.2173,,0.5,0.3,"[1,3,2]",0.91440194,stimuli/card_100_transparent.png,100,14,0,14,0,1,,,,,,,,,,
,,,,650da3cd39ce5bd96dac710d,A,2024-07-01_11h47.58.077,Slot Machine Game,2023.1.3,MacIntel,60.60606061,,,,,,,,,,,,,,,,,,,,,,,,,,,,,,,,,,,507.9129,,,,,,,,,,,,,,,,,,,,,,,,,,,,,,,,,"[770,560,960,1020,1020,930,910]",6,0,6,0,1,,,,
,,,,650da3cd39ce5bd96dac710d,A,2024-07-01_11h47.58.077,Slot Machine Game,2023.1.3,MacIntel,60.60606061,,,,,,,,,,,,,,,,,,,,,,,,,,,0,,,,,,,,,,,,,,,,,,,,,8,7,"[9,15]","[[1,3,2],[2,3,1]]",512.9288,0,up,0.095,,0.5,0.3,"[1,3,2]",0.383235039,stimuli/card_0_transparent.png,0,0,0,0,0,1,,,,,,,,,,
,,,,650da3cd39ce5bd96dac710d,A,2024-07-01_11h47.58.077,Slot Machine Game,2023.1.3,MacIntel,60.60606061,,,,,,,,,,,,,,,,,,,,,,,,,,,10,,,,,,,,,,,,,,,,,,,,,8,7,,,514.3303,1,right,0.2006,,1,0.3,"[1,3,2]",0.302937206,stimuli/card_10_transparent.png,10,1,0,1,0,1,,,,,,,,,,
,,,,650da3cd39ce5bd96dac710d,A,2024-07-01_11h47.58.077,Slot Machine Game,2023.1.3,MacIntel,60.60606061,,,,,,,,,,,,,,,,,,,,,,,,,,,110,,,,,,,,,,,,,,,,,,,,,8,7,,,516.3633,2,left,0.2025,,1,0.3,"[1,3,2]",0.900650245,stimuli/card_100_transparent.png,100,2,0,2,0,1,,,,,,,,,,
,,,,650da3cd39ce5bd96dac710d,A,2024-07-01_11h47.58.077,Slot Machine Game,2023.1.3,MacIntel,60.60606061,,,,,,,,,,,,,,,,,,,,,,,,,,,210,,,,,,,,,,,,,,,,,,,,,8,7,,,518.3967,3,left,0.3064,,0.5,0.3,"[1,3,2]",0.392271001,stimuli/card_100_transparent.png,100,3,0,3,0,1,,,,,,,,,,
,,,,650da3cd39ce5bd96dac710d,A,2024-07-01_11h47.58.077,Slot Machine Game,2023.1.3,MacIntel,60.60606061,,,,,,,,,,,,,,,,,,,,,,,,,,,310,,,,,,,,,,,,,,,,,,,,,8,7,,,520.0301,4,left,0.1606,,1,0.3,"[1,3,2]",0.876745,stimuli/card_100_transparent.png,100,4,0,4,0,1,,,,,,,,,,
,,,,650da3cd39ce5bd96dac710d,A,2024-07-01_11h47.58.077,Slot Machine Game,2023.1.3,MacIntel,60.60606061,,,,,,,,,,,,,,,,,,,,,,,,,,,310,,,,,,,,,,,,,,,,,,,,,8,7,,,522.0135,5,left,0.3187,,1,0.3,"[1,3,2]",0.023800789,stimuli/card_0_transparent.png,0,5,0,5,0,1,,,,,,,,,,
,,,,650da3cd39ce5bd96dac710d,A,2024-07-01_11h47.58.077,Slot Machine Game,2023.1.3,MacIntel,60.60606061,,,,,,,,,,,,,,,,,,,,,,,,,,,320,,,,,,,,,,,,,,,,,,,,,8,7,,,524.1635,6,left,0.0229,,0.5,0.3,"[1,3,2]",0.194312034,stimuli/card_10_transparent.png,10,6,0,6,0,1,,,,,,,,,,
,,,,650da3cd39ce5bd96dac710d,A,2024-07-01_11h47.58.077,Slot Machine Game,2023.1.3,MacIntel,60.60606061,,,,,,,,,,,,,,,,,,,,,,,,,,,420,,,,,,,,,,,,,,,,,,,,,8,7,,,525.5133,7,left,0.0053,,1,0.3,"[1,3,2]",0.500961807,stimuli/card_100_transparent.png,100,7,0,7,0,1,,,,,,,,,,
,,,,650da3cd39ce5bd96dac710d,A,2024-07-01_11h47.58.077,Slot Machine Game,2023.1.3,MacIntel,60.60606061,,,,,,,,,,,,,,,,,,,,,,,,,,,520,,,,,,,,,,,,,,,,,,,,,8,7,,,527.347,8,left,0.3684,,0.5,0.3,"[1,3,2]",0.92768003,stimuli/card_100_transparent.png,100,8,0,8,0,1,,,,,,,,,,
,,,,650da3cd39ce5bd96dac710d,A,2024-07-01_11h47.58.077,Slot Machine Game,2023.1.3,MacIntel,60.60606061,,,,,,,,,,,,,,,,,,,,,,,,,,,530,,,,,,,,,,,,,,,,,,,,,8,7,,,529.0467,9,left,0.1751,,1,0.3,"[2,3,1]",0.657482402,stimuli/card_10_transparent.png,10,9,0,9,0,1,,,,,,,,,,
,,,,650da3cd39ce5bd96dac710d,A,2024-07-01_11h47.58.077,Slot Machine Game,2023.1.3,MacIntel,60.60606061,,,,,,,,,,,,,,,,,,,,,,,,,,,540,,,,,,,,,,,,,,,,,,,,,8,7,,,531.0467,10,left,0.44,,0.5,0.3,"[2,3,1]",0.518635438,stimuli/card_10_transparent.png,10,10,0,10,0,1,,,,,,,,,,
,,,,650da3cd39ce5bd96dac710d,A,2024-07-01_11h47.58.077,Slot Machine Game,2023.1.3,MacIntel,60.60606061,,,,,,,,,,,,,,,,,,,,,,,,,,,640,,,,,,,,,,,,,,,,,,,,,8,7,,,532.8133,11,right,0.2713,,1,0.3,"[2,3,1]",0.743142175,stimuli/card_100_transparent.png,100,11,0,11,0,1,,,,,,,,,,
,,,,650da3cd39ce5bd96dac710d,A,2024-07-01_11h47.58.077,Slot Machine Game,2023.1.3,MacIntel,60.60606061,,,,,,,,,,,,,,,,,,,,,,,,,,,740,,,,,,,,,,,,,,,,,,,,,8,7,,,534.9133,12,right,0.2838,,1.5,0.3,"[2,3,1]",0.669554707,stimuli/card_100_transparent.png,100,12,0,12,0,1,,,,,,,,,,
,,,,650da3cd39ce5bd96dac710d,A,2024-07-01_11h47.58.077,Slot Machine Game,2023.1.3,MacIntel,60.60606061,,,,,,,,,,,,,,,,,,,,,,,,,,,750,,,,,,,,,,,,,,,,,,,,,8,7,,,537.53,13,right,0.1526,,1.5,0.3,"[2,3,1]",0.135216506,stimuli/card_10_transparent.png,10,13,0,13,0,1,,,,,,,,,,
,,,,650da3cd39ce5bd96dac710d,A,2024-07-01_11h47.58.077,Slot Machine Game,2023.1.3,MacIntel,60.60606061,,,,,,,,,,,,,,,,,,,,,,,,,,,850,,,,,,,,,,,,,,,,,,,,,8,7,,,540.0135,14,right,0.0522,,1.5,0.3,"[2,3,1]",0.878328932,stimuli/card_100_transparent.png,100,14,0,14,0,1,,,,,,,,,,
,,,,650da3cd39ce5bd96dac710d,A,2024-07-01_11h47.58.077,Slot Machine Game,2023.1.3,MacIntel,60.60606061,,,,,,,,,,,,,,,,,,,,,,,,,,,,,,,,,,,542.3962,,,,,,,,,,,,,,,,,,,,,,,,,,,,,,,,,"[770,560,960,1020,1020,930,910,850]",7,0,7,0,1,,,,
,,,,650da3cd39ce5bd96dac710d,A,2024-07-01_11h47.58.077,Slot Machine Game,2023.1.3,MacIntel,60.60606061,,,,,,,,,,,,,,,,,,,,,,,,,,,10,,,,,,,,,,,,,,,,,,,,,9,9,[15],"[[3,1,2]]",547.4126,0,right,0.5789,,1,0.3,"[3,1,2]",0.513235323,stimuli/card_10_transparent.png,10,0,0,0,0,1,,,,,,,,,,
,,,,650da3cd39ce5bd96dac710d,A,2024-07-01_11h47.58.077,Slot Machine Game,2023.1.3,MacIntel,60.60606061,,,,,,,,,,,,,,,,,,,,,,,,,,,110,,,,,,,,,,,,,,,,,,,,,9,9,,,549.8134,1,up,0.2271,,1.5,0.3,"[3,1,2]",0.908571077,stimuli/card_100_transparent.png,100,1,0,1,0,1,,,,,,,,,,
,,,,650da3cd39ce5bd96dac710d,A,2024-07-01_11h47.58.077,Slot Machine Game,2023.1.3,MacIntel,60.60606061,,,,,,,,,,,,,,,,,,,,,,,,,,,210,,,,,,,,,,,,,,,,,,,,,9,9,,,552.3633,2,up,0.3191,,1.5,0.3,"[3,1,2]",0.897940511,stimuli/card_100_transparent.png,100,2,0,2,0,1,,,,,,,,,,
,,,,650da3cd39ce5bd96dac710d,A,2024-07-01_11h47.58.077,Slot Machine Game,2023.1.3,MacIntel,60.60606061,,,,,,,,,,,,,,,,,,,,,,,,,,,220,,,,,,,,,,,,,,,,,,,,,9,9,,,555.0135,3,up,0.0938,,0.5,0.3,"[3,1,2]",0.101312391,stimuli/card_10_transparent.png,10,3,0,3,0,1,,,,,,,,,,
,,,,650da3cd39ce5bd96dac710d,A,2024-07-01_11h47.58.077,Slot Machine Game,2023.1.3,MacIntel,60.60606061,,,,,,,,,,,,,,,,,,,,,,,,,,,320,,,,,,,,,,,,,,,,,,,,,9,9,,,556.4297,4,up,0.0069,,1.5,0.3,"[3,1,2]",0.611218475,stimuli/card_100_transparent.png,100,4,0,4,0,1,,,,,,,,,,
,,,,650da3cd39ce5bd96dac710d,A,2024-07-01_11h47.58.077,Slot Machine Game,2023.1.3,MacIntel,60.60606061,,,,,,,,,,,,,,,,,,,,,,,,,,,420,,,,,,,,,,,,,,,,,,,,,9,9,,,558.7634,5,up,0.0349,,0.5,0.3,"[3,1,2]",0.495793898,stimuli/card_100_transparent.png,100,5,0,5,0,1,,,,,,,,,,
,,,,650da3cd39ce5bd96dac710d,A,2024-07-01_11h47.58.077,Slot Machine Game,2023.1.3,MacIntel,60.60606061,,,,,,,,,,,,,,,,,,,,,,,,,,,520,,,,,,,,,,,,,,,,,,,,,9,9,,,560.1301,6,up,0.0253,,1,0.3,"[3,1,2]",0.289733218,stimuli/card_100_transparent.png,100,6,0,6,0,1,,,,,,,,,,
,,,,650da3cd39ce5bd96dac710d,A,2024-07-01_11h47.58.077,Slot Machine Game,2023.1.3,MacIntel,60.60606061,,,,,,,,,,,,,,,,,,,,,,,,,,,520,,,,,,,,,,,,,,,,,,,,,9,9,,,561.98,7,up,0.3014,,1,0.3,"[3,1,2]",0.039916422,stimuli/card_0_transparent.png,0,7,0,7,0,1,,,,,,,,,,
,,,,650da3cd39ce5bd96dac710d,A,2024-07-01_11h47.58.077,Slot Machine Game,2023.1.3,MacIntel,60.60606061,,,,,,,,,,,,,,,,,,,,,,,,,,,620,,,,,,,,,,,,,,,,,,,,,9,9,,,564.1131,8,up,0.2343,,0.5,0.3,"[3,1,2]",0.632430395,stimuli/card_100_transparent.png,100,8,0,8,0,1,,,,,,,,,,
,,,,650da3cd39ce5bd96dac710d,A,2024-07-01_11h47.58.077,Slot Machine Game,2023.1.3,MacIntel,60.60606061,,,,,,,,,,,,,,,,,,,,,,,,,,,630,,,,,,,,,,,,,,,,,,,,,9,9,,,565.68,9,up,0.0686,,1.5,0.3,"[3,1,2]",0.113037705,stimuli/card_10_transparent.png,10,9,0,9,0,1,,,,,,,,,,
,,,,650da3cd39ce5bd96dac710d,A,2024-07-01_11h47.58.077,Slot Machine Game,2023.1.3,MacIntel,60.60606061,,,,,,,,,,,,,,,,,,,,,,,,,,,730,,,,,,,,,,,,,,,,,,,,,9,9,,,568.08,10,up,0.2089,,0.5,0.3,"[3,1,2]",0.616454935,stimuli/card_100_transparent.png,100,10,0,10,0,1,,,,,,,,,,
,,,,650da3cd39ce5bd96dac710d,A,2024-07-01_11h47.58.077,Slot Machine Game,2023.1.3,MacIntel,60.60606061,,,,,,,,,,,,,,,,,,,,,,,,,,,830,,,,,,,,,,,,,,,,,,,,,9,9,,,569.6133,11,up,0.0824,,1,0.3,"[3,1,2]",0.392225677,stimuli/card_100_transparent.png,100,11,0,11,0,1,,,,,,,,,,
,,,,650da3cd39ce5bd96dac710d,A,2024-07-01_11h47.58.077,Slot Machine Game,2023.1.3,MacIntel,60.60606061,,,,,,,,,,,,,,,,,,,,,,,,,,,830,,,,,,,,,,,,,,,,,,,,,9,9,,,571.53,12,up,0.2216,,1.5,0.3,"[3,1,2]",0.076287243,stimuli/card_0_transparent.png,0,12,0,12,0,1,,,,,,,,,,
,,,,650da3cd39ce5bd96dac710d,A,2024-07-01_11h47.58.077,Slot Machine Game,2023.1.3,MacIntel,60.60606061,,,,,,,,,,,,,,,,,,,,,,,,,,,930,,,,,,,,,,,,,,,,,,,,,9,9,,,574.0801,13,up,0.0668,,1.5,0.3,"[3,1,2]",0.252447567,stimuli/card_100_transparent.png,100,13,0,13,0,1,,,,,,,,,,
,,,,650da3cd39ce5bd96dac710d,A,2024-07-01_11h47.58.077,Slot Machine Game,2023.1.3,MacIntel,60.60606061,,,,,,,,,,,,,,,,,,,,,,,,,,,1030,,,,,,,,,,,,,,,,,,,,,9,9,,,576.4799,14,up,0.2365,,1.5,0.3,"[3,1,2]",0.560197595,stimuli/card_100_transparent.png,100,14,0,14,0,1,,,,,,,,,,
,,,,650da3cd39ce5bd96dac710d,A,2024-07-01_11h47.58.077,Slot Machine Game,2023.1.3,MacIntel,60.60606061,,,,,,,,,,,,,,,,,,,,,,,,,,,,,,,,,,,579.0467,,,,,,,,,,,,,,,,,,,,,,,,,,,,,,,,,"[770,560,960,1020,1020,930,910,850,1030]",8,0,8,0,1,,,,
,,,,650da3cd39ce5bd96dac710d,A,2024-07-01_11h47.58.077,Slot Machine Game,2023.1.3,MacIntel,60.60606061,,,,,,,,,,,,,,,,,,,,,,,,,,,10,,,,,,,,,,,,,,,,,,,,,10,6,"[4,10,15]","[[2,3,1],[1,3,2],[3,2,1]]",584.0625,0,left,0.169,,1,0.3,"[2,3,1]",0.302999094,stimuli/card_10_transparent.png,10,0,0,0,0,1,,,,,,,,,,
,,,,650da3cd39ce5bd96dac710d,A,2024-07-01_11h47.58.077,Slot Machine Game,2023.1.3,MacIntel,60.60606061,,,,,,,,,,,,,,,,,,,,,,,,,,,110,,,,,,,,,,,,,,,,,,,,,10,6,,,586.0467,1,right,1.0949,,1.5,0.3,"[2,3,1]",0.262664408,stimuli/card_100_transparent.png,100,1,0,1,0,1,,,,,,,,,,
,,,,650da3cd39ce5bd96dac710d,A,2024-07-01_11h47.58.077,Slot Machine Game,2023.1.3,MacIntel,60.60606061,,,,,,,,,,,,,,,,,,,,,,,,,,,210,,,,,,,,,,,,,,,,,,,,,10,6,,,589.4636,2,right,0.3675,,1.5,0.3,"[2,3,1]",0.474102492,stimuli/card_100_transparent.png,100,2,0,2,0,1,,,,,,,,,,
,,,,650da3cd39ce5bd96dac710d,A,2024-07-01_11h47.58.077,Slot Machine Game,2023.1.3,MacIntel,60.60606061,,,,,,,,,,,,,,,,,,,,,,,,,,,310,,,,,,,,,,,,,,,,,,,,,10,6,,,592.1634,3,right,0.2335,,0.5,0.3,"[2,3,1]",0.497442502,stimuli/card_100_transparent.png,100,3,0,3,0,1,,,,,,,,,,
,,,,650da3cd39ce5bd96dac710d,A,2024-07-01_11h47.58.077,Slot Machine Game,2023.1.3,MacIntel,60.60606061,,,,,,,,,,,,,,,,,,,,,,,,,,,320,,,,,,,,,,,,,,,,,,,,,10,6,,,593.7299,4,right,0.1226,,1,0.3,"[1,3,2]",0.556970057,stimuli/card_10_transparent.png,10,4,0,4,0,1,,,,,,,,,,
,,,,650da3cd39ce5bd96dac710d,A,2024-07-01_11h47.58.077,Slot Machine Game,2023.1.3,MacIntel,60.60606061,,,,,,,,,,,,,,,,,,,,,,,,,,,330,,,,,,,,,,,,,,,,,,,,,10,6,,,595.6801,5,right,0.3528,,0.5,0.3,"[1,3,2]",0.682580618,stimuli/card_10_transparent.png,10,5,0,5,0,1,,,,,,,,,,
,,,,650da3cd39ce5bd96dac710d,A,2024-07-01_11h47.58.077,Slot Machine Game,2023.1.3,MacIntel,60.60606061,,,,,,,,,,,,,,,,,,,,,,,,,,,330,,,,,,,,,,,,,,,,,,,,,10,6,,,597.3634,6,up,0.0612,,0.5,0.3,"[1,3,2]",0.926172425,stimuli/card_0_transparent.png,0,6,0,6,0,1,,,,,,,,,,
,,,,650da3cd39ce5bd96dac710d,A,2024-07-01_11h47.58.077,Slot Machine Game,2023.1.3,MacIntel,60.60606061,,,,,,,,,,,,,,,,,,,,,,,,,,,430,,,,,,,,,,,,,,,,,,,,,10,6,,,598.7467,7,left,0.9687,,0.5,0.3,"[1,3,2]",0.891250157,stimuli/card_100_transparent.png,100,7,0,7,0,1,,,,,,,,,,
,,,,650da3cd39ce5bd96dac710d,A,2024-07-01_11h47.58.077,Slot Machine Game,2023.1.3,MacIntel,60.60606061,,,,,,,,,,,,,,,,,,,,,,,,,,,530,,,,,,,,,,,,,,,,,,,,,10,6,,,601.0467,8,left,0.2663,,0.5,0.3,"[1,3,2]",0.374132698,stimuli/card_100_transparent.png,100,8,0,8,0,1,,,,,,,,,,
,,,,650da3cd39ce5bd96dac710d,A,2024-07-01_11h47.58.077,Slot Machine Game,2023.1.3,MacIntel,60.60606061,,,,,,,,,,,,,,,,,,,,,,,,,,,630,,,,,,,,,,,,,,,,,,,,,10,6,,,602.6466,9,left,0.1171,,0.5,0.3,"[1,3,2]",0.62854516,stimuli/card_100_transparent.png,100,9,0,9,0,1,,,,,,,,,,
,,,,650da3cd39ce5bd96dac710d,A,2024-07-01_11h47.58.077,Slot Machine Game,2023.1.3,MacIntel,60.60606061,,,,,,,,,,,,,,,,,,,,,,,,,,,730,,,,,,,,,,,,,,,,,,,,,10,6,,,604.0968,10,left,0.0542,,0.5,0.3,"[3,2,1]",0.03125917,stimuli/card_100_transparent.png,100,10,0,10,0,1,,,,,,,,,,
,,,,650da3cd39ce5bd96dac710d,A,2024-07-01_11h47.58.077,Slot Machine Game,2023.1.3,MacIntel,60.60606061,,,,,,,,,,,,,,,,,,,,,,,,,,,730,,,,,,,,,,,,,,,,,,,,,10,6,,,605.4801,11,left,0.2671,,0.5,0.3,"[3,2,1]",0.267541344,stimuli/card_0_transparent.png,0,11,0,11,0,1,,,,,,,,,,
,,,,650da3cd39ce5bd96dac710d,A,2024-07-01_11h47.58.077,Slot Machine Game,2023.1.3,MacIntel,60.60606061,,,,,,,,,,,,,,,,,,,,,,,,,,,730,,,,,,,,,,,,,,,,,,,,,10,6,,,607.0801,12,left,0.0669,,1,0.3,"[3,2,1]",0.750474808,stimuli/card_0_transparent.png,0,12,0,12,0,1,,,,,,,,,,
,,,,650da3cd39ce5bd96dac710d,A,2024-07-01_11h47.58.077,Slot Machine Game,2023.1.3,MacIntel,60.60606061,,,,,,,,,,,,,,,,,,,,,,,,,,,730,,,,,,,,,,,,,,,,,,,,,10,6,,,608.9799,13,left,0.6674,,1,0.3,"[3,2,1]",0.818110165,stimuli/card_0_transparent.png,0,13,0,13,0,1,,,,,,,,,,
,,,,650da3cd39ce5bd96dac710d,A,2024-07-01_11h47.58.077,Slot Machine Game,2023.1.3,MacIntel,60.60606061,,,,,,,,,,,,,,,,,,,,,,,,,,,740,,,,,,,,,,,,,,,,,,,,,10,6,,,611.4802,14,up,0.4696,,1,0.3,"[3,2,1]",0.540349371,stimuli/card_10_transparent.png,10,14,0,14,0,1,,,,,,,,,,
,,,,650da3cd39ce5bd96dac710d,A,2024-07-01_11h47.58.077,Slot Machine Game,2023.1.3,MacIntel,60.60606061,,,,,,,,,,,,,,,,,,,,,,,,,,,,,,,,,,,613.78,,,,,,,,,,,,,,,,,,,,,,,,,,,,,,,,,"[770,560,960,1020,1020,930,910,850,1030,740]",9,0,9,0,1,,,,
,,,,650da3cd39ce5bd96dac710d,A,2024-07-01_11h47.58.077,Slot Machine Game,2023.1.3,MacIntel,60.60606061,,,,,,,,,,,,,,,,,,,,,,,,,,,,,,,,,,,,,,,,,,,,,,,,,,,,,,,,,,,,,,,,,,,,,,,,,,9,"[770,560,960,1020,1020,930,910,850,1030,740]",8.5,2024-07-01_11h58.20.928
