key_resp_welcome_started,key_resp_welcome_keys,key_resp_welcome_rt,key_resp_welcome_duration,prolific_id,path_id,date,expName,psychopyVersion,OS,frameRate,key_resp_instruction1_started,key_resp_instruction1_keys,key_resp_instruction1_rt,key_resp_instruction1_duration,key_resp_instruction2_started,key_resp_instruction2_keys,key_resp_instruction2_rt,key_resp_instruction2_duration,key_resp_instruction3_started,key_resp_instruction3_keys,key_resp_instruction3_rt,key_resp_instruction3_duration,key_resp_instruction4_started,key_resp_instruction4_keys,key_resp_instruction4_rt,key_resp_instruction4_duration,practiceCondition,practice_reward_seqs,practice_trial_started,practice_trial_num,practice_resp_rt,practice_resp_duration,practice_resp_keys,prac_presentationInterval,"practice_reward_seq: 2,1,3",reward_img,cumulative_reward,trial_reward,practice_trials.thisRepN,practice_trials.thisTrialN,practice_trials.thisN,practice_trials.thisIndex,practice_trials.ran,"practice_reward_seq: 2,3,1",block_break_started,"practice_reward_seq: 1,3,2","practice_reward_seq: 3,1,2",practice_end_time,practice_end_keys,practice_end_rt,practice_end_duration,main_instruction_text_started,block_condition,block_order_indices,main_instruction_keys,main_instruction_rt,main_instruction_duration,block_number,block_assignment,current_condition,main_reward_seqs,main_trial_started,main_trial_num,main_trial_keys,main_trial_rt,main_trial_duration,main_presentationInterval,reward_presentation_time,main_reward_seq,reward_rand_val,main_reward_img,current_reward,main_trials.thisRepN,main_trials.thisTrialN,main_trials.thisN,main_trials.thisIndex,main_trials.ran,block_reward,block.thisRepN,block.thisTrialN,block.thisN,block.thisIndex,block.ran,block_reward.length,block_reward_all,reward_amount,date_end_task
0.0002,return,1.1415,,651d2cdc7b87b2219dde8dd8,A,2024-07-01_13h29.35.971,Slot Machine Game,2023.1.3,MacIntel,58.13953488,,,,,,,,,,,,,,,,,,,,,,,,,,,,,,,,,,,,,,,,,,,,,,,,,,,,,,,,,,,,,,,,,,,,,,,,,,,,,
,,,,651d2cdc7b87b2219dde8dd8,A,2024-07-01_13h29.35.971,Slot Machine Game,2023.1.3,MacIntel,58.13953488,1.1604,return,4.2084,,,,,,,,,,,,,,,,,,,,,,,,,,,,,,,,,,,,,,,,,,,,,,,,,,,,,,,,,,,,,,,,,,,,,,,,,,
,,,,651d2cdc7b87b2219dde8dd8,A,2024-07-01_13h29.35.971,Slot Machine Game,2023.1.3,MacIntel,58.13953488,,,,,5.3951,return,12.2325,,,,,,,,,,,,,,,,,,,,,,,,,,,,,,,,,,,,,,,,,,,,,,,,,,,,,,,,,,,,,,,,,,,,,,
,,,,651d2cdc7b87b2219dde8dd8,A,2024-07-01_13h29.35.971,Slot Machine Game,2023.1.3,MacIntel,58.13953488,,,,,,,,,17.6611,return,3.2564,,,,,,,,,,,,,,,,,,,,,,,,,,,,,,,,,,,,,,,,,,,,,,,,,,,,,,,,,,,,,,,,,,
,,,,651d2cdc7b87b2219dde8dd8,A,2024-07-01_13h29.35.971,Slot Machine Game,2023.1.3,MacIntel,58.13953488,,,,,,,,,,,,,,,,,,,,,,,,,,,,,,,,,,,,,,,,,,,,,,,,,,,,,,,,,,,,,,,,,,,,,,,,,,,,,
,,,,651d2cdc7b87b2219dde8dd8,A,2024-07-01_13h29.35.971,Slot Machine Game,2023.1.3,MacIntel,58.13953488,,,,,,,,,,,,,162.6313,space,19.2947,,,,,,,,,,,,,,,,,,,,,,,,,,,,,,,,,,,,,,,,,,,,,,,,,,,,,,,,,,,,,,
,,,,651d2cdc7b87b2219dde8dd8,A,2024-07-01_13h29.35.971,Slot Machine Game,2023.1.3,MacIntel,58.13953488,,,,,,,,,,,,,,,,,"[9,15]","[[2,1,3],[2,3,1]]",181.9465,0,1.0338,,left,0.5,,stimuli/card_10_transparent.png,10,10,0,0,0,0,1,,,,,,,,,,,,,,,,,,,,,,,,,,,,,,,,,,,,,,,,,,,,
,,,,651d2cdc7b87b2219dde8dd8,A,2024-07-01_13h29.35.971,Slot Machine Game,2023.1.3,MacIntel,58.13953488,,,,,,,,,,,,,,,,,,,184.3111,1,0.4718,,left,0.5,,stimuli/card_100_transparent.png,110,100,1,0,1,0,1,,,,,,,,,,,,,,,,,,,,,,,,,,,,,,,,,,,,,,,,,,,,
,,,,651d2cdc7b87b2219dde8dd8,A,2024-07-01_13h29.35.971,Slot Machine Game,2023.1.3,MacIntel,58.13953488,,,,,,,,,,,,,,,,,,,186.1111,2,0.029,,left,1,,stimuli/card_10_transparent.png,120,10,2,0,2,0,1,,,,,,,,,,,,,,,,,,,,,,,,,,,,,,,,,,,,,,,,,,,,
,,,,651d2cdc7b87b2219dde8dd8,A,2024-07-01_13h29.35.971,Slot Machine Game,2023.1.3,MacIntel,58.13953488,,,,,,,,,,,,,,,,,,,187.9599,3,0.1655,,up,0.5,,stimuli/card_100_transparent.png,220,100,3,0,3,0,1,,,,,,,,,,,,,,,,,,,,,,,,,,,,,,,,,,,,,,,,,,,,
,,,,651d2cdc7b87b2219dde8dd8,A,2024-07-01_13h29.35.971,Slot Machine Game,2023.1.3,MacIntel,58.13953488,,,,,,,,,,,,,,,,,,,189.4428,4,0.1155,,up,1.5,,stimuli/card_100_transparent.png,320,100,4,0,4,0,1,,,,,,,,,,,,,,,,,,,,,,,,,,,,,,,,,,,,,,,,,,,,
,,,,651d2cdc7b87b2219dde8dd8,A,2024-07-01_13h29.35.971,Slot Machine Game,2023.1.3,MacIntel,58.13953488,,,,,,,,,,,,,,,,,,,191.8767,5,0.0004,,up,0.5,,stimuli/card_100_transparent.png,420,100,5,0,5,0,1,,,,,,,,,,,,,,,,,,,,,,,,,,,,,,,,,,,,,,,,,,,,
,,,,651d2cdc7b87b2219dde8dd8,A,2024-07-01_13h29.35.971,Slot Machine Game,2023.1.3,MacIntel,58.13953488,,,,,,,,,,,,,,,,,,,193.1939,6,0.0514,,up,0.5,,stimuli/card_100_transparent.png,520,100,6,0,6,0,1,,,,,,,,,,,,,,,,,,,,,,,,,,,,,,,,,,,,,,,,,,,,
,,,,651d2cdc7b87b2219dde8dd8,A,2024-07-01_13h29.35.971,Slot Machine Game,2023.1.3,MacIntel,58.13953488,,,,,,,,,,,,,,,,,,,194.5771,7,0.3012,,up,0.5,,stimuli/card_0_transparent.png,520,0,7,0,7,0,1,,,,,,,,,,,,,,,,,,,,,,,,,,,,,,,,,,,,,,,,,,,,
,,,,651d2cdc7b87b2219dde8dd8,A,2024-07-01_13h29.35.971,Slot Machine Game,2023.1.3,MacIntel,58.13953488,,,,,,,,,,,,,,,,,,,196.2106,8,0.9827,,right,1.5,,stimuli/card_0_transparent.png,520,0,8,0,8,0,1,,,,,,,,,,,,,,,,,,,,,,,,,,,,,,,,,,,,,,,,,,,,
,,,,651d2cdc7b87b2219dde8dd8,A,2024-07-01_13h29.35.971,Slot Machine Game,2023.1.3,MacIntel,58.13953488,,,,,,,,,,,,,,,,,,,199.5272,9,0.3931,,right,1.5,,stimuli/card_100_transparent.png,620,100,9,0,9,0,1,,,,,,,,,,,,,,,,,,,,,,,,,,,,,,,,,,,,,,,,,,,,
,,,,651d2cdc7b87b2219dde8dd8,A,2024-07-01_13h29.35.971,Slot Machine Game,2023.1.3,MacIntel,58.13953488,,,,,,,,,,,,,,,,,,,202.2433,10,0.0835,,right,1,,stimuli/card_100_transparent.png,720,100,10,0,10,0,1,,,,,,,,,,,,,,,,,,,,,,,,,,,,,,,,,,,,,,,,,,,,
,,,,651d2cdc7b87b2219dde8dd8,A,2024-07-01_13h29.35.971,Slot Machine Game,2023.1.3,MacIntel,58.13953488,,,,,,,,,,,,,,,,,,,204.1607,11,0.0455,,right,0.5,,stimuli/card_100_transparent.png,820,100,11,0,11,0,1,,,,,,,,,,,,,,,,,,,,,,,,,,,,,,,,,,,,,,,,,,,,
,,,,651d2cdc7b87b2219dde8dd8,A,2024-07-01_13h29.35.971,Slot Machine Game,2023.1.3,MacIntel,58.13953488,,,,,,,,,,,,,,,,,,,205.527,12,0.0791,,right,1.5,,stimuli/card_100_transparent.png,920,100,12,0,12,0,1,,,,,,,,,,,,,,,,,,,,,,,,,,,,,,,,,,,,,,,,,,,,
,,,,651d2cdc7b87b2219dde8dd8,A,2024-07-01_13h29.35.971,Slot Machine Game,2023.1.3,MacIntel,58.13953488,,,,,,,,,,,,,,,,,,,207.9274,13,0.0335,,right,1.5,,stimuli/card_10_transparent.png,930,10,13,0,13,0,1,,,,,,,,,,,,,,,,,,,,,,,,,,,,,,,,,,,,,,,,,,,,
,,,,651d2cdc7b87b2219dde8dd8,A,2024-07-01_13h29.35.971,Slot Machine Game,2023.1.3,MacIntel,58.13953488,,,,,,,,,,,,,,,,,,,210.2936,14,0.1825,,right,0.5,,stimuli/card_100_transparent.png,1030,100,14,0,14,0,1,,,,,,,,,,,,,,,,,,,,,,,,,,,,,,,,,,,,,,,,,,,,
,,,,651d2cdc7b87b2219dde8dd8,A,2024-07-01_13h29.35.971,Slot Machine Game,2023.1.3,MacIntel,58.13953488,,,,,,,,,,,,,,,,,"[6,15]","[[1,3,2],[3,1,2]]",216.8065,0,1.166,,up,0.5,,stimuli/card_0_transparent.png,0,0,0,0,0,0,1,,211.8054,,,,,,,,,,,,,,,,,,,,,,,,,,,,,,,,,,,,,,,,,,
,,,,651d2cdc7b87b2219dde8dd8,A,2024-07-01_13h29.35.971,Slot Machine Game,2023.1.3,MacIntel,58.13953488,,,,,,,,,,,,,,,,,,,219.2937,1,0.0829,,right,0.5,,stimuli/card_100_transparent.png,100,100,1,0,1,0,1,,,,,,,,,,,,,,,,,,,,,,,,,,,,,,,,,,,,,,,,,,,,
,,,,651d2cdc7b87b2219dde8dd8,A,2024-07-01_13h29.35.971,Slot Machine Game,2023.1.3,MacIntel,58.13953488,,,,,,,,,,,,,,,,,,,220.711,2,0.0206,,right,1.5,,stimuli/card_10_transparent.png,110,10,2,0,2,0,1,,,,,,,,,,,,,,,,,,,,,,,,,,,,,,,,,,,,,,,,,,,,
,,,,651d2cdc7b87b2219dde8dd8,A,2024-07-01_13h29.35.971,Slot Machine Game,2023.1.3,MacIntel,58.13953488,,,,,,,,,,,,,,,,,,,223.0601,3,0.4333,,right,1.5,,stimuli/card_10_transparent.png,120,10,3,0,3,0,1,,,,,,,,,,,,,,,,,,,,,,,,,,,,,,,,,,,,,,,,,,,,
,,,,651d2cdc7b87b2219dde8dd8,A,2024-07-01_13h29.35.971,Slot Machine Game,2023.1.3,MacIntel,58.13953488,,,,,,,,,,,,,,,,,,,225.8106,4,0.1012,,left,1.5,,stimuli/card_100_transparent.png,220,100,4,0,4,0,1,,,,,,,,,,,,,,,,,,,,,,,,,,,,,,,,,,,,,,,,,,,,
,,,,651d2cdc7b87b2219dde8dd8,A,2024-07-01_13h29.35.971,Slot Machine Game,2023.1.3,MacIntel,58.13953488,,,,,,,,,,,,,,,,,,,228.244,5,0.0328,,left,0.5,,stimuli/card_100_transparent.png,320,100,5,0,5,0,1,,,,,,,,,,,,,,,,,,,,,,,,,,,,,,,,,,,,,,,,,,,,
,,,,651d2cdc7b87b2219dde8dd8,A,2024-07-01_13h29.35.971,Slot Machine Game,2023.1.3,MacIntel,58.13953488,,,,,,,,,,,,,,,,,,,229.6101,6,0.1055,,left,0.5,,stimuli/card_0_transparent.png,320,0,6,0,6,0,1,,,,,,,,,,,,,,,,,,,,,,,,,,,,,,,,,,,,,,,,,,,,
,,,,651d2cdc7b87b2219dde8dd8,A,2024-07-01_13h29.35.971,Slot Machine Game,2023.1.3,MacIntel,58.13953488,,,,,,,,,,,,,,,,,,,231.0162,7,0.4327,,left,0.5,,stimuli/card_0_transparent.png,320,0,7,0,7,0,1,,,,,,,,,,,,,,,,,,,,,,,,,,,,,,,,,,,,,,,,,,,,
,,,,651d2cdc7b87b2219dde8dd8,A,2024-07-01_13h29.35.971,Slot Machine Game,2023.1.3,MacIntel,58.13953488,,,,,,,,,,,,,,,,,,,232.7774,8,0.3385,,up,0.5,,stimuli/card_0_transparent.png,320,0,8,0,8,0,1,,,,,,,,,,,,,,,,,,,,,,,,,,,,,,,,,,,,,,,,,,,,
,,,,651d2cdc7b87b2219dde8dd8,A,2024-07-01_13h29.35.971,Slot Machine Game,2023.1.3,MacIntel,58.13953488,,,,,,,,,,,,,,,,,,,234.4443,9,0.3129,,up,1.5,,stimuli/card_10_transparent.png,330,10,9,0,9,0,1,,,,,,,,,,,,,,,,,,,,,,,,,,,,,,,,,,,,,,,,,,,,
,,,,651d2cdc7b87b2219dde8dd8,A,2024-07-01_13h29.35.971,Slot Machine Game,2023.1.3,MacIntel,58.13953488,,,,,,,,,,,,,,,,,,,237.0774,10,0.0313,,up,1.5,,stimuli/card_100_transparent.png,430,100,10,0,10,0,1,,,,,,,,,,,,,,,,,,,,,,,,,,,,,,,,,,,,,,,,,,,,
,,,,651d2cdc7b87b2219dde8dd8,A,2024-07-01_13h29.35.971,Slot Machine Game,2023.1.3,MacIntel,58.13953488,,,,,,,,,,,,,,,,,,,239.4276,11,0.0536,,up,0.5,,stimuli/card_100_transparent.png,530,100,11,0,11,0,1,,,,,,,,,,,,,,,,,,,,,,,,,,,,,,,,,,,,,,,,,,,,
,,,,651d2cdc7b87b2219dde8dd8,A,2024-07-01_13h29.35.971,Slot Machine Game,2023.1.3,MacIntel,58.13953488,,,,,,,,,,,,,,,,,,,240.8098,12,0.1518,,up,0.5,,stimuli/card_100_transparent.png,630,100,12,0,12,0,1,,,,,,,,,,,,,,,,,,,,,,,,,,,,,,,,,,,,,,,,,,,,
,,,,651d2cdc7b87b2219dde8dd8,A,2024-07-01_13h29.35.971,Slot Machine Game,2023.1.3,MacIntel,58.13953488,,,,,,,,,,,,,,,,,,,242.2773,13,0.0168,,up,1.5,,stimuli/card_100_transparent.png,730,100,13,0,13,0,1,,,,,,,,,,,,,,,,,,,,,,,,,,,,,,,,,,,,,,,,,,,,
,,,,651d2cdc7b87b2219dde8dd8,A,2024-07-01_13h29.35.971,Slot Machine Game,2023.1.3,MacIntel,58.13953488,,,,,,,,,,,,,,,,,,,244.6275,14,0.1379,,up,0.5,,stimuli/card_10_transparent.png,740,10,14,0,14,0,1,,,,,,,,,,,,,,,,,,,,,,,,,,,,,,,,,,,,,,,,,,,,
,,,,651d2cdc7b87b2219dde8dd8,A,2024-07-01_13h29.35.971,Slot Machine Game,2023.1.3,MacIntel,58.13953488,,,,,,,,,,,,,,,,,,,,,,,,,,,,,,,,,,,246.0942,,,251.0951,space,2.4893,,,,,,,,,,,,,,,,,,,,,,,,,,,,,,,,,,,,,
,,,,651d2cdc7b87b2219dde8dd8,A,2024-07-01_13h29.35.971,Slot Machine Game,2023.1.3,MacIntel,58.13953488,,,,,,,,,,,,,,,,,,,,,,,,,,,,,,,,,,,,,,,,,,253.611,1,"[0,1,2,3,4,5,6,7,8,9]",space,3.7939,,,,,,,,,,,,,,,,,,,,,,,,,,,,,,,
,,,,651d2cdc7b87b2219dde8dd8,A,2024-07-01_13h29.35.971,Slot Machine Game,2023.1.3,MacIntel,58.13953488,,,,,,,,,,,,,,,,,,,,,,,,,,,10,,,,,,,,,,,,,,,,,,,,,1,1,"[12,15]","[[2,1,3],[2,3,1]]",257.4425,0,left,1.2182,,0.5,0.3,"[2,1,3]",0.256049211,stimuli/card_10_transparent.png,10,0,0,0,0,1,,,,,,,,,,
,,,,651d2cdc7b87b2219dde8dd8,A,2024-07-01_13h29.35.971,Slot Machine Game,2023.1.3,MacIntel,58.13953488,,,,,,,,,,,,,,,,,,,,,,,,,,,110,,,,,,,,,,,,,,,,,,,,,1,1,,,259.9777,1,up,0.5831,,1.5,0.3,"[2,1,3]",0.474154595,stimuli/card_100_transparent.png,100,1,0,1,0,1,,,,,,,,,,
,,,,651d2cdc7b87b2219dde8dd8,A,2024-07-01_13h29.35.971,Slot Machine Game,2023.1.3,MacIntel,58.13953488,,,,,,,,,,,,,,,,,,,,,,,,,,,210,,,,,,,,,,,,,,,,,,,,,1,1,,,262.8941,2,up,0.0837,,1,0.3,"[2,1,3]",0.927731626,stimuli/card_100_transparent.png,100,2,0,2,0,1,,,,,,,,,,
,,,,651d2cdc7b87b2219dde8dd8,A,2024-07-01_13h29.35.971,Slot Machine Game,2023.1.3,MacIntel,58.13953488,,,,,,,,,,,,,,,,,,,,,,,,,,,310,,,,,,,,,,,,,,,,,,,,,1,1,,,264.8108,3,up,0.2834,,1.5,0.3,"[2,1,3]",0.586623866,stimuli/card_100_transparent.png,100,3,0,3,0,1,,,,,,,,,,
,,,,651d2cdc7b87b2219dde8dd8,A,2024-07-01_13h29.35.971,Slot Machine Game,2023.1.3,MacIntel,58.13953488,,,,,,,,,,,,,,,,,,,,,,,,,,,410,,,,,,,,,,,,,,,,,,,,,1,1,,,267.4277,4,up,0.0126,,1.5,0.3,"[2,1,3]",0.771729784,stimuli/card_100_transparent.png,100,4,0,4,0,1,,,,,,,,,,
,,,,651d2cdc7b87b2219dde8dd8,A,2024-07-01_13h29.35.971,Slot Machine Game,2023.1.3,MacIntel,58.13953488,,,,,,,,,,,,,,,,,,,,,,,,,,,510,,,,,,,,,,,,,,,,,,,,,1,1,,,269.76,5,up,0.1006,,0.5,0.3,"[2,1,3]",0.305620613,stimuli/card_100_transparent.png,100,5,0,5,0,1,,,,,,,,,,
,,,,651d2cdc7b87b2219dde8dd8,A,2024-07-01_13h29.35.971,Slot Machine Game,2023.1.3,MacIntel,58.13953488,,,,,,,,,,,,,,,,,,,,,,,,,,,610,,,,,,,,,,,,,,,,,,,,,1,1,,,271.1777,6,up,0.0224,,1.5,0.3,"[2,1,3]",0.951890281,stimuli/card_100_transparent.png,100,6,0,6,0,1,,,,,,,,,,
,,,,651d2cdc7b87b2219dde8dd8,A,2024-07-01_13h29.35.971,Slot Machine Game,2023.1.3,MacIntel,58.13953488,,,,,,,,,,,,,,,,,,,,,,,,,,,710,,,,,,,,,,,,,,,,,,,,,1,1,,,273.5268,7,up,0.012,,1,0.3,"[2,1,3]",0.54946971,stimuli/card_100_transparent.png,100,7,0,7,0,1,,,,,,,,,,
,,,,651d2cdc7b87b2219dde8dd8,A,2024-07-01_13h29.35.971,Slot Machine Game,2023.1.3,MacIntel,58.13953488,,,,,,,,,,,,,,,,,,,,,,,,,,,810,,,,,,,,,,,,,,,,,,,,,1,1,,,275.343,8,up,0.2002,,0.5,0.3,"[2,1,3]",0.700631757,stimuli/card_100_transparent.png,100,8,0,8,0,1,,,,,,,,,,
,,,,651d2cdc7b87b2219dde8dd8,A,2024-07-01_13h29.35.971,Slot Machine Game,2023.1.3,MacIntel,58.13953488,,,,,,,,,,,,,,,,,,,,,,,,,,,810,,,,,,,,,,,,,,,,,,,,,1,1,,,276.8607,9,up,0.1964,,1.5,0.3,"[2,1,3]",0.06939856,stimuli/card_0_transparent.png,0,9,0,9,0,1,,,,,,,,,,
,,,,651d2cdc7b87b2219dde8dd8,A,2024-07-01_13h29.35.971,Slot Machine Game,2023.1.3,MacIntel,58.13953488,,,,,,,,,,,,,,,,,,,,,,,,,,,810,,,,,,,,,,,,,,,,,,,,,1,1,,,279.3775,10,right,0.1222,,1.5,0.3,"[2,1,3]",0.873237756,stimuli/card_0_transparent.png,0,10,0,10,0,1,,,,,,,,,,
,,,,651d2cdc7b87b2219dde8dd8,A,2024-07-01_13h29.35.971,Slot Machine Game,2023.1.3,MacIntel,58.13953488,,,,,,,,,,,,,,,,,,,,,,,,,,,820,,,,,,,,,,,,,,,,,,,,,1,1,,,281.8276,11,left,0.1348,,1,0.3,"[2,1,3]",0.488871715,stimuli/card_10_transparent.png,10,11,0,11,0,1,,,,,,,,,,
,,,,651d2cdc7b87b2219dde8dd8,A,2024-07-01_13h29.35.971,Slot Machine Game,2023.1.3,MacIntel,58.13953488,,,,,,,,,,,,,,,,,,,,,,,,,,,830,,,,,,,,,,,,,,,,,,,,,1,1,,,283.7932,12,left,0.1674,,0.5,0.3,"[2,3,1]",0.502183403,stimuli/card_10_transparent.png,10,12,0,12,0,1,,,,,,,,,,
,,,,651d2cdc7b87b2219dde8dd8,A,2024-07-01_13h29.35.971,Slot Machine Game,2023.1.3,MacIntel,58.13953488,,,,,,,,,,,,,,,,,,,,,,,,,,,830,,,,,,,,,,,,,,,,,,,,,1,1,,,285.2939,13,right,0.0323,,1,0.3,"[2,3,1]",0.094559303,stimuli/card_0_transparent.png,0,13,0,13,0,1,,,,,,,,,,
,,,,651d2cdc7b87b2219dde8dd8,A,2024-07-01_13h29.35.971,Slot Machine Game,2023.1.3,MacIntel,58.13953488,,,,,,,,,,,,,,,,,,,,,,,,,,,840,,,,,,,,,,,,,,,,,,,,,1,1,,,287.1609,14,left,0.4458,,0.5,0.3,"[2,3,1]",0.708107307,stimuli/card_10_transparent.png,10,14,0,14,0,1,,,,,,,,,,
,,,,651d2cdc7b87b2219dde8dd8,A,2024-07-01_13h29.35.971,Slot Machine Game,2023.1.3,MacIntel,58.13953488,,,,,,,,,,,,,,,,,,,,,,,,,,,,,,,,,,,288.9274,,,,,,,,,,,,,,,,,,,,,,,,,,,,,,,,,[840],0,0,0,0,1,,,,
,,,,651d2cdc7b87b2219dde8dd8,A,2024-07-01_13h29.35.971,Slot Machine Game,2023.1.3,MacIntel,58.13953488,,,,,,,,,,,,,,,,,,,,,,,,,,,0,,,,,,,,,,,,,,,,,,,,,2,2,"[6,15]","[[1,3,2],[3,2,1]]",293.939,0,up,0.6443,,1.5,0.3,"[1,3,2]",0.296522646,stimuli/card_0_transparent.png,0,0,0,0,0,1,,,,,,,,,,
,,,,651d2cdc7b87b2219dde8dd8,A,2024-07-01_13h29.35.971,Slot Machine Game,2023.1.3,MacIntel,58.13953488,,,,,,,,,,,,,,,,,,,,,,,,,,,100,,,,,,,,,,,,,,,,,,,,,2,2,,,296.8941,1,left,0.1497,,0.5,0.3,"[1,3,2]",0.266823777,stimuli/card_100_transparent.png,100,1,0,1,0,1,,,,,,,,,,
,,,,651d2cdc7b87b2219dde8dd8,A,2024-07-01_13h29.35.971,Slot Machine Game,2023.1.3,MacIntel,58.13953488,,,,,,,,,,,,,,,,,,,,,,,,,,,200,,,,,,,,,,,,,,,,,,,,,2,2,,,298.377,2,left,0.2505,,0.5,0.3,"[1,3,2]",0.66433953,stimuli/card_100_transparent.png,100,2,0,2,0,1,,,,,,,,,,
,,,,651d2cdc7b87b2219dde8dd8,A,2024-07-01_13h29.35.971,Slot Machine Game,2023.1.3,MacIntel,58.13953488,,,,,,,,,,,,,,,,,,,,,,,,,,,300,,,,,,,,,,,,,,,,,,,,,2,2,,,299.9598,3,left,0.155,,1.5,0.3,"[1,3,2]",0.275456209,stimuli/card_100_transparent.png,100,3,0,3,0,1,,,,,,,,,,
,,,,651d2cdc7b87b2219dde8dd8,A,2024-07-01_13h29.35.971,Slot Machine Game,2023.1.3,MacIntel,58.13953488,,,,,,,,,,,,,,,,,,,,,,,,,,,400,,,,,,,,,,,,,,,,,,,,,2,2,,,302.4279,4,left,0.265,,0.5,0.3,"[1,3,2]",0.606637339,stimuli/card_100_transparent.png,100,4,0,4,0,1,,,,,,,,,,
,,,,651d2cdc7b87b2219dde8dd8,A,2024-07-01_13h29.35.971,Slot Machine Game,2023.1.3,MacIntel,58.13953488,,,,,,,,,,,,,,,,,,,,,,,,,,,410,,,,,,,,,,,,,,,,,,,,,2,2,,,304.01,5,left,0.3152,,1,0.3,"[1,3,2]",0.14170577,stimuli/card_10_transparent.png,10,5,0,5,0,1,,,,,,,,,,
,,,,651d2cdc7b87b2219dde8dd8,A,2024-07-01_13h29.35.971,Slot Machine Game,2023.1.3,MacIntel,58.13953488,,,,,,,,,,,,,,,,,,,,,,,,,,,410,,,,,,,,,,,,,,,,,,,,,2,2,,,306.1438,6,left,0.1624,,0.5,0.3,"[3,2,1]",0.508564221,stimuli/card_0_transparent.png,0,6,0,6,0,1,,,,,,,,,,
,,,,651d2cdc7b87b2219dde8dd8,A,2024-07-01_13h29.35.971,Slot Machine Game,2023.1.3,MacIntel,58.13953488,,,,,,,,,,,,,,,,,,,,,,,,,,,410,,,,,,,,,,,,,,,,,,,,,2,2,,,307.6108,7,up,0.5368,,1.5,0.3,"[3,2,1]",0.045418674,stimuli/card_0_transparent.png,0,7,0,7,0,1,,,,,,,,,,
,,,,651d2cdc7b87b2219dde8dd8,A,2024-07-01_13h29.35.971,Slot Machine Game,2023.1.3,MacIntel,58.13953488,,,,,,,,,,,,,,,,,,,,,,,,,,,510,,,,,,,,,,,,,,,,,,,,,2,2,,,310.4778,8,right,0.0995,,1.5,0.3,"[3,2,1]",0.733814751,stimuli/card_100_transparent.png,100,8,0,8,0,1,,,,,,,,,,
,,,,651d2cdc7b87b2219dde8dd8,A,2024-07-01_13h29.35.971,Slot Machine Game,2023.1.3,MacIntel,58.13953488,,,,,,,,,,,,,,,,,,,,,,,,,,,610,,,,,,,,,,,,,,,,,,,,,2,2,,,312.9109,9,right,0.1024,,1.5,0.3,"[3,2,1]",0.976168344,stimuli/card_100_transparent.png,100,9,0,9,0,1,,,,,,,,,,
,,,,651d2cdc7b87b2219dde8dd8,A,2024-07-01_13h29.35.971,Slot Machine Game,2023.1.3,MacIntel,58.13953488,,,,,,,,,,,,,,,,,,,,,,,,,,,620,,,,,,,,,,,,,,,,,,,,,2,2,,,315.3446,10,right,0.3129,,0.5,0.3,"[3,2,1]",0.119570946,stimuli/card_10_transparent.png,10,10,0,10,0,1,,,,,,,,,,
,,,,651d2cdc7b87b2219dde8dd8,A,2024-07-01_13h29.35.971,Slot Machine Game,2023.1.3,MacIntel,58.13953488,,,,,,,,,,,,,,,,,,,,,,,,,,,720,,,,,,,,,,,,,,,,,,,,,2,2,,,316.9771,11,right,0.0004,,1,0.3,"[3,2,1]",0.634336812,stimuli/card_100_transparent.png,100,11,0,11,0,1,,,,,,,,,,
,,,,651d2cdc7b87b2219dde8dd8,A,2024-07-01_13h29.35.971,Slot Machine Game,2023.1.3,MacIntel,58.13953488,,,,,,,,,,,,,,,,,,,,,,,,,,,820,,,,,,,,,,,,,,,,,,,,,2,2,,,318.7943,12,right,0.1879,,0.5,0.3,"[3,2,1]",0.809651897,stimuli/card_100_transparent.png,100,12,0,12,0,1,,,,,,,,,,
,,,,651d2cdc7b87b2219dde8dd8,A,2024-07-01_13h29.35.971,Slot Machine Game,2023.1.3,MacIntel,58.13953488,,,,,,,,,,,,,,,,,,,,,,,,,,,920,,,,,,,,,,,,,,,,,,,,,2,2,,,320.3111,13,right,0.285,,1,0.3,"[3,2,1]",0.558050502,stimuli/card_100_transparent.png,100,13,0,13,0,1,,,,,,,,,,
,,,,651d2cdc7b87b2219dde8dd8,A,2024-07-01_13h29.35.971,Slot Machine Game,2023.1.3,MacIntel,58.13953488,,,,,,,,,,,,,,,,,,,,,,,,,,,1020,,,,,,,,,,,,,,,,,,,,,2,2,,,322.4276,14,right,0.2678,,1,0.3,"[3,2,1]",0.860507636,stimuli/card_100_transparent.png,100,14,0,14,0,1,,,,,,,,,,
,,,,651d2cdc7b87b2219dde8dd8,A,2024-07-01_13h29.35.971,Slot Machine Game,2023.1.3,MacIntel,58.13953488,,,,,,,,,,,,,,,,,,,,,,,,,,,,,,,,,,,324.5281,,,,,,,,,,,,,,,,,,,,,,,,,,,,,,,,,"[840,1020]",1,0,1,0,1,,,,
,,,,651d2cdc7b87b2219dde8dd8,A,2024-07-01_13h29.35.971,Slot Machine Game,2023.1.3,MacIntel,58.13953488,,,,,,,,,,,,,,,,,,,,,,,,,,,100,,,,,,,,,,,,,,,,,,,,,3,3,"[15,15]","[[3,1,2],[3,1,2]]",329.5399,0,up,0.8999,,0.5,0.3,"[3,1,2]",0.236044987,stimuli/card_100_transparent.png,100,0,0,0,0,1,,,,,,,,,,
,,,,651d2cdc7b87b2219dde8dd8,A,2024-07-01_13h29.35.971,Slot Machine Game,2023.1.3,MacIntel,58.13953488,,,,,,,,,,,,,,,,,,,,,,,,,,,200,,,,,,,,,,,,,,,,,,,,,3,3,,,331.7612,1,up,0.1197,,0.5,0.3,"[3,1,2]",0.903507699,stimuli/card_100_transparent.png,100,1,0,1,0,1,,,,,,,,,,
,,,,651d2cdc7b87b2219dde8dd8,A,2024-07-01_13h29.35.971,Slot Machine Game,2023.1.3,MacIntel,58.13953488,,,,,,,,,,,,,,,,,,,,,,,,,,,300,,,,,,,,,,,,,,,,,,,,,3,3,,,333.2106,2,up,0.3203,,1,0.3,"[3,1,2]",0.794183334,stimuli/card_100_transparent.png,100,2,0,2,0,1,,,,,,,,,,
,,,,651d2cdc7b87b2219dde8dd8,A,2024-07-01_13h29.35.971,Slot Machine Game,2023.1.3,MacIntel,58.13953488,,,,,,,,,,,,,,,,,,,,,,,,,,,400,,,,,,,,,,,,,,,,,,,,,3,3,,,335.3434,3,up,0.0003,,1.5,0.3,"[3,1,2]",0.750011972,stimuli/card_100_transparent.png,100,3,0,3,0,1,,,,,,,,,,
,,,,651d2cdc7b87b2219dde8dd8,A,2024-07-01_13h29.35.971,Slot Machine Game,2023.1.3,MacIntel,58.13953488,,,,,,,,,,,,,,,,,,,,,,,,,,,500,,,,,,,,,,,,,,,,,,,,,3,3,,,337.6767,4,up,0.1993,,1.5,0.3,"[3,1,2]",0.589847994,stimuli/card_100_transparent.png,100,4,0,4,0,1,,,,,,,,,,
,,,,651d2cdc7b87b2219dde8dd8,A,2024-07-01_13h29.35.971,Slot Machine Game,2023.1.3,MacIntel,58.13953488,,,,,,,,,,,,,,,,,,,,,,,,,,,600,,,,,,,,,,,,,,,,,,,,,3,3,,,340.1947,5,up,0.0004,,1,0.3,"[3,1,2]",0.573317693,stimuli/card_100_transparent.png,100,5,0,5,0,1,,,,,,,,,,
,,,,651d2cdc7b87b2219dde8dd8,A,2024-07-01_13h29.35.971,Slot Machine Game,2023.1.3,MacIntel,58.13953488,,,,,,,,,,,,,,,,,,,,,,,,,,,610,,,,,,,,,,,,,,,,,,,,,3,3,,,342.0278,6,up,0.0455,,1,0.3,"[3,1,2]",0.172253279,stimuli/card_10_transparent.png,10,6,0,6,0,1,,,,,,,,,,
,,,,651d2cdc7b87b2219dde8dd8,A,2024-07-01_13h29.35.971,Slot Machine Game,2023.1.3,MacIntel,58.13953488,,,,,,,,,,,,,,,,,,,,,,,,,,,710,,,,,,,,,,,,,,,,,,,,,3,3,,,343.8937,7,up,0.1555,,0.5,0.3,"[3,1,2]",0.54264986,stimuli/card_100_transparent.png,100,7,0,7,0,1,,,,,,,,,,
,,,,651d2cdc7b87b2219dde8dd8,A,2024-07-01_13h29.35.971,Slot Machine Game,2023.1.3,MacIntel,58.13953488,,,,,,,,,,,,,,,,,,,,,,,,,,,810,,,,,,,,,,,,,,,,,,,,,3,3,,,345.361,8,up,0.0472,,1.5,0.3,"[3,1,2]",0.566743001,stimuli/card_100_transparent.png,100,8,0,8,0,1,,,,,,,,,,
,,,,651d2cdc7b87b2219dde8dd8,A,2024-07-01_13h29.35.971,Slot Machine Game,2023.1.3,MacIntel,58.13953488,,,,,,,,,,,,,,,,,,,,,,,,,,,910,,,,,,,,,,,,,,,,,,,,,3,3,,,347.728,9,up,0.0003,,0.5,0.3,"[3,1,2]",0.454002363,stimuli/card_100_transparent.png,100,9,0,9,0,1,,,,,,,,,,
,,,,651d2cdc7b87b2219dde8dd8,A,2024-07-01_13h29.35.971,Slot Machine Game,2023.1.3,MacIntel,58.13953488,,,,,,,,,,,,,,,,,,,,,,,,,,,1010,,,,,,,,,,,,,,,,,,,,,3,3,,,349.061,10,up,0.1009,,1,0.3,"[3,1,2]",0.756567149,stimuli/card_100_transparent.png,100,10,0,10,0,1,,,,,,,,,,
,,,,651d2cdc7b87b2219dde8dd8,A,2024-07-01_13h29.35.971,Slot Machine Game,2023.1.3,MacIntel,58.13953488,,,,,,,,,,,,,,,,,,,,,,,,,,,1020,,,,,,,,,,,,,,,,,,,,,3,3,,,350.9944,11,up,0.004,,1,0.3,"[3,1,2]",0.168584875,stimuli/card_10_transparent.png,10,11,0,11,0,1,,,,,,,,,,
,,,,651d2cdc7b87b2219dde8dd8,A,2024-07-01_13h29.35.971,Slot Machine Game,2023.1.3,MacIntel,58.13953488,,,,,,,,,,,,,,,,,,,,,,,,,,,1120,,,,,,,,,,,,,,,,,,,,,3,3,,,352.8279,12,up,0.1956,,1.5,0.3,"[3,1,2]",0.391083658,stimuli/card_100_transparent.png,100,12,0,12,0,1,,,,,,,,,,
,,,,651d2cdc7b87b2219dde8dd8,A,2024-07-01_13h29.35.971,Slot Machine Game,2023.1.3,MacIntel,58.13953488,,,,,,,,,,,,,,,,,,,,,,,,,,,1220,,,,,,,,,,,,,,,,,,,,,3,3,,,355.344,13,up,0.132,,1.5,0.3,"[3,1,2]",0.275492973,stimuli/card_100_transparent.png,100,13,0,13,0,1,,,,,,,,,,
,,,,651d2cdc7b87b2219dde8dd8,A,2024-07-01_13h29.35.971,Slot Machine Game,2023.1.3,MacIntel,58.13953488,,,,,,,,,,,,,,,,,,,,,,,,,,,1320,,,,,,,,,,,,,,,,,,,,,3,3,,,357.7942,14,up,0.1346,,1.5,0.3,"[3,1,2]",0.347266052,stimuli/card_100_transparent.png,100,14,0,14,0,1,,,,,,,,,,
,,,,651d2cdc7b87b2219dde8dd8,A,2024-07-01_13h29.35.971,Slot Machine Game,2023.1.3,MacIntel,58.13953488,,,,,,,,,,,,,,,,,,,,,,,,,,,,,,,,,,,360.2603,,,,,,,,,,,,,,,,,,,,,,,,,,,,,,,,,"[840,1020,1320]",2,0,2,0,1,,,,
,,,,651d2cdc7b87b2219dde8dd8,A,2024-07-01_13h29.35.971,Slot Machine Game,2023.1.3,MacIntel,58.13953488,,,,,,,,,,,,,,,,,,,,,,,,,,,10,,,,,,,,,,,,,,,,,,,,,4,4,"[7,15]","[[2,3,1],[1,2,3]]",365.2756,0,left,0.2013,,1.5,0.3,"[2,3,1]",0.964256799,stimuli/card_10_transparent.png,10,0,0,0,0,1,,,,,,,,,,
,,,,651d2cdc7b87b2219dde8dd8,A,2024-07-01_13h29.35.971,Slot Machine Game,2023.1.3,MacIntel,58.13953488,,,,,,,,,,,,,,,,,,,,,,,,,,,20,,,,,,,,,,,,,,,,,,,,,4,4,,,367.7947,1,left,0.0338,,1,0.3,"[2,3,1]",0.400186067,stimuli/card_10_transparent.png,10,1,0,1,0,1,,,,,,,,,,
,,,,651d2cdc7b87b2219dde8dd8,A,2024-07-01_13h29.35.971,Slot Machine Game,2023.1.3,MacIntel,58.13953488,,,,,,,,,,,,,,,,,,,,,,,,,,,120,,,,,,,,,,,,,,,,,,,,,4,4,,,369.6612,2,right,0.1371,,0.5,0.3,"[2,3,1]",0.577341183,stimuli/card_100_transparent.png,100,2,0,2,0,1,,,,,,,,,,
,,,,651d2cdc7b87b2219dde8dd8,A,2024-07-01_13h29.35.971,Slot Machine Game,2023.1.3,MacIntel,58.13953488,,,,,,,,,,,,,,,,,,,,,,,,,,,120,,,,,,,,,,,,,,,,,,,,,4,4,,,371.1268,3,right,0.0164,,0.5,0.3,"[2,3,1]",0.045976131,stimuli/card_0_transparent.png,0,3,0,3,0,1,,,,,,,,,,
,,,,651d2cdc7b87b2219dde8dd8,A,2024-07-01_13h29.35.971,Slot Machine Game,2023.1.3,MacIntel,58.13953488,,,,,,,,,,,,,,,,,,,,,,,,,,,220,,,,,,,,,,,,,,,,,,,,,4,4,,,372.4613,4,right,0.054,,1.5,0.3,"[2,3,1]",0.334454174,stimuli/card_100_transparent.png,100,4,0,4,0,1,,,,,,,,,,
,,,,651d2cdc7b87b2219dde8dd8,A,2024-07-01_13h29.35.971,Slot Machine Game,2023.1.3,MacIntel,58.13953488,,,,,,,,,,,,,,,,,,,,,,,,,,,320,,,,,,,,,,,,,,,,,,,,,4,4,,,374.8436,5,right,0.1127,,0.5,0.3,"[2,3,1]",0.554191563,stimuli/card_100_transparent.png,100,5,0,5,0,1,,,,,,,,,,
,,,,651d2cdc7b87b2219dde8dd8,A,2024-07-01_13h29.35.971,Slot Machine Game,2023.1.3,MacIntel,58.13953488,,,,,,,,,,,,,,,,,,,,,,,,,,,420,,,,,,,,,,,,,,,,,,,,,4,4,,,376.2602,6,right,0.017,,0.5,0.3,"[2,3,1]",0.957636287,stimuli/card_100_transparent.png,100,6,0,6,0,1,,,,,,,,,,
,,,,651d2cdc7b87b2219dde8dd8,A,2024-07-01_13h29.35.971,Slot Machine Game,2023.1.3,MacIntel,58.13953488,,,,,,,,,,,,,,,,,,,,,,,,,,,420,,,,,,,,,,,,,,,,,,,,,4,4,,,377.6108,7,right,0.0691,,0.5,0.3,"[1,2,3]",0.664385447,stimuli/card_0_transparent.png,0,7,0,7,0,1,,,,,,,,,,
,,,,651d2cdc7b87b2219dde8dd8,A,2024-07-01_13h29.35.971,Slot Machine Game,2023.1.3,MacIntel,58.13953488,,,,,,,,,,,,,,,,,,,,,,,,,,,420,,,,,,,,,,,,,,,,,,,,,4,4,,,378.9947,8,right,0.3821,,0.5,0.3,"[1,2,3]",0.412829018,stimuli/card_0_transparent.png,0,8,0,8,0,1,,,,,,,,,,
,,,,651d2cdc7b87b2219dde8dd8,A,2024-07-01_13h29.35.971,Slot Machine Game,2023.1.3,MacIntel,58.13953488,,,,,,,,,,,,,,,,,,,,,,,,,,,430,,,,,,,,,,,,,,,,,,,,,4,4,,,380.7112,9,up,0.1665,,0.5,0.3,"[1,2,3]",0.305281407,stimuli/card_10_transparent.png,10,9,0,9,0,1,,,,,,,,,,
,,,,651d2cdc7b87b2219dde8dd8,A,2024-07-01_13h29.35.971,Slot Machine Game,2023.1.3,MacIntel,58.13953488,,,,,,,,,,,,,,,,,,,,,,,,,,,440,,,,,,,,,,,,,,,,,,,,,4,4,,,382.2111,10,up,0.0345,,1,0.3,"[1,2,3]",0.468800584,stimuli/card_10_transparent.png,10,10,0,10,0,1,,,,,,,,,,
,,,,651d2cdc7b87b2219dde8dd8,A,2024-07-01_13h29.35.971,Slot Machine Game,2023.1.3,MacIntel,58.13953488,,,,,,,,,,,,,,,,,,,,,,,,,,,440,,,,,,,,,,,,,,,,,,,,,4,4,,,384.0782,11,left,0.0523,,1,0.3,"[1,2,3]",0.04824768,stimuli/card_0_transparent.png,0,11,0,11,0,1,,,,,,,,,,
,,,,651d2cdc7b87b2219dde8dd8,A,2024-07-01_13h29.35.971,Slot Machine Game,2023.1.3,MacIntel,58.13953488,,,,,,,,,,,,,,,,,,,,,,,,,,,540,,,,,,,,,,,,,,,,,,,,,4,4,,,385.9605,12,left,0.137,,1.5,0.3,"[1,2,3]",0.912762182,stimuli/card_100_transparent.png,100,12,0,12,0,1,,,,,,,,,,
,,,,651d2cdc7b87b2219dde8dd8,A,2024-07-01_13h29.35.971,Slot Machine Game,2023.1.3,MacIntel,58.13953488,,,,,,,,,,,,,,,,,,,,,,,,,,,640,,,,,,,,,,,,,,,,,,,,,4,4,,,388.4281,13,left,0.0353,,1,0.3,"[1,2,3]",0.272135013,stimuli/card_100_transparent.png,100,13,0,13,0,1,,,,,,,,,,
,,,,651d2cdc7b87b2219dde8dd8,A,2024-07-01_13h29.35.971,Slot Machine Game,2023.1.3,MacIntel,58.13953488,,,,,,,,,,,,,,,,,,,,,,,,,,,640,,,,,,,,,,,,,,,,,,,,,4,4,,,390.2936,14,left,0.0214,,0.5,0.3,"[1,2,3]",0.07391444,stimuli/card_0_transparent.png,0,14,0,14,0,1,,,,,,,,,,
,,,,651d2cdc7b87b2219dde8dd8,A,2024-07-01_13h29.35.971,Slot Machine Game,2023.1.3,MacIntel,58.13953488,,,,,,,,,,,,,,,,,,,,,,,,,,,,,,,,,,,391.6449,,,,,,,,,,,,,,,,,,,,,,,,,,,,,,,,,"[840,1020,1320,640]",3,0,3,0,1,,,,
,,,,651d2cdc7b87b2219dde8dd8,A,2024-07-01_13h29.35.971,Slot Machine Game,2023.1.3,MacIntel,58.13953488,,,,,,,,,,,,,,,,,,,,,,,,,,,100,,,,,,,,,,,,,,,,,,,,,5,5,"[5,15]","[[1,2,3],[3,1,2]]",398.9545,0,left,0.7514,,0.5,0.3,"[1,2,3]",0.869137625,stimuli/card_100_transparent.png,100,0,0,0,0,1,,,,,,,,,,
,,,,651d2cdc7b87b2219dde8dd8,A,2024-07-01_13h29.35.971,Slot Machine Game,2023.1.3,MacIntel,58.13953488,,,,,,,,,,,,,,,,,,,,,,,,,,,200,,,,,,,,,,,,,,,,,,,,,5,5,,,401.0277,1,left,0.2043,,0.5,0.3,"[1,2,3]",0.664671931,stimuli/card_100_transparent.png,100,1,0,1,0,1,,,,,,,,,,
,,,,651d2cdc7b87b2219dde8dd8,A,2024-07-01_13h29.35.971,Slot Machine Game,2023.1.3,MacIntel,58.13953488,,,,,,,,,,,,,,,,,,,,,,,,,,,200,,,,,,,,,,,,,,,,,,,,,5,5,,,402.5609,2,left,0.1503,,0.5,0.3,"[1,2,3]",0.08273454,stimuli/card_0_transparent.png,0,2,0,2,0,1,,,,,,,,,,
,,,,651d2cdc7b87b2219dde8dd8,A,2024-07-01_13h29.35.971,Slot Machine Game,2023.1.3,MacIntel,58.13953488,,,,,,,,,,,,,,,,,,,,,,,,,,,300,,,,,,,,,,,,,,,,,,,,,5,5,,,404.0281,3,left,0.1337,,1,0.3,"[1,2,3]",0.271028663,stimuli/card_100_transparent.png,100,3,0,3,0,1,,,,,,,,,,
,,,,651d2cdc7b87b2219dde8dd8,A,2024-07-01_13h29.35.971,Slot Machine Game,2023.1.3,MacIntel,58.13953488,,,,,,,,,,,,,,,,,,,,,,,,,,,400,,,,,,,,,,,,,,,,,,,,,5,5,,,405.9948,4,left,0.1018,,0.5,0.3,"[1,2,3]",0.577503539,stimuli/card_100_transparent.png,100,4,0,4,0,1,,,,,,,,,,
,,,,651d2cdc7b87b2219dde8dd8,A,2024-07-01_13h29.35.971,Slot Machine Game,2023.1.3,MacIntel,58.13953488,,,,,,,,,,,,,,,,,,,,,,,,,,,400,,,,,,,,,,,,,,,,,,,,,5,5,,,407.4282,5,left,0.1541,,1.5,0.3,"[3,1,2]",0.235469095,stimuli/card_0_transparent.png,0,5,0,5,0,1,,,,,,,,,,
,,,,651d2cdc7b87b2219dde8dd8,A,2024-07-01_13h29.35.971,Slot Machine Game,2023.1.3,MacIntel,58.13953488,,,,,,,,,,,,,,,,,,,,,,,,,,,500,,,,,,,,,,,,,,,,,,,,,5,5,,,409.9114,6,left,0.0832,,1.5,0.3,"[3,1,2]",0.080546952,stimuli/card_100_transparent.png,100,6,0,6,0,1,,,,,,,,,,
,,,,651d2cdc7b87b2219dde8dd8,A,2024-07-01_13h29.35.971,Slot Machine Game,2023.1.3,MacIntel,58.13953488,,,,,,,,,,,,,,,,,,,,,,,,,,,500,,,,,,,,,,,,,,,,,,,,,5,5,,,412.3279,7,left,0.0003,,1,0.3,"[3,1,2]",0.448288788,stimuli/card_0_transparent.png,0,7,0,7,0,1,,,,,,,,,,
,,,,651d2cdc7b87b2219dde8dd8,A,2024-07-01_13h29.35.971,Slot Machine Game,2023.1.3,MacIntel,58.13953488,,,,,,,,,,,,,,,,,,,,,,,,,,,500,,,,,,,,,,,,,,,,,,,,,5,5,,,414.1615,8,left,0.1006,,1,0.3,"[3,1,2]",0.594886981,stimuli/card_0_transparent.png,0,8,0,8,0,1,,,,,,,,,,
,,,,651d2cdc7b87b2219dde8dd8,A,2024-07-01_13h29.35.971,Slot Machine Game,2023.1.3,MacIntel,58.13953488,,,,,,,,,,,,,,,,,,,,,,,,,,,600,,,,,,,,,,,,,,,,,,,,,5,5,,,416.0941,9,up,0.0956,,0.5,0.3,"[3,1,2]",0.458136774,stimuli/card_100_transparent.png,100,9,0,9,0,1,,,,,,,,,,
,,,,651d2cdc7b87b2219dde8dd8,A,2024-07-01_13h29.35.971,Slot Machine Game,2023.1.3,MacIntel,58.13953488,,,,,,,,,,,,,,,,,,,,,,,,,,,700,,,,,,,,,,,,,,,,,,,,,5,5,,,417.5109,10,up,0.162,,1,0.3,"[3,1,2]",0.514118841,stimuli/card_100_transparent.png,100,10,0,10,0,1,,,,,,,,,,
,,,,651d2cdc7b87b2219dde8dd8,A,2024-07-01_13h29.35.971,Slot Machine Game,2023.1.3,MacIntel,58.13953488,,,,,,,,,,,,,,,,,,,,,,,,,,,700,,,,,,,,,,,,,,,,,,,,,5,5,,,419.4783,11,up,0.1387,,1,0.3,"[3,1,2]",0.069917787,stimuli/card_0_transparent.png,0,11,0,11,0,1,,,,,,,,,,
,,,,651d2cdc7b87b2219dde8dd8,A,2024-07-01_13h29.35.971,Slot Machine Game,2023.1.3,MacIntel,58.13953488,,,,,,,,,,,,,,,,,,,,,,,,,,,800,,,,,,,,,,,,,,,,,,,,,5,5,,,421.445,12,up,0.0345,,1.5,0.3,"[3,1,2]",0.549365203,stimuli/card_100_transparent.png,100,12,0,12,0,1,,,,,,,,,,
,,,,651d2cdc7b87b2219dde8dd8,A,2024-07-01_13h29.35.971,Slot Machine Game,2023.1.3,MacIntel,58.13953488,,,,,,,,,,,,,,,,,,,,,,,,,,,800,,,,,,,,,,,,,,,,,,,,,5,5,,,423.8115,13,up,0.0675,,1.5,0.3,"[3,1,2]",0.051819238,stimuli/card_0_transparent.png,0,13,0,13,0,1,,,,,,,,,,
,,,,651d2cdc7b87b2219dde8dd8,A,2024-07-01_13h29.35.971,Slot Machine Game,2023.1.3,MacIntel,58.13953488,,,,,,,,,,,,,,,,,,,,,,,,,,,900,,,,,,,,,,,,,,,,,,,,,5,5,,,426.2117,14,up,0.0996,,1,0.3,"[3,1,2]",0.443140622,stimuli/card_100_transparent.png,100,14,0,14,0,1,,,,,,,,,,
,,,,651d2cdc7b87b2219dde8dd8,A,2024-07-01_13h29.35.971,Slot Machine Game,2023.1.3,MacIntel,58.13953488,,,,,,,,,,,,,,,,,,,,,,,,,,,,,,,,,,,428.1447,,,,,,,,,,,,,,,,,,,,,,,,,,,,,,,,,"[840,1020,1320,640,900]",4,0,4,0,1,,,,
,,,,651d2cdc7b87b2219dde8dd8,A,2024-07-01_13h29.35.971,Slot Machine Game,2023.1.3,MacIntel,58.13953488,,,,,,,,,,,,,,,,,,,,,,,,,,,100,,,,,,,,,,,,,,,,,,,,,6,6,"[4,10,15]","[[2,3,1],[1,3,2],[3,2,1]]",433.2918,0,right,0.9182,,0.5,0.3,"[2,3,1]",0.204707204,stimuli/card_100_transparent.png,100,0,0,0,0,1,,,,,,,,,,
,,,,651d2cdc7b87b2219dde8dd8,A,2024-07-01_13h29.35.971,Slot Machine Game,2023.1.3,MacIntel,58.13953488,,,,,,,,,,,,,,,,,,,,,,,,,,,200,,,,,,,,,,,,,,,,,,,,,6,6,,,435.5279,1,right,0.0631,,1,0.3,"[2,3,1]",0.273822884,stimuli/card_100_transparent.png,100,1,0,1,0,1,,,,,,,,,,
,,,,651d2cdc7b87b2219dde8dd8,A,2024-07-01_13h29.35.971,Slot Machine Game,2023.1.3,MacIntel,58.13953488,,,,,,,,,,,,,,,,,,,,,,,,,,,300,,,,,,,,,,,,,,,,,,,,,6,6,,,437.4116,2,right,0.2173,,1.5,0.3,"[2,3,1]",0.523876571,stimuli/card_100_transparent.png,100,2,0,2,0,1,,,,,,,,,,
,,,,651d2cdc7b87b2219dde8dd8,A,2024-07-01_13h29.35.971,Slot Machine Game,2023.1.3,MacIntel,58.13953488,,,,,,,,,,,,,,,,,,,,,,,,,,,400,,,,,,,,,,,,,,,,,,,,,6,6,,,439.9617,3,right,0.083,,1,0.3,"[2,3,1]",0.990269294,stimuli/card_100_transparent.png,100,3,0,3,0,1,,,,,,,,,,
,,,,651d2cdc7b87b2219dde8dd8,A,2024-07-01_13h29.35.971,Slot Machine Game,2023.1.3,MacIntel,58.13953488,,,,,,,,,,,,,,,,,,,,,,,,,,,410,,,,,,,,,,,,,,,,,,,,,6,6,,,441.878,4,right,0.0863,,0.5,0.3,"[1,3,2]",0.77904118,stimuli/card_10_transparent.png,10,4,0,4,0,1,,,,,,,,,,
,,,,651d2cdc7b87b2219dde8dd8,A,2024-07-01_13h29.35.971,Slot Machine Game,2023.1.3,MacIntel,58.13953488,,,,,,,,,,,,,,,,,,,,,,,,,,,420,,,,,,,,,,,,,,,,,,,,,6,6,,,443.2946,5,right,0.0005,,0.5,0.3,"[1,3,2]",0.250523275,stimuli/card_10_transparent.png,10,5,0,5,0,1,,,,,,,,,,
,,,,651d2cdc7b87b2219dde8dd8,A,2024-07-01_13h29.35.971,Slot Machine Game,2023.1.3,MacIntel,58.13953488,,,,,,,,,,,,,,,,,,,,,,,,,,,430,,,,,,,,,,,,,,,,,,,,,6,6,,,444.6278,6,right,0.533,,1,0.3,"[1,3,2]",0.83118117,stimuli/card_10_transparent.png,10,6,0,6,0,1,,,,,,,,,,
,,,,651d2cdc7b87b2219dde8dd8,A,2024-07-01_13h29.35.971,Slot Machine Game,2023.1.3,MacIntel,58.13953488,,,,,,,,,,,,,,,,,,,,,,,,,,,430,,,,,,,,,,,,,,,,,,,,,6,6,,,446.9783,7,up,0.1497,,0.5,0.3,"[1,3,2]",0.771204252,stimuli/card_0_transparent.png,0,7,0,7,0,1,,,,,,,,,,
,,,,651d2cdc7b87b2219dde8dd8,A,2024-07-01_13h29.35.971,Slot Machine Game,2023.1.3,MacIntel,58.13953488,,,,,,,,,,,,,,,,,,,,,,,,,,,430,,,,,,,,,,,,,,,,,,,,,6,6,,,448.4605,8,up,0.1842,,0.5,0.3,"[1,3,2]",0.902726577,stimuli/card_0_transparent.png,0,8,0,8,0,1,,,,,,,,,,
,,,,651d2cdc7b87b2219dde8dd8,A,2024-07-01_13h29.35.971,Slot Machine Game,2023.1.3,MacIntel,58.13953488,,,,,,,,,,,,,,,,,,,,,,,,,,,530,,,,,,,,,,,,,,,,,,,,,6,6,,,449.9614,9,left,0.0843,,1.5,0.3,"[1,3,2]",0.771278331,stimuli/card_100_transparent.png,100,9,0,9,0,1,,,,,,,,,,
,,,,651d2cdc7b87b2219dde8dd8,A,2024-07-01_13h29.35.971,Slot Machine Game,2023.1.3,MacIntel,58.13953488,,,,,,,,,,,,,,,,,,,,,,,,,,,630,,,,,,,,,,,,,,,,,,,,,6,6,,,452.3782,10,left,0.0621,,0.5,0.3,"[3,2,1]",0.038710907,stimuli/card_100_transparent.png,100,10,0,10,0,1,,,,,,,,,,
,,,,651d2cdc7b87b2219dde8dd8,A,2024-07-01_13h29.35.971,Slot Machine Game,2023.1.3,MacIntel,58.13953488,,,,,,,,,,,,,,,,,,,,,,,,,,,630,,,,,,,,,,,,,,,,,,,,,6,6,,,453.7617,11,left,0.133,,1.5,0.3,"[3,2,1]",0.311585748,stimuli/card_0_transparent.png,0,11,0,11,0,1,,,,,,,,,,
,,,,651d2cdc7b87b2219dde8dd8,A,2024-07-01_13h29.35.971,Slot Machine Game,2023.1.3,MacIntel,58.13953488,,,,,,,,,,,,,,,,,,,,,,,,,,,630,,,,,,,,,,,,,,,,,,,,,6,6,,,456.2272,12,left,0.1001,,0.5,0.3,"[3,2,1]",0.55229792,stimuli/card_0_transparent.png,0,12,0,12,0,1,,,,,,,,,,
,,,,651d2cdc7b87b2219dde8dd8,A,2024-07-01_13h29.35.971,Slot Machine Game,2023.1.3,MacIntel,58.13953488,,,,,,,,,,,,,,,,,,,,,,,,,,,730,,,,,,,,,,,,,,,,,,,,,6,6,,,457.6444,13,left,0.395,,1,0.3,"[3,2,1]",0.032281261,stimuli/card_100_transparent.png,100,13,0,13,0,1,,,,,,,,,,
,,,,651d2cdc7b87b2219dde8dd8,A,2024-07-01_13h29.35.971,Slot Machine Game,2023.1.3,MacIntel,58.13953488,,,,,,,,,,,,,,,,,,,,,,,,,,,730,,,,,,,,,,,,,,,,,,,,,6,6,,,459.8451,14,left,0.166,,0.5,0.3,"[3,2,1]",0.469821844,stimuli/card_0_transparent.png,0,14,0,14,0,1,,,,,,,,,,
,,,,651d2cdc7b87b2219dde8dd8,A,2024-07-01_13h29.35.971,Slot Machine Game,2023.1.3,MacIntel,58.13953488,,,,,,,,,,,,,,,,,,,,,,,,,,,,,,,,,,,461.3445,,,,,,,,,,,,,,,,,,,,,,,,,,,,,,,,,"[840,1020,1320,640,900,730]",5,0,5,0,1,,,,
,,,,651d2cdc7b87b2219dde8dd8,A,2024-07-01_13h29.35.971,Slot Machine Game,2023.1.3,MacIntel,58.13953488,,,,,,,,,,,,,,,,,,,,,,,,,,,0,,,,,,,,,,,,,,,,,,,,,7,7,"[9,15]","[[1,3,2],[2,3,1]]",465.9692,0,up,0.4675,,0.5,0.3,"[1,3,2]",0.70073337,stimuli/card_0_transparent.png,0,0,0,0,0,1,,,,,,,,,,
,,,,651d2cdc7b87b2219dde8dd8,A,2024-07-01_13h29.35.971,Slot Machine Game,2023.1.3,MacIntel,58.13953488,,,,,,,,,,,,,,,,,,,,,,,,,,,0,,,,,,,,,,,,,,,,,,,,,7,7,,,467.7606,1,up,0.3724,,1,0.3,"[1,3,2]",0.830515146,stimuli/card_0_transparent.png,0,1,0,1,0,1,,,,,,,,,,
,,,,651d2cdc7b87b2219dde8dd8,A,2024-07-01_13h29.35.971,Slot Machine Game,2023.1.3,MacIntel,58.13953488,,,,,,,,,,,,,,,,,,,,,,,,,,,100,,,,,,,,,,,,,,,,,,,,,7,7,,,469.9449,2,left,0.1183,,0.5,0.3,"[1,3,2]",0.353986323,stimuli/card_100_transparent.png,100,2,0,2,0,1,,,,,,,,,,
,,,,651d2cdc7b87b2219dde8dd8,A,2024-07-01_13h29.35.971,Slot Machine Game,2023.1.3,MacIntel,58.13953488,,,,,,,,,,,,,,,,,,,,,,,,,,,200,,,,,,,,,,,,,,,,,,,,,7,7,,,471.3952,3,left,0.0038,,1,0.3,"[1,3,2]",0.412860478,stimuli/card_100_transparent.png,100,3,0,3,0,1,,,,,,,,,,
,,,,651d2cdc7b87b2219dde8dd8,A,2024-07-01_13h29.35.971,Slot Machine Game,2023.1.3,MacIntel,58.13953488,,,,,,,,,,,,,,,,,,,,,,,,,,,300,,,,,,,,,,,,,,,,,,,,,7,7,,,473.227,4,left,0.0001,,1.5,0.3,"[1,3,2]",0.242558946,stimuli/card_100_transparent.png,100,4,0,4,0,1,,,,,,,,,,
,,,,651d2cdc7b87b2219dde8dd8,A,2024-07-01_13h29.35.971,Slot Machine Game,2023.1.3,MacIntel,58.13953488,,,,,,,,,,,,,,,,,,,,,,,,,,,400,,,,,,,,,,,,,,,,,,,,,7,7,,,475.5438,5,left,0.0003,,1.5,0.3,"[1,3,2]",0.784324204,stimuli/card_100_transparent.png,100,5,0,5,0,1,,,,,,,,,,
,,,,651d2cdc7b87b2219dde8dd8,A,2024-07-01_13h29.35.971,Slot Machine Game,2023.1.3,MacIntel,58.13953488,,,,,,,,,,,,,,,,,,,,,,,,,,,500,,,,,,,,,,,,,,,,,,,,,7,7,,,477.8618,6,left,0.33,,1,0.3,"[1,3,2]",0.339166749,stimuli/card_100_transparent.png,100,6,0,6,0,1,,,,,,,,,,
,,,,651d2cdc7b87b2219dde8dd8,A,2024-07-01_13h29.35.971,Slot Machine Game,2023.1.3,MacIntel,58.13953488,,,,,,,,,,,,,,,,,,,,,,,,,,,510,,,,,,,,,,,,,,,,,,,,,7,7,,,480.0106,7,left,0.1508,,1.5,0.3,"[1,3,2]",0.178531324,stimuli/card_10_transparent.png,10,7,0,7,0,1,,,,,,,,,,
,,,,651d2cdc7b87b2219dde8dd8,A,2024-07-01_13h29.35.971,Slot Machine Game,2023.1.3,MacIntel,58.13953488,,,,,,,,,,,,,,,,,,,,,,,,,,,610,,,,,,,,,,,,,,,,,,,,,7,7,,,482.4787,8,left,0.0221,,1,0.3,"[1,3,2]",0.231952989,stimuli/card_100_transparent.png,100,8,0,8,0,1,,,,,,,,,,
,,,,651d2cdc7b87b2219dde8dd8,A,2024-07-01_13h29.35.971,Slot Machine Game,2023.1.3,MacIntel,58.13953488,,,,,,,,,,,,,,,,,,,,,,,,,,,620,,,,,,,,,,,,,,,,,,,,,7,7,,,484.3284,9,left,0.3188,,1,0.3,"[2,3,1]",0.859103131,stimuli/card_10_transparent.png,10,9,0,9,0,1,,,,,,,,,,
,,,,651d2cdc7b87b2219dde8dd8,A,2024-07-01_13h29.35.971,Slot Machine Game,2023.1.3,MacIntel,58.13953488,,,,,,,,,,,,,,,,,,,,,,,,,,,620,,,,,,,,,,,,,,,,,,,,,7,7,,,486.4786,10,left,0.0341,,0.5,0.3,"[2,3,1]",0.064597107,stimuli/card_0_transparent.png,0,10,0,10,0,1,,,,,,,,,,
,,,,651d2cdc7b87b2219dde8dd8,A,2024-07-01_13h29.35.971,Slot Machine Game,2023.1.3,MacIntel,58.13953488,,,,,,,,,,,,,,,,,,,,,,,,,,,620,,,,,,,,,,,,,,,,,,,,,7,7,,,487.845,11,up,0.0349,,1,0.3,"[2,3,1]",0.554261537,stimuli/card_0_transparent.png,0,11,0,11,0,1,,,,,,,,,,
,,,,651d2cdc7b87b2219dde8dd8,A,2024-07-01_13h29.35.971,Slot Machine Game,2023.1.3,MacIntel,58.13953488,,,,,,,,,,,,,,,,,,,,,,,,,,,620,,,,,,,,,,,,,,,,,,,,,7,7,,,489.7105,12,up,0.1952,,0.5,0.3,"[2,3,1]",0.837828682,stimuli/card_0_transparent.png,0,12,0,12,0,1,,,,,,,,,,
,,,,651d2cdc7b87b2219dde8dd8,A,2024-07-01_13h29.35.971,Slot Machine Game,2023.1.3,MacIntel,58.13953488,,,,,,,,,,,,,,,,,,,,,,,,,,,620,,,,,,,,,,,,,,,,,,,,,7,7,,,491.2285,13,right,0.1165,,1,0.3,"[2,3,1]",0.09578379,stimuli/card_0_transparent.png,0,13,0,13,0,1,,,,,,,,,,
,,,,651d2cdc7b87b2219dde8dd8,A,2024-07-01_13h29.35.971,Slot Machine Game,2023.1.3,MacIntel,58.13953488,,,,,,,,,,,,,,,,,,,,,,,,,,,620,,,,,,,,,,,,,,,,,,,,,7,7,,,493.1785,14,right,0.0352,,1,0.3,"[2,3,1]",0.016613886,stimuli/card_0_transparent.png,0,14,0,14,0,1,,,,,,,,,,
,,,,651d2cdc7b87b2219dde8dd8,A,2024-07-01_13h29.35.971,Slot Machine Game,2023.1.3,MacIntel,58.13953488,,,,,,,,,,,,,,,,,,,,,,,,,,,,,,,,,,,495.0447,,,,,,,,,,,,,,,,,,,,,,,,,,,,,,,,,"[840,1020,1320,640,900,730,620]",6,0,6,0,1,,,,
,,,,651d2cdc7b87b2219dde8dd8,A,2024-07-01_13h29.35.971,Slot Machine Game,2023.1.3,MacIntel,58.13953488,,,,,,,,,,,,,,,,,,,,,,,,,,,10,,,,,,,,,,,,,,,,,,,,,8,8,"[11,15]","[[2,1,3],[1,2,3]]",500.0598,0,left,0.6832,,1,0.3,"[2,1,3]",0.504501924,stimuli/card_10_transparent.png,10,0,0,0,0,1,,,,,,,,,,
,,,,651d2cdc7b87b2219dde8dd8,A,2024-07-01_13h29.35.971,Slot Machine Game,2023.1.3,MacIntel,58.13953488,,,,,,,,,,,,,,,,,,,,,,,,,,,20,,,,,,,,,,,,,,,,,,,,,8,8,,,502.5606,1,left,0.2685,,1.5,0.3,"[2,1,3]",0.459311614,stimuli/card_10_transparent.png,10,1,0,1,0,1,,,,,,,,,,
,,,,651d2cdc7b87b2219dde8dd8,A,2024-07-01_13h29.35.971,Slot Machine Game,2023.1.3,MacIntel,58.13953488,,,,,,,,,,,,,,,,,,,,,,,,,,,20,,,,,,,,,,,,,,,,,,,,,8,8,,,505.1448,2,up,0.1516,,0.5,0.3,"[2,1,3]",0.086061158,stimuli/card_0_transparent.png,0,2,0,2,0,1,,,,,,,,,,
,,,,651d2cdc7b87b2219dde8dd8,A,2024-07-01_13h29.35.971,Slot Machine Game,2023.1.3,MacIntel,58.13953488,,,,,,,,,,,,,,,,,,,,,,,,,,,20,,,,,,,,,,,,,,,,,,,,,8,8,,,506.6288,3,right,0.134,,1,0.3,"[2,1,3]",0.855695336,stimuli/card_0_transparent.png,0,3,0,3,0,1,,,,,,,,,,
,,,,651d2cdc7b87b2219dde8dd8,A,2024-07-01_13h29.35.971,Slot Machine Game,2023.1.3,MacIntel,58.13953488,,,,,,,,,,,,,,,,,,,,,,,,,,,120,,,,,,,,,,,,,,,,,,,,,8,8,,,508.5948,4,right,0.1323,,1,0.3,"[2,1,3]",0.092409938,stimuli/card_100_transparent.png,100,4,0,4,0,1,,,,,,,,,,
,,,,651d2cdc7b87b2219dde8dd8,A,2024-07-01_13h29.35.971,Slot Machine Game,2023.1.3,MacIntel,58.13953488,,,,,,,,,,,,,,,,,,,,,,,,,,,120,,,,,,,,,,,,,,,,,,,,,8,8,,,510.5606,5,right,0.0185,,0.5,0.3,"[2,1,3]",0.394307543,stimuli/card_0_transparent.png,0,5,0,5,0,1,,,,,,,,,,
,,,,651d2cdc7b87b2219dde8dd8,A,2024-07-01_13h29.35.971,Slot Machine Game,2023.1.3,MacIntel,58.13953488,,,,,,,,,,,,,,,,,,,,,,,,,,,120,,,,,,,,,,,,,,,,,,,,,8,8,,,511.8942,6,right,0.0533,,1,0.3,"[2,1,3]",0.443738645,stimuli/card_0_transparent.png,0,6,0,6,0,1,,,,,,,,,,
,,,,651d2cdc7b87b2219dde8dd8,A,2024-07-01_13h29.35.971,Slot Machine Game,2023.1.3,MacIntel,58.13953488,,,,,,,,,,,,,,,,,,,,,,,,,,,220,,,,,,,,,,,,,,,,,,,,,8,8,,,513.7611,7,up,0.1568,,1.5,0.3,"[2,1,3]",0.609192983,stimuli/card_100_transparent.png,100,7,0,7,0,1,,,,,,,,,,
,,,,651d2cdc7b87b2219dde8dd8,A,2024-07-01_13h29.35.971,Slot Machine Game,2023.1.3,MacIntel,58.13953488,,,,,,,,,,,,,,,,,,,,,,,,,,,320,,,,,,,,,,,,,,,,,,,,,8,8,,,516.2454,8,up,0.4024,,1.5,0.3,"[2,1,3]",0.476315539,stimuli/card_100_transparent.png,100,8,0,8,0,1,,,,,,,,,,
,,,,651d2cdc7b87b2219dde8dd8,A,2024-07-01_13h29.35.971,Slot Machine Game,2023.1.3,MacIntel,58.13953488,,,,,,,,,,,,,,,,,,,,,,,,,,,420,,,,,,,,,,,,,,,,,,,,,8,8,,,518.9777,9,up,0.0362,,1.5,0.3,"[2,1,3]",0.354634017,stimuli/card_100_transparent.png,100,9,0,9,0,1,,,,,,,,,,
,,,,651d2cdc7b87b2219dde8dd8,A,2024-07-01_13h29.35.971,Slot Machine Game,2023.1.3,MacIntel,58.13953488,,,,,,,,,,,,,,,,,,,,,,,,,,,520,,,,,,,,,,,,,,,,,,,,,8,8,,,521.3285,10,up,0.1109,,0.5,0.3,"[2,1,3]",0.865828476,stimuli/card_100_transparent.png,100,10,0,10,0,1,,,,,,,,,,
,,,,651d2cdc7b87b2219dde8dd8,A,2024-07-01_13h29.35.971,Slot Machine Game,2023.1.3,MacIntel,58.13953488,,,,,,,,,,,,,,,,,,,,,,,,,,,530,,,,,,,,,,,,,,,,,,,,,8,8,,,522.7608,11,up,0.0535,,1.5,0.3,"[1,2,3]",0.237972269,stimuli/card_10_transparent.png,10,11,0,11,0,1,,,,,,,,,,
,,,,651d2cdc7b87b2219dde8dd8,A,2024-07-01_13h29.35.971,Slot Machine Game,2023.1.3,MacIntel,58.13953488,,,,,,,,,,,,,,,,,,,,,,,,,,,540,,,,,,,,,,,,,,,,,,,,,8,8,,,525.1454,12,up,0.0618,,1.5,0.3,"[1,2,3]",0.280764908,stimuli/card_10_transparent.png,10,12,0,12,0,1,,,,,,,,,,
,,,,651d2cdc7b87b2219dde8dd8,A,2024-07-01_13h29.35.971,Slot Machine Game,2023.1.3,MacIntel,58.13953488,,,,,,,,,,,,,,,,,,,,,,,,,,,550,,,,,,,,,,,,,,,,,,,,,8,8,,,527.5274,13,up,0.0003,,1.5,0.3,"[1,2,3]",0.230713229,stimuli/card_10_transparent.png,10,13,0,13,0,1,,,,,,,,,,
,,,,651d2cdc7b87b2219dde8dd8,A,2024-07-01_13h29.35.971,Slot Machine Game,2023.1.3,MacIntel,58.13953488,,,,,,,,,,,,,,,,,,,,,,,,,,,650,,,,,,,,,,,,,,,,,,,,,8,8,,,529.8442,14,left,0.0876,,1,0.3,"[1,2,3]",0.907714874,stimuli/card_100_transparent.png,100,14,0,14,0,1,,,,,,,,,,
,,,,651d2cdc7b87b2219dde8dd8,A,2024-07-01_13h29.35.971,Slot Machine Game,2023.1.3,MacIntel,58.13953488,,,,,,,,,,,,,,,,,,,,,,,,,,,,,,,,,,,531.7447,,,,,,,,,,,,,,,,,,,,,,,,,,,,,,,,,"[840,1020,1320,640,900,730,620,650]",7,0,7,0,1,,,,
,,,,651d2cdc7b87b2219dde8dd8,A,2024-07-01_13h29.35.971,Slot Machine Game,2023.1.3,MacIntel,58.13953488,,,,,,,,,,,,,,,,,,,,,,,,,,,0,,,,,,,,,,,,,,,,,,,,,9,9,"[8,15]","[[3,2,1],[3,1,2]]",535.9877,0,left,0.4353,,0.5,0.3,"[3,2,1]",0.276231367,stimuli/card_0_transparent.png,0,0,0,0,0,1,,,,,,,,,,
,,,,651d2cdc7b87b2219dde8dd8,A,2024-07-01_13h29.35.971,Slot Machine Game,2023.1.3,MacIntel,58.13953488,,,,,,,,,,,,,,,,,,,,,,,,,,,10,,,,,,,,,,,,,,,,,,,,,9,9,,,537.7454,1,up,0.5044,,1,0.3,"[3,2,1]",0.799152023,stimuli/card_10_transparent.png,10,1,0,1,0,1,,,,,,,,,,
,,,,651d2cdc7b87b2219dde8dd8,A,2024-07-01_13h29.35.971,Slot Machine Game,2023.1.3,MacIntel,58.13953488,,,,,,,,,,,,,,,,,,,,,,,,,,,20,,,,,,,,,,,,,,,,,,,,,9,9,,,540.0788,2,right,0.0875,,1.5,0.3,"[3,2,1]",0.177448643,stimuli/card_10_transparent.png,10,2,0,2,0,1,,,,,,,,,,
,,,,651d2cdc7b87b2219dde8dd8,A,2024-07-01_13h29.35.971,Slot Machine Game,2023.1.3,MacIntel,58.13953488,,,,,,,,,,,,,,,,,,,,,,,,,,,30,,,,,,,,,,,,,,,,,,,,,9,9,,,542.4948,3,up,0.2881,,1.5,0.3,"[3,2,1]",0.85668459,stimuli/card_10_transparent.png,10,3,0,3,0,1,,,,,,,,,,
,,,,651d2cdc7b87b2219dde8dd8,A,2024-07-01_13h29.35.971,Slot Machine Game,2023.1.3,MacIntel,58.13953488,,,,,,,,,,,,,,,,,,,,,,,,,,,30,,,,,,,,,,,,,,,,,,,,,9,9,,,545.0941,4,left,0.1027,,0.5,0.3,"[3,2,1]",0.590218555,stimuli/card_0_transparent.png,0,4,0,4,0,1,,,,,,,,,,
,,,,651d2cdc7b87b2219dde8dd8,A,2024-07-01_13h29.35.971,Slot Machine Game,2023.1.3,MacIntel,58.13953488,,,,,,,,,,,,,,,,,,,,,,,,,,,30,,,,,,,,,,,,,,,,,,,,,9,9,,,546.5288,5,left,0.1355,,1.5,0.3,"[3,2,1]",0.231646572,stimuli/card_0_transparent.png,0,5,0,5,0,1,,,,,,,,,,
,,,,651d2cdc7b87b2219dde8dd8,A,2024-07-01_13h29.35.971,Slot Machine Game,2023.1.3,MacIntel,58.13953488,,,,,,,,,,,,,,,,,,,,,,,,,,,30,,,,,,,,,,,,,,,,,,,,,9,9,,,548.9955,6,up,0.1128,,1,0.3,"[3,2,1]",0.057751929,stimuli/card_0_transparent.png,0,6,0,6,0,1,,,,,,,,,,
,,,,651d2cdc7b87b2219dde8dd8,A,2024-07-01_13h29.35.971,Slot Machine Game,2023.1.3,MacIntel,58.13953488,,,,,,,,,,,,,,,,,,,,,,,,,,,40,,,,,,,,,,,,,,,,,,,,,9,9,,,550.9289,7,right,0.1154,,0.5,0.3,"[3,2,1]",0.156089313,stimuli/card_10_transparent.png,10,7,0,7,0,1,,,,,,,,,,
,,,,651d2cdc7b87b2219dde8dd8,A,2024-07-01_13h29.35.971,Slot Machine Game,2023.1.3,MacIntel,58.13953488,,,,,,,,,,,,,,,,,,,,,,,,,,,40,,,,,,,,,,,,,,,,,,,,,9,9,,,552.3785,8,right,0.0654,,1,0.3,"[3,1,2]",0.054131419,stimuli/card_0_transparent.png,0,8,0,8,0,1,,,,,,,,,,
,,,,651d2cdc7b87b2219dde8dd8,A,2024-07-01_13h29.35.971,Slot Machine Game,2023.1.3,MacIntel,58.13953488,,,,,,,,,,,,,,,,,,,,,,,,,,,40,,,,,,,,,,,,,,,,,,,,,9,9,,,554.262,9,left,0.0894,,1.5,0.3,"[3,1,2]",0.396162939,stimuli/card_0_transparent.png,0,9,0,9,0,1,,,,,,,,,,
,,,,651d2cdc7b87b2219dde8dd8,A,2024-07-01_13h29.35.971,Slot Machine Game,2023.1.3,MacIntel,58.13953488,,,,,,,,,,,,,,,,,,,,,,,,,,,40,,,,,,,,,,,,,,,,,,,,,9,9,,,556.661,10,left,0.1324,,1.5,0.3,"[3,1,2]",0.758567366,stimuli/card_0_transparent.png,0,10,0,10,0,1,,,,,,,,,,
,,,,651d2cdc7b87b2219dde8dd8,A,2024-07-01_13h29.35.971,Slot Machine Game,2023.1.3,MacIntel,58.13953488,,,,,,,,,,,,,,,,,,,,,,,,,,,140,,,,,,,,,,,,,,,,,,,,,9,9,,,559.1122,11,right,0.1834,,1.5,0.3,"[3,1,2]",0.115185073,stimuli/card_100_transparent.png,100,11,0,11,0,1,,,,,,,,,,
,,,,651d2cdc7b87b2219dde8dd8,A,2024-07-01_13h29.35.971,Slot Machine Game,2023.1.3,MacIntel,58.13953488,,,,,,,,,,,,,,,,,,,,,,,,,,,150,,,,,,,,,,,,,,,,,,,,,9,9,,,561.6288,12,right,0.0218,,1,0.3,"[3,1,2]",0.602030528,stimuli/card_10_transparent.png,10,12,0,12,0,1,,,,,,,,,,
,,,,651d2cdc7b87b2219dde8dd8,A,2024-07-01_13h29.35.971,Slot Machine Game,2023.1.3,MacIntel,58.13953488,,,,,,,,,,,,,,,,,,,,,,,,,,,160,,,,,,,,,,,,,,,,,,,,,9,9,,,563.4789,13,right,0.1206,,1.5,0.3,"[3,1,2]",0.327667375,stimuli/card_10_transparent.png,10,13,0,13,0,1,,,,,,,,,,
,,,,651d2cdc7b87b2219dde8dd8,A,2024-07-01_13h29.35.971,Slot Machine Game,2023.1.3,MacIntel,58.13953488,,,,,,,,,,,,,,,,,,,,,,,,,,,260,,,,,,,,,,,,,,,,,,,,,9,9,,,565.9287,14,right,0.007,,1,0.3,"[3,1,2]",0.146908403,stimuli/card_100_transparent.png,100,14,0,14,0,1,,,,,,,,,,
,,,,651d2cdc7b87b2219dde8dd8,A,2024-07-01_13h29.35.971,Slot Machine Game,2023.1.3,MacIntel,58.13953488,,,,,,,,,,,,,,,,,,,,,,,,,,,,,,,,,,,567.762,,,,,,,,,,,,,,,,,,,,,,,,,,,,,,,,,"[840,1020,1320,640,900,730,620,650,260]",8,0,8,0,1,,,,
,,,,651d2cdc7b87b2219dde8dd8,A,2024-07-01_13h29.35.971,Slot Machine Game,2023.1.3,MacIntel,58.13953488,,,,,,,,,,,,,,,,,,,,,,,,,,,0,,,,,,,,,,,,,,,,,,,,,10,10,"[10,15]","[[3,1,2],[1,3,2]]",572.7754,0,right,0.0149,,0.5,0.3,"[3,1,2]",0.098322896,stimuli/card_0_transparent.png,0,0,0,0,0,1,,,,,,,,,,
,,,,651d2cdc7b87b2219dde8dd8,A,2024-07-01_13h29.35.971,Slot Machine Game,2023.1.3,MacIntel,58.13953488,,,,,,,,,,,,,,,,,,,,,,,,,,,100,,,,,,,,,,,,,,,,,,,,,10,10,,,574.1124,1,up,0.0051,,1,0.3,"[3,1,2]",0.790737954,stimuli/card_100_transparent.png,100,1,0,1,0,1,,,,,,,,,,
,,,,651d2cdc7b87b2219dde8dd8,A,2024-07-01_13h29.35.971,Slot Machine Game,2023.1.3,MacIntel,58.13953488,,,,,,,,,,,,,,,,,,,,,,,,,,,100,,,,,,,,,,,,,,,,,,,,,10,10,,,575.9455,2,up,0.0345,,0.5,0.3,"[3,1,2]",0.080253198,stimuli/card_0_transparent.png,0,2,0,2,0,1,,,,,,,,,,
,,,,651d2cdc7b87b2219dde8dd8,A,2024-07-01_13h29.35.971,Slot Machine Game,2023.1.3,MacIntel,58.13953488,,,,,,,,,,,,,,,,,,,,,,,,,,,110,,,,,,,,,,,,,,,,,,,,,10,10,,,577.3124,3,up,0.0946,,1.5,0.3,"[3,1,2]",0.145356866,stimuli/card_10_transparent.png,10,3,0,3,0,1,,,,,,,,,,
,,,,651d2cdc7b87b2219dde8dd8,A,2024-07-01_13h29.35.971,Slot Machine Game,2023.1.3,MacIntel,58.13953488,,,,,,,,,,,,,,,,,,,,,,,,,,,210,,,,,,,,,,,,,,,,,,,,,10,10,,,579.7276,4,up,0.1319,,1,0.3,"[3,1,2]",0.348018881,stimuli/card_100_transparent.png,100,4,0,4,0,1,,,,,,,,,,
,,,,651d2cdc7b87b2219dde8dd8,A,2024-07-01_13h29.35.971,Slot Machine Game,2023.1.3,MacIntel,58.13953488,,,,,,,,,,,,,,,,,,,,,,,,,,,220,,,,,,,,,,,,,,,,,,,,,10,10,,,581.6788,5,up,0.1,,1,0.3,"[3,1,2]",0.116958252,stimuli/card_10_transparent.png,10,5,0,5,0,1,,,,,,,,,,
,,,,651d2cdc7b87b2219dde8dd8,A,2024-07-01_13h29.35.971,Slot Machine Game,2023.1.3,MacIntel,58.13953488,,,,,,,,,,,,,,,,,,,,,,,,,,,320,,,,,,,,,,,,,,,,,,,,,10,10,,,583.6116,6,up,0.1,,1.5,0.3,"[3,1,2]",0.235332365,stimuli/card_100_transparent.png,100,6,0,6,0,1,,,,,,,,,,
,,,,651d2cdc7b87b2219dde8dd8,A,2024-07-01_13h29.35.971,Slot Machine Game,2023.1.3,MacIntel,58.13953488,,,,,,,,,,,,,,,,,,,,,,,,,,,420,,,,,,,,,,,,,,,,,,,,,10,10,,,586.029,7,up,0.0124,,0.5,0.3,"[3,1,2]",0.636592335,stimuli/card_100_transparent.png,100,7,0,7,0,1,,,,,,,,,,
,,,,651d2cdc7b87b2219dde8dd8,A,2024-07-01_13h29.35.971,Slot Machine Game,2023.1.3,MacIntel,58.13953488,,,,,,,,,,,,,,,,,,,,,,,,,,,520,,,,,,,,,,,,,,,,,,,,,10,10,,,587.362,8,up,0.1665,,1,0.3,"[3,1,2]",0.49329096,stimuli/card_100_transparent.png,100,8,0,8,0,1,,,,,,,,,,
,,,,651d2cdc7b87b2219dde8dd8,A,2024-07-01_13h29.35.971,Slot Machine Game,2023.1.3,MacIntel,58.13953488,,,,,,,,,,,,,,,,,,,,,,,,,,,620,,,,,,,,,,,,,,,,,,,,,10,10,,,589.3622,9,up,0.0171,,0.5,0.3,"[3,1,2]",0.290215615,stimuli/card_100_transparent.png,100,9,0,9,0,1,,,,,,,,,,
,,,,651d2cdc7b87b2219dde8dd8,A,2024-07-01_13h29.35.971,Slot Machine Game,2023.1.3,MacIntel,58.13953488,,,,,,,,,,,,,,,,,,,,,,,,,,,620,,,,,,,,,,,,,,,,,,,,,10,10,,,590.7123,10,up,0.0517,,1,0.3,"[1,3,2]",0.903177162,stimuli/card_0_transparent.png,0,10,0,10,0,1,,,,,,,,,,
,,,,651d2cdc7b87b2219dde8dd8,A,2024-07-01_13h29.35.971,Slot Machine Game,2023.1.3,MacIntel,58.13953488,,,,,,,,,,,,,,,,,,,,,,,,,,,630,,,,,,,,,,,,,,,,,,,,,10,10,,,592.5956,11,up,0.1167,,1,0.3,"[1,3,2]",0.156812876,stimuli/card_10_transparent.png,10,11,0,11,0,1,,,,,,,,,,
,,,,651d2cdc7b87b2219dde8dd8,A,2024-07-01_13h29.35.971,Slot Machine Game,2023.1.3,MacIntel,58.13953488,,,,,,,,,,,,,,,,,,,,,,,,,,,730,,,,,,,,,,,,,,,,,,,,,10,10,,,594.5446,12,left,0.1499,,1.5,0.3,"[1,3,2]",0.80555298,stimuli/card_100_transparent.png,100,12,0,12,0,1,,,,,,,,,,
,,,,651d2cdc7b87b2219dde8dd8,A,2024-07-01_13h29.35.971,Slot Machine Game,2023.1.3,MacIntel,58.13953488,,,,,,,,,,,,,,,,,,,,,,,,,,,830,,,,,,,,,,,,,,,,,,,,,10,10,,,597.0123,13,left,0.0996,,1,0.3,"[1,3,2]",0.445001853,stimuli/card_100_transparent.png,100,13,0,13,0,1,,,,,,,,,,
,,,,651d2cdc7b87b2219dde8dd8,A,2024-07-01_13h29.35.971,Slot Machine Game,2023.1.3,MacIntel,58.13953488,,,,,,,,,,,,,,,,,,,,,,,,,,,930,,,,,,,,,,,,,,,,,,,,,10,10,,,598.9455,14,left,0.1118,,1,0.3,"[1,3,2]",0.268633879,stimuli/card_100_transparent.png,100,14,0,14,0,1,,,,,,,,,,
,,,,651d2cdc7b87b2219dde8dd8,A,2024-07-01_13h29.35.971,Slot Machine Game,2023.1.3,MacIntel,58.13953488,,,,,,,,,,,,,,,,,,,,,,,,,,,,,,,,,,,600.879,,,,,,,,,,,,,,,,,,,,,,,,,,,,,,,,,"[840,1020,1320,640,900,730,620,650,260,930]",9,0,9,0,1,,,,
,,,,651d2cdc7b87b2219dde8dd8,A,2024-07-01_13h29.35.971,Slot Machine Game,2023.1.3,MacIntel,58.13953488,,,,,,,,,,,,,,,,,,,,,,,,,,,,,,,,,,,,,,,,,,,,,,,,,,,,,,,,,,,,,,,,,,,,,,,,,,9,"[840,1020,1320,640,900,730,620,650,260,930]",10.2,2024-07-01_13h39.45.928
