key_resp_welcome_started,key_resp_welcome_keys,key_resp_welcome_rt,key_resp_welcome_duration,prolific_id,path_id,date,expName,psychopyVersion,OS,frameRate,key_resp_instruction1_started,key_resp_instruction1_keys,key_resp_instruction1_rt,key_resp_instruction1_duration,key_resp_instruction2_started,key_resp_instruction2_keys,key_resp_instruction2_rt,key_resp_instruction2_duration,key_resp_instruction3_started,key_resp_instruction3_keys,key_resp_instruction3_rt,key_resp_instruction3_duration,key_resp_instruction4_started,key_resp_instruction4_keys,key_resp_instruction4_rt,key_resp_instruction4_duration,practiceCondition,practice_reward_seqs,practice_trial_started,practice_trial_num,practice_resp_rt,practice_resp_duration,practice_resp_keys,prac_presentationInterval,"practice_reward_seq: 2,1,3",reward_img,cumulative_reward,trial_reward,practice_trials.thisRepN,practice_trials.thisTrialN,practice_trials.thisN,practice_trials.thisIndex,practice_trials.ran,"practice_reward_seq: 2,3,1",block_break_started,"practice_reward_seq: 1,3,2","practice_reward_seq: 3,1,2",practice_end_time,practice_end_keys,practice_end_rt,practice_end_duration,main_instruction_text_started,block_condition,block_order_indices,main_instruction_keys,main_instruction_rt,main_instruction_duration,block_number,block_assignment,current_condition,main_reward_seqs,main_trial_started,main_trial_num,main_trial_keys,main_trial_rt,main_trial_duration,main_presentationInterval,reward_presentation_time,main_reward_seq,reward_rand_val,main_reward_img,current_reward,main_trials.thisRepN,main_trials.thisTrialN,main_trials.thisN,main_trials.thisIndex,main_trials.ran,block_reward,block.thisRepN,block.thisTrialN,block.thisN,block.thisIndex,block.ran,block_reward.length,block_reward_all,reward_amount,date_end_task
0.0004,return,5.3248,,652044c7e76a0e2c9f6f5e94,A,2024-07-08_20h49.13.334,Slot Machine Game,2023.1.3,Win32,60.24096386,,,,,,,,,,,,,,,,,,,,,,,,,,,,,,,,,,,,,,,,,,,,,,,,,,,,,,,,,,,,,,,,,,,,,,,,,,,,,
,,,,652044c7e76a0e2c9f6f5e94,A,2024-07-08_20h49.13.334,Slot Machine Game,2023.1.3,Win32,60.24096386,5.3347,return,6.0405,,,,,,,,,,,,,,,,,,,,,,,,,,,,,,,,,,,,,,,,,,,,,,,,,,,,,,,,,,,,,,,,,,,,,,,,,,
,,,,652044c7e76a0e2c9f6f5e94,A,2024-07-08_20h49.13.334,Slot Machine Game,2023.1.3,Win32,60.24096386,,,,,11.3921,return,8.923,,,,,,,,,,,,,,,,,,,,,,,,,,,,,,,,,,,,,,,,,,,,,,,,,,,,,,,,,,,,,,,,,,,,,,
,,,,652044c7e76a0e2c9f6f5e94,A,2024-07-08_20h49.13.334,Slot Machine Game,2023.1.3,Win32,60.24096386,,,,,,,,,20.357,return,5.5278,,,,,,,,,,,,,,,,,,,,,,,,,,,,,,,,,,,,,,,,,,,,,,,,,,,,,,,,,,,,,,,,,,
,,,,652044c7e76a0e2c9f6f5e94,A,2024-07-08_20h49.13.334,Slot Machine Game,2023.1.3,Win32,60.24096386,,,,,,,,,,,,,,,,,,,,,,,,,,,,,,,,,,,,,,,,,,,,,,,,,,,,,,,,,,,,,,,,,,,,,,,,,,,,,
,,,,652044c7e76a0e2c9f6f5e94,A,2024-07-08_20h49.13.334,Slot Machine Game,2023.1.3,Win32,60.24096386,,,,,,,,,,,,,167.599,up,3.0278,,,,,,,,,,,,,,,,,,,,,,,,,,,,,,,,,,,,,,,,,,,,,,,,,,,,,,,,,,,,,,
,,,,652044c7e76a0e2c9f6f5e94,A,2024-07-08_20h49.13.334,Slot Machine Game,2023.1.3,Win32,60.24096386,,,,,,,,,,,,,,,,,"[9,15]","[[2,1,3],[2,3,1]]",170.6427,0,1.2493,,left,1,,stimuli/card_10_transparent.png,10,10,0,0,0,0,1,,,,,,,,,,,,,,,,,,,,,,,,,,,,,,,,,,,,,,,,,,,,
,,,,652044c7e76a0e2c9f6f5e94,A,2024-07-08_20h49.13.334,Slot Machine Game,2023.1.3,Win32,60.24096386,,,,,,,,,,,,,,,,,,,173.7222,1,1.5047,,right,1,,stimuli/card_0_transparent.png,10,0,1,0,1,0,1,,,,,,,,,,,,,,,,,,,,,,,,,,,,,,,,,,,,,,,,,,,,
,,,,652044c7e76a0e2c9f6f5e94,A,2024-07-08_20h49.13.334,Slot Machine Game,2023.1.3,Win32,60.24096386,,,,,,,,,,,,,,,,,,,177.0385,2,1.05,,right,0.5,,stimuli/card_0_transparent.png,10,0,2,0,2,0,1,,,,,,,,,,,,,,,,,,,,,,,,,,,,,,,,,,,,,,,,,,,,
,,,,652044c7e76a0e2c9f6f5e94,A,2024-07-08_20h49.13.334,Slot Machine Game,2023.1.3,Win32,60.24096386,,,,,,,,,,,,,,,,,,,179.4215,3,0.3672,,left,1,,stimuli/card_10_transparent.png,20,10,3,0,3,0,1,,,,,,,,,,,,,,,,,,,,,,,,,,,,,,,,,,,,,,,,,,,,
,,,,652044c7e76a0e2c9f6f5e94,A,2024-07-08_20h49.13.334,Slot Machine Game,2023.1.3,Win32,60.24096386,,,,,,,,,,,,,,,,,,,181.6218,4,0.2594,,up,0.5,,stimuli/card_100_transparent.png,120,100,4,0,4,0,1,,,,,,,,,,,,,,,,,,,,,,,,,,,,,,,,,,,,,,,,,,,,
,,,,652044c7e76a0e2c9f6f5e94,A,2024-07-08_20h49.13.334,Slot Machine Game,2023.1.3,Win32,60.24096386,,,,,,,,,,,,,,,,,,,183.2044,5,0.2039,,up,0.5,,stimuli/card_100_transparent.png,220,100,5,0,5,0,1,,,,,,,,,,,,,,,,,,,,,,,,,,,,,,,,,,,,,,,,,,,,
,,,,652044c7e76a0e2c9f6f5e94,A,2024-07-08_20h49.13.334,Slot Machine Game,2023.1.3,Win32,60.24096386,,,,,,,,,,,,,,,,,,,184.7208,6,0.0998,,up,1,,stimuli/card_100_transparent.png,320,100,6,0,6,0,1,,,,,,,,,,,,,,,,,,,,,,,,,,,,,,,,,,,,,,,,,,,,
,,,,652044c7e76a0e2c9f6f5e94,A,2024-07-08_20h49.13.334,Slot Machine Game,2023.1.3,Win32,60.24096386,,,,,,,,,,,,,,,,,,,186.6378,7,0.0763,,up,0.5,,stimuli/card_100_transparent.png,420,100,7,0,7,0,1,,,,,,,,,,,,,,,,,,,,,,,,,,,,,,,,,,,,,,,,,,,,
,,,,652044c7e76a0e2c9f6f5e94,A,2024-07-08_20h49.13.334,Slot Machine Game,2023.1.3,Win32,60.24096386,,,,,,,,,,,,,,,,,,,188.0377,8,0.2676,,up,1.5,,stimuli/card_100_transparent.png,520,100,8,0,8,0,1,,,,,,,,,,,,,,,,,,,,,,,,,,,,,,,,,,,,,,,,,,,,
,,,,652044c7e76a0e2c9f6f5e94,A,2024-07-08_20h49.13.334,Slot Machine Game,2023.1.3,Win32,60.24096386,,,,,,,,,,,,,,,,,,,190.6373,9,,,,1,,,,,9,0,9,0,1,,,,,,,,,,,,,,,,,,,,,,,,,,,,,,,,,,,,,,,,,,,,
,,,,652044c7e76a0e2c9f6f5e94,A,2024-07-08_20h49.13.334,Slot Machine Game,2023.1.3,Win32,60.24096386,,,,,,,,,,,,,,,,,,,196.1554,10,0.1679,,up,1.5,,stimuli/card_0_transparent.png,520,0,10,0,10,0,1,,,,,,,,,,,,,,,,,,,,,,,,,,,,,,,,,,,,,,,,,,,,
,,,,652044c7e76a0e2c9f6f5e94,A,2024-07-08_20h49.13.334,Slot Machine Game,2023.1.3,Win32,60.24096386,,,,,,,,,,,,,,,,,,,198.6527,11,0.416,,up,0.5,,stimuli/card_0_transparent.png,520,0,11,0,11,0,1,,,,,,,,,,,,,,,,,,,,,,,,,,,,,,,,,,,,,,,,,,,,
,,,,652044c7e76a0e2c9f6f5e94,A,2024-07-08_20h49.13.334,Slot Machine Game,2023.1.3,Win32,60.24096386,,,,,,,,,,,,,,,,,,,200.4022,12,2.0241,,left,0.5,,stimuli/card_10_transparent.png,530,10,12,0,12,0,1,,,,,,,,,,,,,,,,,,,,,,,,,,,,,,,,,,,,,,,,,,,,
,,,,652044c7e76a0e2c9f6f5e94,A,2024-07-08_20h49.13.334,Slot Machine Game,2023.1.3,Win32,60.24096386,,,,,,,,,,,,,,,,,,,203.7354,13,0.4032,,right,1,,stimuli/card_10_transparent.png,540,10,13,0,13,0,1,,,,,,,,,,,,,,,,,,,,,,,,,,,,,,,,,,,,,,,,,,,,
,,,,652044c7e76a0e2c9f6f5e94,A,2024-07-08_20h49.13.334,Slot Machine Game,2023.1.3,Win32,60.24096386,,,,,,,,,,,,,,,,,,,205.9682,14,0.3057,,left,1.5,,stimuli/card_10_transparent.png,550,10,14,0,14,0,1,,,,,,,,,,,,,,,,,,,,,,,,,,,,,,,,,,,,,,,,,,,,
,,,,652044c7e76a0e2c9f6f5e94,A,2024-07-08_20h49.13.334,Slot Machine Game,2023.1.3,Win32,60.24096386,,,,,,,,,,,,,,,,,"[6,15]","[[1,3,2],[3,1,2]]",213.627,0,0.6171,,up,1.5,,stimuli/card_0_transparent.png,0,0,0,0,0,0,1,,208.6106,,,,,,,,,,,,,,,,,,,,,,,,,,,,,,,,,,,,,,,,,,
,,,,652044c7e76a0e2c9f6f5e94,A,2024-07-08_20h49.13.334,Slot Machine Game,2023.1.3,Win32,60.24096386,,,,,,,,,,,,,,,,,,,216.5675,1,0.186,,left,1.5,,stimuli/card_100_transparent.png,100,100,1,0,1,0,1,,,,,,,,,,,,,,,,,,,,,,,,,,,,,,,,,,,,,,,,,,,,
,,,,652044c7e76a0e2c9f6f5e94,A,2024-07-08_20h49.13.334,Slot Machine Game,2023.1.3,Win32,60.24096386,,,,,,,,,,,,,,,,,,,219.0839,2,0.1272,,left,1.5,,stimuli/card_100_transparent.png,200,100,2,0,2,0,1,,,,,,,,,,,,,,,,,,,,,,,,,,,,,,,,,,,,,,,,,,,,
,,,,652044c7e76a0e2c9f6f5e94,A,2024-07-08_20h49.13.334,Slot Machine Game,2023.1.3,Win32,60.24096386,,,,,,,,,,,,,,,,,,,221.5332,3,1.9888,,left,0.5,,stimuli/card_10_transparent.png,210,10,3,0,3,0,1,,,,,,,,,,,,,,,,,,,,,,,,,,,,,,,,,,,,,,,,,,,,
,,,,652044c7e76a0e2c9f6f5e94,A,2024-07-08_20h49.13.334,Slot Machine Game,2023.1.3,Win32,60.24096386,,,,,,,,,,,,,,,,,,,224.8495,4,0.6256,,right,0.5,,stimuli/card_100_transparent.png,310,100,4,0,4,0,1,,,,,,,,,,,,,,,,,,,,,,,,,,,,,,,,,,,,,,,,,,,,
,,,,652044c7e76a0e2c9f6f5e94,A,2024-07-08_20h49.13.334,Slot Machine Game,2023.1.3,Win32,60.24096386,,,,,,,,,,,,,,,,,,,226.7824,5,0.3646,,right,1.5,,stimuli/card_10_transparent.png,320,10,5,0,5,0,1,,,,,,,,,,,,,,,,,,,,,,,,,,,,,,,,,,,,,,,,,,,,
,,,,652044c7e76a0e2c9f6f5e94,A,2024-07-08_20h49.13.334,Slot Machine Game,2023.1.3,Win32,60.24096386,,,,,,,,,,,,,,,,,,,229.4661,6,0.4004,,right,1,,stimuli/card_10_transparent.png,330,10,6,0,6,0,1,,,,,,,,,,,,,,,,,,,,,,,,,,,,,,,,,,,,,,,,,,,,
,,,,652044c7e76a0e2c9f6f5e94,A,2024-07-08_20h49.13.334,Slot Machine Game,2023.1.3,Win32,60.24096386,,,,,,,,,,,,,,,,,,,231.6987,7,0.2085,,up,1,,stimuli/card_100_transparent.png,430,100,7,0,7,0,1,,,,,,,,,,,,,,,,,,,,,,,,,,,,,,,,,,,,,,,,,,,,
,,,,652044c7e76a0e2c9f6f5e94,A,2024-07-08_20h49.13.334,Slot Machine Game,2023.1.3,Win32,60.24096386,,,,,,,,,,,,,,,,,,,233.7321,8,0.0524,,up,0.5,,stimuli/card_100_transparent.png,530,100,8,0,8,0,1,,,,,,,,,,,,,,,,,,,,,,,,,,,,,,,,,,,,,,,,,,,,
,,,,652044c7e76a0e2c9f6f5e94,A,2024-07-08_20h49.13.334,Slot Machine Game,2023.1.3,Win32,60.24096386,,,,,,,,,,,,,,,,,,,235.1149,9,0.134,,up,0.5,,stimuli/card_10_transparent.png,540,10,9,0,9,0,1,,,,,,,,,,,,,,,,,,,,,,,,,,,,,,,,,,,,,,,,,,,,
,,,,652044c7e76a0e2c9f6f5e94,A,2024-07-08_20h49.13.334,Slot Machine Game,2023.1.3,Win32,60.24096386,,,,,,,,,,,,,,,,,,,236.5651,10,0.2172,,left,0.5,,stimuli/card_0_transparent.png,540,0,10,0,10,0,1,,,,,,,,,,,,,,,,,,,,,,,,,,,,,,,,,,,,,,,,,,,,
,,,,652044c7e76a0e2c9f6f5e94,A,2024-07-08_20h49.13.334,Slot Machine Game,2023.1.3,Win32,60.24096386,,,,,,,,,,,,,,,,,,,238.1149,11,0.5006,,left,1.5,,stimuli/card_0_transparent.png,540,0,11,0,11,0,1,,,,,,,,,,,,,,,,,,,,,,,,,,,,,,,,,,,,,,,,,,,,
,,,,652044c7e76a0e2c9f6f5e94,A,2024-07-08_20h49.13.334,Slot Machine Game,2023.1.3,Win32,60.24096386,,,,,,,,,,,,,,,,,,,240.9482,12,0.1022,,right,0.5,,stimuli/card_10_transparent.png,550,10,12,0,12,0,1,,,,,,,,,,,,,,,,,,,,,,,,,,,,,,,,,,,,,,,,,,,,
,,,,652044c7e76a0e2c9f6f5e94,A,2024-07-08_20h49.13.334,Slot Machine Game,2023.1.3,Win32,60.24096386,,,,,,,,,,,,,,,,,,,242.381,13,0.3657,,up,1,,stimuli/card_100_transparent.png,650,100,13,0,13,0,1,,,,,,,,,,,,,,,,,,,,,,,,,,,,,,,,,,,,,,,,,,,,
,,,,652044c7e76a0e2c9f6f5e94,A,2024-07-08_20h49.13.334,Slot Machine Game,2023.1.3,Win32,60.24096386,,,,,,,,,,,,,,,,,,,244.5807,14,0.237,,up,1.5,,stimuli/card_0_transparent.png,650,0,14,0,14,0,1,,,,,,,,,,,,,,,,,,,,,,,,,,,,,,,,,,,,,,,,,,,,
,,,,652044c7e76a0e2c9f6f5e94,A,2024-07-08_20h49.13.334,Slot Machine Game,2023.1.3,Win32,60.24096386,,,,,,,,,,,,,,,,,,,,,,,,,,,,,,,,,,,247.1473,,,252.1469,space,2.5537,,,,,,,,,,,,,,,,,,,,,,,,,,,,,,,,,,,,,
,,,,652044c7e76a0e2c9f6f5e94,A,2024-07-08_20h49.13.334,Slot Machine Game,2023.1.3,Win32,60.24096386,,,,,,,,,,,,,,,,,,,,,,,,,,,,,,,,,,,,,,,,,,254.7138,1,"[0,1,2,3,4,5,6,7,8,9]",space,3.0463,,,,,,,,,,,,,,,,,,,,,,,,,,,,,,,
,,,,652044c7e76a0e2c9f6f5e94,A,2024-07-08_20h49.13.334,Slot Machine Game,2023.1.3,Win32,60.24096386,,,,,,,,,,,,,,,,,,,,,,,,,,,100,,,,,,,,,,,,,,,,,,,,,1,1,"[12,15]","[[2,1,3],[2,3,1]]",257.8073,0,up,0.5417,,1,0.3,"[2,1,3]",0.210228043,stimuli/card_100_transparent.png,100,0,0,0,0,1,,,,,,,,,,
,,,,652044c7e76a0e2c9f6f5e94,A,2024-07-08_20h49.13.334,Slot Machine Game,2023.1.3,Win32,60.24096386,,,,,,,,,,,,,,,,,,,,,,,,,,,200,,,,,,,,,,,,,,,,,,,,,1,1,,,260.1801,1,up,0.9845,,1.5,0.3,"[2,1,3]",0.789586613,stimuli/card_100_transparent.png,100,1,0,1,0,1,,,,,,,,,,
,,,,652044c7e76a0e2c9f6f5e94,A,2024-07-08_20h49.13.334,Slot Machine Game,2023.1.3,Win32,60.24096386,,,,,,,,,,,,,,,,,,,,,,,,,,,300,,,,,,,,,,,,,,,,,,,,,1,1,,,263.512,2,up,1.6912,,1,0.3,"[2,1,3]",0.920704332,stimuli/card_100_transparent.png,100,2,0,2,0,1,,,,,,,,,,
,,,,652044c7e76a0e2c9f6f5e94,A,2024-07-08_20h49.13.334,Slot Machine Game,2023.1.3,Win32,60.24096386,,,,,,,,,,,,,,,,,,,,,,,,,,,400,,,,,,,,,,,,,,,,,,,,,1,1,,,267.0284,3,up,0.3743,,0.5,0.3,"[2,1,3]",0.432493882,stimuli/card_100_transparent.png,100,3,0,3,0,1,,,,,,,,,,
,,,,652044c7e76a0e2c9f6f5e94,A,2024-07-08_20h49.13.334,Slot Machine Game,2023.1.3,Win32,60.24096386,,,,,,,,,,,,,,,,,,,,,,,,,,,500,,,,,,,,,,,,,,,,,,,,,1,1,,,268.7446,4,up,0.4765,,1.5,0.3,"[2,1,3]",0.924421104,stimuli/card_100_transparent.png,100,4,0,4,0,1,,,,,,,,,,
,,,,652044c7e76a0e2c9f6f5e94,A,2024-07-08_20h49.13.334,Slot Machine Game,2023.1.3,Win32,60.24096386,,,,,,,,,,,,,,,,,,,,,,,,,,,600,,,,,,,,,,,,,,,,,,,,,1,1,,,271.5613,5,up,0.0767,,1,0.3,"[2,1,3]",0.60719527,stimuli/card_100_transparent.png,100,5,0,5,0,1,,,,,,,,,,
,,,,652044c7e76a0e2c9f6f5e94,A,2024-07-08_20h49.13.334,Slot Machine Game,2023.1.3,Win32,60.24096386,,,,,,,,,,,,,,,,,,,,,,,,,,,610,,,,,,,,,,,,,,,,,,,,,1,1,,,273.467,6,up,0.1288,,1,0.3,"[2,1,3]",0.174496427,stimuli/card_10_transparent.png,10,6,0,6,0,1,,,,,,,,,,
,,,,652044c7e76a0e2c9f6f5e94,A,2024-07-08_20h49.13.334,Slot Machine Game,2023.1.3,Win32,60.24096386,,,,,,,,,,,,,,,,,,,,,,,,,,,620,,,,,,,,,,,,,,,,,,,,,1,1,,,275.4276,7,left,0.2014,,0.5,0.3,"[2,1,3]",0.653854438,stimuli/card_10_transparent.png,10,7,0,7,0,1,,,,,,,,,,
,,,,652044c7e76a0e2c9f6f5e94,A,2024-07-08_20h49.13.334,Slot Machine Game,2023.1.3,Win32,60.24096386,,,,,,,,,,,,,,,,,,,,,,,,,,,620,,,,,,,,,,,,,,,,,,,,,1,1,,,276.9773,8,right,0.4603,,0.5,0.3,"[2,1,3]",0.416220488,stimuli/card_0_transparent.png,0,8,0,8,0,1,,,,,,,,,,
,,,,652044c7e76a0e2c9f6f5e94,A,2024-07-08_20h49.13.334,Slot Machine Game,2023.1.3,Win32,60.24096386,,,,,,,,,,,,,,,,,,,,,,,,,,,630,,,,,,,,,,,,,,,,,,,,,1,1,,,278.7771,9,left,0.2836,,1.5,0.3,"[2,1,3]",0.262303214,stimuli/card_10_transparent.png,10,9,0,9,0,1,,,,,,,,,,
,,,,652044c7e76a0e2c9f6f5e94,A,2024-07-08_20h49.13.334,Slot Machine Game,2023.1.3,Win32,60.24096386,,,,,,,,,,,,,,,,,,,,,,,,,,,730,,,,,,,,,,,,,,,,,,,,,1,1,,,281.3935,10,up,1.105,,0.5,0.3,"[2,1,3]",0.848618476,stimuli/card_100_transparent.png,100,10,0,10,0,1,,,,,,,,,,
,,,,652044c7e76a0e2c9f6f5e94,A,2024-07-08_20h49.13.334,Slot Machine Game,2023.1.3,Win32,60.24096386,,,,,,,,,,,,,,,,,,,,,,,,,,,730,,,,,,,,,,,,,,,,,,,,,1,1,,,283.8432,11,up,0.1184,,1.5,0.3,"[2,1,3]",0.014320544,stimuli/card_0_transparent.png,0,11,0,11,0,1,,,,,,,,,,
,,,,652044c7e76a0e2c9f6f5e94,A,2024-07-08_20h49.13.334,Slot Machine Game,2023.1.3,Win32,60.24096386,,,,,,,,,,,,,,,,,,,,,,,,,,,730,,,,,,,,,,,,,,,,,,,,,1,1,,,286.2928,12,up,0.4864,,1,0.3,"[2,3,1]",0.48134495,stimuli/card_0_transparent.png,0,12,0,12,0,1,,,,,,,,,,
,,,,652044c7e76a0e2c9f6f5e94,A,2024-07-08_20h49.13.334,Slot Machine Game,2023.1.3,Win32,60.24096386,,,,,,,,,,,,,,,,,,,,,,,,,,,830,,,,,,,,,,,,,,,,,,,,,1,1,,,288.6094,13,right,1.2307,,1,0.3,"[2,3,1]",0.693728836,stimuli/card_100_transparent.png,100,13,0,13,0,1,,,,,,,,,,
,,,,652044c7e76a0e2c9f6f5e94,A,2024-07-08_20h49.13.334,Slot Machine Game,2023.1.3,Win32,60.24096386,,,,,,,,,,,,,,,,,,,,,,,,,,,830,,,,,,,,,,,,,,,,,,,,,1,1,,,291.659,14,right,0.3832,,1.5,0.3,"[2,3,1]",0.023153344,stimuli/card_0_transparent.png,0,14,0,14,0,1,,,,,,,,,,
,,,,652044c7e76a0e2c9f6f5e94,A,2024-07-08_20h49.13.334,Slot Machine Game,2023.1.3,Win32,60.24096386,,,,,,,,,,,,,,,,,,,,,,,,,,,,,,,,,,,294.3587,,,,,,,,,,,,,,,,,,,,,,,,,,,,,,,,,[830],0,0,0,0,1,,,,
,,,,652044c7e76a0e2c9f6f5e94,A,2024-07-08_20h49.13.334,Slot Machine Game,2023.1.3,Win32,60.24096386,,,,,,,,,,,,,,,,,,,,,,,,,,,0,,,,,,,,,,,,,,,,,,,,,2,2,"[6,15]","[[1,3,2],[3,2,1]]",299.3838,0,up,1.0668,,0.5,0.3,"[1,3,2]",0.528284508,stimuli/card_0_transparent.png,0,0,0,0,0,1,,,,,,,,,,
,,,,652044c7e76a0e2c9f6f5e94,A,2024-07-08_20h49.13.334,Slot Machine Game,2023.1.3,Win32,60.24096386,,,,,,,,,,,,,,,,,,,,,,,,,,,100,,,,,,,,,,,,,,,,,,,,,2,2,,,301.7741,1,left,0.034,,1,0.3,"[1,3,2]",0.882781176,stimuli/card_100_transparent.png,100,1,0,1,0,1,,,,,,,,,,
,,,,652044c7e76a0e2c9f6f5e94,A,2024-07-08_20h49.13.334,Slot Machine Game,2023.1.3,Win32,60.24096386,,,,,,,,,,,,,,,,,,,,,,,,,,,200,,,,,,,,,,,,,,,,,,,,,2,2,,,303.6242,2,left,0.0427,,1.5,0.3,"[1,3,2]",0.446857509,stimuli/card_100_transparent.png,100,2,0,2,0,1,,,,,,,,,,
,,,,652044c7e76a0e2c9f6f5e94,A,2024-07-08_20h49.13.334,Slot Machine Game,2023.1.3,Win32,60.24096386,,,,,,,,,,,,,,,,,,,,,,,,,,,300,,,,,,,,,,,,,,,,,,,,,2,2,,,305.9906,3,left,0.7337,,0.5,0.3,"[1,3,2]",0.425940401,stimuli/card_100_transparent.png,100,3,0,3,0,1,,,,,,,,,,
,,,,652044c7e76a0e2c9f6f5e94,A,2024-07-08_20h49.13.334,Slot Machine Game,2023.1.3,Win32,60.24096386,,,,,,,,,,,,,,,,,,,,,,,,,,,400,,,,,,,,,,,,,,,,,,,,,2,2,,,308.057,4,left,0.5037,,1.5,0.3,"[1,3,2]",0.84782534,stimuli/card_100_transparent.png,100,4,0,4,0,1,,,,,,,,,,
,,,,652044c7e76a0e2c9f6f5e94,A,2024-07-08_20h49.13.334,Slot Machine Game,2023.1.3,Win32,60.24096386,,,,,,,,,,,,,,,,,,,,,,,,,,,500,,,,,,,,,,,,,,,,,,,,,2,2,,,310.89,5,left,2.4004,,0.5,0.3,"[1,3,2]",0.633112835,stimuli/card_100_transparent.png,100,5,0,5,0,1,,,,,,,,,,
,,,,652044c7e76a0e2c9f6f5e94,A,2024-07-08_20h49.13.334,Slot Machine Game,2023.1.3,Win32,60.24096386,,,,,,,,,,,,,,,,,,,,,,,,,,,600,,,,,,,,,,,,,,,,,,,,,2,2,,,314.6229,6,left,0.2017,,1.5,0.3,"[3,2,1]",0.015167521,stimuli/card_100_transparent.png,100,6,0,6,0,1,,,,,,,,,,
,,,,652044c7e76a0e2c9f6f5e94,A,2024-07-08_20h49.13.334,Slot Machine Game,2023.1.3,Win32,60.24096386,,,,,,,,,,,,,,,,,,,,,,,,,,,600,,,,,,,,,,,,,,,,,,,,,2,2,,,317.1559,7,left,0.4068,,0.5,0.3,"[3,2,1]",0.880849086,stimuli/card_0_transparent.png,0,7,0,7,0,1,,,,,,,,,,
,,,,652044c7e76a0e2c9f6f5e94,A,2024-07-08_20h49.13.334,Slot Machine Game,2023.1.3,Win32,60.24096386,,,,,,,,,,,,,,,,,,,,,,,,,,,600,,,,,,,,,,,,,,,,,,,,,2,2,,,318.8891,8,right,0.41,,1.5,0.3,"[3,2,1]",0.05642975,stimuli/card_0_transparent.png,0,8,0,8,0,1,,,,,,,,,,
,,,,652044c7e76a0e2c9f6f5e94,A,2024-07-08_20h49.13.334,Slot Machine Game,2023.1.3,Win32,60.24096386,,,,,,,,,,,,,,,,,,,,,,,,,,,700,,,,,,,,,,,,,,,,,,,,,2,2,,,321.6221,9,up,0.2175,,0.5,0.3,"[3,2,1]",0.153344202,stimuli/card_100_transparent.png,100,9,0,9,0,1,,,,,,,,,,
,,,,652044c7e76a0e2c9f6f5e94,A,2024-07-08_20h49.13.334,Slot Machine Game,2023.1.3,Win32,60.24096386,,,,,,,,,,,,,,,,,,,,,,,,,,,710,,,,,,,,,,,,,,,,,,,,,2,2,,,323.172,10,up,0.2718,,1,0.3,"[3,2,1]",0.937929935,stimuli/card_10_transparent.png,10,10,0,10,0,1,,,,,,,,,,
,,,,652044c7e76a0e2c9f6f5e94,A,2024-07-08_20h49.13.334,Slot Machine Game,2023.1.3,Win32,60.24096386,,,,,,,,,,,,,,,,,,,,,,,,,,,710,,,,,,,,,,,,,,,,,,,,,2,2,,,325.2715,11,left,0.6111,,1,0.3,"[3,2,1]",0.532042009,stimuli/card_0_transparent.png,0,11,0,11,0,1,,,,,,,,,,
,,,,652044c7e76a0e2c9f6f5e94,A,2024-07-08_20h49.13.334,Slot Machine Game,2023.1.3,Win32,60.24096386,,,,,,,,,,,,,,,,,,,,,,,,,,,710,,,,,,,,,,,,,,,,,,,,,2,2,,,327.7045,12,left,0.2003,,0.5,0.3,"[3,2,1]",0.537591358,stimuli/card_0_transparent.png,0,12,0,12,0,1,,,,,,,,,,
,,,,652044c7e76a0e2c9f6f5e94,A,2024-07-08_20h49.13.334,Slot Machine Game,2023.1.3,Win32,60.24096386,,,,,,,,,,,,,,,,,,,,,,,,,,,810,,,,,,,,,,,,,,,,,,,,,2,2,,,329.2379,13,up,0.4768,,0.5,0.3,"[3,2,1]",0.144072715,stimuli/card_100_transparent.png,100,13,0,13,0,1,,,,,,,,,,
,,,,652044c7e76a0e2c9f6f5e94,A,2024-07-08_20h49.13.334,Slot Machine Game,2023.1.3,Win32,60.24096386,,,,,,,,,,,,,,,,,,,,,,,,,,,820,,,,,,,,,,,,,,,,,,,,,2,2,,,331.0372,14,up,0.3237,,0.5,0.3,"[3,2,1]",0.498276284,stimuli/card_10_transparent.png,10,14,0,14,0,1,,,,,,,,,,
,,,,652044c7e76a0e2c9f6f5e94,A,2024-07-08_20h49.13.334,Slot Machine Game,2023.1.3,Win32,60.24096386,,,,,,,,,,,,,,,,,,,,,,,,,,,,,,,,,,,332.687,,,,,,,,,,,,,,,,,,,,,,,,,,,,,,,,,"[830,820]",1,0,1,0,1,,,,
,,,,652044c7e76a0e2c9f6f5e94,A,2024-07-08_20h49.13.334,Slot Machine Game,2023.1.3,Win32,60.24096386,,,,,,,,,,,,,,,,,,,,,,,,,,,10,,,,,,,,,,,,,,,,,,,,,3,3,"[15,15]","[[3,1,2],[3,1,2]]",337.7118,0,up,0.6509,,1,0.3,"[3,1,2]",0.148113727,stimuli/card_10_transparent.png,10,0,0,0,0,1,,,,,,,,,,
,,,,652044c7e76a0e2c9f6f5e94,A,2024-07-08_20h49.13.334,Slot Machine Game,2023.1.3,Win32,60.24096386,,,,,,,,,,,,,,,,,,,,,,,,,,,110,,,,,,,,,,,,,,,,,,,,,3,3,,,340.1861,1,up,1.1665,,1.5,0.3,"[3,1,2]",0.799537328,stimuli/card_100_transparent.png,100,1,0,1,0,1,,,,,,,,,,
,,,,652044c7e76a0e2c9f6f5e94,A,2024-07-08_20h49.13.334,Slot Machine Game,2023.1.3,Win32,60.24096386,,,,,,,,,,,,,,,,,,,,,,,,,,,110,,,,,,,,,,,,,,,,,,,,,3,3,,,343.6862,2,up,0.2488,,1,0.3,"[3,1,2]",0.02121966,stimuli/card_0_transparent.png,0,2,0,2,0,1,,,,,,,,,,
,,,,652044c7e76a0e2c9f6f5e94,A,2024-07-08_20h49.13.334,Slot Machine Game,2023.1.3,Win32,60.24096386,,,,,,,,,,,,,,,,,,,,,,,,,,,110,,,,,,,,,,,,,,,,,,,,,3,3,,,345.7693,3,left,0.1747,,0.5,0.3,"[3,1,2]",0.801415809,stimuli/card_0_transparent.png,0,3,0,3,0,1,,,,,,,,,,
,,,,652044c7e76a0e2c9f6f5e94,A,2024-07-08_20h49.13.334,Slot Machine Game,2023.1.3,Win32,60.24096386,,,,,,,,,,,,,,,,,,,,,,,,,,,120,,,,,,,,,,,,,,,,,,,,,3,3,,,347.2691,4,right,0.2683,,1,0.3,"[3,1,2]",0.681471798,stimuli/card_10_transparent.png,10,4,0,4,0,1,,,,,,,,,,
,,,,652044c7e76a0e2c9f6f5e94,A,2024-07-08_20h49.13.334,Slot Machine Game,2023.1.3,Win32,60.24096386,,,,,,,,,,,,,,,,,,,,,,,,,,,130,,,,,,,,,,,,,,,,,,,,,3,3,,,349.3689,5,right,0.4896,,1.5,0.3,"[3,1,2]",0.282274507,stimuli/card_10_transparent.png,10,5,0,5,0,1,,,,,,,,,,
,,,,652044c7e76a0e2c9f6f5e94,A,2024-07-08_20h49.13.334,Slot Machine Game,2023.1.3,Win32,60.24096386,,,,,,,,,,,,,,,,,,,,,,,,,,,130,,,,,,,,,,,,,,,,,,,,,3,3,,,352.1847,6,up,0.1041,,0.5,0.3,"[3,1,2]",0.062164555,stimuli/card_0_transparent.png,0,6,0,6,0,1,,,,,,,,,,
,,,,652044c7e76a0e2c9f6f5e94,A,2024-07-08_20h49.13.334,Slot Machine Game,2023.1.3,Win32,60.24096386,,,,,,,,,,,,,,,,,,,,,,,,,,,230,,,,,,,,,,,,,,,,,,,,,3,3,,,353.6015,7,up,0.8071,,1,0.3,"[3,1,2]",0.681570071,stimuli/card_100_transparent.png,100,7,0,7,0,1,,,,,,,,,,
,,,,652044c7e76a0e2c9f6f5e94,A,2024-07-08_20h49.13.334,Slot Machine Game,2023.1.3,Win32,60.24096386,,,,,,,,,,,,,,,,,,,,,,,,,,,330,,,,,,,,,,,,,,,,,,,,,3,3,,,356.2347,8,up,1.3006,,1,0.3,"[3,1,2]",0.697429941,stimuli/card_100_transparent.png,100,8,0,8,0,1,,,,,,,,,,
,,,,652044c7e76a0e2c9f6f5e94,A,2024-07-08_20h49.13.334,Slot Machine Game,2023.1.3,Win32,60.24096386,,,,,,,,,,,,,,,,,,,,,,,,,,,430,,,,,,,,,,,,,,,,,,,,,3,3,,,359.3677,9,up,0.2025,,1.5,0.3,"[3,1,2]",0.688423118,stimuli/card_100_transparent.png,100,9,0,9,0,1,,,,,,,,,,
,,,,652044c7e76a0e2c9f6f5e94,A,2024-07-08_20h49.13.334,Slot Machine Game,2023.1.3,Win32,60.24096386,,,,,,,,,,,,,,,,,,,,,,,,,,,530,,,,,,,,,,,,,,,,,,,,,3,3,,,361.9008,10,up,1.1341,,1.5,0.3,"[3,1,2]",0.318885366,stimuli/card_100_transparent.png,100,10,0,10,0,1,,,,,,,,,,
,,,,652044c7e76a0e2c9f6f5e94,A,2024-07-08_20h49.13.334,Slot Machine Game,2023.1.3,Win32,60.24096386,,,,,,,,,,,,,,,,,,,,,,,,,,,630,,,,,,,,,,,,,,,,,,,,,3,3,,,365.3669,11,up,1.1495,,0.5,0.3,"[3,1,2]",0.950127672,stimuli/card_100_transparent.png,100,11,0,11,0,1,,,,,,,,,,
,,,,652044c7e76a0e2c9f6f5e94,A,2024-07-08_20h49.13.334,Slot Machine Game,2023.1.3,Win32,60.24096386,,,,,,,,,,,,,,,,,,,,,,,,,,,730,,,,,,,,,,,,,,,,,,,,,3,3,,,367.8502,12,up,0.6405,,0.5,0.3,"[3,1,2]",0.655474937,stimuli/card_100_transparent.png,100,12,0,12,0,1,,,,,,,,,,
,,,,652044c7e76a0e2c9f6f5e94,A,2024-07-08_20h49.13.334,Slot Machine Game,2023.1.3,Win32,60.24096386,,,,,,,,,,,,,,,,,,,,,,,,,,,830,,,,,,,,,,,,,,,,,,,,,3,3,,,369.8164,13,up,0.351,,1,0.3,"[3,1,2]",0.232723244,stimuli/card_100_transparent.png,100,13,0,13,0,1,,,,,,,,,,
,,,,652044c7e76a0e2c9f6f5e94,A,2024-07-08_20h49.13.334,Slot Machine Game,2023.1.3,Win32,60.24096386,,,,,,,,,,,,,,,,,,,,,,,,,,,930,,,,,,,,,,,,,,,,,,,,,3,3,,,371.9995,14,up,0.1235,,1,0.3,"[3,1,2]",0.5152637,stimuli/card_100_transparent.png,100,14,0,14,0,1,,,,,,,,,,
,,,,652044c7e76a0e2c9f6f5e94,A,2024-07-08_20h49.13.334,Slot Machine Game,2023.1.3,Win32,60.24096386,,,,,,,,,,,,,,,,,,,,,,,,,,,,,,,,,,,373.9495,,,,,,,,,,,,,,,,,,,,,,,,,,,,,,,,,"[830,820,930]",2,0,2,0,1,,,,
,,,,652044c7e76a0e2c9f6f5e94,A,2024-07-08_20h49.13.334,Slot Machine Game,2023.1.3,Win32,60.24096386,,,,,,,,,,,,,,,,,,,,,,,,,,,10,,,,,,,,,,,,,,,,,,,,,4,4,"[7,15]","[[2,3,1],[1,2,3]]",378.9742,0,left,0.2212,,1,0.3,"[2,3,1]",0.959636088,stimuli/card_10_transparent.png,10,0,0,0,0,1,,,,,,,,,,
,,,,652044c7e76a0e2c9f6f5e94,A,2024-07-08_20h49.13.334,Slot Machine Game,2023.1.3,Win32,60.24096386,,,,,,,,,,,,,,,,,,,,,,,,,,,10,,,,,,,,,,,,,,,,,,,,,4,4,,,381.0152,1,right,0.3321,,0.5,0.3,"[2,3,1]",0.021540753,stimuli/card_0_transparent.png,0,1,0,1,0,1,,,,,,,,,,
,,,,652044c7e76a0e2c9f6f5e94,A,2024-07-08_20h49.13.334,Slot Machine Game,2023.1.3,Win32,60.24096386,,,,,,,,,,,,,,,,,,,,,,,,,,,10,,,,,,,,,,,,,,,,,,,,,4,4,,,382.6817,2,up,0.4844,,1.5,0.3,"[2,3,1]",0.20529232,stimuli/card_0_transparent.png,0,2,0,2,0,1,,,,,,,,,,
,,,,652044c7e76a0e2c9f6f5e94,A,2024-07-08_20h49.13.334,Slot Machine Game,2023.1.3,Win32,60.24096386,,,,,,,,,,,,,,,,,,,,,,,,,,,110,,,,,,,,,,,,,,,,,,,,,4,4,,,385.4974,3,right,0.0551,,1.5,0.3,"[2,3,1]",0.203934042,stimuli/card_100_transparent.png,100,3,0,3,0,1,,,,,,,,,,
,,,,652044c7e76a0e2c9f6f5e94,A,2024-07-08_20h49.13.334,Slot Machine Game,2023.1.3,Win32,60.24096386,,,,,,,,,,,,,,,,,,,,,,,,,,,120,,,,,,,,,,,,,,,,,,,,,4,4,,,387.8641,4,up,0.0264,,1.5,0.3,"[2,3,1]",0.116794917,stimuli/card_10_transparent.png,10,4,0,4,0,1,,,,,,,,,,
,,,,652044c7e76a0e2c9f6f5e94,A,2024-07-08_20h49.13.334,Slot Machine Game,2023.1.3,Win32,60.24096386,,,,,,,,,,,,,,,,,,,,,,,,,,,220,,,,,,,,,,,,,,,,,,,,,4,4,,,390.2141,5,right,0.9822,,0.5,0.3,"[2,3,1]",0.513681378,stimuli/card_100_transparent.png,100,5,0,5,0,1,,,,,,,,,,
,,,,652044c7e76a0e2c9f6f5e94,A,2024-07-08_20h49.13.334,Slot Machine Game,2023.1.3,Win32,60.24096386,,,,,,,,,,,,,,,,,,,,,,,,,,,320,,,,,,,,,,,,,,,,,,,,,4,4,,,392.5302,6,right,0.3169,,1,0.3,"[2,3,1]",0.925441627,stimuli/card_100_transparent.png,100,6,0,6,0,1,,,,,,,,,,
,,,,652044c7e76a0e2c9f6f5e94,A,2024-07-08_20h49.13.334,Slot Machine Game,2023.1.3,Win32,60.24096386,,,,,,,,,,,,,,,,,,,,,,,,,,,320,,,,,,,,,,,,,,,,,,,,,4,4,,,394.6634,7,right,1.1396,,1,0.3,"[1,2,3]",0.671931643,stimuli/card_0_transparent.png,0,7,0,7,0,1,,,,,,,,,,
,,,,652044c7e76a0e2c9f6f5e94,A,2024-07-08_20h49.13.334,Slot Machine Game,2023.1.3,Win32,60.24096386,,,,,,,,,,,,,,,,,,,,,,,,,,,420,,,,,,,,,,,,,,,,,,,,,4,4,,,397.6133,8,left,0.019,,1,0.3,"[1,2,3]",0.50257972,stimuli/card_100_transparent.png,100,8,0,8,0,1,,,,,,,,,,
,,,,652044c7e76a0e2c9f6f5e94,A,2024-07-08_20h49.13.334,Slot Machine Game,2023.1.3,Win32,60.24096386,,,,,,,,,,,,,,,,,,,,,,,,,,,520,,,,,,,,,,,,,,,,,,,,,4,4,,,399.4632,9,left,0.2332,,0.5,0.3,"[1,2,3]",0.552376403,stimuli/card_100_transparent.png,100,9,0,9,0,1,,,,,,,,,,
,,,,652044c7e76a0e2c9f6f5e94,A,2024-07-08_20h49.13.334,Slot Machine Game,2023.1.3,Win32,60.24096386,,,,,,,,,,,,,,,,,,,,,,,,,,,620,,,,,,,,,,,,,,,,,,,,,4,4,,,401.0297,10,left,0.3174,,1.5,0.3,"[1,2,3]",0.252661251,stimuli/card_100_transparent.png,100,10,0,10,0,1,,,,,,,,,,
,,,,652044c7e76a0e2c9f6f5e94,A,2024-07-08_20h49.13.334,Slot Machine Game,2023.1.3,Win32,60.24096386,,,,,,,,,,,,,,,,,,,,,,,,,,,720,,,,,,,,,,,,,,,,,,,,,4,4,,,403.6793,11,left,1.0341,,0.5,0.3,"[1,2,3]",0.735084885,stimuli/card_100_transparent.png,100,11,0,11,0,1,,,,,,,,,,
,,,,652044c7e76a0e2c9f6f5e94,A,2024-07-08_20h49.13.334,Slot Machine Game,2023.1.3,Win32,60.24096386,,,,,,,,,,,,,,,,,,,,,,,,,,,820,,,,,,,,,,,,,,,,,,,,,4,4,,,406.0456,12,left,0.6196,,1,0.3,"[1,2,3]",0.364904358,stimuli/card_100_transparent.png,100,12,0,12,0,1,,,,,,,,,,
,,,,652044c7e76a0e2c9f6f5e94,A,2024-07-08_20h49.13.334,Slot Machine Game,2023.1.3,Win32,60.24096386,,,,,,,,,,,,,,,,,,,,,,,,,,,920,,,,,,,,,,,,,,,,,,,,,4,4,,,408.4952,13,left,0.1352,,1.5,0.3,"[1,2,3]",0.463959309,stimuli/card_100_transparent.png,100,13,0,13,0,1,,,,,,,,,,
,,,,652044c7e76a0e2c9f6f5e94,A,2024-07-08_20h49.13.334,Slot Machine Game,2023.1.3,Win32,60.24096386,,,,,,,,,,,,,,,,,,,,,,,,,,,1020,,,,,,,,,,,,,,,,,,,,,4,4,,,410.9619,14,left,2.1763,,1,0.3,"[1,2,3]",0.634941848,stimuli/card_100_transparent.png,100,14,0,14,0,1,,,,,,,,,,
,,,,652044c7e76a0e2c9f6f5e94,A,2024-07-08_20h49.13.334,Slot Machine Game,2023.1.3,Win32,60.24096386,,,,,,,,,,,,,,,,,,,,,,,,,,,,,,,,,,,414.9612,,,,,,,,,,,,,,,,,,,,,,,,,,,,,,,,,"[830,820,930,1020]",3,0,3,0,1,,,,
,,,,652044c7e76a0e2c9f6f5e94,A,2024-07-08_20h49.13.334,Slot Machine Game,2023.1.3,Win32,60.24096386,,,,,,,,,,,,,,,,,,,,,,,,,,,100,,,,,,,,,,,,,,,,,,,,,5,5,"[5,15]","[[1,2,3],[3,1,2]]",419.984,0,left,0.4661,,1,0.3,"[1,2,3]",0.247280623,stimuli/card_100_transparent.png,100,0,0,0,0,1,,,,,,,,,,
,,,,652044c7e76a0e2c9f6f5e94,A,2024-07-08_20h49.13.334,Slot Machine Game,2023.1.3,Win32,60.24096386,,,,,,,,,,,,,,,,,,,,,,,,,,,100,,,,,,,,,,,,,,,,,,,,,5,5,,,422.2607,1,left,0.0681,,0.5,0.3,"[1,2,3]",0.098983175,stimuli/card_0_transparent.png,0,1,0,1,0,1,,,,,,,,,,
,,,,652044c7e76a0e2c9f6f5e94,A,2024-07-08_20h49.13.334,Slot Machine Game,2023.1.3,Win32,60.24096386,,,,,,,,,,,,,,,,,,,,,,,,,,,110,,,,,,,,,,,,,,,,,,,,,5,5,,,423.6604,2,up,0.7286,,1,0.3,"[1,2,3]",0.612438092,stimuli/card_10_transparent.png,10,2,0,2,0,1,,,,,,,,,,
,,,,652044c7e76a0e2c9f6f5e94,A,2024-07-08_20h49.13.334,Slot Machine Game,2023.1.3,Win32,60.24096386,,,,,,,,,,,,,,,,,,,,,,,,,,,110,,,,,,,,,,,,,,,,,,,,,5,5,,,426.2105,3,right,0.2401,,0.5,0.3,"[1,2,3]",0.400500279,stimuli/card_0_transparent.png,0,3,0,3,0,1,,,,,,,,,,
,,,,652044c7e76a0e2c9f6f5e94,A,2024-07-08_20h49.13.334,Slot Machine Game,2023.1.3,Win32,60.24096386,,,,,,,,,,,,,,,,,,,,,,,,,,,110,,,,,,,,,,,,,,,,,,,,,5,5,,,427.7766,4,right,0.632,,1,0.3,"[1,2,3]",0.454261623,stimuli/card_0_transparent.png,0,4,0,4,0,1,,,,,,,,,,
,,,,652044c7e76a0e2c9f6f5e94,A,2024-07-08_20h49.13.334,Slot Machine Game,2023.1.3,Win32,60.24096386,,,,,,,,,,,,,,,,,,,,,,,,,,,210,,,,,,,,,,,,,,,,,,,,,5,5,,,430.2485,5,up,0.0838,,0.5,0.3,"[3,1,2]",0.326227156,stimuli/card_100_transparent.png,100,5,0,5,0,1,,,,,,,,,,
,,,,652044c7e76a0e2c9f6f5e94,A,2024-07-08_20h49.13.334,Slot Machine Game,2023.1.3,Win32,60.24096386,,,,,,,,,,,,,,,,,,,,,,,,,,,310,,,,,,,,,,,,,,,,,,,,,5,5,,,431.6588,6,up,0.2566,,1,0.3,"[3,1,2]",0.753575204,stimuli/card_100_transparent.png,100,6,0,6,0,1,,,,,,,,,,
,,,,652044c7e76a0e2c9f6f5e94,A,2024-07-08_20h49.13.334,Slot Machine Game,2023.1.3,Win32,60.24096386,,,,,,,,,,,,,,,,,,,,,,,,,,,410,,,,,,,,,,,,,,,,,,,,,5,5,,,433.7259,7,up,0.8919,,1,0.3,"[3,1,2]",0.741118332,stimuli/card_100_transparent.png,100,7,0,7,0,1,,,,,,,,,,
,,,,652044c7e76a0e2c9f6f5e94,A,2024-07-08_20h49.13.334,Slot Machine Game,2023.1.3,Win32,60.24096386,,,,,,,,,,,,,,,,,,,,,,,,,,,510,,,,,,,,,,,,,,,,,,,,,5,5,,,436.4651,8,up,0.3291,,1.5,0.3,"[3,1,2]",0.450408484,stimuli/card_100_transparent.png,100,8,0,8,0,1,,,,,,,,,,
,,,,652044c7e76a0e2c9f6f5e94,A,2024-07-08_20h49.13.334,Slot Machine Game,2023.1.3,Win32,60.24096386,,,,,,,,,,,,,,,,,,,,,,,,,,,610,,,,,,,,,,,,,,,,,,,,,5,5,,,439.1251,9,up,1.3513,,1.5,0.3,"[3,1,2]",0.631063243,stimuli/card_100_transparent.png,100,9,0,9,0,1,,,,,,,,,,
,,,,652044c7e76a0e2c9f6f5e94,A,2024-07-08_20h49.13.334,Slot Machine Game,2023.1.3,Win32,60.24096386,,,,,,,,,,,,,,,,,,,,,,,,,,,710,,,,,,,,,,,,,,,,,,,,,5,5,,,442.8076,10,up,0.9866,,1.5,0.3,"[3,1,2]",0.767255859,stimuli/card_100_transparent.png,100,10,0,10,0,1,,,,,,,,,,
,,,,652044c7e76a0e2c9f6f5e94,A,2024-07-08_20h49.13.334,Slot Machine Game,2023.1.3,Win32,60.24096386,,,,,,,,,,,,,,,,,,,,,,,,,,,810,,,,,,,,,,,,,,,,,,,,,5,5,,,446.1139,11,up,0.1502,,1,0.3,"[3,1,2]",0.205194671,stimuli/card_100_transparent.png,100,11,0,11,0,1,,,,,,,,,,
,,,,652044c7e76a0e2c9f6f5e94,A,2024-07-08_20h49.13.334,Slot Machine Game,2023.1.3,Win32,60.24096386,,,,,,,,,,,,,,,,,,,,,,,,,,,910,,,,,,,,,,,,,,,,,,,,,5,5,,,448.0968,12,up,1.0505,,1,0.3,"[3,1,2]",0.787696407,stimuli/card_100_transparent.png,100,12,0,12,0,1,,,,,,,,,,
,,,,652044c7e76a0e2c9f6f5e94,A,2024-07-08_20h49.13.334,Slot Machine Game,2023.1.3,Win32,60.24096386,,,,,,,,,,,,,,,,,,,,,,,,,,,1010,,,,,,,,,,,,,,,,,,,,,5,5,,,450.9574,13,up,0.1605,,0.5,0.3,"[3,1,2]",0.575690064,stimuli/card_100_transparent.png,100,13,0,13,0,1,,,,,,,,,,
,,,,652044c7e76a0e2c9f6f5e94,A,2024-07-08_20h49.13.334,Slot Machine Game,2023.1.3,Win32,60.24096386,,,,,,,,,,,,,,,,,,,,,,,,,,,1110,,,,,,,,,,,,,,,,,,,,,5,5,,,452.4572,14,up,0.4292,,1,0.3,"[3,1,2]",0.963104369,stimuli/card_100_transparent.png,100,14,0,14,0,1,,,,,,,,,,
,,,,652044c7e76a0e2c9f6f5e94,A,2024-07-08_20h49.13.334,Slot Machine Game,2023.1.3,Win32,60.24096386,,,,,,,,,,,,,,,,,,,,,,,,,,,,,,,,,,,454.7069,,,,,,,,,,,,,,,,,,,,,,,,,,,,,,,,,"[830,820,930,1020,1110]",4,0,4,0,1,,,,
,,,,652044c7e76a0e2c9f6f5e94,A,2024-07-08_20h49.13.334,Slot Machine Game,2023.1.3,Win32,60.24096386,,,,,,,,,,,,,,,,,,,,,,,,,,,10,,,,,,,,,,,,,,,,,,,,,6,6,"[4,10,15]","[[2,3,1],[1,3,2],[3,2,1]]",459.7336,0,left,0.3914,,1,0.3,"[2,3,1]",0.661892078,stimuli/card_10_transparent.png,10,0,0,0,0,1,,,,,,,,,,
,,,,652044c7e76a0e2c9f6f5e94,A,2024-07-08_20h49.13.334,Slot Machine Game,2023.1.3,Win32,60.24096386,,,,,,,,,,,,,,,,,,,,,,,,,,,10,,,,,,,,,,,,,,,,,,,,,6,6,,,461.9393,1,up,0.0059,,1,0.3,"[2,3,1]",0.663830235,stimuli/card_0_transparent.png,0,1,0,1,0,1,,,,,,,,,,
,,,,652044c7e76a0e2c9f6f5e94,A,2024-07-08_20h49.13.334,Slot Machine Game,2023.1.3,Win32,60.24096386,,,,,,,,,,,,,,,,,,,,,,,,,,,110,,,,,,,,,,,,,,,,,,,,,6,6,,,463.7724,2,right,0.2344,,0.5,0.3,"[2,3,1]",0.236551465,stimuli/card_100_transparent.png,100,2,0,2,0,1,,,,,,,,,,
,,,,652044c7e76a0e2c9f6f5e94,A,2024-07-08_20h49.13.334,Slot Machine Game,2023.1.3,Win32,60.24096386,,,,,,,,,,,,,,,,,,,,,,,,,,,210,,,,,,,,,,,,,,,,,,,,,6,6,,,465.3388,3,right,0.3583,,1,0.3,"[2,3,1]",0.51405118,stimuli/card_100_transparent.png,100,3,0,3,0,1,,,,,,,,,,
,,,,652044c7e76a0e2c9f6f5e94,A,2024-07-08_20h49.13.334,Slot Machine Game,2023.1.3,Win32,60.24096386,,,,,,,,,,,,,,,,,,,,,,,,,,,220,,,,,,,,,,,,,,,,,,,,,6,6,,,467.522,4,right,0.049,,0.5,0.3,"[1,3,2]",0.95977487,stimuli/card_10_transparent.png,10,4,0,4,0,1,,,,,,,,,,
,,,,652044c7e76a0e2c9f6f5e94,A,2024-07-08_20h49.13.334,Slot Machine Game,2023.1.3,Win32,60.24096386,,,,,,,,,,,,,,,,,,,,,,,,,,,230,,,,,,,,,,,,,,,,,,,,,6,6,,,468.9049,5,right,0.217,,1,0.3,"[1,3,2]",0.634151823,stimuli/card_10_transparent.png,10,5,0,5,0,1,,,,,,,,,,
,,,,652044c7e76a0e2c9f6f5e94,A,2024-07-08_20h49.13.334,Slot Machine Game,2023.1.3,Win32,60.24096386,,,,,,,,,,,,,,,,,,,,,,,,,,,230,,,,,,,,,,,,,,,,,,,,,6,6,,,470.9547,6,up,0.0838,,0.5,0.3,"[1,3,2]",0.363803729,stimuli/card_0_transparent.png,0,6,0,6,0,1,,,,,,,,,,
,,,,652044c7e76a0e2c9f6f5e94,A,2024-07-08_20h49.13.334,Slot Machine Game,2023.1.3,Win32,60.24096386,,,,,,,,,,,,,,,,,,,,,,,,,,,230,,,,,,,,,,,,,,,,,,,,,6,6,,,472.3713,7,up,0.1505,,1,0.3,"[1,3,2]",0.554823582,stimuli/card_0_transparent.png,0,7,0,7,0,1,,,,,,,,,,
,,,,652044c7e76a0e2c9f6f5e94,A,2024-07-08_20h49.13.334,Slot Machine Game,2023.1.3,Win32,60.24096386,,,,,,,,,,,,,,,,,,,,,,,,,,,330,,,,,,,,,,,,,,,,,,,,,6,6,,,474.3541,8,left,0.915,,1.5,0.3,"[1,3,2]",0.815643133,stimuli/card_100_transparent.png,100,8,0,8,0,1,,,,,,,,,,
,,,,652044c7e76a0e2c9f6f5e94,A,2024-07-08_20h49.13.334,Slot Machine Game,2023.1.3,Win32,60.24096386,,,,,,,,,,,,,,,,,,,,,,,,,,,430,,,,,,,,,,,,,,,,,,,,,6,6,,,477.6036,9,left,0.5176,,1,0.3,"[1,3,2]",0.525039417,stimuli/card_100_transparent.png,100,9,0,9,0,1,,,,,,,,,,
,,,,652044c7e76a0e2c9f6f5e94,A,2024-07-08_20h49.13.334,Slot Machine Game,2023.1.3,Win32,60.24096386,,,,,,,,,,,,,,,,,,,,,,,,,,,430,,,,,,,,,,,,,,,,,,,,,6,6,,,479.9539,10,left,0.382,,1,0.3,"[3,2,1]",0.920551055,stimuli/card_0_transparent.png,0,10,0,10,0,1,,,,,,,,,,
,,,,652044c7e76a0e2c9f6f5e94,A,2024-07-08_20h49.13.334,Slot Machine Game,2023.1.3,Win32,60.24096386,,,,,,,,,,,,,,,,,,,,,,,,,,,430,,,,,,,,,,,,,,,,,,,,,6,6,,,482.1704,11,left,0.2089,,0.5,0.3,"[3,2,1]",0.405877091,stimuli/card_0_transparent.png,0,11,0,11,0,1,,,,,,,,,,
,,,,652044c7e76a0e2c9f6f5e94,A,2024-07-08_20h49.13.334,Slot Machine Game,2023.1.3,Win32,60.24096386,,,,,,,,,,,,,,,,,,,,,,,,,,,430,,,,,,,,,,,,,,,,,,,,,6,6,,,483.7037,12,left,1.2347,,0.5,0.3,"[3,2,1]",0.551853748,stimuli/card_0_transparent.png,0,12,0,12,0,1,,,,,,,,,,
,,,,652044c7e76a0e2c9f6f5e94,A,2024-07-08_20h49.13.334,Slot Machine Game,2023.1.3,Win32,60.24096386,,,,,,,,,,,,,,,,,,,,,,,,,,,440,,,,,,,,,,,,,,,,,,,,,6,6,,,486.2699,13,up,0.8589,,0.5,0.3,"[3,2,1]",0.343627993,stimuli/card_10_transparent.png,10,13,0,13,0,1,,,,,,,,,,
,,,,652044c7e76a0e2c9f6f5e94,A,2024-07-08_20h49.13.334,Slot Machine Game,2023.1.3,Win32,60.24096386,,,,,,,,,,,,,,,,,,,,,,,,,,,540,,,,,,,,,,,,,,,,,,,,,6,6,,,488.453,14,right,0.0505,,1,0.3,"[3,2,1]",0.26501015,stimuli/card_100_transparent.png,100,14,0,14,0,1,,,,,,,,,,
,,,,652044c7e76a0e2c9f6f5e94,A,2024-07-08_20h49.13.334,Slot Machine Game,2023.1.3,Win32,60.24096386,,,,,,,,,,,,,,,,,,,,,,,,,,,,,,,,,,,490.3359,,,,,,,,,,,,,,,,,,,,,,,,,,,,,,,,,"[830,820,930,1020,1110,540]",5,0,5,0,1,,,,
,,,,652044c7e76a0e2c9f6f5e94,A,2024-07-08_20h49.13.334,Slot Machine Game,2023.1.3,Win32,60.24096386,,,,,,,,,,,,,,,,,,,,,,,,,,,10,,,,,,,,,,,,,,,,,,,,,7,7,"[9,15]","[[1,3,2],[2,3,1]]",495.3596,0,up,0.6821,,0.5,0.3,"[1,3,2]",0.109344764,stimuli/card_10_transparent.png,10,0,0,0,0,1,,,,,,,,,,
,,,,652044c7e76a0e2c9f6f5e94,A,2024-07-08_20h49.13.334,Slot Machine Game,2023.1.3,Win32,60.24096386,,,,,,,,,,,,,,,,,,,,,,,,,,,10,,,,,,,,,,,,,,,,,,,,,7,7,,,497.3685,1,right,0.0322,,0.5,0.3,"[1,3,2]",0.026439588,stimuli/card_0_transparent.png,0,1,0,1,0,1,,,,,,,,,,
,,,,652044c7e76a0e2c9f6f5e94,A,2024-07-08_20h49.13.334,Slot Machine Game,2023.1.3,Win32,60.24096386,,,,,,,,,,,,,,,,,,,,,,,,,,,110,,,,,,,,,,,,,,,,,,,,,7,7,,,498.735,2,left,0.1235,,0.5,0.3,"[1,3,2]",0.923632357,stimuli/card_100_transparent.png,100,2,0,2,0,1,,,,,,,,,,
,,,,652044c7e76a0e2c9f6f5e94,A,2024-07-08_20h49.13.334,Slot Machine Game,2023.1.3,Win32,60.24096386,,,,,,,,,,,,,,,,,,,,,,,,,,,210,,,,,,,,,,,,,,,,,,,,,7,7,,,500.1847,3,left,0.6405,,1.5,0.3,"[1,3,2]",0.361845294,stimuli/card_100_transparent.png,100,3,0,3,0,1,,,,,,,,,,
,,,,652044c7e76a0e2c9f6f5e94,A,2024-07-08_20h49.13.334,Slot Machine Game,2023.1.3,Win32,60.24096386,,,,,,,,,,,,,,,,,,,,,,,,,,,310,,,,,,,,,,,,,,,,,,,,,7,7,,,503.1512,4,left,0.3001,,1.5,0.3,"[1,3,2]",0.92668286,stimuli/card_100_transparent.png,100,4,0,4,0,1,,,,,,,,,,
,,,,652044c7e76a0e2c9f6f5e94,A,2024-07-08_20h49.13.334,Slot Machine Game,2023.1.3,Win32,60.24096386,,,,,,,,,,,,,,,,,,,,,,,,,,,410,,,,,,,,,,,,,,,,,,,,,7,7,,,505.7841,5,left,1.4094,,1,0.3,"[1,3,2]",0.939869819,stimuli/card_100_transparent.png,100,5,0,5,0,1,,,,,,,,,,
,,,,652044c7e76a0e2c9f6f5e94,A,2024-07-08_20h49.13.334,Slot Machine Game,2023.1.3,Win32,60.24096386,,,,,,,,,,,,,,,,,,,,,,,,,,,420,,,,,,,,,,,,,,,,,,,,,7,7,,,509.0172,6,left,0.5377,,1,0.3,"[1,3,2]",0.177333312,stimuli/card_10_transparent.png,10,6,0,6,0,1,,,,,,,,,,
,,,,652044c7e76a0e2c9f6f5e94,A,2024-07-08_20h49.13.334,Slot Machine Game,2023.1.3,Win32,60.24096386,,,,,,,,,,,,,,,,,,,,,,,,,,,420,,,,,,,,,,,,,,,,,,,,,7,7,,,511.3833,7,up,0.2656,,1.5,0.3,"[1,3,2]",0.674080666,stimuli/card_0_transparent.png,0,7,0,7,0,1,,,,,,,,,,
,,,,652044c7e76a0e2c9f6f5e94,A,2024-07-08_20h49.13.334,Slot Machine Game,2023.1.3,Win32,60.24096386,,,,,,,,,,,,,,,,,,,,,,,,,,,430,,,,,,,,,,,,,,,,,,,,,7,7,,,513.9829,8,right,0.2606,,0.5,0.3,"[1,3,2]",0.991055617,stimuli/card_10_transparent.png,10,8,0,8,0,1,,,,,,,,,,
,,,,652044c7e76a0e2c9f6f5e94,A,2024-07-08_20h49.13.334,Slot Machine Game,2023.1.3,Win32,60.24096386,,,,,,,,,,,,,,,,,,,,,,,,,,,530,,,,,,,,,,,,,,,,,,,,,7,7,,,515.5497,9,right,0.2353,,1.5,0.3,"[2,3,1]",0.669138774,stimuli/card_100_transparent.png,100,9,0,9,0,1,,,,,,,,,,
,,,,652044c7e76a0e2c9f6f5e94,A,2024-07-08_20h49.13.334,Slot Machine Game,2023.1.3,Win32,60.24096386,,,,,,,,,,,,,,,,,,,,,,,,,,,630,,,,,,,,,,,,,,,,,,,,,7,7,,,518.1161,10,right,0.0692,,1.5,0.3,"[2,3,1]",0.241807243,stimuli/card_100_transparent.png,100,10,0,10,0,1,,,,,,,,,,
,,,,652044c7e76a0e2c9f6f5e94,A,2024-07-08_20h49.13.334,Slot Machine Game,2023.1.3,Win32,60.24096386,,,,,,,,,,,,,,,,,,,,,,,,,,,730,,,,,,,,,,,,,,,,,,,,,7,7,,,520.5153,11,right,1.4699,,1,0.3,"[2,3,1]",0.98215694,stimuli/card_100_transparent.png,100,11,0,11,0,1,,,,,,,,,,
,,,,652044c7e76a0e2c9f6f5e94,A,2024-07-08_20h49.13.334,Slot Machine Game,2023.1.3,Win32,60.24096386,,,,,,,,,,,,,,,,,,,,,,,,,,,730,,,,,,,,,,,,,,,,,,,,,7,7,,,523.815,12,right,0.0856,,1,0.3,"[2,3,1]",0.070573746,stimuli/card_0_transparent.png,0,12,0,12,0,1,,,,,,,,,,
,,,,652044c7e76a0e2c9f6f5e94,A,2024-07-08_20h49.13.334,Slot Machine Game,2023.1.3,Win32,60.24096386,,,,,,,,,,,,,,,,,,,,,,,,,,,730,,,,,,,,,,,,,,,,,,,,,7,7,,,525.7321,13,up,0.5559,,0.5,0.3,"[2,3,1]",0.560068084,stimuli/card_0_transparent.png,0,13,0,13,0,1,,,,,,,,,,
,,,,652044c7e76a0e2c9f6f5e94,A,2024-07-08_20h49.13.334,Slot Machine Game,2023.1.3,Win32,60.24096386,,,,,,,,,,,,,,,,,,,,,,,,,,,740,,,,,,,,,,,,,,,,,,,,,7,7,,,527.615,14,left,0.0276,,1.5,0.3,"[2,3,1]",0.218318632,stimuli/card_10_transparent.png,10,14,0,14,0,1,,,,,,,,,,
,,,,652044c7e76a0e2c9f6f5e94,A,2024-07-08_20h49.13.334,Slot Machine Game,2023.1.3,Win32,60.24096386,,,,,,,,,,,,,,,,,,,,,,,,,,,,,,,,,,,529.9647,,,,,,,,,,,,,,,,,,,,,,,,,,,,,,,,,"[830,820,930,1020,1110,540,740]",6,0,6,0,1,,,,
,,,,652044c7e76a0e2c9f6f5e94,A,2024-07-08_20h49.13.334,Slot Machine Game,2023.1.3,Win32,60.24096386,,,,,,,,,,,,,,,,,,,,,,,,,,,10,,,,,,,,,,,,,,,,,,,,,8,8,"[11,15]","[[2,1,3],[1,2,3]]",534.9761,0,left,0.6853,,1,0.3,"[2,1,3]",0.227133207,stimuli/card_10_transparent.png,10,0,0,0,0,1,,,,,,,,,,
,,,,652044c7e76a0e2c9f6f5e94,A,2024-07-08_20h49.13.334,Slot Machine Game,2023.1.3,Win32,60.24096386,,,,,,,,,,,,,,,,,,,,,,,,,,,110,,,,,,,,,,,,,,,,,,,,,8,8,,,537.4805,1,up,0.8837,,0.5,0.3,"[2,1,3]",0.78832014,stimuli/card_100_transparent.png,100,1,0,1,0,1,,,,,,,,,,
,,,,652044c7e76a0e2c9f6f5e94,A,2024-07-08_20h49.13.334,Slot Machine Game,2023.1.3,Win32,60.24096386,,,,,,,,,,,,,,,,,,,,,,,,,,,210,,,,,,,,,,,,,,,,,,,,,8,8,,,539.6969,2,up,0.072,,1,0.3,"[2,1,3]",0.68567335,stimuli/card_100_transparent.png,100,2,0,2,0,1,,,,,,,,,,
,,,,652044c7e76a0e2c9f6f5e94,A,2024-07-08_20h49.13.334,Slot Machine Game,2023.1.3,Win32,60.24096386,,,,,,,,,,,,,,,,,,,,,,,,,,,310,,,,,,,,,,,,,,,,,,,,,8,8,,,541.5965,3,up,0.7906,,0.5,0.3,"[2,1,3]",0.388155761,stimuli/card_100_transparent.png,100,3,0,3,0,1,,,,,,,,,,
,,,,652044c7e76a0e2c9f6f5e94,A,2024-07-08_20h49.13.334,Slot Machine Game,2023.1.3,Win32,60.24096386,,,,,,,,,,,,,,,,,,,,,,,,,,,410,,,,,,,,,,,,,,,,,,,,,8,8,,,543.6962,4,up,0.4164,,1,0.3,"[2,1,3]",0.610223373,stimuli/card_100_transparent.png,100,4,0,4,0,1,,,,,,,,,,
,,,,652044c7e76a0e2c9f6f5e94,A,2024-07-08_20h49.13.334,Slot Machine Game,2023.1.3,Win32,60.24096386,,,,,,,,,,,,,,,,,,,,,,,,,,,510,,,,,,,,,,,,,,,,,,,,,8,8,,,545.9297,5,up,0.0505,,0.5,0.3,"[2,1,3]",0.391445511,stimuli/card_100_transparent.png,100,5,0,5,0,1,,,,,,,,,,
,,,,652044c7e76a0e2c9f6f5e94,A,2024-07-08_20h49.13.334,Slot Machine Game,2023.1.3,Win32,60.24096386,,,,,,,,,,,,,,,,,,,,,,,,,,,610,,,,,,,,,,,,,,,,,,,,,8,8,,,547.3126,6,up,0.119,,1.5,0.3,"[2,1,3]",0.745905428,stimuli/card_100_transparent.png,100,6,0,6,0,1,,,,,,,,,,
,,,,652044c7e76a0e2c9f6f5e94,A,2024-07-08_20h49.13.334,Slot Machine Game,2023.1.3,Win32,60.24096386,,,,,,,,,,,,,,,,,,,,,,,,,,,710,,,,,,,,,,,,,,,,,,,,,8,8,,,549.7625,7,up,0.3587,,1,0.3,"[2,1,3]",0.567941465,stimuli/card_100_transparent.png,100,7,0,7,0,1,,,,,,,,,,
,,,,652044c7e76a0e2c9f6f5e94,A,2024-07-08_20h49.13.334,Slot Machine Game,2023.1.3,Win32,60.24096386,,,,,,,,,,,,,,,,,,,,,,,,,,,810,,,,,,,,,,,,,,,,,,,,,8,8,,,551.9456,8,up,0.1515,,0.5,0.3,"[2,1,3]",0.800383861,stimuli/card_100_transparent.png,100,8,0,8,0,1,,,,,,,,,,
,,,,652044c7e76a0e2c9f6f5e94,A,2024-07-08_20h49.13.334,Slot Machine Game,2023.1.3,Win32,60.24096386,,,,,,,,,,,,,,,,,,,,,,,,,,,910,,,,,,,,,,,,,,,,,,,,,8,8,,,553.4287,9,up,0.0855,,1,0.3,"[2,1,3]",0.270475732,stimuli/card_100_transparent.png,100,9,0,9,0,1,,,,,,,,,,
,,,,652044c7e76a0e2c9f6f5e94,A,2024-07-08_20h49.13.334,Slot Machine Game,2023.1.3,Win32,60.24096386,,,,,,,,,,,,,,,,,,,,,,,,,,,1010,,,,,,,,,,,,,,,,,,,,,8,8,,,555.345,10,up,0.138,,1.5,0.3,"[2,1,3]",0.848596375,stimuli/card_100_transparent.png,100,10,0,10,0,1,,,,,,,,,,
,,,,652044c7e76a0e2c9f6f5e94,A,2024-07-08_20h49.13.334,Slot Machine Game,2023.1.3,Win32,60.24096386,,,,,,,,,,,,,,,,,,,,,,,,,,,1020,,,,,,,,,,,,,,,,,,,,,8,8,,,557.8116,11,up,1.8674,,0.5,0.3,"[1,2,3]",0.89678337,stimuli/card_10_transparent.png,10,11,0,11,0,1,,,,,,,,,,
,,,,652044c7e76a0e2c9f6f5e94,A,2024-07-08_20h49.13.334,Slot Machine Game,2023.1.3,Win32,60.24096386,,,,,,,,,,,,,,,,,,,,,,,,,,,1030,,,,,,,,,,,,,,,,,,,,,8,8,,,561.0112,12,right,0.5005,,1.5,0.3,"[1,2,3]",0.107340456,stimuli/card_10_transparent.png,10,12,0,12,0,1,,,,,,,,,,
,,,,652044c7e76a0e2c9f6f5e94,A,2024-07-08_20h49.13.334,Slot Machine Game,2023.1.3,Win32,60.24096386,,,,,,,,,,,,,,,,,,,,,,,,,,,1130,,,,,,,,,,,,,,,,,,,,,8,8,,,563.8442,13,left,0.9268,,0.5,0.3,"[1,2,3]",0.883108698,stimuli/card_100_transparent.png,100,13,0,13,0,1,,,,,,,,,,
,,,,652044c7e76a0e2c9f6f5e94,A,2024-07-08_20h49.13.334,Slot Machine Game,2023.1.3,Win32,60.24096386,,,,,,,,,,,,,,,,,,,,,,,,,,,1130,,,,,,,,,,,,,,,,,,,,,8,8,,,566.0935,14,left,0.5329,,1.5,0.3,"[1,2,3]",0.057309653,stimuli/card_0_transparent.png,0,14,0,14,0,1,,,,,,,,,,
,,,,652044c7e76a0e2c9f6f5e94,A,2024-07-08_20h49.13.334,Slot Machine Game,2023.1.3,Win32,60.24096386,,,,,,,,,,,,,,,,,,,,,,,,,,,,,,,,,,,568.9603,,,,,,,,,,,,,,,,,,,,,,,,,,,,,,,,,"[830,820,930,1020,1110,540,740,1130]",7,0,7,0,1,,,,
,,,,652044c7e76a0e2c9f6f5e94,A,2024-07-08_20h49.13.334,Slot Machine Game,2023.1.3,Win32,60.24096386,,,,,,,,,,,,,,,,,,,,,,,,,,,10,,,,,,,,,,,,,,,,,,,,,9,9,"[8,15]","[[3,2,1],[3,1,2]]",573.9837,0,up,0.3068,,1,0.3,"[3,2,1]",0.306948914,stimuli/card_10_transparent.png,10,0,0,0,0,1,,,,,,,,,,
,,,,652044c7e76a0e2c9f6f5e94,A,2024-07-08_20h49.13.334,Slot Machine Game,2023.1.3,Win32,60.24096386,,,,,,,,,,,,,,,,,,,,,,,,,,,10,,,,,,,,,,,,,,,,,,,,,9,9,,,576.1095,1,left,0.7714,,1.5,0.3,"[3,2,1]",0.499207251,stimuli/card_0_transparent.png,0,1,0,1,0,1,,,,,,,,,,
,,,,652044c7e76a0e2c9f6f5e94,A,2024-07-08_20h49.13.334,Slot Machine Game,2023.1.3,Win32,60.24096386,,,,,,,,,,,,,,,,,,,,,,,,,,,110,,,,,,,,,,,,,,,,,,,,,9,9,,,579.2091,2,right,0.7343,,1.5,0.3,"[3,2,1]",0.838286803,stimuli/card_100_transparent.png,100,2,0,2,0,1,,,,,,,,,,
,,,,652044c7e76a0e2c9f6f5e94,A,2024-07-08_20h49.13.334,Slot Machine Game,2023.1.3,Win32,60.24096386,,,,,,,,,,,,,,,,,,,,,,,,,,,210,,,,,,,,,,,,,,,,,,,,,9,9,,,582.2754,3,right,0.4218,,1,0.3,"[3,2,1]",0.64226509,stimuli/card_100_transparent.png,100,3,0,3,0,1,,,,,,,,,,
,,,,652044c7e76a0e2c9f6f5e94,A,2024-07-08_20h49.13.334,Slot Machine Game,2023.1.3,Win32,60.24096386,,,,,,,,,,,,,,,,,,,,,,,,,,,210,,,,,,,,,,,,,,,,,,,,,9,9,,,584.5251,4,right,1.0013,,0.5,0.3,"[3,2,1]",0.074804629,stimuli/card_0_transparent.png,0,4,0,4,0,1,,,,,,,,,,
,,,,652044c7e76a0e2c9f6f5e94,A,2024-07-08_20h49.13.334,Slot Machine Game,2023.1.3,Win32,60.24096386,,,,,,,,,,,,,,,,,,,,,,,,,,,310,,,,,,,,,,,,,,,,,,,,,9,9,,,586.8583,5,up,0.8394,,1.5,0.3,"[3,2,1]",0.184839697,stimuli/card_100_transparent.png,100,5,0,5,0,1,,,,,,,,,,
,,,,652044c7e76a0e2c9f6f5e94,A,2024-07-08_20h49.13.334,Slot Machine Game,2023.1.3,Win32,60.24096386,,,,,,,,,,,,,,,,,,,,,,,,,,,320,,,,,,,,,,,,,,,,,,,,,9,9,,,590.0244,6,up,0.516,,1,0.3,"[3,2,1]",0.893194949,stimuli/card_10_transparent.png,10,6,0,6,0,1,,,,,,,,,,
,,,,652044c7e76a0e2c9f6f5e94,A,2024-07-08_20h49.13.334,Slot Machine Game,2023.1.3,Win32,60.24096386,,,,,,,,,,,,,,,,,,,,,,,,,,,320,,,,,,,,,,,,,,,,,,,,,9,9,,,592.3741,7,up,0.1154,,1.5,0.3,"[3,2,1]",0.055612706,stimuli/card_0_transparent.png,0,7,0,7,0,1,,,,,,,,,,
,,,,652044c7e76a0e2c9f6f5e94,A,2024-07-08_20h49.13.334,Slot Machine Game,2023.1.3,Win32,60.24096386,,,,,,,,,,,,,,,,,,,,,,,,,,,420,,,,,,,,,,,,,,,,,,,,,9,9,,,594.824,8,up,0.1536,,0.5,0.3,"[3,1,2]",0.820335504,stimuli/card_100_transparent.png,100,8,0,8,0,1,,,,,,,,,,
,,,,652044c7e76a0e2c9f6f5e94,A,2024-07-08_20h49.13.334,Slot Machine Game,2023.1.3,Win32,60.24096386,,,,,,,,,,,,,,,,,,,,,,,,,,,430,,,,,,,,,,,,,,,,,,,,,9,9,,,596.307,9,up,1.3595,,0.5,0.3,"[3,1,2]",0.107683682,stimuli/card_10_transparent.png,10,9,0,9,0,1,,,,,,,,,,
,,,,652044c7e76a0e2c9f6f5e94,A,2024-07-08_20h49.13.334,Slot Machine Game,2023.1.3,Win32,60.24096386,,,,,,,,,,,,,,,,,,,,,,,,,,,440,,,,,,,,,,,,,,,,,,,,,9,9,,,598.9902,10,left,0.4351,,1,0.3,"[3,1,2]",0.149244115,stimuli/card_10_transparent.png,10,10,0,10,0,1,,,,,,,,,,
,,,,652044c7e76a0e2c9f6f5e94,A,2024-07-08_20h49.13.334,Slot Machine Game,2023.1.3,Win32,60.24096386,,,,,,,,,,,,,,,,,,,,,,,,,,,450,,,,,,,,,,,,,,,,,,,,,9,9,,,601.2567,11,right,0.4423,,1,0.3,"[3,1,2]",0.499977825,stimuli/card_10_transparent.png,10,11,0,11,0,1,,,,,,,,,,
,,,,652044c7e76a0e2c9f6f5e94,A,2024-07-08_20h49.13.334,Slot Machine Game,2023.1.3,Win32,60.24096386,,,,,,,,,,,,,,,,,,,,,,,,,,,460,,,,,,,,,,,,,,,,,,,,,9,9,,,603.523,12,up,0.2531,,0.5,0.3,"[3,1,2]",0.138304049,stimuli/card_10_transparent.png,10,12,0,12,0,1,,,,,,,,,,
,,,,652044c7e76a0e2c9f6f5e94,A,2024-07-08_20h49.13.334,Slot Machine Game,2023.1.3,Win32,60.24096386,,,,,,,,,,,,,,,,,,,,,,,,,,,560,,,,,,,,,,,,,,,,,,,,,9,9,,,605.1062,13,up,0.9195,,1.5,0.3,"[3,1,2]",0.471346725,stimuli/card_100_transparent.png,100,13,0,13,0,1,,,,,,,,,,
,,,,652044c7e76a0e2c9f6f5e94,A,2024-07-08_20h49.13.334,Slot Machine Game,2023.1.3,Win32,60.24096386,,,,,,,,,,,,,,,,,,,,,,,,,,,660,,,,,,,,,,,,,,,,,,,,,9,9,,,608.3557,14,up,1.2821,,1,0.3,"[3,1,2]",0.787782759,stimuli/card_100_transparent.png,100,14,0,14,0,1,,,,,,,,,,
,,,,652044c7e76a0e2c9f6f5e94,A,2024-07-08_20h49.13.334,Slot Machine Game,2023.1.3,Win32,60.24096386,,,,,,,,,,,,,,,,,,,,,,,,,,,,,,,,,,,611.4715,,,,,,,,,,,,,,,,,,,,,,,,,,,,,,,,,"[830,820,930,1020,1110,540,740,1130,660]",8,0,8,0,1,,,,
,,,,652044c7e76a0e2c9f6f5e94,A,2024-07-08_20h49.13.334,Slot Machine Game,2023.1.3,Win32,60.24096386,,,,,,,,,,,,,,,,,,,,,,,,,,,0,,,,,,,,,,,,,,,,,,,,,10,10,"[10,15]","[[3,1,2],[1,3,2]]",616.4967,0,up,0.4824,,1.5,0.3,"[3,1,2]",0.085914162,stimuli/card_0_transparent.png,0,0,0,0,0,1,,,,,,,,,,
,,,,652044c7e76a0e2c9f6f5e94,A,2024-07-08_20h49.13.334,Slot Machine Game,2023.1.3,Win32,60.24096386,,,,,,,,,,,,,,,,,,,,,,,,,,,10,,,,,,,,,,,,,,,,,,,,,10,10,,,619.3045,1,right,0.6656,,1,0.3,"[3,1,2]",0.808182078,stimuli/card_10_transparent.png,10,1,0,1,0,1,,,,,,,,,,
,,,,652044c7e76a0e2c9f6f5e94,A,2024-07-08_20h49.13.334,Slot Machine Game,2023.1.3,Win32,60.24096386,,,,,,,,,,,,,,,,,,,,,,,,,,,10,,,,,,,,,,,,,,,,,,,,,10,10,,,621.8043,2,left,0.0217,,0.5,0.3,"[3,1,2]",0.882619908,stimuli/card_0_transparent.png,0,2,0,2,0,1,,,,,,,,,,
,,,,652044c7e76a0e2c9f6f5e94,A,2024-07-08_20h49.13.334,Slot Machine Game,2023.1.3,Win32,60.24096386,,,,,,,,,,,,,,,,,,,,,,,,,,,10,,,,,,,,,,,,,,,,,,,,,10,10,,,623.1543,3,left,0.3593,,0.5,0.3,"[3,1,2]",0.71516805,stimuli/card_0_transparent.png,0,3,0,3,0,1,,,,,,,,,,
,,,,652044c7e76a0e2c9f6f5e94,A,2024-07-08_20h49.13.334,Slot Machine Game,2023.1.3,Win32,60.24096386,,,,,,,,,,,,,,,,,,,,,,,,,,,10,,,,,,,,,,,,,,,,,,,,,10,10,,,624.8372,4,left,0.2682,,1.5,0.3,"[3,1,2]",0.698814143,stimuli/card_0_transparent.png,0,4,0,4,0,1,,,,,,,,,,
,,,,652044c7e76a0e2c9f6f5e94,A,2024-07-08_20h49.13.334,Slot Machine Game,2023.1.3,Win32,60.24096386,,,,,,,,,,,,,,,,,,,,,,,,,,,20,,,,,,,,,,,,,,,,,,,,,10,10,,,627.437,5,right,0.9575,,0.5,0.3,"[3,1,2]",0.937197017,stimuli/card_10_transparent.png,10,5,0,5,0,1,,,,,,,,,,
,,,,652044c7e76a0e2c9f6f5e94,A,2024-07-08_20h49.13.334,Slot Machine Game,2023.1.3,Win32,60.24096386,,,,,,,,,,,,,,,,,,,,,,,,,,,30,,,,,,,,,,,,,,,,,,,,,10,10,,,629.72,6,right,0.3868,,1.5,0.3,"[3,1,2]",0.225989864,stimuli/card_10_transparent.png,10,6,0,6,0,1,,,,,,,,,,
,,,,652044c7e76a0e2c9f6f5e94,A,2024-07-08_20h49.13.334,Slot Machine Game,2023.1.3,Win32,60.24096386,,,,,,,,,,,,,,,,,,,,,,,,,,,130,,,,,,,,,,,,,,,,,,,,,10,10,,,632.4363,7,up,0.9906,,1.5,0.3,"[3,1,2]",0.549404905,stimuli/card_100_transparent.png,100,7,0,7,0,1,,,,,,,,,,
,,,,652044c7e76a0e2c9f6f5e94,A,2024-07-08_20h49.13.334,Slot Machine Game,2023.1.3,Win32,60.24096386,,,,,,,,,,,,,,,,,,,,,,,,,,,230,,,,,,,,,,,,,,,,,,,,,10,10,,,635.7527,8,up,1.7224,,0.5,0.3,"[3,1,2]",0.53139762,stimuli/card_100_transparent.png,100,8,0,8,0,1,,,,,,,,,,
,,,,652044c7e76a0e2c9f6f5e94,A,2024-07-08_20h49.13.334,Slot Machine Game,2023.1.3,Win32,60.24096386,,,,,,,,,,,,,,,,,,,,,,,,,,,330,,,,,,,,,,,,,,,,,,,,,10,10,,,638.8024,9,up,0.4675,,1.5,0.3,"[3,1,2]",0.263851935,stimuli/card_100_transparent.png,100,9,0,9,0,1,,,,,,,,,,
,,,,652044c7e76a0e2c9f6f5e94,A,2024-07-08_20h49.13.334,Slot Machine Game,2023.1.3,Win32,60.24096386,,,,,,,,,,,,,,,,,,,,,,,,,,,430,,,,,,,,,,,,,,,,,,,,,10,10,,,641.6017,10,up,0.8653,,1.5,0.3,"[1,3,2]",0.025202865,stimuli/card_100_transparent.png,100,10,0,10,0,1,,,,,,,,,,
,,,,652044c7e76a0e2c9f6f5e94,A,2024-07-08_20h49.13.334,Slot Machine Game,2023.1.3,Win32,60.24096386,,,,,,,,,,,,,,,,,,,,,,,,,,,430,,,,,,,,,,,,,,,,,,,,,10,10,,,644.7849,11,up,1.3861,,0.5,0.3,"[1,3,2]",0.847502419,stimuli/card_0_transparent.png,0,11,0,11,0,1,,,,,,,,,,
,,,,652044c7e76a0e2c9f6f5e94,A,2024-07-08_20h49.13.334,Slot Machine Game,2023.1.3,Win32,60.24096386,,,,,,,,,,,,,,,,,,,,,,,,,,,440,,,,,,,,,,,,,,,,,,,,,10,10,,,647.5017,12,right,0.6358,,1,0.3,"[1,3,2]",0.418336645,stimuli/card_10_transparent.png,10,12,0,12,0,1,,,,,,,,,,
,,,,652044c7e76a0e2c9f6f5e94,A,2024-07-08_20h49.13.334,Slot Machine Game,2023.1.3,Win32,60.24096386,,,,,,,,,,,,,,,,,,,,,,,,,,,450,,,,,,,,,,,,,,,,,,,,,10,10,,,649.9676,13,right,1.4688,,1.5,0.3,"[1,3,2]",0.242901031,stimuli/card_10_transparent.png,10,13,0,13,0,1,,,,,,,,,,
,,,,652044c7e76a0e2c9f6f5e94,A,2024-07-08_20h49.13.334,Slot Machine Game,2023.1.3,Win32,60.24096386,,,,,,,,,,,,,,,,,,,,,,,,,,,460,,,,,,,,,,,,,,,,,,,,,10,10,,,653.7673,14,right,0.0018,,1.5,0.3,"[1,3,2]",0.849498298,stimuli/card_10_transparent.png,10,14,0,14,0,1,,,,,,,,,,
,,,,652044c7e76a0e2c9f6f5e94,A,2024-07-08_20h49.13.334,Slot Machine Game,2023.1.3,Win32,60.24096386,,,,,,,,,,,,,,,,,,,,,,,,,,,,,,,,,,,656.0997,,,,,,,,,,,,,,,,,,,,,,,,,,,,,,,,,"[830,820,930,1020,1110,540,740,1130,660,460]",9,0,9,0,1,,,,
,,,,652044c7e76a0e2c9f6f5e94,A,2024-07-08_20h49.13.334,Slot Machine Game,2023.1.3,Win32,60.24096386,,,,,,,,,,,,,,,,,,,,,,,,,,,,,,,,,,,,,,,,,,,,,,,,,,,,,,,,,,,,,,,,,,,,,,,,,,9,"[830,820,930,1020,1110,540,740,1130,660,460]",11.3,2024-07-08_21h00.18.657
