key_resp_welcome_started,key_resp_welcome_keys,key_resp_welcome_rt,key_resp_welcome_duration,prolific_id,path_id,date,expName,psychopyVersion,OS,frameRate,key_resp_instruction1_started,key_resp_instruction1_keys,key_resp_instruction1_rt,key_resp_instruction1_duration,key_resp_instruction2_started,key_resp_instruction2_keys,key_resp_instruction2_rt,key_resp_instruction2_duration,key_resp_instruction3_started,key_resp_instruction3_keys,key_resp_instruction3_rt,key_resp_instruction3_duration,key_resp_instruction4_started,key_resp_instruction4_keys,key_resp_instruction4_rt,key_resp_instruction4_duration,practiceCondition,practice_reward_seqs,practice_trial_started,practice_trial_num,practice_resp_rt,practice_resp_duration,practice_resp_keys,prac_presentationInterval,"practice_reward_seq: 2,1,3",reward_img,cumulative_reward,trial_reward,practice_trials.thisRepN,practice_trials.thisTrialN,practice_trials.thisN,practice_trials.thisIndex,practice_trials.ran,"practice_reward_seq: 2,3,1",block_break_started,"practice_reward_seq: 1,3,2","practice_reward_seq: 3,1,2",practice_end_time,practice_end_keys,practice_end_rt,practice_end_duration,main_instruction_text_started,block_condition,block_order_indices,main_instruction_keys,main_instruction_rt,main_instruction_duration,block_number,block_assignment,current_condition,main_reward_seqs,main_trial_started,main_trial_num,main_trial_keys,main_trial_rt,main_trial_duration,main_presentationInterval,reward_presentation_time,main_reward_seq,reward_rand_val,main_reward_img,current_reward,main_trials.thisRepN,main_trials.thisTrialN,main_trials.thisN,main_trials.thisIndex,main_trials.ran,block_reward,block.thisRepN,block.thisTrialN,block.thisN,block.thisIndex,block.ran,block_reward.length,block_reward_all,reward_amount,date_end_task
0.0002,space,0.9556,,65202fb0f9547ec693bafe2c,B,2024-06-22_06h41.35.758,Slot Machine Game,2023.1.3,MacIntel,59.88023952,,,,,,,,,,,,,,,,,,,,,,,,,,,,,,,,,,,,,,,,,,,,,,,,,,,,,,,,,,,,,,,,,,,,,,,,,,,,,
,,,,65202fb0f9547ec693bafe2c,B,2024-06-22_06h41.35.758,Slot Machine Game,2023.1.3,MacIntel,59.88023952,0.9848,space,13.6053,,,,,,,,,,,,,,,,,,,,,,,,,,,,,,,,,,,,,,,,,,,,,,,,,,,,,,,,,,,,,,,,,,,,,,,,,,
,,,,65202fb0f9547ec693bafe2c,B,2024-06-22_06h41.35.758,Slot Machine Game,2023.1.3,MacIntel,59.88023952,,,,,14.6152,space,23.9386,,,,,,,,,,,,,,,,,,,,,,,,,,,,,,,,,,,,,,,,,,,,,,,,,,,,,,,,,,,,,,,,,,,,,,
,,,,65202fb0f9547ec693bafe2c,B,2024-06-22_06h41.35.758,Slot Machine Game,2023.1.3,MacIntel,59.88023952,,,,,,,,,38.582,space,8.4213,,,,,,,,,,,,,,,,,,,,,,,,,,,,,,,,,,,,,,,,,,,,,,,,,,,,,,,,,,,,,,,,,,
,,,,65202fb0f9547ec693bafe2c,B,2024-06-22_06h41.35.758,Slot Machine Game,2023.1.3,MacIntel,59.88023952,,,,,,,,,,,,,,,,,,,,,,,,,,,,,,,,,,,,,,,,,,,,,,,,,,,,,,,,,,,,,,,,,,,,,,,,,,,,,
,,,,65202fb0f9547ec693bafe2c,B,2024-06-22_06h41.35.758,Slot Machine Game,2023.1.3,MacIntel,59.88023952,,,,,,,,,,,,,189.651,space,2.7609,,,,,,,,,,,,,,,,,,,,,,,,,,,,,,,,,,,,,,,,,,,,,,,,,,,,,,,,,,,,,,
,,,,65202fb0f9547ec693bafe2c,B,2024-06-22_06h41.35.758,Slot Machine Game,2023.1.3,MacIntel,59.88023952,,,,,,,,,,,,,,,,,"[9,15]","[[2,1,3],[2,3,1]]",192.4519,0,1.172,,left,0.5,,stimuli/card_100_transparent.png,100,100,0,0,0,0,1,,,,,,,,,,,,,,,,,,,,,,,,,,,,,,,,,,,,,,,,,,,,
,,,,65202fb0f9547ec693bafe2c,B,2024-06-22_06h41.35.758,Slot Machine Game,2023.1.3,MacIntel,59.88023952,,,,,,,,,,,,,,,,,,,194.9509,1,0.3166,,left,1,,stimuli/card_10_transparent.png,110,10,1,0,1,0,1,,,,,,,,,,,,,,,,,,,,,,,,,,,,,,,,,,,,,,,,,,,,
,,,,65202fb0f9547ec693bafe2c,B,2024-06-22_06h41.35.758,Slot Machine Game,2023.1.3,MacIntel,59.88023952,,,,,,,,,,,,,,,,,,,197.1007,2,0.6864,,left,1.5,,stimuli/card_0_transparent.png,110,0,2,0,2,0,1,,,,,,,,,,,,,,,,,,,,,,,,,,,,,,,,,,,,,,,,,,,,
,,,,65202fb0f9547ec693bafe2c,B,2024-06-22_06h41.35.758,Slot Machine Game,2023.1.3,MacIntel,59.88023952,,,,,,,,,,,,,,,,,,,200.117,3,0.0503,,up,1.5,,stimuli/card_100_transparent.png,210,100,3,0,3,0,1,,,,,,,,,,,,,,,,,,,,,,,,,,,,,,,,,,,,,,,,,,,,
,,,,65202fb0f9547ec693bafe2c,B,2024-06-22_06h41.35.758,Slot Machine Game,2023.1.3,MacIntel,59.88023952,,,,,,,,,,,,,,,,,,,202.5005,4,3.6353,,up,1,,stimuli/card_0_transparent.png,210,0,4,0,4,0,1,,,,,,,,,,,,,,,,,,,,,,,,,,,,,,,,,,,,,,,,,,,,
,,,,65202fb0f9547ec693bafe2c,B,2024-06-22_06h41.35.758,Slot Machine Game,2023.1.3,MacIntel,59.88023952,,,,,,,,,,,,,,,,,,,207.9666,5,0.2041,,up,1.5,,stimuli/card_100_transparent.png,310,100,5,0,5,0,1,,,,,,,,,,,,,,,,,,,,,,,,,,,,,,,,,,,,,,,,,,,,
,,,,65202fb0f9547ec693bafe2c,B,2024-06-22_06h41.35.758,Slot Machine Game,2023.1.3,MacIntel,59.88023952,,,,,,,,,,,,,,,,,,,210.4996,6,0.0816,,up,0.5,,stimuli/card_100_transparent.png,410,100,6,0,6,0,1,,,,,,,,,,,,,,,,,,,,,,,,,,,,,,,,,,,,,,,,,,,,
,,,,65202fb0f9547ec693bafe2c,B,2024-06-22_06h41.35.758,Slot Machine Game,2023.1.3,MacIntel,59.88023952,,,,,,,,,,,,,,,,,,,211.9005,7,3.2435,,up,1,,stimuli/card_100_transparent.png,510,100,7,0,7,0,1,,,,,,,,,,,,,,,,,,,,,,,,,,,,,,,,,,,,,,,,,,,,
,,,,65202fb0f9547ec693bafe2c,B,2024-06-22_06h41.35.758,Slot Machine Game,2023.1.3,MacIntel,59.88023952,,,,,,,,,,,,,,,,,,,216.9672,8,0.5166,,up,0.5,,stimuli/card_100_transparent.png,610,100,8,0,8,0,1,,,,,,,,,,,,,,,,,,,,,,,,,,,,,,,,,,,,,,,,,,,,
,,,,65202fb0f9547ec693bafe2c,B,2024-06-22_06h41.35.758,Slot Machine Game,2023.1.3,MacIntel,59.88023952,,,,,,,,,,,,,,,,,,,218.8173,9,0.1856,,up,1.5,,stimuli/card_0_transparent.png,610,0,9,0,9,0,1,,,,,,,,,,,,,,,,,,,,,,,,,,,,,,,,,,,,,,,,,,,,
,,,,65202fb0f9547ec693bafe2c,B,2024-06-22_06h41.35.758,Slot Machine Game,2023.1.3,MacIntel,59.88023952,,,,,,,,,,,,,,,,,,,221.3341,10,0.2953,,up,1,,stimuli/card_0_transparent.png,610,0,10,0,10,0,1,,,,,,,,,,,,,,,,,,,,,,,,,,,,,,,,,,,,,,,,,,,,
,,,,65202fb0f9547ec693bafe2c,B,2024-06-22_06h41.35.758,Slot Machine Game,2023.1.3,MacIntel,59.88023952,,,,,,,,,,,,,,,,,,,223.4508,11,2.6337,,right,1.5,,stimuli/card_100_transparent.png,710,100,11,0,11,0,1,,,,,,,,,,,,,,,,,,,,,,,,,,,,,,,,,,,,,,,,,,,,
,,,,65202fb0f9547ec693bafe2c,B,2024-06-22_06h41.35.758,Slot Machine Game,2023.1.3,MacIntel,59.88023952,,,,,,,,,,,,,,,,,,,228.4174,12,0.7016,,right,1,,stimuli/card_100_transparent.png,810,100,12,0,12,0,1,,,,,,,,,,,,,,,,,,,,,,,,,,,,,,,,,,,,,,,,,,,,
,,,,65202fb0f9547ec693bafe2c,B,2024-06-22_06h41.35.758,Slot Machine Game,2023.1.3,MacIntel,59.88023952,,,,,,,,,,,,,,,,,,,230.9508,13,0.2159,,right,0.5,,stimuli/card_100_transparent.png,910,100,13,0,13,0,1,,,,,,,,,,,,,,,,,,,,,,,,,,,,,,,,,,,,,,,,,,,,
,,,,65202fb0f9547ec693bafe2c,B,2024-06-22_06h41.35.758,Slot Machine Game,2023.1.3,MacIntel,59.88023952,,,,,,,,,,,,,,,,,,,232.4998,14,0.3665,,right,1,,stimuli/card_100_transparent.png,1010,100,14,0,14,0,1,,,,,,,,,,,,,,,,,,,,,,,,,,,,,,,,,,,,,,,,,,,,
,,,,65202fb0f9547ec693bafe2c,B,2024-06-22_06h41.35.758,Slot Machine Game,2023.1.3,MacIntel,59.88023952,,,,,,,,,,,,,,,,,"[6,15]","[[1,3,2],[3,1,2]]",239.7181,0,0.5865,,left,0.5,,stimuli/card_100_transparent.png,100,100,0,0,0,0,1,,234.6995,,,,,,,,,,,,,,,,,,,,,,,,,,,,,,,,,,,,,,,,,,
,,,,65202fb0f9547ec693bafe2c,B,2024-06-22_06h41.35.758,Slot Machine Game,2023.1.3,MacIntel,59.88023952,,,,,,,,,,,,,,,,,,,241.6332,1,0.2446,,left,1,,stimuli/card_100_transparent.png,200,100,1,0,1,0,1,,,,,,,,,,,,,,,,,,,,,,,,,,,,,,,,,,,,,,,,,,,,
,,,,65202fb0f9547ec693bafe2c,B,2024-06-22_06h41.35.758,Slot Machine Game,2023.1.3,MacIntel,59.88023952,,,,,,,,,,,,,,,,,,,243.6833,2,0.0936,,left,1.5,,stimuli/card_10_transparent.png,210,10,2,0,2,0,1,,,,,,,,,,,,,,,,,,,,,,,,,,,,,,,,,,,,,,,,,,,,
,,,,65202fb0f9547ec693bafe2c,B,2024-06-22_06h41.35.758,Slot Machine Game,2023.1.3,MacIntel,59.88023952,,,,,,,,,,,,,,,,,,,246.0843,3,1.6326,,left,0.5,,stimuli/card_10_transparent.png,220,10,3,0,3,0,1,,,,,,,,,,,,,,,,,,,,,,,,,,,,,,,,,,,,,,,,,,,,
,,,,65202fb0f9547ec693bafe2c,B,2024-06-22_06h41.35.758,Slot Machine Game,2023.1.3,MacIntel,59.88023952,,,,,,,,,,,,,,,,,,,249.0499,4,0.0767,,up,1,,stimuli/card_0_transparent.png,220,0,4,0,4,0,1,,,,,,,,,,,,,,,,,,,,,,,,,,,,,,,,,,,,,,,,,,,,
,,,,65202fb0f9547ec693bafe2c,B,2024-06-22_06h41.35.758,Slot Machine Game,2023.1.3,MacIntel,59.88023952,,,,,,,,,,,,,,,,,,,250.9343,5,0.0203,,up,1,,stimuli/card_10_transparent.png,230,10,5,0,5,0,1,,,,,,,,,,,,,,,,,,,,,,,,,,,,,,,,,,,,,,,,,,,,
,,,,65202fb0f9547ec693bafe2c,B,2024-06-22_06h41.35.758,Slot Machine Game,2023.1.3,MacIntel,59.88023952,,,,,,,,,,,,,,,,,,,252.7843,6,0.0436,,right,0.5,,stimuli/card_0_transparent.png,230,0,6,0,6,0,1,,,,,,,,,,,,,,,,,,,,,,,,,,,,,,,,,,,,,,,,,,,,
,,,,65202fb0f9547ec693bafe2c,B,2024-06-22_06h41.35.758,Slot Machine Game,2023.1.3,MacIntel,59.88023952,,,,,,,,,,,,,,,,,,,254.1501,7,0.4336,,right,1,,stimuli/card_10_transparent.png,240,10,7,0,7,0,1,,,,,,,,,,,,,,,,,,,,,,,,,,,,,,,,,,,,,,,,,,,,
,,,,65202fb0f9547ec693bafe2c,B,2024-06-22_06h41.35.758,Slot Machine Game,2023.1.3,MacIntel,59.88023952,,,,,,,,,,,,,,,,,,,256.401,8,2.2996,,up,1.5,,stimuli/card_100_transparent.png,340,100,8,0,8,0,1,,,,,,,,,,,,,,,,,,,,,,,,,,,,,,,,,,,,,,,,,,,,
,,,,65202fb0f9547ec693bafe2c,B,2024-06-22_06h41.35.758,Slot Machine Game,2023.1.3,MacIntel,59.88023952,,,,,,,,,,,,,,,,,,,261.0346,9,0.1153,,up,1,,stimuli/card_0_transparent.png,340,0,9,0,9,0,1,,,,,,,,,,,,,,,,,,,,,,,,,,,,,,,,,,,,,,,,,,,,
,,,,65202fb0f9547ec693bafe2c,B,2024-06-22_06h41.35.758,Slot Machine Game,2023.1.3,MacIntel,59.88023952,,,,,,,,,,,,,,,,,,,262.9845,10,2.4189,,up,1.5,,stimuli/card_100_transparent.png,440,100,10,0,10,0,1,,,,,,,,,,,,,,,,,,,,,,,,,,,,,,,,,,,,,,,,,,,,
,,,,65202fb0f9547ec693bafe2c,B,2024-06-22_06h41.35.758,Slot Machine Game,2023.1.3,MacIntel,59.88023952,,,,,,,,,,,,,,,,,,,267.7345,11,0.6156,,up,1,,stimuli/card_100_transparent.png,540,100,11,0,11,0,1,,,,,,,,,,,,,,,,,,,,,,,,,,,,,,,,,,,,,,,,,,,,
,,,,65202fb0f9547ec693bafe2c,B,2024-06-22_06h41.35.758,Slot Machine Game,2023.1.3,MacIntel,59.88023952,,,,,,,,,,,,,,,,,,,270.1845,12,0.4336,,up,0.5,,stimuli/card_0_transparent.png,540,0,12,0,12,0,1,,,,,,,,,,,,,,,,,,,,,,,,,,,,,,,,,,,,,,,,,,,,
,,,,65202fb0f9547ec693bafe2c,B,2024-06-22_06h41.35.758,Slot Machine Game,2023.1.3,MacIntel,59.88023952,,,,,,,,,,,,,,,,,,,271.9513,13,0.5655,,up,0.5,,stimuli/card_100_transparent.png,640,100,13,0,13,0,1,,,,,,,,,,,,,,,,,,,,,,,,,,,,,,,,,,,,,,,,,,,,
,,,,65202fb0f9547ec693bafe2c,B,2024-06-22_06h41.35.758,Slot Machine Game,2023.1.3,MacIntel,59.88023952,,,,,,,,,,,,,,,,,,,273.8508,14,0.2667,,up,0.5,,stimuli/card_100_transparent.png,740,100,14,0,14,0,1,,,,,,,,,,,,,,,,,,,,,,,,,,,,,,,,,,,,,,,,,,,,
,,,,65202fb0f9547ec693bafe2c,B,2024-06-22_06h41.35.758,Slot Machine Game,2023.1.3,MacIntel,59.88023952,,,,,,,,,,,,,,,,,,,,,,,,,,,,,,,,,,,275.4346,,,280.4357,space,2.7212,,,,,,,,,,,,,,,,,,,,,,,,,,,,,,,,,,,,,
,,,,65202fb0f9547ec693bafe2c,B,2024-06-22_06h41.35.758,Slot Machine Game,2023.1.3,MacIntel,59.88023952,,,,,,,,,,,,,,,,,,,,,,,,,,,,,,,,,,,,,,,,,,283.1857,2,"[2,4,8,0,1,3,9,6,8,5]",space,1.8387,,,,,,,,,,,,,,,,,,,,,,,,,,,,,,,
,,,,65202fb0f9547ec693bafe2c,B,2024-06-22_06h41.35.758,Slot Machine Game,2023.1.3,MacIntel,59.88023952,,,,,,,,,,,,,,,,,,,,,,,,,,,10,,,,,,,,,,,,,,,,,,,,,1,3,"[15,15]","[[3,1,2],[3,1,2]]",285.069,0,left,0.1988,,0.5,0.3,"[3,1,2]",0.152752883,stimuli/card_10_transparent.png,10,0,0,0,0,1,,,,,,,,,,
,,,,65202fb0f9547ec693bafe2c,B,2024-06-22_06h41.35.758,Slot Machine Game,2023.1.3,MacIntel,59.88023952,,,,,,,,,,,,,,,,,,,,,,,,,,,110,,,,,,,,,,,,,,,,,,,,,1,3,,,286.602,1,up,1.5661,,1,0.3,"[3,1,2]",0.652221552,stimuli/card_100_transparent.png,100,1,0,1,0,1,,,,,,,,,,
,,,,65202fb0f9547ec693bafe2c,B,2024-06-22_06h41.35.758,Slot Machine Game,2023.1.3,MacIntel,59.88023952,,,,,,,,,,,,,,,,,,,,,,,,,,,210,,,,,,,,,,,,,,,,,,,,,1,3,,,290.0016,2,up,0.4015,,1,0.3,"[3,1,2]",0.300285412,stimuli/card_100_transparent.png,100,2,0,2,0,1,,,,,,,,,,
,,,,65202fb0f9547ec693bafe2c,B,2024-06-22_06h41.35.758,Slot Machine Game,2023.1.3,MacIntel,59.88023952,,,,,,,,,,,,,,,,,,,,,,,,,,,310,,,,,,,,,,,,,,,,,,,,,1,3,,,292.2351,3,up,0.4773,,1.5,0.3,"[3,1,2]",0.779412764,stimuli/card_100_transparent.png,100,3,0,3,0,1,,,,,,,,,,
,,,,65202fb0f9547ec693bafe2c,B,2024-06-22_06h41.35.758,Slot Machine Game,2023.1.3,MacIntel,59.88023952,,,,,,,,,,,,,,,,,,,,,,,,,,,410,,,,,,,,,,,,,,,,,,,,,1,3,,,295.035,4,up,0.3669,,0.5,0.3,"[3,1,2]",0.602550194,stimuli/card_100_transparent.png,100,4,0,4,0,1,,,,,,,,,,
,,,,65202fb0f9547ec693bafe2c,B,2024-06-22_06h41.35.758,Slot Machine Game,2023.1.3,MacIntel,59.88023952,,,,,,,,,,,,,,,,,,,,,,,,,,,510,,,,,,,,,,,,,,,,,,,,,1,3,,,296.7341,5,up,0.1509,,0.5,0.3,"[3,1,2]",0.947209515,stimuli/card_100_transparent.png,100,5,0,5,0,1,,,,,,,,,,
,,,,65202fb0f9547ec693bafe2c,B,2024-06-22_06h41.35.758,Slot Machine Game,2023.1.3,MacIntel,59.88023952,,,,,,,,,,,,,,,,,,,,,,,,,,,610,,,,,,,,,,,,,,,,,,,,,1,3,,,298.2017,6,up,0.1152,,1,0.3,"[3,1,2]",0.52850805,stimuli/card_100_transparent.png,100,6,0,6,0,1,,,,,,,,,,
,,,,65202fb0f9547ec693bafe2c,B,2024-06-22_06h41.35.758,Slot Machine Game,2023.1.3,MacIntel,59.88023952,,,,,,,,,,,,,,,,,,,,,,,,,,,710,,,,,,,,,,,,,,,,,,,,,1,3,,,300.1518,7,up,2.3837,,1.5,0.3,"[3,1,2]",0.919371785,stimuli/card_100_transparent.png,100,7,0,7,0,1,,,,,,,,,,
,,,,65202fb0f9547ec693bafe2c,B,2024-06-22_06h41.35.758,Slot Machine Game,2023.1.3,MacIntel,59.88023952,,,,,,,,,,,,,,,,,,,,,,,,,,,810,,,,,,,,,,,,,,,,,,,,,1,3,,,304.868,8,up,0.1597,,0.5,0.3,"[3,1,2]",0.430190782,stimuli/card_100_transparent.png,100,8,0,8,0,1,,,,,,,,,,
,,,,65202fb0f9547ec693bafe2c,B,2024-06-22_06h41.35.758,Slot Machine Game,2023.1.3,MacIntel,59.88023952,,,,,,,,,,,,,,,,,,,,,,,,,,,810,,,,,,,,,,,,,,,,,,,,,1,3,,,306.3352,9,up,1.8835,,0.5,0.3,"[3,1,2]",0.009047171,stimuli/card_0_transparent.png,0,9,0,9,0,1,,,,,,,,,,
,,,,65202fb0f9547ec693bafe2c,B,2024-06-22_06h41.35.758,Slot Machine Game,2023.1.3,MacIntel,59.88023952,,,,,,,,,,,,,,,,,,,,,,,,,,,910,,,,,,,,,,,,,,,,,,,,,1,3,,,309.552,10,up,1.316,,1,0.3,"[3,1,2]",0.795723119,stimuli/card_100_transparent.png,100,10,0,10,0,1,,,,,,,,,,
,,,,65202fb0f9547ec693bafe2c,B,2024-06-22_06h41.35.758,Slot Machine Game,2023.1.3,MacIntel,59.88023952,,,,,,,,,,,,,,,,,,,,,,,,,,,1010,,,,,,,,,,,,,,,,,,,,,1,3,,,312.7019,11,up,0.0991,,1.5,0.3,"[3,1,2]",0.286569282,stimuli/card_100_transparent.png,100,11,0,11,0,1,,,,,,,,,,
,,,,65202fb0f9547ec693bafe2c,B,2024-06-22_06h41.35.758,Slot Machine Game,2023.1.3,MacIntel,59.88023952,,,,,,,,,,,,,,,,,,,,,,,,,,,1110,,,,,,,,,,,,,,,,,,,,,1,3,,,315.1355,12,up,0.5327,,0.5,0.3,"[3,1,2]",0.496336236,stimuli/card_100_transparent.png,100,12,0,12,0,1,,,,,,,,,,
,,,,65202fb0f9547ec693bafe2c,B,2024-06-22_06h41.35.758,Slot Machine Game,2023.1.3,MacIntel,59.88023952,,,,,,,,,,,,,,,,,,,,,,,,,,,1210,,,,,,,,,,,,,,,,,,,,,1,3,,,317.002,13,up,0.0335,,1.5,0.3,"[3,1,2]",0.571646582,stimuli/card_100_transparent.png,100,13,0,13,0,1,,,,,,,,,,
,,,,65202fb0f9547ec693bafe2c,B,2024-06-22_06h41.35.758,Slot Machine Game,2023.1.3,MacIntel,59.88023952,,,,,,,,,,,,,,,,,,,,,,,,,,,1310,,,,,,,,,,,,,,,,,,,,,1,3,,,319.3686,14,up,0.3495,,1,0.3,"[3,1,2]",0.350988237,stimuli/card_100_transparent.png,100,14,0,14,0,1,,,,,,,,,,
,,,,65202fb0f9547ec693bafe2c,B,2024-06-22_06h41.35.758,Slot Machine Game,2023.1.3,MacIntel,59.88023952,,,,,,,,,,,,,,,,,,,,,,,,,,,,,,,,,,,321.5523,,,,,,,,,,,,,,,,,,,,,,,,,,,,,,,,,[1310],0,0,0,0,1,,,,
,,,,65202fb0f9547ec693bafe2c,B,2024-06-22_06h41.35.758,Slot Machine Game,2023.1.3,MacIntel,59.88023952,,,,,,,,,,,,,,,,,,,,,,,,,,,100,,,,,,,,,,,,,,,,,,,,,2,5,"[5,15]","[[1,2,3],[3,1,2]]",326.5638,0,left,0.4551,,0.5,0.3,"[1,2,3]",0.885176865,stimuli/card_100_transparent.png,100,0,0,0,0,1,,,,,,,,,,
,,,,65202fb0f9547ec693bafe2c,B,2024-06-22_06h41.35.758,Slot Machine Game,2023.1.3,MacIntel,59.88023952,,,,,,,,,,,,,,,,,,,,,,,,,,,200,,,,,,,,,,,,,,,,,,,,,2,5,,,328.3355,1,left,2.6285,,1.5,0.3,"[1,2,3]",0.41059532,stimuli/card_100_transparent.png,100,1,0,1,0,1,,,,,,,,,,
,,,,65202fb0f9547ec693bafe2c,B,2024-06-22_06h41.35.758,Slot Machine Game,2023.1.3,MacIntel,59.88023952,,,,,,,,,,,,,,,,,,,,,,,,,,,300,,,,,,,,,,,,,,,,,,,,,2,5,,,333.2856,2,left,0.8173,,1.5,0.3,"[1,2,3]",0.650140068,stimuli/card_100_transparent.png,100,2,0,2,0,1,,,,,,,,,,
,,,,65202fb0f9547ec693bafe2c,B,2024-06-22_06h41.35.758,Slot Machine Game,2023.1.3,MacIntel,59.88023952,,,,,,,,,,,,,,,,,,,,,,,,,,,300,,,,,,,,,,,,,,,,,,,,,2,5,,,336.4356,3,left,0.5831,,0.5,0.3,"[1,2,3]",0.048550081,stimuli/card_0_transparent.png,0,3,0,3,0,1,,,,,,,,,,
,,,,65202fb0f9547ec693bafe2c,B,2024-06-22_06h41.35.758,Slot Machine Game,2023.1.3,MacIntel,59.88023952,,,,,,,,,,,,,,,,,,,,,,,,,,,300,,,,,,,,,,,,,,,,,,,,,2,5,,,338.3513,4,left,2.3428,,0.5,0.3,"[1,2,3]",0.038941522,stimuli/card_0_transparent.png,0,4,0,4,0,1,,,,,,,,,,
,,,,65202fb0f9547ec693bafe2c,B,2024-06-22_06h41.35.758,Slot Machine Game,2023.1.3,MacIntel,59.88023952,,,,,,,,,,,,,,,,,,,,,,,,,,,400,,,,,,,,,,,,,,,,,,,,,2,5,,,342.0022,5,left,0.7996,,1.5,0.3,"[3,1,2]",0.039156399,stimuli/card_100_transparent.png,100,5,0,5,0,1,,,,,,,,,,
,,,,65202fb0f9547ec693bafe2c,B,2024-06-22_06h41.35.758,Slot Machine Game,2023.1.3,MacIntel,59.88023952,,,,,,,,,,,,,,,,,,,,,,,,,,,400,,,,,,,,,,,,,,,,,,,,,2,5,,,345.1358,6,left,1.2595,,1.5,0.3,"[3,1,2]",0.975311671,stimuli/card_0_transparent.png,0,6,0,6,0,1,,,,,,,,,,
,,,,65202fb0f9547ec693bafe2c,B,2024-06-22_06h41.35.758,Slot Machine Game,2023.1.3,MacIntel,59.88023952,,,,,,,,,,,,,,,,,,,,,,,,,,,500,,,,,,,,,,,,,,,,,,,,,2,5,,,348.7191,7,left,0.0172,,1.5,0.3,"[3,1,2]",0.060480867,stimuli/card_100_transparent.png,100,7,0,7,0,1,,,,,,,,,,
,,,,65202fb0f9547ec693bafe2c,B,2024-06-22_06h41.35.758,Slot Machine Game,2023.1.3,MacIntel,59.88023952,,,,,,,,,,,,,,,,,,,,,,,,,,,500,,,,,,,,,,,,,,,,,,,,,2,5,,,351.0691,8,left,0.8188,,0.5,0.3,"[3,1,2]",0.958369339,stimuli/card_0_transparent.png,0,8,0,8,0,1,,,,,,,,,,
,,,,65202fb0f9547ec693bafe2c,B,2024-06-22_06h41.35.758,Slot Machine Game,2023.1.3,MacIntel,59.88023952,,,,,,,,,,,,,,,,,,,,,,,,,,,600,,,,,,,,,,,,,,,,,,,,,2,5,,,353.2192,9,left,0.7501,,1.5,0.3,"[3,1,2]",0.033119704,stimuli/card_100_transparent.png,100,9,0,9,0,1,,,,,,,,,,
,,,,65202fb0f9547ec693bafe2c,B,2024-06-22_06h41.35.758,Slot Machine Game,2023.1.3,MacIntel,59.88023952,,,,,,,,,,,,,,,,,,,,,,,,,,,700,,,,,,,,,,,,,,,,,,,,,2,5,,,356.3014,10,left,0.5992,,1,0.3,"[3,1,2]",0.097946689,stimuli/card_100_transparent.png,100,10,0,10,0,1,,,,,,,,,,
,,,,65202fb0f9547ec693bafe2c,B,2024-06-22_06h41.35.758,Slot Machine Game,2023.1.3,MacIntel,59.88023952,,,,,,,,,,,,,,,,,,,,,,,,,,,700,,,,,,,,,,,,,,,,,,,,,2,5,,,358.7193,11,left,0.2161,,1,0.3,"[3,1,2]",0.257643914,stimuli/card_0_transparent.png,0,11,0,11,0,1,,,,,,,,,,
,,,,65202fb0f9547ec693bafe2c,B,2024-06-22_06h41.35.758,Slot Machine Game,2023.1.3,MacIntel,59.88023952,,,,,,,,,,,,,,,,,,,,,,,,,,,700,,,,,,,,,,,,,,,,,,,,,2,5,,,360.7693,12,left,2.6174,,0.5,0.3,"[3,1,2]",0.984559721,stimuli/card_0_transparent.png,0,12,0,12,0,1,,,,,,,,,,
,,,,65202fb0f9547ec693bafe2c,B,2024-06-22_06h41.35.758,Slot Machine Game,2023.1.3,MacIntel,59.88023952,,,,,,,,,,,,,,,,,,,,,,,,,,,700,,,,,,,,,,,,,,,,,,,,,2,5,,,364.7192,13,left,0.7837,,1,0.3,"[3,1,2]",0.34669723,stimuli/card_0_transparent.png,0,13,0,13,0,1,,,,,,,,,,
,,,,65202fb0f9547ec693bafe2c,B,2024-06-22_06h41.35.758,Slot Machine Game,2023.1.3,MacIntel,59.88023952,,,,,,,,,,,,,,,,,,,,,,,,,,,800,,,,,,,,,,,,,,,,,,,,,2,5,,,367.3359,14,up,2.4828,,1.5,0.3,"[3,1,2]",0.925113803,stimuli/card_100_transparent.png,100,14,0,14,0,1,,,,,,,,,,
,,,,65202fb0f9547ec693bafe2c,B,2024-06-22_06h41.35.758,Slot Machine Game,2023.1.3,MacIntel,59.88023952,,,,,,,,,,,,,,,,,,,,,,,,,,,,,,,,,,,372.1529,,,,,,,,,,,,,,,,,,,,,,,,,,,,,,,,,"[1310,800]",1,0,1,0,1,,,,
,,,,65202fb0f9547ec693bafe2c,B,2024-06-22_06h41.35.758,Slot Machine Game,2023.1.3,MacIntel,59.88023952,,,,,,,,,,,,,,,,,,,,,,,,,,,10,,,,,,,,,,,,,,,,,,,,,3,9,"[8,15]","[[3,2,1],[3,1,2]]",377.1693,0,left,0.2507,,1,0.3,"[3,2,1]",0.139164764,stimuli/card_10_transparent.png,10,0,0,0,0,1,,,,,,,,,,
,,,,65202fb0f9547ec693bafe2c,B,2024-06-22_06h41.35.758,Slot Machine Game,2023.1.3,MacIntel,59.88023952,,,,,,,,,,,,,,,,,,,,,,,,,,,20,,,,,,,,,,,,,,,,,,,,,3,9,,,379.2518,1,up,0.7167,,1.5,0.3,"[3,2,1]",0.867948451,stimuli/card_10_transparent.png,10,1,0,1,0,1,,,,,,,,,,
,,,,65202fb0f9547ec693bafe2c,B,2024-06-22_06h41.35.758,Slot Machine Game,2023.1.3,MacIntel,59.88023952,,,,,,,,,,,,,,,,,,,,,,,,,,,120,,,,,,,,,,,,,,,,,,,,,3,9,,,382.2861,2,right,0.8715,,0.5,0.3,"[3,2,1]",0.38397452,stimuli/card_100_transparent.png,100,2,0,2,0,1,,,,,,,,,,
,,,,65202fb0f9547ec693bafe2c,B,2024-06-22_06h41.35.758,Slot Machine Game,2023.1.3,MacIntel,59.88023952,,,,,,,,,,,,,,,,,,,,,,,,,,,220,,,,,,,,,,,,,,,,,,,,,3,9,,,384.4862,3,right,0.767,,1,0.3,"[3,2,1]",0.314050116,stimuli/card_100_transparent.png,100,3,0,3,0,1,,,,,,,,,,
,,,,65202fb0f9547ec693bafe2c,B,2024-06-22_06h41.35.758,Slot Machine Game,2023.1.3,MacIntel,59.88023952,,,,,,,,,,,,,,,,,,,,,,,,,,,230,,,,,,,,,,,,,,,,,,,,,3,9,,,387.0851,4,right,0.6332,,1,0.3,"[3,2,1]",0.169063328,stimuli/card_10_transparent.png,10,4,0,4,0,1,,,,,,,,,,
,,,,65202fb0f9547ec693bafe2c,B,2024-06-22_06h41.35.758,Slot Machine Game,2023.1.3,MacIntel,59.88023952,,,,,,,,,,,,,,,,,,,,,,,,,,,240,,,,,,,,,,,,,,,,,,,,,3,9,,,389.5362,5,right,0.184,,1,0.3,"[3,2,1]",0.172447638,stimuli/card_10_transparent.png,10,5,0,5,0,1,,,,,,,,,,
,,,,65202fb0f9547ec693bafe2c,B,2024-06-22_06h41.35.758,Slot Machine Game,2023.1.3,MacIntel,59.88023952,,,,,,,,,,,,,,,,,,,,,,,,,,,240,,,,,,,,,,,,,,,,,,,,,3,9,,,391.553,6,right,0.0512,,1.5,0.3,"[3,2,1]",0.039579342,stimuli/card_0_transparent.png,0,6,0,6,0,1,,,,,,,,,,
,,,,65202fb0f9547ec693bafe2c,B,2024-06-22_06h41.35.758,Slot Machine Game,2023.1.3,MacIntel,59.88023952,,,,,,,,,,,,,,,,,,,,,,,,,,,340,,,,,,,,,,,,,,,,,,,,,3,9,,,393.9363,7,up,4.1838,,1.5,0.3,"[3,2,1]",0.12613654,stimuli/card_100_transparent.png,100,7,0,7,0,1,,,,,,,,,,
,,,,65202fb0f9547ec693bafe2c,B,2024-06-22_06h41.35.758,Slot Machine Game,2023.1.3,MacIntel,59.88023952,,,,,,,,,,,,,,,,,,,,,,,,,,,440,,,,,,,,,,,,,,,,,,,,,3,9,,,400.452,8,up,1.2668,,1,0.3,"[3,1,2]",0.233919684,stimuli/card_100_transparent.png,100,8,0,8,0,1,,,,,,,,,,
,,,,65202fb0f9547ec693bafe2c,B,2024-06-22_06h41.35.758,Slot Machine Game,2023.1.3,MacIntel,59.88023952,,,,,,,,,,,,,,,,,,,,,,,,,,,540,,,,,,,,,,,,,,,,,,,,,3,9,,,403.5363,9,up,2.7671,,0.5,0.3,"[3,1,2]",0.486329109,stimuli/card_100_transparent.png,100,9,0,9,0,1,,,,,,,,,,
,,,,65202fb0f9547ec693bafe2c,B,2024-06-22_06h41.35.758,Slot Machine Game,2023.1.3,MacIntel,59.88023952,,,,,,,,,,,,,,,,,,,,,,,,,,,640,,,,,,,,,,,,,,,,,,,,,3,9,,,407.6364,10,up,1.4493,,1,0.3,"[3,1,2]",0.459989853,stimuli/card_100_transparent.png,100,10,0,10,0,1,,,,,,,,,,
,,,,65202fb0f9547ec693bafe2c,B,2024-06-22_06h41.35.758,Slot Machine Game,2023.1.3,MacIntel,59.88023952,,,,,,,,,,,,,,,,,,,,,,,,,,,650,,,,,,,,,,,,,,,,,,,,,3,9,,,410.9199,11,up,0.7431,,0.5,0.3,"[3,1,2]",0.183000606,stimuli/card_10_transparent.png,10,11,0,11,0,1,,,,,,,,,,
,,,,65202fb0f9547ec693bafe2c,B,2024-06-22_06h41.35.758,Slot Machine Game,2023.1.3,MacIntel,59.88023952,,,,,,,,,,,,,,,,,,,,,,,,,,,750,,,,,,,,,,,,,,,,,,,,,3,9,,,412.9866,12,up,0.5979,,1.5,0.3,"[3,1,2]",0.527993563,stimuli/card_100_transparent.png,100,12,0,12,0,1,,,,,,,,,,
,,,,65202fb0f9547ec693bafe2c,B,2024-06-22_06h41.35.758,Slot Machine Game,2023.1.3,MacIntel,59.88023952,,,,,,,,,,,,,,,,,,,,,,,,,,,850,,,,,,,,,,,,,,,,,,,,,3,9,,,415.92,13,up,0.1504,,1.5,0.3,"[3,1,2]",0.44486644,stimuli/card_100_transparent.png,100,13,0,13,0,1,,,,,,,,,,
,,,,65202fb0f9547ec693bafe2c,B,2024-06-22_06h41.35.758,Slot Machine Game,2023.1.3,MacIntel,59.88023952,,,,,,,,,,,,,,,,,,,,,,,,,,,950,,,,,,,,,,,,,,,,,,,,,3,9,,,418.4033,14,up,0.1683,,1,0.3,"[3,1,2]",0.497360062,stimuli/card_100_transparent.png,100,14,0,14,0,1,,,,,,,,,,
,,,,65202fb0f9547ec693bafe2c,B,2024-06-22_06h41.35.758,Slot Machine Game,2023.1.3,MacIntel,59.88023952,,,,,,,,,,,,,,,,,,,,,,,,,,,,,,,,,,,420.4035,,,,,,,,,,,,,,,,,,,,,,,,,,,,,,,,,"[1310,800,950]",2,0,2,0,1,,,,
,,,,65202fb0f9547ec693bafe2c,B,2024-06-22_06h41.35.758,Slot Machine Game,2023.1.3,MacIntel,59.88023952,,,,,,,,,,,,,,,,,,,,,,,,,,,10,,,,,,,,,,,,,,,,,,,,,4,1,"[12,15]","[[2,1,3],[2,3,1]]",425.4185,0,left,0.9519,,0.5,0.3,"[2,1,3]",0.925839609,stimuli/card_10_transparent.png,10,0,0,0,0,1,,,,,,,,,,
,,,,65202fb0f9547ec693bafe2c,B,2024-06-22_06h41.35.758,Slot Machine Game,2023.1.3,MacIntel,59.88023952,,,,,,,,,,,,,,,,,,,,,,,,,,,110,,,,,,,,,,,,,,,,,,,,,4,1,,,427.6869,1,up,1.0802,,1.5,0.3,"[2,1,3]",0.267499837,stimuli/card_100_transparent.png,100,1,0,1,0,1,,,,,,,,,,
,,,,65202fb0f9547ec693bafe2c,B,2024-06-22_06h41.35.758,Slot Machine Game,2023.1.3,MacIntel,59.88023952,,,,,,,,,,,,,,,,,,,,,,,,,,,110,,,,,,,,,,,,,,,,,,,,,4,1,,,431.1025,2,up,0.6524,,1.5,0.3,"[2,1,3]",0.093110154,stimuli/card_0_transparent.png,0,2,0,2,0,1,,,,,,,,,,
,,,,65202fb0f9547ec693bafe2c,B,2024-06-22_06h41.35.758,Slot Machine Game,2023.1.3,MacIntel,59.88023952,,,,,,,,,,,,,,,,,,,,,,,,,,,210,,,,,,,,,,,,,,,,,,,,,4,1,,,434.0702,3,up,0.2319,,1,0.3,"[2,1,3]",0.682658301,stimuli/card_100_transparent.png,100,3,0,3,0,1,,,,,,,,,,
,,,,65202fb0f9547ec693bafe2c,B,2024-06-22_06h41.35.758,Slot Machine Game,2023.1.3,MacIntel,59.88023952,,,,,,,,,,,,,,,,,,,,,,,,,,,310,,,,,,,,,,,,,,,,,,,,,4,1,,,436.1358,4,up,0.4988,,1.5,0.3,"[2,1,3]",0.905735911,stimuli/card_100_transparent.png,100,4,0,4,0,1,,,,,,,,,,
,,,,65202fb0f9547ec693bafe2c,B,2024-06-22_06h41.35.758,Slot Machine Game,2023.1.3,MacIntel,59.88023952,,,,,,,,,,,,,,,,,,,,,,,,,,,410,,,,,,,,,,,,,,,,,,,,,4,1,,,438.9536,5,up,0.3334,,1,0.3,"[2,1,3]",0.909462638,stimuli/card_100_transparent.png,100,5,0,5,0,1,,,,,,,,,,
,,,,65202fb0f9547ec693bafe2c,B,2024-06-22_06h41.35.758,Slot Machine Game,2023.1.3,MacIntel,59.88023952,,,,,,,,,,,,,,,,,,,,,,,,,,,510,,,,,,,,,,,,,,,,,,,,,4,1,,,441.1193,6,up,0.1866,,1,0.3,"[2,1,3]",0.854938468,stimuli/card_100_transparent.png,100,6,0,6,0,1,,,,,,,,,,
,,,,65202fb0f9547ec693bafe2c,B,2024-06-22_06h41.35.758,Slot Machine Game,2023.1.3,MacIntel,59.88023952,,,,,,,,,,,,,,,,,,,,,,,,,,,610,,,,,,,,,,,,,,,,,,,,,4,1,,,443.1371,7,up,2.2348,,1,0.3,"[2,1,3]",0.704547533,stimuli/card_100_transparent.png,100,7,0,7,0,1,,,,,,,,,,
,,,,65202fb0f9547ec693bafe2c,B,2024-06-22_06h41.35.758,Slot Machine Game,2023.1.3,MacIntel,59.88023952,,,,,,,,,,,,,,,,,,,,,,,,,,,710,,,,,,,,,,,,,,,,,,,,,4,1,,,447.2037,8,up,0.1661,,1,0.3,"[2,1,3]",0.477250379,stimuli/card_100_transparent.png,100,8,0,8,0,1,,,,,,,,,,
,,,,65202fb0f9547ec693bafe2c,B,2024-06-22_06h41.35.758,Slot Machine Game,2023.1.3,MacIntel,59.88023952,,,,,,,,,,,,,,,,,,,,,,,,,,,810,,,,,,,,,,,,,,,,,,,,,4,1,,,449.2038,9,up,0.0004,,1,0.3,"[2,1,3]",0.457288668,stimuli/card_100_transparent.png,100,9,0,9,0,1,,,,,,,,,,
,,,,65202fb0f9547ec693bafe2c,B,2024-06-22_06h41.35.758,Slot Machine Game,2023.1.3,MacIntel,59.88023952,,,,,,,,,,,,,,,,,,,,,,,,,,,910,,,,,,,,,,,,,,,,,,,,,4,1,,,451.0371,10,up,0.0003,,1.5,0.3,"[2,1,3]",0.613763697,stimuli/card_100_transparent.png,100,10,0,10,0,1,,,,,,,,,,
,,,,65202fb0f9547ec693bafe2c,B,2024-06-22_06h41.35.758,Slot Machine Game,2023.1.3,MacIntel,59.88023952,,,,,,,,,,,,,,,,,,,,,,,,,,,1010,,,,,,,,,,,,,,,,,,,,,4,1,,,453.3706,11,up,1.9006,,1,0.3,"[2,1,3]",0.722100908,stimuli/card_100_transparent.png,100,11,0,11,0,1,,,,,,,,,,
,,,,65202fb0f9547ec693bafe2c,B,2024-06-22_06h41.35.758,Slot Machine Game,2023.1.3,MacIntel,59.88023952,,,,,,,,,,,,,,,,,,,,,,,,,,,1010,,,,,,,,,,,,,,,,,,,,,4,1,,,457.1039,12,up,0.0327,,1.5,0.3,"[2,3,1]",0.395576975,stimuli/card_0_transparent.png,0,12,0,12,0,1,,,,,,,,,,
,,,,65202fb0f9547ec693bafe2c,B,2024-06-22_06h41.35.758,Slot Machine Game,2023.1.3,MacIntel,59.88023952,,,,,,,,,,,,,,,,,,,,,,,,,,,1110,,,,,,,,,,,,,,,,,,,,,4,1,,,459.4707,13,up,0.4834,,1.5,0.3,"[2,3,1]",0.057937221,stimuli/card_100_transparent.png,100,13,0,13,0,1,,,,,,,,,,
,,,,65202fb0f9547ec693bafe2c,B,2024-06-22_06h41.35.758,Slot Machine Game,2023.1.3,MacIntel,59.88023952,,,,,,,,,,,,,,,,,,,,,,,,,,,1110,,,,,,,,,,,,,,,,,,,,,4,1,,,462.2872,14,up,0.0861,,0.5,0.3,"[2,3,1]",0.92144476,stimuli/card_0_transparent.png,0,14,0,14,0,1,,,,,,,,,,
,,,,65202fb0f9547ec693bafe2c,B,2024-06-22_06h41.35.758,Slot Machine Game,2023.1.3,MacIntel,59.88023952,,,,,,,,,,,,,,,,,,,,,,,,,,,,,,,,,,,463.7041,,,,,,,,,,,,,,,,,,,,,,,,,,,,,,,,,"[1310,800,950,1110]",3,0,3,0,1,,,,
,,,,65202fb0f9547ec693bafe2c,B,2024-06-22_06h41.35.758,Slot Machine Game,2023.1.3,MacIntel,59.88023952,,,,,,,,,,,,,,,,,,,,,,,,,,,0,,,,,,,,,,,,,,,,,,,,,5,2,"[6,15]","[[1,3,2],[3,2,1]]",468.7196,0,left,0.2512,,1.5,0.3,"[1,3,2]",0.043853301,stimuli/card_0_transparent.png,0,0,0,0,0,1,,,,,,,,,,
,,,,65202fb0f9547ec693bafe2c,B,2024-06-22_06h41.35.758,Slot Machine Game,2023.1.3,MacIntel,59.88023952,,,,,,,,,,,,,,,,,,,,,,,,,,,100,,,,,,,,,,,,,,,,,,,,,5,2,,,471.2873,1,up,0.0332,,1,0.3,"[1,3,2]",0.042331025,stimuli/card_100_transparent.png,100,1,0,1,0,1,,,,,,,,,,
,,,,65202fb0f9547ec693bafe2c,B,2024-06-22_06h41.35.758,Slot Machine Game,2023.1.3,MacIntel,59.88023952,,,,,,,,,,,,,,,,,,,,,,,,,,,100,,,,,,,,,,,,,,,,,,,,,5,2,,,473.1542,2,up,1.1326,,1,0.3,"[1,3,2]",0.323210506,stimuli/card_0_transparent.png,0,2,0,2,0,1,,,,,,,,,,
,,,,65202fb0f9547ec693bafe2c,B,2024-06-22_06h41.35.758,Slot Machine Game,2023.1.3,MacIntel,59.88023952,,,,,,,,,,,,,,,,,,,,,,,,,,,100,,,,,,,,,,,,,,,,,,,,,5,2,,,476.1196,3,up,0.1333,,1,0.3,"[1,3,2]",0.650435144,stimuli/card_0_transparent.png,0,3,0,3,0,1,,,,,,,,,,
,,,,65202fb0f9547ec693bafe2c,B,2024-06-22_06h41.35.758,Slot Machine Game,2023.1.3,MacIntel,59.88023952,,,,,,,,,,,,,,,,,,,,,,,,,,,200,,,,,,,,,,,,,,,,,,,,,5,2,,,478.0709,4,right,3.0374,,1,0.3,"[1,3,2]",0.158779065,stimuli/card_100_transparent.png,100,4,0,4,0,1,,,,,,,,,,
,,,,65202fb0f9547ec693bafe2c,B,2024-06-22_06h41.35.758,Slot Machine Game,2023.1.3,MacIntel,59.88023952,,,,,,,,,,,,,,,,,,,,,,,,,,,210,,,,,,,,,,,,,,,,,,,,,5,2,,,482.9377,5,right,0.3,,1,0.3,"[1,3,2]",0.699611678,stimuli/card_10_transparent.png,10,5,0,5,0,1,,,,,,,,,,
,,,,65202fb0f9547ec693bafe2c,B,2024-06-22_06h41.35.758,Slot Machine Game,2023.1.3,MacIntel,59.88023952,,,,,,,,,,,,,,,,,,,,,,,,,,,310,,,,,,,,,,,,,,,,,,,,,5,2,,,485.0709,6,right,0.1538,,1,0.3,"[3,2,1]",0.611556487,stimuli/card_100_transparent.png,100,6,0,6,0,1,,,,,,,,,,
,,,,65202fb0f9547ec693bafe2c,B,2024-06-22_06h41.35.758,Slot Machine Game,2023.1.3,MacIntel,59.88023952,,,,,,,,,,,,,,,,,,,,,,,,,,,310,,,,,,,,,,,,,,,,,,,,,5,2,,,487.0544,7,right,0.4993,,1.5,0.3,"[3,2,1]",0.029252584,stimuli/card_0_transparent.png,0,7,0,7,0,1,,,,,,,,,,
,,,,65202fb0f9547ec693bafe2c,B,2024-06-22_06h41.35.758,Slot Machine Game,2023.1.3,MacIntel,59.88023952,,,,,,,,,,,,,,,,,,,,,,,,,,,410,,,,,,,,,,,,,,,,,,,,,5,2,,,489.8877,8,right,0.0334,,1,0.3,"[3,2,1]",0.610090844,stimuli/card_100_transparent.png,100,8,0,8,0,1,,,,,,,,,,
,,,,65202fb0f9547ec693bafe2c,B,2024-06-22_06h41.35.758,Slot Machine Game,2023.1.3,MacIntel,59.88023952,,,,,,,,,,,,,,,,,,,,,,,,,,,510,,,,,,,,,,,,,,,,,,,,,5,2,,,491.7533,9,right,0.6829,,1,0.3,"[3,2,1]",0.469037341,stimuli/card_100_transparent.png,100,9,0,9,0,1,,,,,,,,,,
,,,,65202fb0f9547ec693bafe2c,B,2024-06-22_06h41.35.758,Slot Machine Game,2023.1.3,MacIntel,59.88023952,,,,,,,,,,,,,,,,,,,,,,,,,,,520,,,,,,,,,,,,,,,,,,,,,5,2,,,494.2544,10,right,0.6502,,1.5,0.3,"[3,2,1]",0.155803998,stimuli/card_10_transparent.png,10,10,0,10,0,1,,,,,,,,,,
,,,,65202fb0f9547ec693bafe2c,B,2024-06-22_06h41.35.758,Slot Machine Game,2023.1.3,MacIntel,59.88023952,,,,,,,,,,,,,,,,,,,,,,,,,,,620,,,,,,,,,,,,,,,,,,,,,5,2,,,497.2378,11,right,0.0712,,1.5,0.3,"[3,2,1]",0.840299258,stimuli/card_100_transparent.png,100,11,0,11,0,1,,,,,,,,,,
,,,,65202fb0f9547ec693bafe2c,B,2024-06-22_06h41.35.758,Slot Machine Game,2023.1.3,MacIntel,59.88023952,,,,,,,,,,,,,,,,,,,,,,,,,,,720,,,,,,,,,,,,,,,,,,,,,5,2,,,499.6378,12,right,0.1839,,0.5,0.3,"[3,2,1]",0.218449574,stimuli/card_100_transparent.png,100,12,0,12,0,1,,,,,,,,,,
,,,,65202fb0f9547ec693bafe2c,B,2024-06-22_06h41.35.758,Slot Machine Game,2023.1.3,MacIntel,59.88023952,,,,,,,,,,,,,,,,,,,,,,,,,,,820,,,,,,,,,,,,,,,,,,,,,5,2,,,501.1544,13,right,0.3158,,0.5,0.3,"[3,2,1]",0.575480306,stimuli/card_100_transparent.png,100,13,0,13,0,1,,,,,,,,,,
,,,,65202fb0f9547ec693bafe2c,B,2024-06-22_06h41.35.758,Slot Machine Game,2023.1.3,MacIntel,59.88023952,,,,,,,,,,,,,,,,,,,,,,,,,,,820,,,,,,,,,,,,,,,,,,,,,5,2,,,502.8035,14,right,0.169,,1,0.3,"[3,2,1]",0.062939411,stimuli/card_0_transparent.png,0,14,0,14,0,1,,,,,,,,,,
,,,,65202fb0f9547ec693bafe2c,B,2024-06-22_06h41.35.758,Slot Machine Game,2023.1.3,MacIntel,59.88023952,,,,,,,,,,,,,,,,,,,,,,,,,,,,,,,,,,,504.7881,,,,,,,,,,,,,,,,,,,,,,,,,,,,,,,,,"[1310,800,950,1110,820]",4,0,4,0,1,,,,
,,,,65202fb0f9547ec693bafe2c,B,2024-06-22_06h41.35.758,Slot Machine Game,2023.1.3,MacIntel,59.88023952,,,,,,,,,,,,,,,,,,,,,,,,,,,100,,,,,,,,,,,,,,,,,,,,,6,4,"[7,15]","[[2,3,1],[1,2,3]]",509.8065,0,left,0.4729,,0.5,0.3,"[2,3,1]",0.128814102,stimuli/card_100_transparent.png,100,0,0,0,0,1,,,,,,,,,,
,,,,65202fb0f9547ec693bafe2c,B,2024-06-22_06h41.35.758,Slot Machine Game,2023.1.3,MacIntel,59.88023952,,,,,,,,,,,,,,,,,,,,,,,,,,,110,,,,,,,,,,,,,,,,,,,,,6,4,,,511.6046,1,left,0.6184,,0.5,0.3,"[2,3,1]",0.835857616,stimuli/card_10_transparent.png,10,1,0,1,0,1,,,,,,,,,,
,,,,65202fb0f9547ec693bafe2c,B,2024-06-22_06h41.35.758,Slot Machine Game,2023.1.3,MacIntel,59.88023952,,,,,,,,,,,,,,,,,,,,,,,,,,,120,,,,,,,,,,,,,,,,,,,,,6,4,,,513.5547,2,left,0.068,,0.5,0.3,"[2,3,1]",0.322137672,stimuli/card_10_transparent.png,10,2,0,2,0,1,,,,,,,,,,
,,,,65202fb0f9547ec693bafe2c,B,2024-06-22_06h41.35.758,Slot Machine Game,2023.1.3,MacIntel,59.88023952,,,,,,,,,,,,,,,,,,,,,,,,,,,120,,,,,,,,,,,,,,,,,,,,,6,4,,,514.9545,3,up,0.7986,,1,0.3,"[2,3,1]",0.928481793,stimuli/card_0_transparent.png,0,3,0,3,0,1,,,,,,,,,,
,,,,65202fb0f9547ec693bafe2c,B,2024-06-22_06h41.35.758,Slot Machine Game,2023.1.3,MacIntel,59.88023952,,,,,,,,,,,,,,,,,,,,,,,,,,,220,,,,,,,,,,,,,,,,,,,,,6,4,,,517.588,4,right,0.3688,,0.5,0.3,"[2,3,1]",0.747323903,stimuli/card_100_transparent.png,100,4,0,4,0,1,,,,,,,,,,
,,,,65202fb0f9547ec693bafe2c,B,2024-06-22_06h41.35.758,Slot Machine Game,2023.1.3,MacIntel,59.88023952,,,,,,,,,,,,,,,,,,,,,,,,,,,320,,,,,,,,,,,,,,,,,,,,,6,4,,,519.2865,5,right,0.3331,,1,0.3,"[2,3,1]",0.558683917,stimuli/card_100_transparent.png,100,5,0,5,0,1,,,,,,,,,,
,,,,65202fb0f9547ec693bafe2c,B,2024-06-22_06h41.35.758,Slot Machine Game,2023.1.3,MacIntel,59.88023952,,,,,,,,,,,,,,,,,,,,,,,,,,,420,,,,,,,,,,,,,,,,,,,,,6,4,,,521.4381,6,right,0.3331,,0.5,0.3,"[2,3,1]",0.425478778,stimuli/card_100_transparent.png,100,6,0,6,0,1,,,,,,,,,,
,,,,65202fb0f9547ec693bafe2c,B,2024-06-22_06h41.35.758,Slot Machine Game,2023.1.3,MacIntel,59.88023952,,,,,,,,,,,,,,,,,,,,,,,,,,,420,,,,,,,,,,,,,,,,,,,,,6,4,,,523.1048,7,right,0.2094,,1.5,0.3,"[1,2,3]",0.620638133,stimuli/card_0_transparent.png,0,7,0,7,0,1,,,,,,,,,,
,,,,65202fb0f9547ec693bafe2c,B,2024-06-22_06h41.35.758,Slot Machine Game,2023.1.3,MacIntel,59.88023952,,,,,,,,,,,,,,,,,,,,,,,,,,,520,,,,,,,,,,,,,,,,,,,,,6,4,,,525.6382,8,right,2.4676,,1,0.3,"[1,2,3]",0.050168502,stimuli/card_100_transparent.png,100,8,0,8,0,1,,,,,,,,,,
,,,,65202fb0f9547ec693bafe2c,B,2024-06-22_06h41.35.758,Slot Machine Game,2023.1.3,MacIntel,59.88023952,,,,,,,,,,,,,,,,,,,,,,,,,,,520,,,,,,,,,,,,,,,,,,,,,6,4,,,529.9381,9,right,0.6599,,1,0.3,"[1,2,3]",0.592308734,stimuli/card_0_transparent.png,0,9,0,9,0,1,,,,,,,,,,
,,,,65202fb0f9547ec693bafe2c,B,2024-06-22_06h41.35.758,Slot Machine Game,2023.1.3,MacIntel,59.88023952,,,,,,,,,,,,,,,,,,,,,,,,,,,520,,,,,,,,,,,,,,,,,,,,,6,4,,,532.4216,10,right,1.2607,,1,0.3,"[1,2,3]",0.61881906,stimuli/card_0_transparent.png,0,10,0,10,0,1,,,,,,,,,,
,,,,65202fb0f9547ec693bafe2c,B,2024-06-22_06h41.35.758,Slot Machine Game,2023.1.3,MacIntel,59.88023952,,,,,,,,,,,,,,,,,,,,,,,,,,,530,,,,,,,,,,,,,,,,,,,,,6,4,,,535.5048,11,up,1.3362,,1,0.3,"[1,2,3]",0.869376925,stimuli/card_10_transparent.png,10,11,0,11,0,1,,,,,,,,,,
,,,,65202fb0f9547ec693bafe2c,B,2024-06-22_06h41.35.758,Slot Machine Game,2023.1.3,MacIntel,59.88023952,,,,,,,,,,,,,,,,,,,,,,,,,,,540,,,,,,,,,,,,,,,,,,,,,6,4,,,538.6706,12,up,1.0152,,1,0.3,"[1,2,3]",0.815200132,stimuli/card_10_transparent.png,10,12,0,12,0,1,,,,,,,,,,
,,,,65202fb0f9547ec693bafe2c,B,2024-06-22_06h41.35.758,Slot Machine Game,2023.1.3,MacIntel,59.88023952,,,,,,,,,,,,,,,,,,,,,,,,,,,640,,,,,,,,,,,,,,,,,,,,,6,4,,,541.5051,13,left,0.9321,,1,0.3,"[1,2,3]",0.954868374,stimuli/card_100_transparent.png,100,13,0,13,0,1,,,,,,,,,,
,,,,65202fb0f9547ec693bafe2c,B,2024-06-22_06h41.35.758,Slot Machine Game,2023.1.3,MacIntel,59.88023952,,,,,,,,,,,,,,,,,,,,,,,,,,,650,,,,,,,,,,,,,,,,,,,,,6,4,,,544.2717,14,left,0.5828,,0.5,0.3,"[1,2,3]",0.154306408,stimuli/card_10_transparent.png,10,14,0,14,0,1,,,,,,,,,,
,,,,65202fb0f9547ec693bafe2c,B,2024-06-22_06h41.35.758,Slot Machine Game,2023.1.3,MacIntel,59.88023952,,,,,,,,,,,,,,,,,,,,,,,,,,,,,,,,,,,546.1876,,,,,,,,,,,,,,,,,,,,,,,,,,,,,,,,,"[1310,800,950,1110,820,650]",5,0,5,0,1,,,,
,,,,65202fb0f9547ec693bafe2c,B,2024-06-22_06h41.35.758,Slot Machine Game,2023.1.3,MacIntel,59.88023952,,,,,,,,,,,,,,,,,,,,,,,,,,,0,,,,,,,,,,,,,,,,,,,,,7,10,"[10,15]","[[3,1,2],[1,3,2]]",551.203,0,left,0.8335,,0.5,0.3,"[3,1,2]",0.725107749,stimuli/card_0_transparent.png,0,0,0,0,0,1,,,,,,,,,,
,,,,65202fb0f9547ec693bafe2c,B,2024-06-22_06h41.35.758,Slot Machine Game,2023.1.3,MacIntel,59.88023952,,,,,,,,,,,,,,,,,,,,,,,,,,,100,,,,,,,,,,,,,,,,,,,,,7,10,,,553.3553,1,up,0.5147,,1,0.3,"[3,1,2]",0.954028704,stimuli/card_100_transparent.png,100,1,0,1,0,1,,,,,,,,,,
,,,,65202fb0f9547ec693bafe2c,B,2024-06-22_06h41.35.758,Slot Machine Game,2023.1.3,MacIntel,59.88023952,,,,,,,,,,,,,,,,,,,,,,,,,,,200,,,,,,,,,,,,,,,,,,,,,7,10,,,555.7053,2,up,1.1353,,0.5,0.3,"[3,1,2]",0.457296917,stimuli/card_100_transparent.png,100,2,0,2,0,1,,,,,,,,,,
,,,,65202fb0f9547ec693bafe2c,B,2024-06-22_06h41.35.758,Slot Machine Game,2023.1.3,MacIntel,59.88023952,,,,,,,,,,,,,,,,,,,,,,,,,,,300,,,,,,,,,,,,,,,,,,,,,7,10,,,558.1721,3,up,2,,1,0.3,"[3,1,2]",0.353270216,stimuli/card_100_transparent.png,100,3,0,3,0,1,,,,,,,,,,
,,,,65202fb0f9547ec693bafe2c,B,2024-06-22_06h41.35.758,Slot Machine Game,2023.1.3,MacIntel,59.88023952,,,,,,,,,,,,,,,,,,,,,,,,,,,310,,,,,,,,,,,,,,,,,,,,,7,10,,,562.0054,4,up,1.0503,,1,0.3,"[3,1,2]",0.120656264,stimuli/card_10_transparent.png,10,4,0,4,0,1,,,,,,,,,,
,,,,65202fb0f9547ec693bafe2c,B,2024-06-22_06h41.35.758,Slot Machine Game,2023.1.3,MacIntel,59.88023952,,,,,,,,,,,,,,,,,,,,,,,,,,,310,,,,,,,,,,,,,,,,,,,,,7,10,,,564.8883,5,up,0.3144,,1.5,0.3,"[3,1,2]",0.034140335,stimuli/card_0_transparent.png,0,5,0,5,0,1,,,,,,,,,,
,,,,65202fb0f9547ec693bafe2c,B,2024-06-22_06h41.35.758,Slot Machine Game,2023.1.3,MacIntel,59.88023952,,,,,,,,,,,,,,,,,,,,,,,,,,,410,,,,,,,,,,,,,,,,,,,,,7,10,,,567.5388,6,up,2.6658,,1.5,0.3,"[3,1,2]",0.777796377,stimuli/card_100_transparent.png,100,6,0,6,0,1,,,,,,,,,,
,,,,65202fb0f9547ec693bafe2c,B,2024-06-22_06h41.35.758,Slot Machine Game,2023.1.3,MacIntel,59.88023952,,,,,,,,,,,,,,,,,,,,,,,,,,,510,,,,,,,,,,,,,,,,,,,,,7,10,,,572.5378,7,up,0.1839,,1,0.3,"[3,1,2]",0.449314376,stimuli/card_100_transparent.png,100,7,0,7,0,1,,,,,,,,,,
,,,,65202fb0f9547ec693bafe2c,B,2024-06-22_06h41.35.758,Slot Machine Game,2023.1.3,MacIntel,59.88023952,,,,,,,,,,,,,,,,,,,,,,,,,,,610,,,,,,,,,,,,,,,,,,,,,7,10,,,574.5388,8,up,0.1158,,1.5,0.3,"[3,1,2]",0.263516047,stimuli/card_100_transparent.png,100,8,0,8,0,1,,,,,,,,,,
,,,,65202fb0f9547ec693bafe2c,B,2024-06-22_06h41.35.758,Slot Machine Game,2023.1.3,MacIntel,59.88023952,,,,,,,,,,,,,,,,,,,,,,,,,,,710,,,,,,,,,,,,,,,,,,,,,7,10,,,576.9878,9,up,0.084,,0.5,0.3,"[3,1,2]",0.927979349,stimuli/card_100_transparent.png,100,9,0,9,0,1,,,,,,,,,,
,,,,65202fb0f9547ec693bafe2c,B,2024-06-22_06h41.35.758,Slot Machine Game,2023.1.3,MacIntel,59.88023952,,,,,,,,,,,,,,,,,,,,,,,,,,,710,,,,,,,,,,,,,,,,,,,,,7,10,,,578.4047,10,up,0.1999,,0.5,0.3,"[1,3,2]",0.531740359,stimuli/card_0_transparent.png,0,10,0,10,0,1,,,,,,,,,,
,,,,65202fb0f9547ec693bafe2c,B,2024-06-22_06h41.35.758,Slot Machine Game,2023.1.3,MacIntel,59.88023952,,,,,,,,,,,,,,,,,,,,,,,,,,,710,,,,,,,,,,,,,,,,,,,,,7,10,,,579.9223,11,up,0.1938,,1.5,0.3,"[1,3,2]",0.853422367,stimuli/card_0_transparent.png,0,11,0,11,0,1,,,,,,,,,,
,,,,65202fb0f9547ec693bafe2c,B,2024-06-22_06h41.35.758,Slot Machine Game,2023.1.3,MacIntel,59.88023952,,,,,,,,,,,,,,,,,,,,,,,,,,,720,,,,,,,,,,,,,,,,,,,,,7,10,,,582.4389,12,right,0.7984,,0.5,0.3,"[1,3,2]",0.436057409,stimuli/card_10_transparent.png,10,12,0,12,0,1,,,,,,,,,,
,,,,65202fb0f9547ec693bafe2c,B,2024-06-22_06h41.35.758,Slot Machine Game,2023.1.3,MacIntel,59.88023952,,,,,,,,,,,,,,,,,,,,,,,,,,,820,,,,,,,,,,,,,,,,,,,,,7,10,,,584.5724,13,right,0.5165,,1,0.3,"[1,3,2]",0.180959688,stimuli/card_100_transparent.png,100,13,0,13,0,1,,,,,,,,,,
,,,,65202fb0f9547ec693bafe2c,B,2024-06-22_06h41.35.758,Slot Machine Game,2023.1.3,MacIntel,59.88023952,,,,,,,,,,,,,,,,,,,,,,,,,,,830,,,,,,,,,,,,,,,,,,,,,7,10,,,586.9225,14,right,0.3529,,1,0.3,"[1,3,2]",0.385073996,stimuli/card_10_transparent.png,10,14,0,14,0,1,,,,,,,,,,
,,,,65202fb0f9547ec693bafe2c,B,2024-06-22_06h41.35.758,Slot Machine Game,2023.1.3,MacIntel,59.88023952,,,,,,,,,,,,,,,,,,,,,,,,,,,,,,,,,,,589.1058,,,,,,,,,,,,,,,,,,,,,,,,,,,,,,,,,"[1310,800,950,1110,820,650,830]",6,0,6,0,1,,,,
,,,,65202fb0f9547ec693bafe2c,B,2024-06-22_06h41.35.758,Slot Machine Game,2023.1.3,MacIntel,59.88023952,,,,,,,,,,,,,,,,,,,,,,,,,,,10,,,,,,,,,,,,,,,,,,,,,8,7,"[9,15]","[[1,3,2],[2,3,1]]",594.1228,0,left,0.3004,,1.5,0.3,"[1,3,2]",0.165260153,stimuli/card_10_transparent.png,10,0,0,0,0,1,,,,,,,,,,
,,,,65202fb0f9547ec693bafe2c,B,2024-06-22_06h41.35.758,Slot Machine Game,2023.1.3,MacIntel,59.88023952,,,,,,,,,,,,,,,,,,,,,,,,,,,110,,,,,,,,,,,,,,,,,,,,,8,7,,,596.756,1,left,0.5147,,0.5,0.3,"[1,3,2]",0.673942399,stimuli/card_100_transparent.png,100,1,0,1,0,1,,,,,,,,,,
,,,,65202fb0f9547ec693bafe2c,B,2024-06-22_06h41.35.758,Slot Machine Game,2023.1.3,MacIntel,59.88023952,,,,,,,,,,,,,,,,,,,,,,,,,,,210,,,,,,,,,,,,,,,,,,,,,8,7,,,598.6059,2,left,0.8977,,1.5,0.3,"[1,3,2]",0.930618122,stimuli/card_100_transparent.png,100,2,0,2,0,1,,,,,,,,,,
,,,,65202fb0f9547ec693bafe2c,B,2024-06-22_06h41.35.758,Slot Machine Game,2023.1.3,MacIntel,59.88023952,,,,,,,,,,,,,,,,,,,,,,,,,,,310,,,,,,,,,,,,,,,,,,,,,8,7,,,601.8394,3,left,0.5941,,0.5,0.3,"[1,3,2]",0.848526653,stimuli/card_100_transparent.png,100,3,0,3,0,1,,,,,,,,,,
,,,,65202fb0f9547ec693bafe2c,B,2024-06-22_06h41.35.758,Slot Machine Game,2023.1.3,MacIntel,59.88023952,,,,,,,,,,,,,,,,,,,,,,,,,,,410,,,,,,,,,,,,,,,,,,,,,8,7,,,603.755,4,left,0.4932,,1,0.3,"[1,3,2]",0.586879277,stimuli/card_100_transparent.png,100,4,0,4,0,1,,,,,,,,,,
,,,,65202fb0f9547ec693bafe2c,B,2024-06-22_06h41.35.758,Slot Machine Game,2023.1.3,MacIntel,59.88023952,,,,,,,,,,,,,,,,,,,,,,,,,,,510,,,,,,,,,,,,,,,,,,,,,8,7,,,606.0561,5,left,0.5338,,1.5,0.3,"[1,3,2]",0.709599375,stimuli/card_100_transparent.png,100,5,0,5,0,1,,,,,,,,,,
,,,,65202fb0f9547ec693bafe2c,B,2024-06-22_06h41.35.758,Slot Machine Game,2023.1.3,MacIntel,59.88023952,,,,,,,,,,,,,,,,,,,,,,,,,,,610,,,,,,,,,,,,,,,,,,,,,8,7,,,608.9227,6,left,0.7675,,0.5,0.3,"[1,3,2]",0.714357881,stimuli/card_100_transparent.png,100,6,0,6,0,1,,,,,,,,,,
,,,,65202fb0f9547ec693bafe2c,B,2024-06-22_06h41.35.758,Slot Machine Game,2023.1.3,MacIntel,59.88023952,,,,,,,,,,,,,,,,,,,,,,,,,,,710,,,,,,,,,,,,,,,,,,,,,8,7,,,611.0217,7,left,0.5996,,0.5,0.3,"[1,3,2]",0.24709676,stimuli/card_100_transparent.png,100,7,0,7,0,1,,,,,,,,,,
,,,,65202fb0f9547ec693bafe2c,B,2024-06-22_06h41.35.758,Slot Machine Game,2023.1.3,MacIntel,59.88023952,,,,,,,,,,,,,,,,,,,,,,,,,,,810,,,,,,,,,,,,,,,,,,,,,8,7,,,612.9394,8,left,0.1002,,1.5,0.3,"[1,3,2]",0.293389859,stimuli/card_100_transparent.png,100,8,0,8,0,1,,,,,,,,,,
,,,,65202fb0f9547ec693bafe2c,B,2024-06-22_06h41.35.758,Slot Machine Game,2023.1.3,MacIntel,59.88023952,,,,,,,,,,,,,,,,,,,,,,,,,,,820,,,,,,,,,,,,,,,,,,,,,8,7,,,615.3729,9,left,0.0671,,0.5,0.3,"[2,3,1]",0.376296095,stimuli/card_10_transparent.png,10,9,0,9,0,1,,,,,,,,,,
,,,,65202fb0f9547ec693bafe2c,B,2024-06-22_06h41.35.758,Slot Machine Game,2023.1.3,MacIntel,59.88023952,,,,,,,,,,,,,,,,,,,,,,,,,,,830,,,,,,,,,,,,,,,,,,,,,8,7,,,616.7724,10,left,0.2326,,1,0.3,"[2,3,1]",0.40654068,stimuli/card_10_transparent.png,10,10,0,10,0,1,,,,,,,,,,
,,,,65202fb0f9547ec693bafe2c,B,2024-06-22_06h41.35.758,Slot Machine Game,2023.1.3,MacIntel,59.88023952,,,,,,,,,,,,,,,,,,,,,,,,,,,830,,,,,,,,,,,,,,,,,,,,,8,7,,,618.8228,11,up,0.135,,0.5,0.3,"[2,3,1]",0.64280112,stimuli/card_0_transparent.png,0,11,0,11,0,1,,,,,,,,,,
,,,,65202fb0f9547ec693bafe2c,B,2024-06-22_06h41.35.758,Slot Machine Game,2023.1.3,MacIntel,59.88023952,,,,,,,,,,,,,,,,,,,,,,,,,,,930,,,,,,,,,,,,,,,,,,,,,8,7,,,620.2894,12,right,0.4823,,0.5,0.3,"[2,3,1]",0.80536419,stimuli/card_100_transparent.png,100,12,0,12,0,1,,,,,,,,,,
,,,,65202fb0f9547ec693bafe2c,B,2024-06-22_06h41.35.758,Slot Machine Game,2023.1.3,MacIntel,59.88023952,,,,,,,,,,,,,,,,,,,,,,,,,,,1030,,,,,,,,,,,,,,,,,,,,,8,7,,,622.1062,13,right,0.2348,,1.5,0.3,"[2,3,1]",0.989612218,stimuli/card_100_transparent.png,100,13,0,13,0,1,,,,,,,,,,
,,,,65202fb0f9547ec693bafe2c,B,2024-06-22_06h41.35.758,Slot Machine Game,2023.1.3,MacIntel,59.88023952,,,,,,,,,,,,,,,,,,,,,,,,,,,1030,,,,,,,,,,,,,,,,,,,,,8,7,,,624.673,14,right,0.4358,,1.5,0.3,"[2,3,1]",0.068680072,stimuli/card_0_transparent.png,0,14,0,14,0,1,,,,,,,,,,
,,,,65202fb0f9547ec693bafe2c,B,2024-06-22_06h41.35.758,Slot Machine Game,2023.1.3,MacIntel,59.88023952,,,,,,,,,,,,,,,,,,,,,,,,,,,,,,,,,,,627.4396,,,,,,,,,,,,,,,,,,,,,,,,,,,,,,,,,"[1310,800,950,1110,820,650,830,1030]",7,0,7,0,1,,,,
,,,,65202fb0f9547ec693bafe2c,B,2024-06-22_06h41.35.758,Slot Machine Game,2023.1.3,MacIntel,59.88023952,,,,,,,,,,,,,,,,,,,,,,,,,,,0,,,,,,,,,,,,,,,,,,,,,9,9,[15],"[[3,1,2]]",632.4544,0,left,1.3861,,1,0.3,"[3,1,2]",0.993543219,stimuli/card_0_transparent.png,0,0,0,0,0,1,,,,,,,,,,
,,,,65202fb0f9547ec693bafe2c,B,2024-06-22_06h41.35.758,Slot Machine Game,2023.1.3,MacIntel,59.88023952,,,,,,,,,,,,,,,,,,,,,,,,,,,100,,,,,,,,,,,,,,,,,,,,,9,9,,,635.6564,1,up,0.9541,,1.5,0.3,"[3,1,2]",0.587815949,stimuli/card_100_transparent.png,100,1,0,1,0,1,,,,,,,,,,
,,,,65202fb0f9547ec693bafe2c,B,2024-06-22_06h41.35.758,Slot Machine Game,2023.1.3,MacIntel,59.88023952,,,,,,,,,,,,,,,,,,,,,,,,,,,200,,,,,,,,,,,,,,,,,,,,,9,9,,,638.9387,2,up,1.5643,,0.5,0.3,"[3,1,2]",0.633302117,stimuli/card_100_transparent.png,100,2,0,2,0,1,,,,,,,,,,
,,,,65202fb0f9547ec693bafe2c,B,2024-06-22_06h41.35.758,Slot Machine Game,2023.1.3,MacIntel,59.88023952,,,,,,,,,,,,,,,,,,,,,,,,,,,300,,,,,,,,,,,,,,,,,,,,,9,9,,,641.8231,3,up,0.9332,,1.5,0.3,"[3,1,2]",0.41508079,stimuli/card_100_transparent.png,100,3,0,3,0,1,,,,,,,,,,
,,,,65202fb0f9547ec693bafe2c,B,2024-06-22_06h41.35.758,Slot Machine Game,2023.1.3,MacIntel,59.88023952,,,,,,,,,,,,,,,,,,,,,,,,,,,400,,,,,,,,,,,,,,,,,,,,,9,9,,,645.0898,4,up,0.6993,,0.5,0.3,"[3,1,2]",0.370833896,stimuli/card_100_transparent.png,100,4,0,4,0,1,,,,,,,,,,
,,,,65202fb0f9547ec693bafe2c,B,2024-06-22_06h41.35.758,Slot Machine Game,2023.1.3,MacIntel,59.88023952,,,,,,,,,,,,,,,,,,,,,,,,,,,500,,,,,,,,,,,,,,,,,,,,,9,9,,,647.1221,5,up,1.3984,,1,0.3,"[3,1,2]",0.36605424,stimuli/card_100_transparent.png,100,5,0,5,0,1,,,,,,,,,,
,,,,65202fb0f9547ec693bafe2c,B,2024-06-22_06h41.35.758,Slot Machine Game,2023.1.3,MacIntel,59.88023952,,,,,,,,,,,,,,,,,,,,,,,,,,,600,,,,,,,,,,,,,,,,,,,,,9,9,,,650.3399,6,up,1.5368,,1.5,0.3,"[3,1,2]",0.282109968,stimuli/card_100_transparent.png,100,6,0,6,0,1,,,,,,,,,,
,,,,65202fb0f9547ec693bafe2c,B,2024-06-22_06h41.35.758,Slot Machine Game,2023.1.3,MacIntel,59.88023952,,,,,,,,,,,,,,,,,,,,,,,,,,,700,,,,,,,,,,,,,,,,,,,,,9,9,,,654.206,7,up,0.6712,,0.5,0.3,"[3,1,2]",0.575766435,stimuli/card_100_transparent.png,100,7,0,7,0,1,,,,,,,,,,
,,,,65202fb0f9547ec693bafe2c,B,2024-06-22_06h41.35.758,Slot Machine Game,2023.1.3,MacIntel,59.88023952,,,,,,,,,,,,,,,,,,,,,,,,,,,800,,,,,,,,,,,,,,,,,,,,,9,9,,,656.1899,8,up,0.4189,,1.5,0.3,"[3,1,2]",0.817351176,stimuli/card_100_transparent.png,100,8,0,8,0,1,,,,,,,,,,
,,,,65202fb0f9547ec693bafe2c,B,2024-06-22_06h41.35.758,Slot Machine Game,2023.1.3,MacIntel,59.88023952,,,,,,,,,,,,,,,,,,,,,,,,,,,,,,,,,,,,,,,,,,,,,,,,9,9,,,658.94,9,,,,1.5,0.3,,,,,9,0,9,0,1,,,,,,,,,,
,,,,65202fb0f9547ec693bafe2c,B,2024-06-22_06h41.35.758,Slot Machine Game,2023.1.3,MacIntel,59.88023952,,,,,,,,,,,,,,,,,,,,,,,,,,,900,,,,,,,,,,,,,,,,,,,,,9,9,,,664.4592,10,up,0.8172,,0.5,0.3,"[3,1,2]",0.634620007,stimuli/card_100_transparent.png,100,10,0,10,0,1,,,,,,,,,,
,,,,65202fb0f9547ec693bafe2c,B,2024-06-22_06h41.35.758,Slot Machine Game,2023.1.3,MacIntel,59.88023952,,,,,,,,,,,,,,,,,,,,,,,,,,,1000,,,,,,,,,,,,,,,,,,,,,9,9,,,666.6067,11,up,1.367,,1.5,0.3,"[3,1,2]",0.670811742,stimuli/card_100_transparent.png,100,11,0,11,0,1,,,,,,,,,,
,,,,65202fb0f9547ec693bafe2c,B,2024-06-22_06h41.35.758,Slot Machine Game,2023.1.3,MacIntel,59.88023952,,,,,,,,,,,,,,,,,,,,,,,,,,,1100,,,,,,,,,,,,,,,,,,,,,9,9,,,670.3067,12,up,0.5832,,1,0.3,"[3,1,2]",0.258503145,stimuli/card_100_transparent.png,100,12,0,12,0,1,,,,,,,,,,
,,,,65202fb0f9547ec693bafe2c,B,2024-06-22_06h41.35.758,Slot Machine Game,2023.1.3,MacIntel,59.88023952,,,,,,,,,,,,,,,,,,,,,,,,,,,1200,,,,,,,,,,,,,,,,,,,,,9,9,,,672.7236,13,up,0.5003,,1.5,0.3,"[3,1,2]",0.972542582,stimuli/card_100_transparent.png,100,13,0,13,0,1,,,,,,,,,,
,,,,65202fb0f9547ec693bafe2c,B,2024-06-22_06h41.35.758,Slot Machine Game,2023.1.3,MacIntel,59.88023952,,,,,,,,,,,,,,,,,,,,,,,,,,,1200,,,,,,,,,,,,,,,,,,,,,9,9,,,675.5568,14,up,0.1492,,1,0.3,"[3,1,2]",0.040414742,stimuli/card_0_transparent.png,0,14,0,14,0,1,,,,,,,,,,
,,,,65202fb0f9547ec693bafe2c,B,2024-06-22_06h41.35.758,Slot Machine Game,2023.1.3,MacIntel,59.88023952,,,,,,,,,,,,,,,,,,,,,,,,,,,,,,,,,,,677.5402,,,,,,,,,,,,,,,,,,,,,,,,,,,,,,,,,"[1310,800,950,1110,820,650,830,1030,1200]",8,0,8,0,1,,,,
,,,,65202fb0f9547ec693bafe2c,B,2024-06-22_06h41.35.758,Slot Machine Game,2023.1.3,MacIntel,59.88023952,,,,,,,,,,,,,,,,,,,,,,,,,,,10,,,,,,,,,,,,,,,,,,,,,10,6,"[4,10,15]","[[2,3,1],[1,3,2],[3,2,1]]",682.5559,0,left,0.3993,,0.5,0.3,"[2,3,1]",0.491761012,stimuli/card_10_transparent.png,10,0,0,0,0,1,,,,,,,,,,
,,,,65202fb0f9547ec693bafe2c,B,2024-06-22_06h41.35.758,Slot Machine Game,2023.1.3,MacIntel,59.88023952,,,,,,,,,,,,,,,,,,,,,,,,,,,110,,,,,,,,,,,,,,,,,,,,,10,6,,,684.2727,1,up,0.8007,,1,0.3,"[2,3,1]",0.029362218,stimuli/card_100_transparent.png,100,1,0,1,0,1,,,,,,,,,,
,,,,65202fb0f9547ec693bafe2c,B,2024-06-22_06h41.35.758,Slot Machine Game,2023.1.3,MacIntel,59.88023952,,,,,,,,,,,,,,,,,,,,,,,,,,,110,,,,,,,,,,,,,,,,,,,,,10,6,,,686.8893,2,up,1.3504,,1.5,0.3,"[2,3,1]",0.855946568,stimuli/card_0_transparent.png,0,2,0,2,0,1,,,,,,,,,,
,,,,65202fb0f9547ec693bafe2c,B,2024-06-22_06h41.35.758,Slot Machine Game,2023.1.3,MacIntel,59.88023952,,,,,,,,,,,,,,,,,,,,,,,,,,,110,,,,,,,,,,,,,,,,,,,,,10,6,,,690.5572,3,up,2.449,,1.5,0.3,"[2,3,1]",0.607171022,stimuli/card_0_transparent.png,0,3,0,3,0,1,,,,,,,,,,
,,,,65202fb0f9547ec693bafe2c,B,2024-06-22_06h41.35.758,Slot Machine Game,2023.1.3,MacIntel,59.88023952,,,,,,,,,,,,,,,,,,,,,,,,,,,120,,,,,,,,,,,,,,,,,,,,,10,6,,,695.3396,4,right,0.3991,,0.5,0.3,"[1,3,2]",0.226303757,stimuli/card_10_transparent.png,10,4,0,4,0,1,,,,,,,,,,
,,,,65202fb0f9547ec693bafe2c,B,2024-06-22_06h41.35.758,Slot Machine Game,2023.1.3,MacIntel,59.88023952,,,,,,,,,,,,,,,,,,,,,,,,,,,120,,,,,,,,,,,,,,,,,,,,,10,6,,,697.0573,5,right,0.2834,,1.5,0.3,"[1,3,2]",0.034737586,stimuli/card_0_transparent.png,0,5,0,5,0,1,,,,,,,,,,
,,,,65202fb0f9547ec693bafe2c,B,2024-06-22_06h41.35.758,Slot Machine Game,2023.1.3,MacIntel,59.88023952,,,,,,,,,,,,,,,,,,,,,,,,,,,130,,,,,,,,,,,,,,,,,,,,,10,6,,,699.6739,6,left,0.9488,,1,0.3,"[1,3,2]",0.169205362,stimuli/card_10_transparent.png,10,6,0,6,0,1,,,,,,,,,,
,,,,65202fb0f9547ec693bafe2c,B,2024-06-22_06h41.35.758,Slot Machine Game,2023.1.3,MacIntel,59.88023952,,,,,,,,,,,,,,,,,,,,,,,,,,,230,,,,,,,,,,,,,,,,,,,,,10,6,,,702.4573,7,left,0.2179,,0.5,0.3,"[1,3,2]",0.462564836,stimuli/card_100_transparent.png,100,7,0,7,0,1,,,,,,,,,,
,,,,65202fb0f9547ec693bafe2c,B,2024-06-22_06h41.35.758,Slot Machine Game,2023.1.3,MacIntel,59.88023952,,,,,,,,,,,,,,,,,,,,,,,,,,,330,,,,,,,,,,,,,,,,,,,,,10,6,,,704.0073,8,left,0.4173,,0.5,0.3,"[1,3,2]",0.879216269,stimuli/card_100_transparent.png,100,8,0,8,0,1,,,,,,,,,,
,,,,65202fb0f9547ec693bafe2c,B,2024-06-22_06h41.35.758,Slot Machine Game,2023.1.3,MacIntel,59.88023952,,,,,,,,,,,,,,,,,,,,,,,,,,,340,,,,,,,,,,,,,,,,,,,,,10,6,,,705.7573,9,left,0.2996,,1,0.3,"[1,3,2]",0.171343845,stimuli/card_10_transparent.png,10,9,0,9,0,1,,,,,,,,,,
,,,,65202fb0f9547ec693bafe2c,B,2024-06-22_06h41.35.758,Slot Machine Game,2023.1.3,MacIntel,59.88023952,,,,,,,,,,,,,,,,,,,,,,,,,,,340,,,,,,,,,,,,,,,,,,,,,10,6,,,707.8907,10,left,0.0671,,1,0.3,"[3,2,1]",0.900064421,stimuli/card_0_transparent.png,0,10,0,10,0,1,,,,,,,,,,
,,,,65202fb0f9547ec693bafe2c,B,2024-06-22_06h41.35.758,Slot Machine Game,2023.1.3,MacIntel,59.88023952,,,,,,,,,,,,,,,,,,,,,,,,,,,350,,,,,,,,,,,,,,,,,,,,,10,6,,,709.7908,11,up,0.9168,,0.5,0.3,"[3,2,1]",0.245160813,stimuli/card_10_transparent.png,10,11,0,11,0,1,,,,,,,,,,
,,,,65202fb0f9547ec693bafe2c,B,2024-06-22_06h41.35.758,Slot Machine Game,2023.1.3,MacIntel,59.88023952,,,,,,,,,,,,,,,,,,,,,,,,,,,360,,,,,,,,,,,,,,,,,,,,,10,6,,,712.0408,12,up,0.4368,,1,0.3,"[3,2,1]",0.655623194,stimuli/card_10_transparent.png,10,12,0,12,0,1,,,,,,,,,,
,,,,65202fb0f9547ec693bafe2c,B,2024-06-22_06h41.35.758,Slot Machine Game,2023.1.3,MacIntel,59.88023952,,,,,,,,,,,,,,,,,,,,,,,,,,,360,,,,,,,,,,,,,,,,,,,,,10,6,,,714.3076,13,left,0.0004,,1,0.3,"[3,2,1]",0.377107815,stimuli/card_0_transparent.png,0,13,0,13,0,1,,,,,,,,,,
,,,,65202fb0f9547ec693bafe2c,B,2024-06-22_06h41.35.758,Slot Machine Game,2023.1.3,MacIntel,59.88023952,,,,,,,,,,,,,,,,,,,,,,,,,,,370,,,,,,,,,,,,,,,,,,,,,10,6,,,716.1409,14,up,0.0661,,1.5,0.3,"[3,2,1]",0.655553357,stimuli/card_10_transparent.png,10,14,0,14,0,1,,,,,,,,,,
,,,,65202fb0f9547ec693bafe2c,B,2024-06-22_06h41.35.758,Slot Machine Game,2023.1.3,MacIntel,59.88023952,,,,,,,,,,,,,,,,,,,,,,,,,,,,,,,,,,,718.5403,,,,,,,,,,,,,,,,,,,,,,,,,,,,,,,,,"[1310,800,950,1110,820,650,830,1030,1200,370]",9,0,9,0,1,,,,
,,,,65202fb0f9547ec693bafe2c,B,2024-06-22_06h41.35.758,Slot Machine Game,2023.1.3,MacIntel,59.88023952,,,,,,,,,,,,,,,,,,,,,,,,,,,,,,,,,,,,,,,,,,,,,,,,,,,,,,,,,,,,,,,,,,,,,,,,,,9,"[1310,800,950,1110,820,650,830,1030,1200,370]",9.5,2024-06-22_06h53.43.341
