key_resp_welcome_started,key_resp_welcome_keys,key_resp_welcome_rt,key_resp_welcome_duration,prolific_id,path_id,date,expName,psychopyVersion,OS,frameRate,key_resp_instruction1_started,key_resp_instruction1_keys,key_resp_instruction1_rt,key_resp_instruction1_duration,key_resp_instruction2_started,key_resp_instruction2_keys,key_resp_instruction2_rt,key_resp_instruction2_duration,key_resp_instruction3_started,key_resp_instruction3_keys,key_resp_instruction3_rt,key_resp_instruction3_duration,key_resp_instruction4_started,key_resp_instruction4_keys,key_resp_instruction4_rt,key_resp_instruction4_duration,practiceCondition,practice_reward_seqs,practice_trial_started,practice_trial_num,practice_resp_rt,practice_resp_duration,practice_resp_keys,prac_presentationInterval,"practice_reward_seq: 2,1,3",reward_img,cumulative_reward,trial_reward,practice_trials.thisRepN,practice_trials.thisTrialN,practice_trials.thisN,practice_trials.thisIndex,practice_trials.ran,"practice_reward_seq: 2,3,1",block_break_started,"practice_reward_seq: 1,3,2","practice_reward_seq: 3,1,2",practice_end_time,practice_end_keys,practice_end_rt,practice_end_duration,main_instruction_text_started,block_condition,block_order_indices,main_instruction_keys,main_instruction_rt,main_instruction_duration,block_number,block_assignment,current_condition,main_reward_seqs,main_trial_started,main_trial_num,main_trial_keys,main_trial_rt,main_trial_duration,main_presentationInterval,reward_presentation_time,main_reward_seq,reward_rand_val,main_reward_img,current_reward,main_trials.thisRepN,main_trials.thisTrialN,main_trials.thisN,main_trials.thisIndex,main_trials.ran,block_reward,block.thisRepN,block.thisTrialN,block.thisN,block.thisIndex,block.ran,block_reward.length,block_reward_all,reward_amount,date_end_task
0.0002,space,2.2364,,652be55d3d99a68b56fe7d56,A,2024-07-02_15h05.01.004,Slot Machine Game,2023.1.3,MacIntel,60.24096386,,,,,,,,,,,,,,,,,,,,,,,,,,,,,,,,,,,,,,,,,,,,,,,,,,,,,,,,,,,,,,,,,,,,,,,,,,,,,
,,,,652be55d3d99a68b56fe7d56,A,2024-07-02_15h05.01.004,Slot Machine Game,2023.1.3,MacIntel,60.24096386,2.2588,space,2.9493,,,,,,,,,,,,,,,,,,,,,,,,,,,,,,,,,,,,,,,,,,,,,,,,,,,,,,,,,,,,,,,,,,,,,,,,,,
,,,,652be55d3d99a68b56fe7d56,A,2024-07-02_15h05.01.004,Slot Machine Game,2023.1.3,MacIntel,60.24096386,,,,,5.2271,space,10.0178,,,,,,,,,,,,,,,,,,,,,,,,,,,,,,,,,,,,,,,,,,,,,,,,,,,,,,,,,,,,,,,,,,,,,,
,,,,652be55d3d99a68b56fe7d56,A,2024-07-02_15h05.01.004,Slot Machine Game,2023.1.3,MacIntel,60.24096386,,,,,,,,,15.2691,space,7.0291,,,,,,,,,,,,,,,,,,,,,,,,,,,,,,,,,,,,,,,,,,,,,,,,,,,,,,,,,,,,,,,,,,
,,,,652be55d3d99a68b56fe7d56,A,2024-07-02_15h05.01.004,Slot Machine Game,2023.1.3,MacIntel,60.24096386,,,,,,,,,,,,,,,,,,,,,,,,,,,,,,,,,,,,,,,,,,,,,,,,,,,,,,,,,,,,,,,,,,,,,,,,,,,,,
,,,,652be55d3d99a68b56fe7d56,A,2024-07-02_15h05.01.004,Slot Machine Game,2023.1.3,MacIntel,60.24096386,,,,,,,,,,,,,163.9912,space,4.9222,,,,,,,,,,,,,,,,,,,,,,,,,,,,,,,,,,,,,,,,,,,,,,,,,,,,,,,,,,,,,,
,,,,652be55d3d99a68b56fe7d56,A,2024-07-02_15h05.01.004,Slot Machine Game,2023.1.3,MacIntel,60.24096386,,,,,,,,,,,,,,,,,"[9,15]","[[2,1,3],[2,3,1]]",168.9395,0,0.8869,,up,1,,stimuli/card_100_transparent.png,100,100,0,0,0,0,1,,,,,,,,,,,,,,,,,,,,,,,,,,,,,,,,,,,,,,,,,,,,
,,,,652be55d3d99a68b56fe7d56,A,2024-07-02_15h05.01.004,Slot Machine Game,2023.1.3,MacIntel,60.24096386,,,,,,,,,,,,,,,,,,,171.6485,1,0.3526,,up,1.5,,stimuli/card_0_transparent.png,100,0,1,0,1,0,1,,,,,,,,,,,,,,,,,,,,,,,,,,,,,,,,,,,,,,,,,,,,
,,,,652be55d3d99a68b56fe7d56,A,2024-07-02_15h05.01.004,Slot Machine Game,2023.1.3,MacIntel,60.24096386,,,,,,,,,,,,,,,,,,,174.3336,2,0.1862,,up,1.5,,stimuli/card_100_transparent.png,200,100,2,0,2,0,1,,,,,,,,,,,,,,,,,,,,,,,,,,,,,,,,,,,,,,,,,,,,
,,,,652be55d3d99a68b56fe7d56,A,2024-07-02_15h05.01.004,Slot Machine Game,2023.1.3,MacIntel,60.24096386,,,,,,,,,,,,,,,,,,,176.8517,3,0.7667,,up,1.5,,stimuli/card_0_transparent.png,200,0,3,0,3,0,1,,,,,,,,,,,,,,,,,,,,,,,,,,,,,,,,,,,,,,,,,,,,
,,,,652be55d3d99a68b56fe7d56,A,2024-07-02_15h05.01.004,Slot Machine Game,2023.1.3,MacIntel,60.24096386,,,,,,,,,,,,,,,,,,,179.9383,4,0.5508,,right,0.5,,stimuli/card_0_transparent.png,200,0,4,0,4,0,1,,,,,,,,,,,,,,,,,,,,,,,,,,,,,,,,,,,,,,,,,,,,
,,,,652be55d3d99a68b56fe7d56,A,2024-07-02_15h05.01.004,Slot Machine Game,2023.1.3,MacIntel,60.24096386,,,,,,,,,,,,,,,,,,,181.8054,5,0.9532,,right,1,,stimuli/card_0_transparent.png,200,0,5,0,5,0,1,,,,,,,,,,,,,,,,,,,,,,,,,,,,,,,,,,,,,,,,,,,,
,,,,652be55d3d99a68b56fe7d56,A,2024-07-02_15h05.01.004,Slot Machine Game,2023.1.3,MacIntel,60.24096386,,,,,,,,,,,,,,,,,,,184.5743,6,0.6728,,left,1,,stimuli/card_10_transparent.png,210,10,6,0,6,0,1,,,,,,,,,,,,,,,,,,,,,,,,,,,,,,,,,,,,,,,,,,,,
,,,,652be55d3d99a68b56fe7d56,A,2024-07-02_15h05.01.004,Slot Machine Game,2023.1.3,MacIntel,60.24096386,,,,,,,,,,,,,,,,,,,187.0607,7,0.1597,,left,1.5,,stimuli/card_10_transparent.png,220,10,7,0,7,0,1,,,,,,,,,,,,,,,,,,,,,,,,,,,,,,,,,,,,,,,,,,,,
,,,,652be55d3d99a68b56fe7d56,A,2024-07-02_15h05.01.004,Slot Machine Game,2023.1.3,MacIntel,60.24096386,,,,,,,,,,,,,,,,,,,189.5462,8,0.2689,,up,1,,stimuli/card_100_transparent.png,320,100,8,0,8,0,1,,,,,,,,,,,,,,,,,,,,,,,,,,,,,,,,,,,,,,,,,,,,
,,,,652be55d3d99a68b56fe7d56,A,2024-07-02_15h05.01.004,Slot Machine Game,2023.1.3,MacIntel,60.24096386,,,,,,,,,,,,,,,,,,,191.6306,9,0.3328,,up,1.5,,stimuli/card_0_transparent.png,320,0,9,0,9,0,1,,,,,,,,,,,,,,,,,,,,,,,,,,,,,,,,,,,,,,,,,,,,
,,,,652be55d3d99a68b56fe7d56,A,2024-07-02_15h05.01.004,Slot Machine Game,2023.1.3,MacIntel,60.24096386,,,,,,,,,,,,,,,,,,,194.2834,10,0.257,,up,1.5,,stimuli/card_100_transparent.png,420,100,10,0,10,0,1,,,,,,,,,,,,,,,,,,,,,,,,,,,,,,,,,,,,,,,,,,,,
,,,,652be55d3d99a68b56fe7d56,A,2024-07-02_15h05.01.004,Slot Machine Game,2023.1.3,MacIntel,60.24096386,,,,,,,,,,,,,,,,,,,196.852,11,0.2699,,up,1,,stimuli/card_0_transparent.png,420,0,11,0,11,0,1,,,,,,,,,,,,,,,,,,,,,,,,,,,,,,,,,,,,,,,,,,,,
,,,,652be55d3d99a68b56fe7d56,A,2024-07-02_15h05.01.004,Slot Machine Game,2023.1.3,MacIntel,60.24096386,,,,,,,,,,,,,,,,,,,198.953,12,0.0002,,up,1,,stimuli/card_0_transparent.png,420,0,12,0,12,0,1,,,,,,,,,,,,,,,,,,,,,,,,,,,,,,,,,,,,,,,,,,,,
,,,,652be55d3d99a68b56fe7d56,A,2024-07-02_15h05.01.004,Slot Machine Game,2023.1.3,MacIntel,60.24096386,,,,,,,,,,,,,,,,,,,200.7722,13,0.0867,,left,1,,stimuli/card_10_transparent.png,430,10,13,0,13,0,1,,,,,,,,,,,,,,,,,,,,,,,,,,,,,,,,,,,,,,,,,,,,
,,,,652be55d3d99a68b56fe7d56,A,2024-07-02_15h05.01.004,Slot Machine Game,2023.1.3,MacIntel,60.24096386,,,,,,,,,,,,,,,,,,,202.6903,14,0.0663,,up,0.5,,stimuli/card_10_transparent.png,440,10,14,0,14,0,1,,,,,,,,,,,,,,,,,,,,,,,,,,,,,,,,,,,,,,,,,,,,
,,,,652be55d3d99a68b56fe7d56,A,2024-07-02_15h05.01.004,Slot Machine Game,2023.1.3,MacIntel,60.24096386,,,,,,,,,,,,,,,,,"[6,15]","[[1,3,2],[3,1,2]]",209.0871,0,2.973,,up,1.5,,stimuli/card_0_transparent.png,0,0,0,0,0,0,1,,204.0826,,,,,,,,,,,,,,,,,,,,,,,,,,,,,,,,,,,,,,,,,,
,,,,652be55d3d99a68b56fe7d56,A,2024-07-02_15h05.01.004,Slot Machine Game,2023.1.3,MacIntel,60.24096386,,,,,,,,,,,,,,,,,,,214.3834,1,0.1167,,right,0.5,,stimuli/card_10_transparent.png,10,10,1,0,1,0,1,,,,,,,,,,,,,,,,,,,,,,,,,,,,,,,,,,,,,,,,,,,,
,,,,652be55d3d99a68b56fe7d56,A,2024-07-02_15h05.01.004,Slot Machine Game,2023.1.3,MacIntel,60.24096386,,,,,,,,,,,,,,,,,,,215.8179,2,0.2669,,right,1.5,,stimuli/card_10_transparent.png,20,10,2,0,2,0,1,,,,,,,,,,,,,,,,,,,,,,,,,,,,,,,,,,,,,,,,,,,,
,,,,652be55d3d99a68b56fe7d56,A,2024-07-02_15h05.01.004,Slot Machine Game,2023.1.3,MacIntel,60.24096386,,,,,,,,,,,,,,,,,,,218.4023,3,0.0462,,left,0.5,,stimuli/card_0_transparent.png,20,0,3,0,3,0,1,,,,,,,,,,,,,,,,,,,,,,,,,,,,,,,,,,,,,,,,,,,,
,,,,652be55d3d99a68b56fe7d56,A,2024-07-02_15h05.01.004,Slot Machine Game,2023.1.3,MacIntel,60.24096386,,,,,,,,,,,,,,,,,,,219.7534,4,0.1006,,left,0.5,,stimuli/card_100_transparent.png,120,100,4,0,4,0,1,,,,,,,,,,,,,,,,,,,,,,,,,,,,,,,,,,,,,,,,,,,,
,,,,652be55d3d99a68b56fe7d56,A,2024-07-02_15h05.01.004,Slot Machine Game,2023.1.3,MacIntel,60.24096386,,,,,,,,,,,,,,,,,,,221.1721,5,0.043,,left,1.5,,stimuli/card_100_transparent.png,220,100,5,0,5,0,1,,,,,,,,,,,,,,,,,,,,,,,,,,,,,,,,,,,,,,,,,,,,
,,,,652be55d3d99a68b56fe7d56,A,2024-07-02_15h05.01.004,Slot Machine Game,2023.1.3,MacIntel,60.24096386,,,,,,,,,,,,,,,,,,,223.523,6,0.0676,,left,1,,stimuli/card_0_transparent.png,220,0,6,0,6,0,1,,,,,,,,,,,,,,,,,,,,,,,,,,,,,,,,,,,,,,,,,,,,
,,,,652be55d3d99a68b56fe7d56,A,2024-07-02_15h05.01.004,Slot Machine Game,2023.1.3,MacIntel,60.24096386,,,,,,,,,,,,,,,,,,,225.4092,7,0.2091,,left,1,,stimuli/card_0_transparent.png,220,0,7,0,7,0,1,,,,,,,,,,,,,,,,,,,,,,,,,,,,,,,,,,,,,,,,,,,,
,,,,652be55d3d99a68b56fe7d56,A,2024-07-02_15h05.01.004,Slot Machine Game,2023.1.3,MacIntel,60.24096386,,,,,,,,,,,,,,,,,,,227.444,8,0.1891,,up,0.5,,stimuli/card_100_transparent.png,320,100,8,0,8,0,1,,,,,,,,,,,,,,,,,,,,,,,,,,,,,,,,,,,,,,,,,,,,
,,,,652be55d3d99a68b56fe7d56,A,2024-07-02_15h05.01.004,Slot Machine Game,2023.1.3,MacIntel,60.24096386,,,,,,,,,,,,,,,,,,,228.962,9,0.0502,,up,0.5,,stimuli/card_100_transparent.png,420,100,9,0,9,0,1,,,,,,,,,,,,,,,,,,,,,,,,,,,,,,,,,,,,,,,,,,,,
,,,,652be55d3d99a68b56fe7d56,A,2024-07-02_15h05.01.004,Slot Machine Game,2023.1.3,MacIntel,60.24096386,,,,,,,,,,,,,,,,,,,230.3291,10,0.1219,,up,1.5,,stimuli/card_100_transparent.png,520,100,10,0,10,0,1,,,,,,,,,,,,,,,,,,,,,,,,,,,,,,,,,,,,,,,,,,,,
,,,,652be55d3d99a68b56fe7d56,A,2024-07-02_15h05.01.004,Slot Machine Game,2023.1.3,MacIntel,60.24096386,,,,,,,,,,,,,,,,,,,232.7648,11,0.1619,,up,1,,stimuli/card_100_transparent.png,620,100,11,0,11,0,1,,,,,,,,,,,,,,,,,,,,,,,,,,,,,,,,,,,,,,,,,,,,
,,,,652be55d3d99a68b56fe7d56,A,2024-07-02_15h05.01.004,Slot Machine Game,2023.1.3,MacIntel,60.24096386,,,,,,,,,,,,,,,,,,,234.7325,12,0.1081,,up,1.5,,stimuli/card_100_transparent.png,720,100,12,0,12,0,1,,,,,,,,,,,,,,,,,,,,,,,,,,,,,,,,,,,,,,,,,,,,
,,,,652be55d3d99a68b56fe7d56,A,2024-07-02_15h05.01.004,Slot Machine Game,2023.1.3,MacIntel,60.24096386,,,,,,,,,,,,,,,,,,,237.1521,13,0.1607,,up,1,,stimuli/card_100_transparent.png,820,100,13,0,13,0,1,,,,,,,,,,,,,,,,,,,,,,,,,,,,,,,,,,,,,,,,,,,,
,,,,652be55d3d99a68b56fe7d56,A,2024-07-02_15h05.01.004,Slot Machine Game,2023.1.3,MacIntel,60.24096386,,,,,,,,,,,,,,,,,,,239.1204,14,0.0003,,up,1,,stimuli/card_100_transparent.png,920,100,14,0,14,0,1,,,,,,,,,,,,,,,,,,,,,,,,,,,,,,,,,,,,,,,,,,,,
,,,,652be55d3d99a68b56fe7d56,A,2024-07-02_15h05.01.004,Slot Machine Game,2023.1.3,MacIntel,60.24096386,,,,,,,,,,,,,,,,,,,,,,,,,,,,,,,,,,,240.9541,,,245.9424,space,2.1653,,,,,,,,,,,,,,,,,,,,,,,,,,,,,,,,,,,,,
,,,,652be55d3d99a68b56fe7d56,A,2024-07-02_15h05.01.004,Slot Machine Game,2023.1.3,MacIntel,60.24096386,,,,,,,,,,,,,,,,,,,,,,,,,,,,,,,,,,,,,,,,,,248.1277,1,"[0,1,2,3,4,5,6,7,8,9]",space,2.3858,,,,,,,,,,,,,,,,,,,,,,,,,,,,,,,
,,,,652be55d3d99a68b56fe7d56,A,2024-07-02_15h05.01.004,Slot Machine Game,2023.1.3,MacIntel,60.24096386,,,,,,,,,,,,,,,,,,,,,,,,,,,0,,,,,,,,,,,,,,,,,,,,,1,1,"[12,15]","[[2,1,3],[2,3,1]]",250.5391,0,up,0.4354,,0.5,0.3,"[2,1,3]",0.015168586,stimuli/card_0_transparent.png,0,0,0,0,0,1,,,,,,,,,,
,,,,652be55d3d99a68b56fe7d56,A,2024-07-02_15h05.01.004,Slot Machine Game,2023.1.3,MacIntel,60.24096386,,,,,,,,,,,,,,,,,,,,,,,,,,,10,,,,,,,,,,,,,,,,,,,,,1,1,,,252.2981,1,left,0.0085,,1,0.3,"[2,1,3]",0.915399014,stimuli/card_10_transparent.png,10,1,0,1,0,1,,,,,,,,,,
,,,,652be55d3d99a68b56fe7d56,A,2024-07-02_15h05.01.004,Slot Machine Game,2023.1.3,MacIntel,60.24096386,,,,,,,,,,,,,,,,,,,,,,,,,,,10,,,,,,,,,,,,,,,,,,,,,1,1,,,254.1327,2,right,0.1747,,0.5,0.3,"[2,1,3]",0.90778507,stimuli/card_0_transparent.png,0,2,0,2,0,1,,,,,,,,,,
,,,,652be55d3d99a68b56fe7d56,A,2024-07-02_15h05.01.004,Slot Machine Game,2023.1.3,MacIntel,60.24096386,,,,,,,,,,,,,,,,,,,,,,,,,,,20,,,,,,,,,,,,,,,,,,,,,1,1,,,255.633,3,left,0.0076,,1.5,0.3,"[2,1,3]",0.82362587,stimuli/card_10_transparent.png,10,3,0,3,0,1,,,,,,,,,,
,,,,652be55d3d99a68b56fe7d56,A,2024-07-02_15h05.01.004,Slot Machine Game,2023.1.3,MacIntel,60.24096386,,,,,,,,,,,,,,,,,,,,,,,,,,,120,,,,,,,,,,,,,,,,,,,,,1,1,,,257.9525,4,up,0.2324,,0.5,0.3,"[2,1,3]",0.503336243,stimuli/card_100_transparent.png,100,4,0,4,0,1,,,,,,,,,,
,,,,652be55d3d99a68b56fe7d56,A,2024-07-02_15h05.01.004,Slot Machine Game,2023.1.3,MacIntel,60.24096386,,,,,,,,,,,,,,,,,,,,,,,,,,,220,,,,,,,,,,,,,,,,,,,,,1,1,,,259.5037,5,up,0.0661,,0.5,0.3,"[2,1,3]",0.736859261,stimuli/card_100_transparent.png,100,5,0,5,0,1,,,,,,,,,,
,,,,652be55d3d99a68b56fe7d56,A,2024-07-02_15h05.01.004,Slot Machine Game,2023.1.3,MacIntel,60.24096386,,,,,,,,,,,,,,,,,,,,,,,,,,,320,,,,,,,,,,,,,,,,,,,,,1,1,,,260.8884,6,up,0.1834,,1,0.3,"[2,1,3]",0.247572905,stimuli/card_100_transparent.png,100,6,0,6,0,1,,,,,,,,,,
,,,,652be55d3d99a68b56fe7d56,A,2024-07-02_15h05.01.004,Slot Machine Game,2023.1.3,MacIntel,60.24096386,,,,,,,,,,,,,,,,,,,,,,,,,,,320,,,,,,,,,,,,,,,,,,,,,1,1,,,262.9061,7,up,0.176,,1.5,0.3,"[2,1,3]",0.015876358,stimuli/card_0_transparent.png,0,7,0,7,0,1,,,,,,,,,,
,,,,652be55d3d99a68b56fe7d56,A,2024-07-02_15h05.01.004,Slot Machine Game,2023.1.3,MacIntel,60.24096386,,,,,,,,,,,,,,,,,,,,,,,,,,,320,,,,,,,,,,,,,,,,,,,,,1,1,,,265.4087,8,up,0.3192,,1,0.3,"[2,1,3]",0.02873234,stimuli/card_0_transparent.png,0,8,0,8,0,1,,,,,,,,,,
,,,,652be55d3d99a68b56fe7d56,A,2024-07-02_15h05.01.004,Slot Machine Game,2023.1.3,MacIntel,60.24096386,,,,,,,,,,,,,,,,,,,,,,,,,,,330,,,,,,,,,,,,,,,,,,,,,1,1,,,267.5598,9,left,0.0165,,1.5,0.3,"[2,1,3]",0.379024965,stimuli/card_10_transparent.png,10,9,0,9,0,1,,,,,,,,,,
,,,,652be55d3d99a68b56fe7d56,A,2024-07-02_15h05.01.004,Slot Machine Game,2023.1.3,MacIntel,60.24096386,,,,,,,,,,,,,,,,,,,,,,,,,,,340,,,,,,,,,,,,,,,,,,,,,1,1,,,269.8957,10,left,0.1917,,1.5,0.3,"[2,1,3]",0.522838964,stimuli/card_10_transparent.png,10,10,0,10,0,1,,,,,,,,,,
,,,,652be55d3d99a68b56fe7d56,A,2024-07-02_15h05.01.004,Slot Machine Game,2023.1.3,MacIntel,60.24096386,,,,,,,,,,,,,,,,,,,,,,,,,,,440,,,,,,,,,,,,,,,,,,,,,1,1,,,272.3979,11,up,0.1163,,1,0.3,"[2,1,3]",0.970935816,stimuli/card_100_transparent.png,100,11,0,11,0,1,,,,,,,,,,
,,,,652be55d3d99a68b56fe7d56,A,2024-07-02_15h05.01.004,Slot Machine Game,2023.1.3,MacIntel,60.24096386,,,,,,,,,,,,,,,,,,,,,,,,,,,440,,,,,,,,,,,,,,,,,,,,,1,1,,,274.3486,12,up,0.0236,,1.5,0.3,"[2,3,1]",0.76342201,stimuli/card_0_transparent.png,0,12,0,12,0,1,,,,,,,,,,
,,,,652be55d3d99a68b56fe7d56,A,2024-07-02_15h05.01.004,Slot Machine Game,2023.1.3,MacIntel,60.24096386,,,,,,,,,,,,,,,,,,,,,,,,,,,450,,,,,,,,,,,,,,,,,,,,,1,1,,,276.6848,13,up,0.0273,,1.5,0.3,"[2,3,1]",0.150193577,stimuli/card_10_transparent.png,10,13,0,13,0,1,,,,,,,,,,
,,,,652be55d3d99a68b56fe7d56,A,2024-07-02_15h05.01.004,Slot Machine Game,2023.1.3,MacIntel,60.24096386,,,,,,,,,,,,,,,,,,,,,,,,,,,460,,,,,,,,,,,,,,,,,,,,,1,1,,,279.0199,14,up,0.0571,,1.5,0.3,"[2,3,1]",0.148734331,stimuli/card_10_transparent.png,10,14,0,14,0,1,,,,,,,,,,
,,,,652be55d3d99a68b56fe7d56,A,2024-07-02_15h05.01.004,Slot Machine Game,2023.1.3,MacIntel,60.24096386,,,,,,,,,,,,,,,,,,,,,,,,,,,,,,,,,,,281.3874,,,,,,,,,,,,,,,,,,,,,,,,,,,,,,,,,[460],0,0,0,0,1,,,,
,,,,652be55d3d99a68b56fe7d56,A,2024-07-02_15h05.01.004,Slot Machine Game,2023.1.3,MacIntel,60.24096386,,,,,,,,,,,,,,,,,,,,,,,,,,,10,,,,,,,,,,,,,,,,,,,,,2,2,"[6,15]","[[1,3,2],[3,2,1]]",286.3837,0,right,0.1677,,1,0.3,"[1,3,2]",0.358770979,stimuli/card_10_transparent.png,10,0,0,0,0,1,,,,,,,,,,
,,,,652be55d3d99a68b56fe7d56,A,2024-07-02_15h05.01.004,Slot Machine Game,2023.1.3,MacIntel,60.24096386,,,,,,,,,,,,,,,,,,,,,,,,,,,20,,,,,,,,,,,,,,,,,,,,,2,2,,,288.3766,1,right,0.0829,,0.5,0.3,"[1,3,2]",0.274308487,stimuli/card_10_transparent.png,10,1,0,1,0,1,,,,,,,,,,
,,,,652be55d3d99a68b56fe7d56,A,2024-07-02_15h05.01.004,Slot Machine Game,2023.1.3,MacIntel,60.24096386,,,,,,,,,,,,,,,,,,,,,,,,,,,20,,,,,,,,,,,,,,,,,,,,,2,2,,,289.778,2,left,0.2,,0.5,0.3,"[1,3,2]",0.081305425,stimuli/card_0_transparent.png,0,2,0,2,0,1,,,,,,,,,,
,,,,652be55d3d99a68b56fe7d56,A,2024-07-02_15h05.01.004,Slot Machine Game,2023.1.3,MacIntel,60.24096386,,,,,,,,,,,,,,,,,,,,,,,,,,,120,,,,,,,,,,,,,,,,,,,,,2,2,,,291.2963,3,left,0.1439,,0.5,0.3,"[1,3,2]",0.745957838,stimuli/card_100_transparent.png,100,3,0,3,0,1,,,,,,,,,,
,,,,652be55d3d99a68b56fe7d56,A,2024-07-02_15h05.01.004,Slot Machine Game,2023.1.3,MacIntel,60.24096386,,,,,,,,,,,,,,,,,,,,,,,,,,,220,,,,,,,,,,,,,,,,,,,,,2,2,,,292.7477,4,left,0.1279,,1.5,0.3,"[1,3,2]",0.420818594,stimuli/card_100_transparent.png,100,4,0,4,0,1,,,,,,,,,,
,,,,652be55d3d99a68b56fe7d56,A,2024-07-02_15h05.01.004,Slot Machine Game,2023.1.3,MacIntel,60.24096386,,,,,,,,,,,,,,,,,,,,,,,,,,,320,,,,,,,,,,,,,,,,,,,,,2,2,,,295.1989,5,left,0.0093,,0.5,0.3,"[1,3,2]",0.843435476,stimuli/card_100_transparent.png,100,5,0,5,0,1,,,,,,,,,,
,,,,652be55d3d99a68b56fe7d56,A,2024-07-02_15h05.01.004,Slot Machine Game,2023.1.3,MacIntel,60.24096386,,,,,,,,,,,,,,,,,,,,,,,,,,,320,,,,,,,,,,,,,,,,,,,,,2,2,,,296.5166,6,left,0.0084,,0.5,0.3,"[3,2,1]",0.376915449,stimuli/card_0_transparent.png,0,6,0,6,0,1,,,,,,,,,,
,,,,652be55d3d99a68b56fe7d56,A,2024-07-02_15h05.01.004,Slot Machine Game,2023.1.3,MacIntel,60.24096386,,,,,,,,,,,,,,,,,,,,,,,,,,,420,,,,,,,,,,,,,,,,,,,,,2,2,,,297.8353,7,left,0.0838,,1,0.3,"[3,2,1]",0.054458474,stimuli/card_100_transparent.png,100,7,0,7,0,1,,,,,,,,,,
,,,,652be55d3d99a68b56fe7d56,A,2024-07-02_15h05.01.004,Slot Machine Game,2023.1.3,MacIntel,60.24096386,,,,,,,,,,,,,,,,,,,,,,,,,,,420,,,,,,,,,,,,,,,,,,,,,2,2,,,299.7369,8,left,0.241,,1,0.3,"[3,2,1]",0.403697131,stimuli/card_0_transparent.png,0,8,0,8,0,1,,,,,,,,,,
,,,,652be55d3d99a68b56fe7d56,A,2024-07-02_15h05.01.004,Slot Machine Game,2023.1.3,MacIntel,60.24096386,,,,,,,,,,,,,,,,,,,,,,,,,,,420,,,,,,,,,,,,,,,,,,,,,2,2,,,301.7875,9,left,0.0169,,1.5,0.3,"[3,2,1]",0.504097862,stimuli/card_0_transparent.png,0,9,0,9,0,1,,,,,,,,,,
,,,,652be55d3d99a68b56fe7d56,A,2024-07-02_15h05.01.004,Slot Machine Game,2023.1.3,MacIntel,60.24096386,,,,,,,,,,,,,,,,,,,,,,,,,,,430,,,,,,,,,,,,,,,,,,,,,2,2,,,304.124,10,up,0.0407,,0.5,0.3,"[3,2,1]",0.944853928,stimuli/card_10_transparent.png,10,10,0,10,0,1,,,,,,,,,,
,,,,652be55d3d99a68b56fe7d56,A,2024-07-02_15h05.01.004,Slot Machine Game,2023.1.3,MacIntel,60.24096386,,,,,,,,,,,,,,,,,,,,,,,,,,,430,,,,,,,,,,,,,,,,,,,,,2,2,,,305.4745,11,up,0.1071,,1.5,0.3,"[3,2,1]",0.0827022,stimuli/card_0_transparent.png,0,11,0,11,0,1,,,,,,,,,,
,,,,652be55d3d99a68b56fe7d56,A,2024-07-02_15h05.01.004,Slot Machine Game,2023.1.3,MacIntel,60.24096386,,,,,,,,,,,,,,,,,,,,,,,,,,,440,,,,,,,,,,,,,,,,,,,,,2,2,,,307.8929,12,up,0.2324,,0.5,0.3,"[3,2,1]",0.988941288,stimuli/card_10_transparent.png,10,12,0,12,0,1,,,,,,,,,,
,,,,652be55d3d99a68b56fe7d56,A,2024-07-02_15h05.01.004,Slot Machine Game,2023.1.3,MacIntel,60.24096386,,,,,,,,,,,,,,,,,,,,,,,,,,,450,,,,,,,,,,,,,,,,,,,,,2,2,,,309.445,13,up,0.0932,,1,0.3,"[3,2,1]",0.658905999,stimuli/card_10_transparent.png,10,13,0,13,0,1,,,,,,,,,,
,,,,652be55d3d99a68b56fe7d56,A,2024-07-02_15h05.01.004,Slot Machine Game,2023.1.3,MacIntel,60.24096386,,,,,,,,,,,,,,,,,,,,,,,,,,,450,,,,,,,,,,,,,,,,,,,,,2,2,,,311.3622,14,left,0.1498,,1.5,0.3,"[3,2,1]",0.630118226,stimuli/card_0_transparent.png,0,14,0,14,0,1,,,,,,,,,,
,,,,652be55d3d99a68b56fe7d56,A,2024-07-02_15h05.01.004,Slot Machine Game,2023.1.3,MacIntel,60.24096386,,,,,,,,,,,,,,,,,,,,,,,,,,,,,,,,,,,313.8319,,,,,,,,,,,,,,,,,,,,,,,,,,,,,,,,,"[460,450]",1,0,1,0,1,,,,
,,,,652be55d3d99a68b56fe7d56,A,2024-07-02_15h05.01.004,Slot Machine Game,2023.1.3,MacIntel,60.24096386,,,,,,,,,,,,,,,,,,,,,,,,,,,10,,,,,,,,,,,,,,,,,,,,,3,3,"[15,15]","[[3,1,2],[3,1,2]]",318.8275,0,right,0.1106,,0.5,0.3,"[3,1,2]",0.929673951,stimuli/card_10_transparent.png,10,0,0,0,0,1,,,,,,,,,,
,,,,652be55d3d99a68b56fe7d56,A,2024-07-02_15h05.01.004,Slot Machine Game,2023.1.3,MacIntel,60.24096386,,,,,,,,,,,,,,,,,,,,,,,,,,,10,,,,,,,,,,,,,,,,,,,,,3,3,,,320.2535,1,right,0.122,,1,0.3,"[3,1,2]",0.02495868,stimuli/card_0_transparent.png,0,1,0,1,0,1,,,,,,,,,,
,,,,652be55d3d99a68b56fe7d56,A,2024-07-02_15h05.01.004,Slot Machine Game,2023.1.3,MacIntel,60.24096386,,,,,,,,,,,,,,,,,,,,,,,,,,,20,,,,,,,,,,,,,,,,,,,,,3,3,,,322.1889,2,left,0.1438,,1,0.3,"[3,1,2]",0.186485011,stimuli/card_10_transparent.png,10,2,0,2,0,1,,,,,,,,,,
,,,,652be55d3d99a68b56fe7d56,A,2024-07-02_15h05.01.004,Slot Machine Game,2023.1.3,MacIntel,60.24096386,,,,,,,,,,,,,,,,,,,,,,,,,,,20,,,,,,,,,,,,,,,,,,,,,3,3,,,324.1406,3,left,0.0108,,1.5,0.3,"[3,1,2]",0.22704072,stimuli/card_0_transparent.png,0,3,0,3,0,1,,,,,,,,,,
,,,,652be55d3d99a68b56fe7d56,A,2024-07-02_15h05.01.004,Slot Machine Game,2023.1.3,MacIntel,60.24096386,,,,,,,,,,,,,,,,,,,,,,,,,,,20,,,,,,,,,,,,,,,,,,,,,3,3,,,326.4746,4,left,0.0446,,1.5,0.3,"[3,1,2]",0.763359812,stimuli/card_0_transparent.png,0,4,0,4,0,1,,,,,,,,,,
,,,,652be55d3d99a68b56fe7d56,A,2024-07-02_15h05.01.004,Slot Machine Game,2023.1.3,MacIntel,60.24096386,,,,,,,,,,,,,,,,,,,,,,,,,,,120,,,,,,,,,,,,,,,,,,,,,3,3,,,328.8276,5,up,0.0852,,1,0.3,"[3,1,2]",0.34021603,stimuli/card_100_transparent.png,100,5,0,5,0,1,,,,,,,,,,
,,,,652be55d3d99a68b56fe7d56,A,2024-07-02_15h05.01.004,Slot Machine Game,2023.1.3,MacIntel,60.24096386,,,,,,,,,,,,,,,,,,,,,,,,,,,220,,,,,,,,,,,,,,,,,,,,,3,3,,,330.746,6,up,0.0498,,1.5,0.3,"[3,1,2]",0.928396593,stimuli/card_100_transparent.png,100,6,0,6,0,1,,,,,,,,,,
,,,,652be55d3d99a68b56fe7d56,A,2024-07-02_15h05.01.004,Slot Machine Game,2023.1.3,MacIntel,60.24096386,,,,,,,,,,,,,,,,,,,,,,,,,,,320,,,,,,,,,,,,,,,,,,,,,3,3,,,333.1147,7,up,0.1707,,1.5,0.3,"[3,1,2]",0.530591548,stimuli/card_100_transparent.png,100,7,0,7,0,1,,,,,,,,,,
,,,,652be55d3d99a68b56fe7d56,A,2024-07-02_15h05.01.004,Slot Machine Game,2023.1.3,MacIntel,60.24096386,,,,,,,,,,,,,,,,,,,,,,,,,,,330,,,,,,,,,,,,,,,,,,,,,3,3,,,335.6166,8,up,0.167,,0.5,0.3,"[3,1,2]",0.104362809,stimuli/card_10_transparent.png,10,8,0,8,0,1,,,,,,,,,,
,,,,652be55d3d99a68b56fe7d56,A,2024-07-02_15h05.01.004,Slot Machine Game,2023.1.3,MacIntel,60.24096386,,,,,,,,,,,,,,,,,,,,,,,,,,,330,,,,,,,,,,,,,,,,,,,,,3,3,,,337.1167,9,up,0.1357,,1,0.3,"[3,1,2]",0.062205741,stimuli/card_0_transparent.png,0,9,0,9,0,1,,,,,,,,,,
,,,,652be55d3d99a68b56fe7d56,A,2024-07-02_15h05.01.004,Slot Machine Game,2023.1.3,MacIntel,60.24096386,,,,,,,,,,,,,,,,,,,,,,,,,,,430,,,,,,,,,,,,,,,,,,,,,3,3,,,339.0684,10,up,0.1518,,1,0.3,"[3,1,2]",0.750498134,stimuli/card_100_transparent.png,100,10,0,10,0,1,,,,,,,,,,
,,,,652be55d3d99a68b56fe7d56,A,2024-07-02_15h05.01.004,Slot Machine Game,2023.1.3,MacIntel,60.24096386,,,,,,,,,,,,,,,,,,,,,,,,,,,440,,,,,,,,,,,,,,,,,,,,,3,3,,,341.0367,11,up,0.0402,,1.5,0.3,"[3,1,2]",0.1236011,stimuli/card_10_transparent.png,10,11,0,11,0,1,,,,,,,,,,
,,,,652be55d3d99a68b56fe7d56,A,2024-07-02_15h05.01.004,Slot Machine Game,2023.1.3,MacIntel,60.24096386,,,,,,,,,,,,,,,,,,,,,,,,,,,540,,,,,,,,,,,,,,,,,,,,,3,3,,,343.389,12,up,0.2193,,1.5,0.3,"[3,1,2]",0.499104444,stimuli/card_100_transparent.png,100,12,0,12,0,1,,,,,,,,,,
,,,,652be55d3d99a68b56fe7d56,A,2024-07-02_15h05.01.004,Slot Machine Game,2023.1.3,MacIntel,60.24096386,,,,,,,,,,,,,,,,,,,,,,,,,,,640,,,,,,,,,,,,,,,,,,,,,3,3,,,345.9241,13,up,0.1912,,0.5,0.3,"[3,1,2]",0.805508923,stimuli/card_100_transparent.png,100,13,0,13,0,1,,,,,,,,,,
,,,,652be55d3d99a68b56fe7d56,A,2024-07-02_15h05.01.004,Slot Machine Game,2023.1.3,MacIntel,60.24096386,,,,,,,,,,,,,,,,,,,,,,,,,,,650,,,,,,,,,,,,,,,,,,,,,3,3,,,347.4259,14,up,0.0059,,0.5,0.3,"[3,1,2]",0.174504864,stimuli/card_10_transparent.png,10,14,0,14,0,1,,,,,,,,,,
,,,,652be55d3d99a68b56fe7d56,A,2024-07-02_15h05.01.004,Slot Machine Game,2023.1.3,MacIntel,60.24096386,,,,,,,,,,,,,,,,,,,,,,,,,,,,,,,,,,,348.7441,,,,,,,,,,,,,,,,,,,,,,,,,,,,,,,,,"[460,450,650]",2,0,2,0,1,,,,
,,,,652be55d3d99a68b56fe7d56,A,2024-07-02_15h05.01.004,Slot Machine Game,2023.1.3,MacIntel,60.24096386,,,,,,,,,,,,,,,,,,,,,,,,,,,100,,,,,,,,,,,,,,,,,,,,,4,4,"[7,15]","[[2,3,1],[1,2,3]]",353.7558,0,right,0.1842,,0.5,0.3,"[2,3,1]",0.740502444,stimuli/card_100_transparent.png,100,0,0,0,0,1,,,,,,,,,,
,,,,652be55d3d99a68b56fe7d56,A,2024-07-02_15h05.01.004,Slot Machine Game,2023.1.3,MacIntel,60.24096386,,,,,,,,,,,,,,,,,,,,,,,,,,,200,,,,,,,,,,,,,,,,,,,,,4,4,,,355.2657,1,right,0.0587,,0.5,0.3,"[2,3,1]",0.782124553,stimuli/card_100_transparent.png,100,1,0,1,0,1,,,,,,,,,,
,,,,652be55d3d99a68b56fe7d56,A,2024-07-02_15h05.01.004,Slot Machine Game,2023.1.3,MacIntel,60.24096386,,,,,,,,,,,,,,,,,,,,,,,,,,,300,,,,,,,,,,,,,,,,,,,,,4,4,,,356.6505,2,right,0.2061,,1.5,0.3,"[2,3,1]",0.966958278,stimuli/card_100_transparent.png,100,2,0,2,0,1,,,,,,,,,,
,,,,652be55d3d99a68b56fe7d56,A,2024-07-02_15h05.01.004,Slot Machine Game,2023.1.3,MacIntel,60.24096386,,,,,,,,,,,,,,,,,,,,,,,,,,,400,,,,,,,,,,,,,,,,,,,,,4,4,,,359.1858,3,right,0.1852,,1,0.3,"[2,3,1]",0.551481349,stimuli/card_100_transparent.png,100,3,0,3,0,1,,,,,,,,,,
,,,,652be55d3d99a68b56fe7d56,A,2024-07-02_15h05.01.004,Slot Machine Game,2023.1.3,MacIntel,60.24096386,,,,,,,,,,,,,,,,,,,,,,,,,,,500,,,,,,,,,,,,,,,,,,,,,4,4,,,361.1876,4,right,0.0757,,1,0.3,"[2,3,1]",0.498580517,stimuli/card_100_transparent.png,100,4,0,4,0,1,,,,,,,,,,
,,,,652be55d3d99a68b56fe7d56,A,2024-07-02_15h05.01.004,Slot Machine Game,2023.1.3,MacIntel,60.24096386,,,,,,,,,,,,,,,,,,,,,,,,,,,600,,,,,,,,,,,,,,,,,,,,,4,4,,,363.0717,5,right,0.0827,,1,0.3,"[2,3,1]",0.510203893,stimuli/card_100_transparent.png,100,5,0,5,0,1,,,,,,,,,,
,,,,652be55d3d99a68b56fe7d56,A,2024-07-02_15h05.01.004,Slot Machine Game,2023.1.3,MacIntel,60.24096386,,,,,,,,,,,,,,,,,,,,,,,,,,,700,,,,,,,,,,,,,,,,,,,,,4,4,,,364.9741,6,right,0.1829,,1.5,0.3,"[2,3,1]",0.940236764,stimuli/card_100_transparent.png,100,6,0,6,0,1,,,,,,,,,,
,,,,652be55d3d99a68b56fe7d56,A,2024-07-02_15h05.01.004,Slot Machine Game,2023.1.3,MacIntel,60.24096386,,,,,,,,,,,,,,,,,,,,,,,,,,,700,,,,,,,,,,,,,,,,,,,,,4,4,,,367.4752,7,right,0.1865,,1,0.3,"[1,2,3]",0.390926695,stimuli/card_0_transparent.png,0,7,0,7,0,1,,,,,,,,,,
,,,,652be55d3d99a68b56fe7d56,A,2024-07-02_15h05.01.004,Slot Machine Game,2023.1.3,MacIntel,60.24096386,,,,,,,,,,,,,,,,,,,,,,,,,,,700,,,,,,,,,,,,,,,,,,,,,4,4,,,369.4778,8,right,0.1935,,1.5,0.3,"[1,2,3]",0.866690695,stimuli/card_0_transparent.png,0,8,0,8,0,1,,,,,,,,,,
,,,,652be55d3d99a68b56fe7d56,A,2024-07-02_15h05.01.004,Slot Machine Game,2023.1.3,MacIntel,60.24096386,,,,,,,,,,,,,,,,,,,,,,,,,,,700,,,,,,,,,,,,,,,,,,,,,4,4,,,371.9965,9,right,0.0497,,0.5,0.3,"[1,2,3]",0.612499878,stimuli/card_0_transparent.png,0,9,0,9,0,1,,,,,,,,,,
,,,,652be55d3d99a68b56fe7d56,A,2024-07-02_15h05.01.004,Slot Machine Game,2023.1.3,MacIntel,60.24096386,,,,,,,,,,,,,,,,,,,,,,,,,,,800,,,,,,,,,,,,,,,,,,,,,4,4,,,373.381,10,right,0.0034,,0.5,0.3,"[1,2,3]",0.096830204,stimuli/card_100_transparent.png,100,10,0,10,0,1,,,,,,,,,,
,,,,652be55d3d99a68b56fe7d56,A,2024-07-02_15h05.01.004,Slot Machine Game,2023.1.3,MacIntel,60.24096386,,,,,,,,,,,,,,,,,,,,,,,,,,,800,,,,,,,,,,,,,,,,,,,,,4,4,,,374.7152,11,right,0.1366,,1.5,0.3,"[1,2,3]",0.656902609,stimuli/card_0_transparent.png,0,11,0,11,0,1,,,,,,,,,,
,,,,652be55d3d99a68b56fe7d56,A,2024-07-02_15h05.01.004,Slot Machine Game,2023.1.3,MacIntel,60.24096386,,,,,,,,,,,,,,,,,,,,,,,,,,,800,,,,,,,,,,,,,,,,,,,,,4,4,,,377.1664,12,right,0.5527,,1,0.3,"[1,2,3]",0.700004664,stimuli/card_0_transparent.png,0,12,0,12,0,1,,,,,,,,,,
,,,,652be55d3d99a68b56fe7d56,A,2024-07-02_15h05.01.004,Slot Machine Game,2023.1.3,MacIntel,60.24096386,,,,,,,,,,,,,,,,,,,,,,,,,,,800,,,,,,,,,,,,,,,,,,,,,4,4,,,379.5349,13,right,0.0506,,1.5,0.3,"[1,2,3]",0.904112806,stimuli/card_0_transparent.png,0,13,0,13,0,1,,,,,,,,,,
,,,,652be55d3d99a68b56fe7d56,A,2024-07-02_15h05.01.004,Slot Machine Game,2023.1.3,MacIntel,60.24096386,,,,,,,,,,,,,,,,,,,,,,,,,,,810,,,,,,,,,,,,,,,,,,,,,4,4,,,381.9045,14,up,0.0234,,1.5,0.3,"[1,2,3]",0.619612176,stimuli/card_10_transparent.png,10,14,0,14,0,1,,,,,,,,,,
,,,,652be55d3d99a68b56fe7d56,A,2024-07-02_15h05.01.004,Slot Machine Game,2023.1.3,MacIntel,60.24096386,,,,,,,,,,,,,,,,,,,,,,,,,,,,,,,,,,,384.2401,,,,,,,,,,,,,,,,,,,,,,,,,,,,,,,,,"[460,450,650,810]",3,0,3,0,1,,,,
,,,,652be55d3d99a68b56fe7d56,A,2024-07-02_15h05.01.004,Slot Machine Game,2023.1.3,MacIntel,60.24096386,,,,,,,,,,,,,,,,,,,,,,,,,,,100,,,,,,,,,,,,,,,,,,,,,5,5,"[5,15]","[[1,2,3],[3,1,2]]",389.2521,0,up,0.6331,,1.5,0.3,"[1,2,3]",0.179432083,stimuli/card_100_transparent.png,100,0,0,0,0,1,,,,,,,,,,
,,,,652be55d3d99a68b56fe7d56,A,2024-07-02_15h05.01.004,Slot Machine Game,2023.1.3,MacIntel,60.24096386,,,,,,,,,,,,,,,,,,,,,,,,,,,110,,,,,,,,,,,,,,,,,,,,,5,5,,,392.2134,1,up,0.0406,,1,0.3,"[1,2,3]",0.852632223,stimuli/card_10_transparent.png,10,1,0,1,0,1,,,,,,,,,,
,,,,652be55d3d99a68b56fe7d56,A,2024-07-02_15h05.01.004,Slot Machine Game,2023.1.3,MacIntel,60.24096386,,,,,,,,,,,,,,,,,,,,,,,,,,,120,,,,,,,,,,,,,,,,,,,,,5,5,,,394.0644,2,up,0.2392,,1,0.3,"[1,2,3]",0.860572991,stimuli/card_10_transparent.png,10,2,0,2,0,1,,,,,,,,,,
,,,,652be55d3d99a68b56fe7d56,A,2024-07-02_15h05.01.004,Slot Machine Game,2023.1.3,MacIntel,60.24096386,,,,,,,,,,,,,,,,,,,,,,,,,,,130,,,,,,,,,,,,,,,,,,,,,5,5,,,396.1155,3,up,0.1004,,1,0.3,"[1,2,3]",0.204472988,stimuli/card_10_transparent.png,10,3,0,3,0,1,,,,,,,,,,
,,,,652be55d3d99a68b56fe7d56,A,2024-07-02_15h05.01.004,Slot Machine Game,2023.1.3,MacIntel,60.24096386,,,,,,,,,,,,,,,,,,,,,,,,,,,230,,,,,,,,,,,,,,,,,,,,,5,5,,,398.0346,4,up,0.121,,1.5,0.3,"[1,2,3]",0.188988553,stimuli/card_100_transparent.png,100,4,0,4,0,1,,,,,,,,,,
,,,,652be55d3d99a68b56fe7d56,A,2024-07-02_15h05.01.004,Slot Machine Game,2023.1.3,MacIntel,60.24096386,,,,,,,,,,,,,,,,,,,,,,,,,,,330,,,,,,,,,,,,,,,,,,,,,5,5,,,400.4857,5,up,0.0272,,1.5,0.3,"[3,1,2]",0.549773275,stimuli/card_100_transparent.png,100,5,0,5,0,1,,,,,,,,,,
,,,,652be55d3d99a68b56fe7d56,A,2024-07-02_15h05.01.004,Slot Machine Game,2023.1.3,MacIntel,60.24096386,,,,,,,,,,,,,,,,,,,,,,,,,,,430,,,,,,,,,,,,,,,,,,,,,5,5,,,402.8219,6,up,0.0206,,1,0.3,"[3,1,2]",0.428893161,stimuli/card_100_transparent.png,100,6,0,6,0,1,,,,,,,,,,
,,,,652be55d3d99a68b56fe7d56,A,2024-07-02_15h05.01.004,Slot Machine Game,2023.1.3,MacIntel,60.24096386,,,,,,,,,,,,,,,,,,,,,,,,,,,430,,,,,,,,,,,,,,,,,,,,,5,5,,,404.6567,7,up,0.2055,,1,0.3,"[3,1,2]",0.085918047,stimuli/card_0_transparent.png,0,7,0,7,0,1,,,,,,,,,,
,,,,652be55d3d99a68b56fe7d56,A,2024-07-02_15h05.01.004,Slot Machine Game,2023.1.3,MacIntel,60.24096386,,,,,,,,,,,,,,,,,,,,,,,,,,,440,,,,,,,,,,,,,,,,,,,,,5,5,,,406.6906,8,right,0.0079,,1.5,0.3,"[3,1,2]",0.887195849,stimuli/card_10_transparent.png,10,8,0,8,0,1,,,,,,,,,,
,,,,652be55d3d99a68b56fe7d56,A,2024-07-02_15h05.01.004,Slot Machine Game,2023.1.3,MacIntel,60.24096386,,,,,,,,,,,,,,,,,,,,,,,,,,,450,,,,,,,,,,,,,,,,,,,,,5,5,,,409.0104,9,right,0.1393,,1,0.3,"[3,1,2]",0.865496321,stimuli/card_10_transparent.png,10,9,0,9,0,1,,,,,,,,,,
,,,,652be55d3d99a68b56fe7d56,A,2024-07-02_15h05.01.004,Slot Machine Game,2023.1.3,MacIntel,60.24096386,,,,,,,,,,,,,,,,,,,,,,,,,,,550,,,,,,,,,,,,,,,,,,,,,5,5,,,410.9778,10,up,0.1779,,1,0.3,"[3,1,2]",0.540197485,stimuli/card_100_transparent.png,100,10,0,10,0,1,,,,,,,,,,
,,,,652be55d3d99a68b56fe7d56,A,2024-07-02_15h05.01.004,Slot Machine Game,2023.1.3,MacIntel,60.24096386,,,,,,,,,,,,,,,,,,,,,,,,,,,650,,,,,,,,,,,,,,,,,,,,,5,5,,,412.9632,11,up,0.2275,,1.5,0.3,"[3,1,2]",0.90226003,stimuli/card_100_transparent.png,100,11,0,11,0,1,,,,,,,,,,
,,,,652be55d3d99a68b56fe7d56,A,2024-07-02_15h05.01.004,Slot Machine Game,2023.1.3,MacIntel,60.24096386,,,,,,,,,,,,,,,,,,,,,,,,,,,750,,,,,,,,,,,,,,,,,,,,,5,5,,,415.4992,12,up,0.1413,,1,0.3,"[3,1,2]",0.341387649,stimuli/card_100_transparent.png,100,12,0,12,0,1,,,,,,,,,,
,,,,652be55d3d99a68b56fe7d56,A,2024-07-02_15h05.01.004,Slot Machine Game,2023.1.3,MacIntel,60.24096386,,,,,,,,,,,,,,,,,,,,,,,,,,,850,,,,,,,,,,,,,,,,,,,,,5,5,,,417.4669,13,up,0.204,,1,0.3,"[3,1,2]",0.628310489,stimuli/card_100_transparent.png,100,13,0,13,0,1,,,,,,,,,,
,,,,652be55d3d99a68b56fe7d56,A,2024-07-02_15h05.01.004,Slot Machine Game,2023.1.3,MacIntel,60.24096386,,,,,,,,,,,,,,,,,,,,,,,,,,,950,,,,,,,,,,,,,,,,,,,,,5,5,,,419.4845,14,up,0.0003,,1.5,0.3,"[3,1,2]",0.625727518,stimuli/card_100_transparent.png,100,14,0,14,0,1,,,,,,,,,,
,,,,652be55d3d99a68b56fe7d56,A,2024-07-02_15h05.01.004,Slot Machine Game,2023.1.3,MacIntel,60.24096386,,,,,,,,,,,,,,,,,,,,,,,,,,,,,,,,,,,421.8042,,,,,,,,,,,,,,,,,,,,,,,,,,,,,,,,,"[460,450,650,810,950]",4,0,4,0,1,,,,
,,,,652be55d3d99a68b56fe7d56,A,2024-07-02_15h05.01.004,Slot Machine Game,2023.1.3,MacIntel,60.24096386,,,,,,,,,,,,,,,,,,,,,,,,,,,10,,,,,,,,,,,,,,,,,,,,,6,6,"[4,10,15]","[[2,3,1],[1,3,2],[3,2,1]]",426.8161,0,left,0.0844,,0.5,0.3,"[2,3,1]",0.764184377,stimuli/card_10_transparent.png,10,0,0,0,0,1,,,,,,,,,,
,,,,652be55d3d99a68b56fe7d56,A,2024-07-02_15h05.01.004,Slot Machine Game,2023.1.3,MacIntel,60.24096386,,,,,,,,,,,,,,,,,,,,,,,,,,,10,,,,,,,,,,,,,,,,,,,,,6,6,,,428.2251,1,up,0.0196,,0.5,0.3,"[2,3,1]",0.270530778,stimuli/card_0_transparent.png,0,1,0,1,0,1,,,,,,,,,,
,,,,652be55d3d99a68b56fe7d56,A,2024-07-02_15h05.01.004,Slot Machine Game,2023.1.3,MacIntel,60.24096386,,,,,,,,,,,,,,,,,,,,,,,,,,,20,,,,,,,,,,,,,,,,,,,,,6,6,,,429.5607,2,left,0.1745,,1.5,0.3,"[2,3,1]",0.809153475,stimuli/card_10_transparent.png,10,2,0,2,0,1,,,,,,,,,,
,,,,652be55d3d99a68b56fe7d56,A,2024-07-02_15h05.01.004,Slot Machine Game,2023.1.3,MacIntel,60.24096386,,,,,,,,,,,,,,,,,,,,,,,,,,,120,,,,,,,,,,,,,,,,,,,,,6,6,,,432.0628,3,right,0.007,,1,0.3,"[2,3,1]",0.868501139,stimuli/card_100_transparent.png,100,3,0,3,0,1,,,,,,,,,,
,,,,652be55d3d99a68b56fe7d56,A,2024-07-02_15h05.01.004,Slot Machine Game,2023.1.3,MacIntel,60.24096386,,,,,,,,,,,,,,,,,,,,,,,,,,,220,,,,,,,,,,,,,,,,,,,,,6,6,,,433.8804,4,right,0.0457,,0.5,0.3,"[1,3,2]",0.147997706,stimuli/card_100_transparent.png,100,4,0,4,0,1,,,,,,,,,,
,,,,652be55d3d99a68b56fe7d56,A,2024-07-02_15h05.01.004,Slot Machine Game,2023.1.3,MacIntel,60.24096386,,,,,,,,,,,,,,,,,,,,,,,,,,,230,,,,,,,,,,,,,,,,,,,,,6,6,,,435.2311,5,right,0.2015,,1.5,0.3,"[1,3,2]",0.331669512,stimuli/card_10_transparent.png,10,5,0,5,0,1,,,,,,,,,,
,,,,652be55d3d99a68b56fe7d56,A,2024-07-02_15h05.01.004,Slot Machine Game,2023.1.3,MacIntel,60.24096386,,,,,,,,,,,,,,,,,,,,,,,,,,,240,,,,,,,,,,,,,,,,,,,,,6,6,,,437.7504,6,right,0.0243,,1,0.3,"[1,3,2]",0.500541395,stimuli/card_10_transparent.png,10,6,0,6,0,1,,,,,,,,,,
,,,,652be55d3d99a68b56fe7d56,A,2024-07-02_15h05.01.004,Slot Machine Game,2023.1.3,MacIntel,60.24096386,,,,,,,,,,,,,,,,,,,,,,,,,,,250,,,,,,,,,,,,,,,,,,,,,6,6,,,439.5848,7,right,0.0218,,1.5,0.3,"[1,3,2]",0.737452375,stimuli/card_10_transparent.png,10,7,0,7,0,1,,,,,,,,,,
,,,,652be55d3d99a68b56fe7d56,A,2024-07-02_15h05.01.004,Slot Machine Game,2023.1.3,MacIntel,60.24096386,,,,,,,,,,,,,,,,,,,,,,,,,,,260,,,,,,,,,,,,,,,,,,,,,6,6,,,441.9208,8,right,0.1004,,0.5,0.3,"[1,3,2]",0.698279066,stimuli/card_10_transparent.png,10,8,0,8,0,1,,,,,,,,,,
,,,,652be55d3d99a68b56fe7d56,A,2024-07-02_15h05.01.004,Slot Machine Game,2023.1.3,MacIntel,60.24096386,,,,,,,,,,,,,,,,,,,,,,,,,,,260,,,,,,,,,,,,,,,,,,,,,6,6,,,443.3542,9,up,0.0548,,1,0.3,"[1,3,2]",0.492395598,stimuli/card_0_transparent.png,0,9,0,9,0,1,,,,,,,,,,
,,,,652be55d3d99a68b56fe7d56,A,2024-07-02_15h05.01.004,Slot Machine Game,2023.1.3,MacIntel,60.24096386,,,,,,,,,,,,,,,,,,,,,,,,,,,270,,,,,,,,,,,,,,,,,,,,,6,6,,,445.2236,10,up,0.1324,,0.5,0.3,"[3,2,1]",0.539219964,stimuli/card_10_transparent.png,10,10,0,10,0,1,,,,,,,,,,
,,,,652be55d3d99a68b56fe7d56,A,2024-07-02_15h05.01.004,Slot Machine Game,2023.1.3,MacIntel,60.24096386,,,,,,,,,,,,,,,,,,,,,,,,,,,280,,,,,,,,,,,,,,,,,,,,,6,6,,,446.6914,11,up,0.203,,0.5,0.3,"[3,2,1]",0.971022637,stimuli/card_10_transparent.png,10,11,0,11,0,1,,,,,,,,,,
,,,,652be55d3d99a68b56fe7d56,A,2024-07-02_15h05.01.004,Slot Machine Game,2023.1.3,MacIntel,60.24096386,,,,,,,,,,,,,,,,,,,,,,,,,,,380,,,,,,,,,,,,,,,,,,,,,6,6,,,448.2252,12,right,0.0671,,0.5,0.3,"[3,2,1]",0.73725811,stimuli/card_100_transparent.png,100,12,0,12,0,1,,,,,,,,,,
,,,,652be55d3d99a68b56fe7d56,A,2024-07-02_15h05.01.004,Slot Machine Game,2023.1.3,MacIntel,60.24096386,,,,,,,,,,,,,,,,,,,,,,,,,,,480,,,,,,,,,,,,,,,,,,,,,6,6,,,449.6102,13,right,0.1675,,0.5,0.3,"[3,2,1]",0.35703131,stimuli/card_100_transparent.png,100,13,0,13,0,1,,,,,,,,,,
,,,,652be55d3d99a68b56fe7d56,A,2024-07-02_15h05.01.004,Slot Machine Game,2023.1.3,MacIntel,60.24096386,,,,,,,,,,,,,,,,,,,,,,,,,,,480,,,,,,,,,,,,,,,,,,,,,6,6,,,451.0952,14,right,0.2157,,0.5,0.3,"[3,2,1]",0.005585804,stimuli/card_0_transparent.png,0,14,0,14,0,1,,,,,,,,,,
,,,,652be55d3d99a68b56fe7d56,A,2024-07-02_15h05.01.004,Slot Machine Game,2023.1.3,MacIntel,60.24096386,,,,,,,,,,,,,,,,,,,,,,,,,,,,,,,,,,,452.6288,,,,,,,,,,,,,,,,,,,,,,,,,,,,,,,,,"[460,450,650,810,950,480]",5,0,5,0,1,,,,
,,,,652be55d3d99a68b56fe7d56,A,2024-07-02_15h05.01.004,Slot Machine Game,2023.1.3,MacIntel,60.24096386,,,,,,,,,,,,,,,,,,,,,,,,,,,10,,,,,,,,,,,,,,,,,,,,,7,7,"[9,15]","[[1,3,2],[2,3,1]]",457.6249,0,right,0.3583,,1,0.3,"[1,3,2]",0.616808884,stimuli/card_10_transparent.png,10,0,0,0,0,1,,,,,,,,,,
,,,,652be55d3d99a68b56fe7d56,A,2024-07-02_15h05.01.004,Slot Machine Game,2023.1.3,MacIntel,60.24096386,,,,,,,,,,,,,,,,,,,,,,,,,,,10,,,,,,,,,,,,,,,,,,,,,7,7,,,459.8023,1,up,0.1827,,1,0.3,"[1,3,2]",0.533710882,stimuli/card_0_transparent.png,0,1,0,1,0,1,,,,,,,,,,
,,,,652be55d3d99a68b56fe7d56,A,2024-07-02_15h05.01.004,Slot Machine Game,2023.1.3,MacIntel,60.24096386,,,,,,,,,,,,,,,,,,,,,,,,,,,110,,,,,,,,,,,,,,,,,,,,,7,7,,,461.8029,2,left,0.0339,,0.5,0.3,"[1,3,2]",0.305021026,stimuli/card_100_transparent.png,100,2,0,2,0,1,,,,,,,,,,
,,,,652be55d3d99a68b56fe7d56,A,2024-07-02_15h05.01.004,Slot Machine Game,2023.1.3,MacIntel,60.24096386,,,,,,,,,,,,,,,,,,,,,,,,,,,210,,,,,,,,,,,,,,,,,,,,,7,7,,,463.154,3,left,0.1366,,0.5,0.3,"[1,3,2]",0.886988837,stimuli/card_100_transparent.png,100,3,0,3,0,1,,,,,,,,,,
,,,,652be55d3d99a68b56fe7d56,A,2024-07-02_15h05.01.004,Slot Machine Game,2023.1.3,MacIntel,60.24096386,,,,,,,,,,,,,,,,,,,,,,,,,,,310,,,,,,,,,,,,,,,,,,,,,7,7,,,464.6061,4,left,0.2782,,1.5,0.3,"[1,3,2]",0.376006772,stimuli/card_100_transparent.png,100,4,0,4,0,1,,,,,,,,,,
,,,,652be55d3d99a68b56fe7d56,A,2024-07-02_15h05.01.004,Slot Machine Game,2023.1.3,MacIntel,60.24096386,,,,,,,,,,,,,,,,,,,,,,,,,,,410,,,,,,,,,,,,,,,,,,,,,7,7,,,467.2075,5,left,0.2492,,0.5,0.3,"[1,3,2]",0.94643733,stimuli/card_100_transparent.png,100,5,0,5,0,1,,,,,,,,,,
,,,,652be55d3d99a68b56fe7d56,A,2024-07-02_15h05.01.004,Slot Machine Game,2023.1.3,MacIntel,60.24096386,,,,,,,,,,,,,,,,,,,,,,,,,,,510,,,,,,,,,,,,,,,,,,,,,7,7,,,468.7764,6,left,0.2025,,1,0.3,"[1,3,2]",0.255226516,stimuli/card_100_transparent.png,100,6,0,6,0,1,,,,,,,,,,
,,,,652be55d3d99a68b56fe7d56,A,2024-07-02_15h05.01.004,Slot Machine Game,2023.1.3,MacIntel,60.24096386,,,,,,,,,,,,,,,,,,,,,,,,,,,610,,,,,,,,,,,,,,,,,,,,,7,7,,,470.8112,7,left,0.1057,,1.5,0.3,"[1,3,2]",0.474096881,stimuli/card_100_transparent.png,100,7,0,7,0,1,,,,,,,,,,
,,,,652be55d3d99a68b56fe7d56,A,2024-07-02_15h05.01.004,Slot Machine Game,2023.1.3,MacIntel,60.24096386,,,,,,,,,,,,,,,,,,,,,,,,,,,610,,,,,,,,,,,,,,,,,,,,,7,7,,,473.2301,8,left,0.1907,,1,0.3,"[1,3,2]",0.042593705,stimuli/card_0_transparent.png,0,8,0,8,0,1,,,,,,,,,,
,,,,652be55d3d99a68b56fe7d56,A,2024-07-02_15h05.01.004,Slot Machine Game,2023.1.3,MacIntel,60.24096386,,,,,,,,,,,,,,,,,,,,,,,,,,,620,,,,,,,,,,,,,,,,,,,,,7,7,,,475.2474,9,left,0.1258,,1.5,0.3,"[2,3,1]",0.610756191,stimuli/card_10_transparent.png,10,9,0,9,0,1,,,,,,,,,,
,,,,652be55d3d99a68b56fe7d56,A,2024-07-02_15h05.01.004,Slot Machine Game,2023.1.3,MacIntel,60.24096386,,,,,,,,,,,,,,,,,,,,,,,,,,,630,,,,,,,,,,,,,,,,,,,,,7,7,,,477.683,10,left,0.1252,,1,0.3,"[2,3,1]",0.623997981,stimuli/card_10_transparent.png,10,10,0,10,0,1,,,,,,,,,,
,,,,652be55d3d99a68b56fe7d56,A,2024-07-02_15h05.01.004,Slot Machine Game,2023.1.3,MacIntel,60.24096386,,,,,,,,,,,,,,,,,,,,,,,,,,,640,,,,,,,,,,,,,,,,,,,,,7,7,,,479.6353,11,left,0.1083,,0.5,0.3,"[2,3,1]",0.440101005,stimuli/card_10_transparent.png,10,11,0,11,0,1,,,,,,,,,,
,,,,652be55d3d99a68b56fe7d56,A,2024-07-02_15h05.01.004,Slot Machine Game,2023.1.3,MacIntel,60.24096386,,,,,,,,,,,,,,,,,,,,,,,,,,,740,,,,,,,,,,,,,,,,,,,,,7,7,,,481.0688,12,left,0.0671,,0.5,0.3,"[2,3,1]",0.141338159,stimuli/card_100_transparent.png,100,12,0,12,0,1,,,,,,,,,,
,,,,652be55d3d99a68b56fe7d56,A,2024-07-02_15h05.01.004,Slot Machine Game,2023.1.3,MacIntel,60.24096386,,,,,,,,,,,,,,,,,,,,,,,,,,,750,,,,,,,,,,,,,,,,,,,,,7,7,,,482.4543,13,left,0.1522,,1,0.3,"[2,3,1]",0.371415393,stimuli/card_10_transparent.png,10,13,0,13,0,1,,,,,,,,,,
,,,,652be55d3d99a68b56fe7d56,A,2024-07-02_15h05.01.004,Slot Machine Game,2023.1.3,MacIntel,60.24096386,,,,,,,,,,,,,,,,,,,,,,,,,,,760,,,,,,,,,,,,,,,,,,,,,7,7,,,484.4225,14,left,0.1705,,1,0.3,"[2,3,1]",0.275563567,stimuli/card_10_transparent.png,10,14,0,14,0,1,,,,,,,,,,
,,,,652be55d3d99a68b56fe7d56,A,2024-07-02_15h05.01.004,Slot Machine Game,2023.1.3,MacIntel,60.24096386,,,,,,,,,,,,,,,,,,,,,,,,,,,,,,,,,,,486.4235,,,,,,,,,,,,,,,,,,,,,,,,,,,,,,,,,"[460,450,650,810,950,480,760]",6,0,6,0,1,,,,
,,,,652be55d3d99a68b56fe7d56,A,2024-07-02_15h05.01.004,Slot Machine Game,2023.1.3,MacIntel,60.24096386,,,,,,,,,,,,,,,,,,,,,,,,,,,10,,,,,,,,,,,,,,,,,,,,,8,8,"[11,15]","[[2,1,3],[1,2,3]]",491.4202,0,up,0.7528,,0.5,0.3,"[2,1,3]",0.155399934,stimuli/card_10_transparent.png,10,0,0,0,0,1,,,,,,,,,,
,,,,652be55d3d99a68b56fe7d56,A,2024-07-02_15h05.01.004,Slot Machine Game,2023.1.3,MacIntel,60.24096386,,,,,,,,,,,,,,,,,,,,,,,,,,,20,,,,,,,,,,,,,,,,,,,,,8,8,,,493.4957,1,up,0.3168,,1.5,0.3,"[2,1,3]",0.111898756,stimuli/card_10_transparent.png,10,1,0,1,0,1,,,,,,,,,,
,,,,652be55d3d99a68b56fe7d56,A,2024-07-02_15h05.01.004,Slot Machine Game,2023.1.3,MacIntel,60.24096386,,,,,,,,,,,,,,,,,,,,,,,,,,,30,,,,,,,,,,,,,,,,,,,,,8,8,,,496.1312,2,right,0.0761,,0.5,0.3,"[2,1,3]",0.102068311,stimuli/card_10_transparent.png,10,2,0,2,0,1,,,,,,,,,,
,,,,652be55d3d99a68b56fe7d56,A,2024-07-02_15h05.01.004,Slot Machine Game,2023.1.3,MacIntel,60.24096386,,,,,,,,,,,,,,,,,,,,,,,,,,,40,,,,,,,,,,,,,,,,,,,,,8,8,,,497.5156,3,left,0.201,,1,0.3,"[2,1,3]",0.434895506,stimuli/card_10_transparent.png,10,3,0,3,0,1,,,,,,,,,,
,,,,652be55d3d99a68b56fe7d56,A,2024-07-02_15h05.01.004,Slot Machine Game,2023.1.3,MacIntel,60.24096386,,,,,,,,,,,,,,,,,,,,,,,,,,,50,,,,,,,,,,,,,,,,,,,,,8,8,,,499.535,4,left,0.0031,,1.5,0.3,"[2,1,3]",0.889485157,stimuli/card_10_transparent.png,10,4,0,4,0,1,,,,,,,,,,
,,,,652be55d3d99a68b56fe7d56,A,2024-07-02_15h05.01.004,Slot Machine Game,2023.1.3,MacIntel,60.24096386,,,,,,,,,,,,,,,,,,,,,,,,,,,150,,,,,,,,,,,,,,,,,,,,,8,8,,,501.8537,5,up,0.126,,1,0.3,"[2,1,3]",0.868431522,stimuli/card_100_transparent.png,100,5,0,5,0,1,,,,,,,,,,
,,,,652be55d3d99a68b56fe7d56,A,2024-07-02_15h05.01.004,Slot Machine Game,2023.1.3,MacIntel,60.24096386,,,,,,,,,,,,,,,,,,,,,,,,,,,250,,,,,,,,,,,,,,,,,,,,,8,8,,,503.7879,6,up,0.1601,,1,0.3,"[2,1,3]",0.212560481,stimuli/card_100_transparent.png,100,6,0,6,0,1,,,,,,,,,,
,,,,652be55d3d99a68b56fe7d56,A,2024-07-02_15h05.01.004,Slot Machine Game,2023.1.3,MacIntel,60.24096386,,,,,,,,,,,,,,,,,,,,,,,,,,,350,,,,,,,,,,,,,,,,,,,,,8,8,,,505.7559,7,up,0.0949,,1,0.3,"[2,1,3]",0.50767695,stimuli/card_100_transparent.png,100,7,0,7,0,1,,,,,,,,,,
,,,,652be55d3d99a68b56fe7d56,A,2024-07-02_15h05.01.004,Slot Machine Game,2023.1.3,MacIntel,60.24096386,,,,,,,,,,,,,,,,,,,,,,,,,,,450,,,,,,,,,,,,,,,,,,,,,8,8,,,507.6585,8,up,0.0105,,1.5,0.3,"[2,1,3]",0.439453966,stimuli/card_100_transparent.png,100,8,0,8,0,1,,,,,,,,,,
,,,,652be55d3d99a68b56fe7d56,A,2024-07-02_15h05.01.004,Slot Machine Game,2023.1.3,MacIntel,60.24096386,,,,,,,,,,,,,,,,,,,,,,,,,,,550,,,,,,,,,,,,,,,,,,,,,8,8,,,509.9935,9,up,0.0723,,0.5,0.3,"[2,1,3]",0.216911677,stimuli/card_100_transparent.png,100,9,0,9,0,1,,,,,,,,,,
,,,,652be55d3d99a68b56fe7d56,A,2024-07-02_15h05.01.004,Slot Machine Game,2023.1.3,MacIntel,60.24096386,,,,,,,,,,,,,,,,,,,,,,,,,,,650,,,,,,,,,,,,,,,,,,,,,8,8,,,511.3946,10,up,0.2049,,1,0.3,"[2,1,3]",0.207189008,stimuli/card_100_transparent.png,100,10,0,10,0,1,,,,,,,,,,
,,,,652be55d3d99a68b56fe7d56,A,2024-07-02_15h05.01.004,Slot Machine Game,2023.1.3,MacIntel,60.24096386,,,,,,,,,,,,,,,,,,,,,,,,,,,660,,,,,,,,,,,,,,,,,,,,,8,8,,,513.4126,11,up,0.0003,,0.5,0.3,"[1,2,3]",0.609389014,stimuli/card_10_transparent.png,10,11,0,11,0,1,,,,,,,,,,
,,,,652be55d3d99a68b56fe7d56,A,2024-07-02_15h05.01.004,Slot Machine Game,2023.1.3,MacIntel,60.24096386,,,,,,,,,,,,,,,,,,,,,,,,,,,670,,,,,,,,,,,,,,,,,,,,,8,8,,,514.7304,12,up,0.1426,,1.5,0.3,"[1,2,3]",0.409892935,stimuli/card_10_transparent.png,10,12,0,12,0,1,,,,,,,,,,
,,,,652be55d3d99a68b56fe7d56,A,2024-07-02_15h05.01.004,Slot Machine Game,2023.1.3,MacIntel,60.24096386,,,,,,,,,,,,,,,,,,,,,,,,,,,680,,,,,,,,,,,,,,,,,,,,,8,8,,,517.1825,13,up,0.0543,,1,0.3,"[1,2,3]",0.744485534,stimuli/card_10_transparent.png,10,13,0,13,0,1,,,,,,,,,,
,,,,652be55d3d99a68b56fe7d56,A,2024-07-02_15h05.01.004,Slot Machine Game,2023.1.3,MacIntel,60.24096386,,,,,,,,,,,,,,,,,,,,,,,,,,,680,,,,,,,,,,,,,,,,,,,,,8,8,,,519.0507,14,up,0.0354,,0.5,0.3,"[1,2,3]",0.030956744,stimuli/card_0_transparent.png,0,14,0,14,0,1,,,,,,,,,,
,,,,652be55d3d99a68b56fe7d56,A,2024-07-02_15h05.01.004,Slot Machine Game,2023.1.3,MacIntel,60.24096386,,,,,,,,,,,,,,,,,,,,,,,,,,,,,,,,,,,520.418,,,,,,,,,,,,,,,,,,,,,,,,,,,,,,,,,"[460,450,650,810,950,480,760,680]",7,0,7,0,1,,,,
,,,,652be55d3d99a68b56fe7d56,A,2024-07-02_15h05.01.004,Slot Machine Game,2023.1.3,MacIntel,60.24096386,,,,,,,,,,,,,,,,,,,,,,,,,,,100,,,,,,,,,,,,,,,,,,,,,9,9,"[8,15]","[[3,2,1],[3,1,2]]",525.4144,0,right,0.5542,,0.5,0.3,"[3,2,1]",0.725302289,stimuli/card_100_transparent.png,100,0,0,0,0,1,,,,,,,,,,
,,,,652be55d3d99a68b56fe7d56,A,2024-07-02_15h05.01.004,Slot Machine Game,2023.1.3,MacIntel,60.24096386,,,,,,,,,,,,,,,,,,,,,,,,,,,200,,,,,,,,,,,,,,,,,,,,,9,9,,,527.2912,1,right,0.1655,,0.5,0.3,"[3,2,1]",0.782187256,stimuli/card_100_transparent.png,100,1,0,1,0,1,,,,,,,,,,
,,,,652be55d3d99a68b56fe7d56,A,2024-07-02_15h05.01.004,Slot Machine Game,2023.1.3,MacIntel,60.24096386,,,,,,,,,,,,,,,,,,,,,,,,,,,300,,,,,,,,,,,,,,,,,,,,,9,9,,,528.7915,2,right,0.201,,0.5,0.3,"[3,2,1]",0.477526494,stimuli/card_100_transparent.png,100,2,0,2,0,1,,,,,,,,,,
,,,,652be55d3d99a68b56fe7d56,A,2024-07-02_15h05.01.004,Slot Machine Game,2023.1.3,MacIntel,60.24096386,,,,,,,,,,,,,,,,,,,,,,,,,,,400,,,,,,,,,,,,,,,,,,,,,9,9,,,530.3104,3,right,0.0232,,1.5,0.3,"[3,2,1]",0.712771536,stimuli/card_100_transparent.png,100,3,0,3,0,1,,,,,,,,,,
,,,,652be55d3d99a68b56fe7d56,A,2024-07-02_15h05.01.004,Slot Machine Game,2023.1.3,MacIntel,60.24096386,,,,,,,,,,,,,,,,,,,,,,,,,,,500,,,,,,,,,,,,,,,,,,,,,9,9,,,532.6445,4,right,0.1847,,1,0.3,"[3,2,1]",0.772066223,stimuli/card_100_transparent.png,100,4,0,4,0,1,,,,,,,,,,
,,,,652be55d3d99a68b56fe7d56,A,2024-07-02_15h05.01.004,Slot Machine Game,2023.1.3,MacIntel,60.24096386,,,,,,,,,,,,,,,,,,,,,,,,,,,600,,,,,,,,,,,,,,,,,,,,,9,9,,,534.6469,5,right,0.0345,,0.5,0.3,"[3,2,1]",0.92896785,stimuli/card_100_transparent.png,100,5,0,5,0,1,,,,,,,,,,
,,,,652be55d3d99a68b56fe7d56,A,2024-07-02_15h05.01.004,Slot Machine Game,2023.1.3,MacIntel,60.24096386,,,,,,,,,,,,,,,,,,,,,,,,,,,610,,,,,,,,,,,,,,,,,,,,,9,9,,,536.0143,6,right,0.1012,,1,0.3,"[3,2,1]",0.113436514,stimuli/card_10_transparent.png,10,6,0,6,0,1,,,,,,,,,,
,,,,652be55d3d99a68b56fe7d56,A,2024-07-02_15h05.01.004,Slot Machine Game,2023.1.3,MacIntel,60.24096386,,,,,,,,,,,,,,,,,,,,,,,,,,,710,,,,,,,,,,,,,,,,,,,,,9,9,,,537.9329,7,right,0.1719,,1,0.3,"[3,2,1]",0.270510058,stimuli/card_100_transparent.png,100,7,0,7,0,1,,,,,,,,,,
,,,,652be55d3d99a68b56fe7d56,A,2024-07-02_15h05.01.004,Slot Machine Game,2023.1.3,MacIntel,60.24096386,,,,,,,,,,,,,,,,,,,,,,,,,,,720,,,,,,,,,,,,,,,,,,,,,9,9,,,539.9182,8,right,0.0386,,1,0.3,"[3,1,2]",0.284363668,stimuli/card_10_transparent.png,10,8,0,8,0,1,,,,,,,,,,
,,,,652be55d3d99a68b56fe7d56,A,2024-07-02_15h05.01.004,Slot Machine Game,2023.1.3,MacIntel,60.24096386,,,,,,,,,,,,,,,,,,,,,,,,,,,730,,,,,,,,,,,,,,,,,,,,,9,9,,,541.7864,9,right,0.2112,,1.5,0.3,"[3,1,2]",0.448964192,stimuli/card_10_transparent.png,10,9,0,9,0,1,,,,,,,,,,
,,,,652be55d3d99a68b56fe7d56,A,2024-07-02_15h05.01.004,Slot Machine Game,2023.1.3,MacIntel,60.24096386,,,,,,,,,,,,,,,,,,,,,,,,,,,740,,,,,,,,,,,,,,,,,,,,,9,9,,,544.3052,10,right,0.061,,0.5,0.3,"[3,1,2]",0.64004761,stimuli/card_10_transparent.png,10,10,0,10,0,1,,,,,,,,,,
,,,,652be55d3d99a68b56fe7d56,A,2024-07-02_15h05.01.004,Slot Machine Game,2023.1.3,MacIntel,60.24096386,,,,,,,,,,,,,,,,,,,,,,,,,,,750,,,,,,,,,,,,,,,,,,,,,9,9,,,545.6886,11,right,0.223,,1.5,0.3,"[3,1,2]",0.980183235,stimuli/card_10_transparent.png,10,11,0,11,0,1,,,,,,,,,,
,,,,652be55d3d99a68b56fe7d56,A,2024-07-02_15h05.01.004,Slot Machine Game,2023.1.3,MacIntel,60.24096386,,,,,,,,,,,,,,,,,,,,,,,,,,,760,,,,,,,,,,,,,,,,,,,,,9,9,,,548.2251,12,right,0.1577,,1,0.3,"[3,1,2]",0.927637504,stimuli/card_10_transparent.png,10,12,0,12,0,1,,,,,,,,,,
,,,,652be55d3d99a68b56fe7d56,A,2024-07-02_15h05.01.004,Slot Machine Game,2023.1.3,MacIntel,60.24096386,,,,,,,,,,,,,,,,,,,,,,,,,,,860,,,,,,,,,,,,,,,,,,,,,9,9,,,550.2101,13,right,0.0525,,1.5,0.3,"[3,1,2]",0.119265341,stimuli/card_100_transparent.png,100,13,0,13,0,1,,,,,,,,,,
,,,,652be55d3d99a68b56fe7d56,A,2024-07-02_15h05.01.004,Slot Machine Game,2023.1.3,MacIntel,60.24096386,,,,,,,,,,,,,,,,,,,,,,,,,,,960,,,,,,,,,,,,,,,,,,,,,9,9,,,552.5955,14,right,0.2947,,1,0.3,"[3,1,2]",0.15567632,stimuli/card_100_transparent.png,100,14,0,14,0,1,,,,,,,,,,
,,,,652be55d3d99a68b56fe7d56,A,2024-07-02_15h05.01.004,Slot Machine Game,2023.1.3,MacIntel,60.24096386,,,,,,,,,,,,,,,,,,,,,,,,,,,,,,,,,,,554.6967,,,,,,,,,,,,,,,,,,,,,,,,,,,,,,,,,"[460,450,650,810,950,480,760,680,960]",8,0,8,0,1,,,,
,,,,652be55d3d99a68b56fe7d56,A,2024-07-02_15h05.01.004,Slot Machine Game,2023.1.3,MacIntel,60.24096386,,,,,,,,,,,,,,,,,,,,,,,,,,,100,,,,,,,,,,,,,,,,,,,,,10,10,"[10,15]","[[3,1,2],[1,3,2]]",559.709,0,up,0.3258,,1,0.3,"[3,1,2]",0.669585455,stimuli/card_100_transparent.png,100,0,0,0,0,1,,,,,,,,,,
,,,,652be55d3d99a68b56fe7d56,A,2024-07-02_15h05.01.004,Slot Machine Game,2023.1.3,MacIntel,60.24096386,,,,,,,,,,,,,,,,,,,,,,,,,,,200,,,,,,,,,,,,,,,,,,,,,10,10,,,561.853,1,up,0.0238,,1.5,0.3,"[3,1,2]",0.86140928,stimuli/card_100_transparent.png,100,1,0,1,0,1,,,,,,,,,,
,,,,652be55d3d99a68b56fe7d56,A,2024-07-02_15h05.01.004,Slot Machine Game,2023.1.3,MacIntel,60.24096386,,,,,,,,,,,,,,,,,,,,,,,,,,,300,,,,,,,,,,,,,,,,,,,,,10,10,,,564.1884,2,up,0.059,,1,0.3,"[3,1,2]",0.786169256,stimuli/card_100_transparent.png,100,2,0,2,0,1,,,,,,,,,,
,,,,652be55d3d99a68b56fe7d56,A,2024-07-02_15h05.01.004,Slot Machine Game,2023.1.3,MacIntel,60.24096386,,,,,,,,,,,,,,,,,,,,,,,,,,,400,,,,,,,,,,,,,,,,,,,,,10,10,,,566.0725,3,up,0.0905,,0.5,0.3,"[3,1,2]",0.656544861,stimuli/card_100_transparent.png,100,3,0,3,0,1,,,,,,,,,,
,,,,652be55d3d99a68b56fe7d56,A,2024-07-02_15h05.01.004,Slot Machine Game,2023.1.3,MacIntel,60.24096386,,,,,,,,,,,,,,,,,,,,,,,,,,,500,,,,,,,,,,,,,,,,,,,,,10,10,,,567.4736,4,up,0.0517,,0.5,0.3,"[3,1,2]",0.478219972,stimuli/card_100_transparent.png,100,4,0,4,0,1,,,,,,,,,,
,,,,652be55d3d99a68b56fe7d56,A,2024-07-02_15h05.01.004,Slot Machine Game,2023.1.3,MacIntel,60.24096386,,,,,,,,,,,,,,,,,,,,,,,,,,,600,,,,,,,,,,,,,,,,,,,,,10,10,,,568.8412,5,up,0.2499,,0.5,0.3,"[3,1,2]",0.431776562,stimuli/card_100_transparent.png,100,5,0,5,0,1,,,,,,,,,,
,,,,652be55d3d99a68b56fe7d56,A,2024-07-02_15h05.01.004,Slot Machine Game,2023.1.3,MacIntel,60.24096386,,,,,,,,,,,,,,,,,,,,,,,,,,,700,,,,,,,,,,,,,,,,,,,,,10,10,,,570.4102,6,up,0.0995,,0.5,0.3,"[3,1,2]",0.920748552,stimuli/card_100_transparent.png,100,6,0,6,0,1,,,,,,,,,,
,,,,652be55d3d99a68b56fe7d56,A,2024-07-02_15h05.01.004,Slot Machine Game,2023.1.3,MacIntel,60.24096386,,,,,,,,,,,,,,,,,,,,,,,,,,,710,,,,,,,,,,,,,,,,,,,,,10,10,,,571.8279,7,up,0.3667,,1.5,0.3,"[3,1,2]",0.184476266,stimuli/card_10_transparent.png,10,7,0,7,0,1,,,,,,,,,,
,,,,652be55d3d99a68b56fe7d56,A,2024-07-02_15h05.01.004,Slot Machine Game,2023.1.3,MacIntel,60.24096386,,,,,,,,,,,,,,,,,,,,,,,,,,,720,,,,,,,,,,,,,,,,,,,,,10,10,,,574.53,8,up,0.183,,1,0.3,"[3,1,2]",0.12399475,stimuli/card_10_transparent.png,10,8,0,8,0,1,,,,,,,,,,
,,,,652be55d3d99a68b56fe7d56,A,2024-07-02_15h05.01.004,Slot Machine Game,2023.1.3,MacIntel,60.24096386,,,,,,,,,,,,,,,,,,,,,,,,,,,820,,,,,,,,,,,,,,,,,,,,,10,10,,,576.5478,9,up,0.1245,,1,0.3,"[3,1,2]",0.713418388,stimuli/card_100_transparent.png,100,9,0,9,0,1,,,,,,,,,,
,,,,652be55d3d99a68b56fe7d56,A,2024-07-02_15h05.01.004,Slot Machine Game,2023.1.3,MacIntel,60.24096386,,,,,,,,,,,,,,,,,,,,,,,,,,,820,,,,,,,,,,,,,,,,,,,,,10,10,,,578.4832,10,up,0.2681,,1,0.3,"[1,3,2]",0.435556971,stimuli/card_0_transparent.png,0,10,0,10,0,1,,,,,,,,,,
,,,,652be55d3d99a68b56fe7d56,A,2024-07-02_15h05.01.004,Slot Machine Game,2023.1.3,MacIntel,60.24096386,,,,,,,,,,,,,,,,,,,,,,,,,,,820,,,,,,,,,,,,,,,,,,,,,10,10,,,580.5846,11,up,0.1722,,0.5,0.3,"[1,3,2]",0.570979083,stimuli/card_0_transparent.png,0,11,0,11,0,1,,,,,,,,,,
,,,,652be55d3d99a68b56fe7d56,A,2024-07-02_15h05.01.004,Slot Machine Game,2023.1.3,MacIntel,60.24096386,,,,,,,,,,,,,,,,,,,,,,,,,,,820,,,,,,,,,,,,,,,,,,,,,10,10,,,582.0687,12,up,0.0357,,1,0.3,"[1,3,2]",0.686496418,stimuli/card_0_transparent.png,0,12,0,12,0,1,,,,,,,,,,
,,,,652be55d3d99a68b56fe7d56,A,2024-07-02_15h05.01.004,Slot Machine Game,2023.1.3,MacIntel,60.24096386,,,,,,,,,,,,,,,,,,,,,,,,,,,830,,,,,,,,,,,,,,,,,,,,,10,10,,,583.9214,13,right,0.1867,,1,0.3,"[1,3,2]",0.319900196,stimuli/card_10_transparent.png,10,13,0,13,0,1,,,,,,,,,,
,,,,652be55d3d99a68b56fe7d56,A,2024-07-02_15h05.01.004,Slot Machine Game,2023.1.3,MacIntel,60.24096386,,,,,,,,,,,,,,,,,,,,,,,,,,,830,,,,,,,,,,,,,,,,,,,,,10,10,,,585.9228,14,up,0.0775,,0.5,0.3,"[1,3,2]",0.594416006,stimuli/card_0_transparent.png,0,14,0,14,0,1,,,,,,,,,,
,,,,652be55d3d99a68b56fe7d56,A,2024-07-02_15h05.01.004,Slot Machine Game,2023.1.3,MacIntel,60.24096386,,,,,,,,,,,,,,,,,,,,,,,,,,,,,,,,,,,587.3071,,,,,,,,,,,,,,,,,,,,,,,,,,,,,,,,,"[460,450,650,810,950,480,760,680,960,830]",9,0,9,0,1,,,,
,,,,652be55d3d99a68b56fe7d56,A,2024-07-02_15h05.01.004,Slot Machine Game,2023.1.3,MacIntel,60.24096386,,,,,,,,,,,,,,,,,,,,,,,,,,,,,,,,,,,,,,,,,,,,,,,,,,,,,,,,,,,,,,,,,,,,,,,,,,9,"[460,450,650,810,950,480,760,680,960,830]",7.6,2024-07-02_15h14.57.512
