key_resp_welcome_started,key_resp_welcome_keys,key_resp_welcome_rt,key_resp_welcome_duration,prolific_id,path_id,date,expName,psychopyVersion,OS,frameRate,key_resp_instruction1_started,key_resp_instruction1_keys,key_resp_instruction1_rt,key_resp_instruction1_duration,key_resp_instruction2_started,key_resp_instruction2_keys,key_resp_instruction2_rt,key_resp_instruction2_duration,key_resp_instruction3_started,key_resp_instruction3_keys,key_resp_instruction3_rt,key_resp_instruction3_duration,key_resp_instruction4_started,key_resp_instruction4_keys,key_resp_instruction4_rt,key_resp_instruction4_duration,practiceCondition,practice_reward_seqs,practice_trial_started,practice_trial_num,practice_resp_rt,practice_resp_duration,practice_resp_keys,prac_presentationInterval,"practice_reward_seq: 2,1,3",reward_img,cumulative_reward,trial_reward,practice_trials.thisRepN,practice_trials.thisTrialN,practice_trials.thisN,practice_trials.thisIndex,practice_trials.ran,"practice_reward_seq: 2,3,1",block_break_started,"practice_reward_seq: 1,3,2","practice_reward_seq: 3,1,2",practice_end_time,practice_end_keys,practice_end_rt,practice_end_duration,main_instruction_text_started,block_condition,block_order_indices,main_instruction_keys,main_instruction_rt,main_instruction_duration,block_number,block_assignment,current_condition,main_reward_seqs,main_trial_started,main_trial_num,main_trial_keys,main_trial_rt,main_trial_duration,main_presentationInterval,reward_presentation_time,main_reward_seq,reward_rand_val,main_reward_img,current_reward,main_trials.thisRepN,main_trials.thisTrialN,main_trials.thisN,main_trials.thisIndex,main_trials.ran,block_reward,block.thisRepN,block.thisTrialN,block.thisN,block.thisIndex,block.ran,block_reward.length,block_reward_all,reward_amount,date_end_task
0.0004,space,2.8564,,655bb7a29f5ea0609bcbf251,A,2024-07-01_12h55.25.453,Slot Machine Game,2023.1.3,Win32,59.52380952,,,,,,,,,,,,,,,,,,,,,,,,,,,,,,,,,,,,,,,,,,,,,,,,,,,,,,,,,,,,,,,,,,,,,,,,,,,,,
,,,,655bb7a29f5ea0609bcbf251,A,2024-07-01_12h55.25.453,Slot Machine Game,2023.1.3,Win32,59.52380952,2.8646,space,7.7975,,,,,,,,,,,,,,,,,,,,,,,,,,,,,,,,,,,,,,,,,,,,,,,,,,,,,,,,,,,,,,,,,,,,,,,,,,
,,,,655bb7a29f5ea0609bcbf251,A,2024-07-01_12h55.25.453,Slot Machine Game,2023.1.3,Win32,59.52380952,,,,,10.6794,space,25.7388,,,,,,,,,,,,,,,,,,,,,,,,,,,,,,,,,,,,,,,,,,,,,,,,,,,,,,,,,,,,,,,,,,,,,,
,,,,655bb7a29f5ea0609bcbf251,A,2024-07-01_12h55.25.453,Slot Machine Game,2023.1.3,Win32,59.52380952,,,,,,,,,36.4533,space,11.9518,,,,,,,,,,,,,,,,,,,,,,,,,,,,,,,,,,,,,,,,,,,,,,,,,,,,,,,,,,,,,,,,,,
,,,,655bb7a29f5ea0609bcbf251,A,2024-07-01_12h55.25.453,Slot Machine Game,2023.1.3,Win32,59.52380952,,,,,,,,,,,,,,,,,,,,,,,,,,,,,,,,,,,,,,,,,,,,,,,,,,,,,,,,,,,,,,,,,,,,,,,,,,,,,
,,,,655bb7a29f5ea0609bcbf251,A,2024-07-01_12h55.25.453,Slot Machine Game,2023.1.3,Win32,59.52380952,,,,,,,,,,,,,190.179,space,7.2964,,,,,,,,,,,,,,,,,,,,,,,,,,,,,,,,,,,,,,,,,,,,,,,,,,,,,,,,,,,,,,
,,,,655bb7a29f5ea0609bcbf251,A,2024-07-01_12h55.25.453,Slot Machine Game,2023.1.3,Win32,59.52380952,,,,,,,,,,,,,,,,,"[9,15]","[[2,1,3],[2,3,1]]",197.5051,0,2.0869,,up,1.5,,stimuli/card_100_transparent.png,100,100,0,0,0,0,1,,,,,,,,,,,,,,,,,,,,,,,,,,,,,,,,,,,,,,,,,,,,
,,,,655bb7a29f5ea0609bcbf251,A,2024-07-01_12h55.25.453,Slot Machine Game,2023.1.3,Win32,59.52380952,,,,,,,,,,,,,,,,,,,201.914,1,0.5658,,up,0.5,,stimuli/card_100_transparent.png,200,100,1,0,1,0,1,,,,,,,,,,,,,,,,,,,,,,,,,,,,,,,,,,,,,,,,,,,,
,,,,655bb7a29f5ea0609bcbf251,A,2024-07-01_12h55.25.453,Slot Machine Game,2023.1.3,Win32,59.52380952,,,,,,,,,,,,,,,,,,,203.8132,2,0.5678,,up,1.5,,stimuli/card_10_transparent.png,210,10,2,0,2,0,1,,,,,,,,,,,,,,,,,,,,,,,,,,,,,,,,,,,,,,,,,,,,
,,,,655bb7a29f5ea0609bcbf251,A,2024-07-01_12h55.25.453,Slot Machine Game,2023.1.3,Win32,59.52380952,,,,,,,,,,,,,,,,,,,206.7122,3,0.3976,,up,1.5,,stimuli/card_100_transparent.png,310,100,3,0,3,0,1,,,,,,,,,,,,,,,,,,,,,,,,,,,,,,,,,,,,,,,,,,,,
,,,,655bb7a29f5ea0609bcbf251,A,2024-07-01_12h55.25.453,Slot Machine Game,2023.1.3,Win32,59.52380952,,,,,,,,,,,,,,,,,,,209.4445,4,0.2833,,up,0.5,,stimuli/card_100_transparent.png,410,100,4,0,4,0,1,,,,,,,,,,,,,,,,,,,,,,,,,,,,,,,,,,,,,,,,,,,,
,,,,655bb7a29f5ea0609bcbf251,A,2024-07-01_12h55.25.453,Slot Machine Game,2023.1.3,Win32,59.52380952,,,,,,,,,,,,,,,,,,,211.0606,5,0.2814,,up,0.5,,stimuli/card_100_transparent.png,510,100,5,0,5,0,1,,,,,,,,,,,,,,,,,,,,,,,,,,,,,,,,,,,,,,,,,,,,
,,,,655bb7a29f5ea0609bcbf251,A,2024-07-01_12h55.25.453,Slot Machine Game,2023.1.3,Win32,59.52380952,,,,,,,,,,,,,,,,,,,212.6769,6,0.4503,,up,1,,stimuli/card_10_transparent.png,520,10,6,0,6,0,1,,,,,,,,,,,,,,,,,,,,,,,,,,,,,,,,,,,,,,,,,,,,
,,,,655bb7a29f5ea0609bcbf251,A,2024-07-01_12h55.25.453,Slot Machine Game,2023.1.3,Win32,59.52380952,,,,,,,,,,,,,,,,,,,214.9593,7,0.4631,,up,0.5,,stimuli/card_100_transparent.png,620,100,7,0,7,0,1,,,,,,,,,,,,,,,,,,,,,,,,,,,,,,,,,,,,,,,,,,,,
,,,,655bb7a29f5ea0609bcbf251,A,2024-07-01_12h55.25.453,Slot Machine Game,2023.1.3,Win32,59.52380952,,,,,,,,,,,,,,,,,,,216.7419,8,0.5153,,up,1,,stimuli/card_100_transparent.png,720,100,8,0,8,0,1,,,,,,,,,,,,,,,,,,,,,,,,,,,,,,,,,,,,,,,,,,,,
,,,,655bb7a29f5ea0609bcbf251,A,2024-07-01_12h55.25.453,Slot Machine Game,2023.1.3,Win32,59.52380952,,,,,,,,,,,,,,,,,,,219.0745,9,0.2828,,up,1.5,,stimuli/card_100_transparent.png,820,100,9,0,9,0,1,,,,,,,,,,,,,,,,,,,,,,,,,,,,,,,,,,,,,,,,,,,,
,,,,655bb7a29f5ea0609bcbf251,A,2024-07-01_12h55.25.453,Slot Machine Game,2023.1.3,Win32,59.52380952,,,,,,,,,,,,,,,,,,,221.6908,10,0.1998,,up,1.5,,stimuli/card_0_transparent.png,820,0,10,0,10,0,1,,,,,,,,,,,,,,,,,,,,,,,,,,,,,,,,,,,,,,,,,,,,
,,,,655bb7a29f5ea0609bcbf251,A,2024-07-01_12h55.25.453,Slot Machine Game,2023.1.3,Win32,59.52380952,,,,,,,,,,,,,,,,,,,224.2231,11,3.1801,,left,1.5,,stimuli/card_10_transparent.png,830,10,11,0,11,0,1,,,,,,,,,,,,,,,,,,,,,,,,,,,,,,,,,,,,,,,,,,,,
,,,,655bb7a29f5ea0609bcbf251,A,2024-07-01_12h55.25.453,Slot Machine Game,2023.1.3,Win32,59.52380952,,,,,,,,,,,,,,,,,,,229.7376,12,1.4398,,right,0.5,,stimuli/card_0_transparent.png,830,0,12,0,12,0,1,,,,,,,,,,,,,,,,,,,,,,,,,,,,,,,,,,,,,,,,,,,,
,,,,655bb7a29f5ea0609bcbf251,A,2024-07-01_12h55.25.453,Slot Machine Game,2023.1.3,Win32,59.52380952,,,,,,,,,,,,,,,,,,,232.5035,13,0.6169,,up,1.5,,stimuli/card_0_transparent.png,830,0,13,0,13,0,1,,,,,,,,,,,,,,,,,,,,,,,,,,,,,,,,,,,,,,,,,,,,
,,,,655bb7a29f5ea0609bcbf251,A,2024-07-01_12h55.25.453,Slot Machine Game,2023.1.3,Win32,59.52380952,,,,,,,,,,,,,,,,,,,235.4524,14,0.2152,,left,1,,stimuli/card_10_transparent.png,840,10,14,0,14,0,1,,,,,,,,,,,,,,,,,,,,,,,,,,,,,,,,,,,,,,,,,,,,
,,,,655bb7a29f5ea0609bcbf251,A,2024-07-01_12h55.25.453,Slot Machine Game,2023.1.3,Win32,59.52380952,,,,,,,,,,,,,,,,,"[6,15]","[[1,3,2],[3,1,2]]",242.5072,0,1.8334,,up,1.5,,stimuli/card_0_transparent.png,0,0,0,0,0,0,1,,237.5083,,,,,,,,,,,,,,,,,,,,,,,,,,,,,,,,,,,,,,,,,,
,,,,655bb7a29f5ea0609bcbf251,A,2024-07-01_12h55.25.453,Slot Machine Game,2023.1.3,Win32,59.52380952,,,,,,,,,,,,,,,,,,,246.6654,1,0.4577,,left,0.5,,stimuli/card_0_transparent.png,0,0,1,0,1,0,1,,,,,,,,,,,,,,,,,,,,,,,,,,,,,,,,,,,,,,,,,,,,
,,,,655bb7a29f5ea0609bcbf251,A,2024-07-01_12h55.25.453,Slot Machine Game,2023.1.3,Win32,59.52380952,,,,,,,,,,,,,,,,,,,248.4482,2,2.4159,,right,0.5,,stimuli/card_10_transparent.png,10,10,2,0,2,0,1,,,,,,,,,,,,,,,,,,,,,,,,,,,,,,,,,,,,,,,,,,,,
,,,,655bb7a29f5ea0609bcbf251,A,2024-07-01_12h55.25.453,Slot Machine Game,2023.1.3,Win32,59.52380952,,,,,,,,,,,,,,,,,,,252.1968,3,0.4498,,right,1.5,,stimuli/card_100_transparent.png,110,100,3,0,3,0,1,,,,,,,,,,,,,,,,,,,,,,,,,,,,,,,,,,,,,,,,,,,,
,,,,655bb7a29f5ea0609bcbf251,A,2024-07-01_12h55.25.453,Slot Machine Game,2023.1.3,Win32,59.52380952,,,,,,,,,,,,,,,,,,,254.9793,4,,,,1.5,,,,,4,0,4,0,1,,,,,,,,,,,,,,,,,,,,,,,,,,,,,,,,,,,,,,,,,,,,
,,,,655bb7a29f5ea0609bcbf251,A,2024-07-01_12h55.25.453,Slot Machine Game,2023.1.3,Win32,59.52380952,,,,,,,,,,,,,,,,,,,260.4954,5,,,,0.5,,,,,5,0,5,0,1,,,,,,,,,,,,,,,,,,,,,,,,,,,,,,,,,,,,,,,,,,,,
,,,,655bb7a29f5ea0609bcbf251,A,2024-07-01_12h55.25.453,Slot Machine Game,2023.1.3,Win32,59.52380952,,,,,,,,,,,,,,,,,,,266.0092,6,,,,1.5,,,,,6,0,6,0,1,,,,,,,,,,,,,,,,,,,,,,,,,,,,,,,,,,,,,,,,,,,,
,,,,655bb7a29f5ea0609bcbf251,A,2024-07-01_12h55.25.453,Slot Machine Game,2023.1.3,Win32,59.52380952,,,,,,,,,,,,,,,,,,,271.525,7,,,,1.5,,,,,7,0,7,0,1,,,,,,,,,,,,,,,,,,,,,,,,,,,,,,,,,,,,,,,,,,,,
,,,,655bb7a29f5ea0609bcbf251,A,2024-07-01_12h55.25.453,Slot Machine Game,2023.1.3,Win32,59.52380952,,,,,,,,,,,,,,,,,,,277.0389,8,,,,0.5,,,,,8,0,8,0,1,,,,,,,,,,,,,,,,,,,,,,,,,,,,,,,,,,,,,,,,,,,,
,,,,655bb7a29f5ea0609bcbf251,A,2024-07-01_12h55.25.453,Slot Machine Game,2023.1.3,Win32,59.52380952,,,,,,,,,,,,,,,,,,,282.5539,9,,,,0.5,,,,,9,0,9,0,1,,,,,,,,,,,,,,,,,,,,,,,,,,,,,,,,,,,,,,,,,,,,
,,,,655bb7a29f5ea0609bcbf251,A,2024-07-01_12h55.25.453,Slot Machine Game,2023.1.3,Win32,59.52380952,,,,,,,,,,,,,,,,,,,288.0686,10,,,,0.5,,,,,10,0,10,0,1,,,,,,,,,,,,,,,,,,,,,,,,,,,,,,,,,,,,,,,,,,,,
,,,,655bb7a29f5ea0609bcbf251,A,2024-07-01_12h55.25.453,Slot Machine Game,2023.1.3,Win32,59.52380952,,,,,,,,,,,,,,,,,,,293.5836,11,,,,1.5,,,,,11,0,11,0,1,,,,,,,,,,,,,,,,,,,,,,,,,,,,,,,,,,,,,,,,,,,,
,,,,655bb7a29f5ea0609bcbf251,A,2024-07-01_12h55.25.453,Slot Machine Game,2023.1.3,Win32,59.52380952,,,,,,,,,,,,,,,,,,,299.0983,12,,,,1,,,,,12,0,12,0,1,,,,,,,,,,,,,,,,,,,,,,,,,,,,,,,,,,,,,,,,,,,,
,,,,655bb7a29f5ea0609bcbf251,A,2024-07-01_12h55.25.453,Slot Machine Game,2023.1.3,Win32,59.52380952,,,,,,,,,,,,,,,,,,,304.6126,13,,,,0.5,,,,,13,0,13,0,1,,,,,,,,,,,,,,,,,,,,,,,,,,,,,,,,,,,,,,,,,,,,
,,,,655bb7a29f5ea0609bcbf251,A,2024-07-01_12h55.25.453,Slot Machine Game,2023.1.3,Win32,59.52380952,,,,,,,,,,,,,,,,,,,310.1275,14,,,,0.5,,,,,14,0,14,0,1,,,,,,,,,,,,,,,,,,,,,,,,,,,,,,,,,,,,,,,,,,,,
,,,,655bb7a29f5ea0609bcbf251,A,2024-07-01_12h55.25.453,Slot Machine Game,2023.1.3,Win32,59.52380952,,,,,,,,,,,,,,,,,,,,,,,,,,,,,,,,,,,315.6423,,,320.6407,space,19.0254,,,,,,,,,,,,,,,,,,,,,,,,,,,,,,,,,,,,,
,,,,655bb7a29f5ea0609bcbf251,A,2024-07-01_12h55.25.453,Slot Machine Game,2023.1.3,Win32,59.52380952,,,,,,,,,,,,,,,,,,,,,,,,,,,,,,,,,,,,,,,,,,339.6847,1,"[0,1,2,3,4,5,6,7,8,9]",space,3.0958,,,,,,,,,,,,,,,,,,,,,,,,,,,,,,,
,,,,655bb7a29f5ea0609bcbf251,A,2024-07-01_12h55.25.453,Slot Machine Game,2023.1.3,Win32,59.52380952,,,,,,,,,,,,,,,,,,,,,,,,,,,100,,,,,,,,,,,,,,,,,,,,,1,1,"[12,15]","[[2,1,3],[2,3,1]]",342.8082,0,up,0.7564,,1.5,0.3,"[2,1,3]",0.689120661,stimuli/card_100_transparent.png,100,0,0,0,0,1,,,,,,,,,,
,,,,655bb7a29f5ea0609bcbf251,A,2024-07-01_12h55.25.453,Slot Machine Game,2023.1.3,Win32,59.52380952,,,,,,,,,,,,,,,,,,,,,,,,,,,200,,,,,,,,,,,,,,,,,,,,,1,1,,,345.8821,1,up,0.188,,0.5,0.3,"[2,1,3]",0.630158466,stimuli/card_100_transparent.png,100,1,0,1,0,1,,,,,,,,,,
,,,,655bb7a29f5ea0609bcbf251,A,2024-07-01_12h55.25.453,Slot Machine Game,2023.1.3,Win32,59.52380952,,,,,,,,,,,,,,,,,,,,,,,,,,,200,,,,,,,,,,,,,,,,,,,,,1,1,,,347.3979,2,up,0.2218,,1.5,0.3,"[2,1,3]",0.099394093,stimuli/card_0_transparent.png,0,2,0,2,0,1,,,,,,,,,,
,,,,655bb7a29f5ea0609bcbf251,A,2024-07-01_12h55.25.453,Slot Machine Game,2023.1.3,Win32,59.52380952,,,,,,,,,,,,,,,,,,,,,,,,,,,300,,,,,,,,,,,,,,,,,,,,,1,1,,,349.9471,3,up,1.0897,,1,0.3,"[2,1,3]",0.688128949,stimuli/card_100_transparent.png,100,3,0,3,0,1,,,,,,,,,,
,,,,655bb7a29f5ea0609bcbf251,A,2024-07-01_12h55.25.453,Slot Machine Game,2023.1.3,Win32,59.52380952,,,,,,,,,,,,,,,,,,,,,,,,,,,300,,,,,,,,,,,,,,,,,,,,,1,1,,,352.8628,4,up,0.016,,1,0.3,"[2,1,3]",0.094303614,stimuli/card_0_transparent.png,0,4,0,4,0,1,,,,,,,,,,
,,,,655bb7a29f5ea0609bcbf251,A,2024-07-01_12h55.25.453,Slot Machine Game,2023.1.3,Win32,59.52380952,,,,,,,,,,,,,,,,,,,,,,,,,,,310,,,,,,,,,,,,,,,,,,,,,1,1,,,354.7119,5,up,0.1344,,1,0.3,"[2,1,3]",0.1102658,stimuli/card_10_transparent.png,10,5,0,5,0,1,,,,,,,,,,
,,,,655bb7a29f5ea0609bcbf251,A,2024-07-01_12h55.25.453,Slot Machine Game,2023.1.3,Win32,59.52380952,,,,,,,,,,,,,,,,,,,,,,,,,,,410,,,,,,,,,,,,,,,,,,,,,1,1,,,356.6783,6,up,0.6989,,0.5,0.3,"[2,1,3]",0.972642995,stimuli/card_100_transparent.png,100,6,0,6,0,1,,,,,,,,,,
,,,,655bb7a29f5ea0609bcbf251,A,2024-07-01_12h55.25.453,Slot Machine Game,2023.1.3,Win32,59.52380952,,,,,,,,,,,,,,,,,,,,,,,,,,,510,,,,,,,,,,,,,,,,,,,,,1,1,,,358.7108,7,up,0.2024,,1,0.3,"[2,1,3]",0.308677692,stimuli/card_100_transparent.png,100,7,0,7,0,1,,,,,,,,,,
,,,,655bb7a29f5ea0609bcbf251,A,2024-07-01_12h55.25.453,Slot Machine Game,2023.1.3,Win32,59.52380952,,,,,,,,,,,,,,,,,,,,,,,,,,,610,,,,,,,,,,,,,,,,,,,,,1,1,,,360.744,8,up,0.7502,,1.5,0.3,"[2,1,3]",0.650118036,stimuli/card_100_transparent.png,100,8,0,8,0,1,,,,,,,,,,
,,,,655bb7a29f5ea0609bcbf251,A,2024-07-01_12h55.25.453,Slot Machine Game,2023.1.3,Win32,59.52380952,,,,,,,,,,,,,,,,,,,,,,,,,,,710,,,,,,,,,,,,,,,,,,,,,1,1,,,363.8257,9,up,0.154,,1,0.3,"[2,1,3]",0.944444318,stimuli/card_100_transparent.png,100,9,0,9,0,1,,,,,,,,,,
,,,,655bb7a29f5ea0609bcbf251,A,2024-07-01_12h55.25.453,Slot Machine Game,2023.1.3,Win32,59.52380952,,,,,,,,,,,,,,,,,,,,,,,,,,,810,,,,,,,,,,,,,,,,,,,,,1,1,,,365.8082,10,up,0.6706,,1.5,0.3,"[2,1,3]",0.623933996,stimuli/card_100_transparent.png,100,10,0,10,0,1,,,,,,,,,,
,,,,655bb7a29f5ea0609bcbf251,A,2024-07-01_12h55.25.453,Slot Machine Game,2023.1.3,Win32,59.52380952,,,,,,,,,,,,,,,,,,,,,,,,,,,910,,,,,,,,,,,,,,,,,,,,,1,1,,,368.8075,11,up,0.1172,,0.5,0.3,"[2,1,3]",0.89682726,stimuli/card_100_transparent.png,100,11,0,11,0,1,,,,,,,,,,
,,,,655bb7a29f5ea0609bcbf251,A,2024-07-01_12h55.25.453,Slot Machine Game,2023.1.3,Win32,59.52380952,,,,,,,,,,,,,,,,,,,,,,,,,,,910,,,,,,,,,,,,,,,,,,,,,1,1,,,370.257,12,up,0.0844,,0.5,0.3,"[2,3,1]",0.275577057,stimuli/card_0_transparent.png,0,12,0,12,0,1,,,,,,,,,,
,,,,655bb7a29f5ea0609bcbf251,A,2024-07-01_12h55.25.453,Slot Machine Game,2023.1.3,Win32,59.52380952,,,,,,,,,,,,,,,,,,,,,,,,,,,910,,,,,,,,,,,,,,,,,,,,,1,1,,,371.6731,13,up,1.1689,,1.5,0.3,"[2,3,1]",0.854589976,stimuli/card_0_transparent.png,0,13,0,13,0,1,,,,,,,,,,
,,,,655bb7a29f5ea0609bcbf251,A,2024-07-01_12h55.25.453,Slot Machine Game,2023.1.3,Win32,59.52380952,,,,,,,,,,,,,,,,,,,,,,,,,,,920,,,,,,,,,,,,,,,,,,,,,1,1,,,375.1721,14,left,0.7384,,1,0.3,"[2,3,1]",0.956439919,stimuli/card_10_transparent.png,10,14,0,14,0,1,,,,,,,,,,
,,,,655bb7a29f5ea0609bcbf251,A,2024-07-01_12h55.25.453,Slot Machine Game,2023.1.3,Win32,59.52380952,,,,,,,,,,,,,,,,,,,,,,,,,,,,,,,,,,,377.7378,,,,,,,,,,,,,,,,,,,,,,,,,,,,,,,,,[920],0,0,0,0,1,,,,
,,,,655bb7a29f5ea0609bcbf251,A,2024-07-01_12h55.25.453,Slot Machine Game,2023.1.3,Win32,59.52380952,,,,,,,,,,,,,,,,,,,,,,,,,,,100,,,,,,,,,,,,,,,,,,,,,2,2,"[6,15]","[[1,3,2],[3,2,1]]",382.7437,0,left,2.5499,,1.5,0.3,"[1,3,2]",0.744911862,stimuli/card_100_transparent.png,100,0,0,0,0,1,,,,,,,,,,
,,,,655bb7a29f5ea0609bcbf251,A,2024-07-01_12h55.25.453,Slot Machine Game,2023.1.3,Win32,59.52380952,,,,,,,,,,,,,,,,,,,,,,,,,,,200,,,,,,,,,,,,,,,,,,,,,2,2,,,387.6177,1,left,3.1128,,0.5,0.3,"[1,3,2]",0.487217048,stimuli/card_100_transparent.png,100,1,0,1,0,1,,,,,,,,,,
,,,,655bb7a29f5ea0609bcbf251,A,2024-07-01_12h55.25.453,Slot Machine Game,2023.1.3,Win32,59.52380952,,,,,,,,,,,,,,,,,,,,,,,,,,,300,,,,,,,,,,,,,,,,,,,,,2,2,,,392.0663,2,left,0.4678,,1,0.3,"[1,3,2]",0.325240906,stimuli/card_100_transparent.png,100,2,0,2,0,1,,,,,,,,,,
,,,,655bb7a29f5ea0609bcbf251,A,2024-07-01_12h55.25.453,Slot Machine Game,2023.1.3,Win32,59.52380952,,,,,,,,,,,,,,,,,,,,,,,,,,,400,,,,,,,,,,,,,,,,,,,,,2,2,,,394.3653,3,left,0.0341,,1,0.3,"[1,3,2]",0.570352403,stimuli/card_100_transparent.png,100,3,0,3,0,1,,,,,,,,,,
,,,,655bb7a29f5ea0609bcbf251,A,2024-07-01_12h55.25.453,Slot Machine Game,2023.1.3,Win32,59.52380952,,,,,,,,,,,,,,,,,,,,,,,,,,,500,,,,,,,,,,,,,,,,,,,,,2,2,,,396.2314,4,left,0.2006,,1.5,0.3,"[1,3,2]",0.533186657,stimuli/card_100_transparent.png,100,4,0,4,0,1,,,,,,,,,,
,,,,655bb7a29f5ea0609bcbf251,A,2024-07-01_12h55.25.453,Slot Machine Game,2023.1.3,Win32,59.52380952,,,,,,,,,,,,,,,,,,,,,,,,,,,510,,,,,,,,,,,,,,,,,,,,,2,2,,,398.7639,5,left,0.6859,,1,0.3,"[1,3,2]",0.158633355,stimuli/card_10_transparent.png,10,5,0,5,0,1,,,,,,,,,,
,,,,655bb7a29f5ea0609bcbf251,A,2024-07-01_12h55.25.453,Slot Machine Game,2023.1.3,Win32,59.52380952,,,,,,,,,,,,,,,,,,,,,,,,,,,610,,,,,,,,,,,,,,,,,,,,,2,2,,,401.2799,6,left,0.5682,,1,0.3,"[3,2,1]",0.060522755,stimuli/card_100_transparent.png,100,6,0,6,0,1,,,,,,,,,,
,,,,655bb7a29f5ea0609bcbf251,A,2024-07-01_12h55.25.453,Slot Machine Game,2023.1.3,Win32,59.52380952,,,,,,,,,,,,,,,,,,,,,,,,,,,610,,,,,,,,,,,,,,,,,,,,,2,2,,,403.6789,7,left,0.5216,,1.5,0.3,"[3,2,1]",0.427771768,stimuli/card_0_transparent.png,0,7,0,7,0,1,,,,,,,,,,
,,,,655bb7a29f5ea0609bcbf251,A,2024-07-01_12h55.25.453,Slot Machine Game,2023.1.3,Win32,59.52380952,,,,,,,,,,,,,,,,,,,,,,,,,,,610,,,,,,,,,,,,,,,,,,,,,2,2,,,406.5279,8,left,0.1001,,1,0.3,"[3,2,1]",0.688830438,stimuli/card_0_transparent.png,0,8,0,8,0,1,,,,,,,,,,
,,,,655bb7a29f5ea0609bcbf251,A,2024-07-01_12h55.25.453,Slot Machine Game,2023.1.3,Win32,59.52380952,,,,,,,,,,,,,,,,,,,,,,,,,,,620,,,,,,,,,,,,,,,,,,,,,2,2,,,408.4606,9,up,0.9707,,0.5,0.3,"[3,2,1]",0.704585933,stimuli/card_10_transparent.png,10,9,0,9,0,1,,,,,,,,,,
,,,,655bb7a29f5ea0609bcbf251,A,2024-07-01_12h55.25.453,Slot Machine Game,2023.1.3,Win32,59.52380952,,,,,,,,,,,,,,,,,,,,,,,,,,,720,,,,,,,,,,,,,,,,,,,,,2,2,,,410.7599,10,up,0.4641,,0.5,0.3,"[3,2,1]",0.171871853,stimuli/card_100_transparent.png,100,10,0,10,0,1,,,,,,,,,,
,,,,655bb7a29f5ea0609bcbf251,A,2024-07-01_12h55.25.453,Slot Machine Game,2023.1.3,Win32,59.52380952,,,,,,,,,,,,,,,,,,,,,,,,,,,730,,,,,,,,,,,,,,,,,,,,,2,2,,,412.5426,11,up,0.0847,,0.5,0.3,"[3,2,1]",0.59752697,stimuli/card_10_transparent.png,10,11,0,11,0,1,,,,,,,,,,
,,,,655bb7a29f5ea0609bcbf251,A,2024-07-01_12h55.25.453,Slot Machine Game,2023.1.3,Win32,59.52380952,,,,,,,,,,,,,,,,,,,,,,,,,,,740,,,,,,,,,,,,,,,,,,,,,2,2,,,413.9587,12,up,1.8161,,0.5,0.3,"[3,2,1]",0.537052674,stimuli/card_10_transparent.png,10,12,0,12,0,1,,,,,,,,,,
,,,,655bb7a29f5ea0609bcbf251,A,2024-07-01_12h55.25.453,Slot Machine Game,2023.1.3,Win32,59.52380952,,,,,,,,,,,,,,,,,,,,,,,,,,,750,,,,,,,,,,,,,,,,,,,,,2,2,,,417.1078,13,up,1.3819,,1,0.3,"[3,2,1]",0.986411562,stimuli/card_10_transparent.png,10,13,0,13,0,1,,,,,,,,,,
,,,,655bb7a29f5ea0609bcbf251,A,2024-07-01_12h55.25.453,Slot Machine Game,2023.1.3,Win32,59.52380952,,,,,,,,,,,,,,,,,,,,,,,,,,,750,,,,,,,,,,,,,,,,,,,,,2,2,,,420.3234,14,left,0.9667,,1,0.3,"[3,2,1]",0.715873378,stimuli/card_0_transparent.png,0,14,0,14,0,1,,,,,,,,,,
,,,,655bb7a29f5ea0609bcbf251,A,2024-07-01_12h55.25.453,Slot Machine Game,2023.1.3,Win32,59.52380952,,,,,,,,,,,,,,,,,,,,,,,,,,,,,,,,,,,423.1221,,,,,,,,,,,,,,,,,,,,,,,,,,,,,,,,,"[920,750]",1,0,1,0,1,,,,
,,,,655bb7a29f5ea0609bcbf251,A,2024-07-01_12h55.25.453,Slot Machine Game,2023.1.3,Win32,59.52380952,,,,,,,,,,,,,,,,,,,,,,,,,,,10,,,,,,,,,,,,,,,,,,,,,3,3,"[15,15]","[[3,1,2],[3,1,2]]",428.1282,0,right,2.2658,,1.5,0.3,"[3,1,2]",0.997667144,stimuli/card_10_transparent.png,10,0,0,0,0,1,,,,,,,,,,
,,,,655bb7a29f5ea0609bcbf251,A,2024-07-01_12h55.25.453,Slot Machine Game,2023.1.3,Win32,59.52380952,,,,,,,,,,,,,,,,,,,,,,,,,,,110,,,,,,,,,,,,,,,,,,,,,3,3,,,432.7192,1,up,0.5559,,0.5,0.3,"[3,1,2]",0.434959239,stimuli/card_100_transparent.png,100,1,0,1,0,1,,,,,,,,,,
,,,,655bb7a29f5ea0609bcbf251,A,2024-07-01_12h55.25.453,Slot Machine Game,2023.1.3,Win32,59.52380952,,,,,,,,,,,,,,,,,,,,,,,,,,,110,,,,,,,,,,,,,,,,,,,,,3,3,,,434.6018,2,up,0.6014,,1,0.3,"[3,1,2]",0.082425612,stimuli/card_0_transparent.png,0,2,0,2,0,1,,,,,,,,,,
,,,,655bb7a29f5ea0609bcbf251,A,2024-07-01_12h55.25.453,Slot Machine Game,2023.1.3,Win32,59.52380952,,,,,,,,,,,,,,,,,,,,,,,,,,,120,,,,,,,,,,,,,,,,,,,,,3,3,,,437.0342,3,up,0.0533,,1.5,0.3,"[3,1,2]",0.115692473,stimuli/card_10_transparent.png,10,3,0,3,0,1,,,,,,,,,,
,,,,655bb7a29f5ea0609bcbf251,A,2024-07-01_12h55.25.453,Slot Machine Game,2023.1.3,Win32,59.52380952,,,,,,,,,,,,,,,,,,,,,,,,,,,130,,,,,,,,,,,,,,,,,,,,,3,3,,,439.4166,4,up,0.7992,,1.5,0.3,"[3,1,2]",0.107377501,stimuli/card_10_transparent.png,10,4,0,4,0,1,,,,,,,,,,
,,,,655bb7a29f5ea0609bcbf251,A,2024-07-01_12h55.25.453,Slot Machine Game,2023.1.3,Win32,59.52380952,,,,,,,,,,,,,,,,,,,,,,,,,,,130,,,,,,,,,,,,,,,,,,,,,3,3,,,442.5323,5,left,1.7726,,1,0.3,"[3,1,2]",0.614321593,stimuli/card_0_transparent.png,0,5,0,5,0,1,,,,,,,,,,
,,,,655bb7a29f5ea0609bcbf251,A,2024-07-01_12h55.25.453,Slot Machine Game,2023.1.3,Win32,59.52380952,,,,,,,,,,,,,,,,,,,,,,,,,,,140,,,,,,,,,,,,,,,,,,,,,3,3,,,446.1311,6,right,2.4011,,1,0.3,"[3,1,2]",0.359884815,stimuli/card_10_transparent.png,10,6,0,6,0,1,,,,,,,,,,
,,,,655bb7a29f5ea0609bcbf251,A,2024-07-01_12h55.25.453,Slot Machine Game,2023.1.3,Win32,59.52380952,,,,,,,,,,,,,,,,,,,,,,,,,,,150,,,,,,,,,,,,,,,,,,,,,3,3,,,450.3632,7,right,1.2046,,0.5,0.3,"[3,1,2]",0.376299885,stimuli/card_10_transparent.png,10,7,0,7,0,1,,,,,,,,,,
,,,,655bb7a29f5ea0609bcbf251,A,2024-07-01_12h55.25.453,Slot Machine Game,2023.1.3,Win32,59.52380952,,,,,,,,,,,,,,,,,,,,,,,,,,,250,,,,,,,,,,,,,,,,,,,,,3,3,,,452.8956,8,up,0.9374,,1.5,0.3,"[3,1,2]",0.857473157,stimuli/card_100_transparent.png,100,8,0,8,0,1,,,,,,,,,,
,,,,655bb7a29f5ea0609bcbf251,A,2024-07-01_12h55.25.453,Slot Machine Game,2023.1.3,Win32,59.52380952,,,,,,,,,,,,,,,,,,,,,,,,,,,250,,,,,,,,,,,,,,,,,,,,,3,3,,,456.1612,9,up,0.0397,,1,0.3,"[3,1,2]",0.068986211,stimuli/card_0_transparent.png,0,9,0,9,0,1,,,,,,,,,,
,,,,655bb7a29f5ea0609bcbf251,A,2024-07-01_12h55.25.453,Slot Machine Game,2023.1.3,Win32,59.52380952,,,,,,,,,,,,,,,,,,,,,,,,,,,350,,,,,,,,,,,,,,,,,,,,,3,3,,,458.0271,10,up,0.0159,,1,0.3,"[3,1,2]",0.507409955,stimuli/card_100_transparent.png,100,10,0,10,0,1,,,,,,,,,,
,,,,655bb7a29f5ea0609bcbf251,A,2024-07-01_12h55.25.453,Slot Machine Game,2023.1.3,Win32,59.52380952,,,,,,,,,,,,,,,,,,,,,,,,,,,450,,,,,,,,,,,,,,,,,,,,,3,3,,,459.8765,11,up,0.1505,,1.5,0.3,"[3,1,2]",0.227722337,stimuli/card_100_transparent.png,100,11,0,11,0,1,,,,,,,,,,
,,,,655bb7a29f5ea0609bcbf251,A,2024-07-01_12h55.25.453,Slot Machine Game,2023.1.3,Win32,59.52380952,,,,,,,,,,,,,,,,,,,,,,,,,,,550,,,,,,,,,,,,,,,,,,,,,3,3,,,462.3588,12,up,0.7788,,1,0.3,"[3,1,2]",0.553043832,stimuli/card_100_transparent.png,100,12,0,12,0,1,,,,,,,,,,
,,,,655bb7a29f5ea0609bcbf251,A,2024-07-01_12h55.25.453,Slot Machine Game,2023.1.3,Win32,59.52380952,,,,,,,,,,,,,,,,,,,,,,,,,,,560,,,,,,,,,,,,,,,,,,,,,3,3,,,464.9748,13,up,0.5184,,0.5,0.3,"[3,1,2]",0.12560197,stimuli/card_10_transparent.png,10,13,0,13,0,1,,,,,,,,,,
,,,,655bb7a29f5ea0609bcbf251,A,2024-07-01_12h55.25.453,Slot Machine Game,2023.1.3,Win32,59.52380952,,,,,,,,,,,,,,,,,,,,,,,,,,,660,,,,,,,,,,,,,,,,,,,,,3,3,,,466.8243,14,up,0.2372,,0.5,0.3,"[3,1,2]",0.54923387,stimuli/card_100_transparent.png,100,14,0,14,0,1,,,,,,,,,,
,,,,655bb7a29f5ea0609bcbf251,A,2024-07-01_12h55.25.453,Slot Machine Game,2023.1.3,Win32,59.52380952,,,,,,,,,,,,,,,,,,,,,,,,,,,,,,,,,,,468.3905,,,,,,,,,,,,,,,,,,,,,,,,,,,,,,,,,"[920,750,660]",2,0,2,0,1,,,,
,,,,655bb7a29f5ea0609bcbf251,A,2024-07-01_12h55.25.453,Slot Machine Game,2023.1.3,Win32,59.52380952,,,,,,,,,,,,,,,,,,,,,,,,,,,100,,,,,,,,,,,,,,,,,,,,,4,4,"[7,15]","[[2,3,1],[1,2,3]]",473.3963,0,right,1.3536,,1.5,0.3,"[2,3,1]",0.703187411,stimuli/card_100_transparent.png,100,0,0,0,0,1,,,,,,,,,,
,,,,655bb7a29f5ea0609bcbf251,A,2024-07-01_12h55.25.453,Slot Machine Game,2023.1.3,Win32,59.52380952,,,,,,,,,,,,,,,,,,,,,,,,,,,200,,,,,,,,,,,,,,,,,,,,,4,4,,,477.0707,1,right,0.5212,,1,0.3,"[2,3,1]",0.877055794,stimuli/card_100_transparent.png,100,1,0,1,0,1,,,,,,,,,,
,,,,655bb7a29f5ea0609bcbf251,A,2024-07-01_12h55.25.453,Slot Machine Game,2023.1.3,Win32,59.52380952,,,,,,,,,,,,,,,,,,,,,,,,,,,300,,,,,,,,,,,,,,,,,,,,,4,4,,,479.42,2,right,0.2836,,0.5,0.3,"[2,3,1]",0.479489869,stimuli/card_100_transparent.png,100,2,0,2,0,1,,,,,,,,,,
,,,,655bb7a29f5ea0609bcbf251,A,2024-07-01_12h55.25.453,Slot Machine Game,2023.1.3,Win32,59.52380952,,,,,,,,,,,,,,,,,,,,,,,,,,,400,,,,,,,,,,,,,,,,,,,,,4,4,,,481.0359,3,right,0.0688,,1.5,0.3,"[2,3,1]",0.274869413,stimuli/card_100_transparent.png,100,3,0,3,0,1,,,,,,,,,,
,,,,655bb7a29f5ea0609bcbf251,A,2024-07-01_12h55.25.453,Slot Machine Game,2023.1.3,Win32,59.52380952,,,,,,,,,,,,,,,,,,,,,,,,,,,500,,,,,,,,,,,,,,,,,,,,,4,4,,,483.4185,4,right,1.6668,,1,0.3,"[2,3,1]",0.678506424,stimuli/card_100_transparent.png,100,4,0,4,0,1,,,,,,,,,,
,,,,655bb7a29f5ea0609bcbf251,A,2024-07-01_12h55.25.453,Slot Machine Game,2023.1.3,Win32,59.52380952,,,,,,,,,,,,,,,,,,,,,,,,,,,600,,,,,,,,,,,,,,,,,,,,,4,4,,,486.9006,5,right,1.4397,,0.5,0.3,"[2,3,1]",0.462530082,stimuli/card_100_transparent.png,100,5,0,5,0,1,,,,,,,,,,
,,,,655bb7a29f5ea0609bcbf251,A,2024-07-01_12h55.25.453,Slot Machine Game,2023.1.3,Win32,59.52380952,,,,,,,,,,,,,,,,,,,,,,,,,,,700,,,,,,,,,,,,,,,,,,,,,4,4,,,489.6664,6,right,0.3172,,1.5,0.3,"[2,3,1]",0.252110931,stimuli/card_100_transparent.png,100,6,0,6,0,1,,,,,,,,,,
,,,,655bb7a29f5ea0609bcbf251,A,2024-07-01_12h55.25.453,Slot Machine Game,2023.1.3,Win32,59.52380952,,,,,,,,,,,,,,,,,,,,,,,,,,,700,,,,,,,,,,,,,,,,,,,,,4,4,,,492.3155,7,right,0.3685,,0.5,0.3,"[1,2,3]",0.211262639,stimuli/card_0_transparent.png,0,7,0,7,0,1,,,,,,,,,,
,,,,655bb7a29f5ea0609bcbf251,A,2024-07-01_12h55.25.453,Slot Machine Game,2023.1.3,Win32,59.52380952,,,,,,,,,,,,,,,,,,,,,,,,,,,700,,,,,,,,,,,,,,,,,,,,,4,4,,,494.0149,8,right,0.4178,,1.5,0.3,"[1,2,3]",0.992856152,stimuli/card_0_transparent.png,0,8,0,8,0,1,,,,,,,,,,
,,,,655bb7a29f5ea0609bcbf251,A,2024-07-01_12h55.25.453,Slot Machine Game,2023.1.3,Win32,59.52380952,,,,,,,,,,,,,,,,,,,,,,,,,,,710,,,,,,,,,,,,,,,,,,,,,4,4,,,496.7638,9,up,1.7214,,1,0.3,"[1,2,3]",0.396724608,stimuli/card_10_transparent.png,10,9,0,9,0,1,,,,,,,,,,
,,,,655bb7a29f5ea0609bcbf251,A,2024-07-01_12h55.25.453,Slot Machine Game,2023.1.3,Win32,59.52380952,,,,,,,,,,,,,,,,,,,,,,,,,,,720,,,,,,,,,,,,,,,,,,,,,4,4,,,500.2962,10,up,0.5358,,1.5,0.3,"[1,2,3]",0.512853159,stimuli/card_10_transparent.png,10,10,0,10,0,1,,,,,,,,,,
,,,,655bb7a29f5ea0609bcbf251,A,2024-07-01_12h55.25.453,Slot Machine Game,2023.1.3,Win32,59.52380952,,,,,,,,,,,,,,,,,,,,,,,,,,,730,,,,,,,,,,,,,,,,,,,,,4,4,,,503.1619,11,up,0.7521,,0.5,0.3,"[1,2,3]",0.622000603,stimuli/card_10_transparent.png,10,11,0,11,0,1,,,,,,,,,,
,,,,655bb7a29f5ea0609bcbf251,A,2024-07-01_12h55.25.453,Slot Machine Game,2023.1.3,Win32,59.52380952,,,,,,,,,,,,,,,,,,,,,,,,,,,740,,,,,,,,,,,,,,,,,,,,,4,4,,,505.2446,12,up,1.2692,,0.5,0.3,"[1,2,3]",0.669057608,stimuli/card_10_transparent.png,10,12,0,12,0,1,,,,,,,,,,
,,,,655bb7a29f5ea0609bcbf251,A,2024-07-01_12h55.25.453,Slot Machine Game,2023.1.3,Win32,59.52380952,,,,,,,,,,,,,,,,,,,,,,,,,,,840,,,,,,,,,,,,,,,,,,,,,4,4,,,507.8438,13,right,0.1917,,0.5,0.3,"[1,2,3]",0.079855145,stimuli/card_100_transparent.png,100,13,0,13,0,1,,,,,,,,,,
,,,,655bb7a29f5ea0609bcbf251,A,2024-07-01_12h55.25.453,Slot Machine Game,2023.1.3,Win32,59.52380952,,,,,,,,,,,,,,,,,,,,,,,,,,,840,,,,,,,,,,,,,,,,,,,,,4,4,,,509.3596,14,right,0.4029,,1.5,0.3,"[1,2,3]",0.781688338,stimuli/card_0_transparent.png,0,14,0,14,0,1,,,,,,,,,,
,,,,655bb7a29f5ea0609bcbf251,A,2024-07-01_12h55.25.453,Slot Machine Game,2023.1.3,Win32,59.52380952,,,,,,,,,,,,,,,,,,,,,,,,,,,,,,,,,,,512.0756,,,,,,,,,,,,,,,,,,,,,,,,,,,,,,,,,"[920,750,660,840]",3,0,3,0,1,,,,
,,,,655bb7a29f5ea0609bcbf251,A,2024-07-01_12h55.25.453,Slot Machine Game,2023.1.3,Win32,59.52380952,,,,,,,,,,,,,,,,,,,,,,,,,,,100,,,,,,,,,,,,,,,,,,,,,5,5,"[5,15]","[[1,2,3],[3,1,2]]",517.0812,0,left,1.8312,,1,0.3,"[1,2,3]",0.490696439,stimuli/card_100_transparent.png,100,0,0,0,0,1,,,,,,,,,,
,,,,655bb7a29f5ea0609bcbf251,A,2024-07-01_12h55.25.453,Slot Machine Game,2023.1.3,Win32,59.52380952,,,,,,,,,,,,,,,,,,,,,,,,,,,100,,,,,,,,,,,,,,,,,,,,,5,5,,,520.7394,1,left,0.0561,,1.5,0.3,"[1,2,3]",0.038676441,stimuli/card_0_transparent.png,0,1,0,1,0,1,,,,,,,,,,
,,,,655bb7a29f5ea0609bcbf251,A,2024-07-01_12h55.25.453,Slot Machine Game,2023.1.3,Win32,59.52380952,,,,,,,,,,,,,,,,,,,,,,,,,,,200,,,,,,,,,,,,,,,,,,,,,5,5,,,523.1217,2,left,2.7372,,0.5,0.3,"[1,2,3]",0.980854705,stimuli/card_100_transparent.png,100,2,0,2,0,1,,,,,,,,,,
,,,,655bb7a29f5ea0609bcbf251,A,2024-07-01_12h55.25.453,Slot Machine Game,2023.1.3,Win32,59.52380952,,,,,,,,,,,,,,,,,,,,,,,,,,,200,,,,,,,,,,,,,,,,,,,,,5,5,,,527.1706,3,left,0.0668,,1,0.3,"[1,2,3]",0.022183724,stimuli/card_0_transparent.png,0,3,0,3,0,1,,,,,,,,,,
,,,,655bb7a29f5ea0609bcbf251,A,2024-07-01_12h55.25.453,Slot Machine Game,2023.1.3,Win32,59.52380952,,,,,,,,,,,,,,,,,,,,,,,,,,,300,,,,,,,,,,,,,,,,,,,,,5,5,,,529.0699,4,left,0.0836,,0.5,0.3,"[1,2,3]",0.350818046,stimuli/card_100_transparent.png,100,4,0,4,0,1,,,,,,,,,,
,,,,655bb7a29f5ea0609bcbf251,A,2024-07-01_12h55.25.453,Slot Machine Game,2023.1.3,Win32,59.52380952,,,,,,,,,,,,,,,,,,,,,,,,,,,300,,,,,,,,,,,,,,,,,,,,,5,5,,,530.4859,5,left,0.5838,,0.5,0.3,"[3,1,2]",0.660237525,stimuli/card_0_transparent.png,0,5,0,5,0,1,,,,,,,,,,
,,,,655bb7a29f5ea0609bcbf251,A,2024-07-01_12h55.25.453,Slot Machine Game,2023.1.3,Win32,59.52380952,,,,,,,,,,,,,,,,,,,,,,,,,,,300,,,,,,,,,,,,,,,,,,,,,5,5,,,532.4019,6,left,1.8989,,1,0.3,"[3,1,2]",0.283314891,stimuli/card_0_transparent.png,0,6,0,6,0,1,,,,,,,,,,
,,,,655bb7a29f5ea0609bcbf251,A,2024-07-01_12h55.25.453,Slot Machine Game,2023.1.3,Win32,59.52380952,,,,,,,,,,,,,,,,,,,,,,,,,,,300,,,,,,,,,,,,,,,,,,,,,5,5,,,536.1174,7,left,0.3389,,0.5,0.3,"[3,1,2]",0.704503393,stimuli/card_0_transparent.png,0,7,0,7,0,1,,,,,,,,,,
,,,,655bb7a29f5ea0609bcbf251,A,2024-07-01_12h55.25.453,Slot Machine Game,2023.1.3,Win32,59.52380952,,,,,,,,,,,,,,,,,,,,,,,,,,,300,,,,,,,,,,,,,,,,,,,,,5,5,,,537.7836,8,left,0.6509,,1.5,0.3,"[3,1,2]",0.485563295,stimuli/card_0_transparent.png,0,8,0,8,0,1,,,,,,,,,,
,,,,655bb7a29f5ea0609bcbf251,A,2024-07-01_12h55.25.453,Slot Machine Game,2023.1.3,Win32,59.52380952,,,,,,,,,,,,,,,,,,,,,,,,,,,400,,,,,,,,,,,,,,,,,,,,,5,5,,,540.766,9,up,0.4347,,0.5,0.3,"[3,1,2]",0.702944754,stimuli/card_100_transparent.png,100,9,0,9,0,1,,,,,,,,,,
,,,,655bb7a29f5ea0609bcbf251,A,2024-07-01_12h55.25.453,Slot Machine Game,2023.1.3,Win32,59.52380952,,,,,,,,,,,,,,,,,,,,,,,,,,,500,,,,,,,,,,,,,,,,,,,,,5,5,,,542.5319,10,up,3.3349,,1,0.3,"[3,1,2]",0.981123602,stimuli/card_100_transparent.png,100,10,0,10,0,1,,,,,,,,,,
,,,,655bb7a29f5ea0609bcbf251,A,2024-07-01_12h55.25.453,Slot Machine Game,2023.1.3,Win32,59.52380952,,,,,,,,,,,,,,,,,,,,,,,,,,,500,,,,,,,,,,,,,,,,,,,,,5,5,,,547.697,11,up,0.5079,,1.5,0.3,"[3,1,2]",0.05138889,stimuli/card_0_transparent.png,0,11,0,11,0,1,,,,,,,,,,
,,,,655bb7a29f5ea0609bcbf251,A,2024-07-01_12h55.25.453,Slot Machine Game,2023.1.3,Win32,59.52380952,,,,,,,,,,,,,,,,,,,,,,,,,,,600,,,,,,,,,,,,,,,,,,,,,5,5,,,550.5294,12,up,0.2842,,1,0.3,"[3,1,2]",0.412567384,stimuli/card_100_transparent.png,100,12,0,12,0,1,,,,,,,,,,
,,,,655bb7a29f5ea0609bcbf251,A,2024-07-01_12h55.25.453,Slot Machine Game,2023.1.3,Win32,59.52380952,,,,,,,,,,,,,,,,,,,,,,,,,,,700,,,,,,,,,,,,,,,,,,,,,5,5,,,552.6451,13,up,0.3314,,1.5,0.3,"[3,1,2]",0.895825551,stimuli/card_100_transparent.png,100,13,0,13,0,1,,,,,,,,,,
,,,,655bb7a29f5ea0609bcbf251,A,2024-07-01_12h55.25.453,Slot Machine Game,2023.1.3,Win32,59.52380952,,,,,,,,,,,,,,,,,,,,,,,,,,,710,,,,,,,,,,,,,,,,,,,,,5,5,,,555.3108,14,up,0.2839,,1.5,0.3,"[3,1,2]",0.149492796,stimuli/card_10_transparent.png,10,14,0,14,0,1,,,,,,,,,,
,,,,655bb7a29f5ea0609bcbf251,A,2024-07-01_12h55.25.453,Slot Machine Game,2023.1.3,Win32,59.52380952,,,,,,,,,,,,,,,,,,,,,,,,,,,,,,,,,,,557.9268,,,,,,,,,,,,,,,,,,,,,,,,,,,,,,,,,"[920,750,660,840,710]",4,0,4,0,1,,,,
,,,,655bb7a29f5ea0609bcbf251,A,2024-07-01_12h55.25.453,Slot Machine Game,2023.1.3,Win32,59.52380952,,,,,,,,,,,,,,,,,,,,,,,,,,,100,,,,,,,,,,,,,,,,,,,,,6,6,"[4,10,15]","[[2,3,1],[1,3,2],[3,2,1]]",562.9311,0,right,1.1002,,1,0.3,"[2,3,1]",0.259859802,stimuli/card_100_transparent.png,100,0,0,0,0,1,,,,,,,,,,
,,,,655bb7a29f5ea0609bcbf251,A,2024-07-01_12h55.25.453,Slot Machine Game,2023.1.3,Win32,59.52380952,,,,,,,,,,,,,,,,,,,,,,,,,,,200,,,,,,,,,,,,,,,,,,,,,6,6,,,565.8575,1,right,0.2009,,0.5,0.3,"[2,3,1]",0.959787571,stimuli/card_100_transparent.png,100,1,0,1,0,1,,,,,,,,,,
,,,,655bb7a29f5ea0609bcbf251,A,2024-07-01_12h55.25.453,Slot Machine Game,2023.1.3,Win32,59.52380952,,,,,,,,,,,,,,,,,,,,,,,,,,,200,,,,,,,,,,,,,,,,,,,,,6,6,,,567.3903,2,right,0.1023,,0.5,0.3,"[2,3,1]",0.040715079,stimuli/card_0_transparent.png,0,2,0,2,0,1,,,,,,,,,,
,,,,655bb7a29f5ea0609bcbf251,A,2024-07-01_12h55.25.453,Slot Machine Game,2023.1.3,Win32,59.52380952,,,,,,,,,,,,,,,,,,,,,,,,,,,300,,,,,,,,,,,,,,,,,,,,,6,6,,,568.8229,3,right,0.0183,,1,0.3,"[2,3,1]",0.384814143,stimuli/card_100_transparent.png,100,3,0,3,0,1,,,,,,,,,,
,,,,655bb7a29f5ea0609bcbf251,A,2024-07-01_12h55.25.453,Slot Machine Game,2023.1.3,Win32,59.52380952,,,,,,,,,,,,,,,,,,,,,,,,,,,310,,,,,,,,,,,,,,,,,,,,,6,6,,,570.6725,4,right,2.2324,,1.5,0.3,"[1,3,2]",0.986457498,stimuli/card_10_transparent.png,10,4,0,4,0,1,,,,,,,,,,
,,,,655bb7a29f5ea0609bcbf251,A,2024-07-01_12h55.25.453,Slot Machine Game,2023.1.3,Win32,59.52380952,,,,,,,,,,,,,,,,,,,,,,,,,,,320,,,,,,,,,,,,,,,,,,,,,6,6,,,575.2375,5,right,3.9157,,1,0.3,"[1,3,2]",0.669938947,stimuli/card_10_transparent.png,10,5,0,5,0,1,,,,,,,,,,
,,,,655bb7a29f5ea0609bcbf251,A,2024-07-01_12h55.25.453,Slot Machine Game,2023.1.3,Win32,59.52380952,,,,,,,,,,,,,,,,,,,,,,,,,,,330,,,,,,,,,,,,,,,,,,,,,6,6,,,580.9854,6,right,0.0197,,1.5,0.3,"[1,3,2]",0.593859147,stimuli/card_10_transparent.png,10,6,0,6,0,1,,,,,,,,,,
,,,,655bb7a29f5ea0609bcbf251,A,2024-07-01_12h55.25.453,Slot Machine Game,2023.1.3,Win32,59.52380952,,,,,,,,,,,,,,,,,,,,,,,,,,,340,,,,,,,,,,,,,,,,,,,,,6,6,,,583.3182,7,right,0.0995,,1,0.3,"[1,3,2]",0.877550853,stimuli/card_10_transparent.png,10,7,0,7,0,1,,,,,,,,,,
,,,,655bb7a29f5ea0609bcbf251,A,2024-07-01_12h55.25.453,Slot Machine Game,2023.1.3,Win32,59.52380952,,,,,,,,,,,,,,,,,,,,,,,,,,,350,,,,,,,,,,,,,,,,,,,,,6,6,,,585.2508,8,right,0.5188,,0.5,0.3,"[1,3,2]",0.434145893,stimuli/card_10_transparent.png,10,8,0,8,0,1,,,,,,,,,,
,,,,655bb7a29f5ea0609bcbf251,A,2024-07-01_12h55.25.453,Slot Machine Game,2023.1.3,Win32,59.52380952,,,,,,,,,,,,,,,,,,,,,,,,,,,350,,,,,,,,,,,,,,,,,,,,,6,6,,,587.1,9,up,1.1148,,1.5,0.3,"[1,3,2]",0.753501581,stimuli/card_0_transparent.png,0,9,0,9,0,1,,,,,,,,,,
,,,,655bb7a29f5ea0609bcbf251,A,2024-07-01_12h55.25.453,Slot Machine Game,2023.1.3,Win32,59.52380952,,,,,,,,,,,,,,,,,,,,,,,,,,,350,,,,,,,,,,,,,,,,,,,,,6,6,,,590.5489,10,left,0.6987,,1,0.3,"[3,2,1]",0.48399987,stimuli/card_0_transparent.png,0,10,0,10,0,1,,,,,,,,,,
,,,,655bb7a29f5ea0609bcbf251,A,2024-07-01_12h55.25.453,Slot Machine Game,2023.1.3,Win32,59.52380952,,,,,,,,,,,,,,,,,,,,,,,,,,,450,,,,,,,,,,,,,,,,,,,,,6,6,,,593.0814,11,right,0.1516,,1,0.3,"[3,2,1]",0.700376323,stimuli/card_100_transparent.png,100,11,0,11,0,1,,,,,,,,,,
,,,,655bb7a29f5ea0609bcbf251,A,2024-07-01_12h55.25.453,Slot Machine Game,2023.1.3,Win32,59.52380952,,,,,,,,,,,,,,,,,,,,,,,,,,,550,,,,,,,,,,,,,,,,,,,,,6,6,,,595.0644,12,right,0.7479,,1,0.3,"[3,2,1]",0.987532002,stimuli/card_100_transparent.png,100,12,0,12,0,1,,,,,,,,,,
,,,,655bb7a29f5ea0609bcbf251,A,2024-07-01_12h55.25.453,Slot Machine Game,2023.1.3,Win32,59.52380952,,,,,,,,,,,,,,,,,,,,,,,,,,,650,,,,,,,,,,,,,,,,,,,,,6,6,,,597.6467,13,right,0.2324,,1,0.3,"[3,2,1]",0.424408902,stimuli/card_100_transparent.png,100,13,0,13,0,1,,,,,,,,,,
,,,,655bb7a29f5ea0609bcbf251,A,2024-07-01_12h55.25.453,Slot Machine Game,2023.1.3,Win32,59.52380952,,,,,,,,,,,,,,,,,,,,,,,,,,,750,,,,,,,,,,,,,,,,,,,,,6,6,,,599.7126,14,right,0.0395,,0.5,0.3,"[3,2,1]",0.91123087,stimuli/card_100_transparent.png,100,14,0,14,0,1,,,,,,,,,,
,,,,655bb7a29f5ea0609bcbf251,A,2024-07-01_12h55.25.453,Slot Machine Game,2023.1.3,Win32,59.52380952,,,,,,,,,,,,,,,,,,,,,,,,,,,,,,,,,,,601.0788,,,,,,,,,,,,,,,,,,,,,,,,,,,,,,,,,"[920,750,660,840,710,750]",5,0,5,0,1,,,,
,,,,655bb7a29f5ea0609bcbf251,A,2024-07-01_12h55.25.453,Slot Machine Game,2023.1.3,Win32,59.52380952,,,,,,,,,,,,,,,,,,,,,,,,,,,10,,,,,,,,,,,,,,,,,,,,,7,7,"[9,15]","[[1,3,2],[2,3,1]]",606.0846,0,right,0.5328,,0.5,0.3,"[1,3,2]",0.840559393,stimuli/card_10_transparent.png,10,0,0,0,0,1,,,,,,,,,,
,,,,655bb7a29f5ea0609bcbf251,A,2024-07-01_12h55.25.453,Slot Machine Game,2023.1.3,Win32,59.52380952,,,,,,,,,,,,,,,,,,,,,,,,,,,20,,,,,,,,,,,,,,,,,,,,,7,7,,,607.9429,1,right,0.8066,,1,0.3,"[1,3,2]",0.297430266,stimuli/card_10_transparent.png,10,1,0,1,0,1,,,,,,,,,,
,,,,655bb7a29f5ea0609bcbf251,A,2024-07-01_12h55.25.453,Slot Machine Game,2023.1.3,Win32,59.52380952,,,,,,,,,,,,,,,,,,,,,,,,,,,20,,,,,,,,,,,,,,,,,,,,,7,7,,,610.5753,2,up,2.3357,,1.5,0.3,"[1,3,2]",0.22025317,stimuli/card_0_transparent.png,0,2,0,2,0,1,,,,,,,,,,
,,,,655bb7a29f5ea0609bcbf251,A,2024-07-01_12h55.25.453,Slot Machine Game,2023.1.3,Win32,59.52380952,,,,,,,,,,,,,,,,,,,,,,,,,,,120,,,,,,,,,,,,,,,,,,,,,7,7,,,615.224,3,left,0.1363,,1.5,0.3,"[1,3,2]",0.596345345,stimuli/card_100_transparent.png,100,3,0,3,0,1,,,,,,,,,,
,,,,655bb7a29f5ea0609bcbf251,A,2024-07-01_12h55.25.453,Slot Machine Game,2023.1.3,Win32,59.52380952,,,,,,,,,,,,,,,,,,,,,,,,,,,220,,,,,,,,,,,,,,,,,,,,,7,7,,,617.69,4,left,3.5495,,1.5,0.3,"[1,3,2]",0.96810049,stimuli/card_100_transparent.png,100,4,0,4,0,1,,,,,,,,,,
,,,,655bb7a29f5ea0609bcbf251,A,2024-07-01_12h55.25.453,Slot Machine Game,2023.1.3,Win32,59.52380952,,,,,,,,,,,,,,,,,,,,,,,,,,,230,,,,,,,,,,,,,,,,,,,,,7,7,,,623.5712,5,left,1.0376,,1.5,0.3,"[1,3,2]",0.176443714,stimuli/card_10_transparent.png,10,5,0,5,0,1,,,,,,,,,,
,,,,655bb7a29f5ea0609bcbf251,A,2024-07-01_12h55.25.453,Slot Machine Game,2023.1.3,Win32,59.52380952,,,,,,,,,,,,,,,,,,,,,,,,,,,240,,,,,,,,,,,,,,,,,,,,,7,7,,,626.9365,6,left,1.2,,1.5,0.3,"[1,3,2]",0.137809744,stimuli/card_10_transparent.png,10,6,0,6,0,1,,,,,,,,,,
,,,,655bb7a29f5ea0609bcbf251,A,2024-07-01_12h55.25.453,Slot Machine Game,2023.1.3,Win32,59.52380952,,,,,,,,,,,,,,,,,,,,,,,,,,,340,,,,,,,,,,,,,,,,,,,,,7,7,,,630.4686,7,left,0.2994,,1,0.3,"[1,3,2]",0.895147165,stimuli/card_100_transparent.png,100,7,0,7,0,1,,,,,,,,,,
,,,,655bb7a29f5ea0609bcbf251,A,2024-07-01_12h55.25.453,Slot Machine Game,2023.1.3,Win32,59.52380952,,,,,,,,,,,,,,,,,,,,,,,,,,,440,,,,,,,,,,,,,,,,,,,,,7,7,,,632.6013,8,left,0.1564,,0.5,0.3,"[1,3,2]",0.594964765,stimuli/card_100_transparent.png,100,8,0,8,0,1,,,,,,,,,,
,,,,655bb7a29f5ea0609bcbf251,A,2024-07-01_12h55.25.453,Slot Machine Game,2023.1.3,Win32,59.52380952,,,,,,,,,,,,,,,,,,,,,,,,,,,450,,,,,,,,,,,,,,,,,,,,,7,7,,,634.0841,9,left,0.5301,,1.5,0.3,"[2,3,1]",0.990186196,stimuli/card_10_transparent.png,10,9,0,9,0,1,,,,,,,,,,
,,,,655bb7a29f5ea0609bcbf251,A,2024-07-01_12h55.25.453,Slot Machine Game,2023.1.3,Win32,59.52380952,,,,,,,,,,,,,,,,,,,,,,,,,,,460,,,,,,,,,,,,,,,,,,,,,7,7,,,636.95,10,left,1.223,,1,0.3,"[2,3,1]",0.62268342,stimuli/card_10_transparent.png,10,10,0,10,0,1,,,,,,,,,,
,,,,655bb7a29f5ea0609bcbf251,A,2024-07-01_12h55.25.453,Slot Machine Game,2023.1.3,Win32,59.52380952,,,,,,,,,,,,,,,,,,,,,,,,,,,460,,,,,,,,,,,,,,,,,,,,,7,7,,,639.9991,11,up,1.9021,,1,0.3,"[2,3,1]",0.564485826,stimuli/card_0_transparent.png,0,11,0,11,0,1,,,,,,,,,,
,,,,655bb7a29f5ea0609bcbf251,A,2024-07-01_12h55.25.453,Slot Machine Game,2023.1.3,Win32,59.52380952,,,,,,,,,,,,,,,,,,,,,,,,,,,560,,,,,,,,,,,,,,,,,,,,,7,7,,,643.7309,12,right,0.5498,,1,0.3,"[2,3,1]",0.665210953,stimuli/card_100_transparent.png,100,12,0,12,0,1,,,,,,,,,,
,,,,655bb7a29f5ea0609bcbf251,A,2024-07-01_12h55.25.453,Slot Machine Game,2023.1.3,Win32,59.52380952,,,,,,,,,,,,,,,,,,,,,,,,,,,660,,,,,,,,,,,,,,,,,,,,,7,7,,,646.1135,13,right,0.1519,,0.5,0.3,"[2,3,1]",0.493942259,stimuli/card_100_transparent.png,100,13,0,13,0,1,,,,,,,,,,
,,,,655bb7a29f5ea0609bcbf251,A,2024-07-01_12h55.25.453,Slot Machine Game,2023.1.3,Win32,59.52380952,,,,,,,,,,,,,,,,,,,,,,,,,,,760,,,,,,,,,,,,,,,,,,,,,7,7,,,647.5961,14,right,1.0526,,0.5,0.3,"[2,3,1]",0.565108619,stimuli/card_100_transparent.png,100,14,0,14,0,1,,,,,,,,,,
,,,,655bb7a29f5ea0609bcbf251,A,2024-07-01_12h55.25.453,Slot Machine Game,2023.1.3,Win32,59.52380952,,,,,,,,,,,,,,,,,,,,,,,,,,,,,,,,,,,649.979,,,,,,,,,,,,,,,,,,,,,,,,,,,,,,,,,"[920,750,660,840,710,750,760]",6,0,6,0,1,,,,
,,,,655bb7a29f5ea0609bcbf251,A,2024-07-01_12h55.25.453,Slot Machine Game,2023.1.3,Win32,59.52380952,,,,,,,,,,,,,,,,,,,,,,,,,,,,,,,,,,,,,,,,,,,,,,,,8,8,"[11,15]","[[2,1,3],[1,2,3]]",654.9833,0,,,,1.5,0.3,,,,,0,0,0,0,1,,,,,,,,,,
,,,,655bb7a29f5ea0609bcbf251,A,2024-07-01_12h55.25.453,Slot Machine Game,2023.1.3,Win32,59.52380952,,,,,,,,,,,,,,,,,,,,,,,,,,,100,,,,,,,,,,,,,,,,,,,,,8,8,,,660.4943,1,up,0.1505,,1.5,0.3,"[2,1,3]",0.219645532,stimuli/card_100_transparent.png,100,1,0,1,0,1,,,,,,,,,,
,,,,655bb7a29f5ea0609bcbf251,A,2024-07-01_12h55.25.453,Slot Machine Game,2023.1.3,Win32,59.52380952,,,,,,,,,,,,,,,,,,,,,,,,,,,200,,,,,,,,,,,,,,,,,,,,,8,8,,,662.9745,2,up,1.7476,,0.5,0.3,"[2,1,3]",0.641453354,stimuli/card_100_transparent.png,100,2,0,2,0,1,,,,,,,,,,
,,,,655bb7a29f5ea0609bcbf251,A,2024-07-01_12h55.25.453,Slot Machine Game,2023.1.3,Win32,59.52380952,,,,,,,,,,,,,,,,,,,,,,,,,,,300,,,,,,,,,,,,,,,,,,,,,8,8,,,666.0568,3,up,1.4323,,1,0.3,"[2,1,3]",0.842420234,stimuli/card_100_transparent.png,100,3,0,3,0,1,,,,,,,,,,
,,,,655bb7a29f5ea0609bcbf251,A,2024-07-01_12h55.25.453,Slot Machine Game,2023.1.3,Win32,59.52380952,,,,,,,,,,,,,,,,,,,,,,,,,,,400,,,,,,,,,,,,,,,,,,,,,8,8,,,669.3224,4,up,0.6794,,1.5,0.3,"[2,1,3]",0.767633435,stimuli/card_100_transparent.png,100,4,0,4,0,1,,,,,,,,,,
,,,,655bb7a29f5ea0609bcbf251,A,2024-07-01_12h55.25.453,Slot Machine Game,2023.1.3,Win32,59.52380952,,,,,,,,,,,,,,,,,,,,,,,,,,,500,,,,,,,,,,,,,,,,,,,,,8,8,,,672.338,5,up,0.0535,,1.5,0.3,"[2,1,3]",0.376329944,stimuli/card_100_transparent.png,100,5,0,5,0,1,,,,,,,,,,
,,,,655bb7a29f5ea0609bcbf251,A,2024-07-01_12h55.25.453,Slot Machine Game,2023.1.3,Win32,59.52380952,,,,,,,,,,,,,,,,,,,,,,,,,,,600,,,,,,,,,,,,,,,,,,,,,8,8,,,674.7205,6,up,0.5005,,0.5,0.3,"[2,1,3]",0.954940633,stimuli/card_100_transparent.png,100,6,0,6,0,1,,,,,,,,,,
,,,,655bb7a29f5ea0609bcbf251,A,2024-07-01_12h55.25.453,Slot Machine Game,2023.1.3,Win32,59.52380952,,,,,,,,,,,,,,,,,,,,,,,,,,,700,,,,,,,,,,,,,,,,,,,,,8,8,,,676.5532,7,up,0.1857,,0.5,0.3,"[2,1,3]",0.281985879,stimuli/card_100_transparent.png,100,7,0,7,0,1,,,,,,,,,,
,,,,655bb7a29f5ea0609bcbf251,A,2024-07-01_12h55.25.453,Slot Machine Game,2023.1.3,Win32,59.52380952,,,,,,,,,,,,,,,,,,,,,,,,,,,800,,,,,,,,,,,,,,,,,,,,,8,8,,,678.0695,8,up,0.6858,,0.5,0.3,"[2,1,3]",0.574321693,stimuli/card_100_transparent.png,100,8,0,8,0,1,,,,,,,,,,
,,,,655bb7a29f5ea0609bcbf251,A,2024-07-01_12h55.25.453,Slot Machine Game,2023.1.3,Win32,59.52380952,,,,,,,,,,,,,,,,,,,,,,,,,,,900,,,,,,,,,,,,,,,,,,,,,8,8,,,680.0853,9,up,0.6342,,1.5,0.3,"[2,1,3]",0.71239887,stimuli/card_100_transparent.png,100,9,0,9,0,1,,,,,,,,,,
,,,,655bb7a29f5ea0609bcbf251,A,2024-07-01_12h55.25.453,Slot Machine Game,2023.1.3,Win32,59.52380952,,,,,,,,,,,,,,,,,,,,,,,,,,,900,,,,,,,,,,,,,,,,,,,,,8,8,,,683.0509,10,up,0.0509,,1,0.3,"[2,1,3]",0.051926113,stimuli/card_0_transparent.png,0,10,0,10,0,1,,,,,,,,,,
,,,,655bb7a29f5ea0609bcbf251,A,2024-07-01_12h55.25.453,Slot Machine Game,2023.1.3,Win32,59.52380952,,,,,,,,,,,,,,,,,,,,,,,,,,,910,,,,,,,,,,,,,,,,,,,,,8,8,,,684.9338,11,up,0.6168,,1,0.3,"[1,2,3]",0.531923165,stimuli/card_10_transparent.png,10,11,0,11,0,1,,,,,,,,,,
,,,,655bb7a29f5ea0609bcbf251,A,2024-07-01_12h55.25.453,Slot Machine Game,2023.1.3,Win32,59.52380952,,,,,,,,,,,,,,,,,,,,,,,,,,,920,,,,,,,,,,,,,,,,,,,,,8,8,,,687.383,12,up,0.8518,,1.5,0.3,"[1,2,3]",0.865147293,stimuli/card_10_transparent.png,10,12,0,12,0,1,,,,,,,,,,
,,,,655bb7a29f5ea0609bcbf251,A,2024-07-01_12h55.25.453,Slot Machine Game,2023.1.3,Win32,59.52380952,,,,,,,,,,,,,,,,,,,,,,,,,,,1020,,,,,,,,,,,,,,,,,,,,,8,8,,,690.5652,13,left,0.7834,,0.5,0.3,"[1,2,3]",0.644081516,stimuli/card_100_transparent.png,100,13,0,13,0,1,,,,,,,,,,
,,,,655bb7a29f5ea0609bcbf251,A,2024-07-01_12h55.25.453,Slot Machine Game,2023.1.3,Win32,59.52380952,,,,,,,,,,,,,,,,,,,,,,,,,,,1030,,,,,,,,,,,,,,,,,,,,,8,8,,,692.6809,14,left,0.6333,,0.5,0.3,"[1,2,3]",0.102000059,stimuli/card_10_transparent.png,10,14,0,14,0,1,,,,,,,,,,
,,,,655bb7a29f5ea0609bcbf251,A,2024-07-01_12h55.25.453,Slot Machine Game,2023.1.3,Win32,59.52380952,,,,,,,,,,,,,,,,,,,,,,,,,,,,,,,,,,,694.647,,,,,,,,,,,,,,,,,,,,,,,,,,,,,,,,,"[920,750,660,840,710,750,760,1030]",7,0,7,0,1,,,,
,,,,655bb7a29f5ea0609bcbf251,A,2024-07-01_12h55.25.453,Slot Machine Game,2023.1.3,Win32,59.52380952,,,,,,,,,,,,,,,,,,,,,,,,,,,0,,,,,,,,,,,,,,,,,,,,,9,9,"[8,15]","[[3,2,1],[3,1,2]]",699.6538,0,right,1.3164,,0.5,0.3,"[3,2,1]",0.037412426,stimuli/card_0_transparent.png,0,0,0,0,0,1,,,,,,,,,,
,,,,655bb7a29f5ea0609bcbf251,A,2024-07-01_12h55.25.453,Slot Machine Game,2023.1.3,Win32,59.52380952,,,,,,,,,,,,,,,,,,,,,,,,,,,10,,,,,,,,,,,,,,,,,,,,,9,9,,,702.2944,1,up,0.6386,,1,0.3,"[3,2,1]",0.948392211,stimuli/card_10_transparent.png,10,1,0,1,0,1,,,,,,,,,,
,,,,655bb7a29f5ea0609bcbf251,A,2024-07-01_12h55.25.453,Slot Machine Game,2023.1.3,Win32,59.52380952,,,,,,,,,,,,,,,,,,,,,,,,,,,10,,,,,,,,,,,,,,,,,,,,,9,9,,,704.7604,2,left,1.6129,,1,0.3,"[3,2,1]",0.956252025,stimuli/card_0_transparent.png,0,2,0,2,0,1,,,,,,,,,,
,,,,655bb7a29f5ea0609bcbf251,A,2024-07-01_12h55.25.453,Slot Machine Game,2023.1.3,Win32,59.52380952,,,,,,,,,,,,,,,,,,,,,,,,,,,110,,,,,,,,,,,,,,,,,,,,,9,9,,,708.2092,3,right,0.4556,,1,0.3,"[3,2,1]",0.669053181,stimuli/card_100_transparent.png,100,3,0,3,0,1,,,,,,,,,,
,,,,655bb7a29f5ea0609bcbf251,A,2024-07-01_12h55.25.453,Slot Machine Game,2023.1.3,Win32,59.52380952,,,,,,,,,,,,,,,,,,,,,,,,,,,210,,,,,,,,,,,,,,,,,,,,,9,9,,,710.4917,4,right,0.7705,,0.5,0.3,"[3,2,1]",0.479360576,stimuli/card_100_transparent.png,100,4,0,4,0,1,,,,,,,,,,
,,,,655bb7a29f5ea0609bcbf251,A,2024-07-01_12h55.25.453,Slot Machine Game,2023.1.3,Win32,59.52380952,,,,,,,,,,,,,,,,,,,,,,,,,,,310,,,,,,,,,,,,,,,,,,,,,9,9,,,712.5909,5,right,0.1046,,1.5,0.3,"[3,2,1]",0.846333315,stimuli/card_100_transparent.png,100,5,0,5,0,1,,,,,,,,,,
,,,,655bb7a29f5ea0609bcbf251,A,2024-07-01_12h55.25.453,Slot Machine Game,2023.1.3,Win32,59.52380952,,,,,,,,,,,,,,,,,,,,,,,,,,,410,,,,,,,,,,,,,,,,,,,,,9,9,,,715.0237,6,right,0.3007,,0.5,0.3,"[3,2,1]",0.963652514,stimuli/card_100_transparent.png,100,6,0,6,0,1,,,,,,,,,,
,,,,655bb7a29f5ea0609bcbf251,A,2024-07-01_12h55.25.453,Slot Machine Game,2023.1.3,Win32,59.52380952,,,,,,,,,,,,,,,,,,,,,,,,,,,510,,,,,,,,,,,,,,,,,,,,,9,9,,,716.6561,7,right,0.671,,0.5,0.3,"[3,2,1]",0.858062043,stimuli/card_100_transparent.png,100,7,0,7,0,1,,,,,,,,,,
,,,,655bb7a29f5ea0609bcbf251,A,2024-07-01_12h55.25.453,Slot Machine Game,2023.1.3,Win32,59.52380952,,,,,,,,,,,,,,,,,,,,,,,,,,,520,,,,,,,,,,,,,,,,,,,,,9,9,,,718.6555,8,right,0.1449,,1.5,0.3,"[3,1,2]",0.760863169,stimuli/card_10_transparent.png,10,8,0,8,0,1,,,,,,,,,,
,,,,655bb7a29f5ea0609bcbf251,A,2024-07-01_12h55.25.453,Slot Machine Game,2023.1.3,Win32,59.52380952,,,,,,,,,,,,,,,,,,,,,,,,,,,530,,,,,,,,,,,,,,,,,,,,,9,9,,,721.1215,9,right,0.8162,,1.5,0.3,"[3,1,2]",0.325434242,stimuli/card_10_transparent.png,10,9,0,9,0,1,,,,,,,,,,
,,,,655bb7a29f5ea0609bcbf251,A,2024-07-01_12h55.25.453,Slot Machine Game,2023.1.3,Win32,59.52380952,,,,,,,,,,,,,,,,,,,,,,,,,,,540,,,,,,,,,,,,,,,,,,,,,9,9,,,724.2705,10,right,0.2665,,1.5,0.3,"[3,1,2]",0.700397496,stimuli/card_10_transparent.png,10,10,0,10,0,1,,,,,,,,,,
,,,,655bb7a29f5ea0609bcbf251,A,2024-07-01_12h55.25.453,Slot Machine Game,2023.1.3,Win32,59.52380952,,,,,,,,,,,,,,,,,,,,,,,,,,,550,,,,,,,,,,,,,,,,,,,,,9,9,,,726.8698,11,up,0.8489,,0.5,0.3,"[3,1,2]",0.164688067,stimuli/card_10_transparent.png,10,11,0,11,0,1,,,,,,,,,,
,,,,655bb7a29f5ea0609bcbf251,A,2024-07-01_12h55.25.453,Slot Machine Game,2023.1.3,Win32,59.52380952,,,,,,,,,,,,,,,,,,,,,,,,,,,550,,,,,,,,,,,,,,,,,,,,,9,9,,,729.0521,12,left,0.2586,,1,0.3,"[3,1,2]",0.793005737,stimuli/card_0_transparent.png,0,12,0,12,0,1,,,,,,,,,,
,,,,655bb7a29f5ea0609bcbf251,A,2024-07-01_12h55.25.453,Slot Machine Game,2023.1.3,Win32,59.52380952,,,,,,,,,,,,,,,,,,,,,,,,,,,560,,,,,,,,,,,,,,,,,,,,,9,9,,,731.1347,13,right,0.0776,,1.5,0.3,"[3,1,2]",0.489968307,stimuli/card_10_transparent.png,10,13,0,13,0,1,,,,,,,,,,
,,,,655bb7a29f5ea0609bcbf251,A,2024-07-01_12h55.25.453,Slot Machine Game,2023.1.3,Win32,59.52380952,,,,,,,,,,,,,,,,,,,,,,,,,,,660,,,,,,,,,,,,,,,,,,,,,9,9,,,733.5339,14,up,0.2841,,1,0.3,"[3,1,2]",0.827771877,stimuli/card_100_transparent.png,100,14,0,14,0,1,,,,,,,,,,
,,,,655bb7a29f5ea0609bcbf251,A,2024-07-01_12h55.25.453,Slot Machine Game,2023.1.3,Win32,59.52380952,,,,,,,,,,,,,,,,,,,,,,,,,,,,,,,,,,,735.6499,,,,,,,,,,,,,,,,,,,,,,,,,,,,,,,,,"[920,750,660,840,710,750,760,1030,660]",8,0,8,0,1,,,,
,,,,655bb7a29f5ea0609bcbf251,A,2024-07-01_12h55.25.453,Slot Machine Game,2023.1.3,Win32,59.52380952,,,,,,,,,,,,,,,,,,,,,,,,,,,0,,,,,,,,,,,,,,,,,,,,,10,10,"[10,15]","[[3,1,2],[1,3,2]]",740.6567,0,left,2.0171,,0.5,0.3,"[3,1,2]",0.426825865,stimuli/card_0_transparent.png,0,0,0,0,0,1,,,,,,,,,,
,,,,655bb7a29f5ea0609bcbf251,A,2024-07-01_12h55.25.453,Slot Machine Game,2023.1.3,Win32,59.52380952,,,,,,,,,,,,,,,,,,,,,,,,,,,100,,,,,,,,,,,,,,,,,,,,,10,10,,,743.9969,1,up,0.0342,,0.5,0.3,"[3,1,2]",0.540912972,stimuli/card_100_transparent.png,100,1,0,1,0,1,,,,,,,,,,
,,,,655bb7a29f5ea0609bcbf251,A,2024-07-01_12h55.25.453,Slot Machine Game,2023.1.3,Win32,59.52380952,,,,,,,,,,,,,,,,,,,,,,,,,,,110,,,,,,,,,,,,,,,,,,,,,10,10,,,745.363,2,up,0.9632,,1,0.3,"[3,1,2]",0.10497773,stimuli/card_10_transparent.png,10,2,0,2,0,1,,,,,,,,,,
,,,,655bb7a29f5ea0609bcbf251,A,2024-07-01_12h55.25.453,Slot Machine Game,2023.1.3,Win32,59.52380952,,,,,,,,,,,,,,,,,,,,,,,,,,,210,,,,,,,,,,,,,,,,,,,,,10,10,,,748.1459,3,up,0.9669,,0.5,0.3,"[3,1,2]",0.803957077,stimuli/card_100_transparent.png,100,3,0,3,0,1,,,,,,,,,,
,,,,655bb7a29f5ea0609bcbf251,A,2024-07-01_12h55.25.453,Slot Machine Game,2023.1.3,Win32,59.52380952,,,,,,,,,,,,,,,,,,,,,,,,,,,310,,,,,,,,,,,,,,,,,,,,,10,10,,,750.4449,4,up,0.1692,,0.5,0.3,"[3,1,2]",0.362833111,stimuli/card_100_transparent.png,100,4,0,4,0,1,,,,,,,,,,
,,,,655bb7a29f5ea0609bcbf251,A,2024-07-01_12h55.25.453,Slot Machine Game,2023.1.3,Win32,59.52380952,,,,,,,,,,,,,,,,,,,,,,,,,,,410,,,,,,,,,,,,,,,,,,,,,10,10,,,751.9443,5,up,2.448,,1,0.3,"[3,1,2]",0.871587505,stimuli/card_100_transparent.png,100,5,0,5,0,1,,,,,,,,,,
,,,,655bb7a29f5ea0609bcbf251,A,2024-07-01_12h55.25.453,Slot Machine Game,2023.1.3,Win32,59.52380952,,,,,,,,,,,,,,,,,,,,,,,,,,,510,,,,,,,,,,,,,,,,,,,,,10,10,,,756.2097,6,up,0.2206,,0.5,0.3,"[3,1,2]",0.458570806,stimuli/card_100_transparent.png,100,6,0,6,0,1,,,,,,,,,,
,,,,655bb7a29f5ea0609bcbf251,A,2024-07-01_12h55.25.453,Slot Machine Game,2023.1.3,Win32,59.52380952,,,,,,,,,,,,,,,,,,,,,,,,,,,610,,,,,,,,,,,,,,,,,,,,,10,10,,,757.759,7,up,0.8013,,1.5,0.3,"[3,1,2]",0.9690048,stimuli/card_100_transparent.png,100,7,0,7,0,1,,,,,,,,,,
,,,,655bb7a29f5ea0609bcbf251,A,2024-07-01_12h55.25.453,Slot Machine Game,2023.1.3,Win32,59.52380952,,,,,,,,,,,,,,,,,,,,,,,,,,,710,,,,,,,,,,,,,,,,,,,,,10,10,,,760.8912,8,up,0.6533,,0.5,0.3,"[3,1,2]",0.989944233,stimuli/card_100_transparent.png,100,8,0,8,0,1,,,,,,,,,,
,,,,655bb7a29f5ea0609bcbf251,A,2024-07-01_12h55.25.453,Slot Machine Game,2023.1.3,Win32,59.52380952,,,,,,,,,,,,,,,,,,,,,,,,,,,810,,,,,,,,,,,,,,,,,,,,,10,10,,,762.8741,9,up,0.1319,,1.5,0.3,"[3,1,2]",0.59516785,stimuli/card_100_transparent.png,100,9,0,9,0,1,,,,,,,,,,
,,,,655bb7a29f5ea0609bcbf251,A,2024-07-01_12h55.25.453,Slot Machine Game,2023.1.3,Win32,59.52380952,,,,,,,,,,,,,,,,,,,,,,,,,,,810,,,,,,,,,,,,,,,,,,,,,10,10,,,765.3398,10,up,0.167,,0.5,0.3,"[1,3,2]",0.425005659,stimuli/card_0_transparent.png,0,10,0,10,0,1,,,,,,,,,,
,,,,655bb7a29f5ea0609bcbf251,A,2024-07-01_12h55.25.453,Slot Machine Game,2023.1.3,Win32,59.52380952,,,,,,,,,,,,,,,,,,,,,,,,,,,820,,,,,,,,,,,,,,,,,,,,,10,10,,,766.8394,11,up,0.0007,,0.5,0.3,"[1,3,2]",0.127633391,stimuli/card_10_transparent.png,10,11,0,11,0,1,,,,,,,,,,
,,,,655bb7a29f5ea0609bcbf251,A,2024-07-01_12h55.25.453,Slot Machine Game,2023.1.3,Win32,59.52380952,,,,,,,,,,,,,,,,,,,,,,,,,,,920,,,,,,,,,,,,,,,,,,,,,10,10,,,768.1721,12,up,0.0362,,1,0.3,"[1,3,2]",0.074663367,stimuli/card_100_transparent.png,100,12,0,12,0,1,,,,,,,,,,
,,,,655bb7a29f5ea0609bcbf251,A,2024-07-01_12h55.25.453,Slot Machine Game,2023.1.3,Win32,59.52380952,,,,,,,,,,,,,,,,,,,,,,,,,,,920,,,,,,,,,,,,,,,,,,,,,10,10,,,770.0383,13,up,0.3214,,1,0.3,"[1,3,2]",0.713054664,stimuli/card_0_transparent.png,0,13,0,13,0,1,,,,,,,,,,
,,,,655bb7a29f5ea0609bcbf251,A,2024-07-01_12h55.25.453,Slot Machine Game,2023.1.3,Win32,59.52380952,,,,,,,,,,,,,,,,,,,,,,,,,,,920,,,,,,,,,,,,,,,,,,,,,10,10,,,772.1876,14,up,0.1167,,1.5,0.3,"[1,3,2]",0.635721296,stimuli/card_0_transparent.png,0,14,0,14,0,1,,,,,,,,,,
,,,,655bb7a29f5ea0609bcbf251,A,2024-07-01_12h55.25.453,Slot Machine Game,2023.1.3,Win32,59.52380952,,,,,,,,,,,,,,,,,,,,,,,,,,,,,,,,,,,774.6369,,,,,,,,,,,,,,,,,,,,,,,,,,,,,,,,,"[920,750,660,840,710,750,760,1030,660,920]",9,0,9,0,1,,,,
,,,,655bb7a29f5ea0609bcbf251,A,2024-07-01_12h55.25.453,Slot Machine Game,2023.1.3,Win32,59.52380952,,,,,,,,,,,,,,,,,,,,,,,,,,,,,,,,,,,,,,,,,,,,,,,,,,,,,,,,,,,,,,,,,,,,,,,,,,9,"[920,750,660,840,710,750,760,1030,660,920]",7.6,2024-07-01_13h08.29.194
