key_resp_welcome_started,key_resp_welcome_keys,key_resp_welcome_rt,key_resp_welcome_duration,prolific_id,path_id,date,expName,psychopyVersion,OS,frameRate,key_resp_instruction1_started,key_resp_instruction1_keys,key_resp_instruction1_rt,key_resp_instruction1_duration,key_resp_instruction2_started,key_resp_instruction2_keys,key_resp_instruction2_rt,key_resp_instruction2_duration,key_resp_instruction3_started,key_resp_instruction3_keys,key_resp_instruction3_rt,key_resp_instruction3_duration,key_resp_instruction4_started,key_resp_instruction4_keys,key_resp_instruction4_rt,key_resp_instruction4_duration,practiceCondition,practice_reward_seqs,practice_trial_started,practice_trial_num,prac_presentationInterval,"practice_reward_seq: 2,1,3",practice_trials.thisRepN,practice_trials.thisTrialN,practice_trials.thisN,practice_trials.thisIndex,practice_trials.ran,practice_resp_rt,practice_resp_duration,practice_resp_keys,reward_img,cumulative_reward,trial_reward,"practice_reward_seq: 2,3,1",block_break_started,"practice_reward_seq: 1,3,2","practice_reward_seq: 3,1,2",practice_end_time,practice_end_keys,practice_end_rt,practice_end_duration,main_instruction_text_started,block_condition,block_order_indices,main_instruction_keys,main_instruction_rt,main_instruction_duration,block_number,block_assignment,current_condition,main_reward_seqs,main_trial_started,main_trial_num,main_trial_keys,main_trial_rt,main_trial_duration,main_presentationInterval,reward_presentation_time,main_reward_seq,reward_rand_val,main_reward_img,current_reward,main_trials.thisRepN,main_trials.thisTrialN,main_trials.thisN,main_trials.thisIndex,main_trials.ran,block_reward,block.thisRepN,block.thisTrialN,block.thisN,block.thisIndex,block.ran,block_reward.length,block_reward_all,reward_amount,date_end_task
0.0004,n,2.4724,,655f9361656f0a872d1bd405,B,2024-06-29_08h24.12.590,Slot Machine Game,2023.1.3,MacIntel,59.52380952,,,,,,,,,,,,,,,,,,,,,,,,,,,,,,,,,,,,,,,,,,,,,,,,,,,,,,,,,,,,,,,,,,,,,,,,,,,,,
,,,,655f9361656f0a872d1bd405,B,2024-06-29_08h24.12.590,Slot Machine Game,2023.1.3,MacIntel,59.52380952,2.5396,space,16.6686,,,,,,,,,,,,,,,,,,,,,,,,,,,,,,,,,,,,,,,,,,,,,,,,,,,,,,,,,,,,,,,,,,,,,,,,,,
,,,,655f9361656f0a872d1bd405,B,2024-06-29_08h24.12.590,Slot Machine Game,2023.1.3,MacIntel,59.52380952,,,,,19.2387,space,26.2076,,,,,,,,,,,,,,,,,,,,,,,,,,,,,,,,,,,,,,,,,,,,,,,,,,,,,,,,,,,,,,,,,,,,,,
,,,,655f9361656f0a872d1bd405,B,2024-06-29_08h24.12.590,Slot Machine Game,2023.1.3,MacIntel,59.52380952,,,,,,,,,45.4894,space,7.1713,,,,,,,,,,,,,,,,,,,,,,,,,,,,,,,,,,,,,,,,,,,,,,,,,,,,,,,,,,,,,,,,,,
,,,,655f9361656f0a872d1bd405,B,2024-06-29_08h24.12.590,Slot Machine Game,2023.1.3,MacIntel,59.52380952,,,,,,,,,,,,,,,,,,,,,,,,,,,,,,,,,,,,,,,,,,,,,,,,,,,,,,,,,,,,,,,,,,,,,,,,,,,,,
,,,,655f9361656f0a872d1bd405,B,2024-06-29_08h24.12.590,Slot Machine Game,2023.1.3,MacIntel,59.52380952,,,,,,,,,,,,,194.6222,space,2.9795,,,,,,,,,,,,,,,,,,,,,,,,,,,,,,,,,,,,,,,,,,,,,,,,,,,,,,,,,,,,,,
,,,,655f9361656f0a872d1bd405,B,2024-06-29_08h24.12.590,Slot Machine Game,2023.1.3,MacIntel,59.52380952,,,,,,,,,,,,,,,,,"[9,15]","[[2,1,3],[2,3,1]]",197.6233,0,1,,0,0,0,0,1,,,,,,,,,,,,,,,,,,,,,,,,,,,,,,,,,,,,,,,,,,,,,,,,,,
,,,,655f9361656f0a872d1bd405,B,2024-06-29_08h24.12.590,Slot Machine Game,2023.1.3,MacIntel,59.52380952,,,,,,,,,,,,,,,,,,,203.153,1,0.5,,1,0,1,0,1,0.4395,,up,stimuli/card_100_transparent.png,100,100,,,,,,,,,,,,,,,,,,,,,,,,,,,,,,,,,,,,,,,,,,,,
,,,,655f9361656f0a872d1bd405,B,2024-06-29_08h24.12.590,Slot Machine Game,2023.1.3,MacIntel,59.52380952,,,,,,,,,,,,,,,,,,,204.9037,2,1.5,,2,0,2,0,1,2.3846,,up,stimuli/card_100_transparent.png,200,100,,,,,,,,,,,,,,,,,,,,,,,,,,,,,,,,,,,,,,,,,,,,
,,,,655f9361656f0a872d1bd405,B,2024-06-29_08h24.12.590,Slot Machine Game,2023.1.3,MacIntel,59.52380952,,,,,,,,,,,,,,,,,,,209.6198,3,1,,3,0,3,0,1,1.551,,up,stimuli/card_100_transparent.png,300,100,,,,,,,,,,,,,,,,,,,,,,,,,,,,,,,,,,,,,,,,,,,,
,,,,655f9361656f0a872d1bd405,B,2024-06-29_08h24.12.590,Slot Machine Game,2023.1.3,MacIntel,59.52380952,,,,,,,,,,,,,,,,,,,212.9863,4,1.5,,4,0,4,0,1,1.2667,,up,stimuli/card_100_transparent.png,400,100,,,,,,,,,,,,,,,,,,,,,,,,,,,,,,,,,,,,,,,,,,,,
,,,,655f9361656f0a872d1bd405,B,2024-06-29_08h24.12.590,Slot Machine Game,2023.1.3,MacIntel,59.52380952,,,,,,,,,,,,,,,,,,,216.5868,5,0.5,,5,0,5,0,1,0.8677,,up,stimuli/card_100_transparent.png,500,100,,,,,,,,,,,,,,,,,,,,,,,,,,,,,,,,,,,,,,,,,,,,
,,,,655f9361656f0a872d1bd405,B,2024-06-29_08h24.12.590,Slot Machine Game,2023.1.3,MacIntel,59.52380952,,,,,,,,,,,,,,,,,,,218.7859,6,1,,6,0,6,0,1,0.1546,,up,stimuli/card_10_transparent.png,510,10,,,,,,,,,,,,,,,,,,,,,,,,,,,,,,,,,,,,,,,,,,,,
,,,,655f9361656f0a872d1bd405,B,2024-06-29_08h24.12.590,Slot Machine Game,2023.1.3,MacIntel,59.52380952,,,,,,,,,,,,,,,,,,,220.7362,7,1.5,,7,0,7,0,1,0.039,,up,stimuli/card_100_transparent.png,610,100,,,,,,,,,,,,,,,,,,,,,,,,,,,,,,,,,,,,,,,,,,,,
,,,,655f9361656f0a872d1bd405,B,2024-06-29_08h24.12.590,Slot Machine Game,2023.1.3,MacIntel,59.52380952,,,,,,,,,,,,,,,,,,,223.0693,8,1,,8,0,8,0,1,2.3015,,up,stimuli/card_100_transparent.png,710,100,,,,,,,,,,,,,,,,,,,,,,,,,,,,,,,,,,,,,,,,,,,,
,,,,655f9361656f0a872d1bd405,B,2024-06-29_08h24.12.590,Slot Machine Game,2023.1.3,MacIntel,59.52380952,,,,,,,,,,,,,,,,,,,227.2028,9,1.5,,9,0,9,0,1,0.0427,,up,stimuli/card_0_transparent.png,710,0,,,,,,,,,,,,,,,,,,,,,,,,,,,,,,,,,,,,,,,,,,,,
,,,,655f9361656f0a872d1bd405,B,2024-06-29_08h24.12.590,Slot Machine Game,2023.1.3,MacIntel,59.52380952,,,,,,,,,,,,,,,,,,,229.5701,10,1,,10,0,10,0,1,0.5093,,up,stimuli/card_0_transparent.png,710,0,,,,,,,,,,,,,,,,,,,,,,,,,,,,,,,,,,,,,,,,,,,,
,,,,655f9361656f0a872d1bd405,B,2024-06-29_08h24.12.590,Slot Machine Game,2023.1.3,MacIntel,59.52380952,,,,,,,,,,,,,,,,,,,231.9027,11,0.5,,11,0,11,0,1,0.5919,,up,stimuli/card_0_transparent.png,710,0,,,,,,,,,,,,,,,,,,,,,,,,,,,,,,,,,,,,,,,,,,,,
,,,,655f9361656f0a872d1bd405,B,2024-06-29_08h24.12.590,Slot Machine Game,2023.1.3,MacIntel,59.52380952,,,,,,,,,,,,,,,,,,,233.795,12,1,,12,0,12,0,1,0.3332,,up,stimuli/card_0_transparent.png,710,0,,,,,,,,,,,,,,,,,,,,,,,,,,,,,,,,,,,,,,,,,,,,
,,,,655f9361656f0a872d1bd405,B,2024-06-29_08h24.12.590,Slot Machine Game,2023.1.3,MacIntel,59.52380952,,,,,,,,,,,,,,,,,,,235.9476,13,0.5,,13,0,13,0,1,0.3024,,up,stimuli/card_0_transparent.png,710,0,,,,,,,,,,,,,,,,,,,,,,,,,,,,,,,,,,,,,,,,,,,,
,,,,655f9361656f0a872d1bd405,B,2024-06-29_08h24.12.590,Slot Machine Game,2023.1.3,MacIntel,59.52380952,,,,,,,,,,,,,,,,,,,237.5808,14,0.5,,14,0,14,0,1,1.5085,,right,stimuli/card_10_transparent.png,720,10,,,,,,,,,,,,,,,,,,,,,,,,,,,,,,,,,,,,,,,,,,,,
,,,,655f9361656f0a872d1bd405,B,2024-06-29_08h24.12.590,Slot Machine Game,2023.1.3,MacIntel,59.52380952,,,,,,,,,,,,,,,,,"[6,15]","[[1,3,2],[3,1,2]]",245.424,0,1.5,,0,0,0,0,1,0.4226,,right,stimuli/card_10_transparent.png,10,10,,240.4165,,,,,,,,,,,,,,,,,,,,,,,,,,,,,,,,,,,,,,,,,,
,,,,655f9361656f0a872d1bd405,B,2024-06-29_08h24.12.590,Slot Machine Game,2023.1.3,MacIntel,59.52380952,,,,,,,,,,,,,,,,,,,248.1697,1,1.5,,1,0,1,0,1,1.1038,,up,stimuli/card_0_transparent.png,10,0,,,,,,,,,,,,,,,,,,,,,,,,,,,,,,,,,,,,,,,,,,,,
,,,,655f9361656f0a872d1bd405,B,2024-06-29_08h24.12.590,Slot Machine Game,2023.1.3,MacIntel,59.52380952,,,,,,,,,,,,,,,,,,,251.6029,2,1.5,,2,0,2,0,1,0.0855,,right,stimuli/card_10_transparent.png,20,10,,,,,,,,,,,,,,,,,,,,,,,,,,,,,,,,,,,,,,,,,,,,
,,,,655f9361656f0a872d1bd405,B,2024-06-29_08h24.12.590,Slot Machine Game,2023.1.3,MacIntel,59.52380952,,,,,,,,,,,,,,,,,,,254.019,3,1.5,,3,0,3,0,1,1.0206,,right,stimuli/card_10_transparent.png,30,10,,,,,,,,,,,,,,,,,,,,,,,,,,,,,,,,,,,,,,,,,,,,
,,,,655f9361656f0a872d1bd405,B,2024-06-29_08h24.12.590,Slot Machine Game,2023.1.3,MacIntel,59.52380952,,,,,,,,,,,,,,,,,,,257.3529,4,1,,4,0,4,0,1,0.2867,,left,stimuli/card_100_transparent.png,130,100,,,,,,,,,,,,,,,,,,,,,,,,,,,,,,,,,,,,,,,,,,,,
,,,,655f9361656f0a872d1bd405,B,2024-06-29_08h24.12.590,Slot Machine Game,2023.1.3,MacIntel,59.52380952,,,,,,,,,,,,,,,,,,,259.4695,5,1.5,,5,0,5,0,1,0.2509,,left,stimuli/card_100_transparent.png,230,100,,,,,,,,,,,,,,,,,,,,,,,,,,,,,,,,,,,,,,,,,,,,
,,,,655f9361656f0a872d1bd405,B,2024-06-29_08h24.12.590,Slot Machine Game,2023.1.3,MacIntel,59.52380952,,,,,,,,,,,,,,,,,,,262.0529,6,0.5,,6,0,6,0,1,2.2944,,left,stimuli/card_0_transparent.png,230,0,,,,,,,,,,,,,,,,,,,,,,,,,,,,,,,,,,,,,,,,,,,,
,,,,655f9361656f0a872d1bd405,B,2024-06-29_08h24.12.590,Slot Machine Game,2023.1.3,MacIntel,59.52380952,,,,,,,,,,,,,,,,,,,265.6828,7,1,,7,0,7,0,1,0.2888,,left,stimuli/card_0_transparent.png,230,0,,,,,,,,,,,,,,,,,,,,,,,,,,,,,,,,,,,,,,,,,,,,
,,,,655f9361656f0a872d1bd405,B,2024-06-29_08h24.12.590,Slot Machine Game,2023.1.3,MacIntel,59.52380952,,,,,,,,,,,,,,,,,,,267.7855,8,1,,8,0,8,0,1,0.2528,,left,stimuli/card_0_transparent.png,230,0,,,,,,,,,,,,,,,,,,,,,,,,,,,,,,,,,,,,,,,,,,,,
,,,,655f9361656f0a872d1bd405,B,2024-06-29_08h24.12.590,Slot Machine Game,2023.1.3,MacIntel,59.52380952,,,,,,,,,,,,,,,,,,,269.8517,9,0.5,,9,0,9,0,1,0.4696,,left,stimuli/card_0_transparent.png,230,0,,,,,,,,,,,,,,,,,,,,,,,,,,,,,,,,,,,,,,,,,,,,
,,,,655f9361656f0a872d1bd405,B,2024-06-29_08h24.12.590,Slot Machine Game,2023.1.3,MacIntel,59.52380952,,,,,,,,,,,,,,,,,,,271.636,10,0.5,,10,0,10,0,1,1.5719,,right,stimuli/card_100_transparent.png,330,100,,,,,,,,,,,,,,,,,,,,,,,,,,,,,,,,,,,,,,,,,,,,
,,,,655f9361656f0a872d1bd405,B,2024-06-29_08h24.12.590,Slot Machine Game,2023.1.3,MacIntel,59.52380952,,,,,,,,,,,,,,,,,,,274.536,11,1.5,,11,0,11,0,1,0.7679,,right,stimuli/card_10_transparent.png,340,10,,,,,,,,,,,,,,,,,,,,,,,,,,,,,,,,,,,,,,,,,,,,
,,,,655f9361656f0a872d1bd405,B,2024-06-29_08h24.12.590,Slot Machine Game,2023.1.3,MacIntel,59.52380952,,,,,,,,,,,,,,,,,,,277.6359,12,1,,12,0,12,0,1,1.0534,,right,stimuli/card_10_transparent.png,350,10,,,,,,,,,,,,,,,,,,,,,,,,,,,,,,,,,,,,,,,,,,,,
,,,,655f9361656f0a872d1bd405,B,2024-06-29_08h24.12.590,Slot Machine Game,2023.1.3,MacIntel,59.52380952,,,,,,,,,,,,,,,,,,,280.519,13,0.5,,13,0,13,0,1,0.4861,,right,stimuli/card_100_transparent.png,450,100,,,,,,,,,,,,,,,,,,,,,,,,,,,,,,,,,,,,,,,,,,,,
,,,,655f9361656f0a872d1bd405,B,2024-06-29_08h24.12.590,Slot Machine Game,2023.1.3,MacIntel,59.52380952,,,,,,,,,,,,,,,,,,,282.3193,14,0.5,,14,0,14,0,1,0.2564,,right,stimuli/card_10_transparent.png,460,10,,,,,,,,,,,,,,,,,,,,,,,,,,,,,,,,,,,,,,,,,,,,
,,,,655f9361656f0a872d1bd405,B,2024-06-29_08h24.12.590,Slot Machine Game,2023.1.3,MacIntel,59.52380952,,,,,,,,,,,,,,,,,,,,,,,,,,,,,,,,,,,283.9025,,,288.9062,space,2.7697,,,,,,,,,,,,,,,,,,,,,,,,,,,,,,,,,,,,,
,,,,655f9361656f0a872d1bd405,B,2024-06-29_08h24.12.590,Slot Machine Game,2023.1.3,MacIntel,59.52380952,,,,,,,,,,,,,,,,,,,,,,,,,,,,,,,,,,,,,,,,,,291.7016,2,"[2,4,8,0,1,3,9,6,8,5]",space,4.9714,,,,,,,,,,,,,,,,,,,,,,,,,,,,,,,
,,,,655f9361656f0a872d1bd405,B,2024-06-29_08h24.12.590,Slot Machine Game,2023.1.3,MacIntel,59.52380952,,,,,,,,,,,,,,,,,,,,,,,,,,,,,,,,100,,,,,,,,,,,,,,,,1,3,"[15,15]","[[3,1,2],[3,1,2]]",296.71,0,up,1.3363,,1.5,0.3,"[3,1,2]",0.51425727,stimuli/card_100_transparent.png,100,0,0,0,0,1,,,,,,,,,,
,,,,655f9361656f0a872d1bd405,B,2024-06-29_08h24.12.590,Slot Machine Game,2023.1.3,MacIntel,59.52380952,,,,,,,,,,,,,,,,,,,,,,,,,,,,,,,,200,,,,,,,,,,,,,,,,1,3,,,300.3692,1,up,0.0062,,1,0.3,"[3,1,2]",0.228510877,stimuli/card_100_transparent.png,100,1,0,1,0,1,,,,,,,,,,
,,,,655f9361656f0a872d1bd405,B,2024-06-29_08h24.12.590,Slot Machine Game,2023.1.3,MacIntel,59.52380952,,,,,,,,,,,,,,,,,,,,,,,,,,,,,,,,300,,,,,,,,,,,,,,,,1,3,,,302.2022,2,up,0.4057,,0.5,0.3,"[3,1,2]",0.403407855,stimuli/card_100_transparent.png,100,2,0,2,0,1,,,,,,,,,,
,,,,655f9361656f0a872d1bd405,B,2024-06-29_08h24.12.590,Slot Machine Game,2023.1.3,MacIntel,59.52380952,,,,,,,,,,,,,,,,,,,,,,,,,,,,,,,,400,,,,,,,,,,,,,,,,1,3,,,303.9351,3,up,0.168,,1.5,0.3,"[3,1,2]",0.288390377,stimuli/card_100_transparent.png,100,3,0,3,0,1,,,,,,,,,,
,,,,655f9361656f0a872d1bd405,B,2024-06-29_08h24.12.590,Slot Machine Game,2023.1.3,MacIntel,59.52380952,,,,,,,,,,,,,,,,,,,,,,,,,,,,,,,,500,,,,,,,,,,,,,,,,1,3,,,306.4021,4,up,0.1336,,1,0.3,"[3,1,2]",0.201861499,stimuli/card_100_transparent.png,100,4,0,4,0,1,,,,,,,,,,
,,,,655f9361656f0a872d1bd405,B,2024-06-29_08h24.12.590,Slot Machine Game,2023.1.3,MacIntel,59.52380952,,,,,,,,,,,,,,,,,,,,,,,,,,,,,,,,600,,,,,,,,,,,,,,,,1,3,,,308.3684,5,up,0.9701,,1.5,0.3,"[3,1,2]",0.528911525,stimuli/card_100_transparent.png,100,5,0,5,0,1,,,,,,,,,,
,,,,655f9361656f0a872d1bd405,B,2024-06-29_08h24.12.590,Slot Machine Game,2023.1.3,MacIntel,59.52380952,,,,,,,,,,,,,,,,,,,,,,,,,,,,,,,,700,,,,,,,,,,,,,,,,1,3,,,311.6523,6,up,0.0213,,0.5,0.3,"[3,1,2]",0.976512103,stimuli/card_100_transparent.png,100,6,0,6,0,1,,,,,,,,,,
,,,,655f9361656f0a872d1bd405,B,2024-06-29_08h24.12.590,Slot Machine Game,2023.1.3,MacIntel,59.52380952,,,,,,,,,,,,,,,,,,,,,,,,,,,,,,,,800,,,,,,,,,,,,,,,,1,3,,,313.002,7,up,1.1568,,1.5,0.3,"[3,1,2]",0.768437011,stimuli/card_100_transparent.png,100,7,0,7,0,1,,,,,,,,,,
,,,,655f9361656f0a872d1bd405,B,2024-06-29_08h24.12.590,Slot Machine Game,2023.1.3,MacIntel,59.52380952,,,,,,,,,,,,,,,,,,,,,,,,,,,,,,,,900,,,,,,,,,,,,,,,,1,3,,,316.4684,8,up,0.7102,,0.5,0.3,"[3,1,2]",0.579866446,stimuli/card_100_transparent.png,100,8,0,8,0,1,,,,,,,,,,
,,,,655f9361656f0a872d1bd405,B,2024-06-29_08h24.12.590,Slot Machine Game,2023.1.3,MacIntel,59.52380952,,,,,,,,,,,,,,,,,,,,,,,,,,,,,,,,1000,,,,,,,,,,,,,,,,1,3,,,318.502,9,up,0.0557,,1,0.3,"[3,1,2]",0.515978864,stimuli/card_100_transparent.png,100,9,0,9,0,1,,,,,,,,,,
,,,,655f9361656f0a872d1bd405,B,2024-06-29_08h24.12.590,Slot Machine Game,2023.1.3,MacIntel,59.52380952,,,,,,,,,,,,,,,,,,,,,,,,,,,,,,,,1100,,,,,,,,,,,,,,,,1,3,,,320.3852,10,up,0.2384,,0.5,0.3,"[3,1,2]",0.518535411,stimuli/card_100_transparent.png,100,10,0,10,0,1,,,,,,,,,,
,,,,655f9361656f0a872d1bd405,B,2024-06-29_08h24.12.590,Slot Machine Game,2023.1.3,MacIntel,59.52380952,,,,,,,,,,,,,,,,,,,,,,,,,,,,,,,,1200,,,,,,,,,,,,,,,,1,3,,,321.9347,11,up,0.1049,,0.5,0.3,"[3,1,2]",0.228149531,stimuli/card_100_transparent.png,100,11,0,11,0,1,,,,,,,,,,
,,,,655f9361656f0a872d1bd405,B,2024-06-29_08h24.12.590,Slot Machine Game,2023.1.3,MacIntel,59.52380952,,,,,,,,,,,,,,,,,,,,,,,,,,,,,,,,1300,,,,,,,,,,,,,,,,1,3,,,323.3511,12,up,0.0685,,1,0.3,"[3,1,2]",0.306975138,stimuli/card_100_transparent.png,100,12,0,12,0,1,,,,,,,,,,
,,,,655f9361656f0a872d1bd405,B,2024-06-29_08h24.12.590,Slot Machine Game,2023.1.3,MacIntel,59.52380952,,,,,,,,,,,,,,,,,,,,,,,,,,,,,,,,1400,,,,,,,,,,,,,,,,1,3,,,325.2353,13,up,1.4879,,1.5,0.3,"[3,1,2]",0.435979945,stimuli/card_100_transparent.png,100,13,0,13,0,1,,,,,,,,,,
,,,,655f9361656f0a872d1bd405,B,2024-06-29_08h24.12.590,Slot Machine Game,2023.1.3,MacIntel,59.52380952,,,,,,,,,,,,,,,,,,,,,,,,,,,,,,,,1500,,,,,,,,,,,,,,,,1,3,,,329.0516,14,up,0.9688,,1.5,0.3,"[3,1,2]",0.396672821,stimuli/card_100_transparent.png,100,14,0,14,0,1,,,,,,,,,,
,,,,655f9361656f0a872d1bd405,B,2024-06-29_08h24.12.590,Slot Machine Game,2023.1.3,MacIntel,59.52380952,,,,,,,,,,,,,,,,,,,,,,,,,,,,,,,,,,,332.3352,,,,,,,,,,,,,,,,,,,,,,,,,,,,,,,,,[1500],0,0,0,0,1,,,,
,,,,655f9361656f0a872d1bd405,B,2024-06-29_08h24.12.590,Slot Machine Game,2023.1.3,MacIntel,59.52380952,,,,,,,,,,,,,,,,,,,,,,,,,,,,,,,,10,,,,,,,,,,,,,,,,2,5,"[5,15]","[[1,2,3],[3,1,2]]",337.3482,0,right,1.4073,,1,0.3,"[1,2,3]",0.102266894,stimuli/card_10_transparent.png,10,0,0,0,0,1,,,,,,,,,,
,,,,655f9361656f0a872d1bd405,B,2024-06-29_08h24.12.590,Slot Machine Game,2023.1.3,MacIntel,59.52380952,,,,,,,,,,,,,,,,,,,,,,,,,,,,,,,,10,,,,,,,,,,,,,,,,2,5,,,340.5678,1,right,0.5354,,0.5,0.3,"[1,2,3]",0.315657259,stimuli/card_0_transparent.png,0,1,0,1,0,1,,,,,,,,,,
,,,,655f9361656f0a872d1bd405,B,2024-06-29_08h24.12.590,Slot Machine Game,2023.1.3,MacIntel,59.52380952,,,,,,,,,,,,,,,,,,,,,,,,,,,,,,,,110,,,,,,,,,,,,,,,,2,5,,,342.435,2,left,1.516,,0.5,0.3,"[1,2,3]",0.328412096,stimuli/card_100_transparent.png,100,2,0,2,0,1,,,,,,,,,,
,,,,655f9361656f0a872d1bd405,B,2024-06-29_08h24.12.590,Slot Machine Game,2023.1.3,MacIntel,59.52380952,,,,,,,,,,,,,,,,,,,,,,,,,,,,,,,,210,,,,,,,,,,,,,,,,2,5,,,345.285,3,left,0.0397,,1,0.3,"[1,2,3]",0.404266648,stimuli/card_100_transparent.png,100,3,0,3,0,1,,,,,,,,,,
,,,,655f9361656f0a872d1bd405,B,2024-06-29_08h24.12.590,Slot Machine Game,2023.1.3,MacIntel,59.52380952,,,,,,,,,,,,,,,,,,,,,,,,,,,,,,,,310,,,,,,,,,,,,,,,,2,5,,,347.1507,4,left,1.1515,,1,0.3,"[1,2,3]",0.900267349,stimuli/card_100_transparent.png,100,4,0,4,0,1,,,,,,,,,,
,,,,655f9361656f0a872d1bd405,B,2024-06-29_08h24.12.590,Slot Machine Game,2023.1.3,MacIntel,59.52380952,,,,,,,,,,,,,,,,,,,,,,,,,,,,,,,,310,,,,,,,,,,,,,,,,2,5,,,350.135,5,left,0.1081,,1.5,0.3,"[3,1,2]",0.549193449,stimuli/card_0_transparent.png,0,5,0,5,0,1,,,,,,,,,,
,,,,655f9361656f0a872d1bd405,B,2024-06-29_08h24.12.590,Slot Machine Game,2023.1.3,MacIntel,59.52380952,,,,,,,,,,,,,,,,,,,,,,,,,,,,,,,,310,,,,,,,,,,,,,,,,2,5,,,352.5676,6,left,0.1548,,0.5,0.3,"[3,1,2]",0.493374679,stimuli/card_0_transparent.png,0,6,0,6,0,1,,,,,,,,,,
,,,,655f9361656f0a872d1bd405,B,2024-06-29_08h24.12.590,Slot Machine Game,2023.1.3,MacIntel,59.52380952,,,,,,,,,,,,,,,,,,,,,,,,,,,,,,,,310,,,,,,,,,,,,,,,,2,5,,,354.0182,7,left,2.1519,,1.5,0.3,"[3,1,2]",0.913376246,stimuli/card_0_transparent.png,0,7,0,7,0,1,,,,,,,,,,
,,,,655f9361656f0a872d1bd405,B,2024-06-29_08h24.12.590,Slot Machine Game,2023.1.3,MacIntel,59.52380952,,,,,,,,,,,,,,,,,,,,,,,,,,,,,,,,410,,,,,,,,,,,,,,,,2,5,,,358.4841,8,up,1.1187,,1,0.3,"[3,1,2]",0.991865702,stimuli/card_100_transparent.png,100,8,0,8,0,1,,,,,,,,,,
,,,,655f9361656f0a872d1bd405,B,2024-06-29_08h24.12.590,Slot Machine Game,2023.1.3,MacIntel,59.52380952,,,,,,,,,,,,,,,,,,,,,,,,,,,,,,,,510,,,,,,,,,,,,,,,,2,5,,,361.4175,9,up,1.0745,,1.5,0.3,"[3,1,2]",0.345482522,stimuli/card_100_transparent.png,100,9,0,9,0,1,,,,,,,,,,
,,,,655f9361656f0a872d1bd405,B,2024-06-29_08h24.12.590,Slot Machine Game,2023.1.3,MacIntel,59.52380952,,,,,,,,,,,,,,,,,,,,,,,,,,,,,,,,610,,,,,,,,,,,,,,,,2,5,,,364.8009,10,up,0.4227,,1,0.3,"[3,1,2]",0.492853465,stimuli/card_100_transparent.png,100,10,0,10,0,1,,,,,,,,,,
,,,,655f9361656f0a872d1bd405,B,2024-06-29_08h24.12.590,Slot Machine Game,2023.1.3,MacIntel,59.52380952,,,,,,,,,,,,,,,,,,,,,,,,,,,,,,,,710,,,,,,,,,,,,,,,,2,5,,,367.0509,11,up,0.4239,,1,0.3,"[3,1,2]",0.956247939,stimuli/card_100_transparent.png,100,11,0,11,0,1,,,,,,,,,,
,,,,655f9361656f0a872d1bd405,B,2024-06-29_08h24.12.590,Slot Machine Game,2023.1.3,MacIntel,59.52380952,,,,,,,,,,,,,,,,,,,,,,,,,,,,,,,,810,,,,,,,,,,,,,,,,2,5,,,369.2847,12,up,0.4342,,1,0.3,"[3,1,2]",0.482732163,stimuli/card_100_transparent.png,100,12,0,12,0,1,,,,,,,,,,
,,,,655f9361656f0a872d1bd405,B,2024-06-29_08h24.12.590,Slot Machine Game,2023.1.3,MacIntel,59.52380952,,,,,,,,,,,,,,,,,,,,,,,,,,,,,,,,910,,,,,,,,,,,,,,,,2,5,,,371.534,13,up,0.385,,1.5,0.3,"[3,1,2]",0.86242705,stimuli/card_100_transparent.png,100,13,0,13,0,1,,,,,,,,,,
,,,,655f9361656f0a872d1bd405,B,2024-06-29_08h24.12.590,Slot Machine Game,2023.1.3,MacIntel,59.52380952,,,,,,,,,,,,,,,,,,,,,,,,,,,,,,,,1010,,,,,,,,,,,,,,,,2,5,,,374.2345,14,up,0.2689,,1.5,0.3,"[3,1,2]",0.202224284,stimuli/card_100_transparent.png,100,14,0,14,0,1,,,,,,,,,,
,,,,655f9361656f0a872d1bd405,B,2024-06-29_08h24.12.590,Slot Machine Game,2023.1.3,MacIntel,59.52380952,,,,,,,,,,,,,,,,,,,,,,,,,,,,,,,,,,,376.8261,,,,,,,,,,,,,,,,,,,,,,,,,,,,,,,,,"[1500,1010]",1,0,1,0,1,,,,
,,,,655f9361656f0a872d1bd405,B,2024-06-29_08h24.12.590,Slot Machine Game,2023.1.3,MacIntel,59.52380952,,,,,,,,,,,,,,,,,,,,,,,,,,,,,,,,0,,,,,,,,,,,,,,,,3,9,"[8,15]","[[3,2,1],[3,1,2]]",381.8308,0,left,0.752,,1,0.3,"[3,2,1]",0.702941795,stimuli/card_0_transparent.png,0,0,0,0,0,1,,,,,,,,,,
,,,,655f9361656f0a872d1bd405,B,2024-06-29_08h24.12.590,Slot Machine Game,2023.1.3,MacIntel,59.52380952,,,,,,,,,,,,,,,,,,,,,,,,,,,,,,,,0,,,,,,,,,,,,,,,,3,9,,,384.4013,1,left,0.608,,1,0.3,"[3,2,1]",0.783524893,stimuli/card_0_transparent.png,0,1,0,1,0,1,,,,,,,,,,
,,,,655f9361656f0a872d1bd405,B,2024-06-29_08h24.12.590,Slot Machine Game,2023.1.3,MacIntel,59.52380952,,,,,,,,,,,,,,,,,,,,,,,,,,,,,,,,100,,,,,,,,,,,,,,,,3,9,,,386.8287,2,right,0.7028,,0.5,0.3,"[3,2,1]",0.207928718,stimuli/card_100_transparent.png,100,2,0,2,0,1,,,,,,,,,,
,,,,655f9361656f0a872d1bd405,B,2024-06-29_08h24.12.590,Slot Machine Game,2023.1.3,MacIntel,59.52380952,,,,,,,,,,,,,,,,,,,,,,,,,,,,,,,,100,,,,,,,,,,,,,,,,3,9,,,388.8511,3,right,0.0061,,0.5,0.3,"[3,2,1]",0.087327244,stimuli/card_0_transparent.png,0,3,0,3,0,1,,,,,,,,,,
,,,,655f9361656f0a872d1bd405,B,2024-06-29_08h24.12.590,Slot Machine Game,2023.1.3,MacIntel,59.52380952,,,,,,,,,,,,,,,,,,,,,,,,,,,,,,,,200,,,,,,,,,,,,,,,,3,9,,,390.1845,4,right,0.373,,1,0.3,"[3,2,1]",0.220984653,stimuli/card_100_transparent.png,100,4,0,4,0,1,,,,,,,,,,
,,,,655f9361656f0a872d1bd405,B,2024-06-29_08h24.12.590,Slot Machine Game,2023.1.3,MacIntel,59.52380952,,,,,,,,,,,,,,,,,,,,,,,,,,,,,,,,300,,,,,,,,,,,,,,,,3,9,,,392.3835,5,right,0.1195,,1.5,0.3,"[3,2,1]",0.635279705,stimuli/card_100_transparent.png,100,5,0,5,0,1,,,,,,,,,,
,,,,655f9361656f0a872d1bd405,B,2024-06-29_08h24.12.590,Slot Machine Game,2023.1.3,MacIntel,59.52380952,,,,,,,,,,,,,,,,,,,,,,,,,,,,,,,,400,,,,,,,,,,,,,,,,3,9,,,394.8338,6,right,0.3375,,0.5,0.3,"[3,2,1]",0.932909729,stimuli/card_100_transparent.png,100,6,0,6,0,1,,,,,,,,,,
,,,,655f9361656f0a872d1bd405,B,2024-06-29_08h24.12.590,Slot Machine Game,2023.1.3,MacIntel,59.52380952,,,,,,,,,,,,,,,,,,,,,,,,,,,,,,,,400,,,,,,,,,,,,,,,,3,9,,,396.4845,7,right,0.3894,,1.5,0.3,"[3,2,1]",0.086046494,stimuli/card_0_transparent.png,0,7,0,7,0,1,,,,,,,,,,
,,,,655f9361656f0a872d1bd405,B,2024-06-29_08h24.12.590,Slot Machine Game,2023.1.3,MacIntel,59.52380952,,,,,,,,,,,,,,,,,,,,,,,,,,,,,,,,400,,,,,,,,,,,,,,,,3,9,,,399.1999,8,right,0.2689,,0.5,0.3,"[3,1,2]",0.077885524,stimuli/card_0_transparent.png,0,8,0,8,0,1,,,,,,,,,,
,,,,655f9361656f0a872d1bd405,B,2024-06-29_08h24.12.590,Slot Machine Game,2023.1.3,MacIntel,59.52380952,,,,,,,,,,,,,,,,,,,,,,,,,,,,,,,,400,,,,,,,,,,,,,,,,3,9,,,400.8008,9,right,0.1506,,1.5,0.3,"[3,1,2]",0.02716887,stimuli/card_0_transparent.png,0,9,0,9,0,1,,,,,,,,,,
,,,,655f9361656f0a872d1bd405,B,2024-06-29_08h24.12.590,Slot Machine Game,2023.1.3,MacIntel,59.52380952,,,,,,,,,,,,,,,,,,,,,,,,,,,,,,,,410,,,,,,,,,,,,,,,,3,9,,,403.2843,10,right,0.1245,,1,0.3,"[3,1,2]",0.751293338,stimuli/card_10_transparent.png,10,10,0,10,0,1,,,,,,,,,,
,,,,655f9361656f0a872d1bd405,B,2024-06-29_08h24.12.590,Slot Machine Game,2023.1.3,MacIntel,59.52380952,,,,,,,,,,,,,,,,,,,,,,,,,,,,,,,,420,,,,,,,,,,,,,,,,3,9,,,405.2342,11,right,0.3197,,1,0.3,"[3,1,2]",0.821927249,stimuli/card_10_transparent.png,10,11,0,11,0,1,,,,,,,,,,
,,,,655f9361656f0a872d1bd405,B,2024-06-29_08h24.12.590,Slot Machine Game,2023.1.3,MacIntel,59.52380952,,,,,,,,,,,,,,,,,,,,,,,,,,,,,,,,430,,,,,,,,,,,,,,,,3,9,,,407.3666,12,left,0.4406,,1,0.3,"[3,1,2]",0.181705167,stimuli/card_10_transparent.png,10,12,0,12,0,1,,,,,,,,,,
,,,,655f9361656f0a872d1bd405,B,2024-06-29_08h24.12.590,Slot Machine Game,2023.1.3,MacIntel,59.52380952,,,,,,,,,,,,,,,,,,,,,,,,,,,,,,,,530,,,,,,,,,,,,,,,,3,9,,,409.6342,13,up,2.2877,,0.5,0.3,"[3,1,2]",0.783403033,stimuli/card_100_transparent.png,100,13,0,13,0,1,,,,,,,,,,
,,,,655f9361656f0a872d1bd405,B,2024-06-29_08h24.12.590,Slot Machine Game,2023.1.3,MacIntel,59.52380952,,,,,,,,,,,,,,,,,,,,,,,,,,,,,,,,630,,,,,,,,,,,,,,,,3,9,,,413.2501,14,up,0.3537,,1,0.3,"[3,1,2]",0.350165729,stimuli/card_100_transparent.png,100,14,0,14,0,1,,,,,,,,,,
,,,,655f9361656f0a872d1bd405,B,2024-06-29_08h24.12.590,Slot Machine Game,2023.1.3,MacIntel,59.52380952,,,,,,,,,,,,,,,,,,,,,,,,,,,,,,,,,,,415.4173,,,,,,,,,,,,,,,,,,,,,,,,,,,,,,,,,"[1500,1010,630]",2,0,2,0,1,,,,
,,,,655f9361656f0a872d1bd405,B,2024-06-29_08h24.12.590,Slot Machine Game,2023.1.3,MacIntel,59.52380952,,,,,,,,,,,,,,,,,,,,,,,,,,,,,,,,10,,,,,,,,,,,,,,,,4,1,"[12,15]","[[2,1,3],[2,3,1]]",420.4297,0,left,0.6199,,1,0.3,"[2,1,3]",0.828184238,stimuli/card_10_transparent.png,10,0,0,0,0,1,,,,,,,,,,
,,,,655f9361656f0a872d1bd405,B,2024-06-29_08h24.12.590,Slot Machine Game,2023.1.3,MacIntel,59.52380952,,,,,,,,,,,,,,,,,,,,,,,,,,,,,,,,20,,,,,,,,,,,,,,,,4,1,,,422.8673,1,left,0.1699,,1.5,0.3,"[2,1,3]",0.558368746,stimuli/card_10_transparent.png,10,1,0,1,0,1,,,,,,,,,,
,,,,655f9361656f0a872d1bd405,B,2024-06-29_08h24.12.590,Slot Machine Game,2023.1.3,MacIntel,59.52380952,,,,,,,,,,,,,,,,,,,,,,,,,,,,,,,,20,,,,,,,,,,,,,,,,4,1,,,425.3619,2,left,0.2052,,1.5,0.3,"[2,1,3]",0.058289085,stimuli/card_0_transparent.png,0,2,0,2,0,1,,,,,,,,,,
,,,,655f9361656f0a872d1bd405,B,2024-06-29_08h24.12.590,Slot Machine Game,2023.1.3,MacIntel,59.52380952,,,,,,,,,,,,,,,,,,,,,,,,,,,,,,,,120,,,,,,,,,,,,,,,,4,1,,,427.8837,3,up,0.7892,,1.5,0.3,"[2,1,3]",0.562960286,stimuli/card_100_transparent.png,100,3,0,3,0,1,,,,,,,,,,
,,,,655f9361656f0a872d1bd405,B,2024-06-29_08h24.12.590,Slot Machine Game,2023.1.3,MacIntel,59.52380952,,,,,,,,,,,,,,,,,,,,,,,,,,,,,,,,130,,,,,,,,,,,,,,,,4,1,,,431.0005,4,up,0.0851,,1.5,0.3,"[2,1,3]",0.166227863,stimuli/card_10_transparent.png,10,4,0,4,0,1,,,,,,,,,,
,,,,655f9361656f0a872d1bd405,B,2024-06-29_08h24.12.590,Slot Machine Game,2023.1.3,MacIntel,59.52380952,,,,,,,,,,,,,,,,,,,,,,,,,,,,,,,,230,,,,,,,,,,,,,,,,4,1,,,433.4171,5,up,0.0199,,1.5,0.3,"[2,1,3]",0.267159894,stimuli/card_100_transparent.png,100,5,0,5,0,1,,,,,,,,,,
,,,,655f9361656f0a872d1bd405,B,2024-06-29_08h24.12.590,Slot Machine Game,2023.1.3,MacIntel,59.52380952,,,,,,,,,,,,,,,,,,,,,,,,,,,,,,,,330,,,,,,,,,,,,,,,,4,1,,,435.7672,6,up,0.2204,,1,0.3,"[2,1,3]",0.995768696,stimuli/card_100_transparent.png,100,6,0,6,0,1,,,,,,,,,,
,,,,655f9361656f0a872d1bd405,B,2024-06-29_08h24.12.590,Slot Machine Game,2023.1.3,MacIntel,59.52380952,,,,,,,,,,,,,,,,,,,,,,,,,,,,,,,,330,,,,,,,,,,,,,,,,4,1,,,437.8171,7,up,0.0542,,1.5,0.3,"[2,1,3]",0.014129767,stimuli/card_0_transparent.png,0,7,0,7,0,1,,,,,,,,,,
,,,,655f9361656f0a872d1bd405,B,2024-06-29_08h24.12.590,Slot Machine Game,2023.1.3,MacIntel,59.52380952,,,,,,,,,,,,,,,,,,,,,,,,,,,,,,,,430,,,,,,,,,,,,,,,,4,1,,,440.1994,8,up,0.0757,,1,0.3,"[2,1,3]",0.425983315,stimuli/card_100_transparent.png,100,8,0,8,0,1,,,,,,,,,,
,,,,655f9361656f0a872d1bd405,B,2024-06-29_08h24.12.590,Slot Machine Game,2023.1.3,MacIntel,59.52380952,,,,,,,,,,,,,,,,,,,,,,,,,,,,,,,,530,,,,,,,,,,,,,,,,4,1,,,442.1002,9,up,0.0414,,0.5,0.3,"[2,1,3]",0.88978738,stimuli/card_100_transparent.png,100,9,0,9,0,1,,,,,,,,,,
,,,,655f9361656f0a872d1bd405,B,2024-06-29_08h24.12.590,Slot Machine Game,2023.1.3,MacIntel,59.52380952,,,,,,,,,,,,,,,,,,,,,,,,,,,,,,,,630,,,,,,,,,,,,,,,,4,1,,,443.467,10,up,0.123,,1.5,0.3,"[2,1,3]",0.516158202,stimuli/card_100_transparent.png,100,10,0,10,0,1,,,,,,,,,,
,,,,655f9361656f0a872d1bd405,B,2024-06-29_08h24.12.590,Slot Machine Game,2023.1.3,MacIntel,59.52380952,,,,,,,,,,,,,,,,,,,,,,,,,,,,,,,,730,,,,,,,,,,,,,,,,4,1,,,445.9171,11,up,0.2019,,0.5,0.3,"[2,1,3]",0.583163291,stimuli/card_100_transparent.png,100,11,0,11,0,1,,,,,,,,,,
,,,,655f9361656f0a872d1bd405,B,2024-06-29_08h24.12.590,Slot Machine Game,2023.1.3,MacIntel,59.52380952,,,,,,,,,,,,,,,,,,,,,,,,,,,,,,,,740,,,,,,,,,,,,,,,,4,1,,,447.4494,12,up,0.3389,,1.5,0.3,"[2,3,1]",0.156779214,stimuli/card_10_transparent.png,10,12,0,12,0,1,,,,,,,,,,
,,,,655f9361656f0a872d1bd405,B,2024-06-29_08h24.12.590,Slot Machine Game,2023.1.3,MacIntel,59.52380952,,,,,,,,,,,,,,,,,,,,,,,,,,,,,,,,740,,,,,,,,,,,,,,,,4,1,,,450.1168,13,up,0.252,,0.5,0.3,"[2,3,1]",0.607741204,stimuli/card_0_transparent.png,0,13,0,13,0,1,,,,,,,,,,
,,,,655f9361656f0a872d1bd405,B,2024-06-29_08h24.12.590,Slot Machine Game,2023.1.3,MacIntel,59.52380952,,,,,,,,,,,,,,,,,,,,,,,,,,,,,,,,740,,,,,,,,,,,,,,,,4,1,,,451.7002,14,up,0.1223,,1.5,0.3,"[2,3,1]",0.832446895,stimuli/card_0_transparent.png,0,14,0,14,0,1,,,,,,,,,,
,,,,655f9361656f0a872d1bd405,B,2024-06-29_08h24.12.590,Slot Machine Game,2023.1.3,MacIntel,59.52380952,,,,,,,,,,,,,,,,,,,,,,,,,,,,,,,,,,,454.1505,,,,,,,,,,,,,,,,,,,,,,,,,,,,,,,,,"[1500,1010,630,740]",3,0,3,0,1,,,,
,,,,655f9361656f0a872d1bd405,B,2024-06-29_08h24.12.590,Slot Machine Game,2023.1.3,MacIntel,59.52380952,,,,,,,,,,,,,,,,,,,,,,,,,,,,,,,,10,,,,,,,,,,,,,,,,5,2,"[6,15]","[[1,3,2],[3,2,1]]",459.1635,0,right,0.4355,,0.5,0.3,"[1,3,2]",0.657881785,stimuli/card_10_transparent.png,10,0,0,0,0,1,,,,,,,,,,
,,,,655f9361656f0a872d1bd405,B,2024-06-29_08h24.12.590,Slot Machine Game,2023.1.3,MacIntel,59.52380952,,,,,,,,,,,,,,,,,,,,,,,,,,,,,,,,20,,,,,,,,,,,,,,,,5,2,,,460.9168,1,right,0.0218,,0.5,0.3,"[1,3,2]",0.286028265,stimuli/card_10_transparent.png,10,1,0,1,0,1,,,,,,,,,,
,,,,655f9361656f0a872d1bd405,B,2024-06-29_08h24.12.590,Slot Machine Game,2023.1.3,MacIntel,59.52380952,,,,,,,,,,,,,,,,,,,,,,,,,,,,,,,,120,,,,,,,,,,,,,,,,5,2,,,462.2607,2,up,0.3367,,1,0.3,"[1,3,2]",0.084301923,stimuli/card_100_transparent.png,100,2,0,2,0,1,,,,,,,,,,
,,,,655f9361656f0a872d1bd405,B,2024-06-29_08h24.12.590,Slot Machine Game,2023.1.3,MacIntel,59.52380952,,,,,,,,,,,,,,,,,,,,,,,,,,,,,,,,120,,,,,,,,,,,,,,,,5,2,,,464.4168,3,up,0.1232,,1,0.3,"[1,3,2]",0.908174816,stimuli/card_0_transparent.png,0,3,0,3,0,1,,,,,,,,,,
,,,,655f9361656f0a872d1bd405,B,2024-06-29_08h24.12.590,Slot Machine Game,2023.1.3,MacIntel,59.52380952,,,,,,,,,,,,,,,,,,,,,,,,,,,,,,,,130,,,,,,,,,,,,,,,,5,2,,,466.3672,4,up,0.3057,,0.5,0.3,"[1,3,2]",0.172111466,stimuli/card_10_transparent.png,10,4,0,4,0,1,,,,,,,,,,
,,,,655f9361656f0a872d1bd405,B,2024-06-29_08h24.12.590,Slot Machine Game,2023.1.3,MacIntel,59.52380952,,,,,,,,,,,,,,,,,,,,,,,,,,,,,,,,130,,,,,,,,,,,,,,,,5,2,,,467.9996,5,up,0.2672,,1,0.3,"[1,3,2]",0.350519419,stimuli/card_0_transparent.png,0,5,0,5,0,1,,,,,,,,,,
,,,,655f9361656f0a872d1bd405,B,2024-06-29_08h24.12.590,Slot Machine Game,2023.1.3,MacIntel,59.52380952,,,,,,,,,,,,,,,,,,,,,,,,,,,,,,,,130,,,,,,,,,,,,,,,,5,2,,,470.0838,6,left,1.0363,,1,0.3,"[3,2,1]",0.765368471,stimuli/card_0_transparent.png,0,6,0,6,0,1,,,,,,,,,,
,,,,655f9361656f0a872d1bd405,B,2024-06-29_08h24.12.590,Slot Machine Game,2023.1.3,MacIntel,59.52380952,,,,,,,,,,,,,,,,,,,,,,,,,,,,,,,,130,,,,,,,,,,,,,,,,5,2,,,472.9501,7,left,0.0696,,1.5,0.3,"[3,2,1]",0.332651424,stimuli/card_0_transparent.png,0,7,0,7,0,1,,,,,,,,,,
,,,,655f9361656f0a872d1bd405,B,2024-06-29_08h24.12.590,Slot Machine Game,2023.1.3,MacIntel,59.52380952,,,,,,,,,,,,,,,,,,,,,,,,,,,,,,,,140,,,,,,,,,,,,,,,,5,2,,,475.3491,8,left,0.2701,,0.5,0.3,"[3,2,1]",0.164537726,stimuli/card_10_transparent.png,10,8,0,8,0,1,,,,,,,,,,
,,,,655f9361656f0a872d1bd405,B,2024-06-29_08h24.12.590,Slot Machine Game,2023.1.3,MacIntel,59.52380952,,,,,,,,,,,,,,,,,,,,,,,,,,,,,,,,240,,,,,,,,,,,,,,,,5,2,,,476.9334,9,right,0.7722,,1,0.3,"[3,2,1]",0.596629249,stimuli/card_100_transparent.png,100,9,0,9,0,1,,,,,,,,,,
,,,,655f9361656f0a872d1bd405,B,2024-06-29_08h24.12.590,Slot Machine Game,2023.1.3,MacIntel,59.52380952,,,,,,,,,,,,,,,,,,,,,,,,,,,,,,,,240,,,,,,,,,,,,,,,,5,2,,,479.5326,10,right,0.1918,,0.5,0.3,"[3,2,1]",0.098479602,stimuli/card_0_transparent.png,0,10,0,10,0,1,,,,,,,,,,
,,,,655f9361656f0a872d1bd405,B,2024-06-29_08h24.12.590,Slot Machine Game,2023.1.3,MacIntel,59.52380952,,,,,,,,,,,,,,,,,,,,,,,,,,,,,,,,340,,,,,,,,,,,,,,,,5,2,,,481.0331,11,right,0.1662,,1,0.3,"[3,2,1]",0.643619557,stimuli/card_100_transparent.png,100,11,0,11,0,1,,,,,,,,,,
,,,,655f9361656f0a872d1bd405,B,2024-06-29_08h24.12.590,Slot Machine Game,2023.1.3,MacIntel,59.52380952,,,,,,,,,,,,,,,,,,,,,,,,,,,,,,,,440,,,,,,,,,,,,,,,,5,2,,,483.0165,12,right,0.3891,,0.5,0.3,"[3,2,1]",0.628752473,stimuli/card_100_transparent.png,100,12,0,12,0,1,,,,,,,,,,
,,,,655f9361656f0a872d1bd405,B,2024-06-29_08h24.12.590,Slot Machine Game,2023.1.3,MacIntel,59.52380952,,,,,,,,,,,,,,,,,,,,,,,,,,,,,,,,540,,,,,,,,,,,,,,,,5,2,,,484.7331,13,right,0.1065,,1.5,0.3,"[3,2,1]",0.965421543,stimuli/card_100_transparent.png,100,13,0,13,0,1,,,,,,,,,,
,,,,655f9361656f0a872d1bd405,B,2024-06-29_08h24.12.590,Slot Machine Game,2023.1.3,MacIntel,59.52380952,,,,,,,,,,,,,,,,,,,,,,,,,,,,,,,,640,,,,,,,,,,,,,,,,5,2,,,487.1664,14,right,0.3052,,1.5,0.3,"[3,2,1]",0.529644087,stimuli/card_100_transparent.png,100,14,0,14,0,1,,,,,,,,,,
,,,,655f9361656f0a872d1bd405,B,2024-06-29_08h24.12.590,Slot Machine Game,2023.1.3,MacIntel,59.52380952,,,,,,,,,,,,,,,,,,,,,,,,,,,,,,,,,,,489.7998,,,,,,,,,,,,,,,,,,,,,,,,,,,,,,,,,"[1500,1010,630,740,640]",4,0,4,0,1,,,,
,,,,655f9361656f0a872d1bd405,B,2024-06-29_08h24.12.590,Slot Machine Game,2023.1.3,MacIntel,59.52380952,,,,,,,,,,,,,,,,,,,,,,,,,,,,,,,,0,,,,,,,,,,,,,,,,6,4,"[7,15]","[[2,3,1],[1,2,3]]",494.8126,0,up,0.5525,,0.5,0.3,"[2,3,1]",0.631695537,stimuli/card_0_transparent.png,0,0,0,0,0,1,,,,,,,,,,
,,,,655f9361656f0a872d1bd405,B,2024-06-29_08h24.12.590,Slot Machine Game,2023.1.3,MacIntel,59.52380952,,,,,,,,,,,,,,,,,,,,,,,,,,,,,,,,10,,,,,,,,,,,,,,,,6,4,,,496.6823,1,up,0.2697,,1,0.3,"[2,3,1]",0.194301481,stimuli/card_10_transparent.png,10,1,0,1,0,1,,,,,,,,,,
,,,,655f9361656f0a872d1bd405,B,2024-06-29_08h24.12.590,Slot Machine Game,2023.1.3,MacIntel,59.52380952,,,,,,,,,,,,,,,,,,,,,,,,,,,,,,,,110,,,,,,,,,,,,,,,,6,4,,,498.7662,2,right,0.4382,,1,0.3,"[2,3,1]",0.531095255,stimuli/card_100_transparent.png,100,2,0,2,0,1,,,,,,,,,,
,,,,655f9361656f0a872d1bd405,B,2024-06-29_08h24.12.590,Slot Machine Game,2023.1.3,MacIntel,59.52380952,,,,,,,,,,,,,,,,,,,,,,,,,,,,,,,,210,,,,,,,,,,,,,,,,6,4,,,501.0334,3,right,0.2398,,1.5,0.3,"[2,3,1]",0.607384919,stimuli/card_100_transparent.png,100,3,0,3,0,1,,,,,,,,,,
,,,,655f9361656f0a872d1bd405,B,2024-06-29_08h24.12.590,Slot Machine Game,2023.1.3,MacIntel,59.52380952,,,,,,,,,,,,,,,,,,,,,,,,,,,,,,,,210,,,,,,,,,,,,,,,,6,4,,,503.5996,4,right,0.3843,,1,0.3,"[2,3,1]",0.080128545,stimuli/card_0_transparent.png,0,4,0,4,0,1,,,,,,,,,,
,,,,655f9361656f0a872d1bd405,B,2024-06-29_08h24.12.590,Slot Machine Game,2023.1.3,MacIntel,59.52380952,,,,,,,,,,,,,,,,,,,,,,,,,,,,,,,,310,,,,,,,,,,,,,,,,6,4,,,505.8159,5,right,0.366,,1.5,0.3,"[2,3,1]",0.421740476,stimuli/card_100_transparent.png,100,5,0,5,0,1,,,,,,,,,,
,,,,655f9361656f0a872d1bd405,B,2024-06-29_08h24.12.590,Slot Machine Game,2023.1.3,MacIntel,59.52380952,,,,,,,,,,,,,,,,,,,,,,,,,,,,,,,,410,,,,,,,,,,,,,,,,6,4,,,508.5157,6,right,0.001,,1.5,0.3,"[2,3,1]",0.215835518,stimuli/card_100_transparent.png,100,6,0,6,0,1,,,,,,,,,,
,,,,655f9361656f0a872d1bd405,B,2024-06-29_08h24.12.590,Slot Machine Game,2023.1.3,MacIntel,59.52380952,,,,,,,,,,,,,,,,,,,,,,,,,,,,,,,,410,,,,,,,,,,,,,,,,6,4,,,510.8489,7,right,0.1742,,1.5,0.3,"[1,2,3]",0.32681891,stimuli/card_0_transparent.png,0,7,0,7,0,1,,,,,,,,,,
,,,,655f9361656f0a872d1bd405,B,2024-06-29_08h24.12.590,Slot Machine Game,2023.1.3,MacIntel,59.52380952,,,,,,,,,,,,,,,,,,,,,,,,,,,,,,,,410,,,,,,,,,,,,,,,,6,4,,,513.3486,8,right,0.0863,,1.5,0.3,"[1,2,3]",0.729833733,stimuli/card_0_transparent.png,0,8,0,8,0,1,,,,,,,,,,
,,,,655f9361656f0a872d1bd405,B,2024-06-29_08h24.12.590,Slot Machine Game,2023.1.3,MacIntel,59.52380952,,,,,,,,,,,,,,,,,,,,,,,,,,,,,,,,410,,,,,,,,,,,,,,,,6,4,,,515.7493,9,right,0.0863,,0.5,0.3,"[1,2,3]",0.378158879,stimuli/card_0_transparent.png,0,9,0,9,0,1,,,,,,,,,,
,,,,655f9361656f0a872d1bd405,B,2024-06-29_08h24.12.590,Slot Machine Game,2023.1.3,MacIntel,59.52380952,,,,,,,,,,,,,,,,,,,,,,,,,,,,,,,,410,,,,,,,,,,,,,,,,6,4,,,517.1661,10,right,0.0493,,0.5,0.3,"[1,2,3]",0.728108238,stimuli/card_0_transparent.png,0,10,0,10,0,1,,,,,,,,,,
,,,,655f9361656f0a872d1bd405,B,2024-06-29_08h24.12.590,Slot Machine Game,2023.1.3,MacIntel,59.52380952,,,,,,,,,,,,,,,,,,,,,,,,,,,,,,,,510,,,,,,,,,,,,,,,,6,4,,,518.5441,11,left,0.2853,,0.5,0.3,"[1,2,3]",0.280137383,stimuli/card_100_transparent.png,100,11,0,11,0,1,,,,,,,,,,
,,,,655f9361656f0a872d1bd405,B,2024-06-29_08h24.12.590,Slot Machine Game,2023.1.3,MacIntel,59.52380952,,,,,,,,,,,,,,,,,,,,,,,,,,,,,,,,520,,,,,,,,,,,,,,,,6,4,,,520.1659,12,left,0.1712,,0.5,0.3,"[1,2,3]",0.160508078,stimuli/card_10_transparent.png,10,12,0,12,0,1,,,,,,,,,,
,,,,655f9361656f0a872d1bd405,B,2024-06-29_08h24.12.590,Slot Machine Game,2023.1.3,MacIntel,59.52380952,,,,,,,,,,,,,,,,,,,,,,,,,,,,,,,,620,,,,,,,,,,,,,,,,6,4,,,521.6809,13,left,0.3364,,0.5,0.3,"[1,2,3]",0.523867571,stimuli/card_100_transparent.png,100,13,0,13,0,1,,,,,,,,,,
,,,,655f9361656f0a872d1bd405,B,2024-06-29_08h24.12.590,Slot Machine Game,2023.1.3,MacIntel,59.52380952,,,,,,,,,,,,,,,,,,,,,,,,,,,,,,,,720,,,,,,,,,,,,,,,,6,4,,,523.3325,14,left,0.3041,,1,0.3,"[1,2,3]",0.31540481,stimuli/card_100_transparent.png,100,14,0,14,0,1,,,,,,,,,,
,,,,655f9361656f0a872d1bd405,B,2024-06-29_08h24.12.590,Slot Machine Game,2023.1.3,MacIntel,59.52380952,,,,,,,,,,,,,,,,,,,,,,,,,,,,,,,,,,,525.465,,,,,,,,,,,,,,,,,,,,,,,,,,,,,,,,,"[1500,1010,630,740,640,720]",5,0,5,0,1,,,,
,,,,655f9361656f0a872d1bd405,B,2024-06-29_08h24.12.590,Slot Machine Game,2023.1.3,MacIntel,59.52380952,,,,,,,,,,,,,,,,,,,,,,,,,,,,,,,,100,,,,,,,,,,,,,,,,7,10,"[10,15]","[[3,1,2],[1,3,2]]",530.4794,0,up,0.4668,,0.5,0.3,"[3,1,2]",0.910804836,stimuli/card_100_transparent.png,100,0,0,0,0,1,,,,,,,,,,
,,,,655f9361656f0a872d1bd405,B,2024-06-29_08h24.12.590,Slot Machine Game,2023.1.3,MacIntel,59.52380952,,,,,,,,,,,,,,,,,,,,,,,,,,,,,,,,100,,,,,,,,,,,,,,,,7,10,,,532.2658,1,up,0.2502,,0.5,0.3,"[3,1,2]",0.057090515,stimuli/card_0_transparent.png,0,1,0,1,0,1,,,,,,,,,,
,,,,655f9361656f0a872d1bd405,B,2024-06-29_08h24.12.590,Slot Machine Game,2023.1.3,MacIntel,59.52380952,,,,,,,,,,,,,,,,,,,,,,,,,,,,,,,,200,,,,,,,,,,,,,,,,7,10,,,533.8432,2,up,0.4326,,0.5,0.3,"[3,1,2]",0.582639557,stimuli/card_100_transparent.png,100,2,0,2,0,1,,,,,,,,,,
,,,,655f9361656f0a872d1bd405,B,2024-06-29_08h24.12.590,Slot Machine Game,2023.1.3,MacIntel,59.52380952,,,,,,,,,,,,,,,,,,,,,,,,,,,,,,,,200,,,,,,,,,,,,,,,,7,10,,,535.5979,3,up,0.4018,,0.5,0.3,"[3,1,2]",0.023225249,stimuli/card_0_transparent.png,0,3,0,3,0,1,,,,,,,,,,
,,,,655f9361656f0a872d1bd405,B,2024-06-29_08h24.12.590,Slot Machine Game,2023.1.3,MacIntel,59.52380952,,,,,,,,,,,,,,,,,,,,,,,,,,,,,,,,300,,,,,,,,,,,,,,,,7,10,,,537.3157,4,up,0.0889,,1,0.3,"[3,1,2]",0.374457699,stimuli/card_100_transparent.png,100,4,0,4,0,1,,,,,,,,,,
,,,,655f9361656f0a872d1bd405,B,2024-06-29_08h24.12.590,Slot Machine Game,2023.1.3,MacIntel,59.52380952,,,,,,,,,,,,,,,,,,,,,,,,,,,,,,,,400,,,,,,,,,,,,,,,,7,10,,,539.2323,5,up,0.2267,,0.5,0.3,"[3,1,2]",0.689115616,stimuli/card_100_transparent.png,100,5,0,5,0,1,,,,,,,,,,
,,,,655f9361656f0a872d1bd405,B,2024-06-29_08h24.12.590,Slot Machine Game,2023.1.3,MacIntel,59.52380952,,,,,,,,,,,,,,,,,,,,,,,,,,,,,,,,500,,,,,,,,,,,,,,,,7,10,,,540.7823,6,up,0.3974,,0.5,0.3,"[3,1,2]",0.233614042,stimuli/card_100_transparent.png,100,6,0,6,0,1,,,,,,,,,,
,,,,655f9361656f0a872d1bd405,B,2024-06-29_08h24.12.590,Slot Machine Game,2023.1.3,MacIntel,59.52380952,,,,,,,,,,,,,,,,,,,,,,,,,,,,,,,,600,,,,,,,,,,,,,,,,7,10,,,542.5156,7,up,0.3842,,0.5,0.3,"[3,1,2]",0.45543076,stimuli/card_100_transparent.png,100,7,0,7,0,1,,,,,,,,,,
,,,,655f9361656f0a872d1bd405,B,2024-06-29_08h24.12.590,Slot Machine Game,2023.1.3,MacIntel,59.52380952,,,,,,,,,,,,,,,,,,,,,,,,,,,,,,,,700,,,,,,,,,,,,,,,,7,10,,,544.2314,8,up,0.3404,,0.5,0.3,"[3,1,2]",0.401066903,stimuli/card_100_transparent.png,100,8,0,8,0,1,,,,,,,,,,
,,,,655f9361656f0a872d1bd405,B,2024-06-29_08h24.12.590,Slot Machine Game,2023.1.3,MacIntel,59.52380952,,,,,,,,,,,,,,,,,,,,,,,,,,,,,,,,710,,,,,,,,,,,,,,,,7,10,,,545.8822,9,up,0.1869,,1.5,0.3,"[3,1,2]",0.197713095,stimuli/card_10_transparent.png,10,9,0,9,0,1,,,,,,,,,,
,,,,655f9361656f0a872d1bd405,B,2024-06-29_08h24.12.590,Slot Machine Game,2023.1.3,MacIntel,59.52380952,,,,,,,,,,,,,,,,,,,,,,,,,,,,,,,,810,,,,,,,,,,,,,,,,7,10,,,548.3981,10,up,0.1031,,0.5,0.3,"[1,3,2]",0.059748422,stimuli/card_100_transparent.png,100,10,0,10,0,1,,,,,,,,,,
,,,,655f9361656f0a872d1bd405,B,2024-06-29_08h24.12.590,Slot Machine Game,2023.1.3,MacIntel,59.52380952,,,,,,,,,,,,,,,,,,,,,,,,,,,,,,,,810,,,,,,,,,,,,,,,,7,10,,,549.8318,11,up,0.2353,,1,0.3,"[1,3,2]",0.961132932,stimuli/card_0_transparent.png,0,11,0,11,0,1,,,,,,,,,,
,,,,655f9361656f0a872d1bd405,B,2024-06-29_08h24.12.590,Slot Machine Game,2023.1.3,MacIntel,59.52380952,,,,,,,,,,,,,,,,,,,,,,,,,,,,,,,,810,,,,,,,,,,,,,,,,7,10,,,551.8818,12,up,0.2378,,1.5,0.3,"[1,3,2]",0.749810543,stimuli/card_0_transparent.png,0,12,0,12,0,1,,,,,,,,,,
,,,,655f9361656f0a872d1bd405,B,2024-06-29_08h24.12.590,Slot Machine Game,2023.1.3,MacIntel,59.52380952,,,,,,,,,,,,,,,,,,,,,,,,,,,,,,,,810,,,,,,,,,,,,,,,,7,10,,,554.4319,13,up,0.2564,,1,0.3,"[1,3,2]",0.284669915,stimuli/card_0_transparent.png,0,13,0,13,0,1,,,,,,,,,,
,,,,655f9361656f0a872d1bd405,B,2024-06-29_08h24.12.590,Slot Machine Game,2023.1.3,MacIntel,59.52380952,,,,,,,,,,,,,,,,,,,,,,,,,,,,,,,,810,,,,,,,,,,,,,,,,7,10,,,556.4977,14,up,0.268,,0.5,0.3,"[1,3,2]",0.758886761,stimuli/card_0_transparent.png,0,14,0,14,0,1,,,,,,,,,,
,,,,655f9361656f0a872d1bd405,B,2024-06-29_08h24.12.590,Slot Machine Game,2023.1.3,MacIntel,59.52380952,,,,,,,,,,,,,,,,,,,,,,,,,,,,,,,,,,,558.0761,,,,,,,,,,,,,,,,,,,,,,,,,,,,,,,,,"[1500,1010,630,740,640,720,810]",6,0,6,0,1,,,,
,,,,655f9361656f0a872d1bd405,B,2024-06-29_08h24.12.590,Slot Machine Game,2023.1.3,MacIntel,59.52380952,,,,,,,,,,,,,,,,,,,,,,,,,,,,,,,,10,,,,,,,,,,,,,,,,8,7,"[9,15]","[[1,3,2],[2,3,1]]",563.0783,0,left,1.0034,,0.5,0.3,"[1,3,2]",0.182098822,stimuli/card_10_transparent.png,10,0,0,0,0,1,,,,,,,,,,
,,,,655f9361656f0a872d1bd405,B,2024-06-29_08h24.12.590,Slot Machine Game,2023.1.3,MacIntel,59.52380952,,,,,,,,,,,,,,,,,,,,,,,,,,,,,,,,110,,,,,,,,,,,,,,,,8,7,,,565.3988,1,left,0.1511,,1,0.3,"[1,3,2]",0.457460182,stimuli/card_100_transparent.png,100,1,0,1,0,1,,,,,,,,,,
,,,,655f9361656f0a872d1bd405,B,2024-06-29_08h24.12.590,Slot Machine Game,2023.1.3,MacIntel,59.52380952,,,,,,,,,,,,,,,,,,,,,,,,,,,,,,,,210,,,,,,,,,,,,,,,,8,7,,,567.382,2,left,0.0571,,1.5,0.3,"[1,3,2]",0.640304937,stimuli/card_100_transparent.png,100,2,0,2,0,1,,,,,,,,,,
,,,,655f9361656f0a872d1bd405,B,2024-06-29_08h24.12.590,Slot Machine Game,2023.1.3,MacIntel,59.52380952,,,,,,,,,,,,,,,,,,,,,,,,,,,,,,,,310,,,,,,,,,,,,,,,,8,7,,,569.758,3,left,0.4006,,0.5,0.3,"[1,3,2]",0.649649395,stimuli/card_100_transparent.png,100,3,0,3,0,1,,,,,,,,,,
,,,,655f9361656f0a872d1bd405,B,2024-06-29_08h24.12.590,Slot Machine Game,2023.1.3,MacIntel,59.52380952,,,,,,,,,,,,,,,,,,,,,,,,,,,,,,,,410,,,,,,,,,,,,,,,,8,7,,,571.4819,4,left,0.8174,,1.5,0.3,"[1,3,2]",0.691093194,stimuli/card_100_transparent.png,100,4,0,4,0,1,,,,,,,,,,
,,,,655f9361656f0a872d1bd405,B,2024-06-29_08h24.12.590,Slot Machine Game,2023.1.3,MacIntel,59.52380952,,,,,,,,,,,,,,,,,,,,,,,,,,,,,,,,510,,,,,,,,,,,,,,,,8,7,,,574.6311,5,left,0.0882,,0.5,0.3,"[1,3,2]",0.666254558,stimuli/card_100_transparent.png,100,5,0,5,0,1,,,,,,,,,,
,,,,655f9361656f0a872d1bd405,B,2024-06-29_08h24.12.590,Slot Machine Game,2023.1.3,MacIntel,59.52380952,,,,,,,,,,,,,,,,,,,,,,,,,,,,,,,,610,,,,,,,,,,,,,,,,8,7,,,576.0486,6,left,0.0516,,0.5,0.3,"[1,3,2]",0.983912959,stimuli/card_100_transparent.png,100,6,0,6,0,1,,,,,,,,,,
,,,,655f9361656f0a872d1bd405,B,2024-06-29_08h24.12.590,Slot Machine Game,2023.1.3,MacIntel,59.52380952,,,,,,,,,,,,,,,,,,,,,,,,,,,,,,,,610,,,,,,,,,,,,,,,,8,7,,,577.4311,7,left,0.3399,,0.5,0.3,"[1,3,2]",0.049669231,stimuli/card_0_transparent.png,0,7,0,7,0,1,,,,,,,,,,
,,,,655f9361656f0a872d1bd405,B,2024-06-29_08h24.12.590,Slot Machine Game,2023.1.3,MacIntel,59.52380952,,,,,,,,,,,,,,,,,,,,,,,,,,,,,,,,710,,,,,,,,,,,,,,,,8,7,,,579.081,8,left,0.4401,,1,0.3,"[1,3,2]",0.368930845,stimuli/card_100_transparent.png,100,8,0,8,0,1,,,,,,,,,,
,,,,655f9361656f0a872d1bd405,B,2024-06-29_08h24.12.590,Slot Machine Game,2023.1.3,MacIntel,59.52380952,,,,,,,,,,,,,,,,,,,,,,,,,,,,,,,,720,,,,,,,,,,,,,,,,8,7,,,581.3316,9,left,0.0566,,0.5,0.3,"[2,3,1]",0.221032905,stimuli/card_10_transparent.png,10,9,0,9,0,1,,,,,,,,,,
,,,,655f9361656f0a872d1bd405,B,2024-06-29_08h24.12.590,Slot Machine Game,2023.1.3,MacIntel,59.52380952,,,,,,,,,,,,,,,,,,,,,,,,,,,,,,,,730,,,,,,,,,,,,,,,,8,7,,,582.715,10,left,0.1999,,0.5,0.3,"[2,3,1]",0.899692414,stimuli/card_10_transparent.png,10,10,0,10,0,1,,,,,,,,,,
,,,,655f9361656f0a872d1bd405,B,2024-06-29_08h24.12.590,Slot Machine Game,2023.1.3,MacIntel,59.52380952,,,,,,,,,,,,,,,,,,,,,,,,,,,,,,,,740,,,,,,,,,,,,,,,,8,7,,,584.2384,11,left,0.1053,,0.5,0.3,"[2,3,1]",0.353345155,stimuli/card_10_transparent.png,10,11,0,11,0,1,,,,,,,,,,
,,,,655f9361656f0a872d1bd405,B,2024-06-29_08h24.12.590,Slot Machine Game,2023.1.3,MacIntel,59.52380952,,,,,,,,,,,,,,,,,,,,,,,,,,,,,,,,840,,,,,,,,,,,,,,,,8,7,,,585.6643,12,right,0.3517,,0.5,0.3,"[2,3,1]",0.802477791,stimuli/card_100_transparent.png,100,12,0,12,0,1,,,,,,,,,,
,,,,655f9361656f0a872d1bd405,B,2024-06-29_08h24.12.590,Slot Machine Game,2023.1.3,MacIntel,59.52380952,,,,,,,,,,,,,,,,,,,,,,,,,,,,,,,,940,,,,,,,,,,,,,,,,8,7,,,587.3318,13,right,0.2354,,1.5,0.3,"[2,3,1]",0.278441099,stimuli/card_100_transparent.png,100,13,0,13,0,1,,,,,,,,,,
,,,,655f9361656f0a872d1bd405,B,2024-06-29_08h24.12.590,Slot Machine Game,2023.1.3,MacIntel,59.52380952,,,,,,,,,,,,,,,,,,,,,,,,,,,,,,,,1040,,,,,,,,,,,,,,,,8,7,,,589.8917,14,right,0.218,,1.5,0.3,"[2,3,1]",0.766697223,stimuli/card_100_transparent.png,100,14,0,14,0,1,,,,,,,,,,
,,,,655f9361656f0a872d1bd405,B,2024-06-29_08h24.12.590,Slot Machine Game,2023.1.3,MacIntel,59.52380952,,,,,,,,,,,,,,,,,,,,,,,,,,,,,,,,,,,592.4421,,,,,,,,,,,,,,,,,,,,,,,,,,,,,,,,,"[1500,1010,630,740,640,720,810,1040]",7,0,7,0,1,,,,
,,,,655f9361656f0a872d1bd405,B,2024-06-29_08h24.12.590,Slot Machine Game,2023.1.3,MacIntel,59.52380952,,,,,,,,,,,,,,,,,,,,,,,,,,,,,,,,,,,,,,,,,,,,,,,,9,9,[15],"[[3,1,2]]",597.4439,0,,,,1,0.3,,,,,0,0,0,0,1,,,,,,,,,,
,,,,655f9361656f0a872d1bd405,B,2024-06-29_08h24.12.590,Slot Machine Game,2023.1.3,MacIntel,59.52380952,,,,,,,,,,,,,,,,,,,,,,,,,,,,,,,,100,,,,,,,,,,,,,,,,9,9,,,602.9499,1,up,2.5891,,1.5,0.3,"[3,1,2]",0.685886513,stimuli/card_100_transparent.png,100,1,0,1,0,1,,,,,,,,,,
,,,,655f9361656f0a872d1bd405,B,2024-06-29_08h24.12.590,Slot Machine Game,2023.1.3,MacIntel,59.52380952,,,,,,,,,,,,,,,,,,,,,,,,,,,,,,,,200,,,,,,,,,,,,,,,,9,9,,,607.8646,2,up,0.0719,,0.5,0.3,"[3,1,2]",0.710946089,stimuli/card_100_transparent.png,100,2,0,2,0,1,,,,,,,,,,
,,,,655f9361656f0a872d1bd405,B,2024-06-29_08h24.12.590,Slot Machine Game,2023.1.3,MacIntel,59.52380952,,,,,,,,,,,,,,,,,,,,,,,,,,,,,,,,300,,,,,,,,,,,,,,,,9,9,,,609.2641,3,up,0.3186,,0.5,0.3,"[3,1,2]",0.527949241,stimuli/card_100_transparent.png,100,3,0,3,0,1,,,,,,,,,,
,,,,655f9361656f0a872d1bd405,B,2024-06-29_08h24.12.590,Slot Machine Game,2023.1.3,MacIntel,59.52380952,,,,,,,,,,,,,,,,,,,,,,,,,,,,,,,,400,,,,,,,,,,,,,,,,9,9,,,610.9147,4,up,0.0367,,1,0.3,"[3,1,2]",0.991231221,stimuli/card_100_transparent.png,100,4,0,4,0,1,,,,,,,,,,
,,,,655f9361656f0a872d1bd405,B,2024-06-29_08h24.12.590,Slot Machine Game,2023.1.3,MacIntel,59.52380952,,,,,,,,,,,,,,,,,,,,,,,,,,,,,,,,500,,,,,,,,,,,,,,,,9,9,,,612.7802,5,up,0.0706,,1,0.3,"[3,1,2]",0.465555418,stimuli/card_100_transparent.png,100,5,0,5,0,1,,,,,,,,,,
,,,,655f9361656f0a872d1bd405,B,2024-06-29_08h24.12.590,Slot Machine Game,2023.1.3,MacIntel,59.52380952,,,,,,,,,,,,,,,,,,,,,,,,,,,,,,,,600,,,,,,,,,,,,,,,,9,9,,,614.6646,6,up,0.2018,,1.5,0.3,"[3,1,2]",0.943271064,stimuli/card_100_transparent.png,100,6,0,6,0,1,,,,,,,,,,
,,,,655f9361656f0a872d1bd405,B,2024-06-29_08h24.12.590,Slot Machine Game,2023.1.3,MacIntel,59.52380952,,,,,,,,,,,,,,,,,,,,,,,,,,,,,,,,700,,,,,,,,,,,,,,,,9,9,,,617.198,7,up,0.226,,1,0.3,"[3,1,2]",0.51825191,stimuli/card_100_transparent.png,100,7,0,7,0,1,,,,,,,,,,
,,,,655f9361656f0a872d1bd405,B,2024-06-29_08h24.12.590,Slot Machine Game,2023.1.3,MacIntel,59.52380952,,,,,,,,,,,,,,,,,,,,,,,,,,,,,,,,700,,,,,,,,,,,,,,,,9,9,,,619.2479,8,up,0.338,,1.5,0.3,"[3,1,2]",0.049074591,stimuli/card_0_transparent.png,0,8,0,8,0,1,,,,,,,,,,
,,,,655f9361656f0a872d1bd405,B,2024-06-29_08h24.12.590,Slot Machine Game,2023.1.3,MacIntel,59.52380952,,,,,,,,,,,,,,,,,,,,,,,,,,,,,,,,800,,,,,,,,,,,,,,,,9,9,,,621.8978,9,up,0.0522,,0.5,0.3,"[3,1,2]",0.965002281,stimuli/card_100_transparent.png,100,9,0,9,0,1,,,,,,,,,,
,,,,655f9361656f0a872d1bd405,B,2024-06-29_08h24.12.590,Slot Machine Game,2023.1.3,MacIntel,59.52380952,,,,,,,,,,,,,,,,,,,,,,,,,,,,,,,,900,,,,,,,,,,,,,,,,9,9,,,623.2812,10,up,0.1705,,1.5,0.3,"[3,1,2]",0.921280105,stimuli/card_100_transparent.png,100,10,0,10,0,1,,,,,,,,,,
,,,,655f9361656f0a872d1bd405,B,2024-06-29_08h24.12.590,Slot Machine Game,2023.1.3,MacIntel,59.52380952,,,,,,,,,,,,,,,,,,,,,,,,,,,,,,,,1000,,,,,,,,,,,,,,,,9,9,,,625.7813,11,up,0.206,,0.5,0.3,"[3,1,2]",0.710449015,stimuli/card_100_transparent.png,100,11,0,11,0,1,,,,,,,,,,
,,,,655f9361656f0a872d1bd405,B,2024-06-29_08h24.12.590,Slot Machine Game,2023.1.3,MacIntel,59.52380952,,,,,,,,,,,,,,,,,,,,,,,,,,,,,,,,1100,,,,,,,,,,,,,,,,9,9,,,627.3144,12,up,0.0351,,1,0.3,"[3,1,2]",0.359504066,stimuli/card_100_transparent.png,100,12,0,12,0,1,,,,,,,,,,
,,,,655f9361656f0a872d1bd405,B,2024-06-29_08h24.12.590,Slot Machine Game,2023.1.3,MacIntel,59.52380952,,,,,,,,,,,,,,,,,,,,,,,,,,,,,,,,1200,,,,,,,,,,,,,,,,9,9,,,629.1637,13,up,0.2618,,1.5,0.3,"[3,1,2]",0.389691686,stimuli/card_100_transparent.png,100,13,0,13,0,1,,,,,,,,,,
,,,,655f9361656f0a872d1bd405,B,2024-06-29_08h24.12.590,Slot Machine Game,2023.1.3,MacIntel,59.52380952,,,,,,,,,,,,,,,,,,,,,,,,,,,,,,,,1300,,,,,,,,,,,,,,,,9,9,,,631.7644,14,up,0.3054,,1.5,0.3,"[3,1,2]",0.204113307,stimuli/card_100_transparent.png,100,14,0,14,0,1,,,,,,,,,,
,,,,655f9361656f0a872d1bd405,B,2024-06-29_08h24.12.590,Slot Machine Game,2023.1.3,MacIntel,59.52380952,,,,,,,,,,,,,,,,,,,,,,,,,,,,,,,,,,,634.3976,,,,,,,,,,,,,,,,,,,,,,,,,,,,,,,,,"[1500,1010,630,740,640,720,810,1040,1300]",8,0,8,0,1,,,,
,,,,655f9361656f0a872d1bd405,B,2024-06-29_08h24.12.590,Slot Machine Game,2023.1.3,MacIntel,59.52380952,,,,,,,,,,,,,,,,,,,,,,,,,,,,,,,,100,,,,,,,,,,,,,,,,10,6,"[4,10,15]","[[2,3,1],[1,3,2],[3,2,1]]",639.4102,0,right,0.2502,,1.5,0.3,"[2,3,1]",0.563191696,stimuli/card_100_transparent.png,100,0,0,0,0,1,,,,,,,,,,
,,,,655f9361656f0a872d1bd405,B,2024-06-29_08h24.12.590,Slot Machine Game,2023.1.3,MacIntel,59.52380952,,,,,,,,,,,,,,,,,,,,,,,,,,,,,,,,100,,,,,,,,,,,,,,,,10,6,,,641.981,1,right,0.0527,,1.5,0.3,"[2,3,1]",0.040938638,stimuli/card_0_transparent.png,0,1,0,1,0,1,,,,,,,,,,
,,,,655f9361656f0a872d1bd405,B,2024-06-29_08h24.12.590,Slot Machine Game,2023.1.3,MacIntel,59.52380952,,,,,,,,,,,,,,,,,,,,,,,,,,,,,,,,200,,,,,,,,,,,,,,,,10,6,,,644.3643,2,right,0.0848,,0.5,0.3,"[2,3,1]",0.831409047,stimuli/card_100_transparent.png,100,2,0,2,0,1,,,,,,,,,,
,,,,655f9361656f0a872d1bd405,B,2024-06-29_08h24.12.590,Slot Machine Game,2023.1.3,MacIntel,59.52380952,,,,,,,,,,,,,,,,,,,,,,,,,,,,,,,,300,,,,,,,,,,,,,,,,10,6,,,645.7806,3,right,0.1371,,1.5,0.3,"[2,3,1]",0.570927332,stimuli/card_100_transparent.png,100,3,0,3,0,1,,,,,,,,,,
,,,,655f9361656f0a872d1bd405,B,2024-06-29_08h24.12.590,Slot Machine Game,2023.1.3,MacIntel,59.52380952,,,,,,,,,,,,,,,,,,,,,,,,,,,,,,,,310,,,,,,,,,,,,,,,,10,6,,,648.2307,4,right,0.3037,,0.5,0.3,"[1,3,2]",0.953063653,stimuli/card_10_transparent.png,10,4,0,4,0,1,,,,,,,,,,
,,,,655f9361656f0a872d1bd405,B,2024-06-29_08h24.12.590,Slot Machine Game,2023.1.3,MacIntel,59.52380952,,,,,,,,,,,,,,,,,,,,,,,,,,,,,,,,320,,,,,,,,,,,,,,,,10,6,,,649.8647,5,right,0.0014,,1.5,0.3,"[1,3,2]",0.846597977,stimuli/card_10_transparent.png,10,5,0,5,0,1,,,,,,,,,,
,,,,655f9361656f0a872d1bd405,B,2024-06-29_08h24.12.590,Slot Machine Game,2023.1.3,MacIntel,59.52380952,,,,,,,,,,,,,,,,,,,,,,,,,,,,,,,,420,,,,,,,,,,,,,,,,10,6,,,652.1973,6,right,0.2216,,1,0.3,"[1,3,2]",0.172012979,stimuli/card_100_transparent.png,100,6,0,6,0,1,,,,,,,,,,
,,,,655f9361656f0a872d1bd405,B,2024-06-29_08h24.12.590,Slot Machine Game,2023.1.3,MacIntel,59.52380952,,,,,,,,,,,,,,,,,,,,,,,,,,,,,,,,430,,,,,,,,,,,,,,,,10,6,,,654.247,7,right,0.0723,,0.5,0.3,"[1,3,2]",0.340137747,stimuli/card_10_transparent.png,10,7,0,7,0,1,,,,,,,,,,
,,,,655f9361656f0a872d1bd405,B,2024-06-29_08h24.12.590,Slot Machine Game,2023.1.3,MacIntel,59.52380952,,,,,,,,,,,,,,,,,,,,,,,,,,,,,,,,440,,,,,,,,,,,,,,,,10,6,,,655.6477,8,right,0.2544,,1.5,0.3,"[1,3,2]",0.268470509,stimuli/card_10_transparent.png,10,8,0,8,0,1,,,,,,,,,,
,,,,655f9361656f0a872d1bd405,B,2024-06-29_08h24.12.590,Slot Machine Game,2023.1.3,MacIntel,59.52380952,,,,,,,,,,,,,,,,,,,,,,,,,,,,,,,,440,,,,,,,,,,,,,,,,10,6,,,658.2302,9,right,0.056,,1.5,0.3,"[1,3,2]",0.068598739,stimuli/card_0_transparent.png,0,9,0,9,0,1,,,,,,,,,,
,,,,655f9361656f0a872d1bd405,B,2024-06-29_08h24.12.590,Slot Machine Game,2023.1.3,MacIntel,59.52380952,,,,,,,,,,,,,,,,,,,,,,,,,,,,,,,,540,,,,,,,,,,,,,,,,10,6,,,660.5973,10,right,0.1894,,1.5,0.3,"[3,2,1]",0.694478306,stimuli/card_100_transparent.png,100,10,0,10,0,1,,,,,,,,,,
,,,,655f9361656f0a872d1bd405,B,2024-06-29_08h24.12.590,Slot Machine Game,2023.1.3,MacIntel,59.52380952,,,,,,,,,,,,,,,,,,,,,,,,,,,,,,,,640,,,,,,,,,,,,,,,,10,6,,,663.1179,11,right,0.0891,,1,0.3,"[3,2,1]",0.766183152,stimuli/card_100_transparent.png,100,11,0,11,0,1,,,,,,,,,,
,,,,655f9361656f0a872d1bd405,B,2024-06-29_08h24.12.590,Slot Machine Game,2023.1.3,MacIntel,59.52380952,,,,,,,,,,,,,,,,,,,,,,,,,,,,,,,,650,,,,,,,,,,,,,,,,10,6,,,665.0306,12,right,0.2046,,1.5,0.3,"[3,2,1]",0.166094558,stimuli/card_10_transparent.png,10,12,0,12,0,1,,,,,,,,,,
,,,,655f9361656f0a872d1bd405,B,2024-06-29_08h24.12.590,Slot Machine Game,2023.1.3,MacIntel,59.52380952,,,,,,,,,,,,,,,,,,,,,,,,,,,,,,,,750,,,,,,,,,,,,,,,,10,6,,,667.5636,13,right,0.2213,,1.5,0.3,"[3,2,1]",0.235639184,stimuli/card_100_transparent.png,100,13,0,13,0,1,,,,,,,,,,
,,,,655f9361656f0a872d1bd405,B,2024-06-29_08h24.12.590,Slot Machine Game,2023.1.3,MacIntel,59.52380952,,,,,,,,,,,,,,,,,,,,,,,,,,,,,,,,850,,,,,,,,,,,,,,,,10,6,,,670.097,14,right,0.0226,,1.5,0.3,"[3,2,1]",0.765491606,stimuli/card_100_transparent.png,100,14,0,14,0,1,,,,,,,,,,
,,,,655f9361656f0a872d1bd405,B,2024-06-29_08h24.12.590,Slot Machine Game,2023.1.3,MacIntel,59.52380952,,,,,,,,,,,,,,,,,,,,,,,,,,,,,,,,,,,672.4475,,,,,,,,,,,,,,,,,,,,,,,,,,,,,,,,,"[1500,1010,630,740,640,720,810,1040,1300,850]",9,0,9,0,1,,,,
,,,,655f9361656f0a872d1bd405,B,2024-06-29_08h24.12.590,Slot Machine Game,2023.1.3,MacIntel,59.52380952,,,,,,,,,,,,,,,,,,,,,,,,,,,,,,,,,,,,,,,,,,,,,,,,,,,,,,,,,,,,,,,,,,,,,,,,,,9,"[1500,1010,630,740,640,720,810,1040,1300,850]",6.3,2024-06-29_08h35.34.226
