key_resp_welcome_started,key_resp_welcome_keys,key_resp_welcome_rt,key_resp_welcome_duration,prolific_id,path_id,date,expName,psychopyVersion,OS,frameRate,key_resp_instruction1_started,key_resp_instruction1_keys,key_resp_instruction1_rt,key_resp_instruction1_duration,key_resp_instruction2_started,key_resp_instruction2_keys,key_resp_instruction2_rt,key_resp_instruction2_duration,key_resp_instruction3_started,key_resp_instruction3_keys,key_resp_instruction3_rt,key_resp_instruction3_duration,key_resp_instruction4_started,key_resp_instruction4_keys,key_resp_instruction4_rt,key_resp_instruction4_duration,practiceCondition,practice_reward_seqs,practice_trial_started,practice_trial_num,practice_resp_rt,practice_resp_duration,practice_resp_keys,prac_presentationInterval,"practice_reward_seq: 2,1,3",reward_img,cumulative_reward,trial_reward,practice_trials.thisRepN,practice_trials.thisTrialN,practice_trials.thisN,practice_trials.thisIndex,practice_trials.ran,"practice_reward_seq: 2,3,1",block_break_started,"practice_reward_seq: 1,3,2","practice_reward_seq: 3,1,2",practice_end_time,practice_end_keys,practice_end_rt,practice_end_duration,main_instruction_text_started,block_condition,block_order_indices,main_instruction_keys,main_instruction_rt,main_instruction_duration,block_number,block_assignment,current_condition,main_reward_seqs,main_trial_started,main_trial_num,main_trial_keys,main_trial_rt,main_trial_duration,main_presentationInterval,reward_presentation_time,main_reward_seq,reward_rand_val,main_reward_img,current_reward,main_trials.thisRepN,main_trials.thisTrialN,main_trials.thisN,main_trials.thisIndex,main_trials.ran,block_reward,block.thisRepN,block.thisTrialN,block.thisN,block.thisIndex,block.ran,block_reward.length,block_reward_all,reward_amount,date_end_task
0.001,space,2.4744,,656e0dab178ffccdaa47202e,B,2024-06-21_14h06.11.902,Slot Machine Game,2023.1.3,Win32,40,,,,,,,,,,,,,,,,,,,,,,,,,,,,,,,,,,,,,,,,,,,,,,,,,,,,,,,,,,,,,,,,,,,,,,,,,,,,,
,,,,656e0dab178ffccdaa47202e,B,2024-06-21_14h06.11.902,Slot Machine Game,2023.1.3,Win32,40,2.503,space,5.7384,,,,,,,,,,,,,,,,,,,,,,,,,,,,,,,,,,,,,,,,,,,,,,,,,,,,,,,,,,,,,,,,,,,,,,,,,,
,,,,656e0dab178ffccdaa47202e,B,2024-06-21_14h06.11.902,Slot Machine Game,2023.1.3,Win32,40,,,,,8.2742,space,23.9799,,,,,,,,,,,,,,,,,,,,,,,,,,,,,,,,,,,,,,,,,,,,,,,,,,,,,,,,,,,,,,,,,,,,,,
,,,,656e0dab178ffccdaa47202e,B,2024-06-21_14h06.11.902,Slot Machine Game,2023.1.3,Win32,40,,,,,,,,,32.3374,space,7.3177,,,,,,,,,,,,,,,,,,,,,,,,,,,,,,,,,,,,,,,,,,,,,,,,,,,,,,,,,,,,,,,,,,
,,,,656e0dab178ffccdaa47202e,B,2024-06-21_14h06.11.902,Slot Machine Game,2023.1.3,Win32,40,,,,,,,,,,,,,,,,,,,,,,,,,,,,,,,,,,,,,,,,,,,,,,,,,,,,,,,,,,,,,,,,,,,,,,,,,,,,,
,,,,656e0dab178ffccdaa47202e,B,2024-06-21_14h06.11.902,Slot Machine Game,2023.1.3,Win32,40,,,,,,,,,,,,,181.5046,left,2.2058,,,,,,,,,,,,,,,,,,,,,,,,,,,,,,,,,,,,,,,,,,,,,,,,,,,,,,,,,,,,,,
,,,,656e0dab178ffccdaa47202e,B,2024-06-21_14h06.11.902,Slot Machine Game,2023.1.3,Win32,40,,,,,,,,,,,,,,,,,"[9,15]","[[2,1,3],[2,3,1]]",183.7512,0,0.7255,,left,0.5,,stimuli/card_0_transparent.png,0,0,0,0,0,0,1,,,,,,,,,,,,,,,,,,,,,,,,,,,,,,,,,,,,,,,,,,,,
,,,,656e0dab178ffccdaa47202e,B,2024-06-21_14h06.11.902,Slot Machine Game,2023.1.3,Win32,40,,,,,,,,,,,,,,,,,,,185.8199,1,0.4436,,up,1.5,,stimuli/card_0_transparent.png,0,0,1,0,1,0,1,,,,,,,,,,,,,,,,,,,,,,,,,,,,,,,,,,,,,,,,,,,,
,,,,656e0dab178ffccdaa47202e,B,2024-06-21_14h06.11.902,Slot Machine Game,2023.1.3,Win32,40,,,,,,,,,,,,,,,,,,,188.6123,2,3.3762,,right,1.5,,stimuli/card_0_transparent.png,0,0,2,0,2,0,1,,,,,,,,,,,,,,,,,,,,,,,,,,,,,,,,,,,,,,,,,,,,
,,,,656e0dab178ffccdaa47202e,B,2024-06-21_14h06.11.902,Slot Machine Game,2023.1.3,Win32,40,,,,,,,,,,,,,,,,,,,194.3593,3,0.7343,,left,1,,stimuli/card_10_transparent.png,10,10,3,0,3,0,1,,,,,,,,,,,,,,,,,,,,,,,,,,,,,,,,,,,,,,,,,,,,
,,,,656e0dab178ffccdaa47202e,B,2024-06-21_14h06.11.902,Slot Machine Game,2023.1.3,Win32,40,,,,,,,,,,,,,,,,,,,196.9331,4,0.8376,,up,0.5,,stimuli/card_100_transparent.png,110,100,4,0,4,0,1,,,,,,,,,,,,,,,,,,,,,,,,,,,,,,,,,,,,,,,,,,,,
,,,,656e0dab178ffccdaa47202e,B,2024-06-21_14h06.11.902,Slot Machine Game,2023.1.3,Win32,40,,,,,,,,,,,,,,,,,,,199.1064,5,1.1116,,right,1.5,,stimuli/card_0_transparent.png,110,0,5,0,5,0,1,,,,,,,,,,,,,,,,,,,,,,,,,,,,,,,,,,,,,,,,,,,,
,,,,656e0dab178ffccdaa47202e,B,2024-06-21_14h06.11.902,Slot Machine Game,2023.1.3,Win32,40,,,,,,,,,,,,,,,,,,,202.5554,6,1.3426,,up,0.5,,stimuli/card_10_transparent.png,120,10,6,0,6,0,1,,,,,,,,,,,,,,,,,,,,,,,,,,,,,,,,,,,,,,,,,,,,
,,,,656e0dab178ffccdaa47202e,B,2024-06-21_14h06.11.902,Slot Machine Game,2023.1.3,Win32,40,,,,,,,,,,,,,,,,,,,205.2293,7,0.5793,,up,1.5,,stimuli/card_100_transparent.png,220,100,7,0,7,0,1,,,,,,,,,,,,,,,,,,,,,,,,,,,,,,,,,,,,,,,,,,,,
,,,,656e0dab178ffccdaa47202e,B,2024-06-21_14h06.11.902,Slot Machine Game,2023.1.3,Win32,40,,,,,,,,,,,,,,,,,,,208.1525,8,0.4567,,up,0.5,,stimuli/card_100_transparent.png,320,100,8,0,8,0,1,,,,,,,,,,,,,,,,,,,,,,,,,,,,,,,,,,,,,,,,,,,,
,,,,656e0dab178ffccdaa47202e,B,2024-06-21_14h06.11.902,Slot Machine Game,2023.1.3,Win32,40,,,,,,,,,,,,,,,,,,,209.9517,9,0.2375,,up,1.5,,stimuli/card_0_transparent.png,320,0,9,0,9,0,1,,,,,,,,,,,,,,,,,,,,,,,,,,,,,,,,,,,,,,,,,,,,
,,,,656e0dab178ffccdaa47202e,B,2024-06-21_14h06.11.902,Slot Machine Game,2023.1.3,Win32,40,,,,,,,,,,,,,,,,,,,212.5256,10,1.5496,,up,0.5,,stimuli/card_0_transparent.png,320,0,10,0,10,0,1,,,,,,,,,,,,,,,,,,,,,,,,,,,,,,,,,,,,,,,,,,,,
,,,,656e0dab178ffccdaa47202e,B,2024-06-21_14h06.11.902,Slot Machine Game,2023.1.3,Win32,40,,,,,,,,,,,,,,,,,,,215.4243,11,0.1495,,up,1,,stimuli/card_0_transparent.png,320,0,11,0,11,0,1,,,,,,,,,,,,,,,,,,,,,,,,,,,,,,,,,,,,,,,,,,,,
,,,,656e0dab178ffccdaa47202e,B,2024-06-21_14h06.11.902,Slot Machine Game,2023.1.3,Win32,40,,,,,,,,,,,,,,,,,,,217.4231,12,0.0076,,left,1,,stimuli/card_0_transparent.png,320,0,12,0,12,0,1,,,,,,,,,,,,,,,,,,,,,,,,,,,,,,,,,,,,,,,,,,,,
,,,,656e0dab178ffccdaa47202e,B,2024-06-21_14h06.11.902,Slot Machine Game,2023.1.3,Win32,40,,,,,,,,,,,,,,,,,,,219.2726,13,0.9268,,right,0.5,,stimuli/card_100_transparent.png,420,100,13,0,13,0,1,,,,,,,,,,,,,,,,,,,,,,,,,,,,,,,,,,,,,,,,,,,,
,,,,656e0dab178ffccdaa47202e,B,2024-06-21_14h06.11.902,Slot Machine Game,2023.1.3,Win32,40,,,,,,,,,,,,,,,,,,,221.5461,14,0.1244,,right,1.5,,stimuli/card_100_transparent.png,520,100,14,0,14,0,1,,,,,,,,,,,,,,,,,,,,,,,,,,,,,,,,,,,,,,,,,,,,
,,,,656e0dab178ffccdaa47202e,B,2024-06-21_14h06.11.902,Slot Machine Game,2023.1.3,Win32,40,,,,,,,,,,,,,,,,,"[6,15]","[[1,3,2],[3,1,2]]",229.0734,0,2.2061,,up,0.5,,stimuli/card_10_transparent.png,10,10,0,0,0,0,1,,224.0548,,,,,,,,,,,,,,,,,,,,,,,,,,,,,,,,,,,,,,,,,,
,,,,656e0dab178ffccdaa47202e,B,2024-06-21_14h06.11.902,Slot Machine Game,2023.1.3,Win32,40,,,,,,,,,,,,,,,,,,,232.6155,1,0.3249,,left,0.5,,stimuli/card_10_transparent.png,20,10,1,0,1,0,1,,,,,,,,,,,,,,,,,,,,,,,,,,,,,,,,,,,,,,,,,,,,
,,,,656e0dab178ffccdaa47202e,B,2024-06-21_14h06.11.902,Slot Machine Game,2023.1.3,Win32,40,,,,,,,,,,,,,,,,,,,234.2647,2,0.1573,,right,0.5,,stimuli/card_10_transparent.png,30,10,2,0,2,0,1,,,,,,,,,,,,,,,,,,,,,,,,,,,,,,,,,,,,,,,,,,,,
,,,,656e0dab178ffccdaa47202e,B,2024-06-21_14h06.11.902,Slot Machine Game,2023.1.3,Win32,40,,,,,,,,,,,,,,,,,,,235.7642,3,0.3824,,up,1.5,,stimuli/card_0_transparent.png,30,0,3,0,3,0,1,,,,,,,,,,,,,,,,,,,,,,,,,,,,,,,,,,,,,,,,,,,,
,,,,656e0dab178ffccdaa47202e,B,2024-06-21_14h06.11.902,Slot Machine Game,2023.1.3,Win32,40,,,,,,,,,,,,,,,,,,,238.4884,4,0.7493,,left,0.5,,stimuli/card_100_transparent.png,130,100,4,0,4,0,1,,,,,,,,,,,,,,,,,,,,,,,,,,,,,,,,,,,,,,,,,,,,
,,,,656e0dab178ffccdaa47202e,B,2024-06-21_14h06.11.902,Slot Machine Game,2023.1.3,Win32,40,,,,,,,,,,,,,,,,,,,240.5872,5,0.3117,,left,1.5,,stimuli/card_100_transparent.png,230,100,5,0,5,0,1,,,,,,,,,,,,,,,,,,,,,,,,,,,,,,,,,,,,,,,,,,,,
,,,,656e0dab178ffccdaa47202e,B,2024-06-21_14h06.11.902,Slot Machine Game,2023.1.3,Win32,40,,,,,,,,,,,,,,,,,,,243.2361,6,0.1192,,left,0.5,,stimuli/card_100_transparent.png,330,100,6,0,6,0,1,,,,,,,,,,,,,,,,,,,,,,,,,,,,,,,,,,,,,,,,,,,,
,,,,656e0dab178ffccdaa47202e,B,2024-06-21_14h06.11.902,Slot Machine Game,2023.1.3,Win32,40,,,,,,,,,,,,,,,,,,,244.6849,7,0.6849,,left,0.5,,stimuli/card_0_transparent.png,330,0,7,0,7,0,1,,,,,,,,,,,,,,,,,,,,,,,,,,,,,,,,,,,,,,,,,,,,
,,,,656e0dab178ffccdaa47202e,B,2024-06-21_14h06.11.902,Slot Machine Game,2023.1.3,Win32,40,,,,,,,,,,,,,,,,,,,246.7095,8,0.0317,,left,1,,stimuli/card_0_transparent.png,330,0,8,0,8,0,1,,,,,,,,,,,,,,,,,,,,,,,,,,,,,,,,,,,,,,,,,,,,
,,,,656e0dab178ffccdaa47202e,B,2024-06-21_14h06.11.902,Slot Machine Game,2023.1.3,Win32,40,,,,,,,,,,,,,,,,,,,248.5834,9,0.3828,,left,0.5,,stimuli/card_0_transparent.png,330,0,9,0,9,0,1,,,,,,,,,,,,,,,,,,,,,,,,,,,,,,,,,,,,,,,,,,,,
,,,,656e0dab178ffccdaa47202e,B,2024-06-21_14h06.11.902,Slot Machine Game,2023.1.3,Win32,40,,,,,,,,,,,,,,,,,,,250.3076,10,0.1923,,up,1.5,,stimuli/card_100_transparent.png,430,100,10,0,10,0,1,,,,,,,,,,,,,,,,,,,,,,,,,,,,,,,,,,,,,,,,,,,,
,,,,656e0dab178ffccdaa47202e,B,2024-06-21_14h06.11.902,Slot Machine Game,2023.1.3,Win32,40,,,,,,,,,,,,,,,,,,,252.8314,11,0.0358,,up,1.5,,stimuli/card_100_transparent.png,530,100,11,0,11,0,1,,,,,,,,,,,,,,,,,,,,,,,,,,,,,,,,,,,,,,,,,,,,
,,,,656e0dab178ffccdaa47202e,B,2024-06-21_14h06.11.902,Slot Machine Game,2023.1.3,Win32,40,,,,,,,,,,,,,,,,,,,255.2052,12,0.0412,,up,0.5,,stimuli/card_100_transparent.png,630,100,12,0,12,0,1,,,,,,,,,,,,,,,,,,,,,,,,,,,,,,,,,,,,,,,,,,,,
,,,,656e0dab178ffccdaa47202e,B,2024-06-21_14h06.11.902,Slot Machine Game,2023.1.3,Win32,40,,,,,,,,,,,,,,,,,,,256.5797,13,0.0389,,up,1.5,,stimuli/card_100_transparent.png,730,100,13,0,13,0,1,,,,,,,,,,,,,,,,,,,,,,,,,,,,,,,,,,,,,,,,,,,,
,,,,656e0dab178ffccdaa47202e,B,2024-06-21_14h06.11.902,Slot Machine Game,2023.1.3,Win32,40,,,,,,,,,,,,,,,,,,,258.9536,14,0.6279,,up,1.5,,stimuli/card_100_transparent.png,830,100,14,0,14,0,1,,,,,,,,,,,,,,,,,,,,,,,,,,,,,,,,,,,,,,,,,,,,
,,,,656e0dab178ffccdaa47202e,B,2024-06-21_14h06.11.902,Slot Machine Game,2023.1.3,Win32,40,,,,,,,,,,,,,,,,,,,,,,,,,,,,,,,,,,,261.9272,,,266.9271,space,2.3392,,,,,,,,,,,,,,,,,,,,,,,,,,,,,,,,,,,,,
,,,,656e0dab178ffccdaa47202e,B,2024-06-21_14h06.11.902,Slot Machine Game,2023.1.3,Win32,40,,,,,,,,,,,,,,,,,,,,,,,,,,,,,,,,,,,,,,,,,,269.3005,3,"[0,4,6,3,5,7,8,1,9,2]",space,2.6882,,,,,,,,,,,,,,,,,,,,,,,,,,,,,,,
,,,,656e0dab178ffccdaa47202e,B,2024-06-21_14h06.11.902,Slot Machine Game,2023.1.3,Win32,40,,,,,,,,,,,,,,,,,,,,,,,,,,,0,,,,,,,,,,,,,,,,,,,,,1,1,"[12,15]","[[2,1,3],[2,3,1]]",272.0467,0,up,1.4308,,0.5,0.3,"[2,1,3]",0.097807757,stimuli/card_0_transparent.png,0,0,0,0,0,1,,,,,,,,,,
,,,,656e0dab178ffccdaa47202e,B,2024-06-21_14h06.11.902,Slot Machine Game,2023.1.3,Win32,40,,,,,,,,,,,,,,,,,,,,,,,,,,,10,,,,,,,,,,,,,,,,,,,,,1,1,,,274.8467,1,up,0.2118,,1,0.3,"[2,1,3]",0.192537333,stimuli/card_10_transparent.png,10,1,0,1,0,1,,,,,,,,,,
,,,,656e0dab178ffccdaa47202e,B,2024-06-21_14h06.11.902,Slot Machine Game,2023.1.3,Win32,40,,,,,,,,,,,,,,,,,,,,,,,,,,,20,,,,,,,,,,,,,,,,,,,,,1,1,,,276.8953,2,left,0.5527,,1.5,0.3,"[2,1,3]",0.762306019,stimuli/card_10_transparent.png,10,2,0,2,0,1,,,,,,,,,,
,,,,656e0dab178ffccdaa47202e,B,2024-06-21_14h06.11.902,Slot Machine Game,2023.1.3,Win32,40,,,,,,,,,,,,,,,,,,,,,,,,,,,30,,,,,,,,,,,,,,,,,,,,,1,1,,,279.819,3,left,0.5932,,1.5,0.3,"[2,1,3]",0.811724541,stimuli/card_10_transparent.png,10,3,0,3,0,1,,,,,,,,,,
,,,,656e0dab178ffccdaa47202e,B,2024-06-21_14h06.11.902,Slot Machine Game,2023.1.3,Win32,40,,,,,,,,,,,,,,,,,,,,,,,,,,,30,,,,,,,,,,,,,,,,,,,,,1,1,,,282.7675,4,right,0.0012,,0.5,0.3,"[2,1,3]",0.480455221,stimuli/card_0_transparent.png,0,4,0,4,0,1,,,,,,,,,,
,,,,656e0dab178ffccdaa47202e,B,2024-06-21_14h06.11.902,Slot Machine Game,2023.1.3,Win32,40,,,,,,,,,,,,,,,,,,,,,,,,,,,30,,,,,,,,,,,,,,,,,,,,,1,1,,,284.1168,5,right,0.5118,,1.5,0.3,"[2,1,3]",0.423132984,stimuli/card_0_transparent.png,0,5,0,5,0,1,,,,,,,,,,
,,,,656e0dab178ffccdaa47202e,B,2024-06-21_14h06.11.902,Slot Machine Game,2023.1.3,Win32,40,,,,,,,,,,,,,,,,,,,,,,,,,,,130,,,,,,,,,,,,,,,,,,,,,1,1,,,286.9655,6,up,0.552,,0.5,0.3,"[2,1,3]",0.720606804,stimuli/card_100_transparent.png,100,6,0,6,0,1,,,,,,,,,,
,,,,656e0dab178ffccdaa47202e,B,2024-06-21_14h06.11.902,Slot Machine Game,2023.1.3,Win32,40,,,,,,,,,,,,,,,,,,,,,,,,,,,230,,,,,,,,,,,,,,,,,,,,,1,1,,,288.8894,7,up,0.2797,,1,0.3,"[2,1,3]",0.325389559,stimuli/card_100_transparent.png,100,7,0,7,0,1,,,,,,,,,,
,,,,656e0dab178ffccdaa47202e,B,2024-06-21_14h06.11.902,Slot Machine Game,2023.1.3,Win32,40,,,,,,,,,,,,,,,,,,,,,,,,,,,330,,,,,,,,,,,,,,,,,,,,,1,1,,,291.0386,8,up,0.2517,,0.5,0.3,"[2,1,3]",0.844869692,stimuli/card_100_transparent.png,100,8,0,8,0,1,,,,,,,,,,
,,,,656e0dab178ffccdaa47202e,B,2024-06-21_14h06.11.902,Slot Machine Game,2023.1.3,Win32,40,,,,,,,,,,,,,,,,,,,,,,,,,,,430,,,,,,,,,,,,,,,,,,,,,1,1,,,292.6376,9,up,0.208,,1.5,0.3,"[2,1,3]",0.667249895,stimuli/card_100_transparent.png,100,9,0,9,0,1,,,,,,,,,,
,,,,656e0dab178ffccdaa47202e,B,2024-06-21_14h06.11.902,Slot Machine Game,2023.1.3,Win32,40,,,,,,,,,,,,,,,,,,,,,,,,,,,530,,,,,,,,,,,,,,,,,,,,,1,1,,,295.2117,10,up,0.1417,,1,0.3,"[2,1,3]",0.745014517,stimuli/card_100_transparent.png,100,10,0,10,0,1,,,,,,,,,,
,,,,656e0dab178ffccdaa47202e,B,2024-06-21_14h06.11.902,Slot Machine Game,2023.1.3,Win32,40,,,,,,,,,,,,,,,,,,,,,,,,,,,630,,,,,,,,,,,,,,,,,,,,,1,1,,,297.2104,11,up,0.2749,,1.5,0.3,"[2,1,3]",0.77401549,stimuli/card_100_transparent.png,100,11,0,11,0,1,,,,,,,,,,
,,,,656e0dab178ffccdaa47202e,B,2024-06-21_14h06.11.902,Slot Machine Game,2023.1.3,Win32,40,,,,,,,,,,,,,,,,,,,,,,,,,,,630,,,,,,,,,,,,,,,,,,,,,1,1,,,299.8096,12,up,0.1153,,1.5,0.3,"[2,3,1]",0.358696364,stimuli/card_0_transparent.png,0,12,0,12,0,1,,,,,,,,,,
,,,,656e0dab178ffccdaa47202e,B,2024-06-21_14h06.11.902,Slot Machine Game,2023.1.3,Win32,40,,,,,,,,,,,,,,,,,,,,,,,,,,,630,,,,,,,,,,,,,,,,,,,,,1,1,,,302.2641,13,up,0.6767,,1.5,0.3,"[2,3,1]",0.672124282,stimuli/card_0_transparent.png,0,13,0,13,0,1,,,,,,,,,,
,,,,656e0dab178ffccdaa47202e,B,2024-06-21_14h06.11.902,Slot Machine Game,2023.1.3,Win32,40,,,,,,,,,,,,,,,,,,,,,,,,,,,630,,,,,,,,,,,,,,,,,,,,,1,1,,,305.3069,14,up,0.2762,,1.5,0.3,"[2,3,1]",0.829868275,stimuli/card_0_transparent.png,0,14,0,14,0,1,,,,,,,,,,
,,,,656e0dab178ffccdaa47202e,B,2024-06-21_14h06.11.902,Slot Machine Game,2023.1.3,Win32,40,,,,,,,,,,,,,,,,,,,,,,,,,,,,,,,,,,,307.9311,,,,,,,,,,,,,,,,,,,,,,,,,,,,,,,,,[630],0,0,0,0,1,,,,
,,,,656e0dab178ffccdaa47202e,B,2024-06-21_14h06.11.902,Slot Machine Game,2023.1.3,Win32,40,,,,,,,,,,,,,,,,,,,,,,,,,,,100,,,,,,,,,,,,,,,,,,,,,2,5,"[5,15]","[[1,2,3],[3,1,2]]",312.9566,0,left,0.7677,,0.5,0.3,"[1,2,3]",0.292408302,stimuli/card_100_transparent.png,100,0,0,0,0,1,,,,,,,,,,
,,,,656e0dab178ffccdaa47202e,B,2024-06-21_14h06.11.902,Slot Machine Game,2023.1.3,Win32,40,,,,,,,,,,,,,,,,,,,,,,,,,,,100,,,,,,,,,,,,,,,,,,,,,2,5,,,315.0521,1,left,0.2134,,1,0.3,"[1,2,3]",0.080041783,stimuli/card_0_transparent.png,0,1,0,1,0,1,,,,,,,,,,
,,,,656e0dab178ffccdaa47202e,B,2024-06-21_14h06.11.902,Slot Machine Game,2023.1.3,Win32,40,,,,,,,,,,,,,,,,,,,,,,,,,,,200,,,,,,,,,,,,,,,,,,,,,2,5,,,317.1262,2,left,0.0514,,1,0.3,"[1,2,3]",0.700113391,stimuli/card_100_transparent.png,100,2,0,2,0,1,,,,,,,,,,
,,,,656e0dab178ffccdaa47202e,B,2024-06-21_14h06.11.902,Slot Machine Game,2023.1.3,Win32,40,,,,,,,,,,,,,,,,,,,,,,,,,,,300,,,,,,,,,,,,,,,,,,,,,2,5,,,319.0251,3,left,0.0033,,1,0.3,"[1,2,3]",0.742013287,stimuli/card_100_transparent.png,100,3,0,3,0,1,,,,,,,,,,
,,,,656e0dab178ffccdaa47202e,B,2024-06-21_14h06.11.902,Slot Machine Game,2023.1.3,Win32,40,,,,,,,,,,,,,,,,,,,,,,,,,,,400,,,,,,,,,,,,,,,,,,,,,2,5,,,320.8796,4,left,0.2001,,1,0.3,"[1,2,3]",0.412944755,stimuli/card_100_transparent.png,100,4,0,4,0,1,,,,,,,,,,
,,,,656e0dab178ffccdaa47202e,B,2024-06-21_14h06.11.902,Slot Machine Game,2023.1.3,Win32,40,,,,,,,,,,,,,,,,,,,,,,,,,,,400,,,,,,,,,,,,,,,,,,,,,2,5,,,322.8988,5,left,0.0511,,1.5,0.3,"[3,1,2]",0.578970439,stimuli/card_0_transparent.png,0,5,0,5,0,1,,,,,,,,,,
,,,,656e0dab178ffccdaa47202e,B,2024-06-21_14h06.11.902,Slot Machine Game,2023.1.3,Win32,40,,,,,,,,,,,,,,,,,,,,,,,,,,,410,,,,,,,,,,,,,,,,,,,,,2,5,,,325.2971,6,left,0.0745,,0.5,0.3,"[3,1,2]",0.142749134,stimuli/card_10_transparent.png,10,6,0,6,0,1,,,,,,,,,,
,,,,656e0dab178ffccdaa47202e,B,2024-06-21_14h06.11.902,Slot Machine Game,2023.1.3,Win32,40,,,,,,,,,,,,,,,,,,,,,,,,,,,420,,,,,,,,,,,,,,,,,,,,,2,5,,,326.6966,7,left,0.1929,,1,0.3,"[3,1,2]",0.13463467,stimuli/card_10_transparent.png,10,7,0,7,0,1,,,,,,,,,,
,,,,656e0dab178ffccdaa47202e,B,2024-06-21_14h06.11.902,Slot Machine Game,2023.1.3,Win32,40,,,,,,,,,,,,,,,,,,,,,,,,,,,420,,,,,,,,,,,,,,,,,,,,,2,5,,,328.7201,8,left,0.5696,,1.5,0.3,"[3,1,2]",0.66917029,stimuli/card_0_transparent.png,0,8,0,8,0,1,,,,,,,,,,
,,,,656e0dab178ffccdaa47202e,B,2024-06-21_14h06.11.902,Slot Machine Game,2023.1.3,Win32,40,,,,,,,,,,,,,,,,,,,,,,,,,,,520,,,,,,,,,,,,,,,,,,,,,2,5,,,331.6193,9,up,0.2508,,1.5,0.3,"[3,1,2]",0.311949747,stimuli/card_100_transparent.png,100,9,0,9,0,1,,,,,,,,,,
,,,,656e0dab178ffccdaa47202e,B,2024-06-21_14h06.11.902,Slot Machine Game,2023.1.3,Win32,40,,,,,,,,,,,,,,,,,,,,,,,,,,,620,,,,,,,,,,,,,,,,,,,,,2,5,,,334.2175,10,up,0.1382,,1.5,0.3,"[3,1,2]",0.862802323,stimuli/card_100_transparent.png,100,10,0,10,0,1,,,,,,,,,,
,,,,656e0dab178ffccdaa47202e,B,2024-06-21_14h06.11.902,Slot Machine Game,2023.1.3,Win32,40,,,,,,,,,,,,,,,,,,,,,,,,,,,720,,,,,,,,,,,,,,,,,,,,,2,5,,,336.7168,11,up,0.0006,,1.5,0.3,"[3,1,2]",0.836212493,stimuli/card_100_transparent.png,100,11,0,11,0,1,,,,,,,,,,
,,,,656e0dab178ffccdaa47202e,B,2024-06-21_14h06.11.902,Slot Machine Game,2023.1.3,Win32,40,,,,,,,,,,,,,,,,,,,,,,,,,,,820,,,,,,,,,,,,,,,,,,,,,2,5,,,339.0693,12,up,0.5019,,1.5,0.3,"[3,1,2]",0.746373478,stimuli/card_100_transparent.png,100,12,0,12,0,1,,,,,,,,,,
,,,,656e0dab178ffccdaa47202e,B,2024-06-21_14h06.11.902,Slot Machine Game,2023.1.3,Win32,40,,,,,,,,,,,,,,,,,,,,,,,,,,,920,,,,,,,,,,,,,,,,,,,,,2,5,,,341.9396,13,up,0.0811,,1,0.3,"[3,1,2]",0.933199279,stimuli/card_100_transparent.png,100,13,0,13,0,1,,,,,,,,,,
,,,,656e0dab178ffccdaa47202e,B,2024-06-21_14h06.11.902,Slot Machine Game,2023.1.3,Win32,40,,,,,,,,,,,,,,,,,,,,,,,,,,,1020,,,,,,,,,,,,,,,,,,,,,2,5,,,343.8635,14,up,0.0448,,1,0.3,"[3,1,2]",0.318924797,stimuli/card_100_transparent.png,100,14,0,14,0,1,,,,,,,,,,
,,,,656e0dab178ffccdaa47202e,B,2024-06-21_14h06.11.902,Slot Machine Game,2023.1.3,Win32,40,,,,,,,,,,,,,,,,,,,,,,,,,,,,,,,,,,,345.7125,,,,,,,,,,,,,,,,,,,,,,,,,,,,,,,,,"[630,1020]",1,0,1,0,1,,,,
,,,,656e0dab178ffccdaa47202e,B,2024-06-21_14h06.11.902,Slot Machine Game,2023.1.3,Win32,40,,,,,,,,,,,,,,,,,,,,,,,,,,,0,,,,,,,,,,,,,,,,,,,,,3,7,"[9,15]","[[1,3,2],[2,3,1]]",350.7436,0,up,1.0703,,0.5,0.3,"[1,3,2]",0.60405289,stimuli/card_0_transparent.png,0,0,0,0,0,1,,,,,,,,,,
,,,,656e0dab178ffccdaa47202e,B,2024-06-21_14h06.11.902,Slot Machine Game,2023.1.3,Win32,40,,,,,,,,,,,,,,,,,,,,,,,,,,,0,,,,,,,,,,,,,,,,,,,,,3,7,,,353.1593,1,up,0.4458,,1,0.3,"[1,3,2]",0.219782814,stimuli/card_0_transparent.png,0,1,0,1,0,1,,,,,,,,,,
,,,,656e0dab178ffccdaa47202e,B,2024-06-21_14h06.11.902,Slot Machine Game,2023.1.3,Win32,40,,,,,,,,,,,,,,,,,,,,,,,,,,,100,,,,,,,,,,,,,,,,,,,,,3,7,,,355.458,2,left,0.3832,,1,0.3,"[1,3,2]",0.94280073,stimuli/card_100_transparent.png,100,2,0,2,0,1,,,,,,,,,,
,,,,656e0dab178ffccdaa47202e,B,2024-06-21_14h06.11.902,Slot Machine Game,2023.1.3,Win32,40,,,,,,,,,,,,,,,,,,,,,,,,,,,200,,,,,,,,,,,,,,,,,,,,,3,7,,,357.682,3,left,0.3057,,1.5,0.3,"[1,3,2]",0.376685783,stimuli/card_100_transparent.png,100,3,0,3,0,1,,,,,,,,,,
,,,,656e0dab178ffccdaa47202e,B,2024-06-21_14h06.11.902,Slot Machine Game,2023.1.3,Win32,40,,,,,,,,,,,,,,,,,,,,,,,,,,,300,,,,,,,,,,,,,,,,,,,,,3,7,,,360.3558,4,left,0.1039,,1,0.3,"[1,3,2]",0.629642442,stimuli/card_100_transparent.png,100,4,0,4,0,1,,,,,,,,,,
,,,,656e0dab178ffccdaa47202e,B,2024-06-21_14h06.11.902,Slot Machine Game,2023.1.3,Win32,40,,,,,,,,,,,,,,,,,,,,,,,,,,,310,,,,,,,,,,,,,,,,,,,,,3,7,,,362.3046,5,left,0.1763,,0.5,0.3,"[1,3,2]",0.121472182,stimuli/card_10_transparent.png,10,5,0,5,0,1,,,,,,,,,,
,,,,656e0dab178ffccdaa47202e,B,2024-06-21_14h06.11.902,Slot Machine Game,2023.1.3,Win32,40,,,,,,,,,,,,,,,,,,,,,,,,,,,410,,,,,,,,,,,,,,,,,,,,,3,7,,,363.8101,6,left,0.0013,,1,0.3,"[1,3,2]",0.598353996,stimuli/card_100_transparent.png,100,6,0,6,0,1,,,,,,,,,,
,,,,656e0dab178ffccdaa47202e,B,2024-06-21_14h06.11.902,Slot Machine Game,2023.1.3,Win32,40,,,,,,,,,,,,,,,,,,,,,,,,,,,510,,,,,,,,,,,,,,,,,,,,,3,7,,,365.6564,7,left,0.1458,,1,0.3,"[1,3,2]",0.220118148,stimuli/card_100_transparent.png,100,7,0,7,0,1,,,,,,,,,,
,,,,656e0dab178ffccdaa47202e,B,2024-06-21_14h06.11.902,Slot Machine Game,2023.1.3,Win32,40,,,,,,,,,,,,,,,,,,,,,,,,,,,510,,,,,,,,,,,,,,,,,,,,,3,7,,,367.6276,8,left,0.3746,,1,0.3,"[1,3,2]",0.047868644,stimuli/card_0_transparent.png,0,8,0,8,0,1,,,,,,,,,,
,,,,656e0dab178ffccdaa47202e,B,2024-06-21_14h06.11.902,Slot Machine Game,2023.1.3,Win32,40,,,,,,,,,,,,,,,,,,,,,,,,,,,520,,,,,,,,,,,,,,,,,,,,,3,7,,,369.8261,9,left,0.3702,,1.5,0.3,"[2,3,1]",0.51459711,stimuli/card_10_transparent.png,10,9,0,9,0,1,,,,,,,,,,
,,,,656e0dab178ffccdaa47202e,B,2024-06-21_14h06.11.902,Slot Machine Game,2023.1.3,Win32,40,,,,,,,,,,,,,,,,,,,,,,,,,,,530,,,,,,,,,,,,,,,,,,,,,3,7,,,372.5244,10,left,0.3486,,1,0.3,"[2,3,1]",0.761635326,stimuli/card_10_transparent.png,10,10,0,10,0,1,,,,,,,,,,
,,,,656e0dab178ffccdaa47202e,B,2024-06-21_14h06.11.902,Slot Machine Game,2023.1.3,Win32,40,,,,,,,,,,,,,,,,,,,,,,,,,,,540,,,,,,,,,,,,,,,,,,,,,3,7,,,374.7234,11,left,0.0007,,1.5,0.3,"[2,3,1]",0.791949623,stimuli/card_10_transparent.png,10,11,0,11,0,1,,,,,,,,,,
,,,,656e0dab178ffccdaa47202e,B,2024-06-21_14h06.11.902,Slot Machine Game,2023.1.3,Win32,40,,,,,,,,,,,,,,,,,,,,,,,,,,,550,,,,,,,,,,,,,,,,,,,,,3,7,,,377.0722,12,left,0.4783,,0.5,0.3,"[2,3,1]",0.706059615,stimuli/card_10_transparent.png,10,12,0,12,0,1,,,,,,,,,,
,,,,656e0dab178ffccdaa47202e,B,2024-06-21_14h06.11.902,Slot Machine Game,2023.1.3,Win32,40,,,,,,,,,,,,,,,,,,,,,,,,,,,650,,,,,,,,,,,,,,,,,,,,,3,7,,,378.9239,13,right,0.1993,,1,0.3,"[2,3,1]",0.348079288,stimuli/card_100_transparent.png,100,13,0,13,0,1,,,,,,,,,,
,,,,656e0dab178ffccdaa47202e,B,2024-06-21_14h06.11.902,Slot Machine Game,2023.1.3,Win32,40,,,,,,,,,,,,,,,,,,,,,,,,,,,650,,,,,,,,,,,,,,,,,,,,,3,7,,,380.9958,14,right,0.0569,,0.5,0.3,"[2,3,1]",0.000311071,stimuli/card_0_transparent.png,0,14,0,14,0,1,,,,,,,,,,
,,,,656e0dab178ffccdaa47202e,B,2024-06-21_14h06.11.902,Slot Machine Game,2023.1.3,Win32,40,,,,,,,,,,,,,,,,,,,,,,,,,,,,,,,,,,,382.3954,,,,,,,,,,,,,,,,,,,,,,,,,,,,,,,,,"[630,1020,650]",2,0,2,0,1,,,,
,,,,656e0dab178ffccdaa47202e,B,2024-06-21_14h06.11.902,Slot Machine Game,2023.1.3,Win32,40,,,,,,,,,,,,,,,,,,,,,,,,,,,10,,,,,,,,,,,,,,,,,,,,,4,4,"[7,15]","[[2,3,1],[1,2,3]]",387.4188,0,up,1.1013,,1.5,0.3,"[2,3,1]",0.156114934,stimuli/card_10_transparent.png,10,0,0,0,0,1,,,,,,,,,,
,,,,656e0dab178ffccdaa47202e,B,2024-06-21_14h06.11.902,Slot Machine Game,2023.1.3,Win32,40,,,,,,,,,,,,,,,,,,,,,,,,,,,110,,,,,,,,,,,,,,,,,,,,,4,4,,,390.8662,1,right,1.1263,,1,0.3,"[2,3,1]",0.297541142,stimuli/card_100_transparent.png,100,1,0,1,0,1,,,,,,,,,,
,,,,656e0dab178ffccdaa47202e,B,2024-06-21_14h06.11.902,Slot Machine Game,2023.1.3,Win32,40,,,,,,,,,,,,,,,,,,,,,,,,,,,120,,,,,,,,,,,,,,,,,,,,,4,4,,,393.8397,2,right,0.2734,,1.5,0.3,"[2,3,1]",0.102458775,stimuli/card_10_transparent.png,10,2,0,2,0,1,,,,,,,,,,
,,,,656e0dab178ffccdaa47202e,B,2024-06-21_14h06.11.902,Slot Machine Game,2023.1.3,Win32,40,,,,,,,,,,,,,,,,,,,,,,,,,,,130,,,,,,,,,,,,,,,,,,,,,4,4,,,396.4635,3,left,0.7953,,1,0.3,"[2,3,1]",0.234940204,stimuli/card_10_transparent.png,10,3,0,3,0,1,,,,,,,,,,
,,,,656e0dab178ffccdaa47202e,B,2024-06-21_14h06.11.902,Slot Machine Game,2023.1.3,Win32,40,,,,,,,,,,,,,,,,,,,,,,,,,,,140,,,,,,,,,,,,,,,,,,,,,4,4,,,399.1124,4,right,0.7443,,1,0.3,"[2,3,1]",0.165352379,stimuli/card_10_transparent.png,10,4,0,4,0,1,,,,,,,,,,
,,,,656e0dab178ffccdaa47202e,B,2024-06-21_14h06.11.902,Slot Machine Game,2023.1.3,Win32,40,,,,,,,,,,,,,,,,,,,,,,,,,,,150,,,,,,,,,,,,,,,,,,,,,4,4,,,401.7111,5,left,0.2758,,0.5,0.3,"[2,3,1]",0.555602502,stimuli/card_10_transparent.png,10,5,0,5,0,1,,,,,,,,,,
,,,,656e0dab178ffccdaa47202e,B,2024-06-21_14h06.11.902,Slot Machine Game,2023.1.3,Win32,40,,,,,,,,,,,,,,,,,,,,,,,,,,,160,,,,,,,,,,,,,,,,,,,,,4,4,,,403.3355,6,up,0.0525,,1,0.3,"[2,3,1]",0.173241279,stimuli/card_10_transparent.png,10,6,0,6,0,1,,,,,,,,,,
,,,,656e0dab178ffccdaa47202e,B,2024-06-21_14h06.11.902,Slot Machine Game,2023.1.3,Win32,40,,,,,,,,,,,,,,,,,,,,,,,,,,,170,,,,,,,,,,,,,,,,,,,,,4,4,,,405.2594,7,up,0.1718,,1,0.3,"[1,2,3]",0.97683378,stimuli/card_10_transparent.png,10,7,0,7,0,1,,,,,,,,,,
,,,,656e0dab178ffccdaa47202e,B,2024-06-21_14h06.11.902,Slot Machine Game,2023.1.3,Win32,40,,,,,,,,,,,,,,,,,,,,,,,,,,,270,,,,,,,,,,,,,,,,,,,,,4,4,,,407.2895,8,right,0.4289,,0.5,0.3,"[1,2,3]",0.076282259,stimuli/card_100_transparent.png,100,8,0,8,0,1,,,,,,,,,,
,,,,656e0dab178ffccdaa47202e,B,2024-06-21_14h06.11.902,Slot Machine Game,2023.1.3,Win32,40,,,,,,,,,,,,,,,,,,,,,,,,,,,270,,,,,,,,,,,,,,,,,,,,,4,4,,,409.0577,9,right,0.3028,,1,0.3,"[1,2,3]",0.42933272,stimuli/card_0_transparent.png,0,9,0,9,0,1,,,,,,,,,,
,,,,656e0dab178ffccdaa47202e,B,2024-06-21_14h06.11.902,Slot Machine Game,2023.1.3,Win32,40,,,,,,,,,,,,,,,,,,,,,,,,,,,280,,,,,,,,,,,,,,,,,,,,,4,4,,,411.2067,10,left,0.1502,,1,0.3,"[1,2,3]",0.156985072,stimuli/card_10_transparent.png,10,10,0,10,0,1,,,,,,,,,,
,,,,656e0dab178ffccdaa47202e,B,2024-06-21_14h06.11.902,Slot Machine Game,2023.1.3,Win32,40,,,,,,,,,,,,,,,,,,,,,,,,,,,380,,,,,,,,,,,,,,,,,,,,,4,4,,,413.1807,11,left,0.5263,,1,0.3,"[1,2,3]",0.514451055,stimuli/card_100_transparent.png,100,11,0,11,0,1,,,,,,,,,,
,,,,656e0dab178ffccdaa47202e,B,2024-06-21_14h06.11.902,Slot Machine Game,2023.1.3,Win32,40,,,,,,,,,,,,,,,,,,,,,,,,,,,480,,,,,,,,,,,,,,,,,,,,,4,4,,,415.5548,12,left,0.2102,,1,0.3,"[1,2,3]",0.303719479,stimuli/card_100_transparent.png,100,12,0,12,0,1,,,,,,,,,,
,,,,656e0dab178ffccdaa47202e,B,2024-06-21_14h06.11.902,Slot Machine Game,2023.1.3,Win32,40,,,,,,,,,,,,,,,,,,,,,,,,,,,490,,,,,,,,,,,,,,,,,,,,,4,4,,,417.6286,13,left,0.0577,,0.5,0.3,"[1,2,3]",0.174865979,stimuli/card_10_transparent.png,10,13,0,13,0,1,,,,,,,,,,
,,,,656e0dab178ffccdaa47202e,B,2024-06-21_14h06.11.902,Slot Machine Game,2023.1.3,Win32,40,,,,,,,,,,,,,,,,,,,,,,,,,,,590,,,,,,,,,,,,,,,,,,,,,4,4,,,419.0278,14,left,0.3188,,1.5,0.3,"[1,2,3]",0.766307241,stimuli/card_100_transparent.png,100,14,0,14,0,1,,,,,,,,,,
,,,,656e0dab178ffccdaa47202e,B,2024-06-21_14h06.11.902,Slot Machine Game,2023.1.3,Win32,40,,,,,,,,,,,,,,,,,,,,,,,,,,,,,,,,,,,421.6769,,,,,,,,,,,,,,,,,,,,,,,,,,,,,,,,,"[630,1020,650,590]",3,0,3,0,1,,,,
,,,,656e0dab178ffccdaa47202e,B,2024-06-21_14h06.11.902,Slot Machine Game,2023.1.3,Win32,40,,,,,,,,,,,,,,,,,,,,,,,,,,,100,,,,,,,,,,,,,,,,,,,,,5,6,"[4,10,15]","[[2,3,1],[1,3,2],[3,2,1]]",426.7039,0,right,0.4753,,0.5,0.3,"[2,3,1]",0.567972951,stimuli/card_100_transparent.png,100,0,0,0,0,1,,,,,,,,,,
,,,,656e0dab178ffccdaa47202e,B,2024-06-21_14h06.11.902,Slot Machine Game,2023.1.3,Win32,40,,,,,,,,,,,,,,,,,,,,,,,,,,,200,,,,,,,,,,,,,,,,,,,,,5,6,,,428.4986,1,right,0.1348,,0.5,0.3,"[2,3,1]",0.361724679,stimuli/card_100_transparent.png,100,1,0,1,0,1,,,,,,,,,,
,,,,656e0dab178ffccdaa47202e,B,2024-06-21_14h06.11.902,Slot Machine Game,2023.1.3,Win32,40,,,,,,,,,,,,,,,,,,,,,,,,,,,300,,,,,,,,,,,,,,,,,,,,,5,6,,,430.0038,2,right,0.0353,,1,0.3,"[2,3,1]",0.510734362,stimuli/card_100_transparent.png,100,2,0,2,0,1,,,,,,,,,,
,,,,656e0dab178ffccdaa47202e,B,2024-06-21_14h06.11.902,Slot Machine Game,2023.1.3,Win32,40,,,,,,,,,,,,,,,,,,,,,,,,,,,300,,,,,,,,,,,,,,,,,,,,,5,6,,,431.872,3,right,0.4815,,1.5,0.3,"[2,3,1]",0.093015584,stimuli/card_0_transparent.png,0,3,0,3,0,1,,,,,,,,,,
,,,,656e0dab178ffccdaa47202e,B,2024-06-21_14h06.11.902,Slot Machine Game,2023.1.3,Win32,40,,,,,,,,,,,,,,,,,,,,,,,,,,,310,,,,,,,,,,,,,,,,,,,,,5,6,,,434.7001,4,right,0.2767,,0.5,0.3,"[1,3,2]",0.613999454,stimuli/card_10_transparent.png,10,4,0,4,0,1,,,,,,,,,,
,,,,656e0dab178ffccdaa47202e,B,2024-06-21_14h06.11.902,Slot Machine Game,2023.1.3,Win32,40,,,,,,,,,,,,,,,,,,,,,,,,,,,320,,,,,,,,,,,,,,,,,,,,,5,6,,,436.3443,5,right,0.0706,,0.5,0.3,"[1,3,2]",0.701330916,stimuli/card_10_transparent.png,10,5,0,5,0,1,,,,,,,,,,
,,,,656e0dab178ffccdaa47202e,B,2024-06-21_14h06.11.902,Slot Machine Game,2023.1.3,Win32,40,,,,,,,,,,,,,,,,,,,,,,,,,,,330,,,,,,,,,,,,,,,,,,,,,5,6,,,437.7686,6,right,0.3273,,1.5,0.3,"[1,3,2]",0.605626201,stimuli/card_10_transparent.png,10,6,0,6,0,1,,,,,,,,,,
,,,,656e0dab178ffccdaa47202e,B,2024-06-21_14h06.11.902,Slot Machine Game,2023.1.3,Win32,40,,,,,,,,,,,,,,,,,,,,,,,,,,,330,,,,,,,,,,,,,,,,,,,,,5,6,,,440.4424,7,up,0.0988,,1,0.3,"[1,3,2]",0.294928868,stimuli/card_0_transparent.png,0,7,0,7,0,1,,,,,,,,,,
,,,,656e0dab178ffccdaa47202e,B,2024-06-21_14h06.11.902,Slot Machine Game,2023.1.3,Win32,40,,,,,,,,,,,,,,,,,,,,,,,,,,,330,,,,,,,,,,,,,,,,,,,,,5,6,,,442.3669,8,left,0.0771,,0.5,0.3,"[1,3,2]",0.027483349,stimuli/card_0_transparent.png,0,8,0,8,0,1,,,,,,,,,,
,,,,656e0dab178ffccdaa47202e,B,2024-06-21_14h06.11.902,Slot Machine Game,2023.1.3,Win32,40,,,,,,,,,,,,,,,,,,,,,,,,,,,340,,,,,,,,,,,,,,,,,,,,,5,6,,,443.8163,9,right,0.4202,,1.5,0.3,"[1,3,2]",0.828150177,stimuli/card_10_transparent.png,10,9,0,9,0,1,,,,,,,,,,
,,,,656e0dab178ffccdaa47202e,B,2024-06-21_14h06.11.902,Slot Machine Game,2023.1.3,Win32,40,,,,,,,,,,,,,,,,,,,,,,,,,,,350,,,,,,,,,,,,,,,,,,,,,5,6,,,446.59,10,right,0.0304,,1.5,0.3,"[3,2,1]",0.107092555,stimuli/card_10_transparent.png,10,10,0,10,0,1,,,,,,,,,,
,,,,656e0dab178ffccdaa47202e,B,2024-06-21_14h06.11.902,Slot Machine Game,2023.1.3,Win32,40,,,,,,,,,,,,,,,,,,,,,,,,,,,450,,,,,,,,,,,,,,,,,,,,,5,6,,,448.9886,11,up,0.4626,,1,0.3,"[3,2,1]",0.164266386,stimuli/card_100_transparent.png,100,11,0,11,0,1,,,,,,,,,,
,,,,656e0dab178ffccdaa47202e,B,2024-06-21_14h06.11.902,Slot Machine Game,2023.1.3,Win32,40,,,,,,,,,,,,,,,,,,,,,,,,,,,460,,,,,,,,,,,,,,,,,,,,,5,6,,,451.2873,12,up,0.0788,,1,0.3,"[3,2,1]",0.578876357,stimuli/card_10_transparent.png,10,12,0,12,0,1,,,,,,,,,,
,,,,656e0dab178ffccdaa47202e,B,2024-06-21_14h06.11.902,Slot Machine Game,2023.1.3,Win32,40,,,,,,,,,,,,,,,,,,,,,,,,,,,470,,,,,,,,,,,,,,,,,,,,,5,6,,,453.1868,13,up,0.326,,0.5,0.3,"[3,2,1]",0.272523866,stimuli/card_10_transparent.png,10,13,0,13,0,1,,,,,,,,,,
,,,,656e0dab178ffccdaa47202e,B,2024-06-21_14h06.11.902,Slot Machine Game,2023.1.3,Win32,40,,,,,,,,,,,,,,,,,,,,,,,,,,,470,,,,,,,,,,,,,,,,,,,,,5,6,,,454.8608,14,left,0.2595,,0.5,0.3,"[3,2,1]",0.598686798,stimuli/card_0_transparent.png,0,14,0,14,0,1,,,,,,,,,,
,,,,656e0dab178ffccdaa47202e,B,2024-06-21_14h06.11.902,Slot Machine Game,2023.1.3,Win32,40,,,,,,,,,,,,,,,,,,,,,,,,,,,,,,,,,,,456.4851,,,,,,,,,,,,,,,,,,,,,,,,,,,,,,,,,"[630,1020,650,590,470]",4,0,4,0,1,,,,
,,,,656e0dab178ffccdaa47202e,B,2024-06-21_14h06.11.902,Slot Machine Game,2023.1.3,Win32,40,,,,,,,,,,,,,,,,,,,,,,,,,,,0,,,,,,,,,,,,,,,,,,,,,6,8,"[11,15]","[[2,1,3],[1,2,3]]",461.5164,0,left,0.1502,,1.5,0.3,"[2,1,3]",0.09264844,stimuli/card_0_transparent.png,0,0,0,0,0,1,,,,,,,,,,
,,,,656e0dab178ffccdaa47202e,B,2024-06-21_14h06.11.902,Slot Machine Game,2023.1.3,Win32,40,,,,,,,,,,,,,,,,,,,,,,,,,,,100,,,,,,,,,,,,,,,,,,,,,6,8,,,463.9815,1,up,0.0149,,1.5,0.3,"[2,1,3]",0.704327994,stimuli/card_100_transparent.png,100,1,0,1,0,1,,,,,,,,,,
,,,,656e0dab178ffccdaa47202e,B,2024-06-21_14h06.11.902,Slot Machine Game,2023.1.3,Win32,40,,,,,,,,,,,,,,,,,,,,,,,,,,,100,,,,,,,,,,,,,,,,,,,,,6,8,,,466.33,2,up,0.0984,,0.5,0.3,"[2,1,3]",0.094867698,stimuli/card_0_transparent.png,0,2,0,2,0,1,,,,,,,,,,
,,,,656e0dab178ffccdaa47202e,B,2024-06-21_14h06.11.902,Slot Machine Game,2023.1.3,Win32,40,,,,,,,,,,,,,,,,,,,,,,,,,,,200,,,,,,,,,,,,,,,,,,,,,6,8,,,467.7542,3,up,0.5381,,1.5,0.3,"[2,1,3]",0.419637165,stimuli/card_100_transparent.png,100,3,0,3,0,1,,,,,,,,,,
,,,,656e0dab178ffccdaa47202e,B,2024-06-21_14h06.11.902,Slot Machine Game,2023.1.3,Win32,40,,,,,,,,,,,,,,,,,,,,,,,,,,,300,,,,,,,,,,,,,,,,,,,,,6,8,,,470.6316,4,up,0.1813,,1,0.3,"[2,1,3]",0.41381938,stimuli/card_100_transparent.png,100,4,0,4,0,1,,,,,,,,,,
,,,,656e0dab178ffccdaa47202e,B,2024-06-21_14h06.11.902,Slot Machine Game,2023.1.3,Win32,40,,,,,,,,,,,,,,,,,,,,,,,,,,,400,,,,,,,,,,,,,,,,,,,,,6,8,,,472.6276,5,up,0.1144,,1,0.3,"[2,1,3]",0.790180446,stimuli/card_100_transparent.png,100,5,0,5,0,1,,,,,,,,,,
,,,,656e0dab178ffccdaa47202e,B,2024-06-21_14h06.11.902,Slot Machine Game,2023.1.3,Win32,40,,,,,,,,,,,,,,,,,,,,,,,,,,,400,,,,,,,,,,,,,,,,,,,,,6,8,,,474.5767,6,up,0.1801,,1,0.3,"[2,1,3]",0.09189123,stimuli/card_0_transparent.png,0,6,0,6,0,1,,,,,,,,,,
,,,,656e0dab178ffccdaa47202e,B,2024-06-21_14h06.11.902,Slot Machine Game,2023.1.3,Win32,40,,,,,,,,,,,,,,,,,,,,,,,,,,,500,,,,,,,,,,,,,,,,,,,,,6,8,,,476.6255,7,up,0.1128,,1,0.3,"[2,1,3]",0.675332053,stimuli/card_100_transparent.png,100,7,0,7,0,1,,,,,,,,,,
,,,,656e0dab178ffccdaa47202e,B,2024-06-21_14h06.11.902,Slot Machine Game,2023.1.3,Win32,40,,,,,,,,,,,,,,,,,,,,,,,,,,,600,,,,,,,,,,,,,,,,,,,,,6,8,,,478.6056,8,up,0.1157,,1.5,0.3,"[2,1,3]",0.939310258,stimuli/card_100_transparent.png,100,8,0,8,0,1,,,,,,,,,,
,,,,656e0dab178ffccdaa47202e,B,2024-06-21_14h06.11.902,Slot Machine Game,2023.1.3,Win32,40,,,,,,,,,,,,,,,,,,,,,,,,,,,700,,,,,,,,,,,,,,,,,,,,,6,8,,,481.0735,9,up,0.0754,,1,0.3,"[2,1,3]",0.772885996,stimuli/card_100_transparent.png,100,9,0,9,0,1,,,,,,,,,,
,,,,656e0dab178ffccdaa47202e,B,2024-06-21_14h06.11.902,Slot Machine Game,2023.1.3,Win32,40,,,,,,,,,,,,,,,,,,,,,,,,,,,800,,,,,,,,,,,,,,,,,,,,,6,8,,,482.9757,10,up,0.5265,,1,0.3,"[2,1,3]",0.36814738,stimuli/card_100_transparent.png,100,10,0,10,0,1,,,,,,,,,,
,,,,656e0dab178ffccdaa47202e,B,2024-06-21_14h06.11.902,Slot Machine Game,2023.1.3,Win32,40,,,,,,,,,,,,,,,,,,,,,,,,,,,810,,,,,,,,,,,,,,,,,,,,,6,8,,,485.3211,11,up,0.3556,,1.5,0.3,"[1,2,3]",0.411949982,stimuli/card_10_transparent.png,10,11,0,11,0,1,,,,,,,,,,
,,,,656e0dab178ffccdaa47202e,B,2024-06-21_14h06.11.902,Slot Machine Game,2023.1.3,Win32,40,,,,,,,,,,,,,,,,,,,,,,,,,,,820,,,,,,,,,,,,,,,,,,,,,6,8,,,488.0201,12,up,0.087,,1.5,0.3,"[1,2,3]",0.936018874,stimuli/card_10_transparent.png,10,12,0,12,0,1,,,,,,,,,,
,,,,656e0dab178ffccdaa47202e,B,2024-06-21_14h06.11.902,Slot Machine Game,2023.1.3,Win32,40,,,,,,,,,,,,,,,,,,,,,,,,,,,830,,,,,,,,,,,,,,,,,,,,,6,8,,,490.4441,13,up,0.537,,1,0.3,"[1,2,3]",0.836099113,stimuli/card_10_transparent.png,10,13,0,13,0,1,,,,,,,,,,
,,,,656e0dab178ffccdaa47202e,B,2024-06-21_14h06.11.902,Slot Machine Game,2023.1.3,Win32,40,,,,,,,,,,,,,,,,,,,,,,,,,,,840,,,,,,,,,,,,,,,,,,,,,6,8,,,492.8212,14,up,0.3828,,1,0.3,"[1,2,3]",0.66278076,stimuli/card_10_transparent.png,10,14,0,14,0,1,,,,,,,,,,
,,,,656e0dab178ffccdaa47202e,B,2024-06-21_14h06.11.902,Slot Machine Game,2023.1.3,Win32,40,,,,,,,,,,,,,,,,,,,,,,,,,,,,,,,,,,,495.0671,,,,,,,,,,,,,,,,,,,,,,,,,,,,,,,,,"[630,1020,650,590,470,840]",5,0,5,0,1,,,,
,,,,656e0dab178ffccdaa47202e,B,2024-06-21_14h06.11.902,Slot Machine Game,2023.1.3,Win32,40,,,,,,,,,,,,,,,,,,,,,,,,,,,0,,,,,,,,,,,,,,,,,,,,,7,9,"[8,15]","[[3,2,1],[3,1,2]]",500.095,0,left,0.5552,,0.5,0.3,"[3,2,1]",0.5043068,stimuli/card_0_transparent.png,0,0,0,0,0,1,,,,,,,,,,
,,,,656e0dab178ffccdaa47202e,B,2024-06-21_14h06.11.902,Slot Machine Game,2023.1.3,Win32,40,,,,,,,,,,,,,,,,,,,,,,,,,,,0,,,,,,,,,,,,,,,,,,,,,7,9,,,502.0138,1,left,0.1619,,1.5,0.3,"[3,2,1]",0.375493416,stimuli/card_0_transparent.png,0,1,0,1,0,1,,,,,,,,,,
,,,,656e0dab178ffccdaa47202e,B,2024-06-21_14h06.11.902,Slot Machine Game,2023.1.3,Win32,40,,,,,,,,,,,,,,,,,,,,,,,,,,,10,,,,,,,,,,,,,,,,,,,,,7,9,,,504.5376,2,up,0.5184,,1,0.3,"[3,2,1]",0.261896931,stimuli/card_10_transparent.png,10,2,0,2,0,1,,,,,,,,,,
,,,,656e0dab178ffccdaa47202e,B,2024-06-21_14h06.11.902,Slot Machine Game,2023.1.3,Win32,40,,,,,,,,,,,,,,,,,,,,,,,,,,,110,,,,,,,,,,,,,,,,,,,,,7,9,,,506.9115,3,right,0.9043,,1.5,0.3,"[3,2,1]",0.935913138,stimuli/card_100_transparent.png,100,3,0,3,0,1,,,,,,,,,,
,,,,656e0dab178ffccdaa47202e,B,2024-06-21_14h06.11.902,Slot Machine Game,2023.1.3,Win32,40,,,,,,,,,,,,,,,,,,,,,,,,,,,210,,,,,,,,,,,,,,,,,,,,,7,9,,,510.185,4,right,0.4956,,0.5,0.3,"[3,2,1]",0.513071434,stimuli/card_100_transparent.png,100,4,0,4,0,1,,,,,,,,,,
,,,,656e0dab178ffccdaa47202e,B,2024-06-21_14h06.11.902,Slot Machine Game,2023.1.3,Win32,40,,,,,,,,,,,,,,,,,,,,,,,,,,,310,,,,,,,,,,,,,,,,,,,,,7,9,,,512.0124,5,right,0.1665,,0.5,0.3,"[3,2,1]",0.877051281,stimuli/card_100_transparent.png,100,5,0,5,0,1,,,,,,,,,,
,,,,656e0dab178ffccdaa47202e,B,2024-06-21_14h06.11.902,Slot Machine Game,2023.1.3,Win32,40,,,,,,,,,,,,,,,,,,,,,,,,,,,410,,,,,,,,,,,,,,,,,,,,,7,9,,,513.5143,6,right,0.627,,0.5,0.3,"[3,2,1]",0.544656797,stimuli/card_100_transparent.png,100,6,0,6,0,1,,,,,,,,,,
,,,,656e0dab178ffccdaa47202e,B,2024-06-21_14h06.11.902,Slot Machine Game,2023.1.3,Win32,40,,,,,,,,,,,,,,,,,,,,,,,,,,,510,,,,,,,,,,,,,,,,,,,,,7,9,,,515.513,7,right,0.1774,,0.5,0.3,"[3,2,1]",0.252279386,stimuli/card_100_transparent.png,100,7,0,7,0,1,,,,,,,,,,
,,,,656e0dab178ffccdaa47202e,B,2024-06-21_14h06.11.902,Slot Machine Game,2023.1.3,Win32,40,,,,,,,,,,,,,,,,,,,,,,,,,,,520,,,,,,,,,,,,,,,,,,,,,7,9,,,517.0566,8,right,0.4066,,1.5,0.3,"[3,1,2]",0.526099465,stimuli/card_10_transparent.png,10,8,0,8,0,1,,,,,,,,,,
,,,,656e0dab178ffccdaa47202e,B,2024-06-21_14h06.11.902,Slot Machine Game,2023.1.3,Win32,40,,,,,,,,,,,,,,,,,,,,,,,,,,,520,,,,,,,,,,,,,,,,,,,,,7,9,,,519.8358,9,right,0.5254,,1.5,0.3,"[3,1,2]",0.069584069,stimuli/card_0_transparent.png,0,9,0,9,0,1,,,,,,,,,,
,,,,656e0dab178ffccdaa47202e,B,2024-06-21_14h06.11.902,Slot Machine Game,2023.1.3,Win32,40,,,,,,,,,,,,,,,,,,,,,,,,,,,530,,,,,,,,,,,,,,,,,,,,,7,9,,,522.6784,10,right,0.038,,1.5,0.3,"[3,1,2]",0.868323926,stimuli/card_10_transparent.png,10,10,0,10,0,1,,,,,,,,,,
,,,,656e0dab178ffccdaa47202e,B,2024-06-21_14h06.11.902,Slot Machine Game,2023.1.3,Win32,40,,,,,,,,,,,,,,,,,,,,,,,,,,,630,,,,,,,,,,,,,,,,,,,,,7,9,,,525.0778,11,up,0.4559,,0.5,0.3,"[3,1,2]",0.31919641,stimuli/card_100_transparent.png,100,11,0,11,0,1,,,,,,,,,,
,,,,656e0dab178ffccdaa47202e,B,2024-06-21_14h06.11.902,Slot Machine Game,2023.1.3,Win32,40,,,,,,,,,,,,,,,,,,,,,,,,,,,730,,,,,,,,,,,,,,,,,,,,,7,9,,,526.9077,12,up,0.3851,,1,0.3,"[3,1,2]",0.815828309,stimuli/card_100_transparent.png,100,12,0,12,0,1,,,,,,,,,,
,,,,656e0dab178ffccdaa47202e,B,2024-06-21_14h06.11.902,Slot Machine Game,2023.1.3,Win32,40,,,,,,,,,,,,,,,,,,,,,,,,,,,830,,,,,,,,,,,,,,,,,,,,,7,9,,,529.1259,13,up,0.1583,,0.5,0.3,"[3,1,2]",0.339952062,stimuli/card_100_transparent.png,100,13,0,13,0,1,,,,,,,,,,
,,,,656e0dab178ffccdaa47202e,B,2024-06-21_14h06.11.902,Slot Machine Game,2023.1.3,Win32,40,,,,,,,,,,,,,,,,,,,,,,,,,,,930,,,,,,,,,,,,,,,,,,,,,7,9,,,530.6502,14,up,0.1489,,0.5,0.3,"[3,1,2]",0.232940706,stimuli/card_100_transparent.png,100,14,0,14,0,1,,,,,,,,,,
,,,,656e0dab178ffccdaa47202e,B,2024-06-21_14h06.11.902,Slot Machine Game,2023.1.3,Win32,40,,,,,,,,,,,,,,,,,,,,,,,,,,,,,,,,,,,532.1493,,,,,,,,,,,,,,,,,,,,,,,,,,,,,,,,,"[630,1020,650,590,470,840,930]",6,0,6,0,1,,,,
,,,,656e0dab178ffccdaa47202e,B,2024-06-21_14h06.11.902,Slot Machine Game,2023.1.3,Win32,40,,,,,,,,,,,,,,,,,,,,,,,,,,,10,,,,,,,,,,,,,,,,,,,,,8,2,"[6,15]","[[1,3,2],[3,2,1]]",537.1643,0,right,2.7723,,1,0.3,"[1,3,2]",0.89039592,stimuli/card_10_transparent.png,10,0,0,0,0,1,,,,,,,,,,
,,,,656e0dab178ffccdaa47202e,B,2024-06-21_14h06.11.902,Slot Machine Game,2023.1.3,Win32,40,,,,,,,,,,,,,,,,,,,,,,,,,,,110,,,,,,,,,,,,,,,,,,,,,8,2,,,541.7699,1,left,0.1711,,1.5,0.3,"[1,3,2]",0.994403322,stimuli/card_100_transparent.png,100,1,0,1,0,1,,,,,,,,,,
,,,,656e0dab178ffccdaa47202e,B,2024-06-21_14h06.11.902,Slot Machine Game,2023.1.3,Win32,40,,,,,,,,,,,,,,,,,,,,,,,,,,,210,,,,,,,,,,,,,,,,,,,,,8,2,,,544.2939,2,left,0.0014,,0.5,0.3,"[1,3,2]",0.825443035,stimuli/card_100_transparent.png,100,2,0,2,0,1,,,,,,,,,,
,,,,656e0dab178ffccdaa47202e,B,2024-06-21_14h06.11.902,Slot Machine Game,2023.1.3,Win32,40,,,,,,,,,,,,,,,,,,,,,,,,,,,310,,,,,,,,,,,,,,,,,,,,,8,2,,,545.6182,3,left,0.1185,,1,0.3,"[1,3,2]",0.241699145,stimuli/card_100_transparent.png,100,3,0,3,0,1,,,,,,,,,,
,,,,656e0dab178ffccdaa47202e,B,2024-06-21_14h06.11.902,Slot Machine Game,2023.1.3,Win32,40,,,,,,,,,,,,,,,,,,,,,,,,,,,410,,,,,,,,,,,,,,,,,,,,,8,2,,,547.5922,4,left,0.3825,,0.5,0.3,"[1,3,2]",0.459583684,stimuli/card_100_transparent.png,100,4,0,4,0,1,,,,,,,,,,
,,,,656e0dab178ffccdaa47202e,B,2024-06-21_14h06.11.902,Slot Machine Game,2023.1.3,Win32,40,,,,,,,,,,,,,,,,,,,,,,,,,,,410,,,,,,,,,,,,,,,,,,,,,8,2,,,549.3414,5,left,0.0888,,1,0.3,"[1,3,2]",0.007114533,stimuli/card_0_transparent.png,0,5,0,5,0,1,,,,,,,,,,
,,,,656e0dab178ffccdaa47202e,B,2024-06-21_14h06.11.902,Slot Machine Game,2023.1.3,Win32,40,,,,,,,,,,,,,,,,,,,,,,,,,,,410,,,,,,,,,,,,,,,,,,,,,8,2,,,551.29,6,left,0.1427,,1.5,0.3,"[3,2,1]",0.424001307,stimuli/card_0_transparent.png,0,6,0,6,0,1,,,,,,,,,,
,,,,656e0dab178ffccdaa47202e,B,2024-06-21_14h06.11.902,Slot Machine Game,2023.1.3,Win32,40,,,,,,,,,,,,,,,,,,,,,,,,,,,410,,,,,,,,,,,,,,,,,,,,,8,2,,,553.7894,7,left,0.2984,,1,0.3,"[3,2,1]",0.584580352,stimuli/card_0_transparent.png,0,7,0,7,0,1,,,,,,,,,,
,,,,656e0dab178ffccdaa47202e,B,2024-06-21_14h06.11.902,Slot Machine Game,2023.1.3,Win32,40,,,,,,,,,,,,,,,,,,,,,,,,,,,510,,,,,,,,,,,,,,,,,,,,,8,2,,,555.938,8,left,0.3794,,1,0.3,"[3,2,1]",0.022559051,stimuli/card_100_transparent.png,100,8,0,8,0,1,,,,,,,,,,
,,,,656e0dab178ffccdaa47202e,B,2024-06-21_14h06.11.902,Slot Machine Game,2023.1.3,Win32,40,,,,,,,,,,,,,,,,,,,,,,,,,,,510,,,,,,,,,,,,,,,,,,,,,8,2,,,558.1656,9,left,0.1511,,0.5,0.3,"[3,2,1]",0.756614032,stimuli/card_0_transparent.png,0,9,0,9,0,1,,,,,,,,,,
,,,,656e0dab178ffccdaa47202e,B,2024-06-21_14h06.11.902,Slot Machine Game,2023.1.3,Win32,40,,,,,,,,,,,,,,,,,,,,,,,,,,,510,,,,,,,,,,,,,,,,,,,,,8,2,,,559.6675,10,left,0.3262,,1.5,0.3,"[3,2,1]",0.401541764,stimuli/card_0_transparent.png,0,10,0,10,0,1,,,,,,,,,,
,,,,656e0dab178ffccdaa47202e,B,2024-06-21_14h06.11.902,Slot Machine Game,2023.1.3,Win32,40,,,,,,,,,,,,,,,,,,,,,,,,,,,510,,,,,,,,,,,,,,,,,,,,,8,2,,,562.3412,11,left,0.1997,,1.5,0.3,"[3,2,1]",0.282210411,stimuli/card_0_transparent.png,0,11,0,11,0,1,,,,,,,,,,
,,,,656e0dab178ffccdaa47202e,B,2024-06-21_14h06.11.902,Slot Machine Game,2023.1.3,Win32,40,,,,,,,,,,,,,,,,,,,,,,,,,,,520,,,,,,,,,,,,,,,,,,,,,8,2,,,564.884,12,up,0.3181,,0.5,0.3,"[3,2,1]",0.567174026,stimuli/card_10_transparent.png,10,12,0,12,0,1,,,,,,,,,,
,,,,656e0dab178ffccdaa47202e,B,2024-06-21_14h06.11.902,Slot Machine Game,2023.1.3,Win32,40,,,,,,,,,,,,,,,,,,,,,,,,,,,620,,,,,,,,,,,,,,,,,,,,,8,2,,,566.5583,13,right,0.094,,1.5,0.3,"[3,2,1]",0.981406074,stimuli/card_100_transparent.png,100,13,0,13,0,1,,,,,,,,,,
,,,,656e0dab178ffccdaa47202e,B,2024-06-21_14h06.11.902,Slot Machine Game,2023.1.3,Win32,40,,,,,,,,,,,,,,,,,,,,,,,,,,,720,,,,,,,,,,,,,,,,,,,,,8,2,,,569.0131,14,right,0.0012,,1,0.3,"[3,2,1]",0.746971234,stimuli/card_100_transparent.png,100,14,0,14,0,1,,,,,,,,,,
,,,,656e0dab178ffccdaa47202e,B,2024-06-21_14h06.11.902,Slot Machine Game,2023.1.3,Win32,40,,,,,,,,,,,,,,,,,,,,,,,,,,,,,,,,,,,570.8561,,,,,,,,,,,,,,,,,,,,,,,,,,,,,,,,,"[630,1020,650,590,470,840,930,720]",7,0,7,0,1,,,,
,,,,656e0dab178ffccdaa47202e,B,2024-06-21_14h06.11.902,Slot Machine Game,2023.1.3,Win32,40,,,,,,,,,,,,,,,,,,,,,,,,,,,10,,,,,,,,,,,,,,,,,,,,,9,10,"[10,15]","[[3,1,2],[1,3,2]]",575.881,0,right,0.2547,,0.5,0.3,"[3,1,2]",0.524939209,stimuli/card_10_transparent.png,10,0,0,0,0,1,,,,,,,,,,
,,,,656e0dab178ffccdaa47202e,B,2024-06-21_14h06.11.902,Slot Machine Game,2023.1.3,Win32,40,,,,,,,,,,,,,,,,,,,,,,,,,,,10,,,,,,,,,,,,,,,,,,,,,9,10,,,577.5031,1,right,0.2173,,1,0.3,"[3,1,2]",0.085227238,stimuli/card_0_transparent.png,0,1,0,1,0,1,,,,,,,,,,
,,,,656e0dab178ffccdaa47202e,B,2024-06-21_14h06.11.902,Slot Machine Game,2023.1.3,Win32,40,,,,,,,,,,,,,,,,,,,,,,,,,,,20,,,,,,,,,,,,,,,,,,,,,9,10,,,579.5519,2,up,0.2493,,1.5,0.3,"[3,1,2]",0.162696071,stimuli/card_10_transparent.png,10,2,0,2,0,1,,,,,,,,,,
,,,,656e0dab178ffccdaa47202e,B,2024-06-21_14h06.11.902,Slot Machine Game,2023.1.3,Win32,40,,,,,,,,,,,,,,,,,,,,,,,,,,,120,,,,,,,,,,,,,,,,,,,,,9,10,,,582.1507,3,up,0.379,,1.5,0.3,"[3,1,2]",0.997370629,stimuli/card_100_transparent.png,100,3,0,3,0,1,,,,,,,,,,
,,,,656e0dab178ffccdaa47202e,B,2024-06-21_14h06.11.902,Slot Machine Game,2023.1.3,Win32,40,,,,,,,,,,,,,,,,,,,,,,,,,,,220,,,,,,,,,,,,,,,,,,,,,9,10,,,584.8746,4,up,0.0278,,1,0.3,"[3,1,2]",0.644853215,stimuli/card_100_transparent.png,100,4,0,4,0,1,,,,,,,,,,
,,,,656e0dab178ffccdaa47202e,B,2024-06-21_14h06.11.902,Slot Machine Game,2023.1.3,Win32,40,,,,,,,,,,,,,,,,,,,,,,,,,,,320,,,,,,,,,,,,,,,,,,,,,9,10,,,586.7236,5,up,0.3721,,1,0.3,"[3,1,2]",0.969517928,stimuli/card_100_transparent.png,100,5,0,5,0,1,,,,,,,,,,
,,,,656e0dab178ffccdaa47202e,B,2024-06-21_14h06.11.902,Slot Machine Game,2023.1.3,Win32,40,,,,,,,,,,,,,,,,,,,,,,,,,,,420,,,,,,,,,,,,,,,,,,,,,9,10,,,588.9478,6,up,0.3387,,0.5,0.3,"[3,1,2]",0.796020686,stimuli/card_100_transparent.png,100,6,0,6,0,1,,,,,,,,,,
,,,,656e0dab178ffccdaa47202e,B,2024-06-21_14h06.11.902,Slot Machine Game,2023.1.3,Win32,40,,,,,,,,,,,,,,,,,,,,,,,,,,,520,,,,,,,,,,,,,,,,,,,,,9,10,,,590.6218,7,up,0.3717,,1.5,0.3,"[3,1,2]",0.825547534,stimuli/card_100_transparent.png,100,7,0,7,0,1,,,,,,,,,,
,,,,656e0dab178ffccdaa47202e,B,2024-06-21_14h06.11.902,Slot Machine Game,2023.1.3,Win32,40,,,,,,,,,,,,,,,,,,,,,,,,,,,620,,,,,,,,,,,,,,,,,,,,,9,10,,,593.3206,8,up,0.0265,,0.5,0.3,"[3,1,2]",0.7563336,stimuli/card_100_transparent.png,100,8,0,8,0,1,,,,,,,,,,
,,,,656e0dab178ffccdaa47202e,B,2024-06-21_14h06.11.902,Slot Machine Game,2023.1.3,Win32,40,,,,,,,,,,,,,,,,,,,,,,,,,,,720,,,,,,,,,,,,,,,,,,,,,9,10,,,594.695,9,up,0.5034,,1,0.3,"[3,1,2]",0.585672637,stimuli/card_100_transparent.png,100,9,0,9,0,1,,,,,,,,,,
,,,,656e0dab178ffccdaa47202e,B,2024-06-21_14h06.11.902,Slot Machine Game,2023.1.3,Win32,40,,,,,,,,,,,,,,,,,,,,,,,,,,,720,,,,,,,,,,,,,,,,,,,,,9,10,,,597.0189,10,up,0.1141,,1,0.3,"[1,3,2]",0.231407302,stimuli/card_0_transparent.png,0,10,0,10,0,1,,,,,,,,,,
,,,,656e0dab178ffccdaa47202e,B,2024-06-21_14h06.11.902,Slot Machine Game,2023.1.3,Win32,40,,,,,,,,,,,,,,,,,,,,,,,,,,,720,,,,,,,,,,,,,,,,,,,,,9,10,,,598.9928,11,up,0.2898,,1.5,0.3,"[1,3,2]",0.840491418,stimuli/card_0_transparent.png,0,11,0,11,0,1,,,,,,,,,,
,,,,656e0dab178ffccdaa47202e,B,2024-06-21_14h06.11.902,Slot Machine Game,2023.1.3,Win32,40,,,,,,,,,,,,,,,,,,,,,,,,,,,720,,,,,,,,,,,,,,,,,,,,,9,10,,,601.6416,12,up,0.269,,0.5,0.3,"[1,3,2]",0.767625253,stimuli/card_0_transparent.png,0,12,0,12,0,1,,,,,,,,,,
,,,,656e0dab178ffccdaa47202e,B,2024-06-21_14h06.11.902,Slot Machine Game,2023.1.3,Win32,40,,,,,,,,,,,,,,,,,,,,,,,,,,,820,,,,,,,,,,,,,,,,,,,,,9,10,,,603.2411,13,left,0.0012,,0.5,0.3,"[1,3,2]",0.783999808,stimuli/card_100_transparent.png,100,13,0,13,0,1,,,,,,,,,,
,,,,656e0dab178ffccdaa47202e,B,2024-06-21_14h06.11.902,Slot Machine Game,2023.1.3,Win32,40,,,,,,,,,,,,,,,,,,,,,,,,,,,820,,,,,,,,,,,,,,,,,,,,,9,10,,,604.5903,14,up,0.5107,,0.5,0.3,"[1,3,2]",0.963274506,stimuli/card_0_transparent.png,0,14,0,14,0,1,,,,,,,,,,
,,,,656e0dab178ffccdaa47202e,B,2024-06-21_14h06.11.902,Slot Machine Game,2023.1.3,Win32,40,,,,,,,,,,,,,,,,,,,,,,,,,,,,,,,,,,,606.4644,,,,,,,,,,,,,,,,,,,,,,,,,,,,,,,,,"[630,1020,650,590,470,840,930,720,820]",8,0,8,0,1,,,,
,,,,656e0dab178ffccdaa47202e,B,2024-06-21_14h06.11.902,Slot Machine Game,2023.1.3,Win32,40,,,,,,,,,,,,,,,,,,,,,,,,,,,100,,,,,,,,,,,,,,,,,,,,,10,3,"[15,15]","[[3,1,2],[3,1,2]]",611.4886,0,up,0.9719,,1,0.3,"[3,1,2]",0.482413062,stimuli/card_100_transparent.png,100,0,0,0,0,1,,,,,,,,,,
,,,,656e0dab178ffccdaa47202e,B,2024-06-21_14h06.11.902,Slot Machine Game,2023.1.3,Win32,40,,,,,,,,,,,,,,,,,,,,,,,,,,,200,,,,,,,,,,,,,,,,,,,,,10,3,,,614.2855,1,up,0.021,,0.5,0.3,"[3,1,2]",0.612683641,stimuli/card_100_transparent.png,100,1,0,1,0,1,,,,,,,,,,
,,,,656e0dab178ffccdaa47202e,B,2024-06-21_14h06.11.902,Slot Machine Game,2023.1.3,Win32,40,,,,,,,,,,,,,,,,,,,,,,,,,,,300,,,,,,,,,,,,,,,,,,,,,10,3,,,615.6659,2,up,0.199,,1,0.3,"[3,1,2]",0.824909424,stimuli/card_100_transparent.png,100,2,0,2,0,1,,,,,,,,,,
,,,,656e0dab178ffccdaa47202e,B,2024-06-21_14h06.11.902,Slot Machine Game,2023.1.3,Win32,40,,,,,,,,,,,,,,,,,,,,,,,,,,,300,,,,,,,,,,,,,,,,,,,,,10,3,,,617.7092,3,up,0.0889,,1.5,0.3,"[3,1,2]",0.094373283,stimuli/card_0_transparent.png,0,3,0,3,0,1,,,,,,,,,,
,,,,656e0dab178ffccdaa47202e,B,2024-06-21_14h06.11.902,Slot Machine Game,2023.1.3,Win32,40,,,,,,,,,,,,,,,,,,,,,,,,,,,300,,,,,,,,,,,,,,,,,,,,,10,3,,,620.1579,4,up,0.1046,,1,0.3,"[3,1,2]",0.019262978,stimuli/card_0_transparent.png,0,4,0,4,0,1,,,,,,,,,,
,,,,656e0dab178ffccdaa47202e,B,2024-06-21_14h06.11.902,Slot Machine Game,2023.1.3,Win32,40,,,,,,,,,,,,,,,,,,,,,,,,,,,310,,,,,,,,,,,,,,,,,,,,,10,3,,,622.132,5,left,0.3734,,1,0.3,"[3,1,2]",0.170198721,stimuli/card_10_transparent.png,10,5,0,5,0,1,,,,,,,,,,
,,,,656e0dab178ffccdaa47202e,B,2024-06-21_14h06.11.902,Slot Machine Game,2023.1.3,Win32,40,,,,,,,,,,,,,,,,,,,,,,,,,,,320,,,,,,,,,,,,,,,,,,,,,10,3,,,624.3561,6,right,0.0062,,1,0.3,"[3,1,2]",0.271841055,stimuli/card_10_transparent.png,10,6,0,6,0,1,,,,,,,,,,
,,,,656e0dab178ffccdaa47202e,B,2024-06-21_14h06.11.902,Slot Machine Game,2023.1.3,Win32,40,,,,,,,,,,,,,,,,,,,,,,,,,,,320,,,,,,,,,,,,,,,,,,,,,10,3,,,626.2112,7,left,0.326,,0.5,0.3,"[3,1,2]",0.606413363,stimuli/card_0_transparent.png,0,7,0,7,0,1,,,,,,,,,,
,,,,656e0dab178ffccdaa47202e,B,2024-06-21_14h06.11.902,Slot Machine Game,2023.1.3,Win32,40,,,,,,,,,,,,,,,,,,,,,,,,,,,420,,,,,,,,,,,,,,,,,,,,,10,3,,,627.8794,8,up,0.3426,,1.5,0.3,"[3,1,2]",0.744561186,stimuli/card_100_transparent.png,100,8,0,8,0,1,,,,,,,,,,
,,,,656e0dab178ffccdaa47202e,B,2024-06-21_14h06.11.902,Slot Machine Game,2023.1.3,Win32,40,,,,,,,,,,,,,,,,,,,,,,,,,,,520,,,,,,,,,,,,,,,,,,,,,10,3,,,630.5781,9,up,0.0013,,0.5,0.3,"[3,1,2]",0.82413655,stimuli/card_100_transparent.png,100,9,0,9,0,1,,,,,,,,,,
,,,,656e0dab178ffccdaa47202e,B,2024-06-21_14h06.11.902,Slot Machine Game,2023.1.3,Win32,40,,,,,,,,,,,,,,,,,,,,,,,,,,,620,,,,,,,,,,,,,,,,,,,,,10,3,,,631.9275,10,up,0.2073,,1.5,0.3,"[3,1,2]",0.288787773,stimuli/card_100_transparent.png,100,10,0,10,0,1,,,,,,,,,,
,,,,656e0dab178ffccdaa47202e,B,2024-06-21_14h06.11.902,Slot Machine Game,2023.1.3,Win32,40,,,,,,,,,,,,,,,,,,,,,,,,,,,720,,,,,,,,,,,,,,,,,,,,,10,3,,,634.5007,11,up,0.0012,,1,0.3,"[3,1,2]",0.802472128,stimuli/card_100_transparent.png,100,11,0,11,0,1,,,,,,,,,,
,,,,656e0dab178ffccdaa47202e,B,2024-06-21_14h06.11.902,Slot Machine Game,2023.1.3,Win32,40,,,,,,,,,,,,,,,,,,,,,,,,,,,820,,,,,,,,,,,,,,,,,,,,,10,3,,,636.3502,12,up,0.4641,,1.5,0.3,"[3,1,2]",0.330443519,stimuli/card_100_transparent.png,100,12,0,12,0,1,,,,,,,,,,
,,,,656e0dab178ffccdaa47202e,B,2024-06-21_14h06.11.902,Slot Machine Game,2023.1.3,Win32,40,,,,,,,,,,,,,,,,,,,,,,,,,,,920,,,,,,,,,,,,,,,,,,,,,10,3,,,639.174,13,up,0.0512,,0.5,0.3,"[3,1,2]",0.268354068,stimuli/card_100_transparent.png,100,13,0,13,0,1,,,,,,,,,,
,,,,656e0dab178ffccdaa47202e,B,2024-06-21_14h06.11.902,Slot Machine Game,2023.1.3,Win32,40,,,,,,,,,,,,,,,,,,,,,,,,,,,920,,,,,,,,,,,,,,,,,,,,,10,3,,,640.5733,14,up,0.3376,,1,0.3,"[3,1,2]",0.084988978,stimuli/card_0_transparent.png,0,14,0,14,0,1,,,,,,,,,,
,,,,656e0dab178ffccdaa47202e,B,2024-06-21_14h06.11.902,Slot Machine Game,2023.1.3,Win32,40,,,,,,,,,,,,,,,,,,,,,,,,,,,,,,,,,,,642.7724,,,,,,,,,,,,,,,,,,,,,,,,,,,,,,,,,"[630,1020,650,590,470,840,930,720,820,920]",9,0,9,0,1,,,,
,,,,656e0dab178ffccdaa47202e,B,2024-06-21_14h06.11.902,Slot Machine Game,2023.1.3,Win32,40,,,,,,,,,,,,,,,,,,,,,,,,,,,,,,,,,,,,,,,,,,,,,,,,,,,,,,,,,,,,,,,,,,,,,,,,,,9,"[630,1020,650,590,470,840,930,720,820,920]",6.3,2024-06-21_14h17.04.134
