key_resp_welcome_started,key_resp_welcome_keys,key_resp_welcome_rt,key_resp_welcome_duration,prolific_id,path_id,date,expName,psychopyVersion,OS,frameRate,key_resp_instruction1_started,key_resp_instruction1_keys,key_resp_instruction1_rt,key_resp_instruction1_duration,key_resp_instruction2_started,key_resp_instruction2_keys,key_resp_instruction2_rt,key_resp_instruction2_duration,key_resp_instruction3_started,key_resp_instruction3_keys,key_resp_instruction3_rt,key_resp_instruction3_duration,key_resp_instruction4_started,key_resp_instruction4_keys,key_resp_instruction4_rt,key_resp_instruction4_duration,practiceCondition,practice_reward_seqs,practice_trial_started,practice_trial_num,practice_resp_rt,practice_resp_duration,practice_resp_keys,prac_presentationInterval,"practice_reward_seq: 2,1,3",reward_img,cumulative_reward,trial_reward,practice_trials.thisRepN,practice_trials.thisTrialN,practice_trials.thisN,practice_trials.thisIndex,practice_trials.ran,"practice_reward_seq: 2,3,1",block_break_started,"practice_reward_seq: 1,3,2","practice_reward_seq: 3,1,2",practice_end_time,practice_end_keys,practice_end_rt,practice_end_duration,main_instruction_text_started,block_condition,block_order_indices,main_instruction_keys,main_instruction_rt,main_instruction_duration,block_number,block_assignment,current_condition,main_reward_seqs,main_trial_started,main_trial_num,main_trial_keys,main_trial_rt,main_trial_duration,main_presentationInterval,reward_presentation_time,main_reward_seq,reward_rand_val,main_reward_img,current_reward,main_trials.thisRepN,main_trials.thisTrialN,main_trials.thisN,main_trials.thisIndex,main_trials.ran,block_reward,block.thisRepN,block.thisTrialN,block.thisN,block.thisIndex,block.ran,block_reward.length,block_reward_all,reward_amount,date_end_task
0.0006,space,3.287,,6595af12ca053a89f8ac44a7,A,2024-07-08_14h40.24.247,Slot Machine Game,2023.1.3,MacIntel,60.60606061,,,,,,,,,,,,,,,,,,,,,,,,,,,,,,,,,,,,,,,,,,,,,,,,,,,,,,,,,,,,,,,,,,,,,,,,,,,,,
,,,,6595af12ca053a89f8ac44a7,A,2024-07-08_14h40.24.247,Slot Machine Game,2023.1.3,MacIntel,60.60606061,3.322,space,3.1815,,,,,,,,,,,,,,,,,,,,,,,,,,,,,,,,,,,,,,,,,,,,,,,,,,,,,,,,,,,,,,,,,,,,,,,,,,
,,,,6595af12ca053a89f8ac44a7,A,2024-07-08_14h40.24.247,Slot Machine Game,2023.1.3,MacIntel,60.60606061,,,,,6.523,space,31.0388,,,,,,,,,,,,,,,,,,,,,,,,,,,,,,,,,,,,,,,,,,,,,,,,,,,,,,,,,,,,,,,,,,,,,,
,,,,6595af12ca053a89f8ac44a7,A,2024-07-08_14h40.24.247,Slot Machine Game,2023.1.3,MacIntel,60.60606061,,,,,,,,,37.5892,right,5.7431,,,,,,,,,,,,,,,,,,,,,,,,,,,,,,,,,,,,,,,,,,,,,,,,,,,,,,,,,,,,,,,,,,
,,,,6595af12ca053a89f8ac44a7,A,2024-07-08_14h40.24.247,Slot Machine Game,2023.1.3,MacIntel,60.60606061,,,,,,,,,,,,,,,,,,,,,,,,,,,,,,,,,,,,,,,,,,,,,,,,,,,,,,,,,,,,,,,,,,,,,,,,,,,,,
,,,,6595af12ca053a89f8ac44a7,A,2024-07-08_14h40.24.247,Slot Machine Game,2023.1.3,MacIntel,60.60606061,,,,,,,,,,,,,185.2495,up,4.1627,,,,,,,,,,,,,,,,,,,,,,,,,,,,,,,,,,,,,,,,,,,,,,,,,,,,,,,,,,,,,,
,,,,6595af12ca053a89f8ac44a7,A,2024-07-08_14h40.24.247,Slot Machine Game,2023.1.3,MacIntel,60.60606061,,,,,,,,,,,,,,,,,"[9,15]","[[2,1,3],[2,3,1]]",189.4995,0,0.7826,,left,1,,stimuli/card_10_transparent.png,10,10,0,0,0,0,1,,,,,,,,,,,,,,,,,,,,,,,,,,,,,,,,,,,,,,,,,,,,
,,,,6595af12ca053a89f8ac44a7,A,2024-07-08_14h40.24.247,Slot Machine Game,2023.1.3,MacIntel,60.60606061,,,,,,,,,,,,,,,,,,,192.1309,1,0.6298,,up,1.5,,stimuli/card_100_transparent.png,110,100,1,0,1,0,1,,,,,,,,,,,,,,,,,,,,,,,,,,,,,,,,,,,,,,,,,,,,
,,,,6595af12ca053a89f8ac44a7,A,2024-07-08_14h40.24.247,Slot Machine Game,2023.1.3,MacIntel,60.60606061,,,,,,,,,,,,,,,,,,,195.0727,2,0.3132,,up,0.5,,stimuli/card_100_transparent.png,210,100,2,0,2,0,1,,,,,,,,,,,,,,,,,,,,,,,,,,,,,,,,,,,,,,,,,,,,
,,,,6595af12ca053a89f8ac44a7,A,2024-07-08_14h40.24.247,Slot Machine Game,2023.1.3,MacIntel,60.60606061,,,,,,,,,,,,,,,,,,,196.6848,3,1.5996,,up,1,,stimuli/card_100_transparent.png,310,100,3,0,3,0,1,,,,,,,,,,,,,,,,,,,,,,,,,,,,,,,,,,,,,,,,,,,,
,,,,6595af12ca053a89f8ac44a7,A,2024-07-08_14h40.24.247,Slot Machine Game,2023.1.3,MacIntel,60.60606061,,,,,,,,,,,,,,,,,,,200.0985,4,0.222,,up,1.5,,stimuli/card_100_transparent.png,410,100,4,0,4,0,1,,,,,,,,,,,,,,,,,,,,,,,,,,,,,,,,,,,,,,,,,,,,
,,,,6595af12ca053a89f8ac44a7,A,2024-07-08_14h40.24.247,Slot Machine Game,2023.1.3,MacIntel,60.60606061,,,,,,,,,,,,,,,,,,,202.6623,5,0.4935,,up,0.5,,stimuli/card_100_transparent.png,510,100,5,0,5,0,1,,,,,,,,,,,,,,,,,,,,,,,,,,,,,,,,,,,,,,,,,,,,
,,,,6595af12ca053a89f8ac44a7,A,2024-07-08_14h40.24.247,Slot Machine Game,2023.1.3,MacIntel,60.60606061,,,,,,,,,,,,,,,,,,,204.4851,6,0.1704,,up,1.5,,stimuli/card_100_transparent.png,610,100,6,0,6,0,1,,,,,,,,,,,,,,,,,,,,,,,,,,,,,,,,,,,,,,,,,,,,
,,,,6595af12ca053a89f8ac44a7,A,2024-07-08_14h40.24.247,Slot Machine Game,2023.1.3,MacIntel,60.60606061,,,,,,,,,,,,,,,,,,,206.9694,7,0.4686,,up,1,,stimuli/card_100_transparent.png,710,100,7,0,7,0,1,,,,,,,,,,,,,,,,,,,,,,,,,,,,,,,,,,,,,,,,,,,,
,,,,6595af12ca053a89f8ac44a7,A,2024-07-08_14h40.24.247,Slot Machine Game,2023.1.3,MacIntel,60.60606061,,,,,,,,,,,,,,,,,,,209.2526,8,0.1201,,up,1.5,,stimuli/card_100_transparent.png,810,100,8,0,8,0,1,,,,,,,,,,,,,,,,,,,,,,,,,,,,,,,,,,,,,,,,,,,,
,,,,6595af12ca053a89f8ac44a7,A,2024-07-08_14h40.24.247,Slot Machine Game,2023.1.3,MacIntel,60.60606061,,,,,,,,,,,,,,,,,,,211.6864,9,0.0009,,up,1,,stimuli/card_0_transparent.png,810,0,9,0,9,0,1,,,,,,,,,,,,,,,,,,,,,,,,,,,,,,,,,,,,,,,,,,,,
,,,,6595af12ca053a89f8ac44a7,A,2024-07-08_14h40.24.247,Slot Machine Game,2023.1.3,MacIntel,60.60606061,,,,,,,,,,,,,,,,,,,213.5203,10,2.5807,,up,0.5,,stimuli/card_0_transparent.png,810,0,10,0,10,0,1,,,,,,,,,,,,,,,,,,,,,,,,,,,,,,,,,,,,,,,,,,,,
,,,,6595af12ca053a89f8ac44a7,A,2024-07-08_14h40.24.247,Slot Machine Game,2023.1.3,MacIntel,60.60606061,,,,,,,,,,,,,,,,,,,217.4359,11,0.8116,,right,1,,stimuli/card_100_transparent.png,910,100,11,0,11,0,1,,,,,,,,,,,,,,,,,,,,,,,,,,,,,,,,,,,,,,,,,,,,
,,,,6595af12ca053a89f8ac44a7,A,2024-07-08_14h40.24.247,Slot Machine Game,2023.1.3,MacIntel,60.60606061,,,,,,,,,,,,,,,,,,,220.0526,12,0.0294,,right,1.5,,stimuli/card_100_transparent.png,1010,100,12,0,12,0,1,,,,,,,,,,,,,,,,,,,,,,,,,,,,,,,,,,,,,,,,,,,,
,,,,6595af12ca053a89f8ac44a7,A,2024-07-08_14h40.24.247,Slot Machine Game,2023.1.3,MacIntel,60.60606061,,,,,,,,,,,,,,,,,,,222.409,13,0.5535,,right,0.5,,stimuli/card_100_transparent.png,1110,100,13,0,13,0,1,,,,,,,,,,,,,,,,,,,,,,,,,,,,,,,,,,,,,,,,,,,,
,,,,6595af12ca053a89f8ac44a7,A,2024-07-08_14h40.24.247,Slot Machine Game,2023.1.3,MacIntel,60.60606061,,,,,,,,,,,,,,,,,,,224.3019,14,0.4337,,right,1,,stimuli/card_10_transparent.png,1120,10,14,0,14,0,1,,,,,,,,,,,,,,,,,,,,,,,,,,,,,,,,,,,,,,,,,,,,
,,,,6595af12ca053a89f8ac44a7,A,2024-07-08_14h40.24.247,Slot Machine Game,2023.1.3,MacIntel,60.60606061,,,,,,,,,,,,,,,,,"[6,15]","[[1,3,2],[3,1,2]]",231.6094,0,1.244,,left,0.5,,stimuli/card_10_transparent.png,10,10,0,0,0,0,1,,226.59,,,,,,,,,,,,,,,,,,,,,,,,,,,,,,,,,,,,,,,,,,
,,,,6595af12ca053a89f8ac44a7,A,2024-07-08_14h40.24.247,Slot Machine Game,2023.1.3,MacIntel,60.60606061,,,,,,,,,,,,,,,,,,,234.1856,1,0.1,,up,0.5,,stimuli/card_10_transparent.png,20,10,1,0,1,0,1,,,,,,,,,,,,,,,,,,,,,,,,,,,,,,,,,,,,,,,,,,,,
,,,,6595af12ca053a89f8ac44a7,A,2024-07-08_14h40.24.247,Slot Machine Game,2023.1.3,MacIntel,60.60606061,,,,,,,,,,,,,,,,,,,235.6174,2,0.0994,,right,1,,stimuli/card_10_transparent.png,30,10,2,0,2,0,1,,,,,,,,,,,,,,,,,,,,,,,,,,,,,,,,,,,,,,,,,,,,
,,,,6595af12ca053a89f8ac44a7,A,2024-07-08_14h40.24.247,Slot Machine Game,2023.1.3,MacIntel,60.60606061,,,,,,,,,,,,,,,,,,,237.5397,3,1.0806,,left,1.5,,stimuli/card_100_transparent.png,130,100,3,0,3,0,1,,,,,,,,,,,,,,,,,,,,,,,,,,,,,,,,,,,,,,,,,,,,
,,,,6595af12ca053a89f8ac44a7,A,2024-07-08_14h40.24.247,Slot Machine Game,2023.1.3,MacIntel,60.60606061,,,,,,,,,,,,,,,,,,,240.9242,4,0.1503,,left,1,,stimuli/card_100_transparent.png,230,100,4,0,4,0,1,,,,,,,,,,,,,,,,,,,,,,,,,,,,,,,,,,,,,,,,,,,,
,,,,6595af12ca053a89f8ac44a7,A,2024-07-08_14h40.24.247,Slot Machine Game,2023.1.3,MacIntel,60.60606061,,,,,,,,,,,,,,,,,,,242.8863,5,0.6817,,left,0.5,,stimuli/card_100_transparent.png,330,100,5,0,5,0,1,,,,,,,,,,,,,,,,,,,,,,,,,,,,,,,,,,,,,,,,,,,,
,,,,6595af12ca053a89f8ac44a7,A,2024-07-08_14h40.24.247,Slot Machine Game,2023.1.3,MacIntel,60.60606061,,,,,,,,,,,,,,,,,,,244.903,6,0.4349,,left,1,,stimuli/card_0_transparent.png,330,0,6,0,6,0,1,,,,,,,,,,,,,,,,,,,,,,,,,,,,,,,,,,,,,,,,,,,,
,,,,6595af12ca053a89f8ac44a7,A,2024-07-08_14h40.24.247,Slot Machine Game,2023.1.3,MacIntel,60.60606061,,,,,,,,,,,,,,,,,,,247.1715,7,0.5908,,up,0.5,,stimuli/card_100_transparent.png,430,100,7,0,7,0,1,,,,,,,,,,,,,,,,,,,,,,,,,,,,,,,,,,,,,,,,,,,,
,,,,6595af12ca053a89f8ac44a7,A,2024-07-08_14h40.24.247,Slot Machine Game,2023.1.3,MacIntel,60.60606061,,,,,,,,,,,,,,,,,,,249.0696,8,0.64,,up,1,,stimuli/card_10_transparent.png,440,10,8,0,8,0,1,,,,,,,,,,,,,,,,,,,,,,,,,,,,,,,,,,,,,,,,,,,,
,,,,6595af12ca053a89f8ac44a7,A,2024-07-08_14h40.24.247,Slot Machine Game,2023.1.3,MacIntel,60.60606061,,,,,,,,,,,,,,,,,,,251.5375,9,1.5529,,up,1.5,,stimuli/card_100_transparent.png,540,100,9,0,9,0,1,,,,,,,,,,,,,,,,,,,,,,,,,,,,,,,,,,,,,,,,,,,,
,,,,6595af12ca053a89f8ac44a7,A,2024-07-08_14h40.24.247,Slot Machine Game,2023.1.3,MacIntel,60.60606061,,,,,,,,,,,,,,,,,,,255.4248,10,0.3012,,up,0.5,,stimuli/card_100_transparent.png,640,100,10,0,10,0,1,,,,,,,,,,,,,,,,,,,,,,,,,,,,,,,,,,,,,,,,,,,,
,,,,6595af12ca053a89f8ac44a7,A,2024-07-08_14h40.24.247,Slot Machine Game,2023.1.3,MacIntel,60.60606061,,,,,,,,,,,,,,,,,,,257.0472,11,0.7804,,up,0.5,,stimuli/card_100_transparent.png,740,100,11,0,11,0,1,,,,,,,,,,,,,,,,,,,,,,,,,,,,,,,,,,,,,,,,,,,,
,,,,6595af12ca053a89f8ac44a7,A,2024-07-08_14h40.24.247,Slot Machine Game,2023.1.3,MacIntel,60.60606061,,,,,,,,,,,,,,,,,,,259.1362,12,0.322,,up,1,,stimuli/card_10_transparent.png,750,10,12,0,12,0,1,,,,,,,,,,,,,,,,,,,,,,,,,,,,,,,,,,,,,,,,,,,,
,,,,6595af12ca053a89f8ac44a7,A,2024-07-08_14h40.24.247,Slot Machine Game,2023.1.3,MacIntel,60.60606061,,,,,,,,,,,,,,,,,,,261.2857,13,0.0009,,up,1,,stimuli/card_100_transparent.png,850,100,13,0,13,0,1,,,,,,,,,,,,,,,,,,,,,,,,,,,,,,,,,,,,,,,,,,,,
,,,,6595af12ca053a89f8ac44a7,A,2024-07-08_14h40.24.247,Slot Machine Game,2023.1.3,MacIntel,60.60606061,,,,,,,,,,,,,,,,,,,263.114,14,0.0898,,up,1,,stimuli/card_100_transparent.png,950,100,14,0,14,0,1,,,,,,,,,,,,,,,,,,,,,,,,,,,,,,,,,,,,,,,,,,,,
,,,,6595af12ca053a89f8ac44a7,A,2024-07-08_14h40.24.247,Slot Machine Game,2023.1.3,MacIntel,60.60606061,,,,,,,,,,,,,,,,,,,,,,,,,,,,,,,,,,,265.0247,,,270.0229,space,2.5935,,,,,,,,,,,,,,,,,,,,,,,,,,,,,,,,,,,,,
,,,,6595af12ca053a89f8ac44a7,A,2024-07-08_14h40.24.247,Slot Machine Game,2023.1.3,MacIntel,60.60606061,,,,,,,,,,,,,,,,,,,,,,,,,,,,,,,,,,,,,,,,,,272.6468,1,"[0,1,2,3,4,5,6,7,8,9]",space,1.3601,,,,,,,,,,,,,,,,,,,,,,,,,,,,,,,
,,,,6595af12ca053a89f8ac44a7,A,2024-07-08_14h40.24.247,Slot Machine Game,2023.1.3,MacIntel,60.60606061,,,,,,,,,,,,,,,,,,,,,,,,,,,0,,,,,,,,,,,,,,,,,,,,,1,1,"[12,15]","[[2,1,3],[2,3,1]]",274.1078,0,left,0.3115,,0.5,0.3,"[2,1,3]",0.07927759,stimuli/card_0_transparent.png,0,0,0,0,0,1,,,,,,,,,,
,,,,6595af12ca053a89f8ac44a7,A,2024-07-08_14h40.24.247,Slot Machine Game,2023.1.3,MacIntel,60.60606061,,,,,,,,,,,,,,,,,,,,,,,,,,,100,,,,,,,,,,,,,,,,,,,,,1,1,,,275.7407,1,up,0.2634,,1,0.3,"[2,1,3]",0.740898556,stimuli/card_100_transparent.png,100,1,0,1,0,1,,,,,,,,,,
,,,,6595af12ca053a89f8ac44a7,A,2024-07-08_14h40.24.247,Slot Machine Game,2023.1.3,MacIntel,60.60606061,,,,,,,,,,,,,,,,,,,,,,,,,,,200,,,,,,,,,,,,,,,,,,,,,1,1,,,277.836,2,up,0.5741,,1,0.3,"[2,1,3]",0.517743029,stimuli/card_100_transparent.png,100,2,0,2,0,1,,,,,,,,,,
,,,,6595af12ca053a89f8ac44a7,A,2024-07-08_14h40.24.247,Slot Machine Game,2023.1.3,MacIntel,60.60606061,,,,,,,,,,,,,,,,,,,,,,,,,,,300,,,,,,,,,,,,,,,,,,,,,1,1,,,280.2356,3,up,0.2603,,0.5,0.3,"[2,1,3]",0.750916519,stimuli/card_100_transparent.png,100,3,0,3,0,1,,,,,,,,,,
,,,,6595af12ca053a89f8ac44a7,A,2024-07-08_14h40.24.247,Slot Machine Game,2023.1.3,MacIntel,60.60606061,,,,,,,,,,,,,,,,,,,,,,,,,,,400,,,,,,,,,,,,,,,,,,,,,1,1,,,281.7979,4,up,0.416,,1.5,0.3,"[2,1,3]",0.343270695,stimuli/card_100_transparent.png,100,4,0,4,0,1,,,,,,,,,,
,,,,6595af12ca053a89f8ac44a7,A,2024-07-08_14h40.24.247,Slot Machine Game,2023.1.3,MacIntel,60.60606061,,,,,,,,,,,,,,,,,,,,,,,,,,,500,,,,,,,,,,,,,,,,,,,,,1,1,,,284.5197,5,up,0.0194,,0.5,0.3,"[2,1,3]",0.919082226,stimuli/card_100_transparent.png,100,5,0,5,0,1,,,,,,,,,,
,,,,6595af12ca053a89f8ac44a7,A,2024-07-08_14h40.24.247,Slot Machine Game,2023.1.3,MacIntel,60.60606061,,,,,,,,,,,,,,,,,,,,,,,,,,,600,,,,,,,,,,,,,,,,,,,,,1,1,,,285.8623,6,up,2.2003,,0.5,0.3,"[2,1,3]",0.511062304,stimuli/card_100_transparent.png,100,6,0,6,0,1,,,,,,,,,,
,,,,6595af12ca053a89f8ac44a7,A,2024-07-08_14h40.24.247,Slot Machine Game,2023.1.3,MacIntel,60.60606061,,,,,,,,,,,,,,,,,,,,,,,,,,,610,,,,,,,,,,,,,,,,,,,,,1,1,,,289.3672,7,up,0.2909,,0.5,0.3,"[2,1,3]",0.160693946,stimuli/card_10_transparent.png,10,7,0,7,0,1,,,,,,,,,,
,,,,6595af12ca053a89f8ac44a7,A,2024-07-08_14h40.24.247,Slot Machine Game,2023.1.3,MacIntel,60.60606061,,,,,,,,,,,,,,,,,,,,,,,,,,,710,,,,,,,,,,,,,,,,,,,,,1,1,,,290.9599,8,up,0.048,,1.5,0.3,"[2,1,3]",0.652217438,stimuli/card_100_transparent.png,100,8,0,8,0,1,,,,,,,,,,
,,,,6595af12ca053a89f8ac44a7,A,2024-07-08_14h40.24.247,Slot Machine Game,2023.1.3,MacIntel,60.60606061,,,,,,,,,,,,,,,,,,,,,,,,,,,810,,,,,,,,,,,,,,,,,,,,,1,1,,,293.3115,9,up,0.0529,,1.5,0.3,"[2,1,3]",0.272251405,stimuli/card_100_transparent.png,100,9,0,9,0,1,,,,,,,,,,
,,,,6595af12ca053a89f8ac44a7,A,2024-07-08_14h40.24.247,Slot Machine Game,2023.1.3,MacIntel,60.60606061,,,,,,,,,,,,,,,,,,,,,,,,,,,910,,,,,,,,,,,,,,,,,,,,,1,1,,,295.6458,10,up,1.5764,,1.5,0.3,"[2,1,3]",0.425597264,stimuli/card_100_transparent.png,100,10,0,10,0,1,,,,,,,,,,
,,,,6595af12ca053a89f8ac44a7,A,2024-07-08_14h40.24.247,Slot Machine Game,2023.1.3,MacIntel,60.60606061,,,,,,,,,,,,,,,,,,,,,,,,,,,1010,,,,,,,,,,,,,,,,,,,,,1,1,,,299.5352,11,up,1.4522,,1,0.3,"[2,1,3]",0.590799854,stimuli/card_100_transparent.png,100,11,0,11,0,1,,,,,,,,,,
,,,,6595af12ca053a89f8ac44a7,A,2024-07-08_14h40.24.247,Slot Machine Game,2023.1.3,MacIntel,60.60606061,,,,,,,,,,,,,,,,,,,,,,,,,,,1010,,,,,,,,,,,,,,,,,,,,,1,1,,,302.7739,12,up,0.142,,1.5,0.3,"[2,3,1]",0.746542329,stimuli/card_0_transparent.png,0,12,0,12,0,1,,,,,,,,,,
,,,,6595af12ca053a89f8ac44a7,A,2024-07-08_14h40.24.247,Slot Machine Game,2023.1.3,MacIntel,60.60606061,,,,,,,,,,,,,,,,,,,,,,,,,,,1110,,,,,,,,,,,,,,,,,,,,,1,1,,,305.2106,13,up,0.969,,1.5,0.3,"[2,3,1]",0.099843908,stimuli/card_100_transparent.png,100,13,0,13,0,1,,,,,,,,,,
,,,,6595af12ca053a89f8ac44a7,A,2024-07-08_14h40.24.247,Slot Machine Game,2023.1.3,MacIntel,60.60606061,,,,,,,,,,,,,,,,,,,,,,,,,,,1110,,,,,,,,,,,,,,,,,,,,,1,1,,,308.5022,14,up,0.0009,,1.5,0.3,"[2,3,1]",0.656057745,stimuli/card_0_transparent.png,0,14,0,14,0,1,,,,,,,,,,
,,,,6595af12ca053a89f8ac44a7,A,2024-07-08_14h40.24.247,Slot Machine Game,2023.1.3,MacIntel,60.60606061,,,,,,,,,,,,,,,,,,,,,,,,,,,,,,,,,,,310.8153,,,,,,,,,,,,,,,,,,,,,,,,,,,,,,,,,[1110],0,0,0,0,1,,,,
,,,,6595af12ca053a89f8ac44a7,A,2024-07-08_14h40.24.247,Slot Machine Game,2023.1.3,MacIntel,60.60606061,,,,,,,,,,,,,,,,,,,,,,,,,,,0,,,,,,,,,,,,,,,,,,,,,2,2,"[6,15]","[[1,3,2],[3,2,1]]",315.8411,0,left,0.6389,,1,0.3,"[1,3,2]",0.028930801,stimuli/card_0_transparent.png,0,0,0,0,0,1,,,,,,,,,,
,,,,6595af12ca053a89f8ac44a7,A,2024-07-08_14h40.24.247,Slot Machine Game,2023.1.3,MacIntel,60.60606061,,,,,,,,,,,,,,,,,,,,,,,,,,,10,,,,,,,,,,,,,,,,,,,,,2,2,,,318.2868,1,up,0.4411,,1,0.3,"[1,3,2]",0.10332948,stimuli/card_10_transparent.png,10,1,0,1,0,1,,,,,,,,,,
,,,,6595af12ca053a89f8ac44a7,A,2024-07-08_14h40.24.247,Slot Machine Game,2023.1.3,MacIntel,60.60606061,,,,,,,,,,,,,,,,,,,,,,,,,,,20,,,,,,,,,,,,,,,,,,,,,2,2,,,320.5402,2,right,0.5069,,0.5,0.3,"[1,3,2]",0.94127344,stimuli/card_10_transparent.png,10,2,0,2,0,1,,,,,,,,,,
,,,,6595af12ca053a89f8ac44a7,A,2024-07-08_14h40.24.247,Slot Machine Game,2023.1.3,MacIntel,60.60606061,,,,,,,,,,,,,,,,,,,,,,,,,,,20,,,,,,,,,,,,,,,,,,,,,2,2,,,322.3724,3,up,1.0415,,0.5,0.3,"[1,3,2]",0.458481885,stimuli/card_0_transparent.png,0,3,0,3,0,1,,,,,,,,,,
,,,,6595af12ca053a89f8ac44a7,A,2024-07-08_14h40.24.247,Slot Machine Game,2023.1.3,MacIntel,60.60606061,,,,,,,,,,,,,,,,,,,,,,,,,,,20,,,,,,,,,,,,,,,,,,,,,2,2,,,324.7462,4,right,0.4739,,1.5,0.3,"[1,3,2]",0.043197726,stimuli/card_0_transparent.png,0,4,0,4,0,1,,,,,,,,,,
,,,,6595af12ca053a89f8ac44a7,A,2024-07-08_14h40.24.247,Slot Machine Game,2023.1.3,MacIntel,60.60606061,,,,,,,,,,,,,,,,,,,,,,,,,,,120,,,,,,,,,,,,,,,,,,,,,2,2,,,327.5392,5,left,0.511,,0.5,0.3,"[1,3,2]",0.518556902,stimuli/card_100_transparent.png,100,5,0,5,0,1,,,,,,,,,,
,,,,6595af12ca053a89f8ac44a7,A,2024-07-08_14h40.24.247,Slot Machine Game,2023.1.3,MacIntel,60.60606061,,,,,,,,,,,,,,,,,,,,,,,,,,,120,,,,,,,,,,,,,,,,,,,,,2,2,,,329.3845,6,left,0.703,,0.5,0.3,"[3,2,1]",0.462551072,stimuli/card_0_transparent.png,0,6,0,6,0,1,,,,,,,,,,
,,,,6595af12ca053a89f8ac44a7,A,2024-07-08_14h40.24.247,Slot Machine Game,2023.1.3,MacIntel,60.60606061,,,,,,,,,,,,,,,,,,,,,,,,,,,120,,,,,,,,,,,,,,,,,,,,,2,2,,,331.4149,7,left,0.5837,,0.5,0.3,"[3,2,1]",0.612549755,stimuli/card_0_transparent.png,0,7,0,7,0,1,,,,,,,,,,
,,,,6595af12ca053a89f8ac44a7,A,2024-07-08_14h40.24.247,Slot Machine Game,2023.1.3,MacIntel,60.60606061,,,,,,,,,,,,,,,,,,,,,,,,,,,220,,,,,,,,,,,,,,,,,,,,,2,2,,,333.307,8,left,0.1319,,0.5,0.3,"[3,2,1]",0.05304808,stimuli/card_100_transparent.png,100,8,0,8,0,1,,,,,,,,,,
,,,,6595af12ca053a89f8ac44a7,A,2024-07-08_14h40.24.247,Slot Machine Game,2023.1.3,MacIntel,60.60606061,,,,,,,,,,,,,,,,,,,,,,,,,,,220,,,,,,,,,,,,,,,,,,,,,2,2,,,334.7685,9,left,0.1015,,1.5,0.3,"[3,2,1]",0.341235823,stimuli/card_0_transparent.png,0,9,0,9,0,1,,,,,,,,,,
,,,,6595af12ca053a89f8ac44a7,A,2024-07-08_14h40.24.247,Slot Machine Game,2023.1.3,MacIntel,60.60606061,,,,,,,,,,,,,,,,,,,,,,,,,,,220,,,,,,,,,,,,,,,,,,,,,2,2,,,337.2119,10,left,0.5006,,1,0.3,"[3,2,1]",0.277380285,stimuli/card_0_transparent.png,0,10,0,10,0,1,,,,,,,,,,
,,,,6595af12ca053a89f8ac44a7,A,2024-07-08_14h40.24.247,Slot Machine Game,2023.1.3,MacIntel,60.60606061,,,,,,,,,,,,,,,,,,,,,,,,,,,230,,,,,,,,,,,,,,,,,,,,,2,2,,,339.5239,11,up,0.4731,,0.5,0.3,"[3,2,1]",0.599357706,stimuli/card_10_transparent.png,10,11,0,11,0,1,,,,,,,,,,
,,,,6595af12ca053a89f8ac44a7,A,2024-07-08_14h40.24.247,Slot Machine Game,2023.1.3,MacIntel,60.60606061,,,,,,,,,,,,,,,,,,,,,,,,,,,240,,,,,,,,,,,,,,,,,,,,,2,2,,,341.3175,12,up,0.5323,,1.5,0.3,"[3,2,1]",0.817353692,stimuli/card_10_transparent.png,10,12,0,12,0,1,,,,,,,,,,
,,,,6595af12ca053a89f8ac44a7,A,2024-07-08_14h40.24.247,Slot Machine Game,2023.1.3,MacIntel,60.60606061,,,,,,,,,,,,,,,,,,,,,,,,,,,250,,,,,,,,,,,,,,,,,,,,,2,2,,,344.1809,13,up,0.3929,,1,0.3,"[3,2,1]",0.696995486,stimuli/card_10_transparent.png,10,13,0,13,0,1,,,,,,,,,,
,,,,6595af12ca053a89f8ac44a7,A,2024-07-08_14h40.24.247,Slot Machine Game,2023.1.3,MacIntel,60.60606061,,,,,,,,,,,,,,,,,,,,,,,,,,,250,,,,,,,,,,,,,,,,,,,,,2,2,,,346.4021,14,right,0.5111,,1,0.3,"[3,2,1]",0.006180258,stimuli/card_0_transparent.png,0,14,0,14,0,1,,,,,,,,,,
,,,,6595af12ca053a89f8ac44a7,A,2024-07-08_14h40.24.247,Slot Machine Game,2023.1.3,MacIntel,60.60606061,,,,,,,,,,,,,,,,,,,,,,,,,,,,,,,,,,,348.7251,,,,,,,,,,,,,,,,,,,,,,,,,,,,,,,,,"[1110,250]",1,0,1,0,1,,,,
,,,,6595af12ca053a89f8ac44a7,A,2024-07-08_14h40.24.247,Slot Machine Game,2023.1.3,MacIntel,60.60606061,,,,,,,,,,,,,,,,,,,,,,,,,,,0,,,,,,,,,,,,,,,,,,,,,3,3,"[15,15]","[[3,1,2],[3,1,2]]",353.7573,0,left,2.0768,,0.5,0.3,"[3,1,2]",0.42974442,stimuli/card_0_transparent.png,0,0,0,0,0,1,,,,,,,,,,
,,,,6595af12ca053a89f8ac44a7,A,2024-07-08_14h40.24.247,Slot Machine Game,2023.1.3,MacIntel,60.60606061,,,,,,,,,,,,,,,,,,,,,,,,,,,100,,,,,,,,,,,,,,,,,,,,,3,3,,,357.124,1,up,0.0303,,0.5,0.3,"[3,1,2]",0.887140477,stimuli/card_100_transparent.png,100,1,0,1,0,1,,,,,,,,,,
,,,,6595af12ca053a89f8ac44a7,A,2024-07-08_14h40.24.247,Slot Machine Game,2023.1.3,MacIntel,60.60606061,,,,,,,,,,,,,,,,,,,,,,,,,,,200,,,,,,,,,,,,,,,,,,,,,3,3,,,358.4584,2,up,1.4569,,1.5,0.3,"[3,1,2]",0.29648615,stimuli/card_100_transparent.png,100,2,0,2,0,1,,,,,,,,,,
,,,,6595af12ca053a89f8ac44a7,A,2024-07-08_14h40.24.247,Slot Machine Game,2023.1.3,MacIntel,60.60606061,,,,,,,,,,,,,,,,,,,,,,,,,,,300,,,,,,,,,,,,,,,,,,,,,3,3,,,362.2423,3,up,1.3628,,1.5,0.3,"[3,1,2]",0.593232353,stimuli/card_100_transparent.png,100,3,0,3,0,1,,,,,,,,,,
,,,,6595af12ca053a89f8ac44a7,A,2024-07-08_14h40.24.247,Slot Machine Game,2023.1.3,MacIntel,60.60606061,,,,,,,,,,,,,,,,,,,,,,,,,,,300,,,,,,,,,,,,,,,,,,,,,3,3,,,365.9675,4,up,0.4322,,0.5,0.3,"[3,1,2]",0.00318165,stimuli/card_0_transparent.png,0,4,0,4,0,1,,,,,,,,,,
,,,,6595af12ca053a89f8ac44a7,A,2024-07-08_14h40.24.247,Slot Machine Game,2023.1.3,MacIntel,60.60606061,,,,,,,,,,,,,,,,,,,,,,,,,,,400,,,,,,,,,,,,,,,,,,,,,3,3,,,367.7095,5,up,0.558,,1,0.3,"[3,1,2]",0.703247201,stimuli/card_100_transparent.png,100,5,0,5,0,1,,,,,,,,,,
,,,,6595af12ca053a89f8ac44a7,A,2024-07-08_14h40.24.247,Slot Machine Game,2023.1.3,MacIntel,60.60606061,,,,,,,,,,,,,,,,,,,,,,,,,,,500,,,,,,,,,,,,,,,,,,,,,3,3,,,370.1128,6,up,0.3007,,1.5,0.3,"[3,1,2]",0.815109693,stimuli/card_100_transparent.png,100,6,0,6,0,1,,,,,,,,,,
,,,,6595af12ca053a89f8ac44a7,A,2024-07-08_14h40.24.247,Slot Machine Game,2023.1.3,MacIntel,60.60606061,,,,,,,,,,,,,,,,,,,,,,,,,,,600,,,,,,,,,,,,,,,,,,,,,3,3,,,372.7235,7,up,0.1611,,1,0.3,"[3,1,2]",0.502683285,stimuli/card_100_transparent.png,100,7,0,7,0,1,,,,,,,,,,
,,,,6595af12ca053a89f8ac44a7,A,2024-07-08_14h40.24.247,Slot Machine Game,2023.1.3,MacIntel,60.60606061,,,,,,,,,,,,,,,,,,,,,,,,,,,700,,,,,,,,,,,,,,,,,,,,,3,3,,,374.7156,8,up,0.6232,,0.5,0.3,"[3,1,2]",0.344267709,stimuli/card_100_transparent.png,100,8,0,8,0,1,,,,,,,,,,
,,,,6595af12ca053a89f8ac44a7,A,2024-07-08_14h40.24.247,Slot Machine Game,2023.1.3,MacIntel,60.60606061,,,,,,,,,,,,,,,,,,,,,,,,,,,710,,,,,,,,,,,,,,,,,,,,,3,3,,,376.6659,9,up,0.2482,,0.5,0.3,"[3,1,2]",0.117063529,stimuli/card_10_transparent.png,10,9,0,9,0,1,,,,,,,,,,
,,,,6595af12ca053a89f8ac44a7,A,2024-07-08_14h40.24.247,Slot Machine Game,2023.1.3,MacIntel,60.60606061,,,,,,,,,,,,,,,,,,,,,,,,,,,810,,,,,,,,,,,,,,,,,,,,,3,3,,,378.206,10,up,0.0866,,1.5,0.3,"[3,1,2]",0.496832588,stimuli/card_100_transparent.png,100,10,0,10,0,1,,,,,,,,,,
,,,,6595af12ca053a89f8ac44a7,A,2024-07-08_14h40.24.247,Slot Machine Game,2023.1.3,MacIntel,60.60606061,,,,,,,,,,,,,,,,,,,,,,,,,,,820,,,,,,,,,,,,,,,,,,,,,3,3,,,380.6188,11,up,0.4605,,1.5,0.3,"[3,1,2]",0.188386439,stimuli/card_10_transparent.png,10,11,0,11,0,1,,,,,,,,,,
,,,,6595af12ca053a89f8ac44a7,A,2024-07-08_14h40.24.247,Slot Machine Game,2023.1.3,MacIntel,60.60606061,,,,,,,,,,,,,,,,,,,,,,,,,,,820,,,,,,,,,,,,,,,,,,,,,3,3,,,383.4411,12,up,0.425,,0.5,0.3,"[3,1,2]",0.070840369,stimuli/card_0_transparent.png,0,12,0,12,0,1,,,,,,,,,,
,,,,6595af12ca053a89f8ac44a7,A,2024-07-08_14h40.24.247,Slot Machine Game,2023.1.3,MacIntel,60.60606061,,,,,,,,,,,,,,,,,,,,,,,,,,,920,,,,,,,,,,,,,,,,,,,,,3,3,,,385.2148,13,up,0.1081,,0.5,0.3,"[3,1,2]",0.529069499,stimuli/card_100_transparent.png,100,13,0,13,0,1,,,,,,,,,,
,,,,6595af12ca053a89f8ac44a7,A,2024-07-08_14h40.24.247,Slot Machine Game,2023.1.3,MacIntel,60.60606061,,,,,,,,,,,,,,,,,,,,,,,,,,,930,,,,,,,,,,,,,,,,,,,,,3,3,,,386.6173,14,up,0.0547,,0.5,0.3,"[3,1,2]",0.12749238,stimuli/card_10_transparent.png,10,14,0,14,0,1,,,,,,,,,,
,,,,6595af12ca053a89f8ac44a7,A,2024-07-08_14h40.24.247,Slot Machine Game,2023.1.3,MacIntel,60.60606061,,,,,,,,,,,,,,,,,,,,,,,,,,,,,,,,,,,388.003,,,,,,,,,,,,,,,,,,,,,,,,,,,,,,,,,"[1110,250,930]",2,0,2,0,1,,,,
,,,,6595af12ca053a89f8ac44a7,A,2024-07-08_14h40.24.247,Slot Machine Game,2023.1.3,MacIntel,60.60606061,,,,,,,,,,,,,,,,,,,,,,,,,,,10,,,,,,,,,,,,,,,,,,,,,4,4,"[7,15]","[[2,3,1],[1,2,3]]",393.034,0,left,0.6303,,1,0.3,"[2,3,1]",0.906728461,stimuli/card_10_transparent.png,10,0,0,0,0,1,,,,,,,,,,
,,,,6595af12ca053a89f8ac44a7,A,2024-07-08_14h40.24.247,Slot Machine Game,2023.1.3,MacIntel,60.60606061,,,,,,,,,,,,,,,,,,,,,,,,,,,20,,,,,,,,,,,,,,,,,,,,,4,4,,,395.4424,1,left,0.5192,,1.5,0.3,"[2,3,1]",0.385280148,stimuli/card_10_transparent.png,10,1,0,1,0,1,,,,,,,,,,
,,,,6595af12ca053a89f8ac44a7,A,2024-07-08_14h40.24.247,Slot Machine Game,2023.1.3,MacIntel,60.60606061,,,,,,,,,,,,,,,,,,,,,,,,,,,20,,,,,,,,,,,,,,,,,,,,,4,4,,,398.2713,2,up,0.2033,,0.5,0.3,"[2,3,1]",0.368246575,stimuli/card_0_transparent.png,0,2,0,2,0,1,,,,,,,,,,
,,,,6595af12ca053a89f8ac44a7,A,2024-07-08_14h40.24.247,Slot Machine Game,2023.1.3,MacIntel,60.60606061,,,,,,,,,,,,,,,,,,,,,,,,,,,120,,,,,,,,,,,,,,,,,,,,,4,4,,,399.8084,3,right,0.4413,,0.5,0.3,"[2,3,1]",0.431511882,stimuli/card_100_transparent.png,100,3,0,3,0,1,,,,,,,,,,
,,,,6595af12ca053a89f8ac44a7,A,2024-07-08_14h40.24.247,Slot Machine Game,2023.1.3,MacIntel,60.60606061,,,,,,,,,,,,,,,,,,,,,,,,,,,120,,,,,,,,,,,,,,,,,,,,,4,4,,,401.5937,4,right,0.3816,,1,0.3,"[2,3,1]",0.069051372,stimuli/card_0_transparent.png,0,4,0,4,0,1,,,,,,,,,,
,,,,6595af12ca053a89f8ac44a7,A,2024-07-08_14h40.24.247,Slot Machine Game,2023.1.3,MacIntel,60.60606061,,,,,,,,,,,,,,,,,,,,,,,,,,,130,,,,,,,,,,,,,,,,,,,,,4,4,,,403.8169,5,right,0.1215,,0.5,0.3,"[2,3,1]",0.189147366,stimuli/card_10_transparent.png,10,5,0,5,0,1,,,,,,,,,,
,,,,6595af12ca053a89f8ac44a7,A,2024-07-08_14h40.24.247,Slot Machine Game,2023.1.3,MacIntel,60.60606061,,,,,,,,,,,,,,,,,,,,,,,,,,,230,,,,,,,,,,,,,,,,,,,,,4,4,,,405.2394,6,right,0.1689,,1,0.3,"[2,3,1]",0.476642757,stimuli/card_100_transparent.png,100,6,0,6,0,1,,,,,,,,,,
,,,,6595af12ca053a89f8ac44a7,A,2024-07-08_14h40.24.247,Slot Machine Game,2023.1.3,MacIntel,60.60606061,,,,,,,,,,,,,,,,,,,,,,,,,,,230,,,,,,,,,,,,,,,,,,,,,4,4,,,407.2407,7,right,0.6031,,0.5,0.3,"[1,2,3]",0.491497186,stimuli/card_0_transparent.png,0,7,0,7,0,1,,,,,,,,,,
,,,,6595af12ca053a89f8ac44a7,A,2024-07-08_14h40.24.247,Slot Machine Game,2023.1.3,MacIntel,60.60606061,,,,,,,,,,,,,,,,,,,,,,,,,,,230,,,,,,,,,,,,,,,,,,,,,4,4,,,409.1638,8,right,0.0007,,1,0.3,"[1,2,3]",0.757891167,stimuli/card_0_transparent.png,0,8,0,8,0,1,,,,,,,,,,
,,,,6595af12ca053a89f8ac44a7,A,2024-07-08_14h40.24.247,Slot Machine Game,2023.1.3,MacIntel,60.60606061,,,,,,,,,,,,,,,,,,,,,,,,,,,240,,,,,,,,,,,,,,,,,,,,,4,4,,,410.9961,9,up,0.4319,,0.5,0.3,"[1,2,3]",0.461922494,stimuli/card_10_transparent.png,10,9,0,9,0,1,,,,,,,,,,
,,,,6595af12ca053a89f8ac44a7,A,2024-07-08_14h40.24.247,Slot Machine Game,2023.1.3,MacIntel,60.60606061,,,,,,,,,,,,,,,,,,,,,,,,,,,340,,,,,,,,,,,,,,,,,,,,,4,4,,,412.7686,10,left,0.131,,0.5,0.3,"[1,2,3]",0.317042596,stimuli/card_100_transparent.png,100,10,0,10,0,1,,,,,,,,,,
,,,,6595af12ca053a89f8ac44a7,A,2024-07-08_14h40.24.247,Slot Machine Game,2023.1.3,MacIntel,60.60606061,,,,,,,,,,,,,,,,,,,,,,,,,,,440,,,,,,,,,,,,,,,,,,,,,4,4,,,414.2398,11,left,0.2221,,1,0.3,"[1,2,3]",0.776127805,stimuli/card_100_transparent.png,100,11,0,11,0,1,,,,,,,,,,
,,,,6595af12ca053a89f8ac44a7,A,2024-07-08_14h40.24.247,Slot Machine Game,2023.1.3,MacIntel,60.60606061,,,,,,,,,,,,,,,,,,,,,,,,,,,440,,,,,,,,,,,,,,,,,,,,,4,4,,,416.292,12,left,0.1366,,1.5,0.3,"[1,2,3]",0.084491144,stimuli/card_0_transparent.png,0,12,0,12,0,1,,,,,,,,,,
,,,,6595af12ca053a89f8ac44a7,A,2024-07-08_14h40.24.247,Slot Machine Game,2023.1.3,MacIntel,60.60606061,,,,,,,,,,,,,,,,,,,,,,,,,,,540,,,,,,,,,,,,,,,,,,,,,4,4,,,418.7334,13,left,0.5065,,0.5,0.3,"[1,2,3]",0.267434151,stimuli/card_100_transparent.png,100,13,0,13,0,1,,,,,,,,,,
,,,,6595af12ca053a89f8ac44a7,A,2024-07-08_14h40.24.247,Slot Machine Game,2023.1.3,MacIntel,60.60606061,,,,,,,,,,,,,,,,,,,,,,,,,,,640,,,,,,,,,,,,,,,,,,,,,4,4,,,420.5497,14,left,0.1559,,1.5,0.3,"[1,2,3]",0.802101526,stimuli/card_100_transparent.png,100,14,0,14,0,1,,,,,,,,,,
,,,,6595af12ca053a89f8ac44a7,A,2024-07-08_14h40.24.247,Slot Machine Game,2023.1.3,MacIntel,60.60606061,,,,,,,,,,,,,,,,,,,,,,,,,,,,,,,,,,,423.0743,,,,,,,,,,,,,,,,,,,,,,,,,,,,,,,,,"[1110,250,930,640]",3,0,3,0,1,,,,
,,,,6595af12ca053a89f8ac44a7,A,2024-07-08_14h40.24.247,Slot Machine Game,2023.1.3,MacIntel,60.60606061,,,,,,,,,,,,,,,,,,,,,,,,,,,100,,,,,,,,,,,,,,,,,,,,,5,5,"[5,15]","[[1,2,3],[3,1,2]]",428.1074,0,left,0.1617,,1,0.3,"[1,2,3]",0.397093753,stimuli/card_100_transparent.png,100,0,0,0,0,1,,,,,,,,,,
,,,,6595af12ca053a89f8ac44a7,A,2024-07-08_14h40.24.247,Slot Machine Game,2023.1.3,MacIntel,60.60606061,,,,,,,,,,,,,,,,,,,,,,,,,,,200,,,,,,,,,,,,,,,,,,,,,5,5,,,430.1027,1,left,0.0312,,1.5,0.3,"[1,2,3]",0.462087147,stimuli/card_100_transparent.png,100,1,0,1,0,1,,,,,,,,,,
,,,,6595af12ca053a89f8ac44a7,A,2024-07-08_14h40.24.247,Slot Machine Game,2023.1.3,MacIntel,60.60606061,,,,,,,,,,,,,,,,,,,,,,,,,,,300,,,,,,,,,,,,,,,,,,,,,5,5,,,432.4743,2,left,0.1309,,1.5,0.3,"[1,2,3]",0.848565739,stimuli/card_100_transparent.png,100,2,0,2,0,1,,,,,,,,,,
,,,,6595af12ca053a89f8ac44a7,A,2024-07-08_14h40.24.247,Slot Machine Game,2023.1.3,MacIntel,60.60606061,,,,,,,,,,,,,,,,,,,,,,,,,,,400,,,,,,,,,,,,,,,,,,,,,5,5,,,434.9425,3,left,2.5002,,0.5,0.3,"[1,2,3]",0.930960311,stimuli/card_100_transparent.png,100,3,0,3,0,1,,,,,,,,,,
,,,,6595af12ca053a89f8ac44a7,A,2024-07-08_14h40.24.247,Slot Machine Game,2023.1.3,MacIntel,60.60606061,,,,,,,,,,,,,,,,,,,,,,,,,,,500,,,,,,,,,,,,,,,,,,,,,5,5,,,438.7709,4,left,0.1202,,0.5,0.3,"[1,2,3]",0.692090187,stimuli/card_100_transparent.png,100,4,0,4,0,1,,,,,,,,,,
,,,,6595af12ca053a89f8ac44a7,A,2024-07-08_14h40.24.247,Slot Machine Game,2023.1.3,MacIntel,60.60606061,,,,,,,,,,,,,,,,,,,,,,,,,,,500,,,,,,,,,,,,,,,,,,,,,5,5,,,440.2254,5,left,0.0447,,0.5,0.3,"[3,1,2]",0.295607075,stimuli/card_0_transparent.png,0,5,0,5,0,1,,,,,,,,,,
,,,,6595af12ca053a89f8ac44a7,A,2024-07-08_14h40.24.247,Slot Machine Game,2023.1.3,MacIntel,60.60606061,,,,,,,,,,,,,,,,,,,,,,,,,,,500,,,,,,,,,,,,,,,,,,,,,5,5,,,441.5773,6,up,0.7031,,1,0.3,"[3,1,2]",0.033208117,stimuli/card_0_transparent.png,0,6,0,6,0,1,,,,,,,,,,
,,,,6595af12ca053a89f8ac44a7,A,2024-07-08_14h40.24.247,Slot Machine Game,2023.1.3,MacIntel,60.60606061,,,,,,,,,,,,,,,,,,,,,,,,,,,500,,,,,,,,,,,,,,,,,,,,,5,5,,,444.088,7,left,0.3012,,0.5,0.3,"[3,1,2]",0.499478517,stimuli/card_0_transparent.png,0,7,0,7,0,1,,,,,,,,,,
,,,,6595af12ca053a89f8ac44a7,A,2024-07-08_14h40.24.247,Slot Machine Game,2023.1.3,MacIntel,60.60606061,,,,,,,,,,,,,,,,,,,,,,,,,,,510,,,,,,,,,,,,,,,,,,,,,5,5,,,445.6934,8,right,0.4816,,1,0.3,"[3,1,2]",0.570243419,stimuli/card_10_transparent.png,10,8,0,8,0,1,,,,,,,,,,
,,,,6595af12ca053a89f8ac44a7,A,2024-07-08_14h40.24.247,Slot Machine Game,2023.1.3,MacIntel,60.60606061,,,,,,,,,,,,,,,,,,,,,,,,,,,520,,,,,,,,,,,,,,,,,,,,,5,5,,,447.9871,9,right,0.363,,1,0.3,"[3,1,2]",0.956742634,stimuli/card_10_transparent.png,10,9,0,9,0,1,,,,,,,,,,
,,,,6595af12ca053a89f8ac44a7,A,2024-07-08_14h40.24.247,Slot Machine Game,2023.1.3,MacIntel,60.60606061,,,,,,,,,,,,,,,,,,,,,,,,,,,520,,,,,,,,,,,,,,,,,,,,,5,5,,,450.1993,10,left,0.1383,,1.5,0.3,"[3,1,2]",0.683481874,stimuli/card_0_transparent.png,0,10,0,10,0,1,,,,,,,,,,
,,,,6595af12ca053a89f8ac44a7,A,2024-07-08_14h40.24.247,Slot Machine Game,2023.1.3,MacIntel,60.60606061,,,,,,,,,,,,,,,,,,,,,,,,,,,620,,,,,,,,,,,,,,,,,,,,,5,5,,,452.662,11,up,0.0987,,1.5,0.3,"[3,1,2]",0.425597674,stimuli/card_100_transparent.png,100,11,0,11,0,1,,,,,,,,,,
,,,,6595af12ca053a89f8ac44a7,A,2024-07-08_14h40.24.247,Slot Machine Game,2023.1.3,MacIntel,60.60606061,,,,,,,,,,,,,,,,,,,,,,,,,,,630,,,,,,,,,,,,,,,,,,,,,5,5,,,455.0651,12,up,0.0007,,1,0.3,"[3,1,2]",0.175022934,stimuli/card_10_transparent.png,10,12,0,12,0,1,,,,,,,,,,
,,,,6595af12ca053a89f8ac44a7,A,2024-07-08_14h40.24.247,Slot Machine Game,2023.1.3,MacIntel,60.60606061,,,,,,,,,,,,,,,,,,,,,,,,,,,630,,,,,,,,,,,,,,,,,,,,,5,5,,,456.897,13,up,0.1502,,1,0.3,"[3,1,2]",0.040228875,stimuli/card_0_transparent.png,0,13,0,13,0,1,,,,,,,,,,
,,,,6595af12ca053a89f8ac44a7,A,2024-07-08_14h40.24.247,Slot Machine Game,2023.1.3,MacIntel,60.60606061,,,,,,,,,,,,,,,,,,,,,,,,,,,640,,,,,,,,,,,,,,,,,,,,,5,5,,,458.8564,14,right,0.1417,,0.5,0.3,"[3,1,2]",0.928537705,stimuli/card_10_transparent.png,10,14,0,14,0,1,,,,,,,,,,
,,,,6595af12ca053a89f8ac44a7,A,2024-07-08_14h40.24.247,Slot Machine Game,2023.1.3,MacIntel,60.60606061,,,,,,,,,,,,,,,,,,,,,,,,,,,,,,,,,,,460.292,,,,,,,,,,,,,,,,,,,,,,,,,,,,,,,,,"[1110,250,930,640,640]",4,0,4,0,1,,,,
,,,,6595af12ca053a89f8ac44a7,A,2024-07-08_14h40.24.247,Slot Machine Game,2023.1.3,MacIntel,60.60606061,,,,,,,,,,,,,,,,,,,,,,,,,,,10,,,,,,,,,,,,,,,,,,,,,6,6,"[4,10,15]","[[2,3,1],[1,3,2],[3,2,1]]",465.3214,0,left,0.0912,,0.5,0.3,"[2,3,1]",0.390637967,stimuli/card_10_transparent.png,10,0,0,0,0,1,,,,,,,,,,
,,,,6595af12ca053a89f8ac44a7,A,2024-07-08_14h40.24.247,Slot Machine Game,2023.1.3,MacIntel,60.60606061,,,,,,,,,,,,,,,,,,,,,,,,,,,10,,,,,,,,,,,,,,,,,,,,,6,6,,,466.7503,1,up,0.0006,,0.5,0.3,"[2,3,1]",0.792414396,stimuli/card_0_transparent.png,0,1,0,1,0,1,,,,,,,,,,
,,,,6595af12ca053a89f8ac44a7,A,2024-07-08_14h40.24.247,Slot Machine Game,2023.1.3,MacIntel,60.60606061,,,,,,,,,,,,,,,,,,,,,,,,,,,110,,,,,,,,,,,,,,,,,,,,,6,6,,,468.0722,2,right,0.4665,,0.5,0.3,"[2,3,1]",0.343034344,stimuli/card_100_transparent.png,100,2,0,2,0,1,,,,,,,,,,
,,,,6595af12ca053a89f8ac44a7,A,2024-07-08_14h40.24.247,Slot Machine Game,2023.1.3,MacIntel,60.60606061,,,,,,,,,,,,,,,,,,,,,,,,,,,210,,,,,,,,,,,,,,,,,,,,,6,6,,,469.8506,3,right,0.3771,,1,0.3,"[2,3,1]",0.382341548,stimuli/card_100_transparent.png,100,3,0,3,0,1,,,,,,,,,,
,,,,6595af12ca053a89f8ac44a7,A,2024-07-08_14h40.24.247,Slot Machine Game,2023.1.3,MacIntel,60.60606061,,,,,,,,,,,,,,,,,,,,,,,,,,,220,,,,,,,,,,,,,,,,,,,,,6,6,,,472.0677,4,right,0.8251,,0.5,0.3,"[1,3,2]",0.372368753,stimuli/card_10_transparent.png,10,4,0,4,0,1,,,,,,,,,,
,,,,6595af12ca053a89f8ac44a7,A,2024-07-08_14h40.24.247,Slot Machine Game,2023.1.3,MacIntel,60.60606061,,,,,,,,,,,,,,,,,,,,,,,,,,,230,,,,,,,,,,,,,,,,,,,,,6,6,,,474.219,5,right,0.3312,,0.5,0.3,"[1,3,2]",0.949574771,stimuli/card_10_transparent.png,10,5,0,5,0,1,,,,,,,,,,
,,,,6595af12ca053a89f8ac44a7,A,2024-07-08_14h40.24.247,Slot Machine Game,2023.1.3,MacIntel,60.60606061,,,,,,,,,,,,,,,,,,,,,,,,,,,240,,,,,,,,,,,,,,,,,,,,,6,6,,,475.8714,6,right,0.5659,,0.5,0.3,"[1,3,2]",0.451871006,stimuli/card_10_transparent.png,10,6,0,6,0,1,,,,,,,,,,
,,,,6595af12ca053a89f8ac44a7,A,2024-07-08_14h40.24.247,Slot Machine Game,2023.1.3,MacIntel,60.60606061,,,,,,,,,,,,,,,,,,,,,,,,,,,340,,,,,,,,,,,,,,,,,,,,,6,6,,,477.7847,7,left,0.5506,,0.5,0.3,"[1,3,2]",0.441006904,stimuli/card_100_transparent.png,100,7,0,7,0,1,,,,,,,,,,
,,,,6595af12ca053a89f8ac44a7,A,2024-07-08_14h40.24.247,Slot Machine Game,2023.1.3,MacIntel,60.60606061,,,,,,,,,,,,,,,,,,,,,,,,,,,440,,,,,,,,,,,,,,,,,,,,,6,6,,,479.6759,8,left,0.1421,,1,0.3,"[1,3,2]",0.377009581,stimuli/card_100_transparent.png,100,8,0,8,0,1,,,,,,,,,,
,,,,6595af12ca053a89f8ac44a7,A,2024-07-08_14h40.24.247,Slot Machine Game,2023.1.3,MacIntel,60.60606061,,,,,,,,,,,,,,,,,,,,,,,,,,,540,,,,,,,,,,,,,,,,,,,,,6,6,,,481.6014,9,left,0.4518,,1.5,0.3,"[1,3,2]",0.529881136,stimuli/card_100_transparent.png,100,9,0,9,0,1,,,,,,,,,,
,,,,6595af12ca053a89f8ac44a7,A,2024-07-08_14h40.24.247,Slot Machine Game,2023.1.3,MacIntel,60.60606061,,,,,,,,,,,,,,,,,,,,,,,,,,,540,,,,,,,,,,,,,,,,,,,,,6,6,,,484.3716,10,left,0.7019,,0.5,0.3,"[3,2,1]",0.258070205,stimuli/card_0_transparent.png,0,10,0,10,0,1,,,,,,,,,,
,,,,6595af12ca053a89f8ac44a7,A,2024-07-08_14h40.24.247,Slot Machine Game,2023.1.3,MacIntel,60.60606061,,,,,,,,,,,,,,,,,,,,,,,,,,,540,,,,,,,,,,,,,,,,,,,,,6,6,,,486.3723,11,left,0.2201,,0.5,0.3,"[3,2,1]",0.388400095,stimuli/card_0_transparent.png,0,11,0,11,0,1,,,,,,,,,,
,,,,6595af12ca053a89f8ac44a7,A,2024-07-08_14h40.24.247,Slot Machine Game,2023.1.3,MacIntel,60.60606061,,,,,,,,,,,,,,,,,,,,,,,,,,,640,,,,,,,,,,,,,,,,,,,,,6,6,,,487.8995,12,left,0.7834,,1.5,0.3,"[3,2,1]",0.099075037,stimuli/card_100_transparent.png,100,12,0,12,0,1,,,,,,,,,,
,,,,6595af12ca053a89f8ac44a7,A,2024-07-08_14h40.24.247,Slot Machine Game,2023.1.3,MacIntel,60.60606061,,,,,,,,,,,,,,,,,,,,,,,,,,,640,,,,,,,,,,,,,,,,,,,,,6,6,,,490.9817,13,left,0.0816,,1,0.3,"[3,2,1]",0.941986729,stimuli/card_0_transparent.png,0,13,0,13,0,1,,,,,,,,,,
,,,,6595af12ca053a89f8ac44a7,A,2024-07-08_14h40.24.247,Slot Machine Game,2023.1.3,MacIntel,60.60606061,,,,,,,,,,,,,,,,,,,,,,,,,,,650,,,,,,,,,,,,,,,,,,,,,6,6,,,492.8834,14,up,0.3908,,0.5,0.3,"[3,2,1]",0.306534971,stimuli/card_10_transparent.png,10,14,0,14,0,1,,,,,,,,,,
,,,,6595af12ca053a89f8ac44a7,A,2024-07-08_14h40.24.247,Slot Machine Game,2023.1.3,MacIntel,60.60606061,,,,,,,,,,,,,,,,,,,,,,,,,,,,,,,,,,,494.6257,,,,,,,,,,,,,,,,,,,,,,,,,,,,,,,,,"[1110,250,930,640,640,650]",5,0,5,0,1,,,,
,,,,6595af12ca053a89f8ac44a7,A,2024-07-08_14h40.24.247,Slot Machine Game,2023.1.3,MacIntel,60.60606061,,,,,,,,,,,,,,,,,,,,,,,,,,,100,,,,,,,,,,,,,,,,,,,,,7,7,"[9,15]","[[1,3,2],[2,3,1]]",499.6602,0,left,0.4516,,0.5,0.3,"[1,3,2]",0.265199931,stimuli/card_100_transparent.png,100,0,0,0,0,1,,,,,,,,,,
,,,,6595af12ca053a89f8ac44a7,A,2024-07-08_14h40.24.247,Slot Machine Game,2023.1.3,MacIntel,60.60606061,,,,,,,,,,,,,,,,,,,,,,,,,,,200,,,,,,,,,,,,,,,,,,,,,7,7,,,501.415,1,left,0.1885,,1,0.3,"[1,3,2]",0.816893435,stimuli/card_100_transparent.png,100,1,0,1,0,1,,,,,,,,,,
,,,,6595af12ca053a89f8ac44a7,A,2024-07-08_14h40.24.247,Slot Machine Game,2023.1.3,MacIntel,60.60606061,,,,,,,,,,,,,,,,,,,,,,,,,,,300,,,,,,,,,,,,,,,,,,,,,7,7,,,503.4264,2,left,0.4515,,0.5,0.3,"[1,3,2]",0.389922019,stimuli/card_100_transparent.png,100,2,0,2,0,1,,,,,,,,,,
,,,,6595af12ca053a89f8ac44a7,A,2024-07-08_14h40.24.247,Slot Machine Game,2023.1.3,MacIntel,60.60606061,,,,,,,,,,,,,,,,,,,,,,,,,,,310,,,,,,,,,,,,,,,,,,,,,7,7,,,505.2282,3,left,0.2015,,1,0.3,"[1,3,2]",0.183208235,stimuli/card_10_transparent.png,10,3,0,3,0,1,,,,,,,,,,
,,,,6595af12ca053a89f8ac44a7,A,2024-07-08_14h40.24.247,Slot Machine Game,2023.1.3,MacIntel,60.60606061,,,,,,,,,,,,,,,,,,,,,,,,,,,310,,,,,,,,,,,,,,,,,,,,,7,7,,,507.2405,4,left,0.2893,,1,0.3,"[1,3,2]",0.090929939,stimuli/card_0_transparent.png,0,4,0,4,0,1,,,,,,,,,,
,,,,6595af12ca053a89f8ac44a7,A,2024-07-08_14h40.24.247,Slot Machine Game,2023.1.3,MacIntel,60.60606061,,,,,,,,,,,,,,,,,,,,,,,,,,,410,,,,,,,,,,,,,,,,,,,,,7,7,,,509.3774,5,left,0.151,,0.5,0.3,"[1,3,2]",0.593587372,stimuli/card_100_transparent.png,100,5,0,5,0,1,,,,,,,,,,
,,,,6595af12ca053a89f8ac44a7,A,2024-07-08_14h40.24.247,Slot Machine Game,2023.1.3,MacIntel,60.60606061,,,,,,,,,,,,,,,,,,,,,,,,,,,510,,,,,,,,,,,,,,,,,,,,,7,7,,,510.8456,6,left,0.0008,,1,0.3,"[1,3,2]",0.999853607,stimuli/card_100_transparent.png,100,6,0,6,0,1,,,,,,,,,,
,,,,6595af12ca053a89f8ac44a7,A,2024-07-08_14h40.24.247,Slot Machine Game,2023.1.3,MacIntel,60.60606061,,,,,,,,,,,,,,,,,,,,,,,,,,,610,,,,,,,,,,,,,,,,,,,,,7,7,,,512.6571,7,left,0.5544,,1.5,0.3,"[1,3,2]",0.795549407,stimuli/card_100_transparent.png,100,7,0,7,0,1,,,,,,,,,,
,,,,6595af12ca053a89f8ac44a7,A,2024-07-08_14h40.24.247,Slot Machine Game,2023.1.3,MacIntel,60.60606061,,,,,,,,,,,,,,,,,,,,,,,,,,,710,,,,,,,,,,,,,,,,,,,,,7,7,,,515.5612,8,left,0.092,,0.5,0.3,"[1,3,2]",0.504364416,stimuli/card_100_transparent.png,100,8,0,8,0,1,,,,,,,,,,
,,,,6595af12ca053a89f8ac44a7,A,2024-07-08_14h40.24.247,Slot Machine Game,2023.1.3,MacIntel,60.60606061,,,,,,,,,,,,,,,,,,,,,,,,,,,720,,,,,,,,,,,,,,,,,,,,,7,7,,,516.972,9,left,0.172,,1,0.3,"[2,3,1]",0.835859661,stimuli/card_10_transparent.png,10,9,0,9,0,1,,,,,,,,,,
,,,,6595af12ca053a89f8ac44a7,A,2024-07-08_14h40.24.247,Slot Machine Game,2023.1.3,MacIntel,60.60606061,,,,,,,,,,,,,,,,,,,,,,,,,,,730,,,,,,,,,,,,,,,,,,,,,7,7,,,518.9554,10,left,0.7919,,0.5,0.3,"[2,3,1]",0.828577422,stimuli/card_10_transparent.png,10,10,0,10,0,1,,,,,,,,,,
,,,,6595af12ca053a89f8ac44a7,A,2024-07-08_14h40.24.247,Slot Machine Game,2023.1.3,MacIntel,60.60606061,,,,,,,,,,,,,,,,,,,,,,,,,,,740,,,,,,,,,,,,,,,,,,,,,7,7,,,521.0666,11,left,0.29,,0.5,0.3,"[2,3,1]",0.700227431,stimuli/card_10_transparent.png,10,11,0,11,0,1,,,,,,,,,,
,,,,6595af12ca053a89f8ac44a7,A,2024-07-08_14h40.24.247,Slot Machine Game,2023.1.3,MacIntel,60.60606061,,,,,,,,,,,,,,,,,,,,,,,,,,,740,,,,,,,,,,,,,,,,,,,,,7,7,,,522.6649,12,up,0.1603,,1,0.3,"[2,3,1]",0.380831297,stimuli/card_0_transparent.png,0,12,0,12,0,1,,,,,,,,,,
,,,,6595af12ca053a89f8ac44a7,A,2024-07-08_14h40.24.247,Slot Machine Game,2023.1.3,MacIntel,60.60606061,,,,,,,,,,,,,,,,,,,,,,,,,,,740,,,,,,,,,,,,,,,,,,,,,7,7,,,524.6328,13,right,0.2293,,1,0.3,"[2,3,1]",0.040964748,stimuli/card_0_transparent.png,0,13,0,13,0,1,,,,,,,,,,
,,,,6595af12ca053a89f8ac44a7,A,2024-07-08_14h40.24.247,Slot Machine Game,2023.1.3,MacIntel,60.60606061,,,,,,,,,,,,,,,,,,,,,,,,,,,750,,,,,,,,,,,,,,,,,,,,,7,7,,,526.676,14,left,1.0821,,1,0.3,"[2,3,1]",0.769315558,stimuli/card_10_transparent.png,10,14,0,14,0,1,,,,,,,,,,
,,,,6595af12ca053a89f8ac44a7,A,2024-07-08_14h40.24.247,Slot Machine Game,2023.1.3,MacIntel,60.60606061,,,,,,,,,,,,,,,,,,,,,,,,,,,,,,,,,,,529.5896,,,,,,,,,,,,,,,,,,,,,,,,,,,,,,,,,"[1110,250,930,640,640,650,750]",6,0,6,0,1,,,,
,,,,6595af12ca053a89f8ac44a7,A,2024-07-08_14h40.24.247,Slot Machine Game,2023.1.3,MacIntel,60.60606061,,,,,,,,,,,,,,,,,,,,,,,,,,,100,,,,,,,,,,,,,,,,,,,,,8,8,"[11,15]","[[2,1,3],[1,2,3]]",534.6302,0,up,1.0576,,1.5,0.3,"[2,1,3]",0.526425082,stimuli/card_100_transparent.png,100,0,0,0,0,1,,,,,,,,,,
,,,,6595af12ca053a89f8ac44a7,A,2024-07-08_14h40.24.247,Slot Machine Game,2023.1.3,MacIntel,60.60606061,,,,,,,,,,,,,,,,,,,,,,,,,,,200,,,,,,,,,,,,,,,,,,,,,8,8,,,538.0025,1,up,0.1158,,1,0.3,"[2,1,3]",0.888372777,stimuli/card_100_transparent.png,100,1,0,1,0,1,,,,,,,,,,
,,,,6595af12ca053a89f8ac44a7,A,2024-07-08_14h40.24.247,Slot Machine Game,2023.1.3,MacIntel,60.60606061,,,,,,,,,,,,,,,,,,,,,,,,,,,300,,,,,,,,,,,,,,,,,,,,,8,8,,,539.9652,2,up,0.111,,0.5,0.3,"[2,1,3]",0.674953989,stimuli/card_100_transparent.png,100,2,0,2,0,1,,,,,,,,,,
,,,,6595af12ca053a89f8ac44a7,A,2024-07-08_14h40.24.247,Slot Machine Game,2023.1.3,MacIntel,60.60606061,,,,,,,,,,,,,,,,,,,,,,,,,,,300,,,,,,,,,,,,,,,,,,,,,8,8,,,541.4242,3,up,0.336,,1.5,0.3,"[2,1,3]",0.079317618,stimuli/card_0_transparent.png,0,3,0,3,0,1,,,,,,,,,,
,,,,6595af12ca053a89f8ac44a7,A,2024-07-08_14h40.24.247,Slot Machine Game,2023.1.3,MacIntel,60.60606061,,,,,,,,,,,,,,,,,,,,,,,,,,,310,,,,,,,,,,,,,,,,,,,,,8,8,,,544.0603,4,up,0.0868,,1,0.3,"[2,1,3]",0.197072209,stimuli/card_10_transparent.png,10,4,0,4,0,1,,,,,,,,,,
,,,,6595af12ca053a89f8ac44a7,A,2024-07-08_14h40.24.247,Slot Machine Game,2023.1.3,MacIntel,60.60606061,,,,,,,,,,,,,,,,,,,,,,,,,,,410,,,,,,,,,,,,,,,,,,,,,8,8,,,545.973,5,up,0.3739,,0.5,0.3,"[2,1,3]",0.635072807,stimuli/card_100_transparent.png,100,5,0,5,0,1,,,,,,,,,,
,,,,6595af12ca053a89f8ac44a7,A,2024-07-08_14h40.24.247,Slot Machine Game,2023.1.3,MacIntel,60.60606061,,,,,,,,,,,,,,,,,,,,,,,,,,,510,,,,,,,,,,,,,,,,,,,,,8,8,,,547.6719,6,up,0.2446,,0.5,0.3,"[2,1,3]",0.767671146,stimuli/card_100_transparent.png,100,6,0,6,0,1,,,,,,,,,,
,,,,6595af12ca053a89f8ac44a7,A,2024-07-08_14h40.24.247,Slot Machine Game,2023.1.3,MacIntel,60.60606061,,,,,,,,,,,,,,,,,,,,,,,,,,,510,,,,,,,,,,,,,,,,,,,,,8,8,,,549.2073,7,up,0.032,,1,0.3,"[2,1,3]",0.095098465,stimuli/card_0_transparent.png,0,7,0,7,0,1,,,,,,,,,,
,,,,6595af12ca053a89f8ac44a7,A,2024-07-08_14h40.24.247,Slot Machine Game,2023.1.3,MacIntel,60.60606061,,,,,,,,,,,,,,,,,,,,,,,,,,,610,,,,,,,,,,,,,,,,,,,,,8,8,,,551.0658,8,up,0.1419,,0.5,0.3,"[2,1,3]",0.868532043,stimuli/card_100_transparent.png,100,8,0,8,0,1,,,,,,,,,,
,,,,6595af12ca053a89f8ac44a7,A,2024-07-08_14h40.24.247,Slot Machine Game,2023.1.3,MacIntel,60.60606061,,,,,,,,,,,,,,,,,,,,,,,,,,,710,,,,,,,,,,,,,,,,,,,,,8,8,,,552.5243,9,up,0.3554,,0.5,0.3,"[2,1,3]",0.410938972,stimuli/card_100_transparent.png,100,9,0,9,0,1,,,,,,,,,,
,,,,6595af12ca053a89f8ac44a7,A,2024-07-08_14h40.24.247,Slot Machine Game,2023.1.3,MacIntel,60.60606061,,,,,,,,,,,,,,,,,,,,,,,,,,,810,,,,,,,,,,,,,,,,,,,,,8,8,,,554.1939,10,up,1.1627,,1.5,0.3,"[2,1,3]",0.258188429,stimuli/card_100_transparent.png,100,10,0,10,0,1,,,,,,,,,,
,,,,6595af12ca053a89f8ac44a7,A,2024-07-08_14h40.24.247,Slot Machine Game,2023.1.3,MacIntel,60.60606061,,,,,,,,,,,,,,,,,,,,,,,,,,,820,,,,,,,,,,,,,,,,,,,,,8,8,,,557.6884,11,up,0.3319,,1,0.3,"[1,2,3]",0.206560127,stimuli/card_10_transparent.png,10,11,0,11,0,1,,,,,,,,,,
,,,,6595af12ca053a89f8ac44a7,A,2024-07-08_14h40.24.247,Slot Machine Game,2023.1.3,MacIntel,60.60606061,,,,,,,,,,,,,,,,,,,,,,,,,,,830,,,,,,,,,,,,,,,,,,,,,8,8,,,559.805,12,up,0.2408,,1,0.3,"[1,2,3]",0.356408481,stimuli/card_10_transparent.png,10,12,0,12,0,1,,,,,,,,,,
,,,,6595af12ca053a89f8ac44a7,A,2024-07-08_14h40.24.247,Slot Machine Game,2023.1.3,MacIntel,60.60606061,,,,,,,,,,,,,,,,,,,,,,,,,,,840,,,,,,,,,,,,,,,,,,,,,8,8,,,561.8796,13,up,0.0804,,1.5,0.3,"[1,2,3]",0.792353806,stimuli/card_10_transparent.png,10,13,0,13,0,1,,,,,,,,,,
,,,,6595af12ca053a89f8ac44a7,A,2024-07-08_14h40.24.247,Slot Machine Game,2023.1.3,MacIntel,60.60606061,,,,,,,,,,,,,,,,,,,,,,,,,,,840,,,,,,,,,,,,,,,,,,,,,8,8,,,564.2823,14,right,0.4019,,1,0.3,"[1,2,3]",0.923568094,stimuli/card_0_transparent.png,0,14,0,14,0,1,,,,,,,,,,
,,,,6595af12ca053a89f8ac44a7,A,2024-07-08_14h40.24.247,Slot Machine Game,2023.1.3,MacIntel,60.60606061,,,,,,,,,,,,,,,,,,,,,,,,,,,,,,,,,,,566.5146,,,,,,,,,,,,,,,,,,,,,,,,,,,,,,,,,"[1110,250,930,640,640,650,750,840]",7,0,7,0,1,,,,
,,,,6595af12ca053a89f8ac44a7,A,2024-07-08_14h40.24.247,Slot Machine Game,2023.1.3,MacIntel,60.60606061,,,,,,,,,,,,,,,,,,,,,,,,,,,0,,,,,,,,,,,,,,,,,,,,,9,9,"[8,15]","[[3,2,1],[3,1,2]]",571.556,0,left,0.4101,0.0002,1.5,0.3,"[3,2,1]",0.402451446,stimuli/card_0_transparent.png,0,0,0,0,0,1,,,,,,,,,,
,,,,6595af12ca053a89f8ac44a7,A,2024-07-08_14h40.24.247,Slot Machine Game,2023.1.3,MacIntel,60.60606061,,,,,,,,,,,,,,,,,,,,,,,,,,,10,,,,,,,,,,,,,,,,,,,,,9,9,,,574.3289,1,up,0.29,,1,0.3,"[3,2,1]",0.647577713,stimuli/card_10_transparent.png,10,1,0,1,0,1,,,,,,,,,,
,,,,6595af12ca053a89f8ac44a7,A,2024-07-08_14h40.24.247,Slot Machine Game,2023.1.3,MacIntel,60.60606061,,,,,,,,,,,,,,,,,,,,,,,,,,,20,,,,,,,,,,,,,,,,,,,,,9,9,,,576.4583,2,right,0.4806,,1,0.3,"[3,2,1]",0.128448373,stimuli/card_10_transparent.png,10,2,0,2,0,1,,,,,,,,,,
,,,,6595af12ca053a89f8ac44a7,A,2024-07-08_14h40.24.247,Slot Machine Game,2023.1.3,MacIntel,60.60606061,,,,,,,,,,,,,,,,,,,,,,,,,,,20,,,,,,,,,,,,,,,,,,,,,9,9,,,578.7976,3,left,0.4642,,1,0.3,"[3,2,1]",0.562344212,stimuli/card_0_transparent.png,0,3,0,3,0,1,,,,,,,,,,
,,,,6595af12ca053a89f8ac44a7,A,2024-07-08_14h40.24.247,Slot Machine Game,2023.1.3,MacIntel,60.60606061,,,,,,,,,,,,,,,,,,,,,,,,,,,30,,,,,,,,,,,,,,,,,,,,,9,9,,,581.0859,4,up,0.2487,,1.5,0.3,"[3,2,1]",0.519468756,stimuli/card_10_transparent.png,10,4,0,4,0,1,,,,,,,,,,
,,,,6595af12ca053a89f8ac44a7,A,2024-07-08_14h40.24.247,Slot Machine Game,2023.1.3,MacIntel,60.60606061,,,,,,,,,,,,,,,,,,,,,,,,,,,130,,,,,,,,,,,,,,,,,,,,,9,9,,,583.6809,5,right,0.0815,,1.5,0.3,"[3,2,1]",0.938112207,stimuli/card_100_transparent.png,100,5,0,5,0,1,,,,,,,,,,
,,,,6595af12ca053a89f8ac44a7,A,2024-07-08_14h40.24.247,Slot Machine Game,2023.1.3,MacIntel,60.60606061,,,,,,,,,,,,,,,,,,,,,,,,,,,230,,,,,,,,,,,,,,,,,,,,,9,9,,,586.0698,6,right,0.0352,,1,0.3,"[3,2,1]",0.578542241,stimuli/card_100_transparent.png,100,6,0,6,0,1,,,,,,,,,,
,,,,6595af12ca053a89f8ac44a7,A,2024-07-08_14h40.24.247,Slot Machine Game,2023.1.3,MacIntel,60.60606061,,,,,,,,,,,,,,,,,,,,,,,,,,,330,,,,,,,,,,,,,,,,,,,,,9,9,,,587.9358,7,right,0.6925,,1,0.3,"[3,2,1]",0.280975789,stimuli/card_100_transparent.png,100,7,0,7,0,1,,,,,,,,,,
,,,,6595af12ca053a89f8ac44a7,A,2024-07-08_14h40.24.247,Slot Machine Game,2023.1.3,MacIntel,60.60606061,,,,,,,,,,,,,,,,,,,,,,,,,,,340,,,,,,,,,,,,,,,,,,,,,9,9,,,590.4245,8,right,0.0566,,1.5,0.3,"[3,1,2]",0.505241285,stimuli/card_10_transparent.png,10,8,0,8,0,1,,,,,,,,,,
,,,,6595af12ca053a89f8ac44a7,A,2024-07-08_14h40.24.247,Slot Machine Game,2023.1.3,MacIntel,60.60606061,,,,,,,,,,,,,,,,,,,,,,,,,,,440,,,,,,,,,,,,,,,,,,,,,9,9,,,592.798,9,right,0.6283,,1,0.3,"[3,1,2]",0.157780137,stimuli/card_100_transparent.png,100,9,0,9,0,1,,,,,,,,,,
,,,,6595af12ca053a89f8ac44a7,A,2024-07-08_14h40.24.247,Slot Machine Game,2023.1.3,MacIntel,60.60606061,,,,,,,,,,,,,,,,,,,,,,,,,,,450,,,,,,,,,,,,,,,,,,,,,9,9,,,595.2835,10,right,0.1137,,1,0.3,"[3,1,2]",0.658500912,stimuli/card_10_transparent.png,10,10,0,10,0,1,,,,,,,,,,
,,,,6595af12ca053a89f8ac44a7,A,2024-07-08_14h40.24.247,Slot Machine Game,2023.1.3,MacIntel,60.60606061,,,,,,,,,,,,,,,,,,,,,,,,,,,460,,,,,,,,,,,,,,,,,,,,,9,9,,,597.237,11,right,0.4091,,1.5,0.3,"[3,1,2]",0.225842394,stimuli/card_10_transparent.png,10,11,0,11,0,1,,,,,,,,,,
,,,,6595af12ca053a89f8ac44a7,A,2024-07-08_14h40.24.247,Slot Machine Game,2023.1.3,MacIntel,60.60606061,,,,,,,,,,,,,,,,,,,,,,,,,,,470,,,,,,,,,,,,,,,,,,,,,9,9,,,599.9598,12,right,1.3551,,0.5,0.3,"[3,1,2]",0.598366707,stimuli/card_10_transparent.png,10,12,0,12,0,1,,,,,,,,,,
,,,,6595af12ca053a89f8ac44a7,A,2024-07-08_14h40.24.247,Slot Machine Game,2023.1.3,MacIntel,60.60606061,,,,,,,,,,,,,,,,,,,,,,,,,,,480,,,,,,,,,,,,,,,,,,,,,9,9,,,602.6526,13,right,0.0396,,1.5,0.3,"[3,1,2]",0.22238509,stimuli/card_10_transparent.png,10,13,0,13,0,1,,,,,,,,,,
,,,,6595af12ca053a89f8ac44a7,A,2024-07-08_14h40.24.247,Slot Machine Game,2023.1.3,MacIntel,60.60606061,,,,,,,,,,,,,,,,,,,,,,,,,,,480,,,,,,,,,,,,,,,,,,,,,9,9,,,605.0048,14,left,0.5771,,1.5,0.3,"[3,1,2]",0.572259709,stimuli/card_0_transparent.png,0,14,0,14,0,1,,,,,,,,,,
,,,,6595af12ca053a89f8ac44a7,A,2024-07-08_14h40.24.247,Slot Machine Game,2023.1.3,MacIntel,60.60606061,,,,,,,,,,,,,,,,,,,,,,,,,,,,,,,,,,,607.8887,,,,,,,,,,,,,,,,,,,,,,,,,,,,,,,,,"[1110,250,930,640,640,650,750,840,480]",8,0,8,0,1,,,,
,,,,6595af12ca053a89f8ac44a7,A,2024-07-08_14h40.24.247,Slot Machine Game,2023.1.3,MacIntel,60.60606061,,,,,,,,,,,,,,,,,,,,,,,,,,,0,,,,,,,,,,,,,,,,,,,,,10,10,"[10,15]","[[3,1,2],[1,3,2]]",612.9192,0,left,0.3921,,0.5,0.3,"[3,1,2]",0.473140103,stimuli/card_0_transparent.png,0,0,0,0,0,1,,,,,,,,,,
,,,,6595af12ca053a89f8ac44a7,A,2024-07-08_14h40.24.247,Slot Machine Game,2023.1.3,MacIntel,60.60606061,,,,,,,,,,,,,,,,,,,,,,,,,,,100,,,,,,,,,,,,,,,,,,,,,10,10,,,614.6343,1,up,0.2312,,1.5,0.3,"[3,1,2]",0.766782319,stimuli/card_100_transparent.png,100,1,0,1,0,1,,,,,,,,,,
,,,,6595af12ca053a89f8ac44a7,A,2024-07-08_14h40.24.247,Slot Machine Game,2023.1.3,MacIntel,60.60606061,,,,,,,,,,,,,,,,,,,,,,,,,,,200,,,,,,,,,,,,,,,,,,,,,10,10,,,617.1804,2,up,0.1885,,1,0.3,"[3,1,2]",0.202068254,stimuli/card_100_transparent.png,100,2,0,2,0,1,,,,,,,,,,
,,,,6595af12ca053a89f8ac44a7,A,2024-07-08_14h40.24.247,Slot Machine Game,2023.1.3,MacIntel,60.60606061,,,,,,,,,,,,,,,,,,,,,,,,,,,210,,,,,,,,,,,,,,,,,,,,,10,10,,,619.2026,3,up,0.2021,,1.5,0.3,"[3,1,2]",0.103409632,stimuli/card_10_transparent.png,10,3,0,3,0,1,,,,,,,,,,
,,,,6595af12ca053a89f8ac44a7,A,2024-07-08_14h40.24.247,Slot Machine Game,2023.1.3,MacIntel,60.60606061,,,,,,,,,,,,,,,,,,,,,,,,,,,310,,,,,,,,,,,,,,,,,,,,,10,10,,,621.7071,4,up,1.1024,,1,0.3,"[3,1,2]",0.349800258,stimuli/card_100_transparent.png,100,4,0,4,0,1,,,,,,,,,,
,,,,6595af12ca053a89f8ac44a7,A,2024-07-08_14h40.24.247,Slot Machine Game,2023.1.3,MacIntel,60.60606061,,,,,,,,,,,,,,,,,,,,,,,,,,,410,,,,,,,,,,,,,,,,,,,,,10,10,,,624.6687,5,up,0.4829,,1,0.3,"[3,1,2]",0.972371549,stimuli/card_100_transparent.png,100,5,0,5,0,1,,,,,,,,,,
,,,,6595af12ca053a89f8ac44a7,A,2024-07-08_14h40.24.247,Slot Machine Game,2023.1.3,MacIntel,60.60606061,,,,,,,,,,,,,,,,,,,,,,,,,,,510,,,,,,,,,,,,,,,,,,,,,10,10,,,626.9651,6,up,0.4679,,1.5,0.3,"[3,1,2]",0.555757722,stimuli/card_100_transparent.png,100,6,0,6,0,1,,,,,,,,,,
,,,,6595af12ca053a89f8ac44a7,A,2024-07-08_14h40.24.247,Slot Machine Game,2023.1.3,MacIntel,60.60606061,,,,,,,,,,,,,,,,,,,,,,,,,,,610,,,,,,,,,,,,,,,,,,,,,10,10,,,629.7875,7,up,0.2119,,1,0.3,"[3,1,2]",0.460725851,stimuli/card_100_transparent.png,100,7,0,7,0,1,,,,,,,,,,
,,,,6595af12ca053a89f8ac44a7,A,2024-07-08_14h40.24.247,Slot Machine Game,2023.1.3,MacIntel,60.60606061,,,,,,,,,,,,,,,,,,,,,,,,,,,710,,,,,,,,,,,,,,,,,,,,,10,10,,,631.818,8,up,0.122,,0.5,0.3,"[3,1,2]",0.343245557,stimuli/card_100_transparent.png,100,8,0,8,0,1,,,,,,,,,,
,,,,6595af12ca053a89f8ac44a7,A,2024-07-08_14h40.24.247,Slot Machine Game,2023.1.3,MacIntel,60.60606061,,,,,,,,,,,,,,,,,,,,,,,,,,,810,,,,,,,,,,,,,,,,,,,,,10,10,,,633.2123,9,up,0.0007,,1,0.3,"[3,1,2]",0.605330869,stimuli/card_100_transparent.png,100,9,0,9,0,1,,,,,,,,,,
,,,,6595af12ca053a89f8ac44a7,A,2024-07-08_14h40.24.247,Slot Machine Game,2023.1.3,MacIntel,60.60606061,,,,,,,,,,,,,,,,,,,,,,,,,,,810,,,,,,,,,,,,,,,,,,,,,10,10,,,635.0423,10,up,0.0818,,1.5,0.3,"[1,3,2]",0.242075377,stimuli/card_0_transparent.png,0,10,0,10,0,1,,,,,,,,,,
,,,,6595af12ca053a89f8ac44a7,A,2024-07-08_14h40.24.247,Slot Machine Game,2023.1.3,MacIntel,60.60606061,,,,,,,,,,,,,,,,,,,,,,,,,,,810,,,,,,,,,,,,,,,,,,,,,10,10,,,637.4449,11,up,0.1618,,1,0.3,"[1,3,2]",0.586342316,stimuli/card_0_transparent.png,0,11,0,11,0,1,,,,,,,,,,
,,,,6595af12ca053a89f8ac44a7,A,2024-07-08_14h40.24.247,Slot Machine Game,2023.1.3,MacIntel,60.60606061,,,,,,,,,,,,,,,,,,,,,,,,,,,820,,,,,,,,,,,,,,,,,,,,,10,10,,,639.4007,12,up,0.0491,,1,0.3,"[1,3,2]",0.121308448,stimuli/card_10_transparent.png,10,12,0,12,0,1,,,,,,,,,,
,,,,6595af12ca053a89f8ac44a7,A,2024-07-08_14h40.24.247,Slot Machine Game,2023.1.3,MacIntel,60.60606061,,,,,,,,,,,,,,,,,,,,,,,,,,,820,,,,,,,,,,,,,,,,,,,,,10,10,,,641.2771,13,up,0.9071,,1.5,0.3,"[1,3,2]",0.725338995,stimuli/card_0_transparent.png,0,13,0,13,0,1,,,,,,,,,,
,,,,6595af12ca053a89f8ac44a7,A,2024-07-08_14h40.24.247,Slot Machine Game,2023.1.3,MacIntel,60.60606061,,,,,,,,,,,,,,,,,,,,,,,,,,,830,,,,,,,,,,,,,,,,,,,,,10,10,,,644.5212,14,right,0.3088,,1.5,0.3,"[1,3,2]",0.766114192,stimuli/card_10_transparent.png,10,14,0,14,0,1,,,,,,,,,,
,,,,6595af12ca053a89f8ac44a7,A,2024-07-08_14h40.24.247,Slot Machine Game,2023.1.3,MacIntel,60.60606061,,,,,,,,,,,,,,,,,,,,,,,,,,,,,,,,,,,647.1137,,,,,,,,,,,,,,,,,,,,,,,,,,,,,,,,,"[1110,250,930,640,640,650,750,840,480,830]",9,0,9,0,1,,,,
,,,,6595af12ca053a89f8ac44a7,A,2024-07-08_14h40.24.247,Slot Machine Game,2023.1.3,MacIntel,60.60606061,,,,,,,,,,,,,,,,,,,,,,,,,,,,,,,,,,,,,,,,,,,,,,,,,,,,,,,,,,,,,,,,,,,,,,,,,,9,"[1110,250,930,640,640,650,750,840,480,830]",8.4,2024-07-08_14h51.20.489
