key_resp_welcome_started,key_resp_welcome_keys,key_resp_welcome_rt,key_resp_welcome_duration,prolific_id,path_id,date,expName,psychopyVersion,OS,frameRate,key_resp_instruction1_started,key_resp_instruction1_keys,key_resp_instruction1_rt,key_resp_instruction1_duration,key_resp_instruction2_started,key_resp_instruction2_keys,key_resp_instruction2_rt,key_resp_instruction2_duration,key_resp_instruction3_started,key_resp_instruction3_keys,key_resp_instruction3_rt,key_resp_instruction3_duration,key_resp_instruction4_started,key_resp_instruction4_keys,key_resp_instruction4_rt,key_resp_instruction4_duration,practiceCondition,practice_reward_seqs,practice_trial_started,practice_trial_num,practice_resp_rt,practice_resp_duration,practice_resp_keys,prac_presentationInterval,"practice_reward_seq: 2,1,3",reward_img,cumulative_reward,trial_reward,practice_trials.thisRepN,practice_trials.thisTrialN,practice_trials.thisN,practice_trials.thisIndex,practice_trials.ran,"practice_reward_seq: 2,3,1",block_break_started,"practice_reward_seq: 1,3,2","practice_reward_seq: 3,1,2",practice_end_time,practice_end_keys,practice_end_rt,practice_end_duration,main_instruction_text_started,block_condition,block_order_indices,main_instruction_keys,main_instruction_rt,main_instruction_duration,block_number,block_assignment,current_condition,main_reward_seqs,main_trial_started,main_trial_num,main_trial_keys,main_trial_rt,main_trial_duration,main_presentationInterval,reward_presentation_time,main_reward_seq,reward_rand_val,main_reward_img,current_reward,main_trials.thisRepN,main_trials.thisTrialN,main_trials.thisN,main_trials.thisIndex,main_trials.ran,block_reward,block.thisRepN,block.thisTrialN,block.thisN,block.thisIndex,block.ran,block_reward.length,block_reward_all,reward_amount,date_end_task
0.0002,space,1.5383,,659808191190fc6e6c23a99f,A,2024-07-02_12h49.18.196,Slot Machine Game,2023.1.3,Win32,140.8450704,,,,,,,,,,,,,,,,,,,,,,,,,,,,,,,,,,,,,,,,,,,,,,,,,,,,,,,,,,,,,,,,,,,,,,,,,,,,,
,,,,659808191190fc6e6c23a99f,A,2024-07-02_12h49.18.196,Slot Machine Game,2023.1.3,Win32,140.8450704,1.5436,space,7.7507,,,,,,,,,,,,,,,,,,,,,,,,,,,,,,,,,,,,,,,,,,,,,,,,,,,,,,,,,,,,,,,,,,,,,,,,,,
,,,,659808191190fc6e6c23a99f,A,2024-07-02_12h49.18.196,Slot Machine Game,2023.1.3,Win32,140.8450704,,,,,9.3082,rshift,27.8517,,,,,,,,,,,,,,,,,,,,,,,,,,,,,,,,,,,,,,,,,,,,,,,,,,,,,,,,,,,,,,,,,,,,,,
,,,,659808191190fc6e6c23a99f,A,2024-07-02_12h49.18.196,Slot Machine Game,2023.1.3,Win32,140.8450704,,,,,,,,,37.1772,space,6.0341,,,,,,,,,,,,,,,,,,,,,,,,,,,,,,,,,,,,,,,,,,,,,,,,,,,,,,,,,,,,,,,,,,
,,,,659808191190fc6e6c23a99f,A,2024-07-02_12h49.18.196,Slot Machine Game,2023.1.3,Win32,140.8450704,,,,,,,,,,,,,,,,,,,,,,,,,,,,,,,,,,,,,,,,,,,,,,,,,,,,,,,,,,,,,,,,,,,,,,,,,,,,,
,,,,659808191190fc6e6c23a99f,A,2024-07-02_12h49.18.196,Slot Machine Game,2023.1.3,Win32,140.8450704,,,,,,,,,,,,,184.9254,down,15.3386,,,,,,,,,,,,,,,,,,,,,,,,,,,,,,,,,,,,,,,,,,,,,,,,,,,,,,,,,,,,,,
,,,,659808191190fc6e6c23a99f,A,2024-07-02_12h49.18.196,Slot Machine Game,2023.1.3,Win32,140.8450704,,,,,,,,,,,,,,,,,"[9,15]","[[2,1,3],[2,3,1]]",200.2695,0,0.5945,,up,0.5,,stimuli/card_100_transparent.png,100,100,0,0,0,0,1,,,,,,,,,,,,,,,,,,,,,,,,,,,,,,,,,,,,,,,,,,,,
,,,,659808191190fc6e6c23a99f,A,2024-07-02_12h49.18.196,Slot Machine Game,2023.1.3,Win32,140.8450704,,,,,,,,,,,,,,,,,,,202.169,1,0.1395,,up,1,,stimuli/card_100_transparent.png,200,100,1,0,1,0,1,,,,,,,,,,,,,,,,,,,,,,,,,,,,,,,,,,,,,,,,,,,,
,,,,659808191190fc6e6c23a99f,A,2024-07-02_12h49.18.196,Slot Machine Game,2023.1.3,Win32,140.8450704,,,,,,,,,,,,,,,,,,,204.12,2,1.4717,,up,0.5,,stimuli/card_10_transparent.png,210,10,2,0,2,0,1,,,,,,,,,,,,,,,,,,,,,,,,,,,,,,,,,,,,,,,,,,,,
,,,,659808191190fc6e6c23a99f,A,2024-07-02_12h49.18.196,Slot Machine Game,2023.1.3,Win32,140.8450704,,,,,,,,,,,,,,,,,,,206.8982,3,0.8204,,up,0.5,,stimuli/card_10_transparent.png,220,10,3,0,3,0,1,,,,,,,,,,,,,,,,,,,,,,,,,,,,,,,,,,,,,,,,,,,,
,,,,659808191190fc6e6c23a99f,A,2024-07-02_12h49.18.196,Slot Machine Game,2023.1.3,Win32,140.8450704,,,,,,,,,,,,,,,,,,,209.0301,4,0.1045,,right,0.5,,stimuli/card_0_transparent.png,220,0,4,0,4,0,1,,,,,,,,,,,,,,,,,,,,,,,,,,,,,,,,,,,,,,,,,,,,
,,,,659808191190fc6e6c23a99f,A,2024-07-02_12h49.18.196,Slot Machine Game,2023.1.3,Win32,140.8450704,,,,,,,,,,,,,,,,,,,210.44,5,0.0981,,right,1.5,,stimuli/card_0_transparent.png,220,0,5,0,5,0,1,,,,,,,,,,,,,,,,,,,,,,,,,,,,,,,,,,,,,,,,,,,,
,,,,659808191190fc6e6c23a99f,A,2024-07-02_12h49.18.196,Slot Machine Game,2023.1.3,Win32,140.8450704,,,,,,,,,,,,,,,,,,,212.8497,6,0.781,,left,0.5,,stimuli/card_10_transparent.png,230,10,6,0,6,0,1,,,,,,,,,,,,,,,,,,,,,,,,,,,,,,,,,,,,,,,,,,,,
,,,,659808191190fc6e6c23a99f,A,2024-07-02_12h49.18.196,Slot Machine Game,2023.1.3,Win32,140.8450704,,,,,,,,,,,,,,,,,,,214.9402,7,0.5879,,left,0.5,,stimuli/card_10_transparent.png,240,10,7,0,7,0,1,,,,,,,,,,,,,,,,,,,,,,,,,,,,,,,,,,,,,,,,,,,,
,,,,659808191190fc6e6c23a99f,A,2024-07-02_12h49.18.196,Slot Machine Game,2023.1.3,Win32,140.8450704,,,,,,,,,,,,,,,,,,,216.8359,8,0.3988,,left,1.5,,stimuli/card_10_transparent.png,250,10,8,0,8,0,1,,,,,,,,,,,,,,,,,,,,,,,,,,,,,,,,,,,,,,,,,,,,
,,,,659808191190fc6e6c23a99f,A,2024-07-02_12h49.18.196,Slot Machine Game,2023.1.3,Win32,140.8450704,,,,,,,,,,,,,,,,,,,219.5375,9,0.48,,up,1,,stimuli/card_100_transparent.png,350,100,9,0,9,0,1,,,,,,,,,,,,,,,,,,,,,,,,,,,,,,,,,,,,,,,,,,,,
,,,,659808191190fc6e6c23a99f,A,2024-07-02_12h49.18.196,Slot Machine Game,2023.1.3,Win32,140.8450704,,,,,,,,,,,,,,,,,,,221.822,10,0.08,,up,0.5,,stimuli/card_0_transparent.png,350,0,10,0,10,0,1,,,,,,,,,,,,,,,,,,,,,,,,,,,,,,,,,,,,,,,,,,,,
,,,,659808191190fc6e6c23a99f,A,2024-07-02_12h49.18.196,Slot Machine Game,2023.1.3,Win32,140.8450704,,,,,,,,,,,,,,,,,,,223.2043,11,0.9765,,up,0.5,,stimuli/card_0_transparent.png,350,0,11,0,11,0,1,,,,,,,,,,,,,,,,,,,,,,,,,,,,,,,,,,,,,,,,,,,,
,,,,659808191190fc6e6c23a99f,A,2024-07-02_12h49.18.196,Slot Machine Game,2023.1.3,Win32,140.8450704,,,,,,,,,,,,,,,,,,,225.4887,12,0.7185,,left,0.5,,stimuli/card_10_transparent.png,360,10,12,0,12,0,1,,,,,,,,,,,,,,,,,,,,,,,,,,,,,,,,,,,,,,,,,,,,
,,,,659808191190fc6e6c23a99f,A,2024-07-02_12h49.18.196,Slot Machine Game,2023.1.3,Win32,140.8450704,,,,,,,,,,,,,,,,,,,227.5169,13,0.8263,,left,0.5,,stimuli/card_10_transparent.png,370,10,13,0,13,0,1,,,,,,,,,,,,,,,,,,,,,,,,,,,,,,,,,,,,,,,,,,,,
,,,,659808191190fc6e6c23a99f,A,2024-07-02_12h49.18.196,Slot Machine Game,2023.1.3,Win32,140.8450704,,,,,,,,,,,,,,,,,,,229.6486,14,0.514,,up,0.5,,stimuli/card_0_transparent.png,370,0,14,0,14,0,1,,,,,,,,,,,,,,,,,,,,,,,,,,,,,,,,,,,,,,,,,,,,
,,,,659808191190fc6e6c23a99f,A,2024-07-02_12h49.18.196,Slot Machine Game,2023.1.3,Win32,140.8450704,,,,,,,,,,,,,,,,,"[6,15]","[[1,3,2],[3,1,2]]",236.4826,0,0.5596,,right,0.5,,stimuli/card_10_transparent.png,10,10,0,0,0,0,1,,231.4737,,,,,,,,,,,,,,,,,,,,,,,,,,,,,,,,,,,,,,,,,,
,,,,659808191190fc6e6c23a99f,A,2024-07-02_12h49.18.196,Slot Machine Game,2023.1.3,Win32,140.8450704,,,,,,,,,,,,,,,,,,,238.3572,1,0.5297,,right,1.5,,stimuli/card_10_transparent.png,20,10,1,0,1,0,1,,,,,,,,,,,,,,,,,,,,,,,,,,,,,,,,,,,,,,,,,,,,
,,,,659808191190fc6e6c23a99f,A,2024-07-02_12h49.18.196,Slot Machine Game,2023.1.3,Win32,140.8450704,,,,,,,,,,,,,,,,,,,241.198,2,0.6691,,up,0.5,,stimuli/card_10_transparent.png,30,10,2,0,2,0,1,,,,,,,,,,,,,,,,,,,,,,,,,,,,,,,,,,,,,,,,,,,,
,,,,659808191190fc6e6c23a99f,A,2024-07-02_12h49.18.196,Slot Machine Game,2023.1.3,Win32,140.8450704,,,,,,,,,,,,,,,,,,,243.1715,3,0.183,,up,0.5,,stimuli/card_0_transparent.png,30,0,3,0,3,0,1,,,,,,,,,,,,,,,,,,,,,,,,,,,,,,,,,,,,,,,,,,,,
,,,,659808191190fc6e6c23a99f,A,2024-07-02_12h49.18.196,Slot Machine Game,2023.1.3,Win32,140.8450704,,,,,,,,,,,,,,,,,,,244.6562,4,0.0206,,up,1,,stimuli/card_100_transparent.png,130,100,4,0,4,0,1,,,,,,,,,,,,,,,,,,,,,,,,,,,,,,,,,,,,,,,,,,,,
,,,,659808191190fc6e6c23a99f,A,2024-07-02_12h49.18.196,Slot Machine Game,2023.1.3,Win32,140.8450704,,,,,,,,,,,,,,,,,,,246.4895,5,0.4257,,up,1.5,,stimuli/card_0_transparent.png,130,0,5,0,5,0,1,,,,,,,,,,,,,,,,,,,,,,,,,,,,,,,,,,,,,,,,,,,,
,,,,659808191190fc6e6c23a99f,A,2024-07-02_12h49.18.196,Slot Machine Game,2023.1.3,Win32,140.8450704,,,,,,,,,,,,,,,,,,,249.2261,6,1.4446,,left,1,,stimuli/card_10_transparent.png,140,10,6,0,6,0,1,,,,,,,,,,,,,,,,,,,,,,,,,,,,,,,,,,,,,,,,,,,,
,,,,659808191190fc6e6c23a99f,A,2024-07-02_12h49.18.196,Slot Machine Game,2023.1.3,Win32,140.8450704,,,,,,,,,,,,,,,,,,,252.4828,7,0.2082,,left,1,,stimuli/card_0_transparent.png,140,0,7,0,7,0,1,,,,,,,,,,,,,,,,,,,,,,,,,,,,,,,,,,,,,,,,,,,,
,,,,659808191190fc6e6c23a99f,A,2024-07-02_12h49.18.196,Slot Machine Game,2023.1.3,Win32,140.8450704,,,,,,,,,,,,,,,,,,,254.4897,8,2.0899,,left,0.5,,stimuli/card_0_transparent.png,140,0,8,0,8,0,1,,,,,,,,,,,,,,,,,,,,,,,,,,,,,,,,,,,,,,,,,,,,
,,,,659808191190fc6e6c23a99f,A,2024-07-02_12h49.18.196,Slot Machine Game,2023.1.3,Win32,140.8450704,,,,,,,,,,,,,,,,,,,257.8792,9,0.0555,,up,1.5,,stimuli/card_0_transparent.png,140,0,9,0,9,0,1,,,,,,,,,,,,,,,,,,,,,,,,,,,,,,,,,,,,,,,,,,,,
,,,,659808191190fc6e6c23a99f,A,2024-07-02_12h49.18.196,Slot Machine Game,2023.1.3,Win32,140.8450704,,,,,,,,,,,,,,,,,,,260.2473,10,0.1907,,right,1,,stimuli/card_0_transparent.png,140,0,10,0,10,0,1,,,,,,,,,,,,,,,,,,,,,,,,,,,,,,,,,,,,,,,,,,,,
,,,,659808191190fc6e6c23a99f,A,2024-07-02_12h49.18.196,Slot Machine Game,2023.1.3,Win32,140.8450704,,,,,,,,,,,,,,,,,,,262.2405,11,2.3683,,up,0.5,,stimuli/card_100_transparent.png,240,100,11,0,11,0,1,,,,,,,,,,,,,,,,,,,,,,,,,,,,,,,,,,,,,,,,,,,,
,,,,659808191190fc6e6c23a99f,A,2024-07-02_12h49.18.196,Slot Machine Game,2023.1.3,Win32,140.8450704,,,,,,,,,,,,,,,,,,,265.9277,12,0.3133,,up,0.5,,stimuli/card_10_transparent.png,250,10,12,0,12,0,1,,,,,,,,,,,,,,,,,,,,,,,,,,,,,,,,,,,,,,,,,,,,
,,,,659808191190fc6e6c23a99f,A,2024-07-02_12h49.18.196,Slot Machine Game,2023.1.3,Win32,140.8450704,,,,,,,,,,,,,,,,,,,267.5531,13,0.4133,,up,1.5,,stimuli/card_100_transparent.png,350,100,13,0,13,0,1,,,,,,,,,,,,,,,,,,,,,,,,,,,,,,,,,,,,,,,,,,,,
,,,,659808191190fc6e6c23a99f,A,2024-07-02_12h49.18.196,Slot Machine Game,2023.1.3,Win32,140.8450704,,,,,,,,,,,,,,,,,,,270.2766,14,0.1549,,up,1.5,,stimuli/card_100_transparent.png,450,100,14,0,14,0,1,,,,,,,,,,,,,,,,,,,,,,,,,,,,,,,,,,,,,,,,,,,,
,,,,659808191190fc6e6c23a99f,A,2024-07-02_12h49.18.196,Slot Machine Game,2023.1.3,Win32,140.8450704,,,,,,,,,,,,,,,,,,,,,,,,,,,,,,,,,,,272.7408,,,277.7414,space,1.3474,,,,,,,,,,,,,,,,,,,,,,,,,,,,,,,,,,,,,
,,,,659808191190fc6e6c23a99f,A,2024-07-02_12h49.18.196,Slot Machine Game,2023.1.3,Win32,140.8450704,,,,,,,,,,,,,,,,,,,,,,,,,,,,,,,,,,,,,,,,,,279.0966,1,"[0,1,2,3,4,5,6,7,8,9]",space,1.4582,,,,,,,,,,,,,,,,,,,,,,,,,,,,,,,
,,,,659808191190fc6e6c23a99f,A,2024-07-02_12h49.18.196,Slot Machine Game,2023.1.3,Win32,140.8450704,,,,,,,,,,,,,,,,,,,,,,,,,,,10,,,,,,,,,,,,,,,,,,,,,1,1,"[12,15]","[[2,1,3],[2,3,1]]",280.5682,0,left,0.6873,,1.5,0.3,"[2,1,3]",0.413344536,stimuli/card_10_transparent.png,10,0,0,0,0,1,,,,,,,,,,
,,,,659808191190fc6e6c23a99f,A,2024-07-02_12h49.18.196,Slot Machine Game,2023.1.3,Win32,140.8450704,,,,,,,,,,,,,,,,,,,,,,,,,,,20,,,,,,,,,,,,,,,,,,,,,1,1,,,283.5677,1,left,1.2533,,0.5,0.3,"[2,1,3]",0.591424971,stimuli/card_10_transparent.png,10,1,0,1,0,1,,,,,,,,,,
,,,,659808191190fc6e6c23a99f,A,2024-07-02_12h49.18.196,Slot Machine Game,2023.1.3,Win32,140.8450704,,,,,,,,,,,,,,,,,,,,,,,,,,,20,,,,,,,,,,,,,,,,,,,,,1,1,,,286.1301,2,right,0.3616,,1.5,0.3,"[2,1,3]",0.67208111,stimuli/card_0_transparent.png,0,2,0,2,0,1,,,,,,,,,,
,,,,659808191190fc6e6c23a99f,A,2024-07-02_12h49.18.196,Slot Machine Game,2023.1.3,Win32,140.8450704,,,,,,,,,,,,,,,,,,,,,,,,,,,120,,,,,,,,,,,,,,,,,,,,,1,1,,,288.8039,3,right,3.0523,,1.5,0.3,"[2,1,3]",0.032559925,stimuli/card_100_transparent.png,100,3,0,3,0,1,,,,,,,,,,
,,,,659808191190fc6e6c23a99f,A,2024-07-02_12h49.18.196,Slot Machine Game,2023.1.3,Win32,140.8450704,,,,,,,,,,,,,,,,,,,,,,,,,,,130,,,,,,,,,,,,,,,,,,,,,1,1,,,294.1653,4,right,0.2787,,1.5,0.3,"[2,1,3]",0.161687589,stimuli/card_10_transparent.png,10,4,0,4,0,1,,,,,,,,,,
,,,,659808191190fc6e6c23a99f,A,2024-07-02_12h49.18.196,Slot Machine Game,2023.1.3,Win32,140.8450704,,,,,,,,,,,,,,,,,,,,,,,,,,,130,,,,,,,,,,,,,,,,,,,,,1,1,,,296.7551,5,right,0.0293,,0.5,0.3,"[2,1,3]",0.567982187,stimuli/card_0_transparent.png,0,5,0,5,0,1,,,,,,,,,,
,,,,659808191190fc6e6c23a99f,A,2024-07-02_12h49.18.196,Slot Machine Game,2023.1.3,Win32,140.8450704,,,,,,,,,,,,,,,,,,,,,,,,,,,230,,,,,,,,,,,,,,,,,,,,,1,1,,,298.0903,6,up,0.4214,,1.5,0.3,"[2,1,3]",0.630094588,stimuli/card_100_transparent.png,100,6,0,6,0,1,,,,,,,,,,
,,,,659808191190fc6e6c23a99f,A,2024-07-02_12h49.18.196,Slot Machine Game,2023.1.3,Win32,140.8450704,,,,,,,,,,,,,,,,,,,,,,,,,,,330,,,,,,,,,,,,,,,,,,,,,1,1,,,300.8194,7,up,0.8267,,1.5,0.3,"[2,1,3]",0.260458378,stimuli/card_100_transparent.png,100,7,0,7,0,1,,,,,,,,,,
,,,,659808191190fc6e6c23a99f,A,2024-07-02_12h49.18.196,Slot Machine Game,2023.1.3,Win32,140.8450704,,,,,,,,,,,,,,,,,,,,,,,,,,,430,,,,,,,,,,,,,,,,,,,,,1,1,,,303.9503,8,up,0.2055,,1.5,0.3,"[2,1,3]",0.603235018,stimuli/card_100_transparent.png,100,8,0,8,0,1,,,,,,,,,,
,,,,659808191190fc6e6c23a99f,A,2024-07-02_12h49.18.196,Slot Machine Game,2023.1.3,Win32,140.8450704,,,,,,,,,,,,,,,,,,,,,,,,,,,530,,,,,,,,,,,,,,,,,,,,,1,1,,,306.4643,9,up,0.6287,,1.5,0.3,"[2,1,3]",0.443519274,stimuli/card_100_transparent.png,100,9,0,9,0,1,,,,,,,,,,
,,,,659808191190fc6e6c23a99f,A,2024-07-02_12h49.18.196,Slot Machine Game,2023.1.3,Win32,140.8450704,,,,,,,,,,,,,,,,,,,,,,,,,,,630,,,,,,,,,,,,,,,,,,,,,1,1,,,309.4018,10,up,0.1479,,1.5,0.3,"[2,1,3]",0.589293978,stimuli/card_100_transparent.png,100,10,0,10,0,1,,,,,,,,,,
,,,,659808191190fc6e6c23a99f,A,2024-07-02_12h49.18.196,Slot Machine Game,2023.1.3,Win32,140.8450704,,,,,,,,,,,,,,,,,,,,,,,,,,,730,,,,,,,,,,,,,,,,,,,,,1,1,,,311.8534,11,up,0.1752,,1,0.3,"[2,1,3]",0.733831326,stimuli/card_100_transparent.png,100,11,0,11,0,1,,,,,,,,,,
,,,,659808191190fc6e6c23a99f,A,2024-07-02_12h49.18.196,Slot Machine Game,2023.1.3,Win32,140.8450704,,,,,,,,,,,,,,,,,,,,,,,,,,,730,,,,,,,,,,,,,,,,,,,,,1,1,,,313.8391,12,up,0.1233,,1.5,0.3,"[2,3,1]",0.816281161,stimuli/card_0_transparent.png,0,12,0,12,0,1,,,,,,,,,,
,,,,659808191190fc6e6c23a99f,A,2024-07-02_12h49.18.196,Slot Machine Game,2023.1.3,Win32,140.8450704,,,,,,,,,,,,,,,,,,,,,,,,,,,730,,,,,,,,,,,,,,,,,,,,,1,1,,,316.2714,13,up,0.0573,,1.5,0.3,"[2,3,1]",0.20295016,stimuli/card_0_transparent.png,0,13,0,13,0,1,,,,,,,,,,
,,,,659808191190fc6e6c23a99f,A,2024-07-02_12h49.18.196,Slot Machine Game,2023.1.3,Win32,140.8450704,,,,,,,,,,,,,,,,,,,,,,,,,,,730,,,,,,,,,,,,,,,,,,,,,1,1,,,318.638,14,up,0.9839,,1,0.3,"[2,3,1]",0.687206617,stimuli/card_0_transparent.png,0,14,0,14,0,1,,,,,,,,,,
,,,,659808191190fc6e6c23a99f,A,2024-07-02_12h49.18.196,Slot Machine Game,2023.1.3,Win32,140.8450704,,,,,,,,,,,,,,,,,,,,,,,,,,,,,,,,,,,321.4297,,,,,,,,,,,,,,,,,,,,,,,,,,,,,,,,,[730],0,0,0,0,1,,,,
,,,,659808191190fc6e6c23a99f,A,2024-07-02_12h49.18.196,Slot Machine Game,2023.1.3,Win32,140.8450704,,,,,,,,,,,,,,,,,,,,,,,,,,,10,,,,,,,,,,,,,,,,,,,,,2,2,"[6,15]","[[1,3,2],[3,2,1]]",326.4356,0,right,0.4402,,0.5,0.3,"[1,3,2]",0.628374598,stimuli/card_10_transparent.png,10,0,0,0,0,1,,,,,,,,,,
,,,,659808191190fc6e6c23a99f,A,2024-07-02_12h49.18.196,Slot Machine Game,2023.1.3,Win32,140.8450704,,,,,,,,,,,,,,,,,,,,,,,,,,,20,,,,,,,,,,,,,,,,,,,,,2,2,,,328.1873,1,right,0.0178,,1.5,0.3,"[1,3,2]",0.925893175,stimuli/card_10_transparent.png,10,1,0,1,0,1,,,,,,,,,,
,,,,659808191190fc6e6c23a99f,A,2024-07-02_12h49.18.196,Slot Machine Game,2023.1.3,Win32,140.8450704,,,,,,,,,,,,,,,,,,,,,,,,,,,120,,,,,,,,,,,,,,,,,,,,,2,2,,,330.5068,2,right,2.0282,,0.5,0.3,"[1,3,2]",0.172288405,stimuli/card_100_transparent.png,100,2,0,2,0,1,,,,,,,,,,
,,,,659808191190fc6e6c23a99f,A,2024-07-02_12h49.18.196,Slot Machine Game,2023.1.3,Win32,140.8450704,,,,,,,,,,,,,,,,,,,,,,,,,,,120,,,,,,,,,,,,,,,,,,,,,2,2,,,333.8486,3,up,0.8818,,0.5,0.3,"[1,3,2]",0.392477326,stimuli/card_0_transparent.png,0,3,0,3,0,1,,,,,,,,,,
,,,,659808191190fc6e6c23a99f,A,2024-07-02_12h49.18.196,Slot Machine Game,2023.1.3,Win32,140.8450704,,,,,,,,,,,,,,,,,,,,,,,,,,,120,,,,,,,,,,,,,,,,,,,,,2,2,,,336.0417,4,up,0.2468,,1,0.3,"[1,3,2]",0.360614974,stimuli/card_0_transparent.png,0,4,0,4,0,1,,,,,,,,,,
,,,,659808191190fc6e6c23a99f,A,2024-07-02_12h49.18.196,Slot Machine Game,2023.1.3,Win32,140.8450704,,,,,,,,,,,,,,,,,,,,,,,,,,,120,,,,,,,,,,,,,,,,,,,,,2,2,,,338.097,5,up,0.0492,,1,0.3,"[1,3,2]",0.472387466,stimuli/card_0_transparent.png,0,5,0,5,0,1,,,,,,,,,,
,,,,659808191190fc6e6c23a99f,A,2024-07-02_12h49.18.196,Slot Machine Game,2023.1.3,Win32,140.8450704,,,,,,,,,,,,,,,,,,,,,,,,,,,120,,,,,,,,,,,,,,,,,,,,,2,2,,,339.9527,6,left,0.3944,,1.5,0.3,"[3,2,1]",0.473268831,stimuli/card_0_transparent.png,0,6,0,6,0,1,,,,,,,,,,
,,,,659808191190fc6e6c23a99f,A,2024-07-02_12h49.18.196,Slot Machine Game,2023.1.3,Win32,140.8450704,,,,,,,,,,,,,,,,,,,,,,,,,,,120,,,,,,,,,,,,,,,,,,,,,2,2,,,342.6528,7,left,0.2987,,1.5,0.3,"[3,2,1]",0.675999764,stimuli/card_0_transparent.png,0,7,0,7,0,1,,,,,,,,,,
,,,,659808191190fc6e6c23a99f,A,2024-07-02_12h49.18.196,Slot Machine Game,2023.1.3,Win32,140.8450704,,,,,,,,,,,,,,,,,,,,,,,,,,,130,,,,,,,,,,,,,,,,,,,,,2,2,,,345.2639,8,left,0.0221,,0.5,0.3,"[3,2,1]",0.14696759,stimuli/card_10_transparent.png,10,8,0,8,0,1,,,,,,,,,,
,,,,659808191190fc6e6c23a99f,A,2024-07-02_12h49.18.196,Slot Machine Game,2023.1.3,Win32,140.8450704,,,,,,,,,,,,,,,,,,,,,,,,,,,230,,,,,,,,,,,,,,,,,,,,,2,2,,,346.5991,9,right,0.0844,,1,0.3,"[3,2,1]",0.325397843,stimuli/card_100_transparent.png,100,9,0,9,0,1,,,,,,,,,,
,,,,659808191190fc6e6c23a99f,A,2024-07-02_12h49.18.196,Slot Machine Game,2023.1.3,Win32,140.8450704,,,,,,,,,,,,,,,,,,,,,,,,,,,330,,,,,,,,,,,,,,,,,,,,,2,2,,,348.4936,10,right,0.287,,1,0.3,"[3,2,1]",0.281414445,stimuli/card_100_transparent.png,100,10,0,10,0,1,,,,,,,,,,
,,,,659808191190fc6e6c23a99f,A,2024-07-02_12h49.18.196,Slot Machine Game,2023.1.3,Win32,140.8450704,,,,,,,,,,,,,,,,,,,,,,,,,,,430,,,,,,,,,,,,,,,,,,,,,2,2,,,350.5909,11,right,0.2668,,1,0.3,"[3,2,1]",0.704225611,stimuli/card_100_transparent.png,100,11,0,11,0,1,,,,,,,,,,
,,,,659808191190fc6e6c23a99f,A,2024-07-02_12h49.18.196,Slot Machine Game,2023.1.3,Win32,140.8450704,,,,,,,,,,,,,,,,,,,,,,,,,,,530,,,,,,,,,,,,,,,,,,,,,2,2,,,352.6673,12,right,0.1701,,1,0.3,"[3,2,1]",0.38614746,stimuli/card_100_transparent.png,100,12,0,12,0,1,,,,,,,,,,
,,,,659808191190fc6e6c23a99f,A,2024-07-02_12h49.18.196,Slot Machine Game,2023.1.3,Win32,140.8450704,,,,,,,,,,,,,,,,,,,,,,,,,,,630,,,,,,,,,,,,,,,,,,,,,2,2,,,354.6479,13,right,0.2849,,0.5,0.3,"[3,2,1]",0.441398643,stimuli/card_100_transparent.png,100,13,0,13,0,1,,,,,,,,,,
,,,,659808191190fc6e6c23a99f,A,2024-07-02_12h49.18.196,Slot Machine Game,2023.1.3,Win32,140.8450704,,,,,,,,,,,,,,,,,,,,,,,,,,,730,,,,,,,,,,,,,,,,,,,,,2,2,,,356.2364,14,right,0.4055,,0.5,0.3,"[3,2,1]",0.793933837,stimuli/card_100_transparent.png,100,14,0,14,0,1,,,,,,,,,,
,,,,659808191190fc6e6c23a99f,A,2024-07-02_12h49.18.196,Slot Machine Game,2023.1.3,Win32,140.8450704,,,,,,,,,,,,,,,,,,,,,,,,,,,,,,,,,,,357.9467,,,,,,,,,,,,,,,,,,,,,,,,,,,,,,,,,"[730,730]",1,0,1,0,1,,,,
,,,,659808191190fc6e6c23a99f,A,2024-07-02_12h49.18.196,Slot Machine Game,2023.1.3,Win32,140.8450704,,,,,,,,,,,,,,,,,,,,,,,,,,,100,,,,,,,,,,,,,,,,,,,,,3,3,"[15,15]","[[3,1,2],[3,1,2]]",362.9512,0,up,1.0262,,0.5,0.3,"[3,1,2]",0.583075413,stimuli/card_100_transparent.png,100,0,0,0,0,1,,,,,,,,,,
,,,,659808191190fc6e6c23a99f,A,2024-07-02_12h49.18.196,Slot Machine Game,2023.1.3,Win32,140.8450704,,,,,,,,,,,,,,,,,,,,,,,,,,,100,,,,,,,,,,,,,,,,,,,,,3,3,,,365.2789,1,up,0.5764,,1.5,0.3,"[3,1,2]",0.074479375,stimuli/card_0_transparent.png,0,1,0,1,0,1,,,,,,,,,,
,,,,659808191190fc6e6c23a99f,A,2024-07-02_12h49.18.196,Slot Machine Game,2023.1.3,Win32,140.8450704,,,,,,,,,,,,,,,,,,,,,,,,,,,200,,,,,,,,,,,,,,,,,,,,,3,3,,,368.1679,2,up,0.3879,,1,0.3,"[3,1,2]",0.902416627,stimuli/card_100_transparent.png,100,2,0,2,0,1,,,,,,,,,,
,,,,659808191190fc6e6c23a99f,A,2024-07-02_12h49.18.196,Slot Machine Game,2023.1.3,Win32,140.8450704,,,,,,,,,,,,,,,,,,,,,,,,,,,300,,,,,,,,,,,,,,,,,,,,,3,3,,,370.3693,3,up,0.544,,0.5,0.3,"[3,1,2]",0.707797851,stimuli/card_100_transparent.png,100,3,0,3,0,1,,,,,,,,,,
,,,,659808191190fc6e6c23a99f,A,2024-07-02_12h49.18.196,Slot Machine Game,2023.1.3,Win32,140.8450704,,,,,,,,,,,,,,,,,,,,,,,,,,,400,,,,,,,,,,,,,,,,,,,,,3,3,,,372.2236,4,up,0.2068,,0.5,0.3,"[3,1,2]",0.740459355,stimuli/card_100_transparent.png,100,4,0,4,0,1,,,,,,,,,,
,,,,659808191190fc6e6c23a99f,A,2024-07-02_12h49.18.196,Slot Machine Game,2023.1.3,Win32,140.8450704,,,,,,,,,,,,,,,,,,,,,,,,,,,400,,,,,,,,,,,,,,,,,,,,,3,3,,,373.7441,5,up,0.0309,,1.5,0.3,"[3,1,2]",0.098580174,stimuli/card_0_transparent.png,0,5,0,5,0,1,,,,,,,,,,
,,,,659808191190fc6e6c23a99f,A,2024-07-02_12h49.18.196,Slot Machine Game,2023.1.3,Win32,140.8450704,,,,,,,,,,,,,,,,,,,,,,,,,,,500,,,,,,,,,,,,,,,,,,,,,3,3,,,376.0848,6,up,1.9856,,1,0.3,"[3,1,2]",0.878672778,stimuli/card_100_transparent.png,100,6,0,6,0,1,,,,,,,,,,
,,,,659808191190fc6e6c23a99f,A,2024-07-02_12h49.18.196,Slot Machine Game,2023.1.3,Win32,140.8450704,,,,,,,,,,,,,,,,,,,,,,,,,,,600,,,,,,,,,,,,,,,,,,,,,3,3,,,379.8766,7,up,0.0628,,1.5,0.3,"[3,1,2]",0.200701009,stimuli/card_100_transparent.png,100,7,0,7,0,1,,,,,,,,,,
,,,,659808191190fc6e6c23a99f,A,2024-07-02_12h49.18.196,Slot Machine Game,2023.1.3,Win32,140.8450704,,,,,,,,,,,,,,,,,,,,,,,,,,,700,,,,,,,,,,,,,,,,,,,,,3,3,,,382.2444,8,up,0.2919,,0.5,0.3,"[3,1,2]",0.890517706,stimuli/card_100_transparent.png,100,8,0,8,0,1,,,,,,,,,,
,,,,659808191190fc6e6c23a99f,A,2024-07-02_12h49.18.196,Slot Machine Game,2023.1.3,Win32,140.8450704,,,,,,,,,,,,,,,,,,,,,,,,,,,800,,,,,,,,,,,,,,,,,,,,,3,3,,,383.8485,9,up,0.0417,,0.5,0.3,"[3,1,2]",0.605852165,stimuli/card_100_transparent.png,100,9,0,9,0,1,,,,,,,,,,
,,,,659808191190fc6e6c23a99f,A,2024-07-02_12h49.18.196,Slot Machine Game,2023.1.3,Win32,140.8450704,,,,,,,,,,,,,,,,,,,,,,,,,,,810,,,,,,,,,,,,,,,,,,,,,3,3,,,385.1959,10,up,0.1852,,1.5,0.3,"[3,1,2]",0.150116807,stimuli/card_10_transparent.png,10,10,0,10,0,1,,,,,,,,,,
,,,,659808191190fc6e6c23a99f,A,2024-07-02_12h49.18.196,Slot Machine Game,2023.1.3,Win32,140.8450704,,,,,,,,,,,,,,,,,,,,,,,,,,,910,,,,,,,,,,,,,,,,,,,,,3,3,,,387.6894,11,up,0.0696,,0.5,0.3,"[3,1,2]",0.98238789,stimuli/card_100_transparent.png,100,11,0,11,0,1,,,,,,,,,,
,,,,659808191190fc6e6c23a99f,A,2024-07-02_12h49.18.196,Slot Machine Game,2023.1.3,Win32,140.8450704,,,,,,,,,,,,,,,,,,,,,,,,,,,910,,,,,,,,,,,,,,,,,,,,,3,3,,,389.0644,12,up,0.0571,,1,0.3,"[3,1,2]",0.073437846,stimuli/card_0_transparent.png,0,12,0,12,0,1,,,,,,,,,,
,,,,659808191190fc6e6c23a99f,A,2024-07-02_12h49.18.196,Slot Machine Game,2023.1.3,Win32,140.8450704,,,,,,,,,,,,,,,,,,,,,,,,,,,1010,,,,,,,,,,,,,,,,,,,,,3,3,,,390.9256,13,up,0.0977,,1,0.3,"[3,1,2]",0.688204625,stimuli/card_100_transparent.png,100,13,0,13,0,1,,,,,,,,,,
,,,,659808191190fc6e6c23a99f,A,2024-07-02_12h49.18.196,Slot Machine Game,2023.1.3,Win32,140.8450704,,,,,,,,,,,,,,,,,,,,,,,,,,,1110,,,,,,,,,,,,,,,,,,,,,3,3,,,392.8354,14,up,0.3543,,0.5,0.3,"[3,1,2]",0.949084316,stimuli/card_100_transparent.png,100,14,0,14,0,1,,,,,,,,,,
,,,,659808191190fc6e6c23a99f,A,2024-07-02_12h49.18.196,Slot Machine Game,2023.1.3,Win32,140.8450704,,,,,,,,,,,,,,,,,,,,,,,,,,,,,,,,,,,394.5021,,,,,,,,,,,,,,,,,,,,,,,,,,,,,,,,,"[730,730,1110]",2,0,2,0,1,,,,
,,,,659808191190fc6e6c23a99f,A,2024-07-02_12h49.18.196,Slot Machine Game,2023.1.3,Win32,140.8450704,,,,,,,,,,,,,,,,,,,,,,,,,,,10,,,,,,,,,,,,,,,,,,,,,4,4,"[7,15]","[[2,3,1],[1,2,3]]",399.5076,0,left,0.789,,1,0.3,"[2,3,1]",0.969423233,stimuli/card_10_transparent.png,10,0,0,0,0,1,,,,,,,,,,
,,,,659808191190fc6e6c23a99f,A,2024-07-02_12h49.18.196,Slot Machine Game,2023.1.3,Win32,140.8450704,,,,,,,,,,,,,,,,,,,,,,,,,,,20,,,,,,,,,,,,,,,,,,,,,4,4,,,402.0997,1,left,0.0768,,0.5,0.3,"[2,3,1]",0.542112049,stimuli/card_10_transparent.png,10,1,0,1,0,1,,,,,,,,,,
,,,,659808191190fc6e6c23a99f,A,2024-07-02_12h49.18.196,Slot Machine Game,2023.1.3,Win32,140.8450704,,,,,,,,,,,,,,,,,,,,,,,,,,,20,,,,,,,,,,,,,,,,,,,,,4,4,,,403.4883,2,up,0.5768,,0.5,0.3,"[2,3,1]",0.996361783,stimuli/card_0_transparent.png,0,2,0,2,0,1,,,,,,,,,,
,,,,659808191190fc6e6c23a99f,A,2024-07-02_12h49.18.196,Slot Machine Game,2023.1.3,Win32,140.8450704,,,,,,,,,,,,,,,,,,,,,,,,,,,30,,,,,,,,,,,,,,,,,,,,,4,4,,,405.3771,3,up,0.0977,,1.5,0.3,"[2,3,1]",0.141352907,stimuli/card_10_transparent.png,10,3,0,3,0,1,,,,,,,,,,
,,,,659808191190fc6e6c23a99f,A,2024-07-02_12h49.18.196,Slot Machine Game,2023.1.3,Win32,140.8450704,,,,,,,,,,,,,,,,,,,,,,,,,,,130,,,,,,,,,,,,,,,,,,,,,4,4,,,407.7804,4,right,0.2364,,0.5,0.3,"[2,3,1]",0.991943573,stimuli/card_100_transparent.png,100,4,0,4,0,1,,,,,,,,,,
,,,,659808191190fc6e6c23a99f,A,2024-07-02_12h49.18.196,Slot Machine Game,2023.1.3,Win32,140.8450704,,,,,,,,,,,,,,,,,,,,,,,,,,,230,,,,,,,,,,,,,,,,,,,,,4,4,,,409.329,5,right,0.0911,,1,0.3,"[2,3,1]",0.366078281,stimuli/card_100_transparent.png,100,5,0,5,0,1,,,,,,,,,,
,,,,659808191190fc6e6c23a99f,A,2024-07-02_12h49.18.196,Slot Machine Game,2023.1.3,Win32,140.8450704,,,,,,,,,,,,,,,,,,,,,,,,,,,330,,,,,,,,,,,,,,,,,,,,,4,4,,,411.2319,6,right,0.1043,,1,0.3,"[2,3,1]",0.700919674,stimuli/card_100_transparent.png,100,6,0,6,0,1,,,,,,,,,,
,,,,659808191190fc6e6c23a99f,A,2024-07-02_12h49.18.196,Slot Machine Game,2023.1.3,Win32,140.8450704,,,,,,,,,,,,,,,,,,,,,,,,,,,430,,,,,,,,,,,,,,,,,,,,,4,4,,,413.1417,7,right,0.1339,,1,0.3,"[1,2,3]",0.067256361,stimuli/card_100_transparent.png,100,7,0,7,0,1,,,,,,,,,,
,,,,659808191190fc6e6c23a99f,A,2024-07-02_12h49.18.196,Slot Machine Game,2023.1.3,Win32,140.8450704,,,,,,,,,,,,,,,,,,,,,,,,,,,430,,,,,,,,,,,,,,,,,,,,,4,4,,,415.0862,8,right,0.1724,,1,0.3,"[1,2,3]",0.803002773,stimuli/card_0_transparent.png,0,8,0,8,0,1,,,,,,,,,,
,,,,659808191190fc6e6c23a99f,A,2024-07-02_12h49.18.196,Slot Machine Game,2023.1.3,Win32,140.8450704,,,,,,,,,,,,,,,,,,,,,,,,,,,430,,,,,,,,,,,,,,,,,,,,,4,4,,,417.072,9,right,0.1701,,1,0.3,"[1,2,3]",0.778968883,stimuli/card_0_transparent.png,0,9,0,9,0,1,,,,,,,,,,
,,,,659808191190fc6e6c23a99f,A,2024-07-02_12h49.18.196,Slot Machine Game,2023.1.3,Win32,140.8450704,,,,,,,,,,,,,,,,,,,,,,,,,,,430,,,,,,,,,,,,,,,,,,,,,4,4,,,419.0516,10,right,0.1746,,0.5,0.3,"[1,2,3]",0.257334328,stimuli/card_0_transparent.png,0,10,0,10,0,1,,,,,,,,,,
,,,,659808191190fc6e6c23a99f,A,2024-07-02_12h49.18.196,Slot Machine Game,2023.1.3,Win32,140.8450704,,,,,,,,,,,,,,,,,,,,,,,,,,,440,,,,,,,,,,,,,,,,,,,,,4,4,,,420.5378,11,right,0.2916,,1.5,0.3,"[1,2,3]",0.117593117,stimuli/card_10_transparent.png,10,11,0,11,0,1,,,,,,,,,,
,,,,659808191190fc6e6c23a99f,A,2024-07-02_12h49.18.196,Slot Machine Game,2023.1.3,Win32,140.8450704,,,,,,,,,,,,,,,,,,,,,,,,,,,540,,,,,,,,,,,,,,,,,,,,,4,4,,,423.1417,12,right,0.2508,,1,0.3,"[1,2,3]",0.017046302,stimuli/card_100_transparent.png,100,12,0,12,0,1,,,,,,,,,,
,,,,659808191190fc6e6c23a99f,A,2024-07-02_12h49.18.196,Slot Machine Game,2023.1.3,Win32,140.8450704,,,,,,,,,,,,,,,,,,,,,,,,,,,540,,,,,,,,,,,,,,,,,,,,,4,4,,,425.1977,13,right,0.469,,0.5,0.3,"[1,2,3]",0.263696829,stimuli/card_0_transparent.png,0,13,0,13,0,1,,,,,,,,,,
,,,,659808191190fc6e6c23a99f,A,2024-07-02_12h49.18.196,Slot Machine Game,2023.1.3,Win32,140.8450704,,,,,,,,,,,,,,,,,,,,,,,,,,,540,,,,,,,,,,,,,,,,,,,,,4,4,,,426.9752,14,right,0.2319,,1.5,0.3,"[1,2,3]",0.533006201,stimuli/card_0_transparent.png,0,14,0,14,0,1,,,,,,,,,,
,,,,659808191190fc6e6c23a99f,A,2024-07-02_12h49.18.196,Slot Machine Game,2023.1.3,Win32,140.8450704,,,,,,,,,,,,,,,,,,,,,,,,,,,,,,,,,,,429.51,,,,,,,,,,,,,,,,,,,,,,,,,,,,,,,,,"[730,730,1110,540]",3,0,3,0,1,,,,
,,,,659808191190fc6e6c23a99f,A,2024-07-02_12h49.18.196,Slot Machine Game,2023.1.3,Win32,140.8450704,,,,,,,,,,,,,,,,,,,,,,,,,,,100,,,,,,,,,,,,,,,,,,,,,5,5,"[5,15]","[[1,2,3],[3,1,2]]",434.5163,0,left,0.668,,0.5,0.3,"[1,2,3]",0.704182872,stimuli/card_100_transparent.png,100,0,0,0,0,1,,,,,,,,,,
,,,,659808191190fc6e6c23a99f,A,2024-07-02_12h49.18.196,Slot Machine Game,2023.1.3,Win32,140.8450704,,,,,,,,,,,,,,,,,,,,,,,,,,,200,,,,,,,,,,,,,,,,,,,,,5,5,,,436.4895,1,left,0.0352,,1,0.3,"[1,2,3]",0.210707684,stimuli/card_100_transparent.png,100,1,0,1,0,1,,,,,,,,,,
,,,,659808191190fc6e6c23a99f,A,2024-07-02_12h49.18.196,Slot Machine Game,2023.1.3,Win32,140.8450704,,,,,,,,,,,,,,,,,,,,,,,,,,,300,,,,,,,,,,,,,,,,,,,,,5,5,,,438.3301,2,left,0.1682,,0.5,0.3,"[1,2,3]",0.818952657,stimuli/card_100_transparent.png,100,2,0,2,0,1,,,,,,,,,,
,,,,659808191190fc6e6c23a99f,A,2024-07-02_12h49.18.196,Slot Machine Game,2023.1.3,Win32,140.8450704,,,,,,,,,,,,,,,,,,,,,,,,,,,400,,,,,,,,,,,,,,,,,,,,,5,5,,,439.8094,3,left,0.0139,,1.5,0.3,"[1,2,3]",0.902170872,stimuli/card_100_transparent.png,100,3,0,3,0,1,,,,,,,,,,
,,,,659808191190fc6e6c23a99f,A,2024-07-02_12h49.18.196,Slot Machine Game,2023.1.3,Win32,140.8450704,,,,,,,,,,,,,,,,,,,,,,,,,,,500,,,,,,,,,,,,,,,,,,,,,5,5,,,442.1289,4,left,0.1186,,1,0.3,"[1,2,3]",0.922945439,stimuli/card_100_transparent.png,100,4,0,4,0,1,,,,,,,,,,
,,,,659808191190fc6e6c23a99f,A,2024-07-02_12h49.18.196,Slot Machine Game,2023.1.3,Win32,140.8450704,,,,,,,,,,,,,,,,,,,,,,,,,,,600,,,,,,,,,,,,,,,,,,,,,5,5,,,444.0595,5,left,0.2012,,1,0.3,"[3,1,2]",0.039854201,stimuli/card_100_transparent.png,100,5,0,5,0,1,,,,,,,,,,
,,,,659808191190fc6e6c23a99f,A,2024-07-02_12h49.18.196,Slot Machine Game,2023.1.3,Win32,140.8450704,,,,,,,,,,,,,,,,,,,,,,,,,,,600,,,,,,,,,,,,,,,,,,,,,5,5,,,446.0596,6,left,0.3644,,0.5,0.3,"[3,1,2]",0.343519614,stimuli/card_0_transparent.png,0,6,0,6,0,1,,,,,,,,,,
,,,,659808191190fc6e6c23a99f,A,2024-07-02_12h49.18.196,Slot Machine Game,2023.1.3,Win32,140.8450704,,,,,,,,,,,,,,,,,,,,,,,,,,,600,,,,,,,,,,,,,,,,,,,,,5,5,,,447.7333,7,right,0.3268,,1,0.3,"[3,1,2]",0.062546402,stimuli/card_0_transparent.png,0,7,0,7,0,1,,,,,,,,,,
,,,,659808191190fc6e6c23a99f,A,2024-07-02_12h49.18.196,Slot Machine Game,2023.1.3,Win32,140.8450704,,,,,,,,,,,,,,,,,,,,,,,,,,,600,,,,,,,,,,,,,,,,,,,,,5,5,,,449.8653,8,left,1.4386,,0.5,0.3,"[3,1,2]",0.267217814,stimuli/card_0_transparent.png,0,8,0,8,0,1,,,,,,,,,,
,,,,659808191190fc6e6c23a99f,A,2024-07-02_12h49.18.196,Slot Machine Game,2023.1.3,Win32,140.8450704,,,,,,,,,,,,,,,,,,,,,,,,,,,700,,,,,,,,,,,,,,,,,,,,,5,5,,,452.6092,9,up,0.1792,,1,0.3,"[3,1,2]",0.340129887,stimuli/card_100_transparent.png,100,9,0,9,0,1,,,,,,,,,,
,,,,659808191190fc6e6c23a99f,A,2024-07-02_12h49.18.196,Slot Machine Game,2023.1.3,Win32,140.8450704,,,,,,,,,,,,,,,,,,,,,,,,,,,800,,,,,,,,,,,,,,,,,,,,,5,5,,,454.5877,10,up,0.1596,,0.5,0.3,"[3,1,2]",0.703224283,stimuli/card_100_transparent.png,100,10,0,10,0,1,,,,,,,,,,
,,,,659808191190fc6e6c23a99f,A,2024-07-02_12h49.18.196,Slot Machine Game,2023.1.3,Win32,140.8450704,,,,,,,,,,,,,,,,,,,,,,,,,,,900,,,,,,,,,,,,,,,,,,,,,5,5,,,456.06,11,up,0.1321,,1,0.3,"[3,1,2]",0.735148253,stimuli/card_100_transparent.png,100,11,0,11,0,1,,,,,,,,,,
,,,,659808191190fc6e6c23a99f,A,2024-07-02_12h49.18.196,Slot Machine Game,2023.1.3,Win32,140.8450704,,,,,,,,,,,,,,,,,,,,,,,,,,,1000,,,,,,,,,,,,,,,,,,,,,5,5,,,458.0114,12,up,0.0483,,1.5,0.3,"[3,1,2]",0.883218121,stimuli/card_100_transparent.png,100,12,0,12,0,1,,,,,,,,,,
,,,,659808191190fc6e6c23a99f,A,2024-07-02_12h49.18.196,Slot Machine Game,2023.1.3,Win32,140.8450704,,,,,,,,,,,,,,,,,,,,,,,,,,,1100,,,,,,,,,,,,,,,,,,,,,5,5,,,460.3586,13,up,0.1874,,1,0.3,"[3,1,2]",0.619919678,stimuli/card_100_transparent.png,100,13,0,13,0,1,,,,,,,,,,
,,,,659808191190fc6e6c23a99f,A,2024-07-02_12h49.18.196,Slot Machine Game,2023.1.3,Win32,140.8450704,,,,,,,,,,,,,,,,,,,,,,,,,,,1110,,,,,,,,,,,,,,,,,,,,,5,5,,,462.3449,14,up,0.2582,,1.5,0.3,"[3,1,2]",0.195672305,stimuli/card_10_transparent.png,10,14,0,14,0,1,,,,,,,,,,
,,,,659808191190fc6e6c23a99f,A,2024-07-02_12h49.18.196,Slot Machine Game,2023.1.3,Win32,140.8450704,,,,,,,,,,,,,,,,,,,,,,,,,,,,,,,,,,,464.9071,,,,,,,,,,,,,,,,,,,,,,,,,,,,,,,,,"[730,730,1110,540,1110]",4,0,4,0,1,,,,
,,,,659808191190fc6e6c23a99f,A,2024-07-02_12h49.18.196,Slot Machine Game,2023.1.3,Win32,140.8450704,,,,,,,,,,,,,,,,,,,,,,,,,,,0,,,,,,,,,,,,,,,,,,,,,6,6,"[4,10,15]","[[2,3,1],[1,3,2],[3,2,1]]",469.9134,0,left,2.417,,0.5,0.3,"[2,3,1]",0.020407134,stimuli/card_0_transparent.png,0,0,0,0,0,1,,,,,,,,,,
,,,,659808191190fc6e6c23a99f,A,2024-07-02_12h49.18.196,Slot Machine Game,2023.1.3,Win32,140.8450704,,,,,,,,,,,,,,,,,,,,,,,,,,,100,,,,,,,,,,,,,,,,,,,,,6,6,,,473.637,1,right,0.3429,,0.5,0.3,"[2,3,1]",0.561080796,stimuli/card_100_transparent.png,100,1,0,1,0,1,,,,,,,,,,
,,,,659808191190fc6e6c23a99f,A,2024-07-02_12h49.18.196,Slot Machine Game,2023.1.3,Win32,140.8450704,,,,,,,,,,,,,,,,,,,,,,,,,,,200,,,,,,,,,,,,,,,,,,,,,6,6,,,475.2829,2,right,0.9552,,1,0.3,"[2,3,1]",0.523788759,stimuli/card_100_transparent.png,100,2,0,2,0,1,,,,,,,,,,
,,,,659808191190fc6e6c23a99f,A,2024-07-02_12h49.18.196,Slot Machine Game,2023.1.3,Win32,140.8450704,,,,,,,,,,,,,,,,,,,,,,,,,,,210,,,,,,,,,,,,,,,,,,,,,6,6,,,478.0465,3,right,0.0833,,0.5,0.3,"[2,3,1]",0.146410303,stimuli/card_10_transparent.png,10,3,0,3,0,1,,,,,,,,,,
,,,,659808191190fc6e6c23a99f,A,2024-07-02_12h49.18.196,Slot Machine Game,2023.1.3,Win32,140.8450704,,,,,,,,,,,,,,,,,,,,,,,,,,,220,,,,,,,,,,,,,,,,,,,,,6,6,,,479.4428,4,right,1.0208,,1.5,0.3,"[1,3,2]",0.658833322,stimuli/card_10_transparent.png,10,4,0,4,0,1,,,,,,,,,,
,,,,659808191190fc6e6c23a99f,A,2024-07-02_12h49.18.196,Slot Machine Game,2023.1.3,Win32,140.8450704,,,,,,,,,,,,,,,,,,,,,,,,,,,220,,,,,,,,,,,,,,,,,,,,,6,6,,,482.7761,5,up,0.4252,,1.5,0.3,"[1,3,2]",0.964379851,stimuli/card_0_transparent.png,0,5,0,5,0,1,,,,,,,,,,
,,,,659808191190fc6e6c23a99f,A,2024-07-02_12h49.18.196,Slot Machine Game,2023.1.3,Win32,140.8450704,,,,,,,,,,,,,,,,,,,,,,,,,,,220,,,,,,,,,,,,,,,,,,,,,6,6,,,485.5124,6,up,0.2473,,1.5,0.3,"[1,3,2]",0.741330704,stimuli/card_0_transparent.png,0,6,0,6,0,1,,,,,,,,,,
,,,,659808191190fc6e6c23a99f,A,2024-07-02_12h49.18.196,Slot Machine Game,2023.1.3,Win32,140.8450704,,,,,,,,,,,,,,,,,,,,,,,,,,,320,,,,,,,,,,,,,,,,,,,,,6,6,,,488.068,7,left,0.084,,1,0.3,"[1,3,2]",0.424268656,stimuli/card_100_transparent.png,100,7,0,7,0,1,,,,,,,,,,
,,,,659808191190fc6e6c23a99f,A,2024-07-02_12h49.18.196,Slot Machine Game,2023.1.3,Win32,140.8450704,,,,,,,,,,,,,,,,,,,,,,,,,,,320,,,,,,,,,,,,,,,,,,,,,6,6,,,489.9636,8,left,0.1807,,0.5,0.3,"[1,3,2]",0.023377471,stimuli/card_0_transparent.png,0,8,0,8,0,1,,,,,,,,,,
,,,,659808191190fc6e6c23a99f,A,2024-07-02_12h49.18.196,Slot Machine Game,2023.1.3,Win32,140.8450704,,,,,,,,,,,,,,,,,,,,,,,,,,,420,,,,,,,,,,,,,,,,,,,,,6,6,,,491.4567,9,left,0.6445,,1.5,0.3,"[1,3,2]",0.92418314,stimuli/card_100_transparent.png,100,9,0,9,0,1,,,,,,,,,,
,,,,659808191190fc6e6c23a99f,A,2024-07-02_12h49.18.196,Slot Machine Game,2023.1.3,Win32,140.8450704,,,,,,,,,,,,,,,,,,,,,,,,,,,420,,,,,,,,,,,,,,,,,,,,,6,6,,,494.4082,10,left,0.0158,,0.5,0.3,"[3,2,1]",0.709203405,stimuli/card_0_transparent.png,0,10,0,10,0,1,,,,,,,,,,
,,,,659808191190fc6e6c23a99f,A,2024-07-02_12h49.18.196,Slot Machine Game,2023.1.3,Win32,140.8450704,,,,,,,,,,,,,,,,,,,,,,,,,,,430,,,,,,,,,,,,,,,,,,,,,6,6,,,495.728,11,up,0.146,,0.5,0.3,"[3,2,1]",0.487137311,stimuli/card_10_transparent.png,10,11,0,11,0,1,,,,,,,,,,
,,,,659808191190fc6e6c23a99f,A,2024-07-02_12h49.18.196,Slot Machine Game,2023.1.3,Win32,140.8450704,,,,,,,,,,,,,,,,,,,,,,,,,,,430,,,,,,,,,,,,,,,,,,,,,6,6,,,497.1864,12,left,0.0371,,1.5,0.3,"[3,2,1]",0.204121576,stimuli/card_0_transparent.png,0,12,0,12,0,1,,,,,,,,,,
,,,,659808191190fc6e6c23a99f,A,2024-07-02_12h49.18.196,Slot Machine Game,2023.1.3,Win32,140.8450704,,,,,,,,,,,,,,,,,,,,,,,,,,,530,,,,,,,,,,,,,,,,,,,,,6,6,,,499.5407,13,right,0.1724,,0.5,0.3,"[3,2,1]",0.688501672,stimuli/card_100_transparent.png,100,13,0,13,0,1,,,,,,,,,,
,,,,659808191190fc6e6c23a99f,A,2024-07-02_12h49.18.196,Slot Machine Game,2023.1.3,Win32,140.8450704,,,,,,,,,,,,,,,,,,,,,,,,,,,630,,,,,,,,,,,,,,,,,,,,,6,6,,,501.0268,14,right,0.3249,,1.5,0.3,"[3,2,1]",0.358005048,stimuli/card_100_transparent.png,100,14,0,14,0,1,,,,,,,,,,
,,,,659808191190fc6e6c23a99f,A,2024-07-02_12h49.18.196,Slot Machine Game,2023.1.3,Win32,140.8450704,,,,,,,,,,,,,,,,,,,,,,,,,,,,,,,,,,,503.6672,,,,,,,,,,,,,,,,,,,,,,,,,,,,,,,,,"[730,730,1110,540,1110,630]",5,0,5,0,1,,,,
,,,,659808191190fc6e6c23a99f,A,2024-07-02_12h49.18.196,Slot Machine Game,2023.1.3,Win32,140.8450704,,,,,,,,,,,,,,,,,,,,,,,,,,,10,,,,,,,,,,,,,,,,,,,,,7,7,"[9,15]","[[1,3,2],[2,3,1]]",508.6716,0,up,0.1891,,0.5,0.3,"[1,3,2]",0.116195798,stimuli/card_10_transparent.png,10,0,0,0,0,1,,,,,,,,,,
,,,,659808191190fc6e6c23a99f,A,2024-07-02_12h49.18.196,Slot Machine Game,2023.1.3,Win32,140.8450704,,,,,,,,,,,,,,,,,,,,,,,,,,,20,,,,,,,,,,,,,,,,,,,,,7,7,,,510.1673,1,right,0.1433,,1,0.3,"[1,3,2]",0.54628775,stimuli/card_10_transparent.png,10,1,0,1,0,1,,,,,,,,,,
,,,,659808191190fc6e6c23a99f,A,2024-07-02_12h49.18.196,Slot Machine Game,2023.1.3,Win32,140.8450704,,,,,,,,,,,,,,,,,,,,,,,,,,,120,,,,,,,,,,,,,,,,,,,,,7,7,,,512.1175,2,left,0.0907,,1,0.3,"[1,3,2]",0.27555291,stimuli/card_100_transparent.png,100,2,0,2,0,1,,,,,,,,,,
,,,,659808191190fc6e6c23a99f,A,2024-07-02_12h49.18.196,Slot Machine Game,2023.1.3,Win32,140.8450704,,,,,,,,,,,,,,,,,,,,,,,,,,,220,,,,,,,,,,,,,,,,,,,,,7,7,,,514.0146,3,left,0.514,,1,0.3,"[1,3,2]",0.80891647,stimuli/card_100_transparent.png,100,3,0,3,0,1,,,,,,,,,,
,,,,659808191190fc6e6c23a99f,A,2024-07-02_12h49.18.196,Slot Machine Game,2023.1.3,Win32,140.8450704,,,,,,,,,,,,,,,,,,,,,,,,,,,320,,,,,,,,,,,,,,,,,,,,,7,7,,,516.3399,4,left,0.007,,1.5,0.3,"[1,3,2]",0.226276171,stimuli/card_100_transparent.png,100,4,0,4,0,1,,,,,,,,,,
,,,,659808191190fc6e6c23a99f,A,2024-07-02_12h49.18.196,Slot Machine Game,2023.1.3,Win32,140.8450704,,,,,,,,,,,,,,,,,,,,,,,,,,,420,,,,,,,,,,,,,,,,,,,,,7,7,,,518.6594,5,left,0.2017,,0.5,0.3,"[1,3,2]",0.247414018,stimuli/card_100_transparent.png,100,5,0,5,0,1,,,,,,,,,,
,,,,659808191190fc6e6c23a99f,A,2024-07-02_12h49.18.196,Slot Machine Game,2023.1.3,Win32,140.8450704,,,,,,,,,,,,,,,,,,,,,,,,,,,520,,,,,,,,,,,,,,,,,,,,,7,7,,,520.1663,6,left,0.2641,,1.5,0.3,"[1,3,2]",0.238988273,stimuli/card_100_transparent.png,100,6,0,6,0,1,,,,,,,,,,
,,,,659808191190fc6e6c23a99f,A,2024-07-02_12h49.18.196,Slot Machine Game,2023.1.3,Win32,140.8450704,,,,,,,,,,,,,,,,,,,,,,,,,,,620,,,,,,,,,,,,,,,,,,,,,7,7,,,522.7359,7,left,0.2242,,0.5,0.3,"[1,3,2]",0.631352268,stimuli/card_100_transparent.png,100,7,0,7,0,1,,,,,,,,,,
,,,,659808191190fc6e6c23a99f,A,2024-07-02_12h49.18.196,Slot Machine Game,2023.1.3,Win32,140.8450704,,,,,,,,,,,,,,,,,,,,,,,,,,,720,,,,,,,,,,,,,,,,,,,,,7,7,,,524.2705,8,left,0.0414,,1.5,0.3,"[1,3,2]",0.855452743,stimuli/card_100_transparent.png,100,8,0,8,0,1,,,,,,,,,,
,,,,659808191190fc6e6c23a99f,A,2024-07-02_12h49.18.196,Slot Machine Game,2023.1.3,Win32,140.8450704,,,,,,,,,,,,,,,,,,,,,,,,,,,720,,,,,,,,,,,,,,,,,,,,,7,7,,,526.625,9,left,0.2114,,1.5,0.3,"[2,3,1]",0.033409144,stimuli/card_0_transparent.png,0,9,0,9,0,1,,,,,,,,,,
,,,,659808191190fc6e6c23a99f,A,2024-07-02_12h49.18.196,Slot Machine Game,2023.1.3,Win32,140.8450704,,,,,,,,,,,,,,,,,,,,,,,,,,,730,,,,,,,,,,,,,,,,,,,,,7,7,,,529.1456,10,left,0.2226,,0.5,0.3,"[2,3,1]",0.996545891,stimuli/card_10_transparent.png,10,10,0,10,0,1,,,,,,,,,,
,,,,659808191190fc6e6c23a99f,A,2024-07-02_12h49.18.196,Slot Machine Game,2023.1.3,Win32,140.8450704,,,,,,,,,,,,,,,,,,,,,,,,,,,730,,,,,,,,,,,,,,,,,,,,,7,7,,,530.6667,11,up,0.2714,,1.5,0.3,"[2,3,1]",0.371609967,stimuli/card_0_transparent.png,0,11,0,11,0,1,,,,,,,,,,
,,,,659808191190fc6e6c23a99f,A,2024-07-02_12h49.18.196,Slot Machine Game,2023.1.3,Win32,140.8450704,,,,,,,,,,,,,,,,,,,,,,,,,,,740,,,,,,,,,,,,,,,,,,,,,7,7,,,533.2499,12,right,0.134,,1,0.3,"[2,3,1]",0.139163003,stimuli/card_10_transparent.png,10,12,0,12,0,1,,,,,,,,,,
,,,,659808191190fc6e6c23a99f,A,2024-07-02_12h49.18.196,Slot Machine Game,2023.1.3,Win32,140.8450704,,,,,,,,,,,,,,,,,,,,,,,,,,,840,,,,,,,,,,,,,,,,,,,,,7,7,,,535.1959,13,right,0.3192,,1.5,0.3,"[2,3,1]",0.48188111,stimuli/card_100_transparent.png,100,13,0,13,0,1,,,,,,,,,,
,,,,659808191190fc6e6c23a99f,A,2024-07-02_12h49.18.196,Slot Machine Game,2023.1.3,Win32,140.8450704,,,,,,,,,,,,,,,,,,,,,,,,,,,850,,,,,,,,,,,,,,,,,,,,,7,7,,,537.8264,14,right,0.2337,,1.5,0.3,"[2,3,1]",0.124352403,stimuli/card_10_transparent.png,10,14,0,14,0,1,,,,,,,,,,
,,,,659808191190fc6e6c23a99f,A,2024-07-02_12h49.18.196,Slot Machine Game,2023.1.3,Win32,140.8450704,,,,,,,,,,,,,,,,,,,,,,,,,,,,,,,,,,,540.37,,,,,,,,,,,,,,,,,,,,,,,,,,,,,,,,,"[730,730,1110,540,1110,630,850]",6,0,6,0,1,,,,
,,,,659808191190fc6e6c23a99f,A,2024-07-02_12h49.18.196,Slot Machine Game,2023.1.3,Win32,140.8450704,,,,,,,,,,,,,,,,,,,,,,,,,,,10,,,,,,,,,,,,,,,,,,,,,8,8,"[11,15]","[[2,1,3],[1,2,3]]",545.3755,0,left,0.2985,,1,0.3,"[2,1,3]",0.631126659,stimuli/card_10_transparent.png,10,0,0,0,0,1,,,,,,,,,,
,,,,659808191190fc6e6c23a99f,A,2024-07-02_12h49.18.196,Slot Machine Game,2023.1.3,Win32,140.8450704,,,,,,,,,,,,,,,,,,,,,,,,,,,10,,,,,,,,,,,,,,,,,,,,,8,8,,,547.473,1,right,0.1032,,0.5,0.3,"[2,1,3]",0.265112356,stimuli/card_0_transparent.png,0,1,0,1,0,1,,,,,,,,,,
,,,,659808191190fc6e6c23a99f,A,2024-07-02_12h49.18.196,Slot Machine Game,2023.1.3,Win32,140.8450704,,,,,,,,,,,,,,,,,,,,,,,,,,,110,,,,,,,,,,,,,,,,,,,,,8,8,,,548.8894,2,up,1.6479,,0.5,0.3,"[2,1,3]",0.940136426,stimuli/card_100_transparent.png,100,2,0,2,0,1,,,,,,,,,,
,,,,659808191190fc6e6c23a99f,A,2024-07-02_12h49.18.196,Slot Machine Game,2023.1.3,Win32,140.8450704,,,,,,,,,,,,,,,,,,,,,,,,,,,110,,,,,,,,,,,,,,,,,,,,,8,8,,,551.8481,3,up,0.0628,,1,0.3,"[2,1,3]",0.096647908,stimuli/card_0_transparent.png,0,3,0,3,0,1,,,,,,,,,,
,,,,659808191190fc6e6c23a99f,A,2024-07-02_12h49.18.196,Slot Machine Game,2023.1.3,Win32,140.8450704,,,,,,,,,,,,,,,,,,,,,,,,,,,210,,,,,,,,,,,,,,,,,,,,,8,8,,,553.7159,4,up,0.017,,0.5,0.3,"[2,1,3]",0.854839552,stimuli/card_100_transparent.png,100,4,0,4,0,1,,,,,,,,,,
,,,,659808191190fc6e6c23a99f,A,2024-07-02_12h49.18.196,Slot Machine Game,2023.1.3,Win32,140.8450704,,,,,,,,,,,,,,,,,,,,,,,,,,,310,,,,,,,,,,,,,,,,,,,,,8,8,,,555.0508,5,up,0.0627,,0.5,0.3,"[2,1,3]",0.580829872,stimuli/card_100_transparent.png,100,5,0,5,0,1,,,,,,,,,,
,,,,659808191190fc6e6c23a99f,A,2024-07-02_12h49.18.196,Slot Machine Game,2023.1.3,Win32,140.8450704,,,,,,,,,,,,,,,,,,,,,,,,,,,410,,,,,,,,,,,,,,,,,,,,,8,8,,,556.4247,6,up,0.0227,,0.5,0.3,"[2,1,3]",0.902175008,stimuli/card_100_transparent.png,100,6,0,6,0,1,,,,,,,,,,
,,,,659808191190fc6e6c23a99f,A,2024-07-02_12h49.18.196,Slot Machine Game,2023.1.3,Win32,140.8450704,,,,,,,,,,,,,,,,,,,,,,,,,,,410,,,,,,,,,,,,,,,,,,,,,8,8,,,557.7578,7,up,1.3332,,1.5,0.3,"[2,1,3]",0.08120767,stimuli/card_0_transparent.png,0,7,0,7,0,1,,,,,,,,,,
,,,,659808191190fc6e6c23a99f,A,2024-07-02_12h49.18.196,Slot Machine Game,2023.1.3,Win32,140.8450704,,,,,,,,,,,,,,,,,,,,,,,,,,,410,,,,,,,,,,,,,,,,,,,,,8,8,,,561.3902,8,right,0.2848,,1.5,0.3,"[2,1,3]",0.266251867,stimuli/card_0_transparent.png,0,8,0,8,0,1,,,,,,,,,,
,,,,659808191190fc6e6c23a99f,A,2024-07-02_12h49.18.196,Slot Machine Game,2023.1.3,Win32,140.8450704,,,,,,,,,,,,,,,,,,,,,,,,,,,410,,,,,,,,,,,,,,,,,,,,,8,8,,,563.9817,9,right,0.3031,,1,0.3,"[2,1,3]",0.457315847,stimuli/card_0_transparent.png,0,9,0,9,0,1,,,,,,,,,,
,,,,659808191190fc6e6c23a99f,A,2024-07-02_12h49.18.196,Slot Machine Game,2023.1.3,Win32,140.8450704,,,,,,,,,,,,,,,,,,,,,,,,,,,420,,,,,,,,,,,,,,,,,,,,,8,8,,,566.0987,10,left,0.9635,,1.5,0.3,"[2,1,3]",0.37251853,stimuli/card_10_transparent.png,10,10,0,10,0,1,,,,,,,,,,
,,,,659808191190fc6e6c23a99f,A,2024-07-02_12h49.18.196,Slot Machine Game,2023.1.3,Win32,140.8450704,,,,,,,,,,,,,,,,,,,,,,,,,,,520,,,,,,,,,,,,,,,,,,,,,8,8,,,569.3623,11,left,0.2575,,0.5,0.3,"[1,2,3]",0.882356524,stimuli/card_100_transparent.png,100,11,0,11,0,1,,,,,,,,,,
,,,,659808191190fc6e6c23a99f,A,2024-07-02_12h49.18.196,Slot Machine Game,2023.1.3,Win32,140.8450704,,,,,,,,,,,,,,,,,,,,,,,,,,,620,,,,,,,,,,,,,,,,,,,,,8,8,,,570.9388,12,left,0.354,,1.5,0.3,"[1,2,3]",0.573574041,stimuli/card_100_transparent.png,100,12,0,12,0,1,,,,,,,,,,
,,,,659808191190fc6e6c23a99f,A,2024-07-02_12h49.18.196,Slot Machine Game,2023.1.3,Win32,140.8450704,,,,,,,,,,,,,,,,,,,,,,,,,,,720,,,,,,,,,,,,,,,,,,,,,8,8,,,573.5985,13,left,0.2518,,1.5,0.3,"[1,2,3]",0.989017678,stimuli/card_100_transparent.png,100,13,0,13,0,1,,,,,,,,,,
,,,,659808191190fc6e6c23a99f,A,2024-07-02_12h49.18.196,Slot Machine Game,2023.1.3,Win32,140.8450704,,,,,,,,,,,,,,,,,,,,,,,,,,,820,,,,,,,,,,,,,,,,,,,,,8,8,,,576.1545,14,left,0.3398,,1,0.3,"[1,2,3]",0.669950503,stimuli/card_100_transparent.png,100,14,0,14,0,1,,,,,,,,,,
,,,,659808191190fc6e6c23a99f,A,2024-07-02_12h49.18.196,Slot Machine Game,2023.1.3,Win32,140.8450704,,,,,,,,,,,,,,,,,,,,,,,,,,,,,,,,,,,578.3005,,,,,,,,,,,,,,,,,,,,,,,,,,,,,,,,,"[730,730,1110,540,1110,630,850,820]",7,0,7,0,1,,,,
,,,,659808191190fc6e6c23a99f,A,2024-07-02_12h49.18.196,Slot Machine Game,2023.1.3,Win32,140.8450704,,,,,,,,,,,,,,,,,,,,,,,,,,,0,,,,,,,,,,,,,,,,,,,,,9,9,"[8,15]","[[3,2,1],[3,1,2]]",583.3073,0,up,0.4266,,1.5,0.3,"[3,2,1]",0.095886392,stimuli/card_0_transparent.png,0,0,0,0,0,1,,,,,,,,,,
,,,,659808191190fc6e6c23a99f,A,2024-07-02_12h49.18.196,Slot Machine Game,2023.1.3,Win32,140.8450704,,,,,,,,,,,,,,,,,,,,,,,,,,,100,,,,,,,,,,,,,,,,,,,,,9,9,,,586.0434,1,right,0.0557,,1,0.3,"[3,2,1]",0.756215136,stimuli/card_100_transparent.png,100,1,0,1,0,1,,,,,,,,,,
,,,,659808191190fc6e6c23a99f,A,2024-07-02_12h49.18.196,Slot Machine Game,2023.1.3,Win32,140.8450704,,,,,,,,,,,,,,,,,,,,,,,,,,,200,,,,,,,,,,,,,,,,,,,,,9,9,,,587.898,2,right,0.165,,1,0.3,"[3,2,1]",0.733610881,stimuli/card_100_transparent.png,100,2,0,2,0,1,,,,,,,,,,
,,,,659808191190fc6e6c23a99f,A,2024-07-02_12h49.18.196,Slot Machine Game,2023.1.3,Win32,140.8450704,,,,,,,,,,,,,,,,,,,,,,,,,,,300,,,,,,,,,,,,,,,,,,,,,9,9,,,589.8704,3,right,0.1842,,1.5,0.3,"[3,2,1]",0.866225562,stimuli/card_100_transparent.png,100,3,0,3,0,1,,,,,,,,,,
,,,,659808191190fc6e6c23a99f,A,2024-07-02_12h49.18.196,Slot Machine Game,2023.1.3,Win32,140.8450704,,,,,,,,,,,,,,,,,,,,,,,,,,,400,,,,,,,,,,,,,,,,,,,,,9,9,,,592.3634,4,right,0.125,,0.5,0.3,"[3,2,1]",0.617245827,stimuli/card_100_transparent.png,100,4,0,4,0,1,,,,,,,,,,
,,,,659808191190fc6e6c23a99f,A,2024-07-02_12h49.18.196,Slot Machine Game,2023.1.3,Win32,140.8450704,,,,,,,,,,,,,,,,,,,,,,,,,,,500,,,,,,,,,,,,,,,,,,,,,9,9,,,593.7868,5,right,0.002,,1.5,0.3,"[3,2,1]",0.618713959,stimuli/card_100_transparent.png,100,5,0,5,0,1,,,,,,,,,,
,,,,659808191190fc6e6c23a99f,A,2024-07-02_12h49.18.196,Slot Machine Game,2023.1.3,Win32,140.8450704,,,,,,,,,,,,,,,,,,,,,,,,,,,600,,,,,,,,,,,,,,,,,,,,,9,9,,,596.0924,6,right,0.1756,,1.5,0.3,"[3,2,1]",0.37129598,stimuli/card_100_transparent.png,100,6,0,6,0,1,,,,,,,,,,
,,,,659808191190fc6e6c23a99f,A,2024-07-02_12h49.18.196,Slot Machine Game,2023.1.3,Win32,140.8450704,,,,,,,,,,,,,,,,,,,,,,,,,,,600,,,,,,,,,,,,,,,,,,,,,9,9,,,598.5855,7,right,0.1098,,1.5,0.3,"[3,2,1]",0.037863223,stimuli/card_0_transparent.png,0,7,0,7,0,1,,,,,,,,,,
,,,,659808191190fc6e6c23a99f,A,2024-07-02_12h49.18.196,Slot Machine Game,2023.1.3,Win32,140.8450704,,,,,,,,,,,,,,,,,,,,,,,,,,,610,,,,,,,,,,,,,,,,,,,,,9,9,,,601.0027,8,left,0.2509,,0.5,0.3,"[3,1,2]",0.1674639,stimuli/card_10_transparent.png,10,8,0,8,0,1,,,,,,,,,,
,,,,659808191190fc6e6c23a99f,A,2024-07-02_12h49.18.196,Slot Machine Game,2023.1.3,Win32,140.8450704,,,,,,,,,,,,,,,,,,,,,,,,,,,620,,,,,,,,,,,,,,,,,,,,,9,9,,,602.5649,9,up,0.2346,,1,0.3,"[3,1,2]",0.142104303,stimuli/card_10_transparent.png,10,9,0,9,0,1,,,,,,,,,,
,,,,659808191190fc6e6c23a99f,A,2024-07-02_12h49.18.196,Slot Machine Game,2023.1.3,Win32,140.8450704,,,,,,,,,,,,,,,,,,,,,,,,,,,630,,,,,,,,,,,,,,,,,,,,,9,9,,,604.6013,10,right,0.1928,,0.5,0.3,"[3,1,2]",0.831807489,stimuli/card_10_transparent.png,10,10,0,10,0,1,,,,,,,,,,
,,,,659808191190fc6e6c23a99f,A,2024-07-02_12h49.18.196,Slot Machine Game,2023.1.3,Win32,140.8450704,,,,,,,,,,,,,,,,,,,,,,,,,,,730,,,,,,,,,,,,,,,,,,,,,9,9,,,606.1001,11,up,0.1108,,1,0.3,"[3,1,2]",0.542055233,stimuli/card_100_transparent.png,100,11,0,11,0,1,,,,,,,,,,
,,,,659808191190fc6e6c23a99f,A,2024-07-02_12h49.18.196,Slot Machine Game,2023.1.3,Win32,140.8450704,,,,,,,,,,,,,,,,,,,,,,,,,,,830,,,,,,,,,,,,,,,,,,,,,9,9,,,608.0098,12,up,0.2361,,1,0.3,"[3,1,2]",0.694838611,stimuli/card_100_transparent.png,100,12,0,12,0,1,,,,,,,,,,
,,,,659808191190fc6e6c23a99f,A,2024-07-02_12h49.18.196,Slot Machine Game,2023.1.3,Win32,140.8450704,,,,,,,,,,,,,,,,,,,,,,,,,,,930,,,,,,,,,,,,,,,,,,,,,9,9,,,610.0444,13,up,0.3038,,1.5,0.3,"[3,1,2]",0.391620564,stimuli/card_100_transparent.png,100,13,0,13,0,1,,,,,,,,,,
,,,,659808191190fc6e6c23a99f,A,2024-07-02_12h49.18.196,Slot Machine Game,2023.1.3,Win32,140.8450704,,,,,,,,,,,,,,,,,,,,,,,,,,,1030,,,,,,,,,,,,,,,,,,,,,9,9,,,612.6558,14,up,0.2257,,1,0.3,"[3,1,2]",0.247101993,stimuli/card_100_transparent.png,100,14,0,14,0,1,,,,,,,,,,
,,,,659808191190fc6e6c23a99f,A,2024-07-02_12h49.18.196,Slot Machine Game,2023.1.3,Win32,140.8450704,,,,,,,,,,,,,,,,,,,,,,,,,,,,,,,,,,,614.6837,,,,,,,,,,,,,,,,,,,,,,,,,,,,,,,,,"[730,730,1110,540,1110,630,850,820,1030]",8,0,8,0,1,,,,
,,,,659808191190fc6e6c23a99f,A,2024-07-02_12h49.18.196,Slot Machine Game,2023.1.3,Win32,140.8450704,,,,,,,,,,,,,,,,,,,,,,,,,,,0,,,,,,,,,,,,,,,,,,,,,10,10,"[10,15]","[[3,1,2],[1,3,2]]",619.6907,0,left,0.2435,,1,0.3,"[3,1,2]",0.812916107,stimuli/card_0_transparent.png,0,0,0,0,0,1,,,,,,,,,,
,,,,659808191190fc6e6c23a99f,A,2024-07-02_12h49.18.196,Slot Machine Game,2023.1.3,Win32,140.8450704,,,,,,,,,,,,,,,,,,,,,,,,,,,10,,,,,,,,,,,,,,,,,,,,,10,10,,,621.7395,1,right,0.0214,,1,0.3,"[3,1,2]",0.776013085,stimuli/card_10_transparent.png,10,1,0,1,0,1,,,,,,,,,,
,,,,659808191190fc6e6c23a99f,A,2024-07-02_12h49.18.196,Slot Machine Game,2023.1.3,Win32,140.8450704,,,,,,,,,,,,,,,,,,,,,,,,,,,20,,,,,,,,,,,,,,,,,,,,,10,10,,,623.5799,2,right,0.3841,,1,0.3,"[3,1,2]",0.278766648,stimuli/card_10_transparent.png,10,2,0,2,0,1,,,,,,,,,,
,,,,659808191190fc6e6c23a99f,A,2024-07-02_12h49.18.196,Slot Machine Game,2023.1.3,Win32,140.8450704,,,,,,,,,,,,,,,,,,,,,,,,,,,120,,,,,,,,,,,,,,,,,,,,,10,10,,,625.7741,3,up,1.3058,,1.5,0.3,"[3,1,2]",0.293013089,stimuli/card_100_transparent.png,100,3,0,3,0,1,,,,,,,,,,
,,,,659808191190fc6e6c23a99f,A,2024-07-02_12h49.18.196,Slot Machine Game,2023.1.3,Win32,140.8450704,,,,,,,,,,,,,,,,,,,,,,,,,,,220,,,,,,,,,,,,,,,,,,,,,10,10,,,629.3852,4,up,0.3499,,1,0.3,"[3,1,2]",0.900308721,stimuli/card_100_transparent.png,100,4,0,4,0,1,,,,,,,,,,
,,,,659808191190fc6e6c23a99f,A,2024-07-02_12h49.18.196,Slot Machine Game,2023.1.3,Win32,140.8450704,,,,,,,,,,,,,,,,,,,,,,,,,,,320,,,,,,,,,,,,,,,,,,,,,10,10,,,631.5466,5,up,0.1458,,1.5,0.3,"[3,1,2]",0.583689169,stimuli/card_100_transparent.png,100,5,0,5,0,1,,,,,,,,,,
,,,,659808191190fc6e6c23a99f,A,2024-07-02_12h49.18.196,Slot Machine Game,2023.1.3,Win32,140.8450704,,,,,,,,,,,,,,,,,,,,,,,,,,,420,,,,,,,,,,,,,,,,,,,,,10,10,,,633.9965,6,up,0.1581,,0.5,0.3,"[3,1,2]",0.989854507,stimuli/card_100_transparent.png,100,6,0,6,0,1,,,,,,,,,,
,,,,659808191190fc6e6c23a99f,A,2024-07-02_12h49.18.196,Slot Machine Game,2023.1.3,Win32,140.8450704,,,,,,,,,,,,,,,,,,,,,,,,,,,520,,,,,,,,,,,,,,,,,,,,,10,10,,,635.4549,7,up,0.5165,,1.5,0.3,"[3,1,2]",0.415788585,stimuli/card_100_transparent.png,100,7,0,7,0,1,,,,,,,,,,
,,,,659808191190fc6e6c23a99f,A,2024-07-02_12h49.18.196,Slot Machine Game,2023.1.3,Win32,140.8450704,,,,,,,,,,,,,,,,,,,,,,,,,,,620,,,,,,,,,,,,,,,,,,,,,10,10,,,638.2745,8,up,0.1113,,1,0.3,"[3,1,2]",0.464814694,stimuli/card_100_transparent.png,100,8,0,8,0,1,,,,,,,,,,
,,,,659808191190fc6e6c23a99f,A,2024-07-02_12h49.18.196,Slot Machine Game,2023.1.3,Win32,140.8450704,,,,,,,,,,,,,,,,,,,,,,,,,,,620,,,,,,,,,,,,,,,,,,,,,10,10,,,640.1997,9,up,0.422,,1,0.3,"[3,1,2]",0.026515492,stimuli/card_0_transparent.png,0,9,0,9,0,1,,,,,,,,,,
,,,,659808191190fc6e6c23a99f,A,2024-07-02_12h49.18.196,Slot Machine Game,2023.1.3,Win32,140.8450704,,,,,,,,,,,,,,,,,,,,,,,,,,,720,,,,,,,,,,,,,,,,,,,,,10,10,,,642.4208,10,left,0.0002,,1,0.3,"[1,3,2]",0.316838125,stimuli/card_100_transparent.png,100,10,0,10,0,1,,,,,,,,,,
,,,,659808191190fc6e6c23a99f,A,2024-07-02_12h49.18.196,Slot Machine Game,2023.1.3,Win32,140.8450704,,,,,,,,,,,,,,,,,,,,,,,,,,,720,,,,,,,,,,,,,,,,,,,,,10,10,,,644.2346,11,left,0.3401,,1,0.3,"[1,3,2]",0.019189853,stimuli/card_0_transparent.png,0,11,0,11,0,1,,,,,,,,,,
,,,,659808191190fc6e6c23a99f,A,2024-07-02_12h49.18.196,Slot Machine Game,2023.1.3,Win32,140.8450704,,,,,,,,,,,,,,,,,,,,,,,,,,,730,,,,,,,,,,,,,,,,,,,,,10,10,,,646.3793,12,right,0.0422,,1.5,0.3,"[1,3,2]",0.218752967,stimuli/card_10_transparent.png,10,12,0,12,0,1,,,,,,,,,,
,,,,659808191190fc6e6c23a99f,A,2024-07-02_12h49.18.196,Slot Machine Game,2023.1.3,Win32,140.8450704,,,,,,,,,,,,,,,,,,,,,,,,,,,730,,,,,,,,,,,,,,,,,,,,,10,10,,,648.7266,13,up,0.2508,,1.5,0.3,"[1,3,2]",0.5724789,stimuli/card_0_transparent.png,0,13,0,13,0,1,,,,,,,,,,
,,,,659808191190fc6e6c23a99f,A,2024-07-02_12h49.18.196,Slot Machine Game,2023.1.3,Win32,140.8450704,,,,,,,,,,,,,,,,,,,,,,,,,,,730,,,,,,,,,,,,,,,,,,,,,10,10,,,651.2888,14,up,0.0437,,0.5,0.3,"[1,3,2]",0.247194,stimuli/card_0_transparent.png,0,14,0,14,0,1,,,,,,,,,,
,,,,659808191190fc6e6c23a99f,A,2024-07-02_12h49.18.196,Slot Machine Game,2023.1.3,Win32,140.8450704,,,,,,,,,,,,,,,,,,,,,,,,,,,,,,,,,,,652.6449,,,,,,,,,,,,,,,,,,,,,,,,,,,,,,,,,"[730,730,1110,540,1110,630,850,820,1030,730]",9,0,9,0,1,,,,
,,,,659808191190fc6e6c23a99f,A,2024-07-02_12h49.18.196,Slot Machine Game,2023.1.3,Win32,140.8450704,,,,,,,,,,,,,,,,,,,,,,,,,,,,,,,,,,,,,,,,,,,,,,,,,,,,,,,,,,,,,,,,,,,,,,,,,,9,"[730,730,1110,540,1110,630,850,820,1030,730]",7.3,2024-07-02_13h00.19.899
