key_resp_welcome_started,key_resp_welcome_keys,key_resp_welcome_rt,key_resp_welcome_duration,prolific_id,path_id,date,expName,psychopyVersion,OS,frameRate,key_resp_instruction1_started,key_resp_instruction1_keys,key_resp_instruction1_rt,key_resp_instruction1_duration,key_resp_instruction2_started,key_resp_instruction2_keys,key_resp_instruction2_rt,key_resp_instruction2_duration,key_resp_instruction3_started,key_resp_instruction3_keys,key_resp_instruction3_rt,key_resp_instruction3_duration,key_resp_instruction4_started,key_resp_instruction4_keys,key_resp_instruction4_rt,key_resp_instruction4_duration,practiceCondition,practice_reward_seqs,practice_trial_started,practice_trial_num,practice_resp_rt,practice_resp_duration,practice_resp_keys,prac_presentationInterval,"practice_reward_seq: 2,1,3",reward_img,cumulative_reward,trial_reward,practice_trials.thisRepN,practice_trials.thisTrialN,practice_trials.thisN,practice_trials.thisIndex,practice_trials.ran,"practice_reward_seq: 2,3,1",block_break_started,"practice_reward_seq: 1,3,2","practice_reward_seq: 3,1,2",practice_end_time,practice_end_keys,practice_end_rt,practice_end_duration,main_instruction_text_started,block_condition,block_order_indices,main_instruction_keys,main_instruction_rt,main_instruction_duration,block_number,block_assignment,current_condition,main_reward_seqs,main_trial_started,main_trial_num,main_trial_keys,main_trial_rt,main_trial_duration,main_presentationInterval,reward_presentation_time,main_reward_seq,reward_rand_val,main_reward_img,current_reward,main_trials.thisRepN,main_trials.thisTrialN,main_trials.thisN,main_trials.thisIndex,main_trials.ran,block_reward,block.thisRepN,block.thisTrialN,block.thisN,block.thisIndex,block.ran,block_reward.length,block_reward_all,reward_amount,date_end_task
0.0007,space,4.0097,,65af28fb05a6baf848047803,A,2024-07-08_04h21.01.391,Slot Machine Game,2023.1.3,Win32,4.00160064,,,,,,,,,,,,,,,,,,,,,,,,,,,,,,,,,,,,,,,,,,,,,,,,,,,,,,,,,,,,,,,,,,,,,,,,,,,,,
,,,,65af28fb05a6baf848047803,A,2024-07-08_04h21.01.391,Slot Machine Game,2023.1.3,Win32,4.00160064,4.2469,space,16.6208,0.0004,,,,,,,,,,,,,,,,,,,,,,,,,,,,,,,,,,,,,,,,,,,,,,,,,,,,,,,,,,,,,,,,,,,,,,,,,
,,,,65af28fb05a6baf848047803,A,2024-07-08_04h21.01.391,Slot Machine Game,2023.1.3,Win32,4.00160064,,,,,21.1681,space,42.609,,,,,,,,,,,,,,,,,,,,,,,,,,,,,,,,,,,,,,,,,,,,,,,,,,,,,,,,,,,,,,,,,,,,,,
,,,,65af28fb05a6baf848047803,A,2024-07-08_04h21.01.391,Slot Machine Game,2023.1.3,Win32,4.00160064,,,,,,,,,64.1131,space,9.3354,,,,,,,,,,,,,,,,,,,,,,,,,,,,,,,,,,,,,,,,,,,,,,,,,,,,,,,,,,,,,,,,,,
,,,,65af28fb05a6baf848047803,A,2024-07-08_04h21.01.391,Slot Machine Game,2023.1.3,Win32,4.00160064,,,,,,,,,,,,,,,,,,,,,,,,,,,,,,,,,,,,,,,,,,,,,,,,,,,,,,,,,,,,,,,,,,,,,,,,,,,,,
,,,,65af28fb05a6baf848047803,A,2024-07-08_04h21.01.391,Slot Machine Game,2023.1.3,Win32,4.00160064,,,,,,,,,,,,,219.094,space,5.0857,0.0007,,,,,,,,,,,,,,,,,,,,,,,,,,,,,,,,,,,,,,,,,,,,,,,,,,,,,,,,,,,,,
,,,,65af28fb05a6baf848047803,A,2024-07-08_04h21.01.391,Slot Machine Game,2023.1.3,Win32,4.00160064,,,,,,,,,,,,,,,,,"[9,15]","[[2,1,3],[2,3,1]]",224.452,0,2.2137,0.0004,up,0.5,,stimuli/card_100_transparent.png,100,100,0,0,0,0,1,,,,,,,,,,,,,,,,,,,,,,,,,,,,,,,,,,,,,,,,,,,,
,,,,65af28fb05a6baf848047803,A,2024-07-08_04h21.01.391,Slot Machine Game,2023.1.3,Win32,4.00160064,,,,,,,,,,,,,,,,,,,228.2756,1,0.6583,0.0005,up,0.5,,stimuli/card_100_transparent.png,200,100,1,0,1,0,1,,,,,,,,,,,,,,,,,,,,,,,,,,,,,,,,,,,,,,,,,,,,
,,,,65af28fb05a6baf848047803,A,2024-07-08_04h21.01.391,Slot Machine Game,2023.1.3,Win32,4.00160064,,,,,,,,,,,,,,,,,,,230.5108,2,0.0201,,up,0.5,,stimuli/card_100_transparent.png,300,100,2,0,2,0,1,,,,,,,,,,,,,,,,,,,,,,,,,,,,,,,,,,,,,,,,,,,,
,,,,65af28fb05a6baf848047803,A,2024-07-08_04h21.01.391,Slot Machine Game,2023.1.3,Win32,4.00160064,,,,,,,,,,,,,,,,,,,232.189,3,0.3479,0.0004,up,1.5,,stimuli/card_100_transparent.png,400,100,3,0,3,0,1,,,,,,,,,,,,,,,,,,,,,,,,,,,,,,,,,,,,,,,,,,,,
,,,,65af28fb05a6baf848047803,A,2024-07-08_04h21.01.391,Slot Machine Game,2023.1.3,Win32,4.00160064,,,,,,,,,,,,,,,,,,,235.1371,4,0.0194,0.0004,up,1.5,,stimuli/card_100_transparent.png,500,100,4,0,4,0,1,,,,,,,,,,,,,,,,,,,,,,,,,,,,,,,,,,,,,,,,,,,,
,,,,65af28fb05a6baf848047803,A,2024-07-08_04h21.01.391,Slot Machine Game,2023.1.3,Win32,4.00160064,,,,,,,,,,,,,,,,,,,237.6953,5,0.0222,0.0006,up,0.5,,stimuli/card_100_transparent.png,600,100,5,0,5,0,1,,,,,,,,,,,,,,,,,,,,,,,,,,,,,,,,,,,,,,,,,,,,
,,,,65af28fb05a6baf848047803,A,2024-07-08_04h21.01.391,Slot Machine Game,2023.1.3,Win32,4.00160064,,,,,,,,,,,,,,,,,,,239.2764,6,0.0214,0.0002,up,0.5,,stimuli/card_0_transparent.png,600,0,6,0,6,0,1,,,,,,,,,,,,,,,,,,,,,,,,,,,,,,,,,,,,,,,,,,,,
,,,,65af28fb05a6baf848047803,A,2024-07-08_04h21.01.391,Slot Machine Game,2023.1.3,Win32,4.00160064,,,,,,,,,,,,,,,,,,,240.8792,7,1.8735,0.0004,up,0.5,,stimuli/card_100_transparent.png,700,100,7,0,7,0,1,,,,,,,,,,,,,,,,,,,,,,,,,,,,,,,,,,,,,,,,,,,,
,,,,65af28fb05a6baf848047803,A,2024-07-08_04h21.01.391,Slot Machine Game,2023.1.3,Win32,4.00160064,,,,,,,,,,,,,,,,,,,244.2921,8,0.0173,,up,1.5,,stimuli/card_100_transparent.png,800,100,8,0,8,0,1,,,,,,,,,,,,,,,,,,,,,,,,,,,,,,,,,,,,,,,,,,,,
,,,,65af28fb05a6baf848047803,A,2024-07-08_04h21.01.391,Slot Machine Game,2023.1.3,Win32,4.00160064,,,,,,,,,,,,,,,,,,,246.8672,9,0.0166,,up,1.5,,stimuli/card_0_transparent.png,800,0,9,0,9,0,1,,,,,,,,,,,,,,,,,,,,,,,,,,,,,,,,,,,,,,,,,,,,
,,,,65af28fb05a6baf848047803,A,2024-07-08_04h21.01.391,Slot Machine Game,2023.1.3,Win32,4.00160064,,,,,,,,,,,,,,,,,,,249.368,10,0.0201,,up,1,,stimuli/card_0_transparent.png,800,0,10,0,10,0,1,,,,,,,,,,,,,,,,,,,,,,,,,,,,,,,,,,,,,,,,,,,,
,,,,65af28fb05a6baf848047803,A,2024-07-08_04h21.01.391,Slot Machine Game,2023.1.3,Win32,4.00160064,,,,,,,,,,,,,,,,,,,251.5768,11,2.7792,,right,0.5,,stimuli/card_0_transparent.png,800,0,11,0,11,0,1,,,,,,,,,,,,,,,,,,,,,,,,,,,,,,,,,,,,,,,,,,,,
,,,,65af28fb05a6baf848047803,A,2024-07-08_04h21.01.391,Slot Machine Game,2023.1.3,Win32,4.00160064,,,,,,,,,,,,,,,,,,,255.908,12,0.6336,,right,1,,stimuli/card_100_transparent.png,900,100,12,0,12,0,1,,,,,,,,,,,,,,,,,,,,,,,,,,,,,,,,,,,,,,,,,,,,
,,,,65af28fb05a6baf848047803,A,2024-07-08_04h21.01.391,Slot Machine Game,2023.1.3,Win32,4.00160064,,,,,,,,,,,,,,,,,,,258.7293,13,0.9702,,right,0.5,,stimuli/card_10_transparent.png,910,10,13,0,13,0,1,,,,,,,,,,,,,,,,,,,,,,,,,,,,,,,,,,,,,,,,,,,,
,,,,65af28fb05a6baf848047803,A,2024-07-08_04h21.01.391,Slot Machine Game,2023.1.3,Win32,4.00160064,,,,,,,,,,,,,,,,,,,261.2585,14,0.3242,0.0002,right,0.5,,stimuli/card_10_transparent.png,920,10,14,0,14,0,1,,,,,,,,,,,,,,,,,,,,,,,,,,,,,,,,,,,,,,,,,,,,
,,,,65af28fb05a6baf848047803,A,2024-07-08_04h21.01.391,Slot Machine Game,2023.1.3,Win32,4.00160064,,,,,,,,,,,,,,,,,"[6,15]","[[1,3,2],[3,1,2]]",268.0937,0,1.8326,0.0004,left,1.5,,stimuli/card_100_transparent.png,100,100,0,0,0,0,1,,263.1458,,,,,,,,,,,,,,,,,,,,,,,,,,,,,,,,,,,,,,,,,,
,,,,65af28fb05a6baf848047803,A,2024-07-08_04h21.01.391,Slot Machine Game,2023.1.3,Win32,4.00160064,,,,,,,,,,,,,,,,,,,272.4095,1,0.0192,,left,0.5,,stimuli/card_10_transparent.png,110,10,1,0,1,0,1,,,,,,,,,,,,,,,,,,,,,,,,,,,,,,,,,,,,,,,,,,,,
,,,,65af28fb05a6baf848047803,A,2024-07-08_04h21.01.391,Slot Machine Game,2023.1.3,Win32,4.00160064,,,,,,,,,,,,,,,,,,,273.9776,2,0.0167,,left,1,,stimuli/card_100_transparent.png,210,100,2,0,2,0,1,,,,,,,,,,,,,,,,,,,,,,,,,,,,,,,,,,,,,,,,,,,,
,,,,65af28fb05a6baf848047803,A,2024-07-08_04h21.01.391,Slot Machine Game,2023.1.3,Win32,4.00160064,,,,,,,,,,,,,,,,,,,276.1852,3,0.0168,0.0004,left,0.5,,stimuli/card_100_transparent.png,310,100,3,0,3,0,1,,,,,,,,,,,,,,,,,,,,,,,,,,,,,,,,,,,,,,,,,,,,
,,,,65af28fb05a6baf848047803,A,2024-07-08_04h21.01.391,Slot Machine Game,2023.1.3,Win32,4.00160064,,,,,,,,,,,,,,,,,,,277.7461,4,0.0175,,left,0.5,,stimuli/card_100_transparent.png,410,100,4,0,4,0,1,,,,,,,,,,,,,,,,,,,,,,,,,,,,,,,,,,,,,,,,,,,,
,,,,65af28fb05a6baf848047803,A,2024-07-08_04h21.01.391,Slot Machine Game,2023.1.3,Win32,4.00160064,,,,,,,,,,,,,,,,,,,279.2881,5,0.0169,,left,0.5,,stimuli/card_100_transparent.png,510,100,5,0,5,0,1,,,,,,,,,,,,,,,,,,,,,,,,,,,,,,,,,,,,,,,,,,,,
,,,,65af28fb05a6baf848047803,A,2024-07-08_04h21.01.391,Slot Machine Game,2023.1.3,Win32,4.00160064,,,,,,,,,,,,,,,,,,,280.819,6,0.0164,0.0003,left,0.5,,stimuli/card_0_transparent.png,510,0,6,0,6,0,1,,,,,,,,,,,,,,,,,,,,,,,,,,,,,,,,,,,,,,,,,,,,
,,,,65af28fb05a6baf848047803,A,2024-07-08_04h21.01.391,Slot Machine Game,2023.1.3,Win32,4.00160064,,,,,,,,,,,,,,,,,,,282.3878,7,0.3204,0.0003,left,0.5,,stimuli/card_0_transparent.png,510,0,7,0,7,0,1,,,,,,,,,,,,,,,,,,,,,,,,,,,,,,,,,,,,,,,,,,,,
,,,,65af28fb05a6baf848047803,A,2024-07-08_04h21.01.391,Slot Machine Game,2023.1.3,Win32,4.00160064,,,,,,,,,,,,,,,,,,,284.2327,8,0.0169,,up,0.5,,stimuli/card_100_transparent.png,610,100,8,0,8,0,1,,,,,,,,,,,,,,,,,,,,,,,,,,,,,,,,,,,,,,,,,,,,
,,,,65af28fb05a6baf848047803,A,2024-07-08_04h21.01.391,Slot Machine Game,2023.1.3,Win32,4.00160064,,,,,,,,,,,,,,,,,,,285.7825,9,0.3201,0.0004,up,1.5,,stimuli/card_100_transparent.png,710,100,9,0,9,0,1,,,,,,,,,,,,,,,,,,,,,,,,,,,,,,,,,,,,,,,,,,,,
,,,,65af28fb05a6baf848047803,A,2024-07-08_04h21.01.391,Slot Machine Game,2023.1.3,Win32,4.00160064,,,,,,,,,,,,,,,,,,,288.6016,10,0.0161,0.0003,up,1.5,,stimuli/card_100_transparent.png,810,100,10,0,10,0,1,,,,,,,,,,,,,,,,,,,,,,,,,,,,,,,,,,,,,,,,,,,,
,,,,65af28fb05a6baf848047803,A,2024-07-08_04h21.01.391,Slot Machine Game,2023.1.3,Win32,4.00160064,,,,,,,,,,,,,,,,,,,291.0885,11,2.1662,,up,0.5,,stimuli/card_100_transparent.png,910,100,11,0,11,0,1,,,,,,,,,,,,,,,,,,,,,,,,,,,,,,,,,,,,,,,,,,,,
,,,,65af28fb05a6baf848047803,A,2024-07-08_04h21.01.391,Slot Machine Game,2023.1.3,Win32,4.00160064,,,,,,,,,,,,,,,,,,,294.7736,12,0.0188,0.0002,up,0.5,,stimuli/card_100_transparent.png,1010,100,12,0,12,0,1,,,,,,,,,,,,,,,,,,,,,,,,,,,,,,,,,,,,,,,,,,,,
,,,,65af28fb05a6baf848047803,A,2024-07-08_04h21.01.391,Slot Machine Game,2023.1.3,Win32,4.00160064,,,,,,,,,,,,,,,,,,,296.4147,13,0.3466,0.0003,up,0.5,,stimuli/card_100_transparent.png,1110,100,13,0,13,0,1,,,,,,,,,,,,,,,,,,,,,,,,,,,,,,,,,,,,,,,,,,,,
,,,,65af28fb05a6baf848047803,A,2024-07-08_04h21.01.391,Slot Machine Game,2023.1.3,Win32,4.00160064,,,,,,,,,,,,,,,,,,,298.4431,14,0.0195,0.0007,up,1.5,,stimuli/card_100_transparent.png,1210,100,14,0,14,0,1,,,,,,,,,,,,,,,,,,,,,,,,,,,,,,,,,,,,,,,,,,,,
,,,,65af28fb05a6baf848047803,A,2024-07-08_04h21.01.391,Slot Machine Game,2023.1.3,Win32,4.00160064,,,,,,,,,,,,,,,,,,,,,,,,,,,,,,,,,,,301.1092,,,305.9756,space,5.0779,0.0002,,,,,,,,,,,,,,,,,,,,,,,,,,,,,,,,,,,,
,,,,65af28fb05a6baf848047803,A,2024-07-08_04h21.01.391,Slot Machine Game,2023.1.3,Win32,4.00160064,,,,,,,,,,,,,,,,,,,,,,,,,,,,,,,,,,,,,,,,,,311.3646,2,"[2,4,8,0,1,3,9,6,8,5]",space,3.924,,,,,,,,,,,,,,,,,,,,,,,,,,,,,,,
,,,,65af28fb05a6baf848047803,A,2024-07-08_04h21.01.391,Slot Machine Game,2023.1.3,Win32,4.00160064,,,,,,,,,,,,,,,,,,,,,,,,,,,10,,,,,,,,,,,,,,,,,,,,,1,3,"[15,15]","[[3,1,2],[3,1,2]]",315.5866,0,right,0.692,,1,0.3,"[3,1,2]",0.272025436,stimuli/card_10_transparent.png,10,0,0,0,0,1,,,,,,,,,,
,,,,65af28fb05a6baf848047803,A,2024-07-08_04h21.01.391,Slot Machine Game,2023.1.3,Win32,4.00160064,,,,,,,,,,,,,,,,,,,,,,,,,,,10,,,,,,,,,,,,,,,,,,,,,1,3,,,318.5161,1,right,0.323,0.0003,1,0.3,"[3,1,2]",0.09155818,stimuli/card_0_transparent.png,0,1,0,1,0,1,,,,,,,,,,
,,,,65af28fb05a6baf848047803,A,2024-07-08_04h21.01.391,Slot Machine Game,2023.1.3,Win32,4.00160064,,,,,,,,,,,,,,,,,,,,,,,,,,,10,,,,,,,,,,,,,,,,,,,,,1,3,,,321.031,2,up,3.7709,0.0003,0.5,0.3,"[3,1,2]",0.084976826,stimuli/card_0_transparent.png,0,2,0,2,0,1,,,,,,,,,,
,,,,65af28fb05a6baf848047803,A,2024-07-08_04h21.01.391,Slot Machine Game,2023.1.3,Win32,4.00160064,,,,,,,,,,,,,,,,,,,,,,,,,,,10,,,,,,,,,,,,,,,,,,,,,1,3,,,326.3566,3,left,0.699,,0.5,0.3,"[3,1,2]",0.471052697,stimuli/card_0_transparent.png,0,3,0,3,0,1,,,,,,,,,,
,,,,65af28fb05a6baf848047803,A,2024-07-08_04h21.01.391,Slot Machine Game,2023.1.3,Win32,4.00160064,,,,,,,,,,,,,,,,,,,,,,,,,,,10,,,,,,,,,,,,,,,,,,,,,1,3,,,328.6629,4,left,0.0226,,1.5,0.3,"[3,1,2]",0.640660414,stimuli/card_0_transparent.png,0,4,0,4,0,1,,,,,,,,,,
,,,,65af28fb05a6baf848047803,A,2024-07-08_04h21.01.391,Slot Machine Game,2023.1.3,Win32,4.00160064,,,,,,,,,,,,,,,,,,,,,,,,,,,110,,,,,,,,,,,,,,,,,,,,,1,3,,,331.3409,5,up,3.5597,,1,0.3,"[3,1,2]",0.305215647,stimuli/card_100_transparent.png,100,5,0,5,0,1,,,,,,,,,,
,,,,65af28fb05a6baf848047803,A,2024-07-08_04h21.01.391,Slot Machine Game,2023.1.3,Win32,4.00160064,,,,,,,,,,,,,,,,,,,,,,,,,,,210,,,,,,,,,,,,,,,,,,,,,1,3,,,337.1139,6,up,0.3373,0.0004,1.5,0.3,"[3,1,2]",0.598044163,stimuli/card_100_transparent.png,100,6,0,6,0,1,,,,,,,,,,
,,,,65af28fb05a6baf848047803,A,2024-07-08_04h21.01.391,Slot Machine Game,2023.1.3,Win32,4.00160064,,,,,,,,,,,,,,,,,,,,,,,,,,,310,,,,,,,,,,,,,,,,,,,,,1,3,,,340.015,7,up,0.0181,0.0001,1,0.3,"[3,1,2]",0.296845754,stimuli/card_100_transparent.png,100,7,0,7,0,1,,,,,,,,,,
,,,,65af28fb05a6baf848047803,A,2024-07-08_04h21.01.391,Slot Machine Game,2023.1.3,Win32,4.00160064,,,,,,,,,,,,,,,,,,,,,,,,,,,410,,,,,,,,,,,,,,,,,,,,,1,3,,,342.2423,8,up,0.0188,0.0001,1,0.3,"[3,1,2]",0.405724256,stimuli/card_100_transparent.png,100,8,0,8,0,1,,,,,,,,,,
,,,,65af28fb05a6baf848047803,A,2024-07-08_04h21.01.391,Slot Machine Game,2023.1.3,Win32,4.00160064,,,,,,,,,,,,,,,,,,,,,,,,,,,510,,,,,,,,,,,,,,,,,,,,,1,3,,,344.525,9,up,0.0184,0.0002,1,0.3,"[3,1,2]",0.580213238,stimuli/card_100_transparent.png,100,9,0,9,0,1,,,,,,,,,,
,,,,65af28fb05a6baf848047803,A,2024-07-08_04h21.01.391,Slot Machine Game,2023.1.3,Win32,4.00160064,,,,,,,,,,,,,,,,,,,,,,,,,,,610,,,,,,,,,,,,,,,,,,,,,1,3,,,346.8228,10,up,0.0176,0.0003,1.5,0.3,"[3,1,2]",0.950248328,stimuli/card_100_transparent.png,100,10,0,10,0,1,,,,,,,,,,
,,,,65af28fb05a6baf848047803,A,2024-07-08_04h21.01.391,Slot Machine Game,2023.1.3,Win32,4.00160064,,,,,,,,,,,,,,,,,,,,,,,,,,,710,,,,,,,,,,,,,,,,,,,,,1,3,,,349.6758,11,up,0.0159,,0.5,0.3,"[3,1,2]",0.483555258,stimuli/card_100_transparent.png,100,11,0,11,0,1,,,,,,,,,,
,,,,65af28fb05a6baf848047803,A,2024-07-08_04h21.01.391,Slot Machine Game,2023.1.3,Win32,4.00160064,,,,,,,,,,,,,,,,,,,,,,,,,,,720,,,,,,,,,,,,,,,,,,,,,1,3,,,351.2246,12,up,0.3247,0.0002,1,0.3,"[3,1,2]",0.164903617,stimuli/card_10_transparent.png,10,12,0,12,0,1,,,,,,,,,,
,,,,65af28fb05a6baf848047803,A,2024-07-08_04h21.01.391,Slot Machine Game,2023.1.3,Win32,4.00160064,,,,,,,,,,,,,,,,,,,,,,,,,,,820,,,,,,,,,,,,,,,,,,,,,1,3,,,353.7219,13,up,0.3162,0.0002,1,0.3,"[3,1,2]",0.734610075,stimuli/card_100_transparent.png,100,13,0,13,0,1,,,,,,,,,,
,,,,65af28fb05a6baf848047803,A,2024-07-08_04h21.01.391,Slot Machine Game,2023.1.3,Win32,4.00160064,,,,,,,,,,,,,,,,,,,,,,,,,,,920,,,,,,,,,,,,,,,,,,,,,1,3,,,356.1868,14,up,0.0172,,1.5,0.3,"[3,1,2]",0.736195188,stimuli/card_100_transparent.png,100,14,0,14,0,1,,,,,,,,,,
,,,,65af28fb05a6baf848047803,A,2024-07-08_04h21.01.391,Slot Machine Game,2023.1.3,Win32,4.00160064,,,,,,,,,,,,,,,,,,,,,,,,,,,,,,,,,,,358.7362,,,,,,,,,,,,,,,,,,,,,,,,,,,,,,,,,[920],0,0,0,0,1,,,,
,,,,65af28fb05a6baf848047803,A,2024-07-08_04h21.01.391,Slot Machine Game,2023.1.3,Win32,4.00160064,,,,,,,,,,,,,,,,,,,,,,,,,,,100,,,,,,,,,,,,,,,,,,,,,2,5,"[5,15]","[[1,2,3],[3,1,2]]",363.6824,0,left,2.4397,,0.5,0.3,"[1,2,3]",0.243687094,stimuli/card_100_transparent.png,100,0,0,0,0,1,,,,,,,,,,
,,,,65af28fb05a6baf848047803,A,2024-07-08_04h21.01.391,Slot Machine Game,2023.1.3,Win32,4.00160064,,,,,,,,,,,,,,,,,,,,,,,,,,,200,,,,,,,,,,,,,,,,,,,,,2,5,,,367.69,1,left,0.3134,,1.5,0.3,"[1,2,3]",0.341967173,stimuli/card_100_transparent.png,100,1,0,1,0,1,,,,,,,,,,
,,,,65af28fb05a6baf848047803,A,2024-07-08_04h21.01.391,Slot Machine Game,2023.1.3,Win32,4.00160064,,,,,,,,,,,,,,,,,,,,,,,,,,,300,,,,,,,,,,,,,,,,,,,,,2,5,,,370.5312,2,left,0.0169,0.0002,1.5,0.3,"[1,2,3]",0.610244055,stimuli/card_100_transparent.png,100,2,0,2,0,1,,,,,,,,,,
,,,,65af28fb05a6baf848047803,A,2024-07-08_04h21.01.391,Slot Machine Game,2023.1.3,Win32,4.00160064,,,,,,,,,,,,,,,,,,,,,,,,,,,400,,,,,,,,,,,,,,,,,,,,,2,5,,,373.0582,3,left,0.0165,,1.5,0.3,"[1,2,3]",0.896834802,stimuli/card_100_transparent.png,100,3,0,3,0,1,,,,,,,,,,
,,,,65af28fb05a6baf848047803,A,2024-07-08_04h21.01.391,Slot Machine Game,2023.1.3,Win32,4.00160064,,,,,,,,,,,,,,,,,,,,,,,,,,,500,,,,,,,,,,,,,,,,,,,,,2,5,,,375.5633,4,left,0.627,0.0002,1.5,0.3,"[1,2,3]",0.584857182,stimuli/card_100_transparent.png,100,4,0,4,0,1,,,,,,,,,,
,,,,65af28fb05a6baf848047803,A,2024-07-08_04h21.01.391,Slot Machine Game,2023.1.3,Win32,4.00160064,,,,,,,,,,,,,,,,,,,,,,,,,,,500,,,,,,,,,,,,,,,,,,,,,2,5,,,378.7171,5,left,0.0167,,0.5,0.3,"[3,1,2]",0.627458236,stimuli/card_0_transparent.png,0,5,0,5,0,1,,,,,,,,,,
,,,,65af28fb05a6baf848047803,A,2024-07-08_04h21.01.391,Slot Machine Game,2023.1.3,Win32,4.00160064,,,,,,,,,,,,,,,,,,,,,,,,,,,500,,,,,,,,,,,,,,,,,,,,,2,5,,,380.2662,6,left,0.3241,,1.5,0.3,"[3,1,2]",0.983391281,stimuli/card_0_transparent.png,0,6,0,6,0,1,,,,,,,,,,
,,,,65af28fb05a6baf848047803,A,2024-07-08_04h21.01.391,Slot Machine Game,2023.1.3,Win32,4.00160064,,,,,,,,,,,,,,,,,,,,,,,,,,,600,,,,,,,,,,,,,,,,,,,,,2,5,,,383.3616,7,up,0.6119,0.0002,0.5,0.3,"[3,1,2]",0.527478606,stimuli/card_100_transparent.png,100,7,0,7,0,1,,,,,,,,,,
,,,,65af28fb05a6baf848047803,A,2024-07-08_04h21.01.391,Slot Machine Game,2023.1.3,Win32,4.00160064,,,,,,,,,,,,,,,,,,,,,,,,,,,700,,,,,,,,,,,,,,,,,,,,,2,5,,,385.5008,8,up,0.323,0.0001,1.5,0.3,"[3,1,2]",0.955939253,stimuli/card_100_transparent.png,100,8,0,8,0,1,,,,,,,,,,
,,,,65af28fb05a6baf848047803,A,2024-07-08_04h21.01.391,Slot Machine Game,2023.1.3,Win32,4.00160064,,,,,,,,,,,,,,,,,,,,,,,,,,,710,,,,,,,,,,,,,,,,,,,,,2,5,,,388.2998,9,up,0.0201,0.0003,1.5,0.3,"[3,1,2]",0.118061091,stimuli/card_10_transparent.png,10,9,0,9,0,1,,,,,,,,,,
,,,,65af28fb05a6baf848047803,A,2024-07-08_04h21.01.391,Slot Machine Game,2023.1.3,Win32,4.00160064,,,,,,,,,,,,,,,,,,,,,,,,,,,810,,,,,,,,,,,,,,,,,,,,,2,5,,,390.8216,10,up,0.0165,0.0002,1.5,0.3,"[3,1,2]",0.290654419,stimuli/card_100_transparent.png,100,10,0,10,0,1,,,,,,,,,,
,,,,65af28fb05a6baf848047803,A,2024-07-08_04h21.01.391,Slot Machine Game,2023.1.3,Win32,4.00160064,,,,,,,,,,,,,,,,,,,,,,,,,,,910,,,,,,,,,,,,,,,,,,,,,2,5,,,393.6279,11,up,0.0161,,0.5,0.3,"[3,1,2]",0.257992393,stimuli/card_100_transparent.png,100,11,0,11,0,1,,,,,,,,,,
,,,,65af28fb05a6baf848047803,A,2024-07-08_04h21.01.391,Slot Machine Game,2023.1.3,Win32,4.00160064,,,,,,,,,,,,,,,,,,,,,,,,,,,1010,,,,,,,,,,,,,,,,,,,,,2,5,,,395.1709,12,up,0.3217,,0.5,0.3,"[3,1,2]",0.539274327,stimuli/card_100_transparent.png,100,12,0,12,0,1,,,,,,,,,,
,,,,65af28fb05a6baf848047803,A,2024-07-08_04h21.01.391,Slot Machine Game,2023.1.3,Win32,4.00160064,,,,,,,,,,,,,,,,,,,,,,,,,,,1110,,,,,,,,,,,,,,,,,,,,,2,5,,,397.0196,13,up,0.6257,0.0002,1,0.3,"[3,1,2]",0.752983598,stimuli/card_100_transparent.png,100,13,0,13,0,1,,,,,,,,,,
,,,,65af28fb05a6baf848047803,A,2024-07-08_04h21.01.391,Slot Machine Game,2023.1.3,Win32,4.00160064,,,,,,,,,,,,,,,,,,,,,,,,,,,1210,,,,,,,,,,,,,,,,,,,,,2,5,,,399.8222,14,up,0.0162,,0.5,0.3,"[3,1,2]",0.3080587,stimuli/card_100_transparent.png,100,14,0,14,0,1,,,,,,,,,,
,,,,65af28fb05a6baf848047803,A,2024-07-08_04h21.01.391,Slot Machine Game,2023.1.3,Win32,4.00160064,,,,,,,,,,,,,,,,,,,,,,,,,,,,,,,,,,,401.3781,,,,,,,,,,,,,,,,,,,,,,,,,,,,,,,,,"[920,1210]",1,0,1,0,1,,,,
,,,,65af28fb05a6baf848047803,A,2024-07-08_04h21.01.391,Slot Machine Game,2023.1.3,Win32,4.00160064,,,,,,,,,,,,,,,,,,,,,,,,,,,10,,,,,,,,,,,,,,,,,,,,,3,9,"[8,15]","[[3,2,1],[3,1,2]]",406.252,0,up,0.645,,1.5,0.3,"[3,2,1]",0.315931423,stimuli/card_10_transparent.png,10,0,0,0,0,1,,,,,,,,,,
,,,,65af28fb05a6baf848047803,A,2024-07-08_04h21.01.391,Slot Machine Game,2023.1.3,Win32,4.00160064,,,,,,,,,,,,,,,,,,,,,,,,,,,20,,,,,,,,,,,,,,,,,,,,,3,9,,,409.3648,1,up,0.9252,0.0003,1.5,0.3,"[3,2,1]",0.391422859,stimuli/card_10_transparent.png,10,1,0,1,0,1,,,,,,,,,,
,,,,65af28fb05a6baf848047803,A,2024-07-08_04h21.01.391,Slot Machine Game,2023.1.3,Win32,4.00160064,,,,,,,,,,,,,,,,,,,,,,,,,,,120,,,,,,,,,,,,,,,,,,,,,3,9,,,413.0621,2,right,3.0447,0.0003,1,0.3,"[3,2,1]",0.295580928,stimuli/card_100_transparent.png,100,2,0,2,0,1,,,,,,,,,,
,,,,65af28fb05a6baf848047803,A,2024-07-08_04h21.01.391,Slot Machine Game,2023.1.3,Win32,4.00160064,,,,,,,,,,,,,,,,,,,,,,,,,,,220,,,,,,,,,,,,,,,,,,,,,3,9,,,418.2797,3,right,0.329,,1,0.3,"[3,2,1]",0.979494297,stimuli/card_100_transparent.png,100,3,0,3,0,1,,,,,,,,,,
,,,,65af28fb05a6baf848047803,A,2024-07-08_04h21.01.391,Slot Machine Game,2023.1.3,Win32,4.00160064,,,,,,,,,,,,,,,,,,,,,,,,,,,220,,,,,,,,,,,,,,,,,,,,,3,9,,,420.778,4,right,0.0161,,1.5,0.3,"[3,2,1]",0.029825241,stimuli/card_0_transparent.png,0,4,0,4,0,1,,,,,,,,,,
,,,,65af28fb05a6baf848047803,A,2024-07-08_04h21.01.391,Slot Machine Game,2023.1.3,Win32,4.00160064,,,,,,,,,,,,,,,,,,,,,,,,,,,230,,,,,,,,,,,,,,,,,,,,,3,9,,,423.2535,5,right,0.3296,0.0003,1.5,0.3,"[3,2,1]",0.18831116,stimuli/card_10_transparent.png,10,5,0,5,0,1,,,,,,,,,,
,,,,65af28fb05a6baf848047803,A,2024-07-08_04h21.01.391,Slot Machine Game,2023.1.3,Win32,4.00160064,,,,,,,,,,,,,,,,,,,,,,,,,,,230,,,,,,,,,,,,,,,,,,,,,3,9,,,426.0826,6,left,0.3314,0.0005,1.5,0.3,"[3,2,1]",0.402790753,stimuli/card_0_transparent.png,0,6,0,6,0,1,,,,,,,,,,
,,,,65af28fb05a6baf848047803,A,2024-07-08_04h21.01.391,Slot Machine Game,2023.1.3,Win32,4.00160064,,,,,,,,,,,,,,,,,,,,,,,,,,,240,,,,,,,,,,,,,,,,,,,,,3,9,,,428.9572,7,up,0.0172,,0.5,0.3,"[3,2,1]",0.730558267,stimuli/card_10_transparent.png,10,7,0,7,0,1,,,,,,,,,,
,,,,65af28fb05a6baf848047803,A,2024-07-08_04h21.01.391,Slot Machine Game,2023.1.3,Win32,4.00160064,,,,,,,,,,,,,,,,,,,,,,,,,,,240,,,,,,,,,,,,,,,,,,,,,3,9,,,430.5464,8,left,2.5105,0.0002,1,0.3,"[3,1,2]",0.976368637,stimuli/card_0_transparent.png,0,8,0,8,0,1,,,,,,,,,,
,,,,65af28fb05a6baf848047803,A,2024-07-08_04h21.01.391,Slot Machine Game,2023.1.3,Win32,4.00160064,,,,,,,,,,,,,,,,,,,,,,,,,,,240,,,,,,,,,,,,,,,,,,,,,3,9,,,435.3248,9,left,0.6369,0.0002,0.5,0.3,"[3,1,2]",0.833113088,stimuli/card_0_transparent.png,0,9,0,9,0,1,,,,,,,,,,
,,,,65af28fb05a6baf848047803,A,2024-07-08_04h21.01.391,Slot Machine Game,2023.1.3,Win32,4.00160064,,,,,,,,,,,,,,,,,,,,,,,,,,,250,,,,,,,,,,,,,,,,,,,,,3,9,,,437.4834,10,up,0.3261,,1.5,0.3,"[3,1,2]",0.188706294,stimuli/card_10_transparent.png,10,10,0,10,0,1,,,,,,,,,,
,,,,65af28fb05a6baf848047803,A,2024-07-08_04h21.01.391,Slot Machine Game,2023.1.3,Win32,4.00160064,,,,,,,,,,,,,,,,,,,,,,,,,,,260,,,,,,,,,,,,,,,,,,,,,3,9,,,440.3063,11,right,2.1519,,0.5,0.3,"[3,1,2]",0.247360599,stimuli/card_10_transparent.png,10,11,0,11,0,1,,,,,,,,,,
,,,,65af28fb05a6baf848047803,A,2024-07-08_04h21.01.391,Slot Machine Game,2023.1.3,Win32,4.00160064,,,,,,,,,,,,,,,,,,,,,,,,,,,360,,,,,,,,,,,,,,,,,,,,,3,9,,,444.045,12,right,0.0171,,1.5,0.3,"[3,1,2]",0.147547001,stimuli/card_100_transparent.png,100,12,0,12,0,1,,,,,,,,,,
,,,,65af28fb05a6baf848047803,A,2024-07-08_04h21.01.391,Slot Machine Game,2023.1.3,Win32,4.00160064,,,,,,,,,,,,,,,,,,,,,,,,,,,370,,,,,,,,,,,,,,,,,,,,,3,9,,,446.9144,13,right,0.0168,,1,0.3,"[3,1,2]",0.303804264,stimuli/card_10_transparent.png,10,13,0,13,0,1,,,,,,,,,,
,,,,65af28fb05a6baf848047803,A,2024-07-08_04h21.01.391,Slot Machine Game,2023.1.3,Win32,4.00160064,,,,,,,,,,,,,,,,,,,,,,,,,,,380,,,,,,,,,,,,,,,,,,,,,3,9,,,449.1065,14,right,0.0199,0.0004,0.5,0.3,"[3,1,2]",0.971003163,stimuli/card_10_transparent.png,10,14,0,14,0,1,,,,,,,,,,
,,,,65af28fb05a6baf848047803,A,2024-07-08_04h21.01.391,Slot Machine Game,2023.1.3,Win32,4.00160064,,,,,,,,,,,,,,,,,,,,,,,,,,,,,,,,,,,450.6677,,,,,,,,,,,,,,,,,,,,,,,,,,,,,,,,,"[920,1210,380]",2,0,2,0,1,,,,
,,,,65af28fb05a6baf848047803,A,2024-07-08_04h21.01.391,Slot Machine Game,2023.1.3,Win32,4.00160064,,,,,,,,,,,,,,,,,,,,,,,,,,,100,,,,,,,,,,,,,,,,,,,,,4,1,"[12,15]","[[2,1,3],[2,3,1]]",455.5664,0,up,0.6286,,1,0.3,"[2,1,3]",0.939373538,stimuli/card_100_transparent.png,100,0,0,0,0,1,,,,,,,,,,
,,,,65af28fb05a6baf848047803,A,2024-07-08_04h21.01.391,Slot Machine Game,2023.1.3,Win32,4.00160064,,,,,,,,,,,,,,,,,,,,,,,,,,,200,,,,,,,,,,,,,,,,,,,,,4,1,,,458.3537,1,up,0.3223,0.0004,1.5,0.3,"[2,1,3]",0.755208557,stimuli/card_100_transparent.png,100,1,0,1,0,1,,,,,,,,,,
,,,,65af28fb05a6baf848047803,A,2024-07-08_04h21.01.391,Slot Machine Game,2023.1.3,Win32,4.00160064,,,,,,,,,,,,,,,,,,,,,,,,,,,300,,,,,,,,,,,,,,,,,,,,,4,1,,,461.1802,2,up,0.017,,0.5,0.3,"[2,1,3]",0.59043758,stimuli/card_100_transparent.png,100,2,0,2,0,1,,,,,,,,,,
,,,,65af28fb05a6baf848047803,A,2024-07-08_04h21.01.391,Slot Machine Game,2023.1.3,Win32,4.00160064,,,,,,,,,,,,,,,,,,,,,,,,,,,400,,,,,,,,,,,,,,,,,,,,,4,1,,,462.7582,3,up,0.0164,,1.5,0.3,"[2,1,3]",0.548353413,stimuli/card_100_transparent.png,100,3,0,3,0,1,,,,,,,,,,
,,,,65af28fb05a6baf848047803,A,2024-07-08_04h21.01.391,Slot Machine Game,2023.1.3,Win32,4.00160064,,,,,,,,,,,,,,,,,,,,,,,,,,,500,,,,,,,,,,,,,,,,,,,,,4,1,,,465.5332,4,up,3.0965,0.0003,1,0.3,"[2,1,3]",0.826180128,stimuli/card_100_transparent.png,100,4,0,4,0,1,,,,,,,,,,
,,,,65af28fb05a6baf848047803,A,2024-07-08_04h21.01.391,Slot Machine Game,2023.1.3,Win32,4.00160064,,,,,,,,,,,,,,,,,,,,,,,,,,,600,,,,,,,,,,,,,,,,,,,,,4,1,,,470.8105,5,up,0.9248,,1,0.3,"[2,1,3]",0.830797266,stimuli/card_100_transparent.png,100,5,0,5,0,1,,,,,,,,,,
,,,,65af28fb05a6baf848047803,A,2024-07-08_04h21.01.391,Slot Machine Game,2023.1.3,Win32,4.00160064,,,,,,,,,,,,,,,,,,,,,,,,,,,700,,,,,,,,,,,,,,,,,,,,,4,1,,,473.8889,6,up,0.3208,,0.5,0.3,"[2,1,3]",0.686666785,stimuli/card_100_transparent.png,100,6,0,6,0,1,,,,,,,,,,
,,,,65af28fb05a6baf848047803,A,2024-07-08_04h21.01.391,Slot Machine Game,2023.1.3,Win32,4.00160064,,,,,,,,,,,,,,,,,,,,,,,,,,,800,,,,,,,,,,,,,,,,,,,,,4,1,,,475.7309,7,up,1.2418,0.0002,1,0.3,"[2,1,3]",0.388400589,stimuli/card_100_transparent.png,100,7,0,7,0,1,,,,,,,,,,
,,,,65af28fb05a6baf848047803,A,2024-07-08_04h21.01.391,Slot Machine Game,2023.1.3,Win32,4.00160064,,,,,,,,,,,,,,,,,,,,,,,,,,,900,,,,,,,,,,,,,,,,,,,,,4,1,,,479.1475,8,up,0.0173,0.0002,1.5,0.3,"[2,1,3]",0.973435336,stimuli/card_100_transparent.png,100,8,0,8,0,1,,,,,,,,,,
,,,,65af28fb05a6baf848047803,A,2024-07-08_04h21.01.391,Slot Machine Game,2023.1.3,Win32,4.00160064,,,,,,,,,,,,,,,,,,,,,,,,,,,1000,,,,,,,,,,,,,,,,,,,,,4,1,,,481.6725,9,up,0.0166,0.0002,1.5,0.3,"[2,1,3]",0.807742949,stimuli/card_100_transparent.png,100,9,0,9,0,1,,,,,,,,,,
,,,,65af28fb05a6baf848047803,A,2024-07-08_04h21.01.391,Slot Machine Game,2023.1.3,Win32,4.00160064,,,,,,,,,,,,,,,,,,,,,,,,,,,1000,,,,,,,,,,,,,,,,,,,,,4,1,,,484.4807,10,up,2.7688,0.0003,0.5,0.3,"[2,1,3]",0.000791528,stimuli/card_0_transparent.png,0,10,0,10,0,1,,,,,,,,,,
,,,,65af28fb05a6baf848047803,A,2024-07-08_04h21.01.391,Slot Machine Game,2023.1.3,Win32,4.00160064,,,,,,,,,,,,,,,,,,,,,,,,,,,1100,,,,,,,,,,,,,,,,,,,,,4,1,,,488.8157,11,up,0.3178,0.0003,0.5,0.3,"[2,1,3]",0.754857879,stimuli/card_100_transparent.png,100,11,0,11,0,1,,,,,,,,,,
,,,,65af28fb05a6baf848047803,A,2024-07-08_04h21.01.391,Slot Machine Game,2023.1.3,Win32,4.00160064,,,,,,,,,,,,,,,,,,,,,,,,,,,1110,,,,,,,,,,,,,,,,,,,,,4,1,,,490.6681,12,up,0.626,,1.5,0.3,"[2,3,1]",0.151166124,stimuli/card_10_transparent.png,10,12,0,12,0,1,,,,,,,,,,
,,,,65af28fb05a6baf848047803,A,2024-07-08_04h21.01.391,Slot Machine Game,2023.1.3,Win32,4.00160064,,,,,,,,,,,,,,,,,,,,,,,,,,,1110,,,,,,,,,,,,,,,,,,,,,4,1,,,493.7955,13,up,0.6189,0.0004,1.5,0.3,"[2,3,1]",0.415704688,stimuli/card_0_transparent.png,0,13,0,13,0,1,,,,,,,,,,
,,,,65af28fb05a6baf848047803,A,2024-07-08_04h21.01.391,Slot Machine Game,2023.1.3,Win32,4.00160064,,,,,,,,,,,,,,,,,,,,,,,,,,,1120,,,,,,,,,,,,,,,,,,,,,4,1,,,497.214,14,right,0.0163,0.0002,1.5,0.3,"[2,3,1]",0.119162865,stimuli/card_10_transparent.png,10,14,0,14,0,1,,,,,,,,,,
,,,,65af28fb05a6baf848047803,A,2024-07-08_04h21.01.391,Slot Machine Game,2023.1.3,Win32,4.00160064,,,,,,,,,,,,,,,,,,,,,,,,,,,,,,,,,,,500.0509,,,,,,,,,,,,,,,,,,,,,,,,,,,,,,,,,"[920,1210,380,1120]",3,0,3,0,1,,,,
,,,,65af28fb05a6baf848047803,A,2024-07-08_04h21.01.391,Slot Machine Game,2023.1.3,Win32,4.00160064,,,,,,,,,,,,,,,,,,,,,,,,,,,100,,,,,,,,,,,,,,,,,,,,,5,2,"[6,15]","[[1,3,2],[3,2,1]]",504.9492,0,left,0.6235,,1,0.3,"[1,3,2]",0.35044811,stimuli/card_100_transparent.png,100,0,0,0,0,1,,,,,,,,,,
,,,,65af28fb05a6baf848047803,A,2024-07-08_04h21.01.391,Slot Machine Game,2023.1.3,Win32,4.00160064,,,,,,,,,,,,,,,,,,,,,,,,,,,200,,,,,,,,,,,,,,,,,,,,,5,2,,,507.7108,1,left,0.0158,,1,0.3,"[1,3,2]",0.310888579,stimuli/card_100_transparent.png,100,1,0,1,0,1,,,,,,,,,,
,,,,65af28fb05a6baf848047803,A,2024-07-08_04h21.01.391,Slot Machine Game,2023.1.3,Win32,4.00160064,,,,,,,,,,,,,,,,,,,,,,,,,,,300,,,,,,,,,,,,,,,,,,,,,5,2,,,509.9223,2,left,0.0165,,1.5,0.3,"[1,3,2]",0.238150197,stimuli/card_100_transparent.png,100,2,0,2,0,1,,,,,,,,,,
,,,,65af28fb05a6baf848047803,A,2024-07-08_04h21.01.391,Slot Machine Game,2023.1.3,Win32,4.00160064,,,,,,,,,,,,,,,,,,,,,,,,,,,400,,,,,,,,,,,,,,,,,,,,,5,2,,,512.45,3,left,0.0159,0.0003,0.5,0.3,"[1,3,2]",0.498349829,stimuli/card_100_transparent.png,100,3,0,3,0,1,,,,,,,,,,
,,,,65af28fb05a6baf848047803,A,2024-07-08_04h21.01.391,Slot Machine Game,2023.1.3,Win32,4.00160064,,,,,,,,,,,,,,,,,,,,,,,,,,,500,,,,,,,,,,,,,,,,,,,,,5,2,,,514.0009,4,left,0.3217,,0.5,0.3,"[1,3,2]",0.775016257,stimuli/card_100_transparent.png,100,4,0,4,0,1,,,,,,,,,,
,,,,65af28fb05a6baf848047803,A,2024-07-08_04h21.01.391,Slot Machine Game,2023.1.3,Win32,4.00160064,,,,,,,,,,,,,,,,,,,,,,,,,,,600,,,,,,,,,,,,,,,,,,,,,5,2,,,515.853,5,left,0.6217,0.0003,1.5,0.3,"[1,3,2]",0.997135944,stimuli/card_100_transparent.png,100,5,0,5,0,1,,,,,,,,,,
,,,,65af28fb05a6baf848047803,A,2024-07-08_04h21.01.391,Slot Machine Game,2023.1.3,Win32,4.00160064,,,,,,,,,,,,,,,,,,,,,,,,,,,600,,,,,,,,,,,,,,,,,,,,,5,2,,,518.994,6,left,0.0164,,0.5,0.3,"[3,2,1]",0.934130949,stimuli/card_0_transparent.png,0,6,0,6,0,1,,,,,,,,,,
,,,,65af28fb05a6baf848047803,A,2024-07-08_04h21.01.391,Slot Machine Game,2023.1.3,Win32,4.00160064,,,,,,,,,,,,,,,,,,,,,,,,,,,600,,,,,,,,,,,,,,,,,,,,,5,2,,,520.5643,7,left,0.3212,0.0004,1.5,0.3,"[3,2,1]",0.920411103,stimuli/card_0_transparent.png,0,7,0,7,0,1,,,,,,,,,,
,,,,65af28fb05a6baf848047803,A,2024-07-08_04h21.01.391,Slot Machine Game,2023.1.3,Win32,4.00160064,,,,,,,,,,,,,,,,,,,,,,,,,,,700,,,,,,,,,,,,,,,,,,,,,5,2,,,523.3803,8,right,0.0201,,1,0.3,"[3,2,1]",0.751480981,stimuli/card_100_transparent.png,100,8,0,8,0,1,,,,,,,,,,
,,,,65af28fb05a6baf848047803,A,2024-07-08_04h21.01.391,Slot Machine Game,2023.1.3,Win32,4.00160064,,,,,,,,,,,,,,,,,,,,,,,,,,,800,,,,,,,,,,,,,,,,,,,,,5,2,,,525.5813,9,right,0.3211,0.0002,0.5,0.3,"[3,2,1]",0.671699187,stimuli/card_100_transparent.png,100,9,0,9,0,1,,,,,,,,,,
,,,,65af28fb05a6baf848047803,A,2024-07-08_04h21.01.391,Slot Machine Game,2023.1.3,Win32,4.00160064,,,,,,,,,,,,,,,,,,,,,,,,,,,810,,,,,,,,,,,,,,,,,,,,,5,2,,,527.4249,10,right,0.32,0.0003,1.5,0.3,"[3,2,1]",0.151214292,stimuli/card_10_transparent.png,10,10,0,10,0,1,,,,,,,,,,
,,,,65af28fb05a6baf848047803,A,2024-07-08_04h21.01.391,Slot Machine Game,2023.1.3,Win32,4.00160064,,,,,,,,,,,,,,,,,,,,,,,,,,,910,,,,,,,,,,,,,,,,,,,,,5,2,,,530.2567,11,right,0.3172,,1,0.3,"[3,2,1]",0.535572287,stimuli/card_100_transparent.png,100,11,0,11,0,1,,,,,,,,,,
,,,,65af28fb05a6baf848047803,A,2024-07-08_04h21.01.391,Slot Machine Game,2023.1.3,Win32,4.00160064,,,,,,,,,,,,,,,,,,,,,,,,,,,1010,,,,,,,,,,,,,,,,,,,,,5,2,,,532.7311,12,right,0.9221,,1,0.3,"[3,2,1]",0.554187375,stimuli/card_100_transparent.png,100,12,0,12,0,1,,,,,,,,,,
,,,,65af28fb05a6baf848047803,A,2024-07-08_04h21.01.391,Slot Machine Game,2023.1.3,Win32,4.00160064,,,,,,,,,,,,,,,,,,,,,,,,,,,1110,,,,,,,,,,,,,,,,,,,,,5,2,,,535.8039,13,right,0.016,,1.5,0.3,"[3,2,1]",0.875190947,stimuli/card_100_transparent.png,100,13,0,13,0,1,,,,,,,,,,
,,,,65af28fb05a6baf848047803,A,2024-07-08_04h21.01.391,Slot Machine Game,2023.1.3,Win32,4.00160064,,,,,,,,,,,,,,,,,,,,,,,,,,,1210,,,,,,,,,,,,,,,,,,,,,5,2,,,538.3358,14,right,0.0238,,1,0.3,"[3,2,1]",0.58992733,stimuli/card_100_transparent.png,100,14,0,14,0,1,,,,,,,,,,
,,,,65af28fb05a6baf848047803,A,2024-07-08_04h21.01.391,Slot Machine Game,2023.1.3,Win32,4.00160064,,,,,,,,,,,,,,,,,,,,,,,,,,,,,,,,,,,540.6834,,,,,,,,,,,,,,,,,,,,,,,,,,,,,,,,,"[920,1210,380,1120,1210]",4,0,4,0,1,,,,
,,,,65af28fb05a6baf848047803,A,2024-07-08_04h21.01.391,Slot Machine Game,2023.1.3,Win32,4.00160064,,,,,,,,,,,,,,,,,,,,,,,,,,,100,,,,,,,,,,,,,,,,,,,,,6,4,"[7,15]","[[2,3,1],[1,2,3]]",545.7045,0,right,1.3115,0.0005,1,0.3,"[2,3,1]",0.307775105,stimuli/card_100_transparent.png,100,0,0,0,0,1,,,,,,,,,,
,,,,65af28fb05a6baf848047803,A,2024-07-08_04h21.01.391,Slot Machine Game,2023.1.3,Win32,4.00160064,,,,,,,,,,,,,,,,,,,,,,,,,,,200,,,,,,,,,,,,,,,,,,,,,6,4,,,549.2584,1,right,0.3716,0.0003,1.5,0.3,"[2,3,1]",0.842129968,stimuli/card_100_transparent.png,100,1,0,1,0,1,,,,,,,,,,
,,,,65af28fb05a6baf848047803,A,2024-07-08_04h21.01.391,Slot Machine Game,2023.1.3,Win32,4.00160064,,,,,,,,,,,,,,,,,,,,,,,,,,,210,,,,,,,,,,,,,,,,,,,,,6,4,,,552.2766,2,right,0.0228,,0.5,0.3,"[2,3,1]",0.174287652,stimuli/card_10_transparent.png,10,2,0,2,0,1,,,,,,,,,,
,,,,65af28fb05a6baf848047803,A,2024-07-08_04h21.01.391,Slot Machine Game,2023.1.3,Win32,4.00160064,,,,,,,,,,,,,,,,,,,,,,,,,,,310,,,,,,,,,,,,,,,,,,,,,6,4,,,553.8652,3,right,0.6493,0.0002,1.5,0.3,"[2,3,1]",0.458039704,stimuli/card_100_transparent.png,100,3,0,3,0,1,,,,,,,,,,
,,,,65af28fb05a6baf848047803,A,2024-07-08_04h21.01.391,Slot Machine Game,2023.1.3,Win32,4.00160064,,,,,,,,,,,,,,,,,,,,,,,,,,,320,,,,,,,,,,,,,,,,,,,,,6,4,,,557.0838,4,right,0.0213,,1,0.3,"[2,3,1]",0.137905744,stimuli/card_10_transparent.png,10,4,0,4,0,1,,,,,,,,,,
,,,,65af28fb05a6baf848047803,A,2024-07-08_04h21.01.391,Slot Machine Game,2023.1.3,Win32,4.00160064,,,,,,,,,,,,,,,,,,,,,,,,,,,420,,,,,,,,,,,,,,,,,,,,,6,4,,,559.3899,5,right,0.3203,0.0003,1.5,0.3,"[2,3,1]",0.692420777,stimuli/card_100_transparent.png,100,5,0,5,0,1,,,,,,,,,,
,,,,65af28fb05a6baf848047803,A,2024-07-08_04h21.01.391,Slot Machine Game,2023.1.3,Win32,4.00160064,,,,,,,,,,,,,,,,,,,,,,,,,,,520,,,,,,,,,,,,,,,,,,,,,6,4,,,562.2161,6,right,0.0166,,1.5,0.3,"[2,3,1]",0.217601574,stimuli/card_100_transparent.png,100,6,0,6,0,1,,,,,,,,,,
,,,,65af28fb05a6baf848047803,A,2024-07-08_04h21.01.391,Slot Machine Game,2023.1.3,Win32,4.00160064,,,,,,,,,,,,,,,,,,,,,,,,,,,520,,,,,,,,,,,,,,,,,,,,,6,4,,,564.7594,7,right,2.4424,0.0004,1.5,0.3,"[1,2,3]",0.631569667,stimuli/card_0_transparent.png,0,7,0,7,0,1,,,,,,,,,,
,,,,65af28fb05a6baf848047803,A,2024-07-08_04h21.01.391,Slot Machine Game,2023.1.3,Win32,4.00160064,,,,,,,,,,,,,,,,,,,,,,,,,,,520,,,,,,,,,,,,,,,,,,,,,6,4,,,569.7126,8,right,0.9298,,0.5,0.3,"[1,2,3]",0.307392915,stimuli/card_0_transparent.png,0,8,0,8,0,1,,,,,,,,,,
,,,,65af28fb05a6baf848047803,A,2024-07-08_04h21.01.391,Slot Machine Game,2023.1.3,Win32,4.00160064,,,,,,,,,,,,,,,,,,,,,,,,,,,530,,,,,,,,,,,,,,,,,,,,,6,4,,,572.1724,9,up,0.0167,,1.5,0.3,"[1,2,3]",0.954980548,stimuli/card_10_transparent.png,10,9,0,9,0,1,,,,,,,,,,
,,,,65af28fb05a6baf848047803,A,2024-07-08_04h21.01.391,Slot Machine Game,2023.1.3,Win32,4.00160064,,,,,,,,,,,,,,,,,,,,,,,,,,,630,,,,,,,,,,,,,,,,,,,,,6,4,,,574.6632,10,up,0.6186,,1.5,0.3,"[1,2,3]",0.198892258,stimuli/card_100_transparent.png,100,10,0,10,0,1,,,,,,,,,,
,,,,65af28fb05a6baf848047803,A,2024-07-08_04h21.01.391,Slot Machine Game,2023.1.3,Win32,4.00160064,,,,,,,,,,,,,,,,,,,,,,,,,,,730,,,,,,,,,,,,,,,,,,,,,6,4,,,577.7655,11,up,0.0168,,1,0.3,"[1,2,3]",0.158349936,stimuli/card_100_transparent.png,100,11,0,11,0,1,,,,,,,,,,
,,,,65af28fb05a6baf848047803,A,2024-07-08_04h21.01.391,Slot Machine Game,2023.1.3,Win32,4.00160064,,,,,,,,,,,,,,,,,,,,,,,,,,,740,,,,,,,,,,,,,,,,,,,,,6,4,,,579.9538,12,up,0.0168,,0.5,0.3,"[1,2,3]",0.747302718,stimuli/card_10_transparent.png,10,12,0,12,0,1,,,,,,,,,,
,,,,65af28fb05a6baf848047803,A,2024-07-08_04h21.01.391,Slot Machine Game,2023.1.3,Win32,4.00160064,,,,,,,,,,,,,,,,,,,,,,,,,,,750,,,,,,,,,,,,,,,,,,,,,6,4,,,581.5398,13,up,0.0167,,1,0.3,"[1,2,3]",0.44291226,stimuli/card_10_transparent.png,10,13,0,13,0,1,,,,,,,,,,
,,,,65af28fb05a6baf848047803,A,2024-07-08_04h21.01.391,Slot Machine Game,2023.1.3,Win32,4.00160064,,,,,,,,,,,,,,,,,,,,,,,,,,,760,,,,,,,,,,,,,,,,,,,,,6,4,,,583.7728,14,up,0.32,,1,0.3,"[1,2,3]",0.891036027,stimuli/card_10_transparent.png,10,14,0,14,0,1,,,,,,,,,,
,,,,65af28fb05a6baf848047803,A,2024-07-08_04h21.01.391,Slot Machine Game,2023.1.3,Win32,4.00160064,,,,,,,,,,,,,,,,,,,,,,,,,,,,,,,,,,,586.2895,,,,,,,,,,,,,,,,,,,,,,,,,,,,,,,,,"[920,1210,380,1120,1210,760]",5,0,5,0,1,,,,
,,,,65af28fb05a6baf848047803,A,2024-07-08_04h21.01.391,Slot Machine Game,2023.1.3,Win32,4.00160064,,,,,,,,,,,,,,,,,,,,,,,,,,,0,,,,,,,,,,,,,,,,,,,,,7,10,"[10,15]","[[3,1,2],[1,3,2]]",591.1874,0,left,0.6448,0.0003,1,0.3,"[3,1,2]",0.654223543,stimuli/card_0_transparent.png,0,0,0,0,0,1,,,,,,,,,,
,,,,65af28fb05a6baf848047803,A,2024-07-08_04h21.01.391,Slot Machine Game,2023.1.3,Win32,4.00160064,,,,,,,,,,,,,,,,,,,,,,,,,,,0,,,,,,,,,,,,,,,,,,,,,7,10,,,594.0046,1,left,0.0177,,1.5,0.3,"[3,1,2]",0.715960353,stimuli/card_0_transparent.png,0,1,0,1,0,1,,,,,,,,,,
,,,,65af28fb05a6baf848047803,A,2024-07-08_04h21.01.391,Slot Machine Game,2023.1.3,Win32,4.00160064,,,,,,,,,,,,,,,,,,,,,,,,,,,100,,,,,,,,,,,,,,,,,,,,,7,10,,,596.6132,2,up,1.6228,0.0002,1.5,0.3,"[3,1,2]",0.639781454,stimuli/card_100_transparent.png,100,2,0,2,0,1,,,,,,,,,,
,,,,65af28fb05a6baf848047803,A,2024-07-08_04h21.01.391,Slot Machine Game,2023.1.3,Win32,4.00160064,,,,,,,,,,,,,,,,,,,,,,,,,,,100,,,,,,,,,,,,,,,,,,,,,7,10,,,600.8631,3,up,0.0163,0.0003,0.5,0.3,"[3,1,2]",0.058152784,stimuli/card_0_transparent.png,0,3,0,3,0,1,,,,,,,,,,
,,,,65af28fb05a6baf848047803,A,2024-07-08_04h21.01.391,Slot Machine Game,2023.1.3,Win32,4.00160064,,,,,,,,,,,,,,,,,,,,,,,,,,,200,,,,,,,,,,,,,,,,,,,,,7,10,,,602.4422,4,up,0.0159,,1.5,0.3,"[3,1,2]",0.435264776,stimuli/card_100_transparent.png,100,4,0,4,0,1,,,,,,,,,,
,,,,65af28fb05a6baf848047803,A,2024-07-08_04h21.01.391,Slot Machine Game,2023.1.3,Win32,4.00160064,,,,,,,,,,,,,,,,,,,,,,,,,,,300,,,,,,,,,,,,,,,,,,,,,7,10,,,604.9706,5,up,1.8445,,0.5,0.3,"[3,1,2]",0.79068525,stimuli/card_100_transparent.png,100,5,0,5,0,1,,,,,,,,,,
,,,,65af28fb05a6baf848047803,A,2024-07-08_04h21.01.391,Slot Machine Game,2023.1.3,Win32,4.00160064,,,,,,,,,,,,,,,,,,,,,,,,,,,300,,,,,,,,,,,,,,,,,,,,,7,10,,,608.3447,6,up,0.6158,0.0002,0.5,0.3,"[3,1,2]",0.087269737,stimuli/card_0_transparent.png,0,6,0,6,0,1,,,,,,,,,,
,,,,65af28fb05a6baf848047803,A,2024-07-08_04h21.01.391,Slot Machine Game,2023.1.3,Win32,4.00160064,,,,,,,,,,,,,,,,,,,,,,,,,,,400,,,,,,,,,,,,,,,,,,,,,7,10,,,610.4762,7,up,0.3138,0.0003,1.5,0.3,"[3,1,2]",0.375149201,stimuli/card_100_transparent.png,100,7,0,7,0,1,,,,,,,,,,
,,,,65af28fb05a6baf848047803,A,2024-07-08_04h21.01.391,Slot Machine Game,2023.1.3,Win32,4.00160064,,,,,,,,,,,,,,,,,,,,,,,,,,,500,,,,,,,,,,,,,,,,,,,,,7,10,,,613.5696,8,up,0.6278,,1,0.3,"[3,1,2]",0.437697955,stimuli/card_100_transparent.png,100,8,0,8,0,1,,,,,,,,,,
,,,,65af28fb05a6baf848047803,A,2024-07-08_04h21.01.391,Slot Machine Game,2023.1.3,Win32,4.00160064,,,,,,,,,,,,,,,,,,,,,,,,,,,600,,,,,,,,,,,,,,,,,,,,,7,10,,,616.3879,9,up,1.2468,0.0002,1,0.3,"[3,1,2]",0.399285125,stimuli/card_100_transparent.png,100,9,0,9,0,1,,,,,,,,,,
,,,,65af28fb05a6baf848047803,A,2024-07-08_04h21.01.391,Slot Machine Game,2023.1.3,Win32,4.00160064,,,,,,,,,,,,,,,,,,,,,,,,,,,600,,,,,,,,,,,,,,,,,,,,,7,10,,,619.7794,10,up,1.8625,0.0001,1.5,0.3,"[1,3,2]",0.226033199,stimuli/card_0_transparent.png,0,10,0,10,0,1,,,,,,,,,,
,,,,65af28fb05a6baf848047803,A,2024-07-08_04h21.01.391,Slot Machine Game,2023.1.3,Win32,4.00160064,,,,,,,,,,,,,,,,,,,,,,,,,,,610,,,,,,,,,,,,,,,,,,,,,7,10,,,624.1434,11,up,0.017,,1.5,0.3,"[1,3,2]",0.192422852,stimuli/card_10_transparent.png,10,11,0,11,0,1,,,,,,,,,,
,,,,65af28fb05a6baf848047803,A,2024-07-08_04h21.01.391,Slot Machine Game,2023.1.3,Win32,4.00160064,,,,,,,,,,,,,,,,,,,,,,,,,,,620,,,,,,,,,,,,,,,,,,,,,7,10,,,626.6544,12,up,0.6273,0.0004,0.5,0.3,"[1,3,2]",0.156076593,stimuli/card_10_transparent.png,10,12,0,12,0,1,,,,,,,,,,
,,,,65af28fb05a6baf848047803,A,2024-07-08_04h21.01.391,Slot Machine Game,2023.1.3,Win32,4.00160064,,,,,,,,,,,,,,,,,,,,,,,,,,,630,,,,,,,,,,,,,,,,,,,,,7,10,,,628.8018,13,right,1.2372,,1,0.3,"[1,3,2]",0.871090113,stimuli/card_10_transparent.png,10,13,0,13,0,1,,,,,,,,,,
,,,,65af28fb05a6baf848047803,A,2024-07-08_04h21.01.391,Slot Machine Game,2023.1.3,Win32,4.00160064,,,,,,,,,,,,,,,,,,,,,,,,,,,640,,,,,,,,,,,,,,,,,,,,,7,10,,,632.2079,14,right,0.017,0.0003,1,0.3,"[1,3,2]",0.215811167,stimuli/card_10_transparent.png,10,14,0,14,0,1,,,,,,,,,,
,,,,65af28fb05a6baf848047803,A,2024-07-08_04h21.01.391,Slot Machine Game,2023.1.3,Win32,4.00160064,,,,,,,,,,,,,,,,,,,,,,,,,,,,,,,,,,,634.3873,,,,,,,,,,,,,,,,,,,,,,,,,,,,,,,,,"[920,1210,380,1120,1210,760,640]",6,0,6,0,1,,,,
,,,,65af28fb05a6baf848047803,A,2024-07-08_04h21.01.391,Slot Machine Game,2023.1.3,Win32,4.00160064,,,,,,,,,,,,,,,,,,,,,,,,,,,100,,,,,,,,,,,,,,,,,,,,,8,7,"[9,15]","[[1,3,2],[2,3,1]]",639.2786,0,left,1.528,,1,0.3,"[1,3,2]",0.739856002,stimuli/card_100_transparent.png,100,0,0,0,0,1,,,,,,,,,,
,,,,65af28fb05a6baf848047803,A,2024-07-08_04h21.01.391,Slot Machine Game,2023.1.3,Win32,4.00160064,,,,,,,,,,,,,,,,,,,,,,,,,,,200,,,,,,,,,,,,,,,,,,,,,8,7,,,642.9799,1,left,0.016,0.0002,1,0.3,"[1,3,2]",0.538364841,stimuli/card_100_transparent.png,100,1,0,1,0,1,,,,,,,,,,
,,,,65af28fb05a6baf848047803,A,2024-07-08_04h21.01.391,Slot Machine Game,2023.1.3,Win32,4.00160064,,,,,,,,,,,,,,,,,,,,,,,,,,,300,,,,,,,,,,,,,,,,,,,,,8,7,,,645.1653,2,left,0.0244,,0.5,0.3,"[1,3,2]",0.87708108,stimuli/card_100_transparent.png,100,2,0,2,0,1,,,,,,,,,,
,,,,65af28fb05a6baf848047803,A,2024-07-08_04h21.01.391,Slot Machine Game,2023.1.3,Win32,4.00160064,,,,,,,,,,,,,,,,,,,,,,,,,,,310,,,,,,,,,,,,,,,,,,,,,8,7,,,646.7259,3,left,0.9619,,0.5,0.3,"[1,3,2]",0.10189377,stimuli/card_10_transparent.png,10,3,0,3,0,1,,,,,,,,,,
,,,,65af28fb05a6baf848047803,A,2024-07-08_04h21.01.391,Slot Machine Game,2023.1.3,Win32,4.00160064,,,,,,,,,,,,,,,,,,,,,,,,,,,310,,,,,,,,,,,,,,,,,,,,,8,7,,,649.225,4,left,0.0162,,0.5,0.3,"[1,3,2]",0.080409426,stimuli/card_0_transparent.png,0,4,0,4,0,1,,,,,,,,,,
,,,,65af28fb05a6baf848047803,A,2024-07-08_04h21.01.391,Slot Machine Game,2023.1.3,Win32,4.00160064,,,,,,,,,,,,,,,,,,,,,,,,,,,310,,,,,,,,,,,,,,,,,,,,,8,7,,,650.7879,5,up,0.9239,,1,0.3,"[1,3,2]",0.528933286,stimuli/card_0_transparent.png,0,5,0,5,0,1,,,,,,,,,,
,,,,65af28fb05a6baf848047803,A,2024-07-08_04h21.01.391,Slot Machine Game,2023.1.3,Win32,4.00160064,,,,,,,,,,,,,,,,,,,,,,,,,,,310,,,,,,,,,,,,,,,,,,,,,8,7,,,653.878,6,up,0.9253,0.0003,0.5,0.3,"[1,3,2]",0.621239571,stimuli/card_0_transparent.png,0,6,0,6,0,1,,,,,,,,,,
,,,,65af28fb05a6baf848047803,A,2024-07-08_04h21.01.391,Slot Machine Game,2023.1.3,Win32,4.00160064,,,,,,,,,,,,,,,,,,,,,,,,,,,320,,,,,,,,,,,,,,,,,,,,,8,7,,,656.3304,7,right,0.0185,,1,0.3,"[1,3,2]",0.632612194,stimuli/card_10_transparent.png,10,7,0,7,0,1,,,,,,,,,,
,,,,65af28fb05a6baf848047803,A,2024-07-08_04h21.01.391,Slot Machine Game,2023.1.3,Win32,4.00160064,,,,,,,,,,,,,,,,,,,,,,,,,,,330,,,,,,,,,,,,,,,,,,,,,8,7,,,658.5432,8,right,1.8985,,0.5,0.3,"[1,3,2]",0.338360167,stimuli/card_10_transparent.png,10,8,0,8,0,1,,,,,,,,,,
,,,,65af28fb05a6baf848047803,A,2024-07-08_04h21.01.391,Slot Machine Game,2023.1.3,Win32,4.00160064,,,,,,,,,,,,,,,,,,,,,,,,,,,430,,,,,,,,,,,,,,,,,,,,,8,7,,,661.9644,9,right,0.0166,0.0004,0.5,0.3,"[2,3,1]",0.43518581,stimuli/card_100_transparent.png,100,9,0,9,0,1,,,,,,,,,,
,,,,65af28fb05a6baf848047803,A,2024-07-08_04h21.01.391,Slot Machine Game,2023.1.3,Win32,4.00160064,,,,,,,,,,,,,,,,,,,,,,,,,,,530,,,,,,,,,,,,,,,,,,,,,8,7,,,663.5025,10,right,0.0178,0.0002,0.5,0.3,"[2,3,1]",0.512456394,stimuli/card_100_transparent.png,100,10,0,10,0,1,,,,,,,,,,
,,,,65af28fb05a6baf848047803,A,2024-07-08_04h21.01.391,Slot Machine Game,2023.1.3,Win32,4.00160064,,,,,,,,,,,,,,,,,,,,,,,,,,,630,,,,,,,,,,,,,,,,,,,,,8,7,,,665.0923,11,right,0.0166,,1,0.3,"[2,3,1]",0.238981829,stimuli/card_100_transparent.png,100,11,0,11,0,1,,,,,,,,,,
,,,,65af28fb05a6baf848047803,A,2024-07-08_04h21.01.391,Slot Machine Game,2023.1.3,Win32,4.00160064,,,,,,,,,,,,,,,,,,,,,,,,,,,730,,,,,,,,,,,,,,,,,,,,,8,7,,,667.2987,12,right,0.0162,,0.5,0.3,"[2,3,1]",0.42497699,stimuli/card_100_transparent.png,100,12,0,12,0,1,,,,,,,,,,
,,,,65af28fb05a6baf848047803,A,2024-07-08_04h21.01.391,Slot Machine Game,2023.1.3,Win32,4.00160064,,,,,,,,,,,,,,,,,,,,,,,,,,,830,,,,,,,,,,,,,,,,,,,,,8,7,,,668.8354,13,right,0.0165,0.0001,1.5,0.3,"[2,3,1]",0.619311933,stimuli/card_100_transparent.png,100,13,0,13,0,1,,,,,,,,,,
,,,,65af28fb05a6baf848047803,A,2024-07-08_04h21.01.391,Slot Machine Game,2023.1.3,Win32,4.00160064,,,,,,,,,,,,,,,,,,,,,,,,,,,830,,,,,,,,,,,,,,,,,,,,,8,7,,,671.3633,14,right,2.1529,0.0002,0.5,0.3,"[2,3,1]",0.054092367,stimuli/card_0_transparent.png,0,14,0,14,0,1,,,,,,,,,,
,,,,65af28fb05a6baf848047803,A,2024-07-08_04h21.01.391,Slot Machine Game,2023.1.3,Win32,4.00160064,,,,,,,,,,,,,,,,,,,,,,,,,,,,,,,,,,,675.0743,,,,,,,,,,,,,,,,,,,,,,,,,,,,,,,,,"[920,1210,380,1120,1210,760,640,830]",7,0,7,0,1,,,,
,,,,65af28fb05a6baf848047803,A,2024-07-08_04h21.01.391,Slot Machine Game,2023.1.3,Win32,4.00160064,,,,,,,,,,,,,,,,,,,,,,,,,,,10,,,,,,,,,,,,,,,,,,,,,9,9,[15],"[[3,1,2]]",679.9606,0,right,1.5443,0.0002,1,0.3,"[3,1,2]",0.202567017,stimuli/card_10_transparent.png,10,0,0,0,0,1,,,,,,,,,,
,,,,65af28fb05a6baf848047803,A,2024-07-08_04h21.01.391,Slot Machine Game,2023.1.3,Win32,4.00160064,,,,,,,,,,,,,,,,,,,,,,,,,,,20,,,,,,,,,,,,,,,,,,,,,9,9,,,683.6445,1,right,0.9403,0.0002,1.5,0.3,"[3,1,2]",0.592683472,stimuli/card_10_transparent.png,10,1,0,1,0,1,,,,,,,,,,
,,,,65af28fb05a6baf848047803,A,2024-07-08_04h21.01.391,Slot Machine Game,2023.1.3,Win32,4.00160064,,,,,,,,,,,,,,,,,,,,,,,,,,,120,,,,,,,,,,,,,,,,,,,,,9,9,,,687.3548,2,up,0.9326,0.0002,1.5,0.3,"[3,1,2]",0.246867896,stimuli/card_100_transparent.png,100,2,0,2,0,1,,,,,,,,,,
,,,,65af28fb05a6baf848047803,A,2024-07-08_04h21.01.391,Slot Machine Game,2023.1.3,Win32,4.00160064,,,,,,,,,,,,,,,,,,,,,,,,,,,130,,,,,,,,,,,,,,,,,,,,,9,9,,,690.8057,3,up,0.0173,0.0003,1.5,0.3,"[3,1,2]",0.110085716,stimuli/card_10_transparent.png,10,3,0,3,0,1,,,,,,,,,,
,,,,65af28fb05a6baf848047803,A,2024-07-08_04h21.01.391,Slot Machine Game,2023.1.3,Win32,4.00160064,,,,,,,,,,,,,,,,,,,,,,,,,,,230,,,,,,,,,,,,,,,,,,,,,9,9,,,693.5841,4,up,0.0181,,0.5,0.3,"[3,1,2]",0.297511373,stimuli/card_100_transparent.png,100,4,0,4,0,1,,,,,,,,,,
,,,,65af28fb05a6baf848047803,A,2024-07-08_04h21.01.391,Slot Machine Game,2023.1.3,Win32,4.00160064,,,,,,,,,,,,,,,,,,,,,,,,,,,330,,,,,,,,,,,,,,,,,,,,,9,9,,,695.1436,5,up,0.3237,,0.5,0.3,"[3,1,2]",0.393198028,stimuli/card_100_transparent.png,100,5,0,5,0,1,,,,,,,,,,
,,,,65af28fb05a6baf848047803,A,2024-07-08_04h21.01.391,Slot Machine Game,2023.1.3,Win32,4.00160064,,,,,,,,,,,,,,,,,,,,,,,,,,,430,,,,,,,,,,,,,,,,,,,,,9,9,,,696.9809,6,up,0.941,,1,0.3,"[3,1,2]",0.533906641,stimuli/card_100_transparent.png,100,6,0,6,0,1,,,,,,,,,,
,,,,65af28fb05a6baf848047803,A,2024-07-08_04h21.01.391,Slot Machine Game,2023.1.3,Win32,4.00160064,,,,,,,,,,,,,,,,,,,,,,,,,,,530,,,,,,,,,,,,,,,,,,,,,9,9,,,700.0892,7,up,0.6481,0.0002,1.5,0.3,"[3,1,2]",0.665282672,stimuli/card_100_transparent.png,100,7,0,7,0,1,,,,,,,,,,
,,,,65af28fb05a6baf848047803,A,2024-07-08_04h21.01.391,Slot Machine Game,2023.1.3,Win32,4.00160064,,,,,,,,,,,,,,,,,,,,,,,,,,,630,,,,,,,,,,,,,,,,,,,,,9,9,,,703.261,8,up,2.8344,0.0004,0.5,0.3,"[3,1,2]",0.610619803,stimuli/card_100_transparent.png,100,8,0,8,0,1,,,,,,,,,,
,,,,65af28fb05a6baf848047803,A,2024-07-08_04h21.01.391,Slot Machine Game,2023.1.3,Win32,4.00160064,,,,,,,,,,,,,,,,,,,,,,,,,,,730,,,,,,,,,,,,,,,,,,,,,9,9,,,707.6061,9,up,0.0158,,0.5,0.3,"[3,1,2]",0.948943007,stimuli/card_100_transparent.png,100,9,0,9,0,1,,,,,,,,,,
,,,,65af28fb05a6baf848047803,A,2024-07-08_04h21.01.391,Slot Machine Game,2023.1.3,Win32,4.00160064,,,,,,,,,,,,,,,,,,,,,,,,,,,740,,,,,,,,,,,,,,,,,,,,,9,9,,,709.1942,10,up,0.3293,,1,0.3,"[3,1,2]",0.191136085,stimuli/card_10_transparent.png,10,10,0,10,0,1,,,,,,,,,,
,,,,65af28fb05a6baf848047803,A,2024-07-08_04h21.01.391,Slot Machine Game,2023.1.3,Win32,4.00160064,,,,,,,,,,,,,,,,,,,,,,,,,,,840,,,,,,,,,,,,,,,,,,,,,9,9,,,711.6929,11,up,0.0174,0.0002,1.5,0.3,"[3,1,2]",0.652941155,stimuli/card_100_transparent.png,100,11,0,11,0,1,,,,,,,,,,
,,,,65af28fb05a6baf848047803,A,2024-07-08_04h21.01.391,Slot Machine Game,2023.1.3,Win32,4.00160064,,,,,,,,,,,,,,,,,,,,,,,,,,,940,,,,,,,,,,,,,,,,,,,,,9,9,,,714.1851,12,up,0.0165,0.0002,1.5,0.3,"[3,1,2]",0.902209703,stimuli/card_100_transparent.png,100,12,0,12,0,1,,,,,,,,,,
,,,,65af28fb05a6baf848047803,A,2024-07-08_04h21.01.391,Slot Machine Game,2023.1.3,Win32,4.00160064,,,,,,,,,,,,,,,,,,,,,,,,,,,950,,,,,,,,,,,,,,,,,,,,,9,9,,,716.6922,13,up,2.7475,,1,0.3,"[3,1,2]",0.14605506,stimuli/card_10_transparent.png,10,13,0,13,0,1,,,,,,,,,,
,,,,65af28fb05a6baf848047803,A,2024-07-08_04h21.01.391,Slot Machine Game,2023.1.3,Win32,4.00160064,,,,,,,,,,,,,,,,,,,,,,,,,,,950,,,,,,,,,,,,,,,,,,,,,9,9,,,721.643,14,up,0.0161,,1.5,0.3,"[3,1,2]",0.033485876,stimuli/card_0_transparent.png,0,14,0,14,0,1,,,,,,,,,,
,,,,65af28fb05a6baf848047803,A,2024-07-08_04h21.01.391,Slot Machine Game,2023.1.3,Win32,4.00160064,,,,,,,,,,,,,,,,,,,,,,,,,,,,,,,,,,,724.4437,,,,,,,,,,,,,,,,,,,,,,,,,,,,,,,,,"[920,1210,380,1120,1210,760,640,830,950]",8,0,8,0,1,,,,
,,,,65af28fb05a6baf848047803,A,2024-07-08_04h21.01.391,Slot Machine Game,2023.1.3,Win32,4.00160064,,,,,,,,,,,,,,,,,,,,,,,,,,,100,,,,,,,,,,,,,,,,,,,,,10,6,"[4,10,15]","[[2,3,1],[1,3,2],[3,2,1]]",729.4118,0,left,1.6238,,1.5,0.3,"[2,3,1]",0.126371684,stimuli/card_100_transparent.png,100,0,0,0,0,1,,,,,,,,,,
,,,,65af28fb05a6baf848047803,A,2024-07-08_04h21.01.391,Slot Machine Game,2023.1.3,Win32,4.00160064,,,,,,,,,,,,,,,,,,,,,,,,,,,110,,,,,,,,,,,,,,,,,,,,,10,6,,,733.5571,1,left,0.0191,0.0003,1.5,0.3,"[2,3,1]",0.351893863,stimuli/card_10_transparent.png,10,1,0,1,0,1,,,,,,,,,,
,,,,65af28fb05a6baf848047803,A,2024-07-08_04h21.01.391,Slot Machine Game,2023.1.3,Win32,4.00160064,,,,,,,,,,,,,,,,,,,,,,,,,,,120,,,,,,,,,,,,,,,,,,,,,10,6,,,736.3562,2,left,0.0167,,1.5,0.3,"[2,3,1]",0.31687045,stimuli/card_10_transparent.png,10,2,0,2,0,1,,,,,,,,,,
,,,,65af28fb05a6baf848047803,A,2024-07-08_04h21.01.391,Slot Machine Game,2023.1.3,Win32,4.00160064,,,,,,,,,,,,,,,,,,,,,,,,,,,130,,,,,,,,,,,,,,,,,,,,,10,6,,,738.8966,3,left,0.3323,0.0003,1,0.3,"[2,3,1]",0.404007838,stimuli/card_10_transparent.png,10,3,0,3,0,1,,,,,,,,,,
,,,,65af28fb05a6baf848047803,A,2024-07-08_04h21.01.391,Slot Machine Game,2023.1.3,Win32,4.00160064,,,,,,,,,,,,,,,,,,,,,,,,,,,130,,,,,,,,,,,,,,,,,,,,,10,6,,,741.4056,4,up,1.9688,,0.5,0.3,"[1,3,2]",0.386838686,stimuli/card_0_transparent.png,0,4,0,4,0,1,,,,,,,,,,
,,,,65af28fb05a6baf848047803,A,2024-07-08_04h21.01.391,Slot Machine Game,2023.1.3,Win32,4.00160064,,,,,,,,,,,,,,,,,,,,,,,,,,,130,,,,,,,,,,,,,,,,,,,,,10,6,,,744.9301,5,up,0.3255,0.0003,0.5,0.3,"[1,3,2]",0.953559346,stimuli/card_0_transparent.png,0,5,0,5,0,1,,,,,,,,,,
,,,,65af28fb05a6baf848047803,A,2024-07-08_04h21.01.391,Slot Machine Game,2023.1.3,Win32,4.00160064,,,,,,,,,,,,,,,,,,,,,,,,,,,140,,,,,,,,,,,,,,,,,,,,,10,6,,,746.8071,6,right,1.8406,,1,0.3,"[1,3,2]",0.506940945,stimuli/card_10_transparent.png,10,6,0,6,0,1,,,,,,,,,,
,,,,65af28fb05a6baf848047803,A,2024-07-08_04h21.01.391,Slot Machine Game,2023.1.3,Win32,4.00160064,,,,,,,,,,,,,,,,,,,,,,,,,,,150,,,,,,,,,,,,,,,,,,,,,10,6,,,750.8381,7,right,0.0171,0.0002,1.5,0.3,"[1,3,2]",0.595005136,stimuli/card_10_transparent.png,10,7,0,7,0,1,,,,,,,,,,
,,,,65af28fb05a6baf848047803,A,2024-07-08_04h21.01.391,Slot Machine Game,2023.1.3,Win32,4.00160064,,,,,,,,,,,,,,,,,,,,,,,,,,,160,,,,,,,,,,,,,,,,,,,,,10,6,,,753.3542,8,right,0.0173,0.0003,1,0.3,"[1,3,2]",0.733774957,stimuli/card_10_transparent.png,10,8,0,8,0,1,,,,,,,,,,
,,,,65af28fb05a6baf848047803,A,2024-07-08_04h21.01.391,Slot Machine Game,2023.1.3,Win32,4.00160064,,,,,,,,,,,,,,,,,,,,,,,,,,,170,,,,,,,,,,,,,,,,,,,,,10,6,,,755.5588,9,left,2.1886,0.0002,0.5,0.3,"[1,3,2]",0.171145992,stimuli/card_10_transparent.png,10,9,0,9,0,1,,,,,,,,,,
,,,,65af28fb05a6baf848047803,A,2024-07-08_04h21.01.391,Slot Machine Game,2023.1.3,Win32,4.00160064,,,,,,,,,,,,,,,,,,,,,,,,,,,180,,,,,,,,,,,,,,,,,,,,,10,6,,,759.2821,10,up,0.0175,,1,0.3,"[3,2,1]",0.273820267,stimuli/card_10_transparent.png,10,10,0,10,0,1,,,,,,,,,,
,,,,65af28fb05a6baf848047803,A,2024-07-08_04h21.01.391,Slot Machine Game,2023.1.3,Win32,4.00160064,,,,,,,,,,,,,,,,,,,,,,,,,,,280,,,,,,,,,,,,,,,,,,,,,10,6,,,761.4765,11,right,0.3302,,1.5,0.3,"[3,2,1]",0.835957688,stimuli/card_100_transparent.png,100,11,0,11,0,1,,,,,,,,,,
,,,,65af28fb05a6baf848047803,A,2024-07-08_04h21.01.391,Slot Machine Game,2023.1.3,Win32,4.00160064,,,,,,,,,,,,,,,,,,,,,,,,,,,380,,,,,,,,,,,,,,,,,,,,,10,6,,,764.3226,12,right,0.0172,,1,0.3,"[3,2,1]",0.613971803,stimuli/card_100_transparent.png,100,12,0,12,0,1,,,,,,,,,,
,,,,65af28fb05a6baf848047803,A,2024-07-08_04h21.01.391,Slot Machine Game,2023.1.3,Win32,4.00160064,,,,,,,,,,,,,,,,,,,,,,,,,,,480,,,,,,,,,,,,,,,,,,,,,10,6,,,766.4739,13,right,0.0202,,1,0.3,"[3,2,1]",0.808821694,stimuli/card_100_transparent.png,100,13,0,13,0,1,,,,,,,,,,
,,,,65af28fb05a6baf848047803,A,2024-07-08_04h21.01.391,Slot Machine Game,2023.1.3,Win32,4.00160064,,,,,,,,,,,,,,,,,,,,,,,,,,,490,,,,,,,,,,,,,,,,,,,,,10,6,,,768.6591,14,right,0.0183,0.0002,1.5,0.3,"[3,2,1]",0.193515664,stimuli/card_10_transparent.png,10,14,0,14,0,1,,,,,,,,,,
,,,,65af28fb05a6baf848047803,A,2024-07-08_04h21.01.391,Slot Machine Game,2023.1.3,Win32,4.00160064,,,,,,,,,,,,,,,,,,,,,,,,,,,,,,,,,,,771.2363,,,,,,,,,,,,,,,,,,,,,,,,,,,,,,,,,"[920,1210,380,1120,1210,760,640,830,950,490]",9,0,9,0,1,,,,
,,,,65af28fb05a6baf848047803,A,2024-07-08_04h21.01.391,Slot Machine Game,2023.1.3,Win32,4.00160064,,,,,,,,,,,,,,,,,,,,,,,,,,,,,,,,,,,,,,,,,,,,,,,,,,,,,,,,,,,,,,,,,,,,,,,,,,9,"[920,1210,380,1120,1210,760,640,830,950,490]",9.5,2024-07-08_04h34.01.806
