key_resp_welcome_started,key_resp_welcome_keys,key_resp_welcome_rt,key_resp_welcome_duration,prolific_id,path_id,date,expName,psychopyVersion,OS,frameRate,key_resp_instruction1_started,key_resp_instruction1_keys,key_resp_instruction1_rt,key_resp_instruction1_duration,key_resp_instruction2_started,key_resp_instruction2_keys,key_resp_instruction2_rt,key_resp_instruction2_duration,key_resp_instruction3_started,key_resp_instruction3_keys,key_resp_instruction3_rt,key_resp_instruction3_duration,key_resp_instruction4_started,key_resp_instruction4_keys,key_resp_instruction4_rt,key_resp_instruction4_duration,practiceCondition,practice_reward_seqs,practice_trial_started,practice_trial_num,practice_resp_rt,practice_resp_duration,practice_resp_keys,prac_presentationInterval,"practice_reward_seq: 2,1,3",reward_img,cumulative_reward,trial_reward,practice_trials.thisRepN,practice_trials.thisTrialN,practice_trials.thisN,practice_trials.thisIndex,practice_trials.ran,"practice_reward_seq: 2,3,1",block_break_started,"practice_reward_seq: 1,3,2","practice_reward_seq: 3,1,2",practice_end_time,practice_end_keys,practice_end_rt,practice_end_duration,main_instruction_text_started,block_condition,block_order_indices,main_instruction_keys,main_instruction_rt,main_instruction_duration,block_number,block_assignment,current_condition,main_reward_seqs,main_trial_started,main_trial_num,main_trial_keys,main_trial_rt,main_trial_duration,main_presentationInterval,reward_presentation_time,main_reward_seq,reward_rand_val,main_reward_img,current_reward,main_trials.thisRepN,main_trials.thisTrialN,main_trials.thisN,main_trials.thisIndex,main_trials.ran,block_reward,block.thisRepN,block.thisTrialN,block.thisN,block.thisIndex,block.ran,block_reward.length,block_reward_all,reward_amount,date_end_task
0,h,4.105,,65cb7d74800d57cbac802458,B,2024-06-22_10h08.40.602,Slot Machine Game,2023.1.3,Win32,60.0240096,,,,,,,,,,,,,,,,,,,,,,,,,,,,,,,,,,,,,,,,,,,,,,,,,,,,,,,,,,,,,,,,,,,,,,,,,,,,,
,,,,65cb7d74800d57cbac802458,B,2024-06-22_10h08.40.602,Slot Machine Game,2023.1.3,Win32,60.0240096,4.122,g,9.784,,,,,,,,,,,,,,,,,,,,,,,,,,,,,,,,,,,,,,,,,,,,,,,,,,,,,,,,,,,,,,,,,,,,,,,,,,
,,,,65cb7d74800d57cbac802458,B,2024-06-22_10h08.40.602,Slot Machine Game,2023.1.3,Win32,60.0240096,,,,,13.935,l,63.089,,,,,,,,,,,,,,,,,,,,,,,,,,,,,,,,,,,,,,,,,,,,,,,,,,,,,,,,,,,,,,,,,,,,,,
,,,,65cb7d74800d57cbac802458,B,2024-06-22_10h08.40.602,Slot Machine Game,2023.1.3,Win32,60.0240096,,,,,,,,,77.057,k,9.518,,,,,,,,,,,,,,,,,,,,,,,,,,,,,,,,,,,,,,,,,,,,,,,,,,,,,,,,,,,,,,,,,,
,,,,65cb7d74800d57cbac802458,B,2024-06-22_10h08.40.602,Slot Machine Game,2023.1.3,Win32,60.0240096,,,,,,,,,,,,,,,,,,,,,,,,,,,,,,,,,,,,,,,,,,,,,,,,,,,,,,,,,,,,,,,,,,,,,,,,,,,,,
,,,,65cb7d74800d57cbac802458,B,2024-06-22_10h08.40.602,Slot Machine Game,2023.1.3,Win32,60.0240096,,,,,,,,,,,,,228.272,rshift,3.959,,,,,,,,,,,,,,,,,,,,,,,,,,,,,,,,,,,,,,,,,,,,,,,,,,,,,,,,,,,,,,
,,,,65cb7d74800d57cbac802458,B,2024-06-22_10h08.40.602,Slot Machine Game,2023.1.3,Win32,60.0240096,,,,,,,,,,,,,,,,,"[9,15]","[[2,1,3],[2,3,1]]",232.256,0,2.712,,left,0.5,,stimuli/card_10_transparent.png,10,10,0,0,0,0,1,,,,,,,,,,,,,,,,,,,,,,,,,,,,,,,,,,,,,,,,,,,,
,,,,65cb7d74800d57cbac802458,B,2024-06-22_10h08.40.602,Slot Machine Game,2023.1.3,Win32,60.0240096,,,,,,,,,,,,,,,,,,,236.302,1,0.419,,right,1.5,,stimuli/card_100_transparent.png,110,100,1,0,1,0,1,,,,,,,,,,,,,,,,,,,,,,,,,,,,,,,,,,,,,,,,,,,,
,,,,65cb7d74800d57cbac802458,B,2024-06-22_10h08.40.602,Slot Machine Game,2023.1.3,Win32,60.0240096,,,,,,,,,,,,,,,,,,,239.034,2,0.123,,up,1.5,,stimuli/card_10_transparent.png,120,10,2,0,2,0,1,,,,,,,,,,,,,,,,,,,,,,,,,,,,,,,,,,,,,,,,,,,,
,,,,65cb7d74800d57cbac802458,B,2024-06-22_10h08.40.602,Slot Machine Game,2023.1.3,Win32,60.0240096,,,,,,,,,,,,,,,,,,,241.467,3,1.255,,right,1.5,,stimuli/card_0_transparent.png,120,0,3,0,3,0,1,,,,,,,,,,,,,,,,,,,,,,,,,,,,,,,,,,,,,,,,,,,,
,,,,65cb7d74800d57cbac802458,B,2024-06-22_10h08.40.602,Slot Machine Game,2023.1.3,Win32,60.0240096,,,,,,,,,,,,,,,,,,,245.031,4,0.357,,left,1.5,,stimuli/card_10_transparent.png,130,10,4,0,4,0,1,,,,,,,,,,,,,,,,,,,,,,,,,,,,,,,,,,,,,,,,,,,,
,,,,65cb7d74800d57cbac802458,B,2024-06-22_10h08.40.602,Slot Machine Game,2023.1.3,Win32,60.0240096,,,,,,,,,,,,,,,,,,,247.696,5,1.609,,up,1.5,,stimuli/card_100_transparent.png,230,100,5,0,5,0,1,,,,,,,,,,,,,,,,,,,,,,,,,,,,,,,,,,,,,,,,,,,,
,,,,65cb7d74800d57cbac802458,B,2024-06-22_10h08.40.602,Slot Machine Game,2023.1.3,Win32,60.0240096,,,,,,,,,,,,,,,,,,,251.612,6,0.693,,up,1.5,,stimuli/card_100_transparent.png,330,100,6,0,6,0,1,,,,,,,,,,,,,,,,,,,,,,,,,,,,,,,,,,,,,,,,,,,,
,,,,65cb7d74800d57cbac802458,B,2024-06-22_10h08.40.602,Slot Machine Game,2023.1.3,Win32,60.0240096,,,,,,,,,,,,,,,,,,,254.627,7,2.658,,up,1,,stimuli/card_100_transparent.png,430,100,7,0,7,0,1,,,,,,,,,,,,,,,,,,,,,,,,,,,,,,,,,,,,,,,,,,,,
,,,,65cb7d74800d57cbac802458,B,2024-06-22_10h08.40.602,Slot Machine Game,2023.1.3,Win32,60.0240096,,,,,,,,,,,,,,,,,,,259.092,8,0.199,,up,1.5,,stimuli/card_100_transparent.png,530,100,8,0,8,0,1,,,,,,,,,,,,,,,,,,,,,,,,,,,,,,,,,,,,,,,,,,,,
,,,,65cb7d74800d57cbac802458,B,2024-06-22_10h08.40.602,Slot Machine Game,2023.1.3,Win32,60.0240096,,,,,,,,,,,,,,,,,,,261.623,9,2.818,,up,1.5,,stimuli/card_0_transparent.png,530,0,9,0,9,0,1,,,,,,,,,,,,,,,,,,,,,,,,,,,,,,,,,,,,,,,,,,,,
,,,,65cb7d74800d57cbac802458,B,2024-06-22_10h08.40.602,Slot Machine Game,2023.1.3,Win32,60.0240096,,,,,,,,,,,,,,,,,,,266.755,10,0.254,,up,1,,stimuli/card_0_transparent.png,530,0,10,0,10,0,1,,,,,,,,,,,,,,,,,,,,,,,,,,,,,,,,,,,,,,,,,,,,
,,,,65cb7d74800d57cbac802458,B,2024-06-22_10h08.40.602,Slot Machine Game,2023.1.3,Win32,60.0240096,,,,,,,,,,,,,,,,,,,268.837,11,1.158,,up,1.5,,stimuli/card_0_transparent.png,530,0,11,0,11,0,1,,,,,,,,,,,,,,,,,,,,,,,,,,,,,,,,,,,,,,,,,,,,
,,,,65cb7d74800d57cbac802458,B,2024-06-22_10h08.40.602,Slot Machine Game,2023.1.3,Win32,60.0240096,,,,,,,,,,,,,,,,,,,272.319,12,1.503,,right,1,,stimuli/card_10_transparent.png,540,10,12,0,12,0,1,,,,,,,,,,,,,,,,,,,,,,,,,,,,,,,,,,,,,,,,,,,,
,,,,65cb7d74800d57cbac802458,B,2024-06-22_10h08.40.602,Slot Machine Game,2023.1.3,Win32,60.0240096,,,,,,,,,,,,,,,,,,,275.651,13,2.733,,right,1,,stimuli/card_0_transparent.png,540,0,13,0,13,0,1,,,,,,,,,,,,,,,,,,,,,,,,,,,,,,,,,,,,,,,,,,,,
,,,,65cb7d74800d57cbac802458,B,2024-06-22_10h08.40.602,Slot Machine Game,2023.1.3,Win32,60.0240096,,,,,,,,,,,,,,,,,,,280.199,14,0.811,,left,1,,stimuli/card_10_transparent.png,550,10,14,0,14,0,1,,,,,,,,,,,,,,,,,,,,,,,,,,,,,,,,,,,,,,,,,,,,
,,,,65cb7d74800d57cbac802458,B,2024-06-22_10h08.40.602,Slot Machine Game,2023.1.3,Win32,60.0240096,,,,,,,,,,,,,,,,,"[6,15]","[[1,3,2],[3,1,2]]",287.847,0,1.09,,up,0.5,,stimuli/card_100_transparent.png,100,100,0,0,0,0,1,,282.847,,,,,,,,,,,,,,,,,,,,,,,,,,,,,,,,,,,,,,,,,,
,,,,65cb7d74800d57cbac802458,B,2024-06-22_10h08.40.602,Slot Machine Game,2023.1.3,Win32,60.0240096,,,,,,,,,,,,,,,,,,,290.244,1,0.292,,up,0.5,,stimuli/card_0_transparent.png,100,0,1,0,1,0,1,,,,,,,,,,,,,,,,,,,,,,,,,,,,,,,,,,,,,,,,,,,,
,,,,65cb7d74800d57cbac802458,B,2024-06-22_10h08.40.602,Slot Machine Game,2023.1.3,Win32,60.0240096,,,,,,,,,,,,,,,,,,,291.844,2,0.016,,right,1.5,,stimuli/card_10_transparent.png,110,10,2,0,2,0,1,,,,,,,,,,,,,,,,,,,,,,,,,,,,,,,,,,,,,,,,,,,,
,,,,65cb7d74800d57cbac802458,B,2024-06-22_10h08.40.602,Slot Machine Game,2023.1.3,Win32,60.0240096,,,,,,,,,,,,,,,,,,,294.193,3,0.076,,left,0.5,,stimuli/card_0_transparent.png,110,0,3,0,3,0,1,,,,,,,,,,,,,,,,,,,,,,,,,,,,,,,,,,,,,,,,,,,,
,,,,65cb7d74800d57cbac802458,B,2024-06-22_10h08.40.602,Slot Machine Game,2023.1.3,Win32,60.0240096,,,,,,,,,,,,,,,,,,,295.576,4,1.05,,right,1,,stimuli/card_10_transparent.png,120,10,4,0,4,0,1,,,,,,,,,,,,,,,,,,,,,,,,,,,,,,,,,,,,,,,,,,,,
,,,,65cb7d74800d57cbac802458,B,2024-06-22_10h08.40.602,Slot Machine Game,2023.1.3,Win32,60.0240096,,,,,,,,,,,,,,,,,,,298.457,5,0,,left,1.5,,stimuli/card_100_transparent.png,220,100,5,0,5,0,1,,,,,,,,,,,,,,,,,,,,,,,,,,,,,,,,,,,,,,,,,,,,
,,,,65cb7d74800d57cbac802458,B,2024-06-22_10h08.40.602,Slot Machine Game,2023.1.3,Win32,60.0240096,,,,,,,,,,,,,,,,,,,300.79,6,0.284,,up,0.5,,stimuli/card_100_transparent.png,320,100,6,0,6,0,1,,,,,,,,,,,,,,,,,,,,,,,,,,,,,,,,,,,,,,,,,,,,
,,,,65cb7d74800d57cbac802458,B,2024-06-22_10h08.40.602,Slot Machine Game,2023.1.3,Win32,60.0240096,,,,,,,,,,,,,,,,,,,302.388,7,0.507,,up,0.5,,stimuli/card_100_transparent.png,420,100,7,0,7,0,1,,,,,,,,,,,,,,,,,,,,,,,,,,,,,,,,,,,,,,,,,,,,
,,,,65cb7d74800d57cbac802458,B,2024-06-22_10h08.40.602,Slot Machine Game,2023.1.3,Win32,60.0240096,,,,,,,,,,,,,,,,,,,304.205,8,0.24,,up,1,,stimuli/card_0_transparent.png,420,0,8,0,8,0,1,,,,,,,,,,,,,,,,,,,,,,,,,,,,,,,,,,,,,,,,,,,,
,,,,65cb7d74800d57cbac802458,B,2024-06-22_10h08.40.602,Slot Machine Game,2023.1.3,Win32,60.0240096,,,,,,,,,,,,,,,,,,,306.27,9,1.007,,right,0.5,,stimuli/card_100_transparent.png,520,100,9,0,9,0,1,,,,,,,,,,,,,,,,,,,,,,,,,,,,,,,,,,,,,,,,,,,,
,,,,65cb7d74800d57cbac802458,B,2024-06-22_10h08.40.602,Slot Machine Game,2023.1.3,Win32,60.0240096,,,,,,,,,,,,,,,,,,,308.586,10,0.158,,right,1,,stimuli/card_10_transparent.png,530,10,10,0,10,0,1,,,,,,,,,,,,,,,,,,,,,,,,,,,,,,,,,,,,,,,,,,,,
,,,,65cb7d74800d57cbac802458,B,2024-06-22_10h08.40.602,Slot Machine Game,2023.1.3,Win32,60.0240096,,,,,,,,,,,,,,,,,,,310.568,11,0.354,,left,1.5,,stimuli/card_0_transparent.png,530,0,11,0,11,0,1,,,,,,,,,,,,,,,,,,,,,,,,,,,,,,,,,,,,,,,,,,,,
,,,,65cb7d74800d57cbac802458,B,2024-06-22_10h08.40.602,Slot Machine Game,2023.1.3,Win32,60.0240096,,,,,,,,,,,,,,,,,,,313.234,12,1.358,,right,1.5,,stimuli/card_10_transparent.png,540,10,12,0,12,0,1,,,,,,,,,,,,,,,,,,,,,,,,,,,,,,,,,,,,,,,,,,,,
,,,,65cb7d74800d57cbac802458,B,2024-06-22_10h08.40.602,Slot Machine Game,2023.1.3,Win32,60.0240096,,,,,,,,,,,,,,,,,,,316.899,13,0.818,,up,0.5,,stimuli/card_100_transparent.png,640,100,13,0,13,0,1,,,,,,,,,,,,,,,,,,,,,,,,,,,,,,,,,,,,,,,,,,,,
,,,,65cb7d74800d57cbac802458,B,2024-06-22_10h08.40.602,Slot Machine Game,2023.1.3,Win32,60.0240096,,,,,,,,,,,,,,,,,,,319.032,14,0.069,,up,1.5,,stimuli/card_100_transparent.png,740,100,14,0,14,0,1,,,,,,,,,,,,,,,,,,,,,,,,,,,,,,,,,,,,,,,,,,,,
,,,,65cb7d74800d57cbac802458,B,2024-06-22_10h08.40.602,Slot Machine Game,2023.1.3,Win32,60.0240096,,,,,,,,,,,,,,,,,,,,,,,,,,,,,,,,,,,321.431,,,326.428,space,23.402,,,,,,,,,,,,,,,,,,,,,,,,,,,,,,,,,,,,,
,,,,65cb7d74800d57cbac802458,B,2024-06-22_10h08.40.602,Slot Machine Game,2023.1.3,Win32,60.0240096,,,,,,,,,,,,,,,,,,,,,,,,,,,,,,,,,,,,,,,,,,349.851,3,"[0,4,6,3,5,7,8,1,9,2]",space,8.903,,,,,,,,,,,,,,,,,,,,,,,,,,,,,,,
,,,,65cb7d74800d57cbac802458,B,2024-06-22_10h08.40.602,Slot Machine Game,2023.1.3,Win32,60.0240096,,,,,,,,,,,,,,,,,,,,,,,,,,,10,,,,,,,,,,,,,,,,,,,,,1,1,"[12,15]","[[2,1,3],[2,3,1]]",358.782,0,up,1.088,,1,0.3,"[2,1,3]",0.137546482,stimuli/card_10_transparent.png,10,0,0,0,0,1,,,,,,,,,,
,,,,65cb7d74800d57cbac802458,B,2024-06-22_10h08.40.602,Slot Machine Game,2023.1.3,Win32,60.0240096,,,,,,,,,,,,,,,,,,,,,,,,,,,10,,,,,,,,,,,,,,,,,,,,,1,1,,,361.696,1,right,0.018,,1,0.3,"[2,1,3]",0.218062711,stimuli/card_0_transparent.png,0,1,0,1,0,1,,,,,,,,,,
,,,,65cb7d74800d57cbac802458,B,2024-06-22_10h08.40.602,Slot Machine Game,2023.1.3,Win32,60.0240096,,,,,,,,,,,,,,,,,,,,,,,,,,,20,,,,,,,,,,,,,,,,,,,,,1,1,,,363.528,2,left,0.853,,0.5,0.3,"[2,1,3]",0.308568193,stimuli/card_10_transparent.png,10,2,0,2,0,1,,,,,,,,,,
,,,,65cb7d74800d57cbac802458,B,2024-06-22_10h08.40.602,Slot Machine Game,2023.1.3,Win32,60.0240096,,,,,,,,,,,,,,,,,,,,,,,,,,,30,,,,,,,,,,,,,,,,,,,,,1,1,,,365.711,3,up,0.374,,0.5,0.3,"[2,1,3]",0.148096443,stimuli/card_10_transparent.png,10,3,0,3,0,1,,,,,,,,,,
,,,,65cb7d74800d57cbac802458,B,2024-06-22_10h08.40.602,Slot Machine Game,2023.1.3,Win32,60.0240096,,,,,,,,,,,,,,,,,,,,,,,,,,,30,,,,,,,,,,,,,,,,,,,,,1,1,,,367.41,4,right,1.446,,1,0.3,"[2,1,3]",0.241785071,stimuli/card_0_transparent.png,0,4,0,4,0,1,,,,,,,,,,
,,,,65cb7d74800d57cbac802458,B,2024-06-22_10h08.40.602,Slot Machine Game,2023.1.3,Win32,60.0240096,,,,,,,,,,,,,,,,,,,,,,,,,,,40,,,,,,,,,,,,,,,,,,,,,1,1,,,370.675,5,left,0.11,,0.5,0.3,"[2,1,3]",0.687105961,stimuli/card_10_transparent.png,10,5,0,5,0,1,,,,,,,,,,
,,,,65cb7d74800d57cbac802458,B,2024-06-22_10h08.40.602,Slot Machine Game,2023.1.3,Win32,60.0240096,,,,,,,,,,,,,,,,,,,,,,,,,,,40,,,,,,,,,,,,,,,,,,,,,1,1,,,372.108,6,right,1.82,,1,0.3,"[2,1,3]",0.422335365,stimuli/card_0_transparent.png,0,6,0,6,0,1,,,,,,,,,,
,,,,65cb7d74800d57cbac802458,B,2024-06-22_10h08.40.602,Slot Machine Game,2023.1.3,Win32,60.0240096,,,,,,,,,,,,,,,,,,,,,,,,,,,40,,,,,,,,,,,,,,,,,,,,,1,1,,,375.756,7,right,1.56,,0.5,0.3,"[2,1,3]",0.46421495,stimuli/card_0_transparent.png,0,7,0,7,0,1,,,,,,,,,,
,,,,65cb7d74800d57cbac802458,B,2024-06-22_10h08.40.602,Slot Machine Game,2023.1.3,Win32,60.0240096,,,,,,,,,,,,,,,,,,,,,,,,,,,40,,,,,,,,,,,,,,,,,,,,,1,1,,,378.638,8,up,1.13,,0.5,0.3,"[2,1,3]",0.070971936,stimuli/card_0_transparent.png,0,8,0,8,0,1,,,,,,,,,,
,,,,65cb7d74800d57cbac802458,B,2024-06-22_10h08.40.602,Slot Machine Game,2023.1.3,Win32,60.0240096,,,,,,,,,,,,,,,,,,,,,,,,,,,140,,,,,,,,,,,,,,,,,,,,,1,1,,,381.087,9,up,0.05,,1.5,0.3,"[2,1,3]",0.356048731,stimuli/card_100_transparent.png,100,9,0,9,0,1,,,,,,,,,,
,,,,65cb7d74800d57cbac802458,B,2024-06-22_10h08.40.602,Slot Machine Game,2023.1.3,Win32,60.0240096,,,,,,,,,,,,,,,,,,,,,,,,,,,240,,,,,,,,,,,,,,,,,,,,,1,1,,,383.469,10,up,0.233,,1,0.3,"[2,1,3]",0.877481393,stimuli/card_100_transparent.png,100,10,0,10,0,1,,,,,,,,,,
,,,,65cb7d74800d57cbac802458,B,2024-06-22_10h08.40.602,Slot Machine Game,2023.1.3,Win32,60.0240096,,,,,,,,,,,,,,,,,,,,,,,,,,,340,,,,,,,,,,,,,,,,,,,,,1,1,,,385.518,11,up,2.052,,1.5,0.3,"[2,1,3]",0.390671108,stimuli/card_100_transparent.png,100,11,0,11,0,1,,,,,,,,,,
,,,,65cb7d74800d57cbac802458,B,2024-06-22_10h08.40.602,Slot Machine Game,2023.1.3,Win32,60.0240096,,,,,,,,,,,,,,,,,,,,,,,,,,,340,,,,,,,,,,,,,,,,,,,,,1,1,,,389.884,12,up,2.752,,1,0.3,"[2,3,1]",0.261682937,stimuli/card_0_transparent.png,0,12,0,12,0,1,,,,,,,,,,
,,,,65cb7d74800d57cbac802458,B,2024-06-22_10h08.40.602,Slot Machine Game,2023.1.3,Win32,60.0240096,,,,,,,,,,,,,,,,,,,,,,,,,,,350,,,,,,,,,,,,,,,,,,,,,1,1,,,394.464,13,left,0.068,,0.5,0.3,"[2,3,1]",0.61511066,stimuli/card_10_transparent.png,10,13,0,13,0,1,,,,,,,,,,
,,,,65cb7d74800d57cbac802458,B,2024-06-22_10h08.40.602,Slot Machine Game,2023.1.3,Win32,60.0240096,,,,,,,,,,,,,,,,,,,,,,,,,,,350,,,,,,,,,,,,,,,,,,,,,1,1,,,395.847,14,up,0.229,,1,0.3,"[2,3,1]",0.653727847,stimuli/card_0_transparent.png,0,14,0,14,0,1,,,,,,,,,,
,,,,65cb7d74800d57cbac802458,B,2024-06-22_10h08.40.602,Slot Machine Game,2023.1.3,Win32,60.0240096,,,,,,,,,,,,,,,,,,,,,,,,,,,,,,,,,,,397.896,,,,,,,,,,,,,,,,,,,,,,,,,,,,,,,,,[350],0,0,0,0,1,,,,
,,,,65cb7d74800d57cbac802458,B,2024-06-22_10h08.40.602,Slot Machine Game,2023.1.3,Win32,60.0240096,,,,,,,,,,,,,,,,,,,,,,,,,,,10,,,,,,,,,,,,,,,,,,,,,2,5,"[5,15]","[[1,2,3],[3,1,2]]",402.895,0,up,1.831,,1,0.3,"[1,2,3]",0.84859934,stimuli/card_10_transparent.png,10,0,0,0,0,1,,,,,,,,,,
,,,,65cb7d74800d57cbac802458,B,2024-06-22_10h08.40.602,Slot Machine Game,2023.1.3,Win32,60.0240096,,,,,,,,,,,,,,,,,,,,,,,,,,,110,,,,,,,,,,,,,,,,,,,,,2,5,,,406.559,1,left,0.947,,1.5,0.3,"[1,2,3]",0.886740643,stimuli/card_100_transparent.png,100,1,0,1,0,1,,,,,,,,,,
,,,,65cb7d74800d57cbac802458,B,2024-06-22_10h08.40.602,Slot Machine Game,2023.1.3,Win32,60.0240096,,,,,,,,,,,,,,,,,,,,,,,,,,,210,,,,,,,,,,,,,,,,,,,,,2,5,,,409.824,2,left,0.016,,1.5,0.3,"[1,2,3]",0.645850064,stimuli/card_100_transparent.png,100,2,0,2,0,1,,,,,,,,,,
,,,,65cb7d74800d57cbac802458,B,2024-06-22_10h08.40.602,Slot Machine Game,2023.1.3,Win32,60.0240096,,,,,,,,,,,,,,,,,,,,,,,,,,,310,,,,,,,,,,,,,,,,,,,,,2,5,,,412.173,3,left,0.152,,1,0.3,"[1,2,3]",0.882829019,stimuli/card_100_transparent.png,100,3,0,3,0,1,,,,,,,,,,
,,,,65cb7d74800d57cbac802458,B,2024-06-22_10h08.40.602,Slot Machine Game,2023.1.3,Win32,60.0240096,,,,,,,,,,,,,,,,,,,,,,,,,,,410,,,,,,,,,,,,,,,,,,,,,2,5,,,414.155,4,left,0.083,,1,0.3,"[1,2,3]",0.332280227,stimuli/card_100_transparent.png,100,4,0,4,0,1,,,,,,,,,,
,,,,65cb7d74800d57cbac802458,B,2024-06-22_10h08.40.602,Slot Machine Game,2023.1.3,Win32,60.0240096,,,,,,,,,,,,,,,,,,,,,,,,,,,410,,,,,,,,,,,,,,,,,,,,,2,5,,,416.054,5,left,0.238,,1.5,0.3,"[3,1,2]",0.815747093,stimuli/card_0_transparent.png,0,5,0,5,0,1,,,,,,,,,,
,,,,65cb7d74800d57cbac802458,B,2024-06-22_10h08.40.602,Slot Machine Game,2023.1.3,Win32,60.0240096,,,,,,,,,,,,,,,,,,,,,,,,,,,410,,,,,,,,,,,,,,,,,,,,,2,5,,,418.603,6,left,0.189,,1,0.3,"[3,1,2]",0.27703754,stimuli/card_0_transparent.png,0,6,0,6,0,1,,,,,,,,,,
,,,,65cb7d74800d57cbac802458,B,2024-06-22_10h08.40.602,Slot Machine Game,2023.1.3,Win32,60.0240096,,,,,,,,,,,,,,,,,,,,,,,,,,,410,,,,,,,,,,,,,,,,,,,,,2,5,,,420.603,7,right,0.293,,0.5,0.3,"[3,1,2]",0.049312733,stimuli/card_0_transparent.png,0,7,0,7,0,1,,,,,,,,,,
,,,,65cb7d74800d57cbac802458,B,2024-06-22_10h08.40.602,Slot Machine Game,2023.1.3,Win32,60.0240096,,,,,,,,,,,,,,,,,,,,,,,,,,,510,,,,,,,,,,,,,,,,,,,,,2,5,,,422.218,8,right,0.034,,1.5,0.3,"[3,1,2]",0.165384741,stimuli/card_100_transparent.png,100,8,0,8,0,1,,,,,,,,,,
,,,,65cb7d74800d57cbac802458,B,2024-06-22_10h08.40.602,Slot Machine Game,2023.1.3,Win32,60.0240096,,,,,,,,,,,,,,,,,,,,,,,,,,,520,,,,,,,,,,,,,,,,,,,,,2,5,,,424.568,9,right,0.24,,1,0.3,"[3,1,2]",0.731971523,stimuli/card_10_transparent.png,10,9,0,9,0,1,,,,,,,,,,
,,,,65cb7d74800d57cbac802458,B,2024-06-22_10h08.40.602,Slot Machine Game,2023.1.3,Win32,60.0240096,,,,,,,,,,,,,,,,,,,,,,,,,,,620,,,,,,,,,,,,,,,,,,,,,2,5,,,426.634,10,up,0.367,,1,0.3,"[3,1,2]",0.716804209,stimuli/card_100_transparent.png,100,10,0,10,0,1,,,,,,,,,,
,,,,65cb7d74800d57cbac802458,B,2024-06-22_10h08.40.602,Slot Machine Game,2023.1.3,Win32,60.0240096,,,,,,,,,,,,,,,,,,,,,,,,,,,720,,,,,,,,,,,,,,,,,,,,,2,5,,,428.833,11,up,0.055,,1,0.3,"[3,1,2]",0.330814589,stimuli/card_100_transparent.png,100,11,0,11,0,1,,,,,,,,,,
,,,,65cb7d74800d57cbac802458,B,2024-06-22_10h08.40.602,Slot Machine Game,2023.1.3,Win32,60.0240096,,,,,,,,,,,,,,,,,,,,,,,,,,,820,,,,,,,,,,,,,,,,,,,,,2,5,,,430.716,12,up,1.479,,1.5,0.3,"[3,1,2]",0.437646346,stimuli/card_100_transparent.png,100,12,0,12,0,1,,,,,,,,,,
,,,,65cb7d74800d57cbac802458,B,2024-06-22_10h08.40.602,Slot Machine Game,2023.1.3,Win32,60.0240096,,,,,,,,,,,,,,,,,,,,,,,,,,,920,,,,,,,,,,,,,,,,,,,,,2,5,,,434.529,13,up,0.333,,1,0.3,"[3,1,2]",0.718128824,stimuli/card_100_transparent.png,100,13,0,13,0,1,,,,,,,,,,
,,,,65cb7d74800d57cbac802458,B,2024-06-22_10h08.40.602,Slot Machine Game,2023.1.3,Win32,60.0240096,,,,,,,,,,,,,,,,,,,,,,,,,,,920,,,,,,,,,,,,,,,,,,,,,2,5,,,436.679,14,up,1.858,,1.5,0.3,"[3,1,2]",0.093113136,stimuli/card_0_transparent.png,0,14,0,14,0,1,,,,,,,,,,
,,,,65cb7d74800d57cbac802458,B,2024-06-22_10h08.40.602,Slot Machine Game,2023.1.3,Win32,60.0240096,,,,,,,,,,,,,,,,,,,,,,,,,,,,,,,,,,,440.843,,,,,,,,,,,,,,,,,,,,,,,,,,,,,,,,,"[350,920]",1,0,1,0,1,,,,
,,,,65cb7d74800d57cbac802458,B,2024-06-22_10h08.40.602,Slot Machine Game,2023.1.3,Win32,60.0240096,,,,,,,,,,,,,,,,,,,,,,,,,,,10,,,,,,,,,,,,,,,,,,,,,3,7,"[9,15]","[[1,3,2],[2,3,1]]",445.843,0,up,1.737,,1,0.3,"[1,3,2]",0.157272649,stimuli/card_10_transparent.png,10,0,0,0,0,1,,,,,,,,,,
,,,,65cb7d74800d57cbac802458,B,2024-06-22_10h08.40.602,Slot Machine Game,2023.1.3,Win32,60.0240096,,,,,,,,,,,,,,,,,,,,,,,,,,,10,,,,,,,,,,,,,,,,,,,,,3,7,,,449.406,1,up,2.074,,0.5,0.3,"[1,3,2]",0.23221866,stimuli/card_0_transparent.png,0,1,0,1,0,1,,,,,,,,,,
,,,,65cb7d74800d57cbac802458,B,2024-06-22_10h08.40.602,Slot Machine Game,2023.1.3,Win32,60.0240096,,,,,,,,,,,,,,,,,,,,,,,,,,,110,,,,,,,,,,,,,,,,,,,,,3,7,,,452.788,2,left,0.66,,1,0.3,"[1,3,2]",0.570833157,stimuli/card_100_transparent.png,100,2,0,2,0,1,,,,,,,,,,
,,,,65cb7d74800d57cbac802458,B,2024-06-22_10h08.40.602,Slot Machine Game,2023.1.3,Win32,60.0240096,,,,,,,,,,,,,,,,,,,,,,,,,,,210,,,,,,,,,,,,,,,,,,,,,3,7,,,455.271,3,left,1.199,,1,0.3,"[1,3,2]",0.230356068,stimuli/card_100_transparent.png,100,3,0,3,0,1,,,,,,,,,,
,,,,65cb7d74800d57cbac802458,B,2024-06-22_10h08.40.602,Slot Machine Game,2023.1.3,Win32,60.0240096,,,,,,,,,,,,,,,,,,,,,,,,,,,310,,,,,,,,,,,,,,,,,,,,,3,7,,,458.303,4,left,1.655,,1.5,0.3,"[1,3,2]",0.235749423,stimuli/card_100_transparent.png,100,4,0,4,0,1,,,,,,,,,,
,,,,65cb7d74800d57cbac802458,B,2024-06-22_10h08.40.602,Slot Machine Game,2023.1.3,Win32,60.0240096,,,,,,,,,,,,,,,,,,,,,,,,,,,310,,,,,,,,,,,,,,,,,,,,,3,7,,,462.285,5,left,3.255,,1.5,0.3,"[1,3,2]",0.001139479,stimuli/card_0_transparent.png,0,5,0,5,0,1,,,,,,,,,,
,,,,65cb7d74800d57cbac802458,B,2024-06-22_10h08.40.602,Slot Machine Game,2023.1.3,Win32,60.0240096,,,,,,,,,,,,,,,,,,,,,,,,,,,320,,,,,,,,,,,,,,,,,,,,,3,7,,,467.865,6,right,0.207,,1,0.3,"[1,3,2]",0.800911117,stimuli/card_10_transparent.png,10,6,0,6,0,1,,,,,,,,,,
,,,,65cb7d74800d57cbac802458,B,2024-06-22_10h08.40.602,Slot Machine Game,2023.1.3,Win32,60.0240096,,,,,,,,,,,,,,,,,,,,,,,,,,,330,,,,,,,,,,,,,,,,,,,,,3,7,,,469.897,7,right,1.491,,0.5,0.3,"[1,3,2]",0.695220528,stimuli/card_10_transparent.png,10,7,0,7,0,1,,,,,,,,,,
,,,,65cb7d74800d57cbac802458,B,2024-06-22_10h08.40.602,Slot Machine Game,2023.1.3,Win32,60.0240096,,,,,,,,,,,,,,,,,,,,,,,,,,,340,,,,,,,,,,,,,,,,,,,,,3,7,,,472.696,8,right,2.136,,1.5,0.3,"[1,3,2]",0.538093859,stimuli/card_10_transparent.png,10,8,0,8,0,1,,,,,,,,,,
,,,,65cb7d74800d57cbac802458,B,2024-06-22_10h08.40.602,Slot Machine Game,2023.1.3,Win32,60.0240096,,,,,,,,,,,,,,,,,,,,,,,,,,,440,,,,,,,,,,,,,,,,,,,,,3,7,,,477.143,9,up,0.405,,0.5,0.3,"[2,3,1]",0.005209808,stimuli/card_100_transparent.png,100,9,0,9,0,1,,,,,,,,,,
,,,,65cb7d74800d57cbac802458,B,2024-06-22_10h08.40.602,Slot Machine Game,2023.1.3,Win32,60.0240096,,,,,,,,,,,,,,,,,,,,,,,,,,,440,,,,,,,,,,,,,,,,,,,,,3,7,,,478.86,10,up,0.081,,1.5,0.3,"[2,3,1]",0.867833914,stimuli/card_0_transparent.png,0,10,0,10,0,1,,,,,,,,,,
,,,,65cb7d74800d57cbac802458,B,2024-06-22_10h08.40.602,Slot Machine Game,2023.1.3,Win32,60.0240096,,,,,,,,,,,,,,,,,,,,,,,,,,,450,,,,,,,,,,,,,,,,,,,,,3,7,,,481.259,11,left,1.869,,1,0.3,"[2,3,1]",0.961589011,stimuli/card_10_transparent.png,10,11,0,11,0,1,,,,,,,,,,
,,,,65cb7d74800d57cbac802458,B,2024-06-22_10h08.40.602,Slot Machine Game,2023.1.3,Win32,60.0240096,,,,,,,,,,,,,,,,,,,,,,,,,,,460,,,,,,,,,,,,,,,,,,,,,3,7,,,484.957,12,right,0.756,,0.5,0.3,"[2,3,1]",0.125036863,stimuli/card_10_transparent.png,10,12,0,12,0,1,,,,,,,,,,
,,,,65cb7d74800d57cbac802458,B,2024-06-22_10h08.40.602,Slot Machine Game,2023.1.3,Win32,60.0240096,,,,,,,,,,,,,,,,,,,,,,,,,,,560,,,,,,,,,,,,,,,,,,,,,3,7,,,487.023,13,right,0.194,,0.5,0.3,"[2,3,1]",0.350199839,stimuli/card_100_transparent.png,100,13,0,13,0,1,,,,,,,,,,
,,,,65cb7d74800d57cbac802458,B,2024-06-22_10h08.40.602,Slot Machine Game,2023.1.3,Win32,60.0240096,,,,,,,,,,,,,,,,,,,,,,,,,,,660,,,,,,,,,,,,,,,,,,,,,3,7,,,488.539,14,right,0.307,,1.5,0.3,"[2,3,1]",0.605491877,stimuli/card_100_transparent.png,100,14,0,14,0,1,,,,,,,,,,
,,,,65cb7d74800d57cbac802458,B,2024-06-22_10h08.40.602,Slot Machine Game,2023.1.3,Win32,60.0240096,,,,,,,,,,,,,,,,,,,,,,,,,,,,,,,,,,,491.154,,,,,,,,,,,,,,,,,,,,,,,,,,,,,,,,,"[350,920,660]",2,0,2,0,1,,,,
,,,,65cb7d74800d57cbac802458,B,2024-06-22_10h08.40.602,Slot Machine Game,2023.1.3,Win32,60.0240096,,,,,,,,,,,,,,,,,,,,,,,,,,,0,,,,,,,,,,,,,,,,,,,,,4,4,"[7,15]","[[2,3,1],[1,2,3]]",496.154,0,up,0.728,,1,0.3,"[2,3,1]",0.752806287,stimuli/card_0_transparent.png,0,0,0,0,0,1,,,,,,,,,,
,,,,65cb7d74800d57cbac802458,B,2024-06-22_10h08.40.602,Slot Machine Game,2023.1.3,Win32,60.0240096,,,,,,,,,,,,,,,,,,,,,,,,,,,0,,,,,,,,,,,,,,,,,,,,,4,4,,,498.701,1,up,1.908,,1,0.3,"[2,3,1]",0.777595654,stimuli/card_0_transparent.png,0,1,0,1,0,1,,,,,,,,,,
,,,,65cb7d74800d57cbac802458,B,2024-06-22_10h08.40.602,Slot Machine Game,2023.1.3,Win32,60.0240096,,,,,,,,,,,,,,,,,,,,,,,,,,,100,,,,,,,,,,,,,,,,,,,,,4,4,,,502.417,2,left,0.484,,1.5,0.3,"[2,3,1]",0.194560103,stimuli/card_100_transparent.png,100,2,0,2,0,1,,,,,,,,,,
,,,,65cb7d74800d57cbac802458,B,2024-06-22_10h08.40.602,Slot Machine Game,2023.1.3,Win32,60.0240096,,,,,,,,,,,,,,,,,,,,,,,,,,,110,,,,,,,,,,,,,,,,,,,,,4,4,,,505.231,3,left,2.015,,1,0.3,"[2,3,1]",0.892912257,stimuli/card_10_transparent.png,10,3,0,3,0,1,,,,,,,,,,
,,,,65cb7d74800d57cbac802458,B,2024-06-22_10h08.40.602,Slot Machine Game,2023.1.3,Win32,60.0240096,,,,,,,,,,,,,,,,,,,,,,,,,,,120,,,,,,,,,,,,,,,,,,,,,4,4,,,509.063,4,left,1.62,,1.5,0.3,"[2,3,1]",0.870431295,stimuli/card_10_transparent.png,10,4,0,4,0,1,,,,,,,,,,
,,,,65cb7d74800d57cbac802458,B,2024-06-22_10h08.40.602,Slot Machine Game,2023.1.3,Win32,60.0240096,,,,,,,,,,,,,,,,,,,,,,,,,,,130,,,,,,,,,,,,,,,,,,,,,4,4,,,513.011,5,right,0.373,,1.5,0.3,"[2,3,1]",0.181062827,stimuli/card_10_transparent.png,10,5,0,5,0,1,,,,,,,,,,
,,,,65cb7d74800d57cbac802458,B,2024-06-22_10h08.40.602,Slot Machine Game,2023.1.3,Win32,60.0240096,,,,,,,,,,,,,,,,,,,,,,,,,,,230,,,,,,,,,,,,,,,,,,,,,4,4,,,515.693,6,right,2.712,,1.5,0.3,"[2,3,1]",0.332216823,stimuli/card_100_transparent.png,100,6,0,6,0,1,,,,,,,,,,
,,,,65cb7d74800d57cbac802458,B,2024-06-22_10h08.40.602,Slot Machine Game,2023.1.3,Win32,60.0240096,,,,,,,,,,,,,,,,,,,,,,,,,,,230,,,,,,,,,,,,,,,,,,,,,4,4,,,520.725,7,right,0.001,,1,0.3,"[1,2,3]",0.208019376,stimuli/card_0_transparent.png,0,7,0,7,0,1,,,,,,,,,,
,,,,65cb7d74800d57cbac802458,B,2024-06-22_10h08.40.602,Slot Machine Game,2023.1.3,Win32,60.0240096,,,,,,,,,,,,,,,,,,,,,,,,,,,330,,,,,,,,,,,,,,,,,,,,,4,4,,,522.556,8,left,0.355,,0.5,0.3,"[1,2,3]",0.781020178,stimuli/card_100_transparent.png,100,8,0,8,0,1,,,,,,,,,,
,,,,65cb7d74800d57cbac802458,B,2024-06-22_10h08.40.602,Slot Machine Game,2023.1.3,Win32,60.0240096,,,,,,,,,,,,,,,,,,,,,,,,,,,430,,,,,,,,,,,,,,,,,,,,,4,4,,,524.222,9,left,0.364,,0.5,0.3,"[1,2,3]",0.950969462,stimuli/card_100_transparent.png,100,9,0,9,0,1,,,,,,,,,,
,,,,65cb7d74800d57cbac802458,B,2024-06-22_10h08.40.602,Slot Machine Game,2023.1.3,Win32,60.0240096,,,,,,,,,,,,,,,,,,,,,,,,,,,530,,,,,,,,,,,,,,,,,,,,,4,4,,,525.905,10,left,0.122,,1,0.3,"[1,2,3]",0.387942235,stimuli/card_100_transparent.png,100,10,0,10,0,1,,,,,,,,,,
,,,,65cb7d74800d57cbac802458,B,2024-06-22_10h08.40.602,Slot Machine Game,2023.1.3,Win32,60.0240096,,,,,,,,,,,,,,,,,,,,,,,,,,,630,,,,,,,,,,,,,,,,,,,,,4,4,,,527.838,11,left,1.921,,1,0.3,"[1,2,3]",0.443021032,stimuli/card_100_transparent.png,100,11,0,11,0,1,,,,,,,,,,
,,,,65cb7d74800d57cbac802458,B,2024-06-22_10h08.40.602,Slot Machine Game,2023.1.3,Win32,60.0240096,,,,,,,,,,,,,,,,,,,,,,,,,,,730,,,,,,,,,,,,,,,,,,,,,4,4,,,531.587,12,left,1.777,,0.5,0.3,"[1,2,3]",0.849809106,stimuli/card_100_transparent.png,100,12,0,12,0,1,,,,,,,,,,
,,,,65cb7d74800d57cbac802458,B,2024-06-22_10h08.40.602,Slot Machine Game,2023.1.3,Win32,60.0240096,,,,,,,,,,,,,,,,,,,,,,,,,,,830,,,,,,,,,,,,,,,,,,,,,4,4,,,534.668,13,left,2.228,,1.5,0.3,"[1,2,3]",0.562548527,stimuli/card_100_transparent.png,100,13,0,13,0,1,,,,,,,,,,
,,,,65cb7d74800d57cbac802458,B,2024-06-22_10h08.40.602,Slot Machine Game,2023.1.3,Win32,60.0240096,,,,,,,,,,,,,,,,,,,,,,,,,,,930,,,,,,,,,,,,,,,,,,,,,4,4,,,539.2,14,left,0.034,,1.5,0.3,"[1,2,3]",0.587870831,stimuli/card_100_transparent.png,100,14,0,14,0,1,,,,,,,,,,
,,,,65cb7d74800d57cbac802458,B,2024-06-22_10h08.40.602,Slot Machine Game,2023.1.3,Win32,60.0240096,,,,,,,,,,,,,,,,,,,,,,,,,,,,,,,,,,,541.548,,,,,,,,,,,,,,,,,,,,,,,,,,,,,,,,,"[350,920,660,930]",3,0,3,0,1,,,,
,,,,65cb7d74800d57cbac802458,B,2024-06-22_10h08.40.602,Slot Machine Game,2023.1.3,Win32,60.0240096,,,,,,,,,,,,,,,,,,,,,,,,,,,0,,,,,,,,,,,,,,,,,,,,,5,6,"[4,10,15]","[[2,3,1],[1,3,2],[3,2,1]]",546.553,0,up,0.3,,1.5,0.3,"[2,3,1]",0.472588621,stimuli/card_0_transparent.png,0,0,0,0,0,1,,,,,,,,,,
,,,,65cb7d74800d57cbac802458,B,2024-06-22_10h08.40.602,Slot Machine Game,2023.1.3,Win32,60.0240096,,,,,,,,,,,,,,,,,,,,,,,,,,,0,,,,,,,,,,,,,,,,,,,,,5,6,,,549.179,1,left,0.085,,1.5,0.3,"[2,3,1]",0.009218797,stimuli/card_0_transparent.png,0,1,0,1,0,1,,,,,,,,,,
,,,,65cb7d74800d57cbac802458,B,2024-06-22_10h08.40.602,Slot Machine Game,2023.1.3,Win32,60.0240096,,,,,,,,,,,,,,,,,,,,,,,,,,,100,,,,,,,,,,,,,,,,,,,,,5,6,,,551.595,2,right,0.075,,1,0.3,"[2,3,1]",0.610131938,stimuli/card_100_transparent.png,100,2,0,2,0,1,,,,,,,,,,
,,,,65cb7d74800d57cbac802458,B,2024-06-22_10h08.40.602,Slot Machine Game,2023.1.3,Win32,60.0240096,,,,,,,,,,,,,,,,,,,,,,,,,,,200,,,,,,,,,,,,,,,,,,,,,5,6,,,553.493,3,right,0.1,,1.5,0.3,"[2,3,1]",0.496265239,stimuli/card_100_transparent.png,100,3,0,3,0,1,,,,,,,,,,
,,,,65cb7d74800d57cbac802458,B,2024-06-22_10h08.40.602,Slot Machine Game,2023.1.3,Win32,60.0240096,,,,,,,,,,,,,,,,,,,,,,,,,,,210,,,,,,,,,,,,,,,,,,,,,5,6,,,555.909,4,right,2.578,,1,0.3,"[1,3,2]",0.719969696,stimuli/card_10_transparent.png,10,4,0,4,0,1,,,,,,,,,,
,,,,65cb7d74800d57cbac802458,B,2024-06-22_10h08.40.602,Slot Machine Game,2023.1.3,Win32,60.0240096,,,,,,,,,,,,,,,,,,,,,,,,,,,220,,,,,,,,,,,,,,,,,,,,,5,6,,,560.306,5,right,0.121,,0.5,0.3,"[1,3,2]",0.728703593,stimuli/card_10_transparent.png,10,5,0,5,0,1,,,,,,,,,,
,,,,65cb7d74800d57cbac802458,B,2024-06-22_10h08.40.602,Slot Machine Game,2023.1.3,Win32,60.0240096,,,,,,,,,,,,,,,,,,,,,,,,,,,220,,,,,,,,,,,,,,,,,,,,,5,6,,,561.739,6,up,0.887,,0.5,0.3,"[1,3,2]",0.436070301,stimuli/card_0_transparent.png,0,6,0,6,0,1,,,,,,,,,,
,,,,65cb7d74800d57cbac802458,B,2024-06-22_10h08.40.602,Slot Machine Game,2023.1.3,Win32,60.0240096,,,,,,,,,,,,,,,,,,,,,,,,,,,220,,,,,,,,,,,,,,,,,,,,,5,6,,,563.94,7,up,0.002,,1.5,0.3,"[1,3,2]",0.604832362,stimuli/card_0_transparent.png,0,7,0,7,0,1,,,,,,,,,,
,,,,65cb7d74800d57cbac802458,B,2024-06-22_10h08.40.602,Slot Machine Game,2023.1.3,Win32,60.0240096,,,,,,,,,,,,,,,,,,,,,,,,,,,320,,,,,,,,,,,,,,,,,,,,,5,6,,,566.271,8,left,0.939,,1,0.3,"[1,3,2]",0.339890013,stimuli/card_100_transparent.png,100,8,0,8,0,1,,,,,,,,,,
,,,,65cb7d74800d57cbac802458,B,2024-06-22_10h08.40.602,Slot Machine Game,2023.1.3,Win32,60.0240096,,,,,,,,,,,,,,,,,,,,,,,,,,,420,,,,,,,,,,,,,,,,,,,,,5,6,,,569.035,9,left,0.006,,0.5,0.3,"[1,3,2]",0.809594311,stimuli/card_100_transparent.png,100,9,0,9,0,1,,,,,,,,,,
,,,,65cb7d74800d57cbac802458,B,2024-06-22_10h08.40.602,Slot Machine Game,2023.1.3,Win32,60.0240096,,,,,,,,,,,,,,,,,,,,,,,,,,,420,,,,,,,,,,,,,,,,,,,,,5,6,,,570.352,10,left,0.017,,1.5,0.3,"[3,2,1]",0.627819707,stimuli/card_0_transparent.png,0,10,0,10,0,1,,,,,,,,,,
,,,,65cb7d74800d57cbac802458,B,2024-06-22_10h08.40.602,Slot Machine Game,2023.1.3,Win32,60.0240096,,,,,,,,,,,,,,,,,,,,,,,,,,,520,,,,,,,,,,,,,,,,,,,,,5,6,,,572.685,11,right,2.262,,0.5,0.3,"[3,2,1]",0.819065614,stimuli/card_100_transparent.png,100,11,0,11,0,1,,,,,,,,,,
,,,,65cb7d74800d57cbac802458,B,2024-06-22_10h08.40.602,Slot Machine Game,2023.1.3,Win32,60.0240096,,,,,,,,,,,,,,,,,,,,,,,,,,,620,,,,,,,,,,,,,,,,,,,,,5,6,,,576.283,12,right,0.183,,0.5,0.3,"[3,2,1]",0.824479425,stimuli/card_100_transparent.png,100,12,0,12,0,1,,,,,,,,,,
,,,,65cb7d74800d57cbac802458,B,2024-06-22_10h08.40.602,Slot Machine Game,2023.1.3,Win32,60.0240096,,,,,,,,,,,,,,,,,,,,,,,,,,,720,,,,,,,,,,,,,,,,,,,,,5,6,,,577.799,13,right,0.013,,1,0.3,"[3,2,1]",0.971835113,stimuli/card_100_transparent.png,100,13,0,13,0,1,,,,,,,,,,
,,,,65cb7d74800d57cbac802458,B,2024-06-22_10h08.40.602,Slot Machine Game,2023.1.3,Win32,60.0240096,,,,,,,,,,,,,,,,,,,,,,,,,,,820,,,,,,,,,,,,,,,,,,,,,5,6,,,579.615,14,right,0.783,,1,0.3,"[3,2,1]",0.749355104,stimuli/card_100_transparent.png,100,14,0,14,0,1,,,,,,,,,,
,,,,65cb7d74800d57cbac802458,B,2024-06-22_10h08.40.602,Slot Machine Game,2023.1.3,Win32,60.0240096,,,,,,,,,,,,,,,,,,,,,,,,,,,,,,,,,,,582.23,,,,,,,,,,,,,,,,,,,,,,,,,,,,,,,,,"[350,920,660,930,820]",4,0,4,0,1,,,,
,,,,65cb7d74800d57cbac802458,B,2024-06-22_10h08.40.602,Slot Machine Game,2023.1.3,Win32,60.0240096,,,,,,,,,,,,,,,,,,,,,,,,,,,100,,,,,,,,,,,,,,,,,,,,,6,8,"[11,15]","[[2,1,3],[1,2,3]]",587.23,0,up,0.368,,0.5,0.3,"[2,1,3]",0.632014774,stimuli/card_100_transparent.png,100,0,0,0,0,1,,,,,,,,,,
,,,,65cb7d74800d57cbac802458,B,2024-06-22_10h08.40.602,Slot Machine Game,2023.1.3,Win32,60.0240096,,,,,,,,,,,,,,,,,,,,,,,,,,,100,,,,,,,,,,,,,,,,,,,,,6,8,,,588.915,1,up,0.095,,1,0.3,"[2,1,3]",0.017298486,stimuli/card_0_transparent.png,0,1,0,1,0,1,,,,,,,,,,
,,,,65cb7d74800d57cbac802458,B,2024-06-22_10h08.40.602,Slot Machine Game,2023.1.3,Win32,60.0240096,,,,,,,,,,,,,,,,,,,,,,,,,,,100,,,,,,,,,,,,,,,,,,,,,6,8,,,590.827,2,left,0.186,,1,0.3,"[2,1,3]",0.053011901,stimuli/card_0_transparent.png,0,2,0,2,0,1,,,,,,,,,,
,,,,65cb7d74800d57cbac802458,B,2024-06-22_10h08.40.602,Slot Machine Game,2023.1.3,Win32,60.0240096,,,,,,,,,,,,,,,,,,,,,,,,,,,100,,,,,,,,,,,,,,,,,,,,,6,8,,,592.842,3,right,0.09,,1,0.3,"[2,1,3]",0.245128218,stimuli/card_0_transparent.png,0,3,0,3,0,1,,,,,,,,,,
,,,,65cb7d74800d57cbac802458,B,2024-06-22_10h08.40.602,Slot Machine Game,2023.1.3,Win32,60.0240096,,,,,,,,,,,,,,,,,,,,,,,,,,,200,,,,,,,,,,,,,,,,,,,,,6,8,,,594.742,4,left,0.119,,0.5,0.3,"[2,1,3]",0.185643079,stimuli/card_100_transparent.png,100,4,0,4,0,1,,,,,,,,,,
,,,,65cb7d74800d57cbac802458,B,2024-06-22_10h08.40.602,Slot Machine Game,2023.1.3,Win32,60.0240096,,,,,,,,,,,,,,,,,,,,,,,,,,,210,,,,,,,,,,,,,,,,,,,,,6,8,,,596.192,5,left,0.167,,1.5,0.3,"[2,1,3]",0.819094062,stimuli/card_10_transparent.png,10,5,0,5,0,1,,,,,,,,,,
,,,,65cb7d74800d57cbac802458,B,2024-06-22_10h08.40.602,Slot Machine Game,2023.1.3,Win32,60.0240096,,,,,,,,,,,,,,,,,,,,,,,,,,,210,,,,,,,,,,,,,,,,,,,,,6,8,,,598.69,6,right,0.111,,1,0.3,"[2,1,3]",0.812206923,stimuli/card_0_transparent.png,0,6,0,6,0,1,,,,,,,,,,
,,,,65cb7d74800d57cbac802458,B,2024-06-22_10h08.40.602,Slot Machine Game,2023.1.3,Win32,60.0240096,,,,,,,,,,,,,,,,,,,,,,,,,,,210,,,,,,,,,,,,,,,,,,,,,6,8,,,600.622,7,up,0.3,,1,0.3,"[2,1,3]",0.068981536,stimuli/card_0_transparent.png,0,7,0,7,0,1,,,,,,,,,,
,,,,65cb7d74800d57cbac802458,B,2024-06-22_10h08.40.602,Slot Machine Game,2023.1.3,Win32,60.0240096,,,,,,,,,,,,,,,,,,,,,,,,,,,310,,,,,,,,,,,,,,,,,,,,,6,8,,,602.737,8,up,2.115,,1,0.3,"[2,1,3]",0.457913012,stimuli/card_100_transparent.png,100,8,0,8,0,1,,,,,,,,,,
,,,,65cb7d74800d57cbac802458,B,2024-06-22_10h08.40.602,Slot Machine Game,2023.1.3,Win32,60.0240096,,,,,,,,,,,,,,,,,,,,,,,,,,,410,,,,,,,,,,,,,,,,,,,,,6,8,,,606.669,9,up,0.166,,1,0.3,"[2,1,3]",0.32993526,stimuli/card_100_transparent.png,100,9,0,9,0,1,,,,,,,,,,
,,,,65cb7d74800d57cbac802458,B,2024-06-22_10h08.40.602,Slot Machine Game,2023.1.3,Win32,60.0240096,,,,,,,,,,,,,,,,,,,,,,,,,,,420,,,,,,,,,,,,,,,,,,,,,6,8,,,608.652,10,up,1.828,,0.5,0.3,"[2,1,3]",0.148267262,stimuli/card_10_transparent.png,10,10,0,10,0,1,,,,,,,,,,
,,,,65cb7d74800d57cbac802458,B,2024-06-22_10h08.40.602,Slot Machine Game,2023.1.3,Win32,60.0240096,,,,,,,,,,,,,,,,,,,,,,,,,,,430,,,,,,,,,,,,,,,,,,,,,6,8,,,611.801,11,up,0.088,,1,0.3,"[1,2,3]",0.457797475,stimuli/card_10_transparent.png,10,11,0,11,0,1,,,,,,,,,,
,,,,65cb7d74800d57cbac802458,B,2024-06-22_10h08.40.602,Slot Machine Game,2023.1.3,Win32,60.0240096,,,,,,,,,,,,,,,,,,,,,,,,,,,530,,,,,,,,,,,,,,,,,,,,,6,8,,,613.716,12,left,0.152,,1,0.3,"[1,2,3]",0.488571731,stimuli/card_100_transparent.png,100,12,0,12,0,1,,,,,,,,,,
,,,,65cb7d74800d57cbac802458,B,2024-06-22_10h08.40.602,Slot Machine Game,2023.1.3,Win32,60.0240096,,,,,,,,,,,,,,,,,,,,,,,,,,,630,,,,,,,,,,,,,,,,,,,,,6,8,,,615.682,13,left,0,,0.5,0.3,"[1,2,3]",0.400088826,stimuli/card_100_transparent.png,100,13,0,13,0,1,,,,,,,,,,
,,,,65cb7d74800d57cbac802458,B,2024-06-22_10h08.40.602,Slot Machine Game,2023.1.3,Win32,60.0240096,,,,,,,,,,,,,,,,,,,,,,,,,,,730,,,,,,,,,,,,,,,,,,,,,6,8,,,617.014,14,left,1.421,,1.5,0.3,"[1,2,3]",0.589340932,stimuli/card_100_transparent.png,100,14,0,14,0,1,,,,,,,,,,
,,,,65cb7d74800d57cbac802458,B,2024-06-22_10h08.40.602,Slot Machine Game,2023.1.3,Win32,60.0240096,,,,,,,,,,,,,,,,,,,,,,,,,,,,,,,,,,,620.746,,,,,,,,,,,,,,,,,,,,,,,,,,,,,,,,,"[350,920,660,930,820,730]",5,0,5,0,1,,,,
,,,,65cb7d74800d57cbac802458,B,2024-06-22_10h08.40.602,Slot Machine Game,2023.1.3,Win32,60.0240096,,,,,,,,,,,,,,,,,,,,,,,,,,,0,,,,,,,,,,,,,,,,,,,,,7,9,"[8,15]","[[3,2,1],[3,1,2]]",625.746,0,left,0.4,,0.5,0.3,"[3,2,1]",0.42182077,stimuli/card_0_transparent.png,0,0,0,0,0,1,,,,,,,,,,
,,,,65cb7d74800d57cbac802458,B,2024-06-22_10h08.40.602,Slot Machine Game,2023.1.3,Win32,60.0240096,,,,,,,,,,,,,,,,,,,,,,,,,,,100,,,,,,,,,,,,,,,,,,,,,7,9,,,627.476,1,right,0.096,,1,0.3,"[3,2,1]",0.221295291,stimuli/card_100_transparent.png,100,1,0,1,0,1,,,,,,,,,,
,,,,65cb7d74800d57cbac802458,B,2024-06-22_10h08.40.602,Slot Machine Game,2023.1.3,Win32,60.0240096,,,,,,,,,,,,,,,,,,,,,,,,,,,200,,,,,,,,,,,,,,,,,,,,,7,9,,,629.376,2,right,1.045,,1,0.3,"[3,2,1]",0.709141921,stimuli/card_100_transparent.png,100,2,0,2,0,1,,,,,,,,,,
,,,,65cb7d74800d57cbac802458,B,2024-06-22_10h08.40.602,Slot Machine Game,2023.1.3,Win32,60.0240096,,,,,,,,,,,,,,,,,,,,,,,,,,,210,,,,,,,,,,,,,,,,,,,,,7,9,,,632.225,3,right,1.05,,1,0.3,"[3,2,1]",0.1845806,stimuli/card_10_transparent.png,10,3,0,3,0,1,,,,,,,,,,
,,,,65cb7d74800d57cbac802458,B,2024-06-22_10h08.40.602,Slot Machine Game,2023.1.3,Win32,60.0240096,,,,,,,,,,,,,,,,,,,,,,,,,,,210,,,,,,,,,,,,,,,,,,,,,7,9,,,635.106,4,left,1.404,,1.5,0.3,"[3,2,1]",0.544484453,stimuli/card_0_transparent.png,0,4,0,4,0,1,,,,,,,,,,
,,,,65cb7d74800d57cbac802458,B,2024-06-22_10h08.40.602,Slot Machine Game,2023.1.3,Win32,60.0240096,,,,,,,,,,,,,,,,,,,,,,,,,,,310,,,,,,,,,,,,,,,,,,,,,7,9,,,638.822,5,up,0.542,,0.5,0.3,"[3,2,1]",0.101400465,stimuli/card_100_transparent.png,100,5,0,5,0,1,,,,,,,,,,
,,,,65cb7d74800d57cbac802458,B,2024-06-22_10h08.40.602,Slot Machine Game,2023.1.3,Win32,60.0240096,,,,,,,,,,,,,,,,,,,,,,,,,,,320,,,,,,,,,,,,,,,,,,,,,7,9,,,640.687,6,up,0.026,,0.5,0.3,"[3,2,1]",0.888472179,stimuli/card_10_transparent.png,10,6,0,6,0,1,,,,,,,,,,
,,,,65cb7d74800d57cbac802458,B,2024-06-22_10h08.40.602,Slot Machine Game,2023.1.3,Win32,60.0240096,,,,,,,,,,,,,,,,,,,,,,,,,,,330,,,,,,,,,,,,,,,,,,,,,7,9,,,642.02,7,up,1.193,,1,0.3,"[3,2,1]",0.782439267,stimuli/card_10_transparent.png,10,7,0,7,0,1,,,,,,,,,,
,,,,65cb7d74800d57cbac802458,B,2024-06-22_10h08.40.602,Slot Machine Game,2023.1.3,Win32,60.0240096,,,,,,,,,,,,,,,,,,,,,,,,,,,430,,,,,,,,,,,,,,,,,,,,,7,9,,,645.019,8,up,1.358,,1.5,0.3,"[3,1,2]",0.374609717,stimuli/card_100_transparent.png,100,8,0,8,0,1,,,,,,,,,,
,,,,65cb7d74800d57cbac802458,B,2024-06-22_10h08.40.602,Slot Machine Game,2023.1.3,Win32,60.0240096,,,,,,,,,,,,,,,,,,,,,,,,,,,530,,,,,,,,,,,,,,,,,,,,,7,9,,,648.684,9,up,0.756,,1.5,0.3,"[3,1,2]",0.690730972,stimuli/card_100_transparent.png,100,9,0,9,0,1,,,,,,,,,,
,,,,65cb7d74800d57cbac802458,B,2024-06-22_10h08.40.602,Slot Machine Game,2023.1.3,Win32,60.0240096,,,,,,,,,,,,,,,,,,,,,,,,,,,630,,,,,,,,,,,,,,,,,,,,,7,9,,,651.766,10,up,0.123,,0.5,0.3,"[3,1,2]",0.36732271,stimuli/card_100_transparent.png,100,10,0,10,0,1,,,,,,,,,,
,,,,65cb7d74800d57cbac802458,B,2024-06-22_10h08.40.602,Slot Machine Game,2023.1.3,Win32,60.0240096,,,,,,,,,,,,,,,,,,,,,,,,,,,730,,,,,,,,,,,,,,,,,,,,,7,9,,,653.198,11,up,0.171,,1,0.3,"[3,1,2]",0.295566048,stimuli/card_100_transparent.png,100,11,0,11,0,1,,,,,,,,,,
,,,,65cb7d74800d57cbac802458,B,2024-06-22_10h08.40.602,Slot Machine Game,2023.1.3,Win32,60.0240096,,,,,,,,,,,,,,,,,,,,,,,,,,,830,,,,,,,,,,,,,,,,,,,,,7,9,,,655.181,12,up,0.05,,1,0.3,"[3,1,2]",0.418849677,stimuli/card_100_transparent.png,100,12,0,12,0,1,,,,,,,,,,
,,,,65cb7d74800d57cbac802458,B,2024-06-22_10h08.40.602,Slot Machine Game,2023.1.3,Win32,60.0240096,,,,,,,,,,,,,,,,,,,,,,,,,,,830,,,,,,,,,,,,,,,,,,,,,7,9,,,657.063,13,up,1.337,,1.5,0.3,"[3,1,2]",0.010642421,stimuli/card_0_transparent.png,0,13,0,13,0,1,,,,,,,,,,
,,,,65cb7d74800d57cbac802458,B,2024-06-22_10h08.40.602,Slot Machine Game,2023.1.3,Win32,60.0240096,,,,,,,,,,,,,,,,,,,,,,,,,,,840,,,,,,,,,,,,,,,,,,,,,7,9,,,660.729,14,right,0.16,,1,0.3,"[3,1,2]",0.27953496,stimuli/card_10_transparent.png,10,14,0,14,0,1,,,,,,,,,,
,,,,65cb7d74800d57cbac802458,B,2024-06-22_10h08.40.602,Slot Machine Game,2023.1.3,Win32,60.0240096,,,,,,,,,,,,,,,,,,,,,,,,,,,,,,,,,,,662.695,,,,,,,,,,,,,,,,,,,,,,,,,,,,,,,,,"[350,920,660,930,820,730,840]",6,0,6,0,1,,,,
,,,,65cb7d74800d57cbac802458,B,2024-06-22_10h08.40.602,Slot Machine Game,2023.1.3,Win32,60.0240096,,,,,,,,,,,,,,,,,,,,,,,,,,,100,,,,,,,,,,,,,,,,,,,,,8,2,"[6,15]","[[1,3,2],[3,2,1]]",667.694,0,left,0.001,,1.5,0.3,"[1,3,2]",0.568515256,stimuli/card_100_transparent.png,100,0,0,0,0,1,,,,,,,,,,
,,,,65cb7d74800d57cbac802458,B,2024-06-22_10h08.40.602,Slot Machine Game,2023.1.3,Win32,60.0240096,,,,,,,,,,,,,,,,,,,,,,,,,,,200,,,,,,,,,,,,,,,,,,,,,8,2,,,670.025,1,left,0.617,,1.5,0.3,"[1,3,2]",0.60874944,stimuli/card_100_transparent.png,100,1,0,1,0,1,,,,,,,,,,
,,,,65cb7d74800d57cbac802458,B,2024-06-22_10h08.40.602,Slot Machine Game,2023.1.3,Win32,60.0240096,,,,,,,,,,,,,,,,,,,,,,,,,,,300,,,,,,,,,,,,,,,,,,,,,8,2,,,672.973,2,left,0.979,,1,0.3,"[1,3,2]",0.409618102,stimuli/card_100_transparent.png,100,2,0,2,0,1,,,,,,,,,,
,,,,65cb7d74800d57cbac802458,B,2024-06-22_10h08.40.602,Slot Machine Game,2023.1.3,Win32,60.0240096,,,,,,,,,,,,,,,,,,,,,,,,,,,310,,,,,,,,,,,,,,,,,,,,,8,2,,,675.771,3,left,0.033,,1.5,0.3,"[1,3,2]",0.184573775,stimuli/card_10_transparent.png,10,3,0,3,0,1,,,,,,,,,,
,,,,65cb7d74800d57cbac802458,B,2024-06-22_10h08.40.602,Slot Machine Game,2023.1.3,Win32,60.0240096,,,,,,,,,,,,,,,,,,,,,,,,,,,320,,,,,,,,,,,,,,,,,,,,,8,2,,,678.12,4,right,0.124,,1,0.3,"[1,3,2]",0.253212678,stimuli/card_10_transparent.png,10,4,0,4,0,1,,,,,,,,,,
,,,,65cb7d74800d57cbac802458,B,2024-06-22_10h08.40.602,Slot Machine Game,2023.1.3,Win32,60.0240096,,,,,,,,,,,,,,,,,,,,,,,,,,,320,,,,,,,,,,,,,,,,,,,,,8,2,,,680.053,5,up,0.521,,0.5,0.3,"[1,3,2]",0.73962256,stimuli/card_0_transparent.png,0,5,0,5,0,1,,,,,,,,,,
,,,,65cb7d74800d57cbac802458,B,2024-06-22_10h08.40.602,Slot Machine Game,2023.1.3,Win32,60.0240096,,,,,,,,,,,,,,,,,,,,,,,,,,,320,,,,,,,,,,,,,,,,,,,,,8,2,,,681.886,6,up,0.27,,1,0.3,"[3,2,1]",0.072107314,stimuli/card_0_transparent.png,0,6,0,6,0,1,,,,,,,,,,
,,,,65cb7d74800d57cbac802458,B,2024-06-22_10h08.40.602,Slot Machine Game,2023.1.3,Win32,60.0240096,,,,,,,,,,,,,,,,,,,,,,,,,,,320,,,,,,,,,,,,,,,,,,,,,8,2,,,683.968,7,left,0.302,,1.5,0.3,"[3,2,1]",0.838147093,stimuli/card_0_transparent.png,0,7,0,7,0,1,,,,,,,,,,
,,,,65cb7d74800d57cbac802458,B,2024-06-22_10h08.40.602,Slot Machine Game,2023.1.3,Win32,60.0240096,,,,,,,,,,,,,,,,,,,,,,,,,,,320,,,,,,,,,,,,,,,,,,,,,8,2,,,686.583,8,left,0.306,,1.5,0.3,"[3,2,1]",0.540246479,stimuli/card_0_transparent.png,0,8,0,8,0,1,,,,,,,,,,
,,,,65cb7d74800d57cbac802458,B,2024-06-22_10h08.40.602,Slot Machine Game,2023.1.3,Win32,60.0240096,,,,,,,,,,,,,,,,,,,,,,,,,,,330,,,,,,,,,,,,,,,,,,,,,8,2,,,689.199,9,up,0.553,,1,0.3,"[3,2,1]",0.904298325,stimuli/card_10_transparent.png,10,9,0,9,0,1,,,,,,,,,,
,,,,65cb7d74800d57cbac802458,B,2024-06-22_10h08.40.602,Slot Machine Game,2023.1.3,Win32,60.0240096,,,,,,,,,,,,,,,,,,,,,,,,,,,340,,,,,,,,,,,,,,,,,,,,,8,2,,,691.581,10,up,0.1,,1.5,0.3,"[3,2,1]",0.96534838,stimuli/card_10_transparent.png,10,10,0,10,0,1,,,,,,,,,,
,,,,65cb7d74800d57cbac802458,B,2024-06-22_10h08.40.602,Slot Machine Game,2023.1.3,Win32,60.0240096,,,,,,,,,,,,,,,,,,,,,,,,,,,440,,,,,,,,,,,,,,,,,,,,,8,2,,,693.997,11,right,0.103,,1,0.3,"[3,2,1]",0.772406383,stimuli/card_100_transparent.png,100,11,0,11,0,1,,,,,,,,,,
,,,,65cb7d74800d57cbac802458,B,2024-06-22_10h08.40.602,Slot Machine Game,2023.1.3,Win32,60.0240096,,,,,,,,,,,,,,,,,,,,,,,,,,,540,,,,,,,,,,,,,,,,,,,,,8,2,,,695.932,12,right,0.024,,1.5,0.3,"[3,2,1]",0.873906737,stimuli/card_100_transparent.png,100,12,0,12,0,1,,,,,,,,,,
,,,,65cb7d74800d57cbac802458,B,2024-06-22_10h08.40.602,Slot Machine Game,2023.1.3,Win32,60.0240096,,,,,,,,,,,,,,,,,,,,,,,,,,,640,,,,,,,,,,,,,,,,,,,,,8,2,,,698.279,13,right,0.084,,1.5,0.3,"[3,2,1]",0.99506424,stimuli/card_100_transparent.png,100,13,0,13,0,1,,,,,,,,,,
,,,,65cb7d74800d57cbac802458,B,2024-06-22_10h08.40.602,Slot Machine Game,2023.1.3,Win32,60.0240096,,,,,,,,,,,,,,,,,,,,,,,,,,,740,,,,,,,,,,,,,,,,,,,,,8,2,,,700.693,14,right,0.05,,1,0.3,"[3,2,1]",0.263796046,stimuli/card_100_transparent.png,100,14,0,14,0,1,,,,,,,,,,
,,,,65cb7d74800d57cbac802458,B,2024-06-22_10h08.40.602,Slot Machine Game,2023.1.3,Win32,60.0240096,,,,,,,,,,,,,,,,,,,,,,,,,,,,,,,,,,,702.56,,,,,,,,,,,,,,,,,,,,,,,,,,,,,,,,,"[350,920,660,930,820,730,840,740]",7,0,7,0,1,,,,
,,,,65cb7d74800d57cbac802458,B,2024-06-22_10h08.40.602,Slot Machine Game,2023.1.3,Win32,60.0240096,,,,,,,,,,,,,,,,,,,,,,,,,,,100,,,,,,,,,,,,,,,,,,,,,9,10,"[10,15]","[[3,1,2],[1,3,2]]",707.559,0,up,0.495,,1.5,0.3,"[3,1,2]",0.361515826,stimuli/card_100_transparent.png,100,0,0,0,0,1,,,,,,,,,,
,,,,65cb7d74800d57cbac802458,B,2024-06-22_10h08.40.602,Slot Machine Game,2023.1.3,Win32,60.0240096,,,,,,,,,,,,,,,,,,,,,,,,,,,200,,,,,,,,,,,,,,,,,,,,,9,10,,,710.373,1,up,0.116,,1,0.3,"[3,1,2]",0.729051733,stimuli/card_100_transparent.png,100,1,0,1,0,1,,,,,,,,,,
,,,,65cb7d74800d57cbac802458,B,2024-06-22_10h08.40.602,Slot Machine Game,2023.1.3,Win32,60.0240096,,,,,,,,,,,,,,,,,,,,,,,,,,,300,,,,,,,,,,,,,,,,,,,,,9,10,,,712.294,2,up,0.359,,1.5,0.3,"[3,1,2]",0.901741095,stimuli/card_100_transparent.png,100,2,0,2,0,1,,,,,,,,,,
,,,,65cb7d74800d57cbac802458,B,2024-06-22_10h08.40.602,Slot Machine Game,2023.1.3,Win32,60.0240096,,,,,,,,,,,,,,,,,,,,,,,,,,,310,,,,,,,,,,,,,,,,,,,,,9,10,,,714.971,3,up,0.166,,1.5,0.3,"[3,1,2]",0.193329602,stimuli/card_10_transparent.png,10,3,0,3,0,1,,,,,,,,,,
,,,,65cb7d74800d57cbac802458,B,2024-06-22_10h08.40.602,Slot Machine Game,2023.1.3,Win32,60.0240096,,,,,,,,,,,,,,,,,,,,,,,,,,,410,,,,,,,,,,,,,,,,,,,,,9,10,,,717.47,4,up,0.163,,1,0.3,"[3,1,2]",0.95717008,stimuli/card_100_transparent.png,100,4,0,4,0,1,,,,,,,,,,
,,,,65cb7d74800d57cbac802458,B,2024-06-22_10h08.40.602,Slot Machine Game,2023.1.3,Win32,60.0240096,,,,,,,,,,,,,,,,,,,,,,,,,,,510,,,,,,,,,,,,,,,,,,,,,9,10,,,719.452,5,up,0.206,,1.5,0.3,"[3,1,2]",0.232309785,stimuli/card_100_transparent.png,100,5,0,5,0,1,,,,,,,,,,
,,,,65cb7d74800d57cbac802458,B,2024-06-22_10h08.40.602,Slot Machine Game,2023.1.3,Win32,60.0240096,,,,,,,,,,,,,,,,,,,,,,,,,,,610,,,,,,,,,,,,,,,,,,,,,9,10,,,721.968,6,up,0.152,,1,0.3,"[3,1,2]",0.876838213,stimuli/card_100_transparent.png,100,6,0,6,0,1,,,,,,,,,,
,,,,65cb7d74800d57cbac802458,B,2024-06-22_10h08.40.602,Slot Machine Game,2023.1.3,Win32,60.0240096,,,,,,,,,,,,,,,,,,,,,,,,,,,610,,,,,,,,,,,,,,,,,,,,,9,10,,,723.951,7,up,0.257,,1.5,0.3,"[3,1,2]",0.094660933,stimuli/card_0_transparent.png,0,7,0,7,0,1,,,,,,,,,,
,,,,65cb7d74800d57cbac802458,B,2024-06-22_10h08.40.602,Slot Machine Game,2023.1.3,Win32,60.0240096,,,,,,,,,,,,,,,,,,,,,,,,,,,620,,,,,,,,,,,,,,,,,,,,,9,10,,,726.532,8,up,0.093,,1.5,0.3,"[3,1,2]",0.111948544,stimuli/card_10_transparent.png,10,8,0,8,0,1,,,,,,,,,,
,,,,65cb7d74800d57cbac802458,B,2024-06-22_10h08.40.602,Slot Machine Game,2023.1.3,Win32,60.0240096,,,,,,,,,,,,,,,,,,,,,,,,,,,630,,,,,,,,,,,,,,,,,,,,,9,10,,,728.948,9,up,0.05,,1.5,0.3,"[3,1,2]",0.167720554,stimuli/card_10_transparent.png,10,9,0,9,0,1,,,,,,,,,,
,,,,65cb7d74800d57cbac802458,B,2024-06-22_10h08.40.602,Slot Machine Game,2023.1.3,Win32,60.0240096,,,,,,,,,,,,,,,,,,,,,,,,,,,730,,,,,,,,,,,,,,,,,,,,,9,10,,,731.331,10,left,0.036,,1,0.3,"[1,3,2]",0.420217128,stimuli/card_100_transparent.png,100,10,0,10,0,1,,,,,,,,,,
,,,,65cb7d74800d57cbac802458,B,2024-06-22_10h08.40.602,Slot Machine Game,2023.1.3,Win32,60.0240096,,,,,,,,,,,,,,,,,,,,,,,,,,,830,,,,,,,,,,,,,,,,,,,,,9,10,,,733.196,11,left,0.208,,1.5,0.3,"[1,3,2]",0.738799319,stimuli/card_100_transparent.png,100,11,0,11,0,1,,,,,,,,,,
,,,,65cb7d74800d57cbac802458,B,2024-06-22_10h08.40.602,Slot Machine Game,2023.1.3,Win32,60.0240096,,,,,,,,,,,,,,,,,,,,,,,,,,,830,,,,,,,,,,,,,,,,,,,,,9,10,,,735.728,12,left,0.177,,1,0.3,"[1,3,2]",0.083764331,stimuli/card_0_transparent.png,0,12,0,12,0,1,,,,,,,,,,
,,,,65cb7d74800d57cbac802458,B,2024-06-22_10h08.40.602,Slot Machine Game,2023.1.3,Win32,60.0240096,,,,,,,,,,,,,,,,,,,,,,,,,,,930,,,,,,,,,,,,,,,,,,,,,9,10,,,737.711,13,left,0.075,,1,0.3,"[1,3,2]",0.295849265,stimuli/card_100_transparent.png,100,13,0,13,0,1,,,,,,,,,,
,,,,65cb7d74800d57cbac802458,B,2024-06-22_10h08.40.602,Slot Machine Game,2023.1.3,Win32,60.0240096,,,,,,,,,,,,,,,,,,,,,,,,,,,1030,,,,,,,,,,,,,,,,,,,,,9,10,,,739.61,14,left,0.016,,1.5,0.3,"[1,3,2]",0.948826674,stimuli/card_100_transparent.png,100,14,0,14,0,1,,,,,,,,,,
,,,,65cb7d74800d57cbac802458,B,2024-06-22_10h08.40.602,Slot Machine Game,2023.1.3,Win32,60.0240096,,,,,,,,,,,,,,,,,,,,,,,,,,,,,,,,,,,741.96,,,,,,,,,,,,,,,,,,,,,,,,,,,,,,,,,"[350,920,660,930,820,730,840,740,1030]",8,0,8,0,1,,,,
,,,,65cb7d74800d57cbac802458,B,2024-06-22_10h08.40.602,Slot Machine Game,2023.1.3,Win32,60.0240096,,,,,,,,,,,,,,,,,,,,,,,,,,,10,,,,,,,,,,,,,,,,,,,,,10,3,"[15,15]","[[3,1,2],[3,1,2]]",746.959,0,right,0.734,,0.5,0.3,"[3,1,2]",0.997424372,stimuli/card_10_transparent.png,10,0,0,0,0,1,,,,,,,,,,
,,,,65cb7d74800d57cbac802458,B,2024-06-22_10h08.40.602,Slot Machine Game,2023.1.3,Win32,60.0240096,,,,,,,,,,,,,,,,,,,,,,,,,,,10,,,,,,,,,,,,,,,,,,,,,10,3,,,749.022,1,left,0.797,,1,0.3,"[3,1,2]",0.486678292,stimuli/card_0_transparent.png,0,1,0,1,0,1,,,,,,,,,,
,,,,65cb7d74800d57cbac802458,B,2024-06-22_10h08.40.602,Slot Machine Game,2023.1.3,Win32,60.0240096,,,,,,,,,,,,,,,,,,,,,,,,,,,110,,,,,,,,,,,,,,,,,,,,,10,3,,,751.655,2,up,0.1,,1,0.3,"[3,1,2]",0.601564734,stimuli/card_100_transparent.png,100,2,0,2,0,1,,,,,,,,,,
,,,,65cb7d74800d57cbac802458,B,2024-06-22_10h08.40.602,Slot Machine Game,2023.1.3,Win32,60.0240096,,,,,,,,,,,,,,,,,,,,,,,,,,,210,,,,,,,,,,,,,,,,,,,,,10,3,,,753.587,3,up,0.068,,1.5,0.3,"[3,1,2]",0.829089915,stimuli/card_100_transparent.png,100,3,0,3,0,1,,,,,,,,,,
,,,,65cb7d74800d57cbac802458,B,2024-06-22_10h08.40.602,Slot Machine Game,2023.1.3,Win32,60.0240096,,,,,,,,,,,,,,,,,,,,,,,,,,,310,,,,,,,,,,,,,,,,,,,,,10,3,,,755.986,4,up,0.227,,0.5,0.3,"[3,1,2]",0.940379894,stimuli/card_100_transparent.png,100,4,0,4,0,1,,,,,,,,,,
,,,,65cb7d74800d57cbac802458,B,2024-06-22_10h08.40.602,Slot Machine Game,2023.1.3,Win32,60.0240096,,,,,,,,,,,,,,,,,,,,,,,,,,,320,,,,,,,,,,,,,,,,,,,,,10,3,,,757.534,5,up,0.149,,1.5,0.3,"[3,1,2]",0.192705366,stimuli/card_10_transparent.png,10,5,0,5,0,1,,,,,,,,,,
,,,,65cb7d74800d57cbac802458,B,2024-06-22_10h08.40.602,Slot Machine Game,2023.1.3,Win32,60.0240096,,,,,,,,,,,,,,,,,,,,,,,,,,,420,,,,,,,,,,,,,,,,,,,,,10,3,,,760,6,up,0.121,,1.5,0.3,"[3,1,2]",0.459892842,stimuli/card_100_transparent.png,100,6,0,6,0,1,,,,,,,,,,
,,,,65cb7d74800d57cbac802458,B,2024-06-22_10h08.40.602,Slot Machine Game,2023.1.3,Win32,60.0240096,,,,,,,,,,,,,,,,,,,,,,,,,,,520,,,,,,,,,,,,,,,,,,,,,10,3,,,762.433,7,up,0.273,,0.5,0.3,"[3,1,2]",0.858645953,stimuli/card_100_transparent.png,100,7,0,7,0,1,,,,,,,,,,
,,,,65cb7d74800d57cbac802458,B,2024-06-22_10h08.40.602,Slot Machine Game,2023.1.3,Win32,60.0240096,,,,,,,,,,,,,,,,,,,,,,,,,,,530,,,,,,,,,,,,,,,,,,,,,10,3,,,764.033,8,up,0.167,,1.5,0.3,"[3,1,2]",0.112847146,stimuli/card_10_transparent.png,10,8,0,8,0,1,,,,,,,,,,
,,,,65cb7d74800d57cbac802458,B,2024-06-22_10h08.40.602,Slot Machine Game,2023.1.3,Win32,60.0240096,,,,,,,,,,,,,,,,,,,,,,,,,,,630,,,,,,,,,,,,,,,,,,,,,10,3,,,766.531,9,up,0.003,,1.5,0.3,"[3,1,2]",0.302643609,stimuli/card_100_transparent.png,100,9,0,9,0,1,,,,,,,,,,
,,,,65cb7d74800d57cbac802458,B,2024-06-22_10h08.40.602,Slot Machine Game,2023.1.3,Win32,60.0240096,,,,,,,,,,,,,,,,,,,,,,,,,,,730,,,,,,,,,,,,,,,,,,,,,10,3,,,768.847,10,up,0.09,,1.5,0.3,"[3,1,2]",0.368461221,stimuli/card_100_transparent.png,100,10,0,10,0,1,,,,,,,,,,
,,,,65cb7d74800d57cbac802458,B,2024-06-22_10h08.40.602,Slot Machine Game,2023.1.3,Win32,60.0240096,,,,,,,,,,,,,,,,,,,,,,,,,,,730,,,,,,,,,,,,,,,,,,,,,10,3,,,771.262,11,up,0.077,,0.5,0.3,"[3,1,2]",0.044399975,stimuli/card_0_transparent.png,0,11,0,11,0,1,,,,,,,,,,
,,,,65cb7d74800d57cbac802458,B,2024-06-22_10h08.40.602,Slot Machine Game,2023.1.3,Win32,60.0240096,,,,,,,,,,,,,,,,,,,,,,,,,,,740,,,,,,,,,,,,,,,,,,,,,10,3,,,772.645,12,up,0.084,,0.5,0.3,"[3,1,2]",0.109190321,stimuli/card_10_transparent.png,10,12,0,12,0,1,,,,,,,,,,
,,,,65cb7d74800d57cbac802458,B,2024-06-22_10h08.40.602,Slot Machine Game,2023.1.3,Win32,60.0240096,,,,,,,,,,,,,,,,,,,,,,,,,,,840,,,,,,,,,,,,,,,,,,,,,10,3,,,774.044,13,up,0.035,,1,0.3,"[3,1,2]",0.216376074,stimuli/card_100_transparent.png,100,13,0,13,0,1,,,,,,,,,,
,,,,65cb7d74800d57cbac802458,B,2024-06-22_10h08.40.602,Slot Machine Game,2023.1.3,Win32,60.0240096,,,,,,,,,,,,,,,,,,,,,,,,,,,940,,,,,,,,,,,,,,,,,,,,,10,3,,,775.893,14,up,0.134,,0.5,0.3,"[3,1,2]",0.963638086,stimuli/card_100_transparent.png,100,14,0,14,0,1,,,,,,,,,,
,,,,65cb7d74800d57cbac802458,B,2024-06-22_10h08.40.602,Slot Machine Game,2023.1.3,Win32,60.0240096,,,,,,,,,,,,,,,,,,,,,,,,,,,,,,,,,,,777.343,,,,,,,,,,,,,,,,,,,,,,,,,,,,,,,,,"[350,920,660,930,820,730,840,740,1030,940]",9,0,9,0,1,,,,
,,,,65cb7d74800d57cbac802458,B,2024-06-22_10h08.40.602,Slot Machine Game,2023.1.3,Win32,60.0240096,,,,,,,,,,,,,,,,,,,,,,,,,,,,,,,,,,,,,,,,,,,,,,,,,,,,,,,,,,,,,,,,,,,,,,,,,,9,"[350,920,660,930,820,730,840,740,1030,940]",7.3,2024-06-22_10h21.46.983
