key_resp_welcome_started,key_resp_welcome_keys,key_resp_welcome_rt,key_resp_welcome_duration,prolific_id,path_id,date,expName,psychopyVersion,OS,frameRate,key_resp_instruction1_started,key_resp_instruction1_keys,key_resp_instruction1_rt,key_resp_instruction1_duration,key_resp_instruction2_started,key_resp_instruction2_keys,key_resp_instruction2_rt,key_resp_instruction2_duration,key_resp_instruction3_started,key_resp_instruction3_keys,key_resp_instruction3_rt,key_resp_instruction3_duration,key_resp_instruction4_started,key_resp_instruction4_keys,key_resp_instruction4_rt,key_resp_instruction4_duration,practiceCondition,practice_reward_seqs,practice_trial_started,practice_trial_num,practice_resp_rt,practice_resp_duration,practice_resp_keys,prac_presentationInterval,"practice_reward_seq: 2,1,3",reward_img,cumulative_reward,trial_reward,practice_trials.thisRepN,practice_trials.thisTrialN,practice_trials.thisN,practice_trials.thisIndex,practice_trials.ran,"practice_reward_seq: 2,3,1",block_break_started,"practice_reward_seq: 1,3,2","practice_reward_seq: 3,1,2",practice_end_time,practice_end_keys,practice_end_rt,practice_end_duration,main_instruction_text_started,block_condition,block_order_indices,main_instruction_keys,main_instruction_rt,main_instruction_duration,block_number,block_assignment,current_condition,main_reward_seqs,main_trial_started,main_trial_num,main_trial_keys,main_trial_rt,main_trial_duration,main_presentationInterval,reward_presentation_time,main_reward_seq,reward_rand_val,main_reward_img,current_reward,main_trials.thisRepN,main_trials.thisTrialN,main_trials.thisN,main_trials.thisIndex,main_trials.ran,block_reward,block.thisRepN,block.thisTrialN,block.thisN,block.thisIndex,block.ran,block_reward.length,block_reward_all,reward_amount,date_end_task
0.0006,space,0.8885,,65d50f9cda35b13ec1dfb63a,A,2024-07-01_11h15.30.323,Slot Machine Game,2023.1.3,Win32,61.34969325,,,,,,,,,,,,,,,,,,,,,,,,,,,,,,,,,,,,,,,,,,,,,,,,,,,,,,,,,,,,,,,,,,,,,,,,,,,,,
,,,,65d50f9cda35b13ec1dfb63a,A,2024-07-01_11h15.30.323,Slot Machine Game,2023.1.3,Win32,61.34969325,0.9038,space,6.4902,,,,,,,,,,,,,,,,,,,,,,,,,,,,,,,,,,,,,,,,,,,,,,,,,,,,,,,,,,,,,,,,,,,,,,,,,,
,,,,65d50f9cda35b13ec1dfb63a,A,2024-07-01_11h15.30.323,Slot Machine Game,2023.1.3,Win32,61.34969325,,,,,7.4199,space,27.8428,,,,,,,,,,,,,,,,,,,,,,,,,,,,,,,,,,,,,,,,,,,,,,,,,,,,,,,,,,,,,,,,,,,,,,
,,,,65d50f9cda35b13ec1dfb63a,A,2024-07-01_11h15.30.323,Slot Machine Game,2023.1.3,Win32,61.34969325,,,,,,,,,35.3043,space,5.5285,,,,,,,,,,,,,,,,,,,,,,,,,,,,,,,,,,,,,,,,,,,,,,,,,,,,,,,,,,,,,,,,,,
,,,,65d50f9cda35b13ec1dfb63a,A,2024-07-01_11h15.30.323,Slot Machine Game,2023.1.3,Win32,61.34969325,,,,,,,,,,,,,,,,,,,,,,,,,,,,,,,,,,,,,,,,,,,,,,,,,,,,,,,,,,,,,,,,,,,,,,,,,,,,,
,,,,65d50f9cda35b13ec1dfb63a,A,2024-07-01_11h15.30.323,Slot Machine Game,2023.1.3,Win32,61.34969325,,,,,,,,,,,,,183.1603,space,1.5736,,,,,,,,,,,,,,,,,,,,,,,,,,,,,,,,,,,,,,,,,,,,,,,,,,,,,,,,,,,,,,
,,,,65d50f9cda35b13ec1dfb63a,A,2024-07-01_11h15.30.323,Slot Machine Game,2023.1.3,Win32,61.34969325,,,,,,,,,,,,,,,,,"[9,15]","[[2,1,3],[2,3,1]]",184.7602,0,1.0331,,left,1,,stimuli/card_10_transparent.png,10,10,0,0,0,0,1,,,,,,,,,,,,,,,,,,,,,,,,,,,,,,,,,,,,,,,,,,,,
,,,,65d50f9cda35b13ec1dfb63a,A,2024-07-01_11h15.30.323,Slot Machine Game,2023.1.3,Win32,61.34969325,,,,,,,,,,,,,,,,,,,187.6237,1,0.476,,left,1.5,,stimuli/card_10_transparent.png,20,10,1,0,1,0,1,,,,,,,,,,,,,,,,,,,,,,,,,,,,,,,,,,,,,,,,,,,,
,,,,65d50f9cda35b13ec1dfb63a,A,2024-07-01_11h15.30.323,Slot Machine Game,2023.1.3,Win32,61.34969325,,,,,,,,,,,,,,,,,,,190.423,2,0.0179,,up,0.5,,stimuli/card_100_transparent.png,120,100,2,0,2,0,1,,,,,,,,,,,,,,,,,,,,,,,,,,,,,,,,,,,,,,,,,,,,
,,,,65d50f9cda35b13ec1dfb63a,A,2024-07-01_11h15.30.323,Slot Machine Game,2023.1.3,Win32,61.34969325,,,,,,,,,,,,,,,,,,,191.7566,3,0.5834,,up,1.5,,stimuli/card_100_transparent.png,220,100,3,0,3,0,1,,,,,,,,,,,,,,,,,,,,,,,,,,,,,,,,,,,,,,,,,,,,
,,,,65d50f9cda35b13ec1dfb63a,A,2024-07-01_11h15.30.323,Slot Machine Game,2023.1.3,Win32,61.34969325,,,,,,,,,,,,,,,,,,,194.6735,4,0.1,,up,0.5,,stimuli/card_100_transparent.png,320,100,4,0,4,0,1,,,,,,,,,,,,,,,,,,,,,,,,,,,,,,,,,,,,,,,,,,,,
,,,,65d50f9cda35b13ec1dfb63a,A,2024-07-01_11h15.30.323,Slot Machine Game,2023.1.3,Win32,61.34969325,,,,,,,,,,,,,,,,,,,196.1066,5,1.3919,,up,1.5,,stimuli/card_100_transparent.png,420,100,5,0,5,0,1,,,,,,,,,,,,,,,,,,,,,,,,,,,,,,,,,,,,,,,,,,,,
,,,,65d50f9cda35b13ec1dfb63a,A,2024-07-01_11h15.30.323,Slot Machine Game,2023.1.3,Win32,61.34969325,,,,,,,,,,,,,,,,,,,199.8233,6,0.3218,,up,1.5,,stimuli/card_100_transparent.png,520,100,6,0,6,0,1,,,,,,,,,,,,,,,,,,,,,,,,,,,,,,,,,,,,,,,,,,,,
,,,,65d50f9cda35b13ec1dfb63a,A,2024-07-01_11h15.30.323,Slot Machine Game,2023.1.3,Win32,61.34969325,,,,,,,,,,,,,,,,,,,202.4729,7,0.2577,,up,1,,stimuli/card_100_transparent.png,620,100,7,0,7,0,1,,,,,,,,,,,,,,,,,,,,,,,,,,,,,,,,,,,,,,,,,,,,
,,,,65d50f9cda35b13ec1dfb63a,A,2024-07-01_11h15.30.323,Slot Machine Game,2023.1.3,Win32,61.34969325,,,,,,,,,,,,,,,,,,,204.5402,8,0.8355,,up,1.5,,stimuli/card_100_transparent.png,720,100,8,0,8,0,1,,,,,,,,,,,,,,,,,,,,,,,,,,,,,,,,,,,,,,,,,,,,
,,,,65d50f9cda35b13ec1dfb63a,A,2024-07-01_11h15.30.323,Slot Machine Game,2023.1.3,Win32,61.34969325,,,,,,,,,,,,,,,,,,,207.7069,9,0.3494,,up,0.5,,stimuli/card_0_transparent.png,720,0,9,0,9,0,1,,,,,,,,,,,,,,,,,,,,,,,,,,,,,,,,,,,,,,,,,,,,
,,,,65d50f9cda35b13ec1dfb63a,A,2024-07-01_11h15.30.323,Slot Machine Game,2023.1.3,Win32,61.34969325,,,,,,,,,,,,,,,,,,,209.3906,10,1.253,,right,1.5,,stimuli/card_100_transparent.png,820,100,10,0,10,0,1,,,,,,,,,,,,,,,,,,,,,,,,,,,,,,,,,,,,,,,,,,,,
,,,,65d50f9cda35b13ec1dfb63a,A,2024-07-01_11h15.30.323,Slot Machine Game,2023.1.3,Win32,61.34969325,,,,,,,,,,,,,,,,,,,212.9736,11,0.8754,,right,0.5,,stimuli/card_100_transparent.png,920,100,11,0,11,0,1,,,,,,,,,,,,,,,,,,,,,,,,,,,,,,,,,,,,,,,,,,,,
,,,,65d50f9cda35b13ec1dfb63a,A,2024-07-01_11h15.30.323,Slot Machine Game,2023.1.3,Win32,61.34969325,,,,,,,,,,,,,,,,,,,215.1738,12,0.044,,right,1,,stimuli/card_10_transparent.png,930,10,12,0,12,0,1,,,,,,,,,,,,,,,,,,,,,,,,,,,,,,,,,,,,,,,,,,,,
,,,,65d50f9cda35b13ec1dfb63a,A,2024-07-01_11h15.30.323,Slot Machine Game,2023.1.3,Win32,61.34969325,,,,,,,,,,,,,,,,,,,217.0404,13,0.4802,,up,1,,stimuli/card_100_transparent.png,1030,100,13,0,13,0,1,,,,,,,,,,,,,,,,,,,,,,,,,,,,,,,,,,,,,,,,,,,,
,,,,65d50f9cda35b13ec1dfb63a,A,2024-07-01_11h15.30.323,Slot Machine Game,2023.1.3,Win32,61.34969325,,,,,,,,,,,,,,,,,,,219.3399,14,0.347,,up,1.5,,stimuli/card_10_transparent.png,1040,10,14,0,14,0,1,,,,,,,,,,,,,,,,,,,,,,,,,,,,,,,,,,,,,,,,,,,,
,,,,65d50f9cda35b13ec1dfb63a,A,2024-07-01_11h15.30.323,Slot Machine Game,2023.1.3,Win32,61.34969325,,,,,,,,,,,,,,,,,"[6,15]","[[1,3,2],[3,1,2]]",227.017,0,0.2112,,left,1.5,,stimuli/card_100_transparent.png,100,100,0,0,0,0,1,,222.0202,,,,,,,,,,,,,,,,,,,,,,,,,,,,,,,,,,,,,,,,,,
,,,,65d50f9cda35b13ec1dfb63a,A,2024-07-01_11h15.30.323,Slot Machine Game,2023.1.3,Win32,61.34969325,,,,,,,,,,,,,,,,,,,229.5406,1,0.6163,,left,1.5,,stimuli/card_100_transparent.png,200,100,1,0,1,0,1,,,,,,,,,,,,,,,,,,,,,,,,,,,,,,,,,,,,,,,,,,,,
,,,,65d50f9cda35b13ec1dfb63a,A,2024-07-01_11h15.30.323,Slot Machine Game,2023.1.3,Win32,61.34969325,,,,,,,,,,,,,,,,,,,232.4906,2,0.2887,,left,1.5,,stimuli/card_100_transparent.png,300,100,2,0,2,0,1,,,,,,,,,,,,,,,,,,,,,,,,,,,,,,,,,,,,,,,,,,,,
,,,,65d50f9cda35b13ec1dfb63a,A,2024-07-01_11h15.30.323,Slot Machine Game,2023.1.3,Win32,61.34969325,,,,,,,,,,,,,,,,,,,235.1074,3,0.0994,,left,1,,stimuli/card_100_transparent.png,400,100,3,0,3,0,1,,,,,,,,,,,,,,,,,,,,,,,,,,,,,,,,,,,,,,,,,,,,
,,,,65d50f9cda35b13ec1dfb63a,A,2024-07-01_11h15.30.323,Slot Machine Game,2023.1.3,Win32,61.34969325,,,,,,,,,,,,,,,,,,,237.0407,4,0.1859,,left,0.5,,stimuli/card_100_transparent.png,500,100,4,0,4,0,1,,,,,,,,,,,,,,,,,,,,,,,,,,,,,,,,,,,,,,,,,,,,
,,,,65d50f9cda35b13ec1dfb63a,A,2024-07-01_11h15.30.323,Slot Machine Game,2023.1.3,Win32,61.34969325,,,,,,,,,,,,,,,,,,,238.5571,5,0.9202,,left,1,,stimuli/card_100_transparent.png,600,100,5,0,5,0,1,,,,,,,,,,,,,,,,,,,,,,,,,,,,,,,,,,,,,,,,,,,,
,,,,65d50f9cda35b13ec1dfb63a,A,2024-07-01_11h15.30.323,Slot Machine Game,2023.1.3,Win32,61.34969325,,,,,,,,,,,,,,,,,,,241.291,6,0.3405,,left,1,,stimuli/card_0_transparent.png,600,0,6,0,6,0,1,,,,,,,,,,,,,,,,,,,,,,,,,,,,,,,,,,,,,,,,,,,,
,,,,65d50f9cda35b13ec1dfb63a,A,2024-07-01_11h15.30.323,Slot Machine Game,2023.1.3,Win32,61.34969325,,,,,,,,,,,,,,,,,,,243.4577,7,0.1011,,up,1,,stimuli/card_10_transparent.png,610,10,7,0,7,0,1,,,,,,,,,,,,,,,,,,,,,,,,,,,,,,,,,,,,,,,,,,,,
,,,,65d50f9cda35b13ec1dfb63a,A,2024-07-01_11h15.30.323,Slot Machine Game,2023.1.3,Win32,61.34969325,,,,,,,,,,,,,,,,,,,245.3911,8,0.7333,,right,1,,stimuli/card_10_transparent.png,620,10,8,0,8,0,1,,,,,,,,,,,,,,,,,,,,,,,,,,,,,,,,,,,,,,,,,,,,
,,,,65d50f9cda35b13ec1dfb63a,A,2024-07-01_11h15.30.323,Slot Machine Game,2023.1.3,Win32,61.34969325,,,,,,,,,,,,,,,,,,,247.9577,9,0.984,,left,1,,stimuli/card_0_transparent.png,620,0,9,0,9,0,1,,,,,,,,,,,,,,,,,,,,,,,,,,,,,,,,,,,,,,,,,,,,
,,,,65d50f9cda35b13ec1dfb63a,A,2024-07-01_11h15.30.323,Slot Machine Game,2023.1.3,Win32,61.34969325,,,,,,,,,,,,,,,,,,,250.7743,10,0.3662,,up,1.5,,stimuli/card_100_transparent.png,720,100,10,0,10,0,1,,,,,,,,,,,,,,,,,,,,,,,,,,,,,,,,,,,,,,,,,,,,
,,,,65d50f9cda35b13ec1dfb63a,A,2024-07-01_11h15.30.323,Slot Machine Game,2023.1.3,Win32,61.34969325,,,,,,,,,,,,,,,,,,,253.4746,11,0.5335,,up,1,,stimuli/card_100_transparent.png,820,100,11,0,11,0,1,,,,,,,,,,,,,,,,,,,,,,,,,,,,,,,,,,,,,,,,,,,,
,,,,65d50f9cda35b13ec1dfb63a,A,2024-07-01_11h15.30.323,Slot Machine Game,2023.1.3,Win32,61.34969325,,,,,,,,,,,,,,,,,,,255.8413,12,0.8856,,up,1.5,,stimuli/card_10_transparent.png,830,10,12,0,12,0,1,,,,,,,,,,,,,,,,,,,,,,,,,,,,,,,,,,,,,,,,,,,,
,,,,65d50f9cda35b13ec1dfb63a,A,2024-07-01_11h15.30.323,Slot Machine Game,2023.1.3,Win32,61.34969325,,,,,,,,,,,,,,,,,,,259.058,13,0.09,,left,0.5,,stimuli/card_0_transparent.png,830,0,13,0,13,0,1,,,,,,,,,,,,,,,,,,,,,,,,,,,,,,,,,,,,,,,,,,,,
,,,,65d50f9cda35b13ec1dfb63a,A,2024-07-01_11h15.30.323,Slot Machine Game,2023.1.3,Win32,61.34969325,,,,,,,,,,,,,,,,,,,260.4736,14,0.8845,,right,1,,stimuli/card_10_transparent.png,840,10,14,0,14,0,1,,,,,,,,,,,,,,,,,,,,,,,,,,,,,,,,,,,,,,,,,,,,
,,,,65d50f9cda35b13ec1dfb63a,A,2024-07-01_11h15.30.323,Slot Machine Game,2023.1.3,Win32,61.34969325,,,,,,,,,,,,,,,,,,,,,,,,,,,,,,,,,,,263.1741,,,268.1758,space,2.1397,,,,,,,,,,,,,,,,,,,,,,,,,,,,,,,,,,,,,
,,,,65d50f9cda35b13ec1dfb63a,A,2024-07-01_11h15.30.323,Slot Machine Game,2023.1.3,Win32,61.34969325,,,,,,,,,,,,,,,,,,,,,,,,,,,,,,,,,,,,,,,,,,270.3244,2,"[2,4,8,0,1,3,9,6,8,5]",space,1.7786,,,,,,,,,,,,,,,,,,,,,,,,,,,,,,,
,,,,65d50f9cda35b13ec1dfb63a,A,2024-07-01_11h15.30.323,Slot Machine Game,2023.1.3,Win32,61.34969325,,,,,,,,,,,,,,,,,,,,,,,,,,,0,,,,,,,,,,,,,,,,,,,,,1,3,"[15,15]","[[3,1,2],[3,1,2]]",272.1365,0,left,0.0564,,1,0.3,"[3,1,2]",0.272121101,stimuli/card_0_transparent.png,0,0,0,0,0,1,,,,,,,,,,
,,,,65d50f9cda35b13ec1dfb63a,A,2024-07-01_11h15.30.323,Slot Machine Game,2023.1.3,Win32,61.34969325,,,,,,,,,,,,,,,,,,,,,,,,,,,100,,,,,,,,,,,,,,,,,,,,,1,3,,,274.0085,1,up,0.6231,,1,0.3,"[3,1,2]",0.422570245,stimuli/card_100_transparent.png,100,1,0,1,0,1,,,,,,,,,,
,,,,65d50f9cda35b13ec1dfb63a,A,2024-07-01_11h15.30.323,Slot Machine Game,2023.1.3,Win32,61.34969325,,,,,,,,,,,,,,,,,,,,,,,,,,,200,,,,,,,,,,,,,,,,,,,,,1,3,,,276.4583,2,up,0.4853,,0.5,0.3,"[3,1,2]",0.390059718,stimuli/card_100_transparent.png,100,2,0,2,0,1,,,,,,,,,,
,,,,65d50f9cda35b13ec1dfb63a,A,2024-07-01_11h15.30.323,Slot Machine Game,2023.1.3,Win32,61.34969325,,,,,,,,,,,,,,,,,,,,,,,,,,,300,,,,,,,,,,,,,,,,,,,,,1,3,,,278.2751,3,up,0.7356,,1,0.3,"[3,1,2]",0.444514218,stimuli/card_100_transparent.png,100,3,0,3,0,1,,,,,,,,,,
,,,,65d50f9cda35b13ec1dfb63a,A,2024-07-01_11h15.30.323,Slot Machine Game,2023.1.3,Win32,61.34969325,,,,,,,,,,,,,,,,,,,,,,,,,,,400,,,,,,,,,,,,,,,,,,,,,1,3,,,280.8418,4,up,0.445,,0.5,0.3,"[3,1,2]",0.785328117,stimuli/card_100_transparent.png,100,4,0,4,0,1,,,,,,,,,,
,,,,65d50f9cda35b13ec1dfb63a,A,2024-07-01_11h15.30.323,Slot Machine Game,2023.1.3,Win32,61.34969325,,,,,,,,,,,,,,,,,,,,,,,,,,,500,,,,,,,,,,,,,,,,,,,,,1,3,,,282.6083,5,up,0.7331,,1.5,0.3,"[3,1,2]",0.817292445,stimuli/card_100_transparent.png,100,5,0,5,0,1,,,,,,,,,,
,,,,65d50f9cda35b13ec1dfb63a,A,2024-07-01_11h15.30.323,Slot Machine Game,2023.1.3,Win32,61.34969325,,,,,,,,,,,,,,,,,,,,,,,,,,,510,,,,,,,,,,,,,,,,,,,,,1,3,,,285.6751,6,up,0.3993,,1.5,0.3,"[3,1,2]",0.138623513,stimuli/card_10_transparent.png,10,6,0,6,0,1,,,,,,,,,,
,,,,65d50f9cda35b13ec1dfb63a,A,2024-07-01_11h15.30.323,Slot Machine Game,2023.1.3,Win32,61.34969325,,,,,,,,,,,,,,,,,,,,,,,,,,,520,,,,,,,,,,,,,,,,,,,,,1,3,,,288.4085,7,right,0.4604,,0.5,0.3,"[3,1,2]",0.650392028,stimuli/card_10_transparent.png,10,7,0,7,0,1,,,,,,,,,,
,,,,65d50f9cda35b13ec1dfb63a,A,2024-07-01_11h15.30.323,Slot Machine Game,2023.1.3,Win32,61.34969325,,,,,,,,,,,,,,,,,,,,,,,,,,,520,,,,,,,,,,,,,,,,,,,,,1,3,,,290.1919,8,left,0.368,,1,0.3,"[3,1,2]",0.763353732,stimuli/card_0_transparent.png,0,8,0,8,0,1,,,,,,,,,,
,,,,65d50f9cda35b13ec1dfb63a,A,2024-07-01_11h15.30.323,Slot Machine Game,2023.1.3,Win32,61.34969325,,,,,,,,,,,,,,,,,,,,,,,,,,,620,,,,,,,,,,,,,,,,,,,,,1,3,,,292.3921,9,up,0.2496,,1.5,0.3,"[3,1,2]",0.265164543,stimuli/card_100_transparent.png,100,9,0,9,0,1,,,,,,,,,,
,,,,65d50f9cda35b13ec1dfb63a,A,2024-07-01_11h15.30.323,Slot Machine Game,2023.1.3,Win32,61.34969325,,,,,,,,,,,,,,,,,,,,,,,,,,,720,,,,,,,,,,,,,,,,,,,,,1,3,,,294.9752,10,up,0.2091,,1.5,0.3,"[3,1,2]",0.611955694,stimuli/card_100_transparent.png,100,10,0,10,0,1,,,,,,,,,,
,,,,65d50f9cda35b13ec1dfb63a,A,2024-07-01_11h15.30.323,Slot Machine Game,2023.1.3,Win32,61.34969325,,,,,,,,,,,,,,,,,,,,,,,,,,,730,,,,,,,,,,,,,,,,,,,,,1,3,,,297.5088,11,up,0.5493,,1.5,0.3,"[3,1,2]",0.157005117,stimuli/card_10_transparent.png,10,11,0,11,0,1,,,,,,,,,,
,,,,65d50f9cda35b13ec1dfb63a,A,2024-07-01_11h15.30.323,Slot Machine Game,2023.1.3,Win32,61.34969325,,,,,,,,,,,,,,,,,,,,,,,,,,,730,,,,,,,,,,,,,,,,,,,,,1,3,,,300.3923,12,left,0.3531,,1.5,0.3,"[3,1,2]",0.977919507,stimuli/card_0_transparent.png,0,12,0,12,0,1,,,,,,,,,,
,,,,65d50f9cda35b13ec1dfb63a,A,2024-07-01_11h15.30.323,Slot Machine Game,2023.1.3,Win32,61.34969325,,,,,,,,,,,,,,,,,,,,,,,,,,,830,,,,,,,,,,,,,,,,,,,,,1,3,,,303.0754,13,up,0.7274,,1,0.3,"[3,1,2]",0.795459936,stimuli/card_100_transparent.png,100,13,0,13,0,1,,,,,,,,,,
,,,,65d50f9cda35b13ec1dfb63a,A,2024-07-01_11h15.30.323,Slot Machine Game,2023.1.3,Win32,61.34969325,,,,,,,,,,,,,,,,,,,,,,,,,,,830,,,,,,,,,,,,,,,,,,,,,1,3,,,305.6255,14,up,0.0831,,0.5,0.3,"[3,1,2]",0.09043095,stimuli/card_0_transparent.png,0,14,0,14,0,1,,,,,,,,,,
,,,,65d50f9cda35b13ec1dfb63a,A,2024-07-01_11h15.30.323,Slot Machine Game,2023.1.3,Win32,61.34969325,,,,,,,,,,,,,,,,,,,,,,,,,,,,,,,,,,,307.0423,,,,,,,,,,,,,,,,,,,,,,,,,,,,,,,,,[830],0,0,0,0,1,,,,
,,,,65d50f9cda35b13ec1dfb63a,A,2024-07-01_11h15.30.323,Slot Machine Game,2023.1.3,Win32,61.34969325,,,,,,,,,,,,,,,,,,,,,,,,,,,100,,,,,,,,,,,,,,,,,,,,,2,5,"[5,15]","[[1,2,3],[3,1,2]]",312.0526,0,left,0.4837,,1.5,0.3,"[1,2,3]",0.624617022,stimuli/card_100_transparent.png,100,0,0,0,0,1,,,,,,,,,,
,,,,65d50f9cda35b13ec1dfb63a,A,2024-07-01_11h15.30.323,Slot Machine Game,2023.1.3,Win32,61.34969325,,,,,,,,,,,,,,,,,,,,,,,,,,,200,,,,,,,,,,,,,,,,,,,,,2,5,,,314.8586,1,left,0.5162,,1,0.3,"[1,2,3]",0.675710281,stimuli/card_100_transparent.png,100,1,0,1,0,1,,,,,,,,,,
,,,,65d50f9cda35b13ec1dfb63a,A,2024-07-01_11h15.30.323,Slot Machine Game,2023.1.3,Win32,61.34969325,,,,,,,,,,,,,,,,,,,,,,,,,,,300,,,,,,,,,,,,,,,,,,,,,2,5,,,317.1926,2,left,0.5236,,0.5,0.3,"[1,2,3]",0.853677171,stimuli/card_100_transparent.png,100,2,0,2,0,1,,,,,,,,,,
,,,,65d50f9cda35b13ec1dfb63a,A,2024-07-01_11h15.30.323,Slot Machine Game,2023.1.3,Win32,61.34969325,,,,,,,,,,,,,,,,,,,,,,,,,,,400,,,,,,,,,,,,,,,,,,,,,2,5,,,319.0425,3,left,0.3261,,1,0.3,"[1,2,3]",0.857488223,stimuli/card_100_transparent.png,100,3,0,3,0,1,,,,,,,,,,
,,,,65d50f9cda35b13ec1dfb63a,A,2024-07-01_11h15.30.323,Slot Machine Game,2023.1.3,Win32,61.34969325,,,,,,,,,,,,,,,,,,,,,,,,,,,500,,,,,,,,,,,,,,,,,,,,,2,5,,,321.1927,4,left,0.6534,,0.5,0.3,"[1,2,3]",0.777490158,stimuli/card_100_transparent.png,100,4,0,4,0,1,,,,,,,,,,
,,,,65d50f9cda35b13ec1dfb63a,A,2024-07-01_11h15.30.323,Slot Machine Game,2023.1.3,Win32,61.34969325,,,,,,,,,,,,,,,,,,,,,,,,,,,600,,,,,,,,,,,,,,,,,,,,,2,5,,,323.1755,5,left,0.8496,,1,0.3,"[3,1,2]",0.097351637,stimuli/card_100_transparent.png,100,5,0,5,0,1,,,,,,,,,,
,,,,65d50f9cda35b13ec1dfb63a,A,2024-07-01_11h15.30.323,Slot Machine Game,2023.1.3,Win32,61.34969325,,,,,,,,,,,,,,,,,,,,,,,,,,,600,,,,,,,,,,,,,,,,,,,,,2,5,,,325.8592,6,left,0.2396,,1,0.3,"[3,1,2]",0.990350159,stimuli/card_0_transparent.png,0,6,0,6,0,1,,,,,,,,,,
,,,,65d50f9cda35b13ec1dfb63a,A,2024-07-01_11h15.30.323,Slot Machine Game,2023.1.3,Win32,61.34969325,,,,,,,,,,,,,,,,,,,,,,,,,,,700,,,,,,,,,,,,,,,,,,,,,2,5,,,327.926,7,up,0.0778,,0.5,0.3,"[3,1,2]",0.324252335,stimuli/card_100_transparent.png,100,7,0,7,0,1,,,,,,,,,,
,,,,65d50f9cda35b13ec1dfb63a,A,2024-07-01_11h15.30.323,Slot Machine Game,2023.1.3,Win32,61.34969325,,,,,,,,,,,,,,,,,,,,,,,,,,,800,,,,,,,,,,,,,,,,,,,,,2,5,,,329.3259,8,up,0.5992,,1.5,0.3,"[3,1,2]",0.387665027,stimuli/card_100_transparent.png,100,8,0,8,0,1,,,,,,,,,,
,,,,65d50f9cda35b13ec1dfb63a,A,2024-07-01_11h15.30.323,Slot Machine Game,2023.1.3,Win32,61.34969325,,,,,,,,,,,,,,,,,,,,,,,,,,,900,,,,,,,,,,,,,,,,,,,,,2,5,,,332.2595,9,up,0.4279,,0.5,0.3,"[3,1,2]",0.553078746,stimuli/card_100_transparent.png,100,9,0,9,0,1,,,,,,,,,,
,,,,65d50f9cda35b13ec1dfb63a,A,2024-07-01_11h15.30.323,Slot Machine Game,2023.1.3,Win32,61.34969325,,,,,,,,,,,,,,,,,,,,,,,,,,,1000,,,,,,,,,,,,,,,,,,,,,2,5,,,334.0093,10,up,0.6829,,0.5,0.3,"[3,1,2]",0.985887555,stimuli/card_100_transparent.png,100,10,0,10,0,1,,,,,,,,,,
,,,,65d50f9cda35b13ec1dfb63a,A,2024-07-01_11h15.30.323,Slot Machine Game,2023.1.3,Win32,61.34969325,,,,,,,,,,,,,,,,,,,,,,,,,,,1010,,,,,,,,,,,,,,,,,,,,,2,5,,,336.0094,11,up,0.5447,,1,0.3,"[3,1,2]",0.10442407,stimuli/card_10_transparent.png,10,11,0,11,0,1,,,,,,,,,,
,,,,65d50f9cda35b13ec1dfb63a,A,2024-07-01_11h15.30.323,Slot Machine Game,2023.1.3,Win32,61.34969325,,,,,,,,,,,,,,,,,,,,,,,,,,,1110,,,,,,,,,,,,,,,,,,,,,2,5,,,338.3761,12,left,0.9891,,1,0.3,"[3,1,2]",0.032000956,stimuli/card_100_transparent.png,100,12,0,12,0,1,,,,,,,,,,
,,,,65d50f9cda35b13ec1dfb63a,A,2024-07-01_11h15.30.323,Slot Machine Game,2023.1.3,Win32,61.34969325,,,,,,,,,,,,,,,,,,,,,,,,,,,1110,,,,,,,,,,,,,,,,,,,,,2,5,,,341.1762,13,left,0.6992,,1.5,0.3,"[3,1,2]",0.947592748,stimuli/card_0_transparent.png,0,13,0,13,0,1,,,,,,,,,,
,,,,65d50f9cda35b13ec1dfb63a,A,2024-07-01_11h15.30.323,Slot Machine Game,2023.1.3,Win32,61.34969325,,,,,,,,,,,,,,,,,,,,,,,,,,,1210,,,,,,,,,,,,,,,,,,,,,2,5,,,344.2099,14,up,0.9686,,1,0.3,"[3,1,2]",0.280133862,stimuli/card_100_transparent.png,100,14,0,14,0,1,,,,,,,,,,
,,,,65d50f9cda35b13ec1dfb63a,A,2024-07-01_11h15.30.323,Slot Machine Game,2023.1.3,Win32,61.34969325,,,,,,,,,,,,,,,,,,,,,,,,,,,,,,,,,,,347.0098,,,,,,,,,,,,,,,,,,,,,,,,,,,,,,,,,"[830,1210]",1,0,1,0,1,,,,
,,,,65d50f9cda35b13ec1dfb63a,A,2024-07-01_11h15.30.323,Slot Machine Game,2023.1.3,Win32,61.34969325,,,,,,,,,,,,,,,,,,,,,,,,,,,0,,,,,,,,,,,,,,,,,,,,,3,9,"[8,15]","[[3,2,1],[3,1,2]]",352.0203,0,left,0.1965,,1.5,0.3,"[3,2,1]",0.314250331,stimuli/card_0_transparent.png,0,0,0,0,0,1,,,,,,,,,,
,,,,65d50f9cda35b13ec1dfb63a,A,2024-07-01_11h15.30.323,Slot Machine Game,2023.1.3,Win32,61.34969325,,,,,,,,,,,,,,,,,,,,,,,,,,,10,,,,,,,,,,,,,,,,,,,,,3,9,,,354.5258,1,up,1.0794,,1.5,0.3,"[3,2,1]",0.457264514,stimuli/card_10_transparent.png,10,1,0,1,0,1,,,,,,,,,,
,,,,65d50f9cda35b13ec1dfb63a,A,2024-07-01_11h15.30.323,Slot Machine Game,2023.1.3,Win32,61.34969325,,,,,,,,,,,,,,,,,,,,,,,,,,,110,,,,,,,,,,,,,,,,,,,,,3,9,,,357.9266,2,right,0.2332,,1.5,0.3,"[3,2,1]",0.238361788,stimuli/card_100_transparent.png,100,2,0,2,0,1,,,,,,,,,,
,,,,65d50f9cda35b13ec1dfb63a,A,2024-07-01_11h15.30.323,Slot Machine Game,2023.1.3,Win32,61.34969325,,,,,,,,,,,,,,,,,,,,,,,,,,,210,,,,,,,,,,,,,,,,,,,,,3,9,,,360.4933,3,right,0.2908,,1,0.3,"[3,2,1]",0.340321412,stimuli/card_100_transparent.png,100,3,0,3,0,1,,,,,,,,,,
,,,,65d50f9cda35b13ec1dfb63a,A,2024-07-01_11h15.30.323,Slot Machine Game,2023.1.3,Win32,61.34969325,,,,,,,,,,,,,,,,,,,,,,,,,,,310,,,,,,,,,,,,,,,,,,,,,3,9,,,362.6099,4,right,0.1785,,0.5,0.3,"[3,2,1]",0.643417462,stimuli/card_100_transparent.png,100,4,0,4,0,1,,,,,,,,,,
,,,,65d50f9cda35b13ec1dfb63a,A,2024-07-01_11h15.30.323,Slot Machine Game,2023.1.3,Win32,61.34969325,,,,,,,,,,,,,,,,,,,,,,,,,,,410,,,,,,,,,,,,,,,,,,,,,3,9,,,364.1103,5,right,1.0375,,0.5,0.3,"[3,2,1]",0.825370225,stimuli/card_100_transparent.png,100,5,0,5,0,1,,,,,,,,,,
,,,,65d50f9cda35b13ec1dfb63a,A,2024-07-01_11h15.30.323,Slot Machine Game,2023.1.3,Win32,61.34969325,,,,,,,,,,,,,,,,,,,,,,,,,,,510,,,,,,,,,,,,,,,,,,,,,3,9,,,366.4767,6,right,0.5334,,0.5,0.3,"[3,2,1]",0.799056083,stimuli/card_100_transparent.png,100,6,0,6,0,1,,,,,,,,,,
,,,,65d50f9cda35b13ec1dfb63a,A,2024-07-01_11h15.30.323,Slot Machine Game,2023.1.3,Win32,61.34969325,,,,,,,,,,,,,,,,,,,,,,,,,,,610,,,,,,,,,,,,,,,,,,,,,3,9,,,368.3437,7,right,0.7094,,1,0.3,"[3,2,1]",0.765289605,stimuli/card_100_transparent.png,100,7,0,7,0,1,,,,,,,,,,
,,,,65d50f9cda35b13ec1dfb63a,A,2024-07-01_11h15.30.323,Slot Machine Game,2023.1.3,Win32,61.34969325,,,,,,,,,,,,,,,,,,,,,,,,,,,710,,,,,,,,,,,,,,,,,,,,,3,9,,,370.8768,8,right,0.184,,0.5,0.3,"[3,1,2]",0.172845571,stimuli/card_100_transparent.png,100,8,0,8,0,1,,,,,,,,,,
,,,,65d50f9cda35b13ec1dfb63a,A,2024-07-01_11h15.30.323,Slot Machine Game,2023.1.3,Win32,61.34969325,,,,,,,,,,,,,,,,,,,,,,,,,,,720,,,,,,,,,,,,,,,,,,,,,3,9,,,372.3934,9,right,0.5677,,0.5,0.3,"[3,1,2]",0.716057732,stimuli/card_10_transparent.png,10,9,0,9,0,1,,,,,,,,,,
,,,,65d50f9cda35b13ec1dfb63a,A,2024-07-01_11h15.30.323,Slot Machine Game,2023.1.3,Win32,61.34969325,,,,,,,,,,,,,,,,,,,,,,,,,,,820,,,,,,,,,,,,,,,,,,,,,3,9,,,374.2934,10,up,0.8208,,1,0.3,"[3,1,2]",0.487819351,stimuli/card_100_transparent.png,100,10,0,10,0,1,,,,,,,,,,
,,,,65d50f9cda35b13ec1dfb63a,A,2024-07-01_11h15.30.323,Slot Machine Game,2023.1.3,Win32,61.34969325,,,,,,,,,,,,,,,,,,,,,,,,,,,920,,,,,,,,,,,,,,,,,,,,,3,9,,,376.9436,11,up,0.3954,,0.5,0.3,"[3,1,2]",0.955216719,stimuli/card_100_transparent.png,100,11,0,11,0,1,,,,,,,,,,
,,,,65d50f9cda35b13ec1dfb63a,A,2024-07-01_11h15.30.323,Slot Machine Game,2023.1.3,Win32,61.34969325,,,,,,,,,,,,,,,,,,,,,,,,,,,1020,,,,,,,,,,,,,,,,,,,,,3,9,,,378.6604,12,up,0.6664,,0.5,0.3,"[3,1,2]",0.916901725,stimuli/card_100_transparent.png,100,12,0,12,0,1,,,,,,,,,,
,,,,65d50f9cda35b13ec1dfb63a,A,2024-07-01_11h15.30.323,Slot Machine Game,2023.1.3,Win32,61.34969325,,,,,,,,,,,,,,,,,,,,,,,,,,,1030,,,,,,,,,,,,,,,,,,,,,3,9,,,380.66,13,up,0.1001,,0.5,0.3,"[3,1,2]",0.131019927,stimuli/card_10_transparent.png,10,13,0,13,0,1,,,,,,,,,,
,,,,65d50f9cda35b13ec1dfb63a,A,2024-07-01_11h15.30.323,Slot Machine Game,2023.1.3,Win32,61.34969325,,,,,,,,,,,,,,,,,,,,,,,,,,,1030,,,,,,,,,,,,,,,,,,,,,3,9,,,382.0772,14,right,1.1493,,0.5,0.3,"[3,1,2]",0.064979104,stimuli/card_0_transparent.png,0,14,0,14,0,1,,,,,,,,,,
,,,,65d50f9cda35b13ec1dfb63a,A,2024-07-01_11h15.30.323,Slot Machine Game,2023.1.3,Win32,61.34969325,,,,,,,,,,,,,,,,,,,,,,,,,,,,,,,,,,,384.5603,,,,,,,,,,,,,,,,,,,,,,,,,,,,,,,,,"[830,1210,1030]",2,0,2,0,1,,,,
,,,,65d50f9cda35b13ec1dfb63a,A,2024-07-01_11h15.30.323,Slot Machine Game,2023.1.3,Win32,61.34969325,,,,,,,,,,,,,,,,,,,,,,,,,,,10,,,,,,,,,,,,,,,,,,,,,4,1,"[12,15]","[[2,1,3],[2,3,1]]",389.571,0,left,0.2412,,1.5,0.3,"[2,1,3]",0.250526188,stimuli/card_10_transparent.png,10,0,0,0,0,1,,,,,,,,,,
,,,,65d50f9cda35b13ec1dfb63a,A,2024-07-01_11h15.30.323,Slot Machine Game,2023.1.3,Win32,61.34969325,,,,,,,,,,,,,,,,,,,,,,,,,,,110,,,,,,,,,,,,,,,,,,,,,4,1,,,392.1272,1,up,0.616,,1,0.3,"[2,1,3]",0.876366976,stimuli/card_100_transparent.png,100,1,0,1,0,1,,,,,,,,,,
,,,,65d50f9cda35b13ec1dfb63a,A,2024-07-01_11h15.30.323,Slot Machine Game,2023.1.3,Win32,61.34969325,,,,,,,,,,,,,,,,,,,,,,,,,,,210,,,,,,,,,,,,,,,,,,,,,4,1,,,394.561,2,up,0.4005,,1.5,0.3,"[2,1,3]",0.484765188,stimuli/card_100_transparent.png,100,2,0,2,0,1,,,,,,,,,,
,,,,65d50f9cda35b13ec1dfb63a,A,2024-07-01_11h15.30.323,Slot Machine Game,2023.1.3,Win32,61.34969325,,,,,,,,,,,,,,,,,,,,,,,,,,,210,,,,,,,,,,,,,,,,,,,,,4,1,,,397.294,3,up,0.5992,,1,0.3,"[2,1,3]",0.02098751,stimuli/card_0_transparent.png,0,3,0,3,0,1,,,,,,,,,,
,,,,65d50f9cda35b13ec1dfb63a,A,2024-07-01_11h15.30.323,Slot Machine Game,2023.1.3,Win32,61.34969325,,,,,,,,,,,,,,,,,,,,,,,,,,,220,,,,,,,,,,,,,,,,,,,,,4,1,,,399.7261,4,left,1.441,,0.5,0.3,"[2,1,3]",0.295148893,stimuli/card_10_transparent.png,10,4,0,4,0,1,,,,,,,,,,
,,,,65d50f9cda35b13ec1dfb63a,A,2024-07-01_11h15.30.323,Slot Machine Game,2023.1.3,Win32,61.34969325,,,,,,,,,,,,,,,,,,,,,,,,,,,230,,,,,,,,,,,,,,,,,,,,,4,1,,,402.4767,5,right,0.5448,,1,0.3,"[2,1,3]",0.196531658,stimuli/card_10_transparent.png,10,5,0,5,0,1,,,,,,,,,,
,,,,65d50f9cda35b13ec1dfb63a,A,2024-07-01_11h15.30.323,Slot Machine Game,2023.1.3,Win32,61.34969325,,,,,,,,,,,,,,,,,,,,,,,,,,,330,,,,,,,,,,,,,,,,,,,,,4,1,,,404.8276,6,up,1.1937,,1.5,0.3,"[2,1,3]",0.98212853,stimuli/card_100_transparent.png,100,6,0,6,0,1,,,,,,,,,,
,,,,65d50f9cda35b13ec1dfb63a,A,2024-07-01_11h15.30.323,Slot Machine Game,2023.1.3,Win32,61.34969325,,,,,,,,,,,,,,,,,,,,,,,,,,,430,,,,,,,,,,,,,,,,,,,,,4,1,,,408.3443,7,up,1.1849,,1,0.3,"[2,1,3]",0.982708502,stimuli/card_100_transparent.png,100,7,0,7,0,1,,,,,,,,,,
,,,,65d50f9cda35b13ec1dfb63a,A,2024-07-01_11h15.30.323,Slot Machine Game,2023.1.3,Win32,61.34969325,,,,,,,,,,,,,,,,,,,,,,,,,,,530,,,,,,,,,,,,,,,,,,,,,4,1,,,411.3604,8,up,1.6656,,0.5,0.3,"[2,1,3]",0.60751869,stimuli/card_100_transparent.png,100,8,0,8,0,1,,,,,,,,,,
,,,,65d50f9cda35b13ec1dfb63a,A,2024-07-01_11h15.30.323,Slot Machine Game,2023.1.3,Win32,61.34969325,,,,,,,,,,,,,,,,,,,,,,,,,,,630,,,,,,,,,,,,,,,,,,,,,4,1,,,414.3444,9,up,1.2944,,1,0.3,"[2,1,3]",0.253093807,stimuli/card_100_transparent.png,100,9,0,9,0,1,,,,,,,,,,
,,,,65d50f9cda35b13ec1dfb63a,A,2024-07-01_11h15.30.323,Slot Machine Game,2023.1.3,Win32,61.34969325,,,,,,,,,,,,,,,,,,,,,,,,,,,730,,,,,,,,,,,,,,,,,,,,,4,1,,,417.4611,10,up,1.5781,,0.5,0.3,"[2,1,3]",0.943994759,stimuli/card_100_transparent.png,100,10,0,10,0,1,,,,,,,,,,
,,,,65d50f9cda35b13ec1dfb63a,A,2024-07-01_11h15.30.323,Slot Machine Game,2023.1.3,Win32,61.34969325,,,,,,,,,,,,,,,,,,,,,,,,,,,830,,,,,,,,,,,,,,,,,,,,,4,1,,,420.3612,11,up,1.166,,0.5,0.3,"[2,1,3]",0.453981714,stimuli/card_100_transparent.png,100,11,0,11,0,1,,,,,,,,,,
,,,,65d50f9cda35b13ec1dfb63a,A,2024-07-01_11h15.30.323,Slot Machine Game,2023.1.3,Win32,61.34969325,,,,,,,,,,,,,,,,,,,,,,,,,,,830,,,,,,,,,,,,,,,,,,,,,4,1,,,422.8611,12,up,1.6051,,1,0.3,"[2,3,1]",0.291842667,stimuli/card_0_transparent.png,0,12,0,12,0,1,,,,,,,,,,
,,,,65d50f9cda35b13ec1dfb63a,A,2024-07-01_11h15.30.323,Slot Machine Game,2023.1.3,Win32,61.34969325,,,,,,,,,,,,,,,,,,,,,,,,,,,830,,,,,,,,,,,,,,,,,,,,,4,1,,,426.2946,13,up,0.834,,1.5,0.3,"[2,3,1]",0.603171518,stimuli/card_0_transparent.png,0,13,0,13,0,1,,,,,,,,,,
,,,,65d50f9cda35b13ec1dfb63a,A,2024-07-01_11h15.30.323,Slot Machine Game,2023.1.3,Win32,61.34969325,,,,,,,,,,,,,,,,,,,,,,,,,,,930,,,,,,,,,,,,,,,,,,,,,4,1,,,429.4614,14,right,1.093,,1,0.3,"[2,3,1]",0.403970072,stimuli/card_100_transparent.png,100,14,0,14,0,1,,,,,,,,,,
,,,,65d50f9cda35b13ec1dfb63a,A,2024-07-01_11h15.30.323,Slot Machine Game,2023.1.3,Win32,61.34969325,,,,,,,,,,,,,,,,,,,,,,,,,,,,,,,,,,,432.378,,,,,,,,,,,,,,,,,,,,,,,,,,,,,,,,,"[830,1210,1030,930]",3,0,3,0,1,,,,
,,,,65d50f9cda35b13ec1dfb63a,A,2024-07-01_11h15.30.323,Slot Machine Game,2023.1.3,Win32,61.34969325,,,,,,,,,,,,,,,,,,,,,,,,,,,100,,,,,,,,,,,,,,,,,,,,,5,2,"[6,15]","[[1,3,2],[3,2,1]]",437.3887,0,left,0.233,,1,0.3,"[1,3,2]",0.517805993,stimuli/card_100_transparent.png,100,0,0,0,0,1,,,,,,,,,,
,,,,65d50f9cda35b13ec1dfb63a,A,2024-07-01_11h15.30.323,Slot Machine Game,2023.1.3,Win32,61.34969325,,,,,,,,,,,,,,,,,,,,,,,,,,,200,,,,,,,,,,,,,,,,,,,,,5,2,,,439.4448,1,left,0.7333,,0.5,0.3,"[1,3,2]",0.488644446,stimuli/card_100_transparent.png,100,1,0,1,0,1,,,,,,,,,,
,,,,65d50f9cda35b13ec1dfb63a,A,2024-07-01_11h15.30.323,Slot Machine Game,2023.1.3,Win32,61.34969325,,,,,,,,,,,,,,,,,,,,,,,,,,,210,,,,,,,,,,,,,,,,,,,,,5,2,,,441.5116,2,left,1.9817,,1,0.3,"[1,3,2]",0.168100579,stimuli/card_10_transparent.png,10,2,0,2,0,1,,,,,,,,,,
,,,,65d50f9cda35b13ec1dfb63a,A,2024-07-01_11h15.30.323,Slot Machine Game,2023.1.3,Win32,61.34969325,,,,,,,,,,,,,,,,,,,,,,,,,,,210,,,,,,,,,,,,,,,,,,,,,5,2,,,445.3284,3,up,0.0277,,1.5,0.3,"[1,3,2]",0.810961487,stimuli/card_0_transparent.png,0,3,0,3,0,1,,,,,,,,,,
,,,,65d50f9cda35b13ec1dfb63a,A,2024-07-01_11h15.30.323,Slot Machine Game,2023.1.3,Win32,61.34969325,,,,,,,,,,,,,,,,,,,,,,,,,,,220,,,,,,,,,,,,,,,,,,,,,5,2,,,447.6783,4,right,1.7056,,1,0.3,"[1,3,2]",0.868263874,stimuli/card_10_transparent.png,10,4,0,4,0,1,,,,,,,,,,
,,,,65d50f9cda35b13ec1dfb63a,A,2024-07-01_11h15.30.323,Slot Machine Game,2023.1.3,Win32,61.34969325,,,,,,,,,,,,,,,,,,,,,,,,,,,320,,,,,,,,,,,,,,,,,,,,,5,2,,,451.2117,5,left,1.5496,,1.5,0.3,"[1,3,2]",0.74586913,stimuli/card_100_transparent.png,100,5,0,5,0,1,,,,,,,,,,
,,,,65d50f9cda35b13ec1dfb63a,A,2024-07-01_11h15.30.323,Slot Machine Game,2023.1.3,Win32,61.34969325,,,,,,,,,,,,,,,,,,,,,,,,,,,320,,,,,,,,,,,,,,,,,,,,,5,2,,,455.095,6,left,1.1001,,1,0.3,"[3,2,1]",0.845128176,stimuli/card_0_transparent.png,0,6,0,6,0,1,,,,,,,,,,
,,,,65d50f9cda35b13ec1dfb63a,A,2024-07-01_11h15.30.323,Slot Machine Game,2023.1.3,Win32,61.34969325,,,,,,,,,,,,,,,,,,,,,,,,,,,320,,,,,,,,,,,,,,,,,,,,,5,2,,,458.0283,7,left,0.1687,,1,0.3,"[3,2,1]",0.950003656,stimuli/card_0_transparent.png,0,7,0,7,0,1,,,,,,,,,,
,,,,65d50f9cda35b13ec1dfb63a,A,2024-07-01_11h15.30.323,Slot Machine Game,2023.1.3,Win32,61.34969325,,,,,,,,,,,,,,,,,,,,,,,,,,,330,,,,,,,,,,,,,,,,,,,,,5,2,,,460.0118,8,up,1.4857,,1,0.3,"[3,2,1]",0.989746051,stimuli/card_10_transparent.png,10,8,0,8,0,1,,,,,,,,,,
,,,,65d50f9cda35b13ec1dfb63a,A,2024-07-01_11h15.30.323,Slot Machine Game,2023.1.3,Win32,61.34969325,,,,,,,,,,,,,,,,,,,,,,,,,,,330,,,,,,,,,,,,,,,,,,,,,5,2,,,463.3287,9,left,1.3504,,1.5,0.3,"[3,2,1]",0.73989971,stimuli/card_0_transparent.png,0,9,0,9,0,1,,,,,,,,,,
,,,,65d50f9cda35b13ec1dfb63a,A,2024-07-01_11h15.30.323,Slot Machine Game,2023.1.3,Win32,61.34969325,,,,,,,,,,,,,,,,,,,,,,,,,,,430,,,,,,,,,,,,,,,,,,,,,5,2,,,467.0122,10,right,0.9578,,1.5,0.3,"[3,2,1]",0.339510799,stimuli/card_100_transparent.png,100,10,0,10,0,1,,,,,,,,,,
,,,,65d50f9cda35b13ec1dfb63a,A,2024-07-01_11h15.30.323,Slot Machine Game,2023.1.3,Win32,61.34969325,,,,,,,,,,,,,,,,,,,,,,,,,,,530,,,,,,,,,,,,,,,,,,,,,5,2,,,470.2954,11,right,1.3312,,1,0.3,"[3,2,1]",0.387591875,stimuli/card_100_transparent.png,100,11,0,11,0,1,,,,,,,,,,
,,,,65d50f9cda35b13ec1dfb63a,A,2024-07-01_11h15.30.323,Slot Machine Game,2023.1.3,Win32,61.34969325,,,,,,,,,,,,,,,,,,,,,,,,,,,630,,,,,,,,,,,,,,,,,,,,,5,2,,,473.4623,12,right,0.6166,,1,0.3,"[3,2,1]",0.3991949,stimuli/card_100_transparent.png,100,12,0,12,0,1,,,,,,,,,,
,,,,65d50f9cda35b13ec1dfb63a,A,2024-07-01_11h15.30.323,Slot Machine Game,2023.1.3,Win32,61.34969325,,,,,,,,,,,,,,,,,,,,,,,,,,,730,,,,,,,,,,,,,,,,,,,,,5,2,,,475.9124,13,right,1.0167,,1,0.3,"[3,2,1]",0.201384453,stimuli/card_100_transparent.png,100,13,0,13,0,1,,,,,,,,,,
,,,,65d50f9cda35b13ec1dfb63a,A,2024-07-01_11h15.30.323,Slot Machine Game,2023.1.3,Win32,61.34969325,,,,,,,,,,,,,,,,,,,,,,,,,,,830,,,,,,,,,,,,,,,,,,,,,5,2,,,478.7623,14,right,0.7543,,1,0.3,"[3,2,1]",0.655913463,stimuli/card_100_transparent.png,100,14,0,14,0,1,,,,,,,,,,
,,,,65d50f9cda35b13ec1dfb63a,A,2024-07-01_11h15.30.323,Slot Machine Game,2023.1.3,Win32,61.34969325,,,,,,,,,,,,,,,,,,,,,,,,,,,,,,,,,,,481.3458,,,,,,,,,,,,,,,,,,,,,,,,,,,,,,,,,"[830,1210,1030,930,830]",4,0,4,0,1,,,,
,,,,65d50f9cda35b13ec1dfb63a,A,2024-07-01_11h15.30.323,Slot Machine Game,2023.1.3,Win32,61.34969325,,,,,,,,,,,,,,,,,,,,,,,,,,,10,,,,,,,,,,,,,,,,,,,,,6,4,"[7,15]","[[2,3,1],[1,2,3]]",486.3559,0,left,0.5001,,1.5,0.3,"[2,3,1]",0.414499171,stimuli/card_10_transparent.png,10,0,0,0,0,1,,,,,,,,,,
,,,,65d50f9cda35b13ec1dfb63a,A,2024-07-01_11h15.30.323,Slot Machine Game,2023.1.3,Win32,61.34969325,,,,,,,,,,,,,,,,,,,,,,,,,,,10,,,,,,,,,,,,,,,,,,,,,6,4,,,489.1782,1,up,0.346,,1,0.3,"[2,3,1]",0.774440194,stimuli/card_0_transparent.png,0,1,0,1,0,1,,,,,,,,,,
,,,,65d50f9cda35b13ec1dfb63a,A,2024-07-01_11h15.30.323,Slot Machine Game,2023.1.3,Win32,61.34969325,,,,,,,,,,,,,,,,,,,,,,,,,,,110,,,,,,,,,,,,,,,,,,,,,6,4,,,491.3287,2,right,0.5904,,1,0.3,"[2,3,1]",0.962664171,stimuli/card_100_transparent.png,100,2,0,2,0,1,,,,,,,,,,
,,,,65d50f9cda35b13ec1dfb63a,A,2024-07-01_11h15.30.323,Slot Machine Game,2023.1.3,Win32,61.34969325,,,,,,,,,,,,,,,,,,,,,,,,,,,210,,,,,,,,,,,,,,,,,,,,,6,4,,,493.7294,3,right,0.1273,,0.5,0.3,"[2,3,1]",0.470315785,stimuli/card_100_transparent.png,100,3,0,3,0,1,,,,,,,,,,
,,,,65d50f9cda35b13ec1dfb63a,A,2024-07-01_11h15.30.323,Slot Machine Game,2023.1.3,Win32,61.34969325,,,,,,,,,,,,,,,,,,,,,,,,,,,310,,,,,,,,,,,,,,,,,,,,,6,4,,,495.1793,4,right,0.4887,,1.5,0.3,"[2,3,1]",0.843923622,stimuli/card_100_transparent.png,100,4,0,4,0,1,,,,,,,,,,
,,,,65d50f9cda35b13ec1dfb63a,A,2024-07-01_11h15.30.323,Slot Machine Game,2023.1.3,Win32,61.34969325,,,,,,,,,,,,,,,,,,,,,,,,,,,410,,,,,,,,,,,,,,,,,,,,,6,4,,,497.9795,5,right,0.0508,,0.5,0.3,"[2,3,1]",0.590516862,stimuli/card_100_transparent.png,100,5,0,5,0,1,,,,,,,,,,
,,,,65d50f9cda35b13ec1dfb63a,A,2024-07-01_11h15.30.323,Slot Machine Game,2023.1.3,Win32,61.34969325,,,,,,,,,,,,,,,,,,,,,,,,,,,420,,,,,,,,,,,,,,,,,,,,,6,4,,,499.3629,6,right,0.3688,,1.5,0.3,"[2,3,1]",0.197967694,stimuli/card_10_transparent.png,10,6,0,6,0,1,,,,,,,,,,
,,,,65d50f9cda35b13ec1dfb63a,A,2024-07-01_11h15.30.323,Slot Machine Game,2023.1.3,Win32,61.34969325,,,,,,,,,,,,,,,,,,,,,,,,,,,520,,,,,,,,,,,,,,,,,,,,,6,4,,,502.0627,7,up,0.5245,,1,0.3,"[1,2,3]",0.158010537,stimuli/card_100_transparent.png,100,7,0,7,0,1,,,,,,,,,,
,,,,65d50f9cda35b13ec1dfb63a,A,2024-07-01_11h15.30.323,Slot Machine Game,2023.1.3,Win32,61.34969325,,,,,,,,,,,,,,,,,,,,,,,,,,,530,,,,,,,,,,,,,,,,,,,,,6,4,,,504.4129,8,up,0.2602,,1,0.3,"[1,2,3]",0.830790945,stimuli/card_10_transparent.png,10,8,0,8,0,1,,,,,,,,,,
,,,,65d50f9cda35b13ec1dfb63a,A,2024-07-01_11h15.30.323,Slot Machine Game,2023.1.3,Win32,61.34969325,,,,,,,,,,,,,,,,,,,,,,,,,,,530,,,,,,,,,,,,,,,,,,,,,6,4,,,506.4962,9,right,0.3867,,1,0.3,"[1,2,3]",0.228374325,stimuli/card_0_transparent.png,0,9,0,9,0,1,,,,,,,,,,
,,,,65d50f9cda35b13ec1dfb63a,A,2024-07-01_11h15.30.323,Slot Machine Game,2023.1.3,Win32,61.34969325,,,,,,,,,,,,,,,,,,,,,,,,,,,630,,,,,,,,,,,,,,,,,,,,,6,4,,,508.7129,10,left,0.3667,,1.5,0.3,"[1,2,3]",0.4521472,stimuli/card_100_transparent.png,100,10,0,10,0,1,,,,,,,,,,
,,,,65d50f9cda35b13ec1dfb63a,A,2024-07-01_11h15.30.323,Slot Machine Game,2023.1.3,Win32,61.34969325,,,,,,,,,,,,,,,,,,,,,,,,,,,730,,,,,,,,,,,,,,,,,,,,,6,4,,,511.4131,11,left,0.1099,,1.5,0.3,"[1,2,3]",0.752115895,stimuli/card_100_transparent.png,100,11,0,11,0,1,,,,,,,,,,
,,,,65d50f9cda35b13ec1dfb63a,A,2024-07-01_11h15.30.323,Slot Machine Game,2023.1.3,Win32,61.34969325,,,,,,,,,,,,,,,,,,,,,,,,,,,830,,,,,,,,,,,,,,,,,,,,,6,4,,,513.8465,12,left,0.2829,,0.5,0.3,"[1,2,3]",0.593459043,stimuli/card_100_transparent.png,100,12,0,12,0,1,,,,,,,,,,
,,,,65d50f9cda35b13ec1dfb63a,A,2024-07-01_11h15.30.323,Slot Machine Game,2023.1.3,Win32,61.34969325,,,,,,,,,,,,,,,,,,,,,,,,,,,930,,,,,,,,,,,,,,,,,,,,,6,4,,,515.463,13,left,0.2412,,0.5,0.3,"[1,2,3]",0.395602797,stimuli/card_100_transparent.png,100,13,0,13,0,1,,,,,,,,,,
,,,,65d50f9cda35b13ec1dfb63a,A,2024-07-01_11h15.30.323,Slot Machine Game,2023.1.3,Win32,61.34969325,,,,,,,,,,,,,,,,,,,,,,,,,,,1030,,,,,,,,,,,,,,,,,,,,,6,4,,,517.0297,14,left,0.1334,,1,0.3,"[1,2,3]",0.958036648,stimuli/card_100_transparent.png,100,14,0,14,0,1,,,,,,,,,,
,,,,65d50f9cda35b13ec1dfb63a,A,2024-07-01_11h15.30.323,Slot Machine Game,2023.1.3,Win32,61.34969325,,,,,,,,,,,,,,,,,,,,,,,,,,,,,,,,,,,518.9966,,,,,,,,,,,,,,,,,,,,,,,,,,,,,,,,,"[830,1210,1030,930,830,1030]",5,0,5,0,1,,,,
,,,,65d50f9cda35b13ec1dfb63a,A,2024-07-01_11h15.30.323,Slot Machine Game,2023.1.3,Win32,61.34969325,,,,,,,,,,,,,,,,,,,,,,,,,,,0,,,,,,,,,,,,,,,,,,,,,7,10,"[10,15]","[[3,1,2],[1,3,2]]",524.0067,0,left,0.0209,,0.5,0.3,"[3,1,2]",0.258137432,stimuli/card_0_transparent.png,0,0,0,0,0,1,,,,,,,,,,
,,,,65d50f9cda35b13ec1dfb63a,A,2024-07-01_11h15.30.323,Slot Machine Game,2023.1.3,Win32,61.34969325,,,,,,,,,,,,,,,,,,,,,,,,,,,100,,,,,,,,,,,,,,,,,,,,,7,10,,,525.3466,1,up,0.307,,0.5,0.3,"[3,1,2]",0.300826922,stimuli/card_100_transparent.png,100,1,0,1,0,1,,,,,,,,,,
,,,,65d50f9cda35b13ec1dfb63a,A,2024-07-01_11h15.30.323,Slot Machine Game,2023.1.3,Win32,61.34969325,,,,,,,,,,,,,,,,,,,,,,,,,,,110,,,,,,,,,,,,,,,,,,,,,7,10,,,526.9799,2,up,0.389,,1.5,0.3,"[3,1,2]",0.177112414,stimuli/card_10_transparent.png,10,2,0,2,0,1,,,,,,,,,,
,,,,65d50f9cda35b13ec1dfb63a,A,2024-07-01_11h15.30.323,Slot Machine Game,2023.1.3,Win32,61.34969325,,,,,,,,,,,,,,,,,,,,,,,,,,,210,,,,,,,,,,,,,,,,,,,,,7,10,,,529.6967,3,up,0.2941,,1,0.3,"[3,1,2]",0.613367665,stimuli/card_100_transparent.png,100,3,0,3,0,1,,,,,,,,,,
,,,,65d50f9cda35b13ec1dfb63a,A,2024-07-01_11h15.30.323,Slot Machine Game,2023.1.3,Win32,61.34969325,,,,,,,,,,,,,,,,,,,,,,,,,,,310,,,,,,,,,,,,,,,,,,,,,7,10,,,531.8135,4,up,0.226,,1.5,0.3,"[3,1,2]",0.73437176,stimuli/card_100_transparent.png,100,4,0,4,0,1,,,,,,,,,,
,,,,65d50f9cda35b13ec1dfb63a,A,2024-07-01_11h15.30.323,Slot Machine Game,2023.1.3,Win32,61.34969325,,,,,,,,,,,,,,,,,,,,,,,,,,,410,,,,,,,,,,,,,,,,,,,,,7,10,,,534.3632,5,up,0.04,,0.5,0.3,"[3,1,2]",0.625478056,stimuli/card_100_transparent.png,100,5,0,5,0,1,,,,,,,,,,
,,,,65d50f9cda35b13ec1dfb63a,A,2024-07-01_11h15.30.323,Slot Machine Game,2023.1.3,Win32,61.34969325,,,,,,,,,,,,,,,,,,,,,,,,,,,510,,,,,,,,,,,,,,,,,,,,,7,10,,,535.7134,6,up,0.9277,,0.5,0.3,"[3,1,2]",0.754016575,stimuli/card_100_transparent.png,100,6,0,6,0,1,,,,,,,,,,
,,,,65d50f9cda35b13ec1dfb63a,A,2024-07-01_11h15.30.323,Slot Machine Game,2023.1.3,Win32,61.34969325,,,,,,,,,,,,,,,,,,,,,,,,,,,610,,,,,,,,,,,,,,,,,,,,,7,10,,,537.9467,7,up,0.8232,,0.5,0.3,"[3,1,2]",0.594860252,stimuli/card_100_transparent.png,100,7,0,7,0,1,,,,,,,,,,
,,,,65d50f9cda35b13ec1dfb63a,A,2024-07-01_11h15.30.323,Slot Machine Game,2023.1.3,Win32,61.34969325,,,,,,,,,,,,,,,,,,,,,,,,,,,620,,,,,,,,,,,,,,,,,,,,,7,10,,,540.0805,8,up,1.157,,0.5,0.3,"[3,1,2]",0.170066554,stimuli/card_10_transparent.png,10,8,0,8,0,1,,,,,,,,,,
,,,,65d50f9cda35b13ec1dfb63a,A,2024-07-01_11h15.30.323,Slot Machine Game,2023.1.3,Win32,61.34969325,,,,,,,,,,,,,,,,,,,,,,,,,,,720,,,,,,,,,,,,,,,,,,,,,7,10,,,542.5636,9,up,1.6781,,1,0.3,"[3,1,2]",0.541815425,stimuli/card_100_transparent.png,100,9,0,9,0,1,,,,,,,,,,
,,,,65d50f9cda35b13ec1dfb63a,A,2024-07-01_11h15.30.323,Slot Machine Game,2023.1.3,Win32,61.34969325,,,,,,,,,,,,,,,,,,,,,,,,,,,720,,,,,,,,,,,,,,,,,,,,,7,10,,,546.0637,10,up,1.144,,1.5,0.3,"[1,3,2]",0.852535961,stimuli/card_0_transparent.png,0,10,0,10,0,1,,,,,,,,,,
,,,,65d50f9cda35b13ec1dfb63a,A,2024-07-01_11h15.30.323,Slot Machine Game,2023.1.3,Win32,61.34969325,,,,,,,,,,,,,,,,,,,,,,,,,,,730,,,,,,,,,,,,,,,,,,,,,7,10,,,549.5304,11,up,0.3746,,1,0.3,"[1,3,2]",0.15670425,stimuli/card_10_transparent.png,10,11,0,11,0,1,,,,,,,,,,
,,,,65d50f9cda35b13ec1dfb63a,A,2024-07-01_11h15.30.323,Slot Machine Game,2023.1.3,Win32,61.34969325,,,,,,,,,,,,,,,,,,,,,,,,,,,730,,,,,,,,,,,,,,,,,,,,,7,10,,,551.7305,12,up,0.2608,,1.5,0.3,"[1,3,2]",0.681918772,stimuli/card_0_transparent.png,0,12,0,12,0,1,,,,,,,,,,
,,,,65d50f9cda35b13ec1dfb63a,A,2024-07-01_11h15.30.323,Slot Machine Game,2023.1.3,Win32,61.34969325,,,,,,,,,,,,,,,,,,,,,,,,,,,730,,,,,,,,,,,,,,,,,,,,,7,10,,,554.314,13,up,0.2003,,0.5,0.3,"[1,3,2]",0.540825375,stimuli/card_0_transparent.png,0,13,0,13,0,1,,,,,,,,,,
,,,,65d50f9cda35b13ec1dfb63a,A,2024-07-01_11h15.30.323,Slot Machine Game,2023.1.3,Win32,61.34969325,,,,,,,,,,,,,,,,,,,,,,,,,,,830,,,,,,,,,,,,,,,,,,,,,7,10,,,555.8471,14,right,0.999,,0.5,0.3,"[1,3,2]",0.168838725,stimuli/card_100_transparent.png,100,14,0,14,0,1,,,,,,,,,,
,,,,65d50f9cda35b13ec1dfb63a,A,2024-07-01_11h15.30.323,Slot Machine Game,2023.1.3,Win32,61.34969325,,,,,,,,,,,,,,,,,,,,,,,,,,,,,,,,,,,558.1809,,,,,,,,,,,,,,,,,,,,,,,,,,,,,,,,,"[830,1210,1030,930,830,1030,830]",6,0,6,0,1,,,,
,,,,65d50f9cda35b13ec1dfb63a,A,2024-07-01_11h15.30.323,Slot Machine Game,2023.1.3,Win32,61.34969325,,,,,,,,,,,,,,,,,,,,,,,,,,,100,,,,,,,,,,,,,,,,,,,,,8,7,"[9,15]","[[1,3,2],[2,3,1]]",563.1907,0,left,0.0727,,0.5,0.3,"[1,3,2]",0.992451648,stimuli/card_100_transparent.png,100,0,0,0,0,1,,,,,,,,,,
,,,,65d50f9cda35b13ec1dfb63a,A,2024-07-01_11h15.30.323,Slot Machine Game,2023.1.3,Win32,61.34969325,,,,,,,,,,,,,,,,,,,,,,,,,,,200,,,,,,,,,,,,,,,,,,,,,8,7,,,564.581,1,left,0.324,,1.5,0.3,"[1,3,2]",0.577391216,stimuli/card_100_transparent.png,100,1,0,1,0,1,,,,,,,,,,
,,,,65d50f9cda35b13ec1dfb63a,A,2024-07-01_11h15.30.323,Slot Machine Game,2023.1.3,Win32,61.34969325,,,,,,,,,,,,,,,,,,,,,,,,,,,300,,,,,,,,,,,,,,,,,,,,,8,7,,,567.2308,2,left,1.2829,,1.5,0.3,"[1,3,2]",0.210793024,stimuli/card_100_transparent.png,100,2,0,2,0,1,,,,,,,,,,
,,,,65d50f9cda35b13ec1dfb63a,A,2024-07-01_11h15.30.323,Slot Machine Game,2023.1.3,Win32,61.34969325,,,,,,,,,,,,,,,,,,,,,,,,,,,400,,,,,,,,,,,,,,,,,,,,,8,7,,,570.8476,3,left,1.6613,,1,0.3,"[1,3,2]",0.872858131,stimuli/card_100_transparent.png,100,3,0,3,0,1,,,,,,,,,,
,,,,65d50f9cda35b13ec1dfb63a,A,2024-07-01_11h15.30.323,Slot Machine Game,2023.1.3,Win32,61.34969325,,,,,,,,,,,,,,,,,,,,,,,,,,,500,,,,,,,,,,,,,,,,,,,,,8,7,,,574.331,4,left,1.2159,,0.5,0.3,"[1,3,2]",0.744495785,stimuli/card_100_transparent.png,100,4,0,4,0,1,,,,,,,,,,
,,,,65d50f9cda35b13ec1dfb63a,A,2024-07-01_11h15.30.323,Slot Machine Game,2023.1.3,Win32,61.34969325,,,,,,,,,,,,,,,,,,,,,,,,,,,600,,,,,,,,,,,,,,,,,,,,,8,7,,,576.881,5,left,0.9508,,1.5,0.3,"[1,3,2]",0.577758907,stimuli/card_100_transparent.png,100,5,0,5,0,1,,,,,,,,,,
,,,,65d50f9cda35b13ec1dfb63a,A,2024-07-01_11h15.30.323,Slot Machine Game,2023.1.3,Win32,61.34969325,,,,,,,,,,,,,,,,,,,,,,,,,,,700,,,,,,,,,,,,,,,,,,,,,8,7,,,580.1644,6,left,0.0382,,1,0.3,"[1,3,2]",0.970167614,stimuli/card_100_transparent.png,100,6,0,6,0,1,,,,,,,,,,
,,,,65d50f9cda35b13ec1dfb63a,A,2024-07-01_11h15.30.323,Slot Machine Game,2023.1.3,Win32,61.34969325,,,,,,,,,,,,,,,,,,,,,,,,,,,800,,,,,,,,,,,,,,,,,,,,,8,7,,,582.03,7,left,0.2988,,1,0.3,"[1,3,2]",0.723255413,stimuli/card_100_transparent.png,100,7,0,7,0,1,,,,,,,,,,
,,,,65d50f9cda35b13ec1dfb63a,A,2024-07-01_11h15.30.323,Slot Machine Game,2023.1.3,Win32,61.34969325,,,,,,,,,,,,,,,,,,,,,,,,,,,800,,,,,,,,,,,,,,,,,,,,,8,7,,,584.1479,8,left,0.0724,,0.5,0.3,"[1,3,2]",0.012730596,stimuli/card_0_transparent.png,0,8,0,8,0,1,,,,,,,,,,
,,,,65d50f9cda35b13ec1dfb63a,A,2024-07-01_11h15.30.323,Slot Machine Game,2023.1.3,Win32,61.34969325,,,,,,,,,,,,,,,,,,,,,,,,,,,810,,,,,,,,,,,,,,,,,,,,,8,7,,,585.5477,9,left,0.2332,,1.5,0.3,"[2,3,1]",0.951290022,stimuli/card_10_transparent.png,10,9,0,9,0,1,,,,,,,,,,
,,,,65d50f9cda35b13ec1dfb63a,A,2024-07-01_11h15.30.323,Slot Machine Game,2023.1.3,Win32,61.34969325,,,,,,,,,,,,,,,,,,,,,,,,,,,810,,,,,,,,,,,,,,,,,,,,,8,7,,,588.1146,10,up,0.9097,,1,0.3,"[2,3,1]",0.61657157,stimuli/card_0_transparent.png,0,10,0,10,0,1,,,,,,,,,,
,,,,65d50f9cda35b13ec1dfb63a,A,2024-07-01_11h15.30.323,Slot Machine Game,2023.1.3,Win32,61.34969325,,,,,,,,,,,,,,,,,,,,,,,,,,,910,,,,,,,,,,,,,,,,,,,,,8,7,,,590.8481,11,right,0.2505,,1,0.3,"[2,3,1]",0.862178423,stimuli/card_100_transparent.png,100,11,0,11,0,1,,,,,,,,,,
,,,,65d50f9cda35b13ec1dfb63a,A,2024-07-01_11h15.30.323,Slot Machine Game,2023.1.3,Win32,61.34969325,,,,,,,,,,,,,,,,,,,,,,,,,,,1010,,,,,,,,,,,,,,,,,,,,,8,7,,,592.9314,12,right,0.6168,,0.5,0.3,"[2,3,1]",0.329729042,stimuli/card_100_transparent.png,100,12,0,12,0,1,,,,,,,,,,
,,,,65d50f9cda35b13ec1dfb63a,A,2024-07-01_11h15.30.323,Slot Machine Game,2023.1.3,Win32,61.34969325,,,,,,,,,,,,,,,,,,,,,,,,,,,1110,,,,,,,,,,,,,,,,,,,,,8,7,,,594.8813,13,right,0.5825,,1,0.3,"[2,3,1]",0.425373522,stimuli/card_100_transparent.png,100,13,0,13,0,1,,,,,,,,,,
,,,,65d50f9cda35b13ec1dfb63a,A,2024-07-01_11h15.30.323,Slot Machine Game,2023.1.3,Win32,61.34969325,,,,,,,,,,,,,,,,,,,,,,,,,,,1120,,,,,,,,,,,,,,,,,,,,,8,7,,,597.298,14,right,0.3926,,1.5,0.3,"[2,3,1]",0.155261951,stimuli/card_10_transparent.png,10,14,0,14,0,1,,,,,,,,,,
,,,,65d50f9cda35b13ec1dfb63a,A,2024-07-01_11h15.30.323,Slot Machine Game,2023.1.3,Win32,61.34969325,,,,,,,,,,,,,,,,,,,,,,,,,,,,,,,,,,,600.0148,,,,,,,,,,,,,,,,,,,,,,,,,,,,,,,,,"[830,1210,1030,930,830,1030,830,1120]",7,0,7,0,1,,,,
,,,,65d50f9cda35b13ec1dfb63a,A,2024-07-01_11h15.30.323,Slot Machine Game,2023.1.3,Win32,61.34969325,,,,,,,,,,,,,,,,,,,,,,,,,,,0,,,,,,,,,,,,,,,,,,,,,9,9,[15],"[[3,1,2]]",605.0257,0,left,0.0498,,1,0.3,"[3,1,2]",0.819856443,stimuli/card_0_transparent.png,0,0,0,0,0,1,,,,,,,,,,
,,,,65d50f9cda35b13ec1dfb63a,A,2024-07-01_11h15.30.323,Slot Machine Game,2023.1.3,Win32,61.34969325,,,,,,,,,,,,,,,,,,,,,,,,,,,100,,,,,,,,,,,,,,,,,,,,,9,9,,,606.8986,1,up,0.6836,,1.5,0.3,"[3,1,2]",0.935601533,stimuli/card_100_transparent.png,100,1,0,1,0,1,,,,,,,,,,
,,,,65d50f9cda35b13ec1dfb63a,A,2024-07-01_11h15.30.323,Slot Machine Game,2023.1.3,Win32,61.34969325,,,,,,,,,,,,,,,,,,,,,,,,,,,200,,,,,,,,,,,,,,,,,,,,,9,9,,,609.915,2,up,0.8173,,1.5,0.3,"[3,1,2]",0.667678781,stimuli/card_100_transparent.png,100,2,0,2,0,1,,,,,,,,,,
,,,,65d50f9cda35b13ec1dfb63a,A,2024-07-01_11h15.30.323,Slot Machine Game,2023.1.3,Win32,61.34969325,,,,,,,,,,,,,,,,,,,,,,,,,,,300,,,,,,,,,,,,,,,,,,,,,9,9,,,613.0651,3,up,0.1891,,0.5,0.3,"[3,1,2]",0.633789205,stimuli/card_100_transparent.png,100,3,0,3,0,1,,,,,,,,,,
,,,,65d50f9cda35b13ec1dfb63a,A,2024-07-01_11h15.30.323,Slot Machine Game,2023.1.3,Win32,61.34969325,,,,,,,,,,,,,,,,,,,,,,,,,,,300,,,,,,,,,,,,,,,,,,,,,9,9,,,614.5818,4,up,0.1213,,0.5,0.3,"[3,1,2]",0.090602697,stimuli/card_0_transparent.png,0,4,0,4,0,1,,,,,,,,,,
,,,,65d50f9cda35b13ec1dfb63a,A,2024-07-01_11h15.30.323,Slot Machine Game,2023.1.3,Win32,61.34969325,,,,,,,,,,,,,,,,,,,,,,,,,,,400,,,,,,,,,,,,,,,,,,,,,9,9,,,616.0319,5,up,0.2503,,1.5,0.3,"[3,1,2]",0.700451265,stimuli/card_100_transparent.png,100,5,0,5,0,1,,,,,,,,,,
,,,,65d50f9cda35b13ec1dfb63a,A,2024-07-01_11h15.30.323,Slot Machine Game,2023.1.3,Win32,61.34969325,,,,,,,,,,,,,,,,,,,,,,,,,,,400,,,,,,,,,,,,,,,,,,,,,9,9,,,618.6152,6,up,0.4748,,1.5,0.3,"[3,1,2]",0.034044202,stimuli/card_0_transparent.png,0,6,0,6,0,1,,,,,,,,,,
,,,,65d50f9cda35b13ec1dfb63a,A,2024-07-01_11h15.30.323,Slot Machine Game,2023.1.3,Win32,61.34969325,,,,,,,,,,,,,,,,,,,,,,,,,,,500,,,,,,,,,,,,,,,,,,,,,9,9,,,621.4151,7,up,0.3718,,1.5,0.3,"[3,1,2]",0.311872446,stimuli/card_100_transparent.png,100,7,0,7,0,1,,,,,,,,,,
,,,,65d50f9cda35b13ec1dfb63a,A,2024-07-01_11h15.30.323,Slot Machine Game,2023.1.3,Win32,61.34969325,,,,,,,,,,,,,,,,,,,,,,,,,,,600,,,,,,,,,,,,,,,,,,,,,9,9,,,624.1154,8,up,0.2988,,0.5,0.3,"[3,1,2]",0.678539393,stimuli/card_100_transparent.png,100,8,0,8,0,1,,,,,,,,,,
,,,,65d50f9cda35b13ec1dfb63a,A,2024-07-01_11h15.30.323,Slot Machine Game,2023.1.3,Win32,61.34969325,,,,,,,,,,,,,,,,,,,,,,,,,,,700,,,,,,,,,,,,,,,,,,,,,9,9,,,625.7482,9,up,0.5026,,1.5,0.3,"[3,1,2]",0.813176691,stimuli/card_100_transparent.png,100,9,0,9,0,1,,,,,,,,,,
,,,,65d50f9cda35b13ec1dfb63a,A,2024-07-01_11h15.30.323,Slot Machine Game,2023.1.3,Win32,61.34969325,,,,,,,,,,,,,,,,,,,,,,,,,,,800,,,,,,,,,,,,,,,,,,,,,9,9,,,628.5654,10,up,0.2104,,0.5,0.3,"[3,1,2]",0.312299443,stimuli/card_100_transparent.png,100,10,0,10,0,1,,,,,,,,,,
,,,,65d50f9cda35b13ec1dfb63a,A,2024-07-01_11h15.30.323,Slot Machine Game,2023.1.3,Win32,61.34969325,,,,,,,,,,,,,,,,,,,,,,,,,,,900,,,,,,,,,,,,,,,,,,,,,9,9,,,630.0989,11,up,0.7169,,1,0.3,"[3,1,2]",0.675434621,stimuli/card_100_transparent.png,100,11,0,11,0,1,,,,,,,,,,
,,,,65d50f9cda35b13ec1dfb63a,A,2024-07-01_11h15.30.323,Slot Machine Game,2023.1.3,Win32,61.34969325,,,,,,,,,,,,,,,,,,,,,,,,,,,1000,,,,,,,,,,,,,,,,,,,,,9,9,,,632.6489,12,up,0.2386,,0.5,0.3,"[3,1,2]",0.891761304,stimuli/card_100_transparent.png,100,12,0,12,0,1,,,,,,,,,,
,,,,65d50f9cda35b13ec1dfb63a,A,2024-07-01_11h15.30.323,Slot Machine Game,2023.1.3,Win32,61.34969325,,,,,,,,,,,,,,,,,,,,,,,,,,,1010,,,,,,,,,,,,,,,,,,,,,9,9,,,634.2159,13,up,0.1738,,1,0.3,"[3,1,2]",0.121016918,stimuli/card_10_transparent.png,10,13,0,13,0,1,,,,,,,,,,
,,,,65d50f9cda35b13ec1dfb63a,A,2024-07-01_11h15.30.323,Slot Machine Game,2023.1.3,Win32,61.34969325,,,,,,,,,,,,,,,,,,,,,,,,,,,1110,,,,,,,,,,,,,,,,,,,,,9,9,,,636.2155,14,up,0.1414,,1,0.3,"[3,1,2]",0.43019579,stimuli/card_100_transparent.png,100,14,0,14,0,1,,,,,,,,,,
,,,,65d50f9cda35b13ec1dfb63a,A,2024-07-01_11h15.30.323,Slot Machine Game,2023.1.3,Win32,61.34969325,,,,,,,,,,,,,,,,,,,,,,,,,,,,,,,,,,,638.1821,,,,,,,,,,,,,,,,,,,,,,,,,,,,,,,,,"[830,1210,1030,930,830,1030,830,1120,1110]",8,0,8,0,1,,,,
,,,,65d50f9cda35b13ec1dfb63a,A,2024-07-01_11h15.30.323,Slot Machine Game,2023.1.3,Win32,61.34969325,,,,,,,,,,,,,,,,,,,,,,,,,,,10,,,,,,,,,,,,,,,,,,,,,10,6,"[4,10,15]","[[2,3,1],[1,3,2],[3,2,1]]",643.193,0,left,0.3074,,1.5,0.3,"[2,3,1]",0.393482423,stimuli/card_10_transparent.png,10,0,0,0,0,1,,,,,,,,,,
,,,,65d50f9cda35b13ec1dfb63a,A,2024-07-01_11h15.30.323,Slot Machine Game,2023.1.3,Win32,61.34969325,,,,,,,,,,,,,,,,,,,,,,,,,,,10,,,,,,,,,,,,,,,,,,,,,10,6,,,645.8155,1,up,0.1959,,1.5,0.3,"[2,3,1]",0.749884017,stimuli/card_0_transparent.png,0,1,0,1,0,1,,,,,,,,,,
,,,,65d50f9cda35b13ec1dfb63a,A,2024-07-01_11h15.30.323,Slot Machine Game,2023.1.3,Win32,61.34969325,,,,,,,,,,,,,,,,,,,,,,,,,,,110,,,,,,,,,,,,,,,,,,,,,10,6,,,648.3326,2,right,0.6841,,1.5,0.3,"[2,3,1]",0.28642167,stimuli/card_100_transparent.png,100,2,0,2,0,1,,,,,,,,,,
,,,,65d50f9cda35b13ec1dfb63a,A,2024-07-01_11h15.30.323,Slot Machine Game,2023.1.3,Win32,61.34969325,,,,,,,,,,,,,,,,,,,,,,,,,,,120,,,,,,,,,,,,,,,,,,,,,10,6,,,651.3492,3,right,1.1905,,1,0.3,"[2,3,1]",0.162319912,stimuli/card_10_transparent.png,10,3,0,3,0,1,,,,,,,,,,
,,,,65d50f9cda35b13ec1dfb63a,A,2024-07-01_11h15.30.323,Slot Machine Game,2023.1.3,Win32,61.34969325,,,,,,,,,,,,,,,,,,,,,,,,,,,130,,,,,,,,,,,,,,,,,,,,,10,6,,,654.3656,4,right,0.6182,,1,0.3,"[1,3,2]",0.265063636,stimuli/card_10_transparent.png,10,4,0,4,0,1,,,,,,,,,,
,,,,65d50f9cda35b13ec1dfb63a,A,2024-07-01_11h15.30.323,Slot Machine Game,2023.1.3,Win32,61.34969325,,,,,,,,,,,,,,,,,,,,,,,,,,,130,,,,,,,,,,,,,,,,,,,,,10,6,,,656.7995,5,up,0.6057,,1.5,0.3,"[1,3,2]",0.317545048,stimuli/card_0_transparent.png,0,5,0,5,0,1,,,,,,,,,,
,,,,65d50f9cda35b13ec1dfb63a,A,2024-07-01_11h15.30.323,Slot Machine Game,2023.1.3,Win32,61.34969325,,,,,,,,,,,,,,,,,,,,,,,,,,,230,,,,,,,,,,,,,,,,,,,,,10,6,,,659.7326,6,left,1.4997,,1,0.3,"[1,3,2]",0.511983814,stimuli/card_100_transparent.png,100,6,0,6,0,1,,,,,,,,,,
,,,,65d50f9cda35b13ec1dfb63a,A,2024-07-01_11h15.30.323,Slot Machine Game,2023.1.3,Win32,61.34969325,,,,,,,,,,,,,,,,,,,,,,,,,,,330,,,,,,,,,,,,,,,,,,,,,10,6,,,663.0661,7,left,0.7997,,1.5,0.3,"[1,3,2]",0.411456125,stimuli/card_100_transparent.png,100,7,0,7,0,1,,,,,,,,,,
,,,,65d50f9cda35b13ec1dfb63a,A,2024-07-01_11h15.30.323,Slot Machine Game,2023.1.3,Win32,61.34969325,,,,,,,,,,,,,,,,,,,,,,,,,,,430,,,,,,,,,,,,,,,,,,,,,10,6,,,666.1996,8,left,0.6323,,0.5,0.3,"[1,3,2]",0.348327642,stimuli/card_100_transparent.png,100,8,0,8,0,1,,,,,,,,,,
,,,,65d50f9cda35b13ec1dfb63a,A,2024-07-01_11h15.30.323,Slot Machine Game,2023.1.3,Win32,61.34969325,,,,,,,,,,,,,,,,,,,,,,,,,,,530,,,,,,,,,,,,,,,,,,,,,10,6,,,668.1663,9,left,1.1172,,1,0.3,"[1,3,2]",0.484828893,stimuli/card_100_transparent.png,100,9,0,9,0,1,,,,,,,,,,
,,,,65d50f9cda35b13ec1dfb63a,A,2024-07-01_11h15.30.323,Slot Machine Game,2023.1.3,Win32,61.34969325,,,,,,,,,,,,,,,,,,,,,,,,,,,530,,,,,,,,,,,,,,,,,,,,,10,6,,,671.116,10,left,0.9935,,1.5,0.3,"[3,2,1]",0.658069156,stimuli/card_0_transparent.png,0,10,0,10,0,1,,,,,,,,,,
,,,,65d50f9cda35b13ec1dfb63a,A,2024-07-01_11h15.30.323,Slot Machine Game,2023.1.3,Win32,61.34969325,,,,,,,,,,,,,,,,,,,,,,,,,,,530,,,,,,,,,,,,,,,,,,,,,10,6,,,674.4329,11,left,0.3946,,1,0.3,"[3,2,1]",0.302905843,stimuli/card_0_transparent.png,0,11,0,11,0,1,,,,,,,,,,
,,,,65d50f9cda35b13ec1dfb63a,A,2024-07-01_11h15.30.323,Slot Machine Game,2023.1.3,Win32,61.34969325,,,,,,,,,,,,,,,,,,,,,,,,,,,540,,,,,,,,,,,,,,,,,,,,,10,6,,,676.6496,12,up,0.8332,,0.5,0.3,"[3,2,1]",0.407280093,stimuli/card_10_transparent.png,10,12,0,12,0,1,,,,,,,,,,
,,,,65d50f9cda35b13ec1dfb63a,A,2024-07-01_11h15.30.323,Slot Machine Game,2023.1.3,Win32,61.34969325,,,,,,,,,,,,,,,,,,,,,,,,,,,640,,,,,,,,,,,,,,,,,,,,,10,6,,,678.8163,13,right,0.0895,,1,0.3,"[3,2,1]",0.360071033,stimuli/card_100_transparent.png,100,13,0,13,0,1,,,,,,,,,,
,,,,65d50f9cda35b13ec1dfb63a,A,2024-07-01_11h15.30.323,Slot Machine Game,2023.1.3,Win32,61.34969325,,,,,,,,,,,,,,,,,,,,,,,,,,,740,,,,,,,,,,,,,,,,,,,,,10,6,,,680.733,14,right,0.3345,,1.5,0.3,"[3,2,1]",0.416704763,stimuli/card_100_transparent.png,100,14,0,14,0,1,,,,,,,,,,
,,,,65d50f9cda35b13ec1dfb63a,A,2024-07-01_11h15.30.323,Slot Machine Game,2023.1.3,Win32,61.34969325,,,,,,,,,,,,,,,,,,,,,,,,,,,,,,,,,,,683.3997,,,,,,,,,,,,,,,,,,,,,,,,,,,,,,,,,"[830,1210,1030,930,830,1030,830,1120,1110,740]",9,0,9,0,1,,,,
,,,,65d50f9cda35b13ec1dfb63a,A,2024-07-01_11h15.30.323,Slot Machine Game,2023.1.3,Win32,61.34969325,,,,,,,,,,,,,,,,,,,,,,,,,,,,,,,,,,,,,,,,,,,,,,,,,,,,,,,,,,,,,,,,,,,,,,,,,,9,"[830,1210,1030,930,830,1030,830,1120,1110,740]",11.2,2024-07-01_11h27.02.835
