key_resp_welcome_started,key_resp_welcome_keys,key_resp_welcome_rt,key_resp_welcome_duration,prolific_id,path_id,date,expName,psychopyVersion,OS,frameRate,key_resp_instruction1_started,key_resp_instruction1_keys,key_resp_instruction1_rt,key_resp_instruction1_duration,key_resp_instruction2_started,key_resp_instruction2_keys,key_resp_instruction2_rt,key_resp_instruction2_duration,key_resp_instruction3_started,key_resp_instruction3_keys,key_resp_instruction3_rt,key_resp_instruction3_duration,key_resp_instruction4_started,key_resp_instruction4_keys,key_resp_instruction4_rt,key_resp_instruction4_duration,practiceCondition,practice_reward_seqs,practice_trial_started,practice_trial_num,prac_presentationInterval,"practice_reward_seq: 2,1,3",practice_trials.thisRepN,practice_trials.thisTrialN,practice_trials.thisN,practice_trials.thisIndex,practice_trials.ran,practice_resp_rt,practice_resp_duration,practice_resp_keys,reward_img,cumulative_reward,trial_reward,"practice_reward_seq: 2,3,1",block_break_started,"practice_reward_seq: 1,3,2","practice_reward_seq: 3,1,2",practice_end_time,practice_end_keys,practice_end_rt,practice_end_duration,main_instruction_text_started,block_condition,block_order_indices,main_instruction_keys,main_instruction_rt,main_instruction_duration,block_number,block_assignment,current_condition,main_reward_seqs,main_trial_started,main_trial_num,main_trial_keys,main_trial_rt,main_trial_duration,main_presentationInterval,reward_presentation_time,main_reward_seq,reward_rand_val,main_reward_img,current_reward,main_trials.thisRepN,main_trials.thisTrialN,main_trials.thisN,main_trials.thisIndex,main_trials.ran,block_reward,block.thisRepN,block.thisTrialN,block.thisN,block.thisIndex,block.ran,block_reward.length,block_reward_all,reward_amount,date_end_task
0.0003,return,109.652,0.0006,65dba0a093dc7a5420f61e5f,A,2024-07-04_20h55.19.547,Slot Machine Game,2023.1.3,Win32,29.94011976,,,,,,,,,,,,,,,,,,,,,,,,,,,,,,,,,,,,,,,,,,,,,,,,,,,,,,,,,,,,,,,,,,,,,,,,,,,,,
,,,,65dba0a093dc7a5420f61e5f,A,2024-07-04_20h55.19.547,Slot Machine Game,2023.1.3,Win32,29.94011976,109.6723,return,73.278,0.0001,,,,,,,,,,,,,,,,,,,,,,,,,,,,,,,,,,,,,,,,,,,,,,,,,,,,,,,,,,,,,,,,,,,,,,,,,
,,,,65dba0a093dc7a5420f61e5f,A,2024-07-04_20h55.19.547,Slot Machine Game,2023.1.3,Win32,29.94011976,,,,,182.9919,return,18.9101,,,,,,,,,,,,,,,,,,,,,,,,,,,,,,,,,,,,,,,,,,,,,,,,,,,,,,,,,,,,,,,,,,,,,,
,,,,65dba0a093dc7a5420f61e5f,A,2024-07-04_20h55.19.547,Slot Machine Game,2023.1.3,Win32,29.94011976,,,,,,,,,201.9668,return,4.6538,,,,,,,,,,,,,,,,,,,,,,,,,,,,,,,,,,,,,,,,,,,,,,,,,,,,,,,,,,,,,,,,,,
,,,,65dba0a093dc7a5420f61e5f,A,2024-07-04_20h55.19.547,Slot Machine Game,2023.1.3,Win32,29.94011976,,,,,,,,,,,,,,,,,,,,,,,,,,,,,,,,,,,,,,,,,,,,,,,,,,,,,,,,,,,,,,,,,,,,,,,,,,,,,
,,,,65dba0a093dc7a5420f61e5f,A,2024-07-04_20h55.19.547,Slot Machine Game,2023.1.3,Win32,29.94011976,,,,,,,,,,,,,348.427,space,2.3169,,,,,,,,,,,,,,,,,,,,,,,,,,,,,,,,,,,,,,,,,,,,,,,,,,,,,,,,,,,,,,
,,,,65dba0a093dc7a5420f61e5f,A,2024-07-04_20h55.19.547,Slot Machine Game,2023.1.3,Win32,29.94011976,,,,,,,,,,,,,,,,,"[9,15]","[[2,1,3],[2,3,1]]",350.7822,0,1,,0,0,0,0,1,,,,,,,,,,,,,,,,,,,,,,,,,,,,,,,,,,,,,,,,,,,,,,,,,,
,,,,65dba0a093dc7a5420f61e5f,A,2024-07-04_20h55.19.547,Slot Machine Game,2023.1.3,Win32,29.94011976,,,,,,,,,,,,,,,,,,,356.2952,1,1,,1,0,1,0,1,3.9082,,left,stimuli/card_10_transparent.png,10,10,,,,,,,,,,,,,,,,,,,,,,,,,,,,,,,,,,,,,,,,,,,,
,,,,65dba0a093dc7a5420f61e5f,A,2024-07-04_20h55.19.547,Slot Machine Game,2023.1.3,Win32,29.94011976,,,,,,,,,,,,,,,,,,,362.0379,2,0.5,,2,0,2,0,1,0.2491,,left,stimuli/card_10_transparent.png,20,10,,,,,,,,,,,,,,,,,,,,,,,,,,,,,,,,,,,,,,,,,,,,
,,,,65dba0a093dc7a5420f61e5f,A,2024-07-04_20h55.19.547,Slot Machine Game,2023.1.3,Win32,29.94011976,,,,,,,,,,,,,,,,,,,363.6731,3,1.5,,3,0,3,0,1,0.1352,,left,stimuli/card_10_transparent.png,30,10,,,,,,,,,,,,,,,,,,,,,,,,,,,,,,,,,,,,,,,,,,,,
,,,,65dba0a093dc7a5420f61e5f,A,2024-07-04_20h55.19.547,Slot Machine Game,2023.1.3,Win32,29.94011976,,,,,,,,,,,,,,,,,,,366.1278,4,1.5,,4,0,4,0,1,0.2058,,left,stimuli/card_10_transparent.png,40,10,,,,,,,,,,,,,,,,,,,,,,,,,,,,,,,,,,,,,,,,,,,,
,,,,65dba0a093dc7a5420f61e5f,A,2024-07-04_20h55.19.547,Slot Machine Game,2023.1.3,Win32,29.94011976,,,,,,,,,,,,,,,,,,,368.6433,5,1.5,,5,0,5,0,1,0.1327,,left,stimuli/card_10_transparent.png,50,10,,,,,,,,,,,,,,,,,,,,,,,,,,,,,,,,,,,,,,,,,,,,
,,,,65dba0a093dc7a5420f61e5f,A,2024-07-04_20h55.19.547,Slot Machine Game,2023.1.3,Win32,29.94011976,,,,,,,,,,,,,,,,,,,371.0944,6,0.5,,6,0,6,0,1,2.4822,,left,stimuli/card_10_transparent.png,60,10,,,,,,,,,,,,,,,,,,,,,,,,,,,,,,,,,,,,,,,,,,,,
,,,,65dba0a093dc7a5420f61e5f,A,2024-07-04_20h55.19.547,Slot Machine Game,2023.1.3,Win32,29.94011976,,,,,,,,,,,,,,,,,,,374.9716,7,1.5,,7,0,7,0,1,0.7208,,up,stimuli/card_100_transparent.png,160,100,,,,,,,,,,,,,,,,,,,,,,,,,,,,,,,,,,,,,,,,,,,,
,,,,65dba0a093dc7a5420f61e5f,A,2024-07-04_20h55.19.547,Slot Machine Game,2023.1.3,Win32,29.94011976,,,,,,,,,,,,,,,,,,,378.0201,8,0.5,,8,0,8,0,1,0.283,,up,stimuli/card_100_transparent.png,260,100,,,,,,,,,,,,,,,,,,,,,,,,,,,,,,,,,,,,,,,,,,,,
,,,,65dba0a093dc7a5420f61e5f,A,2024-07-04_20h55.19.547,Slot Machine Game,2023.1.3,Win32,29.94011976,,,,,,,,,,,,,,,,,,,379.6316,9,0.5,,9,0,9,0,1,2.4873,,up,stimuli/card_0_transparent.png,260,0,,,,,,,,,,,,,,,,,,,,,,,,,,,,,,,,,,,,,,,,,,,,
,,,,65dba0a093dc7a5420f61e5f,A,2024-07-04_20h55.19.547,Slot Machine Game,2023.1.3,Win32,29.94011976,,,,,,,,,,,,,,,,,,,383.5257,10,1.5,,10,0,10,0,1,0.5315,,up,stimuli/card_100_transparent.png,360,100,,,,,,,,,,,,,,,,,,,,,,,,,,,,,,,,,,,,,,,,,,,,
,,,,65dba0a093dc7a5420f61e5f,A,2024-07-04_20h55.19.547,Slot Machine Game,2023.1.3,Win32,29.94011976,,,,,,,,,,,,,,,,,,,386.3995,11,1,,11,0,11,0,1,0.3002,,up,stimuli/card_0_transparent.png,360,0,,,,,,,,,,,,,,,,,,,,,,,,,,,,,,,,,,,,,,,,,,,,
,,,,65dba0a093dc7a5420f61e5f,A,2024-07-04_20h55.19.547,Slot Machine Game,2023.1.3,Win32,29.94011976,,,,,,,,,,,,,,,,,,,388.5727,12,1,,12,0,12,0,1,0.7774,,up,stimuli/card_0_transparent.png,360,0,,,,,,,,,,,,,,,,,,,,,,,,,,,,,,,,,,,,,,,,,,,,
,,,,65dba0a093dc7a5420f61e5f,A,2024-07-04_20h55.19.547,Slot Machine Game,2023.1.3,Win32,29.94011976,,,,,,,,,,,,,,,,,,,391.1933,13,0.5,,13,0,13,0,1,0.2617,,up,stimuli/card_0_transparent.png,360,0,,,,,,,,,,,,,,,,,,,,,,,,,,,,,,,,,,,,,,,,,,,,
,,,,65dba0a093dc7a5420f61e5f,A,2024-07-04_20h55.19.547,Slot Machine Game,2023.1.3,Win32,29.94011976,,,,,,,,,,,,,,,,,,,392.8082,14,1.5,,14,0,14,0,1,0.7482,,right,stimuli/card_10_transparent.png,370,10,,,,,,,,,,,,,,,,,,,,,,,,,,,,,,,,,,,,,,,,,,,,
,,,,65dba0a093dc7a5420f61e5f,A,2024-07-04_20h55.19.547,Slot Machine Game,2023.1.3,Win32,29.94011976,,,,,,,,,,,,,,,,,"[6,15]","[[1,3,2],[3,1,2]]",400.9302,0,1.5,,0,0,0,0,1,1.8465,,up,stimuli/card_0_transparent.png,0,0,,395.9031,,,,,,,,,,,,,,,,,,,,,,,,,,,,,,,,,,,,,,,,,,
,,,,65dba0a093dc7a5420f61e5f,A,2024-07-04_20h55.19.547,Slot Machine Game,2023.1.3,Win32,29.94011976,,,,,,,,,,,,,,,,,,,405.1026,1,1,,1,0,1,0,1,0.9444,,right,stimuli/card_100_transparent.png,100,100,,,,,,,,,,,,,,,,,,,,,,,,,,,,,,,,,,,,,,,,,,,,
,,,,65dba0a093dc7a5420f61e5f,A,2024-07-04_20h55.19.547,Slot Machine Game,2023.1.3,Win32,29.94011976,,,,,,,,,,,,,,,,,,,407.8417,2,1.5,,2,0,2,0,1,0.0395,,right,stimuli/card_10_transparent.png,110,10,,,,,,,,,,,,,,,,,,,,,,,,,,,,,,,,,,,,,,,,,,,,
,,,,65dba0a093dc7a5420f61e5f,A,2024-07-04_20h55.19.547,Slot Machine Game,2023.1.3,Win32,29.94011976,,,,,,,,,,,,,,,,,,,410.2496,3,0.5,,3,0,3,0,1,0.1005,,right,stimuli/card_10_transparent.png,120,10,,,,,,,,,,,,,,,,,,,,,,,,,,,,,,,,,,,,,,,,,,,,
,,,,65dba0a093dc7a5420f61e5f,A,2024-07-04_20h55.19.547,Slot Machine Game,2023.1.3,Win32,29.94011976,,,,,,,,,,,,,,,,,,,411.6559,4,1,,4,0,4,0,1,0.6389,,up,stimuli/card_0_transparent.png,120,0,,,,,,,,,,,,,,,,,,,,,,,,,,,,,,,,,,,,,,,,,,,,
,,,,65dba0a093dc7a5420f61e5f,A,2024-07-04_20h55.19.547,Slot Machine Game,2023.1.3,Win32,29.94011976,,,,,,,,,,,,,,,,,,,414.1316,5,1,,5,0,5,0,1,0.3282,,left,stimuli/card_100_transparent.png,220,100,,,,,,,,,,,,,,,,,,,,,,,,,,,,,,,,,,,,,,,,,,,,
,,,,65dba0a093dc7a5420f61e5f,A,2024-07-04_20h55.19.547,Slot Machine Game,2023.1.3,Win32,29.94011976,,,,,,,,,,,,,,,,,,,416.2463,6,0.5,,6,0,6,0,1,1.3609,,left,stimuli/card_0_transparent.png,220,0,,,,,,,,,,,,,,,,,,,,,,,,,,,,,,,,,,,,,,,,,,,,
,,,,65dba0a093dc7a5420f61e5f,A,2024-07-04_20h55.19.547,Slot Machine Game,2023.1.3,Win32,29.94011976,,,,,,,,,,,,,,,,,,,418.9904,7,1.5,,7,0,7,0,1,0.1837,,left,stimuli/card_100_transparent.png,320,100,,,,,,,,,,,,,,,,,,,,,,,,,,,,,,,,,,,,,,,,,,,,
,,,,65dba0a093dc7a5420f61e5f,A,2024-07-04_20h55.19.547,Slot Machine Game,2023.1.3,Win32,29.94011976,,,,,,,,,,,,,,,,,,,421.4861,8,1.5,,8,0,8,0,1,0.1008,,left,stimuli/card_0_transparent.png,320,0,,,,,,,,,,,,,,,,,,,,,,,,,,,,,,,,,,,,,,,,,,,,
,,,,65dba0a093dc7a5420f61e5f,A,2024-07-04_20h55.19.547,Slot Machine Game,2023.1.3,Win32,29.94011976,,,,,,,,,,,,,,,,,,,423.9415,9,1.5,,9,0,9,0,1,0.1913,,left,stimuli/card_0_transparent.png,320,0,,,,,,,,,,,,,,,,,,,,,,,,,,,,,,,,,,,,,,,,,,,,
,,,,65dba0a093dc7a5420f61e5f,A,2024-07-04_20h55.19.547,Slot Machine Game,2023.1.3,Win32,29.94011976,,,,,,,,,,,,,,,,,,,426.4796,10,1.5,,10,0,10,0,1,0.6875,,up,stimuli/card_100_transparent.png,420,100,,,,,,,,,,,,,,,,,,,,,,,,,,,,,,,,,,,,,,,,,,,,
,,,,65dba0a093dc7a5420f61e5f,A,2024-07-04_20h55.19.547,Slot Machine Game,2023.1.3,Win32,29.94011976,,,,,,,,,,,,,,,,,,,429.4959,11,1.5,,11,0,11,0,1,0.8514,,up,stimuli/card_100_transparent.png,520,100,,,,,,,,,,,,,,,,,,,,,,,,,,,,,,,,,,,,,,,,,,,,
,,,,65dba0a093dc7a5420f61e5f,A,2024-07-04_20h55.19.547,Slot Machine Game,2023.1.3,Win32,29.94011976,,,,,,,,,,,,,,,,,,,432.7159,12,1.5,,12,0,12,0,1,0.8912,,up,stimuli/card_100_transparent.png,620,100,,,,,,,,,,,,,,,,,,,,,,,,,,,,,,,,,,,,,,,,,,,,
,,,,65dba0a093dc7a5420f61e5f,A,2024-07-04_20h55.19.547,Slot Machine Game,2023.1.3,Win32,29.94011976,,,,,,,,,,,,,,,,,,,435.9228,13,1.5,,13,0,13,0,1,1.1279,,up,stimuli/card_100_transparent.png,720,100,,,,,,,,,,,,,,,,,,,,,,,,,,,,,,,,,,,,,,,,,,,,
,,,,65dba0a093dc7a5420f61e5f,A,2024-07-04_20h55.19.547,Slot Machine Game,2023.1.3,Win32,29.94011976,,,,,,,,,,,,,,,,,,,439.4422,14,1,,14,0,14,0,1,0.2691,,up,stimuli/card_100_transparent.png,820,100,,,,,,,,,,,,,,,,,,,,,,,,,,,,,,,,,,,,,,,,,,,,
,,,,65dba0a093dc7a5420f61e5f,A,2024-07-04_20h55.19.547,Slot Machine Game,2023.1.3,Win32,29.94011976,,,,,,,,,,,,,,,,,,,,,,,,,,,,,,,,,,,441.5582,,,446.5587,space,15.1735,,,,,,,,,,,,,,,,,,,,,,,,,,,,,,,,,,,,,
,,,,65dba0a093dc7a5420f61e5f,A,2024-07-04_20h55.19.547,Slot Machine Game,2023.1.3,Win32,29.94011976,,,,,,,,,,,,,,,,,,,,,,,,,,,,,,,,,,,,,,,,,,461.7838,2,"[2,4,8,0,1,3,9,6,8,5]",space,2.7096,,,,,,,,,,,,,,,,,,,,,,,,,,,,,,,
,,,,65dba0a093dc7a5420f61e5f,A,2024-07-04_20h55.19.547,Slot Machine Game,2023.1.3,Win32,29.94011976,,,,,,,,,,,,,,,,,,,,,,,,,,,,,,,,0,,,,,,,,,,,,,,,,1,3,"[15,15]","[[3,1,2],[3,1,2]]",464.5631,0,left,1.5525,,1.5,0.3,"[3,1,2]",0.805867134,stimuli/card_0_transparent.png,0,0,0,0,0,1,,,,,,,,,,
,,,,65dba0a093dc7a5420f61e5f,A,2024-07-04_20h55.19.547,Slot Machine Game,2023.1.3,Win32,29.94011976,,,,,,,,,,,,,,,,,,,,,,,,,,,,,,,,10,,,,,,,,,,,,,,,,1,3,,,468.4366,1,up,0.6983,,1,0.3,"[3,1,2]",0.113547924,stimuli/card_10_transparent.png,10,1,0,1,0,1,,,,,,,,,,
,,,,65dba0a093dc7a5420f61e5f,A,2024-07-04_20h55.19.547,Slot Machine Game,2023.1.3,Win32,29.94011976,,,,,,,,,,,,,,,,,,,,,,,,,,,,,,,,20,,,,,,,,,,,,,,,,1,3,,,470.9432,2,right,0.3676,,1.5,0.3,"[3,1,2]",0.463510721,stimuli/card_10_transparent.png,10,2,0,2,0,1,,,,,,,,,,
,,,,65dba0a093dc7a5420f61e5f,A,2024-07-04_20h55.19.547,Slot Machine Game,2023.1.3,Win32,29.94011976,,,,,,,,,,,,,,,,,,,,,,,,,,,,,,,,30,,,,,,,,,,,,,,,,1,3,,,473.646,3,left,0.969,,1,0.3,"[3,1,2]",0.153410891,stimuli/card_10_transparent.png,10,3,0,3,0,1,,,,,,,,,,
,,,,65dba0a093dc7a5420f61e5f,A,2024-07-04_20h55.19.547,Slot Machine Game,2023.1.3,Win32,29.94011976,,,,,,,,,,,,,,,,,,,,,,,,,,,,,,,,130,,,,,,,,,,,,,,,,1,3,,,476.4963,4,up,0.383,,1.5,0.3,"[3,1,2]",0.572720653,stimuli/card_100_transparent.png,100,4,0,4,0,1,,,,,,,,,,
,,,,65dba0a093dc7a5420f61e5f,A,2024-07-04_20h55.19.547,Slot Machine Game,2023.1.3,Win32,29.94011976,,,,,,,,,,,,,,,,,,,,,,,,,,,,,,,,130,,,,,,,,,,,,,,,,1,3,,,479.2588,5,up,0.0771,,1.5,0.3,"[3,1,2]",0.038424297,stimuli/card_0_transparent.png,0,5,0,5,0,1,,,,,,,,,,
,,,,65dba0a093dc7a5420f61e5f,A,2024-07-04_20h55.19.547,Slot Machine Game,2023.1.3,Win32,29.94011976,,,,,,,,,,,,,,,,,,,,,,,,,,,,,,,,230,,,,,,,,,,,,,,,,1,3,,,481.7101,6,up,0.1834,,0.5,0.3,"[3,1,2]",0.291341944,stimuli/card_100_transparent.png,100,6,0,6,0,1,,,,,,,,,,
,,,,65dba0a093dc7a5420f61e5f,A,2024-07-04_20h55.19.547,Slot Machine Game,2023.1.3,Win32,29.94011976,,,,,,,,,,,,,,,,,,,,,,,,,,,,,,,,230,,,,,,,,,,,,,,,,1,3,,,483.2617,7,up,0.2253,,1,0.3,"[3,1,2]",0.063419719,stimuli/card_0_transparent.png,0,7,0,7,0,1,,,,,,,,,,
,,,,65dba0a093dc7a5420f61e5f,A,2024-07-04_20h55.19.547,Slot Machine Game,2023.1.3,Win32,29.94011976,,,,,,,,,,,,,,,,,,,,,,,,,,,,,,,,330,,,,,,,,,,,,,,,,1,3,,,485.342,8,up,0.7503,,1.5,0.3,"[3,1,2]",0.66790143,stimuli/card_100_transparent.png,100,8,0,8,0,1,,,,,,,,,,
,,,,65dba0a093dc7a5420f61e5f,A,2024-07-04_20h55.19.547,Slot Machine Game,2023.1.3,Win32,29.94011976,,,,,,,,,,,,,,,,,,,,,,,,,,,,,,,,430,,,,,,,,,,,,,,,,1,3,,,488.4339,9,up,0.7277,,1.5,0.3,"[3,1,2]",0.530479265,stimuli/card_100_transparent.png,100,9,0,9,0,1,,,,,,,,,,
,,,,65dba0a093dc7a5420f61e5f,A,2024-07-04_20h55.19.547,Slot Machine Game,2023.1.3,Win32,29.94011976,,,,,,,,,,,,,,,,,,,,,,,,,,,,,,,,530,,,,,,,,,,,,,,,,1,3,,,491.5105,10,up,0.1837,,1.5,0.3,"[3,1,2]",0.883230313,stimuli/card_100_transparent.png,100,10,0,10,0,1,,,,,,,,,,
,,,,65dba0a093dc7a5420f61e5f,A,2024-07-04_20h55.19.547,Slot Machine Game,2023.1.3,Win32,29.94011976,,,,,,,,,,,,,,,,,,,,,,,,,,,,,,,,630,,,,,,,,,,,,,,,,1,3,,,494.0853,11,up,0.2698,,1,0.3,"[3,1,2]",0.267588643,stimuli/card_100_transparent.png,100,11,0,11,0,1,,,,,,,,,,
,,,,65dba0a093dc7a5420f61e5f,A,2024-07-04_20h55.19.547,Slot Machine Game,2023.1.3,Win32,29.94011976,,,,,,,,,,,,,,,,,,,,,,,,,,,,,,,,730,,,,,,,,,,,,,,,,1,3,,,496.2007,12,up,1.9463,,1,0.3,"[3,1,2]",0.976279033,stimuli/card_100_transparent.png,100,12,0,12,0,1,,,,,,,,,,
,,,,65dba0a093dc7a5420f61e5f,A,2024-07-04_20h55.19.547,Slot Machine Game,2023.1.3,Win32,29.94011976,,,,,,,,,,,,,,,,,,,,,,,,,,,,,,,,830,,,,,,,,,,,,,,,,1,3,,,500.0091,13,up,0.4517,,1,0.3,"[3,1,2]",0.363190079,stimuli/card_100_transparent.png,100,13,0,13,0,1,,,,,,,,,,
,,,,65dba0a093dc7a5420f61e5f,A,2024-07-04_20h55.19.547,Slot Machine Game,2023.1.3,Win32,29.94011976,,,,,,,,,,,,,,,,,,,,,,,,,,,,,,,,930,,,,,,,,,,,,,,,,1,3,,,502.3013,14,up,0.1396,,1.5,0.3,"[3,1,2]",0.60431268,stimuli/card_100_transparent.png,100,14,0,14,0,1,,,,,,,,,,
,,,,65dba0a093dc7a5420f61e5f,A,2024-07-04_20h55.19.547,Slot Machine Game,2023.1.3,Win32,29.94011976,,,,,,,,,,,,,,,,,,,,,,,,,,,,,,,,,,,504.7714,,,,,,,,,,,,,,,,,,,,,,,,,,,,,,,,,[930],0,0,0,0,1,,,,
,,,,65dba0a093dc7a5420f61e5f,A,2024-07-04_20h55.19.547,Slot Machine Game,2023.1.3,Win32,29.94011976,,,,,,,,,,,,,,,,,,,,,,,,,,,,,,,,10,,,,,,,,,,,,,,,,2,5,"[5,15]","[[1,2,3],[3,1,2]]",509.7506,0,up,1.4911,,1,0.3,"[1,2,3]",0.987332691,stimuli/card_10_transparent.png,10,0,0,0,0,1,,,,,,,,,,
,,,,65dba0a093dc7a5420f61e5f,A,2024-07-04_20h55.19.547,Slot Machine Game,2023.1.3,Win32,29.94011976,,,,,,,,,,,,,,,,,,,,,,,,,,,,,,,,10,,,,,,,,,,,,,,,,2,5,,,513.0638,1,right,0.7632,,0.5,0.3,"[1,2,3]",0.427219335,stimuli/card_0_transparent.png,0,1,0,1,0,1,,,,,,,,,,
,,,,65dba0a093dc7a5420f61e5f,A,2024-07-04_20h55.19.547,Slot Machine Game,2023.1.3,Win32,29.94011976,,,,,,,,,,,,,,,,,,,,,,,,,,,,,,,,10,,,,,,,,,,,,,,,,2,5,,,515.1918,2,left,0.6635,,0.5,0.3,"[1,2,3]",0.084341814,stimuli/card_0_transparent.png,0,2,0,2,0,1,,,,,,,,,,
,,,,65dba0a093dc7a5420f61e5f,A,2024-07-04_20h55.19.547,Slot Machine Game,2023.1.3,Win32,29.94011976,,,,,,,,,,,,,,,,,,,,,,,,,,,,,,,,20,,,,,,,,,,,,,,,,2,5,,,517.1967,3,up,0.1457,,1,0.3,"[1,2,3]",0.970943378,stimuli/card_10_transparent.png,10,3,0,3,0,1,,,,,,,,,,
,,,,65dba0a093dc7a5420f61e5f,A,2024-07-04_20h55.19.547,Slot Machine Game,2023.1.3,Win32,29.94011976,,,,,,,,,,,,,,,,,,,,,,,,,,,,,,,,30,,,,,,,,,,,,,,,,2,5,,,519.1581,4,up,0.0005,,1.5,0.3,"[1,2,3]",0.326905643,stimuli/card_10_transparent.png,10,4,0,4,0,1,,,,,,,,,,
,,,,65dba0a093dc7a5420f61e5f,A,2024-07-04_20h55.19.547,Slot Machine Game,2023.1.3,Win32,29.94011976,,,,,,,,,,,,,,,,,,,,,,,,,,,,,,,,130,,,,,,,,,,,,,,,,2,5,,,521.4926,5,up,0.0004,,0.5,0.3,"[3,1,2]",0.31721011,stimuli/card_100_transparent.png,100,5,0,5,0,1,,,,,,,,,,
,,,,65dba0a093dc7a5420f61e5f,A,2024-07-04_20h55.19.547,Slot Machine Game,2023.1.3,Win32,29.94011976,,,,,,,,,,,,,,,,,,,,,,,,,,,,,,,,230,,,,,,,,,,,,,,,,2,5,,,522.8951,6,up,0.0223,,1,0.3,"[3,1,2]",0.777784231,stimuli/card_100_transparent.png,100,6,0,6,0,1,,,,,,,,,,
,,,,65dba0a093dc7a5420f61e5f,A,2024-07-04_20h55.19.547,Slot Machine Game,2023.1.3,Win32,29.94011976,,,,,,,,,,,,,,,,,,,,,,,,,,,,,,,,240,,,,,,,,,,,,,,,,2,5,,,524.7744,7,up,0.0006,,0.5,0.3,"[3,1,2]",0.123690914,stimuli/card_10_transparent.png,10,7,0,7,0,1,,,,,,,,,,
,,,,65dba0a093dc7a5420f61e5f,A,2024-07-04_20h55.19.547,Slot Machine Game,2023.1.3,Win32,29.94011976,,,,,,,,,,,,,,,,,,,,,,,,,,,,,,,,340,,,,,,,,,,,,,,,,2,5,,,526.1472,8,up,0.0005,,1.5,0.3,"[3,1,2]",0.507522037,stimuli/card_100_transparent.png,100,8,0,8,0,1,,,,,,,,,,
,,,,65dba0a093dc7a5420f61e5f,A,2024-07-04_20h55.19.547,Slot Machine Game,2023.1.3,Win32,29.94011976,,,,,,,,,,,,,,,,,,,,,,,,,,,,,,,,440,,,,,,,,,,,,,,,,2,5,,,528.5089,9,up,0.6322,,1,0.3,"[3,1,2]",0.338745434,stimuli/card_100_transparent.png,100,9,0,9,0,1,,,,,,,,,,
,,,,65dba0a093dc7a5420f61e5f,A,2024-07-04_20h55.19.547,Slot Machine Game,2023.1.3,Win32,29.94011976,,,,,,,,,,,,,,,,,,,,,,,,,,,,,,,,540,,,,,,,,,,,,,,,,2,5,,,531.0079,10,up,0.5654,,1,0.3,"[3,1,2]",0.869633696,stimuli/card_100_transparent.png,100,10,0,10,0,1,,,,,,,,,,
,,,,65dba0a093dc7a5420f61e5f,A,2024-07-04_20h55.19.547,Slot Machine Game,2023.1.3,Win32,29.94011976,,,,,,,,,,,,,,,,,,,,,,,,,,,,,,,,640,,,,,,,,,,,,,,,,2,5,,,533.4162,11,up,0.2268,,1.5,0.3,"[3,1,2]",0.292488734,stimuli/card_100_transparent.png,100,11,0,11,0,1,,,,,,,,,,
,,,,65dba0a093dc7a5420f61e5f,A,2024-07-04_20h55.19.547,Slot Machine Game,2023.1.3,Win32,29.94011976,,,,,,,,,,,,,,,,,,,,,,,,,,,,,,,,740,,,,,,,,,,,,,,,,2,5,,,536.0388,12,up,0.2207,,1,0.3,"[3,1,2]",0.876691558,stimuli/card_100_transparent.png,100,12,0,12,0,1,,,,,,,,,,
,,,,65dba0a093dc7a5420f61e5f,A,2024-07-04_20h55.19.547,Slot Machine Game,2023.1.3,Win32,29.94011976,,,,,,,,,,,,,,,,,,,,,,,,,,,,,,,,840,,,,,,,,,,,,,,,,2,5,,,538.1116,13,up,0.355,,0.5,0.3,"[3,1,2]",0.274263206,stimuli/card_100_transparent.png,100,13,0,13,0,1,,,,,,,,,,
,,,,65dba0a093dc7a5420f61e5f,A,2024-07-04_20h55.19.547,Slot Machine Game,2023.1.3,Win32,29.94011976,,,,,,,,,,,,,,,,,,,,,,,,,,,,,,,,940,,,,,,,,,,,,,,,,2,5,,,539.802,14,up,0.3625,,0.5,0.3,"[3,1,2]",0.999658768,stimuli/card_100_transparent.png,100,14,0,14,0,1,,,,,,,,,,
,,,,65dba0a093dc7a5420f61e5f,A,2024-07-04_20h55.19.547,Slot Machine Game,2023.1.3,Win32,29.94011976,,,,,,,,,,,,,,,,,,,,,,,,,,,,,,,,,,,541.4736,,,,,,,,,,,,,,,,,,,,,,,,,,,,,,,,,"[930,940]",1,0,1,0,1,,,,
,,,,65dba0a093dc7a5420f61e5f,A,2024-07-04_20h55.19.547,Slot Machine Game,2023.1.3,Win32,29.94011976,,,,,,,,,,,,,,,,,,,,,,,,,,,,,,,,100,,,,,,,,,,,,,,,,3,9,"[8,15]","[[3,2,1],[3,1,2]]",546.5007,0,up,0.4612,,0.5,0.3,"[3,2,1]",0.186326836,stimuli/card_100_transparent.png,100,0,0,0,0,1,,,,,,,,,,
,,,,65dba0a093dc7a5420f61e5f,A,2024-07-04_20h55.19.547,Slot Machine Game,2023.1.3,Win32,29.94011976,,,,,,,,,,,,,,,,,,,,,,,,,,,,,,,,110,,,,,,,,,,,,,,,,3,9,,,548.2829,1,up,0.2069,,1.5,0.3,"[3,2,1]",0.23591733,stimuli/card_10_transparent.png,10,1,0,1,0,1,,,,,,,,,,
,,,,65dba0a093dc7a5420f61e5f,A,2024-07-04_20h55.19.547,Slot Machine Game,2023.1.3,Win32,29.94011976,,,,,,,,,,,,,,,,,,,,,,,,,,,,,,,,120,,,,,,,,,,,,,,,,3,9,,,550.8102,2,up,0.0908,,1.5,0.3,"[3,2,1]",0.840704341,stimuli/card_10_transparent.png,10,2,0,2,0,1,,,,,,,,,,
,,,,65dba0a093dc7a5420f61e5f,A,2024-07-04_20h55.19.547,Slot Machine Game,2023.1.3,Win32,29.94011976,,,,,,,,,,,,,,,,,,,,,,,,,,,,,,,,130,,,,,,,,,,,,,,,,3,9,,,553.2383,3,up,0.0006,,0.5,0.3,"[3,2,1]",0.298257621,stimuli/card_10_transparent.png,10,3,0,3,0,1,,,,,,,,,,
,,,,65dba0a093dc7a5420f61e5f,A,2024-07-04_20h55.19.547,Slot Machine Game,2023.1.3,Win32,29.94011976,,,,,,,,,,,,,,,,,,,,,,,,,,,,,,,,230,,,,,,,,,,,,,,,,3,9,,,554.5937,4,right,0.4773,,1,0.3,"[3,2,1]",0.650185657,stimuli/card_100_transparent.png,100,4,0,4,0,1,,,,,,,,,,
,,,,65dba0a093dc7a5420f61e5f,A,2024-07-04_20h55.19.547,Slot Machine Game,2023.1.3,Win32,29.94011976,,,,,,,,,,,,,,,,,,,,,,,,,,,,,,,,330,,,,,,,,,,,,,,,,3,9,,,556.9653,5,right,0.1111,,1.5,0.3,"[3,2,1]",0.222821881,stimuli/card_100_transparent.png,100,5,0,5,0,1,,,,,,,,,,
,,,,65dba0a093dc7a5420f61e5f,A,2024-07-04_20h55.19.547,Slot Machine Game,2023.1.3,Win32,29.94011976,,,,,,,,,,,,,,,,,,,,,,,,,,,,,,,,430,,,,,,,,,,,,,,,,3,9,,,559.3778,6,right,0.0739,,1,0.3,"[3,2,1]",0.279512162,stimuli/card_100_transparent.png,100,6,0,6,0,1,,,,,,,,,,
,,,,65dba0a093dc7a5420f61e5f,A,2024-07-04_20h55.19.547,Slot Machine Game,2023.1.3,Win32,29.94011976,,,,,,,,,,,,,,,,,,,,,,,,,,,,,,,,430,,,,,,,,,,,,,,,,3,9,,,561.2778,7,right,0.0006,,1.5,0.3,"[3,2,1]",0.05914134,stimuli/card_0_transparent.png,0,7,0,7,0,1,,,,,,,,,,
,,,,65dba0a093dc7a5420f61e5f,A,2024-07-04_20h55.19.547,Slot Machine Game,2023.1.3,Win32,29.94011976,,,,,,,,,,,,,,,,,,,,,,,,,,,,,,,,440,,,,,,,,,,,,,,,,3,9,,,563.6617,8,right,0.7682,,0.5,0.3,"[3,1,2]",0.546376058,stimuli/card_10_transparent.png,10,8,0,8,0,1,,,,,,,,,,
,,,,65dba0a093dc7a5420f61e5f,A,2024-07-04_20h55.19.547,Slot Machine Game,2023.1.3,Win32,29.94011976,,,,,,,,,,,,,,,,,,,,,,,,,,,,,,,,540,,,,,,,,,,,,,,,,3,9,,,565.7876,9,left,0.9653,,1.5,0.3,"[3,1,2]",0.046557704,stimuli/card_100_transparent.png,100,9,0,9,0,1,,,,,,,,,,
,,,,65dba0a093dc7a5420f61e5f,A,2024-07-04_20h55.19.547,Slot Machine Game,2023.1.3,Win32,29.94011976,,,,,,,,,,,,,,,,,,,,,,,,,,,,,,,,540,,,,,,,,,,,,,,,,3,9,,,569.1128,10,left,0.1177,,1.5,0.3,"[3,1,2]",0.208340273,stimuli/card_0_transparent.png,0,10,0,10,0,1,,,,,,,,,,
,,,,65dba0a093dc7a5420f61e5f,A,2024-07-04_20h55.19.547,Slot Machine Game,2023.1.3,Win32,29.94011976,,,,,,,,,,,,,,,,,,,,,,,,,,,,,,,,540,,,,,,,,,,,,,,,,3,9,,,571.6203,11,left,0.5109,,1.5,0.3,"[3,1,2]",0.494855878,stimuli/card_0_transparent.png,0,11,0,11,0,1,,,,,,,,,,
,,,,65dba0a093dc7a5420f61e5f,A,2024-07-04_20h55.19.547,Slot Machine Game,2023.1.3,Win32,29.94011976,,,,,,,,,,,,,,,,,,,,,,,,,,,,,,,,550,,,,,,,,,,,,,,,,3,9,,,574.4367,12,up,0.3255,,1.5,0.3,"[3,1,2]",0.185189068,stimuli/card_10_transparent.png,10,12,0,12,0,1,,,,,,,,,,
,,,,65dba0a093dc7a5420f61e5f,A,2024-07-04_20h55.19.547,Slot Machine Game,2023.1.3,Win32,29.94011976,,,,,,,,,,,,,,,,,,,,,,,,,,,,,,,,650,,,,,,,,,,,,,,,,3,9,,,577.0814,13,up,0.6456,,1,0.3,"[3,1,2]",0.835016776,stimuli/card_100_transparent.png,100,13,0,13,0,1,,,,,,,,,,
,,,,65dba0a093dc7a5420f61e5f,A,2024-07-04_20h55.19.547,Slot Machine Game,2023.1.3,Win32,29.94011976,,,,,,,,,,,,,,,,,,,,,,,,,,,,,,,,750,,,,,,,,,,,,,,,,3,9,,,579.6113,14,up,0.2226,,1.5,0.3,"[3,1,2]",0.796719157,stimuli/card_100_transparent.png,100,14,0,14,0,1,,,,,,,,,,
,,,,65dba0a093dc7a5420f61e5f,A,2024-07-04_20h55.19.547,Slot Machine Game,2023.1.3,Win32,29.94011976,,,,,,,,,,,,,,,,,,,,,,,,,,,,,,,,,,,582.2031,,,,,,,,,,,,,,,,,,,,,,,,,,,,,,,,,"[930,940,750]",2,0,2,0,1,,,,
,,,,65dba0a093dc7a5420f61e5f,A,2024-07-04_20h55.19.547,Slot Machine Game,2023.1.3,Win32,29.94011976,,,,,,,,,,,,,,,,,,,,,,,,,,,,,,,,10,,,,,,,,,,,,,,,,4,1,"[12,15]","[[2,1,3],[2,3,1]]",587.2216,0,left,1.7071,,0.5,0.3,"[2,1,3]",0.837057722,stimuli/card_10_transparent.png,10,0,0,0,0,1,,,,,,,,,,
,,,,65dba0a093dc7a5420f61e5f,A,2024-07-04_20h55.19.547,Slot Machine Game,2023.1.3,Win32,29.94011976,,,,,,,,,,,,,,,,,,,,,,,,,,,,,,,,10,,,,,,,,,,,,,,,,4,1,,,590.2956,1,up,1.3554,,0.5,0.3,"[2,1,3]",0.060492503,stimuli/card_0_transparent.png,0,1,0,1,0,1,,,,,,,,,,
,,,,65dba0a093dc7a5420f61e5f,A,2024-07-04_20h55.19.547,Slot Machine Game,2023.1.3,Win32,29.94011976,,,,,,,,,,,,,,,,,,,,,,,,,,,,,,,,10,,,,,,,,,,,,,,,,4,1,,,592.9903,2,right,0.6787,,1,0.3,"[2,1,3]",0.596816302,stimuli/card_0_transparent.png,0,2,0,2,0,1,,,,,,,,,,
,,,,65dba0a093dc7a5420f61e5f,A,2024-07-04_20h55.19.547,Slot Machine Game,2023.1.3,Win32,29.94011976,,,,,,,,,,,,,,,,,,,,,,,,,,,,,,,,110,,,,,,,,,,,,,,,,4,1,,,595.5423,3,up,0.8132,,1,0.3,"[2,1,3]",0.858642727,stimuli/card_100_transparent.png,100,3,0,3,0,1,,,,,,,,,,
,,,,65dba0a093dc7a5420f61e5f,A,2024-07-04_20h55.19.547,Slot Machine Game,2023.1.3,Win32,29.94011976,,,,,,,,,,,,,,,,,,,,,,,,,,,,,,,,210,,,,,,,,,,,,,,,,4,1,,,598.2254,4,up,0.0956,,0.5,0.3,"[2,1,3]",0.788172487,stimuli/card_100_transparent.png,100,4,0,4,0,1,,,,,,,,,,
,,,,65dba0a093dc7a5420f61e5f,A,2024-07-04_20h55.19.547,Slot Machine Game,2023.1.3,Win32,29.94011976,,,,,,,,,,,,,,,,,,,,,,,,,,,,,,,,210,,,,,,,,,,,,,,,,4,1,,,599.6889,5,up,0.4983,,0.5,0.3,"[2,1,3]",0.030824286,stimuli/card_0_transparent.png,0,5,0,5,0,1,,,,,,,,,,
,,,,65dba0a093dc7a5420f61e5f,A,2024-07-04_20h55.19.547,Slot Machine Game,2023.1.3,Win32,29.94011976,,,,,,,,,,,,,,,,,,,,,,,,,,,,,,,,310,,,,,,,,,,,,,,,,4,1,,,601.5188,6,up,0.6086,,1.5,0.3,"[2,1,3]",0.299665292,stimuli/card_100_transparent.png,100,6,0,6,0,1,,,,,,,,,,
,,,,65dba0a093dc7a5420f61e5f,A,2024-07-04_20h55.19.547,Slot Machine Game,2023.1.3,Win32,29.94011976,,,,,,,,,,,,,,,,,,,,,,,,,,,,,,,,410,,,,,,,,,,,,,,,,4,1,,,604.4647,7,up,0.465,,1,0.3,"[2,1,3]",0.905999904,stimuli/card_100_transparent.png,100,7,0,7,0,1,,,,,,,,,,
,,,,65dba0a093dc7a5420f61e5f,A,2024-07-04_20h55.19.547,Slot Machine Game,2023.1.3,Win32,29.94011976,,,,,,,,,,,,,,,,,,,,,,,,,,,,,,,,510,,,,,,,,,,,,,,,,4,1,,,606.7787,8,up,0.2859,,1,0.3,"[2,1,3]",0.644587532,stimuli/card_100_transparent.png,100,8,0,8,0,1,,,,,,,,,,
,,,,65dba0a093dc7a5420f61e5f,A,2024-07-04_20h55.19.547,Slot Machine Game,2023.1.3,Win32,29.94011976,,,,,,,,,,,,,,,,,,,,,,,,,,,,,,,,610,,,,,,,,,,,,,,,,4,1,,,608.9431,9,up,0.0969,,0.5,0.3,"[2,1,3]",0.594267017,stimuli/card_100_transparent.png,100,9,0,9,0,1,,,,,,,,,,
,,,,65dba0a093dc7a5420f61e5f,A,2024-07-04_20h55.19.547,Slot Machine Game,2023.1.3,Win32,29.94011976,,,,,,,,,,,,,,,,,,,,,,,,,,,,,,,,710,,,,,,,,,,,,,,,,4,1,,,610.3946,10,up,0.2219,,1,0.3,"[2,1,3]",0.677824904,stimuli/card_100_transparent.png,100,10,0,10,0,1,,,,,,,,,,
,,,,65dba0a093dc7a5420f61e5f,A,2024-07-04_20h55.19.547,Slot Machine Game,2023.1.3,Win32,29.94011976,,,,,,,,,,,,,,,,,,,,,,,,,,,,,,,,810,,,,,,,,,,,,,,,,4,1,,,612.4392,11,up,0.157,,0.5,0.3,"[2,1,3]",0.953880222,stimuli/card_100_transparent.png,100,11,0,11,0,1,,,,,,,,,,
,,,,65dba0a093dc7a5420f61e5f,A,2024-07-04_20h55.19.547,Slot Machine Game,2023.1.3,Win32,29.94011976,,,,,,,,,,,,,,,,,,,,,,,,,,,,,,,,810,,,,,,,,,,,,,,,,4,1,,,613.9072,12,up,0.1541,,1.5,0.3,"[2,3,1]",0.584455569,stimuli/card_0_transparent.png,0,12,0,12,0,1,,,,,,,,,,
,,,,65dba0a093dc7a5420f61e5f,A,2024-07-04_20h55.19.547,Slot Machine Game,2023.1.3,Win32,29.94011976,,,,,,,,,,,,,,,,,,,,,,,,,,,,,,,,820,,,,,,,,,,,,,,,,4,1,,,616.4022,13,up,0.1212,,0.5,0.3,"[2,3,1]",0.120839898,stimuli/card_10_transparent.png,10,13,0,13,0,1,,,,,,,,,,
,,,,65dba0a093dc7a5420f61e5f,A,2024-07-04_20h55.19.547,Slot Machine Game,2023.1.3,Win32,29.94011976,,,,,,,,,,,,,,,,,,,,,,,,,,,,,,,,820,,,,,,,,,,,,,,,,4,1,,,617.8662,14,up,0.0812,,1,0.3,"[2,3,1]",0.391612293,stimuli/card_0_transparent.png,0,14,0,14,0,1,,,,,,,,,,
,,,,65dba0a093dc7a5420f61e5f,A,2024-07-04_20h55.19.547,Slot Machine Game,2023.1.3,Win32,29.94011976,,,,,,,,,,,,,,,,,,,,,,,,,,,,,,,,,,,619.7908,,,,,,,,,,,,,,,,,,,,,,,,,,,,,,,,,"[930,940,750,820]",3,0,3,0,1,,,,
,,,,65dba0a093dc7a5420f61e5f,A,2024-07-04_20h55.19.547,Slot Machine Game,2023.1.3,Win32,29.94011976,,,,,,,,,,,,,,,,,,,,,,,,,,,,,,,,100,,,,,,,,,,,,,,,,5,2,"[6,15]","[[1,3,2],[3,2,1]]",624.7903,0,left,1.3542,,1,0.3,"[1,3,2]",0.545967999,stimuli/card_100_transparent.png,100,0,0,0,0,1,,,,,,,,,,
,,,,65dba0a093dc7a5420f61e5f,A,2024-07-04_20h55.19.547,Slot Machine Game,2023.1.3,Win32,29.94011976,,,,,,,,,,,,,,,,,,,,,,,,,,,,,,,,200,,,,,,,,,,,,,,,,5,2,,,628.0086,1,left,0.0527,,0.5,0.3,"[1,3,2]",0.772379218,stimuli/card_100_transparent.png,100,1,0,1,0,1,,,,,,,,,,
,,,,65dba0a093dc7a5420f61e5f,A,2024-07-04_20h55.19.547,Slot Machine Game,2023.1.3,Win32,29.94011976,,,,,,,,,,,,,,,,,,,,,,,,,,,,,,,,300,,,,,,,,,,,,,,,,5,2,,,629.4313,2,left,0.1659,,1,0.3,"[1,3,2]",0.994226724,stimuli/card_100_transparent.png,100,2,0,2,0,1,,,,,,,,,,
,,,,65dba0a093dc7a5420f61e5f,A,2024-07-04_20h55.19.547,Slot Machine Game,2023.1.3,Win32,29.94011976,,,,,,,,,,,,,,,,,,,,,,,,,,,,,,,,400,,,,,,,,,,,,,,,,5,2,,,631.4663,3,left,0.19,,0.5,0.3,"[1,3,2]",0.78821661,stimuli/card_100_transparent.png,100,3,0,3,0,1,,,,,,,,,,
,,,,65dba0a093dc7a5420f61e5f,A,2024-07-04_20h55.19.547,Slot Machine Game,2023.1.3,Win32,29.94011976,,,,,,,,,,,,,,,,,,,,,,,,,,,,,,,,500,,,,,,,,,,,,,,,,5,2,,,633.0283,4,left,0.1413,,0.5,0.3,"[1,3,2]",0.85360779,stimuli/card_100_transparent.png,100,4,0,4,0,1,,,,,,,,,,
,,,,65dba0a093dc7a5420f61e5f,A,2024-07-04_20h55.19.547,Slot Machine Game,2023.1.3,Win32,29.94011976,,,,,,,,,,,,,,,,,,,,,,,,,,,,,,,,600,,,,,,,,,,,,,,,,5,2,,,634.5322,5,left,0.0297,,1.5,0.3,"[1,3,2]",0.707049351,stimuli/card_100_transparent.png,100,5,0,5,0,1,,,,,,,,,,
,,,,65dba0a093dc7a5420f61e5f,A,2024-07-04_20h55.19.547,Slot Machine Game,2023.1.3,Win32,29.94011976,,,,,,,,,,,,,,,,,,,,,,,,,,,,,,,,610,,,,,,,,,,,,,,,,5,2,,,636.9071,6,left,0.1453,,0.5,0.3,"[3,2,1]",0.140081952,stimuli/card_10_transparent.png,10,6,0,6,0,1,,,,,,,,,,
,,,,65dba0a093dc7a5420f61e5f,A,2024-07-04_20h55.19.547,Slot Machine Game,2023.1.3,Win32,29.94011976,,,,,,,,,,,,,,,,,,,,,,,,,,,,,,,,610,,,,,,,,,,,,,,,,5,2,,,638.432,7,left,1.4283,,1.5,0.3,"[3,2,1]",0.974804903,stimuli/card_0_transparent.png,0,7,0,7,0,1,,,,,,,,,,
,,,,65dba0a093dc7a5420f61e5f,A,2024-07-04_20h55.19.547,Slot Machine Game,2023.1.3,Win32,29.94011976,,,,,,,,,,,,,,,,,,,,,,,,,,,,,,,,610,,,,,,,,,,,,,,,,5,2,,,642.2035,8,up,0.3302,,1.5,0.3,"[3,2,1]",0.06758131,stimuli/card_0_transparent.png,0,8,0,8,0,1,,,,,,,,,,
,,,,65dba0a093dc7a5420f61e5f,A,2024-07-04_20h55.19.547,Slot Machine Game,2023.1.3,Win32,29.94011976,,,,,,,,,,,,,,,,,,,,,,,,,,,,,,,,710,,,,,,,,,,,,,,,,5,2,,,644.8787,9,right,0.7619,,1.5,0.3,"[3,2,1]",0.583379291,stimuli/card_100_transparent.png,100,9,0,9,0,1,,,,,,,,,,
,,,,65dba0a093dc7a5420f61e5f,A,2024-07-04_20h55.19.547,Slot Machine Game,2023.1.3,Win32,29.94011976,,,,,,,,,,,,,,,,,,,,,,,,,,,,,,,,720,,,,,,,,,,,,,,,,5,2,,,647.9398,10,right,0.1286,,1.5,0.3,"[3,2,1]",0.117151556,stimuli/card_10_transparent.png,10,10,0,10,0,1,,,,,,,,,,
,,,,65dba0a093dc7a5420f61e5f,A,2024-07-04_20h55.19.547,Slot Machine Game,2023.1.3,Win32,29.94011976,,,,,,,,,,,,,,,,,,,,,,,,,,,,,,,,730,,,,,,,,,,,,,,,,5,2,,,650.3898,11,right,0.5586,,0.5,0.3,"[3,2,1]",0.156412256,stimuli/card_10_transparent.png,10,11,0,11,0,1,,,,,,,,,,
,,,,65dba0a093dc7a5420f61e5f,A,2024-07-04_20h55.19.547,Slot Machine Game,2023.1.3,Win32,29.94011976,,,,,,,,,,,,,,,,,,,,,,,,,,,,,,,,830,,,,,,,,,,,,,,,,5,2,,,652.3291,12,right,0.2278,,0.5,0.3,"[3,2,1]",0.591788362,stimuli/card_100_transparent.png,100,12,0,12,0,1,,,,,,,,,,
,,,,65dba0a093dc7a5420f61e5f,A,2024-07-04_20h55.19.547,Slot Machine Game,2023.1.3,Win32,29.94011976,,,,,,,,,,,,,,,,,,,,,,,,,,,,,,,,930,,,,,,,,,,,,,,,,5,2,,,653.9193,13,right,0.1502,,0.5,0.3,"[3,2,1]",0.401287313,stimuli/card_100_transparent.png,100,13,0,13,0,1,,,,,,,,,,
,,,,65dba0a093dc7a5420f61e5f,A,2024-07-04_20h55.19.547,Slot Machine Game,2023.1.3,Win32,29.94011976,,,,,,,,,,,,,,,,,,,,,,,,,,,,,,,,1030,,,,,,,,,,,,,,,,5,2,,,655.4196,14,right,0.0178,,1.5,0.3,"[3,2,1]",0.647001172,stimuli/card_100_transparent.png,100,14,0,14,0,1,,,,,,,,,,
,,,,65dba0a093dc7a5420f61e5f,A,2024-07-04_20h55.19.547,Slot Machine Game,2023.1.3,Win32,29.94011976,,,,,,,,,,,,,,,,,,,,,,,,,,,,,,,,,,,657.8009,,,,,,,,,,,,,,,,,,,,,,,,,,,,,,,,,"[930,940,750,820,1030]",4,0,4,0,1,,,,
,,,,65dba0a093dc7a5420f61e5f,A,2024-07-04_20h55.19.547,Slot Machine Game,2023.1.3,Win32,29.94011976,,,,,,,,,,,,,,,,,,,,,,,,,,,,,,,,,,,,,,,,,,,,,,,,6,4,"[7,15]","[[2,3,1],[1,2,3]]",662.8216,0,,,,1.5,0.3,,,,,0,0,0,0,1,,,,,,,,,,
,,,,65dba0a093dc7a5420f61e5f,A,2024-07-04_20h55.19.547,Slot Machine Game,2023.1.3,Win32,29.94011976,,,,,,,,,,,,,,,,,,,,,,,,,,,,,,,,100,,,,,,,,,,,,,,,,6,4,,,668.3246,1,left,1.9357,,1.5,0.3,"[2,3,1]",0.104709302,stimuli/card_100_transparent.png,100,1,0,1,0,1,,,,,,,,,,
,,,,65dba0a093dc7a5420f61e5f,A,2024-07-04_20h55.19.547,Slot Machine Game,2023.1.3,Win32,29.94011976,,,,,,,,,,,,,,,,,,,,,,,,,,,,,,,,200,,,,,,,,,,,,,,,,6,4,,,672.6713,2,left,0.6593,,1.5,0.3,"[2,3,1]",0.100406266,stimuli/card_100_transparent.png,100,2,0,2,0,1,,,,,,,,,,
,,,,65dba0a093dc7a5420f61e5f,A,2024-07-04_20h55.19.547,Slot Machine Game,2023.1.3,Win32,29.94011976,,,,,,,,,,,,,,,,,,,,,,,,,,,,,,,,210,,,,,,,,,,,,,,,,6,4,,,675.6409,3,left,0.0006,,1.5,0.3,"[2,3,1]",0.270723651,stimuli/card_10_transparent.png,10,3,0,3,0,1,,,,,,,,,,
,,,,65dba0a093dc7a5420f61e5f,A,2024-07-04_20h55.19.547,Slot Machine Game,2023.1.3,Win32,29.94011976,,,,,,,,,,,,,,,,,,,,,,,,,,,,,,,,220,,,,,,,,,,,,,,,,6,4,,,678.0248,4,left,0.1008,,1.5,0.3,"[2,3,1]",0.426365839,stimuli/card_10_transparent.png,10,4,0,4,0,1,,,,,,,,,,
,,,,65dba0a093dc7a5420f61e5f,A,2024-07-04_20h55.19.547,Slot Machine Game,2023.1.3,Win32,29.94011976,,,,,,,,,,,,,,,,,,,,,,,,,,,,,,,,230,,,,,,,,,,,,,,,,6,4,,,680.4198,5,left,0.0625,,1,0.3,"[2,3,1]",0.556503499,stimuli/card_10_transparent.png,10,5,0,5,0,1,,,,,,,,,,
,,,,65dba0a093dc7a5420f61e5f,A,2024-07-04_20h55.19.547,Slot Machine Game,2023.1.3,Win32,29.94011976,,,,,,,,,,,,,,,,,,,,,,,,,,,,,,,,230,,,,,,,,,,,,,,,,6,4,,,682.3686,6,up,0.9575,,1,0.3,"[2,3,1]",0.888903036,stimuli/card_0_transparent.png,0,6,0,6,0,1,,,,,,,,,,
,,,,65dba0a093dc7a5420f61e5f,A,2024-07-04_20h55.19.547,Slot Machine Game,2023.1.3,Win32,29.94011976,,,,,,,,,,,,,,,,,,,,,,,,,,,,,,,,230,,,,,,,,,,,,,,,,6,4,,,685.1861,7,right,0.8184,,0.5,0.3,"[1,2,3]",0.498938066,stimuli/card_0_transparent.png,0,7,0,7,0,1,,,,,,,,,,
,,,,65dba0a093dc7a5420f61e5f,A,2024-07-04_20h55.19.547,Slot Machine Game,2023.1.3,Win32,29.94011976,,,,,,,,,,,,,,,,,,,,,,,,,,,,,,,,240,,,,,,,,,,,,,,,,6,4,,,687.3065,8,up,0.374,,0.5,0.3,"[1,2,3]",0.682953537,stimuli/card_10_transparent.png,10,8,0,8,0,1,,,,,,,,,,
,,,,65dba0a093dc7a5420f61e5f,A,2024-07-04_20h55.19.547,Slot Machine Game,2023.1.3,Win32,29.94011976,,,,,,,,,,,,,,,,,,,,,,,,,,,,,,,,250,,,,,,,,,,,,,,,,6,4,,,689.0572,9,up,0.538,,1.5,0.3,"[1,2,3]",0.318196552,stimuli/card_10_transparent.png,10,9,0,9,0,1,,,,,,,,,,
,,,,65dba0a093dc7a5420f61e5f,A,2024-07-04_20h55.19.547,Slot Machine Game,2023.1.3,Win32,29.94011976,,,,,,,,,,,,,,,,,,,,,,,,,,,,,,,,260,,,,,,,,,,,,,,,,6,4,,,691.9484,10,up,0.0006,,1.5,0.3,"[1,2,3]",0.700649543,stimuli/card_10_transparent.png,10,10,0,10,0,1,,,,,,,,,,
,,,,65dba0a093dc7a5420f61e5f,A,2024-07-04_20h55.19.547,Slot Machine Game,2023.1.3,Win32,29.94011976,,,,,,,,,,,,,,,,,,,,,,,,,,,,,,,,260,,,,,,,,,,,,,,,,6,4,,,694.276,11,left,0.5391,,0.5,0.3,"[1,2,3]",0.04135424,stimuli/card_0_transparent.png,0,11,0,11,0,1,,,,,,,,,,
,,,,65dba0a093dc7a5420f61e5f,A,2024-07-04_20h55.19.547,Slot Machine Game,2023.1.3,Win32,29.94011976,,,,,,,,,,,,,,,,,,,,,,,,,,,,,,,,360,,,,,,,,,,,,,,,,6,4,,,696.1649,12,left,0.0956,,1,0.3,"[1,2,3]",0.404536955,stimuli/card_100_transparent.png,100,12,0,12,0,1,,,,,,,,,,
,,,,65dba0a093dc7a5420f61e5f,A,2024-07-04_20h55.19.547,Slot Machine Game,2023.1.3,Win32,29.94011976,,,,,,,,,,,,,,,,,,,,,,,,,,,,,,,,460,,,,,,,,,,,,,,,,6,4,,,698.0796,13,left,0.3521,,0.5,0.3,"[1,2,3]",0.303759385,stimuli/card_100_transparent.png,100,13,0,13,0,1,,,,,,,,,,
,,,,65dba0a093dc7a5420f61e5f,A,2024-07-04_20h55.19.547,Slot Machine Game,2023.1.3,Win32,29.94011976,,,,,,,,,,,,,,,,,,,,,,,,,,,,,,,,560,,,,,,,,,,,,,,,,6,4,,,699.7999,14,left,0.3637,,1.5,0.3,"[1,2,3]",0.465128281,stimuli/card_100_transparent.png,100,14,0,14,0,1,,,,,,,,,,
,,,,65dba0a093dc7a5420f61e5f,A,2024-07-04_20h55.19.547,Slot Machine Game,2023.1.3,Win32,29.94011976,,,,,,,,,,,,,,,,,,,,,,,,,,,,,,,,,,,702.4909,,,,,,,,,,,,,,,,,,,,,,,,,,,,,,,,,"[930,940,750,820,1030,560]",5,0,5,0,1,,,,
,,,,65dba0a093dc7a5420f61e5f,A,2024-07-04_20h55.19.547,Slot Machine Game,2023.1.3,Win32,29.94011976,,,,,,,,,,,,,,,,,,,,,,,,,,,,,,,,0,,,,,,,,,,,,,,,,7,10,"[10,15]","[[3,1,2],[1,3,2]]",707.4917,0,left,3.9198,,1.5,0.3,"[3,1,2]",0.596608412,stimuli/card_0_transparent.png,0,0,0,0,0,1,,,,,,,,,,
,,,,65dba0a093dc7a5420f61e5f,A,2024-07-04_20h55.19.547,Slot Machine Game,2023.1.3,Win32,29.94011976,,,,,,,,,,,,,,,,,,,,,,,,,,,,,,,,0,,,,,,,,,,,,,,,,7,10,,,713.7203,1,left,0.2949,,0.5,0.3,"[3,1,2]",0.493493547,stimuli/card_0_transparent.png,0,1,0,1,0,1,,,,,,,,,,
,,,,65dba0a093dc7a5420f61e5f,A,2024-07-04_20h55.19.547,Slot Machine Game,2023.1.3,Win32,29.94011976,,,,,,,,,,,,,,,,,,,,,,,,,,,,,,,,0,,,,,,,,,,,,,,,,7,10,,,715.373,2,left,0.7047,,1.5,0.3,"[3,1,2]",0.932192941,stimuli/card_0_transparent.png,0,2,0,2,0,1,,,,,,,,,,
,,,,65dba0a093dc7a5420f61e5f,A,2024-07-04_20h55.19.547,Slot Machine Game,2023.1.3,Win32,29.94011976,,,,,,,,,,,,,,,,,,,,,,,,,,,,,,,,10,,,,,,,,,,,,,,,,7,10,,,718.4407,3,up,1.1452,,1,0.3,"[3,1,2]",0.185986829,stimuli/card_10_transparent.png,10,3,0,3,0,1,,,,,,,,,,
,,,,65dba0a093dc7a5420f61e5f,A,2024-07-04_20h55.19.547,Slot Machine Game,2023.1.3,Win32,29.94011976,,,,,,,,,,,,,,,,,,,,,,,,,,,,,,,,10,,,,,,,,,,,,,,,,7,10,,,721.4563,4,right,0.3258,,1,0.3,"[3,1,2]",0.076546712,stimuli/card_0_transparent.png,0,4,0,4,0,1,,,,,,,,,,
,,,,65dba0a093dc7a5420f61e5f,A,2024-07-04_20h55.19.547,Slot Machine Game,2023.1.3,Win32,29.94011976,,,,,,,,,,,,,,,,,,,,,,,,,,,,,,,,20,,,,,,,,,,,,,,,,7,10,,,723.6206,5,right,0.2998,,1,0.3,"[3,1,2]",0.283534198,stimuli/card_10_transparent.png,10,5,0,5,0,1,,,,,,,,,,
,,,,65dba0a093dc7a5420f61e5f,A,2024-07-04_20h55.19.547,Slot Machine Game,2023.1.3,Win32,29.94011976,,,,,,,,,,,,,,,,,,,,,,,,,,,,,,,,120,,,,,,,,,,,,,,,,7,10,,,725.7998,6,up,1.2275,,1,0.3,"[3,1,2]",0.749106095,stimuli/card_100_transparent.png,100,6,0,6,0,1,,,,,,,,,,
,,,,65dba0a093dc7a5420f61e5f,A,2024-07-04_20h55.19.547,Slot Machine Game,2023.1.3,Win32,29.94011976,,,,,,,,,,,,,,,,,,,,,,,,,,,,,,,,120,,,,,,,,,,,,,,,,7,10,,,728.8559,7,up,0.1204,,0.5,0.3,"[3,1,2]",0.079090561,stimuli/card_0_transparent.png,0,7,0,7,0,1,,,,,,,,,,
,,,,65dba0a093dc7a5420f61e5f,A,2024-07-04_20h55.19.547,Slot Machine Game,2023.1.3,Win32,29.94011976,,,,,,,,,,,,,,,,,,,,,,,,,,,,,,,,220,,,,,,,,,,,,,,,,7,10,,,730.3199,8,up,1.0547,,1,0.3,"[3,1,2]",0.36212148,stimuli/card_100_transparent.png,100,8,0,8,0,1,,,,,,,,,,
,,,,65dba0a093dc7a5420f61e5f,A,2024-07-04_20h55.19.547,Slot Machine Game,2023.1.3,Win32,29.94011976,,,,,,,,,,,,,,,,,,,,,,,,,,,,,,,,220,,,,,,,,,,,,,,,,7,10,,,733.2324,9,up,0.0005,,1,0.3,"[3,1,2]",0.006121775,stimuli/card_0_transparent.png,0,9,0,9,0,1,,,,,,,,,,
,,,,65dba0a093dc7a5420f61e5f,A,2024-07-04_20h55.19.547,Slot Machine Game,2023.1.3,Win32,29.94011976,,,,,,,,,,,,,,,,,,,,,,,,,,,,,,,,320,,,,,,,,,,,,,,,,7,10,,,735.0447,10,up,0.6026,,0.5,0.3,"[1,3,2]",0.028649003,stimuli/card_100_transparent.png,100,10,0,10,0,1,,,,,,,,,,
,,,,65dba0a093dc7a5420f61e5f,A,2024-07-04_20h55.19.547,Slot Machine Game,2023.1.3,Win32,29.94011976,,,,,,,,,,,,,,,,,,,,,,,,,,,,,,,,320,,,,,,,,,,,,,,,,7,10,,,737.0028,11,up,0.7528,,1,0.3,"[1,3,2]",0.32323516,stimuli/card_0_transparent.png,0,11,0,11,0,1,,,,,,,,,,
,,,,65dba0a093dc7a5420f61e5f,A,2024-07-04_20h55.19.547,Slot Machine Game,2023.1.3,Win32,29.94011976,,,,,,,,,,,,,,,,,,,,,,,,,,,,,,,,320,,,,,,,,,,,,,,,,7,10,,,739.6057,12,up,0.567,,0.5,0.3,"[1,3,2]",0.217949197,stimuli/card_0_transparent.png,0,12,0,12,0,1,,,,,,,,,,
,,,,65dba0a093dc7a5420f61e5f,A,2024-07-04_20h55.19.547,Slot Machine Game,2023.1.3,Win32,29.94011976,,,,,,,,,,,,,,,,,,,,,,,,,,,,,,,,320,,,,,,,,,,,,,,,,7,10,,,741.5209,13,up,0.5897,,1.5,0.3,"[1,3,2]",0.273477992,stimuli/card_0_transparent.png,0,13,0,13,0,1,,,,,,,,,,
,,,,65dba0a093dc7a5420f61e5f,A,2024-07-04_20h55.19.547,Slot Machine Game,2023.1.3,Win32,29.94011976,,,,,,,,,,,,,,,,,,,,,,,,,,,,,,,,320,,,,,,,,,,,,,,,,7,10,,,744.4659,14,up,0.7467,,0.5,0.3,"[1,3,2]",0.484658177,stimuli/card_0_transparent.png,0,14,0,14,0,1,,,,,,,,,,
,,,,65dba0a093dc7a5420f61e5f,A,2024-07-04_20h55.19.547,Slot Machine Game,2023.1.3,Win32,29.94011976,,,,,,,,,,,,,,,,,,,,,,,,,,,,,,,,,,,746.5594,,,,,,,,,,,,,,,,,,,,,,,,,,,,,,,,,"[930,940,750,820,1030,560,320]",6,0,6,0,1,,,,
,,,,65dba0a093dc7a5420f61e5f,A,2024-07-04_20h55.19.547,Slot Machine Game,2023.1.3,Win32,29.94011976,,,,,,,,,,,,,,,,,,,,,,,,,,,,,,,,0,,,,,,,,,,,,,,,,8,7,"[9,15]","[[1,3,2],[2,3,1]]",751.5992,0,up,1.6503,,1,0.3,"[1,3,2]",0.416767747,stimuli/card_0_transparent.png,0,0,0,0,0,1,,,,,,,,,,
,,,,65dba0a093dc7a5420f61e5f,A,2024-07-04_20h55.19.547,Slot Machine Game,2023.1.3,Win32,29.94011976,,,,,,,,,,,,,,,,,,,,,,,,,,,,,,,,100,,,,,,,,,,,,,,,,8,7,,,755.1044,1,right,0.517,,0.5,0.3,"[1,3,2]",0.152319706,stimuli/card_100_transparent.png,100,1,0,1,0,1,,,,,,,,,,
,,,,65dba0a093dc7a5420f61e5f,A,2024-07-04_20h55.19.547,Slot Machine Game,2023.1.3,Win32,29.94011976,,,,,,,,,,,,,,,,,,,,,,,,,,,,,,,,110,,,,,,,,,,,,,,,,8,7,,,756.9502,2,right,0.3581,,0.5,0.3,"[1,3,2]",0.253145972,stimuli/card_10_transparent.png,10,2,0,2,0,1,,,,,,,,,,
,,,,65dba0a093dc7a5420f61e5f,A,2024-07-04_20h55.19.547,Slot Machine Game,2023.1.3,Win32,29.94011976,,,,,,,,,,,,,,,,,,,,,,,,,,,,,,,,110,,,,,,,,,,,,,,,,8,7,,,758.6715,3,right,0.0231,,0.5,0.3,"[1,3,2]",0.04578441,stimuli/card_0_transparent.png,0,3,0,3,0,1,,,,,,,,,,
,,,,65dba0a093dc7a5420f61e5f,A,2024-07-04_20h55.19.547,Slot Machine Game,2023.1.3,Win32,29.94011976,,,,,,,,,,,,,,,,,,,,,,,,,,,,,,,,120,,,,,,,,,,,,,,,,8,7,,,760.0403,4,right,0.7138,,1,0.3,"[1,3,2]",0.289857716,stimuli/card_10_transparent.png,10,4,0,4,0,1,,,,,,,,,,
,,,,65dba0a093dc7a5420f61e5f,A,2024-07-04_20h55.19.547,Slot Machine Game,2023.1.3,Win32,29.94011976,,,,,,,,,,,,,,,,,,,,,,,,,,,,,,,,120,,,,,,,,,,,,,,,,8,7,,,762.5549,5,left,0.3196,,0.5,0.3,"[1,3,2]",0.018218676,stimuli/card_0_transparent.png,0,5,0,5,0,1,,,,,,,,,,
,,,,65dba0a093dc7a5420f61e5f,A,2024-07-04_20h55.19.547,Slot Machine Game,2023.1.3,Win32,29.94011976,,,,,,,,,,,,,,,,,,,,,,,,,,,,,,,,220,,,,,,,,,,,,,,,,8,7,,,764.1748,6,left,0.1657,,1.5,0.3,"[1,3,2]",0.218650643,stimuli/card_100_transparent.png,100,6,0,6,0,1,,,,,,,,,,
,,,,65dba0a093dc7a5420f61e5f,A,2024-07-04_20h55.19.547,Slot Machine Game,2023.1.3,Win32,29.94011976,,,,,,,,,,,,,,,,,,,,,,,,,,,,,,,,220,,,,,,,,,,,,,,,,8,7,,,766.6873,7,left,0.4304,,1.5,0.3,"[1,3,2]",0.061448322,stimuli/card_0_transparent.png,0,7,0,7,0,1,,,,,,,,,,
,,,,65dba0a093dc7a5420f61e5f,A,2024-07-04_20h55.19.547,Slot Machine Game,2023.1.3,Win32,29.94011976,,,,,,,,,,,,,,,,,,,,,,,,,,,,,,,,320,,,,,,,,,,,,,,,,8,7,,,769.4296,8,left,0.1493,,0.5,0.3,"[1,3,2]",0.716585593,stimuli/card_100_transparent.png,100,8,0,8,0,1,,,,,,,,,,
,,,,65dba0a093dc7a5420f61e5f,A,2024-07-04_20h55.19.547,Slot Machine Game,2023.1.3,Win32,29.94011976,,,,,,,,,,,,,,,,,,,,,,,,,,,,,,,,330,,,,,,,,,,,,,,,,8,7,,,770.9766,9,left,0.8244,,0.5,0.3,"[2,3,1]",0.406120167,stimuli/card_10_transparent.png,10,9,0,9,0,1,,,,,,,,,,
,,,,65dba0a093dc7a5420f61e5f,A,2024-07-04_20h55.19.547,Slot Machine Game,2023.1.3,Win32,29.94011976,,,,,,,,,,,,,,,,,,,,,,,,,,,,,,,,330,,,,,,,,,,,,,,,,8,7,,,773.1491,10,left,0.313,,0.5,0.3,"[2,3,1]",0.063845327,stimuli/card_0_transparent.png,0,10,0,10,0,1,,,,,,,,,,
,,,,65dba0a093dc7a5420f61e5f,A,2024-07-04_20h55.19.547,Slot Machine Game,2023.1.3,Win32,29.94011976,,,,,,,,,,,,,,,,,,,,,,,,,,,,,,,,340,,,,,,,,,,,,,,,,8,7,,,774.8084,11,left,0.3332,,0.5,0.3,"[2,3,1]",0.559499481,stimuli/card_10_transparent.png,10,11,0,11,0,1,,,,,,,,,,
,,,,65dba0a093dc7a5420f61e5f,A,2024-07-04_20h55.19.547,Slot Machine Game,2023.1.3,Win32,29.94011976,,,,,,,,,,,,,,,,,,,,,,,,,,,,,,,,350,,,,,,,,,,,,,,,,8,7,,,776.4719,12,left,0.151,,0.5,0.3,"[2,3,1]",0.754573584,stimuli/card_10_transparent.png,10,12,0,12,0,1,,,,,,,,,,
,,,,65dba0a093dc7a5420f61e5f,A,2024-07-04_20h55.19.547,Slot Machine Game,2023.1.3,Win32,29.94011976,,,,,,,,,,,,,,,,,,,,,,,,,,,,,,,,360,,,,,,,,,,,,,,,,8,7,,,777.9862,13,left,0.5627,,0.5,0.3,"[2,3,1]",0.841087132,stimuli/card_10_transparent.png,10,13,0,13,0,1,,,,,,,,,,
,,,,65dba0a093dc7a5420f61e5f,A,2024-07-04_20h55.19.547,Slot Machine Game,2023.1.3,Win32,29.94011976,,,,,,,,,,,,,,,,,,,,,,,,,,,,,,,,370,,,,,,,,,,,,,,,,8,7,,,779.8928,14,left,0.2738,,0.5,0.3,"[2,3,1]",0.581113745,stimuli/card_10_transparent.png,10,14,0,14,0,1,,,,,,,,,,
,,,,65dba0a093dc7a5420f61e5f,A,2024-07-04_20h55.19.547,Slot Machine Game,2023.1.3,Win32,29.94011976,,,,,,,,,,,,,,,,,,,,,,,,,,,,,,,,,,,781.5522,,,,,,,,,,,,,,,,,,,,,,,,,,,,,,,,,"[930,940,750,820,1030,560,320,370]",7,0,7,0,1,,,,
,,,,65dba0a093dc7a5420f61e5f,A,2024-07-04_20h55.19.547,Slot Machine Game,2023.1.3,Win32,29.94011976,,,,,,,,,,,,,,,,,,,,,,,,,,,,,,,,100,,,,,,,,,,,,,,,,9,9,[15],"[[3,1,2]]",786.5492,0,left,0.9812,,1.5,0.3,"[3,1,2]",0.070149468,stimuli/card_100_transparent.png,100,0,0,0,0,1,,,,,,,,,,
,,,,65dba0a093dc7a5420f61e5f,A,2024-07-04_20h55.19.547,Slot Machine Game,2023.1.3,Win32,29.94011976,,,,,,,,,,,,,,,,,,,,,,,,,,,,,,,,100,,,,,,,,,,,,,,,,9,9,,,789.9075,1,left,0.1201,,1.5,0.3,"[3,1,2]",0.801527394,stimuli/card_0_transparent.png,0,1,0,1,0,1,,,,,,,,,,
,,,,65dba0a093dc7a5420f61e5f,A,2024-07-04_20h55.19.547,Slot Machine Game,2023.1.3,Win32,29.94011976,,,,,,,,,,,,,,,,,,,,,,,,,,,,,,,,100,,,,,,,,,,,,,,,,9,9,,,792.391,2,left,1.1807,,1.5,0.3,"[3,1,2]",0.203257693,stimuli/card_0_transparent.png,0,2,0,2,0,1,,,,,,,,,,
,,,,65dba0a093dc7a5420f61e5f,A,2024-07-04_20h55.19.547,Slot Machine Game,2023.1.3,Win32,29.94011976,,,,,,,,,,,,,,,,,,,,,,,,,,,,,,,,200,,,,,,,,,,,,,,,,9,9,,,795.935,3,up,0.3768,,1.5,0.3,"[3,1,2]",0.952496078,stimuli/card_100_transparent.png,100,3,0,3,0,1,,,,,,,,,,
,,,,65dba0a093dc7a5420f61e5f,A,2024-07-04_20h55.19.547,Slot Machine Game,2023.1.3,Win32,29.94011976,,,,,,,,,,,,,,,,,,,,,,,,,,,,,,,,300,,,,,,,,,,,,,,,,9,9,,,798.6757,4,up,0.0314,,1,0.3,"[3,1,2]",0.924838827,stimuli/card_100_transparent.png,100,4,0,4,0,1,,,,,,,,,,
,,,,65dba0a093dc7a5420f61e5f,A,2024-07-04_20h55.19.547,Slot Machine Game,2023.1.3,Win32,29.94011976,,,,,,,,,,,,,,,,,,,,,,,,,,,,,,,,400,,,,,,,,,,,,,,,,9,9,,,800.5377,5,up,0.84,,1.5,0.3,"[3,1,2]",0.423803127,stimuli/card_100_transparent.png,100,5,0,5,0,1,,,,,,,,,,
,,,,65dba0a093dc7a5420f61e5f,A,2024-07-04_20h55.19.547,Slot Machine Game,2023.1.3,Win32,29.94011976,,,,,,,,,,,,,,,,,,,,,,,,,,,,,,,,500,,,,,,,,,,,,,,,,9,9,,,803.6942,6,up,0.0348,,1,0.3,"[3,1,2]",0.483387997,stimuli/card_100_transparent.png,100,6,0,6,0,1,,,,,,,,,,
,,,,65dba0a093dc7a5420f61e5f,A,2024-07-04_20h55.19.547,Slot Machine Game,2023.1.3,Win32,29.94011976,,,,,,,,,,,,,,,,,,,,,,,,,,,,,,,,600,,,,,,,,,,,,,,,,9,9,,,805.5829,7,up,0.7885,,1.5,0.3,"[3,1,2]",0.891714496,stimuli/card_100_transparent.png,100,7,0,7,0,1,,,,,,,,,,
,,,,65dba0a093dc7a5420f61e5f,A,2024-07-04_20h55.19.547,Slot Machine Game,2023.1.3,Win32,29.94011976,,,,,,,,,,,,,,,,,,,,,,,,,,,,,,,,700,,,,,,,,,,,,,,,,9,9,,,808.7147,8,up,0.1027,,0.5,0.3,"[3,1,2]",0.374063342,stimuli/card_100_transparent.png,100,8,0,8,0,1,,,,,,,,,,
,,,,65dba0a093dc7a5420f61e5f,A,2024-07-04_20h55.19.547,Slot Machine Game,2023.1.3,Win32,29.94011976,,,,,,,,,,,,,,,,,,,,,,,,,,,,,,,,800,,,,,,,,,,,,,,,,9,9,,,810.1841,9,up,0.2321,,1,0.3,"[3,1,2]",0.941068201,stimuli/card_100_transparent.png,100,9,0,9,0,1,,,,,,,,,,
,,,,65dba0a093dc7a5420f61e5f,A,2024-07-04_20h55.19.547,Slot Machine Game,2023.1.3,Win32,29.94011976,,,,,,,,,,,,,,,,,,,,,,,,,,,,,,,,900,,,,,,,,,,,,,,,,9,9,,,812.2197,10,up,0.1785,,1.5,0.3,"[3,1,2]",0.905091293,stimuli/card_100_transparent.png,100,10,0,10,0,1,,,,,,,,,,
,,,,65dba0a093dc7a5420f61e5f,A,2024-07-04_20h55.19.547,Slot Machine Game,2023.1.3,Win32,29.94011976,,,,,,,,,,,,,,,,,,,,,,,,,,,,,,,,1000,,,,,,,,,,,,,,,,9,9,,,814.756,11,up,0.2024,,1.5,0.3,"[3,1,2]",0.311775119,stimuli/card_100_transparent.png,100,11,0,11,0,1,,,,,,,,,,
,,,,65dba0a093dc7a5420f61e5f,A,2024-07-04_20h55.19.547,Slot Machine Game,2023.1.3,Win32,29.94011976,,,,,,,,,,,,,,,,,,,,,,,,,,,,,,,,1100,,,,,,,,,,,,,,,,9,9,,,817.2584,12,up,0.1886,,1.5,0.3,"[3,1,2]",0.805718478,stimuli/card_100_transparent.png,100,12,0,12,0,1,,,,,,,,,,
,,,,65dba0a093dc7a5420f61e5f,A,2024-07-04_20h55.19.547,Slot Machine Game,2023.1.3,Win32,29.94011976,,,,,,,,,,,,,,,,,,,,,,,,,,,,,,,,1200,,,,,,,,,,,,,,,,9,9,,,819.7864,13,up,0.2779,,1,0.3,"[3,1,2]",0.849905299,stimuli/card_100_transparent.png,100,13,0,13,0,1,,,,,,,,,,
,,,,65dba0a093dc7a5420f61e5f,A,2024-07-04_20h55.19.547,Slot Machine Game,2023.1.3,Win32,29.94011976,,,,,,,,,,,,,,,,,,,,,,,,,,,,,,,,1300,,,,,,,,,,,,,,,,9,9,,,821.9117,14,up,0.0363,,1.5,0.3,"[3,1,2]",0.988154165,stimuli/card_100_transparent.png,100,14,0,14,0,1,,,,,,,,,,
,,,,65dba0a093dc7a5420f61e5f,A,2024-07-04_20h55.19.547,Slot Machine Game,2023.1.3,Win32,29.94011976,,,,,,,,,,,,,,,,,,,,,,,,,,,,,,,,,,,824.2895,,,,,,,,,,,,,,,,,,,,,,,,,,,,,,,,,"[930,940,750,820,1030,560,320,370,1300]",8,0,8,0,1,,,,
,,,,65dba0a093dc7a5420f61e5f,A,2024-07-04_20h55.19.547,Slot Machine Game,2023.1.3,Win32,29.94011976,,,,,,,,,,,,,,,,,,,,,,,,,,,,,,,,10,,,,,,,,,,,,,,,,10,6,"[4,10,15]","[[2,3,1],[1,3,2],[3,2,1]]",829.2988,0,left,1.3733,,1,0.3,"[2,3,1]",0.380762071,stimuli/card_10_transparent.png,10,0,0,0,0,1,,,,,,,,,,
,,,,65dba0a093dc7a5420f61e5f,A,2024-07-04_20h55.19.547,Slot Machine Game,2023.1.3,Win32,29.94011976,,,,,,,,,,,,,,,,,,,,,,,,,,,,,,,,110,,,,,,,,,,,,,,,,10,6,,,832.4659,1,up,0.7388,,1,0.3,"[2,3,1]",0.040945198,stimuli/card_100_transparent.png,100,1,0,1,0,1,,,,,,,,,,
,,,,65dba0a093dc7a5420f61e5f,A,2024-07-04_20h55.19.547,Slot Machine Game,2023.1.3,Win32,29.94011976,,,,,,,,,,,,,,,,,,,,,,,,,,,,,,,,110,,,,,,,,,,,,,,,,10,6,,,835.0873,2,up,0.4091,,0.5,0.3,"[2,3,1]",0.457669548,stimuli/card_0_transparent.png,0,2,0,2,0,1,,,,,,,,,,
,,,,65dba0a093dc7a5420f61e5f,A,2024-07-04_20h55.19.547,Slot Machine Game,2023.1.3,Win32,29.94011976,,,,,,,,,,,,,,,,,,,,,,,,,,,,,,,,210,,,,,,,,,,,,,,,,10,6,,,836.8542,3,right,0.2508,,0.5,0.3,"[2,3,1]",0.932666381,stimuli/card_100_transparent.png,100,3,0,3,0,1,,,,,,,,,,
,,,,65dba0a093dc7a5420f61e5f,A,2024-07-04_20h55.19.547,Slot Machine Game,2023.1.3,Win32,29.94011976,,,,,,,,,,,,,,,,,,,,,,,,,,,,,,,,220,,,,,,,,,,,,,,,,10,6,,,838.4356,4,right,0.4206,,1.5,0.3,"[1,3,2]",0.733670562,stimuli/card_10_transparent.png,10,4,0,4,0,1,,,,,,,,,,
,,,,65dba0a093dc7a5420f61e5f,A,2024-07-04_20h55.19.547,Slot Machine Game,2023.1.3,Win32,29.94011976,,,,,,,,,,,,,,,,,,,,,,,,,,,,,,,,230,,,,,,,,,,,,,,,,10,6,,,841.2146,5,right,0.6305,,0.5,0.3,"[1,3,2]",0.92089647,stimuli/card_10_transparent.png,10,5,0,5,0,1,,,,,,,,,,
,,,,65dba0a093dc7a5420f61e5f,A,2024-07-04_20h55.19.547,Slot Machine Game,2023.1.3,Win32,29.94011976,,,,,,,,,,,,,,,,,,,,,,,,,,,,,,,,230,,,,,,,,,,,,,,,,10,6,,,843.2339,6,up,0.2395,,1.5,0.3,"[1,3,2]",0.464379092,stimuli/card_0_transparent.png,0,6,0,6,0,1,,,,,,,,,,
,,,,65dba0a093dc7a5420f61e5f,A,2024-07-04_20h55.19.547,Slot Machine Game,2023.1.3,Win32,29.94011976,,,,,,,,,,,,,,,,,,,,,,,,,,,,,,,,330,,,,,,,,,,,,,,,,10,6,,,845.8597,7,up,0.0929,,1.5,0.3,"[1,3,2]",0.085107649,stimuli/card_100_transparent.png,100,7,0,7,0,1,,,,,,,,,,
,,,,65dba0a093dc7a5420f61e5f,A,2024-07-04_20h55.19.547,Slot Machine Game,2023.1.3,Win32,29.94011976,,,,,,,,,,,,,,,,,,,,,,,,,,,,,,,,340,,,,,,,,,,,,,,,,10,6,,,848.272,8,up,0.1561,,1.5,0.3,"[1,3,2]",0.12124596,stimuli/card_10_transparent.png,10,8,0,8,0,1,,,,,,,,,,
,,,,65dba0a093dc7a5420f61e5f,A,2024-07-04_20h55.19.547,Slot Machine Game,2023.1.3,Win32,29.94011976,,,,,,,,,,,,,,,,,,,,,,,,,,,,,,,,340,,,,,,,,,,,,,,,,10,6,,,850.752,9,up,0.5556,,1.5,0.3,"[1,3,2]",0.254622168,stimuli/card_0_transparent.png,0,9,0,9,0,1,,,,,,,,,,
,,,,65dba0a093dc7a5420f61e5f,A,2024-07-04_20h55.19.547,Slot Machine Game,2023.1.3,Win32,29.94011976,,,,,,,,,,,,,,,,,,,,,,,,,,,,,,,,350,,,,,,,,,,,,,,,,10,6,,,853.6691,10,up,0.2214,,1,0.3,"[3,2,1]",0.743568248,stimuli/card_10_transparent.png,10,10,0,10,0,1,,,,,,,,,,
,,,,65dba0a093dc7a5420f61e5f,A,2024-07-04_20h55.19.547,Slot Machine Game,2023.1.3,Win32,29.94011976,,,,,,,,,,,,,,,,,,,,,,,,,,,,,,,,450,,,,,,,,,,,,,,,,10,6,,,855.7227,11,left,0.4902,,1.5,0.3,"[3,2,1]",0.038451012,stimuli/card_100_transparent.png,100,11,0,11,0,1,,,,,,,,,,
,,,,65dba0a093dc7a5420f61e5f,A,2024-07-04_20h55.19.547,Slot Machine Game,2023.1.3,Win32,29.94011976,,,,,,,,,,,,,,,,,,,,,,,,,,,,,,,,450,,,,,,,,,,,,,,,,10,6,,,858.5925,12,left,0.2449,,1.5,0.3,"[3,2,1]",0.530420949,stimuli/card_0_transparent.png,0,12,0,12,0,1,,,,,,,,,,
,,,,65dba0a093dc7a5420f61e5f,A,2024-07-04_20h55.19.547,Slot Machine Game,2023.1.3,Win32,29.94011976,,,,,,,,,,,,,,,,,,,,,,,,,,,,,,,,460,,,,,,,,,,,,,,,,10,6,,,861.1784,13,left,0.0233,,1.5,0.3,"[3,2,1]",0.174111278,stimuli/card_10_transparent.png,10,13,0,13,0,1,,,,,,,,,,
,,,,65dba0a093dc7a5420f61e5f,A,2024-07-04_20h55.19.547,Slot Machine Game,2023.1.3,Win32,29.94011976,,,,,,,,,,,,,,,,,,,,,,,,,,,,,,,,460,,,,,,,,,,,,,,,,10,6,,,863.5604,14,left,0.2808,,1.5,0.3,"[3,2,1]",0.468417971,stimuli/card_0_transparent.png,0,14,0,14,0,1,,,,,,,,,,
,,,,65dba0a093dc7a5420f61e5f,A,2024-07-04_20h55.19.547,Slot Machine Game,2023.1.3,Win32,29.94011976,,,,,,,,,,,,,,,,,,,,,,,,,,,,,,,,,,,866.143,,,,,,,,,,,,,,,,,,,,,,,,,,,,,,,,,"[930,940,750,820,1030,560,320,370,1300,460]",9,0,9,0,1,,,,
,,,,65dba0a093dc7a5420f61e5f,A,2024-07-04_20h55.19.547,Slot Machine Game,2023.1.3,Win32,29.94011976,,,,,,,,,,,,,,,,,,,,,,,,,,,,,,,,,,,,,,,,,,,,,,,,,,,,,,,,,,,,,,,,,,,,,,,,,,9,"[930,940,750,820,1030,560,320,370,1300,460]",10.3,2024-07-04_21h09.55.082
