key_resp_welcome_started,key_resp_welcome_keys,key_resp_welcome_rt,key_resp_welcome_duration,prolific_id,path_id,date,expName,psychopyVersion,OS,frameRate,key_resp_instruction1_started,key_resp_instruction1_keys,key_resp_instruction1_rt,key_resp_instruction1_duration,key_resp_instruction2_started,key_resp_instruction2_keys,key_resp_instruction2_rt,key_resp_instruction2_duration,key_resp_instruction3_started,key_resp_instruction3_keys,key_resp_instruction3_rt,key_resp_instruction3_duration,key_resp_instruction4_started,key_resp_instruction4_keys,key_resp_instruction4_rt,key_resp_instruction4_duration,practiceCondition,practice_reward_seqs,practice_trial_started,practice_trial_num,practice_resp_rt,practice_resp_duration,practice_resp_keys,prac_presentationInterval,"practice_reward_seq: 2,1,3",reward_img,cumulative_reward,trial_reward,practice_trials.thisRepN,practice_trials.thisTrialN,practice_trials.thisN,practice_trials.thisIndex,practice_trials.ran,"practice_reward_seq: 2,3,1",block_break_started,"practice_reward_seq: 1,3,2","practice_reward_seq: 3,1,2",practice_end_time,practice_end_keys,practice_end_rt,practice_end_duration,main_instruction_text_started,block_condition,block_order_indices,main_instruction_keys,main_instruction_rt,main_instruction_duration,block_number,block_assignment,current_condition,main_reward_seqs,main_trial_started,main_trial_num,main_trial_keys,main_trial_rt,main_trial_duration,main_presentationInterval,reward_presentation_time,main_reward_seq,reward_rand_val,main_reward_img,current_reward,main_trials.thisRepN,main_trials.thisTrialN,main_trials.thisN,main_trials.thisIndex,main_trials.ran,block_reward,block.thisRepN,block.thisTrialN,block.thisN,block.thisIndex,block.ran,block_reward.length,block_reward_all,reward_amount,date_end_task
0.0001,right,4.087,,65e2356cf5ef67e5b170ca52,A,2024-07-11_11h52.08.806,Slot Machine Game,2023.1.3,Win32,60.24096386,,,,,,,,,,,,,,,,,,,,,,,,,,,,,,,,,,,,,,,,,,,,,,,,,,,,,,,,,,,,,,,,,,,,,,,,,,,,,
,,,,65e2356cf5ef67e5b170ca52,A,2024-07-11_11h52.08.806,Slot Machine Game,2023.1.3,Win32,60.24096386,4.1029,right,317.9441,,,,,,,,,,,,,,,,,,,,,,,,,,,,,,,,,,,,,,,,,,,,,,,,,,,,,,,,,,,,,,,,,,,,,,,,,,
,,,,65e2356cf5ef67e5b170ca52,A,2024-07-11_11h52.08.806,Slot Machine Game,2023.1.3,Win32,60.24096386,,,,,322.0633,right,26.444,,,,,,,,,,,,,,,,,,,,,,,,,,,,,,,,,,,,,,,,,,,,,,,,,,,,,,,,,,,,,,,,,,,,,,
,,,,65e2356cf5ef67e5b170ca52,A,2024-07-11_11h52.08.806,Slot Machine Game,2023.1.3,Win32,60.24096386,,,,,,,,,348.531,right,13.7591,,,,,,,,,,,,,,,,,,,,,,,,,,,,,,,,,,,,,,,,,,,,,,,,,,,,,,,,,,,,,,,,,,
,,,,65e2356cf5ef67e5b170ca52,A,2024-07-11_11h52.08.806,Slot Machine Game,2023.1.3,Win32,60.24096386,,,,,,,,,,,,,,,,,,,,,,,,,,,,,,,,,,,,,,,,,,,,,,,,,,,,,,,,,,,,,,,,,,,,,,,,,,,,,
,,,,65e2356cf5ef67e5b170ca52,A,2024-07-11_11h52.08.806,Slot Machine Game,2023.1.3,Win32,60.24096386,,,,,,,,,,,,,503.9605,left,2.8154,,,,,,,,,,,,,,,,,,,,,,,,,,,,,,,,,,,,,,,,,,,,,,,,,,,,,,,,,,,,,,
,,,,65e2356cf5ef67e5b170ca52,A,2024-07-11_11h52.08.806,Slot Machine Game,2023.1.3,Win32,60.24096386,,,,,,,,,,,,,,,,,"[9,15]","[[2,1,3],[2,3,1]]",506.7951,0,2.2992,,left,1,,stimuli/card_0_transparent.png,0,0,0,0,0,0,1,,,,,,,,,,,,,,,,,,,,,,,,,,,,,,,,,,,,,,,,,,,,
,,,,65e2356cf5ef67e5b170ca52,A,2024-07-11_11h52.08.806,Slot Machine Game,2023.1.3,Win32,60.24096386,,,,,,,,,,,,,,,,,,,510.9271,1,0.3208,,up,1.5,,stimuli/card_100_transparent.png,100,100,1,0,1,0,1,,,,,,,,,,,,,,,,,,,,,,,,,,,,,,,,,,,,,,,,,,,,
,,,,65e2356cf5ef67e5b170ca52,A,2024-07-11_11h52.08.806,Slot Machine Game,2023.1.3,Win32,60.24096386,,,,,,,,,,,,,,,,,,,513.5772,2,0.0002,,up,0.5,,stimuli/card_100_transparent.png,200,100,2,0,2,0,1,,,,,,,,,,,,,,,,,,,,,,,,,,,,,,,,,,,,,,,,,,,,
,,,,65e2356cf5ef67e5b170ca52,A,2024-07-11_11h52.08.806,Slot Machine Game,2023.1.3,Win32,60.24096386,,,,,,,,,,,,,,,,,,,514.9106,3,0.6717,,up,0.5,,stimuli/card_100_transparent.png,300,100,3,0,3,0,1,,,,,,,,,,,,,,,,,,,,,,,,,,,,,,,,,,,,,,,,,,,,
,,,,65e2356cf5ef67e5b170ca52,A,2024-07-11_11h52.08.806,Slot Machine Game,2023.1.3,Win32,60.24096386,,,,,,,,,,,,,,,,,,,516.8941,4,0.1056,,up,1,,stimuli/card_100_transparent.png,400,100,4,0,4,0,1,,,,,,,,,,,,,,,,,,,,,,,,,,,,,,,,,,,,,,,,,,,,
,,,,65e2356cf5ef67e5b170ca52,A,2024-07-11_11h52.08.806,Slot Machine Game,2023.1.3,Win32,60.24096386,,,,,,,,,,,,,,,,,,,518.8276,5,0.2921,,up,1.5,,stimuli/card_100_transparent.png,500,100,5,0,5,0,1,,,,,,,,,,,,,,,,,,,,,,,,,,,,,,,,,,,,,,,,,,,,
,,,,65e2356cf5ef67e5b170ca52,A,2024-07-11_11h52.08.806,Slot Machine Game,2023.1.3,Win32,60.24096386,,,,,,,,,,,,,,,,,,,521.4278,6,0.3506,,up,1,,stimuli/card_100_transparent.png,600,100,6,0,6,0,1,,,,,,,,,,,,,,,,,,,,,,,,,,,,,,,,,,,,,,,,,,,,
,,,,65e2356cf5ef67e5b170ca52,A,2024-07-11_11h52.08.806,Slot Machine Game,2023.1.3,Win32,60.24096386,,,,,,,,,,,,,,,,,,,523.6112,7,0.0905,,up,1,,stimuli/card_100_transparent.png,700,100,7,0,7,0,1,,,,,,,,,,,,,,,,,,,,,,,,,,,,,,,,,,,,,,,,,,,,
,,,,65e2356cf5ef67e5b170ca52,A,2024-07-11_11h52.08.806,Slot Machine Game,2023.1.3,Win32,60.24096386,,,,,,,,,,,,,,,,,,,525.5114,8,0.0171,,up,0.5,,stimuli/card_10_transparent.png,710,10,8,0,8,0,1,,,,,,,,,,,,,,,,,,,,,,,,,,,,,,,,,,,,,,,,,,,,
,,,,65e2356cf5ef67e5b170ca52,A,2024-07-11_11h52.08.806,Slot Machine Game,2023.1.3,Win32,60.24096386,,,,,,,,,,,,,,,,,,,526.8449,9,0.4411,,up,0.5,,stimuli/card_0_transparent.png,710,0,9,0,9,0,1,,,,,,,,,,,,,,,,,,,,,,,,,,,,,,,,,,,,,,,,,,,,
,,,,65e2356cf5ef67e5b170ca52,A,2024-07-11_11h52.08.806,Slot Machine Game,2023.1.3,Win32,60.24096386,,,,,,,,,,,,,,,,,,,528.6117,10,0.0336,,right,0.5,,stimuli/card_100_transparent.png,810,100,10,0,10,0,1,,,,,,,,,,,,,,,,,,,,,,,,,,,,,,,,,,,,,,,,,,,,
,,,,65e2356cf5ef67e5b170ca52,A,2024-07-11_11h52.08.806,Slot Machine Game,2023.1.3,Win32,60.24096386,,,,,,,,,,,,,,,,,,,529.9618,11,0.0223,,right,0.5,,stimuli/card_10_transparent.png,820,10,11,0,11,0,1,,,,,,,,,,,,,,,,,,,,,,,,,,,,,,,,,,,,,,,,,,,,
,,,,65e2356cf5ef67e5b170ca52,A,2024-07-11_11h52.08.806,Slot Machine Game,2023.1.3,Win32,60.24096386,,,,,,,,,,,,,,,,,,,531.2952,12,0.3288,,right,1.5,,stimuli/card_0_transparent.png,820,0,12,0,12,0,1,,,,,,,,,,,,,,,,,,,,,,,,,,,,,,,,,,,,,,,,,,,,
,,,,65e2356cf5ef67e5b170ca52,A,2024-07-11_11h52.08.806,Slot Machine Game,2023.1.3,Win32,60.24096386,,,,,,,,,,,,,,,,,,,533.9288,13,0.2842,,left,1.5,,stimuli/card_10_transparent.png,830,10,13,0,13,0,1,,,,,,,,,,,,,,,,,,,,,,,,,,,,,,,,,,,,,,,,,,,,
,,,,65e2356cf5ef67e5b170ca52,A,2024-07-11_11h52.08.806,Slot Machine Game,2023.1.3,Win32,60.24096386,,,,,,,,,,,,,,,,,,,536.529,14,1.2873,,up,1,,stimuli/card_0_transparent.png,830,0,14,0,14,0,1,,,,,,,,,,,,,,,,,,,,,,,,,,,,,,,,,,,,,,,,,,,,
,,,,65e2356cf5ef67e5b170ca52,A,2024-07-11_11h52.08.806,Slot Machine Game,2023.1.3,Win32,60.24096386,,,,,,,,,,,,,,,,,"[6,15]","[[1,3,2],[3,1,2]]",544.6516,0,0.4013,,right,1.5,,stimuli/card_10_transparent.png,10,10,0,0,0,0,1,,539.6508,,,,,,,,,,,,,,,,,,,,,,,,,,,,,,,,,,,,,,,,,,
,,,,65e2356cf5ef67e5b170ca52,A,2024-07-11_11h52.08.806,Slot Machine Game,2023.1.3,Win32,60.24096386,,,,,,,,,,,,,,,,,,,547.3799,1,0.4847,,up,1.5,,stimuli/card_0_transparent.png,10,0,1,0,1,0,1,,,,,,,,,,,,,,,,,,,,,,,,,,,,,,,,,,,,,,,,,,,,
,,,,65e2356cf5ef67e5b170ca52,A,2024-07-11_11h52.08.806,Slot Machine Game,2023.1.3,Win32,60.24096386,,,,,,,,,,,,,,,,,,,550.1973,2,0.2169,,left,0.5,,stimuli/card_100_transparent.png,110,100,2,0,2,0,1,,,,,,,,,,,,,,,,,,,,,,,,,,,,,,,,,,,,,,,,,,,,
,,,,65e2356cf5ef67e5b170ca52,A,2024-07-11_11h52.08.806,Slot Machine Game,2023.1.3,Win32,60.24096386,,,,,,,,,,,,,,,,,,,551.7471,3,0.0506,,left,1.5,,stimuli/card_0_transparent.png,110,0,3,0,3,0,1,,,,,,,,,,,,,,,,,,,,,,,,,,,,,,,,,,,,,,,,,,,,
,,,,65e2356cf5ef67e5b170ca52,A,2024-07-11_11h52.08.806,Slot Machine Game,2023.1.3,Win32,60.24096386,,,,,,,,,,,,,,,,,,,554.1137,4,0.2547,,left,1,,stimuli/card_100_transparent.png,210,100,4,0,4,0,1,,,,,,,,,,,,,,,,,,,,,,,,,,,,,,,,,,,,,,,,,,,,
,,,,65e2356cf5ef67e5b170ca52,A,2024-07-11_11h52.08.806,Slot Machine Game,2023.1.3,Win32,60.24096386,,,,,,,,,,,,,,,,,,,556.1811,5,0.2913,,left,1.5,,stimuli/card_100_transparent.png,310,100,5,0,5,0,1,,,,,,,,,,,,,,,,,,,,,,,,,,,,,,,,,,,,,,,,,,,,
,,,,65e2356cf5ef67e5b170ca52,A,2024-07-11_11h52.08.806,Slot Machine Game,2023.1.3,Win32,60.24096386,,,,,,,,,,,,,,,,,,,558.7974,6,0.0026,,left,1,,stimuli/card_0_transparent.png,310,0,6,0,6,0,1,,,,,,,,,,,,,,,,,,,,,,,,,,,,,,,,,,,,,,,,,,,,
,,,,65e2356cf5ef67e5b170ca52,A,2024-07-11_11h52.08.806,Slot Machine Game,2023.1.3,Win32,60.24096386,,,,,,,,,,,,,,,,,,,560.6147,7,0.1288,,left,1,,stimuli/card_0_transparent.png,310,0,7,0,7,0,1,,,,,,,,,,,,,,,,,,,,,,,,,,,,,,,,,,,,,,,,,,,,
,,,,65e2356cf5ef67e5b170ca52,A,2024-07-11_11h52.08.806,Slot Machine Game,2023.1.3,Win32,60.24096386,,,,,,,,,,,,,,,,,,,562.5643,8,0.3376,,up,0.5,,stimuli/card_100_transparent.png,410,100,8,0,8,0,1,,,,,,,,,,,,,,,,,,,,,,,,,,,,,,,,,,,,,,,,,,,,
,,,,65e2356cf5ef67e5b170ca52,A,2024-07-11_11h52.08.806,Slot Machine Game,2023.1.3,Win32,60.24096386,,,,,,,,,,,,,,,,,,,564.2147,9,0.1032,,up,1.5,,stimuli/card_100_transparent.png,510,100,9,0,9,0,1,,,,,,,,,,,,,,,,,,,,,,,,,,,,,,,,,,,,,,,,,,,,
,,,,65e2356cf5ef67e5b170ca52,A,2024-07-11_11h52.08.806,Slot Machine Game,2023.1.3,Win32,60.24096386,,,,,,,,,,,,,,,,,,,566.6485,10,0.1274,,up,1,,stimuli/card_100_transparent.png,610,100,10,0,10,0,1,,,,,,,,,,,,,,,,,,,,,,,,,,,,,,,,,,,,,,,,,,,,
,,,,65e2356cf5ef67e5b170ca52,A,2024-07-11_11h52.08.806,Slot Machine Game,2023.1.3,Win32,60.24096386,,,,,,,,,,,,,,,,,,,568.5981,11,0.1938,,up,1,,stimuli/card_0_transparent.png,610,0,11,0,11,0,1,,,,,,,,,,,,,,,,,,,,,,,,,,,,,,,,,,,,,,,,,,,,
,,,,65e2356cf5ef67e5b170ca52,A,2024-07-11_11h52.08.806,Slot Machine Game,2023.1.3,Win32,60.24096386,,,,,,,,,,,,,,,,,,,570.5989,12,0.0003,,right,1.5,,stimuli/card_10_transparent.png,620,10,12,0,12,0,1,,,,,,,,,,,,,,,,,,,,,,,,,,,,,,,,,,,,,,,,,,,,
,,,,65e2356cf5ef67e5b170ca52,A,2024-07-11_11h52.08.806,Slot Machine Game,2023.1.3,Win32,60.24096386,,,,,,,,,,,,,,,,,,,572.932,13,0.2759,,left,0.5,,stimuli/card_0_transparent.png,620,0,13,0,13,0,1,,,,,,,,,,,,,,,,,,,,,,,,,,,,,,,,,,,,,,,,,,,,
,,,,65e2356cf5ef67e5b170ca52,A,2024-07-11_11h52.08.806,Slot Machine Game,2023.1.3,Win32,60.24096386,,,,,,,,,,,,,,,,,,,574.516,14,0.1338,,up,1,,stimuli/card_100_transparent.png,720,100,14,0,14,0,1,,,,,,,,,,,,,,,,,,,,,,,,,,,,,,,,,,,,,,,,,,,,
,,,,65e2356cf5ef67e5b170ca52,A,2024-07-11_11h52.08.806,Slot Machine Game,2023.1.3,Win32,60.24096386,,,,,,,,,,,,,,,,,,,,,,,,,,,,,,,,,,,576.4822,,,581.483,space,2.5668,,,,,,,,,,,,,,,,,,,,,,,,,,,,,,,,,,,,,
,,,,65e2356cf5ef67e5b170ca52,A,2024-07-11_11h52.08.806,Slot Machine Game,2023.1.3,Win32,60.24096386,,,,,,,,,,,,,,,,,,,,,,,,,,,,,,,,,,,,,,,,,,584.0668,2,"[2,4,8,0,1,3,9,6,8,5]",space,13.9024,,,,,,,,,,,,,,,,,,,,,,,,,,,,,,,
,,,,65e2356cf5ef67e5b170ca52,A,2024-07-11_11h52.08.806,Slot Machine Game,2023.1.3,Win32,60.24096386,,,,,,,,,,,,,,,,,,,,,,,,,,,0,,,,,,,,,,,,,,,,,,,,,1,3,"[15,15]","[[3,1,2],[3,1,2]]",597.992,0,left,0.5334,,1.5,0.3,"[3,1,2]",0.484416393,stimuli/card_0_transparent.png,0,0,0,0,0,1,,,,,,,,,,
,,,,65e2356cf5ef67e5b170ca52,A,2024-07-11_11h52.08.806,Slot Machine Game,2023.1.3,Win32,60.24096386,,,,,,,,,,,,,,,,,,,,,,,,,,,100,,,,,,,,,,,,,,,,,,,,,1,3,,,600.8511,1,up,0.3704,,0.5,0.3,"[3,1,2]",0.297648424,stimuli/card_100_transparent.png,100,1,0,1,0,1,,,,,,,,,,
,,,,65e2356cf5ef67e5b170ca52,A,2024-07-11_11h52.08.806,Slot Machine Game,2023.1.3,Win32,60.24096386,,,,,,,,,,,,,,,,,,,,,,,,,,,200,,,,,,,,,,,,,,,,,,,,,1,3,,,602.5343,2,up,0.2552,,0.5,0.3,"[3,1,2]",0.524208287,stimuli/card_100_transparent.png,100,2,0,2,0,1,,,,,,,,,,
,,,,65e2356cf5ef67e5b170ca52,A,2024-07-11_11h52.08.806,Slot Machine Game,2023.1.3,Win32,60.24096386,,,,,,,,,,,,,,,,,,,,,,,,,,,300,,,,,,,,,,,,,,,,,,,,,1,3,,,604.1179,3,up,0.0102,,0.5,0.3,"[3,1,2]",0.938726112,stimuli/card_100_transparent.png,100,3,0,3,0,1,,,,,,,,,,
,,,,65e2356cf5ef67e5b170ca52,A,2024-07-11_11h52.08.806,Slot Machine Game,2023.1.3,Win32,60.24096386,,,,,,,,,,,,,,,,,,,,,,,,,,,310,,,,,,,,,,,,,,,,,,,,,1,3,,,605.4513,4,up,0.1941,,1,0.3,"[3,1,2]",0.133623414,stimuli/card_10_transparent.png,10,4,0,4,0,1,,,,,,,,,,
,,,,65e2356cf5ef67e5b170ca52,A,2024-07-11_11h52.08.806,Slot Machine Game,2023.1.3,Win32,60.24096386,,,,,,,,,,,,,,,,,,,,,,,,,,,320,,,,,,,,,,,,,,,,,,,,,1,3,,,607.4684,5,up,0.1497,,0.5,0.3,"[3,1,2]",0.114987138,stimuli/card_10_transparent.png,10,5,0,5,0,1,,,,,,,,,,
,,,,65e2356cf5ef67e5b170ca52,A,2024-07-11_11h52.08.806,Slot Machine Game,2023.1.3,Win32,60.24096386,,,,,,,,,,,,,,,,,,,,,,,,,,,420,,,,,,,,,,,,,,,,,,,,,1,3,,,608.9348,6,right,0.0895,,1,0.3,"[3,1,2]",0.116327567,stimuli/card_100_transparent.png,100,6,0,6,0,1,,,,,,,,,,
,,,,65e2356cf5ef67e5b170ca52,A,2024-07-11_11h52.08.806,Slot Machine Game,2023.1.3,Win32,60.24096386,,,,,,,,,,,,,,,,,,,,,,,,,,,430,,,,,,,,,,,,,,,,,,,,,1,3,,,610.8353,7,right,0.2185,,0.5,0.3,"[3,1,2]",0.88839349,stimuli/card_10_transparent.png,10,7,0,7,0,1,,,,,,,,,,
,,,,65e2356cf5ef67e5b170ca52,A,2024-07-11_11h52.08.806,Slot Machine Game,2023.1.3,Win32,60.24096386,,,,,,,,,,,,,,,,,,,,,,,,,,,440,,,,,,,,,,,,,,,,,,,,,1,3,,,612.3852,8,right,0.3664,,1,0.3,"[3,1,2]",0.74913754,stimuli/card_10_transparent.png,10,8,0,8,0,1,,,,,,,,,,
,,,,65e2356cf5ef67e5b170ca52,A,2024-07-11_11h52.08.806,Slot Machine Game,2023.1.3,Win32,60.24096386,,,,,,,,,,,,,,,,,,,,,,,,,,,440,,,,,,,,,,,,,,,,,,,,,1,3,,,614.5686,9,left,1.3249,,0.5,0.3,"[3,1,2]",0.898772492,stimuli/card_0_transparent.png,0,9,0,9,0,1,,,,,,,,,,
,,,,65e2356cf5ef67e5b170ca52,A,2024-07-11_11h52.08.806,Slot Machine Game,2023.1.3,Win32,60.24096386,,,,,,,,,,,,,,,,,,,,,,,,,,,440,,,,,,,,,,,,,,,,,,,,,1,3,,,617.2025,10,right,0.6772,,1,0.3,"[3,1,2]",0.034843745,stimuli/card_0_transparent.png,0,10,0,10,0,1,,,,,,,,,,
,,,,65e2356cf5ef67e5b170ca52,A,2024-07-11_11h52.08.806,Slot Machine Game,2023.1.3,Win32,60.24096386,,,,,,,,,,,,,,,,,,,,,,,,,,,540,,,,,,,,,,,,,,,,,,,,,1,3,,,619.7025,11,up,0.002,,1,0.3,"[3,1,2]",0.728727473,stimuli/card_100_transparent.png,100,11,0,11,0,1,,,,,,,,,,
,,,,65e2356cf5ef67e5b170ca52,A,2024-07-11_11h52.08.806,Slot Machine Game,2023.1.3,Win32,60.24096386,,,,,,,,,,,,,,,,,,,,,,,,,,,640,,,,,,,,,,,,,,,,,,,,,1,3,,,621.5199,12,up,0.2476,,1,0.3,"[3,1,2]",0.916604742,stimuli/card_100_transparent.png,100,12,0,12,0,1,,,,,,,,,,
,,,,65e2356cf5ef67e5b170ca52,A,2024-07-11_11h52.08.806,Slot Machine Game,2023.1.3,Win32,60.24096386,,,,,,,,,,,,,,,,,,,,,,,,,,,640,,,,,,,,,,,,,,,,,,,,,1,3,,,623.6028,13,up,0.0362,,1,0.3,"[3,1,2]",0.052860312,stimuli/card_0_transparent.png,0,13,0,13,0,1,,,,,,,,,,
,,,,65e2356cf5ef67e5b170ca52,A,2024-07-11_11h52.08.806,Slot Machine Game,2023.1.3,Win32,60.24096386,,,,,,,,,,,,,,,,,,,,,,,,,,,640,,,,,,,,,,,,,,,,,,,,,1,3,,,625.4702,14,left,0.2505,,1.5,0.3,"[3,1,2]",0.313654026,stimuli/card_0_transparent.png,0,14,0,14,0,1,,,,,,,,,,
,,,,65e2356cf5ef67e5b170ca52,A,2024-07-11_11h52.08.806,Slot Machine Game,2023.1.3,Win32,60.24096386,,,,,,,,,,,,,,,,,,,,,,,,,,,,,,,,,,,628.0532,,,,,,,,,,,,,,,,,,,,,,,,,,,,,,,,,[640],0,0,0,0,1,,,,
,,,,65e2356cf5ef67e5b170ca52,A,2024-07-11_11h52.08.806,Slot Machine Game,2023.1.3,Win32,60.24096386,,,,,,,,,,,,,,,,,,,,,,,,,,,0,,,,,,,,,,,,,,,,,,,,,2,5,"[5,15]","[[1,2,3],[3,1,2]]",633.059,0,left,0.328,,1,0.3,"[1,2,3]",0.089298105,stimuli/card_0_transparent.png,0,0,0,0,0,1,,,,,,,,,,
,,,,65e2356cf5ef67e5b170ca52,A,2024-07-11_11h52.08.806,Slot Machine Game,2023.1.3,Win32,60.24096386,,,,,,,,,,,,,,,,,,,,,,,,,,,10,,,,,,,,,,,,,,,,,,,,,2,5,,,635.2039,1,up,0.0491,,1,0.3,"[1,2,3]",0.587398522,stimuli/card_10_transparent.png,10,1,0,1,0,1,,,,,,,,,,
,,,,65e2356cf5ef67e5b170ca52,A,2024-07-11_11h52.08.806,Slot Machine Game,2023.1.3,Win32,60.24096386,,,,,,,,,,,,,,,,,,,,,,,,,,,10,,,,,,,,,,,,,,,,,,,,,2,5,,,637.0872,2,right,0.1769,,1,0.3,"[1,2,3]",0.858038212,stimuli/card_0_transparent.png,0,2,0,2,0,1,,,,,,,,,,
,,,,65e2356cf5ef67e5b170ca52,A,2024-07-11_11h52.08.806,Slot Machine Game,2023.1.3,Win32,60.24096386,,,,,,,,,,,,,,,,,,,,,,,,,,,20,,,,,,,,,,,,,,,,,,,,,2,5,,,639.0874,3,up,0.0717,,1,0.3,"[1,2,3]",0.683075182,stimuli/card_10_transparent.png,10,3,0,3,0,1,,,,,,,,,,
,,,,65e2356cf5ef67e5b170ca52,A,2024-07-11_11h52.08.806,Slot Machine Game,2023.1.3,Win32,60.24096386,,,,,,,,,,,,,,,,,,,,,,,,,,,30,,,,,,,,,,,,,,,,,,,,,2,5,,,640.9875,4,up,0.0039,,1,0.3,"[1,2,3]",0.966750148,stimuli/card_10_transparent.png,10,4,0,4,0,1,,,,,,,,,,
,,,,65e2356cf5ef67e5b170ca52,A,2024-07-11_11h52.08.806,Slot Machine Game,2023.1.3,Win32,60.24096386,,,,,,,,,,,,,,,,,,,,,,,,,,,30,,,,,,,,,,,,,,,,,,,,,2,5,,,642.8044,5,left,0.0192,,0.5,0.3,"[3,1,2]",0.905630255,stimuli/card_0_transparent.png,0,5,0,5,0,1,,,,,,,,,,
,,,,65e2356cf5ef67e5b170ca52,A,2024-07-11_11h52.08.806,Slot Machine Game,2023.1.3,Win32,60.24096386,,,,,,,,,,,,,,,,,,,,,,,,,,,40,,,,,,,,,,,,,,,,,,,,,2,5,,,644.1548,6,right,0.3324,,1,0.3,"[3,1,2]",0.549715274,stimuli/card_10_transparent.png,10,6,0,6,0,1,,,,,,,,,,
,,,,65e2356cf5ef67e5b170ca52,A,2024-07-11_11h52.08.806,Slot Machine Game,2023.1.3,Win32,60.24096386,,,,,,,,,,,,,,,,,,,,,,,,,,,50,,,,,,,,,,,,,,,,,,,,,2,5,,,646.3214,7,right,0.2279,,1.5,0.3,"[3,1,2]",0.317099229,stimuli/card_10_transparent.png,10,7,0,7,0,1,,,,,,,,,,
,,,,65e2356cf5ef67e5b170ca52,A,2024-07-11_11h52.08.806,Slot Machine Game,2023.1.3,Win32,60.24096386,,,,,,,,,,,,,,,,,,,,,,,,,,,150,,,,,,,,,,,,,,,,,,,,,2,5,,,648.8717,8,up,0.2717,,1,0.3,"[3,1,2]",0.228210793,stimuli/card_100_transparent.png,100,8,0,8,0,1,,,,,,,,,,
,,,,65e2356cf5ef67e5b170ca52,A,2024-07-11_11h52.08.806,Slot Machine Game,2023.1.3,Win32,60.24096386,,,,,,,,,,,,,,,,,,,,,,,,,,,150,,,,,,,,,,,,,,,,,,,,,2,5,,,650.9716,9,up,0.2282,,1,0.3,"[3,1,2]",0.019833874,stimuli/card_0_transparent.png,0,9,0,9,0,1,,,,,,,,,,
,,,,65e2356cf5ef67e5b170ca52,A,2024-07-11_11h52.08.806,Slot Machine Game,2023.1.3,Win32,60.24096386,,,,,,,,,,,,,,,,,,,,,,,,,,,160,,,,,,,,,,,,,,,,,,,,,2,5,,,653.022,10,right,0.1778,,1,0.3,"[3,1,2]",0.941520031,stimuli/card_10_transparent.png,10,10,0,10,0,1,,,,,,,,,,
,,,,65e2356cf5ef67e5b170ca52,A,2024-07-11_11h52.08.806,Slot Machine Game,2023.1.3,Win32,60.24096386,,,,,,,,,,,,,,,,,,,,,,,,,,,170,,,,,,,,,,,,,,,,,,,,,2,5,,,655.0055,11,right,0.2586,,1,0.3,"[3,1,2]",0.594826947,stimuli/card_10_transparent.png,10,11,0,11,0,1,,,,,,,,,,
,,,,65e2356cf5ef67e5b170ca52,A,2024-07-11_11h52.08.806,Slot Machine Game,2023.1.3,Win32,60.24096386,,,,,,,,,,,,,,,,,,,,,,,,,,,170,,,,,,,,,,,,,,,,,,,,,2,5,,,657.0891,12,left,1.0682,,1,0.3,"[3,1,2]",0.396943755,stimuli/card_0_transparent.png,0,12,0,12,0,1,,,,,,,,,,
,,,,65e2356cf5ef67e5b170ca52,A,2024-07-11_11h52.08.806,Slot Machine Game,2023.1.3,Win32,60.24096386,,,,,,,,,,,,,,,,,,,,,,,,,,,270,,,,,,,,,,,,,,,,,,,,,2,5,,,659.9893,13,up,0.5284,,1.5,0.3,"[3,1,2]",0.475210045,stimuli/card_100_transparent.png,100,13,0,13,0,1,,,,,,,,,,
,,,,65e2356cf5ef67e5b170ca52,A,2024-07-11_11h52.08.806,Slot Machine Game,2023.1.3,Win32,60.24096386,,,,,,,,,,,,,,,,,,,,,,,,,,,370,,,,,,,,,,,,,,,,,,,,,2,5,,,662.8393,14,up,0.0378,,0.5,0.3,"[3,1,2]",0.239022027,stimuli/card_100_transparent.png,100,14,0,14,0,1,,,,,,,,,,
,,,,65e2356cf5ef67e5b170ca52,A,2024-07-11_11h52.08.806,Slot Machine Game,2023.1.3,Win32,60.24096386,,,,,,,,,,,,,,,,,,,,,,,,,,,,,,,,,,,664.2063,,,,,,,,,,,,,,,,,,,,,,,,,,,,,,,,,"[640,370]",1,0,1,0,1,,,,
,,,,65e2356cf5ef67e5b170ca52,A,2024-07-11_11h52.08.806,Slot Machine Game,2023.1.3,Win32,60.24096386,,,,,,,,,,,,,,,,,,,,,,,,,,,10,,,,,,,,,,,,,,,,,,,,,3,9,"[8,15]","[[3,2,1],[3,1,2]]",669.2122,0,up,1.0409,,1.5,0.3,"[3,2,1]",0.360849084,stimuli/card_10_transparent.png,10,0,0,0,0,1,,,,,,,,,,
,,,,65e2356cf5ef67e5b170ca52,A,2024-07-11_11h52.08.806,Slot Machine Game,2023.1.3,Win32,60.24096386,,,,,,,,,,,,,,,,,,,,,,,,,,,10,,,,,,,,,,,,,,,,,,,,,3,9,,,672.5738,1,right,0.2329,,1,0.3,"[3,2,1]",0.088518711,stimuli/card_0_transparent.png,0,1,0,1,0,1,,,,,,,,,,
,,,,65e2356cf5ef67e5b170ca52,A,2024-07-11_11h52.08.806,Slot Machine Game,2023.1.3,Win32,60.24096386,,,,,,,,,,,,,,,,,,,,,,,,,,,10,,,,,,,,,,,,,,,,,,,,,3,9,,,674.6406,2,left,0.2713,,1.5,0.3,"[3,2,1]",0.268269489,stimuli/card_0_transparent.png,0,2,0,2,0,1,,,,,,,,,,
,,,,65e2356cf5ef67e5b170ca52,A,2024-07-11_11h52.08.806,Slot Machine Game,2023.1.3,Win32,60.24096386,,,,,,,,,,,,,,,,,,,,,,,,,,,20,,,,,,,,,,,,,,,,,,,,,3,9,,,677.2405,3,up,0.2476,,1,0.3,"[3,2,1]",0.87006504,stimuli/card_10_transparent.png,10,3,0,3,0,1,,,,,,,,,,
,,,,65e2356cf5ef67e5b170ca52,A,2024-07-11_11h52.08.806,Slot Machine Game,2023.1.3,Win32,60.24096386,,,,,,,,,,,,,,,,,,,,,,,,,,,120,,,,,,,,,,,,,,,,,,,,,3,9,,,679.3073,4,up,0.2293,,1,0.3,"[3,2,1]",0.179050875,stimuli/card_100_transparent.png,100,4,0,4,0,1,,,,,,,,,,
,,,,65e2356cf5ef67e5b170ca52,A,2024-07-11_11h52.08.806,Slot Machine Game,2023.1.3,Win32,60.24096386,,,,,,,,,,,,,,,,,,,,,,,,,,,130,,,,,,,,,,,,,,,,,,,,,3,9,,,681.3407,5,up,0.136,,1,0.3,"[3,2,1]",0.8799661,stimuli/card_10_transparent.png,10,5,0,5,0,1,,,,,,,,,,
,,,,65e2356cf5ef67e5b170ca52,A,2024-07-11_11h52.08.806,Slot Machine Game,2023.1.3,Win32,60.24096386,,,,,,,,,,,,,,,,,,,,,,,,,,,230,,,,,,,,,,,,,,,,,,,,,3,9,,,683.3078,6,up,0.0195,,1,0.3,"[3,2,1]",0.158692881,stimuli/card_100_transparent.png,100,6,0,6,0,1,,,,,,,,,,
,,,,65e2356cf5ef67e5b170ca52,A,2024-07-11_11h52.08.806,Slot Machine Game,2023.1.3,Win32,60.24096386,,,,,,,,,,,,,,,,,,,,,,,,,,,240,,,,,,,,,,,,,,,,,,,,,3,9,,,685.1577,7,up,0.0692,,1,0.3,"[3,2,1]",0.468740566,stimuli/card_10_transparent.png,10,7,0,7,0,1,,,,,,,,,,
,,,,65e2356cf5ef67e5b170ca52,A,2024-07-11_11h52.08.806,Slot Machine Game,2023.1.3,Win32,60.24096386,,,,,,,,,,,,,,,,,,,,,,,,,,,340,,,,,,,,,,,,,,,,,,,,,3,9,,,687.0413,8,up,0.1996,,1,0.3,"[3,1,2]",0.267937983,stimuli/card_100_transparent.png,100,8,0,8,0,1,,,,,,,,,,
,,,,65e2356cf5ef67e5b170ca52,A,2024-07-11_11h52.08.806,Slot Machine Game,2023.1.3,Win32,60.24096386,,,,,,,,,,,,,,,,,,,,,,,,,,,350,,,,,,,,,,,,,,,,,,,,,3,9,,,689.0747,9,up,0.0821,,1,0.3,"[3,1,2]",0.101585533,stimuli/card_10_transparent.png,10,9,0,9,0,1,,,,,,,,,,
,,,,65e2356cf5ef67e5b170ca52,A,2024-07-11_11h52.08.806,Slot Machine Game,2023.1.3,Win32,60.24096386,,,,,,,,,,,,,,,,,,,,,,,,,,,450,,,,,,,,,,,,,,,,,,,,,3,9,,,690.9916,10,up,0.0001,,0.5,0.3,"[3,1,2]",0.829390737,stimuli/card_100_transparent.png,100,10,0,10,0,1,,,,,,,,,,
,,,,65e2356cf5ef67e5b170ca52,A,2024-07-11_11h52.08.806,Slot Machine Game,2023.1.3,Win32,60.24096386,,,,,,,,,,,,,,,,,,,,,,,,,,,550,,,,,,,,,,,,,,,,,,,,,3,9,,,692.3251,11,up,0.1382,,1.5,0.3,"[3,1,2]",0.361058762,stimuli/card_100_transparent.png,100,11,0,11,0,1,,,,,,,,,,
,,,,65e2356cf5ef67e5b170ca52,A,2024-07-11_11h52.08.806,Slot Machine Game,2023.1.3,Win32,60.24096386,,,,,,,,,,,,,,,,,,,,,,,,,,,650,,,,,,,,,,,,,,,,,,,,,3,9,,,694.7921,12,up,0.4055,,1.5,0.3,"[3,1,2]",0.334115845,stimuli/card_100_transparent.png,100,12,0,12,0,1,,,,,,,,,,
,,,,65e2356cf5ef67e5b170ca52,A,2024-07-11_11h52.08.806,Slot Machine Game,2023.1.3,Win32,60.24096386,,,,,,,,,,,,,,,,,,,,,,,,,,,750,,,,,,,,,,,,,,,,,,,,,3,9,,,697.5257,13,up,0.0019,,1,0.3,"[3,1,2]",0.586241636,stimuli/card_100_transparent.png,100,13,0,13,0,1,,,,,,,,,,
,,,,65e2356cf5ef67e5b170ca52,A,2024-07-11_11h52.08.806,Slot Machine Game,2023.1.3,Win32,60.24096386,,,,,,,,,,,,,,,,,,,,,,,,,,,850,,,,,,,,,,,,,,,,,,,,,3,9,,,699.3589,14,up,0.415,,1,0.3,"[3,1,2]",0.399624269,stimuli/card_100_transparent.png,100,14,0,14,0,1,,,,,,,,,,
,,,,65e2356cf5ef67e5b170ca52,A,2024-07-11_11h52.08.806,Slot Machine Game,2023.1.3,Win32,60.24096386,,,,,,,,,,,,,,,,,,,,,,,,,,,,,,,,,,,701.5924,,,,,,,,,,,,,,,,,,,,,,,,,,,,,,,,,"[640,370,850]",2,0,2,0,1,,,,
,,,,65e2356cf5ef67e5b170ca52,A,2024-07-11_11h52.08.806,Slot Machine Game,2023.1.3,Win32,60.24096386,,,,,,,,,,,,,,,,,,,,,,,,,,,100,,,,,,,,,,,,,,,,,,,,,4,1,"[12,15]","[[2,1,3],[2,3,1]]",706.5981,0,up,0.8158,,1,0.3,"[2,1,3]",0.382894705,stimuli/card_100_transparent.png,100,0,0,0,0,1,,,,,,,,,,
,,,,65e2356cf5ef67e5b170ca52,A,2024-07-11_11h52.08.806,Slot Machine Game,2023.1.3,Win32,60.24096386,,,,,,,,,,,,,,,,,,,,,,,,,,,200,,,,,,,,,,,,,,,,,,,,,4,1,,,709.2431,1,up,0.0039,,1.5,0.3,"[2,1,3]",0.817194111,stimuli/card_100_transparent.png,100,1,0,1,0,1,,,,,,,,,,
,,,,65e2356cf5ef67e5b170ca52,A,2024-07-11_11h52.08.806,Slot Machine Game,2023.1.3,Win32,60.24096386,,,,,,,,,,,,,,,,,,,,,,,,,,,300,,,,,,,,,,,,,,,,,,,,,4,1,,,711.5599,2,up,0.1181,,1,0.3,"[2,1,3]",0.978056609,stimuli/card_100_transparent.png,100,2,0,2,0,1,,,,,,,,,,
,,,,65e2356cf5ef67e5b170ca52,A,2024-07-11_11h52.08.806,Slot Machine Game,2023.1.3,Win32,60.24096386,,,,,,,,,,,,,,,,,,,,,,,,,,,400,,,,,,,,,,,,,,,,,,,,,4,1,,,713.4937,3,up,0.1118,,1.5,0.3,"[2,1,3]",0.746972384,stimuli/card_100_transparent.png,100,3,0,3,0,1,,,,,,,,,,
,,,,65e2356cf5ef67e5b170ca52,A,2024-07-11_11h52.08.806,Slot Machine Game,2023.1.3,Win32,60.24096386,,,,,,,,,,,,,,,,,,,,,,,,,,,500,,,,,,,,,,,,,,,,,,,,,4,1,,,715.927,4,up,0.0967,,0.5,0.3,"[2,1,3]",0.262648567,stimuli/card_100_transparent.png,100,4,0,4,0,1,,,,,,,,,,
,,,,65e2356cf5ef67e5b170ca52,A,2024-07-11_11h52.08.806,Slot Machine Game,2023.1.3,Win32,60.24096386,,,,,,,,,,,,,,,,,,,,,,,,,,,600,,,,,,,,,,,,,,,,,,,,,4,1,,,717.3437,5,up,0.0874,,0.5,0.3,"[2,1,3]",0.476056126,stimuli/card_100_transparent.png,100,5,0,5,0,1,,,,,,,,,,
,,,,65e2356cf5ef67e5b170ca52,A,2024-07-11_11h52.08.806,Slot Machine Game,2023.1.3,Win32,60.24096386,,,,,,,,,,,,,,,,,,,,,,,,,,,700,,,,,,,,,,,,,,,,,,,,,4,1,,,718.7604,6,up,0.017,,1,0.3,"[2,1,3]",0.803526072,stimuli/card_100_transparent.png,100,6,0,6,0,1,,,,,,,,,,
,,,,65e2356cf5ef67e5b170ca52,A,2024-07-11_11h52.08.806,Slot Machine Game,2023.1.3,Win32,60.24096386,,,,,,,,,,,,,,,,,,,,,,,,,,,800,,,,,,,,,,,,,,,,,,,,,4,1,,,720.5942,7,up,0.0747,,1,0.3,"[2,1,3]",0.447048687,stimuli/card_100_transparent.png,100,7,0,7,0,1,,,,,,,,,,
,,,,65e2356cf5ef67e5b170ca52,A,2024-07-11_11h52.08.806,Slot Machine Game,2023.1.3,Win32,60.24096386,,,,,,,,,,,,,,,,,,,,,,,,,,,900,,,,,,,,,,,,,,,,,,,,,4,1,,,722.4943,8,up,0.1452,,1,0.3,"[2,1,3]",0.624206746,stimuli/card_100_transparent.png,100,8,0,8,0,1,,,,,,,,,,
,,,,65e2356cf5ef67e5b170ca52,A,2024-07-11_11h52.08.806,Slot Machine Game,2023.1.3,Win32,60.24096386,,,,,,,,,,,,,,,,,,,,,,,,,,,1000,,,,,,,,,,,,,,,,,,,,,4,1,,,724.4609,9,up,0.1041,,1.5,0.3,"[2,1,3]",0.81423291,stimuli/card_100_transparent.png,100,9,0,9,0,1,,,,,,,,,,
,,,,65e2356cf5ef67e5b170ca52,A,2024-07-11_11h52.08.806,Slot Machine Game,2023.1.3,Win32,60.24096386,,,,,,,,,,,,,,,,,,,,,,,,,,,1100,,,,,,,,,,,,,,,,,,,,,4,1,,,726.8779,10,up,0.0508,,1,0.3,"[2,1,3]",0.876341502,stimuli/card_100_transparent.png,100,10,0,10,0,1,,,,,,,,,,
,,,,65e2356cf5ef67e5b170ca52,A,2024-07-11_11h52.08.806,Slot Machine Game,2023.1.3,Win32,60.24096386,,,,,,,,,,,,,,,,,,,,,,,,,,,1110,,,,,,,,,,,,,,,,,,,,,4,1,,,728.7614,11,up,0.0845,,0.5,0.3,"[2,1,3]",0.171676754,stimuli/card_10_transparent.png,10,11,0,11,0,1,,,,,,,,,,
,,,,65e2356cf5ef67e5b170ca52,A,2024-07-11_11h52.08.806,Slot Machine Game,2023.1.3,Win32,60.24096386,,,,,,,,,,,,,,,,,,,,,,,,,,,1110,,,,,,,,,,,,,,,,,,,,,4,1,,,730.1783,12,up,0.3356,,1,0.3,"[2,3,1]",0.914469764,stimuli/card_0_transparent.png,0,12,0,12,0,1,,,,,,,,,,
,,,,65e2356cf5ef67e5b170ca52,A,2024-07-11_11h52.08.806,Slot Machine Game,2023.1.3,Win32,60.24096386,,,,,,,,,,,,,,,,,,,,,,,,,,,1210,,,,,,,,,,,,,,,,,,,,,4,1,,,732.3453,13,right,0.3188,,1.5,0.3,"[2,3,1]",0.666602435,stimuli/card_100_transparent.png,100,13,0,13,0,1,,,,,,,,,,
,,,,65e2356cf5ef67e5b170ca52,A,2024-07-11_11h52.08.806,Slot Machine Game,2023.1.3,Win32,60.24096386,,,,,,,,,,,,,,,,,,,,,,,,,,,1310,,,,,,,,,,,,,,,,,,,,,4,1,,,734.9951,14,right,0.1957,,1.5,0.3,"[2,3,1]",0.214585833,stimuli/card_100_transparent.png,100,14,0,14,0,1,,,,,,,,,,
,,,,65e2356cf5ef67e5b170ca52,A,2024-07-11_11h52.08.806,Slot Machine Game,2023.1.3,Win32,60.24096386,,,,,,,,,,,,,,,,,,,,,,,,,,,,,,,,,,,737.5122,,,,,,,,,,,,,,,,,,,,,,,,,,,,,,,,,"[640,370,850,1310]",3,0,3,0,1,,,,
,,,,65e2356cf5ef67e5b170ca52,A,2024-07-11_11h52.08.806,Slot Machine Game,2023.1.3,Win32,60.24096386,,,,,,,,,,,,,,,,,,,,,,,,,,,0,,,,,,,,,,,,,,,,,,,,,5,2,"[6,15]","[[1,3,2],[3,2,1]]",742.5191,0,up,0.3109,,1,0.3,"[1,3,2]",0.480058051,stimuli/card_0_transparent.png,0,0,0,0,0,1,,,,,,,,,,
,,,,65e2356cf5ef67e5b170ca52,A,2024-07-11_11h52.08.806,Slot Machine Game,2023.1.3,Win32,60.24096386,,,,,,,,,,,,,,,,,,,,,,,,,,,10,,,,,,,,,,,,,,,,,,,,,5,2,,,744.6459,1,right,0.226,,1,0.3,"[1,3,2]",0.245582913,stimuli/card_10_transparent.png,10,1,0,1,0,1,,,,,,,,,,
,,,,65e2356cf5ef67e5b170ca52,A,2024-07-11_11h52.08.806,Slot Machine Game,2023.1.3,Win32,60.24096386,,,,,,,,,,,,,,,,,,,,,,,,,,,110,,,,,,,,,,,,,,,,,,,,,5,2,,,746.6794,2,left,1.0692,,0.5,0.3,"[1,3,2]",0.252965022,stimuli/card_100_transparent.png,100,2,0,2,0,1,,,,,,,,,,
,,,,65e2356cf5ef67e5b170ca52,A,2024-07-11_11h52.08.806,Slot Machine Game,2023.1.3,Win32,60.24096386,,,,,,,,,,,,,,,,,,,,,,,,,,,210,,,,,,,,,,,,,,,,,,,,,5,2,,,749.0629,3,left,0.0221,,1,0.3,"[1,3,2]",0.480614827,stimuli/card_100_transparent.png,100,3,0,3,0,1,,,,,,,,,,
,,,,65e2356cf5ef67e5b170ca52,A,2024-07-11_11h52.08.806,Slot Machine Game,2023.1.3,Win32,60.24096386,,,,,,,,,,,,,,,,,,,,,,,,,,,310,,,,,,,,,,,,,,,,,,,,,5,2,,,750.9132,4,left,0.0514,,1.5,0.3,"[1,3,2]",0.614287027,stimuli/card_100_transparent.png,100,4,0,4,0,1,,,,,,,,,,
,,,,65e2356cf5ef67e5b170ca52,A,2024-07-11_11h52.08.806,Slot Machine Game,2023.1.3,Win32,60.24096386,,,,,,,,,,,,,,,,,,,,,,,,,,,310,,,,,,,,,,,,,,,,,,,,,5,2,,,753.2966,5,left,0.2472,,1.5,0.3,"[1,3,2]",0.016264854,stimuli/card_0_transparent.png,0,5,0,5,0,1,,,,,,,,,,
,,,,65e2356cf5ef67e5b170ca52,A,2024-07-11_11h52.08.806,Slot Machine Game,2023.1.3,Win32,60.24096386,,,,,,,,,,,,,,,,,,,,,,,,,,,320,,,,,,,,,,,,,,,,,,,,,5,2,,,755.8467,6,right,0.4962,,0.5,0.3,"[3,2,1]",0.110070967,stimuli/card_10_transparent.png,10,6,0,6,0,1,,,,,,,,,,
,,,,65e2356cf5ef67e5b170ca52,A,2024-07-11_11h52.08.806,Slot Machine Game,2023.1.3,Win32,60.24096386,,,,,,,,,,,,,,,,,,,,,,,,,,,330,,,,,,,,,,,,,,,,,,,,,5,2,,,757.6471,7,up,0.1735,,0.5,0.3,"[3,2,1]",0.577924345,stimuli/card_10_transparent.png,10,7,0,7,0,1,,,,,,,,,,
,,,,65e2356cf5ef67e5b170ca52,A,2024-07-11_11h52.08.806,Slot Machine Game,2023.1.3,Win32,60.24096386,,,,,,,,,,,,,,,,,,,,,,,,,,,430,,,,,,,,,,,,,,,,,,,,,5,2,,,759.1473,8,up,0.2287,,1,0.3,"[3,2,1]",0.179640671,stimuli/card_100_transparent.png,100,8,0,8,0,1,,,,,,,,,,
,,,,65e2356cf5ef67e5b170ca52,A,2024-07-11_11h52.08.806,Slot Machine Game,2023.1.3,Win32,60.24096386,,,,,,,,,,,,,,,,,,,,,,,,,,,440,,,,,,,,,,,,,,,,,,,,,5,2,,,761.1972,9,up,0.0747,,1.5,0.3,"[3,2,1]",0.973161241,stimuli/card_10_transparent.png,10,9,0,9,0,1,,,,,,,,,,
,,,,65e2356cf5ef67e5b170ca52,A,2024-07-11_11h52.08.806,Slot Machine Game,2023.1.3,Win32,60.24096386,,,,,,,,,,,,,,,,,,,,,,,,,,,450,,,,,,,,,,,,,,,,,,,,,5,2,,,763.5808,10,up,1.0106,,1,0.3,"[3,2,1]",0.442540546,stimuli/card_10_transparent.png,10,10,0,10,0,1,,,,,,,,,,
,,,,65e2356cf5ef67e5b170ca52,A,2024-07-11_11h52.08.806,Slot Machine Game,2023.1.3,Win32,60.24096386,,,,,,,,,,,,,,,,,,,,,,,,,,,460,,,,,,,,,,,,,,,,,,,,,5,2,,,766.4149,11,up,0.1268,,0.5,0.3,"[3,2,1]",0.211630264,stimuli/card_10_transparent.png,10,11,0,11,0,1,,,,,,,,,,
,,,,65e2356cf5ef67e5b170ca52,A,2024-07-11_11h52.08.806,Slot Machine Game,2023.1.3,Win32,60.24096386,,,,,,,,,,,,,,,,,,,,,,,,,,,560,,,,,,,,,,,,,,,,,,,,,5,2,,,767.8644,12,up,0.3026,,1,0.3,"[3,2,1]",0.153299145,stimuli/card_100_transparent.png,100,12,0,12,0,1,,,,,,,,,,
,,,,65e2356cf5ef67e5b170ca52,A,2024-07-11_11h52.08.806,Slot Machine Game,2023.1.3,Win32,60.24096386,,,,,,,,,,,,,,,,,,,,,,,,,,,570,,,,,,,,,,,,,,,,,,,,,5,2,,,769.9981,13,up,0.1275,,0.5,0.3,"[3,2,1]",0.215862908,stimuli/card_10_transparent.png,10,13,0,13,0,1,,,,,,,,,,
,,,,65e2356cf5ef67e5b170ca52,A,2024-07-11_11h52.08.806,Slot Machine Game,2023.1.3,Win32,60.24096386,,,,,,,,,,,,,,,,,,,,,,,,,,,580,,,,,,,,,,,,,,,,,,,,,5,2,,,771.4314,14,up,0.1283,,1.5,0.3,"[3,2,1]",0.639085926,stimuli/card_10_transparent.png,10,14,0,14,0,1,,,,,,,,,,
,,,,65e2356cf5ef67e5b170ca52,A,2024-07-11_11h52.08.806,Slot Machine Game,2023.1.3,Win32,60.24096386,,,,,,,,,,,,,,,,,,,,,,,,,,,,,,,,,,,773.8649,,,,,,,,,,,,,,,,,,,,,,,,,,,,,,,,,"[640,370,850,1310,580]",4,0,4,0,1,,,,
,,,,65e2356cf5ef67e5b170ca52,A,2024-07-11_11h52.08.806,Slot Machine Game,2023.1.3,Win32,60.24096386,,,,,,,,,,,,,,,,,,,,,,,,,,,,,,,,,,,,,,,,,,,,,,,,6,4,"[7,15]","[[2,3,1],[1,2,3]]",778.8706,0,,,,1,0.3,,,,,0,0,0,0,1,,,,,,,,,,
,,,,65e2356cf5ef67e5b170ca52,A,2024-07-11_11h52.08.806,Slot Machine Game,2023.1.3,Win32,60.24096386,,,,,,,,,,,,,,,,,,,,,,,,,,,0,,,,,,,,,,,,,,,,,,,,,6,4,,,784.3834,1,up,0.5825,,1,0.3,"[2,3,1]",0.482809374,stimuli/card_0_transparent.png,0,1,0,1,0,1,,,,,,,,,,
,,,,65e2356cf5ef67e5b170ca52,A,2024-07-11_11h52.08.806,Slot Machine Game,2023.1.3,Win32,60.24096386,,,,,,,,,,,,,,,,,,,,,,,,,,,100,,,,,,,,,,,,,,,,,,,,,6,4,,,786.7993,2,right,0.0561,,1,0.3,"[2,3,1]",0.44647878,stimuli/card_100_transparent.png,100,2,0,2,0,1,,,,,,,,,,
,,,,65e2356cf5ef67e5b170ca52,A,2024-07-11_11h52.08.806,Slot Machine Game,2023.1.3,Win32,60.24096386,,,,,,,,,,,,,,,,,,,,,,,,,,,200,,,,,,,,,,,,,,,,,,,,,6,4,,,788.666,3,right,0.1068,,0.5,0.3,"[2,3,1]",0.461767799,stimuli/card_100_transparent.png,100,3,0,3,0,1,,,,,,,,,,
,,,,65e2356cf5ef67e5b170ca52,A,2024-07-11_11h52.08.806,Slot Machine Game,2023.1.3,Win32,60.24096386,,,,,,,,,,,,,,,,,,,,,,,,,,,300,,,,,,,,,,,,,,,,,,,,,6,4,,,790.0833,4,right,0.0524,,1.5,0.3,"[2,3,1]",0.485570628,stimuli/card_100_transparent.png,100,4,0,4,0,1,,,,,,,,,,
,,,,65e2356cf5ef67e5b170ca52,A,2024-07-11_11h52.08.806,Slot Machine Game,2023.1.3,Win32,60.24096386,,,,,,,,,,,,,,,,,,,,,,,,,,,400,,,,,,,,,,,,,,,,,,,,,6,4,,,792.4667,5,right,0.093,,1.5,0.3,"[2,3,1]",0.395544996,stimuli/card_100_transparent.png,100,5,0,5,0,1,,,,,,,,,,
,,,,65e2356cf5ef67e5b170ca52,A,2024-07-11_11h52.08.806,Slot Machine Game,2023.1.3,Win32,60.24096386,,,,,,,,,,,,,,,,,,,,,,,,,,,500,,,,,,,,,,,,,,,,,,,,,6,4,,,794.8833,6,right,0.1087,,1,0.3,"[2,3,1]",0.577211068,stimuli/card_100_transparent.png,100,6,0,6,0,1,,,,,,,,,,
,,,,65e2356cf5ef67e5b170ca52,A,2024-07-11_11h52.08.806,Slot Machine Game,2023.1.3,Win32,60.24096386,,,,,,,,,,,,,,,,,,,,,,,,,,,500,,,,,,,,,,,,,,,,,,,,,6,4,,,796.8001,7,right,0.2533,,1.5,0.3,"[1,2,3]",0.293548037,stimuli/card_0_transparent.png,0,7,0,7,0,1,,,,,,,,,,
,,,,65e2356cf5ef67e5b170ca52,A,2024-07-11_11h52.08.806,Slot Machine Game,2023.1.3,Win32,60.24096386,,,,,,,,,,,,,,,,,,,,,,,,,,,500,,,,,,,,,,,,,,,,,,,,,6,4,,,799.3837,8,right,1.4873,,1,0.3,"[1,2,3]",0.213728306,stimuli/card_0_transparent.png,0,8,0,8,0,1,,,,,,,,,,
,,,,65e2356cf5ef67e5b170ca52,A,2024-07-11_11h52.08.806,Slot Machine Game,2023.1.3,Win32,60.24096386,,,,,,,,,,,,,,,,,,,,,,,,,,,600,,,,,,,,,,,,,,,,,,,,,6,4,,,802.7007,9,left,0.0419,,1,0.3,"[1,2,3]",0.445656091,stimuli/card_100_transparent.png,100,9,0,9,0,1,,,,,,,,,,
,,,,65e2356cf5ef67e5b170ca52,A,2024-07-11_11h52.08.806,Slot Machine Game,2023.1.3,Win32,60.24096386,,,,,,,,,,,,,,,,,,,,,,,,,,,700,,,,,,,,,,,,,,,,,,,,,6,4,,,804.5507,10,left,0.0868,,1.5,0.3,"[1,2,3]",0.464957206,stimuli/card_100_transparent.png,100,10,0,10,0,1,,,,,,,,,,
,,,,65e2356cf5ef67e5b170ca52,A,2024-07-11_11h52.08.806,Slot Machine Game,2023.1.3,Win32,60.24096386,,,,,,,,,,,,,,,,,,,,,,,,,,,800,,,,,,,,,,,,,,,,,,,,,6,4,,,806.951,11,left,0.0245,,0.5,0.3,"[1,2,3]",0.328802111,stimuli/card_100_transparent.png,100,11,0,11,0,1,,,,,,,,,,
,,,,65e2356cf5ef67e5b170ca52,A,2024-07-11_11h52.08.806,Slot Machine Game,2023.1.3,Win32,60.24096386,,,,,,,,,,,,,,,,,,,,,,,,,,,900,,,,,,,,,,,,,,,,,,,,,6,4,,,808.3011,12,left,0.0186,,1.5,0.3,"[1,2,3]",0.967399286,stimuli/card_100_transparent.png,100,12,0,12,0,1,,,,,,,,,,
,,,,65e2356cf5ef67e5b170ca52,A,2024-07-11_11h52.08.806,Slot Machine Game,2023.1.3,Win32,60.24096386,,,,,,,,,,,,,,,,,,,,,,,,,,,1000,,,,,,,,,,,,,,,,,,,,,6,4,,,810.6348,13,left,0.2424,,1.5,0.3,"[1,2,3]",0.48820522,stimuli/card_100_transparent.png,100,13,0,13,0,1,,,,,,,,,,
,,,,65e2356cf5ef67e5b170ca52,A,2024-07-11_11h52.08.806,Slot Machine Game,2023.1.3,Win32,60.24096386,,,,,,,,,,,,,,,,,,,,,,,,,,,1100,,,,,,,,,,,,,,,,,,,,,6,4,,,813.1849,14,left,0.3986,,0.5,0.3,"[1,2,3]",0.777494741,stimuli/card_100_transparent.png,100,14,0,14,0,1,,,,,,,,,,
,,,,65e2356cf5ef67e5b170ca52,A,2024-07-11_11h52.08.806,Slot Machine Game,2023.1.3,Win32,60.24096386,,,,,,,,,,,,,,,,,,,,,,,,,,,,,,,,,,,814.9015,,,,,,,,,,,,,,,,,,,,,,,,,,,,,,,,,"[640,370,850,1310,580,1100]",5,0,5,0,1,,,,
,,,,65e2356cf5ef67e5b170ca52,A,2024-07-11_11h52.08.806,Slot Machine Game,2023.1.3,Win32,60.24096386,,,,,,,,,,,,,,,,,,,,,,,,,,,100,,,,,,,,,,,,,,,,,,,,,7,10,"[10,15]","[[3,1,2],[1,3,2]]",819.9095,0,up,0.4568,,0.5,0.3,"[3,1,2]",0.517284092,stimuli/card_100_transparent.png,100,0,0,0,0,1,,,,,,,,,,
,,,,65e2356cf5ef67e5b170ca52,A,2024-07-11_11h52.08.806,Slot Machine Game,2023.1.3,Win32,60.24096386,,,,,,,,,,,,,,,,,,,,,,,,,,,200,,,,,,,,,,,,,,,,,,,,,7,10,,,821.686,1,up,0.2011,,1.5,0.3,"[3,1,2]",0.213485748,stimuli/card_100_transparent.png,100,1,0,1,0,1,,,,,,,,,,
,,,,65e2356cf5ef67e5b170ca52,A,2024-07-11_11h52.08.806,Slot Machine Game,2023.1.3,Win32,60.24096386,,,,,,,,,,,,,,,,,,,,,,,,,,,210,,,,,,,,,,,,,,,,,,,,,7,10,,,824.2193,2,up,0.2122,,1.5,0.3,"[3,1,2]",0.168288453,stimuli/card_10_transparent.png,10,2,0,2,0,1,,,,,,,,,,
,,,,65e2356cf5ef67e5b170ca52,A,2024-07-11_11h52.08.806,Slot Machine Game,2023.1.3,Win32,60.24096386,,,,,,,,,,,,,,,,,,,,,,,,,,,310,,,,,,,,,,,,,,,,,,,,,7,10,,,826.7527,3,up,0.1583,,1,0.3,"[3,1,2]",0.486712485,stimuli/card_100_transparent.png,100,3,0,3,0,1,,,,,,,,,,
,,,,65e2356cf5ef67e5b170ca52,A,2024-07-11_11h52.08.806,Slot Machine Game,2023.1.3,Win32,60.24096386,,,,,,,,,,,,,,,,,,,,,,,,,,,320,,,,,,,,,,,,,,,,,,,,,7,10,,,828.7364,4,up,0.0794,,0.5,0.3,"[3,1,2]",0.112211734,stimuli/card_10_transparent.png,10,4,0,4,0,1,,,,,,,,,,
,,,,65e2356cf5ef67e5b170ca52,A,2024-07-11_11h52.08.806,Slot Machine Game,2023.1.3,Win32,60.24096386,,,,,,,,,,,,,,,,,,,,,,,,,,,420,,,,,,,,,,,,,,,,,,,,,7,10,,,830.1362,5,up,0.2686,,1,0.3,"[3,1,2]",0.943114674,stimuli/card_100_transparent.png,100,5,0,5,0,1,,,,,,,,,,
,,,,65e2356cf5ef67e5b170ca52,A,2024-07-11_11h52.08.806,Slot Machine Game,2023.1.3,Win32,60.24096386,,,,,,,,,,,,,,,,,,,,,,,,,,,420,,,,,,,,,,,,,,,,,,,,,7,10,,,832.2363,6,up,0.1182,,0.5,0.3,"[3,1,2]",0.002878518,stimuli/card_0_transparent.png,0,6,0,6,0,1,,,,,,,,,,
,,,,65e2356cf5ef67e5b170ca52,A,2024-07-11_11h52.08.806,Slot Machine Game,2023.1.3,Win32,60.24096386,,,,,,,,,,,,,,,,,,,,,,,,,,,430,,,,,,,,,,,,,,,,,,,,,7,10,,,833.67,7,right,0.448,,0.5,0.3,"[3,1,2]",0.304170985,stimuli/card_10_transparent.png,10,7,0,7,0,1,,,,,,,,,,
,,,,65e2356cf5ef67e5b170ca52,A,2024-07-11_11h52.08.806,Slot Machine Game,2023.1.3,Win32,60.24096386,,,,,,,,,,,,,,,,,,,,,,,,,,,440,,,,,,,,,,,,,,,,,,,,,7,10,,,835.4532,8,right,0.0094,,1,0.3,"[3,1,2]",0.693468993,stimuli/card_10_transparent.png,10,8,0,8,0,1,,,,,,,,,,
,,,,65e2356cf5ef67e5b170ca52,A,2024-07-11_11h52.08.806,Slot Machine Game,2023.1.3,Win32,60.24096386,,,,,,,,,,,,,,,,,,,,,,,,,,,440,,,,,,,,,,,,,,,,,,,,,7,10,,,837.2874,9,left,0.2936,,1.5,0.3,"[3,1,2]",0.970130437,stimuli/card_0_transparent.png,0,9,0,9,0,1,,,,,,,,,,
,,,,65e2356cf5ef67e5b170ca52,A,2024-07-11_11h52.08.806,Slot Machine Game,2023.1.3,Win32,60.24096386,,,,,,,,,,,,,,,,,,,,,,,,,,,440,,,,,,,,,,,,,,,,,,,,,7,10,,,839.9037,10,up,0.1516,,1.5,0.3,"[1,3,2]",0.66342789,stimuli/card_0_transparent.png,0,10,0,10,0,1,,,,,,,,,,
,,,,65e2356cf5ef67e5b170ca52,A,2024-07-11_11h52.08.806,Slot Machine Game,2023.1.3,Win32,60.24096386,,,,,,,,,,,,,,,,,,,,,,,,,,,450,,,,,,,,,,,,,,,,,,,,,7,10,,,842.3874,11,right,0.1319,,0.5,0.3,"[1,3,2]",0.38269327,stimuli/card_10_transparent.png,10,11,0,11,0,1,,,,,,,,,,
,,,,65e2356cf5ef67e5b170ca52,A,2024-07-11_11h52.08.806,Slot Machine Game,2023.1.3,Win32,60.24096386,,,,,,,,,,,,,,,,,,,,,,,,,,,460,,,,,,,,,,,,,,,,,,,,,7,10,,,843.8543,12,right,0.6389,,1.5,0.3,"[1,3,2]",0.548004768,stimuli/card_10_transparent.png,10,12,0,12,0,1,,,,,,,,,,
,,,,65e2356cf5ef67e5b170ca52,A,2024-07-11_11h52.08.806,Slot Machine Game,2023.1.3,Win32,60.24096386,,,,,,,,,,,,,,,,,,,,,,,,,,,560,,,,,,,,,,,,,,,,,,,,,7,10,,,846.8209,13,left,0.3069,,1,0.3,"[1,3,2]",0.727916763,stimuli/card_100_transparent.png,100,13,0,13,0,1,,,,,,,,,,
,,,,65e2356cf5ef67e5b170ca52,A,2024-07-11_11h52.08.806,Slot Machine Game,2023.1.3,Win32,60.24096386,,,,,,,,,,,,,,,,,,,,,,,,,,,660,,,,,,,,,,,,,,,,,,,,,7,10,,,848.938,14,left,0.1313,,0.5,0.3,"[1,3,2]",0.979875978,stimuli/card_100_transparent.png,100,14,0,14,0,1,,,,,,,,,,
,,,,65e2356cf5ef67e5b170ca52,A,2024-07-11_11h52.08.806,Slot Machine Game,2023.1.3,Win32,60.24096386,,,,,,,,,,,,,,,,,,,,,,,,,,,,,,,,,,,850.4045,,,,,,,,,,,,,,,,,,,,,,,,,,,,,,,,,"[640,370,850,1310,580,1100,660]",6,0,6,0,1,,,,
,,,,65e2356cf5ef67e5b170ca52,A,2024-07-11_11h52.08.806,Slot Machine Game,2023.1.3,Win32,60.24096386,,,,,,,,,,,,,,,,,,,,,,,,,,,0,,,,,,,,,,,,,,,,,,,,,8,7,"[9,15]","[[1,3,2],[2,3,1]]",855.41,0,up,0.2585,,1,0.3,"[1,3,2]",0.605929495,stimuli/card_0_transparent.png,0,0,0,0,0,1,,,,,,,,,,
,,,,65e2356cf5ef67e5b170ca52,A,2024-07-11_11h52.08.806,Slot Machine Game,2023.1.3,Win32,60.24096386,,,,,,,,,,,,,,,,,,,,,,,,,,,10,,,,,,,,,,,,,,,,,,,,,8,7,,,857.4886,1,right,0.0288,,1,0.3,"[1,3,2]",0.509105618,stimuli/card_10_transparent.png,10,1,0,1,0,1,,,,,,,,,,
,,,,65e2356cf5ef67e5b170ca52,A,2024-07-11_11h52.08.806,Slot Machine Game,2023.1.3,Win32,60.24096386,,,,,,,,,,,,,,,,,,,,,,,,,,,20,,,,,,,,,,,,,,,,,,,,,8,7,,,859.3386,2,right,0.0445,,1,0.3,"[1,3,2]",0.854222556,stimuli/card_10_transparent.png,10,2,0,2,0,1,,,,,,,,,,
,,,,65e2356cf5ef67e5b170ca52,A,2024-07-11_11h52.08.806,Slot Machine Game,2023.1.3,Win32,60.24096386,,,,,,,,,,,,,,,,,,,,,,,,,,,120,,,,,,,,,,,,,,,,,,,,,8,7,,,861.2058,3,left,0.5435,,0.5,0.3,"[1,3,2]",0.309475007,stimuli/card_100_transparent.png,100,3,0,3,0,1,,,,,,,,,,
,,,,65e2356cf5ef67e5b170ca52,A,2024-07-11_11h52.08.806,Slot Machine Game,2023.1.3,Win32,60.24096386,,,,,,,,,,,,,,,,,,,,,,,,,,,220,,,,,,,,,,,,,,,,,,,,,8,7,,,863.0726,4,left,0.3728,,0.5,0.3,"[1,3,2]",0.987931917,stimuli/card_100_transparent.png,100,4,0,4,0,1,,,,,,,,,,
,,,,65e2356cf5ef67e5b170ca52,A,2024-07-11_11h52.08.806,Slot Machine Game,2023.1.3,Win32,60.24096386,,,,,,,,,,,,,,,,,,,,,,,,,,,320,,,,,,,,,,,,,,,,,,,,,8,7,,,864.7723,5,left,0.259,,1,0.3,"[1,3,2]",0.312791207,stimuli/card_100_transparent.png,100,5,0,5,0,1,,,,,,,,,,
,,,,65e2356cf5ef67e5b170ca52,A,2024-07-11_11h52.08.806,Slot Machine Game,2023.1.3,Win32,60.24096386,,,,,,,,,,,,,,,,,,,,,,,,,,,330,,,,,,,,,,,,,,,,,,,,,8,7,,,866.8558,6,left,0.5357,,1,0.3,"[1,3,2]",0.157330748,stimuli/card_10_transparent.png,10,6,0,6,0,1,,,,,,,,,,
,,,,65e2356cf5ef67e5b170ca52,A,2024-07-11_11h52.08.806,Slot Machine Game,2023.1.3,Win32,60.24096386,,,,,,,,,,,,,,,,,,,,,,,,,,,430,,,,,,,,,,,,,,,,,,,,,8,7,,,869.2059,7,left,0.2259,,0.5,0.3,"[1,3,2]",0.946470214,stimuli/card_100_transparent.png,100,7,0,7,0,1,,,,,,,,,,
,,,,65e2356cf5ef67e5b170ca52,A,2024-07-11_11h52.08.806,Slot Machine Game,2023.1.3,Win32,60.24096386,,,,,,,,,,,,,,,,,,,,,,,,,,,530,,,,,,,,,,,,,,,,,,,,,8,7,,,870.7395,8,left,0.0685,,1.5,0.3,"[1,3,2]",0.962757696,stimuli/card_100_transparent.png,100,8,0,8,0,1,,,,,,,,,,
,,,,65e2356cf5ef67e5b170ca52,A,2024-07-11_11h52.08.806,Slot Machine Game,2023.1.3,Win32,60.24096386,,,,,,,,,,,,,,,,,,,,,,,,,,,540,,,,,,,,,,,,,,,,,,,,,8,7,,,873.1397,9,left,0.2194,,0.5,0.3,"[2,3,1]",0.276099146,stimuli/card_10_transparent.png,10,9,0,9,0,1,,,,,,,,,,
,,,,65e2356cf5ef67e5b170ca52,A,2024-07-11_11h52.08.806,Slot Machine Game,2023.1.3,Win32,60.24096386,,,,,,,,,,,,,,,,,,,,,,,,,,,550,,,,,,,,,,,,,,,,,,,,,8,7,,,874.6898,10,left,0.0775,,1,0.3,"[2,3,1]",0.531782101,stimuli/card_10_transparent.png,10,10,0,10,0,1,,,,,,,,,,
,,,,65e2356cf5ef67e5b170ca52,A,2024-07-11_11h52.08.806,Slot Machine Game,2023.1.3,Win32,60.24096386,,,,,,,,,,,,,,,,,,,,,,,,,,,560,,,,,,,,,,,,,,,,,,,,,8,7,,,876.59,11,left,0.01,,1.5,0.3,"[2,3,1]",0.222255624,stimuli/card_10_transparent.png,10,11,0,11,0,1,,,,,,,,,,
,,,,65e2356cf5ef67e5b170ca52,A,2024-07-11_11h52.08.806,Slot Machine Game,2023.1.3,Win32,60.24096386,,,,,,,,,,,,,,,,,,,,,,,,,,,660,,,,,,,,,,,,,,,,,,,,,8,7,,,878.9235,12,up,0.1359,,1.5,0.3,"[2,3,1]",0.060584879,stimuli/card_100_transparent.png,100,12,0,12,0,1,,,,,,,,,,
,,,,65e2356cf5ef67e5b170ca52,A,2024-07-11_11h52.08.806,Slot Machine Game,2023.1.3,Win32,60.24096386,,,,,,,,,,,,,,,,,,,,,,,,,,,660,,,,,,,,,,,,,,,,,,,,,8,7,,,881.3736,13,up,0.3533,,0.5,0.3,"[2,3,1]",0.36380638,stimuli/card_0_transparent.png,0,13,0,13,0,1,,,,,,,,,,
,,,,65e2356cf5ef67e5b170ca52,A,2024-07-11_11h52.08.806,Slot Machine Game,2023.1.3,Win32,60.24096386,,,,,,,,,,,,,,,,,,,,,,,,,,,670,,,,,,,,,,,,,,,,,,,,,8,7,,,883.0405,14,up,0.1891,,0.5,0.3,"[2,3,1]",0.131591941,stimuli/card_10_transparent.png,10,14,0,14,0,1,,,,,,,,,,
,,,,65e2356cf5ef67e5b170ca52,A,2024-07-11_11h52.08.806,Slot Machine Game,2023.1.3,Win32,60.24096386,,,,,,,,,,,,,,,,,,,,,,,,,,,,,,,,,,,884.5406,,,,,,,,,,,,,,,,,,,,,,,,,,,,,,,,,"[640,370,850,1310,580,1100,660,670]",7,0,7,0,1,,,,
,,,,65e2356cf5ef67e5b170ca52,A,2024-07-11_11h52.08.806,Slot Machine Game,2023.1.3,Win32,60.24096386,,,,,,,,,,,,,,,,,,,,,,,,,,,10,,,,,,,,,,,,,,,,,,,,,9,9,[15],"[[3,1,2]]",889.5464,0,right,0.178,,1,0.3,"[3,1,2]",0.65180362,stimuli/card_10_transparent.png,10,0,0,0,0,1,,,,,,,,,,
,,,,65e2356cf5ef67e5b170ca52,A,2024-07-11_11h52.08.806,Slot Machine Game,2023.1.3,Win32,60.24096386,,,,,,,,,,,,,,,,,,,,,,,,,,,110,,,,,,,,,,,,,,,,,,,,,9,9,,,891.5411,1,up,0.1786,,1,0.3,"[3,1,2]",0.592769948,stimuli/card_100_transparent.png,100,1,0,1,0,1,,,,,,,,,,
,,,,65e2356cf5ef67e5b170ca52,A,2024-07-11_11h52.08.806,Slot Machine Game,2023.1.3,Win32,60.24096386,,,,,,,,,,,,,,,,,,,,,,,,,,,210,,,,,,,,,,,,,,,,,,,,,9,9,,,893.5247,2,up,0.1167,,1,0.3,"[3,1,2]",0.208958412,stimuli/card_100_transparent.png,100,2,0,2,0,1,,,,,,,,,,
,,,,65e2356cf5ef67e5b170ca52,A,2024-07-11_11h52.08.806,Slot Machine Game,2023.1.3,Win32,60.24096386,,,,,,,,,,,,,,,,,,,,,,,,,,,310,,,,,,,,,,,,,,,,,,,,,9,9,,,895.4751,3,up,0.0092,,0.5,0.3,"[3,1,2]",0.514739271,stimuli/card_100_transparent.png,100,3,0,3,0,1,,,,,,,,,,
,,,,65e2356cf5ef67e5b170ca52,A,2024-07-11_11h52.08.806,Slot Machine Game,2023.1.3,Win32,60.24096386,,,,,,,,,,,,,,,,,,,,,,,,,,,310,,,,,,,,,,,,,,,,,,,,,9,9,,,896.8089,4,up,0.079,,1,0.3,"[3,1,2]",0.040972109,stimuli/card_0_transparent.png,0,4,0,4,0,1,,,,,,,,,,
,,,,65e2356cf5ef67e5b170ca52,A,2024-07-11_11h52.08.806,Slot Machine Game,2023.1.3,Win32,60.24096386,,,,,,,,,,,,,,,,,,,,,,,,,,,310,,,,,,,,,,,,,,,,,,,,,9,9,,,898.7086,5,left,0.1874,,0.5,0.3,"[3,1,2]",0.30897897,stimuli/card_0_transparent.png,0,5,0,5,0,1,,,,,,,,,,
,,,,65e2356cf5ef67e5b170ca52,A,2024-07-11_11h52.08.806,Slot Machine Game,2023.1.3,Win32,60.24096386,,,,,,,,,,,,,,,,,,,,,,,,,,,320,,,,,,,,,,,,,,,,,,,,,9,9,,,900.2252,6,right,0.1002,,0.5,0.3,"[3,1,2]",0.262241621,stimuli/card_10_transparent.png,10,6,0,6,0,1,,,,,,,,,,
,,,,65e2356cf5ef67e5b170ca52,A,2024-07-11_11h52.08.806,Slot Machine Game,2023.1.3,Win32,60.24096386,,,,,,,,,,,,,,,,,,,,,,,,,,,420,,,,,,,,,,,,,,,,,,,,,9,9,,,901.6422,7,up,0.2994,,1.5,0.3,"[3,1,2]",0.227845136,stimuli/card_100_transparent.png,100,7,0,7,0,1,,,,,,,,,,
,,,,65e2356cf5ef67e5b170ca52,A,2024-07-11_11h52.08.806,Slot Machine Game,2023.1.3,Win32,60.24096386,,,,,,,,,,,,,,,,,,,,,,,,,,,430,,,,,,,,,,,,,,,,,,,,,9,9,,,904.2756,8,up,0.2414,,1,0.3,"[3,1,2]",0.143545913,stimuli/card_10_transparent.png,10,8,0,8,0,1,,,,,,,,,,
,,,,65e2356cf5ef67e5b170ca52,A,2024-07-11_11h52.08.806,Slot Machine Game,2023.1.3,Win32,60.24096386,,,,,,,,,,,,,,,,,,,,,,,,,,,530,,,,,,,,,,,,,,,,,,,,,9,9,,,906.3426,9,up,0.2548,,1,0.3,"[3,1,2]",0.436358478,stimuli/card_100_transparent.png,100,9,0,9,0,1,,,,,,,,,,
,,,,65e2356cf5ef67e5b170ca52,A,2024-07-11_11h52.08.806,Slot Machine Game,2023.1.3,Win32,60.24096386,,,,,,,,,,,,,,,,,,,,,,,,,,,630,,,,,,,,,,,,,,,,,,,,,9,9,,,908.4258,10,up,0.0447,,0.5,0.3,"[3,1,2]",0.261801739,stimuli/card_100_transparent.png,100,10,0,10,0,1,,,,,,,,,,
,,,,65e2356cf5ef67e5b170ca52,A,2024-07-11_11h52.08.806,Slot Machine Game,2023.1.3,Win32,60.24096386,,,,,,,,,,,,,,,,,,,,,,,,,,,730,,,,,,,,,,,,,,,,,,,,,9,9,,,909.7926,11,up,0.0774,,1.5,0.3,"[3,1,2]",0.821546237,stimuli/card_100_transparent.png,100,11,0,11,0,1,,,,,,,,,,
,,,,65e2356cf5ef67e5b170ca52,A,2024-07-11_11h52.08.806,Slot Machine Game,2023.1.3,Win32,60.24096386,,,,,,,,,,,,,,,,,,,,,,,,,,,830,,,,,,,,,,,,,,,,,,,,,9,9,,,912.1762,12,up,0.1264,,0.5,0.3,"[3,1,2]",0.442104306,stimuli/card_100_transparent.png,100,12,0,12,0,1,,,,,,,,,,
,,,,65e2356cf5ef67e5b170ca52,A,2024-07-11_11h52.08.806,Slot Machine Game,2023.1.3,Win32,60.24096386,,,,,,,,,,,,,,,,,,,,,,,,,,,930,,,,,,,,,,,,,,,,,,,,,9,9,,,913.6264,13,up,0.1176,,0.5,0.3,"[3,1,2]",0.576829152,stimuli/card_100_transparent.png,100,13,0,13,0,1,,,,,,,,,,
,,,,65e2356cf5ef67e5b170ca52,A,2024-07-11_11h52.08.806,Slot Machine Game,2023.1.3,Win32,60.24096386,,,,,,,,,,,,,,,,,,,,,,,,,,,1030,,,,,,,,,,,,,,,,,,,,,9,9,,,915.0767,14,up,0.011,,0.5,0.3,"[3,1,2]",0.724891328,stimuli/card_100_transparent.png,100,14,0,14,0,1,,,,,,,,,,
,,,,65e2356cf5ef67e5b170ca52,A,2024-07-11_11h52.08.806,Slot Machine Game,2023.1.3,Win32,60.24096386,,,,,,,,,,,,,,,,,,,,,,,,,,,,,,,,,,,916.41,,,,,,,,,,,,,,,,,,,,,,,,,,,,,,,,,"[640,370,850,1310,580,1100,660,670,1030]",8,0,8,0,1,,,,
,,,,65e2356cf5ef67e5b170ca52,A,2024-07-11_11h52.08.806,Slot Machine Game,2023.1.3,Win32,60.24096386,,,,,,,,,,,,,,,,,,,,,,,,,,,100,,,,,,,,,,,,,,,,,,,,,10,6,"[4,10,15]","[[2,3,1],[1,3,2],[3,2,1]]",921.4166,0,right,0.1709,,0.5,0.3,"[2,3,1]",0.508921439,stimuli/card_100_transparent.png,100,0,0,0,0,1,,,,,,,,,,
,,,,65e2356cf5ef67e5b170ca52,A,2024-07-11_11h52.08.806,Slot Machine Game,2023.1.3,Win32,60.24096386,,,,,,,,,,,,,,,,,,,,,,,,,,,200,,,,,,,,,,,,,,,,,,,,,10,6,,,922.9105,1,right,0.0169,,0.5,0.3,"[2,3,1]",0.524502756,stimuli/card_100_transparent.png,100,1,0,1,0,1,,,,,,,,,,
,,,,65e2356cf5ef67e5b170ca52,A,2024-07-11_11h52.08.806,Slot Machine Game,2023.1.3,Win32,60.24096386,,,,,,,,,,,,,,,,,,,,,,,,,,,210,,,,,,,,,,,,,,,,,,,,,10,6,,,924.2438,2,right,0.2804,,1.5,0.3,"[2,3,1]",0.180898677,stimuli/card_10_transparent.png,10,2,0,2,0,1,,,,,,,,,,
,,,,65e2356cf5ef67e5b170ca52,A,2024-07-11_11h52.08.806,Slot Machine Game,2023.1.3,Win32,60.24096386,,,,,,,,,,,,,,,,,,,,,,,,,,,310,,,,,,,,,,,,,,,,,,,,,10,6,,,926.8607,3,right,0.2747,,1,0.3,"[2,3,1]",0.386044833,stimuli/card_100_transparent.png,100,3,0,3,0,1,,,,,,,,,,
,,,,65e2356cf5ef67e5b170ca52,A,2024-07-11_11h52.08.806,Slot Machine Game,2023.1.3,Win32,60.24096386,,,,,,,,,,,,,,,,,,,,,,,,,,,320,,,,,,,,,,,,,,,,,,,,,10,6,,,928.9443,4,right,0.3245,,1.5,0.3,"[1,3,2]",0.782673407,stimuli/card_10_transparent.png,10,4,0,4,0,1,,,,,,,,,,
,,,,65e2356cf5ef67e5b170ca52,A,2024-07-11_11h52.08.806,Slot Machine Game,2023.1.3,Win32,60.24096386,,,,,,,,,,,,,,,,,,,,,,,,,,,330,,,,,,,,,,,,,,,,,,,,,10,6,,,931.5945,5,right,0.1383,,1.5,0.3,"[1,3,2]",0.246774107,stimuli/card_10_transparent.png,10,5,0,5,0,1,,,,,,,,,,
,,,,65e2356cf5ef67e5b170ca52,A,2024-07-11_11h52.08.806,Slot Machine Game,2023.1.3,Win32,60.24096386,,,,,,,,,,,,,,,,,,,,,,,,,,,330,,,,,,,,,,,,,,,,,,,,,10,6,,,934.0448,6,right,0.0907,,1,0.3,"[1,3,2]",0.092778288,stimuli/card_0_transparent.png,0,6,0,6,0,1,,,,,,,,,,
,,,,65e2356cf5ef67e5b170ca52,A,2024-07-11_11h52.08.806,Slot Machine Game,2023.1.3,Win32,60.24096386,,,,,,,,,,,,,,,,,,,,,,,,,,,340,,,,,,,,,,,,,,,,,,,,,10,6,,,935.9618,7,up,0.0038,,0.5,0.3,"[1,3,2]",0.141754197,stimuli/card_10_transparent.png,10,7,0,7,0,1,,,,,,,,,,
,,,,65e2356cf5ef67e5b170ca52,A,2024-07-11_11h52.08.806,Slot Machine Game,2023.1.3,Win32,60.24096386,,,,,,,,,,,,,,,,,,,,,,,,,,,440,,,,,,,,,,,,,,,,,,,,,10,6,,,937.2955,8,left,0.0698,,1,0.3,"[1,3,2]",0.222876241,stimuli/card_100_transparent.png,100,8,0,8,0,1,,,,,,,,,,
,,,,65e2356cf5ef67e5b170ca52,A,2024-07-11_11h52.08.806,Slot Machine Game,2023.1.3,Win32,60.24096386,,,,,,,,,,,,,,,,,,,,,,,,,,,450,,,,,,,,,,,,,,,,,,,,,10,6,,,939.1956,9,left,0.0278,,0.5,0.3,"[1,3,2]",0.179736647,stimuli/card_10_transparent.png,10,9,0,9,0,1,,,,,,,,,,
,,,,65e2356cf5ef67e5b170ca52,A,2024-07-11_11h52.08.806,Slot Machine Game,2023.1.3,Win32,60.24096386,,,,,,,,,,,,,,,,,,,,,,,,,,,460,,,,,,,,,,,,,,,,,,,,,10,6,,,940.5452,10,up,0.0147,,1,0.3,"[3,2,1]",0.66173029,stimuli/card_10_transparent.png,10,10,0,10,0,1,,,,,,,,,,
,,,,65e2356cf5ef67e5b170ca52,A,2024-07-11_11h52.08.806,Slot Machine Game,2023.1.3,Win32,60.24096386,,,,,,,,,,,,,,,,,,,,,,,,,,,460,,,,,,,,,,,,,,,,,,,,,10,6,,,942.3787,11,left,0.4658,,0.5,0.3,"[3,2,1]",0.442065931,stimuli/card_0_transparent.png,0,11,0,11,0,1,,,,,,,,,,
,,,,65e2356cf5ef67e5b170ca52,A,2024-07-11_11h52.08.806,Slot Machine Game,2023.1.3,Win32,60.24096386,,,,,,,,,,,,,,,,,,,,,,,,,,,470,,,,,,,,,,,,,,,,,,,,,10,6,,,944.1795,12,up,0.0206,,1,0.3,"[3,2,1]",0.803142453,stimuli/card_10_transparent.png,10,12,0,12,0,1,,,,,,,,,,
,,,,65e2356cf5ef67e5b170ca52,A,2024-07-11_11h52.08.806,Slot Machine Game,2023.1.3,Win32,60.24096386,,,,,,,,,,,,,,,,,,,,,,,,,,,570,,,,,,,,,,,,,,,,,,,,,10,6,,,946.029,13,right,0.3304,,1.5,0.3,"[3,2,1]",0.306416212,stimuli/card_100_transparent.png,100,13,0,13,0,1,,,,,,,,,,
,,,,65e2356cf5ef67e5b170ca52,A,2024-07-11_11h52.08.806,Slot Machine Game,2023.1.3,Win32,60.24096386,,,,,,,,,,,,,,,,,,,,,,,,,,,570,,,,,,,,,,,,,,,,,,,,,10,6,,,948.6795,14,right,0.1919,,1.5,0.3,"[3,2,1]",0.085654573,stimuli/card_0_transparent.png,0,14,0,14,0,1,,,,,,,,,,
,,,,65e2356cf5ef67e5b170ca52,A,2024-07-11_11h52.08.806,Slot Machine Game,2023.1.3,Win32,60.24096386,,,,,,,,,,,,,,,,,,,,,,,,,,,,,,,,,,,951.1964,,,,,,,,,,,,,,,,,,,,,,,,,,,,,,,,,"[640,370,850,1310,580,1100,660,670,1030,570]",9,0,9,0,1,,,,
,,,,65e2356cf5ef67e5b170ca52,A,2024-07-11_11h52.08.806,Slot Machine Game,2023.1.3,Win32,60.24096386,,,,,,,,,,,,,,,,,,,,,,,,,,,,,,,,,,,,,,,,,,,,,,,,,,,,,,,,,,,,,,,,,,,,,,,,,,9,"[640,370,850,1310,580,1100,660,670,1030,570]",6.7,2024-07-11_12h08.09.056
