key_resp_welcome_started,key_resp_welcome_keys,key_resp_welcome_rt,key_resp_welcome_duration,prolific_id,path_id,date,expName,psychopyVersion,OS,frameRate,key_resp_instruction1_started,key_resp_instruction1_keys,key_resp_instruction1_rt,key_resp_instruction1_duration,key_resp_instruction2_started,key_resp_instruction2_keys,key_resp_instruction2_rt,key_resp_instruction2_duration,key_resp_instruction3_started,key_resp_instruction3_keys,key_resp_instruction3_rt,key_resp_instruction3_duration,key_resp_instruction4_started,key_resp_instruction4_keys,key_resp_instruction4_rt,key_resp_instruction4_duration,practiceCondition,practice_reward_seqs,practice_trial_started,practice_trial_num,practice_resp_rt,practice_resp_duration,practice_resp_keys,prac_presentationInterval,"practice_reward_seq: 2,1,3",reward_img,cumulative_reward,trial_reward,practice_trials.thisRepN,practice_trials.thisTrialN,practice_trials.thisN,practice_trials.thisIndex,practice_trials.ran,"practice_reward_seq: 2,3,1",block_break_started,"practice_reward_seq: 1,3,2","practice_reward_seq: 3,1,2",practice_end_time,practice_end_keys,practice_end_rt,practice_end_duration,main_instruction_text_started,block_condition,block_order_indices,main_instruction_keys,main_instruction_rt,main_instruction_duration,block_number,block_assignment,current_condition,main_reward_seqs,main_trial_started,main_trial_num,main_trial_keys,main_trial_rt,main_trial_duration,main_presentationInterval,reward_presentation_time,main_reward_seq,reward_rand_val,main_reward_img,current_reward,main_trials.thisRepN,main_trials.thisTrialN,main_trials.thisN,main_trials.thisIndex,main_trials.ran,block_reward,block.thisRepN,block.thisTrialN,block.thisN,block.thisIndex,block.ran,block_reward.length,block_reward_all,reward_amount,date_end_task
0.0007,space,1.5908,,65e257541a1445e571e8525f,B,2024-06-21_16h04.45.714,Slot Machine Game,2023.1.3,Win32,59.88023952,,,,,,,,,,,,,,,,,,,,,,,,,,,,,,,,,,,,,,,,,,,,,,,,,,,,,,,,,,,,,,,,,,,,,,,,,,,,,
,,,,65e257541a1445e571e8525f,B,2024-06-21_16h04.45.714,Slot Machine Game,2023.1.3,Win32,59.88023952,1.6149,space,68.176,,,,,,,,,,,,,,,,,,,,,,,,,,,,,,,,,,,,,,,,,,,,,,,,,,,,,,,,,,,,,,,,,,,,,,,,,,
,,,,65e257541a1445e571e8525f,B,2024-06-21_16h04.45.714,Slot Machine Game,2023.1.3,Win32,59.88023952,,,,,69.8212,space,38.6642,,,,,,,,,,,,,,,,,,,,,,,,,,,,,,,,,,,,,,,,,,,,,,,,,,,,,,,,,,,,,,,,,,,,,,
,,,,65e257541a1445e571e8525f,B,2024-06-21_16h04.45.714,Slot Machine Game,2023.1.3,Win32,59.88023952,,,,,,,,,108.5451,space,8.1977,,,,,,,,,,,,,,,,,,,,,,,,,,,,,,,,,,,,,,,,,,,,,,,,,,,,,,,,,,,,,,,,,,
,,,,65e257541a1445e571e8525f,B,2024-06-21_16h04.45.714,Slot Machine Game,2023.1.3,Win32,59.88023952,,,,,,,,,,,,,,,,,,,,,,,,,,,,,,,,,,,,,,,,,,,,,,,,,,,,,,,,,,,,,,,,,,,,,,,,,,,,,
,,,,65e257541a1445e571e8525f,B,2024-06-21_16h04.45.714,Slot Machine Game,2023.1.3,Win32,59.88023952,,,,,,,,,,,,,259.0724,space,3.853,,,,,,,,,,,,,,,,,,,,,,,,,,,,,,,,,,,,,,,,,,,,,,,,,,,,,,,,,,,,,,
,,,,65e257541a1445e571e8525f,B,2024-06-21_16h04.45.714,Slot Machine Game,2023.1.3,Win32,59.88023952,,,,,,,,,,,,,,,,,"[9,15]","[[2,1,3],[2,3,1]]",262.9501,0,2.1638,,left,0.5,,stimuli/card_10_transparent.png,10,10,0,0,0,0,1,,,,,,,,,,,,,,,,,,,,,,,,,,,,,,,,,,,,,,,,,,,,
,,,,65e257541a1445e571e8525f,B,2024-06-21_16h04.45.714,Slot Machine Game,2023.1.3,Win32,59.88023952,,,,,,,,,,,,,,,,,,,266.4386,1,0.1835,,left,1.5,,stimuli/card_10_transparent.png,20,10,1,0,1,0,1,,,,,,,,,,,,,,,,,,,,,,,,,,,,,,,,,,,,,,,,,,,,
,,,,65e257541a1445e571e8525f,B,2024-06-21_16h04.45.714,Slot Machine Game,2023.1.3,Win32,59.88023952,,,,,,,,,,,,,,,,,,,268.9531,2,3.3153,,up,1,,stimuli/card_100_transparent.png,120,100,2,0,2,0,1,,,,,,,,,,,,,,,,,,,,,,,,,,,,,,,,,,,,,,,,,,,,
,,,,65e257541a1445e571e8525f,B,2024-06-21_16h04.45.714,Slot Machine Game,2023.1.3,Win32,59.88023952,,,,,,,,,,,,,,,,,,,274.0991,3,0.3535,,up,0.5,,stimuli/card_100_transparent.png,220,100,3,0,3,0,1,,,,,,,,,,,,,,,,,,,,,,,,,,,,,,,,,,,,,,,,,,,,
,,,,65e257541a1445e571e8525f,B,2024-06-21_16h04.45.714,Slot Machine Game,2023.1.3,Win32,59.88023952,,,,,,,,,,,,,,,,,,,275.7819,4,0.9549,,up,1,,stimuli/card_10_transparent.png,230,10,4,0,4,0,1,,,,,,,,,,,,,,,,,,,,,,,,,,,,,,,,,,,,,,,,,,,,
,,,,65e257541a1445e571e8525f,B,2024-06-21_16h04.45.714,Slot Machine Game,2023.1.3,Win32,59.88023952,,,,,,,,,,,,,,,,,,,278.563,5,1.5661,,up,1.5,,stimuli/card_10_transparent.png,240,10,5,0,5,0,1,,,,,,,,,,,,,,,,,,,,,,,,,,,,,,,,,,,,,,,,,,,,
,,,,65e257541a1445e571e8525f,B,2024-06-21_16h04.45.714,Slot Machine Game,2023.1.3,Win32,59.88023952,,,,,,,,,,,,,,,,,,,282.4603,6,0.0674,,right,1.5,,stimuli/card_100_transparent.png,340,100,6,0,6,0,1,,,,,,,,,,,,,,,,,,,,,,,,,,,,,,,,,,,,,,,,,,,,
,,,,65e257541a1445e571e8525f,B,2024-06-21_16h04.45.714,Slot Machine Game,2023.1.3,Win32,59.88023952,,,,,,,,,,,,,,,,,,,284.8588,7,3.796,,right,0.5,,stimuli/card_10_transparent.png,350,10,7,0,7,0,1,,,,,,,,,,,,,,,,,,,,,,,,,,,,,,,,,,,,,,,,,,,,
,,,,65e257541a1445e571e8525f,B,2024-06-21_16h04.45.714,Slot Machine Game,2023.1.3,Win32,59.88023952,,,,,,,,,,,,,,,,,,,289.9888,8,1.138,,right,1.5,,stimuli/card_0_transparent.png,350,0,8,0,8,0,1,,,,,,,,,,,,,,,,,,,,,,,,,,,,,,,,,,,,,,,,,,,,
,,,,65e257541a1445e571e8525f,B,2024-06-21_16h04.45.714,Slot Machine Game,2023.1.3,Win32,59.88023952,,,,,,,,,,,,,,,,,,,293.4533,9,0.1168,,left,1.5,,stimuli/card_100_transparent.png,450,100,9,0,9,0,1,,,,,,,,,,,,,,,,,,,,,,,,,,,,,,,,,,,,,,,,,,,,
,,,,65e257541a1445e571e8525f,B,2024-06-21_16h04.45.714,Slot Machine Game,2023.1.3,Win32,59.88023952,,,,,,,,,,,,,,,,,,,295.9016,10,0.5995,,left,1,,stimuli/card_10_transparent.png,460,10,10,0,10,0,1,,,,,,,,,,,,,,,,,,,,,,,,,,,,,,,,,,,,,,,,,,,,
,,,,65e257541a1445e571e8525f,B,2024-06-21_16h04.45.714,Slot Machine Game,2023.1.3,Win32,59.88023952,,,,,,,,,,,,,,,,,,,298.3333,11,2.2312,,left,1,,stimuli/card_10_transparent.png,470,10,11,0,11,0,1,,,,,,,,,,,,,,,,,,,,,,,,,,,,,,,,,,,,,,,,,,,,
,,,,65e257541a1445e571e8525f,B,2024-06-21_16h04.45.714,Slot Machine Game,2023.1.3,Win32,59.88023952,,,,,,,,,,,,,,,,,,,302.3963,12,1.0843,,up,1.5,,stimuli/card_0_transparent.png,470,0,12,0,12,0,1,,,,,,,,,,,,,,,,,,,,,,,,,,,,,,,,,,,,,,,,,,,,
,,,,65e257541a1445e571e8525f,B,2024-06-21_16h04.45.714,Slot Machine Game,2023.1.3,Win32,59.88023952,,,,,,,,,,,,,,,,,,,305.8114,13,0.0009,,right,1.5,,stimuli/card_100_transparent.png,570,100,13,0,13,0,1,,,,,,,,,,,,,,,,,,,,,,,,,,,,,,,,,,,,,,,,,,,,
,,,,65e257541a1445e571e8525f,B,2024-06-21_16h04.45.714,Slot Machine Game,2023.1.3,Win32,59.88023952,,,,,,,,,,,,,,,,,,,308.1435,14,0.6002,,right,1.5,,stimuli/card_10_transparent.png,580,10,14,0,14,0,1,,,,,,,,,,,,,,,,,,,,,,,,,,,,,,,,,,,,,,,,,,,,
,,,,65e257541a1445e571e8525f,B,2024-06-21_16h04.45.714,Slot Machine Game,2023.1.3,Win32,59.88023952,,,,,,,,,,,,,,,,,"[6,15]","[[1,3,2],[3,1,2]]",316.1211,0,0.2348,,left,0.5,,stimuli/card_0_transparent.png,0,0,0,0,0,0,1,,311.1089,,,,,,,,,,,,,,,,,,,,,,,,,,,,,,,,,,,,,,,,,,
,,,,65e257541a1445e571e8525f,B,2024-06-21_16h04.45.714,Slot Machine Game,2023.1.3,Win32,59.88023952,,,,,,,,,,,,,,,,,,,317.6869,1,0.9835,,up,1.5,,stimuli/card_0_transparent.png,0,0,1,0,1,0,1,,,,,,,,,,,,,,,,,,,,,,,,,,,,,,,,,,,,,,,,,,,,
,,,,65e257541a1445e571e8525f,B,2024-06-21_16h04.45.714,Slot Machine Game,2023.1.3,Win32,59.88023952,,,,,,,,,,,,,,,,,,,321.0013,2,0.073,,right,1.5,,stimuli/card_10_transparent.png,10,10,2,0,2,0,1,,,,,,,,,,,,,,,,,,,,,,,,,,,,,,,,,,,,,,,,,,,,
,,,,65e257541a1445e571e8525f,B,2024-06-21_16h04.45.714,Slot Machine Game,2023.1.3,Win32,59.88023952,,,,,,,,,,,,,,,,,,,323.4,3,0.475,,right,0.5,,stimuli/card_10_transparent.png,20,10,3,0,3,0,1,,,,,,,,,,,,,,,,,,,,,,,,,,,,,,,,,,,,,,,,,,,,
,,,,65e257541a1445e571e8525f,B,2024-06-21_16h04.45.714,Slot Machine Game,2023.1.3,Win32,59.88023952,,,,,,,,,,,,,,,,,,,325.1984,4,0.8173,,left,1.5,,stimuli/card_100_transparent.png,120,100,4,0,4,0,1,,,,,,,,,,,,,,,,,,,,,,,,,,,,,,,,,,,,,,,,,,,,
,,,,65e257541a1445e571e8525f,B,2024-06-21_16h04.45.714,Slot Machine Game,2023.1.3,Win32,59.88023952,,,,,,,,,,,,,,,,,,,328.3467,5,0.2841,,left,1.5,,stimuli/card_100_transparent.png,220,100,5,0,5,0,1,,,,,,,,,,,,,,,,,,,,,,,,,,,,,,,,,,,,,,,,,,,,
,,,,65e257541a1445e571e8525f,B,2024-06-21_16h04.45.714,Slot Machine Game,2023.1.3,Win32,59.88023952,,,,,,,,,,,,,,,,,,,330.9619,6,0.0016,,left,0.5,,stimuli/card_100_transparent.png,320,100,6,0,6,0,1,,,,,,,,,,,,,,,,,,,,,,,,,,,,,,,,,,,,,,,,,,,,
,,,,65e257541a1445e571e8525f,B,2024-06-21_16h04.45.714,Slot Machine Game,2023.1.3,Win32,59.88023952,,,,,,,,,,,,,,,,,,,332.2938,7,0.1085,,left,0.5,,stimuli/card_0_transparent.png,320,0,7,0,7,0,1,,,,,,,,,,,,,,,,,,,,,,,,,,,,,,,,,,,,,,,,,,,,
,,,,65e257541a1445e571e8525f,B,2024-06-21_16h04.45.714,Slot Machine Game,2023.1.3,Win32,59.88023952,,,,,,,,,,,,,,,,,,,333.7432,8,0.1039,,left,1.5,,stimuli/card_100_transparent.png,420,100,8,0,8,0,1,,,,,,,,,,,,,,,,,,,,,,,,,,,,,,,,,,,,,,,,,,,,
,,,,65e257541a1445e571e8525f,B,2024-06-21_16h04.45.714,Slot Machine Game,2023.1.3,Win32,59.88023952,,,,,,,,,,,,,,,,,,,336.1749,9,0.0706,,left,1.5,,stimuli/card_100_transparent.png,520,100,9,0,9,0,1,,,,,,,,,,,,,,,,,,,,,,,,,,,,,,,,,,,,,,,,,,,,
,,,,65e257541a1445e571e8525f,B,2024-06-21_16h04.45.714,Slot Machine Game,2023.1.3,Win32,59.88023952,,,,,,,,,,,,,,,,,,,338.5733,10,0.0887,,left,0.5,,stimuli/card_0_transparent.png,520,0,10,0,10,0,1,,,,,,,,,,,,,,,,,,,,,,,,,,,,,,,,,,,,,,,,,,,,
,,,,65e257541a1445e571e8525f,B,2024-06-21_16h04.45.714,Slot Machine Game,2023.1.3,Win32,59.88023952,,,,,,,,,,,,,,,,,,,339.989,11,0.0031,,left,1,,stimuli/card_0_transparent.png,520,0,11,0,11,0,1,,,,,,,,,,,,,,,,,,,,,,,,,,,,,,,,,,,,,,,,,,,,
,,,,65e257541a1445e571e8525f,B,2024-06-21_16h04.45.714,Slot Machine Game,2023.1.3,Win32,59.88023952,,,,,,,,,,,,,,,,,,,341.821,12,0.0843,,left,0.5,,stimuli/card_100_transparent.png,620,100,12,0,12,0,1,,,,,,,,,,,,,,,,,,,,,,,,,,,,,,,,,,,,,,,,,,,,
,,,,65e257541a1445e571e8525f,B,2024-06-21_16h04.45.714,Slot Machine Game,2023.1.3,Win32,59.88023952,,,,,,,,,,,,,,,,,,,343.2369,13,0.1183,,left,0.5,,stimuli/card_100_transparent.png,720,100,13,0,13,0,1,,,,,,,,,,,,,,,,,,,,,,,,,,,,,,,,,,,,,,,,,,,,
,,,,65e257541a1445e571e8525f,B,2024-06-21_16h04.45.714,Slot Machine Game,2023.1.3,Win32,59.88023952,,,,,,,,,,,,,,,,,,,344.6857,14,0.0009,,left,0.5,,stimuli/card_0_transparent.png,720,0,14,0,14,0,1,,,,,,,,,,,,,,,,,,,,,,,,,,,,,,,,,,,,,,,,,,,,
,,,,65e257541a1445e571e8525f,B,2024-06-21_16h04.45.714,Slot Machine Game,2023.1.3,Win32,59.88023952,,,,,,,,,,,,,,,,,,,,,,,,,,,,,,,,,,,346.0184,,,351.0166,space,2.6158,,,,,,,,,,,,,,,,,,,,,,,,,,,,,,,,,,,,,
,,,,65e257541a1445e571e8525f,B,2024-06-21_16h04.45.714,Slot Machine Game,2023.1.3,Win32,59.88023952,,,,,,,,,,,,,,,,,,,,,,,,,,,,,,,,,,,,,,,,,,353.6663,1,"[0,1,2,3,4,5,6,7,8,9]",space,3.5068,,,,,,,,,,,,,,,,,,,,,,,,,,,,,,,
,,,,65e257541a1445e571e8525f,B,2024-06-21_16h04.45.714,Slot Machine Game,2023.1.3,Win32,59.88023952,,,,,,,,,,,,,,,,,,,,,,,,,,,10,,,,,,,,,,,,,,,,,,,,,1,1,"[12,15]","[[2,1,3],[2,3,1]]",357.243,0,left,0.1711,,1.5,0.3,"[2,1,3]",0.340302033,stimuli/card_10_transparent.png,10,0,0,0,0,1,,,,,,,,,,
,,,,65e257541a1445e571e8525f,B,2024-06-21_16h04.45.714,Slot Machine Game,2023.1.3,Win32,59.88023952,,,,,,,,,,,,,,,,,,,,,,,,,,,20,,,,,,,,,,,,,,,,,,,,,1,1,,,359.7263,1,left,0.1029,,1,0.3,"[2,1,3]",0.338784603,stimuli/card_10_transparent.png,10,1,0,1,0,1,,,,,,,,,,
,,,,65e257541a1445e571e8525f,B,2024-06-21_16h04.45.714,Slot Machine Game,2023.1.3,Win32,59.88023952,,,,,,,,,,,,,,,,,,,,,,,,,,,120,,,,,,,,,,,,,,,,,,,,,1,1,,,361.6582,2,up,0.1566,,1.5,0.3,"[2,1,3]",0.4540745,stimuli/card_100_transparent.png,100,2,0,2,0,1,,,,,,,,,,
,,,,65e257541a1445e571e8525f,B,2024-06-21_16h04.45.714,Slot Machine Game,2023.1.3,Win32,59.88023952,,,,,,,,,,,,,,,,,,,,,,,,,,,220,,,,,,,,,,,,,,,,,,,,,1,1,,,364.1392,3,up,0.1727,,0.5,0.3,"[2,1,3]",0.241377032,stimuli/card_100_transparent.png,100,3,0,3,0,1,,,,,,,,,,
,,,,65e257541a1445e571e8525f,B,2024-06-21_16h04.45.714,Slot Machine Game,2023.1.3,Win32,59.88023952,,,,,,,,,,,,,,,,,,,,,,,,,,,320,,,,,,,,,,,,,,,,,,,,,1,1,,,365.6387,4,up,0.2059,,1,0.3,"[2,1,3]",0.470468192,stimuli/card_100_transparent.png,100,4,0,4,0,1,,,,,,,,,,
,,,,65e257541a1445e571e8525f,B,2024-06-21_16h04.45.714,Slot Machine Game,2023.1.3,Win32,59.88023952,,,,,,,,,,,,,,,,,,,,,,,,,,,420,,,,,,,,,,,,,,,,,,,,,1,1,,,367.6542,5,up,0.1706,,1.5,0.3,"[2,1,3]",0.522069969,stimuli/card_100_transparent.png,100,5,0,5,0,1,,,,,,,,,,
,,,,65e257541a1445e571e8525f,B,2024-06-21_16h04.45.714,Slot Machine Game,2023.1.3,Win32,59.88023952,,,,,,,,,,,,,,,,,,,,,,,,,,,520,,,,,,,,,,,,,,,,,,,,,1,1,,,370.1522,6,up,0.0744,,0.5,0.3,"[2,1,3]",0.560710346,stimuli/card_100_transparent.png,100,6,0,6,0,1,,,,,,,,,,
,,,,65e257541a1445e571e8525f,B,2024-06-21_16h04.45.714,Slot Machine Game,2023.1.3,Win32,59.88023952,,,,,,,,,,,,,,,,,,,,,,,,,,,520,,,,,,,,,,,,,,,,,,,,,1,1,,,371.551,7,up,0.0336,,1,0.3,"[2,1,3]",0.000586642,stimuli/card_0_transparent.png,0,7,0,7,0,1,,,,,,,,,,
,,,,65e257541a1445e571e8525f,B,2024-06-21_16h04.45.714,Slot Machine Game,2023.1.3,Win32,59.88023952,,,,,,,,,,,,,,,,,,,,,,,,,,,620,,,,,,,,,,,,,,,,,,,,,1,1,,,373.4166,8,up,0.1175,,1.5,0.3,"[2,1,3]",0.312389807,stimuli/card_100_transparent.png,100,8,0,8,0,1,,,,,,,,,,
,,,,65e257541a1445e571e8525f,B,2024-06-21_16h04.45.714,Slot Machine Game,2023.1.3,Win32,59.88023952,,,,,,,,,,,,,,,,,,,,,,,,,,,720,,,,,,,,,,,,,,,,,,,,,1,1,,,375.8653,9,up,0.0574,,1.5,0.3,"[2,1,3]",0.358849151,stimuli/card_100_transparent.png,100,9,0,9,0,1,,,,,,,,,,
,,,,65e257541a1445e571e8525f,B,2024-06-21_16h04.45.714,Slot Machine Game,2023.1.3,Win32,59.88023952,,,,,,,,,,,,,,,,,,,,,,,,,,,820,,,,,,,,,,,,,,,,,,,,,1,1,,,378.2472,10,up,0.023,,1.5,0.3,"[2,1,3]",0.447561249,stimuli/card_100_transparent.png,100,10,0,10,0,1,,,,,,,,,,
,,,,65e257541a1445e571e8525f,B,2024-06-21_16h04.45.714,Slot Machine Game,2023.1.3,Win32,59.88023952,,,,,,,,,,,,,,,,,,,,,,,,,,,920,,,,,,,,,,,,,,,,,,,,,1,1,,,380.5956,11,up,0.0342,,1.5,0.3,"[2,1,3]",0.355510687,stimuli/card_100_transparent.png,100,11,0,11,0,1,,,,,,,,,,
,,,,65e257541a1445e571e8525f,B,2024-06-21_16h04.45.714,Slot Machine Game,2023.1.3,Win32,59.88023952,,,,,,,,,,,,,,,,,,,,,,,,,,,1020,,,,,,,,,,,,,,,,,,,,,1,1,,,382.9609,12,up,0.1188,,0.5,0.3,"[2,3,1]",0.000648054,stimuli/card_100_transparent.png,100,12,0,12,0,1,,,,,,,,,,
,,,,65e257541a1445e571e8525f,B,2024-06-21_16h04.45.714,Slot Machine Game,2023.1.3,Win32,59.88023952,,,,,,,,,,,,,,,,,,,,,,,,,,,1020,,,,,,,,,,,,,,,,,,,,,1,1,,,384.4262,13,up,0.1504,,0.5,0.3,"[2,3,1]",0.675307719,stimuli/card_0_transparent.png,0,13,0,13,0,1,,,,,,,,,,
,,,,65e257541a1445e571e8525f,B,2024-06-21_16h04.45.714,Slot Machine Game,2023.1.3,Win32,59.88023952,,,,,,,,,,,,,,,,,,,,,,,,,,,1020,,,,,,,,,,,,,,,,,,,,,1,1,,,385.9086,14,up,0.181,,0.5,0.3,"[2,3,1]",0.615235092,stimuli/card_0_transparent.png,0,14,0,14,0,1,,,,,,,,,,
,,,,65e257541a1445e571e8525f,B,2024-06-21_16h04.45.714,Slot Machine Game,2023.1.3,Win32,59.88023952,,,,,,,,,,,,,,,,,,,,,,,,,,,,,,,,,,,387.4239,,,,,,,,,,,,,,,,,,,,,,,,,,,,,,,,,[1020],0,0,0,0,1,,,,
,,,,65e257541a1445e571e8525f,B,2024-06-21_16h04.45.714,Slot Machine Game,2023.1.3,Win32,59.88023952,,,,,,,,,,,,,,,,,,,,,,,,,,,0,,,,,,,,,,,,,,,,,,,,,2,2,"[6,15]","[[1,3,2],[3,2,1]]",392.4611,0,up,0.0511,,1,0.3,"[1,3,2]",0.694746097,stimuli/card_0_transparent.png,0,0,0,0,0,1,,,,,,,,,,
,,,,65e257541a1445e571e8525f,B,2024-06-21_16h04.45.714,Slot Machine Game,2023.1.3,Win32,59.88023952,,,,,,,,,,,,,,,,,,,,,,,,,,,100,,,,,,,,,,,,,,,,,,,,,2,2,,,394.3359,1,left,1.333,,0.5,0.3,"[1,3,2]",0.901162421,stimuli/card_100_transparent.png,100,1,0,1,0,1,,,,,,,,,,
,,,,65e257541a1445e571e8525f,B,2024-06-21_16h04.45.714,Slot Machine Game,2023.1.3,Win32,59.88023952,,,,,,,,,,,,,,,,,,,,,,,,,,,200,,,,,,,,,,,,,,,,,,,,,2,2,,,397.0013,2,left,0.1726,,0.5,0.3,"[1,3,2]",0.732605254,stimuli/card_100_transparent.png,100,2,0,2,0,1,,,,,,,,,,
,,,,65e257541a1445e571e8525f,B,2024-06-21_16h04.45.714,Slot Machine Game,2023.1.3,Win32,59.88023952,,,,,,,,,,,,,,,,,,,,,,,,,,,300,,,,,,,,,,,,,,,,,,,,,2,2,,,398.4998,3,left,0.1103,,1,0.3,"[1,3,2]",0.807908888,stimuli/card_100_transparent.png,100,3,0,3,0,1,,,,,,,,,,
,,,,65e257541a1445e571e8525f,B,2024-06-21_16h04.45.714,Slot Machine Game,2023.1.3,Win32,59.88023952,,,,,,,,,,,,,,,,,,,,,,,,,,,400,,,,,,,,,,,,,,,,,,,,,2,2,,,400.4318,4,left,0.0262,,0.5,0.3,"[1,3,2]",0.341083348,stimuli/card_100_transparent.png,100,4,0,4,0,1,,,,,,,,,,
,,,,65e257541a1445e571e8525f,B,2024-06-21_16h04.45.714,Slot Machine Game,2023.1.3,Win32,59.88023952,,,,,,,,,,,,,,,,,,,,,,,,,,,410,,,,,,,,,,,,,,,,,,,,,2,2,,,401.7814,5,left,0.0509,,1.5,0.3,"[1,3,2]",0.180981965,stimuli/card_10_transparent.png,10,5,0,5,0,1,,,,,,,,,,
,,,,65e257541a1445e571e8525f,B,2024-06-21_16h04.45.714,Slot Machine Game,2023.1.3,Win32,59.88023952,,,,,,,,,,,,,,,,,,,,,,,,,,,410,,,,,,,,,,,,,,,,,,,,,2,2,,,404.1632,6,left,0.0903,,1.5,0.3,"[3,2,1]",0.444452707,stimuli/card_0_transparent.png,0,6,0,6,0,1,,,,,,,,,,
,,,,65e257541a1445e571e8525f,B,2024-06-21_16h04.45.714,Slot Machine Game,2023.1.3,Win32,59.88023952,,,,,,,,,,,,,,,,,,,,,,,,,,,410,,,,,,,,,,,,,,,,,,,,,2,2,,,406.5783,7,left,0.0841,,1,0.3,"[3,2,1]",0.669478852,stimuli/card_0_transparent.png,0,7,0,7,0,1,,,,,,,,,,
,,,,65e257541a1445e571e8525f,B,2024-06-21_16h04.45.714,Slot Machine Game,2023.1.3,Win32,59.88023952,,,,,,,,,,,,,,,,,,,,,,,,,,,420,,,,,,,,,,,,,,,,,,,,,2,2,,,408.4937,8,up,0.0905,,1.5,0.3,"[3,2,1]",0.32888774,stimuli/card_10_transparent.png,10,8,0,8,0,1,,,,,,,,,,
,,,,65e257541a1445e571e8525f,B,2024-06-21_16h04.45.714,Slot Machine Game,2023.1.3,Win32,59.88023952,,,,,,,,,,,,,,,,,,,,,,,,,,,520,,,,,,,,,,,,,,,,,,,,,2,2,,,410.9082,9,right,0.0025,,1,0.3,"[3,2,1]",0.303152252,stimuli/card_100_transparent.png,100,9,0,9,0,1,,,,,,,,,,
,,,,65e257541a1445e571e8525f,B,2024-06-21_16h04.45.714,Slot Machine Game,2023.1.3,Win32,59.88023952,,,,,,,,,,,,,,,,,,,,,,,,,,,620,,,,,,,,,,,,,,,,,,,,,2,2,,,412.7407,10,right,0.0922,,0.5,0.3,"[3,2,1]",0.211072022,stimuli/card_100_transparent.png,100,10,0,10,0,1,,,,,,,,,,
,,,,65e257541a1445e571e8525f,B,2024-06-21_16h04.45.714,Slot Machine Game,2023.1.3,Win32,59.88023952,,,,,,,,,,,,,,,,,,,,,,,,,,,720,,,,,,,,,,,,,,,,,,,,,2,2,,,414.1566,11,right,0.084,,1,0.3,"[3,2,1]",0.904125051,stimuli/card_100_transparent.png,100,11,0,11,0,1,,,,,,,,,,
,,,,65e257541a1445e571e8525f,B,2024-06-21_16h04.45.714,Slot Machine Game,2023.1.3,Win32,59.88023952,,,,,,,,,,,,,,,,,,,,,,,,,,,820,,,,,,,,,,,,,,,,,,,,,2,2,,,416.0719,12,right,0.0249,,0.5,0.3,"[3,2,1]",0.973535911,stimuli/card_100_transparent.png,100,12,0,12,0,1,,,,,,,,,,
,,,,65e257541a1445e571e8525f,B,2024-06-21_16h04.45.714,Slot Machine Game,2023.1.3,Win32,59.88023952,,,,,,,,,,,,,,,,,,,,,,,,,,,920,,,,,,,,,,,,,,,,,,,,,2,2,,,417.4207,13,right,0.1856,,0.5,0.3,"[3,2,1]",0.765548249,stimuli/card_100_transparent.png,100,13,0,13,0,1,,,,,,,,,,
,,,,65e257541a1445e571e8525f,B,2024-06-21_16h04.45.714,Slot Machine Game,2023.1.3,Win32,59.88023952,,,,,,,,,,,,,,,,,,,,,,,,,,,1020,,,,,,,,,,,,,,,,,,,,,2,2,,,418.937,14,right,0.0508,,1,0.3,"[3,2,1]",0.527446525,stimuli/card_100_transparent.png,100,14,0,14,0,1,,,,,,,,,,
,,,,65e257541a1445e571e8525f,B,2024-06-21_16h04.45.714,Slot Machine Game,2023.1.3,Win32,59.88023952,,,,,,,,,,,,,,,,,,,,,,,,,,,,,,,,,,,420.8186,,,,,,,,,,,,,,,,,,,,,,,,,,,,,,,,,"[1020,1020]",1,0,1,0,1,,,,
,,,,65e257541a1445e571e8525f,B,2024-06-21_16h04.45.714,Slot Machine Game,2023.1.3,Win32,59.88023952,,,,,,,,,,,,,,,,,,,,,,,,,,,0,,,,,,,,,,,,,,,,,,,,,3,3,"[15,15]","[[3,1,2],[3,1,2]]",425.8443,0,left,0.3505,,0.5,0.3,"[3,1,2]",0.540042546,stimuli/card_0_transparent.png,0,0,0,0,0,1,,,,,,,,,,
,,,,65e257541a1445e571e8525f,B,2024-06-21_16h04.45.714,Slot Machine Game,2023.1.3,Win32,59.88023952,,,,,,,,,,,,,,,,,,,,,,,,,,,100,,,,,,,,,,,,,,,,,,,,,3,3,,,427.5143,1,up,0.403,,0.5,0.3,"[3,1,2]",0.432850239,stimuli/card_100_transparent.png,100,1,0,1,0,1,,,,,,,,,,
,,,,65e257541a1445e571e8525f,B,2024-06-21_16h04.45.714,Slot Machine Game,2023.1.3,Win32,59.88023952,,,,,,,,,,,,,,,,,,,,,,,,,,,100,,,,,,,,,,,,,,,,,,,,,3,3,,,429.2465,2,up,0.0845,,1,0.3,"[3,1,2]",0.03243291,stimuli/card_0_transparent.png,0,2,0,2,0,1,,,,,,,,,,
,,,,65e257541a1445e571e8525f,B,2024-06-21_16h04.45.714,Slot Machine Game,2023.1.3,Win32,59.88023952,,,,,,,,,,,,,,,,,,,,,,,,,,,200,,,,,,,,,,,,,,,,,,,,,3,3,,,431.1618,3,up,0.1518,,1.5,0.3,"[3,1,2]",0.481169962,stimuli/card_100_transparent.png,100,3,0,3,0,1,,,,,,,,,,
,,,,65e257541a1445e571e8525f,B,2024-06-21_16h04.45.714,Slot Machine Game,2023.1.3,Win32,59.88023952,,,,,,,,,,,,,,,,,,,,,,,,,,,300,,,,,,,,,,,,,,,,,,,,,3,3,,,433.6434,4,up,0.1878,,0.5,0.3,"[3,1,2]",0.426289561,stimuli/card_100_transparent.png,100,4,0,4,0,1,,,,,,,,,,
,,,,65e257541a1445e571e8525f,B,2024-06-21_16h04.45.714,Slot Machine Game,2023.1.3,Win32,59.88023952,,,,,,,,,,,,,,,,,,,,,,,,,,,400,,,,,,,,,,,,,,,,,,,,,3,3,,,435.1593,5,up,0.1345,,0.5,0.3,"[3,1,2]",0.732997883,stimuli/card_100_transparent.png,100,5,0,5,0,1,,,,,,,,,,
,,,,65e257541a1445e571e8525f,B,2024-06-21_16h04.45.714,Slot Machine Game,2023.1.3,Win32,59.88023952,,,,,,,,,,,,,,,,,,,,,,,,,,,500,,,,,,,,,,,,,,,,,,,,,3,3,,,436.6246,6,up,0.1506,,0.5,0.3,"[3,1,2]",0.908160332,stimuli/card_100_transparent.png,100,6,0,6,0,1,,,,,,,,,,
,,,,65e257541a1445e571e8525f,B,2024-06-21_16h04.45.714,Slot Machine Game,2023.1.3,Win32,59.88023952,,,,,,,,,,,,,,,,,,,,,,,,,,,600,,,,,,,,,,,,,,,,,,,,,3,3,,,438.1073,7,up,0.0748,,1.5,0.3,"[3,1,2]",0.346781547,stimuli/card_100_transparent.png,100,7,0,7,0,1,,,,,,,,,,
,,,,65e257541a1445e571e8525f,B,2024-06-21_16h04.45.714,Slot Machine Game,2023.1.3,Win32,59.88023952,,,,,,,,,,,,,,,,,,,,,,,,,,,700,,,,,,,,,,,,,,,,,,,,,3,3,,,440.5048,8,up,0.1447,,0.5,0.3,"[3,1,2]",0.409593839,stimuli/card_100_transparent.png,100,8,0,8,0,1,,,,,,,,,,
,,,,65e257541a1445e571e8525f,B,2024-06-21_16h04.45.714,Slot Machine Game,2023.1.3,Win32,59.88023952,,,,,,,,,,,,,,,,,,,,,,,,,,,800,,,,,,,,,,,,,,,,,,,,,3,3,,,441.9709,9,up,0.1507,,0.5,0.3,"[3,1,2]",0.967299442,stimuli/card_100_transparent.png,100,9,0,9,0,1,,,,,,,,,,
,,,,65e257541a1445e571e8525f,B,2024-06-21_16h04.45.714,Slot Machine Game,2023.1.3,Win32,59.88023952,,,,,,,,,,,,,,,,,,,,,,,,,,,900,,,,,,,,,,,,,,,,,,,,,3,3,,,443.4536,10,up,0.0835,,0.5,0.3,"[3,1,2]",0.911355652,stimuli/card_100_transparent.png,100,10,0,10,0,1,,,,,,,,,,
,,,,65e257541a1445e571e8525f,B,2024-06-21_16h04.45.714,Slot Machine Game,2023.1.3,Win32,59.88023952,,,,,,,,,,,,,,,,,,,,,,,,,,,1000,,,,,,,,,,,,,,,,,,,,,3,3,,,444.8695,11,up,0.0008,,1.5,0.3,"[3,1,2]",0.761889081,stimuli/card_100_transparent.png,100,11,0,11,0,1,,,,,,,,,,
,,,,65e257541a1445e571e8525f,B,2024-06-21_16h04.45.714,Slot Machine Game,2023.1.3,Win32,59.88023952,,,,,,,,,,,,,,,,,,,,,,,,,,,1100,,,,,,,,,,,,,,,,,,,,,3,3,,,447.2005,12,up,0.0561,,1,0.3,"[3,1,2]",0.727973223,stimuli/card_100_transparent.png,100,12,0,12,0,1,,,,,,,,,,
,,,,65e257541a1445e571e8525f,B,2024-06-21_16h04.45.714,Slot Machine Game,2023.1.3,Win32,59.88023952,,,,,,,,,,,,,,,,,,,,,,,,,,,1110,,,,,,,,,,,,,,,,,,,,,3,3,,,449.0832,13,up,0.1881,,1,0.3,"[3,1,2]",0.149581881,stimuli/card_10_transparent.png,10,13,0,13,0,1,,,,,,,,,,
,,,,65e257541a1445e571e8525f,B,2024-06-21_16h04.45.714,Slot Machine Game,2023.1.3,Win32,59.88023952,,,,,,,,,,,,,,,,,,,,,,,,,,,1210,,,,,,,,,,,,,,,,,,,,,3,3,,,451.0986,14,up,0.0062,,1.5,0.3,"[3,1,2]",0.348468725,stimuli/card_100_transparent.png,100,14,0,14,0,1,,,,,,,,,,
,,,,65e257541a1445e571e8525f,B,2024-06-21_16h04.45.714,Slot Machine Game,2023.1.3,Win32,59.88023952,,,,,,,,,,,,,,,,,,,,,,,,,,,,,,,,,,,453.4304,,,,,,,,,,,,,,,,,,,,,,,,,,,,,,,,,"[1020,1020,1210]",2,0,2,0,1,,,,
,,,,65e257541a1445e571e8525f,B,2024-06-21_16h04.45.714,Slot Machine Game,2023.1.3,Win32,59.88023952,,,,,,,,,,,,,,,,,,,,,,,,,,,10,,,,,,,,,,,,,,,,,,,,,4,4,"[7,15]","[[2,3,1],[1,2,3]]",458.4569,0,left,0.2177,,0.5,0.3,"[2,3,1]",0.267055413,stimuli/card_10_transparent.png,10,0,0,0,0,1,,,,,,,,,,
,,,,65e257541a1445e571e8525f,B,2024-06-21_16h04.45.714,Slot Machine Game,2023.1.3,Win32,59.88023952,,,,,,,,,,,,,,,,,,,,,,,,,,,110,,,,,,,,,,,,,,,,,,,,,4,4,,,459.9922,1,up,0.0537,,1.5,0.3,"[2,3,1]",0.0877571,stimuli/card_100_transparent.png,100,1,0,1,0,1,,,,,,,,,,
,,,,65e257541a1445e571e8525f,B,2024-06-21_16h04.45.714,Slot Machine Game,2023.1.3,Win32,59.88023952,,,,,,,,,,,,,,,,,,,,,,,,,,,110,,,,,,,,,,,,,,,,,,,,,4,4,,,462.3909,2,up,0.1406,,1.5,0.3,"[2,3,1]",0.489831759,stimuli/card_0_transparent.png,0,2,0,2,0,1,,,,,,,,,,
,,,,65e257541a1445e571e8525f,B,2024-06-21_16h04.45.714,Slot Machine Game,2023.1.3,Win32,59.88023952,,,,,,,,,,,,,,,,,,,,,,,,,,,110,,,,,,,,,,,,,,,,,,,,,4,4,,,464.8619,3,up,0.2006,,1,0.3,"[2,3,1]",0.531783065,stimuli/card_0_transparent.png,0,3,0,3,0,1,,,,,,,,,,
,,,,65e257541a1445e571e8525f,B,2024-06-21_16h04.45.714,Slot Machine Game,2023.1.3,Win32,59.88023952,,,,,,,,,,,,,,,,,,,,,,,,,,,120,,,,,,,,,,,,,,,,,,,,,4,4,,,466.8881,4,right,0.1046,,1.5,0.3,"[2,3,1]",0.147865707,stimuli/card_10_transparent.png,10,4,0,4,0,1,,,,,,,,,,
,,,,65e257541a1445e571e8525f,B,2024-06-21_16h04.45.714,Slot Machine Game,2023.1.3,Win32,59.88023952,,,,,,,,,,,,,,,,,,,,,,,,,,,130,,,,,,,,,,,,,,,,,,,,,4,4,,,469.3198,5,left,0.1685,,0.5,0.3,"[2,3,1]",0.412527243,stimuli/card_10_transparent.png,10,5,0,5,0,1,,,,,,,,,,
,,,,65e257541a1445e571e8525f,B,2024-06-21_16h04.45.714,Slot Machine Game,2023.1.3,Win32,59.88023952,,,,,,,,,,,,,,,,,,,,,,,,,,,140,,,,,,,,,,,,,,,,,,,,,4,4,,,470.819,6,left,0.1706,,0.5,0.3,"[2,3,1]",0.882722202,stimuli/card_10_transparent.png,10,6,0,6,0,1,,,,,,,,,,
,,,,65e257541a1445e571e8525f,B,2024-06-21_16h04.45.714,Slot Machine Game,2023.1.3,Win32,59.88023952,,,,,,,,,,,,,,,,,,,,,,,,,,,140,,,,,,,,,,,,,,,,,,,,,4,4,,,472.3169,7,right,0.0755,,1.5,0.3,"[1,2,3]",0.336955955,stimuli/card_0_transparent.png,0,7,0,7,0,1,,,,,,,,,,
,,,,65e257541a1445e571e8525f,B,2024-06-21_16h04.45.714,Slot Machine Game,2023.1.3,Win32,59.88023952,,,,,,,,,,,,,,,,,,,,,,,,,,,240,,,,,,,,,,,,,,,,,,,,,4,4,,,474.7158,8,right,0.2208,,0.5,0.3,"[1,2,3]",0.066181454,stimuli/card_100_transparent.png,100,8,0,8,0,1,,,,,,,,,,
,,,,65e257541a1445e571e8525f,B,2024-06-21_16h04.45.714,Slot Machine Game,2023.1.3,Win32,59.88023952,,,,,,,,,,,,,,,,,,,,,,,,,,,240,,,,,,,,,,,,,,,,,,,,,4,4,,,476.2653,9,right,0.1727,,1.5,0.3,"[1,2,3]",0.912405021,stimuli/card_0_transparent.png,0,9,0,9,0,1,,,,,,,,,,
,,,,65e257541a1445e571e8525f,B,2024-06-21_16h04.45.714,Slot Machine Game,2023.1.3,Win32,59.88023952,,,,,,,,,,,,,,,,,,,,,,,,,,,240,,,,,,,,,,,,,,,,,,,,,4,4,,,478.7803,10,right,0.2007,,0.5,0.3,"[1,2,3]",0.64741278,stimuli/card_0_transparent.png,0,10,0,10,0,1,,,,,,,,,,
,,,,65e257541a1445e571e8525f,B,2024-06-21_16h04.45.714,Slot Machine Game,2023.1.3,Win32,59.88023952,,,,,,,,,,,,,,,,,,,,,,,,,,,250,,,,,,,,,,,,,,,,,,,,,4,4,,,480.3126,11,up,0.1361,,0.5,0.3,"[1,2,3]",0.294223308,stimuli/card_10_transparent.png,10,11,0,11,0,1,,,,,,,,,,
,,,,65e257541a1445e571e8525f,B,2024-06-21_16h04.45.714,Slot Machine Game,2023.1.3,Win32,59.88023952,,,,,,,,,,,,,,,,,,,,,,,,,,,260,,,,,,,,,,,,,,,,,,,,,4,4,,,481.7779,12,up,0.041,,0.5,0.3,"[1,2,3]",0.234321045,stimuli/card_10_transparent.png,10,12,0,12,0,1,,,,,,,,,,
,,,,65e257541a1445e571e8525f,B,2024-06-21_16h04.45.714,Slot Machine Game,2023.1.3,Win32,59.88023952,,,,,,,,,,,,,,,,,,,,,,,,,,,270,,,,,,,,,,,,,,,,,,,,,4,4,,,483.1332,13,left,0.1674,,1,0.3,"[1,2,3]",0.140569493,stimuli/card_10_transparent.png,10,13,0,13,0,1,,,,,,,,,,
,,,,65e257541a1445e571e8525f,B,2024-06-21_16h04.45.714,Slot Machine Game,2023.1.3,Win32,59.88023952,,,,,,,,,,,,,,,,,,,,,,,,,,,270,,,,,,,,,,,,,,,,,,,,,4,4,,,485.1257,14,left,0.0844,,1,0.3,"[1,2,3]",0.068098613,stimuli/card_0_transparent.png,0,14,0,14,0,1,,,,,,,,,,
,,,,65e257541a1445e571e8525f,B,2024-06-21_16h04.45.714,Slot Machine Game,2023.1.3,Win32,59.88023952,,,,,,,,,,,,,,,,,,,,,,,,,,,,,,,,,,,487.0414,,,,,,,,,,,,,,,,,,,,,,,,,,,,,,,,,"[1020,1020,1210,270]",3,0,3,0,1,,,,
,,,,65e257541a1445e571e8525f,B,2024-06-21_16h04.45.714,Slot Machine Game,2023.1.3,Win32,59.88023952,,,,,,,,,,,,,,,,,,,,,,,,,,,100,,,,,,,,,,,,,,,,,,,,,5,5,"[5,15]","[[1,2,3],[3,1,2]]",492.072,0,left,0.0668,,1,0.3,"[1,2,3]",0.575264326,stimuli/card_100_transparent.png,100,0,0,0,0,1,,,,,,,,,,
,,,,65e257541a1445e571e8525f,B,2024-06-21_16h04.45.714,Slot Machine Game,2023.1.3,Win32,59.88023952,,,,,,,,,,,,,,,,,,,,,,,,,,,100,,,,,,,,,,,,,,,,,,,,,5,5,,,493.9703,1,left,1.4502,,0.5,0.3,"[1,2,3]",0.003657413,stimuli/card_0_transparent.png,0,1,0,1,0,1,,,,,,,,,,
,,,,65e257541a1445e571e8525f,B,2024-06-21_16h04.45.714,Slot Machine Game,2023.1.3,Win32,59.88023952,,,,,,,,,,,,,,,,,,,,,,,,,,,200,,,,,,,,,,,,,,,,,,,,,5,5,,,496.7519,2,left,0.2172,,0.5,0.3,"[1,2,3]",0.400493758,stimuli/card_100_transparent.png,100,2,0,2,0,1,,,,,,,,,,
,,,,65e257541a1445e571e8525f,B,2024-06-21_16h04.45.714,Slot Machine Game,2023.1.3,Win32,59.88023952,,,,,,,,,,,,,,,,,,,,,,,,,,,300,,,,,,,,,,,,,,,,,,,,,5,5,,,498.3007,3,left,0.0859,,0.5,0.3,"[1,2,3]",0.779902326,stimuli/card_100_transparent.png,100,3,0,3,0,1,,,,,,,,,,
,,,,65e257541a1445e571e8525f,B,2024-06-21_16h04.45.714,Slot Machine Game,2023.1.3,Win32,59.88023952,,,,,,,,,,,,,,,,,,,,,,,,,,,400,,,,,,,,,,,,,,,,,,,,,5,5,,,499.7166,4,left,0.2596,,1,0.3,"[1,2,3]",0.87678846,stimuli/card_100_transparent.png,100,4,0,4,0,1,,,,,,,,,,
,,,,65e257541a1445e571e8525f,B,2024-06-21_16h04.45.714,Slot Machine Game,2023.1.3,Win32,59.88023952,,,,,,,,,,,,,,,,,,,,,,,,,,,400,,,,,,,,,,,,,,,,,,,,,5,5,,,501.7979,5,left,0.1504,,0.5,0.3,"[3,1,2]",0.510408626,stimuli/card_0_transparent.png,0,5,0,5,0,1,,,,,,,,,,
,,,,65e257541a1445e571e8525f,B,2024-06-21_16h04.45.714,Slot Machine Game,2023.1.3,Win32,59.88023952,,,,,,,,,,,,,,,,,,,,,,,,,,,400,,,,,,,,,,,,,,,,,,,,,5,5,,,503.2809,6,left,0.1395,,1.5,0.3,"[3,1,2]",0.986523928,stimuli/card_0_transparent.png,0,6,0,6,0,1,,,,,,,,,,
,,,,65e257541a1445e571e8525f,B,2024-06-21_16h04.45.714,Slot Machine Game,2023.1.3,Win32,59.88023952,,,,,,,,,,,,,,,,,,,,,,,,,,,500,,,,,,,,,,,,,,,,,,,,,5,5,,,505.7459,7,up,0.0678,,1,0.3,"[3,1,2]",0.823989684,stimuli/card_100_transparent.png,100,7,0,7,0,1,,,,,,,,,,
,,,,65e257541a1445e571e8525f,B,2024-06-21_16h04.45.714,Slot Machine Game,2023.1.3,Win32,59.88023952,,,,,,,,,,,,,,,,,,,,,,,,,,,600,,,,,,,,,,,,,,,,,,,,,5,5,,,507.6445,8,up,0.0672,,1.5,0.3,"[3,1,2]",0.710031455,stimuli/card_100_transparent.png,100,8,0,8,0,1,,,,,,,,,,
,,,,65e257541a1445e571e8525f,B,2024-06-21_16h04.45.714,Slot Machine Game,2023.1.3,Win32,59.88023952,,,,,,,,,,,,,,,,,,,,,,,,,,,610,,,,,,,,,,,,,,,,,,,,,5,5,,,510.0431,9,up,0.103,,1,0.3,"[3,1,2]",0.179925805,stimuli/card_10_transparent.png,10,9,0,9,0,1,,,,,,,,,,
,,,,65e257541a1445e571e8525f,B,2024-06-21_16h04.45.714,Slot Machine Game,2023.1.3,Win32,59.88023952,,,,,,,,,,,,,,,,,,,,,,,,,,,710,,,,,,,,,,,,,,,,,,,,,5,5,,,511.9749,10,up,0.0008,,1.5,0.3,"[3,1,2]",0.291465964,stimuli/card_100_transparent.png,100,10,0,10,0,1,,,,,,,,,,
,,,,65e257541a1445e571e8525f,B,2024-06-21_16h04.45.714,Slot Machine Game,2023.1.3,Win32,59.88023952,,,,,,,,,,,,,,,,,,,,,,,,,,,810,,,,,,,,,,,,,,,,,,,,,5,5,,,514.3071,11,up,0.0702,,0.5,0.3,"[3,1,2]",0.20697455,stimuli/card_100_transparent.png,100,11,0,11,0,1,,,,,,,,,,
,,,,65e257541a1445e571e8525f,B,2024-06-21_16h04.45.714,Slot Machine Game,2023.1.3,Win32,59.88023952,,,,,,,,,,,,,,,,,,,,,,,,,,,910,,,,,,,,,,,,,,,,,,,,,5,5,,,515.7059,12,up,0.0009,,0.5,0.3,"[3,1,2]",0.21742501,stimuli/card_100_transparent.png,100,12,0,12,0,1,,,,,,,,,,
,,,,65e257541a1445e571e8525f,B,2024-06-21_16h04.45.714,Slot Machine Game,2023.1.3,Win32,59.88023952,,,,,,,,,,,,,,,,,,,,,,,,,,,1010,,,,,,,,,,,,,,,,,,,,,5,5,,,517.0387,13,up,0.2353,,1.5,0.3,"[3,1,2]",0.235196794,stimuli/card_100_transparent.png,100,13,0,13,0,1,,,,,,,,,,
,,,,65e257541a1445e571e8525f,B,2024-06-21_16h04.45.714,Slot Machine Game,2023.1.3,Win32,59.88023952,,,,,,,,,,,,,,,,,,,,,,,,,,,1110,,,,,,,,,,,,,,,,,,,,,5,5,,,519.6034,14,up,0.1036,,1.5,0.3,"[3,1,2]",0.94180334,stimuli/card_100_transparent.png,100,14,0,14,0,1,,,,,,,,,,
,,,,65e257541a1445e571e8525f,B,2024-06-21_16h04.45.714,Slot Machine Game,2023.1.3,Win32,59.88023952,,,,,,,,,,,,,,,,,,,,,,,,,,,,,,,,,,,522.0351,,,,,,,,,,,,,,,,,,,,,,,,,,,,,,,,,"[1020,1020,1210,270,1110]",4,0,4,0,1,,,,
,,,,65e257541a1445e571e8525f,B,2024-06-21_16h04.45.714,Slot Machine Game,2023.1.3,Win32,59.88023952,,,,,,,,,,,,,,,,,,,,,,,,,,,10,,,,,,,,,,,,,,,,,,,,,6,6,"[4,10,15]","[[2,3,1],[1,3,2],[3,2,1]]",527.0617,0,left,0.1172,,1,0.3,"[2,3,1]",0.957332894,stimuli/card_10_transparent.png,10,0,0,0,0,1,,,,,,,,,,
,,,,65e257541a1445e571e8525f,B,2024-06-21_16h04.45.714,Slot Machine Game,2023.1.3,Win32,59.88023952,,,,,,,,,,,,,,,,,,,,,,,,,,,10,,,,,,,,,,,,,,,,,,,,,6,6,,,528.9971,1,up,0.0674,,0.5,0.3,"[2,3,1]",0.829015512,stimuli/card_0_transparent.png,0,1,0,1,0,1,,,,,,,,,,
,,,,65e257541a1445e571e8525f,B,2024-06-21_16h04.45.714,Slot Machine Game,2023.1.3,Win32,59.88023952,,,,,,,,,,,,,,,,,,,,,,,,,,,110,,,,,,,,,,,,,,,,,,,,,6,6,,,530.3961,2,right,0.1357,,1.5,0.3,"[2,3,1]",0.551031898,stimuli/card_100_transparent.png,100,2,0,2,0,1,,,,,,,,,,
,,,,65e257541a1445e571e8525f,B,2024-06-21_16h04.45.714,Slot Machine Game,2023.1.3,Win32,59.88023952,,,,,,,,,,,,,,,,,,,,,,,,,,,210,,,,,,,,,,,,,,,,,,,,,6,6,,,532.861,3,right,0.0676,,0.5,0.3,"[2,3,1]",0.316932559,stimuli/card_100_transparent.png,100,3,0,3,0,1,,,,,,,,,,
,,,,65e257541a1445e571e8525f,B,2024-06-21_16h04.45.714,Slot Machine Game,2023.1.3,Win32,59.88023952,,,,,,,,,,,,,,,,,,,,,,,,,,,220,,,,,,,,,,,,,,,,,,,,,6,6,,,534.2597,4,right,0.1546,,1,0.3,"[1,3,2]",0.442959156,stimuli/card_10_transparent.png,10,4,0,4,0,1,,,,,,,,,,
,,,,65e257541a1445e571e8525f,B,2024-06-21_16h04.45.714,Slot Machine Game,2023.1.3,Win32,59.88023952,,,,,,,,,,,,,,,,,,,,,,,,,,,230,,,,,,,,,,,,,,,,,,,,,6,6,,,536.2417,5,right,0.0173,,1,0.3,"[1,3,2]",0.43209618,stimuli/card_10_transparent.png,10,5,0,5,0,1,,,,,,,,,,
,,,,65e257541a1445e571e8525f,B,2024-06-21_16h04.45.714,Slot Machine Game,2023.1.3,Win32,59.88023952,,,,,,,,,,,,,,,,,,,,,,,,,,,240,,,,,,,,,,,,,,,,,,,,,6,6,,,538.0908,6,right,0.1853,,0.5,0.3,"[1,3,2]",0.491291408,stimuli/card_10_transparent.png,10,6,0,6,0,1,,,,,,,,,,
,,,,65e257541a1445e571e8525f,B,2024-06-21_16h04.45.714,Slot Machine Game,2023.1.3,Win32,59.88023952,,,,,,,,,,,,,,,,,,,,,,,,,,,340,,,,,,,,,,,,,,,,,,,,,6,6,,,539.6065,7,left,0.2343,,1.5,0.3,"[1,3,2]",0.296362618,stimuli/card_100_transparent.png,100,7,0,7,0,1,,,,,,,,,,
,,,,65e257541a1445e571e8525f,B,2024-06-21_16h04.45.714,Slot Machine Game,2023.1.3,Win32,59.88023952,,,,,,,,,,,,,,,,,,,,,,,,,,,350,,,,,,,,,,,,,,,,,,,,,6,6,,,542.1706,8,left,0.0011,,1.5,0.3,"[1,3,2]",0.104176707,stimuli/card_10_transparent.png,10,8,0,8,0,1,,,,,,,,,,
,,,,65e257541a1445e571e8525f,B,2024-06-21_16h04.45.714,Slot Machine Game,2023.1.3,Win32,59.88023952,,,,,,,,,,,,,,,,,,,,,,,,,,,450,,,,,,,,,,,,,,,,,,,,,6,6,,,544.5028,9,left,0.1239,,1.5,0.3,"[1,3,2]",0.670175437,stimuli/card_100_transparent.png,100,9,0,9,0,1,,,,,,,,,,
,,,,65e257541a1445e571e8525f,B,2024-06-21_16h04.45.714,Slot Machine Game,2023.1.3,Win32,59.88023952,,,,,,,,,,,,,,,,,,,,,,,,,,,450,,,,,,,,,,,,,,,,,,,,,6,6,,,546.9516,10,left,0.0505,,1.5,0.3,"[3,2,1]",0.217840604,stimuli/card_0_transparent.png,0,10,0,10,0,1,,,,,,,,,,
,,,,65e257541a1445e571e8525f,B,2024-06-21_16h04.45.714,Slot Machine Game,2023.1.3,Win32,59.88023952,,,,,,,,,,,,,,,,,,,,,,,,,,,450,,,,,,,,,,,,,,,,,,,,,6,6,,,549.3335,11,left,0.2406,,0.5,0.3,"[3,2,1]",0.544442957,stimuli/card_0_transparent.png,0,11,0,11,0,1,,,,,,,,,,
,,,,65e257541a1445e571e8525f,B,2024-06-21_16h04.45.714,Slot Machine Game,2023.1.3,Win32,59.88023952,,,,,,,,,,,,,,,,,,,,,,,,,,,460,,,,,,,,,,,,,,,,,,,,,6,6,,,550.8985,12,up,0.0537,,1,0.3,"[3,2,1]",0.312170542,stimuli/card_10_transparent.png,10,12,0,12,0,1,,,,,,,,,,
,,,,65e257541a1445e571e8525f,B,2024-06-21_16h04.45.714,Slot Machine Game,2023.1.3,Win32,59.88023952,,,,,,,,,,,,,,,,,,,,,,,,,,,460,,,,,,,,,,,,,,,,,,,,,6,6,,,552.7812,13,up,0.0225,,1,0.3,"[3,2,1]",0.07360373,stimuli/card_0_transparent.png,0,13,0,13,0,1,,,,,,,,,,
,,,,65e257541a1445e571e8525f,B,2024-06-21_16h04.45.714,Slot Machine Game,2023.1.3,Win32,59.88023952,,,,,,,,,,,,,,,,,,,,,,,,,,,560,,,,,,,,,,,,,,,,,,,,,6,6,,,554.6301,14,right,0.0406,,1.5,0.3,"[3,2,1]",0.91475418,stimuli/card_100_transparent.png,100,14,0,14,0,1,,,,,,,,,,
,,,,65e257541a1445e571e8525f,B,2024-06-21_16h04.45.714,Slot Machine Game,2023.1.3,Win32,59.88023952,,,,,,,,,,,,,,,,,,,,,,,,,,,,,,,,,,,556.9951,,,,,,,,,,,,,,,,,,,,,,,,,,,,,,,,,"[1020,1020,1210,270,1110,560]",5,0,5,0,1,,,,
,,,,65e257541a1445e571e8525f,B,2024-06-21_16h04.45.714,Slot Machine Game,2023.1.3,Win32,59.88023952,,,,,,,,,,,,,,,,,,,,,,,,,,,100,,,,,,,,,,,,,,,,,,,,,7,7,"[9,15]","[[1,3,2],[2,3,1]]",562.0226,0,left,0.0483,,1.5,0.3,"[1,3,2]",0.773110342,stimuli/card_100_transparent.png,100,0,0,0,0,1,,,,,,,,,,
,,,,65e257541a1445e571e8525f,B,2024-06-21_16h04.45.714,Slot Machine Game,2023.1.3,Win32,59.88023952,,,,,,,,,,,,,,,,,,,,,,,,,,,110,,,,,,,,,,,,,,,,,,,,,7,7,,,564.39,1,left,0.2672,,0.5,0.3,"[1,3,2]",0.157889477,stimuli/card_10_transparent.png,10,1,0,1,0,1,,,,,,,,,,
,,,,65e257541a1445e571e8525f,B,2024-06-21_16h04.45.714,Slot Machine Game,2023.1.3,Win32,59.88023952,,,,,,,,,,,,,,,,,,,,,,,,,,,210,,,,,,,,,,,,,,,,,,,,,7,7,,,565.989,2,left,0.1193,,1,0.3,"[1,3,2]",0.927271286,stimuli/card_100_transparent.png,100,2,0,2,0,1,,,,,,,,,,
,,,,65e257541a1445e571e8525f,B,2024-06-21_16h04.45.714,Slot Machine Game,2023.1.3,Win32,59.88023952,,,,,,,,,,,,,,,,,,,,,,,,,,,310,,,,,,,,,,,,,,,,,,,,,7,7,,,567.9373,3,left,1.0198,,1,0.3,"[1,3,2]",0.743695254,stimuli/card_100_transparent.png,100,3,0,3,0,1,,,,,,,,,,
,,,,65e257541a1445e571e8525f,B,2024-06-21_16h04.45.714,Slot Machine Game,2023.1.3,Win32,59.88023952,,,,,,,,,,,,,,,,,,,,,,,,,,,410,,,,,,,,,,,,,,,,,,,,,7,7,,,570.7854,4,left,0.1504,,1,0.3,"[1,3,2]",0.974271511,stimuli/card_100_transparent.png,100,4,0,4,0,1,,,,,,,,,,
,,,,65e257541a1445e571e8525f,B,2024-06-21_16h04.45.714,Slot Machine Game,2023.1.3,Win32,59.88023952,,,,,,,,,,,,,,,,,,,,,,,,,,,510,,,,,,,,,,,,,,,,,,,,,7,7,,,572.768,5,left,0.201,,0.5,0.3,"[1,3,2]",0.821577599,stimuli/card_100_transparent.png,100,5,0,5,0,1,,,,,,,,,,
,,,,65e257541a1445e571e8525f,B,2024-06-21_16h04.45.714,Slot Machine Game,2023.1.3,Win32,59.88023952,,,,,,,,,,,,,,,,,,,,,,,,,,,610,,,,,,,,,,,,,,,,,,,,,7,7,,,574.2997,6,left,0.1925,,0.5,0.3,"[1,3,2]",0.618820344,stimuli/card_100_transparent.png,100,6,0,6,0,1,,,,,,,,,,
,,,,65e257541a1445e571e8525f,B,2024-06-21_16h04.45.714,Slot Machine Game,2023.1.3,Win32,59.88023952,,,,,,,,,,,,,,,,,,,,,,,,,,,710,,,,,,,,,,,,,,,,,,,,,7,7,,,575.8157,7,left,0.1174,,1.5,0.3,"[1,3,2]",0.443790263,stimuli/card_100_transparent.png,100,7,0,7,0,1,,,,,,,,,,
,,,,65e257541a1445e571e8525f,B,2024-06-21_16h04.45.714,Slot Machine Game,2023.1.3,Win32,59.88023952,,,,,,,,,,,,,,,,,,,,,,,,,,,720,,,,,,,,,,,,,,,,,,,,,7,7,,,578.2642,8,left,0.0009,,1,0.3,"[1,3,2]",0.170510628,stimuli/card_10_transparent.png,10,8,0,8,0,1,,,,,,,,,,
,,,,65e257541a1445e571e8525f,B,2024-06-21_16h04.45.714,Slot Machine Game,2023.1.3,Win32,59.88023952,,,,,,,,,,,,,,,,,,,,,,,,,,,730,,,,,,,,,,,,,,,,,,,,,7,7,,,580.0963,9,left,0.9165,,1,0.3,"[2,3,1]",0.908983073,stimuli/card_10_transparent.png,10,9,0,9,0,1,,,,,,,,,,
,,,,65e257541a1445e571e8525f,B,2024-06-21_16h04.45.714,Slot Machine Game,2023.1.3,Win32,59.88023952,,,,,,,,,,,,,,,,,,,,,,,,,,,730,,,,,,,,,,,,,,,,,,,,,7,7,,,582.8441,10,up,0.1883,,0.5,0.3,"[2,3,1]",0.336307852,stimuli/card_0_transparent.png,0,10,0,10,0,1,,,,,,,,,,
,,,,65e257541a1445e571e8525f,B,2024-06-21_16h04.45.714,Slot Machine Game,2023.1.3,Win32,59.88023952,,,,,,,,,,,,,,,,,,,,,,,,,,,830,,,,,,,,,,,,,,,,,,,,,7,7,,,584.3598,11,right,0.0405,,1,0.3,"[2,3,1]",0.434612786,stimuli/card_100_transparent.png,100,11,0,11,0,1,,,,,,,,,,
,,,,65e257541a1445e571e8525f,B,2024-06-21_16h04.45.714,Slot Machine Game,2023.1.3,Win32,59.88023952,,,,,,,,,,,,,,,,,,,,,,,,,,,840,,,,,,,,,,,,,,,,,,,,,7,7,,,586.2253,12,right,0.167,,1.5,0.3,"[2,3,1]",0.179859341,stimuli/card_10_transparent.png,10,12,0,12,0,1,,,,,,,,,,
,,,,65e257541a1445e571e8525f,B,2024-06-21_16h04.45.714,Slot Machine Game,2023.1.3,Win32,59.88023952,,,,,,,,,,,,,,,,,,,,,,,,,,,940,,,,,,,,,,,,,,,,,,,,,7,7,,,588.7238,13,right,0.2187,,1,0.3,"[2,3,1]",0.445780136,stimuli/card_100_transparent.png,100,13,0,13,0,1,,,,,,,,,,
,,,,65e257541a1445e571e8525f,B,2024-06-21_16h04.45.714,Slot Machine Game,2023.1.3,Win32,59.88023952,,,,,,,,,,,,,,,,,,,,,,,,,,,940,,,,,,,,,,,,,,,,,,,,,7,7,,,590.7724,14,right,0.0318,,1.5,0.3,"[2,3,1]",0.048965276,stimuli/card_0_transparent.png,0,14,0,14,0,1,,,,,,,,,,
,,,,65e257541a1445e571e8525f,B,2024-06-21_16h04.45.714,Slot Machine Game,2023.1.3,Win32,59.88023952,,,,,,,,,,,,,,,,,,,,,,,,,,,,,,,,,,,593.1374,,,,,,,,,,,,,,,,,,,,,,,,,,,,,,,,,"[1020,1020,1210,270,1110,560,940]",6,0,6,0,1,,,,
,,,,65e257541a1445e571e8525f,B,2024-06-21_16h04.45.714,Slot Machine Game,2023.1.3,Win32,59.88023952,,,,,,,,,,,,,,,,,,,,,,,,,,,0,,,,,,,,,,,,,,,,,,,,,8,8,"[11,15]","[[2,1,3],[1,2,3]]",598.1633,0,left,0.0226,,0.5,0.3,"[2,1,3]",0.045164491,stimuli/card_0_transparent.png,0,0,0,0,0,1,,,,,,,,,,
,,,,65e257541a1445e571e8525f,B,2024-06-21_16h04.45.714,Slot Machine Game,2023.1.3,Win32,59.88023952,,,,,,,,,,,,,,,,,,,,,,,,,,,100,,,,,,,,,,,,,,,,,,,,,8,8,,,599.5,1,up,0.1193,,1,0.3,"[2,1,3]",0.904865453,stimuli/card_100_transparent.png,100,1,0,1,0,1,,,,,,,,,,
,,,,65e257541a1445e571e8525f,B,2024-06-21_16h04.45.714,Slot Machine Game,2023.1.3,Win32,59.88023952,,,,,,,,,,,,,,,,,,,,,,,,,,,200,,,,,,,,,,,,,,,,,,,,,8,8,,,601.4489,2,up,0.0336,,0.5,0.3,"[2,1,3]",0.926275522,stimuli/card_100_transparent.png,100,2,0,2,0,1,,,,,,,,,,
,,,,65e257541a1445e571e8525f,B,2024-06-21_16h04.45.714,Slot Machine Game,2023.1.3,Win32,59.88023952,,,,,,,,,,,,,,,,,,,,,,,,,,,300,,,,,,,,,,,,,,,,,,,,,8,8,,,602.8146,3,up,0.0057,,0.5,0.3,"[2,1,3]",0.802824759,stimuli/card_100_transparent.png,100,3,0,3,0,1,,,,,,,,,,
,,,,65e257541a1445e571e8525f,B,2024-06-21_16h04.45.714,Slot Machine Game,2023.1.3,Win32,59.88023952,,,,,,,,,,,,,,,,,,,,,,,,,,,400,,,,,,,,,,,,,,,,,,,,,8,8,,,604.1467,4,up,0.0338,,1.5,0.3,"[2,1,3]",0.893577207,stimuli/card_100_transparent.png,100,4,0,4,0,1,,,,,,,,,,
,,,,65e257541a1445e571e8525f,B,2024-06-21_16h04.45.714,Slot Machine Game,2023.1.3,Win32,59.88023952,,,,,,,,,,,,,,,,,,,,,,,,,,,500,,,,,,,,,,,,,,,,,,,,,8,8,,,606.512,5,up,0.0339,,1,0.3,"[2,1,3]",0.371949287,stimuli/card_100_transparent.png,100,5,0,5,0,1,,,,,,,,,,
,,,,65e257541a1445e571e8525f,B,2024-06-21_16h04.45.714,Slot Machine Game,2023.1.3,Win32,59.88023952,,,,,,,,,,,,,,,,,,,,,,,,,,,600,,,,,,,,,,,,,,,,,,,,,8,8,,,608.3777,6,up,0.3861,,0.5,0.3,"[2,1,3]",0.286749842,stimuli/card_100_transparent.png,100,6,0,6,0,1,,,,,,,,,,
,,,,65e257541a1445e571e8525f,B,2024-06-21_16h04.45.714,Slot Machine Game,2023.1.3,Win32,59.88023952,,,,,,,,,,,,,,,,,,,,,,,,,,,700,,,,,,,,,,,,,,,,,,,,,8,8,,,610.0932,7,up,0.0503,,1,0.3,"[2,1,3]",0.485948957,stimuli/card_100_transparent.png,100,7,0,7,0,1,,,,,,,,,,
,,,,65e257541a1445e571e8525f,B,2024-06-21_16h04.45.714,Slot Machine Game,2023.1.3,Win32,59.88023952,,,,,,,,,,,,,,,,,,,,,,,,,,,800,,,,,,,,,,,,,,,,,,,,,8,8,,,611.9751,8,up,0.0366,,0.5,0.3,"[2,1,3]",0.936545214,stimuli/card_100_transparent.png,100,8,0,8,0,1,,,,,,,,,,
,,,,65e257541a1445e571e8525f,B,2024-06-21_16h04.45.714,Slot Machine Game,2023.1.3,Win32,59.88023952,,,,,,,,,,,,,,,,,,,,,,,,,,,900,,,,,,,,,,,,,,,,,,,,,8,8,,,613.3405,9,up,0.0244,,0.5,0.3,"[2,1,3]",0.543984091,stimuli/card_100_transparent.png,100,9,0,9,0,1,,,,,,,,,,
,,,,65e257541a1445e571e8525f,B,2024-06-21_16h04.45.714,Slot Machine Game,2023.1.3,Win32,59.88023952,,,,,,,,,,,,,,,,,,,,,,,,,,,1000,,,,,,,,,,,,,,,,,,,,,8,8,,,614.6895,10,up,0.0559,,1.5,0.3,"[2,1,3]",0.442755022,stimuli/card_100_transparent.png,100,10,0,10,0,1,,,,,,,,,,
,,,,65e257541a1445e571e8525f,B,2024-06-21_16h04.45.714,Slot Machine Game,2023.1.3,Win32,59.88023952,,,,,,,,,,,,,,,,,,,,,,,,,,,1010,,,,,,,,,,,,,,,,,,,,,8,8,,,617.0717,11,up,0.0676,,0.5,0.3,"[1,2,3]",0.355791112,stimuli/card_10_transparent.png,10,11,0,11,0,1,,,,,,,,,,
,,,,65e257541a1445e571e8525f,B,2024-06-21_16h04.45.714,Slot Machine Game,2023.1.3,Win32,59.88023952,,,,,,,,,,,,,,,,,,,,,,,,,,,1020,,,,,,,,,,,,,,,,,,,,,8,8,,,618.4707,12,up,0.217,,1.5,0.3,"[1,2,3]",0.382960771,stimuli/card_10_transparent.png,10,12,0,12,0,1,,,,,,,,,,
,,,,65e257541a1445e571e8525f,B,2024-06-21_16h04.45.714,Slot Machine Game,2023.1.3,Win32,59.88023952,,,,,,,,,,,,,,,,,,,,,,,,,,,1030,,,,,,,,,,,,,,,,,,,,,8,8,,,621.0193,13,right,0.0837,,1.5,0.3,"[1,2,3]",0.116944886,stimuli/card_10_transparent.png,10,13,0,13,0,1,,,,,,,,,,
,,,,65e257541a1445e571e8525f,B,2024-06-21_16h04.45.714,Slot Machine Game,2023.1.3,Win32,59.88023952,,,,,,,,,,,,,,,,,,,,,,,,,,,1130,,,,,,,,,,,,,,,,,,,,,8,8,,,623.4339,14,left,0.1669,,1.5,0.3,"[1,2,3]",0.212821233,stimuli/card_100_transparent.png,100,14,0,14,0,1,,,,,,,,,,
,,,,65e257541a1445e571e8525f,B,2024-06-21_16h04.45.714,Slot Machine Game,2023.1.3,Win32,59.88023952,,,,,,,,,,,,,,,,,,,,,,,,,,,,,,,,,,,625.9322,,,,,,,,,,,,,,,,,,,,,,,,,,,,,,,,,"[1020,1020,1210,270,1110,560,940,1130]",7,0,7,0,1,,,,
,,,,65e257541a1445e571e8525f,B,2024-06-21_16h04.45.714,Slot Machine Game,2023.1.3,Win32,59.88023952,,,,,,,,,,,,,,,,,,,,,,,,,,,100,,,,,,,,,,,,,,,,,,,,,9,9,"[8,15]","[[3,2,1],[3,1,2]]",630.9591,0,right,0.3503,,1.5,0.3,"[3,2,1]",0.842929503,stimuli/card_100_transparent.png,100,0,0,0,0,1,,,,,,,,,,
,,,,65e257541a1445e571e8525f,B,2024-06-21_16h04.45.714,Slot Machine Game,2023.1.3,Win32,59.88023952,,,,,,,,,,,,,,,,,,,,,,,,,,,200,,,,,,,,,,,,,,,,,,,,,9,9,,,633.6274,1,right,0.0669,,0.5,0.3,"[3,2,1]",0.243178117,stimuli/card_100_transparent.png,100,1,0,1,0,1,,,,,,,,,,
,,,,65e257541a1445e571e8525f,B,2024-06-21_16h04.45.714,Slot Machine Game,2023.1.3,Win32,59.88023952,,,,,,,,,,,,,,,,,,,,,,,,,,,300,,,,,,,,,,,,,,,,,,,,,9,9,,,635.0267,2,right,0.5006,,1,0.3,"[3,2,1]",0.375184533,stimuli/card_100_transparent.png,100,2,0,2,0,1,,,,,,,,,,
,,,,65e257541a1445e571e8525f,B,2024-06-21_16h04.45.714,Slot Machine Game,2023.1.3,Win32,59.88023952,,,,,,,,,,,,,,,,,,,,,,,,,,,300,,,,,,,,,,,,,,,,,,,,,9,9,,,637.3579,3,right,0.0169,,0.5,0.3,"[3,2,1]",0.040345328,stimuli/card_0_transparent.png,0,3,0,3,0,1,,,,,,,,,,
,,,,65e257541a1445e571e8525f,B,2024-06-21_16h04.45.714,Slot Machine Game,2023.1.3,Win32,59.88023952,,,,,,,,,,,,,,,,,,,,,,,,,,,400,,,,,,,,,,,,,,,,,,,,,9,9,,,638.7071,4,right,0.2087,,1.5,0.3,"[3,2,1]",0.907407184,stimuli/card_100_transparent.png,100,4,0,4,0,1,,,,,,,,,,
,,,,65e257541a1445e571e8525f,B,2024-06-21_16h04.45.714,Slot Machine Game,2023.1.3,Win32,59.88023952,,,,,,,,,,,,,,,,,,,,,,,,,,,500,,,,,,,,,,,,,,,,,,,,,9,9,,,641.2389,5,right,0.0511,,1,0.3,"[3,2,1]",0.924209906,stimuli/card_100_transparent.png,100,5,0,5,0,1,,,,,,,,,,
,,,,65e257541a1445e571e8525f,B,2024-06-21_16h04.45.714,Slot Machine Game,2023.1.3,Win32,59.88023952,,,,,,,,,,,,,,,,,,,,,,,,,,,600,,,,,,,,,,,,,,,,,,,,,9,9,,,643.1209,6,right,0.1938,,1.5,0.3,"[3,2,1]",0.784304233,stimuli/card_100_transparent.png,100,6,0,6,0,1,,,,,,,,,,
,,,,65e257541a1445e571e8525f,B,2024-06-21_16h04.45.714,Slot Machine Game,2023.1.3,Win32,59.88023952,,,,,,,,,,,,,,,,,,,,,,,,,,,700,,,,,,,,,,,,,,,,,,,,,9,9,,,645.6358,7,right,0.0249,,0.5,0.3,"[3,2,1]",0.598724366,stimuli/card_100_transparent.png,100,7,0,7,0,1,,,,,,,,,,
,,,,65e257541a1445e571e8525f,B,2024-06-21_16h04.45.714,Slot Machine Game,2023.1.3,Win32,59.88023952,,,,,,,,,,,,,,,,,,,,,,,,,,,800,,,,,,,,,,,,,,,,,,,,,9,9,,,646.9851,8,right,0.2021,,1.5,0.3,"[3,1,2]",0.184153211,stimuli/card_100_transparent.png,100,8,0,8,0,1,,,,,,,,,,
,,,,65e257541a1445e571e8525f,B,2024-06-21_16h04.45.714,Slot Machine Game,2023.1.3,Win32,59.88023952,,,,,,,,,,,,,,,,,,,,,,,,,,,810,,,,,,,,,,,,,,,,,,,,,9,9,,,649.5165,9,right,0.2229,,1.5,0.3,"[3,1,2]",0.784101881,stimuli/card_10_transparent.png,10,9,0,9,0,1,,,,,,,,,,
,,,,65e257541a1445e571e8525f,B,2024-06-21_16h04.45.714,Slot Machine Game,2023.1.3,Win32,59.88023952,,,,,,,,,,,,,,,,,,,,,,,,,,,820,,,,,,,,,,,,,,,,,,,,,9,9,,,652.0651,10,right,0.1211,,1,0.3,"[3,1,2]",0.274714462,stimuli/card_10_transparent.png,10,10,0,10,0,1,,,,,,,,,,
,,,,65e257541a1445e571e8525f,B,2024-06-21_16h04.45.714,Slot Machine Game,2023.1.3,Win32,59.88023952,,,,,,,,,,,,,,,,,,,,,,,,,,,920,,,,,,,,,,,,,,,,,,,,,9,9,,,654.0138,11,up,0.0676,,1.5,0.3,"[3,1,2]",0.519741475,stimuli/card_100_transparent.png,100,11,0,11,0,1,,,,,,,,,,
,,,,65e257541a1445e571e8525f,B,2024-06-21_16h04.45.714,Slot Machine Game,2023.1.3,Win32,59.88023952,,,,,,,,,,,,,,,,,,,,,,,,,,,1020,,,,,,,,,,,,,,,,,,,,,9,9,,,656.4126,12,up,0.1673,,1.5,0.3,"[3,1,2]",0.968510705,stimuli/card_100_transparent.png,100,12,0,12,0,1,,,,,,,,,,
,,,,65e257541a1445e571e8525f,B,2024-06-21_16h04.45.714,Slot Machine Game,2023.1.3,Win32,59.88023952,,,,,,,,,,,,,,,,,,,,,,,,,,,1120,,,,,,,,,,,,,,,,,,,,,9,9,,,658.9103,13,up,0.2012,,0.5,0.3,"[3,1,2]",0.594371949,stimuli/card_100_transparent.png,100,13,0,13,0,1,,,,,,,,,,
,,,,65e257541a1445e571e8525f,B,2024-06-21_16h04.45.714,Slot Machine Game,2023.1.3,Win32,59.88023952,,,,,,,,,,,,,,,,,,,,,,,,,,,1220,,,,,,,,,,,,,,,,,,,,,9,9,,,660.4428,14,up,0.0871,,0.5,0.3,"[3,1,2]",0.621358405,stimuli/card_100_transparent.png,100,14,0,14,0,1,,,,,,,,,,
,,,,65e257541a1445e571e8525f,B,2024-06-21_16h04.45.714,Slot Machine Game,2023.1.3,Win32,59.88023952,,,,,,,,,,,,,,,,,,,,,,,,,,,,,,,,,,,661.859,,,,,,,,,,,,,,,,,,,,,,,,,,,,,,,,,"[1020,1020,1210,270,1110,560,940,1130,1220]",8,0,8,0,1,,,,
,,,,65e257541a1445e571e8525f,B,2024-06-21_16h04.45.714,Slot Machine Game,2023.1.3,Win32,59.88023952,,,,,,,,,,,,,,,,,,,,,,,,,,,0,,,,,,,,,,,,,,,,,,,,,10,10,"[10,15]","[[3,1,2],[1,3,2]]",666.8846,0,left,0.0339,,1,0.3,"[3,1,2]",0.799693914,stimuli/card_0_transparent.png,0,0,0,0,0,1,,,,,,,,,,
,,,,65e257541a1445e571e8525f,B,2024-06-21_16h04.45.714,Slot Machine Game,2023.1.3,Win32,59.88023952,,,,,,,,,,,,,,,,,,,,,,,,,,,100,,,,,,,,,,,,,,,,,,,,,10,10,,,668.7373,1,up,0.2038,,0.5,0.3,"[3,1,2]",0.877204299,stimuli/card_100_transparent.png,100,1,0,1,0,1,,,,,,,,,,
,,,,65e257541a1445e571e8525f,B,2024-06-21_16h04.45.714,Slot Machine Game,2023.1.3,Win32,59.88023952,,,,,,,,,,,,,,,,,,,,,,,,,,,100,,,,,,,,,,,,,,,,,,,,,10,10,,,670.2701,2,up,0.1424,,1,0.3,"[3,1,2]",0.018178159,stimuli/card_0_transparent.png,0,2,0,2,0,1,,,,,,,,,,
,,,,65e257541a1445e571e8525f,B,2024-06-21_16h04.45.714,Slot Machine Game,2023.1.3,Win32,59.88023952,,,,,,,,,,,,,,,,,,,,,,,,,,,200,,,,,,,,,,,,,,,,,,,,,10,10,,,672.2353,3,up,0.0936,,0.5,0.3,"[3,1,2]",0.496288337,stimuli/card_100_transparent.png,100,3,0,3,0,1,,,,,,,,,,
,,,,65e257541a1445e571e8525f,B,2024-06-21_16h04.45.714,Slot Machine Game,2023.1.3,Win32,59.88023952,,,,,,,,,,,,,,,,,,,,,,,,,,,300,,,,,,,,,,,,,,,,,,,,,10,10,,,673.6508,4,up,0.2101,,0.5,0.3,"[3,1,2]",0.242203405,stimuli/card_100_transparent.png,100,4,0,4,0,1,,,,,,,,,,
,,,,65e257541a1445e571e8525f,B,2024-06-21_16h04.45.714,Slot Machine Game,2023.1.3,Win32,59.88023952,,,,,,,,,,,,,,,,,,,,,,,,,,,400,,,,,,,,,,,,,,,,,,,,,10,10,,,675.1831,5,up,0.0857,,1,0.3,"[3,1,2]",0.582342261,stimuli/card_100_transparent.png,100,5,0,5,0,1,,,,,,,,,,
,,,,65e257541a1445e571e8525f,B,2024-06-21_16h04.45.714,Slot Machine Game,2023.1.3,Win32,59.88023952,,,,,,,,,,,,,,,,,,,,,,,,,,,500,,,,,,,,,,,,,,,,,,,,,10,10,,,677.0981,6,up,0.1752,,1,0.3,"[3,1,2]",0.904326215,stimuli/card_100_transparent.png,100,6,0,6,0,1,,,,,,,,,,
,,,,65e257541a1445e571e8525f,B,2024-06-21_16h04.45.714,Slot Machine Game,2023.1.3,Win32,59.88023952,,,,,,,,,,,,,,,,,,,,,,,,,,,600,,,,,,,,,,,,,,,,,,,,,10,10,,,679.0969,7,up,0.1931,,1,0.3,"[3,1,2]",0.805995286,stimuli/card_100_transparent.png,100,7,0,7,0,1,,,,,,,,,,
,,,,65e257541a1445e571e8525f,B,2024-06-21_16h04.45.714,Slot Machine Game,2023.1.3,Win32,59.88023952,,,,,,,,,,,,,,,,,,,,,,,,,,,700,,,,,,,,,,,,,,,,,,,,,10,10,,,681.1126,8,up,0.0087,,1,0.3,"[3,1,2]",0.717798699,stimuli/card_100_transparent.png,100,8,0,8,0,1,,,,,,,,,,
,,,,65e257541a1445e571e8525f,B,2024-06-21_16h04.45.714,Slot Machine Game,2023.1.3,Win32,59.88023952,,,,,,,,,,,,,,,,,,,,,,,,,,,800,,,,,,,,,,,,,,,,,,,,,10,10,,,682.9449,9,up,0.0008,,1.5,0.3,"[3,1,2]",0.668404927,stimuli/card_100_transparent.png,100,9,0,9,0,1,,,,,,,,,,
,,,,65e257541a1445e571e8525f,B,2024-06-21_16h04.45.714,Slot Machine Game,2023.1.3,Win32,59.88023952,,,,,,,,,,,,,,,,,,,,,,,,,,,800,,,,,,,,,,,,,,,,,,,,,10,10,,,685.2763,10,up,0.1243,,0.5,0.3,"[1,3,2]",0.736009163,stimuli/card_0_transparent.png,0,10,0,10,0,1,,,,,,,,,,
,,,,65e257541a1445e571e8525f,B,2024-06-21_16h04.45.714,Slot Machine Game,2023.1.3,Win32,59.88023952,,,,,,,,,,,,,,,,,,,,,,,,,,,800,,,,,,,,,,,,,,,,,,,,,10,10,,,686.7253,11,up,0.7019,,1.5,0.3,"[1,3,2]",0.693072759,stimuli/card_0_transparent.png,0,11,0,11,0,1,,,,,,,,,,
,,,,65e257541a1445e571e8525f,B,2024-06-21_16h04.45.714,Slot Machine Game,2023.1.3,Win32,59.88023952,,,,,,,,,,,,,,,,,,,,,,,,,,,810,,,,,,,,,,,,,,,,,,,,,10,10,,,689.7567,12,right,0.2061,,1.5,0.3,"[1,3,2]",0.253663918,stimuli/card_10_transparent.png,10,12,0,12,0,1,,,,,,,,,,
,,,,65e257541a1445e571e8525f,B,2024-06-21_16h04.45.714,Slot Machine Game,2023.1.3,Win32,59.88023952,,,,,,,,,,,,,,,,,,,,,,,,,,,820,,,,,,,,,,,,,,,,,,,,,10,10,,,692.2883,13,right,0.2537,,0.5,0.3,"[1,3,2]",0.809824057,stimuli/card_10_transparent.png,10,13,0,13,0,1,,,,,,,,,,
,,,,65e257541a1445e571e8525f,B,2024-06-21_16h04.45.714,Slot Machine Game,2023.1.3,Win32,59.88023952,,,,,,,,,,,,,,,,,,,,,,,,,,,920,,,,,,,,,,,,,,,,,,,,,10,10,,,693.8711,14,left,0.1404,,1.5,0.3,"[1,3,2]",0.630723555,stimuli/card_100_transparent.png,100,14,0,14,0,1,,,,,,,,,,
,,,,65e257541a1445e571e8525f,B,2024-06-21_16h04.45.714,Slot Machine Game,2023.1.3,Win32,59.88023952,,,,,,,,,,,,,,,,,,,,,,,,,,,,,,,,,,,696.3356,,,,,,,,,,,,,,,,,,,,,,,,,,,,,,,,,"[1020,1020,1210,270,1110,560,940,1130,1220,920]",9,0,9,0,1,,,,
,,,,65e257541a1445e571e8525f,B,2024-06-21_16h04.45.714,Slot Machine Game,2023.1.3,Win32,59.88023952,,,,,,,,,,,,,,,,,,,,,,,,,,,,,,,,,,,,,,,,,,,,,,,,,,,,,,,,,,,,,,,,,,,,,,,,,,9,"[1020,1020,1210,270,1110,560,940,1130,1220,920]",11.3,2024-06-21_16h16.31.301
