key_resp_welcome_started,key_resp_welcome_keys,key_resp_welcome_rt,key_resp_welcome_duration,prolific_id,path_id,date,expName,psychopyVersion,OS,frameRate,key_resp_instruction1_started,key_resp_instruction1_keys,key_resp_instruction1_rt,key_resp_instruction1_duration,key_resp_instruction2_started,key_resp_instruction2_keys,key_resp_instruction2_rt,key_resp_instruction2_duration,key_resp_instruction3_started,key_resp_instruction3_keys,key_resp_instruction3_rt,key_resp_instruction3_duration,key_resp_instruction4_started,key_resp_instruction4_keys,key_resp_instruction4_rt,key_resp_instruction4_duration,practiceCondition,practice_reward_seqs,practice_trial_started,practice_trial_num,practice_resp_rt,practice_resp_duration,practice_resp_keys,prac_presentationInterval,"practice_reward_seq: 2,1,3",reward_img,cumulative_reward,trial_reward,practice_trials.thisRepN,practice_trials.thisTrialN,practice_trials.thisN,practice_trials.thisIndex,practice_trials.ran,"practice_reward_seq: 2,3,1",block_break_started,"practice_reward_seq: 1,3,2","practice_reward_seq: 3,1,2",practice_end_time,practice_end_keys,practice_end_rt,practice_end_duration,main_instruction_text_started,block_condition,block_order_indices,main_instruction_keys,main_instruction_rt,main_instruction_duration,block_number,block_assignment,current_condition,main_reward_seqs,main_trial_started,main_trial_num,main_trial_keys,main_trial_rt,main_trial_duration,main_presentationInterval,reward_presentation_time,main_reward_seq,reward_rand_val,main_reward_img,current_reward,main_trials.thisRepN,main_trials.thisTrialN,main_trials.thisN,main_trials.thisIndex,main_trials.ran,block_reward,block.thisRepN,block.thisTrialN,block.thisN,block.thisIndex,block.ran,block_reward.length,block_reward_all,reward_amount,date_end_task
0.0003,space,4.465,,65e62157b9362caf030786ab,B,2024-07-01_09h44.05.289,Slot Machine Game,2023.1.3,Win32,58.13953488,,,,,,,,,,,,,,,,,,,,,,,,,,,,,,,,,,,,,,,,,,,,,,,,,,,,,,,,,,,,,,,,,,,,,,,,,,,,,
,,,,65e62157b9362caf030786ab,B,2024-07-01_09h44.05.289,Slot Machine Game,2023.1.3,Win32,58.13953488,4.4806,space,14.4736,,,,,,,,,,,,,,,,,,,,,,,,,,,,,,,,,,,,,,,,,,,,,,,,,,,,,,,,,,,,,,,,,,,,,,,,,,
,,,,65e62157b9362caf030786ab,B,2024-07-01_09h44.05.289,Slot Machine Game,2023.1.3,Win32,58.13953488,,,,,18.9955,space,56.2239,,,,,,,,,,,,,,,,,,,,,,,,,,,,,,,,,,,,,,,,,,,,,,,,,,,,,,,,,,,,,,,,,,,,,,
,,,,65e62157b9362caf030786ab,B,2024-07-01_09h44.05.289,Slot Machine Game,2023.1.3,Win32,58.13953488,,,,,,,,,75.2585,space,14.787,,,,,,,,,,,,,,,,,,,,,,,,,,,,,,,,,,,,,,,,,,,,,,,,,,,,,,,,,,,,,,,,,,
,,,,65e62157b9362caf030786ab,B,2024-07-01_09h44.05.289,Slot Machine Game,2023.1.3,Win32,58.13953488,,,,,,,,,,,,,,,,,,,,,,,,,,,,,,,,,,,,,,,,,,,,,,,,,,,,,,,,,,,,,,,,,,,,,,,,,,,,,
,,,,65e62157b9362caf030786ab,B,2024-07-01_09h44.05.289,Slot Machine Game,2023.1.3,Win32,58.13953488,,,,,,,,,,,,,232.1478,space,5.4059,,,,,,,,,,,,,,,,,,,,,,,,,,,,,,,,,,,,,,,,,,,,,,,,,,,,,,,,,,,,,,
,,,,65e62157b9362caf030786ab,B,2024-07-01_09h44.05.289,Slot Machine Game,2023.1.3,Win32,58.13953488,,,,,,,,,,,,,,,,,"[9,15]","[[2,1,3],[2,3,1]]",237.571,0,3.7764,,up,1.5,,stimuli/card_100_transparent.png,100,100,0,0,0,0,1,,,,,,,,,,,,,,,,,,,,,,,,,,,,,,,,,,,,,,,,,,,,
,,,,65e62157b9362caf030786ab,B,2024-07-01_09h44.05.289,Slot Machine Game,2023.1.3,Win32,58.13953488,,,,,,,,,,,,,,,,,,,243.6731,1,1.1502,,up,1,,stimuli/card_100_transparent.png,200,100,1,0,1,0,1,,,,,,,,,,,,,,,,,,,,,,,,,,,,,,,,,,,,,,,,,,,,
,,,,65e62157b9362caf030786ab,B,2024-07-01_09h44.05.289,Slot Machine Game,2023.1.3,Win32,58.13953488,,,,,,,,,,,,,,,,,,,246.6556,2,0.9674,,up,1,,stimuli/card_10_transparent.png,210,10,2,0,2,0,1,,,,,,,,,,,,,,,,,,,,,,,,,,,,,,,,,,,,,,,,,,,,
,,,,65e62157b9362caf030786ab,B,2024-07-01_09h44.05.289,Slot Machine Game,2023.1.3,Win32,58.13953488,,,,,,,,,,,,,,,,,,,249.455,3,2.4922,,up,0.5,,stimuli/card_100_transparent.png,310,100,3,0,3,0,1,,,,,,,,,,,,,,,,,,,,,,,,,,,,,,,,,,,,,,,,,,,,
,,,,65e62157b9362caf030786ab,B,2024-07-01_09h44.05.289,Slot Machine Game,2023.1.3,Win32,58.13953488,,,,,,,,,,,,,,,,,,,253.2713,4,1.7601,,up,1.5,,stimuli/card_100_transparent.png,410,100,4,0,4,0,1,,,,,,,,,,,,,,,,,,,,,,,,,,,,,,,,,,,,,,,,,,,,
,,,,65e62157b9362caf030786ab,B,2024-07-01_09h44.05.289,Slot Machine Game,2023.1.3,Win32,58.13953488,,,,,,,,,,,,,,,,,,,257.3543,5,1.6675,,up,0.5,,stimuli/card_100_transparent.png,510,100,5,0,5,0,1,,,,,,,,,,,,,,,,,,,,,,,,,,,,,,,,,,,,,,,,,,,,
,,,,65e62157b9362caf030786ab,B,2024-07-01_09h44.05.289,Slot Machine Game,2023.1.3,Win32,58.13953488,,,,,,,,,,,,,,,,,,,260.354,6,1.4906,,up,1,,stimuli/card_100_transparent.png,610,100,6,0,6,0,1,,,,,,,,,,,,,,,,,,,,,,,,,,,,,,,,,,,,,,,,,,,,
,,,,65e62157b9362caf030786ab,B,2024-07-01_09h44.05.289,Slot Machine Game,2023.1.3,Win32,58.13953488,,,,,,,,,,,,,,,,,,,263.6703,7,0.9049,,up,1.5,,stimuli/card_100_transparent.png,710,100,7,0,7,0,1,,,,,,,,,,,,,,,,,,,,,,,,,,,,,,,,,,,,,,,,,,,,
,,,,65e62157b9362caf030786ab,B,2024-07-01_09h44.05.289,Slot Machine Game,2023.1.3,Win32,58.13953488,,,,,,,,,,,,,,,,,,,266.9033,8,0.8764,,up,1,,stimuli/card_100_transparent.png,810,100,8,0,8,0,1,,,,,,,,,,,,,,,,,,,,,,,,,,,,,,,,,,,,,,,,,,,,
,,,,65e62157b9362caf030786ab,B,2024-07-01_09h44.05.289,Slot Machine Game,2023.1.3,Win32,58.13953488,,,,,,,,,,,,,,,,,,,269.6032,9,0.9166,,up,1,,stimuli/card_100_transparent.png,910,100,9,0,9,0,1,,,,,,,,,,,,,,,,,,,,,,,,,,,,,,,,,,,,,,,,,,,,
,,,,65e62157b9362caf030786ab,B,2024-07-01_09h44.05.289,Slot Machine Game,2023.1.3,Win32,58.13953488,,,,,,,,,,,,,,,,,,,272.3527,10,0.852,,up,0.5,,stimuli/card_0_transparent.png,910,0,10,0,10,0,1,,,,,,,,,,,,,,,,,,,,,,,,,,,,,,,,,,,,,,,,,,,,
,,,,65e62157b9362caf030786ab,B,2024-07-01_09h44.05.289,Slot Machine Game,2023.1.3,Win32,58.13953488,,,,,,,,,,,,,,,,,,,274.5359,11,2.0196,,up,1.5,,stimuli/card_0_transparent.png,910,0,11,0,11,0,1,,,,,,,,,,,,,,,,,,,,,,,,,,,,,,,,,,,,,,,,,,,,
,,,,65e62157b9362caf030786ab,B,2024-07-01_09h44.05.289,Slot Machine Game,2023.1.3,Win32,58.13953488,,,,,,,,,,,,,,,,,,,278.8854,12,2.384,,up,0.5,,stimuli/card_0_transparent.png,910,0,12,0,12,0,1,,,,,,,,,,,,,,,,,,,,,,,,,,,,,,,,,,,,,,,,,,,,
,,,,65e62157b9362caf030786ab,B,2024-07-01_09h44.05.289,Slot Machine Game,2023.1.3,Win32,58.13953488,,,,,,,,,,,,,,,,,,,282.6018,13,0.535,,left,0.5,,stimuli/card_10_transparent.png,920,10,13,0,13,0,1,,,,,,,,,,,,,,,,,,,,,,,,,,,,,,,,,,,,,,,,,,,,
,,,,65e62157b9362caf030786ab,B,2024-07-01_09h44.05.289,Slot Machine Game,2023.1.3,Win32,58.13953488,,,,,,,,,,,,,,,,,,,284.4682,14,1.8008,,right,1.5,,stimuli/card_0_transparent.png,920,0,14,0,14,0,1,,,,,,,,,,,,,,,,,,,,,,,,,,,,,,,,,,,,,,,,,,,,
,,,,65e62157b9362caf030786ab,B,2024-07-01_09h44.05.289,Slot Machine Game,2023.1.3,Win32,58.13953488,,,,,,,,,,,,,,,,,"[6,15]","[[1,3,2],[3,1,2]]",293.6348,0,2.9088,,up,1.5,,stimuli/card_0_transparent.png,0,0,0,0,0,0,1,,288.6271,,,,,,,,,,,,,,,,,,,,,,,,,,,,,,,,,,,,,,,,,,
,,,,65e62157b9362caf030786ab,B,2024-07-01_09h44.05.289,Slot Machine Game,2023.1.3,Win32,58.13953488,,,,,,,,,,,,,,,,,,,298.8667,1,0.2107,,left,1,,stimuli/card_0_transparent.png,0,0,1,0,1,0,1,,,,,,,,,,,,,,,,,,,,,,,,,,,,,,,,,,,,,,,,,,,,
,,,,65e62157b9362caf030786ab,B,2024-07-01_09h44.05.289,Slot Machine Game,2023.1.3,Win32,58.13953488,,,,,,,,,,,,,,,,,,,300.8999,2,1.5841,,right,1.5,,stimuli/card_10_transparent.png,10,10,2,0,2,0,1,,,,,,,,,,,,,,,,,,,,,,,,,,,,,,,,,,,,,,,,,,,,
,,,,65e62157b9362caf030786ab,B,2024-07-01_09h44.05.289,Slot Machine Game,2023.1.3,Win32,58.13953488,,,,,,,,,,,,,,,,,,,304.7997,3,3.4917,,right,1.5,,stimuli/card_0_transparent.png,10,0,3,0,3,0,1,,,,,,,,,,,,,,,,,,,,,,,,,,,,,,,,,,,,,,,,,,,,
,,,,65e62157b9362caf030786ab,B,2024-07-01_09h44.05.289,Slot Machine Game,2023.1.3,Win32,58.13953488,,,,,,,,,,,,,,,,,,,310.6155,4,0.4714,,up,1.5,,stimuli/card_0_transparent.png,10,0,4,0,4,0,1,,,,,,,,,,,,,,,,,,,,,,,,,,,,,,,,,,,,,,,,,,,,
,,,,65e62157b9362caf030786ab,B,2024-07-01_09h44.05.289,Slot Machine Game,2023.1.3,Win32,58.13953488,,,,,,,,,,,,,,,,,,,313.4154,5,1.0872,,left,1.5,,stimuli/card_100_transparent.png,110,100,5,0,5,0,1,,,,,,,,,,,,,,,,,,,,,,,,,,,,,,,,,,,,,,,,,,,,
,,,,65e62157b9362caf030786ab,B,2024-07-01_09h44.05.289,Slot Machine Game,2023.1.3,Win32,58.13953488,,,,,,,,,,,,,,,,,,,316.8151,6,0.8833,,left,0.5,,stimuli/card_0_transparent.png,110,0,6,0,6,0,1,,,,,,,,,,,,,,,,,,,,,,,,,,,,,,,,,,,,,,,,,,,,
,,,,65e62157b9362caf030786ab,B,2024-07-01_09h44.05.289,Slot Machine Game,2023.1.3,Win32,58.13953488,,,,,,,,,,,,,,,,,,,319.0144,7,0.4334,,left,1.5,,stimuli/card_0_transparent.png,110,0,7,0,7,0,1,,,,,,,,,,,,,,,,,,,,,,,,,,,,,,,,,,,,,,,,,,,,
,,,,65e62157b9362caf030786ab,B,2024-07-01_09h44.05.289,Slot Machine Game,2023.1.3,Win32,58.13953488,,,,,,,,,,,,,,,,,,,321.7646,8,,,,1.5,,,,,8,0,8,0,1,,,,,,,,,,,,,,,,,,,,,,,,,,,,,,,,,,,,,,,,,,,,
,,,,65e62157b9362caf030786ab,B,2024-07-01_09h44.05.289,Slot Machine Game,2023.1.3,Win32,58.13953488,,,,,,,,,,,,,,,,,,,327.2824,9,0.5295,,left,1,,stimuli/card_0_transparent.png,110,0,9,0,9,0,1,,,,,,,,,,,,,,,,,,,,,,,,,,,,,,,,,,,,,,,,,,,,
,,,,65e62157b9362caf030786ab,B,2024-07-01_09h44.05.289,Slot Machine Game,2023.1.3,Win32,58.13953488,,,,,,,,,,,,,,,,,,,329.6304,10,0.5437,,up,1,,stimuli/card_100_transparent.png,210,100,10,0,10,0,1,,,,,,,,,,,,,,,,,,,,,,,,,,,,,,,,,,,,,,,,,,,,
,,,,65e62157b9362caf030786ab,B,2024-07-01_09h44.05.289,Slot Machine Game,2023.1.3,Win32,58.13953488,,,,,,,,,,,,,,,,,,,331.9966,11,0.3343,,up,1,,stimuli/card_100_transparent.png,310,100,11,0,11,0,1,,,,,,,,,,,,,,,,,,,,,,,,,,,,,,,,,,,,,,,,,,,,
,,,,65e62157b9362caf030786ab,B,2024-07-01_09h44.05.289,Slot Machine Game,2023.1.3,Win32,58.13953488,,,,,,,,,,,,,,,,,,,334.1509,12,0.1287,,up,0.5,,stimuli/card_10_transparent.png,320,10,12,0,12,0,1,,,,,,,,,,,,,,,,,,,,,,,,,,,,,,,,,,,,,,,,,,,,
,,,,65e62157b9362caf030786ab,B,2024-07-01_09h44.05.289,Slot Machine Game,2023.1.3,Win32,58.13953488,,,,,,,,,,,,,,,,,,,335.6128,13,0.038,,up,1.5,,stimuli/card_100_transparent.png,420,100,13,0,13,0,1,,,,,,,,,,,,,,,,,,,,,,,,,,,,,,,,,,,,,,,,,,,,
,,,,65e62157b9362caf030786ab,B,2024-07-01_09h44.05.289,Slot Machine Game,2023.1.3,Win32,58.13953488,,,,,,,,,,,,,,,,,,,337.963,14,0.059,,up,1.5,,stimuli/card_100_transparent.png,520,100,14,0,14,0,1,,,,,,,,,,,,,,,,,,,,,,,,,,,,,,,,,,,,,,,,,,,,
,,,,65e62157b9362caf030786ab,B,2024-07-01_09h44.05.289,Slot Machine Game,2023.1.3,Win32,58.13953488,,,,,,,,,,,,,,,,,,,,,,,,,,,,,,,,,,,340.3512,,,345.347,space,5.117,,,,,,,,,,,,,,,,,,,,,,,,,,,,,,,,,,,,,
,,,,65e62157b9362caf030786ab,B,2024-07-01_09h44.05.289,Slot Machine Game,2023.1.3,Win32,58.13953488,,,,,,,,,,,,,,,,,,,,,,,,,,,,,,,,,,,,,,,,,,350.4974,2,"[2,4,8,0,1,3,9,6,8,5]",space,3.6067,,,,,,,,,,,,,,,,,,,,,,,,,,,,,,,
,,,,65e62157b9362caf030786ab,B,2024-07-01_09h44.05.289,Slot Machine Game,2023.1.3,Win32,58.13953488,,,,,,,,,,,,,,,,,,,,,,,,,,,100,,,,,,,,,,,,,,,,,,,,,1,3,"[15,15]","[[3,1,2],[3,1,2]]",354.1548,0,up,0.6569,,1,0.3,"[3,1,2]",0.679768389,stimuli/card_100_transparent.png,100,0,0,0,0,1,,,,,,,,,,
,,,,65e62157b9362caf030786ab,B,2024-07-01_09h44.05.289,Slot Machine Game,2023.1.3,Win32,58.13953488,,,,,,,,,,,,,,,,,,,,,,,,,,,200,,,,,,,,,,,,,,,,,,,,,1,3,,,356.6281,1,up,1.8504,,0.5,0.3,"[3,1,2]",0.546001099,stimuli/card_100_transparent.png,100,1,0,1,0,1,,,,,,,,,,
,,,,65e62157b9362caf030786ab,B,2024-07-01_09h44.05.289,Slot Machine Game,2023.1.3,Win32,58.13953488,,,,,,,,,,,,,,,,,,,,,,,,,,,300,,,,,,,,,,,,,,,,,,,,,1,3,,,359.8108,2,up,0.4321,,1.5,0.3,"[3,1,2]",0.248393342,stimuli/card_100_transparent.png,100,2,0,2,0,1,,,,,,,,,,
,,,,65e62157b9362caf030786ab,B,2024-07-01_09h44.05.289,Slot Machine Game,2023.1.3,Win32,58.13953488,,,,,,,,,,,,,,,,,,,,,,,,,,,400,,,,,,,,,,,,,,,,,,,,,1,3,,,362.5771,3,up,0.4006,,0.5,0.3,"[3,1,2]",0.679806655,stimuli/card_100_transparent.png,100,3,0,3,0,1,,,,,,,,,,
,,,,65e62157b9362caf030786ab,B,2024-07-01_09h44.05.289,Slot Machine Game,2023.1.3,Win32,58.13953488,,,,,,,,,,,,,,,,,,,,,,,,,,,500,,,,,,,,,,,,,,,,,,,,,1,3,,,364.3102,4,up,0.3448,,1,0.3,"[3,1,2]",0.531307264,stimuli/card_100_transparent.png,100,4,0,4,0,1,,,,,,,,,,
,,,,65e62157b9362caf030786ab,B,2024-07-01_09h44.05.289,Slot Machine Game,2023.1.3,Win32,58.13953488,,,,,,,,,,,,,,,,,,,,,,,,,,,600,,,,,,,,,,,,,,,,,,,,,1,3,,,366.4766,5,up,0.0999,,0.5,0.3,"[3,1,2]",0.602132002,stimuli/card_100_transparent.png,100,5,0,5,0,1,,,,,,,,,,
,,,,65e62157b9362caf030786ab,B,2024-07-01_09h44.05.289,Slot Machine Game,2023.1.3,Win32,58.13953488,,,,,,,,,,,,,,,,,,,,,,,,,,,600,,,,,,,,,,,,,,,,,,,,,1,3,,,367.9098,6,up,0.2089,,0.5,0.3,"[3,1,2]",0.078528015,stimuli/card_0_transparent.png,0,6,0,6,0,1,,,,,,,,,,
,,,,65e62157b9362caf030786ab,B,2024-07-01_09h44.05.289,Slot Machine Game,2023.1.3,Win32,58.13953488,,,,,,,,,,,,,,,,,,,,,,,,,,,700,,,,,,,,,,,,,,,,,,,,,1,3,,,369.443,7,up,1.4675,,0.5,0.3,"[3,1,2]",0.244108348,stimuli/card_100_transparent.png,100,7,0,7,0,1,,,,,,,,,,
,,,,65e62157b9362caf030786ab,B,2024-07-01_09h44.05.289,Slot Machine Game,2023.1.3,Win32,58.13953488,,,,,,,,,,,,,,,,,,,,,,,,,,,800,,,,,,,,,,,,,,,,,,,,,1,3,,,372.2427,8,up,0.4887,,1.5,0.3,"[3,1,2]",0.627762215,stimuli/card_100_transparent.png,100,8,0,8,0,1,,,,,,,,,,
,,,,65e62157b9362caf030786ab,B,2024-07-01_09h44.05.289,Slot Machine Game,2023.1.3,Win32,58.13953488,,,,,,,,,,,,,,,,,,,,,,,,,,,900,,,,,,,,,,,,,,,,,,,,,1,3,,,375.0591,9,up,0.3097,,0.5,0.3,"[3,1,2]",0.704757968,stimuli/card_100_transparent.png,100,9,0,9,0,1,,,,,,,,,,
,,,,65e62157b9362caf030786ab,B,2024-07-01_09h44.05.289,Slot Machine Game,2023.1.3,Win32,58.13953488,,,,,,,,,,,,,,,,,,,,,,,,,,,1000,,,,,,,,,,,,,,,,,,,,,1,3,,,376.6923,10,up,0.5109,,0.5,0.3,"[3,1,2]",0.548831038,stimuli/card_100_transparent.png,100,10,0,10,0,1,,,,,,,,,,
,,,,65e62157b9362caf030786ab,B,2024-07-01_09h44.05.289,Slot Machine Game,2023.1.3,Win32,58.13953488,,,,,,,,,,,,,,,,,,,,,,,,,,,1100,,,,,,,,,,,,,,,,,,,,,1,3,,,378.5254,11,up,0.4932,,1,0.3,"[3,1,2]",0.37999135,stimuli/card_100_transparent.png,100,11,0,11,0,1,,,,,,,,,,
,,,,65e62157b9362caf030786ab,B,2024-07-01_09h44.05.289,Slot Machine Game,2023.1.3,Win32,58.13953488,,,,,,,,,,,,,,,,,,,,,,,,,,,1200,,,,,,,,,,,,,,,,,,,,,1,3,,,380.8419,12,up,0.3877,,1,0.3,"[3,1,2]",0.506229433,stimuli/card_100_transparent.png,100,12,0,12,0,1,,,,,,,,,,
,,,,65e62157b9362caf030786ab,B,2024-07-01_09h44.05.289,Slot Machine Game,2023.1.3,Win32,58.13953488,,,,,,,,,,,,,,,,,,,,,,,,,,,1300,,,,,,,,,,,,,,,,,,,,,1,3,,,383.0584,13,up,0.4106,,0.5,0.3,"[3,1,2]",0.511065022,stimuli/card_100_transparent.png,100,13,0,13,0,1,,,,,,,,,,
,,,,65e62157b9362caf030786ab,B,2024-07-01_09h44.05.289,Slot Machine Game,2023.1.3,Win32,58.13953488,,,,,,,,,,,,,,,,,,,,,,,,,,,1400,,,,,,,,,,,,,,,,,,,,,1,3,,,384.7915,14,up,0.4271,,1.5,0.3,"[3,1,2]",0.300492907,stimuli/card_100_transparent.png,100,14,0,14,0,1,,,,,,,,,,
,,,,65e62157b9362caf030786ab,B,2024-07-01_09h44.05.289,Slot Machine Game,2023.1.3,Win32,58.13953488,,,,,,,,,,,,,,,,,,,,,,,,,,,,,,,,,,,387.5414,,,,,,,,,,,,,,,,,,,,,,,,,,,,,,,,,[1400],0,0,0,0,1,,,,
,,,,65e62157b9362caf030786ab,B,2024-07-01_09h44.05.289,Slot Machine Game,2023.1.3,Win32,58.13953488,,,,,,,,,,,,,,,,,,,,,,,,,,,10,,,,,,,,,,,,,,,,,,,,,2,5,"[5,15]","[[1,2,3],[3,1,2]]",392.5551,0,up,0.2518,,1.5,0.3,"[1,2,3]",0.537795912,stimuli/card_10_transparent.png,10,0,0,0,0,1,,,,,,,,,,
,,,,65e62157b9362caf030786ab,B,2024-07-01_09h44.05.289,Slot Machine Game,2023.1.3,Win32,58.13953488,,,,,,,,,,,,,,,,,,,,,,,,,,,110,,,,,,,,,,,,,,,,,,,,,2,5,,,395.1239,1,left,0.7738,,0.5,0.3,"[1,2,3]",0.676120894,stimuli/card_100_transparent.png,100,1,0,1,0,1,,,,,,,,,,
,,,,65e62157b9362caf030786ab,B,2024-07-01_09h44.05.289,Slot Machine Game,2023.1.3,Win32,58.13953488,,,,,,,,,,,,,,,,,,,,,,,,,,,210,,,,,,,,,,,,,,,,,,,,,2,5,,,397.2234,2,left,0.1329,,1.5,0.3,"[1,2,3]",0.466874531,stimuli/card_100_transparent.png,100,2,0,2,0,1,,,,,,,,,,
,,,,65e62157b9362caf030786ab,B,2024-07-01_09h44.05.289,Slot Machine Game,2023.1.3,Win32,58.13953488,,,,,,,,,,,,,,,,,,,,,,,,,,,310,,,,,,,,,,,,,,,,,,,,,2,5,,,399.6901,3,left,3.1604,,1,0.3,"[1,2,3]",0.46747272,stimuli/card_100_transparent.png,100,3,0,3,0,1,,,,,,,,,,
,,,,65e62157b9362caf030786ab,B,2024-07-01_09h44.05.289,Slot Machine Game,2023.1.3,Win32,58.13953488,,,,,,,,,,,,,,,,,,,,,,,,,,,310,,,,,,,,,,,,,,,,,,,,,2,5,,,404.6726,4,left,0.5593,,1.5,0.3,"[1,2,3]",0.095920889,stimuli/card_0_transparent.png,0,4,0,4,0,1,,,,,,,,,,
,,,,65e62157b9362caf030786ab,B,2024-07-01_09h44.05.289,Slot Machine Game,2023.1.3,Win32,58.13953488,,,,,,,,,,,,,,,,,,,,,,,,,,,310,,,,,,,,,,,,,,,,,,,,,2,5,,,407.5392,5,left,1.8172,,1.5,0.3,"[3,1,2]",0.825724978,stimuli/card_0_transparent.png,0,5,0,5,0,1,,,,,,,,,,
,,,,65e62157b9362caf030786ab,B,2024-07-01_09h44.05.289,Slot Machine Game,2023.1.3,Win32,58.13953488,,,,,,,,,,,,,,,,,,,,,,,,,,,310,,,,,,,,,,,,,,,,,,,,,2,5,,,411.689,6,left,0.1561,,1.5,0.3,"[3,1,2]",0.702917653,stimuli/card_0_transparent.png,0,6,0,6,0,1,,,,,,,,,,
,,,,65e62157b9362caf030786ab,B,2024-07-01_09h44.05.289,Slot Machine Game,2023.1.3,Win32,58.13953488,,,,,,,,,,,,,,,,,,,,,,,,,,,410,,,,,,,,,,,,,,,,,,,,,2,5,,,414.1719,7,up,1.2164,,1,0.3,"[3,1,2]",0.49090429,stimuli/card_100_transparent.png,100,7,0,7,0,1,,,,,,,,,,
,,,,65e62157b9362caf030786ab,B,2024-07-01_09h44.05.289,Slot Machine Game,2023.1.3,Win32,58.13953488,,,,,,,,,,,,,,,,,,,,,,,,,,,510,,,,,,,,,,,,,,,,,,,,,2,5,,,417.2213,8,up,0.605,,1,0.3,"[3,1,2]",0.564665249,stimuli/card_100_transparent.png,100,8,0,8,0,1,,,,,,,,,,
,,,,65e62157b9362caf030786ab,B,2024-07-01_09h44.05.289,Slot Machine Game,2023.1.3,Win32,58.13953488,,,,,,,,,,,,,,,,,,,,,,,,,,,610,,,,,,,,,,,,,,,,,,,,,2,5,,,419.6546,9,up,0.6941,,1.5,0.3,"[3,1,2]",0.827820852,stimuli/card_100_transparent.png,100,9,0,9,0,1,,,,,,,,,,
,,,,65e62157b9362caf030786ab,B,2024-07-01_09h44.05.289,Slot Machine Game,2023.1.3,Win32,58.13953488,,,,,,,,,,,,,,,,,,,,,,,,,,,710,,,,,,,,,,,,,,,,,,,,,2,5,,,422.671,10,up,0.2194,,0.5,0.3,"[3,1,2]",0.683175352,stimuli/card_100_transparent.png,100,10,0,10,0,1,,,,,,,,,,
,,,,65e62157b9362caf030786ab,B,2024-07-01_09h44.05.289,Slot Machine Game,2023.1.3,Win32,58.13953488,,,,,,,,,,,,,,,,,,,,,,,,,,,810,,,,,,,,,,,,,,,,,,,,,2,5,,,424.221,11,up,0.4518,,1.5,0.3,"[3,1,2]",0.696275089,stimuli/card_100_transparent.png,100,11,0,11,0,1,,,,,,,,,,
,,,,65e62157b9362caf030786ab,B,2024-07-01_09h44.05.289,Slot Machine Game,2023.1.3,Win32,58.13953488,,,,,,,,,,,,,,,,,,,,,,,,,,,810,,,,,,,,,,,,,,,,,,,,,2,5,,,427.004,12,up,0.4445,,0.5,0.3,"[3,1,2]",0.045282317,stimuli/card_0_transparent.png,0,12,0,12,0,1,,,,,,,,,,
,,,,65e62157b9362caf030786ab,B,2024-07-01_09h44.05.289,Slot Machine Game,2023.1.3,Win32,58.13953488,,,,,,,,,,,,,,,,,,,,,,,,,,,910,,,,,,,,,,,,,,,,,,,,,2,5,,,428.7703,13,up,1.9985,,1.5,0.3,"[3,1,2]",0.816416193,stimuli/card_100_transparent.png,100,13,0,13,0,1,,,,,,,,,,
,,,,65e62157b9362caf030786ab,B,2024-07-01_09h44.05.289,Slot Machine Game,2023.1.3,Win32,58.13953488,,,,,,,,,,,,,,,,,,,,,,,,,,,1010,,,,,,,,,,,,,,,,,,,,,2,5,,,433.1033,14,up,0.5577,,1.5,0.3,"[3,1,2]",0.728955335,stimuli/card_100_transparent.png,100,14,0,14,0,1,,,,,,,,,,
,,,,65e62157b9362caf030786ab,B,2024-07-01_09h44.05.289,Slot Machine Game,2023.1.3,Win32,58.13953488,,,,,,,,,,,,,,,,,,,,,,,,,,,,,,,,,,,435.9861,,,,,,,,,,,,,,,,,,,,,,,,,,,,,,,,,"[1400,1010]",1,0,1,0,1,,,,
,,,,65e62157b9362caf030786ab,B,2024-07-01_09h44.05.289,Slot Machine Game,2023.1.3,Win32,58.13953488,,,,,,,,,,,,,,,,,,,,,,,,,,,100,,,,,,,,,,,,,,,,,,,,,3,9,"[8,15]","[[3,2,1],[3,1,2]]",441.0106,0,right,1.7525,,1.5,0.3,"[3,2,1]",0.221619651,stimuli/card_100_transparent.png,100,0,0,0,0,1,,,,,,,,,,
,,,,65e62157b9362caf030786ab,B,2024-07-01_09h44.05.289,Slot Machine Game,2023.1.3,Win32,58.13953488,,,,,,,,,,,,,,,,,,,,,,,,,,,200,,,,,,,,,,,,,,,,,,,,,3,9,,,445.0854,1,right,0.2006,,0.5,0.3,"[3,2,1]",0.941857435,stimuli/card_100_transparent.png,100,1,0,1,0,1,,,,,,,,,,
,,,,65e62157b9362caf030786ab,B,2024-07-01_09h44.05.289,Slot Machine Game,2023.1.3,Win32,58.13953488,,,,,,,,,,,,,,,,,,,,,,,,,,,200,,,,,,,,,,,,,,,,,,,,,3,9,,,446.6186,2,right,0.0584,,0.5,0.3,"[3,2,1]",0.062732095,stimuli/card_0_transparent.png,0,2,0,2,0,1,,,,,,,,,,
,,,,65e62157b9362caf030786ab,B,2024-07-01_09h44.05.289,Slot Machine Game,2023.1.3,Win32,58.13953488,,,,,,,,,,,,,,,,,,,,,,,,,,,300,,,,,,,,,,,,,,,,,,,,,3,9,,,448.0018,3,right,0.5671,,1,0.3,"[3,2,1]",0.904145459,stimuli/card_100_transparent.png,100,3,0,3,0,1,,,,,,,,,,
,,,,65e62157b9362caf030786ab,B,2024-07-01_09h44.05.289,Slot Machine Game,2023.1.3,Win32,58.13953488,,,,,,,,,,,,,,,,,,,,,,,,,,,400,,,,,,,,,,,,,,,,,,,,,3,9,,,450.4015,4,right,0.368,,0.5,0.3,"[3,2,1]",0.415995819,stimuli/card_100_transparent.png,100,4,0,4,0,1,,,,,,,,,,
,,,,65e62157b9362caf030786ab,B,2024-07-01_09h44.05.289,Slot Machine Game,2023.1.3,Win32,58.13953488,,,,,,,,,,,,,,,,,,,,,,,,,,,500,,,,,,,,,,,,,,,,,,,,,3,9,,,452.1014,5,right,0.2839,,1,0.3,"[3,2,1]",0.210084528,stimuli/card_100_transparent.png,100,5,0,5,0,1,,,,,,,,,,
,,,,65e62157b9362caf030786ab,B,2024-07-01_09h44.05.289,Slot Machine Game,2023.1.3,Win32,58.13953488,,,,,,,,,,,,,,,,,,,,,,,,,,,510,,,,,,,,,,,,,,,,,,,,,3,9,,,454.2178,6,right,0.1266,,1.5,0.3,"[3,2,1]",0.149496058,stimuli/card_10_transparent.png,10,6,0,6,0,1,,,,,,,,,,
,,,,65e62157b9362caf030786ab,B,2024-07-01_09h44.05.289,Slot Machine Game,2023.1.3,Win32,58.13953488,,,,,,,,,,,,,,,,,,,,,,,,,,,520,,,,,,,,,,,,,,,,,,,,,3,9,,,456.6676,7,right,0.8073,,1.5,0.3,"[3,2,1]",0.165977929,stimuli/card_10_transparent.png,10,7,0,7,0,1,,,,,,,,,,
,,,,65e62157b9362caf030786ab,B,2024-07-01_09h44.05.289,Slot Machine Game,2023.1.3,Win32,58.13953488,,,,,,,,,,,,,,,,,,,,,,,,,,,620,,,,,,,,,,,,,,,,,,,,,3,9,,,459.8007,8,left,1.169,,1.5,0.3,"[3,1,2]",0.018537854,stimuli/card_100_transparent.png,100,8,0,8,0,1,,,,,,,,,,
,,,,65e62157b9362caf030786ab,B,2024-07-01_09h44.05.289,Slot Machine Game,2023.1.3,Win32,58.13953488,,,,,,,,,,,,,,,,,,,,,,,,,,,620,,,,,,,,,,,,,,,,,,,,,3,9,,,463.3004,9,left,0.5079,,0.5,0.3,"[3,1,2]",0.478767214,stimuli/card_0_transparent.png,0,9,0,9,0,1,,,,,,,,,,
,,,,65e62157b9362caf030786ab,B,2024-07-01_09h44.05.289,Slot Machine Game,2023.1.3,Win32,58.13953488,,,,,,,,,,,,,,,,,,,,,,,,,,,620,,,,,,,,,,,,,,,,,,,,,3,9,,,465.1334,10,left,0.2906,,0.5,0.3,"[3,1,2]",0.644762967,stimuli/card_0_transparent.png,0,10,0,10,0,1,,,,,,,,,,
,,,,65e62157b9362caf030786ab,B,2024-07-01_09h44.05.289,Slot Machine Game,2023.1.3,Win32,58.13953488,,,,,,,,,,,,,,,,,,,,,,,,,,,720,,,,,,,,,,,,,,,,,,,,,3,9,,,466.7499,11,up,0.1047,,1.5,0.3,"[3,1,2]",0.481476313,stimuli/card_100_transparent.png,100,11,0,11,0,1,,,,,,,,,,
,,,,65e62157b9362caf030786ab,B,2024-07-01_09h44.05.289,Slot Machine Game,2023.1.3,Win32,58.13953488,,,,,,,,,,,,,,,,,,,,,,,,,,,820,,,,,,,,,,,,,,,,,,,,,3,9,,,469.1829,12,up,0.5863,,1,0.3,"[3,1,2]",0.840101855,stimuli/card_100_transparent.png,100,12,0,12,0,1,,,,,,,,,,
,,,,65e62157b9362caf030786ab,B,2024-07-01_09h44.05.289,Slot Machine Game,2023.1.3,Win32,58.13953488,,,,,,,,,,,,,,,,,,,,,,,,,,,920,,,,,,,,,,,,,,,,,,,,,3,9,,,471.5995,13,up,0.3055,,0.5,0.3,"[3,1,2]",0.60093597,stimuli/card_100_transparent.png,100,13,0,13,0,1,,,,,,,,,,
,,,,65e62157b9362caf030786ab,B,2024-07-01_09h44.05.289,Slot Machine Game,2023.1.3,Win32,58.13953488,,,,,,,,,,,,,,,,,,,,,,,,,,,1020,,,,,,,,,,,,,,,,,,,,,3,9,,,473.2322,14,up,0.5671,,1,0.3,"[3,1,2]",0.549640364,stimuli/card_100_transparent.png,100,14,0,14,0,1,,,,,,,,,,
,,,,65e62157b9362caf030786ab,B,2024-07-01_09h44.05.289,Slot Machine Game,2023.1.3,Win32,58.13953488,,,,,,,,,,,,,,,,,,,,,,,,,,,,,,,,,,,475.6159,,,,,,,,,,,,,,,,,,,,,,,,,,,,,,,,,"[1400,1010,1020]",2,0,2,0,1,,,,
,,,,65e62157b9362caf030786ab,B,2024-07-01_09h44.05.289,Slot Machine Game,2023.1.3,Win32,58.13953488,,,,,,,,,,,,,,,,,,,,,,,,,,,0,,,,,,,,,,,,,,,,,,,,,4,1,"[12,15]","[[2,1,3],[2,3,1]]",480.6397,0,right,1.2842,,1,0.3,"[2,1,3]",0.990409626,stimuli/card_0_transparent.png,0,0,0,0,0,1,,,,,,,,,,
,,,,65e62157b9362caf030786ab,B,2024-07-01_09h44.05.289,Slot Machine Game,2023.1.3,Win32,58.13953488,,,,,,,,,,,,,,,,,,,,,,,,,,,0,,,,,,,,,,,,,,,,,,,,,4,1,,,483.7483,1,right,1.1669,,0.5,0.3,"[2,1,3]",0.511182805,stimuli/card_0_transparent.png,0,1,0,1,0,1,,,,,,,,,,
,,,,65e62157b9362caf030786ab,B,2024-07-01_09h44.05.289,Slot Machine Game,2023.1.3,Win32,58.13953488,,,,,,,,,,,,,,,,,,,,,,,,,,,0,,,,,,,,,,,,,,,,,,,,,4,1,,,486.248,2,up,1.5261,,1.5,0.3,"[2,1,3]",0.051091129,stimuli/card_0_transparent.png,0,2,0,2,0,1,,,,,,,,,,
,,,,65e62157b9362caf030786ab,B,2024-07-01_09h44.05.289,Slot Machine Game,2023.1.3,Win32,58.13953488,,,,,,,,,,,,,,,,,,,,,,,,,,,10,,,,,,,,,,,,,,,,,,,,,4,1,,,490.0975,3,left,0.309,,0.5,0.3,"[2,1,3]",0.214048997,stimuli/card_10_transparent.png,10,3,0,3,0,1,,,,,,,,,,
,,,,65e62157b9362caf030786ab,B,2024-07-01_09h44.05.289,Slot Machine Game,2023.1.3,Win32,58.13953488,,,,,,,,,,,,,,,,,,,,,,,,,,,110,,,,,,,,,,,,,,,,,,,,,4,1,,,491.7306,4,up,2.3905,,1.5,0.3,"[2,1,3]",0.536444246,stimuli/card_100_transparent.png,100,4,0,4,0,1,,,,,,,,,,
,,,,65e62157b9362caf030786ab,B,2024-07-01_09h44.05.289,Slot Machine Game,2023.1.3,Win32,58.13953488,,,,,,,,,,,,,,,,,,,,,,,,,,,210,,,,,,,,,,,,,,,,,,,,,4,1,,,496.4469,5,up,0.2343,,0.5,0.3,"[2,1,3]",0.907381073,stimuli/card_100_transparent.png,100,5,0,5,0,1,,,,,,,,,,
,,,,65e62157b9362caf030786ab,B,2024-07-01_09h44.05.289,Slot Machine Game,2023.1.3,Win32,58.13953488,,,,,,,,,,,,,,,,,,,,,,,,,,,310,,,,,,,,,,,,,,,,,,,,,4,1,,,498.0136,6,up,0.3836,,1.5,0.3,"[2,1,3]",0.274760732,stimuli/card_100_transparent.png,100,6,0,6,0,1,,,,,,,,,,
,,,,65e62157b9362caf030786ab,B,2024-07-01_09h44.05.289,Slot Machine Game,2023.1.3,Win32,58.13953488,,,,,,,,,,,,,,,,,,,,,,,,,,,410,,,,,,,,,,,,,,,,,,,,,4,1,,,500.7301,7,up,0.5715,,1,0.3,"[2,1,3]",0.277619538,stimuli/card_100_transparent.png,100,7,0,7,0,1,,,,,,,,,,
,,,,65e62157b9362caf030786ab,B,2024-07-01_09h44.05.289,Slot Machine Game,2023.1.3,Win32,58.13953488,,,,,,,,,,,,,,,,,,,,,,,,,,,510,,,,,,,,,,,,,,,,,,,,,4,1,,,503.1299,8,up,0.236,,1.5,0.3,"[2,1,3]",0.264073829,stimuli/card_100_transparent.png,100,8,0,8,0,1,,,,,,,,,,
,,,,65e62157b9362caf030786ab,B,2024-07-01_09h44.05.289,Slot Machine Game,2023.1.3,Win32,58.13953488,,,,,,,,,,,,,,,,,,,,,,,,,,,610,,,,,,,,,,,,,,,,,,,,,4,1,,,505.6962,9,up,0.3244,,1.5,0.3,"[2,1,3]",0.908621131,stimuli/card_100_transparent.png,100,9,0,9,0,1,,,,,,,,,,
,,,,65e62157b9362caf030786ab,B,2024-07-01_09h44.05.289,Slot Machine Game,2023.1.3,Win32,58.13953488,,,,,,,,,,,,,,,,,,,,,,,,,,,710,,,,,,,,,,,,,,,,,,,,,4,1,,,508.3461,10,up,0.4839,,1.5,0.3,"[2,1,3]",0.302386571,stimuli/card_100_transparent.png,100,10,0,10,0,1,,,,,,,,,,
,,,,65e62157b9362caf030786ab,B,2024-07-01_09h44.05.289,Slot Machine Game,2023.1.3,Win32,58.13953488,,,,,,,,,,,,,,,,,,,,,,,,,,,810,,,,,,,,,,,,,,,,,,,,,4,1,,,511.1623,11,up,0.2339,,1,0.3,"[2,1,3]",0.350525791,stimuli/card_100_transparent.png,100,11,0,11,0,1,,,,,,,,,,
,,,,65e62157b9362caf030786ab,B,2024-07-01_09h44.05.289,Slot Machine Game,2023.1.3,Win32,58.13953488,,,,,,,,,,,,,,,,,,,,,,,,,,,810,,,,,,,,,,,,,,,,,,,,,4,1,,,513.2288,12,up,0.2716,,1,0.3,"[2,3,1]",0.994202286,stimuli/card_0_transparent.png,0,12,0,12,0,1,,,,,,,,,,
,,,,65e62157b9362caf030786ab,B,2024-07-01_09h44.05.289,Slot Machine Game,2023.1.3,Win32,58.13953488,,,,,,,,,,,,,,,,,,,,,,,,,,,810,,,,,,,,,,,,,,,,,,,,,4,1,,,515.3286,13,up,0.9933,,1,0.3,"[2,3,1]",0.216843408,stimuli/card_0_transparent.png,0,13,0,13,0,1,,,,,,,,,,
,,,,65e62157b9362caf030786ab,B,2024-07-01_09h44.05.289,Slot Machine Game,2023.1.3,Win32,58.13953488,,,,,,,,,,,,,,,,,,,,,,,,,,,820,,,,,,,,,,,,,,,,,,,,,4,1,,,518.145,14,left,0.4194,,1,0.3,"[2,3,1]",0.603124758,stimuli/card_10_transparent.png,10,14,0,14,0,1,,,,,,,,,,
,,,,65e62157b9362caf030786ab,B,2024-07-01_09h44.05.289,Slot Machine Game,2023.1.3,Win32,58.13953488,,,,,,,,,,,,,,,,,,,,,,,,,,,,,,,,,,,520.3947,,,,,,,,,,,,,,,,,,,,,,,,,,,,,,,,,"[1400,1010,1020,820]",3,0,3,0,1,,,,
,,,,65e62157b9362caf030786ab,B,2024-07-01_09h44.05.289,Slot Machine Game,2023.1.3,Win32,58.13953488,,,,,,,,,,,,,,,,,,,,,,,,,,,100,,,,,,,,,,,,,,,,,,,,,5,2,"[6,15]","[[1,3,2],[3,2,1]]",525.4189,0,right,2.1672,,1,0.3,"[1,3,2]",0.101521483,stimuli/card_100_transparent.png,100,0,0,0,0,1,,,,,,,,,,
,,,,65e62157b9362caf030786ab,B,2024-07-01_09h44.05.289,Slot Machine Game,2023.1.3,Win32,58.13953488,,,,,,,,,,,,,,,,,,,,,,,,,,,110,,,,,,,,,,,,,,,,,,,,,5,2,,,529.4105,1,right,0.0676,,1,0.3,"[1,3,2]",0.911990933,stimuli/card_10_transparent.png,10,1,0,1,0,1,,,,,,,,,,
,,,,65e62157b9362caf030786ab,B,2024-07-01_09h44.05.289,Slot Machine Game,2023.1.3,Win32,58.13953488,,,,,,,,,,,,,,,,,,,,,,,,,,,210,,,,,,,,,,,,,,,,,,,,,5,2,,,531.3098,2,right,0.0278,,1,0.3,"[1,3,2]",0.16706093,stimuli/card_100_transparent.png,100,2,0,2,0,1,,,,,,,,,,
,,,,65e62157b9362caf030786ab,B,2024-07-01_09h44.05.289,Slot Machine Game,2023.1.3,Win32,58.13953488,,,,,,,,,,,,,,,,,,,,,,,,,,,220,,,,,,,,,,,,,,,,,,,,,5,2,,,533.1434,3,right,0.2024,,1,0.3,"[1,3,2]",0.880332666,stimuli/card_10_transparent.png,10,3,0,3,0,1,,,,,,,,,,
,,,,65e62157b9362caf030786ab,B,2024-07-01_09h44.05.289,Slot Machine Game,2023.1.3,Win32,58.13953488,,,,,,,,,,,,,,,,,,,,,,,,,,,230,,,,,,,,,,,,,,,,,,,,,5,2,,,535.1764,4,right,0.224,,0.5,0.3,"[1,3,2]",0.811264659,stimuli/card_10_transparent.png,10,4,0,4,0,1,,,,,,,,,,
,,,,65e62157b9362caf030786ab,B,2024-07-01_09h44.05.289,Slot Machine Game,2023.1.3,Win32,58.13953488,,,,,,,,,,,,,,,,,,,,,,,,,,,230,,,,,,,,,,,,,,,,,,,,,5,2,,,536.726,5,up,2.0403,,1,0.3,"[1,3,2]",0.369225407,stimuli/card_0_transparent.png,0,5,0,5,0,1,,,,,,,,,,
,,,,65e62157b9362caf030786ab,B,2024-07-01_09h44.05.289,Slot Machine Game,2023.1.3,Win32,58.13953488,,,,,,,,,,,,,,,,,,,,,,,,,,,240,,,,,,,,,,,,,,,,,,,,,5,2,,,540.5925,6,up,1.1349,,1,0.3,"[3,2,1]",0.476824941,stimuli/card_10_transparent.png,10,6,0,6,0,1,,,,,,,,,,
,,,,65e62157b9362caf030786ab,B,2024-07-01_09h44.05.289,Slot Machine Game,2023.1.3,Win32,58.13953488,,,,,,,,,,,,,,,,,,,,,,,,,,,240,,,,,,,,,,,,,,,,,,,,,5,2,,,543.5591,7,left,0.0089,,1,0.3,"[3,2,1]",0.771059262,stimuli/card_0_transparent.png,0,7,0,7,0,1,,,,,,,,,,
,,,,65e62157b9362caf030786ab,B,2024-07-01_09h44.05.289,Slot Machine Game,2023.1.3,Win32,58.13953488,,,,,,,,,,,,,,,,,,,,,,,,,,,240,,,,,,,,,,,,,,,,,,,,,5,2,,,545.3915,8,left,0.4509,,1.5,0.3,"[3,2,1]",0.428884548,stimuli/card_0_transparent.png,0,8,0,8,0,1,,,,,,,,,,
,,,,65e62157b9362caf030786ab,B,2024-07-01_09h44.05.289,Slot Machine Game,2023.1.3,Win32,58.13953488,,,,,,,,,,,,,,,,,,,,,,,,,,,340,,,,,,,,,,,,,,,,,,,,,5,2,,,548.1751,9,right,2.5535,,1.5,0.3,"[3,2,1]",0.349819174,stimuli/card_100_transparent.png,100,9,0,9,0,1,,,,,,,,,,
,,,,65e62157b9362caf030786ab,B,2024-07-01_09h44.05.289,Slot Machine Game,2023.1.3,Win32,58.13953488,,,,,,,,,,,,,,,,,,,,,,,,,,,440,,,,,,,,,,,,,,,,,,,,,5,2,,,553.0579,10,right,0.8501,,1.5,0.3,"[3,2,1]",0.304700486,stimuli/card_100_transparent.png,100,10,0,10,0,1,,,,,,,,,,
,,,,65e62157b9362caf030786ab,B,2024-07-01_09h44.05.289,Slot Machine Game,2023.1.3,Win32,58.13953488,,,,,,,,,,,,,,,,,,,,,,,,,,,540,,,,,,,,,,,,,,,,,,,,,5,2,,,556.241,11,right,0.694,,1,0.3,"[3,2,1]",0.429514496,stimuli/card_100_transparent.png,100,11,0,11,0,1,,,,,,,,,,
,,,,65e62157b9362caf030786ab,B,2024-07-01_09h44.05.289,Slot Machine Game,2023.1.3,Win32,58.13953488,,,,,,,,,,,,,,,,,,,,,,,,,,,640,,,,,,,,,,,,,,,,,,,,,5,2,,,558.7573,12,right,0.2584,,1,0.3,"[3,2,1]",0.665578053,stimuli/card_100_transparent.png,100,12,0,12,0,1,,,,,,,,,,
,,,,65e62157b9362caf030786ab,B,2024-07-01_09h44.05.289,Slot Machine Game,2023.1.3,Win32,58.13953488,,,,,,,,,,,,,,,,,,,,,,,,,,,740,,,,,,,,,,,,,,,,,,,,,5,2,,,560.8406,13,right,0.1437,,1,0.3,"[3,2,1]",0.425919963,stimuli/card_100_transparent.png,100,13,0,13,0,1,,,,,,,,,,
,,,,65e62157b9362caf030786ab,B,2024-07-01_09h44.05.289,Slot Machine Game,2023.1.3,Win32,58.13953488,,,,,,,,,,,,,,,,,,,,,,,,,,,840,,,,,,,,,,,,,,,,,,,,,5,2,,,562.8067,14,right,3.1846,,1.5,0.3,"[3,2,1]",0.822562157,stimuli/card_100_transparent.png,100,14,0,14,0,1,,,,,,,,,,
,,,,65e62157b9362caf030786ab,B,2024-07-01_09h44.05.289,Slot Machine Game,2023.1.3,Win32,58.13953488,,,,,,,,,,,,,,,,,,,,,,,,,,,,,,,,,,,568.3232,,,,,,,,,,,,,,,,,,,,,,,,,,,,,,,,,"[1400,1010,1020,820,840]",4,0,4,0,1,,,,
,,,,65e62157b9362caf030786ab,B,2024-07-01_09h44.05.289,Slot Machine Game,2023.1.3,Win32,58.13953488,,,,,,,,,,,,,,,,,,,,,,,,,,,10,,,,,,,,,,,,,,,,,,,,,6,4,"[7,15]","[[2,3,1],[1,2,3]]",573.3474,0,left,0.172,,1,0.3,"[2,3,1]",0.61251651,stimuli/card_10_transparent.png,10,0,0,0,0,1,,,,,,,,,,
,,,,65e62157b9362caf030786ab,B,2024-07-01_09h44.05.289,Slot Machine Game,2023.1.3,Win32,58.13953488,,,,,,,,,,,,,,,,,,,,,,,,,,,20,,,,,,,,,,,,,,,,,,,,,6,4,,,575.3391,1,left,0.42,,1,0.3,"[2,3,1]",0.259127303,stimuli/card_10_transparent.png,10,1,0,1,0,1,,,,,,,,,,
,,,,65e62157b9362caf030786ab,B,2024-07-01_09h44.05.289,Slot Machine Game,2023.1.3,Win32,58.13953488,,,,,,,,,,,,,,,,,,,,,,,,,,,20,,,,,,,,,,,,,,,,,,,,,6,4,,,577.5888,2,up,2.3927,,1,0.3,"[2,3,1]",0.506643146,stimuli/card_0_transparent.png,0,2,0,2,0,1,,,,,,,,,,
,,,,65e62157b9362caf030786ab,B,2024-07-01_09h44.05.289,Slot Machine Game,2023.1.3,Win32,58.13953488,,,,,,,,,,,,,,,,,,,,,,,,,,,20,,,,,,,,,,,,,,,,,,,,,6,4,,,581.8049,3,up,1.958,,0.5,0.3,"[2,3,1]",0.759238845,stimuli/card_0_transparent.png,0,3,0,3,0,1,,,,,,,,,,
,,,,65e62157b9362caf030786ab,B,2024-07-01_09h44.05.289,Slot Machine Game,2023.1.3,Win32,58.13953488,,,,,,,,,,,,,,,,,,,,,,,,,,,120,,,,,,,,,,,,,,,,,,,,,6,4,,,585.0878,4,right,0.1839,,1,0.3,"[2,3,1]",0.565862555,stimuli/card_100_transparent.png,100,4,0,4,0,1,,,,,,,,,,
,,,,65e62157b9362caf030786ab,B,2024-07-01_09h44.05.289,Slot Machine Game,2023.1.3,Win32,58.13953488,,,,,,,,,,,,,,,,,,,,,,,,,,,220,,,,,,,,,,,,,,,,,,,,,6,4,,,587.1047,5,right,0.2528,,0.5,0.3,"[2,3,1]",0.426487913,stimuli/card_100_transparent.png,100,5,0,5,0,1,,,,,,,,,,
,,,,65e62157b9362caf030786ab,B,2024-07-01_09h44.05.289,Slot Machine Game,2023.1.3,Win32,58.13953488,,,,,,,,,,,,,,,,,,,,,,,,,,,320,,,,,,,,,,,,,,,,,,,,,6,4,,,588.6876,6,right,0.0887,,0.5,0.3,"[2,3,1]",0.992795089,stimuli/card_100_transparent.png,100,6,0,6,0,1,,,,,,,,,,
,,,,65e62157b9362caf030786ab,B,2024-07-01_09h44.05.289,Slot Machine Game,2023.1.3,Win32,58.13953488,,,,,,,,,,,,,,,,,,,,,,,,,,,320,,,,,,,,,,,,,,,,,,,,,6,4,,,590.1043,7,right,0.2006,,1.5,0.3,"[1,2,3]",0.692168553,stimuli/card_0_transparent.png,0,7,0,7,0,1,,,,,,,,,,
,,,,65e62157b9362caf030786ab,B,2024-07-01_09h44.05.289,Slot Machine Game,2023.1.3,Win32,58.13953488,,,,,,,,,,,,,,,,,,,,,,,,,,,320,,,,,,,,,,,,,,,,,,,,,6,4,,,592.6372,8,right,1.2415,,1.5,0.3,"[1,2,3]",0.437712219,stimuli/card_0_transparent.png,0,8,0,8,0,1,,,,,,,,,,
,,,,65e62157b9362caf030786ab,B,2024-07-01_09h44.05.289,Slot Machine Game,2023.1.3,Win32,58.13953488,,,,,,,,,,,,,,,,,,,,,,,,,,,320,,,,,,,,,,,,,,,,,,,,,6,4,,,596.2036,9,right,1.3684,,0.5,0.3,"[1,2,3]",0.632387034,stimuli/card_0_transparent.png,0,9,0,9,0,1,,,,,,,,,,
,,,,65e62157b9362caf030786ab,B,2024-07-01_09h44.05.289,Slot Machine Game,2023.1.3,Win32,58.13953488,,,,,,,,,,,,,,,,,,,,,,,,,,,420,,,,,,,,,,,,,,,,,,,,,6,4,,,598.9036,10,up,0.6896,,0.5,0.3,"[1,2,3]",0.156621543,stimuli/card_100_transparent.png,100,10,0,10,0,1,,,,,,,,,,
,,,,65e62157b9362caf030786ab,B,2024-07-01_09h44.05.289,Slot Machine Game,2023.1.3,Win32,58.13953488,,,,,,,,,,,,,,,,,,,,,,,,,,,430,,,,,,,,,,,,,,,,,,,,,6,4,,,600.9199,11,up,0.2357,,1,0.3,"[1,2,3]",0.420937679,stimuli/card_10_transparent.png,10,11,0,11,0,1,,,,,,,,,,
,,,,65e62157b9362caf030786ab,B,2024-07-01_09h44.05.289,Slot Machine Game,2023.1.3,Win32,58.13953488,,,,,,,,,,,,,,,,,,,,,,,,,,,440,,,,,,,,,,,,,,,,,,,,,6,4,,,602.9862,12,up,0.3174,,0.5,0.3,"[1,2,3]",0.688738346,stimuli/card_10_transparent.png,10,12,0,12,0,1,,,,,,,,,,
,,,,65e62157b9362caf030786ab,B,2024-07-01_09h44.05.289,Slot Machine Game,2023.1.3,Win32,58.13953488,,,,,,,,,,,,,,,,,,,,,,,,,,,450,,,,,,,,,,,,,,,,,,,,,6,4,,,604.6362,13,up,0.9364,,1.5,0.3,"[1,2,3]",0.58614945,stimuli/card_10_transparent.png,10,13,0,13,0,1,,,,,,,,,,
,,,,65e62157b9362caf030786ab,B,2024-07-01_09h44.05.289,Slot Machine Game,2023.1.3,Win32,58.13953488,,,,,,,,,,,,,,,,,,,,,,,,,,,550,,,,,,,,,,,,,,,,,,,,,6,4,,,607.9026,14,left,0.0219,,1,0.3,"[1,2,3]",0.995041248,stimuli/card_100_transparent.png,100,14,0,14,0,1,,,,,,,,,,
,,,,65e62157b9362caf030786ab,B,2024-07-01_09h44.05.289,Slot Machine Game,2023.1.3,Win32,58.13953488,,,,,,,,,,,,,,,,,,,,,,,,,,,,,,,,,,,609.7525,,,,,,,,,,,,,,,,,,,,,,,,,,,,,,,,,"[1400,1010,1020,820,840,550]",5,0,5,0,1,,,,
,,,,65e62157b9362caf030786ab,B,2024-07-01_09h44.05.289,Slot Machine Game,2023.1.3,Win32,58.13953488,,,,,,,,,,,,,,,,,,,,,,,,,,,,,,,,,,,,,,,,,,,,,,,,7,10,"[10,15]","[[3,1,2],[1,3,2]]",614.7786,0,,,,0.5,0.3,,,,,0,0,0,0,1,,,,,,,,,,
,,,,65e62157b9362caf030786ab,B,2024-07-01_09h44.05.289,Slot Machine Game,2023.1.3,Win32,58.13953488,,,,,,,,,,,,,,,,,,,,,,,,,,,100,,,,,,,,,,,,,,,,,,,,,7,10,,,620.2885,1,up,1.3986,,1,0.3,"[3,1,2]",0.482565768,stimuli/card_100_transparent.png,100,1,0,1,0,1,,,,,,,,,,
,,,,65e62157b9362caf030786ab,B,2024-07-01_09h44.05.289,Slot Machine Game,2023.1.3,Win32,58.13953488,,,,,,,,,,,,,,,,,,,,,,,,,,,200,,,,,,,,,,,,,,,,,,,,,7,10,,,623.5176,2,up,0.194,,0.5,0.3,"[3,1,2]",0.952972979,stimuli/card_100_transparent.png,100,2,0,2,0,1,,,,,,,,,,
,,,,65e62157b9362caf030786ab,B,2024-07-01_09h44.05.289,Slot Machine Game,2023.1.3,Win32,58.13953488,,,,,,,,,,,,,,,,,,,,,,,,,,,300,,,,,,,,,,,,,,,,,,,,,7,10,,,625.0341,3,up,0.0067,,1.5,0.3,"[3,1,2]",0.891417844,stimuli/card_100_transparent.png,100,3,0,3,0,1,,,,,,,,,,
,,,,65e62157b9362caf030786ab,B,2024-07-01_09h44.05.289,Slot Machine Game,2023.1.3,Win32,58.13953488,,,,,,,,,,,,,,,,,,,,,,,,,,,400,,,,,,,,,,,,,,,,,,,,,7,10,,,627.367,4,up,1.3505,,1.5,0.3,"[3,1,2]",0.417111549,stimuli/card_100_transparent.png,100,4,0,4,0,1,,,,,,,,,,
,,,,65e62157b9362caf030786ab,B,2024-07-01_09h44.05.289,Slot Machine Game,2023.1.3,Win32,58.13953488,,,,,,,,,,,,,,,,,,,,,,,,,,,500,,,,,,,,,,,,,,,,,,,,,7,10,,,631.0503,5,up,0.2567,,0.5,0.3,"[3,1,2]",0.578159322,stimuli/card_100_transparent.png,100,5,0,5,0,1,,,,,,,,,,
,,,,65e62157b9362caf030786ab,B,2024-07-01_09h44.05.289,Slot Machine Game,2023.1.3,Win32,58.13953488,,,,,,,,,,,,,,,,,,,,,,,,,,,600,,,,,,,,,,,,,,,,,,,,,7,10,,,632.6335,6,up,0.0422,,0.5,0.3,"[3,1,2]",0.374721263,stimuli/card_100_transparent.png,100,6,0,6,0,1,,,,,,,,,,
,,,,65e62157b9362caf030786ab,B,2024-07-01_09h44.05.289,Slot Machine Game,2023.1.3,Win32,58.13953488,,,,,,,,,,,,,,,,,,,,,,,,,,,600,,,,,,,,,,,,,,,,,,,,,7,10,,,633.9999,7,up,0.794,,0.5,0.3,"[3,1,2]",0.011092594,stimuli/card_0_transparent.png,0,7,0,7,0,1,,,,,,,,,,
,,,,65e62157b9362caf030786ab,B,2024-07-01_09h44.05.289,Slot Machine Game,2023.1.3,Win32,58.13953488,,,,,,,,,,,,,,,,,,,,,,,,,,,700,,,,,,,,,,,,,,,,,,,,,7,10,,,636.1161,8,up,0.327,,1,0.3,"[3,1,2]",0.80495727,stimuli/card_100_transparent.png,100,8,0,8,0,1,,,,,,,,,,
,,,,65e62157b9362caf030786ab,B,2024-07-01_09h44.05.289,Slot Machine Game,2023.1.3,Win32,58.13953488,,,,,,,,,,,,,,,,,,,,,,,,,,,700,,,,,,,,,,,,,,,,,,,,,7,10,,,638.2507,9,up,0.2891,,0.5,0.3,"[3,1,2]",0.071324338,stimuli/card_0_transparent.png,0,9,0,9,0,1,,,,,,,,,,
,,,,65e62157b9362caf030786ab,B,2024-07-01_09h44.05.289,Slot Machine Game,2023.1.3,Win32,58.13953488,,,,,,,,,,,,,,,,,,,,,,,,,,,700,,,,,,,,,,,,,,,,,,,,,7,10,,,639.8654,10,up,0.642,,0.5,0.3,"[1,3,2]",0.694316815,stimuli/card_0_transparent.png,0,10,0,10,0,1,,,,,,,,,,
,,,,65e62157b9362caf030786ab,B,2024-07-01_09h44.05.289,Slot Machine Game,2023.1.3,Win32,58.13953488,,,,,,,,,,,,,,,,,,,,,,,,,,,700,,,,,,,,,,,,,,,,,,,,,7,10,,,641.8158,11,up,0.3006,,1.5,0.3,"[1,3,2]",0.66967328,stimuli/card_0_transparent.png,0,11,0,11,0,1,,,,,,,,,,
,,,,65e62157b9362caf030786ab,B,2024-07-01_09h44.05.289,Slot Machine Game,2023.1.3,Win32,58.13953488,,,,,,,,,,,,,,,,,,,,,,,,,,,800,,,,,,,,,,,,,,,,,,,,,7,10,,,644.4489,12,right,0.2207,,1,0.3,"[1,3,2]",0.186976428,stimuli/card_100_transparent.png,100,12,0,12,0,1,,,,,,,,,,
,,,,65e62157b9362caf030786ab,B,2024-07-01_09h44.05.289,Slot Machine Game,2023.1.3,Win32,58.13953488,,,,,,,,,,,,,,,,,,,,,,,,,,,810,,,,,,,,,,,,,,,,,,,,,7,10,,,646.4983,13,right,0.5173,,1.5,0.3,"[1,3,2]",0.594539765,stimuli/card_10_transparent.png,10,13,0,13,0,1,,,,,,,,,,
,,,,65e62157b9362caf030786ab,B,2024-07-01_09h44.05.289,Slot Machine Game,2023.1.3,Win32,58.13953488,,,,,,,,,,,,,,,,,,,,,,,,,,,820,,,,,,,,,,,,,,,,,,,,,7,10,,,649.3317,14,right,1.0456,,1,0.3,"[1,3,2]",0.621166539,stimuli/card_10_transparent.png,10,14,0,14,0,1,,,,,,,,,,
,,,,65e62157b9362caf030786ab,B,2024-07-01_09h44.05.289,Slot Machine Game,2023.1.3,Win32,58.13953488,,,,,,,,,,,,,,,,,,,,,,,,,,,,,,,,,,,652.1981,,,,,,,,,,,,,,,,,,,,,,,,,,,,,,,,,"[1400,1010,1020,820,840,550,820]",6,0,6,0,1,,,,
,,,,65e62157b9362caf030786ab,B,2024-07-01_09h44.05.289,Slot Machine Game,2023.1.3,Win32,58.13953488,,,,,,,,,,,,,,,,,,,,,,,,,,,100,,,,,,,,,,,,,,,,,,,,,8,7,"[9,15]","[[1,3,2],[2,3,1]]",657.2083,0,left,0.4044,,1.5,0.3,"[1,3,2]",0.610102626,stimuli/card_100_transparent.png,100,0,0,0,0,1,,,,,,,,,,
,,,,65e62157b9362caf030786ab,B,2024-07-01_09h44.05.289,Slot Machine Game,2023.1.3,Win32,58.13953488,,,,,,,,,,,,,,,,,,,,,,,,,,,200,,,,,,,,,,,,,,,,,,,,,8,7,,,659.9303,1,left,0.0003,,1.5,0.3,"[1,3,2]",0.615174035,stimuli/card_100_transparent.png,100,1,0,1,0,1,,,,,,,,,,
,,,,65e62157b9362caf030786ab,B,2024-07-01_09h44.05.289,Slot Machine Game,2023.1.3,Win32,58.13953488,,,,,,,,,,,,,,,,,,,,,,,,,,,300,,,,,,,,,,,,,,,,,,,,,8,7,,,662.2638,2,left,1.4671,,1,0.3,"[1,3,2]",0.937532301,stimuli/card_100_transparent.png,100,2,0,2,0,1,,,,,,,,,,
,,,,65e62157b9362caf030786ab,B,2024-07-01_09h44.05.289,Slot Machine Game,2023.1.3,Win32,58.13953488,,,,,,,,,,,,,,,,,,,,,,,,,,,300,,,,,,,,,,,,,,,,,,,,,8,7,,,665.5635,3,left,0.519,,1.5,0.3,"[1,3,2]",0.097329633,stimuli/card_0_transparent.png,0,3,0,3,0,1,,,,,,,,,,
,,,,65e62157b9362caf030786ab,B,2024-07-01_09h44.05.289,Slot Machine Game,2023.1.3,Win32,58.13953488,,,,,,,,,,,,,,,,,,,,,,,,,,,400,,,,,,,,,,,,,,,,,,,,,8,7,,,668.4131,4,left,1.0398,,1,0.3,"[1,3,2]",0.580332277,stimuli/card_100_transparent.png,100,4,0,4,0,1,,,,,,,,,,
,,,,65e62157b9362caf030786ab,B,2024-07-01_09h44.05.289,Slot Machine Game,2023.1.3,Win32,58.13953488,,,,,,,,,,,,,,,,,,,,,,,,,,,500,,,,,,,,,,,,,,,,,,,,,8,7,,,671.2793,5,left,0.5188,,0.5,0.3,"[1,3,2]",0.952231226,stimuli/card_100_transparent.png,100,5,0,5,0,1,,,,,,,,,,
,,,,65e62157b9362caf030786ab,B,2024-07-01_09h44.05.289,Slot Machine Game,2023.1.3,Win32,58.13953488,,,,,,,,,,,,,,,,,,,,,,,,,,,600,,,,,,,,,,,,,,,,,,,,,8,7,,,673.1292,6,left,0.2873,,1,0.3,"[1,3,2]",0.856394497,stimuli/card_100_transparent.png,100,6,0,6,0,1,,,,,,,,,,
,,,,65e62157b9362caf030786ab,B,2024-07-01_09h44.05.289,Slot Machine Game,2023.1.3,Win32,58.13953488,,,,,,,,,,,,,,,,,,,,,,,,,,,700,,,,,,,,,,,,,,,,,,,,,8,7,,,675.2453,7,left,0.7896,,0.5,0.3,"[1,3,2]",0.250311115,stimuli/card_100_transparent.png,100,7,0,7,0,1,,,,,,,,,,
,,,,65e62157b9362caf030786ab,B,2024-07-01_09h44.05.289,Slot Machine Game,2023.1.3,Win32,58.13953488,,,,,,,,,,,,,,,,,,,,,,,,,,,800,,,,,,,,,,,,,,,,,,,,,8,7,,,677.3456,8,left,0.3263,,1,0.3,"[1,3,2]",0.807435517,stimuli/card_100_transparent.png,100,8,0,8,0,1,,,,,,,,,,
,,,,65e62157b9362caf030786ab,B,2024-07-01_09h44.05.289,Slot Machine Game,2023.1.3,Win32,58.13953488,,,,,,,,,,,,,,,,,,,,,,,,,,,900,,,,,,,,,,,,,,,,,,,,,8,7,,,679.4954,9,left,0.3522,,1.5,0.3,"[2,3,1]",0.166264334,stimuli/card_100_transparent.png,100,9,0,9,0,1,,,,,,,,,,
,,,,65e62157b9362caf030786ab,B,2024-07-01_09h44.05.289,Slot Machine Game,2023.1.3,Win32,58.13953488,,,,,,,,,,,,,,,,,,,,,,,,,,,910,,,,,,,,,,,,,,,,,,,,,8,7,,,682.1785,10,left,0.584,,0.5,0.3,"[2,3,1]",0.899823059,stimuli/card_10_transparent.png,10,10,0,10,0,1,,,,,,,,,,
,,,,65e62157b9362caf030786ab,B,2024-07-01_09h44.05.289,Slot Machine Game,2023.1.3,Win32,58.13953488,,,,,,,,,,,,,,,,,,,,,,,,,,,920,,,,,,,,,,,,,,,,,,,,,8,7,,,684.095,11,left,0.9504,,0.5,0.3,"[2,3,1]",0.227497202,stimuli/card_10_transparent.png,10,11,0,11,0,1,,,,,,,,,,
,,,,65e62157b9362caf030786ab,B,2024-07-01_09h44.05.289,Slot Machine Game,2023.1.3,Win32,58.13953488,,,,,,,,,,,,,,,,,,,,,,,,,,,1020,,,,,,,,,,,,,,,,,,,,,8,7,,,686.378,12,up,3.6019,,1.5,0.3,"[2,3,1]",0.052669525,stimuli/card_100_transparent.png,100,12,0,12,0,1,,,,,,,,,,
,,,,65e62157b9362caf030786ab,B,2024-07-01_09h44.05.289,Slot Machine Game,2023.1.3,Win32,58.13953488,,,,,,,,,,,,,,,,,,,,,,,,,,,1020,,,,,,,,,,,,,,,,,,,,,8,7,,,692.3107,13,up,0.3005,,1,0.3,"[2,3,1]",0.849222844,stimuli/card_0_transparent.png,0,13,0,13,0,1,,,,,,,,,,
,,,,65e62157b9362caf030786ab,B,2024-07-01_09h44.05.289,Slot Machine Game,2023.1.3,Win32,58.13953488,,,,,,,,,,,,,,,,,,,,,,,,,,,1020,,,,,,,,,,,,,,,,,,,,,8,7,,,694.4442,14,up,0.2754,,0.5,0.3,"[2,3,1]",0.823872093,stimuli/card_0_transparent.png,0,14,0,14,0,1,,,,,,,,,,
,,,,65e62157b9362caf030786ab,B,2024-07-01_09h44.05.289,Slot Machine Game,2023.1.3,Win32,58.13953488,,,,,,,,,,,,,,,,,,,,,,,,,,,,,,,,,,,696.0438,,,,,,,,,,,,,,,,,,,,,,,,,,,,,,,,,"[1400,1010,1020,820,840,550,820,1020]",7,0,7,0,1,,,,
,,,,65e62157b9362caf030786ab,B,2024-07-01_09h44.05.289,Slot Machine Game,2023.1.3,Win32,58.13953488,,,,,,,,,,,,,,,,,,,,,,,,,,,100,,,,,,,,,,,,,,,,,,,,,9,9,[15],"[[3,1,2]]",701.0549,0,right,1.4744,,1,0.3,"[3,1,2]",0.103146961,stimuli/card_100_transparent.png,100,0,0,0,0,1,,,,,,,,,,
,,,,65e62157b9362caf030786ab,B,2024-07-01_09h44.05.289,Slot Machine Game,2023.1.3,Win32,58.13953488,,,,,,,,,,,,,,,,,,,,,,,,,,,110,,,,,,,,,,,,,,,,,,,,,9,9,,,704.343,1,right,0.217,,1,0.3,"[3,1,2]",0.708964608,stimuli/card_10_transparent.png,10,1,0,1,0,1,,,,,,,,,,
,,,,65e62157b9362caf030786ab,B,2024-07-01_09h44.05.289,Slot Machine Game,2023.1.3,Win32,58.13953488,,,,,,,,,,,,,,,,,,,,,,,,,,,120,,,,,,,,,,,,,,,,,,,,,9,9,,,706.3924,2,right,0.284,,0.5,0.3,"[3,1,2]",0.342865203,stimuli/card_10_transparent.png,10,2,0,2,0,1,,,,,,,,,,
,,,,65e62157b9362caf030786ab,B,2024-07-01_09h44.05.289,Slot Machine Game,2023.1.3,Win32,58.13953488,,,,,,,,,,,,,,,,,,,,,,,,,,,130,,,,,,,,,,,,,,,,,,,,,9,9,,,708.0091,3,right,0.1677,,1.5,0.3,"[3,1,2]",0.72863629,stimuli/card_10_transparent.png,10,3,0,3,0,1,,,,,,,,,,
,,,,65e62157b9362caf030786ab,B,2024-07-01_09h44.05.289,Slot Machine Game,2023.1.3,Win32,58.13953488,,,,,,,,,,,,,,,,,,,,,,,,,,,130,,,,,,,,,,,,,,,,,,,,,9,9,,,710.5086,4,up,0.5095,,1,0.3,"[3,1,2]",0.006589158,stimuli/card_0_transparent.png,0,4,0,4,0,1,,,,,,,,,,
,,,,65e62157b9362caf030786ab,B,2024-07-01_09h44.05.289,Slot Machine Game,2023.1.3,Win32,58.13953488,,,,,,,,,,,,,,,,,,,,,,,,,,,130,,,,,,,,,,,,,,,,,,,,,9,9,,,712.8255,5,up,0.6002,,1.5,0.3,"[3,1,2]",0.008330444,stimuli/card_0_transparent.png,0,5,0,5,0,1,,,,,,,,,,
,,,,65e62157b9362caf030786ab,B,2024-07-01_09h44.05.289,Slot Machine Game,2023.1.3,Win32,58.13953488,,,,,,,,,,,,,,,,,,,,,,,,,,,130,,,,,,,,,,,,,,,,,,,,,9,9,,,715.7585,6,left,0.4178,,0.5,0.3,"[3,1,2]",0.42632168,stimuli/card_0_transparent.png,0,6,0,6,0,1,,,,,,,,,,
,,,,65e62157b9362caf030786ab,B,2024-07-01_09h44.05.289,Slot Machine Game,2023.1.3,Win32,58.13953488,,,,,,,,,,,,,,,,,,,,,,,,,,,130,,,,,,,,,,,,,,,,,,,,,9,9,,,717.508,7,left,0.3002,,0.5,0.3,"[3,1,2]",0.485167173,stimuli/card_0_transparent.png,0,7,0,7,0,1,,,,,,,,,,
,,,,65e62157b9362caf030786ab,B,2024-07-01_09h44.05.289,Slot Machine Game,2023.1.3,Win32,58.13953488,,,,,,,,,,,,,,,,,,,,,,,,,,,130,,,,,,,,,,,,,,,,,,,,,9,9,,,719.1415,8,left,0.8535,,1.5,0.3,"[3,1,2]",0.560735252,stimuli/card_0_transparent.png,0,8,0,8,0,1,,,,,,,,,,
,,,,65e62157b9362caf030786ab,B,2024-07-01_09h44.05.289,Slot Machine Game,2023.1.3,Win32,58.13953488,,,,,,,,,,,,,,,,,,,,,,,,,,,230,,,,,,,,,,,,,,,,,,,,,9,9,,,722.3246,9,up,0.456,,1,0.3,"[3,1,2]",0.885627971,stimuli/card_100_transparent.png,100,9,0,9,0,1,,,,,,,,,,
,,,,65e62157b9362caf030786ab,B,2024-07-01_09h44.05.289,Slot Machine Game,2023.1.3,Win32,58.13953488,,,,,,,,,,,,,,,,,,,,,,,,,,,330,,,,,,,,,,,,,,,,,,,,,9,9,,,724.6075,10,up,0.5585,,0.5,0.3,"[3,1,2]",0.740063459,stimuli/card_100_transparent.png,100,10,0,10,0,1,,,,,,,,,,
,,,,65e62157b9362caf030786ab,B,2024-07-01_09h44.05.289,Slot Machine Game,2023.1.3,Win32,58.13953488,,,,,,,,,,,,,,,,,,,,,,,,,,,430,,,,,,,,,,,,,,,,,,,,,9,9,,,726.4907,11,up,0.3672,,1,0.3,"[3,1,2]",0.655411793,stimuli/card_100_transparent.png,100,11,0,11,0,1,,,,,,,,,,
,,,,65e62157b9362caf030786ab,B,2024-07-01_09h44.05.289,Slot Machine Game,2023.1.3,Win32,58.13953488,,,,,,,,,,,,,,,,,,,,,,,,,,,430,,,,,,,,,,,,,,,,,,,,,9,9,,,728.6906,12,up,0.4554,,1,0.3,"[3,1,2]",0.053789978,stimuli/card_0_transparent.png,0,12,0,12,0,1,,,,,,,,,,
,,,,65e62157b9362caf030786ab,B,2024-07-01_09h44.05.289,Slot Machine Game,2023.1.3,Win32,58.13953488,,,,,,,,,,,,,,,,,,,,,,,,,,,530,,,,,,,,,,,,,,,,,,,,,9,9,,,730.9737,13,up,0.2154,,0.5,0.3,"[3,1,2]",0.237379682,stimuli/card_100_transparent.png,100,13,0,13,0,1,,,,,,,,,,
,,,,65e62157b9362caf030786ab,B,2024-07-01_09h44.05.289,Slot Machine Game,2023.1.3,Win32,58.13953488,,,,,,,,,,,,,,,,,,,,,,,,,,,630,,,,,,,,,,,,,,,,,,,,,9,9,,,732.5235,14,up,0.4011,,0.5,0.3,"[3,1,2]",0.353853507,stimuli/card_100_transparent.png,100,14,0,14,0,1,,,,,,,,,,
,,,,65e62157b9362caf030786ab,B,2024-07-01_09h44.05.289,Slot Machine Game,2023.1.3,Win32,58.13953488,,,,,,,,,,,,,,,,,,,,,,,,,,,,,,,,,,,734.2558,,,,,,,,,,,,,,,,,,,,,,,,,,,,,,,,,"[1400,1010,1020,820,840,550,820,1020,630]",8,0,8,0,1,,,,
,,,,65e62157b9362caf030786ab,B,2024-07-01_09h44.05.289,Slot Machine Game,2023.1.3,Win32,58.13953488,,,,,,,,,,,,,,,,,,,,,,,,,,,100,,,,,,,,,,,,,,,,,,,,,10,6,"[4,10,15]","[[2,3,1],[1,3,2],[3,2,1]]",739.2804,0,right,1.4187,,1.5,0.3,"[2,3,1]",0.673765199,stimuli/card_100_transparent.png,100,0,0,0,0,1,,,,,,,,,,
,,,,65e62157b9362caf030786ab,B,2024-07-01_09h44.05.289,Slot Machine Game,2023.1.3,Win32,58.13953488,,,,,,,,,,,,,,,,,,,,,,,,,,,200,,,,,,,,,,,,,,,,,,,,,10,6,,,743.0225,1,right,0.1688,,1,0.3,"[2,3,1]",0.324098299,stimuli/card_100_transparent.png,100,1,0,1,0,1,,,,,,,,,,
,,,,65e62157b9362caf030786ab,B,2024-07-01_09h44.05.289,Slot Machine Game,2023.1.3,Win32,58.13953488,,,,,,,,,,,,,,,,,,,,,,,,,,,300,,,,,,,,,,,,,,,,,,,,,10,6,,,745.0223,2,right,0.051,,1.5,0.3,"[2,3,1]",0.40435934,stimuli/card_100_transparent.png,100,2,0,2,0,1,,,,,,,,,,
,,,,65e62157b9362caf030786ab,B,2024-07-01_09h44.05.289,Slot Machine Game,2023.1.3,Win32,58.13953488,,,,,,,,,,,,,,,,,,,,,,,,,,,400,,,,,,,,,,,,,,,,,,,,,10,6,,,747.4054,3,right,0.1395,,1,0.3,"[2,3,1]",0.246707299,stimuli/card_100_transparent.png,100,3,0,3,0,1,,,,,,,,,,
,,,,65e62157b9362caf030786ab,B,2024-07-01_09h44.05.289,Slot Machine Game,2023.1.3,Win32,58.13953488,,,,,,,,,,,,,,,,,,,,,,,,,,,410,,,,,,,,,,,,,,,,,,,,,10,6,,,749.3719,4,right,0.026,,1.5,0.3,"[1,3,2]",0.227814652,stimuli/card_10_transparent.png,10,4,0,4,0,1,,,,,,,,,,
,,,,65e62157b9362caf030786ab,B,2024-07-01_09h44.05.289,Slot Machine Game,2023.1.3,Win32,58.13953488,,,,,,,,,,,,,,,,,,,,,,,,,,,420,,,,,,,,,,,,,,,,,,,,,10,6,,,751.7207,5,right,1.6014,,0.5,0.3,"[1,3,2]",0.811342921,stimuli/card_10_transparent.png,10,5,0,5,0,1,,,,,,,,,,
,,,,65e62157b9362caf030786ab,B,2024-07-01_09h44.05.289,Slot Machine Game,2023.1.3,Win32,58.13953488,,,,,,,,,,,,,,,,,,,,,,,,,,,420,,,,,,,,,,,,,,,,,,,,,10,6,,,754.6538,6,up,1.1704,,1.5,0.3,"[1,3,2]",0.433381594,stimuli/card_0_transparent.png,0,6,0,6,0,1,,,,,,,,,,
,,,,65e62157b9362caf030786ab,B,2024-07-01_09h44.05.289,Slot Machine Game,2023.1.3,Win32,58.13953488,,,,,,,,,,,,,,,,,,,,,,,,,,,420,,,,,,,,,,,,,,,,,,,,,10,6,,,758.1376,7,up,0.7182,,1.5,0.3,"[1,3,2]",0.457885146,stimuli/card_0_transparent.png,0,7,0,7,0,1,,,,,,,,,,
,,,,65e62157b9362caf030786ab,B,2024-07-01_09h44.05.289,Slot Machine Game,2023.1.3,Win32,58.13953488,,,,,,,,,,,,,,,,,,,,,,,,,,,520,,,,,,,,,,,,,,,,,,,,,10,6,,,761.1872,8,left,0.0005,,0.5,0.3,"[1,3,2]",0.873568527,stimuli/card_100_transparent.png,100,8,0,8,0,1,,,,,,,,,,
,,,,65e62157b9362caf030786ab,B,2024-07-01_09h44.05.289,Slot Machine Game,2023.1.3,Win32,58.13953488,,,,,,,,,,,,,,,,,,,,,,,,,,,530,,,,,,,,,,,,,,,,,,,,,10,6,,,762.5207,9,left,0.2843,,1,0.3,"[1,3,2]",0.135086597,stimuli/card_10_transparent.png,10,9,0,9,0,1,,,,,,,,,,
,,,,65e62157b9362caf030786ab,B,2024-07-01_09h44.05.289,Slot Machine Game,2023.1.3,Win32,58.13953488,,,,,,,,,,,,,,,,,,,,,,,,,,,530,,,,,,,,,,,,,,,,,,,,,10,6,,,764.6368,10,left,0.1072,,1.5,0.3,"[3,2,1]",0.611560627,stimuli/card_0_transparent.png,0,10,0,10,0,1,,,,,,,,,,
,,,,65e62157b9362caf030786ab,B,2024-07-01_09h44.05.289,Slot Machine Game,2023.1.3,Win32,58.13953488,,,,,,,,,,,,,,,,,,,,,,,,,,,630,,,,,,,,,,,,,,,,,,,,,10,6,,,767.0701,11,right,0.4676,,1.5,0.3,"[3,2,1]",0.304365886,stimuli/card_100_transparent.png,100,11,0,11,0,1,,,,,,,,,,
,,,,65e62157b9362caf030786ab,B,2024-07-01_09h44.05.289,Slot Machine Game,2023.1.3,Win32,58.13953488,,,,,,,,,,,,,,,,,,,,,,,,,,,730,,,,,,,,,,,,,,,,,,,,,10,6,,,769.8696,12,right,1.0341,,1,0.3,"[3,2,1]",0.217338333,stimuli/card_100_transparent.png,100,12,0,12,0,1,,,,,,,,,,
,,,,65e62157b9362caf030786ab,B,2024-07-01_09h44.05.289,Slot Machine Game,2023.1.3,Win32,58.13953488,,,,,,,,,,,,,,,,,,,,,,,,,,,730,,,,,,,,,,,,,,,,,,,,,10,6,,,772.7362,13,right,0.4172,,1.5,0.3,"[3,2,1]",0.005872229,stimuli/card_0_transparent.png,0,13,0,13,0,1,,,,,,,,,,
,,,,65e62157b9362caf030786ab,B,2024-07-01_09h44.05.289,Slot Machine Game,2023.1.3,Win32,58.13953488,,,,,,,,,,,,,,,,,,,,,,,,,,,730,,,,,,,,,,,,,,,,,,,,,10,6,,,775.4858,14,up,0.3717,,1,0.3,"[3,2,1]",0.049505772,stimuli/card_0_transparent.png,0,14,0,14,0,1,,,,,,,,,,
,,,,65e62157b9362caf030786ab,B,2024-07-01_09h44.05.289,Slot Machine Game,2023.1.3,Win32,58.13953488,,,,,,,,,,,,,,,,,,,,,,,,,,,,,,,,,,,777.6847,,,,,,,,,,,,,,,,,,,,,,,,,,,,,,,,,"[1400,1010,1020,820,840,550,820,1020,630,730]",9,0,9,0,1,,,,
,,,,65e62157b9362caf030786ab,B,2024-07-01_09h44.05.289,Slot Machine Game,2023.1.3,Win32,58.13953488,,,,,,,,,,,,,,,,,,,,,,,,,,,,,,,,,,,,,,,,,,,,,,,,,,,,,,,,,,,,,,,,,,,,,,,,,,9,"[1400,1010,1020,820,840,550,820,1020,630,730]",8.4,2024-07-01_09h57.12.166
