key_resp_welcome_started,key_resp_welcome_keys,key_resp_welcome_rt,key_resp_welcome_duration,prolific_id,path_id,date,expName,psychopyVersion,OS,frameRate,key_resp_instruction1_started,key_resp_instruction1_keys,key_resp_instruction1_rt,key_resp_instruction1_duration,key_resp_instruction2_started,key_resp_instruction2_keys,key_resp_instruction2_rt,key_resp_instruction2_duration,key_resp_instruction3_started,key_resp_instruction3_keys,key_resp_instruction3_rt,key_resp_instruction3_duration,key_resp_instruction4_started,key_resp_instruction4_keys,key_resp_instruction4_rt,key_resp_instruction4_duration,practiceCondition,practice_reward_seqs,practice_trial_started,practice_trial_num,prac_presentationInterval,"practice_reward_seq: 2,1,3",practice_trials.thisRepN,practice_trials.thisTrialN,practice_trials.thisN,practice_trials.thisIndex,practice_trials.ran,practice_resp_rt,practice_resp_duration,practice_resp_keys,reward_img,cumulative_reward,trial_reward,"practice_reward_seq: 2,3,1",block_break_started,"practice_reward_seq: 1,3,2","practice_reward_seq: 3,1,2",practice_end_time,practice_end_keys,practice_end_rt,practice_end_duration,main_instruction_text_started,block_condition,block_order_indices,main_instruction_keys,main_instruction_rt,main_instruction_duration,block_number,block_assignment,current_condition,main_reward_seqs,main_trial_started,main_trial_num,main_trial_keys,main_trial_rt,main_trial_duration,main_presentationInterval,reward_presentation_time,main_reward_seq,reward_rand_val,main_reward_img,current_reward,main_trials.thisRepN,main_trials.thisTrialN,main_trials.thisN,main_trials.thisIndex,main_trials.ran,block_reward,block.thisRepN,block.thisTrialN,block.thisN,block.thisIndex,block.ran,block_reward.length,block_reward_all,reward_amount,date_end_task
0.0008,space,2.5678,,65e6263cc3453b2312ea920a,B,2024-06-22_07h15.38.617,Slot Machine Game,2023.1.3,Win32,59.52380952,,,,,,,,,,,,,,,,,,,,,,,,,,,,,,,,,,,,,,,,,,,,,,,,,,,,,,,,,,,,,,,,,,,,,,,,,,,,,
,,,,65e6263cc3453b2312ea920a,B,2024-06-22_07h15.38.617,Slot Machine Game,2023.1.3,Win32,59.52380952,2.5919,space,30.9194,,,,,,,,,,,,,,,,,,,,,,,,,,,,,,,,,,,,,,,,,,,,,,,,,,,,,,,,,,,,,,,,,,,,,,,,,,
,,,,65e6263cc3453b2312ea920a,B,2024-06-22_07h15.38.617,Slot Machine Game,2023.1.3,Win32,59.52380952,,,,,33.5525,space,29.4863,,,,,,,,,,,,,,,,,,,,,,,,,,,,,,,,,,,,,,,,,,,,,,,,,,,,,,,,,,,,,,,,,,,,,,
,,,,65e6263cc3453b2312ea920a,B,2024-06-22_07h15.38.617,Slot Machine Game,2023.1.3,Win32,59.52380952,,,,,,,,,63.0936,space,11.1415,,,,,,,,,,,,,,,,,,,,,,,,,,,,,,,,,,,,,,,,,,,,,,,,,,,,,,,,,,,,,,,,,,
,,,,65e6263cc3453b2312ea920a,B,2024-06-22_07h15.38.617,Slot Machine Game,2023.1.3,Win32,59.52380952,,,,,,,,,,,,,,,,,,,,,,,,,,,,,,,,,,,,,,,,,,,,,,,,,,,,,,,,,,,,,,,,,,,,,,,,,,,,,
,,,,65e6263cc3453b2312ea920a,B,2024-06-22_07h15.38.617,Slot Machine Game,2023.1.3,Win32,59.52380952,,,,,,,,,,,,,216.2673,space,5.5707,,,,,,,,,,,,,,,,,,,,,,,,,,,,,,,,,,,,,,,,,,,,,,,,,,,,,,,,,,,,,,
,,,,65e6263cc3453b2312ea920a,B,2024-06-22_07h15.38.617,Slot Machine Game,2023.1.3,Win32,59.52380952,,,,,,,,,,,,,,,,,"[9,15]","[[2,1,3],[2,3,1]]",221.8522,0,0.5,,0,0,0,0,1,,,,,,,,,,,,,,,,,,,,,,,,,,,,,,,,,,,,,,,,,,,,,,,,,,
,,,,65e6263cc3453b2312ea920a,B,2024-06-22_07h15.38.617,Slot Machine Game,2023.1.3,Win32,59.52380952,,,,,,,,,,,,,,,,,,,227.3883,1,1.5,,1,0,1,0,1,2.6007,,up,stimuli/card_100_transparent.png,100,100,,,,,,,,,,,,,,,,,,,,,,,,,,,,,,,,,,,,,,,,,,,,
,,,,65e6263cc3453b2312ea920a,B,2024-06-22_07h15.38.617,Slot Machine Game,2023.1.3,Win32,59.52380952,,,,,,,,,,,,,,,,,,,232.3187,2,1.5,,2,0,2,0,1,0.1487,,up,stimuli/card_100_transparent.png,200,100,,,,,,,,,,,,,,,,,,,,,,,,,,,,,,,,,,,,,,,,,,,,
,,,,65e6263cc3453b2312ea920a,B,2024-06-22_07h15.38.617,Slot Machine Game,2023.1.3,Win32,59.52380952,,,,,,,,,,,,,,,,,,,234.7999,3,0.5,,3,0,3,0,1,0.0008,,up,stimuli/card_100_transparent.png,300,100,,,,,,,,,,,,,,,,,,,,,,,,,,,,,,,,,,,,,,,,,,,,
,,,,65e6263cc3453b2312ea920a,B,2024-06-22_07h15.38.617,Slot Machine Game,2023.1.3,Win32,59.52380952,,,,,,,,,,,,,,,,,,,236.132,4,1,,4,0,4,0,1,0.0354,,up,stimuli/card_100_transparent.png,400,100,,,,,,,,,,,,,,,,,,,,,,,,,,,,,,,,,,,,,,,,,,,,
,,,,65e6263cc3453b2312ea920a,B,2024-06-22_07h15.38.617,Slot Machine Game,2023.1.3,Win32,59.52380952,,,,,,,,,,,,,,,,,,,237.9968,5,0.5,,5,0,5,0,1,0.0217,,up,stimuli/card_100_transparent.png,500,100,,,,,,,,,,,,,,,,,,,,,,,,,,,,,,,,,,,,,,,,,,,,
,,,,65e6263cc3453b2312ea920a,B,2024-06-22_07h15.38.617,Slot Machine Game,2023.1.3,Win32,59.52380952,,,,,,,,,,,,,,,,,,,239.3455,6,1,,6,0,6,0,1,0.0338,,up,stimuli/card_100_transparent.png,600,100,,,,,,,,,,,,,,,,,,,,,,,,,,,,,,,,,,,,,,,,,,,,
,,,,65e6263cc3453b2312ea920a,B,2024-06-22_07h15.38.617,Slot Machine Game,2023.1.3,Win32,59.52380952,,,,,,,,,,,,,,,,,,,241.2111,7,1,,7,0,7,0,1,0.0159,,up,stimuli/card_100_transparent.png,700,100,,,,,,,,,,,,,,,,,,,,,,,,,,,,,,,,,,,,,,,,,,,,
,,,,65e6263cc3453b2312ea920a,B,2024-06-22_07h15.38.617,Slot Machine Game,2023.1.3,Win32,59.52380952,,,,,,,,,,,,,,,,,,,243.0596,8,1,,8,0,8,0,1,0.1009,,up,stimuli/card_100_transparent.png,800,100,,,,,,,,,,,,,,,,,,,,,,,,,,,,,,,,,,,,,,,,,,,,
,,,,65e6263cc3453b2312ea920a,B,2024-06-22_07h15.38.617,Slot Machine Game,2023.1.3,Win32,59.52380952,,,,,,,,,,,,,,,,,,,244.9913,9,0.5,,9,0,9,0,1,0.2085,,up,stimuli/card_0_transparent.png,800,0,,,,,,,,,,,,,,,,,,,,,,,,,,,,,,,,,,,,,,,,,,,,
,,,,65e6263cc3453b2312ea920a,B,2024-06-22_07h15.38.617,Slot Machine Game,2023.1.3,Win32,59.52380952,,,,,,,,,,,,,,,,,,,246.5235,10,1.5,,10,0,10,0,1,0.334,,up,stimuli/card_10_transparent.png,810,10,,,,,,,,,,,,,,,,,,,,,,,,,,,,,,,,,,,,,,,,,,,,
,,,,65e6263cc3453b2312ea920a,B,2024-06-22_07h15.38.617,Slot Machine Game,2023.1.3,Win32,59.52380952,,,,,,,,,,,,,,,,,,,249.1877,11,0.5,,11,0,11,0,1,0.0818,,up,stimuli/card_0_transparent.png,810,0,,,,,,,,,,,,,,,,,,,,,,,,,,,,,,,,,,,,,,,,,,,,
,,,,65e6263cc3453b2312ea920a,B,2024-06-22_07h15.38.617,Slot Machine Game,2023.1.3,Win32,59.52380952,,,,,,,,,,,,,,,,,,,250.6034,12,1,,12,0,12,0,1,0.4004,,right,stimuli/card_100_transparent.png,910,100,,,,,,,,,,,,,,,,,,,,,,,,,,,,,,,,,,,,,,,,,,,,
,,,,65e6263cc3453b2312ea920a,B,2024-06-22_07h15.38.617,Slot Machine Game,2023.1.3,Win32,59.52380952,,,,,,,,,,,,,,,,,,,252.8352,13,1.5,,13,0,13,0,1,0.2895,,right,stimuli/card_0_transparent.png,910,0,,,,,,,,,,,,,,,,,,,,,,,,,,,,,,,,,,,,,,,,,,,,
,,,,65e6263cc3453b2312ea920a,B,2024-06-22_07h15.38.617,Slot Machine Game,2023.1.3,Win32,59.52380952,,,,,,,,,,,,,,,,,,,255.4494,14,0.5,,14,0,14,0,1,4.3638,,right,stimuli/card_100_transparent.png,1010,100,,,,,,,,,,,,,,,,,,,,,,,,,,,,,,,,,,,,,,,,,,,,
,,,,65e6263cc3453b2312ea920a,B,2024-06-22_07h15.38.617,Slot Machine Game,2023.1.3,Win32,59.52380952,,,,,,,,,,,,,,,,,"[6,15]","[[1,3,2],[3,1,2]]",266.1804,0,1.5,,0,0,0,0,1,1.5497,,left,stimuli/card_10_transparent.png,10,10,,261.1546,,,,,,,,,,,,,,,,,,,,,,,,,,,,,,,,,,,,,,,,,,
,,,,65e6263cc3453b2312ea920a,B,2024-06-22_07h15.38.617,Slot Machine Game,2023.1.3,Win32,59.52380952,,,,,,,,,,,,,,,,,,,270.0542,1,1.5,,1,0,1,0,1,0.318,,left,stimuli/card_100_transparent.png,110,100,,,,,,,,,,,,,,,,,,,,,,,,,,,,,,,,,,,,,,,,,,,,
,,,,65e6263cc3453b2312ea920a,B,2024-06-22_07h15.38.617,Slot Machine Game,2023.1.3,Win32,59.52380952,,,,,,,,,,,,,,,,,,,272.7017,2,1.5,,2,0,2,0,1,2.7856,,left,stimuli/card_100_transparent.png,210,100,,,,,,,,,,,,,,,,,,,,,,,,,,,,,,,,,,,,,,,,,,,,
,,,,65e6263cc3453b2312ea920a,B,2024-06-22_07h15.38.617,Slot Machine Game,2023.1.3,Win32,59.52380952,,,,,,,,,,,,,,,,,,,277.8138,3,0.5,,3,0,3,0,1,0.4681,,left,stimuli/card_100_transparent.png,310,100,,,,,,,,,,,,,,,,,,,,,,,,,,,,,,,,,,,,,,,,,,,,
,,,,65e6263cc3453b2312ea920a,B,2024-06-22_07h15.38.617,Slot Machine Game,2023.1.3,Win32,59.52380952,,,,,,,,,,,,,,,,,,,279.6127,4,1,,4,0,4,0,1,0.3239,,left,stimuli/card_100_transparent.png,410,100,,,,,,,,,,,,,,,,,,,,,,,,,,,,,,,,,,,,,,,,,,,,
,,,,65e6263cc3453b2312ea920a,B,2024-06-22_07h15.38.617,Slot Machine Game,2023.1.3,Win32,59.52380952,,,,,,,,,,,,,,,,,,,281.7607,5,1.5,,5,0,5,0,1,0.168,,left,stimuli/card_100_transparent.png,510,100,,,,,,,,,,,,,,,,,,,,,,,,,,,,,,,,,,,,,,,,,,,,
,,,,65e6263cc3453b2312ea920a,B,2024-06-22_07h15.38.617,Slot Machine Game,2023.1.3,Win32,59.52380952,,,,,,,,,,,,,,,,,,,284.2591,6,1.5,,6,0,6,0,1,2.1676,,left,stimuli/card_0_transparent.png,510,0,,,,,,,,,,,,,,,,,,,,,,,,,,,,,,,,,,,,,,,,,,,,
,,,,65e6263cc3453b2312ea920a,B,2024-06-22_07h15.38.617,Slot Machine Game,2023.1.3,Win32,59.52380952,,,,,,,,,,,,,,,,,,,288.7553,7,0.5,,7,0,7,0,1,0.0081,,left,stimuli/card_100_transparent.png,610,100,,,,,,,,,,,,,,,,,,,,,,,,,,,,,,,,,,,,,,,,,,,,
,,,,65e6263cc3453b2312ea920a,B,2024-06-22_07h15.38.617,Slot Machine Game,2023.1.3,Win32,59.52380952,,,,,,,,,,,,,,,,,,,290.0874,8,1.5,,8,0,8,0,1,1.2834,,left,stimuli/card_0_transparent.png,610,0,,,,,,,,,,,,,,,,,,,,,,,,,,,,,,,,,,,,,,,,,,,,
,,,,65e6263cc3453b2312ea920a,B,2024-06-22_07h15.38.617,Slot Machine Game,2023.1.3,Win32,59.52380952,,,,,,,,,,,,,,,,,,,293.7012,9,1.5,,9,0,9,0,1,0.4067,,left,stimuli/card_0_transparent.png,610,0,,,,,,,,,,,,,,,,,,,,,,,,,,,,,,,,,,,,,,,,,,,,
,,,,65e6263cc3453b2312ea920a,B,2024-06-22_07h15.38.617,Slot Machine Game,2023.1.3,Win32,59.52380952,,,,,,,,,,,,,,,,,,,296.4324,10,1.5,,10,0,10,0,1,0.3875,,up,stimuli/card_100_transparent.png,710,100,,,,,,,,,,,,,,,,,,,,,,,,,,,,,,,,,,,,,,,,,,,,
,,,,65e6263cc3453b2312ea920a,B,2024-06-22_07h15.38.617,Slot Machine Game,2023.1.3,Win32,59.52380952,,,,,,,,,,,,,,,,,,,299.1466,11,1.5,,11,0,11,0,1,1.9814,,up,stimuli/card_100_transparent.png,810,100,,,,,,,,,,,,,,,,,,,,,,,,,,,,,,,,,,,,,,,,,,,,
,,,,65e6263cc3453b2312ea920a,B,2024-06-22_07h15.38.617,Slot Machine Game,2023.1.3,Win32,59.52380952,,,,,,,,,,,,,,,,,,,303.4598,12,1.5,,12,0,12,0,1,0.6178,,up,stimuli/card_100_transparent.png,910,100,,,,,,,,,,,,,,,,,,,,,,,,,,,,,,,,,,,,,,,,,,,,
,,,,65e6263cc3453b2312ea920a,B,2024-06-22_07h15.38.617,Slot Machine Game,2023.1.3,Win32,59.52380952,,,,,,,,,,,,,,,,,,,306.4074,13,0.5,,13,0,13,0,1,0.2853,,up,stimuli/card_100_transparent.png,1010,100,,,,,,,,,,,,,,,,,,,,,,,,,,,,,,,,,,,,,,,,,,,,
,,,,65e6263cc3453b2312ea920a,B,2024-06-22_07h15.38.617,Slot Machine Game,2023.1.3,Win32,59.52380952,,,,,,,,,,,,,,,,,,,308.0226,14,1.5,,14,0,14,0,1,0.1734,,up,stimuli/card_100_transparent.png,1110,100,,,,,,,,,,,,,,,,,,,,,,,,,,,,,,,,,,,,,,,,,,,,
,,,,65e6263cc3453b2312ea920a,B,2024-06-22_07h15.38.617,Slot Machine Game,2023.1.3,Win32,59.52380952,,,,,,,,,,,,,,,,,,,,,,,,,,,,,,,,,,,310.5208,,,315.5182,space,3.7358,,,,,,,,,,,,,,,,,,,,,,,,,,,,,,,,,,,,,
,,,,65e6263cc3453b2312ea920a,B,2024-06-22_07h15.38.617,Slot Machine Game,2023.1.3,Win32,59.52380952,,,,,,,,,,,,,,,,,,,,,,,,,,,,,,,,,,,,,,,,,,319.2828,2,"[2,4,8,0,1,3,9,6,8,5]",space,3.7074,,,,,,,,,,,,,,,,,,,,,,,,,,,,,,,
,,,,65e6263cc3453b2312ea920a,B,2024-06-22_07h15.38.617,Slot Machine Game,2023.1.3,Win32,59.52380952,,,,,,,,,,,,,,,,,,,,,,,,,,,,,,,,100,,,,,,,,,,,,,,,,1,3,"[15,15]","[[3,1,2],[3,1,2]]",323.0365,0,up,0.5248,,1.5,0.3,"[3,1,2]",0.215213878,stimuli/card_100_transparent.png,100,0,0,0,0,1,,,,,,,,,,
,,,,65e6263cc3453b2312ea920a,B,2024-06-22_07h15.38.617,Slot Machine Game,2023.1.3,Win32,59.52380952,,,,,,,,,,,,,,,,,,,,,,,,,,,,,,,,200,,,,,,,,,,,,,,,,1,3,,,325.8748,1,up,2.2051,,1.5,0.3,"[3,1,2]",0.76346198,stimuli/card_100_transparent.png,100,1,0,1,0,1,,,,,,,,,,
,,,,65e6263cc3453b2312ea920a,B,2024-06-22_07h15.38.617,Slot Machine Game,2023.1.3,Win32,59.52380952,,,,,,,,,,,,,,,,,,,,,,,,,,,,,,,,300,,,,,,,,,,,,,,,,1,3,,,330.4045,2,up,0.4749,,1.5,0.3,"[3,1,2]",0.570173341,stimuli/card_100_transparent.png,100,2,0,2,0,1,,,,,,,,,,
,,,,65e6263cc3453b2312ea920a,B,2024-06-22_07h15.38.617,Slot Machine Game,2023.1.3,Win32,59.52380952,,,,,,,,,,,,,,,,,,,,,,,,,,,,,,,,300,,,,,,,,,,,,,,,,1,3,,,333.202,3,up,0.3889,,1,0.3,"[3,1,2]",0.061666022,stimuli/card_0_transparent.png,0,3,0,3,0,1,,,,,,,,,,
,,,,65e6263cc3453b2312ea920a,B,2024-06-22_07h15.38.617,Slot Machine Game,2023.1.3,Win32,59.52380952,,,,,,,,,,,,,,,,,,,,,,,,,,,,,,,,300,,,,,,,,,,,,,,,,1,3,,,335.4166,4,up,0.402,,1,0.3,"[3,1,2]",0.037460145,stimuli/card_0_transparent.png,0,4,0,4,0,1,,,,,,,,,,
,,,,65e6263cc3453b2312ea920a,B,2024-06-22_07h15.38.617,Slot Machine Game,2023.1.3,Win32,59.52380952,,,,,,,,,,,,,,,,,,,,,,,,,,,,,,,,400,,,,,,,,,,,,,,,,1,3,,,337.6483,5,up,0.0901,,0.5,0.3,"[3,1,2]",0.420504972,stimuli/card_100_transparent.png,100,5,0,5,0,1,,,,,,,,,,
,,,,65e6263cc3453b2312ea920a,B,2024-06-22_07h15.38.617,Slot Machine Game,2023.1.3,Win32,59.52380952,,,,,,,,,,,,,,,,,,,,,,,,,,,,,,,,500,,,,,,,,,,,,,,,,1,3,,,339.064,6,up,0.3676,,1.5,0.3,"[3,1,2]",0.835528652,stimuli/card_100_transparent.png,100,6,0,6,0,1,,,,,,,,,,
,,,,65e6263cc3453b2312ea920a,B,2024-06-22_07h15.38.617,Slot Machine Game,2023.1.3,Win32,59.52380952,,,,,,,,,,,,,,,,,,,,,,,,,,,,,,,,600,,,,,,,,,,,,,,,,1,3,,,341.7617,7,up,0.0089,,1,0.3,"[3,1,2]",0.52805603,stimuli/card_100_transparent.png,100,7,0,7,0,1,,,,,,,,,,
,,,,65e6263cc3453b2312ea920a,B,2024-06-22_07h15.38.617,Slot Machine Game,2023.1.3,Win32,59.52380952,,,,,,,,,,,,,,,,,,,,,,,,,,,,,,,,700,,,,,,,,,,,,,,,,1,3,,,343.5935,8,up,0.0011,,0.5,0.3,"[3,1,2]",0.888835711,stimuli/card_100_transparent.png,100,8,0,8,0,1,,,,,,,,,,
,,,,65e6263cc3453b2312ea920a,B,2024-06-22_07h15.38.617,Slot Machine Game,2023.1.3,Win32,59.52380952,,,,,,,,,,,,,,,,,,,,,,,,,,,,,,,,700,,,,,,,,,,,,,,,,1,3,,,344.9256,9,up,0.2661,,1.5,0.3,"[3,1,2]",0.00665404,stimuli/card_0_transparent.png,0,9,0,9,0,1,,,,,,,,,,
,,,,65e6263cc3453b2312ea920a,B,2024-06-22_07h15.38.617,Slot Machine Game,2023.1.3,Win32,59.52380952,,,,,,,,,,,,,,,,,,,,,,,,,,,,,,,,700,,,,,,,,,,,,,,,,1,3,,,347.5237,10,up,1.3594,,0.5,0.3,"[3,1,2]",0.043331401,stimuli/card_0_transparent.png,0,10,0,10,0,1,,,,,,,,,,
,,,,65e6263cc3453b2312ea920a,B,2024-06-22_07h15.38.617,Slot Machine Game,2023.1.3,Win32,59.52380952,,,,,,,,,,,,,,,,,,,,,,,,,,,,,,,,800,,,,,,,,,,,,,,,,1,3,,,350.2048,11,right,0.2349,,1,0.3,"[3,1,2]",0.188115193,stimuli/card_100_transparent.png,100,11,0,11,0,1,,,,,,,,,,
,,,,65e6263cc3453b2312ea920a,B,2024-06-22_07h15.38.617,Slot Machine Game,2023.1.3,Win32,59.52380952,,,,,,,,,,,,,,,,,,,,,,,,,,,,,,,,810,,,,,,,,,,,,,,,,1,3,,,352.2693,12,right,1.9747,,1.5,0.3,"[3,1,2]",0.485209169,stimuli/card_10_transparent.png,10,12,0,12,0,1,,,,,,,,,,
,,,,65e6263cc3453b2312ea920a,B,2024-06-22_07h15.38.617,Slot Machine Game,2023.1.3,Win32,59.52380952,,,,,,,,,,,,,,,,,,,,,,,,,,,,,,,,820,,,,,,,,,,,,,,,,1,3,,,356.5658,13,right,0.0355,,1.5,0.3,"[3,1,2]",0.950937068,stimuli/card_10_transparent.png,10,13,0,13,0,1,,,,,,,,,,
,,,,65e6263cc3453b2312ea920a,B,2024-06-22_07h15.38.617,Slot Machine Game,2023.1.3,Win32,59.52380952,,,,,,,,,,,,,,,,,,,,,,,,,,,,,,,,820,,,,,,,,,,,,,,,,1,3,,,358.9309,14,left,0.1199,,1,0.3,"[3,1,2]",0.612864957,stimuli/card_0_transparent.png,0,14,0,14,0,1,,,,,,,,,,
,,,,65e6263cc3453b2312ea920a,B,2024-06-22_07h15.38.617,Slot Machine Game,2023.1.3,Win32,59.52380952,,,,,,,,,,,,,,,,,,,,,,,,,,,,,,,,,,,360.8797,,,,,,,,,,,,,,,,,,,,,,,,,,,,,,,,,[820],0,0,0,0,1,,,,
,,,,65e6263cc3453b2312ea920a,B,2024-06-22_07h15.38.617,Slot Machine Game,2023.1.3,Win32,59.52380952,,,,,,,,,,,,,,,,,,,,,,,,,,,,,,,,100,,,,,,,,,,,,,,,,2,5,"[5,15]","[[1,2,3],[3,1,2]]",365.8912,0,left,0.8504,,1,0.3,"[1,2,3]",0.483895586,stimuli/card_100_transparent.png,100,0,0,0,0,1,,,,,,,,,,
,,,,65e6263cc3453b2312ea920a,B,2024-06-22_07h15.38.617,Slot Machine Game,2023.1.3,Win32,59.52380952,,,,,,,,,,,,,,,,,,,,,,,,,,,,,,,,200,,,,,,,,,,,,,,,,2,5,,,368.556,1,left,0.2275,,0.5,0.3,"[1,2,3]",0.528711161,stimuli/card_100_transparent.png,100,1,0,1,0,1,,,,,,,,,,
,,,,65e6263cc3453b2312ea920a,B,2024-06-22_07h15.38.617,Slot Machine Game,2023.1.3,Win32,59.52380952,,,,,,,,,,,,,,,,,,,,,,,,,,,,,,,,210,,,,,,,,,,,,,,,,2,5,,,370.0883,2,left,0.3731,,1.5,0.3,"[1,2,3]",0.12459364,stimuli/card_10_transparent.png,10,2,0,2,0,1,,,,,,,,,,
,,,,65e6263cc3453b2312ea920a,B,2024-06-22_07h15.38.617,Slot Machine Game,2023.1.3,Win32,59.52380952,,,,,,,,,,,,,,,,,,,,,,,,,,,,,,,,310,,,,,,,,,,,,,,,,2,5,,,372.7857,3,left,0.0707,,1,0.3,"[1,2,3]",0.658077249,stimuli/card_100_transparent.png,100,3,0,3,0,1,,,,,,,,,,
,,,,65e6263cc3453b2312ea920a,B,2024-06-22_07h15.38.617,Slot Machine Game,2023.1.3,Win32,59.52380952,,,,,,,,,,,,,,,,,,,,,,,,,,,,,,,,410,,,,,,,,,,,,,,,,2,5,,,374.6679,4,left,0.0339,,1.5,0.3,"[1,2,3]",0.241675039,stimuli/card_100_transparent.png,100,4,0,4,0,1,,,,,,,,,,
,,,,65e6263cc3453b2312ea920a,B,2024-06-22_07h15.38.617,Slot Machine Game,2023.1.3,Win32,59.52380952,,,,,,,,,,,,,,,,,,,,,,,,,,,,,,,,510,,,,,,,,,,,,,,,,2,5,,,377.0322,5,left,2.4709,,0.5,0.3,"[3,1,2]",0.092271453,stimuli/card_100_transparent.png,100,5,0,5,0,1,,,,,,,,,,
,,,,65e6263cc3453b2312ea920a,B,2024-06-22_07h15.38.617,Slot Machine Game,2023.1.3,Win32,59.52380952,,,,,,,,,,,,,,,,,,,,,,,,,,,,,,,,510,,,,,,,,,,,,,,,,2,5,,,380.8296,6,left,0.0349,,1.5,0.3,"[3,1,2]",0.480370121,stimuli/card_0_transparent.png,0,6,0,6,0,1,,,,,,,,,,
,,,,65e6263cc3453b2312ea920a,B,2024-06-22_07h15.38.617,Slot Machine Game,2023.1.3,Win32,59.52380952,,,,,,,,,,,,,,,,,,,,,,,,,,,,,,,,510,,,,,,,,,,,,,,,,2,5,,,383.1945,7,left,1.184,,1.5,0.3,"[3,1,2]",0.221641019,stimuli/card_0_transparent.png,0,7,0,7,0,1,,,,,,,,,,
,,,,65e6263cc3453b2312ea920a,B,2024-06-22_07h15.38.617,Slot Machine Game,2023.1.3,Win32,59.52380952,,,,,,,,,,,,,,,,,,,,,,,,,,,,,,,,610,,,,,,,,,,,,,,,,2,5,,,386.7249,8,up,0.2026,,1,0.3,"[3,1,2]",0.634346735,stimuli/card_100_transparent.png,100,8,0,8,0,1,,,,,,,,,,
,,,,65e6263cc3453b2312ea920a,B,2024-06-22_07h15.38.617,Slot Machine Game,2023.1.3,Win32,59.52380952,,,,,,,,,,,,,,,,,,,,,,,,,,,,,,,,710,,,,,,,,,,,,,,,,2,5,,,388.762,9,up,0.0997,,0.5,0.3,"[3,1,2]",0.768622559,stimuli/card_100_transparent.png,100,9,0,9,0,1,,,,,,,,,,
,,,,65e6263cc3453b2312ea920a,B,2024-06-22_07h15.38.617,Slot Machine Game,2023.1.3,Win32,59.52380952,,,,,,,,,,,,,,,,,,,,,,,,,,,,,,,,810,,,,,,,,,,,,,,,,2,5,,,390.1718,10,up,0.2876,,0.5,0.3,"[3,1,2]",0.989663153,stimuli/card_100_transparent.png,100,10,0,10,0,1,,,,,,,,,,
,,,,65e6263cc3453b2312ea920a,B,2024-06-22_07h15.38.617,Slot Machine Game,2023.1.3,Win32,59.52380952,,,,,,,,,,,,,,,,,,,,,,,,,,,,,,,,910,,,,,,,,,,,,,,,,2,5,,,391.7872,11,up,0.1252,,0.5,0.3,"[3,1,2]",0.20095215,stimuli/card_100_transparent.png,100,11,0,11,0,1,,,,,,,,,,
,,,,65e6263cc3453b2312ea920a,B,2024-06-22_07h15.38.617,Slot Machine Game,2023.1.3,Win32,59.52380952,,,,,,,,,,,,,,,,,,,,,,,,,,,,,,,,1010,,,,,,,,,,,,,,,,2,5,,,393.2203,12,up,0.049,,1,0.3,"[3,1,2]",0.246684605,stimuli/card_100_transparent.png,100,12,0,12,0,1,,,,,,,,,,
,,,,65e6263cc3453b2312ea920a,B,2024-06-22_07h15.38.617,Slot Machine Game,2023.1.3,Win32,59.52380952,,,,,,,,,,,,,,,,,,,,,,,,,,,,,,,,1110,,,,,,,,,,,,,,,,2,5,,,395.1012,13,up,0.3695,,1,0.3,"[3,1,2]",0.391496987,stimuli/card_100_transparent.png,100,13,0,13,0,1,,,,,,,,,,
,,,,65e6263cc3453b2312ea920a,B,2024-06-22_07h15.38.617,Slot Machine Game,2023.1.3,Win32,59.52380952,,,,,,,,,,,,,,,,,,,,,,,,,,,,,,,,1210,,,,,,,,,,,,,,,,2,5,,,397.2995,14,up,0.0669,,1,0.3,"[3,1,2]",0.279487807,stimuli/card_100_transparent.png,100,14,0,14,0,1,,,,,,,,,,
,,,,65e6263cc3453b2312ea920a,B,2024-06-22_07h15.38.617,Slot Machine Game,2023.1.3,Win32,59.52380952,,,,,,,,,,,,,,,,,,,,,,,,,,,,,,,,,,,399.1809,,,,,,,,,,,,,,,,,,,,,,,,,,,,,,,,,"[820,1210]",1,0,1,0,1,,,,
,,,,65e6263cc3453b2312ea920a,B,2024-06-22_07h15.38.617,Slot Machine Game,2023.1.3,Win32,59.52380952,,,,,,,,,,,,,,,,,,,,,,,,,,,,,,,,10,,,,,,,,,,,,,,,,3,9,"[8,15]","[[3,2,1],[3,1,2]]",404.2019,0,up,0.2497,,1.5,0.3,"[3,2,1]",0.951027677,stimuli/card_10_transparent.png,10,0,0,0,0,1,,,,,,,,,,
,,,,65e6263cc3453b2312ea920a,B,2024-06-22_07h15.38.617,Slot Machine Game,2023.1.3,Win32,59.52380952,,,,,,,,,,,,,,,,,,,,,,,,,,,,,,,,20,,,,,,,,,,,,,,,,3,9,,,406.775,1,up,0.7664,,1.5,0.3,"[3,2,1]",0.24662128,stimuli/card_10_transparent.png,10,1,0,1,0,1,,,,,,,,,,
,,,,65e6263cc3453b2312ea920a,B,2024-06-22_07h15.38.617,Slot Machine Game,2023.1.3,Win32,59.52380952,,,,,,,,,,,,,,,,,,,,,,,,,,,,,,,,120,,,,,,,,,,,,,,,,3,9,,,409.8724,2,right,0.0175,,1.5,0.3,"[3,2,1]",0.817336841,stimuli/card_100_transparent.png,100,2,0,2,0,1,,,,,,,,,,
,,,,65e6263cc3453b2312ea920a,B,2024-06-22_07h15.38.617,Slot Machine Game,2023.1.3,Win32,59.52380952,,,,,,,,,,,,,,,,,,,,,,,,,,,,,,,,120,,,,,,,,,,,,,,,,3,9,,,412.2204,3,right,0.801,,1,0.3,"[3,2,1]",0.039799678,stimuli/card_0_transparent.png,0,3,0,3,0,1,,,,,,,,,,
,,,,65e6263cc3453b2312ea920a,B,2024-06-22_07h15.38.617,Slot Machine Game,2023.1.3,Win32,59.52380952,,,,,,,,,,,,,,,,,,,,,,,,,,,,,,,,220,,,,,,,,,,,,,,,,3,9,,,414.8517,4,right,0.0986,,1.5,0.3,"[3,2,1]",0.608948027,stimuli/card_100_transparent.png,100,4,0,4,0,1,,,,,,,,,,
,,,,65e6263cc3453b2312ea920a,B,2024-06-22_07h15.38.617,Slot Machine Game,2023.1.3,Win32,59.52380952,,,,,,,,,,,,,,,,,,,,,,,,,,,,,,,,320,,,,,,,,,,,,,,,,3,9,,,417.2829,5,right,0.3566,,0.5,0.3,"[3,2,1]",0.912820974,stimuli/card_100_transparent.png,100,5,0,5,0,1,,,,,,,,,,
,,,,65e6263cc3453b2312ea920a,B,2024-06-22_07h15.38.617,Slot Machine Game,2023.1.3,Win32,59.52380952,,,,,,,,,,,,,,,,,,,,,,,,,,,,,,,,420,,,,,,,,,,,,,,,,3,9,,,418.965,6,right,0.608,,1.5,0.3,"[3,2,1]",0.974607704,stimuli/card_100_transparent.png,100,6,0,6,0,1,,,,,,,,,,
,,,,65e6263cc3453b2312ea920a,B,2024-06-22_07h15.38.617,Slot Machine Game,2023.1.3,Win32,59.52380952,,,,,,,,,,,,,,,,,,,,,,,,,,,,,,,,520,,,,,,,,,,,,,,,,3,9,,,421.8957,7,right,0.3571,,0.5,0.3,"[3,2,1]",0.604679268,stimuli/card_100_transparent.png,100,7,0,7,0,1,,,,,,,,,,
,,,,65e6263cc3453b2312ea920a,B,2024-06-22_07h15.38.617,Slot Machine Game,2023.1.3,Win32,59.52380952,,,,,,,,,,,,,,,,,,,,,,,,,,,,,,,,530,,,,,,,,,,,,,,,,3,9,,,423.5777,8,right,0.5663,,0.5,0.3,"[3,1,2]",0.882359665,stimuli/card_10_transparent.png,10,8,0,8,0,1,,,,,,,,,,
,,,,65e6263cc3453b2312ea920a,B,2024-06-22_07h15.38.617,Slot Machine Game,2023.1.3,Win32,59.52380952,,,,,,,,,,,,,,,,,,,,,,,,,,,,,,,,540,,,,,,,,,,,,,,,,3,9,,,425.476,9,right,0.6565,,1,0.3,"[3,1,2]",0.843494692,stimuli/card_10_transparent.png,10,9,0,9,0,1,,,,,,,,,,
,,,,65e6263cc3453b2312ea920a,B,2024-06-22_07h15.38.617,Slot Machine Game,2023.1.3,Win32,59.52380952,,,,,,,,,,,,,,,,,,,,,,,,,,,,,,,,540,,,,,,,,,,,,,,,,3,9,,,427.9574,10,left,0.0918,,1,0.3,"[3,1,2]",0.719073403,stimuli/card_0_transparent.png,0,10,0,10,0,1,,,,,,,,,,
,,,,65e6263cc3453b2312ea920a,B,2024-06-22_07h15.38.617,Slot Machine Game,2023.1.3,Win32,59.52380952,,,,,,,,,,,,,,,,,,,,,,,,,,,,,,,,540,,,,,,,,,,,,,,,,3,9,,,429.8727,11,left,0.152,,0.5,0.3,"[3,1,2]",0.39704151,stimuli/card_0_transparent.png,0,11,0,11,0,1,,,,,,,,,,
,,,,65e6263cc3453b2312ea920a,B,2024-06-22_07h15.38.617,Slot Machine Game,2023.1.3,Win32,59.52380952,,,,,,,,,,,,,,,,,,,,,,,,,,,,,,,,640,,,,,,,,,,,,,,,,3,9,,,431.3548,12,up,0.3195,,0.5,0.3,"[3,1,2]",0.742708444,stimuli/card_100_transparent.png,100,12,0,12,0,1,,,,,,,,,,
,,,,65e6263cc3453b2312ea920a,B,2024-06-22_07h15.38.617,Slot Machine Game,2023.1.3,Win32,59.52380952,,,,,,,,,,,,,,,,,,,,,,,,,,,,,,,,740,,,,,,,,,,,,,,,,3,9,,,433.0033,13,up,0.4362,,0.5,0.3,"[3,1,2]",0.709854753,stimuli/card_100_transparent.png,100,13,0,13,0,1,,,,,,,,,,
,,,,65e6263cc3453b2312ea920a,B,2024-06-22_07h15.38.617,Slot Machine Game,2023.1.3,Win32,59.52380952,,,,,,,,,,,,,,,,,,,,,,,,,,,,,,,,750,,,,,,,,,,,,,,,,3,9,,,434.7686,14,up,0.4171,,0.5,0.3,"[3,1,2]",0.184705571,stimuli/card_10_transparent.png,10,14,0,14,0,1,,,,,,,,,,
,,,,65e6263cc3453b2312ea920a,B,2024-06-22_07h15.38.617,Slot Machine Game,2023.1.3,Win32,59.52380952,,,,,,,,,,,,,,,,,,,,,,,,,,,,,,,,,,,436.517,,,,,,,,,,,,,,,,,,,,,,,,,,,,,,,,,"[820,1210,750]",2,0,2,0,1,,,,
,,,,65e6263cc3453b2312ea920a,B,2024-06-22_07h15.38.617,Slot Machine Game,2023.1.3,Win32,59.52380952,,,,,,,,,,,,,,,,,,,,,,,,,,,,,,,,100,,,,,,,,,,,,,,,,4,1,"[12,15]","[[2,1,3],[2,3,1]]",441.5364,0,up,0.2505,,1.5,0.3,"[2,1,3]",0.390042623,stimuli/card_100_transparent.png,100,0,0,0,0,1,,,,,,,,,,
,,,,65e6263cc3453b2312ea920a,B,2024-06-22_07h15.38.617,Slot Machine Game,2023.1.3,Win32,59.52380952,,,,,,,,,,,,,,,,,,,,,,,,,,,,,,,,110,,,,,,,,,,,,,,,,4,1,,,444.111,1,up,0.2736,,1,0.3,"[2,1,3]",0.12025879,stimuli/card_10_transparent.png,10,1,0,1,0,1,,,,,,,,,,
,,,,65e6263cc3453b2312ea920a,B,2024-06-22_07h15.38.617,Slot Machine Game,2023.1.3,Win32,59.52380952,,,,,,,,,,,,,,,,,,,,,,,,,,,,,,,,110,,,,,,,,,,,,,,,,4,1,,,446.2094,2,up,0.199,,1.5,0.3,"[2,1,3]",0.031988366,stimuli/card_0_transparent.png,0,2,0,2,0,1,,,,,,,,,,
,,,,65e6263cc3453b2312ea920a,B,2024-06-22_07h15.38.617,Slot Machine Game,2023.1.3,Win32,59.52380952,,,,,,,,,,,,,,,,,,,,,,,,,,,,,,,,210,,,,,,,,,,,,,,,,4,1,,,448.7406,3,up,0.0173,,0.5,0.3,"[2,1,3]",0.462852871,stimuli/card_100_transparent.png,100,3,0,3,0,1,,,,,,,,,,
,,,,65e6263cc3453b2312ea920a,B,2024-06-22_07h15.38.617,Slot Machine Game,2023.1.3,Win32,59.52380952,,,,,,,,,,,,,,,,,,,,,,,,,,,,,,,,310,,,,,,,,,,,,,,,,4,1,,,450.0895,4,up,0.1173,,0.5,0.3,"[2,1,3]",0.36632793,stimuli/card_100_transparent.png,100,4,0,4,0,1,,,,,,,,,,
,,,,65e6263cc3453b2312ea920a,B,2024-06-22_07h15.38.617,Slot Machine Game,2023.1.3,Win32,59.52380952,,,,,,,,,,,,,,,,,,,,,,,,,,,,,,,,410,,,,,,,,,,,,,,,,4,1,,,451.5383,5,up,0.0172,,1.5,0.3,"[2,1,3]",0.745466986,stimuli/card_100_transparent.png,100,5,0,5,0,1,,,,,,,,,,
,,,,65e6263cc3453b2312ea920a,B,2024-06-22_07h15.38.617,Slot Machine Game,2023.1.3,Win32,59.52380952,,,,,,,,,,,,,,,,,,,,,,,,,,,,,,,,420,,,,,,,,,,,,,,,,4,1,,,453.8861,6,up,0.0835,,0.5,0.3,"[2,1,3]",0.130887352,stimuli/card_10_transparent.png,10,6,0,6,0,1,,,,,,,,,,
,,,,65e6263cc3453b2312ea920a,B,2024-06-22_07h15.38.617,Slot Machine Game,2023.1.3,Win32,59.52380952,,,,,,,,,,,,,,,,,,,,,,,,,,,,,,,,520,,,,,,,,,,,,,,,,4,1,,,455.3018,7,up,0.2005,,0.5,0.3,"[2,1,3]",0.872402887,stimuli/card_100_transparent.png,100,7,0,7,0,1,,,,,,,,,,
,,,,65e6263cc3453b2312ea920a,B,2024-06-22_07h15.38.617,Slot Machine Game,2023.1.3,Win32,59.52380952,,,,,,,,,,,,,,,,,,,,,,,,,,,,,,,,620,,,,,,,,,,,,,,,,4,1,,,456.8339,8,up,0.1168,,0.5,0.3,"[2,1,3]",0.837477213,stimuli/card_100_transparent.png,100,8,0,8,0,1,,,,,,,,,,
,,,,65e6263cc3453b2312ea920a,B,2024-06-22_07h15.38.617,Slot Machine Game,2023.1.3,Win32,59.52380952,,,,,,,,,,,,,,,,,,,,,,,,,,,,,,,,720,,,,,,,,,,,,,,,,4,1,,,458.2825,9,up,0.0998,,1,0.3,"[2,1,3]",0.57298365,stimuli/card_100_transparent.png,100,9,0,9,0,1,,,,,,,,,,
,,,,65e6263cc3453b2312ea920a,B,2024-06-22_07h15.38.617,Slot Machine Game,2023.1.3,Win32,59.52380952,,,,,,,,,,,,,,,,,,,,,,,,,,,,,,,,820,,,,,,,,,,,,,,,,4,1,,,460.2144,10,up,0.4522,,1,0.3,"[2,1,3]",0.785514333,stimuli/card_100_transparent.png,100,10,0,10,0,1,,,,,,,,,,
,,,,65e6263cc3453b2312ea920a,B,2024-06-22_07h15.38.617,Slot Machine Game,2023.1.3,Win32,59.52380952,,,,,,,,,,,,,,,,,,,,,,,,,,,,,,,,920,,,,,,,,,,,,,,,,4,1,,,462.495,11,up,0.2841,,1,0.3,"[2,1,3]",0.597121699,stimuli/card_100_transparent.png,100,11,0,11,0,1,,,,,,,,,,
,,,,65e6263cc3453b2312ea920a,B,2024-06-22_07h15.38.617,Slot Machine Game,2023.1.3,Win32,59.52380952,,,,,,,,,,,,,,,,,,,,,,,,,,,,,,,,920,,,,,,,,,,,,,,,,4,1,,,464.594,12,up,0.203,,0.5,0.3,"[2,3,1]",0.234920457,stimuli/card_0_transparent.png,0,12,0,12,0,1,,,,,,,,,,
,,,,65e6263cc3453b2312ea920a,B,2024-06-22_07h15.38.617,Slot Machine Game,2023.1.3,Win32,59.52380952,,,,,,,,,,,,,,,,,,,,,,,,,,,,,,,,920,,,,,,,,,,,,,,,,4,1,,,466.1258,13,up,0.1039,,1.5,0.3,"[2,3,1]",0.773956302,stimuli/card_0_transparent.png,0,13,0,13,0,1,,,,,,,,,,
,,,,65e6263cc3453b2312ea920a,B,2024-06-22_07h15.38.617,Slot Machine Game,2023.1.3,Win32,59.52380952,,,,,,,,,,,,,,,,,,,,,,,,,,,,,,,,1020,,,,,,,,,,,,,,,,4,1,,,468.5575,14,right,0.0175,,0.5,0.3,"[2,3,1]",0.327931238,stimuli/card_100_transparent.png,100,14,0,14,0,1,,,,,,,,,,
,,,,65e6263cc3453b2312ea920a,B,2024-06-22_07h15.38.617,Slot Machine Game,2023.1.3,Win32,59.52380952,,,,,,,,,,,,,,,,,,,,,,,,,,,,,,,,,,,469.9064,,,,,,,,,,,,,,,,,,,,,,,,,,,,,,,,,"[820,1210,750,1020]",3,0,3,0,1,,,,
,,,,65e6263cc3453b2312ea920a,B,2024-06-22_07h15.38.617,Slot Machine Game,2023.1.3,Win32,59.52380952,,,,,,,,,,,,,,,,,,,,,,,,,,,,,,,,10,,,,,,,,,,,,,,,,5,2,"[6,15]","[[1,3,2],[3,2,1]]",474.928,0,right,0.2182,,1.5,0.3,"[1,3,2]",0.828257373,stimuli/card_10_transparent.png,10,0,0,0,0,1,,,,,,,,,,
,,,,65e6263cc3453b2312ea920a,B,2024-06-22_07h15.38.617,Slot Machine Game,2023.1.3,Win32,59.52380952,,,,,,,,,,,,,,,,,,,,,,,,,,,,,,,,20,,,,,,,,,,,,,,,,5,2,,,477.4666,1,right,0.3507,,1.5,0.3,"[1,3,2]",0.736262176,stimuli/card_10_transparent.png,10,1,0,1,0,1,,,,,,,,,,
,,,,65e6263cc3453b2312ea920a,B,2024-06-22_07h15.38.617,Slot Machine Game,2023.1.3,Win32,59.52380952,,,,,,,,,,,,,,,,,,,,,,,,,,,,,,,,30,,,,,,,,,,,,,,,,5,2,,,480.1479,2,left,0.9847,,1.5,0.3,"[1,3,2]",0.17552405,stimuli/card_10_transparent.png,10,2,0,2,0,1,,,,,,,,,,
,,,,65e6263cc3453b2312ea920a,B,2024-06-22_07h15.38.617,Slot Machine Game,2023.1.3,Win32,59.52380952,,,,,,,,,,,,,,,,,,,,,,,,,,,,,,,,30,,,,,,,,,,,,,,,,5,2,,,483.4619,3,left,0.5503,,0.5,0.3,"[1,3,2]",0.094146785,stimuli/card_0_transparent.png,0,3,0,3,0,1,,,,,,,,,,
,,,,65e6263cc3453b2312ea920a,B,2024-06-22_07h15.38.617,Slot Machine Game,2023.1.3,Win32,59.52380952,,,,,,,,,,,,,,,,,,,,,,,,,,,,,,,,30,,,,,,,,,,,,,,,,5,2,,,485.3433,4,up,1.104,,0.5,0.3,"[1,3,2]",0.313999934,stimuli/card_0_transparent.png,0,4,0,4,0,1,,,,,,,,,,
,,,,65e6263cc3453b2312ea920a,B,2024-06-22_07h15.38.617,Slot Machine Game,2023.1.3,Win32,59.52380952,,,,,,,,,,,,,,,,,,,,,,,,,,,,,,,,130,,,,,,,,,,,,,,,,5,2,,,487.7751,5,up,0.0008,,1,0.3,"[1,3,2]",0.066547375,stimuli/card_100_transparent.png,100,5,0,5,0,1,,,,,,,,,,
,,,,65e6263cc3453b2312ea920a,B,2024-06-22_07h15.38.617,Slot Machine Game,2023.1.3,Win32,59.52380952,,,,,,,,,,,,,,,,,,,,,,,,,,,,,,,,140,,,,,,,,,,,,,,,,5,2,,,489.6068,6,up,0.7523,,0.5,0.3,"[3,2,1]",0.583310226,stimuli/card_10_transparent.png,10,6,0,6,0,1,,,,,,,,,,
,,,,65e6263cc3453b2312ea920a,B,2024-06-22_07h15.38.617,Slot Machine Game,2023.1.3,Win32,59.52380952,,,,,,,,,,,,,,,,,,,,,,,,,,,,,,,,150,,,,,,,,,,,,,,,,5,2,,,491.6885,7,up,0.4562,,1.5,0.3,"[3,2,1]",0.826070614,stimuli/card_10_transparent.png,10,7,0,7,0,1,,,,,,,,,,
,,,,65e6263cc3453b2312ea920a,B,2024-06-22_07h15.38.617,Slot Machine Game,2023.1.3,Win32,59.52380952,,,,,,,,,,,,,,,,,,,,,,,,,,,,,,,,160,,,,,,,,,,,,,,,,5,2,,,494.4696,8,up,0.4182,,1.5,0.3,"[3,2,1]",0.887298685,stimuli/card_10_transparent.png,10,8,0,8,0,1,,,,,,,,,,
,,,,65e6263cc3453b2312ea920a,B,2024-06-22_07h15.38.617,Slot Machine Game,2023.1.3,Win32,59.52380952,,,,,,,,,,,,,,,,,,,,,,,,,,,,,,,,160,,,,,,,,,,,,,,,,5,2,,,497.2172,9,left,1.6829,,1.5,0.3,"[3,2,1]",0.727346377,stimuli/card_0_transparent.png,0,9,0,9,0,1,,,,,,,,,,
,,,,65e6263cc3453b2312ea920a,B,2024-06-22_07h15.38.617,Slot Machine Game,2023.1.3,Win32,59.52380952,,,,,,,,,,,,,,,,,,,,,,,,,,,,,,,,160,,,,,,,,,,,,,,,,5,2,,,501.2306,10,left,0.8682,,0.5,0.3,"[3,2,1]",0.574403572,stimuli/card_0_transparent.png,0,10,0,10,0,1,,,,,,,,,,
,,,,65e6263cc3453b2312ea920a,B,2024-06-22_07h15.38.617,Slot Machine Game,2023.1.3,Win32,59.52380952,,,,,,,,,,,,,,,,,,,,,,,,,,,,,,,,260,,,,,,,,,,,,,,,,5,2,,,503.4289,11,right,0.2176,,0.5,0.3,"[3,2,1]",0.81405442,stimuli/card_100_transparent.png,100,11,0,11,0,1,,,,,,,,,,
,,,,65e6263cc3453b2312ea920a,B,2024-06-22_07h15.38.617,Slot Machine Game,2023.1.3,Win32,59.52380952,,,,,,,,,,,,,,,,,,,,,,,,,,,,,,,,360,,,,,,,,,,,,,,,,5,2,,,504.9774,12,right,0.1502,,1.5,0.3,"[3,2,1]",0.489054807,stimuli/card_100_transparent.png,100,12,0,12,0,1,,,,,,,,,,
,,,,65e6263cc3453b2312ea920a,B,2024-06-22_07h15.38.617,Slot Machine Game,2023.1.3,Win32,59.52380952,,,,,,,,,,,,,,,,,,,,,,,,,,,,,,,,460,,,,,,,,,,,,,,,,5,2,,,507.459,13,right,0.0739,,1.5,0.3,"[3,2,1]",0.333436962,stimuli/card_100_transparent.png,100,13,0,13,0,1,,,,,,,,,,
,,,,65e6263cc3453b2312ea920a,B,2024-06-22_07h15.38.617,Slot Machine Game,2023.1.3,Win32,59.52380952,,,,,,,,,,,,,,,,,,,,,,,,,,,,,,,,470,,,,,,,,,,,,,,,,5,2,,,509.8568,14,right,0.465,,0.5,0.3,"[3,2,1]",0.153993662,stimuli/card_10_transparent.png,10,14,0,14,0,1,,,,,,,,,,
,,,,65e6263cc3453b2312ea920a,B,2024-06-22_07h15.38.617,Slot Machine Game,2023.1.3,Win32,59.52380952,,,,,,,,,,,,,,,,,,,,,,,,,,,,,,,,,,,511.6553,,,,,,,,,,,,,,,,,,,,,,,,,,,,,,,,,"[820,1210,750,1020,470]",4,0,4,0,1,,,,
,,,,65e6263cc3453b2312ea920a,B,2024-06-22_07h15.38.617,Slot Machine Game,2023.1.3,Win32,59.52380952,,,,,,,,,,,,,,,,,,,,,,,,,,,,,,,,100,,,,,,,,,,,,,,,,6,4,"[7,15]","[[2,3,1],[1,2,3]]",516.6729,0,right,0.4003,,1,0.3,"[2,3,1]",0.823079266,stimuli/card_100_transparent.png,100,0,0,0,0,1,,,,,,,,,,
,,,,65e6263cc3453b2312ea920a,B,2024-06-22_07h15.38.617,Slot Machine Game,2023.1.3,Win32,59.52380952,,,,,,,,,,,,,,,,,,,,,,,,,,,,,,,,100,,,,,,,,,,,,,,,,6,4,,,518.8995,1,right,0.6494,,0.5,0.3,"[2,3,1]",0.023002125,stimuli/card_0_transparent.png,0,1,0,1,0,1,,,,,,,,,,
,,,,65e6263cc3453b2312ea920a,B,2024-06-22_07h15.38.617,Slot Machine Game,2023.1.3,Win32,59.52380952,,,,,,,,,,,,,,,,,,,,,,,,,,,,,,,,200,,,,,,,,,,,,,,,,6,4,,,520.8646,2,right,0.6838,,1.5,0.3,"[2,3,1]",0.960047366,stimuli/card_100_transparent.png,100,2,0,2,0,1,,,,,,,,,,
,,,,65e6263cc3453b2312ea920a,B,2024-06-22_07h15.38.617,Slot Machine Game,2023.1.3,Win32,59.52380952,,,,,,,,,,,,,,,,,,,,,,,,,,,,,,,,300,,,,,,,,,,,,,,,,6,4,,,523.8787,3,right,0.3998,,0.5,0.3,"[2,3,1]",0.685064838,stimuli/card_100_transparent.png,100,3,0,3,0,1,,,,,,,,,,
,,,,65e6263cc3453b2312ea920a,B,2024-06-22_07h15.38.617,Slot Machine Game,2023.1.3,Win32,59.52380952,,,,,,,,,,,,,,,,,,,,,,,,,,,,,,,,300,,,,,,,,,,,,,,,,6,4,,,525.6107,4,right,0.7256,,1,0.3,"[2,3,1]",0.026974916,stimuli/card_0_transparent.png,0,4,0,4,0,1,,,,,,,,,,
,,,,65e6263cc3453b2312ea920a,B,2024-06-22_07h15.38.617,Slot Machine Game,2023.1.3,Win32,59.52380952,,,,,,,,,,,,,,,,,,,,,,,,,,,,,,,,310,,,,,,,,,,,,,,,,6,4,,,528.1584,5,right,0.7779,,1,0.3,"[2,3,1]",0.19704751,stimuli/card_10_transparent.png,10,5,0,5,0,1,,,,,,,,,,
,,,,65e6263cc3453b2312ea920a,B,2024-06-22_07h15.38.617,Slot Machine Game,2023.1.3,Win32,59.52380952,,,,,,,,,,,,,,,,,,,,,,,,,,,,,,,,320,,,,,,,,,,,,,,,,6,4,,,530.7561,6,up,0.6993,,0.5,0.3,"[2,3,1]",0.179355747,stimuli/card_10_transparent.png,10,6,0,6,0,1,,,,,,,,,,
,,,,65e6263cc3453b2312ea920a,B,2024-06-22_07h15.38.617,Slot Machine Game,2023.1.3,Win32,59.52380952,,,,,,,,,,,,,,,,,,,,,,,,,,,,,,,,330,,,,,,,,,,,,,,,,6,4,,,532.7881,7,up,0.0263,,0.5,0.3,"[1,2,3]",0.911499248,stimuli/card_10_transparent.png,10,7,0,7,0,1,,,,,,,,,,
,,,,65e6263cc3453b2312ea920a,B,2024-06-22_07h15.38.617,Slot Machine Game,2023.1.3,Win32,59.52380952,,,,,,,,,,,,,,,,,,,,,,,,,,,,,,,,430,,,,,,,,,,,,,,,,6,4,,,534.1368,8,left,0.3989,,1,0.3,"[1,2,3]",0.233727486,stimuli/card_100_transparent.png,100,8,0,8,0,1,,,,,,,,,,
,,,,65e6263cc3453b2312ea920a,B,2024-06-22_07h15.38.617,Slot Machine Game,2023.1.3,Win32,59.52380952,,,,,,,,,,,,,,,,,,,,,,,,,,,,,,,,440,,,,,,,,,,,,,,,,6,4,,,536.3685,9,left,0.2167,,1,0.3,"[1,2,3]",0.172638131,stimuli/card_10_transparent.png,10,9,0,9,0,1,,,,,,,,,,
,,,,65e6263cc3453b2312ea920a,B,2024-06-22_07h15.38.617,Slot Machine Game,2023.1.3,Win32,59.52380952,,,,,,,,,,,,,,,,,,,,,,,,,,,,,,,,540,,,,,,,,,,,,,,,,6,4,,,538.4166,10,left,0.0357,,1.5,0.3,"[1,2,3]",0.314838846,stimuli/card_100_transparent.png,100,10,0,10,0,1,,,,,,,,,,
,,,,65e6263cc3453b2312ea920a,B,2024-06-22_07h15.38.617,Slot Machine Game,2023.1.3,Win32,59.52380952,,,,,,,,,,,,,,,,,,,,,,,,,,,,,,,,640,,,,,,,,,,,,,,,,6,4,,,540.7982,11,left,0.4613,,0.5,0.3,"[1,2,3]",0.734906158,stimuli/card_100_transparent.png,100,11,0,11,0,1,,,,,,,,,,
,,,,65e6263cc3453b2312ea920a,B,2024-06-22_07h15.38.617,Slot Machine Game,2023.1.3,Win32,59.52380952,,,,,,,,,,,,,,,,,,,,,,,,,,,,,,,,740,,,,,,,,,,,,,,,,6,4,,,542.5857,12,left,0.3681,,0.5,0.3,"[1,2,3]",0.835222738,stimuli/card_100_transparent.png,100,12,0,12,0,1,,,,,,,,,,
,,,,65e6263cc3453b2312ea920a,B,2024-06-22_07h15.38.617,Slot Machine Game,2023.1.3,Win32,59.52380952,,,,,,,,,,,,,,,,,,,,,,,,,,,,,,,,840,,,,,,,,,,,,,,,,6,4,,,544.262,13,left,0.2784,,1,0.3,"[1,2,3]",0.975695414,stimuli/card_100_transparent.png,100,13,0,13,0,1,,,,,,,,,,
,,,,65e6263cc3453b2312ea920a,B,2024-06-22_07h15.38.617,Slot Machine Game,2023.1.3,Win32,59.52380952,,,,,,,,,,,,,,,,,,,,,,,,,,,,,,,,940,,,,,,,,,,,,,,,,6,4,,,546.3767,14,left,0.0009,,0.5,0.3,"[1,2,3]",0.416915854,stimuli/card_100_transparent.png,100,14,0,14,0,1,,,,,,,,,,
,,,,65e6263cc3453b2312ea920a,B,2024-06-22_07h15.38.617,Slot Machine Game,2023.1.3,Win32,59.52380952,,,,,,,,,,,,,,,,,,,,,,,,,,,,,,,,,,,547.7094,,,,,,,,,,,,,,,,,,,,,,,,,,,,,,,,,"[820,1210,750,1020,470,940]",5,0,5,0,1,,,,
,,,,65e6263cc3453b2312ea920a,B,2024-06-22_07h15.38.617,Slot Machine Game,2023.1.3,Win32,59.52380952,,,,,,,,,,,,,,,,,,,,,,,,,,,,,,,,0,,,,,,,,,,,,,,,,7,10,"[10,15]","[[3,1,2],[1,3,2]]",552.7287,0,left,0.2947,,0.5,0.3,"[3,1,2]",0.217049159,stimuli/card_0_transparent.png,0,0,0,0,0,1,,,,,,,,,,
,,,,65e6263cc3453b2312ea920a,B,2024-06-22_07h15.38.617,Slot Machine Game,2023.1.3,Win32,59.52380952,,,,,,,,,,,,,,,,,,,,,,,,,,,,,,,,0,,,,,,,,,,,,,,,,7,10,,,554.3365,1,left,0.4392,,0.5,0.3,"[3,1,2]",0.650433864,stimuli/card_0_transparent.png,0,1,0,1,0,1,,,,,,,,,,
,,,,65e6263cc3453b2312ea920a,B,2024-06-22_07h15.38.617,Slot Machine Game,2023.1.3,Win32,59.52380952,,,,,,,,,,,,,,,,,,,,,,,,,,,,,,,,100,,,,,,,,,,,,,,,,7,10,,,556.1023,2,up,0.9696,,0.5,0.3,"[3,1,2]",0.974761774,stimuli/card_100_transparent.png,100,2,0,2,0,1,,,,,,,,,,
,,,,65e6263cc3453b2312ea920a,B,2024-06-22_07h15.38.617,Slot Machine Game,2023.1.3,Win32,59.52380952,,,,,,,,,,,,,,,,,,,,,,,,,,,,,,,,110,,,,,,,,,,,,,,,,7,10,,,558.4005,3,up,0.2992,,0.5,0.3,"[3,1,2]",0.138780571,stimuli/card_10_transparent.png,10,3,0,3,0,1,,,,,,,,,,
,,,,65e6263cc3453b2312ea920a,B,2024-06-22_07h15.38.617,Slot Machine Game,2023.1.3,Win32,59.52380952,,,,,,,,,,,,,,,,,,,,,,,,,,,,,,,,210,,,,,,,,,,,,,,,,7,10,,,560.0157,4,up,0.6233,,1,0.3,"[3,1,2]",0.914300003,stimuli/card_100_transparent.png,100,4,0,4,0,1,,,,,,,,,,
,,,,65e6263cc3453b2312ea920a,B,2024-06-22_07h15.38.617,Slot Machine Game,2023.1.3,Win32,59.52380952,,,,,,,,,,,,,,,,,,,,,,,,,,,,,,,,310,,,,,,,,,,,,,,,,7,10,,,562.4525,5,up,0.3349,,1.5,0.3,"[3,1,2]",0.884573188,stimuli/card_100_transparent.png,100,5,0,5,0,1,,,,,,,,,,
,,,,65e6263cc3453b2312ea920a,B,2024-06-22_07h15.38.617,Slot Machine Game,2023.1.3,Win32,59.52380952,,,,,,,,,,,,,,,,,,,,,,,,,,,,,,,,410,,,,,,,,,,,,,,,,7,10,,,565.1116,6,up,0.2381,,1.5,0.3,"[3,1,2]",0.572443077,stimuli/card_100_transparent.png,100,6,0,6,0,1,,,,,,,,,,
,,,,65e6263cc3453b2312ea920a,B,2024-06-22_07h15.38.617,Slot Machine Game,2023.1.3,Win32,59.52380952,,,,,,,,,,,,,,,,,,,,,,,,,,,,,,,,510,,,,,,,,,,,,,,,,7,10,,,567.6759,7,up,0.6018,,0.5,0.3,"[3,1,2]",0.784540389,stimuli/card_100_transparent.png,100,7,0,7,0,1,,,,,,,,,,
,,,,65e6263cc3453b2312ea920a,B,2024-06-22_07h15.38.617,Slot Machine Game,2023.1.3,Win32,59.52380952,,,,,,,,,,,,,,,,,,,,,,,,,,,,,,,,610,,,,,,,,,,,,,,,,7,10,,,569.6078,8,up,0.7002,,0.5,0.3,"[3,1,2]",0.36078126,stimuli/card_100_transparent.png,100,8,0,8,0,1,,,,,,,,,,
,,,,65e6263cc3453b2312ea920a,B,2024-06-22_07h15.38.617,Slot Machine Game,2023.1.3,Win32,59.52380952,,,,,,,,,,,,,,,,,,,,,,,,,,,,,,,,610,,,,,,,,,,,,,,,,7,10,,,571.6395,9,up,0.9365,,0.5,0.3,"[3,1,2]",0.09725933,stimuli/card_0_transparent.png,0,9,0,9,0,1,,,,,,,,,,
,,,,65e6263cc3453b2312ea920a,B,2024-06-22_07h15.38.617,Slot Machine Game,2023.1.3,Win32,59.52380952,,,,,,,,,,,,,,,,,,,,,,,,,,,,,,,,610,,,,,,,,,,,,,,,,7,10,,,573.9044,10,up,0.4841,,1.5,0.3,"[1,3,2]",0.833752521,stimuli/card_0_transparent.png,0,10,0,10,0,1,,,,,,,,,,
,,,,65e6263cc3453b2312ea920a,B,2024-06-22_07h15.38.617,Slot Machine Game,2023.1.3,Win32,59.52380952,,,,,,,,,,,,,,,,,,,,,,,,,,,,,,,,620,,,,,,,,,,,,,,,,7,10,,,576.702,11,right,0.0529,,1.5,0.3,"[1,3,2]",0.935120686,stimuli/card_10_transparent.png,10,11,0,11,0,1,,,,,,,,,,
,,,,65e6263cc3453b2312ea920a,B,2024-06-22_07h15.38.617,Slot Machine Game,2023.1.3,Win32,59.52380952,,,,,,,,,,,,,,,,,,,,,,,,,,,,,,,,630,,,,,,,,,,,,,,,,7,10,,,579.0835,12,right,0.6882,,1,0.3,"[1,3,2]",0.69137977,stimuli/card_10_transparent.png,10,12,0,12,0,1,,,,,,,,,,
,,,,65e6263cc3453b2312ea920a,B,2024-06-22_07h15.38.617,Slot Machine Game,2023.1.3,Win32,59.52380952,,,,,,,,,,,,,,,,,,,,,,,,,,,,,,,,730,,,,,,,,,,,,,,,,7,10,,,581.598,13,left,0.2603,,0.5,0.3,"[1,3,2]",0.613955742,stimuli/card_100_transparent.png,100,13,0,13,0,1,,,,,,,,,,
,,,,65e6263cc3453b2312ea920a,B,2024-06-22_07h15.38.617,Slot Machine Game,2023.1.3,Win32,59.52380952,,,,,,,,,,,,,,,,,,,,,,,,,,,,,,,,830,,,,,,,,,,,,,,,,7,10,,,583.18,14,left,0.5239,,0.5,0.3,"[1,3,2]",0.78417474,stimuli/card_100_transparent.png,100,14,0,14,0,1,,,,,,,,,,
,,,,65e6263cc3453b2312ea920a,B,2024-06-22_07h15.38.617,Slot Machine Game,2023.1.3,Win32,59.52380952,,,,,,,,,,,,,,,,,,,,,,,,,,,,,,,,,,,585.0285,,,,,,,,,,,,,,,,,,,,,,,,,,,,,,,,,"[820,1210,750,1020,470,940,830]",6,0,6,0,1,,,,
,,,,65e6263cc3453b2312ea920a,B,2024-06-22_07h15.38.617,Slot Machine Game,2023.1.3,Win32,59.52380952,,,,,,,,,,,,,,,,,,,,,,,,,,,,,,,,0,,,,,,,,,,,,,,,,8,7,"[9,15]","[[1,3,2],[2,3,1]]",590.0467,0,up,0.4916,,1.5,0.3,"[1,3,2]",0.748087966,stimuli/card_0_transparent.png,0,0,0,0,0,1,,,,,,,,,,
,,,,65e6263cc3453b2312ea920a,B,2024-06-22_07h15.38.617,Slot Machine Game,2023.1.3,Win32,59.52380952,,,,,,,,,,,,,,,,,,,,,,,,,,,,,,,,100,,,,,,,,,,,,,,,,8,7,,,592.8555,1,up,0.3016,,1,0.3,"[1,3,2]",0.067664479,stimuli/card_100_transparent.png,100,1,0,1,0,1,,,,,,,,,,
,,,,65e6263cc3453b2312ea920a,B,2024-06-22_07h15.38.617,Slot Machine Game,2023.1.3,Win32,59.52380952,,,,,,,,,,,,,,,,,,,,,,,,,,,,,,,,100,,,,,,,,,,,,,,,,8,7,,,594.9868,2,up,0.0879,,1,0.3,"[1,3,2]",0.711793906,stimuli/card_0_transparent.png,0,2,0,2,0,1,,,,,,,,,,
,,,,65e6263cc3453b2312ea920a,B,2024-06-22_07h15.38.617,Slot Machine Game,2023.1.3,Win32,59.52380952,,,,,,,,,,,,,,,,,,,,,,,,,,,,,,,,100,,,,,,,,,,,,,,,,8,7,,,596.8853,3,up,0.0617,,0.5,0.3,"[1,3,2]",0.348995062,stimuli/card_0_transparent.png,0,3,0,3,0,1,,,,,,,,,,
,,,,65e6263cc3453b2312ea920a,B,2024-06-22_07h15.38.617,Slot Machine Game,2023.1.3,Win32,59.52380952,,,,,,,,,,,,,,,,,,,,,,,,,,,,,,,,100,,,,,,,,,,,,,,,,8,7,,,598.2674,4,up,0.1366,,1,0.3,"[1,3,2]",0.705700331,stimuli/card_0_transparent.png,0,4,0,4,0,1,,,,,,,,,,
,,,,65e6263cc3453b2312ea920a,B,2024-06-22_07h15.38.617,Slot Machine Game,2023.1.3,Win32,59.52380952,,,,,,,,,,,,,,,,,,,,,,,,,,,,,,,,100,,,,,,,,,,,,,,,,8,7,,,600.2324,5,left,0.6029,,0.5,0.3,"[1,3,2]",0.079817975,stimuli/card_0_transparent.png,0,5,0,5,0,1,,,,,,,,,,
,,,,65e6263cc3453b2312ea920a,B,2024-06-22_07h15.38.617,Slot Machine Game,2023.1.3,Win32,59.52380952,,,,,,,,,,,,,,,,,,,,,,,,,,,,,,,,200,,,,,,,,,,,,,,,,8,7,,,602.1644,6,left,0.2232,,1.5,0.3,"[1,3,2]",0.218680124,stimuli/card_100_transparent.png,100,6,0,6,0,1,,,,,,,,,,
,,,,65e6263cc3453b2312ea920a,B,2024-06-22_07h15.38.617,Slot Machine Game,2023.1.3,Win32,59.52380952,,,,,,,,,,,,,,,,,,,,,,,,,,,,,,,,300,,,,,,,,,,,,,,,,8,7,,,604.7123,7,left,0.3004,,1.5,0.3,"[1,3,2]",0.836948076,stimuli/card_100_transparent.png,100,7,0,7,0,1,,,,,,,,,,
,,,,65e6263cc3453b2312ea920a,B,2024-06-22_07h15.38.617,Slot Machine Game,2023.1.3,Win32,59.52380952,,,,,,,,,,,,,,,,,,,,,,,,,,,,,,,,400,,,,,,,,,,,,,,,,8,7,,,607.3435,8,left,0.1686,,1.5,0.3,"[1,3,2]",0.542572464,stimuli/card_100_transparent.png,100,8,0,8,0,1,,,,,,,,,,
,,,,65e6263cc3453b2312ea920a,B,2024-06-22_07h15.38.617,Slot Machine Game,2023.1.3,Win32,59.52380952,,,,,,,,,,,,,,,,,,,,,,,,,,,,,,,,410,,,,,,,,,,,,,,,,8,7,,,609.8415,9,left,0.1351,,1.5,0.3,"[2,3,1]",0.664109685,stimuli/card_10_transparent.png,10,9,0,9,0,1,,,,,,,,,,
,,,,65e6263cc3453b2312ea920a,B,2024-06-22_07h15.38.617,Slot Machine Game,2023.1.3,Win32,59.52380952,,,,,,,,,,,,,,,,,,,,,,,,,,,,,,,,420,,,,,,,,,,,,,,,,8,7,,,612.3061,10,left,0.5428,,1.5,0.3,"[2,3,1]",0.393745078,stimuli/card_10_transparent.png,10,10,0,10,0,1,,,,,,,,,,
,,,,65e6263cc3453b2312ea920a,B,2024-06-22_07h15.38.617,Slot Machine Game,2023.1.3,Win32,59.52380952,,,,,,,,,,,,,,,,,,,,,,,,,,,,,,,,520,,,,,,,,,,,,,,,,8,7,,,615.1762,11,right,0.1649,,0.5,0.3,"[2,3,1]",0.937565667,stimuli/card_100_transparent.png,100,11,0,11,0,1,,,,,,,,,,
,,,,65e6263cc3453b2312ea920a,B,2024-06-22_07h15.38.617,Slot Machine Game,2023.1.3,Win32,59.52380952,,,,,,,,,,,,,,,,,,,,,,,,,,,,,,,,620,,,,,,,,,,,,,,,,8,7,,,616.652,12,right,0.4196,,1.5,0.3,"[2,3,1]",0.714284245,stimuli/card_100_transparent.png,100,12,0,12,0,1,,,,,,,,,,
,,,,65e6263cc3453b2312ea920a,B,2024-06-22_07h15.38.617,Slot Machine Game,2023.1.3,Win32,59.52380952,,,,,,,,,,,,,,,,,,,,,,,,,,,,,,,,720,,,,,,,,,,,,,,,,8,7,,,619.4003,13,right,0.2834,,0.5,0.3,"[2,3,1]",0.648131271,stimuli/card_100_transparent.png,100,13,0,13,0,1,,,,,,,,,,
,,,,65e6263cc3453b2312ea920a,B,2024-06-22_07h15.38.617,Slot Machine Game,2023.1.3,Win32,59.52380952,,,,,,,,,,,,,,,,,,,,,,,,,,,,,,,,820,,,,,,,,,,,,,,,,8,7,,,620.999,14,right,0.3435,,1,0.3,"[2,3,1]",0.289561345,stimuli/card_100_transparent.png,100,14,0,14,0,1,,,,,,,,,,
,,,,65e6263cc3453b2312ea920a,B,2024-06-22_07h15.38.617,Slot Machine Game,2023.1.3,Win32,59.52380952,,,,,,,,,,,,,,,,,,,,,,,,,,,,,,,,,,,623.1805,,,,,,,,,,,,,,,,,,,,,,,,,,,,,,,,,"[820,1210,750,1020,470,940,830,820]",7,0,7,0,1,,,,
,,,,65e6263cc3453b2312ea920a,B,2024-06-22_07h15.38.617,Slot Machine Game,2023.1.3,Win32,59.52380952,,,,,,,,,,,,,,,,,,,,,,,,,,,,,,,,10,,,,,,,,,,,,,,,,9,9,[15],"[[3,1,2]]",628.2061,0,right,0.3013,,1,0.3,"[3,1,2]",0.806262986,stimuli/card_10_transparent.png,10,0,0,0,0,1,,,,,,,,,,
,,,,65e6263cc3453b2312ea920a,B,2024-06-22_07h15.38.617,Slot Machine Game,2023.1.3,Win32,59.52380952,,,,,,,,,,,,,,,,,,,,,,,,,,,,,,,,20,,,,,,,,,,,,,,,,9,9,,,630.3245,1,right,0.2755,,1.5,0.3,"[3,1,2]",0.968115396,stimuli/card_10_transparent.png,10,1,0,1,0,1,,,,,,,,,,
,,,,65e6263cc3453b2312ea920a,B,2024-06-22_07h15.38.617,Slot Machine Game,2023.1.3,Win32,59.52380952,,,,,,,,,,,,,,,,,,,,,,,,,,,,,,,,120,,,,,,,,,,,,,,,,9,9,,,632.9223,2,up,0.0177,,0.5,0.3,"[3,1,2]",0.492950639,stimuli/card_100_transparent.png,100,2,0,2,0,1,,,,,,,,,,
,,,,65e6263cc3453b2312ea920a,B,2024-06-22_07h15.38.617,Slot Machine Game,2023.1.3,Win32,59.52380952,,,,,,,,,,,,,,,,,,,,,,,,,,,,,,,,130,,,,,,,,,,,,,,,,9,9,,,634.2714,3,up,0.3504,,0.5,0.3,"[3,1,2]",0.175937462,stimuli/card_10_transparent.png,10,3,0,3,0,1,,,,,,,,,,
,,,,65e6263cc3453b2312ea920a,B,2024-06-22_07h15.38.617,Slot Machine Game,2023.1.3,Win32,59.52380952,,,,,,,,,,,,,,,,,,,,,,,,,,,,,,,,230,,,,,,,,,,,,,,,,9,9,,,635.9533,4,up,0.2505,,1.5,0.3,"[3,1,2]",0.352258643,stimuli/card_100_transparent.png,100,4,0,4,0,1,,,,,,,,,,
,,,,65e6263cc3453b2312ea920a,B,2024-06-22_07h15.38.617,Slot Machine Game,2023.1.3,Win32,59.52380952,,,,,,,,,,,,,,,,,,,,,,,,,,,,,,,,330,,,,,,,,,,,,,,,,9,9,,,638.5346,5,up,0.0847,,1.5,0.3,"[3,1,2]",0.880162956,stimuli/card_100_transparent.png,100,5,0,5,0,1,,,,,,,,,,
,,,,65e6263cc3453b2312ea920a,B,2024-06-22_07h15.38.617,Slot Machine Game,2023.1.3,Win32,59.52380952,,,,,,,,,,,,,,,,,,,,,,,,,,,,,,,,430,,,,,,,,,,,,,,,,9,9,,,640.9492,6,up,0.0361,,1.5,0.3,"[3,1,2]",0.219229132,stimuli/card_100_transparent.png,100,6,0,6,0,1,,,,,,,,,,
,,,,65e6263cc3453b2312ea920a,B,2024-06-22_07h15.38.617,Slot Machine Game,2023.1.3,Win32,59.52380952,,,,,,,,,,,,,,,,,,,,,,,,,,,,,,,,530,,,,,,,,,,,,,,,,9,9,,,643.3137,7,up,0.655,,1,0.3,"[3,1,2]",0.670666453,stimuli/card_100_transparent.png,100,7,0,7,0,1,,,,,,,,,,
,,,,65e6263cc3453b2312ea920a,B,2024-06-22_07h15.38.617,Slot Machine Game,2023.1.3,Win32,59.52380952,,,,,,,,,,,,,,,,,,,,,,,,,,,,,,,,630,,,,,,,,,,,,,,,,9,9,,,645.795,8,up,0.1255,,1,0.3,"[3,1,2]",0.673031964,stimuli/card_100_transparent.png,100,8,0,8,0,1,,,,,,,,,,
,,,,65e6263cc3453b2312ea920a,B,2024-06-22_07h15.38.617,Slot Machine Game,2023.1.3,Win32,59.52380952,,,,,,,,,,,,,,,,,,,,,,,,,,,,,,,,730,,,,,,,,,,,,,,,,9,9,,,647.7437,9,up,0.3504,,1,0.3,"[3,1,2]",0.237411751,stimuli/card_100_transparent.png,100,9,0,9,0,1,,,,,,,,,,
,,,,65e6263cc3453b2312ea920a,B,2024-06-22_07h15.38.617,Slot Machine Game,2023.1.3,Win32,59.52380952,,,,,,,,,,,,,,,,,,,,,,,,,,,,,,,,830,,,,,,,,,,,,,,,,9,9,,,649.9251,10,up,0.2014,,0.5,0.3,"[3,1,2]",0.204334646,stimuli/card_100_transparent.png,100,10,0,10,0,1,,,,,,,,,,
,,,,65e6263cc3453b2312ea920a,B,2024-06-22_07h15.38.617,Slot Machine Game,2023.1.3,Win32,59.52380952,,,,,,,,,,,,,,,,,,,,,,,,,,,,,,,,930,,,,,,,,,,,,,,,,9,9,,,651.4569,11,up,0.2253,,1,0.3,"[3,1,2]",0.74321878,stimuli/card_100_transparent.png,100,11,0,11,0,1,,,,,,,,,,
,,,,65e6263cc3453b2312ea920a,B,2024-06-22_07h15.38.617,Slot Machine Game,2023.1.3,Win32,59.52380952,,,,,,,,,,,,,,,,,,,,,,,,,,,,,,,,1030,,,,,,,,,,,,,,,,9,9,,,653.5053,12,up,0.5835,,0.5,0.3,"[3,1,2]",0.648990556,stimuli/card_100_transparent.png,100,12,0,12,0,1,,,,,,,,,,
,,,,65e6263cc3453b2312ea920a,B,2024-06-22_07h15.38.617,Slot Machine Game,2023.1.3,Win32,59.52380952,,,,,,,,,,,,,,,,,,,,,,,,,,,,,,,,1130,,,,,,,,,,,,,,,,9,9,,,655.4202,13,up,0.1734,,1,0.3,"[3,1,2]",0.652507013,stimuli/card_100_transparent.png,100,13,0,13,0,1,,,,,,,,,,
,,,,65e6263cc3453b2312ea920a,B,2024-06-22_07h15.38.617,Slot Machine Game,2023.1.3,Win32,59.52380952,,,,,,,,,,,,,,,,,,,,,,,,,,,,,,,,1130,,,,,,,,,,,,,,,,9,9,,,657.419,14,up,0.005,,0.5,0.3,"[3,1,2]",0.025909053,stimuli/card_0_transparent.png,0,14,0,14,0,1,,,,,,,,,,
,,,,65e6263cc3453b2312ea920a,B,2024-06-22_07h15.38.617,Slot Machine Game,2023.1.3,Win32,59.52380952,,,,,,,,,,,,,,,,,,,,,,,,,,,,,,,,,,,658.7512,,,,,,,,,,,,,,,,,,,,,,,,,,,,,,,,,"[820,1210,750,1020,470,940,830,820,1130]",8,0,8,0,1,,,,
,,,,65e6263cc3453b2312ea920a,B,2024-06-22_07h15.38.617,Slot Machine Game,2023.1.3,Win32,59.52380952,,,,,,,,,,,,,,,,,,,,,,,,,,,,,,,,0,,,,,,,,,,,,,,,,10,6,"[4,10,15]","[[2,3,1],[1,3,2],[3,2,1]]",663.7706,0,up,0.4691,,1.5,0.3,"[2,3,1]",0.285828065,stimuli/card_0_transparent.png,0,0,0,0,0,1,,,,,,,,,,
,,,,65e6263cc3453b2312ea920a,B,2024-06-22_07h15.38.617,Slot Machine Game,2023.1.3,Win32,59.52380952,,,,,,,,,,,,,,,,,,,,,,,,,,,,,,,,0,,,,,,,,,,,,,,,,10,6,,,666.5613,1,up,0.4675,,1,0.3,"[2,3,1]",0.334629962,stimuli/card_0_transparent.png,0,1,0,1,0,1,,,,,,,,,,
,,,,65e6263cc3453b2312ea920a,B,2024-06-22_07h15.38.617,Slot Machine Game,2023.1.3,Win32,59.52380952,,,,,,,,,,,,,,,,,,,,,,,,,,,,,,,,10,,,,,,,,,,,,,,,,10,6,,,668.8596,2,left,0.1188,,1.5,0.3,"[2,3,1]",0.220803586,stimuli/card_10_transparent.png,10,2,0,2,0,1,,,,,,,,,,
,,,,65e6263cc3453b2312ea920a,B,2024-06-22_07h15.38.617,Slot Machine Game,2023.1.3,Win32,59.52380952,,,,,,,,,,,,,,,,,,,,,,,,,,,,,,,,20,,,,,,,,,,,,,,,,10,6,,,671.3076,3,left,0.5331,,0.5,0.3,"[2,3,1]",0.648055772,stimuli/card_10_transparent.png,10,3,0,3,0,1,,,,,,,,,,
,,,,65e6263cc3453b2312ea920a,B,2024-06-22_07h15.38.617,Slot Machine Game,2023.1.3,Win32,59.52380952,,,,,,,,,,,,,,,,,,,,,,,,,,,,,,,,30,,,,,,,,,,,,,,,,10,6,,,673.1727,4,right,0.1908,,1,0.3,"[1,3,2]",0.366344284,stimuli/card_10_transparent.png,10,4,0,4,0,1,,,,,,,,,,
,,,,65e6263cc3453b2312ea920a,B,2024-06-22_07h15.38.617,Slot Machine Game,2023.1.3,Win32,59.52380952,,,,,,,,,,,,,,,,,,,,,,,,,,,,,,,,40,,,,,,,,,,,,,,,,10,6,,,675.1876,5,right,0.3856,,1,0.3,"[1,3,2]",0.345194158,stimuli/card_10_transparent.png,10,5,0,5,0,1,,,,,,,,,,
,,,,65e6263cc3453b2312ea920a,B,2024-06-22_07h15.38.617,Slot Machine Game,2023.1.3,Win32,59.52380952,,,,,,,,,,,,,,,,,,,,,,,,,,,,,,,,50,,,,,,,,,,,,,,,,10,6,,,677.4027,6,left,0.2672,,1,0.3,"[1,3,2]",0.186945683,stimuli/card_10_transparent.png,10,6,0,6,0,1,,,,,,,,,,
,,,,65e6263cc3453b2312ea920a,B,2024-06-22_07h15.38.617,Slot Machine Game,2023.1.3,Win32,59.52380952,,,,,,,,,,,,,,,,,,,,,,,,,,,,,,,,50,,,,,,,,,,,,,,,,10,6,,,679.5009,7,left,0.202,,1,0.3,"[1,3,2]",0.052580876,stimuli/card_0_transparent.png,0,7,0,7,0,1,,,,,,,,,,
,,,,65e6263cc3453b2312ea920a,B,2024-06-22_07h15.38.617,Slot Machine Game,2023.1.3,Win32,59.52380952,,,,,,,,,,,,,,,,,,,,,,,,,,,,,,,,50,,,,,,,,,,,,,,,,10,6,,,681.5321,8,up,0.0323,,0.5,0.3,"[1,3,2]",0.669114059,stimuli/card_0_transparent.png,0,8,0,8,0,1,,,,,,,,,,
,,,,65e6263cc3453b2312ea920a,B,2024-06-22_07h15.38.617,Slot Machine Game,2023.1.3,Win32,59.52380952,,,,,,,,,,,,,,,,,,,,,,,,,,,,,,,,50,,,,,,,,,,,,,,,,10,6,,,682.898,9,up,0.621,,1,0.3,"[1,3,2]",0.950946312,stimuli/card_0_transparent.png,0,9,0,9,0,1,,,,,,,,,,
,,,,65e6263cc3453b2312ea920a,B,2024-06-22_07h15.38.617,Slot Machine Game,2023.1.3,Win32,59.52380952,,,,,,,,,,,,,,,,,,,,,,,,,,,,,,,,60,,,,,,,,,,,,,,,,10,6,,,685.3458,10,up,0.4679,,1,0.3,"[3,2,1]",0.469104276,stimuli/card_10_transparent.png,10,10,0,10,0,1,,,,,,,,,,
,,,,65e6263cc3453b2312ea920a,B,2024-06-22_07h15.38.617,Slot Machine Game,2023.1.3,Win32,59.52380952,,,,,,,,,,,,,,,,,,,,,,,,,,,,,,,,70,,,,,,,,,,,,,,,,10,6,,,687.6442,11,up,0.7188,,1,0.3,"[3,2,1]",0.535317935,stimuli/card_10_transparent.png,10,11,0,11,0,1,,,,,,,,,,
,,,,65e6263cc3453b2312ea920a,B,2024-06-22_07h15.38.617,Slot Machine Game,2023.1.3,Win32,59.52380952,,,,,,,,,,,,,,,,,,,,,,,,,,,,,,,,80,,,,,,,,,,,,,,,,10,6,,,690.1921,12,right,0.5246,,1,0.3,"[3,2,1]",0.192805283,stimuli/card_10_transparent.png,10,12,0,12,0,1,,,,,,,,,,
,,,,65e6263cc3453b2312ea920a,B,2024-06-22_07h15.38.617,Slot Machine Game,2023.1.3,Win32,59.52380952,,,,,,,,,,,,,,,,,,,,,,,,,,,,,,,,90,,,,,,,,,,,,,,,,10,6,,,692.5401,13,right,1.3679,,1.5,0.3,"[3,2,1]",0.102451904,stimuli/card_10_transparent.png,10,13,0,13,0,1,,,,,,,,,,
,,,,65e6263cc3453b2312ea920a,B,2024-06-22_07h15.38.617,Slot Machine Game,2023.1.3,Win32,59.52380952,,,,,,,,,,,,,,,,,,,,,,,,,,,,,,,,100,,,,,,,,,,,,,,,,10,6,,,696.2367,14,up,0.3163,,1,0.3,"[3,2,1]",0.880453872,stimuli/card_10_transparent.png,10,14,0,14,0,1,,,,,,,,,,
,,,,65e6263cc3453b2312ea920a,B,2024-06-22_07h15.38.617,Slot Machine Game,2023.1.3,Win32,59.52380952,,,,,,,,,,,,,,,,,,,,,,,,,,,,,,,,,,,698.3854,,,,,,,,,,,,,,,,,,,,,,,,,,,,,,,,,"[820,1210,750,1020,470,940,830,820,1130,100]",9,0,9,0,1,,,,
,,,,65e6263cc3453b2312ea920a,B,2024-06-22_07h15.38.617,Slot Machine Game,2023.1.3,Win32,59.52380952,,,,,,,,,,,,,,,,,,,,,,,,,,,,,,,,,,,,,,,,,,,,,,,,,,,,,,,,,,,,,,,,,,,,,,,,,,9,"[820,1210,750,1020,470,940,830,820,1130,100]",10.2,2024-06-22_07h27.26.139
