key_resp_welcome_started,key_resp_welcome_keys,key_resp_welcome_rt,key_resp_welcome_duration,prolific_id,path_id,date,expName,psychopyVersion,OS,frameRate,key_resp_instruction1_started,key_resp_instruction1_keys,key_resp_instruction1_rt,key_resp_instruction1_duration,key_resp_instruction2_started,key_resp_instruction2_keys,key_resp_instruction2_rt,key_resp_instruction2_duration,key_resp_instruction3_started,key_resp_instruction3_keys,key_resp_instruction3_rt,key_resp_instruction3_duration,key_resp_instruction4_started,key_resp_instruction4_keys,key_resp_instruction4_rt,key_resp_instruction4_duration,practiceCondition,practice_reward_seqs,practice_trial_started,practice_trial_num,practice_resp_rt,practice_resp_duration,practice_resp_keys,prac_presentationInterval,"practice_reward_seq: 2,1,3",reward_img,cumulative_reward,trial_reward,practice_trials.thisRepN,practice_trials.thisTrialN,practice_trials.thisN,practice_trials.thisIndex,practice_trials.ran,"practice_reward_seq: 2,3,1",block_break_started,"practice_reward_seq: 1,3,2","practice_reward_seq: 3,1,2",practice_end_time,practice_end_keys,practice_end_rt,practice_end_duration,main_instruction_text_started,block_condition,block_order_indices,main_instruction_keys,main_instruction_rt,main_instruction_duration,block_number,block_assignment,current_condition,main_reward_seqs,main_trial_started,main_trial_num,main_trial_keys,main_trial_rt,main_trial_duration,main_presentationInterval,reward_presentation_time,main_reward_seq,reward_rand_val,main_reward_img,current_reward,main_trials.thisRepN,main_trials.thisTrialN,main_trials.thisN,main_trials.thisIndex,main_trials.ran,block_reward,block.thisRepN,block.thisTrialN,block.thisN,block.thisIndex,block.ran,block_reward.length,block_reward_all,reward_amount,date_end_task
0.0003,return,1.2575,,65e8fd23ef669d553e9db84b,A,2024-07-04_18h13.32.684,Slot Machine Game,2023.1.3,Win32,60.24096386,,,,,,,,,,,,,,,,,,,,,,,,,,,,,,,,,,,,,,,,,,,,,,,,,,,,,,,,,,,,,,,,,,,,,,,,,,,,,
,,,,65e8fd23ef669d553e9db84b,A,2024-07-04_18h13.32.684,Slot Machine Game,2023.1.3,Win32,60.24096386,1.2729,return,1.206,,,,,,,,,,,,,,,,,,,,,,,,,,,,,,,,,,,,,,,,,,,,,,,,,,,,,,,,,,,,,,,,,,,,,,,,,,
,,,,65e8fd23ef669d553e9db84b,A,2024-07-04_18h13.32.684,Slot Machine Game,2023.1.3,Win32,60.24096386,,,,,2.4977,return,1.1508,,,,,,,,,,,,,,,,,,,,,,,,,,,,,,,,,,,,,,,,,,,,,,,,,,,,,,,,,,,,,,,,,,,,,,
,,,,65e8fd23ef669d553e9db84b,A,2024-07-04_18h13.32.684,Slot Machine Game,2023.1.3,Win32,60.24096386,,,,,,,,,3.6877,return,0.5487,,,,,,,,,,,,,,,,,,,,,,,,,,,,,,,,,,,,,,,,,,,,,,,,,,,,,,,,,,,,,,,,,,
,,,,65e8fd23ef669d553e9db84b,A,2024-07-04_18h13.32.684,Slot Machine Game,2023.1.3,Win32,60.24096386,,,,,,,,,,,,,,,,,,,,,,,,,,,,,,,,,,,,,,,,,,,,,,,,,,,,,,,,,,,,,,,,,,,,,,,,,,,,,
,,,,65e8fd23ef669d553e9db84b,A,2024-07-04_18h13.32.684,Slot Machine Game,2023.1.3,Win32,60.24096386,,,,,,,,,,,,,145.9096,space,1.5905,,,,,,,,,,,,,,,,,,,,,,,,,,,,,,,,,,,,,,,,,,,,,,,,,,,,,,,,,,,,,,
,,,,65e8fd23ef669d553e9db84b,A,2024-07-04_18h13.32.684,Slot Machine Game,2023.1.3,Win32,60.24096386,,,,,,,,,,,,,,,,,"[9,15]","[[2,1,3],[2,3,1]]",147.5325,0,0.3863,,left,0.5,,stimuli/card_10_transparent.png,10,10,0,0,0,0,1,,,,,,,,,,,,,,,,,,,,,,,,,,,,,,,,,,,,,,,,,,,,
,,,,65e8fd23ef669d553e9db84b,A,2024-07-04_18h13.32.684,Slot Machine Game,2023.1.3,Win32,60.24096386,,,,,,,,,,,,,,,,,,,149.2507,1,0.0758,,right,0.5,,stimuli/card_100_transparent.png,110,100,1,0,1,0,1,,,,,,,,,,,,,,,,,,,,,,,,,,,,,,,,,,,,,,,,,,,,
,,,,65e8fd23ef669d553e9db84b,A,2024-07-04_18h13.32.684,Slot Machine Game,2023.1.3,Win32,60.24096386,,,,,,,,,,,,,,,,,,,150.6708,2,0.5054,,right,0.5,,stimuli/card_0_transparent.png,110,0,2,0,2,0,1,,,,,,,,,,,,,,,,,,,,,,,,,,,,,,,,,,,,,,,,,,,,
,,,,65e8fd23ef669d553e9db84b,A,2024-07-04_18h13.32.684,Slot Machine Game,2023.1.3,Win32,60.24096386,,,,,,,,,,,,,,,,,,,152.4984,3,0.1995,,up,1.5,,stimuli/card_100_transparent.png,210,100,3,0,3,0,1,,,,,,,,,,,,,,,,,,,,,,,,,,,,,,,,,,,,,,,,,,,,
,,,,65e8fd23ef669d553e9db84b,A,2024-07-04_18h13.32.684,Slot Machine Game,2023.1.3,Win32,60.24096386,,,,,,,,,,,,,,,,,,,155.0321,4,0.3153,,left,1.5,,stimuli/card_10_transparent.png,220,10,4,0,4,0,1,,,,,,,,,,,,,,,,,,,,,,,,,,,,,,,,,,,,,,,,,,,,
,,,,65e8fd23ef669d553e9db84b,A,2024-07-04_18h13.32.684,Slot Machine Game,2023.1.3,Win32,60.24096386,,,,,,,,,,,,,,,,,,,157.697,5,0.133,,up,1,,stimuli/card_100_transparent.png,320,100,5,0,5,0,1,,,,,,,,,,,,,,,,,,,,,,,,,,,,,,,,,,,,,,,,,,,,
,,,,65e8fd23ef669d553e9db84b,A,2024-07-04_18h13.32.684,Slot Machine Game,2023.1.3,Win32,60.24096386,,,,,,,,,,,,,,,,,,,159.6547,6,0.0004,,up,1.5,,stimuli/card_100_transparent.png,420,100,6,0,6,0,1,,,,,,,,,,,,,,,,,,,,,,,,,,,,,,,,,,,,,,,,,,,,
,,,,65e8fd23ef669d553e9db84b,A,2024-07-04_18h13.32.684,Slot Machine Game,2023.1.3,Win32,60.24096386,,,,,,,,,,,,,,,,,,,161.9727,7,0.0337,,up,0.5,,stimuli/card_100_transparent.png,520,100,7,0,7,0,1,,,,,,,,,,,,,,,,,,,,,,,,,,,,,,,,,,,,,,,,,,,,
,,,,65e8fd23ef669d553e9db84b,A,2024-07-04_18h13.32.684,Slot Machine Game,2023.1.3,Win32,60.24096386,,,,,,,,,,,,,,,,,,,163.3315,8,0.0506,,up,0.5,,stimuli/card_100_transparent.png,620,100,8,0,8,0,1,,,,,,,,,,,,,,,,,,,,,,,,,,,,,,,,,,,,,,,,,,,,
,,,,65e8fd23ef669d553e9db84b,A,2024-07-04_18h13.32.684,Slot Machine Game,2023.1.3,Win32,60.24096386,,,,,,,,,,,,,,,,,,,164.7109,9,0.2836,,up,1,,stimuli/card_0_transparent.png,620,0,9,0,9,0,1,,,,,,,,,,,,,,,,,,,,,,,,,,,,,,,,,,,,,,,,,,,,
,,,,65e8fd23ef669d553e9db84b,A,2024-07-04_18h13.32.684,Slot Machine Game,2023.1.3,Win32,60.24096386,,,,,,,,,,,,,,,,,,,166.8097,10,0.4143,,up,1.5,,stimuli/card_10_transparent.png,630,10,10,0,10,0,1,,,,,,,,,,,,,,,,,,,,,,,,,,,,,,,,,,,,,,,,,,,,
,,,,65e8fd23ef669d553e9db84b,A,2024-07-04_18h13.32.684,Slot Machine Game,2023.1.3,Win32,60.24096386,,,,,,,,,,,,,,,,,,,169.5429,11,0.1343,,right,0.5,,stimuli/card_100_transparent.png,730,100,11,0,11,0,1,,,,,,,,,,,,,,,,,,,,,,,,,,,,,,,,,,,,,,,,,,,,
,,,,65e8fd23ef669d553e9db84b,A,2024-07-04_18h13.32.684,Slot Machine Game,2023.1.3,Win32,60.24096386,,,,,,,,,,,,,,,,,,,171.0008,12,0.0833,,right,1.5,,stimuli/card_100_transparent.png,830,100,12,0,12,0,1,,,,,,,,,,,,,,,,,,,,,,,,,,,,,,,,,,,,,,,,,,,,
,,,,65e8fd23ef669d553e9db84b,A,2024-07-04_18h13.32.684,Slot Machine Game,2023.1.3,Win32,60.24096386,,,,,,,,,,,,,,,,,,,173.4032,13,0.3148,,right,1,,stimuli/card_100_transparent.png,930,100,13,0,13,0,1,,,,,,,,,,,,,,,,,,,,,,,,,,,,,,,,,,,,,,,,,,,,
,,,,65e8fd23ef669d553e9db84b,A,2024-07-04_18h13.32.684,Slot Machine Game,2023.1.3,Win32,60.24096386,,,,,,,,,,,,,,,,,,,175.5394,14,0.3145,,right,0.5,,stimuli/card_10_transparent.png,940,10,14,0,14,0,1,,,,,,,,,,,,,,,,,,,,,,,,,,,,,,,,,,,,,,,,,,,,
,,,,65e8fd23ef669d553e9db84b,A,2024-07-04_18h13.32.684,Slot Machine Game,2023.1.3,Win32,60.24096386,,,,,,,,,,,,,,,,,"[6,15]","[[1,3,2],[3,1,2]]",182.1926,0,0.2649,,left,1,,stimuli/card_100_transparent.png,100,100,0,0,0,0,1,,177.1904,,,,,,,,,,,,,,,,,,,,,,,,,,,,,,,,,,,,,,,,,,
,,,,65e8fd23ef669d553e9db84b,A,2024-07-04_18h13.32.684,Slot Machine Game,2023.1.3,Win32,60.24096386,,,,,,,,,,,,,,,,,,,184.2655,1,0.1333,,left,0.5,,stimuli/card_100_transparent.png,200,100,1,0,1,0,1,,,,,,,,,,,,,,,,,,,,,,,,,,,,,,,,,,,,,,,,,,,,
,,,,65e8fd23ef669d553e9db84b,A,2024-07-04_18h13.32.684,Slot Machine Game,2023.1.3,Win32,60.24096386,,,,,,,,,,,,,,,,,,,185.7166,2,0.0502,,left,1.5,,stimuli/card_100_transparent.png,300,100,2,0,2,0,1,,,,,,,,,,,,,,,,,,,,,,,,,,,,,,,,,,,,,,,,,,,,
,,,,65e8fd23ef669d553e9db84b,A,2024-07-04_18h13.32.684,Slot Machine Game,2023.1.3,Win32,60.24096386,,,,,,,,,,,,,,,,,,,188.0798,3,0.3192,,left,1,,stimuli/card_100_transparent.png,400,100,3,0,3,0,1,,,,,,,,,,,,,,,,,,,,,,,,,,,,,,,,,,,,,,,,,,,,
,,,,65e8fd23ef669d553e9db84b,A,2024-07-04_18h13.32.684,Slot Machine Game,2023.1.3,Win32,60.24096386,,,,,,,,,,,,,,,,,,,190.2224,4,0.0209,,left,0.5,,stimuli/card_100_transparent.png,500,100,4,0,4,0,1,,,,,,,,,,,,,,,,,,,,,,,,,,,,,,,,,,,,,,,,,,,,
,,,,65e8fd23ef669d553e9db84b,A,2024-07-04_18h13.32.684,Slot Machine Game,2023.1.3,Win32,60.24096386,,,,,,,,,,,,,,,,,,,191.5546,5,0.4315,,left,0.5,,stimuli/card_100_transparent.png,600,100,5,0,5,0,1,,,,,,,,,,,,,,,,,,,,,,,,,,,,,,,,,,,,,,,,,,,,
,,,,65e8fd23ef669d553e9db84b,A,2024-07-04_18h13.32.684,Slot Machine Game,2023.1.3,Win32,60.24096386,,,,,,,,,,,,,,,,,,,193.3105,6,1.0772,,left,1,,stimuli/card_0_transparent.png,600,0,6,0,6,0,1,,,,,,,,,,,,,,,,,,,,,,,,,,,,,,,,,,,,,,,,,,,,
,,,,65e8fd23ef669d553e9db84b,A,2024-07-04_18h13.32.684,Slot Machine Game,2023.1.3,Win32,60.24096386,,,,,,,,,,,,,,,,,,,196.2095,7,0.182,,left,0.5,,stimuli/card_0_transparent.png,600,0,7,0,7,0,1,,,,,,,,,,,,,,,,,,,,,,,,,,,,,,,,,,,,,,,,,,,,
,,,,65e8fd23ef669d553e9db84b,A,2024-07-04_18h13.32.684,Slot Machine Game,2023.1.3,Win32,60.24096386,,,,,,,,,,,,,,,,,,,197.7192,8,0.8286,,up,1.5,,stimuli/card_100_transparent.png,700,100,8,0,8,0,1,,,,,,,,,,,,,,,,,,,,,,,,,,,,,,,,,,,,,,,,,,,,
,,,,65e8fd23ef669d553e9db84b,A,2024-07-04_18h13.32.684,Slot Machine Game,2023.1.3,Win32,60.24096386,,,,,,,,,,,,,,,,,,,200.8636,9,0.4253,,up,1,,stimuli/card_100_transparent.png,800,100,9,0,9,0,1,,,,,,,,,,,,,,,,,,,,,,,,,,,,,,,,,,,,,,,,,,,,
,,,,65e8fd23ef669d553e9db84b,A,2024-07-04_18h13.32.684,Slot Machine Game,2023.1.3,Win32,60.24096386,,,,,,,,,,,,,,,,,,,203.1215,10,0.1259,,up,1.5,,stimuli/card_100_transparent.png,900,100,10,0,10,0,1,,,,,,,,,,,,,,,,,,,,,,,,,,,,,,,,,,,,,,,,,,,,
,,,,65e8fd23ef669d553e9db84b,A,2024-07-04_18h13.32.684,Slot Machine Game,2023.1.3,Win32,60.24096386,,,,,,,,,,,,,,,,,,,205.5742,11,0.2329,,up,1,,stimuli/card_100_transparent.png,1000,100,11,0,11,0,1,,,,,,,,,,,,,,,,,,,,,,,,,,,,,,,,,,,,,,,,,,,,
,,,,65e8fd23ef669d553e9db84b,A,2024-07-04_18h13.32.684,Slot Machine Game,2023.1.3,Win32,60.24096386,,,,,,,,,,,,,,,,,,,207.6274,12,0.5662,,up,1.5,,stimuli/card_100_transparent.png,1100,100,12,0,12,0,1,,,,,,,,,,,,,,,,,,,,,,,,,,,,,,,,,,,,,,,,,,,,
,,,,65e8fd23ef669d553e9db84b,A,2024-07-04_18h13.32.684,Slot Machine Game,2023.1.3,Win32,60.24096386,,,,,,,,,,,,,,,,,,,210.5097,13,0.0169,,up,1,,stimuli/card_100_transparent.png,1200,100,13,0,13,0,1,,,,,,,,,,,,,,,,,,,,,,,,,,,,,,,,,,,,,,,,,,,,
,,,,65e8fd23ef669d553e9db84b,A,2024-07-04_18h13.32.684,Slot Machine Game,2023.1.3,Win32,60.24096386,,,,,,,,,,,,,,,,,,,212.3475,14,1.3765,,up,1.5,,stimuli/card_100_transparent.png,1300,100,14,0,14,0,1,,,,,,,,,,,,,,,,,,,,,,,,,,,,,,,,,,,,,,,,,,,,
,,,,65e8fd23ef669d553e9db84b,A,2024-07-04_18h13.32.684,Slot Machine Game,2023.1.3,Win32,60.24096386,,,,,,,,,,,,,,,,,,,,,,,,,,,,,,,,,,,216.0426,,,221.0457,space,90.0578,,,,,,,,,,,,,,,,,,,,,,,,,,,,,,,,,,,,,
,,,,65e8fd23ef669d553e9db84b,A,2024-07-04_18h13.32.684,Slot Machine Game,2023.1.3,Win32,60.24096386,,,,,,,,,,,,,,,,,,,,,,,,,,,,,,,,,,,,,,,,,,311.1283,2,"[2,4,8,0,1,3,9,6,8,5]",space,0.5202,,,,,,,,,,,,,,,,,,,,,,,,,,,,,,,
,,,,65e8fd23ef669d553e9db84b,A,2024-07-04_18h13.32.684,Slot Machine Game,2023.1.3,Win32,60.24096386,,,,,,,,,,,,,,,,,,,,,,,,,,,100,,,,,,,,,,,,,,,,,,,,,1,3,"[15,15]","[[3,1,2],[3,1,2]]",311.6862,0,up,1.3258,,0.5,0.3,"[3,1,2]",0.774745095,stimuli/card_100_transparent.png,100,0,0,0,0,1,,,,,,,,,,
,,,,65e8fd23ef669d553e9db84b,A,2024-07-04_18h13.32.684,Slot Machine Game,2023.1.3,Win32,60.24096386,,,,,,,,,,,,,,,,,,,,,,,,,,,110,,,,,,,,,,,,,,,,,,,,,1,3,,,314.346,1,right,0.1993,,0.5,0.3,"[3,1,2]",0.328721187,stimuli/card_10_transparent.png,10,1,0,1,0,1,,,,,,,,,,
,,,,65e8fd23ef669d553e9db84b,A,2024-07-04_18h13.32.684,Slot Machine Game,2023.1.3,Win32,60.24096386,,,,,,,,,,,,,,,,,,,,,,,,,,,210,,,,,,,,,,,,,,,,,,,,,1,3,,,315.882,2,up,0.0007,,0.5,0.3,"[3,1,2]",0.877692816,stimuli/card_100_transparent.png,100,2,0,2,0,1,,,,,,,,,,
,,,,65e8fd23ef669d553e9db84b,A,2024-07-04_18h13.32.684,Slot Machine Game,2023.1.3,Win32,60.24096386,,,,,,,,,,,,,,,,,,,,,,,,,,,310,,,,,,,,,,,,,,,,,,,,,1,3,,,317.224,3,up,0.2654,,0.5,0.3,"[3,1,2]",0.921302322,stimuli/card_100_transparent.png,100,3,0,3,0,1,,,,,,,,,,
,,,,65e8fd23ef669d553e9db84b,A,2024-07-04_18h13.32.684,Slot Machine Game,2023.1.3,Win32,60.24096386,,,,,,,,,,,,,,,,,,,,,,,,,,,410,,,,,,,,,,,,,,,,,,,,,1,3,,,318.8098,4,up,0.881,,1.5,0.3,"[3,1,2]",0.917275036,stimuli/card_100_transparent.png,100,4,0,4,0,1,,,,,,,,,,
,,,,65e8fd23ef669d553e9db84b,A,2024-07-04_18h13.32.684,Slot Machine Game,2023.1.3,Win32,60.24096386,,,,,,,,,,,,,,,,,,,,,,,,,,,510,,,,,,,,,,,,,,,,,,,,,1,3,,,322.0055,5,up,0.2151,,0.5,0.3,"[3,1,2]",0.629062903,stimuli/card_100_transparent.png,100,5,0,5,0,1,,,,,,,,,,
,,,,65e8fd23ef669d553e9db84b,A,2024-07-04_18h13.32.684,Slot Machine Game,2023.1.3,Win32,60.24096386,,,,,,,,,,,,,,,,,,,,,,,,,,,520,,,,,,,,,,,,,,,,,,,,,1,3,,,323.5507,6,up,1.1769,,1,0.3,"[3,1,2]",0.186117889,stimuli/card_10_transparent.png,10,6,0,6,0,1,,,,,,,,,,
,,,,65e8fd23ef669d553e9db84b,A,2024-07-04_18h13.32.684,Slot Machine Game,2023.1.3,Win32,60.24096386,,,,,,,,,,,,,,,,,,,,,,,,,,,620,,,,,,,,,,,,,,,,,,,,,1,3,,,326.5499,7,up,0.3356,,0.5,0.3,"[3,1,2]",0.640965772,stimuli/card_100_transparent.png,100,7,0,7,0,1,,,,,,,,,,
,,,,65e8fd23ef669d553e9db84b,A,2024-07-04_18h13.32.684,Slot Machine Game,2023.1.3,Win32,60.24096386,,,,,,,,,,,,,,,,,,,,,,,,,,,720,,,,,,,,,,,,,,,,,,,,,1,3,,,328.2229,8,up,0.1678,,0.5,0.3,"[3,1,2]",0.955342701,stimuli/card_100_transparent.png,100,8,0,8,0,1,,,,,,,,,,
,,,,65e8fd23ef669d553e9db84b,A,2024-07-04_18h13.32.684,Slot Machine Game,2023.1.3,Win32,60.24096386,,,,,,,,,,,,,,,,,,,,,,,,,,,720,,,,,,,,,,,,,,,,,,,,,1,3,,,329.7143,9,up,0.0004,,0.5,0.3,"[3,1,2]",0.083039964,stimuli/card_0_transparent.png,0,9,0,9,0,1,,,,,,,,,,
,,,,65e8fd23ef669d553e9db84b,A,2024-07-04_18h13.32.684,Slot Machine Game,2023.1.3,Win32,60.24096386,,,,,,,,,,,,,,,,,,,,,,,,,,,820,,,,,,,,,,,,,,,,,,,,,1,3,,,331.0676,10,up,0.0842,,1.5,0.3,"[3,1,2]",0.482619356,stimuli/card_100_transparent.png,100,10,0,10,0,1,,,,,,,,,,
,,,,65e8fd23ef669d553e9db84b,A,2024-07-04_18h13.32.684,Slot Machine Game,2023.1.3,Win32,60.24096386,,,,,,,,,,,,,,,,,,,,,,,,,,,920,,,,,,,,,,,,,,,,,,,,,1,3,,,333.491,11,up,0.5814,,1.5,0.3,"[3,1,2]",0.71150864,stimuli/card_100_transparent.png,100,11,0,11,0,1,,,,,,,,,,
,,,,65e8fd23ef669d553e9db84b,A,2024-07-04_18h13.32.684,Slot Machine Game,2023.1.3,Win32,60.24096386,,,,,,,,,,,,,,,,,,,,,,,,,,,1020,,,,,,,,,,,,,,,,,,,,,1,3,,,336.3891,12,up,0.0407,,1.5,0.3,"[3,1,2]",0.654038309,stimuli/card_100_transparent.png,100,12,0,12,0,1,,,,,,,,,,
,,,,65e8fd23ef669d553e9db84b,A,2024-07-04_18h13.32.684,Slot Machine Game,2023.1.3,Win32,60.24096386,,,,,,,,,,,,,,,,,,,,,,,,,,,1120,,,,,,,,,,,,,,,,,,,,,1,3,,,338.7613,13,up,2.0482,,1,0.3,"[3,1,2]",0.541979043,stimuli/card_100_transparent.png,100,13,0,13,0,1,,,,,,,,,,
,,,,65e8fd23ef669d553e9db84b,A,2024-07-04_18h13.32.684,Slot Machine Game,2023.1.3,Win32,60.24096386,,,,,,,,,,,,,,,,,,,,,,,,,,,1120,,,,,,,,,,,,,,,,,,,,,1,3,,,342.6089,14,up,1.193,,1.5,0.3,"[3,1,2]",0.050059342,stimuli/card_0_transparent.png,0,14,0,14,0,1,,,,,,,,,,
,,,,65e8fd23ef669d553e9db84b,A,2024-07-04_18h13.32.684,Slot Machine Game,2023.1.3,Win32,60.24096386,,,,,,,,,,,,,,,,,,,,,,,,,,,,,,,,,,,346.125,,,,,,,,,,,,,,,,,,,,,,,,,,,,,,,,,[1120],0,0,0,0,1,,,,
,,,,65e8fd23ef669d553e9db84b,A,2024-07-04_18h13.32.684,Slot Machine Game,2023.1.3,Win32,60.24096386,,,,,,,,,,,,,,,,,,,,,,,,,,,10,,,,,,,,,,,,,,,,,,,,,2,5,"[5,15]","[[1,2,3],[3,1,2]]",351.1297,0,up,0.4453,,1,0.3,"[1,2,3]",0.495382407,stimuli/card_10_transparent.png,10,0,0,0,0,1,,,,,,,,,,
,,,,65e8fd23ef669d553e9db84b,A,2024-07-04_18h13.32.684,Slot Machine Game,2023.1.3,Win32,60.24096386,,,,,,,,,,,,,,,,,,,,,,,,,,,110,,,,,,,,,,,,,,,,,,,,,2,5,,,353.397,1,up,3.5955,,1.5,0.3,"[1,2,3]",0.169792955,stimuli/card_100_transparent.png,100,1,0,1,0,1,,,,,,,,,,
,,,,65e8fd23ef669d553e9db84b,A,2024-07-04_18h13.32.684,Slot Machine Game,2023.1.3,Win32,60.24096386,,,,,,,,,,,,,,,,,,,,,,,,,,,120,,,,,,,,,,,,,,,,,,,,,2,5,,,359.316,2,up,4.2555,,0.5,0.3,"[1,2,3]",0.889910645,stimuli/card_10_transparent.png,10,2,0,2,0,1,,,,,,,,,,
,,,,65e8fd23ef669d553e9db84b,A,2024-07-04_18h13.32.684,Slot Machine Game,2023.1.3,Win32,60.24096386,,,,,,,,,,,,,,,,,,,,,,,,,,,120,,,,,,,,,,,,,,,,,,,,,2,5,,,364.8987,3,left,0.6305,,1,0.3,"[1,2,3]",0.038728917,stimuli/card_0_transparent.png,0,3,0,3,0,1,,,,,,,,,,
,,,,65e8fd23ef669d553e9db84b,A,2024-07-04_18h13.32.684,Slot Machine Game,2023.1.3,Win32,60.24096386,,,,,,,,,,,,,,,,,,,,,,,,,,,220,,,,,,,,,,,,,,,,,,,,,2,5,,,367.3497,4,left,2.3694,,0.5,0.3,"[1,2,3]",0.432473957,stimuli/card_100_transparent.png,100,4,0,4,0,1,,,,,,,,,,
,,,,65e8fd23ef669d553e9db84b,A,2024-07-04_18h13.32.684,Slot Machine Game,2023.1.3,Win32,60.24096386,,,,,,,,,,,,,,,,,,,,,,,,,,,220,,,,,,,,,,,,,,,,,,,,,2,5,,,371.0605,5,left,0.3796,,1.5,0.3,"[3,1,2]",0.796750228,stimuli/card_0_transparent.png,0,5,0,5,0,1,,,,,,,,,,
,,,,65e8fd23ef669d553e9db84b,A,2024-07-04_18h13.32.684,Slot Machine Game,2023.1.3,Win32,60.24096386,,,,,,,,,,,,,,,,,,,,,,,,,,,220,,,,,,,,,,,,,,,,,,,,,2,5,,,373.7783,6,left,0.465,,1.5,0.3,"[3,1,2]",0.948899865,stimuli/card_0_transparent.png,0,6,0,6,0,1,,,,,,,,,,
,,,,65e8fd23ef669d553e9db84b,A,2024-07-04_18h13.32.684,Slot Machine Game,2023.1.3,Win32,60.24096386,,,,,,,,,,,,,,,,,,,,,,,,,,,230,,,,,,,,,,,,,,,,,,,,,2,5,,,376.5608,7,right,2.5846,,0.5,0.3,"[3,1,2]",0.265961469,stimuli/card_10_transparent.png,10,7,0,7,0,1,,,,,,,,,,
,,,,65e8fd23ef669d553e9db84b,A,2024-07-04_18h13.32.684,Slot Machine Game,2023.1.3,Win32,60.24096386,,,,,,,,,,,,,,,,,,,,,,,,,,,230,,,,,,,,,,,,,,,,,,,,,2,5,,,380.4709,8,up,0.2633,,1,0.3,"[3,1,2]",0.059459541,stimuli/card_0_transparent.png,0,8,0,8,0,1,,,,,,,,,,
,,,,65e8fd23ef669d553e9db84b,A,2024-07-04_18h13.32.684,Slot Machine Game,2023.1.3,Win32,60.24096386,,,,,,,,,,,,,,,,,,,,,,,,,,,330,,,,,,,,,,,,,,,,,,,,,2,5,,,382.5858,9,up,0.68,,0.5,0.3,"[3,1,2]",0.905510641,stimuli/card_100_transparent.png,100,9,0,9,0,1,,,,,,,,,,
,,,,65e8fd23ef669d553e9db84b,A,2024-07-04_18h13.32.684,Slot Machine Game,2023.1.3,Win32,60.24096386,,,,,,,,,,,,,,,,,,,,,,,,,,,430,,,,,,,,,,,,,,,,,,,,,2,5,,,384.5956,10,up,1.2713,,0.5,0.3,"[3,1,2]",0.949331431,stimuli/card_100_transparent.png,100,10,0,10,0,1,,,,,,,,,,
,,,,65e8fd23ef669d553e9db84b,A,2024-07-04_18h13.32.684,Slot Machine Game,2023.1.3,Win32,60.24096386,,,,,,,,,,,,,,,,,,,,,,,,,,,530,,,,,,,,,,,,,,,,,,,,,2,5,,,387.1957,11,up,0.1372,,1,0.3,"[3,1,2]",0.549517515,stimuli/card_100_transparent.png,100,11,0,11,0,1,,,,,,,,,,
,,,,65e8fd23ef669d553e9db84b,A,2024-07-04_18h13.32.684,Slot Machine Game,2023.1.3,Win32,60.24096386,,,,,,,,,,,,,,,,,,,,,,,,,,,530,,,,,,,,,,,,,,,,,,,,,2,5,,,389.1674,12,up,0.8337,,1,0.3,"[3,1,2]",0.037956474,stimuli/card_0_transparent.png,0,12,0,12,0,1,,,,,,,,,,
,,,,65e8fd23ef669d553e9db84b,A,2024-07-04_18h13.32.684,Slot Machine Game,2023.1.3,Win32,60.24096386,,,,,,,,,,,,,,,,,,,,,,,,,,,630,,,,,,,,,,,,,,,,,,,,,2,5,,,391.839,13,up,2.1388,,1.5,0.3,"[3,1,2]",0.811252648,stimuli/card_100_transparent.png,100,13,0,13,0,1,,,,,,,,,,
,,,,65e8fd23ef669d553e9db84b,A,2024-07-04_18h13.32.684,Slot Machine Game,2023.1.3,Win32,60.24096386,,,,,,,,,,,,,,,,,,,,,,,,,,,640,,,,,,,,,,,,,,,,,,,,,2,5,,,396.3066,14,up,0.5785,,1.5,0.3,"[3,1,2]",0.19700969,stimuli/card_10_transparent.png,10,14,0,14,0,1,,,,,,,,,,
,,,,65e8fd23ef669d553e9db84b,A,2024-07-04_18h13.32.684,Slot Machine Game,2023.1.3,Win32,60.24096386,,,,,,,,,,,,,,,,,,,,,,,,,,,,,,,,,,,399.2056,,,,,,,,,,,,,,,,,,,,,,,,,,,,,,,,,"[1120,640]",1,0,1,0,1,,,,
,,,,65e8fd23ef669d553e9db84b,A,2024-07-04_18h13.32.684,Slot Machine Game,2023.1.3,Win32,60.24096386,,,,,,,,,,,,,,,,,,,,,,,,,,,100,,,,,,,,,,,,,,,,,,,,,3,9,"[8,15]","[[3,2,1],[3,1,2]]",404.2112,0,right,1.027,,1.5,0.3,"[3,2,1]",0.400942553,stimuli/card_100_transparent.png,100,0,0,0,0,1,,,,,,,,,,
,,,,65e8fd23ef669d553e9db84b,A,2024-07-04_18h13.32.684,Slot Machine Game,2023.1.3,Win32,60.24096386,,,,,,,,,,,,,,,,,,,,,,,,,,,200,,,,,,,,,,,,,,,,,,,,,3,9,,,407.5831,1,right,3.4126,,1.5,0.3,"[3,2,1]",0.512861152,stimuli/card_100_transparent.png,100,1,0,1,0,1,,,,,,,,,,
,,,,65e8fd23ef669d553e9db84b,A,2024-07-04_18h13.32.684,Slot Machine Game,2023.1.3,Win32,60.24096386,,,,,,,,,,,,,,,,,,,,,,,,,,,300,,,,,,,,,,,,,,,,,,,,,3,9,,,413.3021,2,right,2.0922,,1,0.3,"[3,2,1]",0.491239732,stimuli/card_100_transparent.png,100,2,0,2,0,1,,,,,,,,,,
,,,,65e8fd23ef669d553e9db84b,A,2024-07-04_18h13.32.684,Slot Machine Game,2023.1.3,Win32,60.24096386,,,,,,,,,,,,,,,,,,,,,,,,,,,400,,,,,,,,,,,,,,,,,,,,,3,9,,,417.2073,3,right,1.0482,,1,0.3,"[3,2,1]",0.873643299,stimuli/card_100_transparent.png,100,3,0,3,0,1,,,,,,,,,,
,,,,65e8fd23ef669d553e9db84b,A,2024-07-04_18h13.32.684,Slot Machine Game,2023.1.3,Win32,60.24096386,,,,,,,,,,,,,,,,,,,,,,,,,,,500,,,,,,,,,,,,,,,,,,,,,3,9,,,420.0784,4,right,3.0906,,1,0.3,"[3,2,1]",0.489131951,stimuli/card_100_transparent.png,100,4,0,4,0,1,,,,,,,,,,
,,,,65e8fd23ef669d553e9db84b,A,2024-07-04_18h13.32.684,Slot Machine Game,2023.1.3,Win32,60.24096386,,,,,,,,,,,,,,,,,,,,,,,,,,,600,,,,,,,,,,,,,,,,,,,,,3,9,,,424.9721,5,right,1.6569,,0.5,0.3,"[3,2,1]",0.796238899,stimuli/card_100_transparent.png,100,5,0,5,0,1,,,,,,,,,,
,,,,65e8fd23ef669d553e9db84b,A,2024-07-04_18h13.32.684,Slot Machine Game,2023.1.3,Win32,60.24096386,,,,,,,,,,,,,,,,,,,,,,,,,,,700,,,,,,,,,,,,,,,,,,,,,3,9,,,427.947,6,right,2.5534,,0.5,0.3,"[3,2,1]",0.215289463,stimuli/card_100_transparent.png,100,6,0,6,0,1,,,,,,,,,,
,,,,65e8fd23ef669d553e9db84b,A,2024-07-04_18h13.32.684,Slot Machine Game,2023.1.3,Win32,60.24096386,,,,,,,,,,,,,,,,,,,,,,,,,,,800,,,,,,,,,,,,,,,,,,,,,3,9,,,431.84,7,right,1.1271,,1,0.3,"[3,2,1]",0.90191359,stimuli/card_100_transparent.png,100,7,0,7,0,1,,,,,,,,,,
,,,,65e8fd23ef669d553e9db84b,A,2024-07-04_18h13.32.684,Slot Machine Game,2023.1.3,Win32,60.24096386,,,,,,,,,,,,,,,,,,,,,,,,,,,810,,,,,,,,,,,,,,,,,,,,,3,9,,,434.8118,8,right,0.3833,,1,0.3,"[3,1,2]",0.584957015,stimuli/card_10_transparent.png,10,8,0,8,0,1,,,,,,,,,,
,,,,65e8fd23ef669d553e9db84b,A,2024-07-04_18h13.32.684,Slot Machine Game,2023.1.3,Win32,60.24096386,,,,,,,,,,,,,,,,,,,,,,,,,,,820,,,,,,,,,,,,,,,,,,,,,3,9,,,437.0357,9,right,0.2653,,1,0.3,"[3,1,2]",0.531769441,stimuli/card_10_transparent.png,10,9,0,9,0,1,,,,,,,,,,
,,,,65e8fd23ef669d553e9db84b,A,2024-07-04_18h13.32.684,Slot Machine Game,2023.1.3,Win32,60.24096386,,,,,,,,,,,,,,,,,,,,,,,,,,,830,,,,,,,,,,,,,,,,,,,,,3,9,,,439.1113,10,right,1.4767,,1.5,0.3,"[3,1,2]",0.813113754,stimuli/card_10_transparent.png,10,10,0,10,0,1,,,,,,,,,,
,,,,65e8fd23ef669d553e9db84b,A,2024-07-04_18h13.32.684,Slot Machine Game,2023.1.3,Win32,60.24096386,,,,,,,,,,,,,,,,,,,,,,,,,,,840,,,,,,,,,,,,,,,,,,,,,3,9,,,442.9326,11,right,0.6798,,1.5,0.3,"[3,1,2]",0.336080341,stimuli/card_10_transparent.png,10,11,0,11,0,1,,,,,,,,,,
,,,,65e8fd23ef669d553e9db84b,A,2024-07-04_18h13.32.684,Slot Machine Game,2023.1.3,Win32,60.24096386,,,,,,,,,,,,,,,,,,,,,,,,,,,,,,,,,,,,,,,,,,,,,,,,3,9,,,445.928,12,,,,1.5,0.3,,,,,12,0,12,0,1,,,,,,,,,,
,,,,65e8fd23ef669d553e9db84b,A,2024-07-04_18h13.32.684,Slot Machine Game,2023.1.3,Win32,60.24096386,,,,,,,,,,,,,,,,,,,,,,,,,,,,,,,,,,,,,,,,,,,,,,,,3,9,,,451.4382,13,,,,1.5,0.3,,,,,13,0,13,0,1,,,,,,,,,,
,,,,65e8fd23ef669d553e9db84b,A,2024-07-04_18h13.32.684,Slot Machine Game,2023.1.3,Win32,60.24096386,,,,,,,,,,,,,,,,,,,,,,,,,,,850,,,,,,,,,,,,,,,,,,,,,3,9,,,456.9535,14,right,0.0669,,1,0.3,"[3,1,2]",0.380945112,stimuli/card_10_transparent.png,10,14,0,14,0,1,,,,,,,,,,
,,,,65e8fd23ef669d553e9db84b,A,2024-07-04_18h13.32.684,Slot Machine Game,2023.1.3,Win32,60.24096386,,,,,,,,,,,,,,,,,,,,,,,,,,,,,,,,,,,458.8411,,,,,,,,,,,,,,,,,,,,,,,,,,,,,,,,,"[1120,640,850]",2,0,2,0,1,,,,
,,,,65e8fd23ef669d553e9db84b,A,2024-07-04_18h13.32.684,Slot Machine Game,2023.1.3,Win32,60.24096386,,,,,,,,,,,,,,,,,,,,,,,,,,,,,,,,,,,,,,,,,,,,,,,,4,1,"[12,15]","[[2,1,3],[2,3,1]]",463.8558,0,,,,1,0.3,,,,,0,0,0,0,1,,,,,,,,,,
,,,,65e8fd23ef669d553e9db84b,A,2024-07-04_18h13.32.684,Slot Machine Game,2023.1.3,Win32,60.24096386,,,,,,,,,,,,,,,,,,,,,,,,,,,10,,,,,,,,,,,,,,,,,,,,,4,1,,,469.3631,1,left,0.4936,,1,0.3,"[2,1,3]",0.509287038,stimuli/card_10_transparent.png,10,1,0,1,0,1,,,,,,,,,,
,,,,65e8fd23ef669d553e9db84b,A,2024-07-04_18h13.32.684,Slot Machine Game,2023.1.3,Win32,60.24096386,,,,,,,,,,,,,,,,,,,,,,,,,,,110,,,,,,,,,,,,,,,,,,,,,4,1,,,471.6721,2,up,0.297,,0.5,0.3,"[2,1,3]",0.530618098,stimuli/card_100_transparent.png,100,2,0,2,0,1,,,,,,,,,,
,,,,65e8fd23ef669d553e9db84b,A,2024-07-04_18h13.32.684,Slot Machine Game,2023.1.3,Win32,60.24096386,,,,,,,,,,,,,,,,,,,,,,,,,,,210,,,,,,,,,,,,,,,,,,,,,4,1,,,473.3198,3,up,0.8619,,1.5,0.3,"[2,1,3]",0.373814373,stimuli/card_100_transparent.png,100,3,0,3,0,1,,,,,,,,,,
,,,,65e8fd23ef669d553e9db84b,A,2024-07-04_18h13.32.684,Slot Machine Game,2023.1.3,Win32,60.24096386,,,,,,,,,,,,,,,,,,,,,,,,,,,210,,,,,,,,,,,,,,,,,,,,,4,1,,,476.4991,4,up,1.7895,,1.5,0.3,"[2,1,3]",0.081198568,stimuli/card_0_transparent.png,0,4,0,4,0,1,,,,,,,,,,
,,,,65e8fd23ef669d553e9db84b,A,2024-07-04_18h13.32.684,Slot Machine Game,2023.1.3,Win32,60.24096386,,,,,,,,,,,,,,,,,,,,,,,,,,,310,,,,,,,,,,,,,,,,,,,,,4,1,,,480.6243,5,up,0.4671,,1,0.3,"[2,1,3]",0.6271498,stimuli/card_100_transparent.png,100,5,0,5,0,1,,,,,,,,,,
,,,,65e8fd23ef669d553e9db84b,A,2024-07-04_18h13.32.684,Slot Machine Game,2023.1.3,Win32,60.24096386,,,,,,,,,,,,,,,,,,,,,,,,,,,410,,,,,,,,,,,,,,,,,,,,,4,1,,,482.9103,6,up,0.5475,,1.5,0.3,"[2,1,3]",0.271560436,stimuli/card_100_transparent.png,100,6,0,6,0,1,,,,,,,,,,
,,,,65e8fd23ef669d553e9db84b,A,2024-07-04_18h13.32.684,Slot Machine Game,2023.1.3,Win32,60.24096386,,,,,,,,,,,,,,,,,,,,,,,,,,,510,,,,,,,,,,,,,,,,,,,,,4,1,,,485.7931,7,up,2.6531,,0.5,0.3,"[2,1,3]",0.78404579,stimuli/card_100_transparent.png,100,7,0,7,0,1,,,,,,,,,,
,,,,65e8fd23ef669d553e9db84b,A,2024-07-04_18h13.32.684,Slot Machine Game,2023.1.3,Win32,60.24096386,,,,,,,,,,,,,,,,,,,,,,,,,,,610,,,,,,,,,,,,,,,,,,,,,4,1,,,489.7735,8,up,0.6963,,1.5,0.3,"[2,1,3]",0.716357299,stimuli/card_100_transparent.png,100,8,0,8,0,1,,,,,,,,,,
,,,,65e8fd23ef669d553e9db84b,A,2024-07-04_18h13.32.684,Slot Machine Game,2023.1.3,Win32,60.24096386,,,,,,,,,,,,,,,,,,,,,,,,,,,710,,,,,,,,,,,,,,,,,,,,,4,1,,,492.779,9,up,1.3994,,1.5,0.3,"[2,1,3]",0.633261892,stimuli/card_100_transparent.png,100,9,0,9,0,1,,,,,,,,,,
,,,,65e8fd23ef669d553e9db84b,A,2024-07-04_18h13.32.684,Slot Machine Game,2023.1.3,Win32,60.24096386,,,,,,,,,,,,,,,,,,,,,,,,,,,810,,,,,,,,,,,,,,,,,,,,,4,1,,,496.5053,10,up,2.7252,,1,0.3,"[2,1,3]",0.876049301,stimuli/card_100_transparent.png,100,10,0,10,0,1,,,,,,,,,,
,,,,65e8fd23ef669d553e9db84b,A,2024-07-04_18h13.32.684,Slot Machine Game,2023.1.3,Win32,60.24096386,,,,,,,,,,,,,,,,,,,,,,,,,,,,,,,,,,,,,,,,,,,,,,,,4,1,,,501.061,11,,,,1,0.3,,,,,11,0,11,0,1,,,,,,,,,,
,,,,65e8fd23ef669d553e9db84b,A,2024-07-04_18h13.32.684,Slot Machine Game,2023.1.3,Win32,60.24096386,,,,,,,,,,,,,,,,,,,,,,,,,,,810,,,,,,,,,,,,,,,,,,,,,4,1,,,506.5796,12,up,1.8391,,1.5,0.3,"[2,3,1]",0.732455478,stimuli/card_0_transparent.png,0,12,0,12,0,1,,,,,,,,,,
,,,,65e8fd23ef669d553e9db84b,A,2024-07-04_18h13.32.684,Slot Machine Game,2023.1.3,Win32,60.24096386,,,,,,,,,,,,,,,,,,,,,,,,,,,810,,,,,,,,,,,,,,,,,,,,,4,1,,,510.7318,13,up,3.4937,,1.5,0.3,"[2,3,1]",0.789550764,stimuli/card_0_transparent.png,0,13,0,13,0,1,,,,,,,,,,
,,,,65e8fd23ef669d553e9db84b,A,2024-07-04_18h13.32.684,Slot Machine Game,2023.1.3,Win32,60.24096386,,,,,,,,,,,,,,,,,,,,,,,,,,,810,,,,,,,,,,,,,,,,,,,,,4,1,,,516.5334,14,right,0.5138,,1,0.3,"[2,3,1]",0.05167393,stimuli/card_0_transparent.png,0,14,0,14,0,1,,,,,,,,,,
,,,,65e8fd23ef669d553e9db84b,A,2024-07-04_18h13.32.684,Slot Machine Game,2023.1.3,Win32,60.24096386,,,,,,,,,,,,,,,,,,,,,,,,,,,,,,,,,,,518.8911,,,,,,,,,,,,,,,,,,,,,,,,,,,,,,,,,"[1120,640,850,810]",3,0,3,0,1,,,,
,,,,65e8fd23ef669d553e9db84b,A,2024-07-04_18h13.32.684,Slot Machine Game,2023.1.3,Win32,60.24096386,,,,,,,,,,,,,,,,,,,,,,,,,,,100,,,,,,,,,,,,,,,,,,,,,5,2,"[6,15]","[[1,3,2],[3,2,1]]",523.9052,0,up,0.1335,,1.5,0.3,"[1,3,2]",0.026311512,stimuli/card_100_transparent.png,100,0,0,0,0,1,,,,,,,,,,
,,,,65e8fd23ef669d553e9db84b,A,2024-07-04_18h13.32.684,Slot Machine Game,2023.1.3,Win32,60.24096386,,,,,,,,,,,,,,,,,,,,,,,,,,,110,,,,,,,,,,,,,,,,,,,,,5,2,,,526.3452,1,up,0.3488,,1.5,0.3,"[1,3,2]",0.110226468,stimuli/card_10_transparent.png,10,1,0,1,0,1,,,,,,,,,,
,,,,65e8fd23ef669d553e9db84b,A,2024-07-04_18h13.32.684,Slot Machine Game,2023.1.3,Win32,60.24096386,,,,,,,,,,,,,,,,,,,,,,,,,,,110,,,,,,,,,,,,,,,,,,,,,5,2,,,529.0123,2,up,1.8392,,0.5,0.3,"[1,3,2]",0.869673239,stimuli/card_0_transparent.png,0,2,0,2,0,1,,,,,,,,,,
,,,,65e8fd23ef669d553e9db84b,A,2024-07-04_18h13.32.684,Slot Machine Game,2023.1.3,Win32,60.24096386,,,,,,,,,,,,,,,,,,,,,,,,,,,120,,,,,,,,,,,,,,,,,,,,,5,2,,,532.1599,3,right,0.0129,,1,0.3,"[1,3,2]",0.428841956,stimuli/card_10_transparent.png,10,3,0,3,0,1,,,,,,,,,,
,,,,65e8fd23ef669d553e9db84b,A,2024-07-04_18h13.32.684,Slot Machine Game,2023.1.3,Win32,60.24096386,,,,,,,,,,,,,,,,,,,,,,,,,,,220,,,,,,,,,,,,,,,,,,,,,5,2,,,533.9763,4,left,0.372,,1,0.3,"[1,3,2]",0.945715182,stimuli/card_100_transparent.png,100,4,0,4,0,1,,,,,,,,,,
,,,,65e8fd23ef669d553e9db84b,A,2024-07-04_18h13.32.684,Slot Machine Game,2023.1.3,Win32,60.24096386,,,,,,,,,,,,,,,,,,,,,,,,,,,320,,,,,,,,,,,,,,,,,,,,,5,2,,,536.1685,5,left,0.4148,,0.5,0.3,"[1,3,2]",0.686467184,stimuli/card_100_transparent.png,100,5,0,5,0,1,,,,,,,,,,
,,,,65e8fd23ef669d553e9db84b,A,2024-07-04_18h13.32.684,Slot Machine Game,2023.1.3,Win32,60.24096386,,,,,,,,,,,,,,,,,,,,,,,,,,,320,,,,,,,,,,,,,,,,,,,,,5,2,,,537.8913,6,left,0.5063,,1.5,0.3,"[3,2,1]",0.320737752,stimuli/card_0_transparent.png,0,6,0,6,0,1,,,,,,,,,,
,,,,65e8fd23ef669d553e9db84b,A,2024-07-04_18h13.32.684,Slot Machine Game,2023.1.3,Win32,60.24096386,,,,,,,,,,,,,,,,,,,,,,,,,,,330,,,,,,,,,,,,,,,,,,,,,5,2,,,540.7245,7,up,0.0122,,1.5,0.3,"[3,2,1]",0.991855966,stimuli/card_10_transparent.png,10,7,0,7,0,1,,,,,,,,,,
,,,,65e8fd23ef669d553e9db84b,A,2024-07-04_18h13.32.684,Slot Machine Game,2023.1.3,Win32,60.24096386,,,,,,,,,,,,,,,,,,,,,,,,,,,340,,,,,,,,,,,,,,,,,,,,,5,2,,,543.0711,8,up,2.0381,,0.5,0.3,"[3,2,1]",0.359477863,stimuli/card_10_transparent.png,10,8,0,8,0,1,,,,,,,,,,
,,,,65e8fd23ef669d553e9db84b,A,2024-07-04_18h13.32.684,Slot Machine Game,2023.1.3,Win32,60.24096386,,,,,,,,,,,,,,,,,,,,,,,,,,,440,,,,,,,,,,,,,,,,,,,,,5,2,,,546.4335,9,right,0.3156,,0.5,0.3,"[3,2,1]",0.930055328,stimuli/card_100_transparent.png,100,9,0,9,0,1,,,,,,,,,,
,,,,65e8fd23ef669d553e9db84b,A,2024-07-04_18h13.32.684,Slot Machine Game,2023.1.3,Win32,60.24096386,,,,,,,,,,,,,,,,,,,,,,,,,,,540,,,,,,,,,,,,,,,,,,,,,5,2,,,548.0736,10,right,0.6629,,0.5,0.3,"[3,2,1]",0.878347645,stimuli/card_100_transparent.png,100,10,0,10,0,1,,,,,,,,,,
,,,,65e8fd23ef669d553e9db84b,A,2024-07-04_18h13.32.684,Slot Machine Game,2023.1.3,Win32,60.24096386,,,,,,,,,,,,,,,,,,,,,,,,,,,640,,,,,,,,,,,,,,,,,,,,,5,2,,,550.0608,11,right,0.9615,,1,0.3,"[3,2,1]",0.765840346,stimuli/card_100_transparent.png,100,11,0,11,0,1,,,,,,,,,,
,,,,65e8fd23ef669d553e9db84b,A,2024-07-04_18h13.32.684,Slot Machine Game,2023.1.3,Win32,60.24096386,,,,,,,,,,,,,,,,,,,,,,,,,,,740,,,,,,,,,,,,,,,,,,,,,5,2,,,552.8334,12,right,0.4977,,1.5,0.3,"[3,2,1]",0.398853668,stimuli/card_100_transparent.png,100,12,0,12,0,1,,,,,,,,,,
,,,,65e8fd23ef669d553e9db84b,A,2024-07-04_18h13.32.684,Slot Machine Game,2023.1.3,Win32,60.24096386,,,,,,,,,,,,,,,,,,,,,,,,,,,840,,,,,,,,,,,,,,,,,,,,,5,2,,,555.6323,13,right,1.3217,,1.5,0.3,"[3,2,1]",0.933116587,stimuli/card_100_transparent.png,100,13,0,13,0,1,,,,,,,,,,
,,,,65e8fd23ef669d553e9db84b,A,2024-07-04_18h13.32.684,Slot Machine Game,2023.1.3,Win32,60.24096386,,,,,,,,,,,,,,,,,,,,,,,,,,,940,,,,,,,,,,,,,,,,,,,,,5,2,,,559.2722,14,right,0.2182,,1,0.3,"[3,2,1]",0.913283533,stimuli/card_100_transparent.png,100,14,0,14,0,1,,,,,,,,,,
,,,,65e8fd23ef669d553e9db84b,A,2024-07-04_18h13.32.684,Slot Machine Game,2023.1.3,Win32,60.24096386,,,,,,,,,,,,,,,,,,,,,,,,,,,,,,,,,,,561.3215,,,,,,,,,,,,,,,,,,,,,,,,,,,,,,,,,"[1120,640,850,810,940]",4,0,4,0,1,,,,
,,,,65e8fd23ef669d553e9db84b,A,2024-07-04_18h13.32.684,Slot Machine Game,2023.1.3,Win32,60.24096386,,,,,,,,,,,,,,,,,,,,,,,,,,,100,,,,,,,,,,,,,,,,,,,,,6,4,"[7,15]","[[2,3,1],[1,2,3]]",566.3243,0,right,0.3154,,0.5,0.3,"[2,3,1]",0.697942983,stimuli/card_100_transparent.png,100,0,0,0,0,1,,,,,,,,,,
,,,,65e8fd23ef669d553e9db84b,A,2024-07-04_18h13.32.684,Slot Machine Game,2023.1.3,Win32,60.24096386,,,,,,,,,,,,,,,,,,,,,,,,,,,200,,,,,,,,,,,,,,,,,,,,,6,4,,,567.9557,1,right,1.062,,1.5,0.3,"[2,3,1]",0.75365682,stimuli/card_100_transparent.png,100,1,0,1,0,1,,,,,,,,,,
,,,,65e8fd23ef669d553e9db84b,A,2024-07-04_18h13.32.684,Slot Machine Game,2023.1.3,Win32,60.24096386,,,,,,,,,,,,,,,,,,,,,,,,,,,300,,,,,,,,,,,,,,,,,,,,,6,4,,,571.3317,2,right,0.1818,,1,0.3,"[2,3,1]",0.371963272,stimuli/card_100_transparent.png,100,2,0,2,0,1,,,,,,,,,,
,,,,65e8fd23ef669d553e9db84b,A,2024-07-04_18h13.32.684,Slot Machine Game,2023.1.3,Win32,60.24096386,,,,,,,,,,,,,,,,,,,,,,,,,,,400,,,,,,,,,,,,,,,,,,,,,6,4,,,573.3368,3,right,0.1018,,0.5,0.3,"[2,3,1]",0.964283657,stimuli/card_100_transparent.png,100,3,0,3,0,1,,,,,,,,,,
,,,,65e8fd23ef669d553e9db84b,A,2024-07-04_18h13.32.684,Slot Machine Game,2023.1.3,Win32,60.24096386,,,,,,,,,,,,,,,,,,,,,,,,,,,500,,,,,,,,,,,,,,,,,,,,,6,4,,,574.749,4,right,0.1827,,1.5,0.3,"[2,3,1]",0.988015293,stimuli/card_100_transparent.png,100,4,0,4,0,1,,,,,,,,,,
,,,,65e8fd23ef669d553e9db84b,A,2024-07-04_18h13.32.684,Slot Machine Game,2023.1.3,Win32,60.24096386,,,,,,,,,,,,,,,,,,,,,,,,,,,600,,,,,,,,,,,,,,,,,,,,,6,4,,,577.2508,5,right,1.9358,,0.5,0.3,"[2,3,1]",0.754096894,stimuli/card_100_transparent.png,100,5,0,5,0,1,,,,,,,,,,
,,,,65e8fd23ef669d553e9db84b,A,2024-07-04_18h13.32.684,Slot Machine Game,2023.1.3,Win32,60.24096386,,,,,,,,,,,,,,,,,,,,,,,,,,,700,,,,,,,,,,,,,,,,,,,,,6,4,,,580.4983,6,right,0.531,,0.5,0.3,"[2,3,1]",0.93351174,stimuli/card_100_transparent.png,100,6,0,6,0,1,,,,,,,,,,
,,,,65e8fd23ef669d553e9db84b,A,2024-07-04_18h13.32.684,Slot Machine Game,2023.1.3,Win32,60.24096386,,,,,,,,,,,,,,,,,,,,,,,,,,,700,,,,,,,,,,,,,,,,,,,,,6,4,,,582.3637,7,right,0.884,,1,0.3,"[1,2,3]",0.342308907,stimuli/card_0_transparent.png,0,7,0,7,0,1,,,,,,,,,,
,,,,65e8fd23ef669d553e9db84b,A,2024-07-04_18h13.32.684,Slot Machine Game,2023.1.3,Win32,60.24096386,,,,,,,,,,,,,,,,,,,,,,,,,,,800,,,,,,,,,,,,,,,,,,,,,6,4,,,585.0766,8,right,0.193,,1,0.3,"[1,2,3]",0.056193712,stimuli/card_100_transparent.png,100,8,0,8,0,1,,,,,,,,,,
,,,,65e8fd23ef669d553e9db84b,A,2024-07-04_18h13.32.684,Slot Machine Game,2023.1.3,Win32,60.24096386,,,,,,,,,,,,,,,,,,,,,,,,,,,800,,,,,,,,,,,,,,,,,,,,,6,4,,,587.0905,9,right,0.0387,,0.5,0.3,"[1,2,3]",0.820185611,stimuli/card_0_transparent.png,0,9,0,9,0,1,,,,,,,,,,
,,,,65e8fd23ef669d553e9db84b,A,2024-07-04_18h13.32.684,Slot Machine Game,2023.1.3,Win32,60.24096386,,,,,,,,,,,,,,,,,,,,,,,,,,,800,,,,,,,,,,,,,,,,,,,,,6,4,,,588.4658,10,right,0.3373,,1,0.3,"[1,2,3]",0.450590254,stimuli/card_0_transparent.png,0,10,0,10,0,1,,,,,,,,,,
,,,,65e8fd23ef669d553e9db84b,A,2024-07-04_18h13.32.684,Slot Machine Game,2023.1.3,Win32,60.24096386,,,,,,,,,,,,,,,,,,,,,,,,,,,800,,,,,,,,,,,,,,,,,,,,,6,4,,,590.6352,11,right,0.5515,,1,0.3,"[1,2,3]",0.227455984,stimuli/card_0_transparent.png,0,11,0,11,0,1,,,,,,,,,,
,,,,65e8fd23ef669d553e9db84b,A,2024-07-04_18h13.32.684,Slot Machine Game,2023.1.3,Win32,60.24096386,,,,,,,,,,,,,,,,,,,,,,,,,,,800,,,,,,,,,,,,,,,,,,,,,6,4,,,593.0004,12,right,0.3819,,1.5,0.3,"[1,2,3]",0.211073369,stimuli/card_0_transparent.png,0,12,0,12,0,1,,,,,,,,,,
,,,,65e8fd23ef669d553e9db84b,A,2024-07-04_18h13.32.684,Slot Machine Game,2023.1.3,Win32,60.24096386,,,,,,,,,,,,,,,,,,,,,,,,,,,900,,,,,,,,,,,,,,,,,,,,,6,4,,,595.7114,13,right,0.4646,,1.5,0.3,"[1,2,3]",0.038832368,stimuli/card_100_transparent.png,100,13,0,13,0,1,,,,,,,,,,
,,,,65e8fd23ef669d553e9db84b,A,2024-07-04_18h13.32.684,Slot Machine Game,2023.1.3,Win32,60.24096386,,,,,,,,,,,,,,,,,,,,,,,,,,,900,,,,,,,,,,,,,,,,,,,,,6,4,,,598.5113,14,right,1.0612,,1.5,0.3,"[1,2,3]",0.430930687,stimuli/card_0_transparent.png,0,14,0,14,0,1,,,,,,,,,,
,,,,65e8fd23ef669d553e9db84b,A,2024-07-04_18h13.32.684,Slot Machine Game,2023.1.3,Win32,60.24096386,,,,,,,,,,,,,,,,,,,,,,,,,,,,,,,,,,,601.8997,,,,,,,,,,,,,,,,,,,,,,,,,,,,,,,,,"[1120,640,850,810,940,900]",5,0,5,0,1,,,,
,,,,65e8fd23ef669d553e9db84b,A,2024-07-04_18h13.32.684,Slot Machine Game,2023.1.3,Win32,60.24096386,,,,,,,,,,,,,,,,,,,,,,,,,,,100,,,,,,,,,,,,,,,,,,,,,7,10,"[10,15]","[[3,1,2],[1,3,2]]",606.9252,0,up,2.7104,,1,0.3,"[3,1,2]",0.629457551,stimuli/card_100_transparent.png,100,0,0,0,0,1,,,,,,,,,,
,,,,65e8fd23ef669d553e9db84b,A,2024-07-04_18h13.32.684,Slot Machine Game,2023.1.3,Win32,60.24096386,,,,,,,,,,,,,,,,,,,,,,,,,,,110,,,,,,,,,,,,,,,,,,,,,7,10,,,611.4324,1,up,3.2785,,1.5,0.3,"[3,1,2]",0.188034208,stimuli/card_10_transparent.png,10,1,0,1,0,1,,,,,,,,,,
,,,,65e8fd23ef669d553e9db84b,A,2024-07-04_18h13.32.684,Slot Machine Game,2023.1.3,Win32,60.24096386,,,,,,,,,,,,,,,,,,,,,,,,,,,210,,,,,,,,,,,,,,,,,,,,,7,10,,,617.0402,2,up,4.1845,,1.5,0.3,"[3,1,2]",0.467060991,stimuli/card_100_transparent.png,100,2,0,2,0,1,,,,,,,,,,
,,,,65e8fd23ef669d553e9db84b,A,2024-07-04_18h13.32.684,Slot Machine Game,2023.1.3,Win32,60.24096386,,,,,,,,,,,,,,,,,,,,,,,,,,,,,,,,,,,,,,,,,,,,,,,,7,10,,,623.5678,3,,,,1.5,0.3,,,,,3,0,3,0,1,,,,,,,,,,
,,,,65e8fd23ef669d553e9db84b,A,2024-07-04_18h13.32.684,Slot Machine Game,2023.1.3,Win32,60.24096386,,,,,,,,,,,,,,,,,,,,,,,,,,,310,,,,,,,,,,,,,,,,,,,,,7,10,,,629.0851,4,up,1.0105,,1.5,0.3,"[3,1,2]",0.759218089,stimuli/card_100_transparent.png,100,4,0,4,0,1,,,,,,,,,,
,,,,65e8fd23ef669d553e9db84b,A,2024-07-04_18h13.32.684,Slot Machine Game,2023.1.3,Win32,60.24096386,,,,,,,,,,,,,,,,,,,,,,,,,,,310,,,,,,,,,,,,,,,,,,,,,7,10,,,632.4134,5,up,2.3694,,1.5,0.3,"[3,1,2]",0.008429536,stimuli/card_0_transparent.png,0,5,0,5,0,1,,,,,,,,,,
,,,,65e8fd23ef669d553e9db84b,A,2024-07-04_18h13.32.684,Slot Machine Game,2023.1.3,Win32,60.24096386,,,,,,,,,,,,,,,,,,,,,,,,,,,410,,,,,,,,,,,,,,,,,,,,,7,10,,,637.1011,6,up,1.0113,,1,0.3,"[3,1,2]",0.650618215,stimuli/card_100_transparent.png,100,6,0,6,0,1,,,,,,,,,,
,,,,65e8fd23ef669d553e9db84b,A,2024-07-04_18h13.32.684,Slot Machine Game,2023.1.3,Win32,60.24096386,,,,,,,,,,,,,,,,,,,,,,,,,,,,,,,,,,,,,,,,,,,,,,,,7,10,,,639.9347,7,,,,0.5,0.3,,,,,7,0,7,0,1,,,,,,,,,,
,,,,65e8fd23ef669d553e9db84b,A,2024-07-04_18h13.32.684,Slot Machine Game,2023.1.3,Win32,60.24096386,,,,,,,,,,,,,,,,,,,,,,,,,,,420,,,,,,,,,,,,,,,,,,,,,7,10,,,645.4531,8,up,0.247,,1,0.3,"[3,1,2]",0.19219081,stimuli/card_10_transparent.png,10,8,0,8,0,1,,,,,,,,,,
,,,,65e8fd23ef669d553e9db84b,A,2024-07-04_18h13.32.684,Slot Machine Game,2023.1.3,Win32,60.24096386,,,,,,,,,,,,,,,,,,,,,,,,,,,420,,,,,,,,,,,,,,,,,,,,,7,10,,,647.5212,9,left,0.2488,,1,0.3,"[3,1,2]",0.555043678,stimuli/card_0_transparent.png,0,9,0,9,0,1,,,,,,,,,,
,,,,65e8fd23ef669d553e9db84b,A,2024-07-04_18h13.32.684,Slot Machine Game,2023.1.3,Win32,60.24096386,,,,,,,,,,,,,,,,,,,,,,,,,,,520,,,,,,,,,,,,,,,,,,,,,7,10,,,649.5915,10,right,0.1993,,1.5,0.3,"[1,3,2]",0.14139426,stimuli/card_100_transparent.png,100,10,0,10,0,1,,,,,,,,,,
,,,,65e8fd23ef669d553e9db84b,A,2024-07-04_18h13.32.684,Slot Machine Game,2023.1.3,Win32,60.24096386,,,,,,,,,,,,,,,,,,,,,,,,,,,530,,,,,,,,,,,,,,,,,,,,,7,10,,,652.1093,11,right,1.5571,,1,0.3,"[1,3,2]",0.45023299,stimuli/card_10_transparent.png,10,11,0,11,0,1,,,,,,,,,,
,,,,65e8fd23ef669d553e9db84b,A,2024-07-04_18h13.32.684,Slot Machine Game,2023.1.3,Win32,60.24096386,,,,,,,,,,,,,,,,,,,,,,,,,,,540,,,,,,,,,,,,,,,,,,,,,7,10,,,655.4894,12,right,3.5444,,1.5,0.3,"[1,3,2]",0.994176202,stimuli/card_10_transparent.png,10,12,0,12,0,1,,,,,,,,,,
,,,,65e8fd23ef669d553e9db84b,A,2024-07-04_18h13.32.684,Slot Machine Game,2023.1.3,Win32,60.24096386,,,,,,,,,,,,,,,,,,,,,,,,,,,550,,,,,,,,,,,,,,,,,,,,,7,10,,,661.3529,13,right,3.5785,,1,0.3,"[1,3,2]",0.494317669,stimuli/card_10_transparent.png,10,13,0,13,0,1,,,,,,,,,,
,,,,65e8fd23ef669d553e9db84b,A,2024-07-04_18h13.32.684,Slot Machine Game,2023.1.3,Win32,60.24096386,,,,,,,,,,,,,,,,,,,,,,,,,,,560,,,,,,,,,,,,,,,,,,,,,7,10,,,666.7526,14,right,1.6573,,1,0.3,"[1,3,2]",0.872970361,stimuli/card_10_transparent.png,10,14,0,14,0,1,,,,,,,,,,
,,,,65e8fd23ef669d553e9db84b,A,2024-07-04_18h13.32.684,Slot Machine Game,2023.1.3,Win32,60.24096386,,,,,,,,,,,,,,,,,,,,,,,,,,,,,,,,,,,670.2313,,,,,,,,,,,,,,,,,,,,,,,,,,,,,,,,,"[1120,640,850,810,940,900,560]",6,0,6,0,1,,,,
,,,,65e8fd23ef669d553e9db84b,A,2024-07-04_18h13.32.684,Slot Machine Game,2023.1.3,Win32,60.24096386,,,,,,,,,,,,,,,,,,,,,,,,,,,,,,,,,,,,,,,,,,,,,,,,8,7,"[9,15]","[[1,3,2],[2,3,1]]",675.2459,0,,,,1.5,0.3,,,,,0,0,0,0,1,,,,,,,,,,
,,,,65e8fd23ef669d553e9db84b,A,2024-07-04_18h13.32.684,Slot Machine Game,2023.1.3,Win32,60.24096386,,,,,,,,,,,,,,,,,,,,,,,,,,,0,,,,,,,,,,,,,,,,,,,,,8,7,,,680.7538,1,up,1.0441,,1,0.3,"[1,3,2]",0.293479085,stimuli/card_0_transparent.png,0,1,0,1,0,1,,,,,,,,,,
,,,,65e8fd23ef669d553e9db84b,A,2024-07-04_18h13.32.684,Slot Machine Game,2023.1.3,Win32,60.24096386,,,,,,,,,,,,,,,,,,,,,,,,,,,10,,,,,,,,,,,,,,,,,,,,,8,7,,,683.617,2,right,0.0005,,1.5,0.3,"[1,3,2]",0.239910339,stimuli/card_10_transparent.png,10,2,0,2,0,1,,,,,,,,,,
,,,,65e8fd23ef669d553e9db84b,A,2024-07-04_18h13.32.684,Slot Machine Game,2023.1.3,Win32,60.24096386,,,,,,,,,,,,,,,,,,,,,,,,,,,20,,,,,,,,,,,,,,,,,,,,,8,7,,,685.9363,3,left,0.0005,,1.5,0.3,"[1,3,2]",0.173601626,stimuli/card_10_transparent.png,10,3,0,3,0,1,,,,,,,,,,
,,,,65e8fd23ef669d553e9db84b,A,2024-07-04_18h13.32.684,Slot Machine Game,2023.1.3,Win32,60.24096386,,,,,,,,,,,,,,,,,,,,,,,,,,,30,,,,,,,,,,,,,,,,,,,,,8,7,,,688.2548,4,right,0.3155,,1.5,0.3,"[1,3,2]",0.87338439,stimuli/card_10_transparent.png,10,4,0,4,0,1,,,,,,,,,,
,,,,65e8fd23ef669d553e9db84b,A,2024-07-04_18h13.32.684,Slot Machine Game,2023.1.3,Win32,60.24096386,,,,,,,,,,,,,,,,,,,,,,,,,,,30,,,,,,,,,,,,,,,,,,,,,8,7,,,690.8886,5,up,0.1829,,0.5,0.3,"[1,3,2]",0.416604589,stimuli/card_0_transparent.png,0,5,0,5,0,1,,,,,,,,,,
,,,,65e8fd23ef669d553e9db84b,A,2024-07-04_18h13.32.684,Slot Machine Game,2023.1.3,Win32,60.24096386,,,,,,,,,,,,,,,,,,,,,,,,,,,40,,,,,,,,,,,,,,,,,,,,,8,7,,,692.3966,6,right,0.2987,,0.5,0.3,"[1,3,2]",0.347496992,stimuli/card_10_transparent.png,10,6,0,6,0,1,,,,,,,,,,
,,,,65e8fd23ef669d553e9db84b,A,2024-07-04_18h13.32.684,Slot Machine Game,2023.1.3,Win32,60.24096386,,,,,,,,,,,,,,,,,,,,,,,,,,,140,,,,,,,,,,,,,,,,,,,,,8,7,,,694.0199,7,left,0.284,,1,0.3,"[1,3,2]",0.320024182,stimuli/card_100_transparent.png,100,7,0,7,0,1,,,,,,,,,,
,,,,65e8fd23ef669d553e9db84b,A,2024-07-04_18h13.32.684,Slot Machine Game,2023.1.3,Win32,60.24096386,,,,,,,,,,,,,,,,,,,,,,,,,,,240,,,,,,,,,,,,,,,,,,,,,8,7,,,696.1237,8,left,0.2322,,1,0.3,"[1,3,2]",0.768095957,stimuli/card_100_transparent.png,100,8,0,8,0,1,,,,,,,,,,
,,,,65e8fd23ef669d553e9db84b,A,2024-07-04_18h13.32.684,Slot Machine Game,2023.1.3,Win32,60.24096386,,,,,,,,,,,,,,,,,,,,,,,,,,,250,,,,,,,,,,,,,,,,,,,,,8,7,,,698.1791,9,left,1.8215,,1.5,0.3,"[2,3,1]",0.564243184,stimuli/card_10_transparent.png,10,9,0,9,0,1,,,,,,,,,,
,,,,65e8fd23ef669d553e9db84b,A,2024-07-04_18h13.32.684,Slot Machine Game,2023.1.3,Win32,60.24096386,,,,,,,,,,,,,,,,,,,,,,,,,,,350,,,,,,,,,,,,,,,,,,,,,8,7,,,702.3189,10,left,0.4978,,0.5,0.3,"[2,3,1]",0.135128686,stimuli/card_100_transparent.png,100,10,0,10,0,1,,,,,,,,,,
,,,,65e8fd23ef669d553e9db84b,A,2024-07-04_18h13.32.684,Slot Machine Game,2023.1.3,Win32,60.24096386,,,,,,,,,,,,,,,,,,,,,,,,,,,360,,,,,,,,,,,,,,,,,,,,,8,7,,,704.1414,11,left,0.2659,,0.5,0.3,"[2,3,1]",0.390375058,stimuli/card_10_transparent.png,10,11,0,11,0,1,,,,,,,,,,
,,,,65e8fd23ef669d553e9db84b,A,2024-07-04_18h13.32.684,Slot Machine Game,2023.1.3,Win32,60.24096386,,,,,,,,,,,,,,,,,,,,,,,,,,,370,,,,,,,,,,,,,,,,,,,,,8,7,,,705.7314,12,left,2.5671,,1.5,0.3,"[2,3,1]",0.939774772,stimuli/card_10_transparent.png,10,12,0,12,0,1,,,,,,,,,,
,,,,65e8fd23ef669d553e9db84b,A,2024-07-04_18h13.32.684,Slot Machine Game,2023.1.3,Win32,60.24096386,,,,,,,,,,,,,,,,,,,,,,,,,,,380,,,,,,,,,,,,,,,,,,,,,8,7,,,710.6183,13,left,0.0005,,1.5,0.3,"[2,3,1]",0.263189346,stimuli/card_10_transparent.png,10,13,0,13,0,1,,,,,,,,,,
,,,,65e8fd23ef669d553e9db84b,A,2024-07-04_18h13.32.684,Slot Machine Game,2023.1.3,Win32,60.24096386,,,,,,,,,,,,,,,,,,,,,,,,,,,390,,,,,,,,,,,,,,,,,,,,,8,7,,,712.9377,14,left,2.0222,,0.5,0.3,"[2,3,1]",0.875173883,stimuli/card_10_transparent.png,10,14,0,14,0,1,,,,,,,,,,
,,,,65e8fd23ef669d553e9db84b,A,2024-07-04_18h13.32.684,Slot Machine Game,2023.1.3,Win32,60.24096386,,,,,,,,,,,,,,,,,,,,,,,,,,,,,,,,,,,716.284,,,,,,,,,,,,,,,,,,,,,,,,,,,,,,,,,"[1120,640,850,810,940,900,560,390]",7,0,7,0,1,,,,
,,,,65e8fd23ef669d553e9db84b,A,2024-07-04_18h13.32.684,Slot Machine Game,2023.1.3,Win32,60.24096386,,,,,,,,,,,,,,,,,,,,,,,,,,,0,,,,,,,,,,,,,,,,,,,,,9,9,[15],"[[3,1,2]]",721.2972,0,left,0.7295,,1,0.3,"[3,1,2]",0.699156647,stimuli/card_0_transparent.png,0,0,0,0,0,1,,,,,,,,,,
,,,,65e8fd23ef669d553e9db84b,A,2024-07-04_18h13.32.684,Slot Machine Game,2023.1.3,Win32,60.24096386,,,,,,,,,,,,,,,,,,,,,,,,,,,100,,,,,,,,,,,,,,,,,,,,,9,9,,,723.8376,1,right,0.2656,,1.5,0.3,"[3,1,2]",0.143084663,stimuli/card_100_transparent.png,100,1,0,1,0,1,,,,,,,,,,
,,,,65e8fd23ef669d553e9db84b,A,2024-07-04_18h13.32.684,Slot Machine Game,2023.1.3,Win32,60.24096386,,,,,,,,,,,,,,,,,,,,,,,,,,,200,,,,,,,,,,,,,,,,,,,,,9,9,,,726.4222,2,right,0.4641,,1.5,0.3,"[3,1,2]",0.127762548,stimuli/card_100_transparent.png,100,2,0,2,0,1,,,,,,,,,,
,,,,65e8fd23ef669d553e9db84b,A,2024-07-04_18h13.32.684,Slot Machine Game,2023.1.3,Win32,60.24096386,,,,,,,,,,,,,,,,,,,,,,,,,,,210,,,,,,,,,,,,,,,,,,,,,9,9,,,729.2051,3,right,1.1929,,1,0.3,"[3,1,2]",0.976842434,stimuli/card_10_transparent.png,10,3,0,3,0,1,,,,,,,,,,
,,,,65e8fd23ef669d553e9db84b,A,2024-07-04_18h13.32.684,Slot Machine Game,2023.1.3,Win32,60.24096386,,,,,,,,,,,,,,,,,,,,,,,,,,,220,,,,,,,,,,,,,,,,,,,,,9,9,,,732.2203,4,right,0.3338,,0.5,0.3,"[3,1,2]",0.265461519,stimuli/card_10_transparent.png,10,4,0,4,0,1,,,,,,,,,,
,,,,65e8fd23ef669d553e9db84b,A,2024-07-04_18h13.32.684,Slot Machine Game,2023.1.3,Win32,60.24096386,,,,,,,,,,,,,,,,,,,,,,,,,,,230,,,,,,,,,,,,,,,,,,,,,9,9,,,733.8761,5,right,0.978,,1.5,0.3,"[3,1,2]",0.444907969,stimuli/card_10_transparent.png,10,5,0,5,0,1,,,,,,,,,,
,,,,65e8fd23ef669d553e9db84b,A,2024-07-04_18h13.32.684,Slot Machine Game,2023.1.3,Win32,60.24096386,,,,,,,,,,,,,,,,,,,,,,,,,,,230,,,,,,,,,,,,,,,,,,,,,9,9,,,737.1722,6,right,2.9653,,1,0.3,"[3,1,2]",0.040021291,stimuli/card_0_transparent.png,0,6,0,6,0,1,,,,,,,,,,
,,,,65e8fd23ef669d553e9db84b,A,2024-07-04_18h13.32.684,Slot Machine Game,2023.1.3,Win32,60.24096386,,,,,,,,,,,,,,,,,,,,,,,,,,,240,,,,,,,,,,,,,,,,,,,,,9,9,,,741.9597,7,right,4.0587,,0.5,0.3,"[3,1,2]",0.232867974,stimuli/card_10_transparent.png,10,7,0,7,0,1,,,,,,,,,,
,,,,65e8fd23ef669d553e9db84b,A,2024-07-04_18h13.32.684,Slot Machine Game,2023.1.3,Win32,60.24096386,,,,,,,,,,,,,,,,,,,,,,,,,,,250,,,,,,,,,,,,,,,,,,,,,9,9,,,747.3442,8,right,0.63,,0.5,0.3,"[3,1,2]",0.693748915,stimuli/card_10_transparent.png,10,8,0,8,0,1,,,,,,,,,,
,,,,65e8fd23ef669d553e9db84b,A,2024-07-04_18h13.32.684,Slot Machine Game,2023.1.3,Win32,60.24096386,,,,,,,,,,,,,,,,,,,,,,,,,,,350,,,,,,,,,,,,,,,,,,,,,9,9,,,749.2995,9,up,0.2517,,1,0.3,"[3,1,2]",0.996097417,stimuli/card_100_transparent.png,100,9,0,9,0,1,,,,,,,,,,
,,,,65e8fd23ef669d553e9db84b,A,2024-07-04_18h13.32.684,Slot Machine Game,2023.1.3,Win32,60.24096386,,,,,,,,,,,,,,,,,,,,,,,,,,,450,,,,,,,,,,,,,,,,,,,,,9,9,,,751.3695,10,up,0.464,,1,0.3,"[3,1,2]",0.379395219,stimuli/card_100_transparent.png,100,10,0,10,0,1,,,,,,,,,,
,,,,65e8fd23ef669d553e9db84b,A,2024-07-04_18h13.32.684,Slot Machine Game,2023.1.3,Win32,60.24096386,,,,,,,,,,,,,,,,,,,,,,,,,,,450,,,,,,,,,,,,,,,,,,,,,9,9,,,753.6554,11,up,0.848,,1.5,0.3,"[3,1,2]",0.00039908,stimuli/card_0_transparent.png,0,11,0,11,0,1,,,,,,,,,,
,,,,65e8fd23ef669d553e9db84b,A,2024-07-04_18h13.32.684,Slot Machine Game,2023.1.3,Win32,60.24096386,,,,,,,,,,,,,,,,,,,,,,,,,,,550,,,,,,,,,,,,,,,,,,,,,9,9,,,756.8203,12,up,4.0594,,1.5,0.3,"[3,1,2]",0.844031034,stimuli/card_100_transparent.png,100,12,0,12,0,1,,,,,,,,,,
,,,,65e8fd23ef669d553e9db84b,A,2024-07-04_18h13.32.684,Slot Machine Game,2023.1.3,Win32,60.24096386,,,,,,,,,,,,,,,,,,,,,,,,,,,650,,,,,,,,,,,,,,,,,,,,,9,9,,,763.1972,13,up,0.8118,,1,0.3,"[3,1,2]",0.615043069,stimuli/card_100_transparent.png,100,13,0,13,0,1,,,,,,,,,,
,,,,65e8fd23ef669d553e9db84b,A,2024-07-04_18h13.32.684,Slot Machine Game,2023.1.3,Win32,60.24096386,,,,,,,,,,,,,,,,,,,,,,,,,,,750,,,,,,,,,,,,,,,,,,,,,9,9,,,765.8314,14,up,1.0607,,0.5,0.3,"[3,1,2]",0.869044696,stimuli/card_100_transparent.png,100,14,0,14,0,1,,,,,,,,,,
,,,,65e8fd23ef669d553e9db84b,A,2024-07-04_18h13.32.684,Slot Machine Game,2023.1.3,Win32,60.24096386,,,,,,,,,,,,,,,,,,,,,,,,,,,,,,,,,,,768.2167,,,,,,,,,,,,,,,,,,,,,,,,,,,,,,,,,"[1120,640,850,810,940,900,560,390,750]",8,0,8,0,1,,,,
,,,,65e8fd23ef669d553e9db84b,A,2024-07-04_18h13.32.684,Slot Machine Game,2023.1.3,Win32,60.24096386,,,,,,,,,,,,,,,,,,,,,,,,,,,0,,,,,,,,,,,,,,,,,,,,,10,6,"[4,10,15]","[[2,3,1],[1,3,2],[3,2,1]]",773.2303,0,up,0.3815,,1.5,0.3,"[2,3,1]",0.331614789,stimuli/card_0_transparent.png,0,0,0,0,0,1,,,,,,,,,,
,,,,65e8fd23ef669d553e9db84b,A,2024-07-04_18h13.32.684,Slot Machine Game,2023.1.3,Win32,60.24096386,,,,,,,,,,,,,,,,,,,,,,,,,,,100,,,,,,,,,,,,,,,,,,,,,10,6,,,775.9187,1,right,0.2162,,1,0.3,"[2,3,1]",0.717022351,stimuli/card_100_transparent.png,100,1,0,1,0,1,,,,,,,,,,
,,,,65e8fd23ef669d553e9db84b,A,2024-07-04_18h13.32.684,Slot Machine Game,2023.1.3,Win32,60.24096386,,,,,,,,,,,,,,,,,,,,,,,,,,,100,,,,,,,,,,,,,,,,,,,,,10,6,,,777.9575,2,right,0.4977,,1.5,0.3,"[2,3,1]",0.045489311,stimuli/card_0_transparent.png,0,2,0,2,0,1,,,,,,,,,,
,,,,65e8fd23ef669d553e9db84b,A,2024-07-04_18h13.32.684,Slot Machine Game,2023.1.3,Win32,60.24096386,,,,,,,,,,,,,,,,,,,,,,,,,,,200,,,,,,,,,,,,,,,,,,,,,10,6,,,780.7722,3,right,2.2863,,1.5,0.3,"[2,3,1]",0.51273422,stimuli/card_100_transparent.png,100,3,0,3,0,1,,,,,,,,,,
,,,,65e8fd23ef669d553e9db84b,A,2024-07-04_18h13.32.684,Slot Machine Game,2023.1.3,Win32,60.24096386,,,,,,,,,,,,,,,,,,,,,,,,,,,,,,,,,,,,,,,,,,,,,,,,10,6,,,785.3788,4,,,,1.5,0.3,,,,,4,0,4,0,1,,,,,,,,,,
,,,,65e8fd23ef669d553e9db84b,A,2024-07-04_18h13.32.684,Slot Machine Game,2023.1.3,Win32,60.24096386,,,,,,,,,,,,,,,,,,,,,,,,,,,210,,,,,,,,,,,,,,,,,,,,,10,6,,,790.8968,5,right,0.7621,,1,0.3,"[1,3,2]",0.46602093,stimuli/card_10_transparent.png,10,5,0,5,0,1,,,,,,,,,,
,,,,65e8fd23ef669d553e9db84b,A,2024-07-04_18h13.32.684,Slot Machine Game,2023.1.3,Win32,60.24096386,,,,,,,,,,,,,,,,,,,,,,,,,,,310,,,,,,,,,,,,,,,,,,,,,10,6,,,793.4786,6,up,0.3151,,1,0.3,"[1,3,2]",0.085249539,stimuli/card_100_transparent.png,100,6,0,6,0,1,,,,,,,,,,
,,,,65e8fd23ef669d553e9db84b,A,2024-07-04_18h13.32.684,Slot Machine Game,2023.1.3,Win32,60.24096386,,,,,,,,,,,,,,,,,,,,,,,,,,,310,,,,,,,,,,,,,,,,,,,,,10,6,,,795.6163,7,up,0.0004,,1.5,0.3,"[1,3,2]",0.425480334,stimuli/card_0_transparent.png,0,7,0,7,0,1,,,,,,,,,,
,,,,65e8fd23ef669d553e9db84b,A,2024-07-04_18h13.32.684,Slot Machine Game,2023.1.3,Win32,60.24096386,,,,,,,,,,,,,,,,,,,,,,,,,,,310,,,,,,,,,,,,,,,,,,,,,10,6,,,797.9348,8,up,0.7291,,1,0.3,"[1,3,2]",0.250289374,stimuli/card_0_transparent.png,0,8,0,8,0,1,,,,,,,,,,
,,,,65e8fd23ef669d553e9db84b,A,2024-07-04_18h13.32.684,Slot Machine Game,2023.1.3,Win32,60.24096386,,,,,,,,,,,,,,,,,,,,,,,,,,,310,,,,,,,,,,,,,,,,,,,,,10,6,,,800.4863,9,up,0.7294,,1.5,0.3,"[1,3,2]",0.368872844,stimuli/card_0_transparent.png,0,9,0,9,0,1,,,,,,,,,,
,,,,65e8fd23ef669d553e9db84b,A,2024-07-04_18h13.32.684,Slot Machine Game,2023.1.3,Win32,60.24096386,,,,,,,,,,,,,,,,,,,,,,,,,,,410,,,,,,,,,,,,,,,,,,,,,10,6,,,803.5335,10,up,0.249,,1,0.3,"[3,2,1]",0.158337455,stimuli/card_100_transparent.png,100,10,0,10,0,1,,,,,,,,,,
,,,,65e8fd23ef669d553e9db84b,A,2024-07-04_18h13.32.684,Slot Machine Game,2023.1.3,Win32,60.24096386,,,,,,,,,,,,,,,,,,,,,,,,,,,420,,,,,,,,,,,,,,,,,,,,,10,6,,,805.6044,11,up,0.0511,,1,0.3,"[3,2,1]",0.345511578,stimuli/card_10_transparent.png,10,11,0,11,0,1,,,,,,,,,,
,,,,65e8fd23ef669d553e9db84b,A,2024-07-04_18h13.32.684,Slot Machine Game,2023.1.3,Win32,60.24096386,,,,,,,,,,,,,,,,,,,,,,,,,,,430,,,,,,,,,,,,,,,,,,,,,10,6,,,807.4773,12,up,0.58,,1,0.3,"[3,2,1]",0.930723695,stimuli/card_10_transparent.png,10,12,0,12,0,1,,,,,,,,,,
,,,,65e8fd23ef669d553e9db84b,A,2024-07-04_18h13.32.684,Slot Machine Game,2023.1.3,Win32,60.24096386,,,,,,,,,,,,,,,,,,,,,,,,,,,440,,,,,,,,,,,,,,,,,,,,,10,6,,,809.8781,13,up,4.3735,,1,0.3,"[3,2,1]",0.782047789,stimuli/card_10_transparent.png,10,13,0,13,0,1,,,,,,,,,,
,,,,65e8fd23ef669d553e9db84b,A,2024-07-04_18h13.32.684,Slot Machine Game,2023.1.3,Win32,60.24096386,,,,,,,,,,,,,,,,,,,,,,,,,,,450,,,,,,,,,,,,,,,,,,,,,10,6,,,816.0745,14,up,0.9812,,0.5,0.3,"[3,2,1]",0.275895312,stimuli/card_10_transparent.png,10,14,0,14,0,1,,,,,,,,,,
,,,,65e8fd23ef669d553e9db84b,A,2024-07-04_18h13.32.684,Slot Machine Game,2023.1.3,Win32,60.24096386,,,,,,,,,,,,,,,,,,,,,,,,,,,,,,,,,,,818.3765,,,,,,,,,,,,,,,,,,,,,,,,,,,,,,,,,"[1120,640,850,810,940,900,560,390,750,450]",9,0,9,0,1,,,,
,,,,65e8fd23ef669d553e9db84b,A,2024-07-04_18h13.32.684,Slot Machine Game,2023.1.3,Win32,60.24096386,,,,,,,,,,,,,,,,,,,,,,,,,,,,,,,,,,,,,,,,,,,,,,,,,,,,,,,,,,,,,,,,,,,,,,,,,,9,"[1120,640,850,810,940,900,560,390,750,450]",9.4,2024-07-04_18h27.20.183
