key_resp_welcome_started,key_resp_welcome_keys,key_resp_welcome_rt,key_resp_welcome_duration,prolific_id,path_id,date,expName,psychopyVersion,OS,frameRate,key_resp_instruction1_started,key_resp_instruction1_keys,key_resp_instruction1_rt,key_resp_instruction1_duration,key_resp_instruction2_started,key_resp_instruction2_keys,key_resp_instruction2_rt,key_resp_instruction2_duration,key_resp_instruction3_started,key_resp_instruction3_keys,key_resp_instruction3_rt,key_resp_instruction3_duration,key_resp_instruction4_started,key_resp_instruction4_keys,key_resp_instruction4_rt,key_resp_instruction4_duration,practiceCondition,practice_reward_seqs,practice_trial_started,practice_trial_num,practice_resp_rt,practice_resp_duration,practice_resp_keys,prac_presentationInterval,"practice_reward_seq: 2,1,3",reward_img,cumulative_reward,trial_reward,practice_trials.thisRepN,practice_trials.thisTrialN,practice_trials.thisN,practice_trials.thisIndex,practice_trials.ran,"practice_reward_seq: 2,3,1",block_break_started,"practice_reward_seq: 1,3,2","practice_reward_seq: 3,1,2",practice_end_time,practice_end_keys,practice_end_rt,practice_end_duration,main_instruction_text_started,block_condition,block_order_indices,main_instruction_keys,main_instruction_rt,main_instruction_duration,block_number,block_assignment,current_condition,main_reward_seqs,main_trial_started,main_trial_num,main_trial_keys,main_trial_rt,main_trial_duration,main_presentationInterval,reward_presentation_time,main_reward_seq,reward_rand_val,main_reward_img,current_reward,main_trials.thisRepN,main_trials.thisTrialN,main_trials.thisN,main_trials.thisIndex,main_trials.ran,block_reward,block.thisRepN,block.thisTrialN,block.thisN,block.thisIndex,block.ran,block_reward.length,block_reward_all,reward_amount,date_end_task
0.0005,space,14.3969,,65f84a674dc27b8856a6086a,B,2024-06-22_00h30.36.356,Slot Machine Game,2023.1.3,Win32,60.24096386,,,,,,,,,,,,,,,,,,,,,,,,,,,,,,,,,,,,,,,,,,,,,,,,,,,,,,,,,,,,,,,,,,,,,,,,,,,,,
,,,,65f84a674dc27b8856a6086a,B,2024-06-22_00h30.36.356,Slot Machine Game,2023.1.3,Win32,60.24096386,14.4158,space,23.5176,,,,,,,,,,,,,,,,,,,,,,,,,,,,,,,,,,,,,,,,,,,,,,,,,,,,,,,,,,,,,,,,,,,,,,,,,,
,,,,65f84a674dc27b8856a6086a,B,2024-06-22_00h30.36.356,Slot Machine Game,2023.1.3,Win32,60.24096386,,,,,37.9782,space,20.2505,,,,,,,,,,,,,,,,,,,,,,,,,,,,,,,,,,,,,,,,,,,,,,,,,,,,,,,,,,,,,,,,,,,,,,
,,,,65f84a674dc27b8856a6086a,B,2024-06-22_00h30.36.356,Slot Machine Game,2023.1.3,Win32,60.24096386,,,,,,,,,58.2913,space,7.8138,,,,,,,,,,,,,,,,,,,,,,,,,,,,,,,,,,,,,,,,,,,,,,,,,,,,,,,,,,,,,,,,,,
,,,,65f84a674dc27b8856a6086a,B,2024-06-22_00h30.36.356,Slot Machine Game,2023.1.3,Win32,60.24096386,,,,,,,,,,,,,,,,,,,,,,,,,,,,,,,,,,,,,,,,,,,,,,,,,,,,,,,,,,,,,,,,,,,,,,,,,,,,,
,,,,65f84a674dc27b8856a6086a,B,2024-06-22_00h30.36.356,Slot Machine Game,2023.1.3,Win32,60.24096386,,,,,,,,,,,,,209.1026,space,5.1527,,,,,,,,,,,,,,,,,,,,,,,,,,,,,,,,,,,,,,,,,,,,,,,,,,,,,,,,,,,,,,
,,,,65f84a674dc27b8856a6086a,B,2024-06-22_00h30.36.356,Slot Machine Game,2023.1.3,Win32,60.24096386,,,,,,,,,,,,,,,,,"[9,15]","[[2,1,3],[2,3,1]]",214.3126,0,1.7365,,right,1.5,,stimuli/card_0_transparent.png,0,0,0,0,0,0,1,,,,,,,,,,,,,,,,,,,,,,,,,,,,,,,,,,,,,,,,,,,,
,,,,65f84a674dc27b8856a6086a,B,2024-06-22_00h30.36.356,Slot Machine Game,2023.1.3,Win32,60.24096386,,,,,,,,,,,,,,,,,,,218.3714,1,1.8648,,up,1,,stimuli/card_100_transparent.png,100,100,1,0,1,0,1,,,,,,,,,,,,,,,,,,,,,,,,,,,,,,,,,,,,,,,,,,,,
,,,,65f84a674dc27b8856a6086a,B,2024-06-22_00h30.36.356,Slot Machine Game,2023.1.3,Win32,60.24096386,,,,,,,,,,,,,,,,,,,222.0669,2,0.85,,left,1,,stimuli/card_10_transparent.png,110,10,2,0,2,0,1,,,,,,,,,,,,,,,,,,,,,,,,,,,,,,,,,,,,,,,,,,,,
,,,,65f84a674dc27b8856a6086a,B,2024-06-22_00h30.36.356,Slot Machine Game,2023.1.3,Win32,60.24096386,,,,,,,,,,,,,,,,,,,224.7309,3,0.2335,,up,1,,stimuli/card_10_transparent.png,120,10,3,0,3,0,1,,,,,,,,,,,,,,,,,,,,,,,,,,,,,,,,,,,,,,,,,,,,
,,,,65f84a674dc27b8856a6086a,B,2024-06-22_00h30.36.356,Slot Machine Game,2023.1.3,Win32,60.24096386,,,,,,,,,,,,,,,,,,,226.7881,4,1.1842,,left,0.5,,stimuli/card_10_transparent.png,130,10,4,0,4,0,1,,,,,,,,,,,,,,,,,,,,,,,,,,,,,,,,,,,,,,,,,,,,
,,,,65f84a674dc27b8856a6086a,B,2024-06-22_00h30.36.356,Slot Machine Game,2023.1.3,Win32,60.24096386,,,,,,,,,,,,,,,,,,,229.2944,5,0.3034,,right,1,,stimuli/card_0_transparent.png,130,0,5,0,5,0,1,,,,,,,,,,,,,,,,,,,,,,,,,,,,,,,,,,,,,,,,,,,,
,,,,65f84a674dc27b8856a6086a,B,2024-06-22_00h30.36.356,Slot Machine Game,2023.1.3,Win32,60.24096386,,,,,,,,,,,,,,,,,,,231.4256,6,0.3362,,left,1,,stimuli/card_10_transparent.png,140,10,6,0,6,0,1,,,,,,,,,,,,,,,,,,,,,,,,,,,,,,,,,,,,,,,,,,,,
,,,,65f84a674dc27b8856a6086a,B,2024-06-22_00h30.36.356,Slot Machine Game,2023.1.3,Win32,60.24096386,,,,,,,,,,,,,,,,,,,233.5899,7,0.018,,up,0.5,,stimuli/card_100_transparent.png,240,100,7,0,7,0,1,,,,,,,,,,,,,,,,,,,,,,,,,,,,,,,,,,,,,,,,,,,,
,,,,65f84a674dc27b8856a6086a,B,2024-06-22_00h30.36.356,Slot Machine Game,2023.1.3,Win32,60.24096386,,,,,,,,,,,,,,,,,,,234.9385,8,0.3008,,left,1.5,,stimuli/card_10_transparent.png,250,10,8,0,8,0,1,,,,,,,,,,,,,,,,,,,,,,,,,,,,,,,,,,,,,,,,,,,,
,,,,65f84a674dc27b8856a6086a,B,2024-06-22_00h30.36.356,Slot Machine Game,2023.1.3,Win32,60.24096386,,,,,,,,,,,,,,,,,,,237.5694,9,1.6004,,up,0.5,,stimuli/card_0_transparent.png,250,0,9,0,9,0,1,,,,,,,,,,,,,,,,,,,,,,,,,,,,,,,,,,,,,,,,,,,,
,,,,65f84a674dc27b8856a6086a,B,2024-06-22_00h30.36.356,Slot Machine Game,2023.1.3,Win32,60.24096386,,,,,,,,,,,,,,,,,,,240.4998,10,0.1843,,right,0.5,,stimuli/card_100_transparent.png,350,100,10,0,10,0,1,,,,,,,,,,,,,,,,,,,,,,,,,,,,,,,,,,,,,,,,,,,,
,,,,65f84a674dc27b8856a6086a,B,2024-06-22_00h30.36.356,Slot Machine Game,2023.1.3,Win32,60.24096386,,,,,,,,,,,,,,,,,,,242.0149,11,0.3354,,right,0.5,,stimuli/card_100_transparent.png,450,100,11,0,11,0,1,,,,,,,,,,,,,,,,,,,,,,,,,,,,,,,,,,,,,,,,,,,,
,,,,65f84a674dc27b8856a6086a,B,2024-06-22_00h30.36.356,Slot Machine Game,2023.1.3,Win32,60.24096386,,,,,,,,,,,,,,,,,,,243.6798,12,0.0897,,right,1,,stimuli/card_100_transparent.png,550,100,12,0,12,0,1,,,,,,,,,,,,,,,,,,,,,,,,,,,,,,,,,,,,,,,,,,,,
,,,,65f84a674dc27b8856a6086a,B,2024-06-22_00h30.36.356,Slot Machine Game,2023.1.3,Win32,60.24096386,,,,,,,,,,,,,,,,,,,245.5948,13,0.0345,,right,1.5,,stimuli/card_0_transparent.png,550,0,13,0,13,0,1,,,,,,,,,,,,,,,,,,,,,,,,,,,,,,,,,,,,,,,,,,,,
,,,,65f84a674dc27b8856a6086a,B,2024-06-22_00h30.36.356,Slot Machine Game,2023.1.3,Win32,60.24096386,,,,,,,,,,,,,,,,,,,247.9592,14,0.01,,left,1.5,,stimuli/card_10_transparent.png,560,10,14,0,14,0,1,,,,,,,,,,,,,,,,,,,,,,,,,,,,,,,,,,,,,,,,,,,,
,,,,65f84a674dc27b8856a6086a,B,2024-06-22_00h30.36.356,Slot Machine Game,2023.1.3,Win32,60.24096386,,,,,,,,,,,,,,,,,"[6,15]","[[1,3,2],[3,1,2]]",255.3313,0,0.2519,,up,1,,stimuli/card_0_transparent.png,0,0,0,0,0,0,1,,250.3269,,,,,,,,,,,,,,,,,,,,,,,,,,,,,,,,,,,,,,,,,,
,,,,65f84a674dc27b8856a6086a,B,2024-06-22_00h30.36.356,Slot Machine Game,2023.1.3,Win32,60.24096386,,,,,,,,,,,,,,,,,,,257.3988,1,1.8891,,left,0.5,,stimuli/card_100_transparent.png,100,100,1,0,1,0,1,,,,,,,,,,,,,,,,,,,,,,,,,,,,,,,,,,,,,,,,,,,,
,,,,65f84a674dc27b8856a6086a,B,2024-06-22_00h30.36.356,Slot Machine Game,2023.1.3,Win32,60.24096386,,,,,,,,,,,,,,,,,,,260.5789,2,1.8561,,left,1,,stimuli/card_100_transparent.png,200,100,2,0,2,0,1,,,,,,,,,,,,,,,,,,,,,,,,,,,,,,,,,,,,,,,,,,,,
,,,,65f84a674dc27b8856a6086a,B,2024-06-22_00h30.36.356,Slot Machine Game,2023.1.3,Win32,60.24096386,,,,,,,,,,,,,,,,,,,264.2676,3,0.0019,,left,1.5,,stimuli/card_100_transparent.png,300,100,3,0,3,0,1,,,,,,,,,,,,,,,,,,,,,,,,,,,,,,,,,,,,,,,,,,,,
,,,,65f84a674dc27b8856a6086a,B,2024-06-22_00h30.36.356,Slot Machine Game,2023.1.3,Win32,60.24096386,,,,,,,,,,,,,,,,,,,266.5896,4,0.3837,,left,1.5,,stimuli/card_10_transparent.png,310,10,4,0,4,0,1,,,,,,,,,,,,,,,,,,,,,,,,,,,,,,,,,,,,,,,,,,,,
,,,,65f84a674dc27b8856a6086a,B,2024-06-22_00h30.36.356,Slot Machine Game,2023.1.3,Win32,60.24096386,,,,,,,,,,,,,,,,,,,269.3036,5,0.0846,,right,1,,stimuli/card_10_transparent.png,320,10,5,0,5,0,1,,,,,,,,,,,,,,,,,,,,,,,,,,,,,,,,,,,,,,,,,,,,
,,,,65f84a674dc27b8856a6086a,B,2024-06-22_00h30.36.356,Slot Machine Game,2023.1.3,Win32,60.24096386,,,,,,,,,,,,,,,,,,,271.2107,6,0.0517,,right,1.5,,stimuli/card_10_transparent.png,330,10,6,0,6,0,1,,,,,,,,,,,,,,,,,,,,,,,,,,,,,,,,,,,,,,,,,,,,
,,,,65f84a674dc27b8856a6086a,B,2024-06-22_00h30.36.356,Slot Machine Game,2023.1.3,Win32,60.24096386,,,,,,,,,,,,,,,,,,,273.592,7,2.5537,,up,1.5,,stimuli/card_100_transparent.png,430,100,7,0,7,0,1,,,,,,,,,,,,,,,,,,,,,,,,,,,,,,,,,,,,,,,,,,,,
,,,,65f84a674dc27b8856a6086a,B,2024-06-22_00h30.36.356,Slot Machine Game,2023.1.3,Win32,60.24096386,,,,,,,,,,,,,,,,,,,278.4704,8,1.8667,,up,1,,stimuli/card_0_transparent.png,430,0,8,0,8,0,1,,,,,,,,,,,,,,,,,,,,,,,,,,,,,,,,,,,,,,,,,,,,
,,,,65f84a674dc27b8856a6086a,B,2024-06-22_00h30.36.356,Slot Machine Game,2023.1.3,Win32,60.24096386,,,,,,,,,,,,,,,,,,,282.1575,9,0.6645,,right,1,,stimuli/card_10_transparent.png,440,10,9,0,9,0,1,,,,,,,,,,,,,,,,,,,,,,,,,,,,,,,,,,,,,,,,,,,,
,,,,65f84a674dc27b8856a6086a,B,2024-06-22_00h30.36.356,Slot Machine Game,2023.1.3,Win32,60.24096386,,,,,,,,,,,,,,,,,,,284.6386,10,0.4153,,left,1,,stimuli/card_100_transparent.png,540,100,10,0,10,0,1,,,,,,,,,,,,,,,,,,,,,,,,,,,,,,,,,,,,,,,,,,,,
,,,,65f84a674dc27b8856a6086a,B,2024-06-22_00h30.36.356,Slot Machine Game,2023.1.3,Win32,60.24096386,,,,,,,,,,,,,,,,,,,286.8698,11,0.3971,,left,1,,stimuli/card_10_transparent.png,550,10,11,0,11,0,1,,,,,,,,,,,,,,,,,,,,,,,,,,,,,,,,,,,,,,,,,,,,
,,,,65f84a674dc27b8856a6086a,B,2024-06-22_00h30.36.356,Slot Machine Game,2023.1.3,Win32,60.24096386,,,,,,,,,,,,,,,,,,,289.086,12,0.8867,,up,0.5,,stimuli/card_10_transparent.png,560,10,12,0,12,0,1,,,,,,,,,,,,,,,,,,,,,,,,,,,,,,,,,,,,,,,,,,,,
,,,,65f84a674dc27b8856a6086a,B,2024-06-22_00h30.36.356,Slot Machine Game,2023.1.3,Win32,60.24096386,,,,,,,,,,,,,,,,,,,291.2997,13,0.0679,,right,1,,stimuli/card_10_transparent.png,570,10,13,0,13,0,1,,,,,,,,,,,,,,,,,,,,,,,,,,,,,,,,,,,,,,,,,,,,
,,,,65f84a674dc27b8856a6086a,B,2024-06-22_00h30.36.356,Slot Machine Game,2023.1.3,Win32,60.24096386,,,,,,,,,,,,,,,,,,,293.1979,14,0.6339,,left,1.5,,stimuli/card_0_transparent.png,570,0,14,0,14,0,1,,,,,,,,,,,,,,,,,,,,,,,,,,,,,,,,,,,,,,,,,,,,
,,,,65f84a674dc27b8856a6086a,B,2024-06-22_00h30.36.356,Slot Machine Game,2023.1.3,Win32,60.24096386,,,,,,,,,,,,,,,,,,,,,,,,,,,,,,,,,,,296.1616,,,301.1589,space,1.6274,,,,,,,,,,,,,,,,,,,,,,,,,,,,,,,,,,,,,
,,,,65f84a674dc27b8856a6086a,B,2024-06-22_00h30.36.356,Slot Machine Game,2023.1.3,Win32,60.24096386,,,,,,,,,,,,,,,,,,,,,,,,,,,,,,,,,,,,,,,,,,302.8227,2,"[2,4,8,0,1,3,9,6,8,5]",space,2.7537,,,,,,,,,,,,,,,,,,,,,,,,,,,,,,,
,,,,65f84a674dc27b8856a6086a,B,2024-06-22_00h30.36.356,Slot Machine Game,2023.1.3,Win32,60.24096386,,,,,,,,,,,,,,,,,,,,,,,,,,,10,,,,,,,,,,,,,,,,,,,,,1,3,"[15,15]","[[3,1,2],[3,1,2]]",305.6505,0,right,1.8967,,1,0.3,"[3,1,2]",0.32293638,stimuli/card_10_transparent.png,10,0,0,0,0,1,,,,,,,,,,
,,,,65f84a674dc27b8856a6086a,B,2024-06-22_00h30.36.356,Slot Machine Game,2023.1.3,Win32,60.24096386,,,,,,,,,,,,,,,,,,,,,,,,,,,10,,,,,,,,,,,,,,,,,,,,,1,3,,,309.3818,1,left,0.086,,1.5,0.3,"[3,1,2]",0.620327145,stimuli/card_0_transparent.png,0,1,0,1,0,1,,,,,,,,,,
,,,,65f84a674dc27b8856a6086a,B,2024-06-22_00h30.36.356,Slot Machine Game,2023.1.3,Win32,60.24096386,,,,,,,,,,,,,,,,,,,,,,,,,,,110,,,,,,,,,,,,,,,,,,,,,1,3,,,311.789,2,up,0.0008,,0.5,0.3,"[3,1,2]",0.906279587,stimuli/card_100_transparent.png,100,2,0,2,0,1,,,,,,,,,,
,,,,65f84a674dc27b8856a6086a,B,2024-06-22_00h30.36.356,Slot Machine Game,2023.1.3,Win32,60.24096386,,,,,,,,,,,,,,,,,,,,,,,,,,,210,,,,,,,,,,,,,,,,,,,,,1,3,,,313.1122,3,up,0.2175,,1,0.3,"[3,1,2]",0.995960302,stimuli/card_100_transparent.png,100,3,0,3,0,1,,,,,,,,,,
,,,,65f84a674dc27b8856a6086a,B,2024-06-22_00h30.36.356,Slot Machine Game,2023.1.3,Win32,60.24096386,,,,,,,,,,,,,,,,,,,,,,,,,,,310,,,,,,,,,,,,,,,,,,,,,1,3,,,315.1598,4,up,0.101,,1.5,0.3,"[3,1,2]",0.89158328,stimuli/card_100_transparent.png,100,4,0,4,0,1,,,,,,,,,,
,,,,65f84a674dc27b8856a6086a,B,2024-06-22_00h30.36.356,Slot Machine Game,2023.1.3,Win32,60.24096386,,,,,,,,,,,,,,,,,,,,,,,,,,,410,,,,,,,,,,,,,,,,,,,,,1,3,,,317.5905,5,right,0.818,,1,0.3,"[3,1,2]",0.19580788,stimuli/card_100_transparent.png,100,5,0,5,0,1,,,,,,,,,,
,,,,65f84a674dc27b8856a6086a,B,2024-06-22_00h30.36.356,Slot Machine Game,2023.1.3,Win32,60.24096386,,,,,,,,,,,,,,,,,,,,,,,,,,,420,,,,,,,,,,,,,,,,,,,,,1,3,,,320.2382,6,right,0.0401,,1,0.3,"[3,1,2]",0.310970427,stimuli/card_10_transparent.png,10,6,0,6,0,1,,,,,,,,,,
,,,,65f84a674dc27b8856a6086a,B,2024-06-22_00h30.36.356,Slot Machine Game,2023.1.3,Win32,60.24096386,,,,,,,,,,,,,,,,,,,,,,,,,,,420,,,,,,,,,,,,,,,,,,,,,1,3,,,322.1029,7,left,0.0435,,1,0.3,"[3,1,2]",0.881890799,stimuli/card_0_transparent.png,0,7,0,7,0,1,,,,,,,,,,
,,,,65f84a674dc27b8856a6086a,B,2024-06-22_00h30.36.356,Slot Machine Game,2023.1.3,Win32,60.24096386,,,,,,,,,,,,,,,,,,,,,,,,,,,520,,,,,,,,,,,,,,,,,,,,,1,3,,,323.9678,8,up,0.3674,,1,0.3,"[3,1,2]",0.424314859,stimuli/card_100_transparent.png,100,8,0,8,0,1,,,,,,,,,,
,,,,65f84a674dc27b8856a6086a,B,2024-06-22_00h30.36.356,Slot Machine Game,2023.1.3,Win32,60.24096386,,,,,,,,,,,,,,,,,,,,,,,,,,,530,,,,,,,,,,,,,,,,,,,,,1,3,,,326.1657,9,right,0.3505,,1.5,0.3,"[3,1,2]",0.431744182,stimuli/card_10_transparent.png,10,9,0,9,0,1,,,,,,,,,,
,,,,65f84a674dc27b8856a6086a,B,2024-06-22_00h30.36.356,Slot Machine Game,2023.1.3,Win32,60.24096386,,,,,,,,,,,,,,,,,,,,,,,,,,,540,,,,,,,,,,,,,,,,,,,,,1,3,,,328.8465,10,up,0.4173,,1.5,0.3,"[3,1,2]",0.10199327,stimuli/card_10_transparent.png,10,10,0,10,0,1,,,,,,,,,,
,,,,65f84a674dc27b8856a6086a,B,2024-06-22_00h30.36.356,Slot Machine Game,2023.1.3,Win32,60.24096386,,,,,,,,,,,,,,,,,,,,,,,,,,,640,,,,,,,,,,,,,,,,,,,,,1,3,,,331.5938,11,up,0.1674,,1,0.3,"[3,1,2]",0.447461135,stimuli/card_100_transparent.png,100,11,0,11,0,1,,,,,,,,,,
,,,,65f84a674dc27b8856a6086a,B,2024-06-22_00h30.36.356,Slot Machine Game,2023.1.3,Win32,60.24096386,,,,,,,,,,,,,,,,,,,,,,,,,,,740,,,,,,,,,,,,,,,,,,,,,1,3,,,333.5906,12,up,0.2099,,1.5,0.3,"[3,1,2]",0.421789048,stimuli/card_100_transparent.png,100,12,0,12,0,1,,,,,,,,,,
,,,,65f84a674dc27b8856a6086a,B,2024-06-22_00h30.36.356,Slot Machine Game,2023.1.3,Win32,60.24096386,,,,,,,,,,,,,,,,,,,,,,,,,,,840,,,,,,,,,,,,,,,,,,,,,1,3,,,336.106,13,up,0.1759,,0.5,0.3,"[3,1,2]",0.404538306,stimuli/card_100_transparent.png,100,13,0,13,0,1,,,,,,,,,,
,,,,65f84a674dc27b8856a6086a,B,2024-06-22_00h30.36.356,Slot Machine Game,2023.1.3,Win32,60.24096386,,,,,,,,,,,,,,,,,,,,,,,,,,,940,,,,,,,,,,,,,,,,,,,,,1,3,,,337.6049,14,up,0.2011,,0.5,0.3,"[3,1,2]",0.428089859,stimuli/card_100_transparent.png,100,14,0,14,0,1,,,,,,,,,,
,,,,65f84a674dc27b8856a6086a,B,2024-06-22_00h30.36.356,Slot Machine Game,2023.1.3,Win32,60.24096386,,,,,,,,,,,,,,,,,,,,,,,,,,,,,,,,,,,339.1369,,,,,,,,,,,,,,,,,,,,,,,,,,,,,,,,,[940],0,0,0,0,1,,,,
,,,,65f84a674dc27b8856a6086a,B,2024-06-22_00h30.36.356,Slot Machine Game,2023.1.3,Win32,60.24096386,,,,,,,,,,,,,,,,,,,,,,,,,,,100,,,,,,,,,,,,,,,,,,,,,2,5,"[5,15]","[[1,2,3],[3,1,2]]",344.1714,0,up,0.6727,,1,0.3,"[1,2,3]",0.164580918,stimuli/card_100_transparent.png,100,0,0,0,0,1,,,,,,,,,,
,,,,65f84a674dc27b8856a6086a,B,2024-06-22_00h30.36.356,Slot Machine Game,2023.1.3,Win32,60.24096386,,,,,,,,,,,,,,,,,,,,,,,,,,,110,,,,,,,,,,,,,,,,,,,,,2,5,,,346.6617,1,up,0.2552,,1.5,0.3,"[1,2,3]",0.806873123,stimuli/card_10_transparent.png,10,1,0,1,0,1,,,,,,,,,,
,,,,65f84a674dc27b8856a6086a,B,2024-06-22_00h30.36.356,Slot Machine Game,2023.1.3,Win32,60.24096386,,,,,,,,,,,,,,,,,,,,,,,,,,,110,,,,,,,,,,,,,,,,,,,,,2,5,,,349.2418,2,right,0.0679,,1,0.3,"[1,2,3]",0.201578182,stimuli/card_0_transparent.png,0,2,0,2,0,1,,,,,,,,,,
,,,,65f84a674dc27b8856a6086a,B,2024-06-22_00h30.36.356,Slot Machine Game,2023.1.3,Win32,60.24096386,,,,,,,,,,,,,,,,,,,,,,,,,,,210,,,,,,,,,,,,,,,,,,,,,2,5,,,351.1399,3,left,0.0509,,1,0.3,"[1,2,3]",0.727750549,stimuli/card_100_transparent.png,100,3,0,3,0,1,,,,,,,,,,
,,,,65f84a674dc27b8856a6086a,B,2024-06-22_00h30.36.356,Slot Machine Game,2023.1.3,Win32,60.24096386,,,,,,,,,,,,,,,,,,,,,,,,,,,310,,,,,,,,,,,,,,,,,,,,,2,5,,,353.0216,4,left,0.2355,,1,0.3,"[1,2,3]",0.519537053,stimuli/card_100_transparent.png,100,4,0,4,0,1,,,,,,,,,,
,,,,65f84a674dc27b8856a6086a,B,2024-06-22_00h30.36.356,Slot Machine Game,2023.1.3,Win32,60.24096386,,,,,,,,,,,,,,,,,,,,,,,,,,,310,,,,,,,,,,,,,,,,,,,,,2,5,,,355.0787,5,left,0.3299,,0.5,0.3,"[3,1,2]",0.208062291,stimuli/card_0_transparent.png,0,5,0,5,0,1,,,,,,,,,,
,,,,65f84a674dc27b8856a6086a,B,2024-06-22_00h30.36.356,Slot Machine Game,2023.1.3,Win32,60.24096386,,,,,,,,,,,,,,,,,,,,,,,,,,,410,,,,,,,,,,,,,,,,,,,,,2,5,,,356.7362,6,up,0.0372,,0.5,0.3,"[3,1,2]",0.223098897,stimuli/card_100_transparent.png,100,6,0,6,0,1,,,,,,,,,,
,,,,65f84a674dc27b8856a6086a,B,2024-06-22_00h30.36.356,Slot Machine Game,2023.1.3,Win32,60.24096386,,,,,,,,,,,,,,,,,,,,,,,,,,,510,,,,,,,,,,,,,,,,,,,,,2,5,,,358.1011,7,up,0.2773,,1,0.3,"[3,1,2]",0.409465927,stimuli/card_100_transparent.png,100,7,0,7,0,1,,,,,,,,,,
,,,,65f84a674dc27b8856a6086a,B,2024-06-22_00h30.36.356,Slot Machine Game,2023.1.3,Win32,60.24096386,,,,,,,,,,,,,,,,,,,,,,,,,,,610,,,,,,,,,,,,,,,,,,,,,2,5,,,360.1991,8,up,0.2007,,1,0.3,"[3,1,2]",0.923701404,stimuli/card_100_transparent.png,100,8,0,8,0,1,,,,,,,,,,
,,,,65f84a674dc27b8856a6086a,B,2024-06-22_00h30.36.356,Slot Machine Game,2023.1.3,Win32,60.24096386,,,,,,,,,,,,,,,,,,,,,,,,,,,710,,,,,,,,,,,,,,,,,,,,,2,5,,,362.2297,9,up,0.0022,,1.5,0.3,"[3,1,2]",0.861349318,stimuli/card_100_transparent.png,100,9,0,9,0,1,,,,,,,,,,
,,,,65f84a674dc27b8856a6086a,B,2024-06-22_00h30.36.356,Slot Machine Game,2023.1.3,Win32,60.24096386,,,,,,,,,,,,,,,,,,,,,,,,,,,720,,,,,,,,,,,,,,,,,,,,,2,5,,,364.5615,10,right,0.2366,,0.5,0.3,"[3,1,2]",0.426829898,stimuli/card_10_transparent.png,10,10,0,10,0,1,,,,,,,,,,
,,,,65f84a674dc27b8856a6086a,B,2024-06-22_00h30.36.356,Slot Machine Game,2023.1.3,Win32,60.24096386,,,,,,,,,,,,,,,,,,,,,,,,,,,820,,,,,,,,,,,,,,,,,,,,,2,5,,,366.1261,11,up,0.125,,1.5,0.3,"[3,1,2]",0.939137952,stimuli/card_100_transparent.png,100,11,0,11,0,1,,,,,,,,,,
,,,,65f84a674dc27b8856a6086a,B,2024-06-22_00h30.36.356,Slot Machine Game,2023.1.3,Win32,60.24096386,,,,,,,,,,,,,,,,,,,,,,,,,,,920,,,,,,,,,,,,,,,,,,,,,2,5,,,368.5742,12,up,0.1241,,1,0.3,"[3,1,2]",0.416456219,stimuli/card_100_transparent.png,100,12,0,12,0,1,,,,,,,,,,
,,,,65f84a674dc27b8856a6086a,B,2024-06-22_00h30.36.356,Slot Machine Game,2023.1.3,Win32,60.24096386,,,,,,,,,,,,,,,,,,,,,,,,,,,1020,,,,,,,,,,,,,,,,,,,,,2,5,,,370.5222,13,up,0.1841,,1.5,0.3,"[3,1,2]",0.720606339,stimuli/card_100_transparent.png,100,13,0,13,0,1,,,,,,,,,,
,,,,65f84a674dc27b8856a6086a,B,2024-06-22_00h30.36.356,Slot Machine Game,2023.1.3,Win32,60.24096386,,,,,,,,,,,,,,,,,,,,,,,,,,,1120,,,,,,,,,,,,,,,,,,,,,2,5,,,373.0365,14,up,0.2024,,0.5,0.3,"[3,1,2]",0.95325654,stimuli/card_100_transparent.png,100,14,0,14,0,1,,,,,,,,,,
,,,,65f84a674dc27b8856a6086a,B,2024-06-22_00h30.36.356,Slot Machine Game,2023.1.3,Win32,60.24096386,,,,,,,,,,,,,,,,,,,,,,,,,,,,,,,,,,,374.5686,,,,,,,,,,,,,,,,,,,,,,,,,,,,,,,,,"[940,1120]",1,0,1,0,1,,,,
,,,,65f84a674dc27b8856a6086a,B,2024-06-22_00h30.36.356,Slot Machine Game,2023.1.3,Win32,60.24096386,,,,,,,,,,,,,,,,,,,,,,,,,,,10,,,,,,,,,,,,,,,,,,,,,3,9,"[8,15]","[[3,2,1],[3,1,2]]",379.6034,0,up,0.1541,,1,0.3,"[3,2,1]",0.737757061,stimuli/card_10_transparent.png,10,0,0,0,0,1,,,,,,,,,,
,,,,65f84a674dc27b8856a6086a,B,2024-06-22_00h30.36.356,Slot Machine Game,2023.1.3,Win32,60.24096386,,,,,,,,,,,,,,,,,,,,,,,,,,,110,,,,,,,,,,,,,,,,,,,,,3,9,,,381.5769,1,right,0.2013,,1.5,0.3,"[3,2,1]",0.3678949,stimuli/card_100_transparent.png,100,1,0,1,0,1,,,,,,,,,,
,,,,65f84a674dc27b8856a6086a,B,2024-06-22_00h30.36.356,Slot Machine Game,2023.1.3,Win32,60.24096386,,,,,,,,,,,,,,,,,,,,,,,,,,,210,,,,,,,,,,,,,,,,,,,,,3,9,,,384.1078,2,right,0.2842,,0.5,0.3,"[3,2,1]",0.601523869,stimuli/card_100_transparent.png,100,2,0,2,0,1,,,,,,,,,,
,,,,65f84a674dc27b8856a6086a,B,2024-06-22_00h30.36.356,Slot Machine Game,2023.1.3,Win32,60.24096386,,,,,,,,,,,,,,,,,,,,,,,,,,,310,,,,,,,,,,,,,,,,,,,,,3,9,,,385.7257,3,right,0.1167,,1,0.3,"[3,2,1]",0.287845159,stimuli/card_100_transparent.png,100,3,0,3,0,1,,,,,,,,,,
,,,,65f84a674dc27b8856a6086a,B,2024-06-22_00h30.36.356,Slot Machine Game,2023.1.3,Win32,60.24096386,,,,,,,,,,,,,,,,,,,,,,,,,,,410,,,,,,,,,,,,,,,,,,,,,3,9,,,387.6719,4,right,0.2184,,1.5,0.3,"[3,2,1]",0.95975261,stimuli/card_100_transparent.png,100,4,0,4,0,1,,,,,,,,,,
,,,,65f84a674dc27b8856a6086a,B,2024-06-22_00h30.36.356,Slot Machine Game,2023.1.3,Win32,60.24096386,,,,,,,,,,,,,,,,,,,,,,,,,,,510,,,,,,,,,,,,,,,,,,,,,3,9,,,390.2196,5,right,0.0503,,1,0.3,"[3,2,1]",0.94755202,stimuli/card_100_transparent.png,100,5,0,5,0,1,,,,,,,,,,
,,,,65f84a674dc27b8856a6086a,B,2024-06-22_00h30.36.356,Slot Machine Game,2023.1.3,Win32,60.24096386,,,,,,,,,,,,,,,,,,,,,,,,,,,610,,,,,,,,,,,,,,,,,,,,,3,9,,,392.1013,6,right,0.2009,,1.5,0.3,"[3,2,1]",0.917529436,stimuli/card_100_transparent.png,100,6,0,6,0,1,,,,,,,,,,
,,,,65f84a674dc27b8856a6086a,B,2024-06-22_00h30.36.356,Slot Machine Game,2023.1.3,Win32,60.24096386,,,,,,,,,,,,,,,,,,,,,,,,,,,710,,,,,,,,,,,,,,,,,,,,,3,9,,,394.6311,7,right,0.1194,,0.5,0.3,"[3,2,1]",0.679673245,stimuli/card_100_transparent.png,100,7,0,7,0,1,,,,,,,,,,
,,,,65f84a674dc27b8856a6086a,B,2024-06-22_00h30.36.356,Slot Machine Game,2023.1.3,Win32,60.24096386,,,,,,,,,,,,,,,,,,,,,,,,,,,720,,,,,,,,,,,,,,,,,,,,,3,9,,,396.0794,8,right,0.0068,,1.5,0.3,"[3,1,2]",0.215636301,stimuli/card_10_transparent.png,10,8,0,8,0,1,,,,,,,,,,
,,,,65f84a674dc27b8856a6086a,B,2024-06-22_00h30.36.356,Slot Machine Game,2023.1.3,Win32,60.24096386,,,,,,,,,,,,,,,,,,,,,,,,,,,730,,,,,,,,,,,,,,,,,,,,,3,9,,,398.4105,9,right,0.1336,,1,0.3,"[3,1,2]",0.257079843,stimuli/card_10_transparent.png,10,9,0,9,0,1,,,,,,,,,,
,,,,65f84a674dc27b8856a6086a,B,2024-06-22_00h30.36.356,Slot Machine Game,2023.1.3,Win32,60.24096386,,,,,,,,,,,,,,,,,,,,,,,,,,,740,,,,,,,,,,,,,,,,,,,,,3,9,,,400.3754,10,right,0.056,,1.5,0.3,"[3,1,2]",0.557752546,stimuli/card_10_transparent.png,10,10,0,10,0,1,,,,,,,,,,
,,,,65f84a674dc27b8856a6086a,B,2024-06-22_00h30.36.356,Slot Machine Game,2023.1.3,Win32,60.24096386,,,,,,,,,,,,,,,,,,,,,,,,,,,740,,,,,,,,,,,,,,,,,,,,,3,9,,,402.7566,11,left,0.2351,,1.5,0.3,"[3,1,2]",0.709151248,stimuli/card_0_transparent.png,0,11,0,11,0,1,,,,,,,,,,
,,,,65f84a674dc27b8856a6086a,B,2024-06-22_00h30.36.356,Slot Machine Game,2023.1.3,Win32,60.24096386,,,,,,,,,,,,,,,,,,,,,,,,,,,840,,,,,,,,,,,,,,,,,,,,,3,9,,,405.3295,12,up,0.1849,,1,0.3,"[3,1,2]",0.49188526,stimuli/card_100_transparent.png,100,12,0,12,0,1,,,,,,,,,,
,,,,65f84a674dc27b8856a6086a,B,2024-06-22_00h30.36.356,Slot Machine Game,2023.1.3,Win32,60.24096386,,,,,,,,,,,,,,,,,,,,,,,,,,,940,,,,,,,,,,,,,,,,,,,,,3,9,,,407.3353,13,up,0.0507,,1.5,0.3,"[3,1,2]",0.272905097,stimuli/card_100_transparent.png,100,13,0,13,0,1,,,,,,,,,,
,,,,65f84a674dc27b8856a6086a,B,2024-06-22_00h30.36.356,Slot Machine Game,2023.1.3,Win32,60.24096386,,,,,,,,,,,,,,,,,,,,,,,,,,,1040,,,,,,,,,,,,,,,,,,,,,3,9,,,409.7068,14,up,0.0019,,1,0.3,"[3,1,2]",0.528334332,stimuli/card_100_transparent.png,100,14,0,14,0,1,,,,,,,,,,
,,,,65f84a674dc27b8856a6086a,B,2024-06-22_00h30.36.356,Slot Machine Game,2023.1.3,Win32,60.24096386,,,,,,,,,,,,,,,,,,,,,,,,,,,,,,,,,,,411.5237,,,,,,,,,,,,,,,,,,,,,,,,,,,,,,,,,"[940,1120,1040]",2,0,2,0,1,,,,
,,,,65f84a674dc27b8856a6086a,B,2024-06-22_00h30.36.356,Slot Machine Game,2023.1.3,Win32,60.24096386,,,,,,,,,,,,,,,,,,,,,,,,,,,100,,,,,,,,,,,,,,,,,,,,,4,1,"[12,15]","[[2,1,3],[2,3,1]]",416.5613,0,up,0.1522,,1.5,0.3,"[2,1,3]",0.24121421,stimuli/card_100_transparent.png,100,0,0,0,0,1,,,,,,,,,,
,,,,65f84a674dc27b8856a6086a,B,2024-06-22_00h30.36.356,Slot Machine Game,2023.1.3,Win32,60.24096386,,,,,,,,,,,,,,,,,,,,,,,,,,,100,,,,,,,,,,,,,,,,,,,,,4,1,,,419.025,1,left,0.1934,,0.5,0.3,"[2,1,3]",0.091724283,stimuli/card_0_transparent.png,0,1,0,1,0,1,,,,,,,,,,
,,,,65f84a674dc27b8856a6086a,B,2024-06-22_00h30.36.356,Slot Machine Game,2023.1.3,Win32,60.24096386,,,,,,,,,,,,,,,,,,,,,,,,,,,200,,,,,,,,,,,,,,,,,,,,,4,1,,,420.5398,2,up,0.1431,,1.5,0.3,"[2,1,3]",0.823952493,stimuli/card_100_transparent.png,100,2,0,2,0,1,,,,,,,,,,
,,,,65f84a674dc27b8856a6086a,B,2024-06-22_00h30.36.356,Slot Machine Game,2023.1.3,Win32,60.24096386,,,,,,,,,,,,,,,,,,,,,,,,,,,210,,,,,,,,,,,,,,,,,,,,,4,1,,,423.0053,3,up,0.2079,,0.5,0.3,"[2,1,3]",0.153002973,stimuli/card_10_transparent.png,10,3,0,3,0,1,,,,,,,,,,
,,,,65f84a674dc27b8856a6086a,B,2024-06-22_00h30.36.356,Slot Machine Game,2023.1.3,Win32,60.24096386,,,,,,,,,,,,,,,,,,,,,,,,,,,310,,,,,,,,,,,,,,,,,,,,,4,1,,,424.536,4,up,0.0556,,1,0.3,"[2,1,3]",0.41225233,stimuli/card_100_transparent.png,100,4,0,4,0,1,,,,,,,,,,
,,,,65f84a674dc27b8856a6086a,B,2024-06-22_00h30.36.356,Slot Machine Game,2023.1.3,Win32,60.24096386,,,,,,,,,,,,,,,,,,,,,,,,,,,410,,,,,,,,,,,,,,,,,,,,,4,1,,,426.4174,5,up,0.1213,,1.5,0.3,"[2,1,3]",0.63232601,stimuli/card_100_transparent.png,100,5,0,5,0,1,,,,,,,,,,
,,,,65f84a674dc27b8856a6086a,B,2024-06-22_00h30.36.356,Slot Machine Game,2023.1.3,Win32,60.24096386,,,,,,,,,,,,,,,,,,,,,,,,,,,510,,,,,,,,,,,,,,,,,,,,,4,1,,,428.865,6,up,0.2677,,1,0.3,"[2,1,3]",0.352272691,stimuli/card_100_transparent.png,100,6,0,6,0,1,,,,,,,,,,
,,,,65f84a674dc27b8856a6086a,B,2024-06-22_00h30.36.356,Slot Machine Game,2023.1.3,Win32,60.24096386,,,,,,,,,,,,,,,,,,,,,,,,,,,510,,,,,,,,,,,,,,,,,,,,,4,1,,,430.9629,7,up,0.0685,,0.5,0.3,"[2,1,3]",0.057873419,stimuli/card_0_transparent.png,0,7,0,7,0,1,,,,,,,,,,
,,,,65f84a674dc27b8856a6086a,B,2024-06-22_00h30.36.356,Slot Machine Game,2023.1.3,Win32,60.24096386,,,,,,,,,,,,,,,,,,,,,,,,,,,610,,,,,,,,,,,,,,,,,,,,,4,1,,,432.3616,8,right,0.3195,,1.5,0.3,"[2,1,3]",0.034146878,stimuli/card_100_transparent.png,100,8,0,8,0,1,,,,,,,,,,
,,,,65f84a674dc27b8856a6086a,B,2024-06-22_00h30.36.356,Slot Machine Game,2023.1.3,Win32,60.24096386,,,,,,,,,,,,,,,,,,,,,,,,,,,610,,,,,,,,,,,,,,,,,,,,,4,1,,,435.009,9,right,0.0677,,0.5,0.3,"[2,1,3]",0.366923578,stimuli/card_0_transparent.png,0,9,0,9,0,1,,,,,,,,,,
,,,,65f84a674dc27b8856a6086a,B,2024-06-22_00h30.36.356,Slot Machine Game,2023.1.3,Win32,60.24096386,,,,,,,,,,,,,,,,,,,,,,,,,,,610,,,,,,,,,,,,,,,,,,,,,4,1,,,436.4072,10,up,0.0514,,1.5,0.3,"[2,1,3]",0.032340139,stimuli/card_0_transparent.png,0,10,0,10,0,1,,,,,,,,,,
,,,,65f84a674dc27b8856a6086a,B,2024-06-22_00h30.36.356,Slot Machine Game,2023.1.3,Win32,60.24096386,,,,,,,,,,,,,,,,,,,,,,,,,,,710,,,,,,,,,,,,,,,,,,,,,4,1,,,438.7887,11,left,0.1177,,1.5,0.3,"[2,1,3]",0.167651726,stimuli/card_100_transparent.png,100,11,0,11,0,1,,,,,,,,,,
,,,,65f84a674dc27b8856a6086a,B,2024-06-22_00h30.36.356,Slot Machine Game,2023.1.3,Win32,60.24096386,,,,,,,,,,,,,,,,,,,,,,,,,,,720,,,,,,,,,,,,,,,,,,,,,4,1,,,441.2362,12,left,0.0021,,1.5,0.3,"[2,3,1]",0.527946961,stimuli/card_10_transparent.png,10,12,0,12,0,1,,,,,,,,,,
,,,,65f84a674dc27b8856a6086a,B,2024-06-22_00h30.36.356,Slot Machine Game,2023.1.3,Win32,60.24096386,,,,,,,,,,,,,,,,,,,,,,,,,,,820,,,,,,,,,,,,,,,,,,,,,4,1,,,443.5671,13,right,0.1344,,1,0.3,"[2,3,1]",0.721244168,stimuli/card_100_transparent.png,100,13,0,13,0,1,,,,,,,,,,
,,,,65f84a674dc27b8856a6086a,B,2024-06-22_00h30.36.356,Slot Machine Game,2023.1.3,Win32,60.24096386,,,,,,,,,,,,,,,,,,,,,,,,,,,920,,,,,,,,,,,,,,,,,,,,,4,1,,,445.5325,14,right,0.1057,,1.5,0.3,"[2,3,1]",0.944185448,stimuli/card_100_transparent.png,100,14,0,14,0,1,,,,,,,,,,
,,,,65f84a674dc27b8856a6086a,B,2024-06-22_00h30.36.356,Slot Machine Game,2023.1.3,Win32,60.24096386,,,,,,,,,,,,,,,,,,,,,,,,,,,,,,,,,,,447.9629,,,,,,,,,,,,,,,,,,,,,,,,,,,,,,,,,"[940,1120,1040,920]",3,0,3,0,1,,,,
,,,,65f84a674dc27b8856a6086a,B,2024-06-22_00h30.36.356,Slot Machine Game,2023.1.3,Win32,60.24096386,,,,,,,,,,,,,,,,,,,,,,,,,,,0,,,,,,,,,,,,,,,,,,,,,5,2,"[6,15]","[[1,3,2],[3,2,1]]",452.9949,0,up,1.0508,,1,0.3,"[1,3,2]",0.958552543,stimuli/card_0_transparent.png,0,0,0,0,0,1,,,,,,,,,,
,,,,65f84a674dc27b8856a6086a,B,2024-06-22_00h30.36.356,Slot Machine Game,2023.1.3,Win32,60.24096386,,,,,,,,,,,,,,,,,,,,,,,,,,,10,,,,,,,,,,,,,,,,,,,,,5,2,,,455.8707,1,right,0.1882,,0.5,0.3,"[1,3,2]",0.421697443,stimuli/card_10_transparent.png,10,1,0,1,0,1,,,,,,,,,,
,,,,65f84a674dc27b8856a6086a,B,2024-06-22_00h30.36.356,Slot Machine Game,2023.1.3,Win32,60.24096386,,,,,,,,,,,,,,,,,,,,,,,,,,,110,,,,,,,,,,,,,,,,,,,,,5,2,,,457.3791,2,right,0.0192,,1,0.3,"[1,3,2]",0.151637425,stimuli/card_100_transparent.png,100,2,0,2,0,1,,,,,,,,,,
,,,,65f84a674dc27b8856a6086a,B,2024-06-22_00h30.36.356,Slot Machine Game,2023.1.3,Win32,60.24096386,,,,,,,,,,,,,,,,,,,,,,,,,,,120,,,,,,,,,,,,,,,,,,,,,5,2,,,459.2187,3,right,0.1013,,0.5,0.3,"[1,3,2]",0.814075344,stimuli/card_10_transparent.png,10,3,0,3,0,1,,,,,,,,,,
,,,,65f84a674dc27b8856a6086a,B,2024-06-22_00h30.36.356,Slot Machine Game,2023.1.3,Win32,60.24096386,,,,,,,,,,,,,,,,,,,,,,,,,,,120,,,,,,,,,,,,,,,,,,,,,5,2,,,460.6508,4,right,0.2686,,1.5,0.3,"[1,3,2]",0.053303057,stimuli/card_0_transparent.png,0,4,0,4,0,1,,,,,,,,,,
,,,,65f84a674dc27b8856a6086a,B,2024-06-22_00h30.36.356,Slot Machine Game,2023.1.3,Win32,60.24096386,,,,,,,,,,,,,,,,,,,,,,,,,,,220,,,,,,,,,,,,,,,,,,,,,5,2,,,463.2483,5,left,0.1677,,0.5,0.3,"[1,3,2]",0.354332974,stimuli/card_100_transparent.png,100,5,0,5,0,1,,,,,,,,,,
,,,,65f84a674dc27b8856a6086a,B,2024-06-22_00h30.36.356,Slot Machine Game,2023.1.3,Win32,60.24096386,,,,,,,,,,,,,,,,,,,,,,,,,,,220,,,,,,,,,,,,,,,,,,,,,5,2,,,464.7465,6,left,0.3009,,1,0.3,"[3,2,1]",0.436373792,stimuli/card_0_transparent.png,0,6,0,6,0,1,,,,,,,,,,
,,,,65f84a674dc27b8856a6086a,B,2024-06-22_00h30.36.356,Slot Machine Game,2023.1.3,Win32,60.24096386,,,,,,,,,,,,,,,,,,,,,,,,,,,230,,,,,,,,,,,,,,,,,,,,,5,2,,,466.8785,7,up,0.0513,,1,0.3,"[3,2,1]",0.812517858,stimuli/card_10_transparent.png,10,7,0,7,0,1,,,,,,,,,,
,,,,65f84a674dc27b8856a6086a,B,2024-06-22_00h30.36.356,Slot Machine Game,2023.1.3,Win32,60.24096386,,,,,,,,,,,,,,,,,,,,,,,,,,,240,,,,,,,,,,,,,,,,,,,,,5,2,,,468.7594,8,up,0.2851,,1.5,0.3,"[3,2,1]",0.812936647,stimuli/card_10_transparent.png,10,8,0,8,0,1,,,,,,,,,,
,,,,65f84a674dc27b8856a6086a,B,2024-06-22_00h30.36.356,Slot Machine Game,2023.1.3,Win32,60.24096386,,,,,,,,,,,,,,,,,,,,,,,,,,,240,,,,,,,,,,,,,,,,,,,,,5,2,,,471.3733,9,left,0.0011,,1,0.3,"[3,2,1]",0.431104411,stimuli/card_0_transparent.png,0,9,0,9,0,1,,,,,,,,,,
,,,,65f84a674dc27b8856a6086a,B,2024-06-22_00h30.36.356,Slot Machine Game,2023.1.3,Win32,60.24096386,,,,,,,,,,,,,,,,,,,,,,,,,,,340,,,,,,,,,,,,,,,,,,,,,5,2,,,473.2049,10,up,0.1228,,0.5,0.3,"[3,2,1]",0.147959741,stimuli/card_100_transparent.png,100,10,0,10,0,1,,,,,,,,,,
,,,,65f84a674dc27b8856a6086a,B,2024-06-22_00h30.36.356,Slot Machine Game,2023.1.3,Win32,60.24096386,,,,,,,,,,,,,,,,,,,,,,,,,,,350,,,,,,,,,,,,,,,,,,,,,5,2,,,474.6525,11,up,0.1842,,1.5,0.3,"[3,2,1]",0.275332404,stimuli/card_10_transparent.png,10,11,0,11,0,1,,,,,,,,,,
,,,,65f84a674dc27b8856a6086a,B,2024-06-22_00h30.36.356,Slot Machine Game,2023.1.3,Win32,60.24096386,,,,,,,,,,,,,,,,,,,,,,,,,,,450,,,,,,,,,,,,,,,,,,,,,5,2,,,477.1497,12,right,0.1346,,0.5,0.3,"[3,2,1]",0.707399564,stimuli/card_100_transparent.png,100,12,0,12,0,1,,,,,,,,,,
,,,,65f84a674dc27b8856a6086a,B,2024-06-22_00h30.36.356,Slot Machine Game,2023.1.3,Win32,60.24096386,,,,,,,,,,,,,,,,,,,,,,,,,,,550,,,,,,,,,,,,,,,,,,,,,5,2,,,478.5999,13,right,0.1847,,0.5,0.3,"[3,2,1]",0.822308457,stimuli/card_100_transparent.png,100,13,0,13,0,1,,,,,,,,,,
,,,,65f84a674dc27b8856a6086a,B,2024-06-22_00h30.36.356,Slot Machine Game,2023.1.3,Win32,60.24096386,,,,,,,,,,,,,,,,,,,,,,,,,,,560,,,,,,,,,,,,,,,,,,,,,5,2,,,480.1147,14,right,0.1346,,1,0.3,"[3,2,1]",0.199722325,stimuli/card_10_transparent.png,10,14,0,14,0,1,,,,,,,,,,
,,,,65f84a674dc27b8856a6086a,B,2024-06-22_00h30.36.356,Slot Machine Game,2023.1.3,Win32,60.24096386,,,,,,,,,,,,,,,,,,,,,,,,,,,,,,,,,,,482.0792,,,,,,,,,,,,,,,,,,,,,,,,,,,,,,,,,"[940,1120,1040,920,560]",4,0,4,0,1,,,,
,,,,65f84a674dc27b8856a6086a,B,2024-06-22_00h30.36.356,Slot Machine Game,2023.1.3,Win32,60.24096386,,,,,,,,,,,,,,,,,,,,,,,,,,,0,,,,,,,,,,,,,,,,,,,,,6,4,"[7,15]","[[2,3,1],[1,2,3]]",487.1205,0,up,0.148,,1.5,0.3,"[2,3,1]",0.346775365,stimuli/card_0_transparent.png,0,0,0,0,0,1,,,,,,,,,,
,,,,65f84a674dc27b8856a6086a,B,2024-06-22_00h30.36.356,Slot Machine Game,2023.1.3,Win32,60.24096386,,,,,,,,,,,,,,,,,,,,,,,,,,,0,,,,,,,,,,,,,,,,,,,,,6,4,,,489.5801,1,up,0.4351,,0.5,0.3,"[2,3,1]",0.241288938,stimuli/card_0_transparent.png,0,1,0,1,0,1,,,,,,,,,,
,,,,65f84a674dc27b8856a6086a,B,2024-06-22_00h30.36.356,Slot Machine Game,2023.1.3,Win32,60.24096386,,,,,,,,,,,,,,,,,,,,,,,,,,,100,,,,,,,,,,,,,,,,,,,,,6,4,,,491.3296,2,right,0.2491,,1,0.3,"[2,3,1]",0.426506311,stimuli/card_100_transparent.png,100,2,0,2,0,1,,,,,,,,,,
,,,,65f84a674dc27b8856a6086a,B,2024-06-22_00h30.36.356,Slot Machine Game,2023.1.3,Win32,60.24096386,,,,,,,,,,,,,,,,,,,,,,,,,,,200,,,,,,,,,,,,,,,,,,,,,6,4,,,493.4012,3,right,0.0518,,1.5,0.3,"[2,3,1]",0.665743001,stimuli/card_100_transparent.png,100,3,0,3,0,1,,,,,,,,,,
,,,,65f84a674dc27b8856a6086a,B,2024-06-22_00h30.36.356,Slot Machine Game,2023.1.3,Win32,60.24096386,,,,,,,,,,,,,,,,,,,,,,,,,,,210,,,,,,,,,,,,,,,,,,,,,6,4,,,495.7818,4,left,0.4348,,1,0.3,"[2,3,1]",0.896533464,stimuli/card_10_transparent.png,10,4,0,4,0,1,,,,,,,,,,
,,,,65f84a674dc27b8856a6086a,B,2024-06-22_00h30.36.356,Slot Machine Game,2023.1.3,Win32,60.24096386,,,,,,,,,,,,,,,,,,,,,,,,,,,220,,,,,,,,,,,,,,,,,,,,,6,4,,,498.0297,5,left,0.2515,,1.5,0.3,"[2,3,1]",0.388666897,stimuli/card_10_transparent.png,10,5,0,5,0,1,,,,,,,,,,
,,,,65f84a674dc27b8856a6086a,B,2024-06-22_00h30.36.356,Slot Machine Game,2023.1.3,Win32,60.24096386,,,,,,,,,,,,,,,,,,,,,,,,,,,220,,,,,,,,,,,,,,,,,,,,,6,4,,,500.6103,6,up,0.118,,1.5,0.3,"[2,3,1]",0.434197305,stimuli/card_0_transparent.png,0,6,0,6,0,1,,,,,,,,,,
,,,,65f84a674dc27b8856a6086a,B,2024-06-22_00h30.36.356,Slot Machine Game,2023.1.3,Win32,60.24096386,,,,,,,,,,,,,,,,,,,,,,,,,,,220,,,,,,,,,,,,,,,,,,,,,6,4,,,503.058,7,right,0.0242,,1.5,0.3,"[1,2,3]",0.267150992,stimuli/card_0_transparent.png,0,7,0,7,0,1,,,,,,,,,,
,,,,65f84a674dc27b8856a6086a,B,2024-06-22_00h30.36.356,Slot Machine Game,2023.1.3,Win32,60.24096386,,,,,,,,,,,,,,,,,,,,,,,,,,,230,,,,,,,,,,,,,,,,,,,,,6,4,,,505.4059,8,left,0.3015,,0.5,0.3,"[1,2,3]",0.191175972,stimuli/card_10_transparent.png,10,8,0,8,0,1,,,,,,,,,,
,,,,65f84a674dc27b8856a6086a,B,2024-06-22_00h30.36.356,Slot Machine Game,2023.1.3,Win32,60.24096386,,,,,,,,,,,,,,,,,,,,,,,,,,,240,,,,,,,,,,,,,,,,,,,,,6,4,,,507.0298,9,up,0.8852,,0.5,0.3,"[1,2,3]",0.497667108,stimuli/card_10_transparent.png,10,9,0,9,0,1,,,,,,,,,,
,,,,65f84a674dc27b8856a6086a,B,2024-06-22_00h30.36.356,Slot Machine Game,2023.1.3,Win32,60.24096386,,,,,,,,,,,,,,,,,,,,,,,,,,,250,,,,,,,,,,,,,,,,,,,,,6,4,,,509.2531,10,up,0.2155,,1.5,0.3,"[1,2,3]",0.66259232,stimuli/card_10_transparent.png,10,10,0,10,0,1,,,,,,,,,,
,,,,65f84a674dc27b8856a6086a,B,2024-06-22_00h30.36.356,Slot Machine Game,2023.1.3,Win32,60.24096386,,,,,,,,,,,,,,,,,,,,,,,,,,,260,,,,,,,,,,,,,,,,,,,,,6,4,,,511.7839,11,up,0.0098,,1.5,0.3,"[1,2,3]",0.31482506,stimuli/card_10_transparent.png,10,11,0,11,0,1,,,,,,,,,,
,,,,65f84a674dc27b8856a6086a,B,2024-06-22_00h30.36.356,Slot Machine Game,2023.1.3,Win32,60.24096386,,,,,,,,,,,,,,,,,,,,,,,,,,,360,,,,,,,,,,,,,,,,,,,,,6,4,,,514.1148,12,left,0.3175,,0.5,0.3,"[1,2,3]",0.652063454,stimuli/card_100_transparent.png,100,12,0,12,0,1,,,,,,,,,,
,,,,65f84a674dc27b8856a6086a,B,2024-06-22_00h30.36.356,Slot Machine Game,2023.1.3,Win32,60.24096386,,,,,,,,,,,,,,,,,,,,,,,,,,,460,,,,,,,,,,,,,,,,,,,,,6,4,,,515.7632,13,left,0.2837,,1,0.3,"[1,2,3]",0.957137938,stimuli/card_100_transparent.png,100,13,0,13,0,1,,,,,,,,,,
,,,,65f84a674dc27b8856a6086a,B,2024-06-22_00h30.36.356,Slot Machine Game,2023.1.3,Win32,60.24096386,,,,,,,,,,,,,,,,,,,,,,,,,,,470,,,,,,,,,,,,,,,,,,,,,6,4,,,517.8777,14,left,0.1869,,0.5,0.3,"[1,2,3]",0.103250347,stimuli/card_10_transparent.png,10,14,0,14,0,1,,,,,,,,,,
,,,,65f84a674dc27b8856a6086a,B,2024-06-22_00h30.36.356,Slot Machine Game,2023.1.3,Win32,60.24096386,,,,,,,,,,,,,,,,,,,,,,,,,,,,,,,,,,,519.3929,,,,,,,,,,,,,,,,,,,,,,,,,,,,,,,,,"[940,1120,1040,920,560,470]",5,0,5,0,1,,,,
,,,,65f84a674dc27b8856a6086a,B,2024-06-22_00h30.36.356,Slot Machine Game,2023.1.3,Win32,60.24096386,,,,,,,,,,,,,,,,,,,,,,,,,,,0,,,,,,,,,,,,,,,,,,,,,7,10,"[10,15]","[[3,1,2],[1,3,2]]",524.4091,0,right,0.1339,,1,0.3,"[3,1,2]",0.047478012,stimuli/card_0_transparent.png,0,0,0,0,0,1,,,,,,,,,,
,,,,65f84a674dc27b8856a6086a,B,2024-06-22_00h30.36.356,Slot Machine Game,2023.1.3,Win32,60.24096386,,,,,,,,,,,,,,,,,,,,,,,,,,,0,,,,,,,,,,,,,,,,,,,,,7,10,,,526.3685,1,left,0.0847,,1.5,0.3,"[3,1,2]",0.764392857,stimuli/card_0_transparent.png,0,1,0,1,0,1,,,,,,,,,,
,,,,65f84a674dc27b8856a6086a,B,2024-06-22_00h30.36.356,Slot Machine Game,2023.1.3,Win32,60.24096386,,,,,,,,,,,,,,,,,,,,,,,,,,,100,,,,,,,,,,,,,,,,,,,,,7,10,,,528.7828,2,up,0.1348,,1.5,0.3,"[3,1,2]",0.338090588,stimuli/card_100_transparent.png,100,2,0,2,0,1,,,,,,,,,,
,,,,65f84a674dc27b8856a6086a,B,2024-06-22_00h30.36.356,Slot Machine Game,2023.1.3,Win32,60.24096386,,,,,,,,,,,,,,,,,,,,,,,,,,,200,,,,,,,,,,,,,,,,,,,,,7,10,,,531.247,3,up,0.0019,,1,0.3,"[3,1,2]",0.467407049,stimuli/card_100_transparent.png,100,3,0,3,0,1,,,,,,,,,,
,,,,65f84a674dc27b8856a6086a,B,2024-06-22_00h30.36.356,Slot Machine Game,2023.1.3,Win32,60.24096386,,,,,,,,,,,,,,,,,,,,,,,,,,,300,,,,,,,,,,,,,,,,,,,,,7,10,,,533.0712,4,up,0.1849,,1,0.3,"[3,1,2]",0.57437342,stimuli/card_100_transparent.png,100,4,0,4,0,1,,,,,,,,,,
,,,,65f84a674dc27b8856a6086a,B,2024-06-22_00h30.36.356,Slot Machine Game,2023.1.3,Win32,60.24096386,,,,,,,,,,,,,,,,,,,,,,,,,,,400,,,,,,,,,,,,,,,,,,,,,7,10,,,535.0765,5,up,0.1507,,1,0.3,"[3,1,2]",0.401829429,stimuli/card_100_transparent.png,100,5,0,5,0,1,,,,,,,,,,
,,,,65f84a674dc27b8856a6086a,B,2024-06-22_00h30.36.356,Slot Machine Game,2023.1.3,Win32,60.24096386,,,,,,,,,,,,,,,,,,,,,,,,,,,500,,,,,,,,,,,,,,,,,,,,,7,10,,,537.0414,6,up,0.2541,,1,0.3,"[3,1,2]",0.893765804,stimuli/card_100_transparent.png,100,6,0,6,0,1,,,,,,,,,,
,,,,65f84a674dc27b8856a6086a,B,2024-06-22_00h30.36.356,Slot Machine Game,2023.1.3,Win32,60.24096386,,,,,,,,,,,,,,,,,,,,,,,,,,,600,,,,,,,,,,,,,,,,,,,,,7,10,,,539.1223,7,up,0.2734,,0.5,0.3,"[3,1,2]",0.320581275,stimuli/card_100_transparent.png,100,7,0,7,0,1,,,,,,,,,,
,,,,65f84a674dc27b8856a6086a,B,2024-06-22_00h30.36.356,Slot Machine Game,2023.1.3,Win32,60.24096386,,,,,,,,,,,,,,,,,,,,,,,,,,,700,,,,,,,,,,,,,,,,,,,,,7,10,,,540.712,8,up,0.1174,,1.5,0.3,"[3,1,2]",0.637099777,stimuli/card_100_transparent.png,100,8,0,8,0,1,,,,,,,,,,
,,,,65f84a674dc27b8856a6086a,B,2024-06-22_00h30.36.356,Slot Machine Game,2023.1.3,Win32,60.24096386,,,,,,,,,,,,,,,,,,,,,,,,,,,800,,,,,,,,,,,,,,,,,,,,,7,10,,,543.1427,9,up,0.0694,,1,0.3,"[3,1,2]",0.711320825,stimuli/card_100_transparent.png,100,9,0,9,0,1,,,,,,,,,,
,,,,65f84a674dc27b8856a6086a,B,2024-06-22_00h30.36.356,Slot Machine Game,2023.1.3,Win32,60.24096386,,,,,,,,,,,,,,,,,,,,,,,,,,,810,,,,,,,,,,,,,,,,,,,,,7,10,,,545.0329,10,up,0.0842,,0.5,0.3,"[1,3,2]",0.176670638,stimuli/card_10_transparent.png,10,10,0,10,0,1,,,,,,,,,,
,,,,65f84a674dc27b8856a6086a,B,2024-06-22_00h30.36.356,Slot Machine Game,2023.1.3,Win32,60.24096386,,,,,,,,,,,,,,,,,,,,,,,,,,,820,,,,,,,,,,,,,,,,,,,,,7,10,,,546.4478,11,up,0.2542,,1.5,0.3,"[1,3,2]",0.131907697,stimuli/card_10_transparent.png,10,11,0,11,0,1,,,,,,,,,,
,,,,65f84a674dc27b8856a6086a,B,2024-06-22_00h30.36.356,Slot Machine Game,2023.1.3,Win32,60.24096386,,,,,,,,,,,,,,,,,,,,,,,,,,,830,,,,,,,,,,,,,,,,,,,,,7,10,,,549.0129,12,up,0.3064,,1,0.3,"[1,3,2]",0.147596426,stimuli/card_10_transparent.png,10,12,0,12,0,1,,,,,,,,,,
,,,,65f84a674dc27b8856a6086a,B,2024-06-22_00h30.36.356,Slot Machine Game,2023.1.3,Win32,60.24096386,,,,,,,,,,,,,,,,,,,,,,,,,,,830,,,,,,,,,,,,,,,,,,,,,7,10,,,551.1433,13,left,0.1018,,0.5,0.3,"[1,3,2]",0.035665878,stimuli/card_0_transparent.png,0,13,0,13,0,1,,,,,,,,,,
,,,,65f84a674dc27b8856a6086a,B,2024-06-22_00h30.36.356,Slot Machine Game,2023.1.3,Win32,60.24096386,,,,,,,,,,,,,,,,,,,,,,,,,,,840,,,,,,,,,,,,,,,,,,,,,7,10,,,552.5751,14,right,0.6481,,1.5,0.3,"[1,3,2]",0.97816432,stimuli/card_10_transparent.png,10,14,0,14,0,1,,,,,,,,,,
,,,,65f84a674dc27b8856a6086a,B,2024-06-22_00h30.36.356,Slot Machine Game,2023.1.3,Win32,60.24096386,,,,,,,,,,,,,,,,,,,,,,,,,,,,,,,,,,,555.54,,,,,,,,,,,,,,,,,,,,,,,,,,,,,,,,,"[940,1120,1040,920,560,470,840]",6,0,6,0,1,,,,
,,,,65f84a674dc27b8856a6086a,B,2024-06-22_00h30.36.356,Slot Machine Game,2023.1.3,Win32,60.24096386,,,,,,,,,,,,,,,,,,,,,,,,,,,0,,,,,,,,,,,,,,,,,,,,,8,7,"[9,15]","[[1,3,2],[2,3,1]]",560.5824,0,up,3.6689,,1,0.3,"[1,3,2]",0.798512251,stimuli/card_0_transparent.png,0,0,0,0,0,1,,,,,,,,,,
,,,,65f84a674dc27b8856a6086a,B,2024-06-22_00h30.36.356,Slot Machine Game,2023.1.3,Win32,60.24096386,,,,,,,,,,,,,,,,,,,,,,,,,,,100,,,,,,,,,,,,,,,,,,,,,8,7,,,566.0807,1,left,0.1677,,1,0.3,"[1,3,2]",0.414509393,stimuli/card_100_transparent.png,100,1,0,1,0,1,,,,,,,,,,
,,,,65f84a674dc27b8856a6086a,B,2024-06-22_00h30.36.356,Slot Machine Game,2023.1.3,Win32,60.24096386,,,,,,,,,,,,,,,,,,,,,,,,,,,200,,,,,,,,,,,,,,,,,,,,,8,7,,,568.0789,2,left,0.2023,,1,0.3,"[1,3,2]",0.905092339,stimuli/card_100_transparent.png,100,2,0,2,0,1,,,,,,,,,,
,,,,65f84a674dc27b8856a6086a,B,2024-06-22_00h30.36.356,Slot Machine Game,2023.1.3,Win32,60.24096386,,,,,,,,,,,,,,,,,,,,,,,,,,,300,,,,,,,,,,,,,,,,,,,,,8,7,,,570.1107,3,left,0.3214,,1.5,0.3,"[1,3,2]",0.55127128,stimuli/card_100_transparent.png,100,3,0,3,0,1,,,,,,,,,,
,,,,65f84a674dc27b8856a6086a,B,2024-06-22_00h30.36.356,Slot Machine Game,2023.1.3,Win32,60.24096386,,,,,,,,,,,,,,,,,,,,,,,,,,,400,,,,,,,,,,,,,,,,,,,,,8,7,,,572.7562,4,left,0.3998,,1.5,0.3,"[1,3,2]",0.232940481,stimuli/card_100_transparent.png,100,4,0,4,0,1,,,,,,,,,,
,,,,65f84a674dc27b8856a6086a,B,2024-06-22_00h30.36.356,Slot Machine Game,2023.1.3,Win32,60.24096386,,,,,,,,,,,,,,,,,,,,,,,,,,,500,,,,,,,,,,,,,,,,,,,,,8,7,,,575.4713,5,left,0.0675,,1,0.3,"[1,3,2]",0.971476476,stimuli/card_100_transparent.png,100,5,0,5,0,1,,,,,,,,,,
,,,,65f84a674dc27b8856a6086a,B,2024-06-22_00h30.36.356,Slot Machine Game,2023.1.3,Win32,60.24096386,,,,,,,,,,,,,,,,,,,,,,,,,,,600,,,,,,,,,,,,,,,,,,,,,8,7,,,577.3686,6,left,0.0843,,0.5,0.3,"[1,3,2]",0.221078149,stimuli/card_100_transparent.png,100,6,0,6,0,1,,,,,,,,,,
,,,,65f84a674dc27b8856a6086a,B,2024-06-22_00h30.36.356,Slot Machine Game,2023.1.3,Win32,60.24096386,,,,,,,,,,,,,,,,,,,,,,,,,,,700,,,,,,,,,,,,,,,,,,,,,8,7,,,578.768,7,left,0.1014,,1,0.3,"[1,3,2]",0.794181771,stimuli/card_100_transparent.png,100,7,0,7,0,1,,,,,,,,,,
,,,,65f84a674dc27b8856a6086a,B,2024-06-22_00h30.36.356,Slot Machine Game,2023.1.3,Win32,60.24096386,,,,,,,,,,,,,,,,,,,,,,,,,,,800,,,,,,,,,,,,,,,,,,,,,8,7,,,580.6998,8,left,0.4338,,0.5,0.3,"[1,3,2]",0.385381884,stimuli/card_100_transparent.png,100,8,0,8,0,1,,,,,,,,,,
,,,,65f84a674dc27b8856a6086a,B,2024-06-22_00h30.36.356,Slot Machine Game,2023.1.3,Win32,60.24096386,,,,,,,,,,,,,,,,,,,,,,,,,,,810,,,,,,,,,,,,,,,,,,,,,8,7,,,582.4645,9,left,0.3264,,1.5,0.3,"[2,3,1]",0.380888785,stimuli/card_10_transparent.png,10,9,0,9,0,1,,,,,,,,,,
,,,,65f84a674dc27b8856a6086a,B,2024-06-22_00h30.36.356,Slot Machine Game,2023.1.3,Win32,60.24096386,,,,,,,,,,,,,,,,,,,,,,,,,,,910,,,,,,,,,,,,,,,,,,,,,8,7,,,585.1119,10,right,0.1891,,0.5,0.3,"[2,3,1]",0.290379287,stimuli/card_100_transparent.png,100,10,0,10,0,1,,,,,,,,,,
,,,,65f84a674dc27b8856a6086a,B,2024-06-22_00h30.36.356,Slot Machine Game,2023.1.3,Win32,60.24096386,,,,,,,,,,,,,,,,,,,,,,,,,,,910,,,,,,,,,,,,,,,,,,,,,8,7,,,586.6271,11,right,0.1758,,1.5,0.3,"[2,3,1]",0.061939441,stimuli/card_0_transparent.png,0,11,0,11,0,1,,,,,,,,,,
,,,,65f84a674dc27b8856a6086a,B,2024-06-22_00h30.36.356,Slot Machine Game,2023.1.3,Win32,60.24096386,,,,,,,,,,,,,,,,,,,,,,,,,,,910,,,,,,,,,,,,,,,,,,,,,8,7,,,589.1245,12,up,0.0766,,1.5,0.3,"[2,3,1]",0.511965659,stimuli/card_0_transparent.png,0,12,0,12,0,1,,,,,,,,,,
,,,,65f84a674dc27b8856a6086a,B,2024-06-22_00h30.36.356,Slot Machine Game,2023.1.3,Win32,60.24096386,,,,,,,,,,,,,,,,,,,,,,,,,,,920,,,,,,,,,,,,,,,,,,,,,8,7,,,591.5222,13,left,0.343,,1,0.3,"[2,3,1]",0.539986093,stimuli/card_10_transparent.png,10,13,0,13,0,1,,,,,,,,,,
,,,,65f84a674dc27b8856a6086a,B,2024-06-22_00h30.36.356,Slot Machine Game,2023.1.3,Win32,60.24096386,,,,,,,,,,,,,,,,,,,,,,,,,,,1020,,,,,,,,,,,,,,,,,,,,,8,7,,,593.6868,14,right,0.0556,,1,0.3,"[2,3,1]",0.922487862,stimuli/card_100_transparent.png,100,14,0,14,0,1,,,,,,,,,,
,,,,65f84a674dc27b8856a6086a,B,2024-06-22_00h30.36.356,Slot Machine Game,2023.1.3,Win32,60.24096386,,,,,,,,,,,,,,,,,,,,,,,,,,,,,,,,,,,595.5683,,,,,,,,,,,,,,,,,,,,,,,,,,,,,,,,,"[940,1120,1040,920,560,470,840,1020]",7,0,7,0,1,,,,
,,,,65f84a674dc27b8856a6086a,B,2024-06-22_00h30.36.356,Slot Machine Game,2023.1.3,Win32,60.24096386,,,,,,,,,,,,,,,,,,,,,,,,,,,100,,,,,,,,,,,,,,,,,,,,,9,9,[15],"[[3,1,2]]",600.6056,0,up,0.4506,,1.5,0.3,"[3,1,2]",0.257468494,stimuli/card_100_transparent.png,100,0,0,0,0,1,,,,,,,,,,
,,,,65f84a674dc27b8856a6086a,B,2024-06-22_00h30.36.356,Slot Machine Game,2023.1.3,Win32,60.24096386,,,,,,,,,,,,,,,,,,,,,,,,,,,200,,,,,,,,,,,,,,,,,,,,,9,9,,,603.3757,1,up,0.0171,,1.5,0.3,"[3,1,2]",0.971310886,stimuli/card_100_transparent.png,100,1,0,1,0,1,,,,,,,,,,
,,,,65f84a674dc27b8856a6086a,B,2024-06-22_00h30.36.356,Slot Machine Game,2023.1.3,Win32,60.24096386,,,,,,,,,,,,,,,,,,,,,,,,,,,300,,,,,,,,,,,,,,,,,,,,,9,9,,,605.7249,2,up,0.3165,,1,0.3,"[3,1,2]",0.396373602,stimuli/card_100_transparent.png,100,2,0,2,0,1,,,,,,,,,,
,,,,65f84a674dc27b8856a6086a,B,2024-06-22_00h30.36.356,Slot Machine Game,2023.1.3,Win32,60.24096386,,,,,,,,,,,,,,,,,,,,,,,,,,,400,,,,,,,,,,,,,,,,,,,,,9,9,,,607.8652,3,up,0.235,,1,0.3,"[3,1,2]",0.771787495,stimuli/card_100_transparent.png,100,3,0,3,0,1,,,,,,,,,,
,,,,65f84a674dc27b8856a6086a,B,2024-06-22_00h30.36.356,Slot Machine Game,2023.1.3,Win32,60.24096386,,,,,,,,,,,,,,,,,,,,,,,,,,,500,,,,,,,,,,,,,,,,,,,,,9,9,,,609.9293,4,up,0.1804,,1,0.3,"[3,1,2]",0.402777342,stimuli/card_100_transparent.png,100,4,0,4,0,1,,,,,,,,,,
,,,,65f84a674dc27b8856a6086a,B,2024-06-22_00h30.36.356,Slot Machine Game,2023.1.3,Win32,60.24096386,,,,,,,,,,,,,,,,,,,,,,,,,,,500,,,,,,,,,,,,,,,,,,,,,9,9,,,611.9361,5,up,0.1265,,1.5,0.3,"[3,1,2]",0.09557768,stimuli/card_0_transparent.png,0,5,0,5,0,1,,,,,,,,,,
,,,,65f84a674dc27b8856a6086a,B,2024-06-22_00h30.36.356,Slot Machine Game,2023.1.3,Win32,60.24096386,,,,,,,,,,,,,,,,,,,,,,,,,,,510,,,,,,,,,,,,,,,,,,,,,9,9,,,614.3832,6,right,0.301,,1,0.3,"[3,1,2]",0.516759877,stimuli/card_10_transparent.png,10,6,0,6,0,1,,,,,,,,,,
,,,,65f84a674dc27b8856a6086a,B,2024-06-22_00h30.36.356,Slot Machine Game,2023.1.3,Win32,60.24096386,,,,,,,,,,,,,,,,,,,,,,,,,,,610,,,,,,,,,,,,,,,,,,,,,9,9,,,616.5146,7,left,0.1507,,0.5,0.3,"[3,1,2]",0.095526423,stimuli/card_100_transparent.png,100,7,0,7,0,1,,,,,,,,,,
,,,,65f84a674dc27b8856a6086a,B,2024-06-22_00h30.36.356,Slot Machine Game,2023.1.3,Win32,60.24096386,,,,,,,,,,,,,,,,,,,,,,,,,,,710,,,,,,,,,,,,,,,,,,,,,9,9,,,617.996,8,left,0.2431,,1.5,0.3,"[3,1,2]",0.017075735,stimuli/card_100_transparent.png,100,8,0,8,0,1,,,,,,,,,,
,,,,65f84a674dc27b8856a6086a,B,2024-06-22_00h30.36.356,Slot Machine Game,2023.1.3,Win32,60.24096386,,,,,,,,,,,,,,,,,,,,,,,,,,,810,,,,,,,,,,,,,,,,,,,,,9,9,,,620.5605,9,left,0.2212,,0.5,0.3,"[3,1,2]",0.02405077,stimuli/card_100_transparent.png,100,9,0,9,0,1,,,,,,,,,,
,,,,65f84a674dc27b8856a6086a,B,2024-06-22_00h30.36.356,Slot Machine Game,2023.1.3,Win32,60.24096386,,,,,,,,,,,,,,,,,,,,,,,,,,,810,,,,,,,,,,,,,,,,,,,,,9,9,,,622.0923,10,left,0.1095,,1,0.3,"[3,1,2]",0.442158122,stimuli/card_0_transparent.png,0,10,0,10,0,1,,,,,,,,,,
,,,,65f84a674dc27b8856a6086a,B,2024-06-22_00h30.36.356,Slot Machine Game,2023.1.3,Win32,60.24096386,,,,,,,,,,,,,,,,,,,,,,,,,,,820,,,,,,,,,,,,,,,,,,,,,9,9,,,624.0236,11,right,0.2673,,1.5,0.3,"[3,1,2]",0.714963725,stimuli/card_10_transparent.png,10,11,0,11,0,1,,,,,,,,,,
,,,,65f84a674dc27b8856a6086a,B,2024-06-22_00h30.36.356,Slot Machine Game,2023.1.3,Win32,60.24096386,,,,,,,,,,,,,,,,,,,,,,,,,,,830,,,,,,,,,,,,,,,,,,,,,9,9,,,626.6213,12,right,0.2919,,0.5,0.3,"[3,1,2]",0.270705924,stimuli/card_10_transparent.png,10,12,0,12,0,1,,,,,,,,,,
,,,,65f84a674dc27b8856a6086a,B,2024-06-22_00h30.36.356,Slot Machine Game,2023.1.3,Win32,60.24096386,,,,,,,,,,,,,,,,,,,,,,,,,,,930,,,,,,,,,,,,,,,,,,,,,9,9,,,628.2363,13,right,0.0011,,1,0.3,"[3,1,2]",0.159038901,stimuli/card_100_transparent.png,100,13,0,13,0,1,,,,,,,,,,
,,,,65f84a674dc27b8856a6086a,B,2024-06-22_00h30.36.356,Slot Machine Game,2023.1.3,Win32,60.24096386,,,,,,,,,,,,,,,,,,,,,,,,,,,940,,,,,,,,,,,,,,,,,,,,,9,9,,,630.0679,14,right,0.0881,,1.5,0.3,"[3,1,2]",0.714513338,stimuli/card_10_transparent.png,10,14,0,14,0,1,,,,,,,,,,
,,,,65f84a674dc27b8856a6086a,B,2024-06-22_00h30.36.356,Slot Machine Game,2023.1.3,Win32,60.24096386,,,,,,,,,,,,,,,,,,,,,,,,,,,,,,,,,,,632.4821,,,,,,,,,,,,,,,,,,,,,,,,,,,,,,,,,"[940,1120,1040,920,560,470,840,1020,940]",8,0,8,0,1,,,,
,,,,65f84a674dc27b8856a6086a,B,2024-06-22_00h30.36.356,Slot Machine Game,2023.1.3,Win32,60.24096386,,,,,,,,,,,,,,,,,,,,,,,,,,,,,,,,,,,,,,,,,,,,,,,,10,6,"[4,10,15]","[[2,3,1],[1,3,2],[3,2,1]]",637.5167,0,,,,0.5,0.3,,,,,0,0,0,0,1,,,,,,,,,,
,,,,65f84a674dc27b8856a6086a,B,2024-06-22_00h30.36.356,Slot Machine Game,2023.1.3,Win32,60.24096386,,,,,,,,,,,,,,,,,,,,,,,,,,,,,,,,,,,,,,,,,,,,,,,,10,6,,,643.0504,1,,,,0.5,0.3,,,,,1,0,1,0,1,,,,,,,,,,
,,,,65f84a674dc27b8856a6086a,B,2024-06-22_00h30.36.356,Slot Machine Game,2023.1.3,Win32,60.24096386,,,,,,,,,,,,,,,,,,,,,,,,,,,0,,,,,,,,,,,,,,,,,,,,,10,6,,,648.567,2,up,0.2347,,1.5,0.3,"[2,3,1]",0.767777611,stimuli/card_0_transparent.png,0,2,0,2,0,1,,,,,,,,,,
,,,,65f84a674dc27b8856a6086a,B,2024-06-22_00h30.36.356,Slot Machine Game,2023.1.3,Win32,60.24096386,,,,,,,,,,,,,,,,,,,,,,,,,,,100,,,,,,,,,,,,,,,,,,,,,10,6,,,651.1306,3,right,0.284,,0.5,0.3,"[2,3,1]",0.74397355,stimuli/card_100_transparent.png,100,3,0,3,0,1,,,,,,,,,,
,,,,65f84a674dc27b8856a6086a,B,2024-06-22_00h30.36.356,Slot Machine Game,2023.1.3,Win32,60.24096386,,,,,,,,,,,,,,,,,,,,,,,,,,,110,,,,,,,,,,,,,,,,,,,,,10,6,,,652.746,4,right,0.0523,,1.5,0.3,"[1,3,2]",0.312382818,stimuli/card_10_transparent.png,10,4,0,4,0,1,,,,,,,,,,
,,,,65f84a674dc27b8856a6086a,B,2024-06-22_00h30.36.356,Slot Machine Game,2023.1.3,Win32,60.24096386,,,,,,,,,,,,,,,,,,,,,,,,,,,210,,,,,,,,,,,,,,,,,,,,,10,6,,,655.1092,5,left,0.2336,,1.5,0.3,"[1,3,2]",0.361021861,stimuli/card_100_transparent.png,100,5,0,5,0,1,,,,,,,,,,
,,,,65f84a674dc27b8856a6086a,B,2024-06-22_00h30.36.356,Slot Machine Game,2023.1.3,Win32,60.24096386,,,,,,,,,,,,,,,,,,,,,,,,,,,310,,,,,,,,,,,,,,,,,,,,,10,6,,,657.6734,6,left,0.2506,,0.5,0.3,"[1,3,2]",0.327726139,stimuli/card_100_transparent.png,100,6,0,6,0,1,,,,,,,,,,
,,,,65f84a674dc27b8856a6086a,B,2024-06-22_00h30.36.356,Slot Machine Game,2023.1.3,Win32,60.24096386,,,,,,,,,,,,,,,,,,,,,,,,,,,410,,,,,,,,,,,,,,,,,,,,,10,6,,,659.2476,7,left,0.283,,1.5,0.3,"[1,3,2]",0.828437381,stimuli/card_100_transparent.png,100,7,0,7,0,1,,,,,,,,,,
,,,,65f84a674dc27b8856a6086a,B,2024-06-22_00h30.36.356,Slot Machine Game,2023.1.3,Win32,60.24096386,,,,,,,,,,,,,,,,,,,,,,,,,,,510,,,,,,,,,,,,,,,,,,,,,10,6,,,661.8619,8,left,0.3017,,1.5,0.3,"[1,3,2]",0.988697738,stimuli/card_100_transparent.png,100,8,0,8,0,1,,,,,,,,,,
,,,,65f84a674dc27b8856a6086a,B,2024-06-22_00h30.36.356,Slot Machine Game,2023.1.3,Win32,60.24096386,,,,,,,,,,,,,,,,,,,,,,,,,,,610,,,,,,,,,,,,,,,,,,,,,10,6,,,664.4844,9,left,0.1514,,1.5,0.3,"[1,3,2]",0.783486576,stimuli/card_100_transparent.png,100,9,0,9,0,1,,,,,,,,,,
,,,,65f84a674dc27b8856a6086a,B,2024-06-22_00h30.36.356,Slot Machine Game,2023.1.3,Win32,60.24096386,,,,,,,,,,,,,,,,,,,,,,,,,,,610,,,,,,,,,,,,,,,,,,,,,10,6,,,666.9651,10,left,0.1339,,0.5,0.3,"[3,2,1]",0.651089004,stimuli/card_0_transparent.png,0,10,0,10,0,1,,,,,,,,,,
,,,,65f84a674dc27b8856a6086a,B,2024-06-22_00h30.36.356,Slot Machine Game,2023.1.3,Win32,60.24096386,,,,,,,,,,,,,,,,,,,,,,,,,,,710,,,,,,,,,,,,,,,,,,,,,10,6,,,668.4302,11,right,0.2511,,1,0.3,"[3,2,1]",0.512595213,stimuli/card_100_transparent.png,100,11,0,11,0,1,,,,,,,,,,
,,,,65f84a674dc27b8856a6086a,B,2024-06-22_00h30.36.356,Slot Machine Game,2023.1.3,Win32,60.24096386,,,,,,,,,,,,,,,,,,,,,,,,,,,810,,,,,,,,,,,,,,,,,,,,,10,6,,,670.5117,12,right,0.1011,,0.5,0.3,"[3,2,1]",0.258737068,stimuli/card_100_transparent.png,100,12,0,12,0,1,,,,,,,,,,
,,,,65f84a674dc27b8856a6086a,B,2024-06-22_00h30.36.356,Slot Machine Game,2023.1.3,Win32,60.24096386,,,,,,,,,,,,,,,,,,,,,,,,,,,910,,,,,,,,,,,,,,,,,,,,,10,6,,,671.9438,13,right,0.0352,,1.5,0.3,"[3,2,1]",0.579798707,stimuli/card_100_transparent.png,100,13,0,13,0,1,,,,,,,,,,
,,,,65f84a674dc27b8856a6086a,B,2024-06-22_00h30.36.356,Slot Machine Game,2023.1.3,Win32,60.24096386,,,,,,,,,,,,,,,,,,,,,,,,,,,1010,,,,,,,,,,,,,,,,,,,,,10,6,,,674.3081,14,right,0.2432,,0.5,0.3,"[3,2,1]",0.691803948,stimuli/card_100_transparent.png,100,14,0,14,0,1,,,,,,,,,,
,,,,65f84a674dc27b8856a6086a,B,2024-06-22_00h30.36.356,Slot Machine Game,2023.1.3,Win32,60.24096386,,,,,,,,,,,,,,,,,,,,,,,,,,,,,,,,,,,675.8729,,,,,,,,,,,,,,,,,,,,,,,,,,,,,,,,,"[940,1120,1040,920,560,470,840,1020,940,1010]",9,0,9,0,1,,,,
,,,,65f84a674dc27b8856a6086a,B,2024-06-22_00h30.36.356,Slot Machine Game,2023.1.3,Win32,60.24096386,,,,,,,,,,,,,,,,,,,,,,,,,,,,,,,,,,,,,,,,,,,,,,,,,,,,,,,,,,,,,,,,,,,,,,,,,,9,"[940,1120,1040,920,560,470,840,1020,940,1010]",10.4,2024-06-22_00h42.01.788
