key_resp_welcome_started,key_resp_welcome_keys,key_resp_welcome_rt,key_resp_welcome_duration,prolific_id,path_id,date,expName,psychopyVersion,OS,frameRate,key_resp_instruction1_started,key_resp_instruction1_keys,key_resp_instruction1_rt,key_resp_instruction1_duration,key_resp_instruction2_started,key_resp_instruction2_keys,key_resp_instruction2_rt,key_resp_instruction2_duration,key_resp_instruction3_started,key_resp_instruction3_keys,key_resp_instruction3_rt,key_resp_instruction3_duration,key_resp_instruction4_started,key_resp_instruction4_keys,key_resp_instruction4_rt,key_resp_instruction4_duration,practiceCondition,practice_reward_seqs,practice_trial_started,practice_trial_num,practice_resp_rt,practice_resp_duration,practice_resp_keys,prac_presentationInterval,"practice_reward_seq: 2,1,3",reward_img,cumulative_reward,trial_reward,practice_trials.thisRepN,practice_trials.thisTrialN,practice_trials.thisN,practice_trials.thisIndex,practice_trials.ran,"practice_reward_seq: 2,3,1",block_break_started,"practice_reward_seq: 1,3,2","practice_reward_seq: 3,1,2",practice_end_time,practice_end_keys,practice_end_rt,practice_end_duration,main_instruction_text_started,block_condition,block_order_indices,main_instruction_keys,main_instruction_rt,main_instruction_duration,block_number,block_assignment,current_condition,main_reward_seqs,main_trial_started,main_trial_num,main_trial_keys,main_trial_rt,main_trial_duration,main_presentationInterval,reward_presentation_time,main_reward_seq,reward_rand_val,main_reward_img,current_reward,main_trials.thisRepN,main_trials.thisTrialN,main_trials.thisN,main_trials.thisIndex,main_trials.ran,block_reward,block.thisRepN,block.thisTrialN,block.thisN,block.thisIndex,block.ran,block_reward.length,block_reward_all,reward_amount,date_end_task
0.0003,space,1.3734,,661792d2e2d14691a2719db6,A,2024-07-03_01h56.48.974,Slot Machine Game,2023.1.3,Win32,144.9275362,,,,,,,,,,,,,,,,,,,,,,,,,,,,,,,,,,,,,,,,,,,,,,,,,,,,,,,,,,,,,,,,,,,,,,,,,,,,,
,,,,661792d2e2d14691a2719db6,A,2024-07-03_01h56.48.974,Slot Machine Game,2023.1.3,Win32,144.9275362,1.3836,space,6.6072,,,,,,,,,,,,,,,,,,,,,,,,,,,,,,,,,,,,,,,,,,,,,,,,,,,,,,,,,,,,,,,,,,,,,,,,,,
,,,,661792d2e2d14691a2719db6,A,2024-07-03_01h56.48.974,Slot Machine Game,2023.1.3,Win32,144.9275362,,,,,8.0027,space,31.4561,,,,,,,,,,,,,,,,,,,,,,,,,,,,,,,,,,,,,,,,,,,,,,,,,,,,,,,,,,,,,,,,,,,,,,
,,,,661792d2e2d14691a2719db6,A,2024-07-03_01h56.48.974,Slot Machine Game,2023.1.3,Win32,144.9275362,,,,,,,,,39.4788,space,4.1195,,,,,,,,,,,,,,,,,,,,,,,,,,,,,,,,,,,,,,,,,,,,,,,,,,,,,,,,,,,,,,,,,,
,,,,661792d2e2d14691a2719db6,A,2024-07-03_01h56.48.974,Slot Machine Game,2023.1.3,Win32,144.9275362,,,,,,,,,,,,,,,,,,,,,,,,,,,,,,,,,,,,,,,,,,,,,,,,,,,,,,,,,,,,,,,,,,,,,,,,,,,,,
,,,,661792d2e2d14691a2719db6,A,2024-07-03_01h56.48.974,Slot Machine Game,2023.1.3,Win32,144.9275362,,,,,,,,,,,,,185.3299,space,2.735,,,,,,,,,,,,,,,,,,,,,,,,,,,,,,,,,,,,,,,,,,,,,,,,,,,,,,,,,,,,,,
,,,,661792d2e2d14691a2719db6,A,2024-07-03_01h56.48.974,Slot Machine Game,2023.1.3,Win32,144.9275362,,,,,,,,,,,,,,,,,"[9,15]","[[2,1,3],[2,3,1]]",188.0747,0,2.9123,,left,1.5,,stimuli/card_10_transparent.png,10,10,0,0,0,0,1,,,,,,,,,,,,,,,,,,,,,,,,,,,,,,,,,,,,,,,,,,,,
,,,,661792d2e2d14691a2719db6,A,2024-07-03_01h56.48.974,Slot Machine Game,2023.1.3,Win32,144.9275362,,,,,,,,,,,,,,,,,,,193.2963,1,0.6332,,left,0.5,,stimuli/card_0_transparent.png,10,0,1,0,1,0,1,,,,,,,,,,,,,,,,,,,,,,,,,,,,,,,,,,,,,,,,,,,,
,,,,661792d2e2d14691a2719db6,A,2024-07-03_01h56.48.974,Slot Machine Game,2023.1.3,Win32,144.9275362,,,,,,,,,,,,,,,,,,,195.2408,2,0.1143,,right,0.5,,stimuli/card_0_transparent.png,10,0,2,0,2,0,1,,,,,,,,,,,,,,,,,,,,,,,,,,,,,,,,,,,,,,,,,,,,
,,,,661792d2e2d14691a2719db6,A,2024-07-03_01h56.48.974,Slot Machine Game,2023.1.3,Win32,144.9275362,,,,,,,,,,,,,,,,,,,196.6577,3,0.4626,,right,1.5,,stimuli/card_0_transparent.png,10,0,3,0,3,0,1,,,,,,,,,,,,,,,,,,,,,,,,,,,,,,,,,,,,,,,,,,,,
,,,,661792d2e2d14691a2719db6,A,2024-07-03_01h56.48.974,Slot Machine Game,2023.1.3,Win32,144.9275362,,,,,,,,,,,,,,,,,,,199.4288,4,0.0005,,up,1.5,,stimuli/card_100_transparent.png,110,100,4,0,4,0,1,,,,,,,,,,,,,,,,,,,,,,,,,,,,,,,,,,,,,,,,,,,,
,,,,661792d2e2d14691a2719db6,A,2024-07-03_01h56.48.974,Slot Machine Game,2023.1.3,Win32,144.9275362,,,,,,,,,,,,,,,,,,,201.7347,5,0.0725,,up,1,,stimuli/card_100_transparent.png,210,100,5,0,5,0,1,,,,,,,,,,,,,,,,,,,,,,,,,,,,,,,,,,,,,,,,,,,,
,,,,661792d2e2d14691a2719db6,A,2024-07-03_01h56.48.974,Slot Machine Game,2023.1.3,Win32,144.9275362,,,,,,,,,,,,,,,,,,,203.6167,6,0.1502,,up,1,,stimuli/card_10_transparent.png,220,10,6,0,6,0,1,,,,,,,,,,,,,,,,,,,,,,,,,,,,,,,,,,,,,,,,,,,,
,,,,661792d2e2d14691a2719db6,A,2024-07-03_01h56.48.974,Slot Machine Game,2023.1.3,Win32,144.9275362,,,,,,,,,,,,,,,,,,,205.5684,7,0.2177,,up,1.5,,stimuli/card_10_transparent.png,230,10,7,0,7,0,1,,,,,,,,,,,,,,,,,,,,,,,,,,,,,,,,,,,,,,,,,,,,
,,,,661792d2e2d14691a2719db6,A,2024-07-03_01h56.48.974,Slot Machine Game,2023.1.3,Win32,144.9275362,,,,,,,,,,,,,,,,,,,208.0896,8,0.0845,,left,0.5,,stimuli/card_10_transparent.png,240,10,8,0,8,0,1,,,,,,,,,,,,,,,,,,,,,,,,,,,,,,,,,,,,,,,,,,,,
,,,,661792d2e2d14691a2719db6,A,2024-07-03_01h56.48.974,Slot Machine Game,2023.1.3,Win32,144.9275362,,,,,,,,,,,,,,,,,,,209.4856,9,0.1255,,left,0.5,,stimuli/card_10_transparent.png,250,10,9,0,9,0,1,,,,,,,,,,,,,,,,,,,,,,,,,,,,,,,,,,,,,,,,,,,,
,,,,661792d2e2d14691a2719db6,A,2024-07-03_01h56.48.974,Slot Machine Game,2023.1.3,Win32,144.9275362,,,,,,,,,,,,,,,,,,,210.9233,10,0.16,,right,1.5,,stimuli/card_100_transparent.png,350,100,10,0,10,0,1,,,,,,,,,,,,,,,,,,,,,,,,,,,,,,,,,,,,,,,,,,,,
,,,,661792d2e2d14691a2719db6,A,2024-07-03_01h56.48.974,Slot Machine Game,2023.1.3,Win32,144.9275362,,,,,,,,,,,,,,,,,,,213.3958,11,0.1331,,right,1.5,,stimuli/card_10_transparent.png,360,10,11,0,11,0,1,,,,,,,,,,,,,,,,,,,,,,,,,,,,,,,,,,,,,,,,,,,,
,,,,661792d2e2d14691a2719db6,A,2024-07-03_01h56.48.974,Slot Machine Game,2023.1.3,Win32,144.9275362,,,,,,,,,,,,,,,,,,,215.8336,12,0.0735,,up,0.5,,stimuli/card_0_transparent.png,360,0,12,0,12,0,1,,,,,,,,,,,,,,,,,,,,,,,,,,,,,,,,,,,,,,,,,,,,
,,,,661792d2e2d14691a2719db6,A,2024-07-03_01h56.48.974,Slot Machine Game,2023.1.3,Win32,144.9275362,,,,,,,,,,,,,,,,,,,217.2158,13,0.0434,,up,1.5,,stimuli/card_10_transparent.png,370,10,13,0,13,0,1,,,,,,,,,,,,,,,,,,,,,,,,,,,,,,,,,,,,,,,,,,,,
,,,,661792d2e2d14691a2719db6,A,2024-07-03_01h56.48.974,Slot Machine Game,2023.1.3,Win32,144.9275362,,,,,,,,,,,,,,,,,,,219.5702,14,0.1422,,up,1.5,,stimuli/card_0_transparent.png,370,0,14,0,14,0,1,,,,,,,,,,,,,,,,,,,,,,,,,,,,,,,,,,,,,,,,,,,,
,,,,661792d2e2d14691a2719db6,A,2024-07-03_01h56.48.974,Slot Machine Game,2023.1.3,Win32,144.9275362,,,,,,,,,,,,,,,,,"[6,15]","[[1,3,2],[3,1,2]]",227.0271,0,0.0537,,left,1,,stimuli/card_100_transparent.png,100,100,0,0,0,0,1,,222.0266,,,,,,,,,,,,,,,,,,,,,,,,,,,,,,,,,,,,,,,,,,
,,,,661792d2e2d14691a2719db6,A,2024-07-03_01h56.48.974,Slot Machine Game,2023.1.3,Win32,144.9275362,,,,,,,,,,,,,,,,,,,228.8838,1,0.1261,,left,0.5,,stimuli/card_100_transparent.png,200,100,1,0,1,0,1,,,,,,,,,,,,,,,,,,,,,,,,,,,,,,,,,,,,,,,,,,,,
,,,,661792d2e2d14691a2719db6,A,2024-07-03_01h56.48.974,Slot Machine Game,2023.1.3,Win32,144.9275362,,,,,,,,,,,,,,,,,,,230.3145,2,0.1255,,left,1.5,,stimuli/card_100_transparent.png,300,100,2,0,2,0,1,,,,,,,,,,,,,,,,,,,,,,,,,,,,,,,,,,,,,,,,,,,,
,,,,661792d2e2d14691a2719db6,A,2024-07-03_01h56.48.974,Slot Machine Game,2023.1.3,Win32,144.9275362,,,,,,,,,,,,,,,,,,,232.7455,3,0.0917,,left,1.5,,stimuli/card_100_transparent.png,400,100,3,0,3,0,1,,,,,,,,,,,,,,,,,,,,,,,,,,,,,,,,,,,,,,,,,,,,
,,,,661792d2e2d14691a2719db6,A,2024-07-03_01h56.48.974,Slot Machine Game,2023.1.3,Win32,144.9275362,,,,,,,,,,,,,,,,,,,235.1415,4,0.0325,,left,1,,stimuli/card_100_transparent.png,500,100,4,0,4,0,1,,,,,,,,,,,,,,,,,,,,,,,,,,,,,,,,,,,,,,,,,,,,
,,,,661792d2e2d14691a2719db6,A,2024-07-03_01h56.48.974,Slot Machine Game,2023.1.3,Win32,144.9275362,,,,,,,,,,,,,,,,,,,236.9751,5,0.125,,left,0.5,,stimuli/card_100_transparent.png,600,100,5,0,5,0,1,,,,,,,,,,,,,,,,,,,,,,,,,,,,,,,,,,,,,,,,,,,,
,,,,661792d2e2d14691a2719db6,A,2024-07-03_01h56.48.974,Slot Machine Game,2023.1.3,Win32,144.9275362,,,,,,,,,,,,,,,,,,,238.4128,6,0.0626,,left,1,,stimuli/card_10_transparent.png,610,10,6,0,6,0,1,,,,,,,,,,,,,,,,,,,,,,,,,,,,,,,,,,,,,,,,,,,,
,,,,661792d2e2d14691a2719db6,A,2024-07-03_01h56.48.974,Slot Machine Game,2023.1.3,Win32,144.9275362,,,,,,,,,,,,,,,,,,,240.2811,7,0.0905,,right,1.5,,stimuli/card_100_transparent.png,710,100,7,0,7,0,1,,,,,,,,,,,,,,,,,,,,,,,,,,,,,,,,,,,,,,,,,,,,
,,,,661792d2e2d14691a2719db6,A,2024-07-03_01h56.48.974,Slot Machine Game,2023.1.3,Win32,144.9275362,,,,,,,,,,,,,,,,,,,242.6772,8,0.1474,,right,0.5,,stimuli/card_10_transparent.png,720,10,8,0,8,0,1,,,,,,,,,,,,,,,,,,,,,,,,,,,,,,,,,,,,,,,,,,,,
,,,,661792d2e2d14691a2719db6,A,2024-07-03_01h56.48.974,Slot Machine Game,2023.1.3,Win32,144.9275362,,,,,,,,,,,,,,,,,,,244.1357,9,0.0757,,right,1.5,,stimuli/card_10_transparent.png,730,10,9,0,9,0,1,,,,,,,,,,,,,,,,,,,,,,,,,,,,,,,,,,,,,,,,,,,,
,,,,661792d2e2d14691a2719db6,A,2024-07-03_01h56.48.974,Slot Machine Game,2023.1.3,Win32,144.9275362,,,,,,,,,,,,,,,,,,,246.518,10,0.1947,,up,0.5,,stimuli/card_0_transparent.png,730,0,10,0,10,0,1,,,,,,,,,,,,,,,,,,,,,,,,,,,,,,,,,,,,,,,,,,,,
,,,,661792d2e2d14691a2719db6,A,2024-07-03_01h56.48.974,Slot Machine Game,2023.1.3,Win32,144.9275362,,,,,,,,,,,,,,,,,,,248.0251,11,0.077,,up,1.5,,stimuli/card_100_transparent.png,830,100,11,0,11,0,1,,,,,,,,,,,,,,,,,,,,,,,,,,,,,,,,,,,,,,,,,,,,
,,,,661792d2e2d14691a2719db6,A,2024-07-03_01h56.48.974,Slot Machine Game,2023.1.3,Win32,144.9275362,,,,,,,,,,,,,,,,,,,250.4143,12,0.0639,,up,0.5,,stimuli/card_10_transparent.png,840,10,12,0,12,0,1,,,,,,,,,,,,,,,,,,,,,,,,,,,,,,,,,,,,,,,,,,,,
,,,,661792d2e2d14691a2719db6,A,2024-07-03_01h56.48.974,Slot Machine Game,2023.1.3,Win32,144.9275362,,,,,,,,,,,,,,,,,,,251.7825,13,0.0411,,up,1.5,,stimuli/card_100_transparent.png,940,100,13,0,13,0,1,,,,,,,,,,,,,,,,,,,,,,,,,,,,,,,,,,,,,,,,,,,,
,,,,661792d2e2d14691a2719db6,A,2024-07-03_01h56.48.974,Slot Machine Game,2023.1.3,Win32,144.9275362,,,,,,,,,,,,,,,,,,,254.13,14,0.1392,,up,0.5,,stimuli/card_100_transparent.png,1040,100,14,0,14,0,1,,,,,,,,,,,,,,,,,,,,,,,,,,,,,,,,,,,,,,,,,,,,
,,,,661792d2e2d14691a2719db6,A,2024-07-03_01h56.48.974,Slot Machine Game,2023.1.3,Win32,144.9275362,,,,,,,,,,,,,,,,,,,,,,,,,,,,,,,,,,,255.5746,,,260.5756,space,1.7525,,,,,,,,,,,,,,,,,,,,,,,,,,,,,,,,,,,,,
,,,,661792d2e2d14691a2719db6,A,2024-07-03_01h56.48.974,Slot Machine Game,2023.1.3,Win32,144.9275362,,,,,,,,,,,,,,,,,,,,,,,,,,,,,,,,,,,,,,,,,,262.3328,3,"[0,4,6,3,5,7,8,1,9,2]",space,1.2773,,,,,,,,,,,,,,,,,,,,,,,,,,,,,,,
,,,,661792d2e2d14691a2719db6,A,2024-07-03_01h56.48.974,Slot Machine Game,2023.1.3,Win32,144.9275362,,,,,,,,,,,,,,,,,,,,,,,,,,,100,,,,,,,,,,,,,,,,,,,,,1,1,"[12,15]","[[2,1,3],[2,3,1]]",263.6229,0,left,0.2089,,1,0.3,"[2,1,3]",0.19675344,stimuli/card_100_transparent.png,100,0,0,0,0,1,,,,,,,,,,
,,,,661792d2e2d14691a2719db6,A,2024-07-03_01h56.48.974,Slot Machine Game,2023.1.3,Win32,144.9275362,,,,,,,,,,,,,,,,,,,,,,,,,,,110,,,,,,,,,,,,,,,,,,,,,1,1,,,265.6385,1,left,0.1276,,1.5,0.3,"[2,1,3]",0.354847745,stimuli/card_10_transparent.png,10,1,0,1,0,1,,,,,,,,,,
,,,,661792d2e2d14691a2719db6,A,2024-07-03_01h56.48.974,Slot Machine Game,2023.1.3,Win32,144.9275362,,,,,,,,,,,,,,,,,,,,,,,,,,,120,,,,,,,,,,,,,,,,,,,,,1,1,,,268.0762,2,left,0.1243,,0.5,0.3,"[2,1,3]",0.861178493,stimuli/card_10_transparent.png,10,2,0,2,0,1,,,,,,,,,,
,,,,661792d2e2d14691a2719db6,A,2024-07-03_01h56.48.974,Slot Machine Game,2023.1.3,Win32,144.9275362,,,,,,,,,,,,,,,,,,,,,,,,,,,120,,,,,,,,,,,,,,,,,,,,,1,1,,,269.5139,3,right,0.0941,,1,0.3,"[2,1,3]",0.72872819,stimuli/card_0_transparent.png,0,3,0,3,0,1,,,,,,,,,,
,,,,661792d2e2d14691a2719db6,A,2024-07-03_01h56.48.974,Slot Machine Game,2023.1.3,Win32,144.9275362,,,,,,,,,,,,,,,,,,,,,,,,,,,220,,,,,,,,,,,,,,,,,,,,,1,1,,,271.4169,4,up,0.1993,,0.5,0.3,"[2,1,3]",0.5170862,stimuli/card_100_transparent.png,100,4,0,4,0,1,,,,,,,,,,
,,,,661792d2e2d14691a2719db6,A,2024-07-03_01h56.48.974,Slot Machine Game,2023.1.3,Win32,144.9275362,,,,,,,,,,,,,,,,,,,,,,,,,,,320,,,,,,,,,,,,,,,,,,,,,1,1,,,272.9171,5,up,0.0559,,1.5,0.3,"[2,1,3]",0.689702259,stimuli/card_100_transparent.png,100,5,0,5,0,1,,,,,,,,,,
,,,,661792d2e2d14691a2719db6,A,2024-07-03_01h56.48.974,Slot Machine Game,2023.1.3,Win32,144.9275362,,,,,,,,,,,,,,,,,,,,,,,,,,,420,,,,,,,,,,,,,,,,,,,,,1,1,,,275.2855,6,up,0.014,,1,0.3,"[2,1,3]",0.628878053,stimuli/card_100_transparent.png,100,6,0,6,0,1,,,,,,,,,,
,,,,661792d2e2d14691a2719db6,A,2024-07-03_01h56.48.974,Slot Machine Game,2023.1.3,Win32,144.9275362,,,,,,,,,,,,,,,,,,,,,,,,,,,520,,,,,,,,,,,,,,,,,,,,,1,1,,,277.1121,7,up,0.1562,,1,0.3,"[2,1,3]",0.361128516,stimuli/card_100_transparent.png,100,7,0,7,0,1,,,,,,,,,,
,,,,661792d2e2d14691a2719db6,A,2024-07-03_01h56.48.974,Slot Machine Game,2023.1.3,Win32,144.9275362,,,,,,,,,,,,,,,,,,,,,,,,,,,620,,,,,,,,,,,,,,,,,,,,,1,1,,,279.0776,8,up,0.1325,,1,0.3,"[2,1,3]",0.526239595,stimuli/card_100_transparent.png,100,8,0,8,0,1,,,,,,,,,,
,,,,661792d2e2d14691a2719db6,A,2024-07-03_01h56.48.974,Slot Machine Game,2023.1.3,Win32,144.9275362,,,,,,,,,,,,,,,,,,,,,,,,,,,620,,,,,,,,,,,,,,,,,,,,,1,1,,,281.0251,9,up,0.0285,,1.5,0.3,"[2,1,3]",0.015615399,stimuli/card_0_transparent.png,0,9,0,9,0,1,,,,,,,,,,
,,,,661792d2e2d14691a2719db6,A,2024-07-03_01h56.48.974,Slot Machine Game,2023.1.3,Win32,144.9275362,,,,,,,,,,,,,,,,,,,,,,,,,,,720,,,,,,,,,,,,,,,,,,,,,1,1,,,283.3593,10,right,0.0141,,0.5,0.3,"[2,1,3]",0.053415461,stimuli/card_100_transparent.png,100,10,0,10,0,1,,,,,,,,,,
,,,,661792d2e2d14691a2719db6,A,2024-07-03_01h56.48.974,Slot Machine Game,2023.1.3,Win32,144.9275362,,,,,,,,,,,,,,,,,,,,,,,,,,,720,,,,,,,,,,,,,,,,,,,,,1,1,,,284.6853,11,right,0.1947,,1,0.3,"[2,1,3]",0.835364497,stimuli/card_0_transparent.png,0,11,0,11,0,1,,,,,,,,,,
,,,,661792d2e2d14691a2719db6,A,2024-07-03_01h56.48.974,Slot Machine Game,2023.1.3,Win32,144.9275362,,,,,,,,,,,,,,,,,,,,,,,,,,,820,,,,,,,,,,,,,,,,,,,,,1,1,,,286.6854,12,right,0.035,,1.5,0.3,"[2,3,1]",0.945492835,stimuli/card_100_transparent.png,100,12,0,12,0,1,,,,,,,,,,
,,,,661792d2e2d14691a2719db6,A,2024-07-03_01h56.48.974,Slot Machine Game,2023.1.3,Win32,144.9275362,,,,,,,,,,,,,,,,,,,,,,,,,,,920,,,,,,,,,,,,,,,,,,,,,1,1,,,289.026,13,right,0.1044,,1,0.3,"[2,3,1]",0.350914366,stimuli/card_100_transparent.png,100,13,0,13,0,1,,,,,,,,,,
,,,,661792d2e2d14691a2719db6,A,2024-07-03_01h56.48.974,Slot Machine Game,2023.1.3,Win32,144.9275362,,,,,,,,,,,,,,,,,,,,,,,,,,,1020,,,,,,,,,,,,,,,,,,,,,1,1,,,290.9428,14,right,0.0354,,0.5,0.3,"[2,3,1]",0.243263261,stimuli/card_100_transparent.png,100,14,0,14,0,1,,,,,,,,,,
,,,,661792d2e2d14691a2719db6,A,2024-07-03_01h56.48.974,Slot Machine Game,2023.1.3,Win32,144.9275362,,,,,,,,,,,,,,,,,,,,,,,,,,,,,,,,,,,292.2834,,,,,,,,,,,,,,,,,,,,,,,,,,,,,,,,,[1020],0,0,0,0,1,,,,
,,,,661792d2e2d14691a2719db6,A,2024-07-03_01h56.48.974,Slot Machine Game,2023.1.3,Win32,144.9275362,,,,,,,,,,,,,,,,,,,,,,,,,,,0,,,,,,,,,,,,,,,,,,,,,2,5,"[5,15]","[[1,2,3],[3,1,2]]",297.2886,0,right,0.1701,,1,0.3,"[1,2,3]",0.899074001,stimuli/card_0_transparent.png,0,0,0,0,0,1,,,,,,,,,,
,,,,661792d2e2d14691a2719db6,A,2024-07-03_01h56.48.974,Slot Machine Game,2023.1.3,Win32,144.9275362,,,,,,,,,,,,,,,,,,,,,,,,,,,10,,,,,,,,,,,,,,,,,,,,,2,5,,,299.2676,1,up,0.0368,,1.5,0.3,"[1,2,3]",0.610393471,stimuli/card_10_transparent.png,10,1,0,1,0,1,,,,,,,,,,
,,,,661792d2e2d14691a2719db6,A,2024-07-03_01h56.48.974,Slot Machine Game,2023.1.3,Win32,144.9275362,,,,,,,,,,,,,,,,,,,,,,,,,,,10,,,,,,,,,,,,,,,,,,,,,2,5,,,301.6082,2,left,0.0003,,1.5,0.3,"[1,2,3]",0.063780452,stimuli/card_0_transparent.png,0,2,0,2,0,1,,,,,,,,,,
,,,,661792d2e2d14691a2719db6,A,2024-07-03_01h56.48.974,Slot Machine Game,2023.1.3,Win32,144.9275362,,,,,,,,,,,,,,,,,,,,,,,,,,,110,,,,,,,,,,,,,,,,,,,,,2,5,,,303.9209,3,up,0.0905,,0.5,0.3,"[1,2,3]",0.160061052,stimuli/card_100_transparent.png,100,3,0,3,0,1,,,,,,,,,,
,,,,661792d2e2d14691a2719db6,A,2024-07-03_01h56.48.974,Slot Machine Game,2023.1.3,Win32,144.9275362,,,,,,,,,,,,,,,,,,,,,,,,,,,110,,,,,,,,,,,,,,,,,,,,,2,5,,,305.3169,4,up,0.0002,,1.5,0.3,"[1,2,3]",0.075863466,stimuli/card_0_transparent.png,0,4,0,4,0,1,,,,,,,,,,
,,,,661792d2e2d14691a2719db6,A,2024-07-03_01h56.48.974,Slot Machine Game,2023.1.3,Win32,144.9275362,,,,,,,,,,,,,,,,,,,,,,,,,,,210,,,,,,,,,,,,,,,,,,,,,2,5,,,307.6228,5,right,0.6772,,1,0.3,"[3,1,2]",0.160768833,stimuli/card_100_transparent.png,100,5,0,5,0,1,,,,,,,,,,
,,,,661792d2e2d14691a2719db6,A,2024-07-03_01h56.48.974,Slot Machine Game,2023.1.3,Win32,144.9275362,,,,,,,,,,,,,,,,,,,,,,,,,,,220,,,,,,,,,,,,,,,,,,,,,2,5,,,310.1023,6,right,0.1946,,1,0.3,"[3,1,2]",0.963483766,stimuli/card_10_transparent.png,10,6,0,6,0,1,,,,,,,,,,
,,,,661792d2e2d14691a2719db6,A,2024-07-03_01h56.48.974,Slot Machine Game,2023.1.3,Win32,144.9275362,,,,,,,,,,,,,,,,,,,,,,,,,,,320,,,,,,,,,,,,,,,,,,,,,2,5,,,312.1094,7,right,0.1465,,1,0.3,"[3,1,2]",0.160547702,stimuli/card_100_transparent.png,100,7,0,7,0,1,,,,,,,,,,
,,,,661792d2e2d14691a2719db6,A,2024-07-03_01h56.48.974,Slot Machine Game,2023.1.3,Win32,144.9275362,,,,,,,,,,,,,,,,,,,,,,,,,,,330,,,,,,,,,,,,,,,,,,,,,2,5,,,314.0681,8,right,0.1559,,1.5,0.3,"[3,1,2]",0.896126642,stimuli/card_10_transparent.png,10,8,0,8,0,1,,,,,,,,,,
,,,,661792d2e2d14691a2719db6,A,2024-07-03_01h56.48.974,Slot Machine Game,2023.1.3,Win32,144.9275362,,,,,,,,,,,,,,,,,,,,,,,,,,,340,,,,,,,,,,,,,,,,,,,,,2,5,,,316.5405,9,right,0.2017,,0.5,0.3,"[3,1,2]",0.215828288,stimuli/card_10_transparent.png,10,9,0,9,0,1,,,,,,,,,,
,,,,661792d2e2d14691a2719db6,A,2024-07-03_01h56.48.974,Slot Machine Game,2023.1.3,Win32,144.9275362,,,,,,,,,,,,,,,,,,,,,,,,,,,440,,,,,,,,,,,,,,,,,,,,,2,5,,,318.0546,10,up,0.0708,,0.5,0.3,"[3,1,2]",0.819367395,stimuli/card_100_transparent.png,100,10,0,10,0,1,,,,,,,,,,
,,,,661792d2e2d14691a2719db6,A,2024-07-03_01h56.48.974,Slot Machine Game,2023.1.3,Win32,144.9275362,,,,,,,,,,,,,,,,,,,,,,,,,,,540,,,,,,,,,,,,,,,,,,,,,2,5,,,319.4298,11,up,0.0505,,1.5,0.3,"[3,1,2]",0.859267683,stimuli/card_100_transparent.png,100,11,0,11,0,1,,,,,,,,,,
,,,,661792d2e2d14691a2719db6,A,2024-07-03_01h56.48.974,Slot Machine Game,2023.1.3,Win32,144.9275362,,,,,,,,,,,,,,,,,,,,,,,,,,,550,,,,,,,,,,,,,,,,,,,,,2,5,,,321.7842,12,up,0.1407,,0.5,0.3,"[3,1,2]",0.134460185,stimuli/card_10_transparent.png,10,12,0,12,0,1,,,,,,,,,,
,,,,661792d2e2d14691a2719db6,A,2024-07-03_01h56.48.974,Slot Machine Game,2023.1.3,Win32,144.9275362,,,,,,,,,,,,,,,,,,,,,,,,,,,550,,,,,,,,,,,,,,,,,,,,,2,5,,,323.2359,13,right,0.0419,,1.5,0.3,"[3,1,2]",0.080692162,stimuli/card_0_transparent.png,0,13,0,13,0,1,,,,,,,,,,
,,,,661792d2e2d14691a2719db6,A,2024-07-03_01h56.48.974,Slot Machine Game,2023.1.3,Win32,144.9275362,,,,,,,,,,,,,,,,,,,,,,,,,,,550,,,,,,,,,,,,,,,,,,,,,2,5,,,325.5903,14,left,0.0766,,1,0.3,"[3,1,2]",0.631272688,stimuli/card_0_transparent.png,0,14,0,14,0,1,,,,,,,,,,
,,,,661792d2e2d14691a2719db6,A,2024-07-03_01h56.48.974,Slot Machine Game,2023.1.3,Win32,144.9275362,,,,,,,,,,,,,,,,,,,,,,,,,,,,,,,,,,,327.4725,,,,,,,,,,,,,,,,,,,,,,,,,,,,,,,,,"[1020,550]",1,0,1,0,1,,,,
,,,,661792d2e2d14691a2719db6,A,2024-07-03_01h56.48.974,Slot Machine Game,2023.1.3,Win32,144.9275362,,,,,,,,,,,,,,,,,,,,,,,,,,,10,,,,,,,,,,,,,,,,,,,,,3,7,"[9,15]","[[1,3,2],[2,3,1]]",332.4785,0,right,0.0087,,1.5,0.3,"[1,3,2]",0.487667463,stimuli/card_10_transparent.png,10,0,0,0,0,1,,,,,,,,,,
,,,,661792d2e2d14691a2719db6,A,2024-07-03_01h56.48.974,Slot Machine Game,2023.1.3,Win32,144.9275362,,,,,,,,,,,,,,,,,,,,,,,,,,,20,,,,,,,,,,,,,,,,,,,,,3,7,,,334.7997,1,right,0.0857,,0.5,0.3,"[1,3,2]",0.676768994,stimuli/card_10_transparent.png,10,1,0,1,0,1,,,,,,,,,,
,,,,661792d2e2d14691a2719db6,A,2024-07-03_01h56.48.974,Slot Machine Game,2023.1.3,Win32,144.9275362,,,,,,,,,,,,,,,,,,,,,,,,,,,30,,,,,,,,,,,,,,,,,,,,,3,7,,,336.1958,2,right,0.1671,,1.5,0.3,"[1,3,2]",0.413852834,stimuli/card_10_transparent.png,10,2,0,2,0,1,,,,,,,,,,
,,,,661792d2e2d14691a2719db6,A,2024-07-03_01h56.48.974,Slot Machine Game,2023.1.3,Win32,144.9275362,,,,,,,,,,,,,,,,,,,,,,,,,,,130,,,,,,,,,,,,,,,,,,,,,3,7,,,338.6822,3,up,0.0441,,0.5,0.3,"[1,3,2]",0.040429955,stimuli/card_100_transparent.png,100,3,0,3,0,1,,,,,,,,,,
,,,,661792d2e2d14691a2719db6,A,2024-07-03_01h56.48.974,Slot Machine Game,2023.1.3,Win32,144.9275362,,,,,,,,,,,,,,,,,,,,,,,,,,,130,,,,,,,,,,,,,,,,,,,,,3,7,,,340.0296,4,up,0.1412,,1,0.3,"[1,3,2]",0.292278667,stimuli/card_0_transparent.png,0,4,0,4,0,1,,,,,,,,,,
,,,,661792d2e2d14691a2719db6,A,2024-07-03_01h56.48.974,Slot Machine Game,2023.1.3,Win32,144.9275362,,,,,,,,,,,,,,,,,,,,,,,,,,,230,,,,,,,,,,,,,,,,,,,,,3,7,,,341.9882,5,left,0.1733,,0.5,0.3,"[1,3,2]",0.69852075,stimuli/card_100_transparent.png,100,5,0,5,0,1,,,,,,,,,,
,,,,661792d2e2d14691a2719db6,A,2024-07-03_01h56.48.974,Slot Machine Game,2023.1.3,Win32,144.9275362,,,,,,,,,,,,,,,,,,,,,,,,,,,330,,,,,,,,,,,,,,,,,,,,,3,7,,,343.4814,6,left,0.1748,,1,0.3,"[1,3,2]",0.885223606,stimuli/card_100_transparent.png,100,6,0,6,0,1,,,,,,,,,,
,,,,661792d2e2d14691a2719db6,A,2024-07-03_01h56.48.974,Slot Machine Game,2023.1.3,Win32,144.9275362,,,,,,,,,,,,,,,,,,,,,,,,,,,330,,,,,,,,,,,,,,,,,,,,,3,7,,,345.4609,7,left,0.0386,,1.5,0.3,"[1,3,2]",0.07801679,stimuli/card_0_transparent.png,0,7,0,7,0,1,,,,,,,,,,
,,,,661792d2e2d14691a2719db6,A,2024-07-03_01h56.48.974,Slot Machine Game,2023.1.3,Win32,144.9275362,,,,,,,,,,,,,,,,,,,,,,,,,,,330,,,,,,,,,,,,,,,,,,,,,3,7,,,347.8153,8,right,0.0872,,1.5,0.3,"[1,3,2]",0.018257116,stimuli/card_0_transparent.png,0,8,0,8,0,1,,,,,,,,,,
,,,,661792d2e2d14691a2719db6,A,2024-07-03_01h56.48.974,Slot Machine Game,2023.1.3,Win32,144.9275362,,,,,,,,,,,,,,,,,,,,,,,,,,,330,,,,,,,,,,,,,,,,,,,,,3,7,,,350.2114,9,up,0.0554,,0.5,0.3,"[2,3,1]",0.438975864,stimuli/card_0_transparent.png,0,9,0,9,0,1,,,,,,,,,,
,,,,661792d2e2d14691a2719db6,A,2024-07-03_01h56.48.974,Slot Machine Game,2023.1.3,Win32,144.9275362,,,,,,,,,,,,,,,,,,,,,,,,,,,430,,,,,,,,,,,,,,,,,,,,,3,7,,,351.5796,10,right,0.0905,,1.5,0.3,"[2,3,1]",0.974292924,stimuli/card_100_transparent.png,100,10,0,10,0,1,,,,,,,,,,
,,,,661792d2e2d14691a2719db6,A,2024-07-03_01h56.48.974,Slot Machine Game,2023.1.3,Win32,144.9275362,,,,,,,,,,,,,,,,,,,,,,,,,,,530,,,,,,,,,,,,,,,,,,,,,3,7,,,353.9758,11,right,0.1328,,1,0.3,"[2,3,1]",0.5672748,stimuli/card_100_transparent.png,100,11,0,11,0,1,,,,,,,,,,
,,,,661792d2e2d14691a2719db6,A,2024-07-03_01h56.48.974,Slot Machine Game,2023.1.3,Win32,144.9275362,,,,,,,,,,,,,,,,,,,,,,,,,,,630,,,,,,,,,,,,,,,,,,,,,3,7,,,355.9135,12,right,0.0696,,0.5,0.3,"[2,3,1]",0.416425456,stimuli/card_100_transparent.png,100,12,0,12,0,1,,,,,,,,,,
,,,,661792d2e2d14691a2719db6,A,2024-07-03_01h56.48.974,Slot Machine Game,2023.1.3,Win32,144.9275362,,,,,,,,,,,,,,,,,,,,,,,,,,,640,,,,,,,,,,,,,,,,,,,,,3,7,,,357.2887,13,right,0.1346,,0.5,0.3,"[2,3,1]",0.15966754,stimuli/card_10_transparent.png,10,13,0,13,0,1,,,,,,,,,,
,,,,661792d2e2d14691a2719db6,A,2024-07-03_01h56.48.974,Slot Machine Game,2023.1.3,Win32,144.9275362,,,,,,,,,,,,,,,,,,,,,,,,,,,740,,,,,,,,,,,,,,,,,,,,,3,7,,,358.7264,14,right,0.0085,,1.5,0.3,"[2,3,1]",0.754457255,stimuli/card_100_transparent.png,100,14,0,14,0,1,,,,,,,,,,
,,,,661792d2e2d14691a2719db6,A,2024-07-03_01h56.48.974,Slot Machine Game,2023.1.3,Win32,144.9275362,,,,,,,,,,,,,,,,,,,,,,,,,,,,,,,,,,,361.0531,,,,,,,,,,,,,,,,,,,,,,,,,,,,,,,,,"[1020,550,740]",2,0,2,0,1,,,,
,,,,661792d2e2d14691a2719db6,A,2024-07-03_01h56.48.974,Slot Machine Game,2023.1.3,Win32,144.9275362,,,,,,,,,,,,,,,,,,,,,,,,,,,0,,,,,,,,,,,,,,,,,,,,,4,4,"[7,15]","[[2,3,1],[1,2,3]]",366.0586,0,up,0.1126,,1,0.3,"[2,3,1]",0.979444105,stimuli/card_0_transparent.png,0,0,0,0,0,1,,,,,,,,,,
,,,,661792d2e2d14691a2719db6,A,2024-07-03_01h56.48.974,Slot Machine Game,2023.1.3,Win32,144.9275362,,,,,,,,,,,,,,,,,,,,,,,,,,,10,,,,,,,,,,,,,,,,,,,,,4,4,,,367.9775,1,left,0.0553,,1.5,0.3,"[2,3,1]",0.948757267,stimuli/card_10_transparent.png,10,1,0,1,0,1,,,,,,,,,,
,,,,661792d2e2d14691a2719db6,A,2024-07-03_01h56.48.974,Slot Machine Game,2023.1.3,Win32,144.9275362,,,,,,,,,,,,,,,,,,,,,,,,,,,110,,,,,,,,,,,,,,,,,,,,,4,4,,,370.3528,2,right,0.0349,,1.5,0.3,"[2,3,1]",0.23354997,stimuli/card_100_transparent.png,100,2,0,2,0,1,,,,,,,,,,
,,,,661792d2e2d14691a2719db6,A,2024-07-03_01h56.48.974,Slot Machine Game,2023.1.3,Win32,144.9275362,,,,,,,,,,,,,,,,,,,,,,,,,,,210,,,,,,,,,,,,,,,,,,,,,4,4,,,372.6933,3,right,0.0375,,0.5,0.3,"[2,3,1]",0.396007451,stimuli/card_100_transparent.png,100,3,0,3,0,1,,,,,,,,,,
,,,,661792d2e2d14691a2719db6,A,2024-07-03_01h56.48.974,Slot Machine Game,2023.1.3,Win32,144.9275362,,,,,,,,,,,,,,,,,,,,,,,,,,,310,,,,,,,,,,,,,,,,,,,,,4,4,,,374.0408,4,right,0.7225,,1.5,0.3,"[2,3,1]",0.913766776,stimuli/card_100_transparent.png,100,4,0,4,0,1,,,,,,,,,,
,,,,661792d2e2d14691a2719db6,A,2024-07-03_01h56.48.974,Slot Machine Game,2023.1.3,Win32,144.9275362,,,,,,,,,,,,,,,,,,,,,,,,,,,410,,,,,,,,,,,,,,,,,,,,,4,4,,,377.0759,5,right,0.1476,,0.5,0.3,"[2,3,1]",0.330452998,stimuli/card_100_transparent.png,100,5,0,5,0,1,,,,,,,,,,
,,,,661792d2e2d14691a2719db6,A,2024-07-03_01h56.48.974,Slot Machine Game,2023.1.3,Win32,144.9275362,,,,,,,,,,,,,,,,,,,,,,,,,,,510,,,,,,,,,,,,,,,,,,,,,4,4,,,378.5344,6,right,0.0975,,1,0.3,"[2,3,1]",0.612820347,stimuli/card_100_transparent.png,100,6,0,6,0,1,,,,,,,,,,
,,,,661792d2e2d14691a2719db6,A,2024-07-03_01h56.48.974,Slot Machine Game,2023.1.3,Win32,144.9275362,,,,,,,,,,,,,,,,,,,,,,,,,,,510,,,,,,,,,,,,,,,,,,,,,4,4,,,380.4443,7,right,0.1733,,1,0.3,"[1,2,3]",0.559340768,stimuli/card_0_transparent.png,0,7,0,7,0,1,,,,,,,,,,
,,,,661792d2e2d14691a2719db6,A,2024-07-03_01h56.48.974,Slot Machine Game,2023.1.3,Win32,144.9275362,,,,,,,,,,,,,,,,,,,,,,,,,,,520,,,,,,,,,,,,,,,,,,,,,4,4,,,382.4307,8,up,0.1947,,1.5,0.3,"[1,2,3]",0.213187383,stimuli/card_10_transparent.png,10,8,0,8,0,1,,,,,,,,,,
,,,,661792d2e2d14691a2719db6,A,2024-07-03_01h56.48.974,Slot Machine Game,2023.1.3,Win32,144.9275362,,,,,,,,,,,,,,,,,,,,,,,,,,,620,,,,,,,,,,,,,,,,,,,,,4,4,,,384.9379,9,up,0.1394,,0.5,0.3,"[1,2,3]",0.129081993,stimuli/card_100_transparent.png,100,9,0,9,0,1,,,,,,,,,,
,,,,661792d2e2d14691a2719db6,A,2024-07-03_01h56.48.974,Slot Machine Game,2023.1.3,Win32,144.9275362,,,,,,,,,,,,,,,,,,,,,,,,,,,630,,,,,,,,,,,,,,,,,,,,,4,4,,,386.3826,10,up,0.2359,,1,0.3,"[1,2,3]",0.534528261,stimuli/card_10_transparent.png,10,10,0,10,0,1,,,,,,,,,,
,,,,661792d2e2d14691a2719db6,A,2024-07-03_01h56.48.974,Slot Machine Game,2023.1.3,Win32,144.9275362,,,,,,,,,,,,,,,,,,,,,,,,,,,730,,,,,,,,,,,,,,,,,,,,,4,4,,,388.4314,11,left,0.01,,1,0.3,"[1,2,3]",0.576088118,stimuli/card_100_transparent.png,100,11,0,11,0,1,,,,,,,,,,
,,,,661792d2e2d14691a2719db6,A,2024-07-03_01h56.48.974,Slot Machine Game,2023.1.3,Win32,144.9275362,,,,,,,,,,,,,,,,,,,,,,,,,,,830,,,,,,,,,,,,,,,,,,,,,4,4,,,390.2441,12,left,0.0031,,1,0.3,"[1,2,3]",0.756425601,stimuli/card_100_transparent.png,100,12,0,12,0,1,,,,,,,,,,
,,,,661792d2e2d14691a2719db6,A,2024-07-03_01h56.48.974,Slot Machine Game,2023.1.3,Win32,144.9275362,,,,,,,,,,,,,,,,,,,,,,,,,,,930,,,,,,,,,,,,,,,,,,,,,4,4,,,392.0499,13,left,0.1391,,0.5,0.3,"[1,2,3]",0.907177379,stimuli/card_100_transparent.png,100,13,0,13,0,1,,,,,,,,,,
,,,,661792d2e2d14691a2719db6,A,2024-07-03_01h56.48.974,Slot Machine Game,2023.1.3,Win32,144.9275362,,,,,,,,,,,,,,,,,,,,,,,,,,,1030,,,,,,,,,,,,,,,,,,,,,4,4,,,393.4946,14,left,0.0557,,0.5,0.3,"[1,2,3]",0.851826451,stimuli/card_100_transparent.png,100,14,0,14,0,1,,,,,,,,,,
,,,,661792d2e2d14691a2719db6,A,2024-07-03_01h56.48.974,Slot Machine Game,2023.1.3,Win32,144.9275362,,,,,,,,,,,,,,,,,,,,,,,,,,,,,,,,,,,394.8558,,,,,,,,,,,,,,,,,,,,,,,,,,,,,,,,,"[1020,550,740,1030]",3,0,3,0,1,,,,
,,,,661792d2e2d14691a2719db6,A,2024-07-03_01h56.48.974,Slot Machine Game,2023.1.3,Win32,144.9275362,,,,,,,,,,,,,,,,,,,,,,,,,,,100,,,,,,,,,,,,,,,,,,,,,5,6,"[4,10,15]","[[2,3,1],[1,3,2],[3,2,1]]",399.8613,0,right,0.1183,,0.5,0.3,"[2,3,1]",0.664059917,stimuli/card_100_transparent.png,100,0,0,0,0,1,,,,,,,,,,
,,,,661792d2e2d14691a2719db6,A,2024-07-03_01h56.48.974,Slot Machine Game,2023.1.3,Win32,144.9275362,,,,,,,,,,,,,,,,,,,,,,,,,,,200,,,,,,,,,,,,,,,,,,,,,5,6,,,401.2872,1,right,0.0498,,1.5,0.3,"[2,3,1]",0.507687911,stimuli/card_100_transparent.png,100,1,0,1,0,1,,,,,,,,,,
,,,,661792d2e2d14691a2719db6,A,2024-07-03_01h56.48.974,Slot Machine Game,2023.1.3,Win32,144.9275362,,,,,,,,,,,,,,,,,,,,,,,,,,,200,,,,,,,,,,,,,,,,,,,,,5,6,,,403.6556,2,right,0.0065,,0.5,0.3,"[2,3,1]",0.086226545,stimuli/card_0_transparent.png,0,2,0,2,0,1,,,,,,,,,,
,,,,661792d2e2d14691a2719db6,A,2024-07-03_01h56.48.974,Slot Machine Game,2023.1.3,Win32,144.9275362,,,,,,,,,,,,,,,,,,,,,,,,,,,200,,,,,,,,,,,,,,,,,,,,,5,6,,,404.9752,3,up,0.1472,,0.5,0.3,"[2,3,1]",0.2963951,stimuli/card_0_transparent.png,0,3,0,3,0,1,,,,,,,,,,
,,,,661792d2e2d14691a2719db6,A,2024-07-03_01h56.48.974,Slot Machine Game,2023.1.3,Win32,144.9275362,,,,,,,,,,,,,,,,,,,,,,,,,,,210,,,,,,,,,,,,,,,,,,,,,5,6,,,406.4337,4,left,0.0906,,1.5,0.3,"[1,3,2]",0.139435035,stimuli/card_10_transparent.png,10,4,0,4,0,1,,,,,,,,,,
,,,,661792d2e2d14691a2719db6,A,2024-07-03_01h56.48.974,Slot Machine Game,2023.1.3,Win32,144.9275362,,,,,,,,,,,,,,,,,,,,,,,,,,,310,,,,,,,,,,,,,,,,,,,,,5,6,,,408.8368,5,left,0.2012,,1.5,0.3,"[1,3,2]",0.243901972,stimuli/card_100_transparent.png,100,5,0,5,0,1,,,,,,,,,,
,,,,661792d2e2d14691a2719db6,A,2024-07-03_01h56.48.974,Slot Machine Game,2023.1.3,Win32,144.9275362,,,,,,,,,,,,,,,,,,,,,,,,,,,410,,,,,,,,,,,,,,,,,,,,,5,6,,,411.3578,6,left,0.1391,,1.5,0.3,"[1,3,2]",0.719423695,stimuli/card_100_transparent.png,100,6,0,6,0,1,,,,,,,,,,
,,,,661792d2e2d14691a2719db6,A,2024-07-03_01h56.48.974,Slot Machine Game,2023.1.3,Win32,144.9275362,,,,,,,,,,,,,,,,,,,,,,,,,,,510,,,,,,,,,,,,,,,,,,,,,5,6,,,413.8026,7,left,0.1114,,1.5,0.3,"[1,3,2]",0.848942617,stimuli/card_100_transparent.png,100,7,0,7,0,1,,,,,,,,,,
,,,,661792d2e2d14691a2719db6,A,2024-07-03_01h56.48.974,Slot Machine Game,2023.1.3,Win32,144.9275362,,,,,,,,,,,,,,,,,,,,,,,,,,,510,,,,,,,,,,,,,,,,,,,,,5,6,,,416.2196,8,left,0.1336,,0.5,0.3,"[1,3,2]",0.09643935,stimuli/card_0_transparent.png,0,8,0,8,0,1,,,,,,,,,,
,,,,661792d2e2d14691a2719db6,A,2024-07-03_01h56.48.974,Slot Machine Game,2023.1.3,Win32,144.9275362,,,,,,,,,,,,,,,,,,,,,,,,,,,520,,,,,,,,,,,,,,,,,,,,,5,6,,,417.6591,9,right,0.1264,,1.5,0.3,"[1,3,2]",0.90679862,stimuli/card_10_transparent.png,10,9,0,9,0,1,,,,,,,,,,
,,,,661792d2e2d14691a2719db6,A,2024-07-03_01h56.48.974,Slot Machine Game,2023.1.3,Win32,144.9275362,,,,,,,,,,,,,,,,,,,,,,,,,,,620,,,,,,,,,,,,,,,,,,,,,5,6,,,420.0951,10,right,0.0082,,1,0.3,"[3,2,1]",0.484992254,stimuli/card_100_transparent.png,100,10,0,10,0,1,,,,,,,,,,
,,,,661792d2e2d14691a2719db6,A,2024-07-03_01h56.48.974,Slot Machine Game,2023.1.3,Win32,144.9275362,,,,,,,,,,,,,,,,,,,,,,,,,,,720,,,,,,,,,,,,,,,,,,,,,5,6,,,421.9148,11,right,0.1113,,1,0.3,"[3,2,1]",0.248502243,stimuli/card_100_transparent.png,100,11,0,11,0,1,,,,,,,,,,
,,,,661792d2e2d14691a2719db6,A,2024-07-03_01h56.48.974,Slot Machine Game,2023.1.3,Win32,144.9275362,,,,,,,,,,,,,,,,,,,,,,,,,,,820,,,,,,,,,,,,,,,,,,,,,5,6,,,423.8455,12,right,0.1509,,0.5,0.3,"[3,2,1]",0.422414339,stimuli/card_100_transparent.png,100,12,0,12,0,1,,,,,,,,,,
,,,,661792d2e2d14691a2719db6,A,2024-07-03_01h56.48.974,Slot Machine Game,2023.1.3,Win32,144.9275362,,,,,,,,,,,,,,,,,,,,,,,,,,,920,,,,,,,,,,,,,,,,,,,,,5,6,,,425.3041,13,right,0.0804,,1,0.3,"[3,2,1]",0.572056582,stimuli/card_100_transparent.png,100,13,0,13,0,1,,,,,,,,,,
,,,,661792d2e2d14691a2719db6,A,2024-07-03_01h56.48.974,Slot Machine Game,2023.1.3,Win32,144.9275362,,,,,,,,,,,,,,,,,,,,,,,,,,,1020,,,,,,,,,,,,,,,,,,,,,5,6,,,427.1933,14,right,0.0022,,0.5,0.3,"[3,2,1]",0.491010279,stimuli/card_100_transparent.png,100,14,0,14,0,1,,,,,,,,,,
,,,,661792d2e2d14691a2719db6,A,2024-07-03_01h56.48.974,Slot Machine Game,2023.1.3,Win32,144.9275362,,,,,,,,,,,,,,,,,,,,,,,,,,,,,,,,,,,428.5128,,,,,,,,,,,,,,,,,,,,,,,,,,,,,,,,,"[1020,550,740,1030,1020]",4,0,4,0,1,,,,
,,,,661792d2e2d14691a2719db6,A,2024-07-03_01h56.48.974,Slot Machine Game,2023.1.3,Win32,144.9275362,,,,,,,,,,,,,,,,,,,,,,,,,,,0,,,,,,,,,,,,,,,,,,,,,6,8,"[11,15]","[[2,1,3],[1,2,3]]",433.5185,0,right,0.2852,,1.5,0.3,"[2,1,3]",0.267301558,stimuli/card_0_transparent.png,0,0,0,0,0,1,,,,,,,,,,
,,,,661792d2e2d14691a2719db6,A,2024-07-03_01h56.48.974,Slot Machine Game,2023.1.3,Win32,144.9275362,,,,,,,,,,,,,,,,,,,,,,,,,,,100,,,,,,,,,,,,,,,,,,,,,6,8,,,436.111,1,up,0.0419,,0.5,0.3,"[2,1,3]",0.792105864,stimuli/card_100_transparent.png,100,1,0,1,0,1,,,,,,,,,,
,,,,661792d2e2d14691a2719db6,A,2024-07-03_01h56.48.974,Slot Machine Game,2023.1.3,Win32,144.9275362,,,,,,,,,,,,,,,,,,,,,,,,,,,200,,,,,,,,,,,,,,,,,,,,,6,8,,,437.4618,2,up,0.0765,,0.5,0.3,"[2,1,3]",0.415452678,stimuli/card_100_transparent.png,100,2,0,2,0,1,,,,,,,,,,
,,,,661792d2e2d14691a2719db6,A,2024-07-03_01h56.48.974,Slot Machine Game,2023.1.3,Win32,144.9275362,,,,,,,,,,,,,,,,,,,,,,,,,,,300,,,,,,,,,,,,,,,,,,,,,6,8,,,438.8543,3,up,0.0594,,1.5,0.3,"[2,1,3]",0.210175342,stimuli/card_100_transparent.png,100,3,0,3,0,1,,,,,,,,,,
,,,,661792d2e2d14691a2719db6,A,2024-07-03_01h56.48.974,Slot Machine Game,2023.1.3,Win32,144.9275362,,,,,,,,,,,,,,,,,,,,,,,,,,,400,,,,,,,,,,,,,,,,,,,,,6,8,,,441.2228,4,up,0.0105,,1,0.3,"[2,1,3]",0.745707038,stimuli/card_100_transparent.png,100,4,0,4,0,1,,,,,,,,,,
,,,,661792d2e2d14691a2719db6,A,2024-07-03_01h56.48.974,Slot Machine Game,2023.1.3,Win32,144.9275362,,,,,,,,,,,,,,,,,,,,,,,,,,,500,,,,,,,,,,,,,,,,,,,,,6,8,,,443.0424,5,up,0.0773,,1,0.3,"[2,1,3]",0.776404728,stimuli/card_100_transparent.png,100,5,0,5,0,1,,,,,,,,,,
,,,,661792d2e2d14691a2719db6,A,2024-07-03_01h56.48.974,Slot Machine Game,2023.1.3,Win32,144.9275362,,,,,,,,,,,,,,,,,,,,,,,,,,,600,,,,,,,,,,,,,,,,,,,,,6,8,,,444.9385,6,up,0.1139,,1.5,0.3,"[2,1,3]",0.831624858,stimuli/card_100_transparent.png,100,6,0,6,0,1,,,,,,,,,,
,,,,661792d2e2d14691a2719db6,A,2024-07-03_01h56.48.974,Slot Machine Game,2023.1.3,Win32,144.9275362,,,,,,,,,,,,,,,,,,,,,,,,,,,700,,,,,,,,,,,,,,,,,,,,,6,8,,,447.3624,7,up,0.09,,0.5,0.3,"[2,1,3]",0.449197023,stimuli/card_100_transparent.png,100,7,0,7,0,1,,,,,,,,,,
,,,,661792d2e2d14691a2719db6,A,2024-07-03_01h56.48.974,Slot Machine Game,2023.1.3,Win32,144.9275362,,,,,,,,,,,,,,,,,,,,,,,,,,,800,,,,,,,,,,,,,,,,,,,,,6,8,,,448.7653,8,up,0.1529,,1.5,0.3,"[2,1,3]",0.432184918,stimuli/card_100_transparent.png,100,8,0,8,0,1,,,,,,,,,,
,,,,661792d2e2d14691a2719db6,A,2024-07-03_01h56.48.974,Slot Machine Game,2023.1.3,Win32,144.9275362,,,,,,,,,,,,,,,,,,,,,,,,,,,810,,,,,,,,,,,,,,,,,,,,,6,8,,,451.224,9,up,0.1053,,1,0.3,"[2,1,3]",0.131991287,stimuli/card_10_transparent.png,10,9,0,9,0,1,,,,,,,,,,
,,,,661792d2e2d14691a2719db6,A,2024-07-03_01h56.48.974,Slot Machine Game,2023.1.3,Win32,144.9275362,,,,,,,,,,,,,,,,,,,,,,,,,,,820,,,,,,,,,,,,,,,,,,,,,6,8,,,453.1409,10,left,0.073,,0.5,0.3,"[2,1,3]",0.716154652,stimuli/card_10_transparent.png,10,10,0,10,0,1,,,,,,,,,,
,,,,661792d2e2d14691a2719db6,A,2024-07-03_01h56.48.974,Slot Machine Game,2023.1.3,Win32,144.9275362,,,,,,,,,,,,,,,,,,,,,,,,,,,820,,,,,,,,,,,,,,,,,,,,,6,8,,,454.5178,11,right,0.0861,,0.5,0.3,"[1,2,3]",0.517807848,stimuli/card_0_transparent.png,0,11,0,11,0,1,,,,,,,,,,
,,,,661792d2e2d14691a2719db6,A,2024-07-03_01h56.48.974,Slot Machine Game,2023.1.3,Win32,144.9275362,,,,,,,,,,,,,,,,,,,,,,,,,,,830,,,,,,,,,,,,,,,,,,,,,6,8,,,455.9191,12,up,0.1523,,1.5,0.3,"[1,2,3]",0.597733814,stimuli/card_10_transparent.png,10,12,0,12,0,1,,,,,,,,,,
,,,,661792d2e2d14691a2719db6,A,2024-07-03_01h56.48.974,Slot Machine Game,2023.1.3,Win32,144.9275362,,,,,,,,,,,,,,,,,,,,,,,,,,,840,,,,,,,,,,,,,,,,,,,,,6,8,,,458.3915,13,up,0.1734,,1,0.3,"[1,2,3]",0.47228043,stimuli/card_10_transparent.png,10,13,0,13,0,1,,,,,,,,,,
,,,,661792d2e2d14691a2719db6,A,2024-07-03_01h56.48.974,Slot Machine Game,2023.1.3,Win32,144.9275362,,,,,,,,,,,,,,,,,,,,,,,,,,,840,,,,,,,,,,,,,,,,,,,,,6,8,,,460.3779,14,right,0.1539,,0.5,0.3,"[1,2,3]",0.493687534,stimuli/card_0_transparent.png,0,14,0,14,0,1,,,,,,,,,,
,,,,661792d2e2d14691a2719db6,A,2024-07-03_01h56.48.974,Slot Machine Game,2023.1.3,Win32,144.9275362,,,,,,,,,,,,,,,,,,,,,,,,,,,,,,,,,,,461.8433,,,,,,,,,,,,,,,,,,,,,,,,,,,,,,,,,"[1020,550,740,1030,1020,840]",5,0,5,0,1,,,,
,,,,661792d2e2d14691a2719db6,A,2024-07-03_01h56.48.974,Slot Machine Game,2023.1.3,Win32,144.9275362,,,,,,,,,,,,,,,,,,,,,,,,,,,100,,,,,,,,,,,,,,,,,,,,,7,9,"[8,15]","[[3,2,1],[3,1,2]]",466.8492,0,right,0.1936,,1.5,0.3,"[3,2,1]",0.786024017,stimuli/card_100_transparent.png,100,0,0,0,0,1,,,,,,,,,,
,,,,661792d2e2d14691a2719db6,A,2024-07-03_01h56.48.974,Slot Machine Game,2023.1.3,Win32,144.9275362,,,,,,,,,,,,,,,,,,,,,,,,,,,200,,,,,,,,,,,,,,,,,,,,,7,9,,,469.3513,1,right,0.0483,,0.5,0.3,"[3,2,1]",0.855609814,stimuli/card_100_transparent.png,100,1,0,1,0,1,,,,,,,,,,
,,,,661792d2e2d14691a2719db6,A,2024-07-03_01h56.48.974,Slot Machine Game,2023.1.3,Win32,144.9275362,,,,,,,,,,,,,,,,,,,,,,,,,,,300,,,,,,,,,,,,,,,,,,,,,7,9,,,470.7125,2,right,0.0905,,0.5,0.3,"[3,2,1]",0.994373466,stimuli/card_100_transparent.png,100,2,0,2,0,1,,,,,,,,,,
,,,,661792d2e2d14691a2719db6,A,2024-07-03_01h56.48.974,Slot Machine Game,2023.1.3,Win32,144.9275362,,,,,,,,,,,,,,,,,,,,,,,,,,,400,,,,,,,,,,,,,,,,,,,,,7,9,,,472.1154,3,right,0.0335,,1,0.3,"[3,2,1]",0.225505035,stimuli/card_100_transparent.png,100,3,0,3,0,1,,,,,,,,,,
,,,,661792d2e2d14691a2719db6,A,2024-07-03_01h56.48.974,Slot Machine Game,2023.1.3,Win32,144.9275362,,,,,,,,,,,,,,,,,,,,,,,,,,,500,,,,,,,,,,,,,,,,,,,,,7,9,,,473.956,4,right,0.101,,0.5,0.3,"[3,2,1]",0.972976549,stimuli/card_100_transparent.png,100,4,0,4,0,1,,,,,,,,,,
,,,,661792d2e2d14691a2719db6,A,2024-07-03_01h56.48.974,Slot Machine Game,2023.1.3,Win32,144.9275362,,,,,,,,,,,,,,,,,,,,,,,,,,,600,,,,,,,,,,,,,,,,,,,,,7,9,,,475.3659,5,right,0.1316,,1.5,0.3,"[3,2,1]",0.7037934,stimuli/card_100_transparent.png,100,5,0,5,0,1,,,,,,,,,,
,,,,661792d2e2d14691a2719db6,A,2024-07-03_01h56.48.974,Slot Machine Game,2023.1.3,Win32,144.9275362,,,,,,,,,,,,,,,,,,,,,,,,,,,700,,,,,,,,,,,,,,,,,,,,,7,9,,,477.8175,6,right,0.0002,,0.5,0.3,"[3,2,1]",0.30353425,stimuli/card_100_transparent.png,100,6,0,6,0,1,,,,,,,,,,
,,,,661792d2e2d14691a2719db6,A,2024-07-03_01h56.48.974,Slot Machine Game,2023.1.3,Win32,144.9275362,,,,,,,,,,,,,,,,,,,,,,,,,,,800,,,,,,,,,,,,,,,,,,,,,7,9,,,479.1233,7,right,0.0722,,1.5,0.3,"[3,2,1]",0.503804407,stimuli/card_100_transparent.png,100,7,0,7,0,1,,,,,,,,,,
,,,,661792d2e2d14691a2719db6,A,2024-07-03_01h56.48.974,Slot Machine Game,2023.1.3,Win32,144.9275362,,,,,,,,,,,,,,,,,,,,,,,,,,,810,,,,,,,,,,,,,,,,,,,,,7,9,,,481.5055,8,right,0.1324,,1,0.3,"[3,1,2]",0.599158374,stimuli/card_10_transparent.png,10,8,0,8,0,1,,,,,,,,,,
,,,,661792d2e2d14691a2719db6,A,2024-07-03_01h56.48.974,Slot Machine Game,2023.1.3,Win32,144.9275362,,,,,,,,,,,,,,,,,,,,,,,,,,,820,,,,,,,,,,,,,,,,,,,,,7,9,,,483.4571,9,right,0.0788,,1.5,0.3,"[3,1,2]",0.613210058,stimuli/card_10_transparent.png,10,9,0,9,0,1,,,,,,,,,,
,,,,661792d2e2d14691a2719db6,A,2024-07-03_01h56.48.974,Slot Machine Game,2023.1.3,Win32,144.9275362,,,,,,,,,,,,,,,,,,,,,,,,,,,820,,,,,,,,,,,,,,,,,,,,,7,9,,,485.8463,10,left,0.2293,,1.5,0.3,"[3,1,2]",0.216124113,stimuli/card_0_transparent.png,0,10,0,10,0,1,,,,,,,,,,
,,,,661792d2e2d14691a2719db6,A,2024-07-03_01h56.48.974,Slot Machine Game,2023.1.3,Win32,144.9275362,,,,,,,,,,,,,,,,,,,,,,,,,,,820,,,,,,,,,,,,,,,,,,,,,7,9,,,488.3814,11,up,0.0416,,1.5,0.3,"[3,1,2]",0.009437424,stimuli/card_0_transparent.png,0,11,0,11,0,1,,,,,,,,,,
,,,,661792d2e2d14691a2719db6,A,2024-07-03_01h56.48.974,Slot Machine Game,2023.1.3,Win32,144.9275362,,,,,,,,,,,,,,,,,,,,,,,,,,,820,,,,,,,,,,,,,,,,,,,,,7,9,,,490.7427,12,left,0.0356,,0.5,0.3,"[3,1,2]",0.239252337,stimuli/card_0_transparent.png,0,12,0,12,0,1,,,,,,,,,,
,,,,661792d2e2d14691a2719db6,A,2024-07-03_01h56.48.974,Slot Machine Game,2023.1.3,Win32,144.9275362,,,,,,,,,,,,,,,,,,,,,,,,,,,830,,,,,,,,,,,,,,,,,,,,,7,9,,,492.0832,13,right,0.0067,,0.5,0.3,"[3,1,2]",0.610369386,stimuli/card_10_transparent.png,10,13,0,13,0,1,,,,,,,,,,
,,,,661792d2e2d14691a2719db6,A,2024-07-03_01h56.48.974,Slot Machine Game,2023.1.3,Win32,144.9275362,,,,,,,,,,,,,,,,,,,,,,,,,,,840,,,,,,,,,,,,,,,,,,,,,7,9,,,493.4028,14,right,0.0151,,0.5,0.3,"[3,1,2]",0.95495444,stimuli/card_10_transparent.png,10,14,0,14,0,1,,,,,,,,,,
,,,,661792d2e2d14691a2719db6,A,2024-07-03_01h56.48.974,Slot Machine Game,2023.1.3,Win32,144.9275362,,,,,,,,,,,,,,,,,,,,,,,,,,,,,,,,,,,494.7294,,,,,,,,,,,,,,,,,,,,,,,,,,,,,,,,,"[1020,550,740,1030,1020,840,840]",6,0,6,0,1,,,,
,,,,661792d2e2d14691a2719db6,A,2024-07-03_01h56.48.974,Slot Machine Game,2023.1.3,Win32,144.9275362,,,,,,,,,,,,,,,,,,,,,,,,,,,0,,,,,,,,,,,,,,,,,,,,,8,2,"[6,15]","[[1,3,2],[3,2,1]]",499.7349,0,up,0.0944,,1,0.3,"[1,3,2]",0.846440239,stimuli/card_0_transparent.png,0,0,0,0,0,1,,,,,,,,,,
,,,,661792d2e2d14691a2719db6,A,2024-07-03_01h56.48.974,Slot Machine Game,2023.1.3,Win32,144.9275362,,,,,,,,,,,,,,,,,,,,,,,,,,,100,,,,,,,,,,,,,,,,,,,,,8,2,,,501.633,1,left,0.0211,,0.5,0.3,"[1,3,2]",0.824147225,stimuli/card_100_transparent.png,100,1,0,1,0,1,,,,,,,,,,
,,,,661792d2e2d14691a2719db6,A,2024-07-03_01h56.48.974,Slot Machine Game,2023.1.3,Win32,144.9275362,,,,,,,,,,,,,,,,,,,,,,,,,,,100,,,,,,,,,,,,,,,,,,,,,8,2,,,502.9735,2,left,0.0515,,1.5,0.3,"[1,3,2]",0.048147697,stimuli/card_0_transparent.png,0,2,0,2,0,1,,,,,,,,,,
,,,,661792d2e2d14691a2719db6,A,2024-07-03_01h56.48.974,Slot Machine Game,2023.1.3,Win32,144.9275362,,,,,,,,,,,,,,,,,,,,,,,,,,,200,,,,,,,,,,,,,,,,,,,,,8,2,,,505.3418,3,left,0.0721,,1,0.3,"[1,3,2]",0.650725489,stimuli/card_100_transparent.png,100,3,0,3,0,1,,,,,,,,,,
,,,,661792d2e2d14691a2719db6,A,2024-07-03_01h56.48.974,Slot Machine Game,2023.1.3,Win32,144.9275362,,,,,,,,,,,,,,,,,,,,,,,,,,,300,,,,,,,,,,,,,,,,,,,,,8,2,,,507.2309,4,left,0.023,,1.5,0.3,"[1,3,2]",0.817990627,stimuli/card_100_transparent.png,100,4,0,4,0,1,,,,,,,,,,
,,,,661792d2e2d14691a2719db6,A,2024-07-03_01h56.48.974,Slot Machine Game,2023.1.3,Win32,144.9275362,,,,,,,,,,,,,,,,,,,,,,,,,,,400,,,,,,,,,,,,,,,,,,,,,8,2,,,509.5715,5,left,0.0725,,1,0.3,"[1,3,2]",0.482578729,stimuli/card_100_transparent.png,100,5,0,5,0,1,,,,,,,,,,
,,,,661792d2e2d14691a2719db6,A,2024-07-03_01h56.48.974,Slot Machine Game,2023.1.3,Win32,144.9275362,,,,,,,,,,,,,,,,,,,,,,,,,,,500,,,,,,,,,,,,,,,,,,,,,8,2,,,511.4606,6,left,0.0497,,1.5,0.3,"[3,2,1]",0.093154016,stimuli/card_100_transparent.png,100,6,0,6,0,1,,,,,,,,,,
,,,,661792d2e2d14691a2719db6,A,2024-07-03_01h56.48.974,Slot Machine Game,2023.1.3,Win32,144.9275362,,,,,,,,,,,,,,,,,,,,,,,,,,,500,,,,,,,,,,,,,,,,,,,,,8,2,,,513.8221,7,left,0.3093,,0.5,0.3,"[3,2,1]",0.509563424,stimuli/card_0_transparent.png,0,7,0,7,0,1,,,,,,,,,,
,,,,661792d2e2d14691a2719db6,A,2024-07-03_01h56.48.974,Slot Machine Game,2023.1.3,Win32,144.9275362,,,,,,,,,,,,,,,,,,,,,,,,,,,500,,,,,,,,,,,,,,,,,,,,,8,2,,,515.4402,8,left,0.0001,,1,0.3,"[3,2,1]",0.472196146,stimuli/card_0_transparent.png,0,8,0,8,0,1,,,,,,,,,,
,,,,661792d2e2d14691a2719db6,A,2024-07-03_01h56.48.974,Slot Machine Game,2023.1.3,Win32,144.9275362,,,,,,,,,,,,,,,,,,,,,,,,,,,510,,,,,,,,,,,,,,,,,,,,,8,2,,,517.246,9,right,0.1669,,1,0.3,"[3,2,1]",0.146204024,stimuli/card_10_transparent.png,10,9,0,9,0,1,,,,,,,,,,
,,,,661792d2e2d14691a2719db6,A,2024-07-03_01h56.48.974,Slot Machine Game,2023.1.3,Win32,144.9275362,,,,,,,,,,,,,,,,,,,,,,,,,,,610,,,,,,,,,,,,,,,,,,,,,8,2,,,519.2254,10,right,0.1636,,0.5,0.3,"[3,2,1]",0.810136431,stimuli/card_100_transparent.png,100,10,0,10,0,1,,,,,,,,,,
,,,,661792d2e2d14691a2719db6,A,2024-07-03_01h56.48.974,Slot Machine Game,2023.1.3,Win32,144.9275362,,,,,,,,,,,,,,,,,,,,,,,,,,,610,,,,,,,,,,,,,,,,,,,,,8,2,,,520.6979,11,right,0.0984,,1,0.3,"[3,2,1]",0.046201626,stimuli/card_0_transparent.png,0,11,0,11,0,1,,,,,,,,,,
,,,,661792d2e2d14691a2719db6,A,2024-07-03_01h56.48.974,Slot Machine Game,2023.1.3,Win32,144.9275362,,,,,,,,,,,,,,,,,,,,,,,,,,,620,,,,,,,,,,,,,,,,,,,,,8,2,,,522.6148,12,up,0.1039,,0.5,0.3,"[3,2,1]",0.363246473,stimuli/card_10_transparent.png,10,12,0,12,0,1,,,,,,,,,,
,,,,661792d2e2d14691a2719db6,A,2024-07-03_01h56.48.974,Slot Machine Game,2023.1.3,Win32,144.9275362,,,,,,,,,,,,,,,,,,,,,,,,,,,620,,,,,,,,,,,,,,,,,,,,,8,2,,,524.0386,13,up,0.0214,,0.5,0.3,"[3,2,1]",0.002939111,stimuli/card_0_transparent.png,0,13,0,13,0,1,,,,,,,,,,
,,,,661792d2e2d14691a2719db6,A,2024-07-03_01h56.48.974,Slot Machine Game,2023.1.3,Win32,144.9275362,,,,,,,,,,,,,,,,,,,,,,,,,,,720,,,,,,,,,,,,,,,,,,,,,8,2,,,525.3789,14,right,0.1044,,0.5,0.3,"[3,2,1]",0.815932104,stimuli/card_100_transparent.png,100,14,0,14,0,1,,,,,,,,,,
,,,,661792d2e2d14691a2719db6,A,2024-07-03_01h56.48.974,Slot Machine Game,2023.1.3,Win32,144.9275362,,,,,,,,,,,,,,,,,,,,,,,,,,,,,,,,,,,526.7889,,,,,,,,,,,,,,,,,,,,,,,,,,,,,,,,,"[1020,550,740,1030,1020,840,840,720]",7,0,7,0,1,,,,
,,,,661792d2e2d14691a2719db6,A,2024-07-03_01h56.48.974,Slot Machine Game,2023.1.3,Win32,144.9275362,,,,,,,,,,,,,,,,,,,,,,,,,,,0,,,,,,,,,,,,,,,,,,,,,9,10,"[10,15]","[[3,1,2],[1,3,2]]",531.7945,0,left,0.0794,,1,0.3,"[3,1,2]",0.331827514,stimuli/card_0_transparent.png,0,0,0,0,0,1,,,,,,,,,,
,,,,661792d2e2d14691a2719db6,A,2024-07-03_01h56.48.974,Slot Machine Game,2023.1.3,Win32,144.9275362,,,,,,,,,,,,,,,,,,,,,,,,,,,100,,,,,,,,,,,,,,,,,,,,,9,10,,,533.6856,1,up,0.0902,,1.5,0.3,"[3,1,2]",0.785645634,stimuli/card_100_transparent.png,100,1,0,1,0,1,,,,,,,,,,
,,,,661792d2e2d14691a2719db6,A,2024-07-03_01h56.48.974,Slot Machine Game,2023.1.3,Win32,144.9275362,,,,,,,,,,,,,,,,,,,,,,,,,,,200,,,,,,,,,,,,,,,,,,,,,9,10,,,536.0886,2,up,0.0835,,1,0.3,"[3,1,2]",0.942107956,stimuli/card_100_transparent.png,100,2,0,2,0,1,,,,,,,,,,
,,,,661792d2e2d14691a2719db6,A,2024-07-03_01h56.48.974,Slot Machine Game,2023.1.3,Win32,144.9275362,,,,,,,,,,,,,,,,,,,,,,,,,,,300,,,,,,,,,,,,,,,,,,,,,9,10,,,537.9778,3,up,0.0714,,1,0.3,"[3,1,2]",0.434360515,stimuli/card_100_transparent.png,100,3,0,3,0,1,,,,,,,,,,
,,,,661792d2e2d14691a2719db6,A,2024-07-03_01h56.48.974,Slot Machine Game,2023.1.3,Win32,144.9275362,,,,,,,,,,,,,,,,,,,,,,,,,,,300,,,,,,,,,,,,,,,,,,,,,9,10,,,539.8531,4,up,0.1669,,0.5,0.3,"[3,1,2]",0.092329551,stimuli/card_0_transparent.png,0,4,0,4,0,1,,,,,,,,,,
,,,,661792d2e2d14691a2719db6,A,2024-07-03_01h56.48.974,Slot Machine Game,2023.1.3,Win32,144.9275362,,,,,,,,,,,,,,,,,,,,,,,,,,,310,,,,,,,,,,,,,,,,,,,,,9,10,,,541.3324,5,right,0.1206,,1,0.3,"[3,1,2]",0.816394774,stimuli/card_10_transparent.png,10,5,0,5,0,1,,,,,,,,,,
,,,,661792d2e2d14691a2719db6,A,2024-07-03_01h56.48.974,Slot Machine Game,2023.1.3,Win32,144.9275362,,,,,,,,,,,,,,,,,,,,,,,,,,,320,,,,,,,,,,,,,,,,,,,,,9,10,,,543.2632,6,right,0.1183,,1,0.3,"[3,1,2]",0.368680475,stimuli/card_10_transparent.png,10,6,0,6,0,1,,,,,,,,,,
,,,,661792d2e2d14691a2719db6,A,2024-07-03_01h56.48.974,Slot Machine Game,2023.1.3,Win32,144.9275362,,,,,,,,,,,,,,,,,,,,,,,,,,,420,,,,,,,,,,,,,,,,,,,,,9,10,,,545.1871,7,up,0.0427,,1.5,0.3,"[3,1,2]",0.856230789,stimuli/card_100_transparent.png,100,7,0,7,0,1,,,,,,,,,,
,,,,661792d2e2d14691a2719db6,A,2024-07-03_01h56.48.974,Slot Machine Game,2023.1.3,Win32,144.9275362,,,,,,,,,,,,,,,,,,,,,,,,,,,520,,,,,,,,,,,,,,,,,,,,,9,10,,,547.5484,8,up,0.0143,,1,0.3,"[3,1,2]",0.918526132,stimuli/card_100_transparent.png,100,8,0,8,0,1,,,,,,,,,,
,,,,661792d2e2d14691a2719db6,A,2024-07-03_01h56.48.974,Slot Machine Game,2023.1.3,Win32,144.9275362,,,,,,,,,,,,,,,,,,,,,,,,,,,620,,,,,,,,,,,,,,,,,,,,,9,10,,,549.3714,9,up,0.1878,,1,0.3,"[3,1,2]",0.360174374,stimuli/card_100_transparent.png,100,9,0,9,0,1,,,,,,,,,,
,,,,661792d2e2d14691a2719db6,A,2024-07-03_01h56.48.974,Slot Machine Game,2023.1.3,Win32,144.9275362,,,,,,,,,,,,,,,,,,,,,,,,,,,620,,,,,,,,,,,,,,,,,,,,,9,10,,,551.3753,10,up,0.3697,,1.5,0.3,"[1,3,2]",0.249742951,stimuli/card_0_transparent.png,0,10,0,10,0,1,,,,,,,,,,
,,,,661792d2e2d14691a2719db6,A,2024-07-03_01h56.48.974,Slot Machine Game,2023.1.3,Win32,144.9275362,,,,,,,,,,,,,,,,,,,,,,,,,,,620,,,,,,,,,,,,,,,,,,,,,9,10,,,554.0631,11,up,0.215,,1,0.3,"[1,3,2]",0.972464129,stimuli/card_0_transparent.png,0,11,0,11,0,1,,,,,,,,,,
,,,,661792d2e2d14691a2719db6,A,2024-07-03_01h56.48.974,Slot Machine Game,2023.1.3,Win32,144.9275362,,,,,,,,,,,,,,,,,,,,,,,,,,,720,,,,,,,,,,,,,,,,,,,,,9,10,,,556.0911,12,left,0.1873,,0.5,0.3,"[1,3,2]",0.586128263,stimuli/card_100_transparent.png,100,12,0,12,0,1,,,,,,,,,,
,,,,661792d2e2d14691a2719db6,A,2024-07-03_01h56.48.974,Slot Machine Game,2023.1.3,Win32,144.9275362,,,,,,,,,,,,,,,,,,,,,,,,,,,720,,,,,,,,,,,,,,,,,,,,,9,10,,,557.5914,13,left,0.0204,,0.5,0.3,"[1,3,2]",0.002787659,stimuli/card_0_transparent.png,0,13,0,13,0,1,,,,,,,,,,
,,,,661792d2e2d14691a2719db6,A,2024-07-03_01h56.48.974,Slot Machine Game,2023.1.3,Win32,144.9275362,,,,,,,,,,,,,,,,,,,,,,,,,,,820,,,,,,,,,,,,,,,,,,,,,9,10,,,558.9282,14,left,0.2984,,1,0.3,"[1,3,2]",0.960786881,stimuli/card_100_transparent.png,100,14,0,14,0,1,,,,,,,,,,
,,,,661792d2e2d14691a2719db6,A,2024-07-03_01h56.48.974,Slot Machine Game,2023.1.3,Win32,144.9275362,,,,,,,,,,,,,,,,,,,,,,,,,,,,,,,,,,,561.0432,,,,,,,,,,,,,,,,,,,,,,,,,,,,,,,,,"[1020,550,740,1030,1020,840,840,720,820]",8,0,8,0,1,,,,
,,,,661792d2e2d14691a2719db6,A,2024-07-03_01h56.48.974,Slot Machine Game,2023.1.3,Win32,144.9275362,,,,,,,,,,,,,,,,,,,,,,,,,,,0,,,,,,,,,,,,,,,,,,,,,10,3,"[15,15]","[[3,1,2],[3,1,2]]",566.0487,0,right,0.1947,,1.5,0.3,"[3,1,2]",0.076305773,stimuli/card_0_transparent.png,0,0,0,0,0,1,,,,,,,,,,
,,,,661792d2e2d14691a2719db6,A,2024-07-03_01h56.48.974,Slot Machine Game,2023.1.3,Win32,144.9275362,,,,,,,,,,,,,,,,,,,,,,,,,,,10,,,,,,,,,,,,,,,,,,,,,10,3,,,568.5511,1,up,0.2012,,1.5,0.3,"[3,1,2]",0.107744652,stimuli/card_10_transparent.png,10,1,0,1,0,1,,,,,,,,,,
,,,,661792d2e2d14691a2719db6,A,2024-07-03_01h56.48.974,Slot Machine Game,2023.1.3,Win32,144.9275362,,,,,,,,,,,,,,,,,,,,,,,,,,,110,,,,,,,,,,,,,,,,,,,,,10,3,,,571.0722,2,up,0.0978,,1,0.3,"[3,1,2]",0.772719064,stimuli/card_100_transparent.png,100,2,0,2,0,1,,,,,,,,,,
,,,,661792d2e2d14691a2719db6,A,2024-07-03_01h56.48.974,Slot Machine Game,2023.1.3,Win32,144.9275362,,,,,,,,,,,,,,,,,,,,,,,,,,,210,,,,,,,,,,,,,,,,,,,,,10,3,,,572.9891,3,up,0.0847,,0.5,0.3,"[3,1,2]",0.263340779,stimuli/card_100_transparent.png,100,3,0,3,0,1,,,,,,,,,,
,,,,661792d2e2d14691a2719db6,A,2024-07-03_01h56.48.974,Slot Machine Game,2023.1.3,Win32,144.9275362,,,,,,,,,,,,,,,,,,,,,,,,,,,310,,,,,,,,,,,,,,,,,,,,,10,3,,,574.3851,4,up,0.0489,,1.5,0.3,"[3,1,2]",0.625898877,stimuli/card_100_transparent.png,100,4,0,4,0,1,,,,,,,,,,
,,,,661792d2e2d14691a2719db6,A,2024-07-03_01h56.48.974,Slot Machine Game,2023.1.3,Win32,144.9275362,,,,,,,,,,,,,,,,,,,,,,,,,,,310,,,,,,,,,,,,,,,,,,,,,10,3,,,576.7396,5,up,0.0434,,0.5,0.3,"[3,1,2]",0.000656555,stimuli/card_0_transparent.png,0,5,0,5,0,1,,,,,,,,,,
,,,,661792d2e2d14691a2719db6,A,2024-07-03_01h56.48.974,Slot Machine Game,2023.1.3,Win32,144.9275362,,,,,,,,,,,,,,,,,,,,,,,,,,,410,,,,,,,,,,,,,,,,,,,,,10,3,,,578.1009,6,up,0.4735,,1,0.3,"[3,1,2]",0.258282646,stimuli/card_100_transparent.png,100,6,0,6,0,1,,,,,,,,,,
,,,,661792d2e2d14691a2719db6,A,2024-07-03_01h56.48.974,Slot Machine Game,2023.1.3,Win32,144.9275362,,,,,,,,,,,,,,,,,,,,,,,,,,,410,,,,,,,,,,,,,,,,,,,,,10,3,,,580.3859,7,up,0.107,,1.5,0.3,"[3,1,2]",0.078831268,stimuli/card_0_transparent.png,0,7,0,7,0,1,,,,,,,,,,
,,,,661792d2e2d14691a2719db6,A,2024-07-03_01h56.48.974,Slot Machine Game,2023.1.3,Win32,144.9275362,,,,,,,,,,,,,,,,,,,,,,,,,,,510,,,,,,,,,,,,,,,,,,,,,10,3,,,582.8028,8,up,0.181,,0.5,0.3,"[3,1,2]",0.270753027,stimuli/card_100_transparent.png,100,8,0,8,0,1,,,,,,,,,,
,,,,661792d2e2d14691a2719db6,A,2024-07-03_01h56.48.974,Slot Machine Game,2023.1.3,Win32,144.9275362,,,,,,,,,,,,,,,,,,,,,,,,,,,520,,,,,,,,,,,,,,,,,,,,,10,3,,,584.2923,9,up,0.208,,1.5,0.3,"[3,1,2]",0.121197212,stimuli/card_10_transparent.png,10,9,0,9,0,1,,,,,,,,,,
,,,,661792d2e2d14691a2719db6,A,2024-07-03_01h56.48.974,Slot Machine Game,2023.1.3,Win32,144.9275362,,,,,,,,,,,,,,,,,,,,,,,,,,,620,,,,,,,,,,,,,,,,,,,,,10,3,,,586.8172,10,up,0.0492,,1.5,0.3,"[3,1,2]",0.498036329,stimuli/card_100_transparent.png,100,10,0,10,0,1,,,,,,,,,,
,,,,661792d2e2d14691a2719db6,A,2024-07-03_01h56.48.974,Slot Machine Game,2023.1.3,Win32,144.9275362,,,,,,,,,,,,,,,,,,,,,,,,,,,720,,,,,,,,,,,,,,,,,,,,,10,3,,,589.1786,11,up,0.1393,,1.5,0.3,"[3,1,2]",0.876691036,stimuli/card_100_transparent.png,100,11,0,11,0,1,,,,,,,,,,
,,,,661792d2e2d14691a2719db6,A,2024-07-03_01h56.48.974,Slot Machine Game,2023.1.3,Win32,144.9275362,,,,,,,,,,,,,,,,,,,,,,,,,,,730,,,,,,,,,,,,,,,,,,,,,10,3,,,591.6372,12,up,0.1546,,0.5,0.3,"[3,1,2]",0.183802907,stimuli/card_10_transparent.png,10,12,0,12,0,1,,,,,,,,,,
,,,,661792d2e2d14691a2719db6,A,2024-07-03_01h56.48.974,Slot Machine Game,2023.1.3,Win32,144.9275362,,,,,,,,,,,,,,,,,,,,,,,,,,,830,,,,,,,,,,,,,,,,,,,,,10,3,,,593.1027,13,up,0.0906,,0.5,0.3,"[3,1,2]",0.887160361,stimuli/card_100_transparent.png,100,13,0,13,0,1,,,,,,,,,,
,,,,661792d2e2d14691a2719db6,A,2024-07-03_01h56.48.974,Slot Machine Game,2023.1.3,Win32,144.9275362,,,,,,,,,,,,,,,,,,,,,,,,,,,840,,,,,,,,,,,,,,,,,,,,,10,3,,,594.4987,14,up,0.2219,,1.5,0.3,"[3,1,2]",0.107876932,stimuli/card_10_transparent.png,10,14,0,14,0,1,,,,,,,,,,
,,,,661792d2e2d14691a2719db6,A,2024-07-03_01h56.48.974,Slot Machine Game,2023.1.3,Win32,144.9275362,,,,,,,,,,,,,,,,,,,,,,,,,,,,,,,,,,,597.0338,,,,,,,,,,,,,,,,,,,,,,,,,,,,,,,,,"[1020,550,740,1030,1020,840,840,720,820,840]",9,0,9,0,1,,,,
,,,,661792d2e2d14691a2719db6,A,2024-07-03_01h56.48.974,Slot Machine Game,2023.1.3,Win32,144.9275362,,,,,,,,,,,,,,,,,,,,,,,,,,,,,,,,,,,,,,,,,,,,,,,,,,,,,,,,,,,,,,,,,,,,,,,,,,9,"[1020,550,740,1030,1020,840,840,720,820,840]",10.2,2024-07-03_02h06.55.061
