key_resp_welcome_started,key_resp_welcome_keys,key_resp_welcome_rt,key_resp_welcome_duration,prolific_id,path_id,date,expName,psychopyVersion,OS,frameRate,key_resp_instruction1_started,key_resp_instruction1_keys,key_resp_instruction1_rt,key_resp_instruction1_duration,key_resp_instruction2_started,key_resp_instruction2_keys,key_resp_instruction2_rt,key_resp_instruction2_duration,key_resp_instruction3_started,key_resp_instruction3_keys,key_resp_instruction3_rt,key_resp_instruction3_duration,key_resp_instruction4_started,key_resp_instruction4_keys,key_resp_instruction4_rt,key_resp_instruction4_duration,practiceCondition,practice_reward_seqs,practice_trial_started,practice_trial_num,practice_resp_rt,practice_resp_duration,practice_resp_keys,prac_presentationInterval,"practice_reward_seq: 2,1,3",reward_img,cumulative_reward,trial_reward,practice_trials.thisRepN,practice_trials.thisTrialN,practice_trials.thisN,practice_trials.thisIndex,practice_trials.ran,"practice_reward_seq: 2,3,1",block_break_started,"practice_reward_seq: 1,3,2","practice_reward_seq: 3,1,2",practice_end_time,practice_end_keys,practice_end_rt,practice_end_duration,main_instruction_text_started,block_condition,block_order_indices,main_instruction_keys,main_instruction_rt,main_instruction_duration,block_number,block_assignment,current_condition,main_reward_seqs,main_trial_started,main_trial_num,main_trial_keys,main_trial_rt,main_trial_duration,main_presentationInterval,reward_presentation_time,main_reward_seq,reward_rand_val,main_reward_img,current_reward,main_trials.thisRepN,main_trials.thisTrialN,main_trials.thisN,main_trials.thisIndex,main_trials.ran,block_reward,block.thisRepN,block.thisTrialN,block.thisN,block.thisIndex,block.ran,block_reward.length,block_reward_all,reward_amount,date_end_task
0.0003,k,2.821,,66295d6b3abf76cfdfeb424d,A,2024-07-02_16h01.04.593,Slot Machine Game,2023.1.3,Win32,59.52380952,,,,,,,,,,,,,,,,,,,,,,,,,,,,,,,,,,,,,,,,,,,,,,,,,,,,,,,,,,,,,,,,,,,,,,,,,,,,,
,,,,66295d6b3abf76cfdfeb424d,A,2024-07-02_16h01.04.593,Slot Machine Game,2023.1.3,Win32,59.52380952,2.8281,l,18.4196,,,,,,,,,,,,,,,,,,,,,,,,,,,,,,,,,,,,,,,,,,,,,,,,,,,,,,,,,,,,,,,,,,,,,,,,,,
,,,,66295d6b3abf76cfdfeb424d,A,2024-07-02_16h01.04.593,Slot Machine Game,2023.1.3,Win32,59.52380952,,,,,21.2691,l,31.489,,,,,,,,,,,,,,,,,,,,,,,,,,,,,,,,,,,,,,,,,,,,,,,,,,,,,,,,,,,,,,,,,,,,,,
,,,,66295d6b3abf76cfdfeb424d,A,2024-07-02_16h01.04.593,Slot Machine Game,2023.1.3,Win32,59.52380952,,,,,,,,,52.7947,k,12.6459,,,,,,,,,,,,,,,,,,,,,,,,,,,,,,,,,,,,,,,,,,,,,,,,,,,,,,,,,,,,,,,,,,
,,,,66295d6b3abf76cfdfeb424d,A,2024-07-02_16h01.04.593,Slot Machine Game,2023.1.3,Win32,59.52380952,,,,,,,,,,,,,,,,,,,,,,,,,,,,,,,,,,,,,,,,,,,,,,,,,,,,,,,,,,,,,,,,,,,,,,,,,,,,,
,,,,66295d6b3abf76cfdfeb424d,A,2024-07-02_16h01.04.593,Slot Machine Game,2023.1.3,Win32,59.52380952,,,,,,,,,,,,,207.1786,down,5.2558,,,,,,,,,,,,,,,,,,,,,,,,,,,,,,,,,,,,,,,,,,,,,,,,,,,,,,,,,,,,,,
,,,,66295d6b3abf76cfdfeb424d,A,2024-07-02_16h01.04.593,Slot Machine Game,2023.1.3,Win32,59.52380952,,,,,,,,,,,,,,,,,"[9,15]","[[2,1,3],[2,3,1]]",212.4623,0,1.135,,left,1.5,,stimuli/card_10_transparent.png,10,10,0,0,0,0,1,,,,,,,,,,,,,,,,,,,,,,,,,,,,,,,,,,,,,,,,,,,,
,,,,66295d6b3abf76cfdfeb424d,A,2024-07-02_16h01.04.593,Slot Machine Game,2023.1.3,Win32,59.52380952,,,,,,,,,,,,,,,,,,,215.9403,1,0.7844,,up,0.5,,stimuli/card_10_transparent.png,20,10,1,0,1,0,1,,,,,,,,,,,,,,,,,,,,,,,,,,,,,,,,,,,,,,,,,,,,
,,,,66295d6b3abf76cfdfeb424d,A,2024-07-02_16h01.04.593,Slot Machine Game,2023.1.3,Win32,59.52380952,,,,,,,,,,,,,,,,,,,218.0422,2,0.4219,,right,0.5,,stimuli/card_0_transparent.png,20,0,2,0,2,0,1,,,,,,,,,,,,,,,,,,,,,,,,,,,,,,,,,,,,,,,,,,,,
,,,,66295d6b3abf76cfdfeb424d,A,2024-07-02_16h01.04.593,Slot Machine Game,2023.1.3,Win32,59.52380952,,,,,,,,,,,,,,,,,,,219.7773,3,0.9847,,up,0.5,,stimuli/card_100_transparent.png,120,100,3,0,3,0,1,,,,,,,,,,,,,,,,,,,,,,,,,,,,,,,,,,,,,,,,,,,,
,,,,66295d6b3abf76cfdfeb424d,A,2024-07-02_16h01.04.593,Slot Machine Game,2023.1.3,Win32,59.52380952,,,,,,,,,,,,,,,,,,,222.0797,4,0.3604,,up,1,,stimuli/card_0_transparent.png,120,0,4,0,4,0,1,,,,,,,,,,,,,,,,,,,,,,,,,,,,,,,,,,,,,,,,,,,,
,,,,66295d6b3abf76cfdfeb424d,A,2024-07-02_16h01.04.593,Slot Machine Game,2023.1.3,Win32,59.52380952,,,,,,,,,,,,,,,,,,,224.2484,5,0.5682,,up,0.5,,stimuli/card_100_transparent.png,220,100,5,0,5,0,1,,,,,,,,,,,,,,,,,,,,,,,,,,,,,,,,,,,,,,,,,,,,
,,,,66295d6b3abf76cfdfeb424d,A,2024-07-02_16h01.04.593,Slot Machine Game,2023.1.3,Win32,59.52380952,,,,,,,,,,,,,,,,,,,226.1336,6,0.4841,,up,1.5,,stimuli/card_100_transparent.png,320,100,6,0,6,0,1,,,,,,,,,,,,,,,,,,,,,,,,,,,,,,,,,,,,,,,,,,,,
,,,,66295d6b3abf76cfdfeb424d,A,2024-07-02_16h01.04.593,Slot Machine Game,2023.1.3,Win32,59.52380952,,,,,,,,,,,,,,,,,,,228.9363,7,0.3034,,up,0.5,,stimuli/card_100_transparent.png,420,100,7,0,7,0,1,,,,,,,,,,,,,,,,,,,,,,,,,,,,,,,,,,,,,,,,,,,,
,,,,66295d6b3abf76cfdfeb424d,A,2024-07-02_16h01.04.593,Slot Machine Game,2023.1.3,Win32,59.52380952,,,,,,,,,,,,,,,,,,,230.5547,8,0.3891,,up,1,,stimuli/card_100_transparent.png,520,100,8,0,8,0,1,,,,,,,,,,,,,,,,,,,,,,,,,,,,,,,,,,,,,,,,,,,,
,,,,66295d6b3abf76cfdfeb424d,A,2024-07-02_16h01.04.593,Slot Machine Game,2023.1.3,Win32,59.52380952,,,,,,,,,,,,,,,,,,,232.757,9,2.6271,,up,0.5,,stimuli/card_0_transparent.png,520,0,9,0,9,0,1,,,,,,,,,,,,,,,,,,,,,,,,,,,,,,,,,,,,,,,,,,,,
,,,,66295d6b3abf76cfdfeb424d,A,2024-07-02_16h01.04.593,Slot Machine Game,2023.1.3,Win32,59.52380952,,,,,,,,,,,,,,,,,,,236.6942,10,0.4262,,up,1,,stimuli/card_100_transparent.png,620,100,10,0,10,0,1,,,,,,,,,,,,,,,,,,,,,,,,,,,,,,,,,,,,,,,,,,,,
,,,,66295d6b3abf76cfdfeb424d,A,2024-07-02_16h01.04.593,Slot Machine Game,2023.1.3,Win32,59.52380952,,,,,,,,,,,,,,,,,,,238.9296,11,0.3424,,up,0.5,,stimuli/card_100_transparent.png,720,100,11,0,11,0,1,,,,,,,,,,,,,,,,,,,,,,,,,,,,,,,,,,,,,,,,,,,,
,,,,66295d6b3abf76cfdfeb424d,A,2024-07-02_16h01.04.593,Slot Machine Game,2023.1.3,Win32,59.52380952,,,,,,,,,,,,,,,,,,,240.5813,12,0.2748,,up,1.5,,stimuli/card_0_transparent.png,720,0,12,0,12,0,1,,,,,,,,,,,,,,,,,,,,,,,,,,,,,,,,,,,,,,,,,,,,
,,,,66295d6b3abf76cfdfeb424d,A,2024-07-02_16h01.04.593,Slot Machine Game,2023.1.3,Win32,59.52380952,,,,,,,,,,,,,,,,,,,243.1674,13,0.0671,,up,0.5,,stimuli/card_0_transparent.png,720,0,13,0,13,0,1,,,,,,,,,,,,,,,,,,,,,,,,,,,,,,,,,,,,,,,,,,,,
,,,,66295d6b3abf76cfdfeb424d,A,2024-07-02_16h01.04.593,Slot Machine Game,2023.1.3,Win32,59.52380952,,,,,,,,,,,,,,,,,,,244.552,14,2.2402,,left,1,,stimuli/card_10_transparent.png,730,10,14,0,14,0,1,,,,,,,,,,,,,,,,,,,,,,,,,,,,,,,,,,,,,,,,,,,,
,,,,66295d6b3abf76cfdfeb424d,A,2024-07-02_16h01.04.593,Slot Machine Game,2023.1.3,Win32,59.52380952,,,,,,,,,,,,,,,,,"[6,15]","[[1,3,2],[3,1,2]]",253.6183,0,0.4848,,up,1,,stimuli/card_100_transparent.png,100,100,0,0,0,0,1,,248.6132,,,,,,,,,,,,,,,,,,,,,,,,,,,,,,,,,,,,,,,,,,
,,,,66295d6b3abf76cfdfeb424d,A,2024-07-02_16h01.04.593,Slot Machine Game,2023.1.3,Win32,59.52380952,,,,,,,,,,,,,,,,,,,255.9301,1,1.9902,,up,0.5,,stimuli/card_100_transparent.png,200,100,1,0,1,0,1,,,,,,,,,,,,,,,,,,,,,,,,,,,,,,,,,,,,,,,,,,,,
,,,,66295d6b3abf76cfdfeb424d,A,2024-07-02_16h01.04.593,Slot Machine Game,2023.1.3,Win32,59.52380952,,,,,,,,,,,,,,,,,,,259.2333,2,0.6707,,up,1,,stimuli/card_0_transparent.png,200,0,2,0,2,0,1,,,,,,,,,,,,,,,,,,,,,,,,,,,,,,,,,,,,,,,,,,,,
,,,,66295d6b3abf76cfdfeb424d,A,2024-07-02_16h01.04.593,Slot Machine Game,2023.1.3,Win32,59.52380952,,,,,,,,,,,,,,,,,,,261.7191,3,0.0505,,up,1,,stimuli/card_100_transparent.png,300,100,3,0,3,0,1,,,,,,,,,,,,,,,,,,,,,,,,,,,,,,,,,,,,,,,,,,,,
,,,,66295d6b3abf76cfdfeb424d,A,2024-07-02_16h01.04.593,Slot Machine Game,2023.1.3,Win32,59.52380952,,,,,,,,,,,,,,,,,,,263.5876,4,0.3009,,up,0.5,,stimuli/card_0_transparent.png,300,0,4,0,4,0,1,,,,,,,,,,,,,,,,,,,,,,,,,,,,,,,,,,,,,,,,,,,,
,,,,66295d6b3abf76cfdfeb424d,A,2024-07-02_16h01.04.593,Slot Machine Game,2023.1.3,Win32,59.52380952,,,,,,,,,,,,,,,,,,,265.206,5,1.7783,,up,1,,stimuli/card_0_transparent.png,300,0,5,0,5,0,1,,,,,,,,,,,,,,,,,,,,,,,,,,,,,,,,,,,,,,,,,,,,
,,,,66295d6b3abf76cfdfeb424d,A,2024-07-02_16h01.04.593,Slot Machine Game,2023.1.3,Win32,59.52380952,,,,,,,,,,,,,,,,,,,268.7928,6,0.0552,,right,1.5,,stimuli/card_100_transparent.png,400,100,6,0,6,0,1,,,,,,,,,,,,,,,,,,,,,,,,,,,,,,,,,,,,,,,,,,,,
,,,,66295d6b3abf76cfdfeb424d,A,2024-07-02_16h01.04.593,Slot Machine Game,2023.1.3,Win32,59.52380952,,,,,,,,,,,,,,,,,,,271.1618,7,2.1357,,right,1,,stimuli/card_10_transparent.png,410,10,7,0,7,0,1,,,,,,,,,,,,,,,,,,,,,,,,,,,,,,,,,,,,,,,,,,,,
,,,,66295d6b3abf76cfdfeb424d,A,2024-07-02_16h01.04.593,Slot Machine Game,2023.1.3,Win32,59.52380952,,,,,,,,,,,,,,,,,,,275.1157,8,1.385,,right,0.5,,stimuli/card_0_transparent.png,410,0,8,0,8,0,1,,,,,,,,,,,,,,,,,,,,,,,,,,,,,,,,,,,,,,,,,,,,
,,,,66295d6b3abf76cfdfeb424d,A,2024-07-02_16h01.04.593,Slot Machine Game,2023.1.3,Win32,59.52380952,,,,,,,,,,,,,,,,,,,277.8186,9,0.3741,,right,1,,stimuli/card_10_transparent.png,420,10,9,0,9,0,1,,,,,,,,,,,,,,,,,,,,,,,,,,,,,,,,,,,,,,,,,,,,
,,,,66295d6b3abf76cfdfeb424d,A,2024-07-02_16h01.04.593,Slot Machine Game,2023.1.3,Win32,59.52380952,,,,,,,,,,,,,,,,,,,280.0041,10,0.284,,left,0.5,,stimuli/card_0_transparent.png,420,0,10,0,10,0,1,,,,,,,,,,,,,,,,,,,,,,,,,,,,,,,,,,,,,,,,,,,,
,,,,66295d6b3abf76cfdfeb424d,A,2024-07-02_16h01.04.593,Slot Machine Game,2023.1.3,Win32,59.52380952,,,,,,,,,,,,,,,,,,,281.6057,11,0.3005,,left,0.5,,stimuli/card_0_transparent.png,420,0,11,0,11,0,1,,,,,,,,,,,,,,,,,,,,,,,,,,,,,,,,,,,,,,,,,,,,
,,,,66295d6b3abf76cfdfeb424d,A,2024-07-02_16h01.04.593,Slot Machine Game,2023.1.3,Win32,59.52380952,,,,,,,,,,,,,,,,,,,283.2239,12,0.0337,,up,0.5,,stimuli/card_100_transparent.png,520,100,12,0,12,0,1,,,,,,,,,,,,,,,,,,,,,,,,,,,,,,,,,,,,,,,,,,,,
,,,,66295d6b3abf76cfdfeb424d,A,2024-07-02_16h01.04.593,Slot Machine Game,2023.1.3,Win32,59.52380952,,,,,,,,,,,,,,,,,,,284.5753,13,0.2673,,up,1,,stimuli/card_10_transparent.png,530,10,13,0,13,0,1,,,,,,,,,,,,,,,,,,,,,,,,,,,,,,,,,,,,,,,,,,,,
,,,,66295d6b3abf76cfdfeb424d,A,2024-07-02_16h01.04.593,Slot Machine Game,2023.1.3,Win32,59.52380952,,,,,,,,,,,,,,,,,,,286.6606,14,0.117,,up,1,,stimuli/card_100_transparent.png,630,100,14,0,14,0,1,,,,,,,,,,,,,,,,,,,,,,,,,,,,,,,,,,,,,,,,,,,,
,,,,66295d6b3abf76cfdfeb424d,A,2024-07-02_16h01.04.593,Slot Machine Game,2023.1.3,Win32,59.52380952,,,,,,,,,,,,,,,,,,,,,,,,,,,,,,,,,,,288.596,,,293.5848,space,3.3877,,,,,,,,,,,,,,,,,,,,,,,,,,,,,,,,,,,,,
,,,,66295d6b3abf76cfdfeb424d,A,2024-07-02_16h01.04.593,Slot Machine Game,2023.1.3,Win32,59.52380952,,,,,,,,,,,,,,,,,,,,,,,,,,,,,,,,,,,,,,,,,,297.0047,1,"[0,1,2,3,4,5,6,7,8,9]",space,4.4795,,,,,,,,,,,,,,,,,,,,,,,,,,,,,,,
,,,,66295d6b3abf76cfdfeb424d,A,2024-07-02_16h01.04.593,Slot Machine Game,2023.1.3,Win32,59.52380952,,,,,,,,,,,,,,,,,,,,,,,,,,,100,,,,,,,,,,,,,,,,,,,,,1,1,"[12,15]","[[2,1,3],[2,3,1]]",301.5184,0,up,0.7681,,1,0.3,"[2,1,3]",0.26499945,stimuli/card_100_transparent.png,100,0,0,0,0,1,,,,,,,,,,
,,,,66295d6b3abf76cfdfeb424d,A,2024-07-02_16h01.04.593,Slot Machine Game,2023.1.3,Win32,59.52380952,,,,,,,,,,,,,,,,,,,,,,,,,,,200,,,,,,,,,,,,,,,,,,,,,1,1,,,304.1284,1,up,0.4844,,1.5,0.3,"[2,1,3]",0.774249651,stimuli/card_100_transparent.png,100,1,0,1,0,1,,,,,,,,,,
,,,,66295d6b3abf76cfdfeb424d,A,2024-07-02_16h01.04.593,Slot Machine Game,2023.1.3,Win32,59.52380952,,,,,,,,,,,,,,,,,,,,,,,,,,,300,,,,,,,,,,,,,,,,,,,,,1,1,,,306.931,2,up,0.6374,,0.5,0.3,"[2,1,3]",0.26973124,stimuli/card_100_transparent.png,100,2,0,2,0,1,,,,,,,,,,
,,,,66295d6b3abf76cfdfeb424d,A,2024-07-02_16h01.04.593,Slot Machine Game,2023.1.3,Win32,59.52380952,,,,,,,,,,,,,,,,,,,,,,,,,,,400,,,,,,,,,,,,,,,,,,,,,1,1,,,308.8828,3,up,0.4772,,1.5,0.3,"[2,1,3]",0.9974145,stimuli/card_100_transparent.png,100,3,0,3,0,1,,,,,,,,,,
,,,,66295d6b3abf76cfdfeb424d,A,2024-07-02_16h01.04.593,Slot Machine Game,2023.1.3,Win32,59.52380952,,,,,,,,,,,,,,,,,,,,,,,,,,,500,,,,,,,,,,,,,,,,,,,,,1,1,,,311.669,4,up,0.3671,,0.5,0.3,"[2,1,3]",0.900281114,stimuli/card_100_transparent.png,100,4,0,4,0,1,,,,,,,,,,
,,,,66295d6b3abf76cfdfeb424d,A,2024-07-02_16h01.04.593,Slot Machine Game,2023.1.3,Win32,59.52380952,,,,,,,,,,,,,,,,,,,,,,,,,,,510,,,,,,,,,,,,,,,,,,,,,1,1,,,313.3601,5,up,0.4374,,1.5,0.3,"[2,1,3]",0.130262275,stimuli/card_10_transparent.png,10,5,0,5,0,1,,,,,,,,,,
,,,,66295d6b3abf76cfdfeb424d,A,2024-07-02_16h01.04.593,Slot Machine Game,2023.1.3,Win32,59.52380952,,,,,,,,,,,,,,,,,,,,,,,,,,,610,,,,,,,,,,,,,,,,,,,,,1,1,,,316.1235,6,up,0.3841,,0.5,0.3,"[2,1,3]",0.589610876,stimuli/card_100_transparent.png,100,6,0,6,0,1,,,,,,,,,,
,,,,66295d6b3abf76cfdfeb424d,A,2024-07-02_16h01.04.593,Slot Machine Game,2023.1.3,Win32,59.52380952,,,,,,,,,,,,,,,,,,,,,,,,,,,710,,,,,,,,,,,,,,,,,,,,,1,1,,,317.8251,7,up,0.8229,,1.5,0.3,"[2,1,3]",0.893825729,stimuli/card_100_transparent.png,100,7,0,7,0,1,,,,,,,,,,
,,,,66295d6b3abf76cfdfeb424d,A,2024-07-02_16h01.04.593,Slot Machine Game,2023.1.3,Win32,59.52380952,,,,,,,,,,,,,,,,,,,,,,,,,,,810,,,,,,,,,,,,,,,,,,,,,1,1,,,320.9616,8,up,0.3584,,1.5,0.3,"[2,1,3]",0.539748498,stimuli/card_100_transparent.png,100,8,0,8,0,1,,,,,,,,,,
,,,,66295d6b3abf76cfdfeb424d,A,2024-07-02_16h01.04.593,Slot Machine Game,2023.1.3,Win32,59.52380952,,,,,,,,,,,,,,,,,,,,,,,,,,,910,,,,,,,,,,,,,,,,,,,,,1,1,,,323.6309,9,up,0.4091,,1,0.3,"[2,1,3]",0.745833787,stimuli/card_100_transparent.png,100,9,0,9,0,1,,,,,,,,,,
,,,,66295d6b3abf76cfdfeb424d,A,2024-07-02_16h01.04.593,Slot Machine Game,2023.1.3,Win32,59.52380952,,,,,,,,,,,,,,,,,,,,,,,,,,,1010,,,,,,,,,,,,,,,,,,,,,1,1,,,325.8497,10,up,0.342,,1,0.3,"[2,1,3]",0.280478065,stimuli/card_100_transparent.png,100,10,0,10,0,1,,,,,,,,,,
,,,,66295d6b3abf76cfdfeb424d,A,2024-07-02_16h01.04.593,Slot Machine Game,2023.1.3,Win32,59.52380952,,,,,,,,,,,,,,,,,,,,,,,,,,,1110,,,,,,,,,,,,,,,,,,,,,1,1,,,328.0019,11,up,0.7739,,1,0.3,"[2,1,3]",0.216013429,stimuli/card_100_transparent.png,100,11,0,11,0,1,,,,,,,,,,
,,,,66295d6b3abf76cfdfeb424d,A,2024-07-02_16h01.04.593,Slot Machine Game,2023.1.3,Win32,59.52380952,,,,,,,,,,,,,,,,,,,,,,,,,,,1210,,,,,,,,,,,,,,,,,,,,,1,1,,,330.5876,12,up,0.4039,,1.5,0.3,"[2,3,1]",0.055698742,stimuli/card_100_transparent.png,100,12,0,12,0,1,,,,,,,,,,
,,,,66295d6b3abf76cfdfeb424d,A,2024-07-02_16h01.04.593,Slot Machine Game,2023.1.3,Win32,59.52380952,,,,,,,,,,,,,,,,,,,,,,,,,,,1210,,,,,,,,,,,,,,,,,,,,,1,1,,,333.3073,13,up,0.2689,,0.5,0.3,"[2,3,1]",0.903112874,stimuli/card_0_transparent.png,0,13,0,13,0,1,,,,,,,,,,
,,,,66295d6b3abf76cfdfeb424d,A,2024-07-02_16h01.04.593,Slot Machine Game,2023.1.3,Win32,59.52380952,,,,,,,,,,,,,,,,,,,,,,,,,,,1210,,,,,,,,,,,,,,,,,,,,,1,1,,,334.8922,14,up,0.5006,,1.5,0.3,"[2,3,1]",0.83508085,stimuli/card_0_transparent.png,0,14,0,14,0,1,,,,,,,,,,
,,,,66295d6b3abf76cfdfeb424d,A,2024-07-02_16h01.04.593,Slot Machine Game,2023.1.3,Win32,59.52380952,,,,,,,,,,,,,,,,,,,,,,,,,,,,,,,,,,,337.7117,,,,,,,,,,,,,,,,,,,,,,,,,,,,,,,,,[1210],0,0,0,0,1,,,,
,,,,66295d6b3abf76cfdfeb424d,A,2024-07-02_16h01.04.593,Slot Machine Game,2023.1.3,Win32,59.52380952,,,,,,,,,,,,,,,,,,,,,,,,,,,100,,,,,,,,,,,,,,,,,,,,,2,2,"[6,15]","[[1,3,2],[3,2,1]]",342.708,0,left,0.8114,,1.5,0.3,"[1,3,2]",0.63193375,stimuli/card_100_transparent.png,100,0,0,0,0,1,,,,,,,,,,
,,,,66295d6b3abf76cfdfeb424d,A,2024-07-02_16h01.04.593,Slot Machine Game,2023.1.3,Win32,59.52380952,,,,,,,,,,,,,,,,,,,,,,,,,,,100,,,,,,,,,,,,,,,,,,,,,2,2,,,345.8365,1,left,0.468,,1,0.3,"[1,3,2]",0.021279718,stimuli/card_0_transparent.png,0,1,0,1,0,1,,,,,,,,,,
,,,,66295d6b3abf76cfdfeb424d,A,2024-07-02_16h01.04.593,Slot Machine Game,2023.1.3,Win32,59.52380952,,,,,,,,,,,,,,,,,,,,,,,,,,,200,,,,,,,,,,,,,,,,,,,,,2,2,,,348.122,2,left,0.067,,0.5,0.3,"[1,3,2]",0.419755258,stimuli/card_100_transparent.png,100,2,0,2,0,1,,,,,,,,,,
,,,,66295d6b3abf76cfdfeb424d,A,2024-07-02_16h01.04.593,Slot Machine Game,2023.1.3,Win32,59.52380952,,,,,,,,,,,,,,,,,,,,,,,,,,,200,,,,,,,,,,,,,,,,,,,,,2,2,,,349.5067,3,left,0.3733,,1,0.3,"[1,3,2]",0.054344983,stimuli/card_0_transparent.png,0,3,0,3,0,1,,,,,,,,,,
,,,,66295d6b3abf76cfdfeb424d,A,2024-07-02_16h01.04.593,Slot Machine Game,2023.1.3,Win32,59.52380952,,,,,,,,,,,,,,,,,,,,,,,,,,,300,,,,,,,,,,,,,,,,,,,,,2,2,,,351.6922,4,left,0.1013,,1.5,0.3,"[1,3,2]",0.39175756,stimuli/card_100_transparent.png,100,4,0,4,0,1,,,,,,,,,,
,,,,66295d6b3abf76cfdfeb424d,A,2024-07-02_16h01.04.593,Slot Machine Game,2023.1.3,Win32,59.52380952,,,,,,,,,,,,,,,,,,,,,,,,,,,300,,,,,,,,,,,,,,,,,,,,,2,2,,,354.1113,5,left,2.5379,,0.5,0.3,"[1,3,2]",0.098605323,stimuli/card_0_transparent.png,0,5,0,5,0,1,,,,,,,,,,
,,,,66295d6b3abf76cfdfeb424d,A,2024-07-02_16h01.04.593,Slot Machine Game,2023.1.3,Win32,59.52380952,,,,,,,,,,,,,,,,,,,,,,,,,,,400,,,,,,,,,,,,,,,,,,,,,2,2,,,357.9652,6,left,0.4189,,1.5,0.3,"[3,2,1]",0.018945058,stimuli/card_100_transparent.png,100,6,0,6,0,1,,,,,,,,,,
,,,,66295d6b3abf76cfdfeb424d,A,2024-07-02_16h01.04.593,Slot Machine Game,2023.1.3,Win32,59.52380952,,,,,,,,,,,,,,,,,,,,,,,,,,,400,,,,,,,,,,,,,,,,,,,,,2,2,,,360.7011,7,left,0.4028,,1.5,0.3,"[3,2,1]",0.919027249,stimuli/card_0_transparent.png,0,7,0,7,0,1,,,,,,,,,,
,,,,66295d6b3abf76cfdfeb424d,A,2024-07-02_16h01.04.593,Slot Machine Game,2023.1.3,Win32,59.52380952,,,,,,,,,,,,,,,,,,,,,,,,,,,400,,,,,,,,,,,,,,,,,,,,,2,2,,,363.4205,8,left,0.0915,,1,0.3,"[3,2,1]",0.927340335,stimuli/card_0_transparent.png,0,8,0,8,0,1,,,,,,,,,,
,,,,66295d6b3abf76cfdfeb424d,A,2024-07-02_16h01.04.593,Slot Machine Game,2023.1.3,Win32,59.52380952,,,,,,,,,,,,,,,,,,,,,,,,,,,410,,,,,,,,,,,,,,,,,,,,,2,2,,,365.3059,9,up,0.694,,1.5,0.3,"[3,2,1]",0.692814427,stimuli/card_10_transparent.png,10,9,0,9,0,1,,,,,,,,,,
,,,,66295d6b3abf76cfdfeb424d,A,2024-07-02_16h01.04.593,Slot Machine Game,2023.1.3,Win32,59.52380952,,,,,,,,,,,,,,,,,,,,,,,,,,,510,,,,,,,,,,,,,,,,,,,,,2,2,,,368.3088,10,right,0.2273,,1,0.3,"[3,2,1]",0.775357249,stimuli/card_100_transparent.png,100,10,0,10,0,1,,,,,,,,,,
,,,,66295d6b3abf76cfdfeb424d,A,2024-07-02_16h01.04.593,Slot Machine Game,2023.1.3,Win32,59.52380952,,,,,,,,,,,,,,,,,,,,,,,,,,,610,,,,,,,,,,,,,,,,,,,,,2,2,,,370.3442,11,right,0.3276,,0.5,0.3,"[3,2,1]",0.711469097,stimuli/card_100_transparent.png,100,11,0,11,0,1,,,,,,,,,,
,,,,66295d6b3abf76cfdfeb424d,A,2024-07-02_16h01.04.593,Slot Machine Game,2023.1.3,Win32,59.52380952,,,,,,,,,,,,,,,,,,,,,,,,,,,710,,,,,,,,,,,,,,,,,,,,,2,2,,,371.9791,12,right,0.2336,,0.5,0.3,"[3,2,1]",0.212369412,stimuli/card_100_transparent.png,100,12,0,12,0,1,,,,,,,,,,
,,,,66295d6b3abf76cfdfeb424d,A,2024-07-02_16h01.04.593,Slot Machine Game,2023.1.3,Win32,59.52380952,,,,,,,,,,,,,,,,,,,,,,,,,,,810,,,,,,,,,,,,,,,,,,,,,2,2,,,373.5307,13,right,0.1893,,1.5,0.3,"[3,2,1]",0.697338123,stimuli/card_100_transparent.png,100,13,0,13,0,1,,,,,,,,,,
,,,,66295d6b3abf76cfdfeb424d,A,2024-07-02_16h01.04.593,Slot Machine Game,2023.1.3,Win32,59.52380952,,,,,,,,,,,,,,,,,,,,,,,,,,,910,,,,,,,,,,,,,,,,,,,,,2,2,,,376.0332,14,right,0.3346,,0.5,0.3,"[3,2,1]",0.217353789,stimuli/card_100_transparent.png,100,14,0,14,0,1,,,,,,,,,,
,,,,66295d6b3abf76cfdfeb424d,A,2024-07-02_16h01.04.593,Slot Machine Game,2023.1.3,Win32,59.52380952,,,,,,,,,,,,,,,,,,,,,,,,,,,,,,,,,,,377.6849,,,,,,,,,,,,,,,,,,,,,,,,,,,,,,,,,"[1210,910]",1,0,1,0,1,,,,
,,,,66295d6b3abf76cfdfeb424d,A,2024-07-02_16h01.04.593,Slot Machine Game,2023.1.3,Win32,59.52380952,,,,,,,,,,,,,,,,,,,,,,,,,,,100,,,,,,,,,,,,,,,,,,,,,3,3,"[15,15]","[[3,1,2],[3,1,2]]",382.6812,0,up,0.6786,,0.5,0.3,"[3,1,2]",0.680015642,stimuli/card_100_transparent.png,100,0,0,0,0,1,,,,,,,,,,
,,,,66295d6b3abf76cfdfeb424d,A,2024-07-02_16h01.04.593,Slot Machine Game,2023.1.3,Win32,59.52380952,,,,,,,,,,,,,,,,,,,,,,,,,,,200,,,,,,,,,,,,,,,,,,,,,3,3,,,384.6752,1,up,0.1731,,1,0.3,"[3,1,2]",0.313564711,stimuli/card_100_transparent.png,100,1,0,1,0,1,,,,,,,,,,
,,,,66295d6b3abf76cfdfeb424d,A,2024-07-02_16h01.04.593,Slot Machine Game,2023.1.3,Win32,59.52380952,,,,,,,,,,,,,,,,,,,,,,,,,,,300,,,,,,,,,,,,,,,,,,,,,3,3,,,386.6605,2,up,0.0758,,0.5,0.3,"[3,1,2]",0.548828348,stimuli/card_100_transparent.png,100,2,0,2,0,1,,,,,,,,,,
,,,,66295d6b3abf76cfdfeb424d,A,2024-07-02_16h01.04.593,Slot Machine Game,2023.1.3,Win32,59.52380952,,,,,,,,,,,,,,,,,,,,,,,,,,,400,,,,,,,,,,,,,,,,,,,,,3,3,,,388.0452,3,up,0.0674,,0.5,0.3,"[3,1,2]",0.638354702,stimuli/card_100_transparent.png,100,3,0,3,0,1,,,,,,,,,,
,,,,66295d6b3abf76cfdfeb424d,A,2024-07-02_16h01.04.593,Slot Machine Game,2023.1.3,Win32,59.52380952,,,,,,,,,,,,,,,,,,,,,,,,,,,400,,,,,,,,,,,,,,,,,,,,,3,3,,,389.4299,4,up,0.15,,0.5,0.3,"[3,1,2]",0.020369951,stimuli/card_0_transparent.png,0,4,0,4,0,1,,,,,,,,,,
,,,,66295d6b3abf76cfdfeb424d,A,2024-07-02_16h01.04.593,Slot Machine Game,2023.1.3,Win32,59.52380952,,,,,,,,,,,,,,,,,,,,,,,,,,,500,,,,,,,,,,,,,,,,,,,,,3,3,,,390.898,5,up,0.1099,,1.5,0.3,"[3,1,2]",0.870002913,stimuli/card_100_transparent.png,100,5,0,5,0,1,,,,,,,,,,
,,,,66295d6b3abf76cfdfeb424d,A,2024-07-02_16h01.04.593,Slot Machine Game,2023.1.3,Win32,59.52380952,,,,,,,,,,,,,,,,,,,,,,,,,,,510,,,,,,,,,,,,,,,,,,,,,3,3,,,393.3172,6,up,3.237,,0.5,0.3,"[3,1,2]",0.17392825,stimuli/card_10_transparent.png,10,6,0,6,0,1,,,,,,,,,,
,,,,66295d6b3abf76cfdfeb424d,A,2024-07-02_16h01.04.593,Slot Machine Game,2023.1.3,Win32,59.52380952,,,,,,,,,,,,,,,,,,,,,,,,,,,610,,,,,,,,,,,,,,,,,,,,,3,3,,,397.8715,7,up,2.2563,,1,0.3,"[3,1,2]",0.456794876,stimuli/card_100_transparent.png,100,7,0,7,0,1,,,,,,,,,,
,,,,66295d6b3abf76cfdfeb424d,A,2024-07-02_16h01.04.593,Slot Machine Game,2023.1.3,Win32,59.52380952,,,,,,,,,,,,,,,,,,,,,,,,,,,710,,,,,,,,,,,,,,,,,,,,,3,3,,,401.9422,8,up,1.9861,,1,0.3,"[3,1,2]",0.707442838,stimuli/card_100_transparent.png,100,8,0,8,0,1,,,,,,,,,,
,,,,66295d6b3abf76cfdfeb424d,A,2024-07-02_16h01.04.593,Slot Machine Game,2023.1.3,Win32,59.52380952,,,,,,,,,,,,,,,,,,,,,,,,,,,810,,,,,,,,,,,,,,,,,,,,,3,3,,,405.7462,9,up,0.985,,1,0.3,"[3,1,2]",0.93028414,stimuli/card_100_transparent.png,100,9,0,9,0,1,,,,,,,,,,
,,,,66295d6b3abf76cfdfeb424d,A,2024-07-02_16h01.04.593,Slot Machine Game,2023.1.3,Win32,59.52380952,,,,,,,,,,,,,,,,,,,,,,,,,,,910,,,,,,,,,,,,,,,,,,,,,3,3,,,408.5488,10,up,0.0524,,1.5,0.3,"[3,1,2]",0.720726802,stimuli/card_100_transparent.png,100,10,0,10,0,1,,,,,,,,,,
,,,,66295d6b3abf76cfdfeb424d,A,2024-07-02_16h01.04.593,Slot Machine Game,2023.1.3,Win32,59.52380952,,,,,,,,,,,,,,,,,,,,,,,,,,,1010,,,,,,,,,,,,,,,,,,,,,3,3,,,410.9181,11,up,0.9385,,0.5,0.3,"[3,1,2]",0.798114329,stimuli/card_100_transparent.png,100,11,0,11,0,1,,,,,,,,,,
,,,,66295d6b3abf76cfdfeb424d,A,2024-07-02_16h01.04.593,Slot Machine Game,2023.1.3,Win32,59.52380952,,,,,,,,,,,,,,,,,,,,,,,,,,,1110,,,,,,,,,,,,,,,,,,,,,3,3,,,413.1703,12,up,0.0857,,1,0.3,"[3,1,2]",0.547411904,stimuli/card_100_transparent.png,100,12,0,12,0,1,,,,,,,,,,
,,,,66295d6b3abf76cfdfeb424d,A,2024-07-02_16h01.04.593,Slot Machine Game,2023.1.3,Win32,59.52380952,,,,,,,,,,,,,,,,,,,,,,,,,,,1120,,,,,,,,,,,,,,,,,,,,,3,3,,,415.0722,13,up,0.2545,,1.5,0.3,"[3,1,2]",0.103560618,stimuli/card_10_transparent.png,10,13,0,13,0,1,,,,,,,,,,
,,,,66295d6b3abf76cfdfeb424d,A,2024-07-02_16h01.04.593,Slot Machine Game,2023.1.3,Win32,59.52380952,,,,,,,,,,,,,,,,,,,,,,,,,,,1220,,,,,,,,,,,,,,,,,,,,,3,3,,,417.6578,14,up,0.1261,,1.5,0.3,"[3,1,2]",0.297317942,stimuli/card_100_transparent.png,100,14,0,14,0,1,,,,,,,,,,
,,,,66295d6b3abf76cfdfeb424d,A,2024-07-02_16h01.04.593,Slot Machine Game,2023.1.3,Win32,59.52380952,,,,,,,,,,,,,,,,,,,,,,,,,,,,,,,,,,,420.0938,,,,,,,,,,,,,,,,,,,,,,,,,,,,,,,,,"[1210,910,1220]",2,0,2,0,1,,,,
,,,,66295d6b3abf76cfdfeb424d,A,2024-07-02_16h01.04.593,Slot Machine Game,2023.1.3,Win32,59.52380952,,,,,,,,,,,,,,,,,,,,,,,,,,,10,,,,,,,,,,,,,,,,,,,,,4,4,"[7,15]","[[2,3,1],[1,2,3]]",425.0905,0,left,0.4512,,1,0.3,"[2,3,1]",0.481115261,stimuli/card_10_transparent.png,10,0,0,0,0,1,,,,,,,,,,
,,,,66295d6b3abf76cfdfeb424d,A,2024-07-02_16h01.04.593,Slot Machine Game,2023.1.3,Win32,59.52380952,,,,,,,,,,,,,,,,,,,,,,,,,,,110,,,,,,,,,,,,,,,,,,,,,4,4,,,427.3679,1,right,0.3438,,0.5,0.3,"[2,3,1]",0.236050654,stimuli/card_100_transparent.png,100,1,0,1,0,1,,,,,,,,,,
,,,,66295d6b3abf76cfdfeb424d,A,2024-07-02_16h01.04.593,Slot Machine Game,2023.1.3,Win32,59.52380952,,,,,,,,,,,,,,,,,,,,,,,,,,,210,,,,,,,,,,,,,,,,,,,,,4,4,,,429.0195,2,right,0.3672,,1.5,0.3,"[2,3,1]",0.907243371,stimuli/card_100_transparent.png,100,2,0,2,0,1,,,,,,,,,,
,,,,66295d6b3abf76cfdfeb424d,A,2024-07-02_16h01.04.593,Slot Machine Game,2023.1.3,Win32,59.52380952,,,,,,,,,,,,,,,,,,,,,,,,,,,310,,,,,,,,,,,,,,,,,,,,,4,4,,,431.7055,3,right,0.2543,,0.5,0.3,"[2,3,1]",0.645050895,stimuli/card_100_transparent.png,100,3,0,3,0,1,,,,,,,,,,
,,,,66295d6b3abf76cfdfeb424d,A,2024-07-02_16h01.04.593,Slot Machine Game,2023.1.3,Win32,59.52380952,,,,,,,,,,,,,,,,,,,,,,,,,,,410,,,,,,,,,,,,,,,,,,,,,4,4,,,433.2735,4,right,0.0338,,1.5,0.3,"[2,3,1]",0.861688082,stimuli/card_100_transparent.png,100,4,0,4,0,1,,,,,,,,,,
,,,,66295d6b3abf76cfdfeb424d,A,2024-07-02_16h01.04.593,Slot Machine Game,2023.1.3,Win32,59.52380952,,,,,,,,,,,,,,,,,,,,,,,,,,,510,,,,,,,,,,,,,,,,,,,,,4,4,,,435.6261,5,right,0.0861,,1,0.3,"[2,3,1]",0.790837854,stimuli/card_100_transparent.png,100,5,0,5,0,1,,,,,,,,,,
,,,,66295d6b3abf76cfdfeb424d,A,2024-07-02_16h01.04.593,Slot Machine Game,2023.1.3,Win32,59.52380952,,,,,,,,,,,,,,,,,,,,,,,,,,,610,,,,,,,,,,,,,,,,,,,,,4,4,,,437.5276,6,right,0.0168,,1,0.3,"[2,3,1]",0.399198668,stimuli/card_100_transparent.png,100,6,0,6,0,1,,,,,,,,,,
,,,,66295d6b3abf76cfdfeb424d,A,2024-07-02_16h01.04.593,Slot Machine Game,2023.1.3,Win32,59.52380952,,,,,,,,,,,,,,,,,,,,,,,,,,,610,,,,,,,,,,,,,,,,,,,,,4,4,,,439.3631,7,right,1.6691,,1.5,0.3,"[1,2,3]",0.268248069,stimuli/card_0_transparent.png,0,7,0,7,0,1,,,,,,,,,,
,,,,66295d6b3abf76cfdfeb424d,A,2024-07-02_16h01.04.593,Slot Machine Game,2023.1.3,Win32,59.52380952,,,,,,,,,,,,,,,,,,,,,,,,,,,610,,,,,,,,,,,,,,,,,,,,,4,4,,,443.3505,8,right,1.2686,,1.5,0.3,"[1,2,3]",0.805190019,stimuli/card_0_transparent.png,0,8,0,8,0,1,,,,,,,,,,
,,,,66295d6b3abf76cfdfeb424d,A,2024-07-02_16h01.04.593,Slot Machine Game,2023.1.3,Win32,59.52380952,,,,,,,,,,,,,,,,,,,,,,,,,,,620,,,,,,,,,,,,,,,,,,,,,4,4,,,446.9374,9,up,0.5345,,0.5,0.3,"[1,2,3]",0.723529011,stimuli/card_10_transparent.png,10,9,0,9,0,1,,,,,,,,,,
,,,,66295d6b3abf76cfdfeb424d,A,2024-07-02_16h01.04.593,Slot Machine Game,2023.1.3,Win32,59.52380952,,,,,,,,,,,,,,,,,,,,,,,,,,,720,,,,,,,,,,,,,,,,,,,,,4,4,,,448.7893,10,left,0.1506,,0.5,0.3,"[1,2,3]",0.76252847,stimuli/card_100_transparent.png,100,10,0,10,0,1,,,,,,,,,,
,,,,66295d6b3abf76cfdfeb424d,A,2024-07-02_16h01.04.593,Slot Machine Game,2023.1.3,Win32,59.52380952,,,,,,,,,,,,,,,,,,,,,,,,,,,820,,,,,,,,,,,,,,,,,,,,,4,4,,,450.2574,11,left,0.2066,,0.5,0.3,"[1,2,3]",0.984560162,stimuli/card_100_transparent.png,100,11,0,11,0,1,,,,,,,,,,
,,,,66295d6b3abf76cfdfeb424d,A,2024-07-02_16h01.04.593,Slot Machine Game,2023.1.3,Win32,59.52380952,,,,,,,,,,,,,,,,,,,,,,,,,,,920,,,,,,,,,,,,,,,,,,,,,4,4,,,451.7754,12,left,0.1504,,1,0.3,"[1,2,3]",0.522256024,stimuli/card_100_transparent.png,100,12,0,12,0,1,,,,,,,,,,
,,,,66295d6b3abf76cfdfeb424d,A,2024-07-02_16h01.04.593,Slot Machine Game,2023.1.3,Win32,59.52380952,,,,,,,,,,,,,,,,,,,,,,,,,,,1020,,,,,,,,,,,,,,,,,,,,,4,4,,,453.7441,13,left,0.7039,,1,0.3,"[1,2,3]",0.419180692,stimuli/card_100_transparent.png,100,13,0,13,0,1,,,,,,,,,,
,,,,66295d6b3abf76cfdfeb424d,A,2024-07-02_16h01.04.593,Slot Machine Game,2023.1.3,Win32,59.52380952,,,,,,,,,,,,,,,,,,,,,,,,,,,1020,,,,,,,,,,,,,,,,,,,,,4,4,,,456.2633,14,left,0.3366,,0.5,0.3,"[1,2,3]",0.042234229,stimuli/card_0_transparent.png,0,14,0,14,0,1,,,,,,,,,,
,,,,66295d6b3abf76cfdfeb424d,A,2024-07-02_16h01.04.593,Slot Machine Game,2023.1.3,Win32,59.52380952,,,,,,,,,,,,,,,,,,,,,,,,,,,,,,,,,,,457.915,,,,,,,,,,,,,,,,,,,,,,,,,,,,,,,,,"[1210,910,1220,1020]",3,0,3,0,1,,,,
,,,,66295d6b3abf76cfdfeb424d,A,2024-07-02_16h01.04.593,Slot Machine Game,2023.1.3,Win32,59.52380952,,,,,,,,,,,,,,,,,,,,,,,,,,,0,,,,,,,,,,,,,,,,,,,,,5,5,"[5,15]","[[1,2,3],[3,1,2]]",462.9115,0,up,0.776,,0.5,0.3,"[1,2,3]",0.059653882,stimuli/card_0_transparent.png,0,0,0,0,0,1,,,,,,,,,,
,,,,66295d6b3abf76cfdfeb424d,A,2024-07-02_16h01.04.593,Slot Machine Game,2023.1.3,Win32,59.52380952,,,,,,,,,,,,,,,,,,,,,,,,,,,10,,,,,,,,,,,,,,,,,,,,,5,5,,,465.0055,1,right,1.5068,,1,0.3,"[1,2,3]",0.105798305,stimuli/card_10_transparent.png,10,1,0,1,0,1,,,,,,,,,,
,,,,66295d6b3abf76cfdfeb424d,A,2024-07-02_16h01.04.593,Slot Machine Game,2023.1.3,Win32,59.52380952,,,,,,,,,,,,,,,,,,,,,,,,,,,110,,,,,,,,,,,,,,,,,,,,,5,5,,,468.3253,2,left,0.2507,,1.5,0.3,"[1,2,3]",0.623244187,stimuli/card_100_transparent.png,100,2,0,2,0,1,,,,,,,,,,
,,,,66295d6b3abf76cfdfeb424d,A,2024-07-02_16h01.04.593,Slot Machine Game,2023.1.3,Win32,59.52380952,,,,,,,,,,,,,,,,,,,,,,,,,,,120,,,,,,,,,,,,,,,,,,,,,5,5,,,470.8945,3,left,0.2011,,1.5,0.3,"[1,2,3]",0.183453963,stimuli/card_10_transparent.png,10,3,0,3,0,1,,,,,,,,,,
,,,,66295d6b3abf76cfdfeb424d,A,2024-07-02_16h01.04.593,Slot Machine Game,2023.1.3,Win32,59.52380952,,,,,,,,,,,,,,,,,,,,,,,,,,,220,,,,,,,,,,,,,,,,,,,,,5,5,,,473.4137,4,left,0.2262,,1.5,0.3,"[1,2,3]",0.63262645,stimuli/card_100_transparent.png,100,4,0,4,0,1,,,,,,,,,,
,,,,66295d6b3abf76cfdfeb424d,A,2024-07-02_16h01.04.593,Slot Machine Game,2023.1.3,Win32,59.52380952,,,,,,,,,,,,,,,,,,,,,,,,,,,220,,,,,,,,,,,,,,,,,,,,,5,5,,,475.9496,5,left,0.0344,,1,0.3,"[3,1,2]",0.771037019,stimuli/card_0_transparent.png,0,5,0,5,0,1,,,,,,,,,,
,,,,66295d6b3abf76cfdfeb424d,A,2024-07-02_16h01.04.593,Slot Machine Game,2023.1.3,Win32,59.52380952,,,,,,,,,,,,,,,,,,,,,,,,,,,220,,,,,,,,,,,,,,,,,,,,,5,5,,,477.8013,6,left,2.1862,,0.5,0.3,"[3,1,2]",0.603870688,stimuli/card_0_transparent.png,0,6,0,6,0,1,,,,,,,,,,
,,,,66295d6b3abf76cfdfeb424d,A,2024-07-02_16h01.04.593,Slot Machine Game,2023.1.3,Win32,59.52380952,,,,,,,,,,,,,,,,,,,,,,,,,,,220,,,,,,,,,,,,,,,,,,,,,5,5,,,481.3048,7,right,0.3009,,0.5,0.3,"[3,1,2]",0.096376978,stimuli/card_0_transparent.png,0,7,0,7,0,1,,,,,,,,,,
,,,,66295d6b3abf76cfdfeb424d,A,2024-07-02_16h01.04.593,Slot Machine Game,2023.1.3,Win32,59.52380952,,,,,,,,,,,,,,,,,,,,,,,,,,,230,,,,,,,,,,,,,,,,,,,,,5,5,,,482.923,8,right,0.5344,,1,0.3,"[3,1,2]",0.466264012,stimuli/card_10_transparent.png,10,8,0,8,0,1,,,,,,,,,,
,,,,66295d6b3abf76cfdfeb424d,A,2024-07-02_16h01.04.593,Slot Machine Game,2023.1.3,Win32,59.52380952,,,,,,,,,,,,,,,,,,,,,,,,,,,330,,,,,,,,,,,,,,,,,,,,,5,5,,,485.2755,9,up,0.1505,,1,0.3,"[3,1,2]",0.653421962,stimuli/card_100_transparent.png,100,9,0,9,0,1,,,,,,,,,,
,,,,66295d6b3abf76cfdfeb424d,A,2024-07-02_16h01.04.593,Slot Machine Game,2023.1.3,Win32,59.52380952,,,,,,,,,,,,,,,,,,,,,,,,,,,430,,,,,,,,,,,,,,,,,,,,,5,5,,,487.2442,10,up,0.004,,1.5,0.3,"[3,1,2]",0.536911344,stimuli/card_100_transparent.png,100,10,0,10,0,1,,,,,,,,,,
,,,,66295d6b3abf76cfdfeb424d,A,2024-07-02_16h01.04.593,Slot Machine Game,2023.1.3,Win32,59.52380952,,,,,,,,,,,,,,,,,,,,,,,,,,,530,,,,,,,,,,,,,,,,,,,,,5,5,,,489.5631,11,up,0.1171,,1.5,0.3,"[3,1,2]",0.653689714,stimuli/card_100_transparent.png,100,11,0,11,0,1,,,,,,,,,,
,,,,66295d6b3abf76cfdfeb424d,A,2024-07-02_16h01.04.593,Slot Machine Game,2023.1.3,Win32,59.52380952,,,,,,,,,,,,,,,,,,,,,,,,,,,530,,,,,,,,,,,,,,,,,,,,,5,5,,,491.9989,12,up,2.8564,,0.5,0.3,"[3,1,2]",0.031153553,stimuli/card_0_transparent.png,0,12,0,12,0,1,,,,,,,,,,
,,,,66295d6b3abf76cfdfeb424d,A,2024-07-02_16h01.04.593,Slot Machine Game,2023.1.3,Win32,59.52380952,,,,,,,,,,,,,,,,,,,,,,,,,,,630,,,,,,,,,,,,,,,,,,,,,5,5,,,496.1865,13,up,0.4052,,1.5,0.3,"[3,1,2]",0.664076386,stimuli/card_100_transparent.png,100,13,0,13,0,1,,,,,,,,,,
,,,,66295d6b3abf76cfdfeb424d,A,2024-07-02_16h01.04.593,Slot Machine Game,2023.1.3,Win32,59.52380952,,,,,,,,,,,,,,,,,,,,,,,,,,,730,,,,,,,,,,,,,,,,,,,,,5,5,,,498.9058,14,up,0.2382,,1.5,0.3,"[3,1,2]",0.551099015,stimuli/card_100_transparent.png,100,14,0,14,0,1,,,,,,,,,,
,,,,66295d6b3abf76cfdfeb424d,A,2024-07-02_16h01.04.593,Slot Machine Game,2023.1.3,Win32,59.52380952,,,,,,,,,,,,,,,,,,,,,,,,,,,,,,,,,,,501.4583,,,,,,,,,,,,,,,,,,,,,,,,,,,,,,,,,"[1210,910,1220,1020,730]",4,0,4,0,1,,,,
,,,,66295d6b3abf76cfdfeb424d,A,2024-07-02_16h01.04.593,Slot Machine Game,2023.1.3,Win32,59.52380952,,,,,,,,,,,,,,,,,,,,,,,,,,,100,,,,,,,,,,,,,,,,,,,,,6,6,"[4,10,15]","[[2,3,1],[1,3,2],[3,2,1]]",506.455,0,right,1.0849,,0.5,0.3,"[2,3,1]",0.891732237,stimuli/card_100_transparent.png,100,0,0,0,0,1,,,,,,,,,,
,,,,66295d6b3abf76cfdfeb424d,A,2024-07-02_16h01.04.593,Slot Machine Game,2023.1.3,Win32,59.52380952,,,,,,,,,,,,,,,,,,,,,,,,,,,200,,,,,,,,,,,,,,,,,,,,,6,6,,,508.8658,1,right,0.0509,,1.5,0.3,"[2,3,1]",0.392613946,stimuli/card_100_transparent.png,100,1,0,1,0,1,,,,,,,,,,
,,,,66295d6b3abf76cfdfeb424d,A,2024-07-02_16h01.04.593,Slot Machine Game,2023.1.3,Win32,59.52380952,,,,,,,,,,,,,,,,,,,,,,,,,,,300,,,,,,,,,,,,,,,,,,,,,6,6,,,511.2346,2,right,0.1089,,1.5,0.3,"[2,3,1]",0.68044759,stimuli/card_100_transparent.png,100,2,0,2,0,1,,,,,,,,,,
,,,,66295d6b3abf76cfdfeb424d,A,2024-07-02_16h01.04.593,Slot Machine Game,2023.1.3,Win32,59.52380952,,,,,,,,,,,,,,,,,,,,,,,,,,,310,,,,,,,,,,,,,,,,,,,,,6,6,,,513.6539,3,right,0.0504,,1,0.3,"[2,3,1]",0.166191466,stimuli/card_10_transparent.png,10,3,0,3,0,1,,,,,,,,,,
,,,,66295d6b3abf76cfdfeb424d,A,2024-07-02_16h01.04.593,Slot Machine Game,2023.1.3,Win32,59.52380952,,,,,,,,,,,,,,,,,,,,,,,,,,,320,,,,,,,,,,,,,,,,,,,,,6,6,,,515.5224,4,right,1.8215,,1,0.3,"[1,3,2]",0.534470302,stimuli/card_10_transparent.png,10,4,0,4,0,1,,,,,,,,,,
,,,,66295d6b3abf76cfdfeb424d,A,2024-07-02_16h01.04.593,Slot Machine Game,2023.1.3,Win32,59.52380952,,,,,,,,,,,,,,,,,,,,,,,,,,,420,,,,,,,,,,,,,,,,,,,,,6,6,,,519.1594,5,right,0.056,,0.5,0.3,"[1,3,2]",0.150800787,stimuli/card_100_transparent.png,100,5,0,5,0,1,,,,,,,,,,
,,,,66295d6b3abf76cfdfeb424d,A,2024-07-02_16h01.04.593,Slot Machine Game,2023.1.3,Win32,59.52380952,,,,,,,,,,,,,,,,,,,,,,,,,,,430,,,,,,,,,,,,,,,,,,,,,6,6,,,520.5274,6,right,1.2087,,0.5,0.3,"[1,3,2]",0.528466891,stimuli/card_10_transparent.png,10,6,0,6,0,1,,,,,,,,,,
,,,,66295d6b3abf76cfdfeb424d,A,2024-07-02_16h01.04.593,Slot Machine Game,2023.1.3,Win32,59.52380952,,,,,,,,,,,,,,,,,,,,,,,,,,,530,,,,,,,,,,,,,,,,,,,,,6,6,,,523.0466,7,left,0.3506,,0.5,0.3,"[1,3,2]",0.958760048,stimuli/card_100_transparent.png,100,7,0,7,0,1,,,,,,,,,,
,,,,66295d6b3abf76cfdfeb424d,A,2024-07-02_16h01.04.593,Slot Machine Game,2023.1.3,Win32,59.52380952,,,,,,,,,,,,,,,,,,,,,,,,,,,630,,,,,,,,,,,,,,,,,,,,,6,6,,,524.7148,8,left,0.005,,0.5,0.3,"[1,3,2]",0.57428709,stimuli/card_100_transparent.png,100,8,0,8,0,1,,,,,,,,,,
,,,,66295d6b3abf76cfdfeb424d,A,2024-07-02_16h01.04.593,Slot Machine Game,2023.1.3,Win32,59.52380952,,,,,,,,,,,,,,,,,,,,,,,,,,,730,,,,,,,,,,,,,,,,,,,,,6,6,,,526.0329,9,left,0.7109,,0.5,0.3,"[1,3,2]",0.889707017,stimuli/card_100_transparent.png,100,9,0,9,0,1,,,,,,,,,,
,,,,66295d6b3abf76cfdfeb424d,A,2024-07-02_16h01.04.593,Slot Machine Game,2023.1.3,Win32,59.52380952,,,,,,,,,,,,,,,,,,,,,,,,,,,730,,,,,,,,,,,,,,,,,,,,,6,6,,,528.0515,10,left,0.0363,,1.5,0.3,"[3,2,1]",0.661424701,stimuli/card_0_transparent.png,0,10,0,10,0,1,,,,,,,,,,
,,,,66295d6b3abf76cfdfeb424d,A,2024-07-02_16h01.04.593,Slot Machine Game,2023.1.3,Win32,59.52380952,,,,,,,,,,,,,,,,,,,,,,,,,,,740,,,,,,,,,,,,,,,,,,,,,6,6,,,530.4039,11,left,0.924,,1,0.3,"[3,2,1]",0.170694834,stimuli/card_10_transparent.png,10,11,0,11,0,1,,,,,,,,,,
,,,,66295d6b3abf76cfdfeb424d,A,2024-07-02_16h01.04.593,Slot Machine Game,2023.1.3,Win32,59.52380952,,,,,,,,,,,,,,,,,,,,,,,,,,,840,,,,,,,,,,,,,,,,,,,,,6,6,,,533.1401,12,up,0.0177,,0.5,0.3,"[3,2,1]",0.164651431,stimuli/card_100_transparent.png,100,12,0,12,0,1,,,,,,,,,,
,,,,66295d6b3abf76cfdfeb424d,A,2024-07-02_16h01.04.593,Slot Machine Game,2023.1.3,Win32,59.52380952,,,,,,,,,,,,,,,,,,,,,,,,,,,850,,,,,,,,,,,,,,,,,,,,,6,6,,,534.4744,13,up,0.0934,,0.5,0.3,"[3,2,1]",0.51020666,stimuli/card_10_transparent.png,10,13,0,13,0,1,,,,,,,,,,
,,,,66295d6b3abf76cfdfeb424d,A,2024-07-02_16h01.04.593,Slot Machine Game,2023.1.3,Win32,59.52380952,,,,,,,,,,,,,,,,,,,,,,,,,,,860,,,,,,,,,,,,,,,,,,,,,6,6,,,535.876,14,up,0.0356,,0.5,0.3,"[3,2,1]",0.738225604,stimuli/card_10_transparent.png,10,14,0,14,0,1,,,,,,,,,,
,,,,66295d6b3abf76cfdfeb424d,A,2024-07-02_16h01.04.593,Slot Machine Game,2023.1.3,Win32,59.52380952,,,,,,,,,,,,,,,,,,,,,,,,,,,,,,,,,,,537.2274,,,,,,,,,,,,,,,,,,,,,,,,,,,,,,,,,"[1210,910,1220,1020,730,860]",5,0,5,0,1,,,,
,,,,66295d6b3abf76cfdfeb424d,A,2024-07-02_16h01.04.593,Slot Machine Game,2023.1.3,Win32,59.52380952,,,,,,,,,,,,,,,,,,,,,,,,,,,100,,,,,,,,,,,,,,,,,,,,,7,7,"[9,15]","[[1,3,2],[2,3,1]]",542.2238,0,left,0.1914,,1,0.3,"[1,3,2]",0.704926916,stimuli/card_100_transparent.png,100,0,0,0,0,1,,,,,,,,,,
,,,,66295d6b3abf76cfdfeb424d,A,2024-07-02_16h01.04.593,Slot Machine Game,2023.1.3,Win32,59.52380952,,,,,,,,,,,,,,,,,,,,,,,,,,,200,,,,,,,,,,,,,,,,,,,,,7,7,,,544.2345,1,left,0.0696,,0.5,0.3,"[1,3,2]",0.33286964,stimuli/card_100_transparent.png,100,1,0,1,0,1,,,,,,,,,,
,,,,66295d6b3abf76cfdfeb424d,A,2024-07-02_16h01.04.593,Slot Machine Game,2023.1.3,Win32,59.52380952,,,,,,,,,,,,,,,,,,,,,,,,,,,300,,,,,,,,,,,,,,,,,,,,,7,7,,,545.6192,2,left,0.0683,,1.5,0.3,"[1,3,2]",0.373035278,stimuli/card_100_transparent.png,100,2,0,2,0,1,,,,,,,,,,
,,,,66295d6b3abf76cfdfeb424d,A,2024-07-02_16h01.04.593,Slot Machine Game,2023.1.3,Win32,59.52380952,,,,,,,,,,,,,,,,,,,,,,,,,,,300,,,,,,,,,,,,,,,,,,,,,7,7,,,548.0048,3,left,0.475,,1,0.3,"[1,3,2]",0.030245445,stimuli/card_0_transparent.png,0,3,0,3,0,1,,,,,,,,,,
,,,,66295d6b3abf76cfdfeb424d,A,2024-07-02_16h01.04.593,Slot Machine Game,2023.1.3,Win32,59.52380952,,,,,,,,,,,,,,,,,,,,,,,,,,,400,,,,,,,,,,,,,,,,,,,,,7,7,,,550.2906,4,left,0.0505,,1.5,0.3,"[1,3,2]",0.996791031,stimuli/card_100_transparent.png,100,4,0,4,0,1,,,,,,,,,,
,,,,66295d6b3abf76cfdfeb424d,A,2024-07-02_16h01.04.593,Slot Machine Game,2023.1.3,Win32,59.52380952,,,,,,,,,,,,,,,,,,,,,,,,,,,500,,,,,,,,,,,,,,,,,,,,,7,7,,,552.6594,5,left,0.0763,,1.5,0.3,"[1,3,2]",0.5589907,stimuli/card_100_transparent.png,100,5,0,5,0,1,,,,,,,,,,
,,,,66295d6b3abf76cfdfeb424d,A,2024-07-02_16h01.04.593,Slot Machine Game,2023.1.3,Win32,59.52380952,,,,,,,,,,,,,,,,,,,,,,,,,,,600,,,,,,,,,,,,,,,,,,,,,7,7,,,555.0452,6,left,0.0027,,0.5,0.3,"[1,3,2]",0.936903043,stimuli/card_100_transparent.png,100,6,0,6,0,1,,,,,,,,,,
,,,,66295d6b3abf76cfdfeb424d,A,2024-07-02_16h01.04.593,Slot Machine Game,2023.1.3,Win32,59.52380952,,,,,,,,,,,,,,,,,,,,,,,,,,,700,,,,,,,,,,,,,,,,,,,,,7,7,,,556.3631,7,left,0.1086,,1,0.3,"[1,3,2]",0.203747088,stimuli/card_100_transparent.png,100,7,0,7,0,1,,,,,,,,,,
,,,,66295d6b3abf76cfdfeb424d,A,2024-07-02_16h01.04.593,Slot Machine Game,2023.1.3,Win32,59.52380952,,,,,,,,,,,,,,,,,,,,,,,,,,,710,,,,,,,,,,,,,,,,,,,,,7,7,,,558.2818,8,left,0.7422,,1,0.3,"[1,3,2]",0.161500406,stimuli/card_10_transparent.png,10,8,0,8,0,1,,,,,,,,,,
,,,,66295d6b3abf76cfdfeb424d,A,2024-07-02_16h01.04.593,Slot Machine Game,2023.1.3,Win32,59.52380952,,,,,,,,,,,,,,,,,,,,,,,,,,,720,,,,,,,,,,,,,,,,,,,,,7,7,,,560.8343,9,left,0.5512,,1.5,0.3,"[2,3,1]",0.462029183,stimuli/card_10_transparent.png,10,9,0,9,0,1,,,,,,,,,,
,,,,66295d6b3abf76cfdfeb424d,A,2024-07-02_16h01.04.593,Slot Machine Game,2023.1.3,Win32,59.52380952,,,,,,,,,,,,,,,,,,,,,,,,,,,730,,,,,,,,,,,,,,,,,,,,,7,7,,,563.7038,10,left,0.2841,,0.5,0.3,"[2,3,1]",0.419642253,stimuli/card_10_transparent.png,10,10,0,10,0,1,,,,,,,,,,
,,,,66295d6b3abf76cfdfeb424d,A,2024-07-02_16h01.04.593,Slot Machine Game,2023.1.3,Win32,59.52380952,,,,,,,,,,,,,,,,,,,,,,,,,,,740,,,,,,,,,,,,,,,,,,,,,7,7,,,565.3053,11,left,0.0705,,1,0.3,"[2,3,1]",0.427113971,stimuli/card_10_transparent.png,10,11,0,11,0,1,,,,,,,,,,
,,,,66295d6b3abf76cfdfeb424d,A,2024-07-02_16h01.04.593,Slot Machine Game,2023.1.3,Win32,59.52380952,,,,,,,,,,,,,,,,,,,,,,,,,,,740,,,,,,,,,,,,,,,,,,,,,7,7,,,567.1905,12,up,0.6413,,1.5,0.3,"[2,3,1]",0.996126919,stimuli/card_0_transparent.png,0,12,0,12,0,1,,,,,,,,,,
,,,,66295d6b3abf76cfdfeb424d,A,2024-07-02_16h01.04.593,Slot Machine Game,2023.1.3,Win32,59.52380952,,,,,,,,,,,,,,,,,,,,,,,,,,,840,,,,,,,,,,,,,,,,,,,,,7,7,,,570.1436,13,right,0.0331,,1.5,0.3,"[2,3,1]",0.634858594,stimuli/card_100_transparent.png,100,13,0,13,0,1,,,,,,,,,,
,,,,66295d6b3abf76cfdfeb424d,A,2024-07-02_16h01.04.593,Slot Machine Game,2023.1.3,Win32,59.52380952,,,,,,,,,,,,,,,,,,,,,,,,,,,940,,,,,,,,,,,,,,,,,,,,,7,7,,,572.4791,14,right,0.0339,,1.5,0.3,"[2,3,1]",0.939237908,stimuli/card_100_transparent.png,100,14,0,14,0,1,,,,,,,,,,
,,,,66295d6b3abf76cfdfeb424d,A,2024-07-02_16h01.04.593,Slot Machine Game,2023.1.3,Win32,59.52380952,,,,,,,,,,,,,,,,,,,,,,,,,,,,,,,,,,,574.8316,,,,,,,,,,,,,,,,,,,,,,,,,,,,,,,,,"[1210,910,1220,1020,730,860,940]",6,0,6,0,1,,,,
,,,,66295d6b3abf76cfdfeb424d,A,2024-07-02_16h01.04.593,Slot Machine Game,2023.1.3,Win32,59.52380952,,,,,,,,,,,,,,,,,,,,,,,,,,,0,,,,,,,,,,,,,,,,,,,,,8,8,"[11,15]","[[2,1,3],[1,2,3]]",579.828,0,up,0.6112,,0.5,0.3,"[2,1,3]",0.084901326,stimuli/card_0_transparent.png,0,0,0,0,0,1,,,,,,,,,,
,,,,66295d6b3abf76cfdfeb424d,A,2024-07-02_16h01.04.593,Slot Machine Game,2023.1.3,Win32,59.52380952,,,,,,,,,,,,,,,,,,,,,,,,,,,10,,,,,,,,,,,,,,,,,,,,,8,8,,,581.7553,1,left,0.5727,,1,0.3,"[2,1,3]",0.314331748,stimuli/card_10_transparent.png,10,1,0,1,0,1,,,,,,,,,,
,,,,66295d6b3abf76cfdfeb424d,A,2024-07-02_16h01.04.593,Slot Machine Game,2023.1.3,Win32,59.52380952,,,,,,,,,,,,,,,,,,,,,,,,,,,20,,,,,,,,,,,,,,,,,,,,,8,8,,,584.1408,2,right,0.2349,,1,0.3,"[2,1,3]",0.127142781,stimuli/card_10_transparent.png,10,2,0,2,0,1,,,,,,,,,,
,,,,66295d6b3abf76cfdfeb424d,A,2024-07-02_16h01.04.593,Slot Machine Game,2023.1.3,Win32,59.52380952,,,,,,,,,,,,,,,,,,,,,,,,,,,20,,,,,,,,,,,,,,,,,,,,,8,8,,,586.1928,3,right,0.0707,,1.5,0.3,"[2,1,3]",0.617635175,stimuli/card_0_transparent.png,0,3,0,3,0,1,,,,,,,,,,
,,,,66295d6b3abf76cfdfeb424d,A,2024-07-02_16h01.04.593,Slot Machine Game,2023.1.3,Win32,59.52380952,,,,,,,,,,,,,,,,,,,,,,,,,,,30,,,,,,,,,,,,,,,,,,,,,8,8,,,588.5787,4,left,1.2213,,1.5,0.3,"[2,1,3]",0.862156717,stimuli/card_10_transparent.png,10,4,0,4,0,1,,,,,,,,,,
,,,,66295d6b3abf76cfdfeb424d,A,2024-07-02_16h01.04.593,Slot Machine Game,2023.1.3,Win32,59.52380952,,,,,,,,,,,,,,,,,,,,,,,,,,,40,,,,,,,,,,,,,,,,,,,,,8,8,,,592.1155,5,left,0.1402,,1.5,0.3,"[2,1,3]",0.635502673,stimuli/card_10_transparent.png,10,5,0,5,0,1,,,,,,,,,,
,,,,66295d6b3abf76cfdfeb424d,A,2024-07-02_16h01.04.593,Slot Machine Game,2023.1.3,Win32,59.52380952,,,,,,,,,,,,,,,,,,,,,,,,,,,140,,,,,,,,,,,,,,,,,,,,,8,8,,,594.5679,6,up,0.0671,,0.5,0.3,"[2,1,3]",0.536016489,stimuli/card_100_transparent.png,100,6,0,6,0,1,,,,,,,,,,
,,,,66295d6b3abf76cfdfeb424d,A,2024-07-02_16h01.04.593,Slot Machine Game,2023.1.3,Win32,59.52380952,,,,,,,,,,,,,,,,,,,,,,,,,,,240,,,,,,,,,,,,,,,,,,,,,8,8,,,595.9527,7,up,0.135,,0.5,0.3,"[2,1,3]",0.428448657,stimuli/card_100_transparent.png,100,7,0,7,0,1,,,,,,,,,,
,,,,66295d6b3abf76cfdfeb424d,A,2024-07-02_16h01.04.593,Slot Machine Game,2023.1.3,Win32,59.52380952,,,,,,,,,,,,,,,,,,,,,,,,,,,340,,,,,,,,,,,,,,,,,,,,,8,8,,,597.404,8,up,0.1004,,1.5,0.3,"[2,1,3]",0.611812836,stimuli/card_100_transparent.png,100,8,0,8,0,1,,,,,,,,,,
,,,,66295d6b3abf76cfdfeb424d,A,2024-07-02_16h01.04.593,Slot Machine Game,2023.1.3,Win32,59.52380952,,,,,,,,,,,,,,,,,,,,,,,,,,,440,,,,,,,,,,,,,,,,,,,,,8,8,,,599.8232,9,up,1.0563,,0.5,0.3,"[2,1,3]",0.865238486,stimuli/card_100_transparent.png,100,9,0,9,0,1,,,,,,,,,,
,,,,66295d6b3abf76cfdfeb424d,A,2024-07-02_16h01.04.593,Slot Machine Game,2023.1.3,Win32,59.52380952,,,,,,,,,,,,,,,,,,,,,,,,,,,540,,,,,,,,,,,,,,,,,,,,,8,8,,,602.1922,10,up,0.2509,,1,0.3,"[2,1,3]",0.388588696,stimuli/card_100_transparent.png,100,10,0,10,0,1,,,,,,,,,,
,,,,66295d6b3abf76cfdfeb424d,A,2024-07-02_16h01.04.593,Slot Machine Game,2023.1.3,Win32,59.52380952,,,,,,,,,,,,,,,,,,,,,,,,,,,550,,,,,,,,,,,,,,,,,,,,,8,8,,,604.2609,11,up,0.7681,,1,0.3,"[1,2,3]",0.671054321,stimuli/card_10_transparent.png,10,11,0,11,0,1,,,,,,,,,,
,,,,66295d6b3abf76cfdfeb424d,A,2024-07-02_16h01.04.593,Slot Machine Game,2023.1.3,Win32,59.52380952,,,,,,,,,,,,,,,,,,,,,,,,,,,560,,,,,,,,,,,,,,,,,,,,,8,8,,,606.8469,12,up,0.0887,,1,0.3,"[1,2,3]",0.873812666,stimuli/card_10_transparent.png,10,12,0,12,0,1,,,,,,,,,,
,,,,66295d6b3abf76cfdfeb424d,A,2024-07-02_16h01.04.593,Slot Machine Game,2023.1.3,Win32,59.52380952,,,,,,,,,,,,,,,,,,,,,,,,,,,560,,,,,,,,,,,,,,,,,,,,,8,8,,,608.7488,13,left,0.9182,,1,0.3,"[1,2,3]",0.040911132,stimuli/card_0_transparent.png,0,13,0,13,0,1,,,,,,,,,,
,,,,66295d6b3abf76cfdfeb424d,A,2024-07-02_16h01.04.593,Slot Machine Game,2023.1.3,Win32,59.52380952,,,,,,,,,,,,,,,,,,,,,,,,,,,660,,,,,,,,,,,,,,,,,,,,,8,8,,,611.4847,14,left,0.0677,,1.5,0.3,"[1,2,3]",0.271587007,stimuli/card_100_transparent.png,100,14,0,14,0,1,,,,,,,,,,
,,,,66295d6b3abf76cfdfeb424d,A,2024-07-02_16h01.04.593,Slot Machine Game,2023.1.3,Win32,59.52380952,,,,,,,,,,,,,,,,,,,,,,,,,,,,,,,,,,,613.8706,,,,,,,,,,,,,,,,,,,,,,,,,,,,,,,,,"[1210,910,1220,1020,730,860,940,660]",7,0,7,0,1,,,,
,,,,66295d6b3abf76cfdfeb424d,A,2024-07-02_16h01.04.593,Slot Machine Game,2023.1.3,Win32,59.52380952,,,,,,,,,,,,,,,,,,,,,,,,,,,10,,,,,,,,,,,,,,,,,,,,,9,9,"[8,15]","[[3,2,1],[3,1,2]]",618.8711,0,up,0.4604,,1,0.3,"[3,2,1]",0.516707024,stimuli/card_10_transparent.png,10,0,0,0,0,1,,,,,,,,,,
,,,,66295d6b3abf76cfdfeb424d,A,2024-07-02_16h01.04.593,Slot Machine Game,2023.1.3,Win32,59.52380952,,,,,,,,,,,,,,,,,,,,,,,,,,,110,,,,,,,,,,,,,,,,,,,,,9,9,,,621.1444,1,right,0.4511,,0.5,0.3,"[3,2,1]",0.803773437,stimuli/card_100_transparent.png,100,1,0,1,0,1,,,,,,,,,,
,,,,66295d6b3abf76cfdfeb424d,A,2024-07-02_16h01.04.593,Slot Machine Game,2023.1.3,Win32,59.52380952,,,,,,,,,,,,,,,,,,,,,,,,,,,210,,,,,,,,,,,,,,,,,,,,,9,9,,,622.9129,2,right,0.2503,,1,0.3,"[3,2,1]",0.46296666,stimuli/card_100_transparent.png,100,2,0,2,0,1,,,,,,,,,,
,,,,66295d6b3abf76cfdfeb424d,A,2024-07-02_16h01.04.593,Slot Machine Game,2023.1.3,Win32,59.52380952,,,,,,,,,,,,,,,,,,,,,,,,,,,220,,,,,,,,,,,,,,,,,,,,,9,9,,,624.9814,3,right,0.0504,,0.5,0.3,"[3,2,1]",0.158904564,stimuli/card_10_transparent.png,10,3,0,3,0,1,,,,,,,,,,
,,,,66295d6b3abf76cfdfeb424d,A,2024-07-02_16h01.04.593,Slot Machine Game,2023.1.3,Win32,59.52380952,,,,,,,,,,,,,,,,,,,,,,,,,,,320,,,,,,,,,,,,,,,,,,,,,9,9,,,626.3497,4,right,0.074,,0.5,0.3,"[3,2,1]",0.33405118,stimuli/card_100_transparent.png,100,4,0,4,0,1,,,,,,,,,,
,,,,66295d6b3abf76cfdfeb424d,A,2024-07-02_16h01.04.593,Slot Machine Game,2023.1.3,Win32,59.52380952,,,,,,,,,,,,,,,,,,,,,,,,,,,420,,,,,,,,,,,,,,,,,,,,,9,9,,,627.7344,5,right,0.1834,,1,0.3,"[3,2,1]",0.328019547,stimuli/card_100_transparent.png,100,5,0,5,0,1,,,,,,,,,,
,,,,66295d6b3abf76cfdfeb424d,A,2024-07-02_16h01.04.593,Slot Machine Game,2023.1.3,Win32,59.52380952,,,,,,,,,,,,,,,,,,,,,,,,,,,520,,,,,,,,,,,,,,,,,,,,,9,9,,,629.7197,6,right,1.288,,1,0.3,"[3,2,1]",0.352248004,stimuli/card_100_transparent.png,100,6,0,6,0,1,,,,,,,,,,
,,,,66295d6b3abf76cfdfeb424d,A,2024-07-02_16h01.04.593,Slot Machine Game,2023.1.3,Win32,59.52380952,,,,,,,,,,,,,,,,,,,,,,,,,,,620,,,,,,,,,,,,,,,,,,,,,9,9,,,632.8228,7,right,0.3527,,1,0.3,"[3,2,1]",0.708221859,stimuli/card_100_transparent.png,100,7,0,7,0,1,,,,,,,,,,
,,,,66295d6b3abf76cfdfeb424d,A,2024-07-02_16h01.04.593,Slot Machine Game,2023.1.3,Win32,59.52380952,,,,,,,,,,,,,,,,,,,,,,,,,,,630,,,,,,,,,,,,,,,,,,,,,9,9,,,634.9916,8,right,0.024,,0.5,0.3,"[3,1,2]",0.879338919,stimuli/card_10_transparent.png,10,8,0,8,0,1,,,,,,,,,,
,,,,66295d6b3abf76cfdfeb424d,A,2024-07-02_16h01.04.593,Slot Machine Game,2023.1.3,Win32,59.52380952,,,,,,,,,,,,,,,,,,,,,,,,,,,640,,,,,,,,,,,,,,,,,,,,,9,9,,,636.3264,9,right,0.2672,,1,0.3,"[3,1,2]",0.994850629,stimuli/card_10_transparent.png,10,9,0,9,0,1,,,,,,,,,,
,,,,66295d6b3abf76cfdfeb424d,A,2024-07-02_16h01.04.593,Slot Machine Game,2023.1.3,Win32,59.52380952,,,,,,,,,,,,,,,,,,,,,,,,,,,650,,,,,,,,,,,,,,,,,,,,,9,9,,,638.4117,10,left,0.1176,,1.5,0.3,"[3,1,2]",0.10368157,stimuli/card_10_transparent.png,10,10,0,10,0,1,,,,,,,,,,
,,,,66295d6b3abf76cfdfeb424d,A,2024-07-02_16h01.04.593,Slot Machine Game,2023.1.3,Win32,59.52380952,,,,,,,,,,,,,,,,,,,,,,,,,,,650,,,,,,,,,,,,,,,,,,,,,9,9,,,640.8475,11,left,2.086,,0.5,0.3,"[3,1,2]",0.514373507,stimuli/card_0_transparent.png,0,11,0,11,0,1,,,,,,,,,,
,,,,66295d6b3abf76cfdfeb424d,A,2024-07-02_16h01.04.593,Slot Machine Game,2023.1.3,Win32,59.52380952,,,,,,,,,,,,,,,,,,,,,,,,,,,750,,,,,,,,,,,,,,,,,,,,,9,9,,,644.2508,12,up,0.0692,,1,0.3,"[3,1,2]",0.631009514,stimuli/card_100_transparent.png,100,12,0,12,0,1,,,,,,,,,,
,,,,66295d6b3abf76cfdfeb424d,A,2024-07-02_16h01.04.593,Slot Machine Game,2023.1.3,Win32,59.52380952,,,,,,,,,,,,,,,,,,,,,,,,,,,850,,,,,,,,,,,,,,,,,,,,,9,9,,,646.136,13,up,0.0716,,0.5,0.3,"[3,1,2]",0.709350153,stimuli/card_100_transparent.png,100,13,0,13,0,1,,,,,,,,,,
,,,,66295d6b3abf76cfdfeb424d,A,2024-07-02_16h01.04.593,Slot Machine Game,2023.1.3,Win32,59.52380952,,,,,,,,,,,,,,,,,,,,,,,,,,,950,,,,,,,,,,,,,,,,,,,,,9,9,,,647.5208,14,up,0.159,,1,0.3,"[3,1,2]",0.472518245,stimuli/card_100_transparent.png,100,14,0,14,0,1,,,,,,,,,,
,,,,66295d6b3abf76cfdfeb424d,A,2024-07-02_16h01.04.593,Slot Machine Game,2023.1.3,Win32,59.52380952,,,,,,,,,,,,,,,,,,,,,,,,,,,,,,,,,,,649.4896,,,,,,,,,,,,,,,,,,,,,,,,,,,,,,,,,"[1210,910,1220,1020,730,860,940,660,950]",8,0,8,0,1,,,,
,,,,66295d6b3abf76cfdfeb424d,A,2024-07-02_16h01.04.593,Slot Machine Game,2023.1.3,Win32,59.52380952,,,,,,,,,,,,,,,,,,,,,,,,,,,0,,,,,,,,,,,,,,,,,,,,,10,10,"[10,15]","[[3,1,2],[1,3,2]]",654.4854,0,left,0.0176,,0.5,0.3,"[3,1,2]",0.978294816,stimuli/card_0_transparent.png,0,0,0,0,0,1,,,,,,,,,,
,,,,66295d6b3abf76cfdfeb424d,A,2024-07-02_16h01.04.593,Slot Machine Game,2023.1.3,Win32,59.52380952,,,,,,,,,,,,,,,,,,,,,,,,,,,0,,,,,,,,,,,,,,,,,,,,,10,10,,,655.8292,1,left,0.5226,,1,0.3,"[3,1,2]",0.202632154,stimuli/card_0_transparent.png,0,1,0,1,0,1,,,,,,,,,,
,,,,66295d6b3abf76cfdfeb424d,A,2024-07-02_16h01.04.593,Slot Machine Game,2023.1.3,Win32,59.52380952,,,,,,,,,,,,,,,,,,,,,,,,,,,100,,,,,,,,,,,,,,,,,,,,,10,10,,,658.1648,2,up,0.4178,,1,0.3,"[3,1,2]",0.882690009,stimuli/card_100_transparent.png,100,2,0,2,0,1,,,,,,,,,,
,,,,66295d6b3abf76cfdfeb424d,A,2024-07-02_16h01.04.593,Slot Machine Game,2023.1.3,Win32,59.52380952,,,,,,,,,,,,,,,,,,,,,,,,,,,200,,,,,,,,,,,,,,,,,,,,,10,10,,,660.4005,3,up,0.2075,,0.5,0.3,"[3,1,2]",0.370032135,stimuli/card_100_transparent.png,100,3,0,3,0,1,,,,,,,,,,
,,,,66295d6b3abf76cfdfeb424d,A,2024-07-02_16h01.04.593,Slot Machine Game,2023.1.3,Win32,59.52380952,,,,,,,,,,,,,,,,,,,,,,,,,,,200,,,,,,,,,,,,,,,,,,,,,10,10,,,661.9186,4,up,0.1052,,1.5,0.3,"[3,1,2]",0.060130317,stimuli/card_0_transparent.png,0,4,0,4,0,1,,,,,,,,,,
,,,,66295d6b3abf76cfdfeb424d,A,2024-07-02_16h01.04.593,Slot Machine Game,2023.1.3,Win32,59.52380952,,,,,,,,,,,,,,,,,,,,,,,,,,,300,,,,,,,,,,,,,,,,,,,,,10,10,,,664.3377,5,up,0.0337,,0.5,0.3,"[3,1,2]",0.526890825,stimuli/card_100_transparent.png,100,5,0,5,0,1,,,,,,,,,,
,,,,66295d6b3abf76cfdfeb424d,A,2024-07-02_16h01.04.593,Slot Machine Game,2023.1.3,Win32,59.52380952,,,,,,,,,,,,,,,,,,,,,,,,,,,400,,,,,,,,,,,,,,,,,,,,,10,10,,,665.689,6,up,0.1,,1.5,0.3,"[3,1,2]",0.63664157,stimuli/card_100_transparent.png,100,6,0,6,0,1,,,,,,,,,,
,,,,66295d6b3abf76cfdfeb424d,A,2024-07-02_16h01.04.593,Slot Machine Game,2023.1.3,Win32,59.52380952,,,,,,,,,,,,,,,,,,,,,,,,,,,500,,,,,,,,,,,,,,,,,,,,,10,10,,,668.1079,7,up,0.0838,,1,0.3,"[3,1,2]",0.548537527,stimuli/card_100_transparent.png,100,7,0,7,0,1,,,,,,,,,,
,,,,66295d6b3abf76cfdfeb424d,A,2024-07-02_16h01.04.593,Slot Machine Game,2023.1.3,Win32,59.52380952,,,,,,,,,,,,,,,,,,,,,,,,,,,600,,,,,,,,,,,,,,,,,,,,,10,10,,,670.01,8,up,0.1418,,1,0.3,"[3,1,2]",0.430809427,stimuli/card_100_transparent.png,100,8,0,8,0,1,,,,,,,,,,
,,,,66295d6b3abf76cfdfeb424d,A,2024-07-02_16h01.04.593,Slot Machine Game,2023.1.3,Win32,59.52380952,,,,,,,,,,,,,,,,,,,,,,,,,,,700,,,,,,,,,,,,,,,,,,,,,10,10,,,671.9619,9,up,0.0338,,0.5,0.3,"[3,1,2]",0.501459438,stimuli/card_100_transparent.png,100,9,0,9,0,1,,,,,,,,,,
,,,,66295d6b3abf76cfdfeb424d,A,2024-07-02_16h01.04.593,Slot Machine Game,2023.1.3,Win32,59.52380952,,,,,,,,,,,,,,,,,,,,,,,,,,,700,,,,,,,,,,,,,,,,,,,,,10,10,,,673.3132,10,up,0.2385,,1,0.3,"[1,3,2]",0.853548504,stimuli/card_0_transparent.png,0,10,0,10,0,1,,,,,,,,,,
,,,,66295d6b3abf76cfdfeb424d,A,2024-07-02_16h01.04.593,Slot Machine Game,2023.1.3,Win32,59.52380952,,,,,,,,,,,,,,,,,,,,,,,,,,,700,,,,,,,,,,,,,,,,,,,,,10,10,,,675.3653,11,up,0.2341,,0.5,0.3,"[1,3,2]",0.752297884,stimuli/card_0_transparent.png,0,11,0,11,0,1,,,,,,,,,,
,,,,66295d6b3abf76cfdfeb424d,A,2024-07-02_16h01.04.593,Slot Machine Game,2023.1.3,Win32,59.52380952,,,,,,,,,,,,,,,,,,,,,,,,,,,710,,,,,,,,,,,,,,,,,,,,,10,10,,,676.9168,12,right,0.0838,,0.5,0.3,"[1,3,2]",0.452962363,stimuli/card_10_transparent.png,10,12,0,12,0,1,,,,,,,,,,
,,,,66295d6b3abf76cfdfeb424d,A,2024-07-02_16h01.04.593,Slot Machine Game,2023.1.3,Win32,59.52380952,,,,,,,,,,,,,,,,,,,,,,,,,,,810,,,,,,,,,,,,,,,,,,,,,10,10,,,678.3181,13,left,0.2257,,1,0.3,"[1,3,2]",0.496453571,stimuli/card_100_transparent.png,100,13,0,13,0,1,,,,,,,,,,
,,,,66295d6b3abf76cfdfeb424d,A,2024-07-02_16h01.04.593,Slot Machine Game,2023.1.3,Win32,59.52380952,,,,,,,,,,,,,,,,,,,,,,,,,,,910,,,,,,,,,,,,,,,,,,,,,10,10,,,680.3536,14,left,0.1668,,0.5,0.3,"[1,3,2]",0.95117817,stimuli/card_100_transparent.png,100,14,0,14,0,1,,,,,,,,,,
,,,,66295d6b3abf76cfdfeb424d,A,2024-07-02_16h01.04.593,Slot Machine Game,2023.1.3,Win32,59.52380952,,,,,,,,,,,,,,,,,,,,,,,,,,,,,,,,,,,681.8384,,,,,,,,,,,,,,,,,,,,,,,,,,,,,,,,,"[1210,910,1220,1020,730,860,940,660,950,910]",9,0,9,0,1,,,,
,,,,66295d6b3abf76cfdfeb424d,A,2024-07-02_16h01.04.593,Slot Machine Game,2023.1.3,Win32,59.52380952,,,,,,,,,,,,,,,,,,,,,,,,,,,,,,,,,,,,,,,,,,,,,,,,,,,,,,,,,,,,,,,,,,,,,,,,,,9,"[1210,910,1220,1020,730,860,940,660,950,910]",10.2,2024-07-02_16h12.35.522
