key_resp_welcome_started,key_resp_welcome_keys,key_resp_welcome_rt,key_resp_welcome_duration,prolific_id,path_id,date,expName,psychopyVersion,OS,frameRate,key_resp_instruction1_started,key_resp_instruction1_keys,key_resp_instruction1_rt,key_resp_instruction1_duration,key_resp_instruction2_started,key_resp_instruction2_keys,key_resp_instruction2_rt,key_resp_instruction2_duration,key_resp_instruction3_started,key_resp_instruction3_keys,key_resp_instruction3_rt,key_resp_instruction3_duration,key_resp_instruction4_started,key_resp_instruction4_keys,key_resp_instruction4_rt,key_resp_instruction4_duration,practiceCondition,practice_reward_seqs,practice_trial_started,practice_trial_num,practice_resp_rt,practice_resp_duration,practice_resp_keys,prac_presentationInterval,"practice_reward_seq: 2,1,3",reward_img,cumulative_reward,trial_reward,practice_trials.thisRepN,practice_trials.thisTrialN,practice_trials.thisN,practice_trials.thisIndex,practice_trials.ran,"practice_reward_seq: 2,3,1",block_break_started,"practice_reward_seq: 1,3,2","practice_reward_seq: 3,1,2",practice_end_time,practice_end_keys,practice_end_rt,practice_end_duration,main_instruction_text_started,block_condition,block_order_indices,main_instruction_keys,main_instruction_rt,main_instruction_duration,block_number,block_assignment,current_condition,main_reward_seqs,main_trial_started,main_trial_num,main_trial_keys,main_trial_rt,main_trial_duration,main_presentationInterval,reward_presentation_time,main_reward_seq,reward_rand_val,main_reward_img,current_reward,main_trials.thisRepN,main_trials.thisTrialN,main_trials.thisN,main_trials.thisIndex,main_trials.ran,block_reward,block.thisRepN,block.thisTrialN,block.thisN,block.thisIndex,block.ran,block_reward.length,block_reward_all,reward_amount,date_end_task
0.0005,return,1.8866,,6630f318d0d884cf785e436f,A,2024-07-04_08h23.29.551,Slot Machine Game,2023.1.3,Linux x86_64,59.88023952,,,,,,,,,,,,,,,,,,,,,,,,,,,,,,,,,,,,,,,,,,,,,,,,,,,,,,,,,,,,,,,,,,,,,,,,,,,,,
,,,,6630f318d0d884cf785e436f,A,2024-07-04_08h23.29.551,Slot Machine Game,2023.1.3,Linux x86_64,59.88023952,1.9114,return,8.2594,,,,,,,,,,,,,,,,,,,,,,,,,,,,,,,,,,,,,,,,,,,,,,,,,,,,,,,,,,,,,,,,,,,,,,,,,,
,,,,6630f318d0d884cf785e436f,A,2024-07-04_08h23.29.551,Slot Machine Game,2023.1.3,Linux x86_64,59.88023952,,,,,10.1944,return,31.3098,,,,,,,,,,,,,,,,,,,,,,,,,,,,,,,,,,,,,,,,,,,,,,,,,,,,,,,,,,,,,,,,,,,,,,
,,,,6630f318d0d884cf785e436f,A,2024-07-04_08h23.29.551,Slot Machine Game,2023.1.3,Linux x86_64,59.88023952,,,,,,,,,41.5326,return,18.1264,,,,,,,,,,,,,,,,,,,,,,,,,,,,,,,,,,,,,,,,,,,,,,,,,,,,,,,,,,,,,,,,,,
,,,,6630f318d0d884cf785e436f,A,2024-07-04_08h23.29.551,Slot Machine Game,2023.1.3,Linux x86_64,59.88023952,,,,,,,,,,,,,,,,,,,,,,,,,,,,,,,,,,,,,,,,,,,,,,,,,,,,,,,,,,,,,,,,,,,,,,,,,,,,,
,,,,6630f318d0d884cf785e436f,A,2024-07-04_08h23.29.551,Slot Machine Game,2023.1.3,Linux x86_64,59.88023952,,,,,,,,,,,,,201.7408,up,2.7463,,,,,,,,,,,,,,,,,,,,,,,,,,,,,,,,,,,,,,,,,,,,,,,,,,,,,,,,,,,,,,
,,,,6630f318d0d884cf785e436f,A,2024-07-04_08h23.29.551,Slot Machine Game,2023.1.3,Linux x86_64,59.88023952,,,,,,,,,,,,,,,,,"[9,15]","[[2,1,3],[2,3,1]]",204.5118,0,0.8513,,left,0.5,,stimuli/card_10_transparent.png,10,10,0,0,0,0,1,,,,,,,,,,,,,,,,,,,,,,,,,,,,,,,,,,,,,,,,,,,,
,,,,6630f318d0d884cf785e436f,A,2024-07-04_08h23.29.551,Slot Machine Game,2023.1.3,Linux x86_64,59.88023952,,,,,,,,,,,,,,,,,,,206.6846,1,3.2151,,up,1.5,,stimuli/card_10_transparent.png,20,10,1,0,1,0,1,,,,,,,,,,,,,,,,,,,,,,,,,,,,,,,,,,,,,,,,,,,,
,,,,6630f318d0d884cf785e436f,A,2024-07-04_08h23.29.551,Slot Machine Game,2023.1.3,Linux x86_64,59.88023952,,,,,,,,,,,,,,,,,,,212.2338,2,2.6188,,up,1,,stimuli/card_100_transparent.png,120,100,2,0,2,0,1,,,,,,,,,,,,,,,,,,,,,,,,,,,,,,,,,,,,,,,,,,,,
,,,,6630f318d0d884cf785e436f,A,2024-07-04_08h23.29.551,Slot Machine Game,2023.1.3,Linux x86_64,59.88023952,,,,,,,,,,,,,,,,,,,216.6838,3,0.8665,,up,1.5,,stimuli/card_100_transparent.png,220,100,3,0,3,0,1,,,,,,,,,,,,,,,,,,,,,,,,,,,,,,,,,,,,,,,,,,,,
,,,,6630f318d0d884cf785e436f,A,2024-07-04_08h23.29.551,Slot Machine Game,2023.1.3,Linux x86_64,59.88023952,,,,,,,,,,,,,,,,,,,219.8841,4,0.6353,,up,1,,stimuli/card_100_transparent.png,320,100,4,0,4,0,1,,,,,,,,,,,,,,,,,,,,,,,,,,,,,,,,,,,,,,,,,,,,
,,,,6630f318d0d884cf785e436f,A,2024-07-04_08h23.29.551,Slot Machine Game,2023.1.3,Linux x86_64,59.88023952,,,,,,,,,,,,,,,,,,,222.3503,5,0.8319,,up,1.5,,stimuli/card_100_transparent.png,420,100,5,0,5,0,1,,,,,,,,,,,,,,,,,,,,,,,,,,,,,,,,,,,,,,,,,,,,
,,,,6630f318d0d884cf785e436f,A,2024-07-04_08h23.29.551,Slot Machine Game,2023.1.3,Linux x86_64,59.88023952,,,,,,,,,,,,,,,,,,,225.5166,6,0.3675,,up,1.5,,stimuli/card_100_transparent.png,520,100,6,0,6,0,1,,,,,,,,,,,,,,,,,,,,,,,,,,,,,,,,,,,,,,,,,,,,
,,,,6630f318d0d884cf785e436f,A,2024-07-04_08h23.29.551,Slot Machine Game,2023.1.3,Linux x86_64,59.88023952,,,,,,,,,,,,,,,,,,,228.2173,7,0.6999,,up,1.5,,stimuli/card_100_transparent.png,620,100,7,0,7,0,1,,,,,,,,,,,,,,,,,,,,,,,,,,,,,,,,,,,,,,,,,,,,
,,,,6630f318d0d884cf785e436f,A,2024-07-04_08h23.29.551,Slot Machine Game,2023.1.3,Linux x86_64,59.88023952,,,,,,,,,,,,,,,,,,,231.2502,8,0.218,,up,1,,stimuli/card_100_transparent.png,720,100,8,0,8,0,1,,,,,,,,,,,,,,,,,,,,,,,,,,,,,,,,,,,,,,,,,,,,
,,,,6630f318d0d884cf785e436f,A,2024-07-04_08h23.29.551,Slot Machine Game,2023.1.3,Linux x86_64,59.88023952,,,,,,,,,,,,,,,,,,,233.2993,9,0.0873,,up,1.5,,stimuli/card_0_transparent.png,720,0,9,0,9,0,1,,,,,,,,,,,,,,,,,,,,,,,,,,,,,,,,,,,,,,,,,,,,
,,,,6630f318d0d884cf785e436f,A,2024-07-04_08h23.29.551,Slot Machine Game,2023.1.3,Linux x86_64,59.88023952,,,,,,,,,,,,,,,,,,,235.6996,10,1.0021,,up,1,,stimuli/card_0_transparent.png,720,0,10,0,10,0,1,,,,,,,,,,,,,,,,,,,,,,,,,,,,,,,,,,,,,,,,,,,,
,,,,6630f318d0d884cf785e436f,A,2024-07-04_08h23.29.551,Slot Machine Game,2023.1.3,Linux x86_64,59.88023952,,,,,,,,,,,,,,,,,,,238.5335,11,0.4387,,left,1,,stimuli/card_10_transparent.png,730,10,11,0,11,0,1,,,,,,,,,,,,,,,,,,,,,,,,,,,,,,,,,,,,,,,,,,,,
,,,,6630f318d0d884cf785e436f,A,2024-07-04_08h23.29.551,Slot Machine Game,2023.1.3,Linux x86_64,59.88023952,,,,,,,,,,,,,,,,,,,240.7993,12,1.2909,,up,0.5,,stimuli/card_0_transparent.png,730,0,12,0,12,0,1,,,,,,,,,,,,,,,,,,,,,,,,,,,,,,,,,,,,,,,,,,,,
,,,,6630f318d0d884cf785e436f,A,2024-07-04_08h23.29.551,Slot Machine Game,2023.1.3,Linux x86_64,59.88023952,,,,,,,,,,,,,,,,,,,243.4177,13,0.7842,,left,1.5,,stimuli/card_10_transparent.png,740,10,13,0,13,0,1,,,,,,,,,,,,,,,,,,,,,,,,,,,,,,,,,,,,,,,,,,,,
,,,,6630f318d0d884cf785e436f,A,2024-07-04_08h23.29.551,Slot Machine Game,2023.1.3,Linux x86_64,59.88023952,,,,,,,,,,,,,,,,,,,246.5322,14,1.4525,,right,1,,stimuli/card_100_transparent.png,840,100,14,0,14,0,1,,,,,,,,,,,,,,,,,,,,,,,,,,,,,,,,,,,,,,,,,,,,
,,,,6630f318d0d884cf785e436f,A,2024-07-04_08h23.29.551,Slot Machine Game,2023.1.3,Linux x86_64,59.88023952,,,,,,,,,,,,,,,,,"[6,15]","[[1,3,2],[3,1,2]]",254.8329,0,2.2704,,up,1.5,,stimuli/card_0_transparent.png,0,0,0,0,0,0,1,,249.8264,,,,,,,,,,,,,,,,,,,,,,,,,,,,,,,,,,,,,,,,,,
,,,,6630f318d0d884cf785e436f,A,2024-07-04_08h23.29.551,Slot Machine Game,2023.1.3,Linux x86_64,59.88023952,,,,,,,,,,,,,,,,,,,259.4323,1,0.4644,,up,0.5,,stimuli/card_0_transparent.png,0,0,1,0,1,0,1,,,,,,,,,,,,,,,,,,,,,,,,,,,,,,,,,,,,,,,,,,,,
,,,,6630f318d0d884cf785e436f,A,2024-07-04_08h23.29.551,Slot Machine Game,2023.1.3,Linux x86_64,59.88023952,,,,,,,,,,,,,,,,,,,261.232,2,1.0509,,left,1,,stimuli/card_100_transparent.png,100,100,2,0,2,0,1,,,,,,,,,,,,,,,,,,,,,,,,,,,,,,,,,,,,,,,,,,,,
,,,,6630f318d0d884cf785e436f,A,2024-07-04_08h23.29.551,Slot Machine Game,2023.1.3,Linux x86_64,59.88023952,,,,,,,,,,,,,,,,,,,264.1148,3,0.2671,,left,0.5,,stimuli/card_100_transparent.png,200,100,3,0,3,0,1,,,,,,,,,,,,,,,,,,,,,,,,,,,,,,,,,,,,,,,,,,,,
,,,,6630f318d0d884cf785e436f,A,2024-07-04_08h23.29.551,Slot Machine Game,2023.1.3,Linux x86_64,59.88023952,,,,,,,,,,,,,,,,,,,265.7149,4,0.2378,,left,0.5,,stimuli/card_100_transparent.png,300,100,4,0,4,0,1,,,,,,,,,,,,,,,,,,,,,,,,,,,,,,,,,,,,,,,,,,,,
,,,,6630f318d0d884cf785e436f,A,2024-07-04_08h23.29.551,Slot Machine Game,2023.1.3,Linux x86_64,59.88023952,,,,,,,,,,,,,,,,,,,267.2812,5,0.3028,,left,0.5,,stimuli/card_100_transparent.png,400,100,5,0,5,0,1,,,,,,,,,,,,,,,,,,,,,,,,,,,,,,,,,,,,,,,,,,,,
,,,,6630f318d0d884cf785e436f,A,2024-07-04_08h23.29.551,Slot Machine Game,2023.1.3,Linux x86_64,59.88023952,,,,,,,,,,,,,,,,,,,268.8981,6,0.2374,,left,0.5,,stimuli/card_0_transparent.png,400,0,6,0,6,0,1,,,,,,,,,,,,,,,,,,,,,,,,,,,,,,,,,,,,,,,,,,,,
,,,,6630f318d0d884cf785e436f,A,2024-07-04_08h23.29.551,Slot Machine Game,2023.1.3,Linux x86_64,59.88023952,,,,,,,,,,,,,,,,,,,270.4645,7,0.4029,,left,1.5,,stimuli/card_0_transparent.png,400,0,7,0,7,0,1,,,,,,,,,,,,,,,,,,,,,,,,,,,,,,,,,,,,,,,,,,,,
,,,,6630f318d0d884cf785e436f,A,2024-07-04_08h23.29.551,Slot Machine Game,2023.1.3,Linux x86_64,59.88023952,,,,,,,,,,,,,,,,,,,273.1977,8,1.464,,right,1.5,,stimuli/card_10_transparent.png,410,10,8,0,8,0,1,,,,,,,,,,,,,,,,,,,,,,,,,,,,,,,,,,,,,,,,,,,,
,,,,6630f318d0d884cf785e436f,A,2024-07-04_08h23.29.551,Slot Machine Game,2023.1.3,Linux x86_64,59.88023952,,,,,,,,,,,,,,,,,,,276.9813,9,1.8037,,up,1,,stimuli/card_100_transparent.png,510,100,9,0,9,0,1,,,,,,,,,,,,,,,,,,,,,,,,,,,,,,,,,,,,,,,,,,,,
,,,,6630f318d0d884cf785e436f,A,2024-07-04_08h23.29.551,Slot Machine Game,2023.1.3,Linux x86_64,59.88023952,,,,,,,,,,,,,,,,,,,280.6139,10,0.2209,,up,0.5,,stimuli/card_100_transparent.png,610,100,10,0,10,0,1,,,,,,,,,,,,,,,,,,,,,,,,,,,,,,,,,,,,,,,,,,,,
,,,,6630f318d0d884cf785e436f,A,2024-07-04_08h23.29.551,Slot Machine Game,2023.1.3,Linux x86_64,59.88023952,,,,,,,,,,,,,,,,,,,282.1645,11,0.0365,,up,1.5,,stimuli/card_100_transparent.png,710,100,11,0,11,0,1,,,,,,,,,,,,,,,,,,,,,,,,,,,,,,,,,,,,,,,,,,,,
,,,,6630f318d0d884cf785e436f,A,2024-07-04_08h23.29.551,Slot Machine Game,2023.1.3,Linux x86_64,59.88023952,,,,,,,,,,,,,,,,,,,284.5317,12,0.028,,up,1,,stimuli/card_100_transparent.png,810,100,12,0,12,0,1,,,,,,,,,,,,,,,,,,,,,,,,,,,,,,,,,,,,,,,,,,,,
,,,,6630f318d0d884cf785e436f,A,2024-07-04_08h23.29.551,Slot Machine Game,2023.1.3,Linux x86_64,59.88023952,,,,,,,,,,,,,,,,,,,286.3978,13,0.1183,,up,0.5,,stimuli/card_100_transparent.png,910,100,13,0,13,0,1,,,,,,,,,,,,,,,,,,,,,,,,,,,,,,,,,,,,,,,,,,,,
,,,,6630f318d0d884cf785e436f,A,2024-07-04_08h23.29.551,Slot Machine Game,2023.1.3,Linux x86_64,59.88023952,,,,,,,,,,,,,,,,,,,287.8474,14,0.1888,,up,0.5,,stimuli/card_100_transparent.png,1010,100,14,0,14,0,1,,,,,,,,,,,,,,,,,,,,,,,,,,,,,,,,,,,,,,,,,,,,
,,,,6630f318d0d884cf785e436f,A,2024-07-04_08h23.29.551,Slot Machine Game,2023.1.3,Linux x86_64,59.88023952,,,,,,,,,,,,,,,,,,,,,,,,,,,,,,,,,,,289.3641,,,294.3665,space,3.3375,,,,,,,,,,,,,,,,,,,,,,,,,,,,,,,,,,,,,
,,,,6630f318d0d884cf785e436f,A,2024-07-04_08h23.29.551,Slot Machine Game,2023.1.3,Linux x86_64,59.88023952,,,,,,,,,,,,,,,,,,,,,,,,,,,,,,,,,,,,,,,,,,297.7305,2,"[2,4,8,0,1,3,9,6,8,5]",space,2.4323,,,,,,,,,,,,,,,,,,,,,,,,,,,,,,,
,,,,6630f318d0d884cf785e436f,A,2024-07-04_08h23.29.551,Slot Machine Game,2023.1.3,Linux x86_64,59.88023952,,,,,,,,,,,,,,,,,,,,,,,,,,,0,,,,,,,,,,,,,,,,,,,,,1,3,"[15,15]","[[3,1,2],[3,1,2]]",300.2172,0,left,1.154,,0.5,0.3,"[3,1,2]",0.384885977,stimuli/card_0_transparent.png,0,0,0,0,0,1,,,,,,,,,,
,,,,6630f318d0d884cf785e436f,A,2024-07-04_08h23.29.551,Slot Machine Game,2023.1.3,Linux x86_64,59.88023952,,,,,,,,,,,,,,,,,,,,,,,,,,,100,,,,,,,,,,,,,,,,,,,,,1,3,,,302.6966,1,up,1.6056,,0.5,0.3,"[3,1,2]",0.698482856,stimuli/card_100_transparent.png,100,1,0,1,0,1,,,,,,,,,,
,,,,6630f318d0d884cf785e436f,A,2024-07-04_08h23.29.551,Slot Machine Game,2023.1.3,Linux x86_64,59.88023952,,,,,,,,,,,,,,,,,,,,,,,,,,,200,,,,,,,,,,,,,,,,,,,,,1,3,,,305.6305,2,up,0.8035,,1.5,0.3,"[3,1,2]",0.401665262,stimuli/card_100_transparent.png,100,2,0,2,0,1,,,,,,,,,,
,,,,6630f318d0d884cf785e436f,A,2024-07-04_08h23.29.551,Slot Machine Game,2023.1.3,Linux x86_64,59.88023952,,,,,,,,,,,,,,,,,,,,,,,,,,,300,,,,,,,,,,,,,,,,,,,,,1,3,,,308.7635,3,up,0.5068,,0.5,0.3,"[3,1,2]",0.476076737,stimuli/card_100_transparent.png,100,3,0,3,0,1,,,,,,,,,,
,,,,6630f318d0d884cf785e436f,A,2024-07-04_08h23.29.551,Slot Machine Game,2023.1.3,Linux x86_64,59.88023952,,,,,,,,,,,,,,,,,,,,,,,,,,,400,,,,,,,,,,,,,,,,,,,,,1,3,,,310.5961,4,up,0.7495,,0.5,0.3,"[3,1,2]",0.638658878,stimuli/card_100_transparent.png,100,4,0,4,0,1,,,,,,,,,,
,,,,6630f318d0d884cf785e436f,A,2024-07-04_08h23.29.551,Slot Machine Game,2023.1.3,Linux x86_64,59.88023952,,,,,,,,,,,,,,,,,,,,,,,,,,,400,,,,,,,,,,,,,,,,,,,,,1,3,,,312.6791,5,up,0.7163,,0.5,0.3,"[3,1,2]",0.053118303,stimuli/card_0_transparent.png,0,5,0,5,0,1,,,,,,,,,,
,,,,6630f318d0d884cf785e436f,A,2024-07-04_08h23.29.551,Slot Machine Game,2023.1.3,Linux x86_64,59.88023952,,,,,,,,,,,,,,,,,,,,,,,,,,,500,,,,,,,,,,,,,,,,,,,,,1,3,,,314.7128,6,up,0.5858,,0.5,0.3,"[3,1,2]",0.479734118,stimuli/card_100_transparent.png,100,6,0,6,0,1,,,,,,,,,,
,,,,6630f318d0d884cf785e436f,A,2024-07-04_08h23.29.551,Slot Machine Game,2023.1.3,Linux x86_64,59.88023952,,,,,,,,,,,,,,,,,,,,,,,,,,,500,,,,,,,,,,,,,,,,,,,,,1,3,,,316.6296,7,up,0.6047,,1.5,0.3,"[3,1,2]",0.042207213,stimuli/card_0_transparent.png,0,7,0,7,0,1,,,,,,,,,,
,,,,6630f318d0d884cf785e436f,A,2024-07-04_08h23.29.551,Slot Machine Game,2023.1.3,Linux x86_64,59.88023952,,,,,,,,,,,,,,,,,,,,,,,,,,,510,,,,,,,,,,,,,,,,,,,,,1,3,,,319.5623,8,up,0.5014,,1,0.3,"[3,1,2]",0.129637806,stimuli/card_10_transparent.png,10,8,0,8,0,1,,,,,,,,,,
,,,,6630f318d0d884cf785e436f,A,2024-07-04_08h23.29.551,Slot Machine Game,2023.1.3,Linux x86_64,59.88023952,,,,,,,,,,,,,,,,,,,,,,,,,,,510,,,,,,,,,,,,,,,,,,,,,1,3,,,321.8791,9,left,1.3991,,0.5,0.3,"[3,1,2]",0.563453753,stimuli/card_0_transparent.png,0,9,0,9,0,1,,,,,,,,,,
,,,,6630f318d0d884cf785e436f,A,2024-07-04_08h23.29.551,Slot Machine Game,2023.1.3,Linux x86_64,59.88023952,,,,,,,,,,,,,,,,,,,,,,,,,,,520,,,,,,,,,,,,,,,,,,,,,1,3,,,324.6122,10,right,0.8165,,0.5,0.3,"[3,1,2]",0.7203144,stimuli/card_10_transparent.png,10,10,0,10,0,1,,,,,,,,,,
,,,,6630f318d0d884cf785e436f,A,2024-07-04_08h23.29.551,Slot Machine Game,2023.1.3,Linux x86_64,59.88023952,,,,,,,,,,,,,,,,,,,,,,,,,,,,,,,,,,,,,,,,,,,,,,,,1,3,,,326.7618,11,,,,1.5,0.3,,,,,11,0,11,0,1,,,,,,,,,,
,,,,6630f318d0d884cf785e436f,A,2024-07-04_08h23.29.551,Slot Machine Game,2023.1.3,Linux x86_64,59.88023952,,,,,,,,,,,,,,,,,,,,,,,,,,,530,,,,,,,,,,,,,,,,,,,,,1,3,,,332.2811,12,right,1.5351,,0.5,0.3,"[3,1,2]",0.875681094,stimuli/card_10_transparent.png,10,12,0,12,0,1,,,,,,,,,,
,,,,6630f318d0d884cf785e436f,A,2024-07-04_08h23.29.551,Slot Machine Game,2023.1.3,Linux x86_64,59.88023952,,,,,,,,,,,,,,,,,,,,,,,,,,,530,,,,,,,,,,,,,,,,,,,,,1,3,,,335.145,13,left,0.4848,,1.5,0.3,"[3,1,2]",0.907897819,stimuli/card_0_transparent.png,0,13,0,13,0,1,,,,,,,,,,
,,,,6630f318d0d884cf785e436f,A,2024-07-04_08h23.29.551,Slot Machine Game,2023.1.3,Linux x86_64,59.88023952,,,,,,,,,,,,,,,,,,,,,,,,,,,630,,,,,,,,,,,,,,,,,,,,,1,3,,,337.9615,14,up,0.833,,1,0.3,"[3,1,2]",0.842679788,stimuli/card_100_transparent.png,100,14,0,14,0,1,,,,,,,,,,
,,,,6630f318d0d884cf785e436f,A,2024-07-04_08h23.29.551,Slot Machine Game,2023.1.3,Linux x86_64,59.88023952,,,,,,,,,,,,,,,,,,,,,,,,,,,,,,,,,,,340.612,,,,,,,,,,,,,,,,,,,,,,,,,,,,,,,,,[630],0,0,0,0,1,,,,
,,,,6630f318d0d884cf785e436f,A,2024-07-04_08h23.29.551,Slot Machine Game,2023.1.3,Linux x86_64,59.88023952,,,,,,,,,,,,,,,,,,,,,,,,,,,100,,,,,,,,,,,,,,,,,,,,,2,5,"[5,15]","[[1,2,3],[3,1,2]]",345.6392,0,left,0.0523,,1,0.3,"[1,2,3]",0.969546359,stimuli/card_100_transparent.png,100,0,0,0,0,1,,,,,,,,,,
,,,,6630f318d0d884cf785e436f,A,2024-07-04_08h23.29.551,Slot Machine Game,2023.1.3,Linux x86_64,59.88023952,,,,,,,,,,,,,,,,,,,,,,,,,,,200,,,,,,,,,,,,,,,,,,,,,2,5,,,347.5117,1,left,0.6188,,0.5,0.3,"[1,2,3]",0.774922517,stimuli/card_100_transparent.png,100,1,0,1,0,1,,,,,,,,,,
,,,,6630f318d0d884cf785e436f,A,2024-07-04_08h23.29.551,Slot Machine Game,2023.1.3,Linux x86_64,59.88023952,,,,,,,,,,,,,,,,,,,,,,,,,,,200,,,,,,,,,,,,,,,,,,,,,2,5,,,349.4608,2,left,0.3009,,1,0.3,"[1,2,3]",0.069442123,stimuli/card_0_transparent.png,0,2,0,2,0,1,,,,,,,,,,
,,,,6630f318d0d884cf785e436f,A,2024-07-04_08h23.29.551,Slot Machine Game,2023.1.3,Linux x86_64,59.88023952,,,,,,,,,,,,,,,,,,,,,,,,,,,200,,,,,,,,,,,,,,,,,,,,,2,5,,,351.5948,3,left,0.3846,,0.5,0.3,"[1,2,3]",0.013061674,stimuli/card_0_transparent.png,0,3,0,3,0,1,,,,,,,,,,
,,,,6630f318d0d884cf785e436f,A,2024-07-04_08h23.29.551,Slot Machine Game,2023.1.3,Linux x86_64,59.88023952,,,,,,,,,,,,,,,,,,,,,,,,,,,210,,,,,,,,,,,,,,,,,,,,,2,5,,,353.3112,4,up,0.1156,,1.5,0.3,"[1,2,3]",0.611537277,stimuli/card_10_transparent.png,10,4,0,4,0,1,,,,,,,,,,
,,,,6630f318d0d884cf785e436f,A,2024-07-04_08h23.29.551,Slot Machine Game,2023.1.3,Linux x86_64,59.88023952,,,,,,,,,,,,,,,,,,,,,,,,,,,220,,,,,,,,,,,,,,,,,,,,,2,5,,,355.7605,5,right,0.5036,,0.5,0.3,"[3,1,2]",0.922354238,stimuli/card_10_transparent.png,10,5,0,5,0,1,,,,,,,,,,
,,,,6630f318d0d884cf785e436f,A,2024-07-04_08h23.29.551,Slot Machine Game,2023.1.3,Linux x86_64,59.88023952,,,,,,,,,,,,,,,,,,,,,,,,,,,230,,,,,,,,,,,,,,,,,,,,,2,5,,,357.5774,6,right,1.17,,1.5,0.3,"[3,1,2]",0.775002423,stimuli/card_10_transparent.png,10,6,0,6,0,1,,,,,,,,,,
,,,,6630f318d0d884cf785e436f,A,2024-07-04_08h23.29.551,Slot Machine Game,2023.1.3,Linux x86_64,59.88023952,,,,,,,,,,,,,,,,,,,,,,,,,,,330,,,,,,,,,,,,,,,,,,,,,2,5,,,361.0768,7,up,1.749,,1.5,0.3,"[3,1,2]",0.592944822,stimuli/card_100_transparent.png,100,7,0,7,0,1,,,,,,,,,,
,,,,6630f318d0d884cf785e436f,A,2024-07-04_08h23.29.551,Slot Machine Game,2023.1.3,Linux x86_64,59.88023952,,,,,,,,,,,,,,,,,,,,,,,,,,,430,,,,,,,,,,,,,,,,,,,,,2,5,,,365.1605,8,up,0.0397,,1,0.3,"[3,1,2]",0.986135116,stimuli/card_100_transparent.png,100,8,0,8,0,1,,,,,,,,,,
,,,,6630f318d0d884cf785e436f,A,2024-07-04_08h23.29.551,Slot Machine Game,2023.1.3,Linux x86_64,59.88023952,,,,,,,,,,,,,,,,,,,,,,,,,,,530,,,,,,,,,,,,,,,,,,,,,2,5,,,367.0273,9,up,0.9735,,1,0.3,"[3,1,2]",0.967793389,stimuli/card_100_transparent.png,100,9,0,9,0,1,,,,,,,,,,
,,,,6630f318d0d884cf785e436f,A,2024-07-04_08h23.29.551,Slot Machine Game,2023.1.3,Linux x86_64,59.88023952,,,,,,,,,,,,,,,,,,,,,,,,,,,630,,,,,,,,,,,,,,,,,,,,,2,5,,,369.8266,10,up,0.0698,,1.5,0.3,"[3,1,2]",0.294298207,stimuli/card_100_transparent.png,100,10,0,10,0,1,,,,,,,,,,
,,,,6630f318d0d884cf785e436f,A,2024-07-04_08h23.29.551,Slot Machine Game,2023.1.3,Linux x86_64,59.88023952,,,,,,,,,,,,,,,,,,,,,,,,,,,730,,,,,,,,,,,,,,,,,,,,,2,5,,,372.227,11,up,0.5569,,0.5,0.3,"[3,1,2]",0.703040335,stimuli/card_100_transparent.png,100,11,0,11,0,1,,,,,,,,,,
,,,,6630f318d0d884cf785e436f,A,2024-07-04_08h23.29.551,Slot Machine Game,2023.1.3,Linux x86_64,59.88023952,,,,,,,,,,,,,,,,,,,,,,,,,,,830,,,,,,,,,,,,,,,,,,,,,2,5,,,374.1102,12,up,0.1851,,1.5,0.3,"[3,1,2]",0.578718419,stimuli/card_100_transparent.png,100,12,0,12,0,1,,,,,,,,,,
,,,,6630f318d0d884cf785e436f,A,2024-07-04_08h23.29.551,Slot Machine Game,2023.1.3,Linux x86_64,59.88023952,,,,,,,,,,,,,,,,,,,,,,,,,,,930,,,,,,,,,,,,,,,,,,,,,2,5,,,376.6269,13,up,0.0255,,1,0.3,"[3,1,2]",0.368067826,stimuli/card_100_transparent.png,100,13,0,13,0,1,,,,,,,,,,
,,,,6630f318d0d884cf785e436f,A,2024-07-04_08h23.29.551,Slot Machine Game,2023.1.3,Linux x86_64,59.88023952,,,,,,,,,,,,,,,,,,,,,,,,,,,1030,,,,,,,,,,,,,,,,,,,,,2,5,,,378.4768,14,up,0.0528,,1,0.3,"[3,1,2]",0.321267081,stimuli/card_100_transparent.png,100,14,0,14,0,1,,,,,,,,,,
,,,,6630f318d0d884cf785e436f,A,2024-07-04_08h23.29.551,Slot Machine Game,2023.1.3,Linux x86_64,59.88023952,,,,,,,,,,,,,,,,,,,,,,,,,,,,,,,,,,,380.3598,,,,,,,,,,,,,,,,,,,,,,,,,,,,,,,,,"[630,1030]",1,0,1,0,1,,,,
,,,,6630f318d0d884cf785e436f,A,2024-07-04_08h23.29.551,Slot Machine Game,2023.1.3,Linux x86_64,59.88023952,,,,,,,,,,,,,,,,,,,,,,,,,,,0,,,,,,,,,,,,,,,,,,,,,3,9,"[8,15]","[[3,2,1],[3,1,2]]",385.3719,0,left,0.1692,,1.5,0.3,"[3,2,1]",0.843629873,stimuli/card_0_transparent.png,0,0,0,0,0,1,,,,,,,,,,
,,,,6630f318d0d884cf785e436f,A,2024-07-04_08h23.29.551,Slot Machine Game,2023.1.3,Linux x86_64,59.88023952,,,,,,,,,,,,,,,,,,,,,,,,,,,0,,,,,,,,,,,,,,,,,,,,,3,9,,,387.8594,1,up,0.2373,,1.5,0.3,"[3,2,1]",0.039120484,stimuli/card_0_transparent.png,0,1,0,1,0,1,,,,,,,,,,
,,,,6630f318d0d884cf785e436f,A,2024-07-04_08h23.29.551,Slot Machine Game,2023.1.3,Linux x86_64,59.88023952,,,,,,,,,,,,,,,,,,,,,,,,,,,100,,,,,,,,,,,,,,,,,,,,,3,9,,,390.4106,2,right,0.5668,,1,0.3,"[3,2,1]",0.827500282,stimuli/card_100_transparent.png,100,2,0,2,0,1,,,,,,,,,,
,,,,6630f318d0d884cf785e436f,A,2024-07-04_08h23.29.551,Slot Machine Game,2023.1.3,Linux x86_64,59.88023952,,,,,,,,,,,,,,,,,,,,,,,,,,,200,,,,,,,,,,,,,,,,,,,,,3,9,,,392.809,3,right,0.1536,,1,0.3,"[3,2,1]",0.901528,stimuli/card_100_transparent.png,100,3,0,3,0,1,,,,,,,,,,
,,,,6630f318d0d884cf785e436f,A,2024-07-04_08h23.29.551,Slot Machine Game,2023.1.3,Linux x86_64,59.88023952,,,,,,,,,,,,,,,,,,,,,,,,,,,210,,,,,,,,,,,,,,,,,,,,,3,9,,,394.793,4,right,0.0346,,0.5,0.3,"[3,2,1]",0.16613197,stimuli/card_10_transparent.png,10,4,0,4,0,1,,,,,,,,,,
,,,,6630f318d0d884cf785e436f,A,2024-07-04_08h23.29.551,Slot Machine Game,2023.1.3,Linux x86_64,59.88023952,,,,,,,,,,,,,,,,,,,,,,,,,,,310,,,,,,,,,,,,,,,,,,,,,3,9,,,396.1594,5,right,0.3149,,1.5,0.3,"[3,2,1]",0.839116842,stimuli/card_100_transparent.png,100,5,0,5,0,1,,,,,,,,,,
,,,,6630f318d0d884cf785e436f,A,2024-07-04_08h23.29.551,Slot Machine Game,2023.1.3,Linux x86_64,59.88023952,,,,,,,,,,,,,,,,,,,,,,,,,,,320,,,,,,,,,,,,,,,,,,,,,3,9,,,398.8093,6,right,0.0668,,1.5,0.3,"[3,2,1]",0.152920615,stimuli/card_10_transparent.png,10,6,0,6,0,1,,,,,,,,,,
,,,,6630f318d0d884cf785e436f,A,2024-07-04_08h23.29.551,Slot Machine Game,2023.1.3,Linux x86_64,59.88023952,,,,,,,,,,,,,,,,,,,,,,,,,,,420,,,,,,,,,,,,,,,,,,,,,3,9,,,401.2089,7,right,0.3184,,0.5,0.3,"[3,2,1]",0.84455166,stimuli/card_100_transparent.png,100,7,0,7,0,1,,,,,,,,,,
,,,,6630f318d0d884cf785e436f,A,2024-07-04_08h23.29.551,Slot Machine Game,2023.1.3,Linux x86_64,59.88023952,,,,,,,,,,,,,,,,,,,,,,,,,,,520,,,,,,,,,,,,,,,,,,,,,3,9,,,402.8595,8,right,0.2157,,1,0.3,"[3,1,2]",0.175622629,stimuli/card_100_transparent.png,100,8,0,8,0,1,,,,,,,,,,
,,,,6630f318d0d884cf785e436f,A,2024-07-04_08h23.29.551,Slot Machine Game,2023.1.3,Linux x86_64,59.88023952,,,,,,,,,,,,,,,,,,,,,,,,,,,530,,,,,,,,,,,,,,,,,,,,,3,9,,,404.9082,9,right,0.5688,,0.5,0.3,"[3,1,2]",0.842119069,stimuli/card_10_transparent.png,10,9,0,9,0,1,,,,,,,,,,
,,,,6630f318d0d884cf785e436f,A,2024-07-04_08h23.29.551,Slot Machine Game,2023.1.3,Linux x86_64,59.88023952,,,,,,,,,,,,,,,,,,,,,,,,,,,540,,,,,,,,,,,,,,,,,,,,,3,9,,,406.8086,10,right,0.1991,,1,0.3,"[3,1,2]",0.962425388,stimuli/card_10_transparent.png,10,10,0,10,0,1,,,,,,,,,,
,,,,6630f318d0d884cf785e436f,A,2024-07-04_08h23.29.551,Slot Machine Game,2023.1.3,Linux x86_64,59.88023952,,,,,,,,,,,,,,,,,,,,,,,,,,,550,,,,,,,,,,,,,,,,,,,,,3,9,,,408.8419,11,up,0.6577,,1,0.3,"[3,1,2]",0.192827548,stimuli/card_10_transparent.png,10,11,0,11,0,1,,,,,,,,,,
,,,,6630f318d0d884cf785e436f,A,2024-07-04_08h23.29.551,Slot Machine Game,2023.1.3,Linux x86_64,59.88023952,,,,,,,,,,,,,,,,,,,,,,,,,,,550,,,,,,,,,,,,,,,,,,,,,3,9,,,411.3253,12,left,0.7196,,0.5,0.3,"[3,1,2]",0.807870239,stimuli/card_0_transparent.png,0,12,0,12,0,1,,,,,,,,,,
,,,,6630f318d0d884cf785e436f,A,2024-07-04_08h23.29.551,Slot Machine Game,2023.1.3,Linux x86_64,59.88023952,,,,,,,,,,,,,,,,,,,,,,,,,,,550,,,,,,,,,,,,,,,,,,,,,3,9,,,413.3754,13,left,1.4664,,0.5,0.3,"[3,1,2]",0.930740003,stimuli/card_0_transparent.png,0,13,0,13,0,1,,,,,,,,,,
,,,,6630f318d0d884cf785e436f,A,2024-07-04_08h23.29.551,Slot Machine Game,2023.1.3,Linux x86_64,59.88023952,,,,,,,,,,,,,,,,,,,,,,,,,,,550,,,,,,,,,,,,,,,,,,,,,3,9,,,416.175,14,up,0.9032,,0.5,0.3,"[3,1,2]",0.061936484,stimuli/card_0_transparent.png,0,14,0,14,0,1,,,,,,,,,,
,,,,6630f318d0d884cf785e436f,A,2024-07-04_08h23.29.551,Slot Machine Game,2023.1.3,Linux x86_64,59.88023952,,,,,,,,,,,,,,,,,,,,,,,,,,,,,,,,,,,418.4094,,,,,,,,,,,,,,,,,,,,,,,,,,,,,,,,,"[630,1030,550]",2,0,2,0,1,,,,
,,,,6630f318d0d884cf785e436f,A,2024-07-04_08h23.29.551,Slot Machine Game,2023.1.3,Linux x86_64,59.88023952,,,,,,,,,,,,,,,,,,,,,,,,,,,100,,,,,,,,,,,,,,,,,,,,,4,1,"[12,15]","[[2,1,3],[2,3,1]]",423.4431,0,up,0.5861,,1,0.3,"[2,1,3]",0.910970142,stimuli/card_100_transparent.png,100,0,0,0,0,1,,,,,,,,,,
,,,,6630f318d0d884cf785e436f,A,2024-07-04_08h23.29.551,Slot Machine Game,2023.1.3,Linux x86_64,59.88023952,,,,,,,,,,,,,,,,,,,,,,,,,,,200,,,,,,,,,,,,,,,,,,,,,4,1,,,425.8576,1,up,0.8847,,1,0.3,"[2,1,3]",0.41264452,stimuli/card_100_transparent.png,100,1,0,1,0,1,,,,,,,,,,
,,,,6630f318d0d884cf785e436f,A,2024-07-04_08h23.29.551,Slot Machine Game,2023.1.3,Linux x86_64,59.88023952,,,,,,,,,,,,,,,,,,,,,,,,,,,300,,,,,,,,,,,,,,,,,,,,,4,1,,,428.5738,2,up,0.1199,,1,0.3,"[2,1,3]",0.364907095,stimuli/card_100_transparent.png,100,2,0,2,0,1,,,,,,,,,,
,,,,6630f318d0d884cf785e436f,A,2024-07-04_08h23.29.551,Slot Machine Game,2023.1.3,Linux x86_64,59.88023952,,,,,,,,,,,,,,,,,,,,,,,,,,,400,,,,,,,,,,,,,,,,,,,,,4,1,,,430.5071,3,up,0.1037,,1,0.3,"[2,1,3]",0.619494988,stimuli/card_100_transparent.png,100,3,0,3,0,1,,,,,,,,,,
,,,,6630f318d0d884cf785e436f,A,2024-07-04_08h23.29.551,Slot Machine Game,2023.1.3,Linux x86_64,59.88023952,,,,,,,,,,,,,,,,,,,,,,,,,,,500,,,,,,,,,,,,,,,,,,,,,4,1,,,432.4414,4,up,0.0381,,0.5,0.3,"[2,1,3]",0.466688268,stimuli/card_100_transparent.png,100,4,0,4,0,1,,,,,,,,,,
,,,,6630f318d0d884cf785e436f,A,2024-07-04_08h23.29.551,Slot Machine Game,2023.1.3,Linux x86_64,59.88023952,,,,,,,,,,,,,,,,,,,,,,,,,,,600,,,,,,,,,,,,,,,,,,,,,4,1,,,433.8075,5,up,0.0694,,1.5,0.3,"[2,1,3]",0.803788223,stimuli/card_100_transparent.png,100,5,0,5,0,1,,,,,,,,,,
,,,,6630f318d0d884cf785e436f,A,2024-07-04_08h23.29.551,Slot Machine Game,2023.1.3,Linux x86_64,59.88023952,,,,,,,,,,,,,,,,,,,,,,,,,,,700,,,,,,,,,,,,,,,,,,,,,4,1,,,436.2075,6,up,0.3047,,1.5,0.3,"[2,1,3]",0.418534761,stimuli/card_100_transparent.png,100,6,0,6,0,1,,,,,,,,,,
,,,,6630f318d0d884cf785e436f,A,2024-07-04_08h23.29.551,Slot Machine Game,2023.1.3,Linux x86_64,59.88023952,,,,,,,,,,,,,,,,,,,,,,,,,,,710,,,,,,,,,,,,,,,,,,,,,4,1,,,438.84,7,up,0.0384,,1,0.3,"[2,1,3]",0.164629081,stimuli/card_10_transparent.png,10,7,0,7,0,1,,,,,,,,,,
,,,,6630f318d0d884cf785e436f,A,2024-07-04_08h23.29.551,Slot Machine Game,2023.1.3,Linux x86_64,59.88023952,,,,,,,,,,,,,,,,,,,,,,,,,,,810,,,,,,,,,,,,,,,,,,,,,4,1,,,440.6902,8,up,0.3031,,1,0.3,"[2,1,3]",0.597280961,stimuli/card_100_transparent.png,100,8,0,8,0,1,,,,,,,,,,
,,,,6630f318d0d884cf785e436f,A,2024-07-04_08h23.29.551,Slot Machine Game,2023.1.3,Linux x86_64,59.88023952,,,,,,,,,,,,,,,,,,,,,,,,,,,910,,,,,,,,,,,,,,,,,,,,,4,1,,,442.8232,9,up,0.2191,,1,0.3,"[2,1,3]",0.21242464,stimuli/card_100_transparent.png,100,9,0,9,0,1,,,,,,,,,,
,,,,6630f318d0d884cf785e436f,A,2024-07-04_08h23.29.551,Slot Machine Game,2023.1.3,Linux x86_64,59.88023952,,,,,,,,,,,,,,,,,,,,,,,,,,,910,,,,,,,,,,,,,,,,,,,,,4,1,,,444.8567,10,up,1.2354,,0.5,0.3,"[2,1,3]",0.007067327,stimuli/card_0_transparent.png,0,10,0,10,0,1,,,,,,,,,,
,,,,6630f318d0d884cf785e436f,A,2024-07-04_08h23.29.551,Slot Machine Game,2023.1.3,Linux x86_64,59.88023952,,,,,,,,,,,,,,,,,,,,,,,,,,,1010,,,,,,,,,,,,,,,,,,,,,4,1,,,447.4238,11,up,0.2685,,1,0.3,"[2,1,3]",0.209501304,stimuli/card_100_transparent.png,100,11,0,11,0,1,,,,,,,,,,
,,,,6630f318d0d884cf785e436f,A,2024-07-04_08h23.29.551,Slot Machine Game,2023.1.3,Linux x86_64,59.88023952,,,,,,,,,,,,,,,,,,,,,,,,,,,1010,,,,,,,,,,,,,,,,,,,,,4,1,,,449.5232,12,up,0.9209,,1.5,0.3,"[2,3,1]",0.635227726,stimuli/card_0_transparent.png,0,12,0,12,0,1,,,,,,,,,,
,,,,6630f318d0d884cf785e436f,A,2024-07-04_08h23.29.551,Slot Machine Game,2023.1.3,Linux x86_64,59.88023952,,,,,,,,,,,,,,,,,,,,,,,,,,,1010,,,,,,,,,,,,,,,,,,,,,4,1,,,452.7738,13,up,0.2511,,0.5,0.3,"[2,3,1]",0.254312598,stimuli/card_0_transparent.png,0,13,0,13,0,1,,,,,,,,,,
,,,,6630f318d0d884cf785e436f,A,2024-07-04_08h23.29.551,Slot Machine Game,2023.1.3,Linux x86_64,59.88023952,,,,,,,,,,,,,,,,,,,,,,,,,,,1020,,,,,,,,,,,,,,,,,,,,,4,1,,,454.3561,14,left,0.2212,,0.5,0.3,"[2,3,1]",0.749566654,stimuli/card_10_transparent.png,10,14,0,14,0,1,,,,,,,,,,
,,,,6630f318d0d884cf785e436f,A,2024-07-04_08h23.29.551,Slot Machine Game,2023.1.3,Linux x86_64,59.88023952,,,,,,,,,,,,,,,,,,,,,,,,,,,,,,,,,,,455.9061,,,,,,,,,,,,,,,,,,,,,,,,,,,,,,,,,"[630,1030,550,1020]",3,0,3,0,1,,,,
,,,,6630f318d0d884cf785e436f,A,2024-07-04_08h23.29.551,Slot Machine Game,2023.1.3,Linux x86_64,59.88023952,,,,,,,,,,,,,,,,,,,,,,,,,,,0,,,,,,,,,,,,,,,,,,,,,5,2,"[6,15]","[[1,3,2],[3,2,1]]",460.9175,0,right,0.1221,,1,0.3,"[1,3,2]",0.098770245,stimuli/card_0_transparent.png,0,0,0,0,0,1,,,,,,,,,,
,,,,6630f318d0d884cf785e436f,A,2024-07-04_08h23.29.551,Slot Machine Game,2023.1.3,Linux x86_64,59.88023952,,,,,,,,,,,,,,,,,,,,,,,,,,,10,,,,,,,,,,,,,,,,,,,,,5,2,,,462.8558,1,right,1.0394,,0.5,0.3,"[1,3,2]",0.828596938,stimuli/card_10_transparent.png,10,1,0,1,0,1,,,,,,,,,,
,,,,6630f318d0d884cf785e436f,A,2024-07-04_08h23.29.551,Slot Machine Game,2023.1.3,Linux x86_64,59.88023952,,,,,,,,,,,,,,,,,,,,,,,,,,,10,,,,,,,,,,,,,,,,,,,,,5,2,,,465.2221,2,up,0.0395,,1,0.3,"[1,3,2]",0.977525883,stimuli/card_0_transparent.png,0,2,0,2,0,1,,,,,,,,,,
,,,,6630f318d0d884cf785e436f,A,2024-07-04_08h23.29.551,Slot Machine Game,2023.1.3,Linux x86_64,59.88023952,,,,,,,,,,,,,,,,,,,,,,,,,,,110,,,,,,,,,,,,,,,,,,,,,5,2,,,467.0726,3,left,0.6018,,1,0.3,"[1,3,2]",0.292640192,stimuli/card_100_transparent.png,100,3,0,3,0,1,,,,,,,,,,
,,,,6630f318d0d884cf785e436f,A,2024-07-04_08h23.29.551,Slot Machine Game,2023.1.3,Linux x86_64,59.88023952,,,,,,,,,,,,,,,,,,,,,,,,,,,210,,,,,,,,,,,,,,,,,,,,,5,2,,,469.5061,4,left,0.0179,,1.5,0.3,"[1,3,2]",0.401034336,stimuli/card_100_transparent.png,100,4,0,4,0,1,,,,,,,,,,
,,,,6630f318d0d884cf785e436f,A,2024-07-04_08h23.29.551,Slot Machine Game,2023.1.3,Linux x86_64,59.88023952,,,,,,,,,,,,,,,,,,,,,,,,,,,310,,,,,,,,,,,,,,,,,,,,,5,2,,,471.8557,5,left,1.034,,0.5,0.3,"[1,3,2]",0.841713379,stimuli/card_100_transparent.png,100,5,0,5,0,1,,,,,,,,,,
,,,,6630f318d0d884cf785e436f,A,2024-07-04_08h23.29.551,Slot Machine Game,2023.1.3,Linux x86_64,59.88023952,,,,,,,,,,,,,,,,,,,,,,,,,,,320,,,,,,,,,,,,,,,,,,,,,5,2,,,474.2224,6,left,0.2316,,1.5,0.3,"[3,2,1]",0.1518022,stimuli/card_10_transparent.png,10,6,0,6,0,1,,,,,,,,,,
,,,,6630f318d0d884cf785e436f,A,2024-07-04_08h23.29.551,Slot Machine Game,2023.1.3,Linux x86_64,59.88023952,,,,,,,,,,,,,,,,,,,,,,,,,,,320,,,,,,,,,,,,,,,,,,,,,5,2,,,476.789,7,left,0.2147,,1.5,0.3,"[3,2,1]",0.318694314,stimuli/card_0_transparent.png,0,7,0,7,0,1,,,,,,,,,,
,,,,6630f318d0d884cf785e436f,A,2024-07-04_08h23.29.551,Slot Machine Game,2023.1.3,Linux x86_64,59.88023952,,,,,,,,,,,,,,,,,,,,,,,,,,,330,,,,,,,,,,,,,,,,,,,,,5,2,,,479.3387,8,up,0.1324,,1,0.3,"[3,2,1]",0.65268297,stimuli/card_10_transparent.png,10,8,0,8,0,1,,,,,,,,,,
,,,,6630f318d0d884cf785e436f,A,2024-07-04_08h23.29.551,Slot Machine Game,2023.1.3,Linux x86_64,59.88023952,,,,,,,,,,,,,,,,,,,,,,,,,,,430,,,,,,,,,,,,,,,,,,,,,5,2,,,481.3051,9,right,0.8001,,0.5,0.3,"[3,2,1]",0.626589796,stimuli/card_100_transparent.png,100,9,0,9,0,1,,,,,,,,,,
,,,,6630f318d0d884cf785e436f,A,2024-07-04_08h23.29.551,Slot Machine Game,2023.1.3,Linux x86_64,59.88023952,,,,,,,,,,,,,,,,,,,,,,,,,,,530,,,,,,,,,,,,,,,,,,,,,5,2,,,483.4216,10,right,0.2022,,0.5,0.3,"[3,2,1]",0.360931508,stimuli/card_100_transparent.png,100,10,0,10,0,1,,,,,,,,,,
,,,,6630f318d0d884cf785e436f,A,2024-07-04_08h23.29.551,Slot Machine Game,2023.1.3,Linux x86_64,59.88023952,,,,,,,,,,,,,,,,,,,,,,,,,,,630,,,,,,,,,,,,,,,,,,,,,5,2,,,484.9546,11,right,0.0678,,1,0.3,"[3,2,1]",0.712278676,stimuli/card_100_transparent.png,100,11,0,11,0,1,,,,,,,,,,
,,,,6630f318d0d884cf785e436f,A,2024-07-04_08h23.29.551,Slot Machine Game,2023.1.3,Linux x86_64,59.88023952,,,,,,,,,,,,,,,,,,,,,,,,,,,730,,,,,,,,,,,,,,,,,,,,,5,2,,,486.8545,12,right,0.4518,,1,0.3,"[3,2,1]",0.551459274,stimuli/card_100_transparent.png,100,12,0,12,0,1,,,,,,,,,,
,,,,6630f318d0d884cf785e436f,A,2024-07-04_08h23.29.551,Slot Machine Game,2023.1.3,Linux x86_64,59.88023952,,,,,,,,,,,,,,,,,,,,,,,,,,,830,,,,,,,,,,,,,,,,,,,,,5,2,,,489.1219,13,right,0.37,,0.5,0.3,"[3,2,1]",0.546866199,stimuli/card_100_transparent.png,100,13,0,13,0,1,,,,,,,,,,
,,,,6630f318d0d884cf785e436f,A,2024-07-04_08h23.29.551,Slot Machine Game,2023.1.3,Linux x86_64,59.88023952,,,,,,,,,,,,,,,,,,,,,,,,,,,930,,,,,,,,,,,,,,,,,,,,,5,2,,,490.8209,14,right,0.0011,,1,0.3,"[3,2,1]",0.518003664,stimuli/card_100_transparent.png,100,14,0,14,0,1,,,,,,,,,,
,,,,6630f318d0d884cf785e436f,A,2024-07-04_08h23.29.551,Slot Machine Game,2023.1.3,Linux x86_64,59.88023952,,,,,,,,,,,,,,,,,,,,,,,,,,,,,,,,,,,492.655,,,,,,,,,,,,,,,,,,,,,,,,,,,,,,,,,"[630,1030,550,1020,930]",4,0,4,0,1,,,,
,,,,6630f318d0d884cf785e436f,A,2024-07-04_08h23.29.551,Slot Machine Game,2023.1.3,Linux x86_64,59.88023952,,,,,,,,,,,,,,,,,,,,,,,,,,,10,,,,,,,,,,,,,,,,,,,,,6,4,"[7,15]","[[2,3,1],[1,2,3]]",497.6658,0,left,0.5519,,1.5,0.3,"[2,3,1]",0.225513738,stimuli/card_10_transparent.png,10,0,0,0,0,1,,,,,,,,,,
,,,,6630f318d0d884cf785e436f,A,2024-07-04_08h23.29.551,Slot Machine Game,2023.1.3,Linux x86_64,59.88023952,,,,,,,,,,,,,,,,,,,,,,,,,,,10,,,,,,,,,,,,,,,,,,,,,6,4,,,500.5379,1,up,0.3178,,0.5,0.3,"[2,3,1]",0.45371025,stimuli/card_0_transparent.png,0,1,0,1,0,1,,,,,,,,,,
,,,,6630f318d0d884cf785e436f,A,2024-07-04_08h23.29.551,Slot Machine Game,2023.1.3,Linux x86_64,59.88023952,,,,,,,,,,,,,,,,,,,,,,,,,,,110,,,,,,,,,,,,,,,,,,,,,6,4,,,502.1715,2,right,0.0879,,1,0.3,"[2,3,1]",0.477767745,stimuli/card_100_transparent.png,100,2,0,2,0,1,,,,,,,,,,
,,,,6630f318d0d884cf785e436f,A,2024-07-04_08h23.29.551,Slot Machine Game,2023.1.3,Linux x86_64,59.88023952,,,,,,,,,,,,,,,,,,,,,,,,,,,210,,,,,,,,,,,,,,,,,,,,,6,4,,,504.0869,3,right,0.4701,,0.5,0.3,"[2,3,1]",0.784693782,stimuli/card_100_transparent.png,100,3,0,3,0,1,,,,,,,,,,
,,,,6630f318d0d884cf785e436f,A,2024-07-04_08h23.29.551,Slot Machine Game,2023.1.3,Linux x86_64,59.88023952,,,,,,,,,,,,,,,,,,,,,,,,,,,310,,,,,,,,,,,,,,,,,,,,,6,4,,,505.887,4,right,0.1031,,0.5,0.3,"[2,3,1]",0.641721307,stimuli/card_100_transparent.png,100,4,0,4,0,1,,,,,,,,,,
,,,,6630f318d0d884cf785e436f,A,2024-07-04_08h23.29.551,Slot Machine Game,2023.1.3,Linux x86_64,59.88023952,,,,,,,,,,,,,,,,,,,,,,,,,,,410,,,,,,,,,,,,,,,,,,,,,6,4,,,507.3209,5,right,0.4887,,0.5,0.3,"[2,3,1]",0.567103769,stimuli/card_100_transparent.png,100,5,0,5,0,1,,,,,,,,,,
,,,,6630f318d0d884cf785e436f,A,2024-07-04_08h23.29.551,Slot Machine Game,2023.1.3,Linux x86_64,59.88023952,,,,,,,,,,,,,,,,,,,,,,,,,,,510,,,,,,,,,,,,,,,,,,,,,6,4,,,509.1332,6,right,0.1997,,1,0.3,"[2,3,1]",0.948398617,stimuli/card_100_transparent.png,100,6,0,6,0,1,,,,,,,,,,
,,,,6630f318d0d884cf785e436f,A,2024-07-04_08h23.29.551,Slot Machine Game,2023.1.3,Linux x86_64,59.88023952,,,,,,,,,,,,,,,,,,,,,,,,,,,510,,,,,,,,,,,,,,,,,,,,,6,4,,,511.1538,7,right,0.3865,,1.5,0.3,"[1,2,3]",0.264721039,stimuli/card_0_transparent.png,0,7,0,7,0,1,,,,,,,,,,
,,,,6630f318d0d884cf785e436f,A,2024-07-04_08h23.29.551,Slot Machine Game,2023.1.3,Linux x86_64,59.88023952,,,,,,,,,,,,,,,,,,,,,,,,,,,510,,,,,,,,,,,,,,,,,,,,,6,4,,,513.8697,8,right,0.7491,,1,0.3,"[1,2,3]",0.794707182,stimuli/card_0_transparent.png,0,8,0,8,0,1,,,,,,,,,,
,,,,6630f318d0d884cf785e436f,A,2024-07-04_08h23.29.551,Slot Machine Game,2023.1.3,Linux x86_64,59.88023952,,,,,,,,,,,,,,,,,,,,,,,,,,,510,,,,,,,,,,,,,,,,,,,,,6,4,,,516.4532,9,up,0.8336,,0.5,0.3,"[1,2,3]",0.030621149,stimuli/card_0_transparent.png,0,9,0,9,0,1,,,,,,,,,,
,,,,6630f318d0d884cf785e436f,A,2024-07-04_08h23.29.551,Slot Machine Game,2023.1.3,Linux x86_64,59.88023952,,,,,,,,,,,,,,,,,,,,,,,,,,,610,,,,,,,,,,,,,,,,,,,,,6,4,,,518.6036,10,left,0.0227,,1.5,0.3,"[1,2,3]",0.633894593,stimuli/card_100_transparent.png,100,10,0,10,0,1,,,,,,,,,,
,,,,6630f318d0d884cf785e436f,A,2024-07-04_08h23.29.551,Slot Machine Game,2023.1.3,Linux x86_64,59.88023952,,,,,,,,,,,,,,,,,,,,,,,,,,,710,,,,,,,,,,,,,,,,,,,,,6,4,,,520.9528,11,left,0.0007,,0.5,0.3,"[1,2,3]",0.235681741,stimuli/card_100_transparent.png,100,11,0,11,0,1,,,,,,,,,,
,,,,6630f318d0d884cf785e436f,A,2024-07-04_08h23.29.551,Slot Machine Game,2023.1.3,Linux x86_64,59.88023952,,,,,,,,,,,,,,,,,,,,,,,,,,,810,,,,,,,,,,,,,,,,,,,,,6,4,,,522.2693,12,left,0.2342,,0.5,0.3,"[1,2,3]",0.570597132,stimuli/card_100_transparent.png,100,12,0,12,0,1,,,,,,,,,,
,,,,6630f318d0d884cf785e436f,A,2024-07-04_08h23.29.551,Slot Machine Game,2023.1.3,Linux x86_64,59.88023952,,,,,,,,,,,,,,,,,,,,,,,,,,,910,,,,,,,,,,,,,,,,,,,,,6,4,,,523.8363,13,left,0.0323,,1.5,0.3,"[1,2,3]",0.534064998,stimuli/card_100_transparent.png,100,13,0,13,0,1,,,,,,,,,,
,,,,6630f318d0d884cf785e436f,A,2024-07-04_08h23.29.551,Slot Machine Game,2023.1.3,Linux x86_64,59.88023952,,,,,,,,,,,,,,,,,,,,,,,,,,,1010,,,,,,,,,,,,,,,,,,,,,6,4,,,526.2038,14,left,0.3529,,1.5,0.3,"[1,2,3]",0.207716022,stimuli/card_100_transparent.png,100,14,0,14,0,1,,,,,,,,,,
,,,,6630f318d0d884cf785e436f,A,2024-07-04_08h23.29.551,Slot Machine Game,2023.1.3,Linux x86_64,59.88023952,,,,,,,,,,,,,,,,,,,,,,,,,,,,,,,,,,,528.8864,,,,,,,,,,,,,,,,,,,,,,,,,,,,,,,,,"[630,1030,550,1020,930,1010]",5,0,5,0,1,,,,
,,,,6630f318d0d884cf785e436f,A,2024-07-04_08h23.29.551,Slot Machine Game,2023.1.3,Linux x86_64,59.88023952,,,,,,,,,,,,,,,,,,,,,,,,,,,0,,,,,,,,,,,,,,,,,,,,,7,10,"[10,15]","[[3,1,2],[1,3,2]]",533.9186,0,left,0.1013,,0.5,0.3,"[3,1,2]",0.488425495,stimuli/card_0_transparent.png,0,0,0,0,0,1,,,,,,,,,,
,,,,6630f318d0d884cf785e436f,A,2024-07-04_08h23.29.551,Slot Machine Game,2023.1.3,Linux x86_64,59.88023952,,,,,,,,,,,,,,,,,,,,,,,,,,,100,,,,,,,,,,,,,,,,,,,,,7,10,,,535.3364,1,up,0.0357,,1.5,0.3,"[3,1,2]",0.335024689,stimuli/card_100_transparent.png,100,1,0,1,0,1,,,,,,,,,,
,,,,6630f318d0d884cf785e436f,A,2024-07-04_08h23.29.551,Slot Machine Game,2023.1.3,Linux x86_64,59.88023952,,,,,,,,,,,,,,,,,,,,,,,,,,,200,,,,,,,,,,,,,,,,,,,,,7,10,,,537.7022,2,up,0.4203,,1,0.3,"[3,1,2]",0.320328904,stimuli/card_100_transparent.png,100,2,0,2,0,1,,,,,,,,,,
,,,,6630f318d0d884cf785e436f,A,2024-07-04_08h23.29.551,Slot Machine Game,2023.1.3,Linux x86_64,59.88023952,,,,,,,,,,,,,,,,,,,,,,,,,,,300,,,,,,,,,,,,,,,,,,,,,7,10,,,539.9519,3,up,0.7149,,1,0.3,"[3,1,2]",0.233273737,stimuli/card_100_transparent.png,100,3,0,3,0,1,,,,,,,,,,
,,,,6630f318d0d884cf785e436f,A,2024-07-04_08h23.29.551,Slot Machine Game,2023.1.3,Linux x86_64,59.88023952,,,,,,,,,,,,,,,,,,,,,,,,,,,400,,,,,,,,,,,,,,,,,,,,,7,10,,,542.502,4,up,0.0229,,0.5,0.3,"[3,1,2]",0.237453492,stimuli/card_100_transparent.png,100,4,0,4,0,1,,,,,,,,,,
,,,,6630f318d0d884cf785e436f,A,2024-07-04_08h23.29.551,Slot Machine Game,2023.1.3,Linux x86_64,59.88023952,,,,,,,,,,,,,,,,,,,,,,,,,,,410,,,,,,,,,,,,,,,,,,,,,7,10,,,543.8519,5,up,0.0529,,1.5,0.3,"[3,1,2]",0.11086769,stimuli/card_10_transparent.png,10,5,0,5,0,1,,,,,,,,,,
,,,,6630f318d0d884cf785e436f,A,2024-07-04_08h23.29.551,Slot Machine Game,2023.1.3,Linux x86_64,59.88023952,,,,,,,,,,,,,,,,,,,,,,,,,,,510,,,,,,,,,,,,,,,,,,,,,7,10,,,546.2183,6,up,0.0554,,1,0.3,"[3,1,2]",0.432559512,stimuli/card_100_transparent.png,100,6,0,6,0,1,,,,,,,,,,
,,,,6630f318d0d884cf785e436f,A,2024-07-04_08h23.29.551,Slot Machine Game,2023.1.3,Linux x86_64,59.88023952,,,,,,,,,,,,,,,,,,,,,,,,,,,610,,,,,,,,,,,,,,,,,,,,,7,10,,,548.1021,7,up,2.0856,,1,0.3,"[3,1,2]",0.324628915,stimuli/card_100_transparent.png,100,7,0,7,0,1,,,,,,,,,,
,,,,6630f318d0d884cf785e436f,A,2024-07-04_08h23.29.551,Slot Machine Game,2023.1.3,Linux x86_64,59.88023952,,,,,,,,,,,,,,,,,,,,,,,,,,,710,,,,,,,,,,,,,,,,,,,,,7,10,,,552.019,8,up,0.0849,,0.5,0.3,"[3,1,2]",0.581235977,stimuli/card_100_transparent.png,100,8,0,8,0,1,,,,,,,,,,
,,,,6630f318d0d884cf785e436f,A,2024-07-04_08h23.29.551,Slot Machine Game,2023.1.3,Linux x86_64,59.88023952,,,,,,,,,,,,,,,,,,,,,,,,,,,710,,,,,,,,,,,,,,,,,,,,,7,10,,,553.4355,9,up,1.619,,1.5,0.3,"[3,1,2]",0.01348271,stimuli/card_0_transparent.png,0,9,0,9,0,1,,,,,,,,,,
,,,,6630f318d0d884cf785e436f,A,2024-07-04_08h23.29.551,Slot Machine Game,2023.1.3,Linux x86_64,59.88023952,,,,,,,,,,,,,,,,,,,,,,,,,,,710,,,,,,,,,,,,,,,,,,,,,7,10,,,557.3852,10,up,0.1689,,1.5,0.3,"[1,3,2]",0.283541864,stimuli/card_0_transparent.png,0,10,0,10,0,1,,,,,,,,,,
,,,,6630f318d0d884cf785e436f,A,2024-07-04_08h23.29.551,Slot Machine Game,2023.1.3,Linux x86_64,59.88023952,,,,,,,,,,,,,,,,,,,,,,,,,,,810,,,,,,,,,,,,,,,,,,,,,7,10,,,559.8844,11,left,0.0054,,1,0.3,"[1,3,2]",0.56401685,stimuli/card_100_transparent.png,100,11,0,11,0,1,,,,,,,,,,
,,,,6630f318d0d884cf785e436f,A,2024-07-04_08h23.29.551,Slot Machine Game,2023.1.3,Linux x86_64,59.88023952,,,,,,,,,,,,,,,,,,,,,,,,,,,820,,,,,,,,,,,,,,,,,,,,,7,10,,,561.719,12,left,1.7015,,1,0.3,"[1,3,2]",0.163899921,stimuli/card_10_transparent.png,10,12,0,12,0,1,,,,,,,,,,
,,,,6630f318d0d884cf785e436f,A,2024-07-04_08h23.29.551,Slot Machine Game,2023.1.3,Linux x86_64,59.88023952,,,,,,,,,,,,,,,,,,,,,,,,,,,820,,,,,,,,,,,,,,,,,,,,,7,10,,,565.2526,13,left,0.2673,,1.5,0.3,"[1,3,2]",0.015698885,stimuli/card_0_transparent.png,0,13,0,13,0,1,,,,,,,,,,
,,,,6630f318d0d884cf785e436f,A,2024-07-04_08h23.29.551,Slot Machine Game,2023.1.3,Linux x86_64,59.88023952,,,,,,,,,,,,,,,,,,,,,,,,,,,820,,,,,,,,,,,,,,,,,,,,,7,10,,,567.851,14,up,0.6655,,1,0.3,"[1,3,2]",0.687999701,stimuli/card_0_transparent.png,0,14,0,14,0,1,,,,,,,,,,
,,,,6630f318d0d884cf785e436f,A,2024-07-04_08h23.29.551,Slot Machine Game,2023.1.3,Linux x86_64,59.88023952,,,,,,,,,,,,,,,,,,,,,,,,,,,,,,,,,,,570.334,,,,,,,,,,,,,,,,,,,,,,,,,,,,,,,,,"[630,1030,550,1020,930,1010,820]",6,0,6,0,1,,,,
,,,,6630f318d0d884cf785e436f,A,2024-07-04_08h23.29.551,Slot Machine Game,2023.1.3,Linux x86_64,59.88023952,,,,,,,,,,,,,,,,,,,,,,,,,,,100,,,,,,,,,,,,,,,,,,,,,8,7,"[9,15]","[[1,3,2],[2,3,1]]",575.3682,0,up,0.5673,,1.5,0.3,"[1,3,2]",0.043455419,stimuli/card_100_transparent.png,100,0,0,0,0,1,,,,,,,,,,
,,,,6630f318d0d884cf785e436f,A,2024-07-04_08h23.29.551,Slot Machine Game,2023.1.3,Linux x86_64,59.88023952,,,,,,,,,,,,,,,,,,,,,,,,,,,110,,,,,,,,,,,,,,,,,,,,,8,7,,,578.2671,1,up,1.8513,,1,0.3,"[1,3,2]",0.197832536,stimuli/card_10_transparent.png,10,1,0,1,0,1,,,,,,,,,,
,,,,6630f318d0d884cf785e436f,A,2024-07-04_08h23.29.551,Slot Machine Game,2023.1.3,Linux x86_64,59.88023952,,,,,,,,,,,,,,,,,,,,,,,,,,,110,,,,,,,,,,,,,,,,,,,,,8,7,,,581.9342,2,up,0.2979,,1,0.3,"[1,3,2]",0.242578313,stimuli/card_0_transparent.png,0,2,0,2,0,1,,,,,,,,,,
,,,,6630f318d0d884cf785e436f,A,2024-07-04_08h23.29.551,Slot Machine Game,2023.1.3,Linux x86_64,59.88023952,,,,,,,,,,,,,,,,,,,,,,,,,,,210,,,,,,,,,,,,,,,,,,,,,8,7,,,584.0668,3,left,0.0044,,1.5,0.3,"[1,3,2]",0.296143491,stimuli/card_100_transparent.png,100,3,0,3,0,1,,,,,,,,,,
,,,,6630f318d0d884cf785e436f,A,2024-07-04_08h23.29.551,Slot Machine Game,2023.1.3,Linux x86_64,59.88023952,,,,,,,,,,,,,,,,,,,,,,,,,,,310,,,,,,,,,,,,,,,,,,,,,8,7,,,586.384,4,left,0.5232,,1.5,0.3,"[1,3,2]",0.22671659,stimuli/card_100_transparent.png,100,4,0,4,0,1,,,,,,,,,,
,,,,6630f318d0d884cf785e436f,A,2024-07-04_08h23.29.551,Slot Machine Game,2023.1.3,Linux x86_64,59.88023952,,,,,,,,,,,,,,,,,,,,,,,,,,,410,,,,,,,,,,,,,,,,,,,,,8,7,,,589.2336,5,left,0.822,,1.5,0.3,"[1,3,2]",0.918027191,stimuli/card_100_transparent.png,100,5,0,5,0,1,,,,,,,,,,
,,,,6630f318d0d884cf785e436f,A,2024-07-04_08h23.29.551,Slot Machine Game,2023.1.3,Linux x86_64,59.88023952,,,,,,,,,,,,,,,,,,,,,,,,,,,510,,,,,,,,,,,,,,,,,,,,,8,7,,,592.3853,6,left,0.968,,1,0.3,"[1,3,2]",0.956515875,stimuli/card_100_transparent.png,100,6,0,6,0,1,,,,,,,,,,
,,,,6630f318d0d884cf785e436f,A,2024-07-04_08h23.29.551,Slot Machine Game,2023.1.3,Linux x86_64,59.88023952,,,,,,,,,,,,,,,,,,,,,,,,,,,520,,,,,,,,,,,,,,,,,,,,,8,7,,,595.1829,7,left,1.2036,,1,0.3,"[1,3,2]",0.195537523,stimuli/card_10_transparent.png,10,7,0,7,0,1,,,,,,,,,,
,,,,6630f318d0d884cf785e436f,A,2024-07-04_08h23.29.551,Slot Machine Game,2023.1.3,Linux x86_64,59.88023952,,,,,,,,,,,,,,,,,,,,,,,,,,,620,,,,,,,,,,,,,,,,,,,,,8,7,,,598.1998,8,left,0.1395,,1.5,0.3,"[1,3,2]",0.65466122,stimuli/card_100_transparent.png,100,8,0,8,0,1,,,,,,,,,,
,,,,6630f318d0d884cf785e436f,A,2024-07-04_08h23.29.551,Slot Machine Game,2023.1.3,Linux x86_64,59.88023952,,,,,,,,,,,,,,,,,,,,,,,,,,,630,,,,,,,,,,,,,,,,,,,,,8,7,,,600.666,9,left,0.0809,,0.5,0.3,"[2,3,1]",0.708748008,stimuli/card_10_transparent.png,10,9,0,9,0,1,,,,,,,,,,
,,,,6630f318d0d884cf785e436f,A,2024-07-04_08h23.29.551,Slot Machine Game,2023.1.3,Linux x86_64,59.88023952,,,,,,,,,,,,,,,,,,,,,,,,,,,640,,,,,,,,,,,,,,,,,,,,,8,7,,,602.0831,10,left,0.1839,,0.5,0.3,"[2,3,1]",0.889851585,stimuli/card_10_transparent.png,10,10,0,10,0,1,,,,,,,,,,
,,,,6630f318d0d884cf785e436f,A,2024-07-04_08h23.29.551,Slot Machine Game,2023.1.3,Linux x86_64,59.88023952,,,,,,,,,,,,,,,,,,,,,,,,,,,740,,,,,,,,,,,,,,,,,,,,,8,7,,,603.5837,11,right,0.3678,,0.5,0.3,"[2,3,1]",0.537273814,stimuli/card_100_transparent.png,100,11,0,11,0,1,,,,,,,,,,
,,,,6630f318d0d884cf785e436f,A,2024-07-04_08h23.29.551,Slot Machine Game,2023.1.3,Linux x86_64,59.88023952,,,,,,,,,,,,,,,,,,,,,,,,,,,750,,,,,,,,,,,,,,,,,,,,,8,7,,,605.2829,12,right,0.1206,,0.5,0.3,"[2,3,1]",0.136068883,stimuli/card_10_transparent.png,10,12,0,12,0,1,,,,,,,,,,
,,,,6630f318d0d884cf785e436f,A,2024-07-04_08h23.29.551,Slot Machine Game,2023.1.3,Linux x86_64,59.88023952,,,,,,,,,,,,,,,,,,,,,,,,,,,850,,,,,,,,,,,,,,,,,,,,,8,7,,,606.7331,13,right,0.2195,,0.5,0.3,"[2,3,1]",0.386607565,stimuli/card_100_transparent.png,100,13,0,13,0,1,,,,,,,,,,
,,,,6630f318d0d884cf785e436f,A,2024-07-04_08h23.29.551,Slot Machine Game,2023.1.3,Linux x86_64,59.88023952,,,,,,,,,,,,,,,,,,,,,,,,,,,950,,,,,,,,,,,,,,,,,,,,,8,7,,,608.2824,14,right,0.0641,,1.5,0.3,"[2,3,1]",0.249945346,stimuli/card_100_transparent.png,100,14,0,14,0,1,,,,,,,,,,
,,,,6630f318d0d884cf785e436f,A,2024-07-04_08h23.29.551,Slot Machine Game,2023.1.3,Linux x86_64,59.88023952,,,,,,,,,,,,,,,,,,,,,,,,,,,,,,,,,,,610.6664,,,,,,,,,,,,,,,,,,,,,,,,,,,,,,,,,"[630,1030,550,1020,930,1010,820,950]",7,0,7,0,1,,,,
,,,,6630f318d0d884cf785e436f,A,2024-07-04_08h23.29.551,Slot Machine Game,2023.1.3,Linux x86_64,59.88023952,,,,,,,,,,,,,,,,,,,,,,,,,,,10,,,,,,,,,,,,,,,,,,,,,9,9,[15],"[[3,1,2]]",615.684,0,right,0.1721,,1.5,0.3,"[3,1,2]",0.75937357,stimuli/card_10_transparent.png,10,0,0,0,0,1,,,,,,,,,,
,,,,6630f318d0d884cf785e436f,A,2024-07-04_08h23.29.551,Slot Machine Game,2023.1.3,Linux x86_64,59.88023952,,,,,,,,,,,,,,,,,,,,,,,,,,,110,,,,,,,,,,,,,,,,,,,,,9,9,,,618.1825,1,up,0.6236,,0.5,0.3,"[3,1,2]",0.773835205,stimuli/card_100_transparent.png,100,1,0,1,0,1,,,,,,,,,,
,,,,6630f318d0d884cf785e436f,A,2024-07-04_08h23.29.551,Slot Machine Game,2023.1.3,Linux x86_64,59.88023952,,,,,,,,,,,,,,,,,,,,,,,,,,,210,,,,,,,,,,,,,,,,,,,,,9,9,,,620.1324,2,up,0.1851,,1,0.3,"[3,1,2]",0.554082046,stimuli/card_100_transparent.png,100,2,0,2,0,1,,,,,,,,,,
,,,,6630f318d0d884cf785e436f,A,2024-07-04_08h23.29.551,Slot Machine Game,2023.1.3,Linux x86_64,59.88023952,,,,,,,,,,,,,,,,,,,,,,,,,,,310,,,,,,,,,,,,,,,,,,,,,9,9,,,622.1492,3,up,0.4987,,1.5,0.3,"[3,1,2]",0.639594538,stimuli/card_100_transparent.png,100,3,0,3,0,1,,,,,,,,,,
,,,,6630f318d0d884cf785e436f,A,2024-07-04_08h23.29.551,Slot Machine Game,2023.1.3,Linux x86_64,59.88023952,,,,,,,,,,,,,,,,,,,,,,,,,,,310,,,,,,,,,,,,,,,,,,,,,9,9,,,624.9819,4,up,0.2854,,1.5,0.3,"[3,1,2]",0.017681175,stimuli/card_0_transparent.png,0,4,0,4,0,1,,,,,,,,,,
,,,,6630f318d0d884cf785e436f,A,2024-07-04_08h23.29.551,Slot Machine Game,2023.1.3,Linux x86_64,59.88023952,,,,,,,,,,,,,,,,,,,,,,,,,,,410,,,,,,,,,,,,,,,,,,,,,9,9,,,627.5995,5,up,0.1039,,1.5,0.3,"[3,1,2]",0.966054917,stimuli/card_100_transparent.png,100,5,0,5,0,1,,,,,,,,,,
,,,,6630f318d0d884cf785e436f,A,2024-07-04_08h23.29.551,Slot Machine Game,2023.1.3,Linux x86_64,59.88023952,,,,,,,,,,,,,,,,,,,,,,,,,,,510,,,,,,,,,,,,,,,,,,,,,9,9,,,630.032,6,up,0.0006,,1.5,0.3,"[3,1,2]",0.649418669,stimuli/card_100_transparent.png,100,6,0,6,0,1,,,,,,,,,,
,,,,6630f318d0d884cf785e436f,A,2024-07-04_08h23.29.551,Slot Machine Game,2023.1.3,Linux x86_64,59.88023952,,,,,,,,,,,,,,,,,,,,,,,,,,,610,,,,,,,,,,,,,,,,,,,,,9,9,,,632.3655,7,up,0.4379,,0.5,0.3,"[3,1,2]",0.343395087,stimuli/card_100_transparent.png,100,7,0,7,0,1,,,,,,,,,,
,,,,6630f318d0d884cf785e436f,A,2024-07-04_08h23.29.551,Slot Machine Game,2023.1.3,Linux x86_64,59.88023952,,,,,,,,,,,,,,,,,,,,,,,,,,,710,,,,,,,,,,,,,,,,,,,,,9,9,,,634.1312,8,up,0.1497,,1,0.3,"[3,1,2]",0.886056892,stimuli/card_100_transparent.png,100,8,0,8,0,1,,,,,,,,,,
,,,,6630f318d0d884cf785e436f,A,2024-07-04_08h23.29.551,Slot Machine Game,2023.1.3,Linux x86_64,59.88023952,,,,,,,,,,,,,,,,,,,,,,,,,,,810,,,,,,,,,,,,,,,,,,,,,9,9,,,636.1142,9,up,0.5332,,1,0.3,"[3,1,2]",0.702061634,stimuli/card_100_transparent.png,100,9,0,9,0,1,,,,,,,,,,
,,,,6630f318d0d884cf785e436f,A,2024-07-04_08h23.29.551,Slot Machine Game,2023.1.3,Linux x86_64,59.88023952,,,,,,,,,,,,,,,,,,,,,,,,,,,910,,,,,,,,,,,,,,,,,,,,,9,9,,,638.4645,10,up,0.3861,,1,0.3,"[3,1,2]",0.823919059,stimuli/card_100_transparent.png,100,10,0,10,0,1,,,,,,,,,,
,,,,6630f318d0d884cf785e436f,A,2024-07-04_08h23.29.551,Slot Machine Game,2023.1.3,Linux x86_64,59.88023952,,,,,,,,,,,,,,,,,,,,,,,,,,,920,,,,,,,,,,,,,,,,,,,,,9,9,,,640.6807,11,up,0.3682,,1,0.3,"[3,1,2]",0.150872064,stimuli/card_10_transparent.png,10,11,0,11,0,1,,,,,,,,,,
,,,,6630f318d0d884cf785e436f,A,2024-07-04_08h23.29.551,Slot Machine Game,2023.1.3,Linux x86_64,59.88023952,,,,,,,,,,,,,,,,,,,,,,,,,,,1020,,,,,,,,,,,,,,,,,,,,,9,9,,,642.864,12,up,0.0056,,1.5,0.3,"[3,1,2]",0.278295479,stimuli/card_100_transparent.png,100,12,0,12,0,1,,,,,,,,,,
,,,,6630f318d0d884cf785e436f,A,2024-07-04_08h23.29.551,Slot Machine Game,2023.1.3,Linux x86_64,59.88023952,,,,,,,,,,,,,,,,,,,,,,,,,,,1120,,,,,,,,,,,,,,,,,,,,,9,9,,,645.1982,13,up,0.0011,,1,0.3,"[3,1,2]",0.377662581,stimuli/card_100_transparent.png,100,13,0,13,0,1,,,,,,,,,,
,,,,6630f318d0d884cf785e436f,A,2024-07-04_08h23.29.551,Slot Machine Game,2023.1.3,Linux x86_64,59.88023952,,,,,,,,,,,,,,,,,,,,,,,,,,,1130,,,,,,,,,,,,,,,,,,,,,9,9,,,647.0312,14,up,0.6707,,0.5,0.3,"[3,1,2]",0.148905915,stimuli/card_10_transparent.png,10,14,0,14,0,1,,,,,,,,,,
,,,,6630f318d0d884cf785e436f,A,2024-07-04_08h23.29.551,Slot Machine Game,2023.1.3,Linux x86_64,59.88023952,,,,,,,,,,,,,,,,,,,,,,,,,,,,,,,,,,,649.031,,,,,,,,,,,,,,,,,,,,,,,,,,,,,,,,,"[630,1030,550,1020,930,1010,820,950,1130]",8,0,8,0,1,,,,
,,,,6630f318d0d884cf785e436f,A,2024-07-04_08h23.29.551,Slot Machine Game,2023.1.3,Linux x86_64,59.88023952,,,,,,,,,,,,,,,,,,,,,,,,,,,10,,,,,,,,,,,,,,,,,,,,,10,6,"[4,10,15]","[[2,3,1],[1,3,2],[3,2,1]]",654.0418,0,left,0.1191,,1.5,0.3,"[2,3,1]",0.462701868,stimuli/card_10_transparent.png,10,0,0,0,0,1,,,,,,,,,,
,,,,6630f318d0d884cf785e436f,A,2024-07-04_08h23.29.551,Slot Machine Game,2023.1.3,Linux x86_64,59.88023952,,,,,,,,,,,,,,,,,,,,,,,,,,,10,,,,,,,,,,,,,,,,,,,,,10,6,,,656.4803,1,up,0.3866,,1,0.3,"[2,3,1]",0.330721558,stimuli/card_0_transparent.png,0,1,0,1,0,1,,,,,,,,,,
,,,,6630f318d0d884cf785e436f,A,2024-07-04_08h23.29.551,Slot Machine Game,2023.1.3,Linux x86_64,59.88023952,,,,,,,,,,,,,,,,,,,,,,,,,,,20,,,,,,,,,,,,,,,,,,,,,10,6,,,658.6966,2,right,0.0348,,0.5,0.3,"[2,3,1]",0.10847275,stimuli/card_10_transparent.png,10,2,0,2,0,1,,,,,,,,,,
,,,,6630f318d0d884cf785e436f,A,2024-07-04_08h23.29.551,Slot Machine Game,2023.1.3,Linux x86_64,59.88023952,,,,,,,,,,,,,,,,,,,,,,,,,,,20,,,,,,,,,,,,,,,,,,,,,10,6,,,660.0632,3,up,0.3357,,1.5,0.3,"[2,3,1]",0.959749597,stimuli/card_0_transparent.png,0,3,0,3,0,1,,,,,,,,,,
,,,,6630f318d0d884cf785e436f,A,2024-07-04_08h23.29.551,Slot Machine Game,2023.1.3,Linux x86_64,59.88023952,,,,,,,,,,,,,,,,,,,,,,,,,,,120,,,,,,,,,,,,,,,,,,,,,10,6,,,662.7305,4,left,0.6136,,1.5,0.3,"[1,3,2]",0.512849165,stimuli/card_100_transparent.png,100,4,0,4,0,1,,,,,,,,,,
,,,,6630f318d0d884cf785e436f,A,2024-07-04_08h23.29.551,Slot Machine Game,2023.1.3,Linux x86_64,59.88023952,,,,,,,,,,,,,,,,,,,,,,,,,,,220,,,,,,,,,,,,,,,,,,,,,10,6,,,665.6802,5,left,0.0514,,1,0.3,"[1,3,2]",0.946127055,stimuli/card_100_transparent.png,100,5,0,5,0,1,,,,,,,,,,
,,,,6630f318d0d884cf785e436f,A,2024-07-04_08h23.29.551,Slot Machine Game,2023.1.3,Linux x86_64,59.88023952,,,,,,,,,,,,,,,,,,,,,,,,,,,220,,,,,,,,,,,,,,,,,,,,,10,6,,,667.5636,6,left,0.1036,,0.5,0.3,"[1,3,2]",0.071444628,stimuli/card_0_transparent.png,0,6,0,6,0,1,,,,,,,,,,
,,,,6630f318d0d884cf785e436f,A,2024-07-04_08h23.29.551,Slot Machine Game,2023.1.3,Linux x86_64,59.88023952,,,,,,,,,,,,,,,,,,,,,,,,,,,220,,,,,,,,,,,,,,,,,,,,,10,6,,,668.9961,7,left,0.2363,,1,0.3,"[1,3,2]",0.079975535,stimuli/card_0_transparent.png,0,7,0,7,0,1,,,,,,,,,,
,,,,6630f318d0d884cf785e436f,A,2024-07-04_08h23.29.551,Slot Machine Game,2023.1.3,Linux x86_64,59.88023952,,,,,,,,,,,,,,,,,,,,,,,,,,,320,,,,,,,,,,,,,,,,,,,,,10,6,,,671.0627,8,up,0.5365,,1.5,0.3,"[1,3,2]",0.004289847,stimuli/card_100_transparent.png,100,8,0,8,0,1,,,,,,,,,,
,,,,6630f318d0d884cf785e436f,A,2024-07-04_08h23.29.551,Slot Machine Game,2023.1.3,Linux x86_64,59.88023952,,,,,,,,,,,,,,,,,,,,,,,,,,,320,,,,,,,,,,,,,,,,,,,,,10,6,,,673.9297,9,up,0.1142,,0.5,0.3,"[1,3,2]",0.27827445,stimuli/card_0_transparent.png,0,9,0,9,0,1,,,,,,,,,,
,,,,6630f318d0d884cf785e436f,A,2024-07-04_08h23.29.551,Slot Machine Game,2023.1.3,Linux x86_64,59.88023952,,,,,,,,,,,,,,,,,,,,,,,,,,,320,,,,,,,,,,,,,,,,,,,,,10,6,,,675.3792,10,up,0.3829,,0.5,0.3,"[3,2,1]",0.088460579,stimuli/card_0_transparent.png,0,10,0,10,0,1,,,,,,,,,,
,,,,6630f318d0d884cf785e436f,A,2024-07-04_08h23.29.551,Slot Machine Game,2023.1.3,Linux x86_64,59.88023952,,,,,,,,,,,,,,,,,,,,,,,,,,,420,,,,,,,,,,,,,,,,,,,,,10,6,,,677.0793,11,right,0.2818,,0.5,0.3,"[3,2,1]",0.625738259,stimuli/card_100_transparent.png,100,11,0,11,0,1,,,,,,,,,,
,,,,6630f318d0d884cf785e436f,A,2024-07-04_08h23.29.551,Slot Machine Game,2023.1.3,Linux x86_64,59.88023952,,,,,,,,,,,,,,,,,,,,,,,,,,,520,,,,,,,,,,,,,,,,,,,,,10,6,,,678.6796,12,right,0.0193,,0.5,0.3,"[3,2,1]",0.360983354,stimuli/card_100_transparent.png,100,12,0,12,0,1,,,,,,,,,,
,,,,6630f318d0d884cf785e436f,A,2024-07-04_08h23.29.551,Slot Machine Game,2023.1.3,Linux x86_64,59.88023952,,,,,,,,,,,,,,,,,,,,,,,,,,,620,,,,,,,,,,,,,,,,,,,,,10,6,,,680.0295,13,right,0.3716,,1.5,0.3,"[3,2,1]",0.789880529,stimuli/card_100_transparent.png,100,13,0,13,0,1,,,,,,,,,,
,,,,6630f318d0d884cf785e436f,A,2024-07-04_08h23.29.551,Slot Machine Game,2023.1.3,Linux x86_64,59.88023952,,,,,,,,,,,,,,,,,,,,,,,,,,,720,,,,,,,,,,,,,,,,,,,,,10,6,,,682.7288,14,right,0.3371,,1.5,0.3,"[3,2,1]",0.334740929,stimuli/card_100_transparent.png,100,14,0,14,0,1,,,,,,,,,,
,,,,6630f318d0d884cf785e436f,A,2024-07-04_08h23.29.551,Slot Machine Game,2023.1.3,Linux x86_64,59.88023952,,,,,,,,,,,,,,,,,,,,,,,,,,,,,,,,,,,685.3962,,,,,,,,,,,,,,,,,,,,,,,,,,,,,,,,,"[630,1030,550,1020,930,1010,820,950,1130,720]",9,0,9,0,1,,,,
,,,,6630f318d0d884cf785e436f,A,2024-07-04_08h23.29.551,Slot Machine Game,2023.1.3,Linux x86_64,59.88023952,,,,,,,,,,,,,,,,,,,,,,,,,,,,,,,,,,,,,,,,,,,,,,,,,,,,,,,,,,,,,,,,,,,,,,,,,,9,"[630,1030,550,1020,930,1010,820,950,1130,720]",9.5,2024-07-04_08h35.04.176
