key_resp_welcome_started,key_resp_welcome_keys,key_resp_welcome_rt,key_resp_welcome_duration,prolific_id,path_id,date,expName,psychopyVersion,OS,frameRate,key_resp_instruction1_started,key_resp_instruction1_keys,key_resp_instruction1_rt,key_resp_instruction1_duration,key_resp_instruction2_started,key_resp_instruction2_keys,key_resp_instruction2_rt,key_resp_instruction2_duration,key_resp_instruction3_started,key_resp_instruction3_keys,key_resp_instruction3_rt,key_resp_instruction3_duration,key_resp_instruction4_started,key_resp_instruction4_keys,key_resp_instruction4_rt,key_resp_instruction4_duration,practiceCondition,practice_reward_seqs,practice_trial_started,practice_trial_num,practice_resp_rt,practice_resp_duration,practice_resp_keys,prac_presentationInterval,"practice_reward_seq: 2,1,3",reward_img,cumulative_reward,trial_reward,practice_trials.thisRepN,practice_trials.thisTrialN,practice_trials.thisN,practice_trials.thisIndex,practice_trials.ran,"practice_reward_seq: 2,3,1",block_break_started,"practice_reward_seq: 1,3,2","practice_reward_seq: 3,1,2",practice_end_time,practice_end_keys,practice_end_rt,practice_end_duration,main_instruction_text_started,block_condition,block_order_indices,main_instruction_keys,main_instruction_rt,main_instruction_duration,block_number,block_assignment,current_condition,main_reward_seqs,main_trial_started,main_trial_num,main_trial_keys,main_trial_rt,main_trial_duration,main_presentationInterval,reward_presentation_time,main_reward_seq,reward_rand_val,main_reward_img,current_reward,main_trials.thisRepN,main_trials.thisTrialN,main_trials.thisN,main_trials.thisIndex,main_trials.ran,block_reward,block.thisRepN,block.thisTrialN,block.thisN,block.thisIndex,block.ran,block_reward.length,block_reward_all,reward_amount,date_end_task
0.0004,space,3.786,,663f855c7b165c38262a6204,A,2024-07-02_12h44.46.239,Slot Machine Game,2023.1.3,Linux x86_64,59.88023952,,,,,,,,,,,,,,,,,,,,,,,,,,,,,,,,,,,,,,,,,,,,,,,,,,,,,,,,,,,,,,,,,,,,,,,,,,,,,
,,,,663f855c7b165c38262a6204,A,2024-07-02_12h44.46.239,Slot Machine Game,2023.1.3,Linux x86_64,59.88023952,3.806,space,12.1043,,,,,,,,,,,,,,,,,,,,,,,,,,,,,,,,,,,,,,,,,,,,,,,,,,,,,,,,,,,,,,,,,,,,,,,,,,
,,,,663f855c7b165c38262a6204,A,2024-07-02_12h44.46.239,Slot Machine Game,2023.1.3,Linux x86_64,59.88023952,,,,,15.9318,space,41.0239,,,,,,,,,,,,,,,,,,,,,,,,,,,,,,,,,,,,,,,,,,,,,,,,,,,,,,,,,,,,,,,,,,,,,,
,,,,663f855c7b165c38262a6204,A,2024-07-02_12h44.46.239,Slot Machine Game,2023.1.3,Linux x86_64,59.88023952,,,,,,,,,56.9967,space,12.4724,,,,,,,,,,,,,,,,,,,,,,,,,,,,,,,,,,,,,,,,,,,,,,,,,,,,,,,,,,,,,,,,,,
,,,,663f855c7b165c38262a6204,A,2024-07-02_12h44.46.239,Slot Machine Game,2023.1.3,Linux x86_64,59.88023952,,,,,,,,,,,,,,,,,,,,,,,,,,,,,,,,,,,,,,,,,,,,,,,,,,,,,,,,,,,,,,,,,,,,,,,,,,,,,
,,,,663f855c7b165c38262a6204,A,2024-07-02_12h44.46.239,Slot Machine Game,2023.1.3,Linux x86_64,59.88023952,,,,,,,,,,,,,211.6014,space,1.6518,,,,,,,,,,,,,,,,,,,,,,,,,,,,,,,,,,,,,,,,,,,,,,,,,,,,,,,,,,,,,,
,,,,663f855c7b165c38262a6204,A,2024-07-02_12h44.46.239,Slot Machine Game,2023.1.3,Linux x86_64,59.88023952,,,,,,,,,,,,,,,,,"[9,15]","[[2,1,3],[2,3,1]]",213.2826,0,3.7001,,up,0.5,,stimuli/card_100_transparent.png,100,100,0,0,0,0,1,,,,,,,,,,,,,,,,,,,,,,,,,,,,,,,,,,,,,,,,,,,,
,,,,663f855c7b165c38262a6204,A,2024-07-02_12h44.46.239,Slot Machine Game,2023.1.3,Linux x86_64,59.88023952,,,,,,,,,,,,,,,,,,,218.3046,1,0.8902,,up,1.5,,stimuli/card_100_transparent.png,200,100,1,0,1,0,1,,,,,,,,,,,,,,,,,,,,,,,,,,,,,,,,,,,,,,,,,,,,
,,,,663f855c7b165c38262a6204,A,2024-07-02_12h44.46.239,Slot Machine Game,2023.1.3,Linux x86_64,59.88023952,,,,,,,,,,,,,,,,,,,221.5203,2,1.4502,,up,1,,stimuli/card_100_transparent.png,300,100,2,0,2,0,1,,,,,,,,,,,,,,,,,,,,,,,,,,,,,,,,,,,,,,,,,,,,
,,,,663f855c7b165c38262a6204,A,2024-07-02_12h44.46.239,Slot Machine Game,2023.1.3,Linux x86_64,59.88023952,,,,,,,,,,,,,,,,,,,224.8032,3,1.8555,,up,1.5,,stimuli/card_100_transparent.png,400,100,3,0,3,0,1,,,,,,,,,,,,,,,,,,,,,,,,,,,,,,,,,,,,,,,,,,,,
,,,,663f855c7b165c38262a6204,A,2024-07-02_12h44.46.239,Slot Machine Game,2023.1.3,Linux x86_64,59.88023952,,,,,,,,,,,,,,,,,,,228.9866,4,2.92,,up,0.5,,stimuli/card_100_transparent.png,500,100,4,0,4,0,1,,,,,,,,,,,,,,,,,,,,,,,,,,,,,,,,,,,,,,,,,,,,
,,,,663f855c7b165c38262a6204,A,2024-07-02_12h44.46.239,Slot Machine Game,2023.1.3,Linux x86_64,59.88023952,,,,,,,,,,,,,,,,,,,233.2362,5,1.6855,,up,1,,stimuli/card_100_transparent.png,600,100,5,0,5,0,1,,,,,,,,,,,,,,,,,,,,,,,,,,,,,,,,,,,,,,,,,,,,
,,,,663f855c7b165c38262a6204,A,2024-07-02_12h44.46.239,Slot Machine Game,2023.1.3,Linux x86_64,59.88023952,,,,,,,,,,,,,,,,,,,236.7525,6,2.1274,,up,1,,stimuli/card_100_transparent.png,700,100,6,0,6,0,1,,,,,,,,,,,,,,,,,,,,,,,,,,,,,,,,,,,,,,,,,,,,
,,,,663f855c7b165c38262a6204,A,2024-07-02_12h44.46.239,Slot Machine Game,2023.1.3,Linux x86_64,59.88023952,,,,,,,,,,,,,,,,,,,240.7027,7,1.9341,,up,1,,stimuli/card_100_transparent.png,800,100,7,0,7,0,1,,,,,,,,,,,,,,,,,,,,,,,,,,,,,,,,,,,,,,,,,,,,
,,,,663f855c7b165c38262a6204,A,2024-07-02_12h44.46.239,Slot Machine Game,2023.1.3,Linux x86_64,59.88023952,,,,,,,,,,,,,,,,,,,244.469,8,1.6843,,up,1,,stimuli/card_100_transparent.png,900,100,8,0,8,0,1,,,,,,,,,,,,,,,,,,,,,,,,,,,,,,,,,,,,,,,,,,,,
,,,,663f855c7b165c38262a6204,A,2024-07-02_12h44.46.239,Slot Machine Game,2023.1.3,Linux x86_64,59.88023952,,,,,,,,,,,,,,,,,,,247.9855,9,2.3677,,up,0.5,,stimuli/card_0_transparent.png,900,0,9,0,9,0,1,,,,,,,,,,,,,,,,,,,,,,,,,,,,,,,,,,,,,,,,,,,,
,,,,663f855c7b165c38262a6204,A,2024-07-02_12h44.46.239,Slot Machine Game,2023.1.3,Linux x86_64,59.88023952,,,,,,,,,,,,,,,,,,,251.6854,10,1.3387,,up,1,,stimuli/card_0_transparent.png,900,0,10,0,10,0,1,,,,,,,,,,,,,,,,,,,,,,,,,,,,,,,,,,,,,,,,,,,,
,,,,663f855c7b165c38262a6204,A,2024-07-02_12h44.46.239,Slot Machine Game,2023.1.3,Linux x86_64,59.88023952,,,,,,,,,,,,,,,,,,,254.8516,11,1.8577,,right,1,,stimuli/card_100_transparent.png,1000,100,11,0,11,0,1,,,,,,,,,,,,,,,,,,,,,,,,,,,,,,,,,,,,,,,,,,,,
,,,,663f855c7b165c38262a6204,A,2024-07-02_12h44.46.239,Slot Machine Game,2023.1.3,Linux x86_64,59.88023952,,,,,,,,,,,,,,,,,,,258.535,12,1.7013,,right,1.5,,stimuli/card_100_transparent.png,1100,100,12,0,12,0,1,,,,,,,,,,,,,,,,,,,,,,,,,,,,,,,,,,,,,,,,,,,,
,,,,663f855c7b165c38262a6204,A,2024-07-02_12h44.46.239,Slot Machine Game,2023.1.3,Linux x86_64,59.88023952,,,,,,,,,,,,,,,,,,,262.5683,13,1.834,,right,1.5,,stimuli/card_100_transparent.png,1200,100,13,0,13,0,1,,,,,,,,,,,,,,,,,,,,,,,,,,,,,,,,,,,,,,,,,,,,
,,,,663f855c7b165c38262a6204,A,2024-07-02_12h44.46.239,Slot Machine Game,2023.1.3,Linux x86_64,59.88023952,,,,,,,,,,,,,,,,,,,266.7344,14,1.6392,,right,1,,stimuli/card_100_transparent.png,1300,100,14,0,14,0,1,,,,,,,,,,,,,,,,,,,,,,,,,,,,,,,,,,,,,,,,,,,,
,,,,663f855c7b165c38262a6204,A,2024-07-02_12h44.46.239,Slot Machine Game,2023.1.3,Linux x86_64,59.88023952,,,,,,,,,,,,,,,,,"[6,15]","[[1,3,2],[3,1,2]]",275.2344,0,2.9348,,left,0.5,,stimuli/card_100_transparent.png,100,100,0,0,0,0,1,,270.219,,,,,,,,,,,,,,,,,,,,,,,,,,,,,,,,,,,,,,,,,,
,,,,663f855c7b165c38262a6204,A,2024-07-02_12h44.46.239,Slot Machine Game,2023.1.3,Linux x86_64,59.88023952,,,,,,,,,,,,,,,,,,,279.5013,1,0.8428,,left,0.5,,stimuli/card_100_transparent.png,200,100,1,0,1,0,1,,,,,,,,,,,,,,,,,,,,,,,,,,,,,,,,,,,,,,,,,,,,
,,,,663f855c7b165c38262a6204,A,2024-07-02_12h44.46.239,Slot Machine Game,2023.1.3,Linux x86_64,59.88023952,,,,,,,,,,,,,,,,,,,281.6674,2,0.7263,,left,1.5,,stimuli/card_100_transparent.png,300,100,2,0,2,0,1,,,,,,,,,,,,,,,,,,,,,,,,,,,,,,,,,,,,,,,,,,,,
,,,,663f855c7b165c38262a6204,A,2024-07-02_12h44.46.239,Slot Machine Game,2023.1.3,Linux x86_64,59.88023952,,,,,,,,,,,,,,,,,,,284.7169,3,0.4667,,left,1,,stimuli/card_100_transparent.png,400,100,3,0,3,0,1,,,,,,,,,,,,,,,,,,,,,,,,,,,,,,,,,,,,,,,,,,,,
,,,,663f855c7b165c38262a6204,A,2024-07-02_12h44.46.239,Slot Machine Game,2023.1.3,Linux x86_64,59.88023952,,,,,,,,,,,,,,,,,,,287.0171,4,0.9092,,left,1,,stimuli/card_100_transparent.png,500,100,4,0,4,0,1,,,,,,,,,,,,,,,,,,,,,,,,,,,,,,,,,,,,,,,,,,,,
,,,,663f855c7b165c38262a6204,A,2024-07-02_12h44.46.239,Slot Machine Game,2023.1.3,Linux x86_64,59.88023952,,,,,,,,,,,,,,,,,,,289.7502,5,0.7841,,left,1.5,,stimuli/card_100_transparent.png,600,100,5,0,5,0,1,,,,,,,,,,,,,,,,,,,,,,,,,,,,,,,,,,,,,,,,,,,,
,,,,663f855c7b165c38262a6204,A,2024-07-02_12h44.46.239,Slot Machine Game,2023.1.3,Linux x86_64,59.88023952,,,,,,,,,,,,,,,,,,,292.867,6,0.7861,,left,1.5,,stimuli/card_0_transparent.png,600,0,6,0,6,0,1,,,,,,,,,,,,,,,,,,,,,,,,,,,,,,,,,,,,,,,,,,,,
,,,,663f855c7b165c38262a6204,A,2024-07-02_12h44.46.239,Slot Machine Game,2023.1.3,Linux x86_64,59.88023952,,,,,,,,,,,,,,,,,,,295.9832,7,0.5688,,left,1.5,,stimuli/card_100_transparent.png,700,100,7,0,7,0,1,,,,,,,,,,,,,,,,,,,,,,,,,,,,,,,,,,,,,,,,,,,,
,,,,663f855c7b165c38262a6204,A,2024-07-02_12h44.46.239,Slot Machine Game,2023.1.3,Linux x86_64,59.88023952,,,,,,,,,,,,,,,,,,,298.8835,8,0.7175,,left,1,,stimuli/card_0_transparent.png,700,0,8,0,8,0,1,,,,,,,,,,,,,,,,,,,,,,,,,,,,,,,,,,,,,,,,,,,,
,,,,663f855c7b165c38262a6204,A,2024-07-02_12h44.46.239,Slot Machine Game,2023.1.3,Linux x86_64,59.88023952,,,,,,,,,,,,,,,,,,,301.4329,9,0.7414,,right,1.5,,stimuli/card_10_transparent.png,710,10,9,0,9,0,1,,,,,,,,,,,,,,,,,,,,,,,,,,,,,,,,,,,,,,,,,,,,
,,,,663f855c7b165c38262a6204,A,2024-07-02_12h44.46.239,Slot Machine Game,2023.1.3,Linux x86_64,59.88023952,,,,,,,,,,,,,,,,,,,304.4995,10,0.8878,,up,1,,stimuli/card_10_transparent.png,720,10,10,0,10,0,1,,,,,,,,,,,,,,,,,,,,,,,,,,,,,,,,,,,,,,,,,,,,
,,,,663f855c7b165c38262a6204,A,2024-07-02_12h44.46.239,Slot Machine Game,2023.1.3,Linux x86_64,59.88023952,,,,,,,,,,,,,,,,,,,307.2161,11,0.4525,,left,0.5,,stimuli/card_0_transparent.png,720,0,11,0,11,0,1,,,,,,,,,,,,,,,,,,,,,,,,,,,,,,,,,,,,,,,,,,,,
,,,,663f855c7b165c38262a6204,A,2024-07-02_12h44.46.239,Slot Machine Game,2023.1.3,Linux x86_64,59.88023952,,,,,,,,,,,,,,,,,,,308.9994,12,1.2838,,up,1,,stimuli/card_100_transparent.png,820,100,12,0,12,0,1,,,,,,,,,,,,,,,,,,,,,,,,,,,,,,,,,,,,,,,,,,,,
,,,,663f855c7b165c38262a6204,A,2024-07-02_12h44.46.239,Slot Machine Game,2023.1.3,Linux x86_64,59.88023952,,,,,,,,,,,,,,,,,,,312.1156,13,0.6189,,up,0.5,,stimuli/card_100_transparent.png,920,100,13,0,13,0,1,,,,,,,,,,,,,,,,,,,,,,,,,,,,,,,,,,,,,,,,,,,,
,,,,663f855c7b165c38262a6204,A,2024-07-02_12h44.46.239,Slot Machine Game,2023.1.3,Linux x86_64,59.88023952,,,,,,,,,,,,,,,,,,,314.0658,14,0.6698,,up,1.5,,stimuli/card_100_transparent.png,1020,100,14,0,14,0,1,,,,,,,,,,,,,,,,,,,,,,,,,,,,,,,,,,,,,,,,,,,,
,,,,663f855c7b165c38262a6204,A,2024-07-02_12h44.46.239,Slot Machine Game,2023.1.3,Linux x86_64,59.88023952,,,,,,,,,,,,,,,,,,,,,,,,,,,,,,,,,,,317.0657,,,322.0673,space,4.5993,,,,,,,,,,,,,,,,,,,,,,,,,,,,,,,,,,,,,
,,,,663f855c7b165c38262a6204,A,2024-07-02_12h44.46.239,Slot Machine Game,2023.1.3,Linux x86_64,59.88023952,,,,,,,,,,,,,,,,,,,,,,,,,,,,,,,,,,,,,,,,,,326.6844,1,"[0,1,2,3,4,5,6,7,8,9]",space,1.7781,,,,,,,,,,,,,,,,,,,,,,,,,,,,,,,
,,,,663f855c7b165c38262a6204,A,2024-07-02_12h44.46.239,Slot Machine Game,2023.1.3,Linux x86_64,59.88023952,,,,,,,,,,,,,,,,,,,,,,,,,,,100,,,,,,,,,,,,,,,,,,,,,1,1,"[12,15]","[[2,1,3],[2,3,1]]",328.5065,0,up,1.5753,,1,0.3,"[2,1,3]",0.62957506,stimuli/card_100_transparent.png,100,0,0,0,0,1,,,,,,,,,,
,,,,663f855c7b165c38262a6204,A,2024-07-02_12h44.46.239,Slot Machine Game,2023.1.3,Linux x86_64,59.88023952,,,,,,,,,,,,,,,,,,,,,,,,,,,200,,,,,,,,,,,,,,,,,,,,,1,1,,,331.8987,1,up,0.3509,,0.5,0.3,"[2,1,3]",0.679138125,stimuli/card_100_transparent.png,100,1,0,1,0,1,,,,,,,,,,
,,,,663f855c7b165c38262a6204,A,2024-07-02_12h44.46.239,Slot Machine Game,2023.1.3,Linux x86_64,59.88023952,,,,,,,,,,,,,,,,,,,,,,,,,,,200,,,,,,,,,,,,,,,,,,,,,1,1,,,333.5814,2,up,0.3839,,1,0.3,"[2,1,3]",0.032696721,stimuli/card_0_transparent.png,0,2,0,2,0,1,,,,,,,,,,
,,,,663f855c7b165c38262a6204,A,2024-07-02_12h44.46.239,Slot Machine Game,2023.1.3,Linux x86_64,59.88023952,,,,,,,,,,,,,,,,,,,,,,,,,,,300,,,,,,,,,,,,,,,,,,,,,1,1,,,335.7981,3,up,0.2874,,1.5,0.3,"[2,1,3]",0.458479964,stimuli/card_100_transparent.png,100,3,0,3,0,1,,,,,,,,,,
,,,,663f855c7b165c38262a6204,A,2024-07-02_12h44.46.239,Slot Machine Game,2023.1.3,Linux x86_64,59.88023952,,,,,,,,,,,,,,,,,,,,,,,,,,,400,,,,,,,,,,,,,,,,,,,,,1,1,,,338.4146,4,up,0.1044,,0.5,0.3,"[2,1,3]",0.914112891,stimuli/card_100_transparent.png,100,4,0,4,0,1,,,,,,,,,,
,,,,663f855c7b165c38262a6204,A,2024-07-02_12h44.46.239,Slot Machine Game,2023.1.3,Linux x86_64,59.88023952,,,,,,,,,,,,,,,,,,,,,,,,,,,500,,,,,,,,,,,,,,,,,,,,,1,1,,,339.847,5,up,0.2179,,1.5,0.3,"[2,1,3]",0.574514727,stimuli/card_100_transparent.png,100,5,0,5,0,1,,,,,,,,,,
,,,,663f855c7b165c38262a6204,A,2024-07-02_12h44.46.239,Slot Machine Game,2023.1.3,Linux x86_64,59.88023952,,,,,,,,,,,,,,,,,,,,,,,,,,,600,,,,,,,,,,,,,,,,,,,,,1,1,,,342.3816,6,up,0.5508,,1.5,0.3,"[2,1,3]",0.638700588,stimuli/card_100_transparent.png,100,6,0,6,0,1,,,,,,,,,,
,,,,663f855c7b165c38262a6204,A,2024-07-02_12h44.46.239,Slot Machine Game,2023.1.3,Linux x86_64,59.88023952,,,,,,,,,,,,,,,,,,,,,,,,,,,700,,,,,,,,,,,,,,,,,,,,,1,1,,,345.2643,7,up,0.2023,,1.5,0.3,"[2,1,3]",0.714537712,stimuli/card_100_transparent.png,100,7,0,7,0,1,,,,,,,,,,
,,,,663f855c7b165c38262a6204,A,2024-07-02_12h44.46.239,Slot Machine Game,2023.1.3,Linux x86_64,59.88023952,,,,,,,,,,,,,,,,,,,,,,,,,,,800,,,,,,,,,,,,,,,,,,,,,1,1,,,347.7976,8,up,0.0184,,1.5,0.3,"[2,1,3]",0.679920541,stimuli/card_100_transparent.png,100,8,0,8,0,1,,,,,,,,,,
,,,,663f855c7b165c38262a6204,A,2024-07-02_12h44.46.239,Slot Machine Game,2023.1.3,Linux x86_64,59.88023952,,,,,,,,,,,,,,,,,,,,,,,,,,,900,,,,,,,,,,,,,,,,,,,,,1,1,,,350.1472,9,up,0.2201,,1.5,0.3,"[2,1,3]",0.57133483,stimuli/card_100_transparent.png,100,9,0,9,0,1,,,,,,,,,,
,,,,663f855c7b165c38262a6204,A,2024-07-02_12h44.46.239,Slot Machine Game,2023.1.3,Linux x86_64,59.88023952,,,,,,,,,,,,,,,,,,,,,,,,,,,1000,,,,,,,,,,,,,,,,,,,,,1,1,,,352.6973,10,up,0.1026,,1.5,0.3,"[2,1,3]",0.505589205,stimuli/card_100_transparent.png,100,10,0,10,0,1,,,,,,,,,,
,,,,663f855c7b165c38262a6204,A,2024-07-02_12h44.46.239,Slot Machine Game,2023.1.3,Linux x86_64,59.88023952,,,,,,,,,,,,,,,,,,,,,,,,,,,1100,,,,,,,,,,,,,,,,,,,,,1,1,,,355.1304,11,up,1.4863,,0.5,0.3,"[2,1,3]",0.755922479,stimuli/card_100_transparent.png,100,11,0,11,0,1,,,,,,,,,,
,,,,663f855c7b165c38262a6204,A,2024-07-02_12h44.46.239,Slot Machine Game,2023.1.3,Linux x86_64,59.88023952,,,,,,,,,,,,,,,,,,,,,,,,,,,1110,,,,,,,,,,,,,,,,,,,,,1,1,,,357.9469,12,up,0.2009,,0.5,0.3,"[2,3,1]",0.172376148,stimuli/card_10_transparent.png,10,12,0,12,0,1,,,,,,,,,,
,,,,663f855c7b165c38262a6204,A,2024-07-02_12h44.46.239,Slot Machine Game,2023.1.3,Linux x86_64,59.88023952,,,,,,,,,,,,,,,,,,,,,,,,,,,1110,,,,,,,,,,,,,,,,,,,,,1,1,,,359.4802,13,up,0.6934,,1.5,0.3,"[2,3,1]",0.605477484,stimuli/card_0_transparent.png,0,13,0,13,0,1,,,,,,,,,,
,,,,663f855c7b165c38262a6204,A,2024-07-02_12h44.46.239,Slot Machine Game,2023.1.3,Linux x86_64,59.88023952,,,,,,,,,,,,,,,,,,,,,,,,,,,1120,,,,,,,,,,,,,,,,,,,,,1,1,,,362.4971,14,left,0.3546,,1,0.3,"[2,3,1]",0.658662951,stimuli/card_10_transparent.png,10,14,0,14,0,1,,,,,,,,,,
,,,,663f855c7b165c38262a6204,A,2024-07-02_12h44.46.239,Slot Machine Game,2023.1.3,Linux x86_64,59.88023952,,,,,,,,,,,,,,,,,,,,,,,,,,,,,,,,,,,364.6806,,,,,,,,,,,,,,,,,,,,,,,,,,,,,,,,,[1120],0,0,0,0,1,,,,
,,,,663f855c7b165c38262a6204,A,2024-07-02_12h44.46.239,Slot Machine Game,2023.1.3,Linux x86_64,59.88023952,,,,,,,,,,,,,,,,,,,,,,,,,,,10,,,,,,,,,,,,,,,,,,,,,2,2,"[6,15]","[[1,3,2],[3,2,1]]",369.6995,0,right,1.4853,,0.5,0.3,"[1,3,2]",0.931024586,stimuli/card_10_transparent.png,10,0,0,0,0,1,,,,,,,,,,
,,,,663f855c7b165c38262a6204,A,2024-07-02_12h44.46.239,Slot Machine Game,2023.1.3,Linux x86_64,59.88023952,,,,,,,,,,,,,,,,,,,,,,,,,,,10,,,,,,,,,,,,,,,,,,,,,2,2,,,372.5131,1,up,0.6678,,0.5,0.3,"[1,3,2]",0.255835373,stimuli/card_0_transparent.png,0,1,0,1,0,1,,,,,,,,,,
,,,,663f855c7b165c38262a6204,A,2024-07-02_12h44.46.239,Slot Machine Game,2023.1.3,Linux x86_64,59.88023952,,,,,,,,,,,,,,,,,,,,,,,,,,,110,,,,,,,,,,,,,,,,,,,,,2,2,,,374.5129,2,left,0.3515,,0.5,0.3,"[1,3,2]",0.967497057,stimuli/card_100_transparent.png,100,2,0,2,0,1,,,,,,,,,,
,,,,663f855c7b165c38262a6204,A,2024-07-02_12h44.46.239,Slot Machine Game,2023.1.3,Linux x86_64,59.88023952,,,,,,,,,,,,,,,,,,,,,,,,,,,210,,,,,,,,,,,,,,,,,,,,,2,2,,,376.196,3,left,0.3687,,1,0.3,"[1,3,2]",0.424573075,stimuli/card_100_transparent.png,100,3,0,3,0,1,,,,,,,,,,
,,,,663f855c7b165c38262a6204,A,2024-07-02_12h44.46.239,Slot Machine Game,2023.1.3,Linux x86_64,59.88023952,,,,,,,,,,,,,,,,,,,,,,,,,,,310,,,,,,,,,,,,,,,,,,,,,2,2,,,378.396,4,left,0.3339,,0.5,0.3,"[1,3,2]",0.757909736,stimuli/card_100_transparent.png,100,4,0,4,0,1,,,,,,,,,,
,,,,663f855c7b165c38262a6204,A,2024-07-02_12h44.46.239,Slot Machine Game,2023.1.3,Linux x86_64,59.88023952,,,,,,,,,,,,,,,,,,,,,,,,,,,410,,,,,,,,,,,,,,,,,,,,,2,2,,,380.0626,5,left,0.2676,,1.5,0.3,"[1,3,2]",0.870615231,stimuli/card_100_transparent.png,100,5,0,5,0,1,,,,,,,,,,
,,,,663f855c7b165c38262a6204,A,2024-07-02_12h44.46.239,Slot Machine Game,2023.1.3,Linux x86_64,59.88023952,,,,,,,,,,,,,,,,,,,,,,,,,,,410,,,,,,,,,,,,,,,,,,,,,2,2,,,382.6625,6,left,2.0008,,1,0.3,"[3,2,1]",0.327208168,stimuli/card_0_transparent.png,0,6,0,6,0,1,,,,,,,,,,
,,,,663f855c7b165c38262a6204,A,2024-07-02_12h44.46.239,Slot Machine Game,2023.1.3,Linux x86_64,59.88023952,,,,,,,,,,,,,,,,,,,,,,,,,,,420,,,,,,,,,,,,,,,,,,,,,2,2,,,386.4956,7,left,0.4573,,1.5,0.3,"[3,2,1]",0.136192297,stimuli/card_10_transparent.png,10,7,0,7,0,1,,,,,,,,,,
,,,,663f855c7b165c38262a6204,A,2024-07-02_12h44.46.239,Slot Machine Game,2023.1.3,Linux x86_64,59.88023952,,,,,,,,,,,,,,,,,,,,,,,,,,,520,,,,,,,,,,,,,,,,,,,,,2,2,,,389.2791,8,up,0.0846,,1,0.3,"[3,2,1]",0.188366926,stimuli/card_100_transparent.png,100,8,0,8,0,1,,,,,,,,,,
,,,,663f855c7b165c38262a6204,A,2024-07-02_12h44.46.239,Slot Machine Game,2023.1.3,Linux x86_64,59.88023952,,,,,,,,,,,,,,,,,,,,,,,,,,,530,,,,,,,,,,,,,,,,,,,,,2,2,,,391.1956,9,up,0.1173,,1,0.3,"[3,2,1]",0.499496124,stimuli/card_10_transparent.png,10,9,0,9,0,1,,,,,,,,,,
,,,,663f855c7b165c38262a6204,A,2024-07-02_12h44.46.239,Slot Machine Game,2023.1.3,Linux x86_64,59.88023952,,,,,,,,,,,,,,,,,,,,,,,,,,,630,,,,,,,,,,,,,,,,,,,,,2,2,,,393.1454,10,right,0.3553,,0.5,0.3,"[3,2,1]",0.742816391,stimuli/card_100_transparent.png,100,10,0,10,0,1,,,,,,,,,,
,,,,663f855c7b165c38262a6204,A,2024-07-02_12h44.46.239,Slot Machine Game,2023.1.3,Linux x86_64,59.88023952,,,,,,,,,,,,,,,,,,,,,,,,,,,730,,,,,,,,,,,,,,,,,,,,,2,2,,,394.8287,11,right,0.2271,,1,0.3,"[3,2,1]",0.903568485,stimuli/card_100_transparent.png,100,11,0,11,0,1,,,,,,,,,,
,,,,663f855c7b165c38262a6204,A,2024-07-02_12h44.46.239,Slot Machine Game,2023.1.3,Linux x86_64,59.88023952,,,,,,,,,,,,,,,,,,,,,,,,,,,830,,,,,,,,,,,,,,,,,,,,,2,2,,,396.8784,12,right,0.035,,1,0.3,"[3,2,1]",0.345945577,stimuli/card_100_transparent.png,100,12,0,12,0,1,,,,,,,,,,
,,,,663f855c7b165c38262a6204,A,2024-07-02_12h44.46.239,Slot Machine Game,2023.1.3,Linux x86_64,59.88023952,,,,,,,,,,,,,,,,,,,,,,,,,,,930,,,,,,,,,,,,,,,,,,,,,2,2,,,398.7452,13,right,2.2855,,1.5,0.3,"[3,2,1]",0.797149793,stimuli/card_100_transparent.png,100,13,0,13,0,1,,,,,,,,,,
,,,,663f855c7b165c38262a6204,A,2024-07-02_12h44.46.239,Slot Machine Game,2023.1.3,Linux x86_64,59.88023952,,,,,,,,,,,,,,,,,,,,,,,,,,,1030,,,,,,,,,,,,,,,,,,,,,2,2,,,403.3616,14,right,0.2007,,0.5,0.3,"[3,2,1]",0.31060225,stimuli/card_100_transparent.png,100,14,0,14,0,1,,,,,,,,,,
,,,,663f855c7b165c38262a6204,A,2024-07-02_12h44.46.239,Slot Machine Game,2023.1.3,Linux x86_64,59.88023952,,,,,,,,,,,,,,,,,,,,,,,,,,,,,,,,,,,404.8951,,,,,,,,,,,,,,,,,,,,,,,,,,,,,,,,,"[1120,1030]",1,0,1,0,1,,,,
,,,,663f855c7b165c38262a6204,A,2024-07-02_12h44.46.239,Slot Machine Game,2023.1.3,Linux x86_64,59.88023952,,,,,,,,,,,,,,,,,,,,,,,,,,,0,,,,,,,,,,,,,,,,,,,,,3,3,"[15,15]","[[3,1,2],[3,1,2]]",409.9123,0,left,1.2519,,1,0.3,"[3,1,2]",0.580371534,stimuli/card_0_transparent.png,0,0,0,0,0,1,,,,,,,,,,
,,,,663f855c7b165c38262a6204,A,2024-07-02_12h44.46.239,Slot Machine Game,2023.1.3,Linux x86_64,59.88023952,,,,,,,,,,,,,,,,,,,,,,,,,,,0,,,,,,,,,,,,,,,,,,,,,3,3,,,412.9946,1,left,0.0097,,1.5,0.3,"[3,1,2]",0.275318275,stimuli/card_0_transparent.png,0,1,0,1,0,1,,,,,,,,,,
,,,,663f855c7b165c38262a6204,A,2024-07-02_12h44.46.239,Slot Machine Game,2023.1.3,Linux x86_64,59.88023952,,,,,,,,,,,,,,,,,,,,,,,,,,,10,,,,,,,,,,,,,,,,,,,,,3,3,,,415.3276,2,right,0.0752,,0.5,0.3,"[3,1,2]",0.379498533,stimuli/card_10_transparent.png,10,2,0,2,0,1,,,,,,,,,,
,,,,663f855c7b165c38262a6204,A,2024-07-02_12h44.46.239,Slot Machine Game,2023.1.3,Linux x86_64,59.88023952,,,,,,,,,,,,,,,,,,,,,,,,,,,10,,,,,,,,,,,,,,,,,,,,,3,3,,,416.7277,3,up,0.3229,,0.5,0.3,"[3,1,2]",0.068794309,stimuli/card_0_transparent.png,0,3,0,3,0,1,,,,,,,,,,
,,,,663f855c7b165c38262a6204,A,2024-07-02_12h44.46.239,Slot Machine Game,2023.1.3,Linux x86_64,59.88023952,,,,,,,,,,,,,,,,,,,,,,,,,,,110,,,,,,,,,,,,,,,,,,,,,3,3,,,418.3775,4,up,0.0191,,1.5,0.3,"[3,1,2]",0.482993939,stimuli/card_100_transparent.png,100,4,0,4,0,1,,,,,,,,,,
,,,,663f855c7b165c38262a6204,A,2024-07-02_12h44.46.239,Slot Machine Game,2023.1.3,Linux x86_64,59.88023952,,,,,,,,,,,,,,,,,,,,,,,,,,,210,,,,,,,,,,,,,,,,,,,,,3,3,,,420.7274,5,up,0.0888,,1.5,0.3,"[3,1,2]",0.82173674,stimuli/card_100_transparent.png,100,5,0,5,0,1,,,,,,,,,,
,,,,663f855c7b165c38262a6204,A,2024-07-02_12h44.46.239,Slot Machine Game,2023.1.3,Linux x86_64,59.88023952,,,,,,,,,,,,,,,,,,,,,,,,,,,310,,,,,,,,,,,,,,,,,,,,,3,3,,,423.144,6,up,2.2367,,0.5,0.3,"[3,1,2]",0.857474847,stimuli/card_100_transparent.png,100,6,0,6,0,1,,,,,,,,,,
,,,,663f855c7b165c38262a6204,A,2024-07-02_12h44.46.239,Slot Machine Game,2023.1.3,Linux x86_64,59.88023952,,,,,,,,,,,,,,,,,,,,,,,,,,,320,,,,,,,,,,,,,,,,,,,,,3,3,,,426.7105,7,up,0.0559,,1,0.3,"[3,1,2]",0.104958226,stimuli/card_10_transparent.png,10,7,0,7,0,1,,,,,,,,,,
,,,,663f855c7b165c38262a6204,A,2024-07-02_12h44.46.239,Slot Machine Game,2023.1.3,Linux x86_64,59.88023952,,,,,,,,,,,,,,,,,,,,,,,,,,,330,,,,,,,,,,,,,,,,,,,,,3,3,,,428.5938,8,right,0.1844,,1,0.3,"[3,1,2]",0.826679875,stimuli/card_10_transparent.png,10,8,0,8,0,1,,,,,,,,,,
,,,,663f855c7b165c38262a6204,A,2024-07-02_12h44.46.239,Slot Machine Game,2023.1.3,Linux x86_64,59.88023952,,,,,,,,,,,,,,,,,,,,,,,,,,,340,,,,,,,,,,,,,,,,,,,,,3,3,,,430.6104,9,right,2.5422,,0.5,0.3,"[3,1,2]",0.379065701,stimuli/card_10_transparent.png,10,9,0,9,0,1,,,,,,,,,,
,,,,663f855c7b165c38262a6204,A,2024-07-02_12h44.46.239,Slot Machine Game,2023.1.3,Linux x86_64,59.88023952,,,,,,,,,,,,,,,,,,,,,,,,,,,440,,,,,,,,,,,,,,,,,,,,,3,3,,,434.4772,10,up,0.423,,1.5,0.3,"[3,1,2]",0.20541474,stimuli/card_100_transparent.png,100,10,0,10,0,1,,,,,,,,,,
,,,,663f855c7b165c38262a6204,A,2024-07-02_12h44.46.239,Slot Machine Game,2023.1.3,Linux x86_64,59.88023952,,,,,,,,,,,,,,,,,,,,,,,,,,,540,,,,,,,,,,,,,,,,,,,,,3,3,,,437.2268,11,up,2.0682,,0.5,0.3,"[3,1,2]",0.864993209,stimuli/card_100_transparent.png,100,11,0,11,0,1,,,,,,,,,,
,,,,663f855c7b165c38262a6204,A,2024-07-02_12h44.46.239,Slot Machine Game,2023.1.3,Linux x86_64,59.88023952,,,,,,,,,,,,,,,,,,,,,,,,,,,640,,,,,,,,,,,,,,,,,,,,,3,3,,,440.6269,12,up,0.202,,1.5,0.3,"[3,1,2]",0.34504702,stimuli/card_100_transparent.png,100,12,0,12,0,1,,,,,,,,,,
,,,,663f855c7b165c38262a6204,A,2024-07-02_12h44.46.239,Slot Machine Game,2023.1.3,Linux x86_64,59.88023952,,,,,,,,,,,,,,,,,,,,,,,,,,,740,,,,,,,,,,,,,,,,,,,,,3,3,,,443.1599,13,up,0.2852,,1.5,0.3,"[3,1,2]",0.779100227,stimuli/card_100_transparent.png,100,13,0,13,0,1,,,,,,,,,,
,,,,663f855c7b165c38262a6204,A,2024-07-02_12h44.46.239,Slot Machine Game,2023.1.3,Linux x86_64,59.88023952,,,,,,,,,,,,,,,,,,,,,,,,,,,840,,,,,,,,,,,,,,,,,,,,,3,3,,,445.7762,14,up,0.0564,,1.5,0.3,"[3,1,2]",0.215470231,stimuli/card_100_transparent.png,100,14,0,14,0,1,,,,,,,,,,
,,,,663f855c7b165c38262a6204,A,2024-07-02_12h44.46.239,Slot Machine Game,2023.1.3,Linux x86_64,59.88023952,,,,,,,,,,,,,,,,,,,,,,,,,,,,,,,,,,,448.1595,,,,,,,,,,,,,,,,,,,,,,,,,,,,,,,,,"[1120,1030,840]",2,0,2,0,1,,,,
,,,,663f855c7b165c38262a6204,A,2024-07-02_12h44.46.239,Slot Machine Game,2023.1.3,Linux x86_64,59.88023952,,,,,,,,,,,,,,,,,,,,,,,,,,,10,,,,,,,,,,,,,,,,,,,,,4,4,"[7,15]","[[2,3,1],[1,2,3]]",453.1819,0,left,1.7002,,0.5,0.3,"[2,3,1]",0.684121214,stimuli/card_10_transparent.png,10,0,0,0,0,1,,,,,,,,,,
,,,,663f855c7b165c38262a6204,A,2024-07-02_12h44.46.239,Slot Machine Game,2023.1.3,Linux x86_64,59.88023952,,,,,,,,,,,,,,,,,,,,,,,,,,,10,,,,,,,,,,,,,,,,,,,,,4,4,,,456.2092,1,up,0.5511,,1.5,0.3,"[2,3,1]",0.377588926,stimuli/card_0_transparent.png,0,1,0,1,0,1,,,,,,,,,,
,,,,663f855c7b165c38262a6204,A,2024-07-02_12h44.46.239,Slot Machine Game,2023.1.3,Linux x86_64,59.88023952,,,,,,,,,,,,,,,,,,,,,,,,,,,110,,,,,,,,,,,,,,,,,,,,,4,4,,,459.0923,2,right,0.9552,,1,0.3,"[2,3,1]",0.738119642,stimuli/card_100_transparent.png,100,2,0,2,0,1,,,,,,,,,,
,,,,663f855c7b165c38262a6204,A,2024-07-02_12h44.46.239,Slot Machine Game,2023.1.3,Linux x86_64,59.88023952,,,,,,,,,,,,,,,,,,,,,,,,,,,210,,,,,,,,,,,,,,,,,,,,,4,4,,,461.8755,3,right,0.1857,,1.5,0.3,"[2,3,1]",0.700446815,stimuli/card_100_transparent.png,100,3,0,3,0,1,,,,,,,,,,
,,,,663f855c7b165c38262a6204,A,2024-07-02_12h44.46.239,Slot Machine Game,2023.1.3,Linux x86_64,59.88023952,,,,,,,,,,,,,,,,,,,,,,,,,,,310,,,,,,,,,,,,,,,,,,,,,4,4,,,464.3922,4,right,0.0673,,1.5,0.3,"[2,3,1]",0.705739826,stimuli/card_100_transparent.png,100,4,0,4,0,1,,,,,,,,,,
,,,,663f855c7b165c38262a6204,A,2024-07-02_12h44.46.239,Slot Machine Game,2023.1.3,Linux x86_64,59.88023952,,,,,,,,,,,,,,,,,,,,,,,,,,,310,,,,,,,,,,,,,,,,,,,,,4,4,,,466.7921,5,right,2.1675,,1,0.3,"[2,3,1]",0.050188998,stimuli/card_0_transparent.png,0,5,0,5,0,1,,,,,,,,,,
,,,,663f855c7b165c38262a6204,A,2024-07-02_12h44.46.239,Slot Machine Game,2023.1.3,Linux x86_64,59.88023952,,,,,,,,,,,,,,,,,,,,,,,,,,,410,,,,,,,,,,,,,,,,,,,,,4,4,,,470.7917,6,right,0.5573,,1,0.3,"[2,3,1]",0.521068348,stimuli/card_100_transparent.png,100,6,0,6,0,1,,,,,,,,,,
,,,,663f855c7b165c38262a6204,A,2024-07-02_12h44.46.239,Slot Machine Game,2023.1.3,Linux x86_64,59.88023952,,,,,,,,,,,,,,,,,,,,,,,,,,,410,,,,,,,,,,,,,,,,,,,,,4,4,,,473.1749,7,right,0.3096,,1,0.3,"[1,2,3]",0.897006028,stimuli/card_0_transparent.png,0,7,0,7,0,1,,,,,,,,,,
,,,,663f855c7b165c38262a6204,A,2024-07-02_12h44.46.239,Slot Machine Game,2023.1.3,Linux x86_64,59.88023952,,,,,,,,,,,,,,,,,,,,,,,,,,,420,,,,,,,,,,,,,,,,,,,,,4,4,,,475.3083,8,up,0.1516,,0.5,0.3,"[1,2,3]",0.469666069,stimuli/card_10_transparent.png,10,8,0,8,0,1,,,,,,,,,,
,,,,663f855c7b165c38262a6204,A,2024-07-02_12h44.46.239,Slot Machine Game,2023.1.3,Linux x86_64,59.88023952,,,,,,,,,,,,,,,,,,,,,,,,,,,520,,,,,,,,,,,,,,,,,,,,,4,4,,,476.7914,9,left,0.3938,,1.5,0.3,"[1,2,3]",0.604745644,stimuli/card_100_transparent.png,100,9,0,9,0,1,,,,,,,,,,
,,,,663f855c7b165c38262a6204,A,2024-07-02_12h44.46.239,Slot Machine Game,2023.1.3,Linux x86_64,59.88023952,,,,,,,,,,,,,,,,,,,,,,,,,,,520,,,,,,,,,,,,,,,,,,,,,4,4,,,479.5082,10,left,0.5344,,0.5,0.3,"[1,2,3]",0.090152461,stimuli/card_0_transparent.png,0,10,0,10,0,1,,,,,,,,,,
,,,,663f855c7b165c38262a6204,A,2024-07-02_12h44.46.239,Slot Machine Game,2023.1.3,Linux x86_64,59.88023952,,,,,,,,,,,,,,,,,,,,,,,,,,,520,,,,,,,,,,,,,,,,,,,,,4,4,,,481.3748,11,right,0.8765,,1.5,0.3,"[1,2,3]",0.598358306,stimuli/card_0_transparent.png,0,11,0,11,0,1,,,,,,,,,,
,,,,663f855c7b165c38262a6204,A,2024-07-02_12h44.46.239,Slot Machine Game,2023.1.3,Linux x86_64,59.88023952,,,,,,,,,,,,,,,,,,,,,,,,,,,520,,,,,,,,,,,,,,,,,,,,,4,4,,,484.5745,12,right,0.0262,,1,0.3,"[1,2,3]",0.679891653,stimuli/card_0_transparent.png,0,12,0,12,0,1,,,,,,,,,,
,,,,663f855c7b165c38262a6204,A,2024-07-02_12h44.46.239,Slot Machine Game,2023.1.3,Linux x86_64,59.88023952,,,,,,,,,,,,,,,,,,,,,,,,,,,530,,,,,,,,,,,,,,,,,,,,,4,4,,,486.4243,13,up,0.1345,,0.5,0.3,"[1,2,3]",0.563176897,stimuli/card_10_transparent.png,10,13,0,13,0,1,,,,,,,,,,
,,,,663f855c7b165c38262a6204,A,2024-07-02_12h44.46.239,Slot Machine Game,2023.1.3,Linux x86_64,59.88023952,,,,,,,,,,,,,,,,,,,,,,,,,,,540,,,,,,,,,,,,,,,,,,,,,4,4,,,487.8911,14,up,1.5175,,0.5,0.3,"[1,2,3]",0.870287345,stimuli/card_10_transparent.png,10,14,0,14,0,1,,,,,,,,,,
,,,,663f855c7b165c38262a6204,A,2024-07-02_12h44.46.239,Slot Machine Game,2023.1.3,Linux x86_64,59.88023952,,,,,,,,,,,,,,,,,,,,,,,,,,,,,,,,,,,490.7409,,,,,,,,,,,,,,,,,,,,,,,,,,,,,,,,,"[1120,1030,840,540]",3,0,3,0,1,,,,
,,,,663f855c7b165c38262a6204,A,2024-07-02_12h44.46.239,Slot Machine Game,2023.1.3,Linux x86_64,59.88023952,,,,,,,,,,,,,,,,,,,,,,,,,,,100,,,,,,,,,,,,,,,,,,,,,5,5,"[5,15]","[[1,2,3],[3,1,2]]",495.7628,0,left,2.0189,,0.5,0.3,"[1,2,3]",0.939212368,stimuli/card_100_transparent.png,100,0,0,0,0,1,,,,,,,,,,
,,,,663f855c7b165c38262a6204,A,2024-07-02_12h44.46.239,Slot Machine Game,2023.1.3,Linux x86_64,59.88023952,,,,,,,,,,,,,,,,,,,,,,,,,,,200,,,,,,,,,,,,,,,,,,,,,5,5,,,499.1071,1,left,0.2006,,0.5,0.3,"[1,2,3]",0.462115715,stimuli/card_100_transparent.png,100,1,0,1,0,1,,,,,,,,,,
,,,,663f855c7b165c38262a6204,A,2024-07-02_12h44.46.239,Slot Machine Game,2023.1.3,Linux x86_64,59.88023952,,,,,,,,,,,,,,,,,,,,,,,,,,,200,,,,,,,,,,,,,,,,,,,,,5,5,,,500.6405,2,left,0.0435,,0.5,0.3,"[1,2,3]",0.074872433,stimuli/card_0_transparent.png,0,2,0,2,0,1,,,,,,,,,,
,,,,663f855c7b165c38262a6204,A,2024-07-02_12h44.46.239,Slot Machine Game,2023.1.3,Linux x86_64,59.88023952,,,,,,,,,,,,,,,,,,,,,,,,,,,300,,,,,,,,,,,,,,,,,,,,,5,5,,,502.007,3,left,0.1088,,0.5,0.3,"[1,2,3]",0.480169334,stimuli/card_100_transparent.png,100,3,0,3,0,1,,,,,,,,,,
,,,,663f855c7b165c38262a6204,A,2024-07-02_12h44.46.239,Slot Machine Game,2023.1.3,Linux x86_64,59.88023952,,,,,,,,,,,,,,,,,,,,,,,,,,,300,,,,,,,,,,,,,,,,,,,,,5,5,,,503.4403,4,left,0.0535,,1.5,0.3,"[1,2,3]",0.087715464,stimuli/card_0_transparent.png,0,4,0,4,0,1,,,,,,,,,,
,,,,663f855c7b165c38262a6204,A,2024-07-02_12h44.46.239,Slot Machine Game,2023.1.3,Linux x86_64,59.88023952,,,,,,,,,,,,,,,,,,,,,,,,,,,300,,,,,,,,,,,,,,,,,,,,,5,5,,,505.8235,5,left,0.4178,,1,0.3,"[3,1,2]",0.304244163,stimuli/card_0_transparent.png,0,5,0,5,0,1,,,,,,,,,,
,,,,663f855c7b165c38262a6204,A,2024-07-02_12h44.46.239,Slot Machine Game,2023.1.3,Linux x86_64,59.88023952,,,,,,,,,,,,,,,,,,,,,,,,,,,400,,,,,,,,,,,,,,,,,,,,,5,5,,,508.0725,6,up,0.3512,,1,0.3,"[3,1,2]",0.561898277,stimuli/card_100_transparent.png,100,6,0,6,0,1,,,,,,,,,,
,,,,663f855c7b165c38262a6204,A,2024-07-02_12h44.46.239,Slot Machine Game,2023.1.3,Linux x86_64,59.88023952,,,,,,,,,,,,,,,,,,,,,,,,,,,400,,,,,,,,,,,,,,,,,,,,,5,5,,,510.2399,7,up,0.0389,,0.5,0.3,"[3,1,2]",0.048429921,stimuli/card_0_transparent.png,0,7,0,7,0,1,,,,,,,,,,
,,,,663f855c7b165c38262a6204,A,2024-07-02_12h44.46.239,Slot Machine Game,2023.1.3,Linux x86_64,59.88023952,,,,,,,,,,,,,,,,,,,,,,,,,,,410,,,,,,,,,,,,,,,,,,,,,5,5,,,511.6066,8,right,2.5675,,0.5,0.3,"[3,1,2]",0.844714981,stimuli/card_10_transparent.png,10,8,0,8,0,1,,,,,,,,,,
,,,,663f855c7b165c38262a6204,A,2024-07-02_12h44.46.239,Slot Machine Game,2023.1.3,Linux x86_64,59.88023952,,,,,,,,,,,,,,,,,,,,,,,,,,,410,,,,,,,,,,,,,,,,,,,,,5,5,,,515.5065,9,up,1.2359,,1,0.3,"[3,1,2]",0.055537899,stimuli/card_0_transparent.png,0,9,0,9,0,1,,,,,,,,,,
,,,,663f855c7b165c38262a6204,A,2024-07-02_12h44.46.239,Slot Machine Game,2023.1.3,Linux x86_64,59.88023952,,,,,,,,,,,,,,,,,,,,,,,,,,,510,,,,,,,,,,,,,,,,,,,,,5,5,,,518.5731,10,up,0.1516,,1.5,0.3,"[3,1,2]",0.421671118,stimuli/card_100_transparent.png,100,10,0,10,0,1,,,,,,,,,,
,,,,663f855c7b165c38262a6204,A,2024-07-02_12h44.46.239,Slot Machine Game,2023.1.3,Linux x86_64,59.88023952,,,,,,,,,,,,,,,,,,,,,,,,,,,610,,,,,,,,,,,,,,,,,,,,,5,5,,,521.0561,11,up,0.2519,,1,0.3,"[3,1,2]",0.238498951,stimuli/card_100_transparent.png,100,11,0,11,0,1,,,,,,,,,,
,,,,663f855c7b165c38262a6204,A,2024-07-02_12h44.46.239,Slot Machine Game,2023.1.3,Linux x86_64,59.88023952,,,,,,,,,,,,,,,,,,,,,,,,,,,620,,,,,,,,,,,,,,,,,,,,,5,5,,,523.1395,12,up,1.8014,,1.5,0.3,"[3,1,2]",0.145390019,stimuli/card_10_transparent.png,10,12,0,12,0,1,,,,,,,,,,
,,,,663f855c7b165c38262a6204,A,2024-07-02_12h44.46.239,Slot Machine Game,2023.1.3,Linux x86_64,59.88023952,,,,,,,,,,,,,,,,,,,,,,,,,,,720,,,,,,,,,,,,,,,,,,,,,5,5,,,527.2726,13,up,0.2352,,1,0.3,"[3,1,2]",0.580818784,stimuli/card_100_transparent.png,100,13,0,13,0,1,,,,,,,,,,
,,,,663f855c7b165c38262a6204,A,2024-07-02_12h44.46.239,Slot Machine Game,2023.1.3,Linux x86_64,59.88023952,,,,,,,,,,,,,,,,,,,,,,,,,,,820,,,,,,,,,,,,,,,,,,,,,5,5,,,529.3389,14,up,0.2072,,1,0.3,"[3,1,2]",0.53094263,stimuli/card_100_transparent.png,100,14,0,14,0,1,,,,,,,,,,
,,,,663f855c7b165c38262a6204,A,2024-07-02_12h44.46.239,Slot Machine Game,2023.1.3,Linux x86_64,59.88023952,,,,,,,,,,,,,,,,,,,,,,,,,,,,,,,,,,,531.3725,,,,,,,,,,,,,,,,,,,,,,,,,,,,,,,,,"[1120,1030,840,540,820]",4,0,4,0,1,,,,
,,,,663f855c7b165c38262a6204,A,2024-07-02_12h44.46.239,Slot Machine Game,2023.1.3,Linux x86_64,59.88023952,,,,,,,,,,,,,,,,,,,,,,,,,,,,,,,,,,,,,,,,,,,,,,,,6,6,"[4,10,15]","[[2,3,1],[1,3,2],[3,2,1]]",536.3941,0,,,,0.5,0.3,,,,,0,0,0,0,1,,,,,,,,,,
,,,,663f855c7b165c38262a6204,A,2024-07-02_12h44.46.239,Slot Machine Game,2023.1.3,Linux x86_64,59.88023952,,,,,,,,,,,,,,,,,,,,,,,,,,,,,,,,,,,,,,,,,,,,,,,,6,6,,,541.9132,1,,,,0.5,0.3,,,,,1,0,1,0,1,,,,,,,,,,
,,,,663f855c7b165c38262a6204,A,2024-07-02_12h44.46.239,Slot Machine Game,2023.1.3,Linux x86_64,59.88023952,,,,,,,,,,,,,,,,,,,,,,,,,,,0,,,,,,,,,,,,,,,,,,,,,6,6,,,547.4226,2,up,3.9082,,1,0.3,"[2,3,1]",0.952043485,stimuli/card_0_transparent.png,0,2,0,2,0,1,,,,,,,,,,
,,,,663f855c7b165c38262a6204,A,2024-07-02_12h44.46.239,Slot Machine Game,2023.1.3,Linux x86_64,59.88023952,,,,,,,,,,,,,,,,,,,,,,,,,,,10,,,,,,,,,,,,,,,,,,,,,6,6,,,553.1546,3,left,0.3673,,0.5,0.3,"[2,3,1]",0.813594395,stimuli/card_10_transparent.png,10,3,0,3,0,1,,,,,,,,,,
,,,,663f855c7b165c38262a6204,A,2024-07-02_12h44.46.239,Slot Machine Game,2023.1.3,Linux x86_64,59.88023952,,,,,,,,,,,,,,,,,,,,,,,,,,,110,,,,,,,,,,,,,,,,,,,,,6,6,,,554.8546,4,right,0.5995,,1,0.3,"[1,3,2]",0.19643836,stimuli/card_100_transparent.png,100,4,0,4,0,1,,,,,,,,,,
,,,,663f855c7b165c38262a6204,A,2024-07-02_12h44.46.239,Slot Machine Game,2023.1.3,Linux x86_64,59.88023952,,,,,,,,,,,,,,,,,,,,,,,,,,,120,,,,,,,,,,,,,,,,,,,,,6,6,,,557.2883,5,right,1.7179,,1,0.3,"[1,3,2]",0.796678487,stimuli/card_10_transparent.png,10,5,0,5,0,1,,,,,,,,,,
,,,,663f855c7b165c38262a6204,A,2024-07-02_12h44.46.239,Slot Machine Game,2023.1.3,Linux x86_64,59.88023952,,,,,,,,,,,,,,,,,,,,,,,,,,,130,,,,,,,,,,,,,,,,,,,,,6,6,,,560.8377,6,right,0.0722,,1,0.3,"[1,3,2]",0.349243022,stimuli/card_10_transparent.png,10,6,0,6,0,1,,,,,,,,,,
,,,,663f855c7b165c38262a6204,A,2024-07-02_12h44.46.239,Slot Machine Game,2023.1.3,Linux x86_64,59.88023952,,,,,,,,,,,,,,,,,,,,,,,,,,,140,,,,,,,,,,,,,,,,,,,,,6,6,,,562.7376,7,right,2.1546,,0.5,0.3,"[1,3,2]",0.681291681,stimuli/card_10_transparent.png,10,7,0,7,0,1,,,,,,,,,,
,,,,663f855c7b165c38262a6204,A,2024-07-02_12h44.46.239,Slot Machine Game,2023.1.3,Linux x86_64,59.88023952,,,,,,,,,,,,,,,,,,,,,,,,,,,140,,,,,,,,,,,,,,,,,,,,,6,6,,,566.2208,8,up,0.1345,,1,0.3,"[1,3,2]",0.732169902,stimuli/card_0_transparent.png,0,8,0,8,0,1,,,,,,,,,,
,,,,663f855c7b165c38262a6204,A,2024-07-02_12h44.46.239,Slot Machine Game,2023.1.3,Linux x86_64,59.88023952,,,,,,,,,,,,,,,,,,,,,,,,,,,140,,,,,,,,,,,,,,,,,,,,,6,6,,,568.1873,9,up,0.1099,,1.5,0.3,"[1,3,2]",0.368786839,stimuli/card_0_transparent.png,0,9,0,9,0,1,,,,,,,,,,
,,,,663f855c7b165c38262a6204,A,2024-07-02_12h44.46.239,Slot Machine Game,2023.1.3,Linux x86_64,59.88023952,,,,,,,,,,,,,,,,,,,,,,,,,,,150,,,,,,,,,,,,,,,,,,,,,6,6,,,570.6205,10,up,2.0708,,0.5,0.3,"[3,2,1]",0.463664417,stimuli/card_10_transparent.png,10,10,0,10,0,1,,,,,,,,,,
,,,,663f855c7b165c38262a6204,A,2024-07-02_12h44.46.239,Slot Machine Game,2023.1.3,Linux x86_64,59.88023952,,,,,,,,,,,,,,,,,,,,,,,,,,,150,,,,,,,,,,,,,,,,,,,,,6,6,,,574.0204,11,left,0.4503,,0.5,0.3,"[3,2,1]",0.543783879,stimuli/card_0_transparent.png,0,11,0,11,0,1,,,,,,,,,,
,,,,663f855c7b165c38262a6204,A,2024-07-02_12h44.46.239,Slot Machine Game,2023.1.3,Linux x86_64,59.88023952,,,,,,,,,,,,,,,,,,,,,,,,,,,160,,,,,,,,,,,,,,,,,,,,,6,6,,,575.8035,12,left,1.3508,,0.5,0.3,"[3,2,1]",0.121735185,stimuli/card_10_transparent.png,10,12,0,12,0,1,,,,,,,,,,
,,,,663f855c7b165c38262a6204,A,2024-07-02_12h44.46.239,Slot Machine Game,2023.1.3,Linux x86_64,59.88023952,,,,,,,,,,,,,,,,,,,,,,,,,,,160,,,,,,,,,,,,,,,,,,,,,6,6,,,578.4871,13,left,0.2908,,1,0.3,"[3,2,1]",0.45022381,stimuli/card_0_transparent.png,0,13,0,13,0,1,,,,,,,,,,
,,,,663f855c7b165c38262a6204,A,2024-07-02_12h44.46.239,Slot Machine Game,2023.1.3,Linux x86_64,59.88023952,,,,,,,,,,,,,,,,,,,,,,,,,,,170,,,,,,,,,,,,,,,,,,,,,6,6,,,580.6034,14,up,1.9557,,1.5,0.3,"[3,2,1]",0.7526974,stimuli/card_10_transparent.png,10,14,0,14,0,1,,,,,,,,,,
,,,,663f855c7b165c38262a6204,A,2024-07-02_12h44.46.239,Slot Machine Game,2023.1.3,Linux x86_64,59.88023952,,,,,,,,,,,,,,,,,,,,,,,,,,,,,,,,,,,584.8864,,,,,,,,,,,,,,,,,,,,,,,,,,,,,,,,,"[1120,1030,840,540,820,170]",5,0,5,0,1,,,,
,,,,663f855c7b165c38262a6204,A,2024-07-02_12h44.46.239,Slot Machine Game,2023.1.3,Linux x86_64,59.88023952,,,,,,,,,,,,,,,,,,,,,,,,,,,100,,,,,,,,,,,,,,,,,,,,,7,7,"[9,15]","[[1,3,2],[2,3,1]]",589.9057,0,left,1.8238,,0.5,0.3,"[1,3,2]",0.631896182,stimuli/card_100_transparent.png,100,0,0,0,0,1,,,,,,,,,,
,,,,663f855c7b165c38262a6204,A,2024-07-02_12h44.46.239,Slot Machine Game,2023.1.3,Linux x86_64,59.88023952,,,,,,,,,,,,,,,,,,,,,,,,,,,200,,,,,,,,,,,,,,,,,,,,,7,7,,,593.053,1,left,0.0505,,1,0.3,"[1,3,2]",0.380669391,stimuli/card_100_transparent.png,100,1,0,1,0,1,,,,,,,,,,
,,,,663f855c7b165c38262a6204,A,2024-07-02_12h44.46.239,Slot Machine Game,2023.1.3,Linux x86_64,59.88023952,,,,,,,,,,,,,,,,,,,,,,,,,,,300,,,,,,,,,,,,,,,,,,,,,7,7,,,594.9361,2,left,2.1692,,0.5,0.3,"[1,3,2]",0.988829322,stimuli/card_100_transparent.png,100,2,0,2,0,1,,,,,,,,,,
,,,,663f855c7b165c38262a6204,A,2024-07-02_12h44.46.239,Slot Machine Game,2023.1.3,Linux x86_64,59.88023952,,,,,,,,,,,,,,,,,,,,,,,,,,,400,,,,,,,,,,,,,,,,,,,,,7,7,,,598.4357,3,left,0.2508,,0.5,0.3,"[1,3,2]",0.903277202,stimuli/card_100_transparent.png,100,3,0,3,0,1,,,,,,,,,,
,,,,663f855c7b165c38262a6204,A,2024-07-02_12h44.46.239,Slot Machine Game,2023.1.3,Linux x86_64,59.88023952,,,,,,,,,,,,,,,,,,,,,,,,,,,500,,,,,,,,,,,,,,,,,,,,,7,7,,,600.0191,4,left,0.5189,,0.5,0.3,"[1,3,2]",0.894424817,stimuli/card_100_transparent.png,100,4,0,4,0,1,,,,,,,,,,
,,,,663f855c7b165c38262a6204,A,2024-07-02_12h44.46.239,Slot Machine Game,2023.1.3,Linux x86_64,59.88023952,,,,,,,,,,,,,,,,,,,,,,,,,,,600,,,,,,,,,,,,,,,,,,,,,7,7,,,601.8692,5,left,0.2719,,1,0.3,"[1,3,2]",0.901925491,stimuli/card_100_transparent.png,100,5,0,5,0,1,,,,,,,,,,
,,,,663f855c7b165c38262a6204,A,2024-07-02_12h44.46.239,Slot Machine Game,2023.1.3,Linux x86_64,59.88023952,,,,,,,,,,,,,,,,,,,,,,,,,,,700,,,,,,,,,,,,,,,,,,,,,7,7,,,603.9692,6,left,1.2012,,1,0.3,"[1,3,2]",0.928847503,stimuli/card_100_transparent.png,100,6,0,6,0,1,,,,,,,,,,
,,,,663f855c7b165c38262a6204,A,2024-07-02_12h44.46.239,Slot Machine Game,2023.1.3,Linux x86_64,59.88023952,,,,,,,,,,,,,,,,,,,,,,,,,,,800,,,,,,,,,,,,,,,,,,,,,7,7,,,607.0021,7,left,0.9042,,1,0.3,"[1,3,2]",0.467196014,stimuli/card_100_transparent.png,100,7,0,7,0,1,,,,,,,,,,
,,,,663f855c7b165c38262a6204,A,2024-07-02_12h44.46.239,Slot Machine Game,2023.1.3,Linux x86_64,59.88023952,,,,,,,,,,,,,,,,,,,,,,,,,,,900,,,,,,,,,,,,,,,,,,,,,7,7,,,609.7353,8,left,0.3175,,1.5,0.3,"[1,3,2]",0.816917719,stimuli/card_100_transparent.png,100,8,0,8,0,1,,,,,,,,,,
,,,,663f855c7b165c38262a6204,A,2024-07-02_12h44.46.239,Slot Machine Game,2023.1.3,Linux x86_64,59.88023952,,,,,,,,,,,,,,,,,,,,,,,,,,,910,,,,,,,,,,,,,,,,,,,,,7,7,,,612.3854,9,left,0.0436,,0.5,0.3,"[2,3,1]",0.333351707,stimuli/card_10_transparent.png,10,9,0,9,0,1,,,,,,,,,,
,,,,663f855c7b165c38262a6204,A,2024-07-02_12h44.46.239,Slot Machine Game,2023.1.3,Linux x86_64,59.88023952,,,,,,,,,,,,,,,,,,,,,,,,,,,1010,,,,,,,,,,,,,,,,,,,,,7,7,,,613.7515,10,left,0.7668,,1.5,0.3,"[2,3,1]",0.183103515,stimuli/card_100_transparent.png,100,10,0,10,0,1,,,,,,,,,,
,,,,663f855c7b165c38262a6204,A,2024-07-02_12h44.46.239,Slot Machine Game,2023.1.3,Linux x86_64,59.88023952,,,,,,,,,,,,,,,,,,,,,,,,,,,1020,,,,,,,,,,,,,,,,,,,,,7,7,,,616.8516,11,left,0.1844,,0.5,0.3,"[2,3,1]",0.307581441,stimuli/card_10_transparent.png,10,11,0,11,0,1,,,,,,,,,,
,,,,663f855c7b165c38262a6204,A,2024-07-02_12h44.46.239,Slot Machine Game,2023.1.3,Linux x86_64,59.88023952,,,,,,,,,,,,,,,,,,,,,,,,,,,1030,,,,,,,,,,,,,,,,,,,,,7,7,,,618.3684,12,left,0.9838,,1.5,0.3,"[2,3,1]",0.874922914,stimuli/card_10_transparent.png,10,12,0,12,0,1,,,,,,,,,,
,,,,663f855c7b165c38262a6204,A,2024-07-02_12h44.46.239,Slot Machine Game,2023.1.3,Linux x86_64,59.88023952,,,,,,,,,,,,,,,,,,,,,,,,,,,1130,,,,,,,,,,,,,,,,,,,,,7,7,,,621.6849,13,left,0.5106,,1.5,0.3,"[2,3,1]",0.113992096,stimuli/card_100_transparent.png,100,13,0,13,0,1,,,,,,,,,,
,,,,663f855c7b165c38262a6204,A,2024-07-02_12h44.46.239,Slot Machine Game,2023.1.3,Linux x86_64,59.88023952,,,,,,,,,,,,,,,,,,,,,,,,,,,1140,,,,,,,,,,,,,,,,,,,,,7,7,,,624.518,14,left,0.3048,,1.5,0.3,"[2,3,1]",0.878350395,stimuli/card_10_transparent.png,10,14,0,14,0,1,,,,,,,,,,
,,,,663f855c7b165c38262a6204,A,2024-07-02_12h44.46.239,Slot Machine Game,2023.1.3,Linux x86_64,59.88023952,,,,,,,,,,,,,,,,,,,,,,,,,,,,,,,,,,,627.1513,,,,,,,,,,,,,,,,,,,,,,,,,,,,,,,,,"[1120,1030,840,540,820,170,1140]",6,0,6,0,1,,,,
,,,,663f855c7b165c38262a6204,A,2024-07-02_12h44.46.239,Slot Machine Game,2023.1.3,Linux x86_64,59.88023952,,,,,,,,,,,,,,,,,,,,,,,,,,,0,,,,,,,,,,,,,,,,,,,,,8,8,"[11,15]","[[2,1,3],[1,2,3]]",632.1715,0,right,3.6672,,1.5,0.3,"[2,1,3]",0.621899566,stimuli/card_0_transparent.png,0,0,0,0,0,1,,,,,,,,,,
,,,,663f855c7b165c38262a6204,A,2024-07-02_12h44.46.239,Slot Machine Game,2023.1.3,Linux x86_64,59.88023952,,,,,,,,,,,,,,,,,,,,,,,,,,,0,,,,,,,,,,,,,,,,,,,,,8,8,,,638.1674,1,right,0.2056,,0.5,0.3,"[2,1,3]",0.568836823,stimuli/card_0_transparent.png,0,1,0,1,0,1,,,,,,,,,,
,,,,663f855c7b165c38262a6204,A,2024-07-02_12h44.46.239,Slot Machine Game,2023.1.3,Linux x86_64,59.88023952,,,,,,,,,,,,,,,,,,,,,,,,,,,0,,,,,,,,,,,,,,,,,,,,,8,8,,,639.7007,2,left,0.8373,,0.5,0.3,"[2,1,3]",0.045421428,stimuli/card_0_transparent.png,0,2,0,2,0,1,,,,,,,,,,
,,,,663f855c7b165c38262a6204,A,2024-07-02_12h44.46.239,Slot Machine Game,2023.1.3,Linux x86_64,59.88023952,,,,,,,,,,,,,,,,,,,,,,,,,,,100,,,,,,,,,,,,,,,,,,,,,8,8,,,641.8674,3,up,0.3075,,0.5,0.3,"[2,1,3]",0.564965553,stimuli/card_100_transparent.png,100,3,0,3,0,1,,,,,,,,,,
,,,,663f855c7b165c38262a6204,A,2024-07-02_12h44.46.239,Slot Machine Game,2023.1.3,Linux x86_64,59.88023952,,,,,,,,,,,,,,,,,,,,,,,,,,,200,,,,,,,,,,,,,,,,,,,,,8,8,,,643.5004,4,up,0.0349,,1,0.3,"[2,1,3]",0.640747275,stimuli/card_100_transparent.png,100,4,0,4,0,1,,,,,,,,,,
,,,,663f855c7b165c38262a6204,A,2024-07-02_12h44.46.239,Slot Machine Game,2023.1.3,Linux x86_64,59.88023952,,,,,,,,,,,,,,,,,,,,,,,,,,,300,,,,,,,,,,,,,,,,,,,,,8,8,,,645.3671,5,up,1.3275,,0.5,0.3,"[2,1,3]",0.986175901,stimuli/card_100_transparent.png,100,5,0,5,0,1,,,,,,,,,,
,,,,663f855c7b165c38262a6204,A,2024-07-02_12h44.46.239,Slot Machine Game,2023.1.3,Linux x86_64,59.88023952,,,,,,,,,,,,,,,,,,,,,,,,,,,400,,,,,,,,,,,,,,,,,,,,,8,8,,,648.017,6,up,0.6065,,1.5,0.3,"[2,1,3]",0.503193586,stimuli/card_100_transparent.png,100,6,0,6,0,1,,,,,,,,,,
,,,,663f855c7b165c38262a6204,A,2024-07-02_12h44.46.239,Slot Machine Game,2023.1.3,Linux x86_64,59.88023952,,,,,,,,,,,,,,,,,,,,,,,,,,,500,,,,,,,,,,,,,,,,,,,,,8,8,,,650.9499,7,up,1.5998,,1,0.3,"[2,1,3]",0.262406073,stimuli/card_100_transparent.png,100,7,0,7,0,1,,,,,,,,,,
,,,,663f855c7b165c38262a6204,A,2024-07-02_12h44.46.239,Slot Machine Game,2023.1.3,Linux x86_64,59.88023952,,,,,,,,,,,,,,,,,,,,,,,,,,,600,,,,,,,,,,,,,,,,,,,,,8,8,,,654.3667,8,up,0.318,,1.5,0.3,"[2,1,3]",0.442601441,stimuli/card_100_transparent.png,100,8,0,8,0,1,,,,,,,,,,
,,,,663f855c7b165c38262a6204,A,2024-07-02_12h44.46.239,Slot Machine Game,2023.1.3,Linux x86_64,59.88023952,,,,,,,,,,,,,,,,,,,,,,,,,,,700,,,,,,,,,,,,,,,,,,,,,8,8,,,657.0164,9,up,0.1361,,0.5,0.3,"[2,1,3]",0.276654486,stimuli/card_100_transparent.png,100,9,0,9,0,1,,,,,,,,,,
,,,,663f855c7b165c38262a6204,A,2024-07-02_12h44.46.239,Slot Machine Game,2023.1.3,Linux x86_64,59.88023952,,,,,,,,,,,,,,,,,,,,,,,,,,,800,,,,,,,,,,,,,,,,,,,,,8,8,,,658.4831,10,up,0.4182,,1.5,0.3,"[2,1,3]",0.626792193,stimuli/card_100_transparent.png,100,10,0,10,0,1,,,,,,,,,,
,,,,663f855c7b165c38262a6204,A,2024-07-02_12h44.46.239,Slot Machine Game,2023.1.3,Linux x86_64,59.88023952,,,,,,,,,,,,,,,,,,,,,,,,,,,810,,,,,,,,,,,,,,,,,,,,,8,8,,,661.2331,11,up,0.3357,,1.5,0.3,"[1,2,3]",0.856219137,stimuli/card_10_transparent.png,10,11,0,11,0,1,,,,,,,,,,
,,,,663f855c7b165c38262a6204,A,2024-07-02_12h44.46.239,Slot Machine Game,2023.1.3,Linux x86_64,59.88023952,,,,,,,,,,,,,,,,,,,,,,,,,,,820,,,,,,,,,,,,,,,,,,,,,8,8,,,663.8997,12,up,0.1666,,0.5,0.3,"[1,2,3]",0.259198752,stimuli/card_10_transparent.png,10,12,0,12,0,1,,,,,,,,,,
,,,,663f855c7b165c38262a6204,A,2024-07-02_12h44.46.239,Slot Machine Game,2023.1.3,Linux x86_64,59.88023952,,,,,,,,,,,,,,,,,,,,,,,,,,,830,,,,,,,,,,,,,,,,,,,,,8,8,,,665.3994,13,up,0.8347,,0.5,0.3,"[1,2,3]",0.70048437,stimuli/card_10_transparent.png,10,13,0,13,0,1,,,,,,,,,,
,,,,663f855c7b165c38262a6204,A,2024-07-02_12h44.46.239,Slot Machine Game,2023.1.3,Linux x86_64,59.88023952,,,,,,,,,,,,,,,,,,,,,,,,,,,,,,,,,,,,,,,,,,,,,,,,8,8,,,667.5661,14,,,,1.5,0.3,,,,,14,0,14,0,1,,,,,,,,,,
,,,,663f855c7b165c38262a6204,A,2024-07-02_12h44.46.239,Slot Machine Game,2023.1.3,Linux x86_64,59.88023952,,,,,,,,,,,,,,,,,,,,,,,,,,,,,,,,,,,673.0869,,,,,,,,,,,,,,,,,,,,,,,,,,,,,,,,,"[1120,1030,840,540,820,170,1140,830]",7,0,7,0,1,,,,
,,,,663f855c7b165c38262a6204,A,2024-07-02_12h44.46.239,Slot Machine Game,2023.1.3,Linux x86_64,59.88023952,,,,,,,,,,,,,,,,,,,,,,,,,,,10,,,,,,,,,,,,,,,,,,,,,9,9,"[8,15]","[[3,2,1],[3,1,2]]",678.1025,0,left,1.5676,,0.5,0.3,"[3,2,1]",0.188840807,stimuli/card_10_transparent.png,10,0,0,0,0,1,,,,,,,,,,
,,,,663f855c7b165c38262a6204,A,2024-07-02_12h44.46.239,Slot Machine Game,2023.1.3,Linux x86_64,59.88023952,,,,,,,,,,,,,,,,,,,,,,,,,,,10,,,,,,,,,,,,,,,,,,,,,9,9,,,680.9987,1,left,0.2187,,0.5,0.3,"[3,2,1]",0.77358313,stimuli/card_0_transparent.png,0,1,0,1,0,1,,,,,,,,,,
,,,,663f855c7b165c38262a6204,A,2024-07-02_12h44.46.239,Slot Machine Game,2023.1.3,Linux x86_64,59.88023952,,,,,,,,,,,,,,,,,,,,,,,,,,,10,,,,,,,,,,,,,,,,,,,,,9,9,,,682.5486,2,right,0.2006,,1,0.3,"[3,2,1]",0.075079516,stimuli/card_0_transparent.png,0,2,0,2,0,1,,,,,,,,,,
,,,,663f855c7b165c38262a6204,A,2024-07-02_12h44.46.239,Slot Machine Game,2023.1.3,Linux x86_64,59.88023952,,,,,,,,,,,,,,,,,,,,,,,,,,,110,,,,,,,,,,,,,,,,,,,,,9,9,,,684.5818,3,right,1.5214,,1,0.3,"[3,2,1]",0.632753401,stimuli/card_100_transparent.png,100,3,0,3,0,1,,,,,,,,,,
,,,,663f855c7b165c38262a6204,A,2024-07-02_12h44.46.239,Slot Machine Game,2023.1.3,Linux x86_64,59.88023952,,,,,,,,,,,,,,,,,,,,,,,,,,,210,,,,,,,,,,,,,,,,,,,,,9,9,,,687.932,4,right,0.0181,,1,0.3,"[3,2,1]",0.391700184,stimuli/card_100_transparent.png,100,4,0,4,0,1,,,,,,,,,,
,,,,663f855c7b165c38262a6204,A,2024-07-02_12h44.46.239,Slot Machine Game,2023.1.3,Linux x86_64,59.88023952,,,,,,,,,,,,,,,,,,,,,,,,,,,310,,,,,,,,,,,,,,,,,,,,,9,9,,,689.7817,5,right,1.4032,,0.5,0.3,"[3,2,1]",0.987439233,stimuli/card_100_transparent.png,100,5,0,5,0,1,,,,,,,,,,
,,,,663f855c7b165c38262a6204,A,2024-07-02_12h44.46.239,Slot Machine Game,2023.1.3,Linux x86_64,59.88023952,,,,,,,,,,,,,,,,,,,,,,,,,,,410,,,,,,,,,,,,,,,,,,,,,9,9,,,692.515,6,right,0.3007,,1,0.3,"[3,2,1]",0.22368066,stimuli/card_100_transparent.png,100,6,0,6,0,1,,,,,,,,,,
,,,,663f855c7b165c38262a6204,A,2024-07-02_12h44.46.239,Slot Machine Game,2023.1.3,Linux x86_64,59.88023952,,,,,,,,,,,,,,,,,,,,,,,,,,,510,,,,,,,,,,,,,,,,,,,,,9,9,,,694.6482,7,right,0.4346,,1.5,0.3,"[3,2,1]",0.754809875,stimuli/card_100_transparent.png,100,7,0,7,0,1,,,,,,,,,,
,,,,663f855c7b165c38262a6204,A,2024-07-02_12h44.46.239,Slot Machine Game,2023.1.3,Linux x86_64,59.88023952,,,,,,,,,,,,,,,,,,,,,,,,,,,520,,,,,,,,,,,,,,,,,,,,,9,9,,,697.415,8,right,2.1176,,0.5,0.3,"[3,1,2]",0.485283451,stimuli/card_10_transparent.png,10,8,0,8,0,1,,,,,,,,,,
,,,,663f855c7b165c38262a6204,A,2024-07-02_12h44.46.239,Slot Machine Game,2023.1.3,Linux x86_64,59.88023952,,,,,,,,,,,,,,,,,,,,,,,,,,,530,,,,,,,,,,,,,,,,,,,,,9,9,,,700.8649,9,right,0.1755,,1,0.3,"[3,1,2]",0.492114958,stimuli/card_10_transparent.png,10,9,0,9,0,1,,,,,,,,,,
,,,,663f855c7b165c38262a6204,A,2024-07-02_12h44.46.239,Slot Machine Game,2023.1.3,Linux x86_64,59.88023952,,,,,,,,,,,,,,,,,,,,,,,,,,,530,,,,,,,,,,,,,,,,,,,,,9,9,,,702.8644,10,right,1.917,,1.5,0.3,"[3,1,2]",0.071100362,stimuli/card_0_transparent.png,0,10,0,10,0,1,,,,,,,,,,
,,,,663f855c7b165c38262a6204,A,2024-07-02_12h44.46.239,Slot Machine Game,2023.1.3,Linux x86_64,59.88023952,,,,,,,,,,,,,,,,,,,,,,,,,,,540,,,,,,,,,,,,,,,,,,,,,9,9,,,707.115,11,right,0.7863,,1,0.3,"[3,1,2]",0.425009505,stimuli/card_10_transparent.png,10,11,0,11,0,1,,,,,,,,,,
,,,,663f855c7b165c38262a6204,A,2024-07-02_12h44.46.239,Slot Machine Game,2023.1.3,Linux x86_64,59.88023952,,,,,,,,,,,,,,,,,,,,,,,,,,,540,,,,,,,,,,,,,,,,,,,,,9,9,,,709.7308,12,left,0.5548,,0.5,0.3,"[3,1,2]",0.516196592,stimuli/card_0_transparent.png,0,12,0,12,0,1,,,,,,,,,,
,,,,663f855c7b165c38262a6204,A,2024-07-02_12h44.46.239,Slot Machine Game,2023.1.3,Linux x86_64,59.88023952,,,,,,,,,,,,,,,,,,,,,,,,,,,640,,,,,,,,,,,,,,,,,,,,,9,9,,,711.6145,13,up,2.5587,,1.5,0.3,"[3,1,2]",0.235590015,stimuli/card_100_transparent.png,100,13,0,13,0,1,,,,,,,,,,
,,,,663f855c7b165c38262a6204,A,2024-07-02_12h44.46.239,Slot Machine Game,2023.1.3,Linux x86_64,59.88023952,,,,,,,,,,,,,,,,,,,,,,,,,,,740,,,,,,,,,,,,,,,,,,,,,9,9,,,716.4971,14,up,0.1017,,1,0.3,"[3,1,2]",0.78622349,stimuli/card_100_transparent.png,100,14,0,14,0,1,,,,,,,,,,
,,,,663f855c7b165c38262a6204,A,2024-07-02_12h44.46.239,Slot Machine Game,2023.1.3,Linux x86_64,59.88023952,,,,,,,,,,,,,,,,,,,,,,,,,,,,,,,,,,,718.4305,,,,,,,,,,,,,,,,,,,,,,,,,,,,,,,,,"[1120,1030,840,540,820,170,1140,830,740]",8,0,8,0,1,,,,
,,,,663f855c7b165c38262a6204,A,2024-07-02_12h44.46.239,Slot Machine Game,2023.1.3,Linux x86_64,59.88023952,,,,,,,,,,,,,,,,,,,,,,,,,,,100,,,,,,,,,,,,,,,,,,,,,10,10,"[10,15]","[[3,1,2],[1,3,2]]",723.4517,0,left,0.8673,,1.5,0.3,"[3,1,2]",0.059199718,stimuli/card_100_transparent.png,100,0,0,0,0,1,,,,,,,,,,
,,,,663f855c7b165c38262a6204,A,2024-07-02_12h44.46.239,Slot Machine Game,2023.1.3,Linux x86_64,59.88023952,,,,,,,,,,,,,,,,,,,,,,,,,,,100,,,,,,,,,,,,,,,,,,,,,10,10,,,726.6469,1,left,1.6922,,1,0.3,"[3,1,2]",0.350919248,stimuli/card_0_transparent.png,0,1,0,1,0,1,,,,,,,,,,
,,,,663f855c7b165c38262a6204,A,2024-07-02_12h44.46.239,Slot Machine Game,2023.1.3,Linux x86_64,59.88023952,,,,,,,,,,,,,,,,,,,,,,,,,,,100,,,,,,,,,,,,,,,,,,,,,10,10,,,730.1632,2,left,0.0013,,0.5,0.3,"[3,1,2]",0.303327681,stimuli/card_0_transparent.png,0,2,0,2,0,1,,,,,,,,,,
,,,,663f855c7b165c38262a6204,A,2024-07-02_12h44.46.239,Slot Machine Game,2023.1.3,Linux x86_64,59.88023952,,,,,,,,,,,,,,,,,,,,,,,,,,,200,,,,,,,,,,,,,,,,,,,,,10,10,,,731.4965,3,up,0.4676,,1,0.3,"[3,1,2]",0.768426195,stimuli/card_100_transparent.png,100,3,0,3,0,1,,,,,,,,,,
,,,,663f855c7b165c38262a6204,A,2024-07-02_12h44.46.239,Slot Machine Game,2023.1.3,Linux x86_64,59.88023952,,,,,,,,,,,,,,,,,,,,,,,,,,,200,,,,,,,,,,,,,,,,,,,,,10,10,,,733.7963,4,up,1.2251,,1,0.3,"[3,1,2]",0.009914919,stimuli/card_0_transparent.png,0,4,0,4,0,1,,,,,,,,,,
,,,,663f855c7b165c38262a6204,A,2024-07-02_12h44.46.239,Slot Machine Game,2023.1.3,Linux x86_64,59.88023952,,,,,,,,,,,,,,,,,,,,,,,,,,,300,,,,,,,,,,,,,,,,,,,,,10,10,,,736.8462,5,up,2.0336,,1.5,0.3,"[3,1,2]",0.475191424,stimuli/card_100_transparent.png,100,5,0,5,0,1,,,,,,,,,,
,,,,663f855c7b165c38262a6204,A,2024-07-02_12h44.46.239,Slot Machine Game,2023.1.3,Linux x86_64,59.88023952,,,,,,,,,,,,,,,,,,,,,,,,,,,400,,,,,,,,,,,,,,,,,,,,,10,10,,,741.2126,6,up,0.0744,,1.5,0.3,"[3,1,2]",0.95474259,stimuli/card_100_transparent.png,100,6,0,6,0,1,,,,,,,,,,
,,,,663f855c7b165c38262a6204,A,2024-07-02_12h44.46.239,Slot Machine Game,2023.1.3,Linux x86_64,59.88023952,,,,,,,,,,,,,,,,,,,,,,,,,,,500,,,,,,,,,,,,,,,,,,,,,10,10,,,743.6124,7,up,1.6511,,1.5,0.3,"[3,1,2]",0.523469888,stimuli/card_100_transparent.png,100,7,0,7,0,1,,,,,,,,,,
,,,,663f855c7b165c38262a6204,A,2024-07-02_12h44.46.239,Slot Machine Game,2023.1.3,Linux x86_64,59.88023952,,,,,,,,,,,,,,,,,,,,,,,,,,,600,,,,,,,,,,,,,,,,,,,,,10,10,,,747.5956,8,up,0.2017,,1.5,0.3,"[3,1,2]",0.541823231,stimuli/card_100_transparent.png,100,8,0,8,0,1,,,,,,,,,,
,,,,663f855c7b165c38262a6204,A,2024-07-02_12h44.46.239,Slot Machine Game,2023.1.3,Linux x86_64,59.88023952,,,,,,,,,,,,,,,,,,,,,,,,,,,700,,,,,,,,,,,,,,,,,,,,,10,10,,,750.1288,9,up,1.8336,,1,0.3,"[3,1,2]",0.955206852,stimuli/card_100_transparent.png,100,9,0,9,0,1,,,,,,,,,,
,,,,663f855c7b165c38262a6204,A,2024-07-02_12h44.46.239,Slot Machine Game,2023.1.3,Linux x86_64,59.88023952,,,,,,,,,,,,,,,,,,,,,,,,,,,800,,,,,,,,,,,,,,,,,,,,,10,10,,,753.7952,10,up,0.3076,,0.5,0.3,"[1,3,2]",0.007748216,stimuli/card_100_transparent.png,100,10,0,10,0,1,,,,,,,,,,
,,,,663f855c7b165c38262a6204,A,2024-07-02_12h44.46.239,Slot Machine Game,2023.1.3,Linux x86_64,59.88023952,,,,,,,,,,,,,,,,,,,,,,,,,,,800,,,,,,,,,,,,,,,,,,,,,10,10,,,755.4285,11,up,0.5345,,1,0.3,"[1,3,2]",0.860344354,stimuli/card_0_transparent.png,0,11,0,11,0,1,,,,,,,,,,
,,,,663f855c7b165c38262a6204,A,2024-07-02_12h44.46.239,Slot Machine Game,2023.1.3,Linux x86_64,59.88023952,,,,,,,,,,,,,,,,,,,,,,,,,,,800,,,,,,,,,,,,,,,,,,,,,10,10,,,757.7952,12,up,0.4717,,0.5,0.3,"[1,3,2]",0.363829342,stimuli/card_0_transparent.png,0,12,0,12,0,1,,,,,,,,,,
,,,,663f855c7b165c38262a6204,A,2024-07-02_12h44.46.239,Slot Machine Game,2023.1.3,Linux x86_64,59.88023952,,,,,,,,,,,,,,,,,,,,,,,,,,,900,,,,,,,,,,,,,,,,,,,,,10,10,,,759.5951,13,left,0.1848,,0.5,0.3,"[1,3,2]",0.672956074,stimuli/card_100_transparent.png,100,13,0,13,0,1,,,,,,,,,,
,,,,663f855c7b165c38262a6204,A,2024-07-02_12h44.46.239,Slot Machine Game,2023.1.3,Linux x86_64,59.88023952,,,,,,,,,,,,,,,,,,,,,,,,,,,1000,,,,,,,,,,,,,,,,,,,,,10,10,,,761.1119,14,left,0.0216,,1.5,0.3,"[1,3,2]",0.689405664,stimuli/card_100_transparent.png,100,14,0,14,0,1,,,,,,,,,,
,,,,663f855c7b165c38262a6204,A,2024-07-02_12h44.46.239,Slot Machine Game,2023.1.3,Linux x86_64,59.88023952,,,,,,,,,,,,,,,,,,,,,,,,,,,,,,,,,,,763.4616,,,,,,,,,,,,,,,,,,,,,,,,,,,,,,,,,"[1120,1030,840,540,820,170,1140,830,740,1000]",9,0,9,0,1,,,,
,,,,663f855c7b165c38262a6204,A,2024-07-02_12h44.46.239,Slot Machine Game,2023.1.3,Linux x86_64,59.88023952,,,,,,,,,,,,,,,,,,,,,,,,,,,,,,,,,,,,,,,,,,,,,,,,,,,,,,,,,,,,,,,,,,,,,,,,,,9,"[1120,1030,840,540,820,170,1140,830,740,1000]",8.4,2024-07-02_12h57.38.847
