key_resp_welcome_started,key_resp_welcome_keys,key_resp_welcome_rt,key_resp_welcome_duration,prolific_id,path_id,date,expName,psychopyVersion,OS,frameRate,key_resp_instruction1_started,key_resp_instruction1_keys,key_resp_instruction1_rt,key_resp_instruction1_duration,key_resp_instruction2_started,key_resp_instruction2_keys,key_resp_instruction2_rt,key_resp_instruction2_duration,key_resp_instruction3_started,key_resp_instruction3_keys,key_resp_instruction3_rt,key_resp_instruction3_duration,key_resp_instruction4_started,key_resp_instruction4_keys,key_resp_instruction4_rt,key_resp_instruction4_duration,practiceCondition,practice_reward_seqs,practice_trial_started,practice_trial_num,practice_resp_rt,practice_resp_duration,practice_resp_keys,prac_presentationInterval,"practice_reward_seq: 2,1,3",reward_img,cumulative_reward,trial_reward,practice_trials.thisRepN,practice_trials.thisTrialN,practice_trials.thisN,practice_trials.thisIndex,practice_trials.ran,"practice_reward_seq: 2,3,1",block_break_started,"practice_reward_seq: 1,3,2","practice_reward_seq: 3,1,2",practice_end_time,practice_end_keys,practice_end_rt,practice_end_duration,main_instruction_text_started,block_condition,block_order_indices,main_instruction_keys,main_instruction_rt,main_instruction_duration,block_number,block_assignment,current_condition,main_reward_seqs,main_trial_started,main_trial_num,main_trial_keys,main_trial_rt,main_trial_duration,main_presentationInterval,reward_presentation_time,main_reward_seq,reward_rand_val,main_reward_img,current_reward,main_trials.thisRepN,main_trials.thisTrialN,main_trials.thisN,main_trials.thisIndex,main_trials.ran,block_reward,block.thisRepN,block.thisTrialN,block.thisN,block.thisIndex,block.ran,block_reward.length,block_reward_all,reward_amount,date_end_task
0.0003,space,2.1182,,6642982c6b2b677499d5de75,B,2024-06-21_14h21.58.977,Slot Machine Game,2023.1.3,MacIntel,56.81818182,,,,,,,,,,,,,,,,,,,,,,,,,,,,,,,,,,,,,,,,,,,,,,,,,,,,,,,,,,,,,,,,,,,,,,,,,,,,,
,,,,6642982c6b2b677499d5de75,B,2024-06-21_14h21.58.977,Slot Machine Game,2023.1.3,MacIntel,56.81818182,2.1464,space,2.8893,,,,,,,,,,,,,,,,,,,,,,,,,,,,,,,,,,,,,,,,,,,,,,,,,,,,,,,,,,,,,,,,,,,,,,,,,,
,,,,6642982c6b2b677499d5de75,B,2024-06-21_14h21.58.977,Slot Machine Game,2023.1.3,MacIntel,56.81818182,,,,,5.0735,space,5.391,,,,,,,,,,,,,,,,,,,,,,,,,,,,,,,,,,,,,,,,,,,,,,,,,,,,,,,,,,,,,,,,,,,,,,
,,,,6642982c6b2b677499d5de75,B,2024-06-21_14h21.58.977,Slot Machine Game,2023.1.3,MacIntel,56.81818182,,,,,,,,,10.5308,space,3.6238,,,,,,,,,,,,,,,,,,,,,,,,,,,,,,,,,,,,,,,,,,,,,,,,,,,,,,,,,,,,,,,,,,
,,,,6642982c6b2b677499d5de75,B,2024-06-21_14h21.58.977,Slot Machine Game,2023.1.3,MacIntel,56.81818182,,,,,,,,,,,,,,,,,,,,,,,,,,,,,,,,,,,,,,,,,,,,,,,,,,,,,,,,,,,,,,,,,,,,,,,,,,,,,
,,,,6642982c6b2b677499d5de75,B,2024-06-21_14h21.58.977,Slot Machine Game,2023.1.3,MacIntel,56.81818182,,,,,,,,,,,,,156.085,space,12.4183,,,,,,,,,,,,,,,,,,,,,,,,,,,,,,,,,,,,,,,,,,,,,,,,,,,,,,,,,,,,,,
,,,,6642982c6b2b677499d5de75,B,2024-06-21_14h21.58.977,Slot Machine Game,2023.1.3,MacIntel,56.81818182,,,,,,,,,,,,,,,,,"[9,15]","[[2,1,3],[2,3,1]]",168.5315,0,1.3964,,up,0.5,,stimuli/card_100_transparent.png,100,100,0,0,0,0,1,,,,,,,,,,,,,,,,,,,,,,,,,,,,,,,,,,,,,,,,,,,,
,,,,6642982c6b2b677499d5de75,B,2024-06-21_14h21.58.977,Slot Machine Game,2023.1.3,MacIntel,56.81818182,,,,,,,,,,,,,,,,,,,171.2266,1,0.2544,,up,0.5,,stimuli/card_10_transparent.png,110,10,1,0,1,0,1,,,,,,,,,,,,,,,,,,,,,,,,,,,,,,,,,,,,,,,,,,,,
,,,,6642982c6b2b677499d5de75,B,2024-06-21_14h21.58.977,Slot Machine Game,2023.1.3,MacIntel,56.81818182,,,,,,,,,,,,,,,,,,,172.7715,2,0.237,,left,1.5,,stimuli/card_10_transparent.png,120,10,2,0,2,0,1,,,,,,,,,,,,,,,,,,,,,,,,,,,,,,,,,,,,,,,,,,,,
,,,,6642982c6b2b677499d5de75,B,2024-06-21_14h21.58.977,Slot Machine Game,2023.1.3,MacIntel,56.81818182,,,,,,,,,,,,,,,,,,,175.3332,3,0.5843,,left,0.5,,stimuli/card_10_transparent.png,130,10,3,0,3,0,1,,,,,,,,,,,,,,,,,,,,,,,,,,,,,,,,,,,,,,,,,,,,
,,,,6642982c6b2b677499d5de75,B,2024-06-21_14h21.58.977,Slot Machine Game,2023.1.3,MacIntel,56.81818182,,,,,,,,,,,,,,,,,,,177.2367,4,1.9473,,up,1,,stimuli/card_100_transparent.png,230,100,4,0,4,0,1,,,,,,,,,,,,,,,,,,,,,,,,,,,,,,,,,,,,,,,,,,,,
,,,,6642982c6b2b677499d5de75,B,2024-06-21_14h21.58.977,Slot Machine Game,2023.1.3,MacIntel,56.81818182,,,,,,,,,,,,,,,,,,,180.9995,5,2.7579,,up,1.5,,stimuli/card_100_transparent.png,330,100,5,0,5,0,1,,,,,,,,,,,,,,,,,,,,,,,,,,,,,,,,,,,,,,,,,,,,
,,,,6642982c6b2b677499d5de75,B,2024-06-21_14h21.58.977,Slot Machine Game,2023.1.3,MacIntel,56.81818182,,,,,,,,,,,,,,,,,,,186.0656,6,0.3672,,up,1,,stimuli/card_100_transparent.png,430,100,6,0,6,0,1,,,,,,,,,,,,,,,,,,,,,,,,,,,,,,,,,,,,,,,,,,,,
,,,,6642982c6b2b677499d5de75,B,2024-06-21_14h21.58.977,Slot Machine Game,2023.1.3,MacIntel,56.81818182,,,,,,,,,,,,,,,,,,,188.2381,7,0.0776,,up,0.5,,stimuli/card_100_transparent.png,530,100,7,0,7,0,1,,,,,,,,,,,,,,,,,,,,,,,,,,,,,,,,,,,,,,,,,,,,
,,,,6642982c6b2b677499d5de75,B,2024-06-21_14h21.58.977,Slot Machine Game,2023.1.3,MacIntel,56.81818182,,,,,,,,,,,,,,,,,,,189.6666,8,0.1176,,up,1,,stimuli/card_100_transparent.png,630,100,8,0,8,0,1,,,,,,,,,,,,,,,,,,,,,,,,,,,,,,,,,,,,,,,,,,,,
,,,,6642982c6b2b677499d5de75,B,2024-06-21_14h21.58.977,Slot Machine Game,2023.1.3,MacIntel,56.81818182,,,,,,,,,,,,,,,,,,,191.6063,9,0.1363,,up,0.5,,stimuli/card_0_transparent.png,630,0,9,0,9,0,1,,,,,,,,,,,,,,,,,,,,,,,,,,,,,,,,,,,,,,,,,,,,
,,,,6642982c6b2b677499d5de75,B,2024-06-21_14h21.58.977,Slot Machine Game,2023.1.3,MacIntel,56.81818182,,,,,,,,,,,,,,,,,,,193.0724,10,0.2001,,right,0.5,,stimuli/card_100_transparent.png,730,100,10,0,10,0,1,,,,,,,,,,,,,,,,,,,,,,,,,,,,,,,,,,,,,,,,,,,,
,,,,6642982c6b2b677499d5de75,B,2024-06-21_14h21.58.977,Slot Machine Game,2023.1.3,MacIntel,56.81818182,,,,,,,,,,,,,,,,,,,194.5945,11,1.5938,,right,0.5,,stimuli/card_10_transparent.png,740,10,11,0,11,0,1,,,,,,,,,,,,,,,,,,,,,,,,,,,,,,,,,,,,,,,,,,,,
,,,,6642982c6b2b677499d5de75,B,2024-06-21_14h21.58.977,Slot Machine Game,2023.1.3,MacIntel,56.81818182,,,,,,,,,,,,,,,,,,,197.5064,12,0.1326,,up,1.5,,stimuli/card_0_transparent.png,740,0,12,0,12,0,1,,,,,,,,,,,,,,,,,,,,,,,,,,,,,,,,,,,,,,,,,,,,
,,,,6642982c6b2b677499d5de75,B,2024-06-21_14h21.58.977,Slot Machine Game,2023.1.3,MacIntel,56.81818182,,,,,,,,,,,,,,,,,,,199.9702,13,1.2531,,left,1,,stimuli/card_10_transparent.png,750,10,13,0,13,0,1,,,,,,,,,,,,,,,,,,,,,,,,,,,,,,,,,,,,,,,,,,,,
,,,,6642982c6b2b677499d5de75,B,2024-06-21_14h21.58.977,Slot Machine Game,2023.1.3,MacIntel,56.81818182,,,,,,,,,,,,,,,,,,,203.0439,14,0.1853,,left,1.5,,stimuli/card_10_transparent.png,760,10,14,0,14,0,1,,,,,,,,,,,,,,,,,,,,,,,,,,,,,,,,,,,,,,,,,,,,
,,,,6642982c6b2b677499d5de75,B,2024-06-21_14h21.58.977,Slot Machine Game,2023.1.3,MacIntel,56.81818182,,,,,,,,,,,,,,,,,"[6,15]","[[1,3,2],[3,1,2]]",210.5721,0,0.6774,,up,1,,stimuli/card_100_transparent.png,100,100,0,0,0,0,1,,205.5702,,,,,,,,,,,,,,,,,,,,,,,,,,,,,,,,,,,,,,,,,,
,,,,6642982c6b2b677499d5de75,B,2024-06-21_14h21.58.977,Slot Machine Game,2023.1.3,MacIntel,56.81818182,,,,,,,,,,,,,,,,,,,213.0775,1,1.3549,,up,1.5,,stimuli/card_0_transparent.png,100,0,1,0,1,0,1,,,,,,,,,,,,,,,,,,,,,,,,,,,,,,,,,,,,,,,,,,,,
,,,,6642982c6b2b677499d5de75,B,2024-06-21_14h21.58.977,Slot Machine Game,2023.1.3,MacIntel,56.81818182,,,,,,,,,,,,,,,,,,,216.7597,2,0.2255,,left,1,,stimuli/card_100_transparent.png,200,100,2,0,2,0,1,,,,,,,,,,,,,,,,,,,,,,,,,,,,,,,,,,,,,,,,,,,,
,,,,6642982c6b2b677499d5de75,B,2024-06-21_14h21.58.977,Slot Machine Game,2023.1.3,MacIntel,56.81818182,,,,,,,,,,,,,,,,,,,218.8093,3,1.629,,left,1,,stimuli/card_100_transparent.png,300,100,3,0,3,0,1,,,,,,,,,,,,,,,,,,,,,,,,,,,,,,,,,,,,,,,,,,,,
,,,,6642982c6b2b677499d5de75,B,2024-06-21_14h21.58.977,Slot Machine Game,2023.1.3,MacIntel,56.81818182,,,,,,,,,,,,,,,,,,,222.2679,4,0.234,,left,0.5,,stimuli/card_100_transparent.png,400,100,4,0,4,0,1,,,,,,,,,,,,,,,,,,,,,,,,,,,,,,,,,,,,,,,,,,,,
,,,,6642982c6b2b677499d5de75,B,2024-06-21_14h21.58.977,Slot Machine Game,2023.1.3,MacIntel,56.81818182,,,,,,,,,,,,,,,,,,,223.8045,5,0.0004,,left,0.5,,stimuli/card_100_transparent.png,500,100,5,0,5,0,1,,,,,,,,,,,,,,,,,,,,,,,,,,,,,,,,,,,,,,,,,,,,
,,,,6642982c6b2b677499d5de75,B,2024-06-21_14h21.58.977,Slot Machine Game,2023.1.3,MacIntel,56.81818182,,,,,,,,,,,,,,,,,,,225.1254,6,0.9493,,left,1,,stimuli/card_10_transparent.png,510,10,6,0,6,0,1,,,,,,,,,,,,,,,,,,,,,,,,,,,,,,,,,,,,,,,,,,,,
,,,,6642982c6b2b677499d5de75,B,2024-06-21_14h21.58.977,Slot Machine Game,2023.1.3,MacIntel,56.81818182,,,,,,,,,,,,,,,,,,,227.9091,7,1.0508,,up,0.5,,stimuli/card_100_transparent.png,610,100,7,0,7,0,1,,,,,,,,,,,,,,,,,,,,,,,,,,,,,,,,,,,,,,,,,,,,
,,,,6642982c6b2b677499d5de75,B,2024-06-21_14h21.58.977,Slot Machine Game,2023.1.3,MacIntel,56.81818182,,,,,,,,,,,,,,,,,,,230.2937,8,0.4947,,up,1.5,,stimuli/card_100_transparent.png,710,100,8,0,8,0,1,,,,,,,,,,,,,,,,,,,,,,,,,,,,,,,,,,,,,,,,,,,,
,,,,6642982c6b2b677499d5de75,B,2024-06-21_14h21.58.977,Slot Machine Game,2023.1.3,MacIntel,56.81818182,,,,,,,,,,,,,,,,,,,233.1104,9,0.1169,,up,1.5,,stimuli/card_0_transparent.png,710,0,9,0,9,0,1,,,,,,,,,,,,,,,,,,,,,,,,,,,,,,,,,,,,,,,,,,,,
,,,,6642982c6b2b677499d5de75,B,2024-06-21_14h21.58.977,Slot Machine Game,2023.1.3,MacIntel,56.81818182,,,,,,,,,,,,,,,,,,,235.5448,10,0.1673,,left,1.5,,stimuli/card_0_transparent.png,710,0,10,0,10,0,1,,,,,,,,,,,,,,,,,,,,,,,,,,,,,,,,,,,,,,,,,,,,
,,,,6642982c6b2b677499d5de75,B,2024-06-21_14h21.58.977,Slot Machine Game,2023.1.3,MacIntel,56.81818182,,,,,,,,,,,,,,,,,,,238.0398,11,0.1984,,right,1,,stimuli/card_0_transparent.png,710,0,11,0,11,0,1,,,,,,,,,,,,,,,,,,,,,,,,,,,,,,,,,,,,,,,,,,,,
,,,,6642982c6b2b677499d5de75,B,2024-06-21_14h21.58.977,Slot Machine Game,2023.1.3,MacIntel,56.81818182,,,,,,,,,,,,,,,,,,,240.062,12,0.0617,,up,1,,stimuli/card_100_transparent.png,810,100,12,0,12,0,1,,,,,,,,,,,,,,,,,,,,,,,,,,,,,,,,,,,,,,,,,,,,
,,,,6642982c6b2b677499d5de75,B,2024-06-21_14h21.58.977,Slot Machine Game,2023.1.3,MacIntel,56.81818182,,,,,,,,,,,,,,,,,,,241.9444,13,0.0319,,up,0.5,,stimuli/card_0_transparent.png,810,0,13,0,13,0,1,,,,,,,,,,,,,,,,,,,,,,,,,,,,,,,,,,,,,,,,,,,,
,,,,6642982c6b2b677499d5de75,B,2024-06-21_14h21.58.977,Slot Machine Game,2023.1.3,MacIntel,56.81818182,,,,,,,,,,,,,,,,,,,243.3123,14,0.1282,,up,1.5,,stimuli/card_100_transparent.png,910,100,14,0,14,0,1,,,,,,,,,,,,,,,,,,,,,,,,,,,,,,,,,,,,,,,,,,,,
,,,,6642982c6b2b677499d5de75,B,2024-06-21_14h21.58.977,Slot Machine Game,2023.1.3,MacIntel,56.81818182,,,,,,,,,,,,,,,,,,,,,,,,,,,,,,,,,,,245.777,,,250.7728,space,3.0278,,,,,,,,,,,,,,,,,,,,,,,,,,,,,,,,,,,,,
,,,,6642982c6b2b677499d5de75,B,2024-06-21_14h21.58.977,Slot Machine Game,2023.1.3,MacIntel,56.81818182,,,,,,,,,,,,,,,,,,,,,,,,,,,,,,,,,,,,,,,,,,253.8274,1,"[0,1,2,3,4,5,6,7,8,9]",space,1.5153,,,,,,,,,,,,,,,,,,,,,,,,,,,,,,,
,,,,6642982c6b2b677499d5de75,B,2024-06-21_14h21.58.977,Slot Machine Game,2023.1.3,MacIntel,56.81818182,,,,,,,,,,,,,,,,,,,,,,,,,,,100,,,,,,,,,,,,,,,,,,,,,1,1,"[12,15]","[[2,1,3],[2,3,1]]",255.3726,0,up,0.3262,,0.5,0.3,"[2,1,3]",0.596675066,stimuli/card_100_transparent.png,100,0,0,0,0,1,,,,,,,,,,
,,,,6642982c6b2b677499d5de75,B,2024-06-21_14h21.58.977,Slot Machine Game,2023.1.3,MacIntel,56.81818182,,,,,,,,,,,,,,,,,,,,,,,,,,,200,,,,,,,,,,,,,,,,,,,,,1,1,,,257.0109,1,up,0.7681,,1,0.3,"[2,1,3]",0.813000428,stimuli/card_100_transparent.png,100,1,0,1,0,1,,,,,,,,,,
,,,,6642982c6b2b677499d5de75,B,2024-06-21_14h21.58.977,Slot Machine Game,2023.1.3,MacIntel,56.81818182,,,,,,,,,,,,,,,,,,,,,,,,,,,300,,,,,,,,,,,,,,,,,,,,,1,1,,,259.5889,2,up,0.2173,,1,0.3,"[2,1,3]",0.440175987,stimuli/card_100_transparent.png,100,2,0,2,0,1,,,,,,,,,,
,,,,6642982c6b2b677499d5de75,B,2024-06-21_14h21.58.977,Slot Machine Game,2023.1.3,MacIntel,56.81818182,,,,,,,,,,,,,,,,,,,,,,,,,,,400,,,,,,,,,,,,,,,,,,,,,1,1,,,261.6265,3,up,1.5353,,0.5,0.3,"[2,1,3]",0.473225365,stimuli/card_100_transparent.png,100,3,0,3,0,1,,,,,,,,,,
,,,,6642982c6b2b677499d5de75,B,2024-06-21_14h21.58.977,Slot Machine Game,2023.1.3,MacIntel,56.81818182,,,,,,,,,,,,,,,,,,,,,,,,,,,500,,,,,,,,,,,,,,,,,,,,,1,1,,,264.4997,4,up,0.1138,,1.5,0.3,"[2,1,3]",0.822352422,stimuli/card_100_transparent.png,100,4,0,4,0,1,,,,,,,,,,
,,,,6642982c6b2b677499d5de75,B,2024-06-21_14h21.58.977,Slot Machine Game,2023.1.3,MacIntel,56.81818182,,,,,,,,,,,,,,,,,,,,,,,,,,,600,,,,,,,,,,,,,,,,,,,,,1,1,,,266.9396,5,up,0.1211,,1,0.3,"[2,1,3]",0.685661895,stimuli/card_100_transparent.png,100,5,0,5,0,1,,,,,,,,,,
,,,,6642982c6b2b677499d5de75,B,2024-06-21_14h21.58.977,Slot Machine Game,2023.1.3,MacIntel,56.81818182,,,,,,,,,,,,,,,,,,,,,,,,,,,700,,,,,,,,,,,,,,,,,,,,,1,1,,,268.8769,6,up,0.1218,,1.5,0.3,"[2,1,3]",0.467921286,stimuli/card_100_transparent.png,100,6,0,6,0,1,,,,,,,,,,
,,,,6642982c6b2b677499d5de75,B,2024-06-21_14h21.58.977,Slot Machine Game,2023.1.3,MacIntel,56.81818182,,,,,,,,,,,,,,,,,,,,,,,,,,,800,,,,,,,,,,,,,,,,,,,,,1,1,,,271.3054,7,up,1.3187,,0.5,0.3,"[2,1,3]",0.790747594,stimuli/card_100_transparent.png,100,7,0,7,0,1,,,,,,,,,,
,,,,6642982c6b2b677499d5de75,B,2024-06-21_14h21.58.977,Slot Machine Game,2023.1.3,MacIntel,56.81818182,,,,,,,,,,,,,,,,,,,,,,,,,,,900,,,,,,,,,,,,,,,,,,,,,1,1,,,273.939,8,up,0.1874,,1,0.3,"[2,1,3]",0.412567837,stimuli/card_100_transparent.png,100,8,0,8,0,1,,,,,,,,,,
,,,,6642982c6b2b677499d5de75,B,2024-06-21_14h21.58.977,Slot Machine Game,2023.1.3,MacIntel,56.81818182,,,,,,,,,,,,,,,,,,,,,,,,,,,1000,,,,,,,,,,,,,,,,,,,,,1,1,,,275.9618,9,up,0.0333,,1,0.3,"[2,1,3]",0.713659702,stimuli/card_100_transparent.png,100,9,0,9,0,1,,,,,,,,,,
,,,,6642982c6b2b677499d5de75,B,2024-06-21_14h21.58.977,Slot Machine Game,2023.1.3,MacIntel,56.81818182,,,,,,,,,,,,,,,,,,,,,,,,,,,1010,,,,,,,,,,,,,,,,,,,,,1,1,,,277.8285,10,up,1.1182,,0.5,0.3,"[2,1,3]",0.136333069,stimuli/card_10_transparent.png,10,10,0,10,0,1,,,,,,,,,,
,,,,6642982c6b2b677499d5de75,B,2024-06-21_14h21.58.977,Slot Machine Game,2023.1.3,MacIntel,56.81818182,,,,,,,,,,,,,,,,,,,,,,,,,,,1110,,,,,,,,,,,,,,,,,,,,,1,1,,,280.2784,11,left,0.1212,,1,0.3,"[2,1,3]",0.147212202,stimuli/card_100_transparent.png,100,11,0,11,0,1,,,,,,,,,,
,,,,6642982c6b2b677499d5de75,B,2024-06-21_14h21.58.977,Slot Machine Game,2023.1.3,MacIntel,56.81818182,,,,,,,,,,,,,,,,,,,,,,,,,,,1120,,,,,,,,,,,,,,,,,,,,,1,1,,,282.227,12,left,0.2328,,1,0.3,"[2,3,1]",0.362457381,stimuli/card_10_transparent.png,10,12,0,12,0,1,,,,,,,,,,
,,,,6642982c6b2b677499d5de75,B,2024-06-21_14h21.58.977,Slot Machine Game,2023.1.3,MacIntel,56.81818182,,,,,,,,,,,,,,,,,,,,,,,,,,,1120,,,,,,,,,,,,,,,,,,,,,1,1,,,284.2431,13,up,0.097,,1.5,0.3,"[2,3,1]",0.637388355,stimuli/card_0_transparent.png,0,13,0,13,0,1,,,,,,,,,,
,,,,6642982c6b2b677499d5de75,B,2024-06-21_14h21.58.977,Slot Machine Game,2023.1.3,MacIntel,56.81818182,,,,,,,,,,,,,,,,,,,,,,,,,,,1130,,,,,,,,,,,,,,,,,,,,,1,1,,,286.6589,14,left,0.1619,,1.5,0.3,"[2,3,1]",0.763014141,stimuli/card_10_transparent.png,10,14,0,14,0,1,,,,,,,,,,
,,,,6642982c6b2b677499d5de75,B,2024-06-21_14h21.58.977,Slot Machine Game,2023.1.3,MacIntel,56.81818182,,,,,,,,,,,,,,,,,,,,,,,,,,,,,,,,,,,289.1312,,,,,,,,,,,,,,,,,,,,,,,,,,,,,,,,,[1130],0,0,0,0,1,,,,
,,,,6642982c6b2b677499d5de75,B,2024-06-21_14h21.58.977,Slot Machine Game,2023.1.3,MacIntel,56.81818182,,,,,,,,,,,,,,,,,,,,,,,,,,,0,,,,,,,,,,,,,,,,,,,,,2,2,"[6,15]","[[1,3,2],[3,2,1]]",294.1386,0,up,0.2189,,1.5,0.3,"[1,3,2]",0.314345767,stimuli/card_0_transparent.png,0,0,0,0,0,1,,,,,,,,,,
,,,,6642982c6b2b677499d5de75,B,2024-06-21_14h21.58.977,Slot Machine Game,2023.1.3,MacIntel,56.81818182,,,,,,,,,,,,,,,,,,,,,,,,,,,100,,,,,,,,,,,,,,,,,,,,,2,2,,,296.6715,1,right,0.0003,,0.5,0.3,"[1,3,2]",0.132050331,stimuli/card_100_transparent.png,100,1,0,1,0,1,,,,,,,,,,
,,,,6642982c6b2b677499d5de75,B,2024-06-21_14h21.58.977,Slot Machine Game,2023.1.3,MacIntel,56.81818182,,,,,,,,,,,,,,,,,,,,,,,,,,,110,,,,,,,,,,,,,,,,,,,,,2,2,,,297.9982,2,right,0.223,,1,0.3,"[1,3,2]",0.430319767,stimuli/card_10_transparent.png,10,2,0,2,0,1,,,,,,,,,,
,,,,6642982c6b2b677499d5de75,B,2024-06-21_14h21.58.977,Slot Machine Game,2023.1.3,MacIntel,56.81818182,,,,,,,,,,,,,,,,,,,,,,,,,,,120,,,,,,,,,,,,,,,,,,,,,2,2,,,300.0404,3,right,0.1837,,1.5,0.3,"[1,3,2]",0.769798804,stimuli/card_10_transparent.png,10,3,0,3,0,1,,,,,,,,,,
,,,,6642982c6b2b677499d5de75,B,2024-06-21_14h21.58.977,Slot Machine Game,2023.1.3,MacIntel,56.81818182,,,,,,,,,,,,,,,,,,,,,,,,,,,130,,,,,,,,,,,,,,,,,,,,,2,2,,,302.5419,4,right,0.1005,,1,0.3,"[1,3,2]",0.321186755,stimuli/card_10_transparent.png,10,4,0,4,0,1,,,,,,,,,,
,,,,6642982c6b2b677499d5de75,B,2024-06-21_14h21.58.977,Slot Machine Game,2023.1.3,MacIntel,56.81818182,,,,,,,,,,,,,,,,,,,,,,,,,,,130,,,,,,,,,,,,,,,,,,,,,2,2,,,304.4611,5,up,0.0666,,0.5,0.3,"[1,3,2]",0.730608342,stimuli/card_0_transparent.png,0,5,0,5,0,1,,,,,,,,,,
,,,,6642982c6b2b677499d5de75,B,2024-06-21_14h21.58.977,Slot Machine Game,2023.1.3,MacIntel,56.81818182,,,,,,,,,,,,,,,,,,,,,,,,,,,230,,,,,,,,,,,,,,,,,,,,,2,2,,,305.8434,6,left,0.062,,1.5,0.3,"[3,2,1]",0.038829365,stimuli/card_100_transparent.png,100,6,0,6,0,1,,,,,,,,,,
,,,,6642982c6b2b677499d5de75,B,2024-06-21_14h21.58.977,Slot Machine Game,2023.1.3,MacIntel,56.81818182,,,,,,,,,,,,,,,,,,,,,,,,,,,230,,,,,,,,,,,,,,,,,,,,,2,2,,,308.2242,7,left,0.0995,,0.5,0.3,"[3,2,1]",0.41726605,stimuli/card_0_transparent.png,0,7,0,7,0,1,,,,,,,,,,
,,,,6642982c6b2b677499d5de75,B,2024-06-21_14h21.58.977,Slot Machine Game,2023.1.3,MacIntel,56.81818182,,,,,,,,,,,,,,,,,,,,,,,,,,,240,,,,,,,,,,,,,,,,,,,,,2,2,,,309.639,8,right,0.1929,,1.5,0.3,"[3,2,1]",0.106636022,stimuli/card_10_transparent.png,10,8,0,8,0,1,,,,,,,,,,
,,,,6642982c6b2b677499d5de75,B,2024-06-21_14h21.58.977,Slot Machine Game,2023.1.3,MacIntel,56.81818182,,,,,,,,,,,,,,,,,,,,,,,,,,,250,,,,,,,,,,,,,,,,,,,,,2,2,,,312.1451,9,up,0.1485,,1,0.3,"[3,2,1]",0.53317331,stimuli/card_10_transparent.png,10,9,0,9,0,1,,,,,,,,,,
,,,,6642982c6b2b677499d5de75,B,2024-06-21_14h21.58.977,Slot Machine Game,2023.1.3,MacIntel,56.81818182,,,,,,,,,,,,,,,,,,,,,,,,,,,250,,,,,,,,,,,,,,,,,,,,,2,2,,,314.123,10,left,0.0985,,1.5,0.3,"[3,2,1]",0.355678203,stimuli/card_0_transparent.png,0,10,0,10,0,1,,,,,,,,,,
,,,,6642982c6b2b677499d5de75,B,2024-06-21_14h21.58.977,Slot Machine Game,2023.1.3,MacIntel,56.81818182,,,,,,,,,,,,,,,,,,,,,,,,,,,350,,,,,,,,,,,,,,,,,,,,,2,2,,,316.528,11,right,0.0964,,0.5,0.3,"[3,2,1]",0.764629198,stimuli/card_100_transparent.png,100,11,0,11,0,1,,,,,,,,,,
,,,,6642982c6b2b677499d5de75,B,2024-06-21_14h21.58.977,Slot Machine Game,2023.1.3,MacIntel,56.81818182,,,,,,,,,,,,,,,,,,,,,,,,,,,450,,,,,,,,,,,,,,,,,,,,,2,2,,,317.9379,12,right,0.1406,,0.5,0.3,"[3,2,1]",0.704823771,stimuli/card_100_transparent.png,100,12,0,12,0,1,,,,,,,,,,
,,,,6642982c6b2b677499d5de75,B,2024-06-21_14h21.58.977,Slot Machine Game,2023.1.3,MacIntel,56.81818182,,,,,,,,,,,,,,,,,,,,,,,,,,,550,,,,,,,,,,,,,,,,,,,,,2,2,,,319.4001,13,right,0.1379,,0.5,0.3,"[3,2,1]",0.938550519,stimuli/card_100_transparent.png,100,13,0,13,0,1,,,,,,,,,,
,,,,6642982c6b2b677499d5de75,B,2024-06-21_14h21.58.977,Slot Machine Game,2023.1.3,MacIntel,56.81818182,,,,,,,,,,,,,,,,,,,,,,,,,,,650,,,,,,,,,,,,,,,,,,,,,2,2,,,320.8407,14,right,0.0841,,1.5,0.3,"[3,2,1]",0.812434192,stimuli/card_100_transparent.png,100,14,0,14,0,1,,,,,,,,,,
,,,,6642982c6b2b677499d5de75,B,2024-06-21_14h21.58.977,Slot Machine Game,2023.1.3,MacIntel,56.81818182,,,,,,,,,,,,,,,,,,,,,,,,,,,,,,,,,,,323.2448,,,,,,,,,,,,,,,,,,,,,,,,,,,,,,,,,"[1130,650]",1,0,1,0,1,,,,
,,,,6642982c6b2b677499d5de75,B,2024-06-21_14h21.58.977,Slot Machine Game,2023.1.3,MacIntel,56.81818182,,,,,,,,,,,,,,,,,,,,,,,,,,,10,,,,,,,,,,,,,,,,,,,,,3,3,"[15,15]","[[3,1,2],[3,1,2]]",328.2471,0,right,0.4355,,0.5,0.3,"[3,1,2]",0.857458234,stimuli/card_10_transparent.png,10,0,0,0,0,1,,,,,,,,,,
,,,,6642982c6b2b677499d5de75,B,2024-06-21_14h21.58.977,Slot Machine Game,2023.1.3,MacIntel,56.81818182,,,,,,,,,,,,,,,,,,,,,,,,,,,110,,,,,,,,,,,,,,,,,,,,,3,3,,,330.0107,1,up,0.0996,,1,0.3,"[3,1,2]",0.673387771,stimuli/card_100_transparent.png,100,1,0,1,0,1,,,,,,,,,,
,,,,6642982c6b2b677499d5de75,B,2024-06-21_14h21.58.977,Slot Machine Game,2023.1.3,MacIntel,56.81818182,,,,,,,,,,,,,,,,,,,,,,,,,,,110,,,,,,,,,,,,,,,,,,,,,3,3,,,331.928,2,up,0.1459,,1,0.3,"[3,1,2]",0.027540416,stimuli/card_0_transparent.png,0,2,0,2,0,1,,,,,,,,,,
,,,,6642982c6b2b677499d5de75,B,2024-06-21_14h21.58.977,Slot Machine Game,2023.1.3,MacIntel,56.81818182,,,,,,,,,,,,,,,,,,,,,,,,,,,110,,,,,,,,,,,,,,,,,,,,,3,3,,,333.8901,3,left,0.0861,,0.5,0.3,"[3,1,2]",0.365150368,stimuli/card_0_transparent.png,0,3,0,3,0,1,,,,,,,,,,
,,,,6642982c6b2b677499d5de75,B,2024-06-21_14h21.58.977,Slot Machine Game,2023.1.3,MacIntel,56.81818182,,,,,,,,,,,,,,,,,,,,,,,,,,,120,,,,,,,,,,,,,,,,,,,,,3,3,,,335.2938,4,right,0.0998,,0.5,0.3,"[3,1,2]",0.721114153,stimuli/card_10_transparent.png,10,4,0,4,0,1,,,,,,,,,,
,,,,6642982c6b2b677499d5de75,B,2024-06-21_14h21.58.977,Slot Machine Game,2023.1.3,MacIntel,56.81818182,,,,,,,,,,,,,,,,,,,,,,,,,,,130,,,,,,,,,,,,,,,,,,,,,3,3,,,336.7074,5,right,0.1192,,1,0.3,"[3,1,2]",0.746973703,stimuli/card_10_transparent.png,10,5,0,5,0,1,,,,,,,,,,
,,,,6642982c6b2b677499d5de75,B,2024-06-21_14h21.58.977,Slot Machine Game,2023.1.3,MacIntel,56.81818182,,,,,,,,,,,,,,,,,,,,,,,,,,,140,,,,,,,,,,,,,,,,,,,,,3,3,,,338.662,6,right,0.0163,,0.5,0.3,"[3,1,2]",0.40980732,stimuli/card_10_transparent.png,10,6,0,6,0,1,,,,,,,,,,
,,,,6642982c6b2b677499d5de75,B,2024-06-21_14h21.58.977,Slot Machine Game,2023.1.3,MacIntel,56.81818182,,,,,,,,,,,,,,,,,,,,,,,,,,,140,,,,,,,,,,,,,,,,,,,,,3,3,,,340.0058,7,up,0.0675,,1.5,0.3,"[3,1,2]",0.014715872,stimuli/card_0_transparent.png,0,7,0,7,0,1,,,,,,,,,,
,,,,6642982c6b2b677499d5de75,B,2024-06-21_14h21.58.977,Slot Machine Game,2023.1.3,MacIntel,56.81818182,,,,,,,,,,,,,,,,,,,,,,,,,,,240,,,,,,,,,,,,,,,,,,,,,3,3,,,342.3766,8,up,0.9751,,1.5,0.3,"[3,1,2]",0.228816373,stimuli/card_100_transparent.png,100,8,0,8,0,1,,,,,,,,,,
,,,,6642982c6b2b677499d5de75,B,2024-06-21_14h21.58.977,Slot Machine Game,2023.1.3,MacIntel,56.81818182,,,,,,,,,,,,,,,,,,,,,,,,,,,340,,,,,,,,,,,,,,,,,,,,,3,3,,,345.6621,9,up,0.1159,,1,0.3,"[3,1,2]",0.764130071,stimuli/card_100_transparent.png,100,9,0,9,0,1,,,,,,,,,,
,,,,6642982c6b2b677499d5de75,B,2024-06-21_14h21.58.977,Slot Machine Game,2023.1.3,MacIntel,56.81818182,,,,,,,,,,,,,,,,,,,,,,,,,,,440,,,,,,,,,,,,,,,,,,,,,3,3,,,347.5964,10,up,0.033,,0.5,0.3,"[3,1,2]",0.370329348,stimuli/card_100_transparent.png,100,10,0,10,0,1,,,,,,,,,,
,,,,6642982c6b2b677499d5de75,B,2024-06-21_14h21.58.977,Slot Machine Game,2023.1.3,MacIntel,56.81818182,,,,,,,,,,,,,,,,,,,,,,,,,,,540,,,,,,,,,,,,,,,,,,,,,3,3,,,348.9454,11,up,0.0371,,0.5,0.3,"[3,1,2]",0.861460394,stimuli/card_100_transparent.png,100,11,0,11,0,1,,,,,,,,,,
,,,,6642982c6b2b677499d5de75,B,2024-06-21_14h21.58.977,Slot Machine Game,2023.1.3,MacIntel,56.81818182,,,,,,,,,,,,,,,,,,,,,,,,,,,640,,,,,,,,,,,,,,,,,,,,,3,3,,,350.2966,12,up,0.1967,,1.5,0.3,"[3,1,2]",0.345406448,stimuli/card_100_transparent.png,100,12,0,12,0,1,,,,,,,,,,
,,,,6642982c6b2b677499d5de75,B,2024-06-21_14h21.58.977,Slot Machine Game,2023.1.3,MacIntel,56.81818182,,,,,,,,,,,,,,,,,,,,,,,,,,,650,,,,,,,,,,,,,,,,,,,,,3,3,,,352.8224,13,up,0.0377,,0.5,0.3,"[3,1,2]",0.198563513,stimuli/card_10_transparent.png,10,13,0,13,0,1,,,,,,,,,,
,,,,6642982c6b2b677499d5de75,B,2024-06-21_14h21.58.977,Slot Machine Game,2023.1.3,MacIntel,56.81818182,,,,,,,,,,,,,,,,,,,,,,,,,,,750,,,,,,,,,,,,,,,,,,,,,3,3,,,354.1733,14,up,0.0983,,1,0.3,"[3,1,2]",0.292149655,stimuli/card_100_transparent.png,100,14,0,14,0,1,,,,,,,,,,
,,,,6642982c6b2b677499d5de75,B,2024-06-21_14h21.58.977,Slot Machine Game,2023.1.3,MacIntel,56.81818182,,,,,,,,,,,,,,,,,,,,,,,,,,,,,,,,,,,356.0721,,,,,,,,,,,,,,,,,,,,,,,,,,,,,,,,,"[1130,650,750]",2,0,2,0,1,,,,
,,,,6642982c6b2b677499d5de75,B,2024-06-21_14h21.58.977,Slot Machine Game,2023.1.3,MacIntel,56.81818182,,,,,,,,,,,,,,,,,,,,,,,,,,,10,,,,,,,,,,,,,,,,,,,,,4,4,"[7,15]","[[2,3,1],[1,2,3]]",361.0818,0,left,0.4826,,1.5,0.3,"[2,3,1]",0.435802884,stimuli/card_10_transparent.png,10,0,0,0,0,1,,,,,,,,,,
,,,,6642982c6b2b677499d5de75,B,2024-06-21_14h21.58.977,Slot Machine Game,2023.1.3,MacIntel,56.81818182,,,,,,,,,,,,,,,,,,,,,,,,,,,10,,,,,,,,,,,,,,,,,,,,,4,4,,,363.894,1,up,0.1394,,1.5,0.3,"[2,3,1]",0.34754548,stimuli/card_0_transparent.png,0,1,0,1,0,1,,,,,,,,,,
,,,,6642982c6b2b677499d5de75,B,2024-06-21_14h21.58.977,Slot Machine Game,2023.1.3,MacIntel,56.81818182,,,,,,,,,,,,,,,,,,,,,,,,,,,110,,,,,,,,,,,,,,,,,,,,,4,4,,,366.3574,2,right,0.033,,0.5,0.3,"[2,3,1]",0.844272557,stimuli/card_100_transparent.png,100,2,0,2,0,1,,,,,,,,,,
,,,,6642982c6b2b677499d5de75,B,2024-06-21_14h21.58.977,Slot Machine Game,2023.1.3,MacIntel,56.81818182,,,,,,,,,,,,,,,,,,,,,,,,,,,210,,,,,,,,,,,,,,,,,,,,,4,4,,,367.7094,3,right,0.1222,,0.5,0.3,"[2,3,1]",0.879065998,stimuli/card_100_transparent.png,100,3,0,3,0,1,,,,,,,,,,
,,,,6642982c6b2b677499d5de75,B,2024-06-21_14h21.58.977,Slot Machine Game,2023.1.3,MacIntel,56.81818182,,,,,,,,,,,,,,,,,,,,,,,,,,,310,,,,,,,,,,,,,,,,,,,,,4,4,,,369.1422,4,right,1.2011,,1.5,0.3,"[2,3,1]",0.690945233,stimuli/card_100_transparent.png,100,4,0,4,0,1,,,,,,,,,,
,,,,6642982c6b2b677499d5de75,B,2024-06-21_14h21.58.977,Slot Machine Game,2023.1.3,MacIntel,56.81818182,,,,,,,,,,,,,,,,,,,,,,,,,,,310,,,,,,,,,,,,,,,,,,,,,4,4,,,372.6576,5,right,0.1691,,1,0.3,"[2,3,1]",0.078829266,stimuli/card_0_transparent.png,0,5,0,5,0,1,,,,,,,,,,
,,,,6642982c6b2b677499d5de75,B,2024-06-21_14h21.58.977,Slot Machine Game,2023.1.3,MacIntel,56.81818182,,,,,,,,,,,,,,,,,,,,,,,,,,,320,,,,,,,,,,,,,,,,,,,,,4,4,,,374.6451,6,up,0.2192,,1.5,0.3,"[2,3,1]",0.188946947,stimuli/card_10_transparent.png,10,6,0,6,0,1,,,,,,,,,,
,,,,6642982c6b2b677499d5de75,B,2024-06-21_14h21.58.977,Slot Machine Game,2023.1.3,MacIntel,56.81818182,,,,,,,,,,,,,,,,,,,,,,,,,,,330,,,,,,,,,,,,,,,,,,,,,4,4,,,377.1785,7,left,1.0454,,1,0.3,"[1,2,3]",0.123898332,stimuli/card_10_transparent.png,10,7,0,7,0,1,,,,,,,,,,
,,,,6642982c6b2b677499d5de75,B,2024-06-21_14h21.58.977,Slot Machine Game,2023.1.3,MacIntel,56.81818182,,,,,,,,,,,,,,,,,,,,,,,,,,,330,,,,,,,,,,,,,,,,,,,,,4,4,,,380.0296,8,right,0.1882,,1.5,0.3,"[1,2,3]",0.903821729,stimuli/card_0_transparent.png,0,8,0,8,0,1,,,,,,,,,,
,,,,6642982c6b2b677499d5de75,B,2024-06-21_14h21.58.977,Slot Machine Game,2023.1.3,MacIntel,56.81818182,,,,,,,,,,,,,,,,,,,,,,,,,,,340,,,,,,,,,,,,,,,,,,,,,4,4,,,382.545,9,up,0.0754,,0.5,0.3,"[1,2,3]",0.541133579,stimuli/card_10_transparent.png,10,9,0,9,0,1,,,,,,,,,,
,,,,6642982c6b2b677499d5de75,B,2024-06-21_14h21.58.977,Slot Machine Game,2023.1.3,MacIntel,56.81818182,,,,,,,,,,,,,,,,,,,,,,,,,,,350,,,,,,,,,,,,,,,,,,,,,4,4,,,383.9462,10,up,0.0639,,1.5,0.3,"[1,2,3]",0.78159272,stimuli/card_10_transparent.png,10,10,0,10,0,1,,,,,,,,,,
,,,,6642982c6b2b677499d5de75,B,2024-06-21_14h21.58.977,Slot Machine Game,2023.1.3,MacIntel,56.81818182,,,,,,,,,,,,,,,,,,,,,,,,,,,360,,,,,,,,,,,,,,,,,,,,,4,4,,,386.3222,11,right,0.1511,,1,0.3,"[1,2,3]",0.159963305,stimuli/card_10_transparent.png,10,11,0,11,0,1,,,,,,,,,,
,,,,6642982c6b2b677499d5de75,B,2024-06-21_14h21.58.977,Slot Machine Game,2023.1.3,MacIntel,56.81818182,,,,,,,,,,,,,,,,,,,,,,,,,,,360,,,,,,,,,,,,,,,,,,,,,4,4,,,388.2954,12,left,0.1998,,0.5,0.3,"[1,2,3]",0.047602654,stimuli/card_0_transparent.png,0,12,0,12,0,1,,,,,,,,,,
,,,,6642982c6b2b677499d5de75,B,2024-06-21_14h21.58.977,Slot Machine Game,2023.1.3,MacIntel,56.81818182,,,,,,,,,,,,,,,,,,,,,,,,,,,370,,,,,,,,,,,,,,,,,,,,,4,4,,,389.8106,13,up,1.2309,,1.5,0.3,"[1,2,3]",0.343786082,stimuli/card_10_transparent.png,10,13,0,13,0,1,,,,,,,,,,
,,,,6642982c6b2b677499d5de75,B,2024-06-21_14h21.58.977,Slot Machine Game,2023.1.3,MacIntel,56.81818182,,,,,,,,,,,,,,,,,,,,,,,,,,,370,,,,,,,,,,,,,,,,,,,,,4,4,,,393.3794,14,right,0.2547,,1,0.3,"[1,2,3]",0.971660497,stimuli/card_0_transparent.png,0,14,0,14,0,1,,,,,,,,,,
,,,,6642982c6b2b677499d5de75,B,2024-06-21_14h21.58.977,Slot Machine Game,2023.1.3,MacIntel,56.81818182,,,,,,,,,,,,,,,,,,,,,,,,,,,,,,,,,,,395.4581,,,,,,,,,,,,,,,,,,,,,,,,,,,,,,,,,"[1130,650,750,370]",3,0,3,0,1,,,,
,,,,6642982c6b2b677499d5de75,B,2024-06-21_14h21.58.977,Slot Machine Game,2023.1.3,MacIntel,56.81818182,,,,,,,,,,,,,,,,,,,,,,,,,,,100,,,,,,,,,,,,,,,,,,,,,5,5,"[5,15]","[[1,2,3],[3,1,2]]",400.4685,0,left,0.2849,,0.5,0.3,"[1,2,3]",0.440346556,stimuli/card_100_transparent.png,100,0,0,0,0,1,,,,,,,,,,
,,,,6642982c6b2b677499d5de75,B,2024-06-21_14h21.58.977,Slot Machine Game,2023.1.3,MacIntel,56.81818182,,,,,,,,,,,,,,,,,,,,,,,,,,,200,,,,,,,,,,,,,,,,,,,,,5,5,,,402.0796,1,left,0.2341,,1,0.3,"[1,2,3]",0.842120385,stimuli/card_100_transparent.png,100,1,0,1,0,1,,,,,,,,,,
,,,,6642982c6b2b677499d5de75,B,2024-06-21_14h21.58.977,Slot Machine Game,2023.1.3,MacIntel,56.81818182,,,,,,,,,,,,,,,,,,,,,,,,,,,200,,,,,,,,,,,,,,,,,,,,,5,5,,,404.1299,2,left,0.23,,1,0.3,"[1,2,3]",0.062386072,stimuli/card_0_transparent.png,0,2,0,2,0,1,,,,,,,,,,
,,,,6642982c6b2b677499d5de75,B,2024-06-21_14h21.58.977,Slot Machine Game,2023.1.3,MacIntel,56.81818182,,,,,,,,,,,,,,,,,,,,,,,,,,,210,,,,,,,,,,,,,,,,,,,,,5,5,,,406.1729,3,up,0.2543,,0.5,0.3,"[1,2,3]",0.86995576,stimuli/card_10_transparent.png,10,3,0,3,0,1,,,,,,,,,,
,,,,6642982c6b2b677499d5de75,B,2024-06-21_14h21.58.977,Slot Machine Game,2023.1.3,MacIntel,56.81818182,,,,,,,,,,,,,,,,,,,,,,,,,,,220,,,,,,,,,,,,,,,,,,,,,5,5,,,407.7421,4,up,0.1975,,0.5,0.3,"[1,2,3]",0.681776319,stimuli/card_10_transparent.png,10,4,0,4,0,1,,,,,,,,,,
,,,,6642982c6b2b677499d5de75,B,2024-06-21_14h21.58.977,Slot Machine Game,2023.1.3,MacIntel,56.81818182,,,,,,,,,,,,,,,,,,,,,,,,,,,230,,,,,,,,,,,,,,,,,,,,,5,5,,,409.2632,5,right,1.727,,1.5,0.3,"[3,1,2]",0.609237585,stimuli/card_10_transparent.png,10,5,0,5,0,1,,,,,,,,,,
,,,,6642982c6b2b677499d5de75,B,2024-06-21_14h21.58.977,Slot Machine Game,2023.1.3,MacIntel,56.81818182,,,,,,,,,,,,,,,,,,,,,,,,,,,230,,,,,,,,,,,,,,,,,,,,,5,5,,,413.3111,6,up,0.1808,,1.5,0.3,"[3,1,2]",0.049808425,stimuli/card_0_transparent.png,0,6,0,6,0,1,,,,,,,,,,
,,,,6642982c6b2b677499d5de75,B,2024-06-21_14h21.58.977,Slot Machine Game,2023.1.3,MacIntel,56.81818182,,,,,,,,,,,,,,,,,,,,,,,,,,,230,,,,,,,,,,,,,,,,,,,,,5,5,,,415.7895,7,left,0.0342,,1.5,0.3,"[3,1,2]",0.842133215,stimuli/card_0_transparent.png,0,7,0,7,0,1,,,,,,,,,,
,,,,6642982c6b2b677499d5de75,B,2024-06-21_14h21.58.977,Slot Machine Game,2023.1.3,MacIntel,56.81818182,,,,,,,,,,,,,,,,,,,,,,,,,,,240,,,,,,,,,,,,,,,,,,,,,5,5,,,418.141,8,right,0.234,,1.5,0.3,"[3,1,2]",0.92714438,stimuli/card_10_transparent.png,10,8,0,8,0,1,,,,,,,,,,
,,,,6642982c6b2b677499d5de75,B,2024-06-21_14h21.58.977,Slot Machine Game,2023.1.3,MacIntel,56.81818182,,,,,,,,,,,,,,,,,,,,,,,,,,,250,,,,,,,,,,,,,,,,,,,,,5,5,,,420.6797,9,right,0.137,,1.5,0.3,"[3,1,2]",0.944367024,stimuli/card_10_transparent.png,10,9,0,9,0,1,,,,,,,,,,
,,,,6642982c6b2b677499d5de75,B,2024-06-21_14h21.58.977,Slot Machine Game,2023.1.3,MacIntel,56.81818182,,,,,,,,,,,,,,,,,,,,,,,,,,,250,,,,,,,,,,,,,,,,,,,,,5,5,,,423.1448,10,left,0.1374,,1.5,0.3,"[3,1,2]",0.541746939,stimuli/card_0_transparent.png,0,10,0,10,0,1,,,,,,,,,,
,,,,6642982c6b2b677499d5de75,B,2024-06-21_14h21.58.977,Slot Machine Game,2023.1.3,MacIntel,56.81818182,,,,,,,,,,,,,,,,,,,,,,,,,,,260,,,,,,,,,,,,,,,,,,,,,5,5,,,425.5949,11,right,0.2229,,1,0.3,"[3,1,2]",0.244307854,stimuli/card_10_transparent.png,10,11,0,11,0,1,,,,,,,,,,
,,,,6642982c6b2b677499d5de75,B,2024-06-21_14h21.58.977,Slot Machine Game,2023.1.3,MacIntel,56.81818182,,,,,,,,,,,,,,,,,,,,,,,,,,,270,,,,,,,,,,,,,,,,,,,,,5,5,,,427.6453,12,right,0.0493,,1.5,0.3,"[3,1,2]",0.896197818,stimuli/card_10_transparent.png,10,12,0,12,0,1,,,,,,,,,,
,,,,6642982c6b2b677499d5de75,B,2024-06-21_14h21.58.977,Slot Machine Game,2023.1.3,MacIntel,56.81818182,,,,,,,,,,,,,,,,,,,,,,,,,,,370,,,,,,,,,,,,,,,,,,,,,5,5,,,430.0143,13,up,0.0674,,1.5,0.3,"[3,1,2]",0.838433607,stimuli/card_100_transparent.png,100,13,0,13,0,1,,,,,,,,,,
,,,,6642982c6b2b677499d5de75,B,2024-06-21_14h21.58.977,Slot Machine Game,2023.1.3,MacIntel,56.81818182,,,,,,,,,,,,,,,,,,,,,,,,,,,470,,,,,,,,,,,,,,,,,,,,,5,5,,,432.4126,14,up,0.1338,,1.5,0.3,"[3,1,2]",0.489796448,stimuli/card_100_transparent.png,100,14,0,14,0,1,,,,,,,,,,
,,,,6642982c6b2b677499d5de75,B,2024-06-21_14h21.58.977,Slot Machine Game,2023.1.3,MacIntel,56.81818182,,,,,,,,,,,,,,,,,,,,,,,,,,,,,,,,,,,434.8751,,,,,,,,,,,,,,,,,,,,,,,,,,,,,,,,,"[1130,650,750,370,470]",4,0,4,0,1,,,,
,,,,6642982c6b2b677499d5de75,B,2024-06-21_14h21.58.977,Slot Machine Game,2023.1.3,MacIntel,56.81818182,,,,,,,,,,,,,,,,,,,,,,,,,,,0,,,,,,,,,,,,,,,,,,,,,6,6,"[4,10,15]","[[2,3,1],[1,3,2],[3,2,1]]",439.89,0,up,0.7507,,1.5,0.3,"[2,3,1]",0.351752591,stimuli/card_0_transparent.png,0,0,0,0,0,1,,,,,,,,,,
,,,,6642982c6b2b677499d5de75,B,2024-06-21_14h21.58.977,Slot Machine Game,2023.1.3,MacIntel,56.81818182,,,,,,,,,,,,,,,,,,,,,,,,,,,100,,,,,,,,,,,,,,,,,,,,,6,6,,,442.961,1,right,0.1838,,1.5,0.3,"[2,3,1]",0.228216372,stimuli/card_100_transparent.png,100,1,0,1,0,1,,,,,,,,,,
,,,,6642982c6b2b677499d5de75,B,2024-06-21_14h21.58.977,Slot Machine Game,2023.1.3,MacIntel,56.81818182,,,,,,,,,,,,,,,,,,,,,,,,,,,200,,,,,,,,,,,,,,,,,,,,,6,6,,,445.4783,2,right,0.1674,,1,0.3,"[2,3,1]",0.613160253,stimuli/card_100_transparent.png,100,2,0,2,0,1,,,,,,,,,,
,,,,6642982c6b2b677499d5de75,B,2024-06-21_14h21.58.977,Slot Machine Game,2023.1.3,MacIntel,56.81818182,,,,,,,,,,,,,,,,,,,,,,,,,,,300,,,,,,,,,,,,,,,,,,,,,6,6,,,447.4623,3,right,0.051,,1,0.3,"[2,3,1]",0.817793838,stimuli/card_100_transparent.png,100,3,0,3,0,1,,,,,,,,,,
,,,,6642982c6b2b677499d5de75,B,2024-06-21_14h21.58.977,Slot Machine Game,2023.1.3,MacIntel,56.81818182,,,,,,,,,,,,,,,,,,,,,,,,,,,310,,,,,,,,,,,,,,,,,,,,,6,6,,,449.3413,4,right,1.2048,,1.5,0.3,"[1,3,2]",0.281048218,stimuli/card_10_transparent.png,10,4,0,4,0,1,,,,,,,,,,
,,,,6642982c6b2b677499d5de75,B,2024-06-21_14h21.58.977,Slot Machine Game,2023.1.3,MacIntel,56.81818182,,,,,,,,,,,,,,,,,,,,,,,,,,,320,,,,,,,,,,,,,,,,,,,,,6,6,,,452.8585,5,right,0.1607,,1,0.3,"[1,3,2]",0.557897993,stimuli/card_10_transparent.png,10,5,0,5,0,1,,,,,,,,,,
,,,,6642982c6b2b677499d5de75,B,2024-06-21_14h21.58.977,Slot Machine Game,2023.1.3,MacIntel,56.81818182,,,,,,,,,,,,,,,,,,,,,,,,,,,330,,,,,,,,,,,,,,,,,,,,,6,6,,,454.8247,6,right,0.1335,,0.5,0.3,"[1,3,2]",0.277968739,stimuli/card_10_transparent.png,10,6,0,6,0,1,,,,,,,,,,
,,,,6642982c6b2b677499d5de75,B,2024-06-21_14h21.58.977,Slot Machine Game,2023.1.3,MacIntel,56.81818182,,,,,,,,,,,,,,,,,,,,,,,,,,,340,,,,,,,,,,,,,,,,,,,,,6,6,,,456.2963,7,right,0.0208,,0.5,0.3,"[1,3,2]",0.967725501,stimuli/card_10_transparent.png,10,7,0,7,0,1,,,,,,,,,,
,,,,6642982c6b2b677499d5de75,B,2024-06-21_14h21.58.977,Slot Machine Game,2023.1.3,MacIntel,56.81818182,,,,,,,,,,,,,,,,,,,,,,,,,,,350,,,,,,,,,,,,,,,,,,,,,6,6,,,457.6419,8,right,0.1507,,1,0.3,"[1,3,2]",0.400803695,stimuli/card_10_transparent.png,10,8,0,8,0,1,,,,,,,,,,
,,,,6642982c6b2b677499d5de75,B,2024-06-21_14h21.58.977,Slot Machine Game,2023.1.3,MacIntel,56.81818182,,,,,,,,,,,,,,,,,,,,,,,,,,,360,,,,,,,,,,,,,,,,,,,,,6,6,,,459.595,9,up,0.5197,,1,0.3,"[1,3,2]",0.182489738,stimuli/card_10_transparent.png,10,9,0,9,0,1,,,,,,,,,,
,,,,6642982c6b2b677499d5de75,B,2024-06-21_14h21.58.977,Slot Machine Game,2023.1.3,MacIntel,56.81818182,,,,,,,,,,,,,,,,,,,,,,,,,,,370,,,,,,,,,,,,,,,,,,,,,6,6,,,461.9404,10,up,0.0665,,0.5,0.3,"[3,2,1]",0.954696054,stimuli/card_10_transparent.png,10,10,0,10,0,1,,,,,,,,,,
,,,,6642982c6b2b677499d5de75,B,2024-06-21_14h21.58.977,Slot Machine Game,2023.1.3,MacIntel,56.81818182,,,,,,,,,,,,,,,,,,,,,,,,,,,380,,,,,,,,,,,,,,,,,,,,,6,6,,,463.3118,11,up,0.02,,1.5,0.3,"[3,2,1]",0.319317995,stimuli/card_10_transparent.png,10,11,0,11,0,1,,,,,,,,,,
,,,,6642982c6b2b677499d5de75,B,2024-06-21_14h21.58.977,Slot Machine Game,2023.1.3,MacIntel,56.81818182,,,,,,,,,,,,,,,,,,,,,,,,,,,380,,,,,,,,,,,,,,,,,,,,,6,6,,,465.6459,12,left,0.0333,,1,0.3,"[3,2,1]",0.83937751,stimuli/card_0_transparent.png,0,12,0,12,0,1,,,,,,,,,,
,,,,6642982c6b2b677499d5de75,B,2024-06-21_14h21.58.977,Slot Machine Game,2023.1.3,MacIntel,56.81818182,,,,,,,,,,,,,,,,,,,,,,,,,,,480,,,,,,,,,,,,,,,,,,,,,6,6,,,467.5067,13,right,0.1066,,1.5,0.3,"[3,2,1]",0.48114899,stimuli/card_100_transparent.png,100,13,0,13,0,1,,,,,,,,,,
,,,,6642982c6b2b677499d5de75,B,2024-06-21_14h21.58.977,Slot Machine Game,2023.1.3,MacIntel,56.81818182,,,,,,,,,,,,,,,,,,,,,,,,,,,580,,,,,,,,,,,,,,,,,,,,,6,6,,,469.9289,14,right,0.1364,,0.5,0.3,"[3,2,1]",0.592575192,stimuli/card_100_transparent.png,100,14,0,14,0,1,,,,,,,,,,
,,,,6642982c6b2b677499d5de75,B,2024-06-21_14h21.58.977,Slot Machine Game,2023.1.3,MacIntel,56.81818182,,,,,,,,,,,,,,,,,,,,,,,,,,,,,,,,,,,471.3917,,,,,,,,,,,,,,,,,,,,,,,,,,,,,,,,,"[1130,650,750,370,470,580]",5,0,5,0,1,,,,
,,,,6642982c6b2b677499d5de75,B,2024-06-21_14h21.58.977,Slot Machine Game,2023.1.3,MacIntel,56.81818182,,,,,,,,,,,,,,,,,,,,,,,,,,,10,,,,,,,,,,,,,,,,,,,,,7,7,"[9,15]","[[1,3,2],[2,3,1]]",476.4069,0,right,0.0004,,1.5,0.3,"[1,3,2]",0.961114506,stimuli/card_10_transparent.png,10,0,0,0,0,1,,,,,,,,,,
,,,,6642982c6b2b677499d5de75,B,2024-06-21_14h21.58.977,Slot Machine Game,2023.1.3,MacIntel,56.81818182,,,,,,,,,,,,,,,,,,,,,,,,,,,10,,,,,,,,,,,,,,,,,,,,,7,7,,,478.7263,1,up,0.1115,,0.5,0.3,"[1,3,2]",0.876270912,stimuli/card_0_transparent.png,0,1,0,1,0,1,,,,,,,,,,
,,,,6642982c6b2b677499d5de75,B,2024-06-21_14h21.58.977,Slot Machine Game,2023.1.3,MacIntel,56.81818182,,,,,,,,,,,,,,,,,,,,,,,,,,,110,,,,,,,,,,,,,,,,,,,,,7,7,,,480.1557,2,left,0.0756,,0.5,0.3,"[1,3,2]",0.958927304,stimuli/card_100_transparent.png,100,2,0,2,0,1,,,,,,,,,,
,,,,6642982c6b2b677499d5de75,B,2024-06-21_14h21.58.977,Slot Machine Game,2023.1.3,MacIntel,56.81818182,,,,,,,,,,,,,,,,,,,,,,,,,,,210,,,,,,,,,,,,,,,,,,,,,7,7,,,481.5587,3,left,0.0165,,1,0.3,"[1,3,2]",0.693084338,stimuli/card_100_transparent.png,100,3,0,3,0,1,,,,,,,,,,
,,,,6642982c6b2b677499d5de75,B,2024-06-21_14h21.58.977,Slot Machine Game,2023.1.3,MacIntel,56.81818182,,,,,,,,,,,,,,,,,,,,,,,,,,,310,,,,,,,,,,,,,,,,,,,,,7,7,,,483.3951,4,left,0.1022,,0.5,0.3,"[1,3,2]",0.398054456,stimuli/card_100_transparent.png,100,4,0,4,0,1,,,,,,,,,,
,,,,6642982c6b2b677499d5de75,B,2024-06-21_14h21.58.977,Slot Machine Game,2023.1.3,MacIntel,56.81818182,,,,,,,,,,,,,,,,,,,,,,,,,,,410,,,,,,,,,,,,,,,,,,,,,7,7,,,484.7964,5,left,0.1118,,0.5,0.3,"[1,3,2]",0.207411565,stimuli/card_100_transparent.png,100,5,0,5,0,1,,,,,,,,,,
,,,,6642982c6b2b677499d5de75,B,2024-06-21_14h21.58.977,Slot Machine Game,2023.1.3,MacIntel,56.81818182,,,,,,,,,,,,,,,,,,,,,,,,,,,510,,,,,,,,,,,,,,,,,,,,,7,7,,,486.231,6,left,0.0995,,1,0.3,"[1,3,2]",0.364248275,stimuli/card_100_transparent.png,100,6,0,6,0,1,,,,,,,,,,
,,,,6642982c6b2b677499d5de75,B,2024-06-21_14h21.58.977,Slot Machine Game,2023.1.3,MacIntel,56.81818182,,,,,,,,,,,,,,,,,,,,,,,,,,,610,,,,,,,,,,,,,,,,,,,,,7,7,,,488.1463,7,left,0.0004,,0.5,0.3,"[1,3,2]",0.223284789,stimuli/card_100_transparent.png,100,7,0,7,0,1,,,,,,,,,,
,,,,6642982c6b2b677499d5de75,B,2024-06-21_14h21.58.977,Slot Machine Game,2023.1.3,MacIntel,56.81818182,,,,,,,,,,,,,,,,,,,,,,,,,,,620,,,,,,,,,,,,,,,,,,,,,7,7,,,489.4732,8,left,0.0175,,1.5,0.3,"[1,3,2]",0.156542502,stimuli/card_10_transparent.png,10,8,0,8,0,1,,,,,,,,,,
,,,,6642982c6b2b677499d5de75,B,2024-06-21_14h21.58.977,Slot Machine Game,2023.1.3,MacIntel,56.81818182,,,,,,,,,,,,,,,,,,,,,,,,,,,620,,,,,,,,,,,,,,,,,,,,,7,7,,,491.8134,9,up,0.0801,,1,0.3,"[2,3,1]",0.470112181,stimuli/card_0_transparent.png,0,9,0,9,0,1,,,,,,,,,,
,,,,6642982c6b2b677499d5de75,B,2024-06-21_14h21.58.977,Slot Machine Game,2023.1.3,MacIntel,56.81818182,,,,,,,,,,,,,,,,,,,,,,,,,,,620,,,,,,,,,,,,,,,,,,,,,7,7,,,493.7183,10,right,0.1002,,0.5,0.3,"[2,3,1]",0.078041969,stimuli/card_0_transparent.png,0,10,0,10,0,1,,,,,,,,,,
,,,,6642982c6b2b677499d5de75,B,2024-06-21_14h21.58.977,Slot Machine Game,2023.1.3,MacIntel,56.81818182,,,,,,,,,,,,,,,,,,,,,,,,,,,720,,,,,,,,,,,,,,,,,,,,,7,7,,,495.1281,11,right,0.1484,,0.5,0.3,"[2,3,1]",0.534253901,stimuli/card_100_transparent.png,100,11,0,11,0,1,,,,,,,,,,
,,,,6642982c6b2b677499d5de75,B,2024-06-21_14h21.58.977,Slot Machine Game,2023.1.3,MacIntel,56.81818182,,,,,,,,,,,,,,,,,,,,,,,,,,,820,,,,,,,,,,,,,,,,,,,,,7,7,,,496.596,12,right,0.077,,0.5,0.3,"[2,3,1]",0.819081338,stimuli/card_100_transparent.png,100,12,0,12,0,1,,,,,,,,,,
,,,,6642982c6b2b677499d5de75,B,2024-06-21_14h21.58.977,Slot Machine Game,2023.1.3,MacIntel,56.81818182,,,,,,,,,,,,,,,,,,,,,,,,,,,920,,,,,,,,,,,,,,,,,,,,,7,7,,,497.989,13,right,0.099,,1.5,0.3,"[2,3,1]",0.772216558,stimuli/card_100_transparent.png,100,13,0,13,0,1,,,,,,,,,,
,,,,6642982c6b2b677499d5de75,B,2024-06-21_14h21.58.977,Slot Machine Game,2023.1.3,MacIntel,56.81818182,,,,,,,,,,,,,,,,,,,,,,,,,,,920,,,,,,,,,,,,,,,,,,,,,7,7,,,500.4113,14,right,0.1003,,1,0.3,"[2,3,1]",0.006701875,stimuli/card_0_transparent.png,0,14,0,14,0,1,,,,,,,,,,
,,,,6642982c6b2b677499d5de75,B,2024-06-21_14h21.58.977,Slot Machine Game,2023.1.3,MacIntel,56.81818182,,,,,,,,,,,,,,,,,,,,,,,,,,,,,,,,,,,502.3431,,,,,,,,,,,,,,,,,,,,,,,,,,,,,,,,,"[1130,650,750,370,470,580,920]",6,0,6,0,1,,,,
,,,,6642982c6b2b677499d5de75,B,2024-06-21_14h21.58.977,Slot Machine Game,2023.1.3,MacIntel,56.81818182,,,,,,,,,,,,,,,,,,,,,,,,,,,0,,,,,,,,,,,,,,,,,,,,,8,8,"[11,15]","[[2,1,3],[1,2,3]]",507.3551,0,right,0.1615,,1.5,0.3,"[2,1,3]",0.893431905,stimuli/card_0_transparent.png,0,0,0,0,0,1,,,,,,,,,,
,,,,6642982c6b2b677499d5de75,B,2024-06-21_14h21.58.977,Slot Machine Game,2023.1.3,MacIntel,56.81818182,,,,,,,,,,,,,,,,,,,,,,,,,,,0,,,,,,,,,,,,,,,,,,,,,8,8,,,509.8354,1,right,0.1046,,1,0.3,"[2,1,3]",0.740590069,stimuli/card_0_transparent.png,0,1,0,1,0,1,,,,,,,,,,
,,,,6642982c6b2b677499d5de75,B,2024-06-21_14h21.58.977,Slot Machine Game,2023.1.3,MacIntel,56.81818182,,,,,,,,,,,,,,,,,,,,,,,,,,,100,,,,,,,,,,,,,,,,,,,,,8,8,,,511.7617,2,up,0.0487,,0.5,0.3,"[2,1,3]",0.273869835,stimuli/card_100_transparent.png,100,2,0,2,0,1,,,,,,,,,,
,,,,6642982c6b2b677499d5de75,B,2024-06-21_14h21.58.977,Slot Machine Game,2023.1.3,MacIntel,56.81818182,,,,,,,,,,,,,,,,,,,,,,,,,,,110,,,,,,,,,,,,,,,,,,,,,8,8,,,513.1368,3,up,0.052,,1,0.3,"[2,1,3]",0.164207949,stimuli/card_10_transparent.png,10,3,0,3,0,1,,,,,,,,,,
,,,,6642982c6b2b677499d5de75,B,2024-06-21_14h21.58.977,Slot Machine Game,2023.1.3,MacIntel,56.81818182,,,,,,,,,,,,,,,,,,,,,,,,,,,120,,,,,,,,,,,,,,,,,,,,,8,8,,,515.0115,4,left,0.0151,,1,0.3,"[2,1,3]",0.726805952,stimuli/card_10_transparent.png,10,4,0,4,0,1,,,,,,,,,,
,,,,6642982c6b2b677499d5de75,B,2024-06-21_14h21.58.977,Slot Machine Game,2023.1.3,MacIntel,56.81818182,,,,,,,,,,,,,,,,,,,,,,,,,,,220,,,,,,,,,,,,,,,,,,,,,8,8,,,516.8457,5,up,0.128,,1,0.3,"[2,1,3]",0.958072288,stimuli/card_100_transparent.png,100,5,0,5,0,1,,,,,,,,,,
,,,,6642982c6b2b677499d5de75,B,2024-06-21_14h21.58.977,Slot Machine Game,2023.1.3,MacIntel,56.81818182,,,,,,,,,,,,,,,,,,,,,,,,,,,320,,,,,,,,,,,,,,,,,,,,,8,8,,,518.7744,6,up,0.0324,,0.5,0.3,"[2,1,3]",0.898427259,stimuli/card_100_transparent.png,100,6,0,6,0,1,,,,,,,,,,
,,,,6642982c6b2b677499d5de75,B,2024-06-21_14h21.58.977,Slot Machine Game,2023.1.3,MacIntel,56.81818182,,,,,,,,,,,,,,,,,,,,,,,,,,,420,,,,,,,,,,,,,,,,,,,,,8,8,,,520.1209,7,up,0.1501,,0.5,0.3,"[2,1,3]",0.320164519,stimuli/card_100_transparent.png,100,7,0,7,0,1,,,,,,,,,,
,,,,6642982c6b2b677499d5de75,B,2024-06-21_14h21.58.977,Slot Machine Game,2023.1.3,MacIntel,56.81818182,,,,,,,,,,,,,,,,,,,,,,,,,,,520,,,,,,,,,,,,,,,,,,,,,8,8,,,521.5936,8,up,0.1192,,0.5,0.3,"[2,1,3]",0.731341704,stimuli/card_100_transparent.png,100,8,0,8,0,1,,,,,,,,,,
,,,,6642982c6b2b677499d5de75,B,2024-06-21_14h21.58.977,Slot Machine Game,2023.1.3,MacIntel,56.81818182,,,,,,,,,,,,,,,,,,,,,,,,,,,520,,,,,,,,,,,,,,,,,,,,,8,8,,,523.0202,9,up,0.0739,,0.5,0.3,"[2,1,3]",0.006263847,stimuli/card_0_transparent.png,0,9,0,9,0,1,,,,,,,,,,
,,,,6642982c6b2b677499d5de75,B,2024-06-21_14h21.58.977,Slot Machine Game,2023.1.3,MacIntel,56.81818182,,,,,,,,,,,,,,,,,,,,,,,,,,,530,,,,,,,,,,,,,,,,,,,,,8,8,,,524.4112,10,left,0.1144,,1.5,0.3,"[2,1,3]",0.782099782,stimuli/card_10_transparent.png,10,10,0,10,0,1,,,,,,,,,,
,,,,6642982c6b2b677499d5de75,B,2024-06-21_14h21.58.977,Slot Machine Game,2023.1.3,MacIntel,56.81818182,,,,,,,,,,,,,,,,,,,,,,,,,,,630,,,,,,,,,,,,,,,,,,,,,8,8,,,526.8304,11,left,0.1787,,1,0.3,"[1,2,3]",0.721364837,stimuli/card_100_transparent.png,100,11,0,11,0,1,,,,,,,,,,
,,,,6642982c6b2b677499d5de75,B,2024-06-21_14h21.58.977,Slot Machine Game,2023.1.3,MacIntel,56.81818182,,,,,,,,,,,,,,,,,,,,,,,,,,,730,,,,,,,,,,,,,,,,,,,,,8,8,,,528.8413,12,left,0.0127,,1.5,0.3,"[1,2,3]",0.852086645,stimuli/card_100_transparent.png,100,12,0,12,0,1,,,,,,,,,,
,,,,6642982c6b2b677499d5de75,B,2024-06-21_14h21.58.977,Slot Machine Game,2023.1.3,MacIntel,56.81818182,,,,,,,,,,,,,,,,,,,,,,,,,,,740,,,,,,,,,,,,,,,,,,,,,8,8,,,531.1786,13,left,0.1274,,0.5,0.3,"[1,2,3]",0.165846205,stimuli/card_10_transparent.png,10,13,0,13,0,1,,,,,,,,,,
,,,,6642982c6b2b677499d5de75,B,2024-06-21_14h21.58.977,Slot Machine Game,2023.1.3,MacIntel,56.81818182,,,,,,,,,,,,,,,,,,,,,,,,,,,740,,,,,,,,,,,,,,,,,,,,,8,8,,,532.6291,14,left,0.0328,,1,0.3,"[1,2,3]",0.065694285,stimuli/card_0_transparent.png,0,14,0,14,0,1,,,,,,,,,,
,,,,6642982c6b2b677499d5de75,B,2024-06-21_14h21.58.977,Slot Machine Game,2023.1.3,MacIntel,56.81818182,,,,,,,,,,,,,,,,,,,,,,,,,,,,,,,,,,,534.4791,,,,,,,,,,,,,,,,,,,,,,,,,,,,,,,,,"[1130,650,750,370,470,580,920,740]",7,0,7,0,1,,,,
,,,,6642982c6b2b677499d5de75,B,2024-06-21_14h21.58.977,Slot Machine Game,2023.1.3,MacIntel,56.81818182,,,,,,,,,,,,,,,,,,,,,,,,,,,,,,,,,,,,,,,,,,,,,,,,9,9,"[8,15]","[[3,2,1],[3,1,2]]",539.4836,0,,,,0.5,0.3,,,,,0,0,0,0,1,,,,,,,,,,
,,,,6642982c6b2b677499d5de75,B,2024-06-21_14h21.58.977,Slot Machine Game,2023.1.3,MacIntel,56.81818182,,,,,,,,,,,,,,,,,,,,,,,,,,,100,,,,,,,,,,,,,,,,,,,,,9,9,,,544.9972,1,up,0.1837,,1.5,0.3,"[3,2,1]",0.158242103,stimuli/card_100_transparent.png,100,1,0,1,0,1,,,,,,,,,,
,,,,6642982c6b2b677499d5de75,B,2024-06-21_14h21.58.977,Slot Machine Game,2023.1.3,MacIntel,56.81818182,,,,,,,,,,,,,,,,,,,,,,,,,,,110,,,,,,,,,,,,,,,,,,,,,9,9,,,547.5093,2,up,0.15,,1,0.3,"[3,2,1]",0.714575196,stimuli/card_10_transparent.png,10,2,0,2,0,1,,,,,,,,,,
,,,,6642982c6b2b677499d5de75,B,2024-06-21_14h21.58.977,Slot Machine Game,2023.1.3,MacIntel,56.81818182,,,,,,,,,,,,,,,,,,,,,,,,,,,120,,,,,,,,,,,,,,,,,,,,,9,9,,,549.48,3,up,0.0192,,0.5,0.3,"[3,2,1]",0.393866271,stimuli/card_10_transparent.png,10,3,0,3,0,1,,,,,,,,,,
,,,,6642982c6b2b677499d5de75,B,2024-06-21_14h21.58.977,Slot Machine Game,2023.1.3,MacIntel,56.81818182,,,,,,,,,,,,,,,,,,,,,,,,,,,220,,,,,,,,,,,,,,,,,,,,,9,9,,,550.8235,4,up,0.1022,,1.5,0.3,"[3,2,1]",0.190159312,stimuli/card_100_transparent.png,100,4,0,4,0,1,,,,,,,,,,
,,,,6642982c6b2b677499d5de75,B,2024-06-21_14h21.58.977,Slot Machine Game,2023.1.3,MacIntel,56.81818182,,,,,,,,,,,,,,,,,,,,,,,,,,,220,,,,,,,,,,,,,,,,,,,,,9,9,,,553.2254,5,up,0.1325,,1.5,0.3,"[3,2,1]",0.015458321,stimuli/card_0_transparent.png,0,5,0,5,0,1,,,,,,,,,,
,,,,6642982c6b2b677499d5de75,B,2024-06-21_14h21.58.977,Slot Machine Game,2023.1.3,MacIntel,56.81818182,,,,,,,,,,,,,,,,,,,,,,,,,,,230,,,,,,,,,,,,,,,,,,,,,9,9,,,555.6791,6,up,0.1301,,0.5,0.3,"[3,2,1]",0.694048355,stimuli/card_10_transparent.png,10,6,0,6,0,1,,,,,,,,,,
,,,,6642982c6b2b677499d5de75,B,2024-06-21_14h21.58.977,Slot Machine Game,2023.1.3,MacIntel,56.81818182,,,,,,,,,,,,,,,,,,,,,,,,,,,330,,,,,,,,,,,,,,,,,,,,,9,9,,,557.1244,7,up,0.0685,,1,0.3,"[3,2,1]",0.133071669,stimuli/card_100_transparent.png,100,7,0,7,0,1,,,,,,,,,,
,,,,6642982c6b2b677499d5de75,B,2024-06-21_14h21.58.977,Slot Machine Game,2023.1.3,MacIntel,56.81818182,,,,,,,,,,,,,,,,,,,,,,,,,,,430,,,,,,,,,,,,,,,,,,,,,9,9,,,558.9963,8,up,0.1408,,1,0.3,"[3,1,2]",0.892416279,stimuli/card_100_transparent.png,100,8,0,8,0,1,,,,,,,,,,
,,,,6642982c6b2b677499d5de75,B,2024-06-21_14h21.58.977,Slot Machine Game,2023.1.3,MacIntel,56.81818182,,,,,,,,,,,,,,,,,,,,,,,,,,,430,,,,,,,,,,,,,,,,,,,,,9,9,,,560.9623,9,up,0.0675,,0.5,0.3,"[3,1,2]",0.045037402,stimuli/card_0_transparent.png,0,9,0,9,0,1,,,,,,,,,,
,,,,6642982c6b2b677499d5de75,B,2024-06-21_14h21.58.977,Slot Machine Game,2023.1.3,MacIntel,56.81818182,,,,,,,,,,,,,,,,,,,,,,,,,,,530,,,,,,,,,,,,,,,,,,,,,9,9,,,562.3458,10,up,0.1197,,1.5,0.3,"[3,1,2]",0.289600818,stimuli/card_100_transparent.png,100,10,0,10,0,1,,,,,,,,,,
,,,,6642982c6b2b677499d5de75,B,2024-06-21_14h21.58.977,Slot Machine Game,2023.1.3,MacIntel,56.81818182,,,,,,,,,,,,,,,,,,,,,,,,,,,530,,,,,,,,,,,,,,,,,,,,,9,9,,,564.7917,11,up,0.1344,,1,0.3,"[3,1,2]",0.08013701,stimuli/card_0_transparent.png,0,11,0,11,0,1,,,,,,,,,,
,,,,6642982c6b2b677499d5de75,B,2024-06-21_14h21.58.977,Slot Machine Game,2023.1.3,MacIntel,56.81818182,,,,,,,,,,,,,,,,,,,,,,,,,,,540,,,,,,,,,,,,,,,,,,,,,9,9,,,566.7287,12,up,0.1471,,1.5,0.3,"[3,1,2]",0.102275706,stimuli/card_10_transparent.png,10,12,0,12,0,1,,,,,,,,,,
,,,,6642982c6b2b677499d5de75,B,2024-06-21_14h21.58.977,Slot Machine Game,2023.1.3,MacIntel,56.81818182,,,,,,,,,,,,,,,,,,,,,,,,,,,640,,,,,,,,,,,,,,,,,,,,,9,9,,,569.197,13,up,0.0215,,1.5,0.3,"[3,1,2]",0.904707942,stimuli/card_100_transparent.png,100,13,0,13,0,1,,,,,,,,,,
,,,,6642982c6b2b677499d5de75,B,2024-06-21_14h21.58.977,Slot Machine Game,2023.1.3,MacIntel,56.81818182,,,,,,,,,,,,,,,,,,,,,,,,,,,740,,,,,,,,,,,,,,,,,,,,,9,9,,,571.5353,14,up,0.0869,,1.5,0.3,"[3,1,2]",0.840908992,stimuli/card_100_transparent.png,100,14,0,14,0,1,,,,,,,,,,
,,,,6642982c6b2b677499d5de75,B,2024-06-21_14h21.58.977,Slot Machine Game,2023.1.3,MacIntel,56.81818182,,,,,,,,,,,,,,,,,,,,,,,,,,,,,,,,,,,573.945,,,,,,,,,,,,,,,,,,,,,,,,,,,,,,,,,"[1130,650,750,370,470,580,920,740,740]",8,0,8,0,1,,,,
,,,,6642982c6b2b677499d5de75,B,2024-06-21_14h21.58.977,Slot Machine Game,2023.1.3,MacIntel,56.81818182,,,,,,,,,,,,,,,,,,,,,,,,,,,0,,,,,,,,,,,,,,,,,,,,,10,10,"[10,15]","[[3,1,2],[1,3,2]]",578.9519,0,right,0.8689,,1,0.3,"[3,1,2]",0.06291333,stimuli/card_0_transparent.png,0,0,0,0,0,1,,,,,,,,,,
,,,,6642982c6b2b677499d5de75,B,2024-06-21_14h21.58.977,Slot Machine Game,2023.1.3,MacIntel,56.81818182,,,,,,,,,,,,,,,,,,,,,,,,,,,0,,,,,,,,,,,,,,,,,,,,,10,10,,,581.6459,1,up,0.1526,,0.5,0.3,"[3,1,2]",0.002843876,stimuli/card_0_transparent.png,0,1,0,1,0,1,,,,,,,,,,
,,,,6642982c6b2b677499d5de75,B,2024-06-21_14h21.58.977,Slot Machine Game,2023.1.3,MacIntel,56.81818182,,,,,,,,,,,,,,,,,,,,,,,,,,,0,,,,,,,,,,,,,,,,,,,,,10,10,,,583.1131,2,left,0.0289,,0.5,0.3,"[3,1,2]",0.315051927,stimuli/card_0_transparent.png,0,2,0,2,0,1,,,,,,,,,,
,,,,6642982c6b2b677499d5de75,B,2024-06-21_14h21.58.977,Slot Machine Game,2023.1.3,MacIntel,56.81818182,,,,,,,,,,,,,,,,,,,,,,,,,,,0,,,,,,,,,,,,,,,,,,,,,10,10,,,584.4636,3,left,0.0763,,1.5,0.3,"[3,1,2]",0.452578048,stimuli/card_0_transparent.png,0,3,0,3,0,1,,,,,,,,,,
,,,,6642982c6b2b677499d5de75,B,2024-06-21_14h21.58.977,Slot Machine Game,2023.1.3,MacIntel,56.81818182,,,,,,,,,,,,,,,,,,,,,,,,,,,100,,,,,,,,,,,,,,,,,,,,,10,10,,,586.8789,4,up,3.6287,,1.5,0.3,"[3,1,2]",0.725353003,stimuli/card_100_transparent.png,100,4,0,4,0,1,,,,,,,,,,
,,,,6642982c6b2b677499d5de75,B,2024-06-21_14h21.58.977,Slot Machine Game,2023.1.3,MacIntel,56.81818182,,,,,,,,,,,,,,,,,,,,,,,,,,,110,,,,,,,,,,,,,,,,,,,,,10,10,,,592.8133,5,up,0.3618,,1,0.3,"[3,1,2]",0.18051612,stimuli/card_10_transparent.png,10,5,0,5,0,1,,,,,,,,,,
,,,,6642982c6b2b677499d5de75,B,2024-06-21_14h21.58.977,Slot Machine Game,2023.1.3,MacIntel,56.81818182,,,,,,,,,,,,,,,,,,,,,,,,,,,120,,,,,,,,,,,,,,,,,,,,,10,10,,,594.9916,6,up,0.033,,0.5,0.3,"[3,1,2]",0.138491785,stimuli/card_10_transparent.png,10,6,0,6,0,1,,,,,,,,,,
,,,,6642982c6b2b677499d5de75,B,2024-06-21_14h21.58.977,Slot Machine Game,2023.1.3,MacIntel,56.81818182,,,,,,,,,,,,,,,,,,,,,,,,,,,220,,,,,,,,,,,,,,,,,,,,,10,10,,,596.3415,7,up,0.1721,,1,0.3,"[3,1,2]",0.73434413,stimuli/card_100_transparent.png,100,7,0,7,0,1,,,,,,,,,,
,,,,6642982c6b2b677499d5de75,B,2024-06-21_14h21.58.977,Slot Machine Game,2023.1.3,MacIntel,56.81818182,,,,,,,,,,,,,,,,,,,,,,,,,,,320,,,,,,,,,,,,,,,,,,,,,10,10,,,598.3444,8,up,0.0179,,1.5,0.3,"[3,1,2]",0.461569124,stimuli/card_100_transparent.png,100,8,0,8,0,1,,,,,,,,,,
,,,,6642982c6b2b677499d5de75,B,2024-06-21_14h21.58.977,Slot Machine Game,2023.1.3,MacIntel,56.81818182,,,,,,,,,,,,,,,,,,,,,,,,,,,420,,,,,,,,,,,,,,,,,,,,,10,10,,,600.6752,9,up,0.0482,,1.5,0.3,"[3,1,2]",0.692502754,stimuli/card_100_transparent.png,100,9,0,9,0,1,,,,,,,,,,
,,,,6642982c6b2b677499d5de75,B,2024-06-21_14h21.58.977,Slot Machine Game,2023.1.3,MacIntel,56.81818182,,,,,,,,,,,,,,,,,,,,,,,,,,,420,,,,,,,,,,,,,,,,,,,,,10,10,,,603.047,10,up,0.2349,,1,0.3,"[1,3,2]",0.585547649,stimuli/card_0_transparent.png,0,10,0,10,0,1,,,,,,,,,,
,,,,6642982c6b2b677499d5de75,B,2024-06-21_14h21.58.977,Slot Machine Game,2023.1.3,MacIntel,56.81818182,,,,,,,,,,,,,,,,,,,,,,,,,,,420,,,,,,,,,,,,,,,,,,,,,10,10,,,605.112,11,up,0.1545,,1,0.3,"[1,3,2]",0.787529604,stimuli/card_0_transparent.png,0,11,0,11,0,1,,,,,,,,,,
,,,,6642982c6b2b677499d5de75,B,2024-06-21_14h21.58.977,Slot Machine Game,2023.1.3,MacIntel,56.81818182,,,,,,,,,,,,,,,,,,,,,,,,,,,420,,,,,,,,,,,,,,,,,,,,,10,10,,,607.0975,12,up,0.0653,,1,0.3,"[1,3,2]",0.880941714,stimuli/card_0_transparent.png,0,12,0,12,0,1,,,,,,,,,,
,,,,6642982c6b2b677499d5de75,B,2024-06-21_14h21.58.977,Slot Machine Game,2023.1.3,MacIntel,56.81818182,,,,,,,,,,,,,,,,,,,,,,,,,,,420,,,,,,,,,,,,,,,,,,,,,10,10,,,608.9945,13,up,0.2009,,1,0.3,"[1,3,2]",0.5365901,stimuli/card_0_transparent.png,0,13,0,13,0,1,,,,,,,,,,
,,,,6642982c6b2b677499d5de75,B,2024-06-21_14h21.58.977,Slot Machine Game,2023.1.3,MacIntel,56.81818182,,,,,,,,,,,,,,,,,,,,,,,,,,,,,,,,,,,,,,,,,,,,,,,,10,10,,,610.9964,14,,,,1.5,0.3,,,,,14,0,14,0,1,,,,,,,,,,
,,,,6642982c6b2b677499d5de75,B,2024-06-21_14h21.58.977,Slot Machine Game,2023.1.3,MacIntel,56.81818182,,,,,,,,,,,,,,,,,,,,,,,,,,,,,,,,,,,616.5071,,,,,,,,,,,,,,,,,,,,,,,,,,,,,,,,,"[1130,650,750,370,470,580,920,740,740,420]",9,0,9,0,1,,,,
,,,,6642982c6b2b677499d5de75,B,2024-06-21_14h21.58.977,Slot Machine Game,2023.1.3,MacIntel,56.81818182,,,,,,,,,,,,,,,,,,,,,,,,,,,,,,,,,,,,,,,,,,,,,,,,,,,,,,,,,,,,,,,,,,,,,,,,,,9,"[1130,650,750,370,470,580,920,740,740,420]",7.4,2024-06-21_14h32.24.547
