key_resp_welcome_started,key_resp_welcome_keys,key_resp_welcome_rt,key_resp_welcome_duration,prolific_id,path_id,date,expName,psychopyVersion,OS,frameRate,key_resp_instruction1_started,key_resp_instruction1_keys,key_resp_instruction1_rt,key_resp_instruction1_duration,key_resp_instruction2_started,key_resp_instruction2_keys,key_resp_instruction2_rt,key_resp_instruction2_duration,key_resp_instruction3_started,key_resp_instruction3_keys,key_resp_instruction3_rt,key_resp_instruction3_duration,key_resp_instruction4_started,key_resp_instruction4_keys,key_resp_instruction4_rt,key_resp_instruction4_duration,practiceCondition,practice_reward_seqs,practice_trial_started,practice_trial_num,prac_presentationInterval,"practice_reward_seq: 2,1,3",practice_trials.thisRepN,practice_trials.thisTrialN,practice_trials.thisN,practice_trials.thisIndex,practice_trials.ran,practice_resp_rt,practice_resp_duration,practice_resp_keys,reward_img,cumulative_reward,trial_reward,"practice_reward_seq: 2,3,1",block_break_started,"practice_reward_seq: 1,3,2","practice_reward_seq: 3,1,2",practice_end_time,practice_end_keys,practice_end_rt,practice_end_duration,main_instruction_text_started,block_condition,block_order_indices,main_instruction_keys,main_instruction_rt,main_instruction_duration,block_number,block_assignment,current_condition,main_reward_seqs,main_trial_started,main_trial_num,main_trial_keys,main_trial_rt,main_trial_duration,main_presentationInterval,reward_presentation_time,main_reward_seq,reward_rand_val,main_reward_img,current_reward,main_trials.thisRepN,main_trials.thisTrialN,main_trials.thisN,main_trials.thisIndex,main_trials.ran,block_reward,block.thisRepN,block.thisTrialN,block.thisN,block.thisIndex,block.ran,block_reward.length,block_reward_all,reward_amount,date_end_task
9.99999E-05,space,1.4078,,6643ca14c53f7ffbef7b9917,A,2024-07-07_11h24.59.429,Slot Machine Game,2023.1.3,Win32,8.992805755,,,,,,,,,,,,,,,,,,,,,,,,,,,,,,,,,,,,,,,,,,,,,,,,,,,,,,,,,,,,,,,,,,,,,,,,,,,,,
,,,,6643ca14c53f7ffbef7b9917,A,2024-07-07_11h24.59.429,Slot Machine Game,2023.1.3,Win32,8.992805755,1.5316,space,14.8402,,,,,,,,,,,,,,,,,,,,,,,,,,,,,,,,,,,,,,,,,,,,,,,,,,,,,,,,,,,,,,,,,,,,,,,,,,
,,,,6643ca14c53f7ffbef7b9917,A,2024-07-07_11h24.59.429,Slot Machine Game,2023.1.3,Win32,8.992805755,,,,,16.5088,space,39.5428,,,,,,,,,,,,,,,,,,,,,,,,,,,,,,,,,,,,,,,,,,,,,,,,,,,,,,,,,,,,,,,,,,,,,,
,,,,6643ca14c53f7ffbef7b9917,A,2024-07-07_11h24.59.429,Slot Machine Game,2023.1.3,Win32,8.992805755,,,,,,,,,56.2068,space,11.3607,,,,,,,,,,,,,,,,,,,,,,,,,,,,,,,,,,,,,,,,,,,,,,,,,,,,,,,,,,,,,,,,,,
,,,,6643ca14c53f7ffbef7b9917,A,2024-07-07_11h24.59.429,Slot Machine Game,2023.1.3,Win32,8.992805755,,,,,,,,,,,,,,,,,,,,,,,,,,,,,,,,,,,,,,,,,,,,,,,,,,,,,,,,,,,,,,,,,,,,,,,,,,,,,
,,,,6643ca14c53f7ffbef7b9917,A,2024-07-07_11h24.59.429,Slot Machine Game,2023.1.3,Win32,8.992805755,,,,,,,,,,,,,209.8745,space,1.9775,,,,,,,,,,,,,,,,,,,,,,,,,,,,,,,,,,,,,,,,,,,,,,,,,,,,,,,,,,,,,,
,,,,6643ca14c53f7ffbef7b9917,A,2024-07-07_11h24.59.429,Slot Machine Game,2023.1.3,Win32,8.992805755,,,,,,,,,,,,,,,,,"[9,15]","[[2,1,3],[2,3,1]]",211.9726,0,1,,0,0,0,0,1,,,,,,,,,,,,,,,,,,,,,,,,,,,,,,,,,,,,,,,,,,,,,,,,,,
,,,,6643ca14c53f7ffbef7b9917,A,2024-07-07_11h24.59.429,Slot Machine Game,2023.1.3,Win32,8.992805755,,,,,,,,,,,,,,,,,,,217.5731,1,1.5,,1,0,1,0,1,0.7144,,left,stimuli/card_10_transparent.png,10,10,,,,,,,,,,,,,,,,,,,,,,,,,,,,,,,,,,,,,,,,,,,,
,,,,6643ca14c53f7ffbef7b9917,A,2024-07-07_11h24.59.429,Slot Machine Game,2023.1.3,Win32,8.992805755,,,,,,,,,,,,,,,,,,,220.7564,2,0.5,,2,0,2,0,1,0.4288,,up,stimuli/card_100_transparent.png,110,100,,,,,,,,,,,,,,,,,,,,,,,,,,,,,,,,,,,,,,,,,,,,
,,,,6643ca14c53f7ffbef7b9917,A,2024-07-07_11h24.59.429,Slot Machine Game,2023.1.3,Win32,8.992805755,,,,,,,,,,,,,,,,,,,222.6361,3,0.5,,3,0,3,0,1,0.4387,,up,stimuli/card_0_transparent.png,110,0,,,,,,,,,,,,,,,,,,,,,,,,,,,,,,,,,,,,,,,,,,,,
,,,,6643ca14c53f7ffbef7b9917,A,2024-07-07_11h24.59.429,Slot Machine Game,2023.1.3,Win32,8.992805755,,,,,,,,,,,,,,,,,,,224.5429,4,1.5,,4,0,4,0,1,0.2965,,up,stimuli/card_100_transparent.png,210,100,,,,,,,,,,,,,,,,,,,,,,,,,,,,,,,,,,,,,,,,,,,,
,,,,6643ca14c53f7ffbef7b9917,A,2024-07-07_11h24.59.429,Slot Machine Game,2023.1.3,Win32,8.992805755,,,,,,,,,,,,,,,,,,,227.3899,5,1,,5,0,5,0,1,0.286,,up,stimuli/card_0_transparent.png,210,0,,,,,,,,,,,,,,,,,,,,,,,,,,,,,,,,,,,,,,,,,,,,
,,,,6643ca14c53f7ffbef7b9917,A,2024-07-07_11h24.59.429,Slot Machine Game,2023.1.3,Win32,8.992805755,,,,,,,,,,,,,,,,,,,229.6052,6,0.5,,6,0,6,0,1,0.4415,,right,stimuli/card_0_transparent.png,210,0,,,,,,,,,,,,,,,,,,,,,,,,,,,,,,,,,,,,,,,,,,,,
,,,,6643ca14c53f7ffbef7b9917,A,2024-07-07_11h24.59.429,Slot Machine Game,2023.1.3,Win32,8.992805755,,,,,,,,,,,,,,,,,,,231.5112,7,1.5,,7,0,7,0,1,0.5883,,left,stimuli/card_10_transparent.png,220,10,,,,,,,,,,,,,,,,,,,,,,,,,,,,,,,,,,,,,,,,,,,,
,,,,6643ca14c53f7ffbef7b9917,A,2024-07-07_11h24.59.429,Slot Machine Game,2023.1.3,Win32,8.992805755,,,,,,,,,,,,,,,,,,,234.5828,8,0.5,,8,0,8,0,1,0.8794,,up,stimuli/card_100_transparent.png,320,100,,,,,,,,,,,,,,,,,,,,,,,,,,,,,,,,,,,,,,,,,,,,
,,,,6643ca14c53f7ffbef7b9917,A,2024-07-07_11h24.59.429,Slot Machine Game,2023.1.3,Win32,8.992805755,,,,,,,,,,,,,,,,,,,236.9085,9,1.5,,9,0,9,0,1,0.287,,up,stimuli/card_0_transparent.png,320,0,,,,,,,,,,,,,,,,,,,,,,,,,,,,,,,,,,,,,,,,,,,,
,,,,6643ca14c53f7ffbef7b9917,A,2024-07-07_11h24.59.429,Slot Machine Game,2023.1.3,Win32,8.992805755,,,,,,,,,,,,,,,,,,,239.6868,10,0.5,,10,0,10,0,1,0.8675,,up,stimuli/card_0_transparent.png,320,0,,,,,,,,,,,,,,,,,,,,,,,,,,,,,,,,,,,,,,,,,,,,
,,,,6643ca14c53f7ffbef7b9917,A,2024-07-07_11h24.59.429,Slot Machine Game,2023.1.3,Win32,8.992805755,,,,,,,,,,,,,,,,,,,241.9999,11,1.5,,11,0,11,0,1,0.7341,,left,stimuli/card_10_transparent.png,330,10,,,,,,,,,,,,,,,,,,,,,,,,,,,,,,,,,,,,,,,,,,,,
,,,,6643ca14c53f7ffbef7b9917,A,2024-07-07_11h24.59.429,Slot Machine Game,2023.1.3,Win32,8.992805755,,,,,,,,,,,,,,,,,,,245.1201,12,1.5,,12,0,12,0,1,0.0081,,right,stimuli/card_10_transparent.png,340,10,,,,,,,,,,,,,,,,,,,,,,,,,,,,,,,,,,,,,,,,,,,,
,,,,6643ca14c53f7ffbef7b9917,A,2024-07-07_11h24.59.429,Slot Machine Game,2023.1.3,Win32,8.992805755,,,,,,,,,,,,,,,,,,,247.6105,13,0.5,,13,0,13,0,1,0.0078,,up,stimuli/card_0_transparent.png,340,0,,,,,,,,,,,,,,,,,,,,,,,,,,,,,,,,,,,,,,,,,,,,
,,,,6643ca14c53f7ffbef7b9917,A,2024-07-07_11h24.59.429,Slot Machine Game,2023.1.3,Win32,8.992805755,,,,,,,,,,,,,,,,,,,249.0588,14,0.5,,14,0,14,0,1,0.0082,,left,stimuli/card_10_transparent.png,350,10,,,,,,,,,,,,,,,,,,,,,,,,,,,,,,,,,,,,,,,,,,,,
,,,,6643ca14c53f7ffbef7b9917,A,2024-07-07_11h24.59.429,Slot Machine Game,2023.1.3,Win32,8.992805755,,,,,,,,,,,,,,,,,"[6,15]","[[1,3,2],[3,1,2]]",255.5182,0,1.5,,0,0,0,0,1,1.0001,,left,stimuli/card_100_transparent.png,100,100,,250.5444,,,,,,,,,,,,,,,,,,,,,,,,,,,,,,,,,,,,,,,,,,
,,,,6643ca14c53f7ffbef7b9917,A,2024-07-07_11h24.59.429,Slot Machine Game,2023.1.3,Win32,8.992805755,,,,,,,,,,,,,,,,,,,259.0279,1,1,,1,0,1,0,1,1.8704,,left,stimuli/card_100_transparent.png,200,100,,,,,,,,,,,,,,,,,,,,,,,,,,,,,,,,,,,,,,,,,,,,
,,,,6643ca14c53f7ffbef7b9917,A,2024-07-07_11h24.59.429,Slot Machine Game,2023.1.3,Win32,8.992805755,,,,,,,,,,,,,,,,,,,262.8196,2,1,,2,0,2,0,1,0.2914,,left,stimuli/card_100_transparent.png,300,100,,,,,,,,,,,,,,,,,,,,,,,,,,,,,,,,,,,,,,,,,,,,
,,,,6643ca14c53f7ffbef7b9917,A,2024-07-07_11h24.59.429,Slot Machine Game,2023.1.3,Win32,8.992805755,,,,,,,,,,,,,,,,,,,265.0401,3,0.5,,3,0,3,0,1,0.0088,,left,stimuli/card_100_transparent.png,400,100,,,,,,,,,,,,,,,,,,,,,,,,,,,,,,,,,,,,,,,,,,,,
,,,,6643ca14c53f7ffbef7b9917,A,2024-07-07_11h24.59.429,Slot Machine Game,2023.1.3,Win32,8.992805755,,,,,,,,,,,,,,,,,,,266.5569,4,0.5,,4,0,4,0,1,0.1494,,left,stimuli/card_10_transparent.png,410,10,,,,,,,,,,,,,,,,,,,,,,,,,,,,,,,,,,,,,,,,,,,,
,,,,6643ca14c53f7ffbef7b9917,A,2024-07-07_11h24.59.429,Slot Machine Game,2023.1.3,Win32,8.992805755,,,,,,,,,,,,,,,,,,,268.1583,5,1,,5,0,5,0,1,1.0167,,up,stimuli/card_0_transparent.png,410,0,,,,,,,,,,,,,,,,,,,,,,,,,,,,,,,,,,,,,,,,,,,,
,,,,6643ca14c53f7ffbef7b9917,A,2024-07-07_11h24.59.429,Slot Machine Game,2023.1.3,Win32,8.992805755,,,,,,,,,,,,,,,,,,,271.2423,6,1.5,,6,0,6,0,1,0.0083,,right,stimuli/card_10_transparent.png,420,10,,,,,,,,,,,,,,,,,,,,,,,,,,,,,,,,,,,,,,,,,,,,
,,,,6643ca14c53f7ffbef7b9917,A,2024-07-07_11h24.59.429,Slot Machine Game,2023.1.3,Win32,8.992805755,,,,,,,,,,,,,,,,,,,273.7276,7,1,,7,0,7,0,1,0.734,,right,stimuli/card_10_transparent.png,430,10,,,,,,,,,,,,,,,,,,,,,,,,,,,,,,,,,,,,,,,,,,,,
,,,,6643ca14c53f7ffbef7b9917,A,2024-07-07_11h24.59.429,Slot Machine Game,2023.1.3,Win32,8.992805755,,,,,,,,,,,,,,,,,,,276.3649,8,1,,8,0,8,0,1,1.1565,,up,stimuli/card_100_transparent.png,530,100,,,,,,,,,,,,,,,,,,,,,,,,,,,,,,,,,,,,,,,,,,,,
,,,,6643ca14c53f7ffbef7b9917,A,2024-07-07_11h24.59.429,Slot Machine Game,2023.1.3,Win32,8.992805755,,,,,,,,,,,,,,,,,,,279.4513,9,1,,9,0,9,0,1,1.0479,,up,stimuli/card_100_transparent.png,630,100,,,,,,,,,,,,,,,,,,,,,,,,,,,,,,,,,,,,,,,,,,,,
,,,,6643ca14c53f7ffbef7b9917,A,2024-07-07_11h24.59.429,Slot Machine Game,2023.1.3,Win32,8.992805755,,,,,,,,,,,,,,,,,,,282.4289,10,0.5,,10,0,10,0,1,0.8727,,up,stimuli/card_100_transparent.png,730,100,,,,,,,,,,,,,,,,,,,,,,,,,,,,,,,,,,,,,,,,,,,,
,,,,6643ca14c53f7ffbef7b9917,A,2024-07-07_11h24.59.429,Slot Machine Game,2023.1.3,Win32,8.992805755,,,,,,,,,,,,,,,,,,,284.7636,11,1,,11,0,11,0,1,0.9098,,up,stimuli/card_100_transparent.png,830,100,,,,,,,,,,,,,,,,,,,,,,,,,,,,,,,,,,,,,,,,,,,,
,,,,6643ca14c53f7ffbef7b9917,A,2024-07-07_11h24.59.429,Slot Machine Game,2023.1.3,Win32,8.992805755,,,,,,,,,,,,,,,,,,,287.6299,12,1,,12,0,12,0,1,0.1531,,left,stimuli/card_0_transparent.png,830,0,,,,,,,,,,,,,,,,,,,,,,,,,,,,,,,,,,,,,,,,,,,,
,,,,6643ca14c53f7ffbef7b9917,A,2024-07-07_11h24.59.429,Slot Machine Game,2023.1.3,Win32,8.992805755,,,,,,,,,,,,,,,,,,,289.6733,13,1.5,,13,0,13,0,1,0.29,,right,stimuli/card_10_transparent.png,840,10,,,,,,,,,,,,,,,,,,,,,,,,,,,,,,,,,,,,,,,,,,,,
,,,,6643ca14c53f7ffbef7b9917,A,2024-07-07_11h24.59.429,Slot Machine Game,2023.1.3,Win32,8.992805755,,,,,,,,,,,,,,,,,,,292.4907,14,1.5,,14,0,14,0,1,0.5903,,up,stimuli/card_100_transparent.png,940,100,,,,,,,,,,,,,,,,,,,,,,,,,,,,,,,,,,,,,,,,,,,,
,,,,6643ca14c53f7ffbef7b9917,A,2024-07-07_11h24.59.429,Slot Machine Game,2023.1.3,Win32,8.992805755,,,,,,,,,,,,,,,,,,,,,,,,,,,,,,,,,,,295.4795,,,300.4316,space,1.7531,,,,,,,,,,,,,,,,,,,,,,,,,,,,,,,,,,,,,
,,,,6643ca14c53f7ffbef7b9917,A,2024-07-07_11h24.59.429,Slot Machine Game,2023.1.3,Win32,8.992805755,,,,,,,,,,,,,,,,,,,,,,,,,,,,,,,,,,,,,,,,,,302.3093,1,"[0,1,2,3,4,5,6,7,8,9]",space,1.2411,,,,,,,,,,,,,,,,,,,,,,,,,,,,,,,
,,,,6643ca14c53f7ffbef7b9917,A,2024-07-07_11h24.59.429,Slot Machine Game,2023.1.3,Win32,8.992805755,,,,,,,,,,,,,,,,,,,,,,,,,,,,,,,,0,,,,,,,,,,,,,,,,1,1,"[12,15]","[[2,1,3],[2,3,1]]",303.6843,0,up,0.99,,0.5,0.3,"[2,1,3]",0.027567924,stimuli/card_0_transparent.png,0,0,0,0,0,1,,,,,,,,,,
,,,,6643ca14c53f7ffbef7b9917,A,2024-07-07_11h24.59.429,Slot Machine Game,2023.1.3,Win32,8.992805755,,,,,,,,,,,,,,,,,,,,,,,,,,,,,,,,100,,,,,,,,,,,,,,,,1,1,,,306.1221,1,left,0.2846,,0.5,0.3,"[2,1,3]",0.180056054,stimuli/card_100_transparent.png,100,1,0,1,0,1,,,,,,,,,,
,,,,6643ca14c53f7ffbef7b9917,A,2024-07-07_11h24.59.429,Slot Machine Game,2023.1.3,Win32,8.992805755,,,,,,,,,,,,,,,,,,,,,,,,,,,,,,,,110,,,,,,,,,,,,,,,,1,1,,,307.8575,2,left,0.2918,,0.5,0.3,"[2,1,3]",0.554691781,stimuli/card_10_transparent.png,10,2,0,2,0,1,,,,,,,,,,
,,,,6643ca14c53f7ffbef7b9917,A,2024-07-07_11h24.59.429,Slot Machine Game,2023.1.3,Win32,8.992805755,,,,,,,,,,,,,,,,,,,,,,,,,,,,,,,,120,,,,,,,,,,,,,,,,1,1,,,309.5934,3,right,0.5893,,1,0.3,"[2,1,3]",0.198422895,stimuli/card_10_transparent.png,10,3,0,3,0,1,,,,,,,,,,
,,,,6643ca14c53f7ffbef7b9917,A,2024-07-07_11h24.59.429,Slot Machine Game,2023.1.3,Win32,8.992805755,,,,,,,,,,,,,,,,,,,,,,,,,,,,,,,,220,,,,,,,,,,,,,,,,1,1,,,312.1165,4,up,0.8781,,1.5,0.3,"[2,1,3]",0.576388964,stimuli/card_100_transparent.png,100,4,0,4,0,1,,,,,,,,,,
,,,,6643ca14c53f7ffbef7b9917,A,2024-07-07_11h24.59.429,Slot Machine Game,2023.1.3,Win32,8.992805755,,,,,,,,,,,,,,,,,,,,,,,,,,,,,,,,220,,,,,,,,,,,,,,,,1,1,,,315.5509,5,up,0.1481,,1,0.3,"[2,1,3]",0.097643141,stimuli/card_0_transparent.png,0,5,0,5,0,1,,,,,,,,,,
,,,,6643ca14c53f7ffbef7b9917,A,2024-07-07_11h24.59.429,Slot Machine Game,2023.1.3,Win32,8.992805755,,,,,,,,,,,,,,,,,,,,,,,,,,,,,,,,230,,,,,,,,,,,,,,,,1,1,,,317.7387,6,left,0.007,,0.5,0.3,"[2,1,3]",0.629863261,stimuli/card_10_transparent.png,10,6,0,6,0,1,,,,,,,,,,
,,,,6643ca14c53f7ffbef7b9917,A,2024-07-07_11h24.59.429,Slot Machine Game,2023.1.3,Win32,8.992805755,,,,,,,,,,,,,,,,,,,,,,,,,,,,,,,,230,,,,,,,,,,,,,,,,1,1,,,319.1961,7,right,0.0078,,0.5,0.3,"[2,1,3]",0.725549818,stimuli/card_0_transparent.png,0,7,0,7,0,1,,,,,,,,,,
,,,,6643ca14c53f7ffbef7b9917,A,2024-07-07_11h24.59.429,Slot Machine Game,2023.1.3,Win32,8.992805755,,,,,,,,,,,,,,,,,,,,,,,,,,,,,,,,330,,,,,,,,,,,,,,,,1,1,,,320.7023,8,up,1.1524,,1.5,0.3,"[2,1,3]",0.733962045,stimuli/card_100_transparent.png,100,8,0,8,0,1,,,,,,,,,,
,,,,6643ca14c53f7ffbef7b9917,A,2024-07-07_11h24.59.429,Slot Machine Game,2023.1.3,Win32,8.992805755,,,,,,,,,,,,,,,,,,,,,,,,,,,,,,,,430,,,,,,,,,,,,,,,,1,1,,,324.4406,9,up,0.0071,,1.5,0.3,"[2,1,3]",0.672174303,stimuli/card_100_transparent.png,100,9,0,9,0,1,,,,,,,,,,
,,,,6643ca14c53f7ffbef7b9917,A,2024-07-07_11h24.59.429,Slot Machine Game,2023.1.3,Win32,8.992805755,,,,,,,,,,,,,,,,,,,,,,,,,,,,,,,,530,,,,,,,,,,,,,,,,1,1,,,326.842,10,up,0.0088,,1.5,0.3,"[2,1,3]",0.223938262,stimuli/card_100_transparent.png,100,10,0,10,0,1,,,,,,,,,,
,,,,6643ca14c53f7ffbef7b9917,A,2024-07-07_11h24.59.429,Slot Machine Game,2023.1.3,Win32,8.992805755,,,,,,,,,,,,,,,,,,,,,,,,,,,,,,,,540,,,,,,,,,,,,,,,,1,1,,,329.34,11,up,0.1606,,1,0.3,"[2,1,3]",0.177757229,stimuli/card_10_transparent.png,10,11,0,11,0,1,,,,,,,,,,
,,,,6643ca14c53f7ffbef7b9917,A,2024-07-07_11h24.59.429,Slot Machine Game,2023.1.3,Win32,8.992805755,,,,,,,,,,,,,,,,,,,,,,,,,,,,,,,,640,,,,,,,,,,,,,,,,1,1,,,331.3783,12,right,0.7105,,0.5,0.3,"[2,3,1]",0.790573577,stimuli/card_100_transparent.png,100,12,0,12,0,1,,,,,,,,,,
,,,,6643ca14c53f7ffbef7b9917,A,2024-07-07_11h24.59.429,Slot Machine Game,2023.1.3,Win32,8.992805755,,,,,,,,,,,,,,,,,,,,,,,,,,,,,,,,740,,,,,,,,,,,,,,,,1,1,,,333.5352,13,right,0.1475,,1.5,0.3,"[2,3,1]",0.70775541,stimuli/card_100_transparent.png,100,13,0,13,0,1,,,,,,,,,,
,,,,6643ca14c53f7ffbef7b9917,A,2024-07-07_11h24.59.429,Slot Machine Game,2023.1.3,Win32,8.992805755,,,,,,,,,,,,,,,,,,,,,,,,,,,,,,,,840,,,,,,,,,,,,,,,,1,1,,,336.2105,14,right,0.0071,,1.5,0.3,"[2,3,1]",0.963256785,stimuli/card_100_transparent.png,100,14,0,14,0,1,,,,,,,,,,
,,,,6643ca14c53f7ffbef7b9917,A,2024-07-07_11h24.59.429,Slot Machine Game,2023.1.3,Win32,8.992805755,,,,,,,,,,,,,,,,,,,,,,,,,,,,,,,,,,,338.7276,,,,,,,,,,,,,,,,,,,,,,,,,,,,,,,,,[840],0,0,0,0,1,,,,
,,,,6643ca14c53f7ffbef7b9917,A,2024-07-07_11h24.59.429,Slot Machine Game,2023.1.3,Win32,8.992805755,,,,,,,,,,,,,,,,,,,,,,,,,,,,,,,,0,,,,,,,,,,,,,,,,2,2,"[6,15]","[[1,3,2],[3,2,1]]",343.6901,0,up,1.0076,,1.5,0.3,"[1,3,2]",0.588348225,stimuli/card_0_transparent.png,0,0,0,0,0,1,,,,,,,,,,
,,,,6643ca14c53f7ffbef7b9917,A,2024-07-07_11h24.59.429,Slot Machine Game,2023.1.3,Win32,8.992805755,,,,,,,,,,,,,,,,,,,,,,,,,,,,,,,,100,,,,,,,,,,,,,,,,2,2,,,347.2172,1,left,0.4384,,1,0.3,"[1,3,2]",0.946029312,stimuli/card_100_transparent.png,100,1,0,1,0,1,,,,,,,,,,
,,,,6643ca14c53f7ffbef7b9917,A,2024-07-07_11h24.59.429,Slot Machine Game,2023.1.3,Win32,8.992805755,,,,,,,,,,,,,,,,,,,,,,,,,,,,,,,,200,,,,,,,,,,,,,,,,2,2,,,349.6883,2,left,0.7187,,0.5,0.3,"[1,3,2]",0.655731973,stimuli/card_100_transparent.png,100,2,0,2,0,1,,,,,,,,,,
,,,,6643ca14c53f7ffbef7b9917,A,2024-07-07_11h24.59.429,Slot Machine Game,2023.1.3,Win32,8.992805755,,,,,,,,,,,,,,,,,,,,,,,,,,,,,,,,300,,,,,,,,,,,,,,,,2,2,,,351.8469,3,left,0.2859,,0.5,0.3,"[1,3,2]",0.886921202,stimuli/card_100_transparent.png,100,3,0,3,0,1,,,,,,,,,,
,,,,6643ca14c53f7ffbef7b9917,A,2024-07-07_11h24.59.429,Slot Machine Game,2023.1.3,Win32,8.992805755,,,,,,,,,,,,,,,,,,,,,,,,,,,,,,,,400,,,,,,,,,,,,,,,,2,2,,,353.5737,4,left,0.149,,1,0.3,"[1,3,2]",0.334953686,stimuli/card_100_transparent.png,100,4,0,4,0,1,,,,,,,,,,
,,,,6643ca14c53f7ffbef7b9917,A,2024-07-07_11h24.59.429,Slot Machine Game,2023.1.3,Win32,8.992805755,,,,,,,,,,,,,,,,,,,,,,,,,,,,,,,,400,,,,,,,,,,,,,,,,2,2,,,355.6244,5,left,0.4304,,1,0.3,"[1,3,2]",0.011212367,stimuli/card_0_transparent.png,0,5,0,5,0,1,,,,,,,,,,
,,,,6643ca14c53f7ffbef7b9917,A,2024-07-07_11h24.59.429,Slot Machine Game,2023.1.3,Win32,8.992805755,,,,,,,,,,,,,,,,,,,,,,,,,,,,,,,,500,,,,,,,,,,,,,,,,2,2,,,357.995,6,right,0.296,,1.5,0.3,"[3,2,1]",0.498706296,stimuli/card_100_transparent.png,100,6,0,6,0,1,,,,,,,,,,
,,,,6643ca14c53f7ffbef7b9917,A,2024-07-07_11h24.59.429,Slot Machine Game,2023.1.3,Win32,8.992805755,,,,,,,,,,,,,,,,,,,,,,,,,,,,,,,,510,,,,,,,,,,,,,,,,2,2,,,360.7896,7,right,0.0093,,0.5,0.3,"[3,2,1]",0.114648619,stimuli/card_10_transparent.png,10,7,0,7,0,1,,,,,,,,,,
,,,,6643ca14c53f7ffbef7b9917,A,2024-07-07_11h24.59.429,Slot Machine Game,2023.1.3,Win32,8.992805755,,,,,,,,,,,,,,,,,,,,,,,,,,,,,,,,510,,,,,,,,,,,,,,,,2,2,,,362.2394,8,up,0.5769,,1.5,0.3,"[3,2,1]",0.0917797,stimuli/card_0_transparent.png,0,8,0,8,0,1,,,,,,,,,,
,,,,6643ca14c53f7ffbef7b9917,A,2024-07-07_11h24.59.429,Slot Machine Game,2023.1.3,Win32,8.992805755,,,,,,,,,,,,,,,,,,,,,,,,,,,,,,,,610,,,,,,,,,,,,,,,,2,2,,,365.3044,9,right,0.2923,,1.5,0.3,"[3,2,1]",0.720701016,stimuli/card_100_transparent.png,100,9,0,9,0,1,,,,,,,,,,
,,,,6643ca14c53f7ffbef7b9917,A,2024-07-07_11h24.59.429,Slot Machine Game,2023.1.3,Win32,8.992805755,,,,,,,,,,,,,,,,,,,,,,,,,,,,,,,,710,,,,,,,,,,,,,,,,2,2,,,368.0876,10,right,0.0083,,1.5,0.3,"[3,2,1]",0.833827918,stimuli/card_100_transparent.png,100,10,0,10,0,1,,,,,,,,,,
,,,,6643ca14c53f7ffbef7b9917,A,2024-07-07_11h24.59.429,Slot Machine Game,2023.1.3,Win32,8.992805755,,,,,,,,,,,,,,,,,,,,,,,,,,,,,,,,810,,,,,,,,,,,,,,,,2,2,,,370.5857,11,right,0.5682,,1,0.3,"[3,2,1]",0.694334853,stimuli/card_100_transparent.png,100,11,0,11,0,1,,,,,,,,,,
,,,,6643ca14c53f7ffbef7b9917,A,2024-07-07_11h24.59.429,Slot Machine Game,2023.1.3,Win32,8.992805755,,,,,,,,,,,,,,,,,,,,,,,,,,,,,,,,910,,,,,,,,,,,,,,,,2,2,,,373.0658,12,right,0.0088,,1.5,0.3,"[3,2,1]",0.316044576,stimuli/card_100_transparent.png,100,12,0,12,0,1,,,,,,,,,,
,,,,6643ca14c53f7ffbef7b9917,A,2024-07-07_11h24.59.429,Slot Machine Game,2023.1.3,Win32,8.992805755,,,,,,,,,,,,,,,,,,,,,,,,,,,,,,,,910,,,,,,,,,,,,,,,,2,2,,,375.5947,13,left,0.5956,,1.5,0.3,"[3,2,1]",0.660854493,stimuli/card_0_transparent.png,0,13,0,13,0,1,,,,,,,,,,
,,,,6643ca14c53f7ffbef7b9917,A,2024-07-07_11h24.59.429,Slot Machine Game,2023.1.3,Win32,8.992805755,,,,,,,,,,,,,,,,,,,,,,,,,,,,,,,,920,,,,,,,,,,,,,,,,2,2,,,378.7167,14,up,0.8751,,1,0.3,"[3,2,1]",0.753054514,stimuli/card_10_transparent.png,10,14,0,14,0,1,,,,,,,,,,
,,,,6643ca14c53f7ffbef7b9917,A,2024-07-07_11h24.59.429,Slot Machine Game,2023.1.3,Win32,8.992805755,,,,,,,,,,,,,,,,,,,,,,,,,,,,,,,,,,,381.6358,,,,,,,,,,,,,,,,,,,,,,,,,,,,,,,,,"[840,920]",1,0,1,0,1,,,,
,,,,6643ca14c53f7ffbef7b9917,A,2024-07-07_11h24.59.429,Slot Machine Game,2023.1.3,Win32,8.992805755,,,,,,,,,,,,,,,,,,,,,,,,,,,,,,,,100,,,,,,,,,,,,,,,,3,3,"[15,15]","[[3,1,2],[3,1,2]]",386.5773,0,right,0.4446,,0.5,0.3,"[3,1,2]",0.13349616,stimuli/card_100_transparent.png,100,0,0,0,0,1,,,,,,,,,,
,,,,6643ca14c53f7ffbef7b9917,A,2024-07-07_11h24.59.429,Slot Machine Game,2023.1.3,Win32,8.992805755,,,,,,,,,,,,,,,,,,,,,,,,,,,,,,,,200,,,,,,,,,,,,,,,,3,3,,,388.4822,1,right,0.0071,,0.5,0.3,"[3,1,2]",0.128556292,stimuli/card_100_transparent.png,100,1,0,1,0,1,,,,,,,,,,
,,,,6643ca14c53f7ffbef7b9917,A,2024-07-07_11h24.59.429,Slot Machine Game,2023.1.3,Win32,8.992805755,,,,,,,,,,,,,,,,,,,,,,,,,,,,,,,,300,,,,,,,,,,,,,,,,3,3,,,389.9203,2,right,1.0243,,1,0.3,"[3,1,2]",0.115627084,stimuli/card_100_transparent.png,100,2,0,2,0,1,,,,,,,,,,
,,,,6643ca14c53f7ffbef7b9917,A,2024-07-07_11h24.59.429,Slot Machine Game,2023.1.3,Win32,8.992805755,,,,,,,,,,,,,,,,,,,,,,,,,,,,,,,,310,,,,,,,,,,,,,,,,3,3,,,392.9758,3,right,0.1446,,1.5,0.3,"[3,1,2]",0.834657519,stimuli/card_10_transparent.png,10,3,0,3,0,1,,,,,,,,,,
,,,,6643ca14c53f7ffbef7b9917,A,2024-07-07_11h24.59.429,Slot Machine Game,2023.1.3,Win32,8.992805755,,,,,,,,,,,,,,,,,,,,,,,,,,,,,,,,310,,,,,,,,,,,,,,,,3,3,,,395.6306,4,left,1.2829,,1,0.3,"[3,1,2]",0.223983005,stimuli/card_0_transparent.png,0,4,0,4,0,1,,,,,,,,,,
,,,,6643ca14c53f7ffbef7b9917,A,2024-07-07_11h24.59.429,Slot Machine Game,2023.1.3,Win32,8.992805755,,,,,,,,,,,,,,,,,,,,,,,,,,,,,,,,410,,,,,,,,,,,,,,,,3,3,,,398.8196,5,up,0.1624,,1,0.3,"[3,1,2]",0.902450125,stimuli/card_100_transparent.png,100,5,0,5,0,1,,,,,,,,,,
,,,,6643ca14c53f7ffbef7b9917,A,2024-07-07_11h24.59.429,Slot Machine Game,2023.1.3,Win32,8.992805755,,,,,,,,,,,,,,,,,,,,,,,,,,,,,,,,420,,,,,,,,,,,,,,,,3,3,,,400.8695,6,up,1.0137,,0.5,0.3,"[3,1,2]",0.196888184,stimuli/card_10_transparent.png,10,6,0,6,0,1,,,,,,,,,,
,,,,6643ca14c53f7ffbef7b9917,A,2024-07-07_11h24.59.429,Slot Machine Game,2023.1.3,Win32,8.992805755,,,,,,,,,,,,,,,,,,,,,,,,,,,,,,,,430,,,,,,,,,,,,,,,,3,3,,,403.3822,7,right,0.7203,,0.5,0.3,"[3,1,2]",0.533215942,stimuli/card_10_transparent.png,10,7,0,7,0,1,,,,,,,,,,
,,,,6643ca14c53f7ffbef7b9917,A,2024-07-07_11h24.59.429,Slot Machine Game,2023.1.3,Win32,8.992805755,,,,,,,,,,,,,,,,,,,,,,,,,,,,,,,,530,,,,,,,,,,,,,,,,3,3,,,405.5484,8,left,0.5832,,0.5,0.3,"[3,1,2]",0.008068419,stimuli/card_100_transparent.png,100,8,0,8,0,1,,,,,,,,,,
,,,,6643ca14c53f7ffbef7b9917,A,2024-07-07_11h24.59.429,Slot Machine Game,2023.1.3,Win32,8.992805755,,,,,,,,,,,,,,,,,,,,,,,,,,,,,,,,530,,,,,,,,,,,,,,,,3,3,,,407.5862,9,left,0.1474,,1,0.3,"[3,1,2]",0.714325519,stimuli/card_0_transparent.png,0,9,0,9,0,1,,,,,,,,,,
,,,,6643ca14c53f7ffbef7b9917,A,2024-07-07_11h24.59.429,Slot Machine Game,2023.1.3,Win32,8.992805755,,,,,,,,,,,,,,,,,,,,,,,,,,,,,,,,540,,,,,,,,,,,,,,,,3,3,,,409.6581,10,up,0.0082,,0.5,0.3,"[3,1,2]",0.13579471,stimuli/card_10_transparent.png,10,10,0,10,0,1,,,,,,,,,,
,,,,6643ca14c53f7ffbef7b9917,A,2024-07-07_11h24.59.429,Slot Machine Game,2023.1.3,Win32,8.992805755,,,,,,,,,,,,,,,,,,,,,,,,,,,,,,,,640,,,,,,,,,,,,,,,,3,3,,,411.1558,11,right,0.1491,,0.5,0.3,"[3,1,2]",0.19207073,stimuli/card_100_transparent.png,100,11,0,11,0,1,,,,,,,,,,
,,,,6643ca14c53f7ffbef7b9917,A,2024-07-07_11h24.59.429,Slot Machine Game,2023.1.3,Win32,8.992805755,,,,,,,,,,,,,,,,,,,,,,,,,,,,,,,,650,,,,,,,,,,,,,,,,3,3,,,412.7502,12,right,0.01,,0.5,0.3,"[3,1,2]",0.826066332,stimuli/card_10_transparent.png,10,12,0,12,0,1,,,,,,,,,,
,,,,6643ca14c53f7ffbef7b9917,A,2024-07-07_11h24.59.429,Slot Machine Game,2023.1.3,Win32,8.992805755,,,,,,,,,,,,,,,,,,,,,,,,,,,,,,,,750,,,,,,,,,,,,,,,,3,3,,,414.2537,13,up,0.1432,,1.5,0.3,"[3,1,2]",0.762872214,stimuli/card_100_transparent.png,100,13,0,13,0,1,,,,,,,,,,
,,,,6643ca14c53f7ffbef7b9917,A,2024-07-07_11h24.59.429,Slot Machine Game,2023.1.3,Win32,8.992805755,,,,,,,,,,,,,,,,,,,,,,,,,,,,,,,,850,,,,,,,,,,,,,,,,3,3,,,416.9152,14,up,0.0075,,1,0.3,"[3,1,2]",0.433493882,stimuli/card_100_transparent.png,100,14,0,14,0,1,,,,,,,,,,
,,,,6643ca14c53f7ffbef7b9917,A,2024-07-07_11h24.59.429,Slot Machine Game,2023.1.3,Win32,8.992805755,,,,,,,,,,,,,,,,,,,,,,,,,,,,,,,,,,,418.853,,,,,,,,,,,,,,,,,,,,,,,,,,,,,,,,,"[840,920,850]",2,0,2,0,1,,,,
,,,,6643ca14c53f7ffbef7b9917,A,2024-07-07_11h24.59.429,Slot Machine Game,2023.1.3,Win32,8.992805755,,,,,,,,,,,,,,,,,,,,,,,,,,,,,,,,0,,,,,,,,,,,,,,,,4,4,"[7,15]","[[2,3,1],[1,2,3]]",423.8957,0,left,0.4302,,1,0.3,"[2,3,1]",0.000549458,stimuli/card_0_transparent.png,0,0,0,0,0,1,,,,,,,,,,
,,,,6643ca14c53f7ffbef7b9917,A,2024-07-07_11h24.59.429,Slot Machine Game,2023.1.3,Win32,8.992805755,,,,,,,,,,,,,,,,,,,,,,,,,,,,,,,,100,,,,,,,,,,,,,,,,4,4,,,426.2209,1,up,0.0087,,1,0.3,"[2,3,1]",0.065825645,stimuli/card_100_transparent.png,100,1,0,1,0,1,,,,,,,,,,
,,,,6643ca14c53f7ffbef7b9917,A,2024-07-07_11h24.59.429,Slot Machine Game,2023.1.3,Win32,8.992805755,,,,,,,,,,,,,,,,,,,,,,,,,,,,,,,,100,,,,,,,,,,,,,,,,4,4,,,428.1131,2,up,0.4465,,0.5,0.3,"[2,3,1]",0.868961637,stimuli/card_0_transparent.png,0,2,0,2,0,1,,,,,,,,,,
,,,,6643ca14c53f7ffbef7b9917,A,2024-07-07_11h24.59.429,Slot Machine Game,2023.1.3,Win32,8.992805755,,,,,,,,,,,,,,,,,,,,,,,,,,,,,,,,110,,,,,,,,,,,,,,,,4,4,,,430.0669,3,right,0.008,,1,0.3,"[2,3,1]",0.135359236,stimuli/card_10_transparent.png,10,3,0,3,0,1,,,,,,,,,,
,,,,6643ca14c53f7ffbef7b9917,A,2024-07-07_11h24.59.429,Slot Machine Game,2023.1.3,Win32,8.992805755,,,,,,,,,,,,,,,,,,,,,,,,,,,,,,,,110,,,,,,,,,,,,,,,,4,4,,,431.9567,4,up,0.293,,0.5,0.3,"[2,3,1]",0.81447935,stimuli/card_0_transparent.png,0,4,0,4,0,1,,,,,,,,,,
,,,,6643ca14c53f7ffbef7b9917,A,2024-07-07_11h24.59.429,Slot Machine Game,2023.1.3,Win32,8.992805755,,,,,,,,,,,,,,,,,,,,,,,,,,,,,,,,120,,,,,,,,,,,,,,,,4,4,,,433.7038,5,left,0.1472,,1.5,0.3,"[2,3,1]",0.538657132,stimuli/card_10_transparent.png,10,5,0,5,0,1,,,,,,,,,,
,,,,6643ca14c53f7ffbef7b9917,A,2024-07-07_11h24.59.429,Slot Machine Game,2023.1.3,Win32,8.992805755,,,,,,,,,,,,,,,,,,,,,,,,,,,,,,,,220,,,,,,,,,,,,,,,,4,4,,,436.3975,6,right,0.008,,1.5,0.3,"[2,3,1]",0.951112476,stimuli/card_100_transparent.png,100,6,0,6,0,1,,,,,,,,,,
,,,,6643ca14c53f7ffbef7b9917,A,2024-07-07_11h24.59.429,Slot Machine Game,2023.1.3,Win32,8.992805755,,,,,,,,,,,,,,,,,,,,,,,,,,,,,,,,220,,,,,,,,,,,,,,,,4,4,,,438.9144,7,right,0.0079,,0.5,0.3,"[1,2,3]",0.837761765,stimuli/card_0_transparent.png,0,7,0,7,0,1,,,,,,,,,,
,,,,6643ca14c53f7ffbef7b9917,A,2024-07-07_11h24.59.429,Slot Machine Game,2023.1.3,Win32,8.992805755,,,,,,,,,,,,,,,,,,,,,,,,,,,,,,,,230,,,,,,,,,,,,,,,,4,4,,,440.3584,8,up,0.5808,,1,0.3,"[1,2,3]",0.817036449,stimuli/card_10_transparent.png,10,8,0,8,0,1,,,,,,,,,,
,,,,6643ca14c53f7ffbef7b9917,A,2024-07-07_11h24.59.429,Slot Machine Game,2023.1.3,Win32,8.992805755,,,,,,,,,,,,,,,,,,,,,,,,,,,,,,,,330,,,,,,,,,,,,,,,,4,4,,,442.8637,9,left,0.575,0.0002,1,0.3,"[1,2,3]",0.706333422,stimuli/card_100_transparent.png,100,9,0,9,0,1,,,,,,,,,,
,,,,6643ca14c53f7ffbef7b9917,A,2024-07-07_11h24.59.429,Slot Machine Game,2023.1.3,Win32,8.992805755,,,,,,,,,,,,,,,,,,,,,,,,,,,,,,,,340,,,,,,,,,,,,,,,,4,4,,,445.34,10,left,0.0085,,0.5,0.3,"[1,2,3]",0.148018317,stimuli/card_10_transparent.png,10,10,0,10,0,1,,,,,,,,,,
,,,,6643ca14c53f7ffbef7b9917,A,2024-07-07_11h24.59.429,Slot Machine Game,2023.1.3,Win32,8.992805755,,,,,,,,,,,,,,,,,,,,,,,,,,,,,,,,350,,,,,,,,,,,,,,,,4,4,,,446.7756,11,up,0.1636,,0.5,0.3,"[1,2,3]",0.804265948,stimuli/card_10_transparent.png,10,11,0,11,0,1,,,,,,,,,,
,,,,6643ca14c53f7ffbef7b9917,A,2024-07-07_11h24.59.429,Slot Machine Game,2023.1.3,Win32,8.992805755,,,,,,,,,,,,,,,,,,,,,,,,,,,,,,,,350,,,,,,,,,,,,,,,,4,4,,,448.4017,12,right,0.1473,,0.5,0.3,"[1,2,3]",0.730668817,stimuli/card_0_transparent.png,0,12,0,12,0,1,,,,,,,,,,
,,,,6643ca14c53f7ffbef7b9917,A,2024-07-07_11h24.59.429,Slot Machine Game,2023.1.3,Win32,8.992805755,,,,,,,,,,,,,,,,,,,,,,,,,,,,,,,,450,,,,,,,,,,,,,,,,4,4,,,450.0072,13,left,0.5677,9.99999E-05,1,0.3,"[1,2,3]",0.731068545,stimuli/card_100_transparent.png,100,13,0,13,0,1,,,,,,,,,,
,,,,6643ca14c53f7ffbef7b9917,A,2024-07-07_11h24.59.429,Slot Machine Game,2023.1.3,Win32,8.992805755,,,,,,,,,,,,,,,,,,,,,,,,,,,,,,,,450,,,,,,,,,,,,,,,,4,4,,,452.4615,14,left,0.1478,,1,0.3,"[1,2,3]",0.097668384,stimuli/card_0_transparent.png,0,14,0,14,0,1,,,,,,,,,,
,,,,6643ca14c53f7ffbef7b9917,A,2024-07-07_11h24.59.429,Slot Machine Game,2023.1.3,Win32,8.992805755,,,,,,,,,,,,,,,,,,,,,,,,,,,,,,,,,,,454.6175,,,,,,,,,,,,,,,,,,,,,,,,,,,,,,,,,"[840,920,850,450]",3,0,3,0,1,,,,
,,,,6643ca14c53f7ffbef7b9917,A,2024-07-07_11h24.59.429,Slot Machine Game,2023.1.3,Win32,8.992805755,,,,,,,,,,,,,,,,,,,,,,,,,,,,,,,,10,,,,,,,,,,,,,,,,5,5,"[5,15]","[[1,2,3],[3,1,2]]",459.5588,0,up,0.2975,,1,0.3,"[1,2,3]",0.964280081,stimuli/card_10_transparent.png,10,0,0,0,0,1,,,,,,,,,,
,,,,6643ca14c53f7ffbef7b9917,A,2024-07-07_11h24.59.429,Slot Machine Game,2023.1.3,Win32,8.992805755,,,,,,,,,,,,,,,,,,,,,,,,,,,,,,,,10,,,,,,,,,,,,,,,,5,5,,,461.8567,1,right,0.8642,,0.5,0.3,"[1,2,3]",0.257789795,stimuli/card_0_transparent.png,0,1,0,1,0,1,,,,,,,,,,
,,,,6643ca14c53f7ffbef7b9917,A,2024-07-07_11h24.59.429,Slot Machine Game,2023.1.3,Win32,8.992805755,,,,,,,,,,,,,,,,,,,,,,,,,,,,,,,,20,,,,,,,,,,,,,,,,5,5,,,464.1434,2,left,0.0068,,1,0.3,"[1,2,3]",0.183107853,stimuli/card_10_transparent.png,10,2,0,2,0,1,,,,,,,,,,
,,,,6643ca14c53f7ffbef7b9917,A,2024-07-07_11h24.59.429,Slot Machine Game,2023.1.3,Win32,8.992805755,,,,,,,,,,,,,,,,,,,,,,,,,,,,,,,,120,,,,,,,,,,,,,,,,5,5,,,466.08,3,left,0.861,,1,0.3,"[1,2,3]",0.997558539,stimuli/card_100_transparent.png,100,3,0,3,0,1,,,,,,,,,,
,,,,6643ca14c53f7ffbef7b9917,A,2024-07-07_11h24.59.429,Slot Machine Game,2023.1.3,Win32,8.992805755,,,,,,,,,,,,,,,,,,,,,,,,,,,,,,,,220,,,,,,,,,,,,,,,,5,5,,,468.8971,4,left,0.0084,,1,0.3,"[1,2,3]",0.603374825,stimuli/card_100_transparent.png,100,4,0,4,0,1,,,,,,,,,,
,,,,6643ca14c53f7ffbef7b9917,A,2024-07-07_11h24.59.429,Slot Machine Game,2023.1.3,Win32,8.992805755,,,,,,,,,,,,,,,,,,,,,,,,,,,,,,,,220,,,,,,,,,,,,,,,,5,5,,,470.8244,5,left,0.007,,0.5,0.3,"[3,1,2]",0.948058044,stimuli/card_0_transparent.png,0,5,0,5,0,1,,,,,,,,,,
,,,,6643ca14c53f7ffbef7b9917,A,2024-07-07_11h24.59.429,Slot Machine Game,2023.1.3,Win32,8.992805755,,,,,,,,,,,,,,,,,,,,,,,,,,,,,,,,230,,,,,,,,,,,,,,,,5,5,,,472.2896,6,right,1.1447,,1,0.3,"[3,1,2]",0.722427947,stimuli/card_10_transparent.png,10,6,0,6,0,1,,,,,,,,,,
,,,,6643ca14c53f7ffbef7b9917,A,2024-07-07_11h24.59.429,Slot Machine Game,2023.1.3,Win32,8.992805755,,,,,,,,,,,,,,,,,,,,,,,,,,,,,,,,330,,,,,,,,,,,,,,,,5,5,,,475.3641,7,up,0.88,,1.5,0.3,"[3,1,2]",0.326960095,stimuli/card_100_transparent.png,100,7,0,7,0,1,,,,,,,,,,
,,,,6643ca14c53f7ffbef7b9917,A,2024-07-07_11h24.59.429,Slot Machine Game,2023.1.3,Win32,8.992805755,,,,,,,,,,,,,,,,,,,,,,,,,,,,,,,,430,,,,,,,,,,,,,,,,5,5,,,478.7447,8,up,0.5678,,1.5,0.3,"[3,1,2]",0.241633281,stimuli/card_100_transparent.png,100,8,0,8,0,1,,,,,,,,,,
,,,,6643ca14c53f7ffbef7b9917,A,2024-07-07_11h24.59.429,Slot Machine Game,2023.1.3,Win32,8.992805755,,,,,,,,,,,,,,,,,,,,,,,,,,,,,,,,430,,,,,,,,,,,,,,,,5,5,,,481.8261,9,left,1.1514,,0.5,0.3,"[3,1,2]",0.959377002,stimuli/card_0_transparent.png,0,9,0,9,0,1,,,,,,,,,,
,,,,6643ca14c53f7ffbef7b9917,A,2024-07-07_11h24.59.429,Slot Machine Game,2023.1.3,Win32,8.992805755,,,,,,,,,,,,,,,,,,,,,,,,,,,,,,,,440,,,,,,,,,,,,,,,,5,5,,,484.4266,10,right,0.1468,,1.5,0.3,"[3,1,2]",0.49290111,stimuli/card_10_transparent.png,10,10,0,10,0,1,,,,,,,,,,
,,,,6643ca14c53f7ffbef7b9917,A,2024-07-07_11h24.59.429,Slot Machine Game,2023.1.3,Win32,8.992805755,,,,,,,,,,,,,,,,,,,,,,,,,,,,,,,,540,,,,,,,,,,,,,,,,5,5,,,487.0619,11,up,0.0068,,1,0.3,"[3,1,2]",0.363667337,stimuli/card_100_transparent.png,100,11,0,11,0,1,,,,,,,,,,
,,,,6643ca14c53f7ffbef7b9917,A,2024-07-07_11h24.59.429,Slot Machine Game,2023.1.3,Win32,8.992805755,,,,,,,,,,,,,,,,,,,,,,,,,,,,,,,,640,,,,,,,,,,,,,,,,5,5,,,489.0944,12,up,0.0084,,0.5,0.3,"[3,1,2]",0.310455363,stimuli/card_100_transparent.png,100,12,0,12,0,1,,,,,,,,,,
,,,,6643ca14c53f7ffbef7b9917,A,2024-07-07_11h24.59.429,Slot Machine Game,2023.1.3,Win32,8.992805755,,,,,,,,,,,,,,,,,,,,,,,,,,,,,,,,650,,,,,,,,,,,,,,,,5,5,,,490.5521,13,right,0.7295,,1.5,0.3,"[3,1,2]",0.560832761,stimuli/card_10_transparent.png,10,13,0,13,0,1,,,,,,,,,,
,,,,6643ca14c53f7ffbef7b9917,A,2024-07-07_11h24.59.429,Slot Machine Game,2023.1.3,Win32,8.992805755,,,,,,,,,,,,,,,,,,,,,,,,,,,,,,,,650,,,,,,,,,,,,,,,,5,5,,,493.6931,14,left,0.586,,0.5,0.3,"[3,1,2]",0.853331145,stimuli/card_0_transparent.png,0,14,0,14,0,1,,,,,,,,,,
,,,,6643ca14c53f7ffbef7b9917,A,2024-07-07_11h24.59.429,Slot Machine Game,2023.1.3,Win32,8.992805755,,,,,,,,,,,,,,,,,,,,,,,,,,,,,,,,,,,495.7204,,,,,,,,,,,,,,,,,,,,,,,,,,,,,,,,,"[840,920,850,450,650]",4,0,4,0,1,,,,
,,,,6643ca14c53f7ffbef7b9917,A,2024-07-07_11h24.59.429,Slot Machine Game,2023.1.3,Win32,8.992805755,,,,,,,,,,,,,,,,,,,,,,,,,,,,,,,,0,,,,,,,,,,,,,,,,6,6,"[4,10,15]","[[2,3,1],[1,3,2],[3,2,1]]",500.6419,0,up,0.1461,,0.5,0.3,"[2,3,1]",0.438369242,stimuli/card_0_transparent.png,0,0,0,0,0,1,,,,,,,,,,
,,,,6643ca14c53f7ffbef7b9917,A,2024-07-07_11h24.59.429,Slot Machine Game,2023.1.3,Win32,8.992805755,,,,,,,,,,,,,,,,,,,,,,,,,,,,,,,,0,,,,,,,,,,,,,,,,6,6,,,502.2012,1,up,0.606,,0.5,0.3,"[2,3,1]",0.655442106,stimuli/card_0_transparent.png,0,1,0,1,0,1,,,,,,,,,,
,,,,6643ca14c53f7ffbef7b9917,A,2024-07-07_11h24.59.429,Slot Machine Game,2023.1.3,Win32,8.992805755,,,,,,,,,,,,,,,,,,,,,,,,,,,,,,,,10,,,,,,,,,,,,,,,,6,6,,,504.2494,2,left,0.724,,1,0.3,"[2,3,1]",0.203590131,stimuli/card_10_transparent.png,10,2,0,2,0,1,,,,,,,,,,
,,,,6643ca14c53f7ffbef7b9917,A,2024-07-07_11h24.59.429,Slot Machine Game,2023.1.3,Win32,8.992805755,,,,,,,,,,,,,,,,,,,,,,,,,,,,,,,,110,,,,,,,,,,,,,,,,6,6,,,506.8696,3,right,0.0088,,1.5,0.3,"[2,3,1]",0.741948521,stimuli/card_100_transparent.png,100,3,0,3,0,1,,,,,,,,,,
,,,,6643ca14c53f7ffbef7b9917,A,2024-07-07_11h24.59.429,Slot Machine Game,2023.1.3,Win32,8.992805755,,,,,,,,,,,,,,,,,,,,,,,,,,,,,,,,120,,,,,,,,,,,,,,,,6,6,,,509.3803,4,right,0.0078,,1,0.3,"[1,3,2]",0.812675261,stimuli/card_10_transparent.png,10,4,0,4,0,1,,,,,,,,,,
,,,,6643ca14c53f7ffbef7b9917,A,2024-07-07_11h24.59.429,Slot Machine Game,2023.1.3,Win32,8.992805755,,,,,,,,,,,,,,,,,,,,,,,,,,,,,,,,120,,,,,,,,,,,,,,,,6,6,,,511.2946,5,up,0.5966,,1.5,0.3,"[1,3,2]",0.838713497,stimuli/card_0_transparent.png,0,5,0,5,0,1,,,,,,,,,,
,,,,6643ca14c53f7ffbef7b9917,A,2024-07-07_11h24.59.429,Slot Machine Game,2023.1.3,Win32,8.992805755,,,,,,,,,,,,,,,,,,,,,,,,,,,,,,,,130,,,,,,,,,,,,,,,,6,6,,,514.3055,6,right,0.0079,,1.5,0.3,"[1,3,2]",0.869972425,stimuli/card_10_transparent.png,10,6,0,6,0,1,,,,,,,,,,
,,,,6643ca14c53f7ffbef7b9917,A,2024-07-07_11h24.59.429,Slot Machine Game,2023.1.3,Win32,8.992805755,,,,,,,,,,,,,,,,,,,,,,,,,,,,,,,,230,,,,,,,,,,,,,,,,6,6,,,516.8327,7,left,0.4361,,1,0.3,"[1,3,2]",0.836611112,stimuli/card_100_transparent.png,100,7,0,7,0,1,,,,,,,,,,
,,,,6643ca14c53f7ffbef7b9917,A,2024-07-07_11h24.59.429,Slot Machine Game,2023.1.3,Win32,8.992805755,,,,,,,,,,,,,,,,,,,,,,,,,,,,,,,,230,,,,,,,,,,,,,,,,6,6,,,519.1599,8,left,0.0079,,1,0.3,"[1,3,2]",0.02651926,stimuli/card_0_transparent.png,0,8,0,8,0,1,,,,,,,,,,
,,,,6643ca14c53f7ffbef7b9917,A,2024-07-07_11h24.59.429,Slot Machine Game,2023.1.3,Win32,8.992805755,,,,,,,,,,,,,,,,,,,,,,,,,,,,,,,,230,,,,,,,,,,,,,,,,6,6,,,521.2081,9,up,0.0077,,0.5,0.3,"[1,3,2]",0.367610701,stimuli/card_0_transparent.png,0,9,0,9,0,1,,,,,,,,,,
,,,,6643ca14c53f7ffbef7b9917,A,2024-07-07_11h24.59.429,Slot Machine Game,2023.1.3,Win32,8.992805755,,,,,,,,,,,,,,,,,,,,,,,,,,,,,,,,230,,,,,,,,,,,,,,,,6,6,,,522.6464,10,left,0.3081,,1,0.3,"[3,2,1]",0.675239392,stimuli/card_0_transparent.png,0,10,0,10,0,1,,,,,,,,,,
,,,,6643ca14c53f7ffbef7b9917,A,2024-07-07_11h24.59.429,Slot Machine Game,2023.1.3,Win32,8.992805755,,,,,,,,,,,,,,,,,,,,,,,,,,,,,,,,330,,,,,,,,,,,,,,,,6,6,,,524.8799,11,right,0.0074,,1,0.3,"[3,2,1]",0.591032665,stimuli/card_100_transparent.png,100,11,0,11,0,1,,,,,,,,,,
,,,,6643ca14c53f7ffbef7b9917,A,2024-07-07_11h24.59.429,Slot Machine Game,2023.1.3,Win32,8.992805755,,,,,,,,,,,,,,,,,,,,,,,,,,,,,,,,430,,,,,,,,,,,,,,,,6,6,,,526.7977,12,right,0.0099,,1,0.3,"[3,2,1]",0.606881695,stimuli/card_100_transparent.png,100,12,0,12,0,1,,,,,,,,,,
,,,,6643ca14c53f7ffbef7b9917,A,2024-07-07_11h24.59.429,Slot Machine Game,2023.1.3,Win32,8.992805755,,,,,,,,,,,,,,,,,,,,,,,,,,,,,,,,530,,,,,,,,,,,,,,,,6,6,,,528.8589,13,right,0.008,,1,0.3,"[3,2,1]",0.615097004,stimuli/card_100_transparent.png,100,13,0,13,0,1,,,,,,,,,,
,,,,6643ca14c53f7ffbef7b9917,A,2024-07-07_11h24.59.429,Slot Machine Game,2023.1.3,Win32,8.992805755,,,,,,,,,,,,,,,,,,,,,,,,,,,,,,,,630,,,,,,,,,,,,,,,,6,6,,,530.93,14,right,0.5713,,1,0.3,"[3,2,1]",0.320239236,stimuli/card_100_transparent.png,100,14,0,14,0,1,,,,,,,,,,
,,,,6643ca14c53f7ffbef7b9917,A,2024-07-07_11h24.59.429,Slot Machine Game,2023.1.3,Win32,8.992805755,,,,,,,,,,,,,,,,,,,,,,,,,,,,,,,,,,,533.5554,,,,,,,,,,,,,,,,,,,,,,,,,,,,,,,,,"[840,920,850,450,650,630]",5,0,5,0,1,,,,
,,,,6643ca14c53f7ffbef7b9917,A,2024-07-07_11h24.59.429,Slot Machine Game,2023.1.3,Win32,8.992805755,,,,,,,,,,,,,,,,,,,,,,,,,,,,,,,,100,,,,,,,,,,,,,,,,7,7,"[9,15]","[[1,3,2],[2,3,1]]",538.5107,0,left,0.1541,,0.5,0.3,"[1,3,2]",0.500283453,stimuli/card_100_transparent.png,100,0,0,0,0,1,,,,,,,,,,
,,,,6643ca14c53f7ffbef7b9917,A,2024-07-07_11h24.59.429,Slot Machine Game,2023.1.3,Win32,8.992805755,,,,,,,,,,,,,,,,,,,,,,,,,,,,,,,,200,,,,,,,,,,,,,,,,7,7,,,540.1332,1,left,0.7066,,0.5,0.3,"[1,3,2]",0.6586057,stimuli/card_100_transparent.png,100,1,0,1,0,1,,,,,,,,,,
,,,,6643ca14c53f7ffbef7b9917,A,2024-07-07_11h24.59.429,Slot Machine Game,2023.1.3,Win32,8.992805755,,,,,,,,,,,,,,,,,,,,,,,,,,,,,,,,300,,,,,,,,,,,,,,,,7,7,,,542.3253,2,left,0.152,,0.5,0.3,"[1,3,2]",0.61496812,stimuli/card_100_transparent.png,100,2,0,2,0,1,,,,,,,,,,
,,,,6643ca14c53f7ffbef7b9917,A,2024-07-07_11h24.59.429,Slot Machine Game,2023.1.3,Win32,8.992805755,,,,,,,,,,,,,,,,,,,,,,,,,,,,,,,,400,,,,,,,,,,,,,,,,7,7,,,543.9508,3,left,0.1465,,0.5,0.3,"[1,3,2]",0.87045983,stimuli/card_100_transparent.png,100,3,0,3,0,1,,,,,,,,,,
,,,,6643ca14c53f7ffbef7b9917,A,2024-07-07_11h24.59.429,Slot Machine Game,2023.1.3,Win32,8.992805755,,,,,,,,,,,,,,,,,,,,,,,,,,,,,,,,400,,,,,,,,,,,,,,,,7,7,,,545.5765,4,up,1.1297,,1,0.3,"[1,3,2]",0.847544601,stimuli/card_0_transparent.png,0,4,0,4,0,1,,,,,,,,,,
,,,,6643ca14c53f7ffbef7b9917,A,2024-07-07_11h24.59.429,Slot Machine Game,2023.1.3,Win32,8.992805755,,,,,,,,,,,,,,,,,,,,,,,,,,,,,,,,410,,,,,,,,,,,,,,,,7,7,,,548.5906,5,right,0.3073,,1,0.3,"[1,3,2]",0.866928289,stimuli/card_10_transparent.png,10,5,0,5,0,1,,,,,,,,,,
,,,,6643ca14c53f7ffbef7b9917,A,2024-07-07_11h24.59.429,Slot Machine Game,2023.1.3,Win32,8.992805755,,,,,,,,,,,,,,,,,,,,,,,,,,,,,,,,410,,,,,,,,,,,,,,,,7,7,,,550.8267,6,left,0.0066,,0.5,0.3,"[1,3,2]",0.05711196,stimuli/card_0_transparent.png,0,6,0,6,0,1,,,,,,,,,,
,,,,6643ca14c53f7ffbef7b9917,A,2024-07-07_11h24.59.429,Slot Machine Game,2023.1.3,Win32,8.992805755,,,,,,,,,,,,,,,,,,,,,,,,,,,,,,,,410,,,,,,,,,,,,,,,,7,7,,,552.2855,7,up,0.0077,,1,0.3,"[1,3,2]",0.419516734,stimuli/card_0_transparent.png,0,7,0,7,0,1,,,,,,,,,,
,,,,6643ca14c53f7ffbef7b9917,A,2024-07-07_11h24.59.429,Slot Machine Game,2023.1.3,Win32,8.992805755,,,,,,,,,,,,,,,,,,,,,,,,,,,,,,,,420,,,,,,,,,,,,,,,,7,7,,,554.1586,8,right,0.4452,,1.5,0.3,"[1,3,2]",0.442371209,stimuli/card_10_transparent.png,10,8,0,8,0,1,,,,,,,,,,
,,,,6643ca14c53f7ffbef7b9917,A,2024-07-07_11h24.59.429,Slot Machine Game,2023.1.3,Win32,8.992805755,,,,,,,,,,,,,,,,,,,,,,,,,,,,,,,,430,,,,,,,,,,,,,,,,7,7,,,557.1191,9,left,0.0072,,0.5,0.3,"[2,3,1]",0.313445384,stimuli/card_10_transparent.png,10,9,0,9,0,1,,,,,,,,,,
,,,,6643ca14c53f7ffbef7b9917,A,2024-07-07_11h24.59.429,Slot Machine Game,2023.1.3,Win32,8.992805755,,,,,,,,,,,,,,,,,,,,,,,,,,,,,,,,440,,,,,,,,,,,,,,,,7,7,,,558.5553,10,left,0.1486,,1,0.3,"[2,3,1]",0.527941669,stimuli/card_10_transparent.png,10,10,0,10,0,1,,,,,,,,,,
,,,,6643ca14c53f7ffbef7b9917,A,2024-07-07_11h24.59.429,Slot Machine Game,2023.1.3,Win32,8.992805755,,,,,,,,,,,,,,,,,,,,,,,,,,,,,,,,440,,,,,,,,,,,,,,,,7,7,,,560.6098,11,up,0.0074,,0.5,0.3,"[2,3,1]",0.421708434,stimuli/card_0_transparent.png,0,11,0,11,0,1,,,,,,,,,,
,,,,6643ca14c53f7ffbef7b9917,A,2024-07-07_11h24.59.429,Slot Machine Game,2023.1.3,Win32,8.992805755,,,,,,,,,,,,,,,,,,,,,,,,,,,,,,,,450,,,,,,,,,,,,,,,,7,7,,,562.0546,12,left,0.4322,,1,0.3,"[2,3,1]",0.606439893,stimuli/card_10_transparent.png,10,12,0,12,0,1,,,,,,,,,,
,,,,6643ca14c53f7ffbef7b9917,A,2024-07-07_11h24.59.429,Slot Machine Game,2023.1.3,Win32,8.992805755,,,,,,,,,,,,,,,,,,,,,,,,,,,,,,,,550,,,,,,,,,,,,,,,,7,7,,,564.5324,13,right,0.2872,,1.5,0.3,"[2,3,1]",0.772154047,stimuli/card_100_transparent.png,100,13,0,13,0,1,,,,,,,,,,
,,,,6643ca14c53f7ffbef7b9917,A,2024-07-07_11h24.59.429,Slot Machine Game,2023.1.3,Win32,8.992805755,,,,,,,,,,,,,,,,,,,,,,,,,,,,,,,,650,,,,,,,,,,,,,,,,7,7,,,567.3066,14,right,0.0088,,1.5,0.3,"[2,3,1]",0.344582111,stimuli/card_100_transparent.png,100,14,0,14,0,1,,,,,,,,,,
,,,,6643ca14c53f7ffbef7b9917,A,2024-07-07_11h24.59.429,Slot Machine Game,2023.1.3,Win32,8.992805755,,,,,,,,,,,,,,,,,,,,,,,,,,,,,,,,,,,569.7897,,,,,,,,,,,,,,,,,,,,,,,,,,,,,,,,,"[840,920,850,450,650,630,650]",6,0,6,0,1,,,,
,,,,6643ca14c53f7ffbef7b9917,A,2024-07-07_11h24.59.429,Slot Machine Game,2023.1.3,Win32,8.992805755,,,,,,,,,,,,,,,,,,,,,,,,,,,,,,,,10,,,,,,,,,,,,,,,,8,8,"[11,15]","[[2,1,3],[1,2,3]]",574.7654,0,left,0.4468,,1,0.3,"[2,1,3]",0.581199241,stimuli/card_10_transparent.png,10,0,0,0,0,1,,,,,,,,,,
,,,,6643ca14c53f7ffbef7b9917,A,2024-07-07_11h24.59.429,Slot Machine Game,2023.1.3,Win32,8.992805755,,,,,,,,,,,,,,,,,,,,,,,,,,,,,,,,10,,,,,,,,,,,,,,,,8,8,,,577.1157,1,right,0.0085,,1,0.3,"[2,1,3]",0.722115548,stimuli/card_0_transparent.png,0,1,0,1,0,1,,,,,,,,,,
,,,,6643ca14c53f7ffbef7b9917,A,2024-07-07_11h24.59.429,Slot Machine Game,2023.1.3,Win32,8.992805755,,,,,,,,,,,,,,,,,,,,,,,,,,,,,,,,110,,,,,,,,,,,,,,,,8,8,,,579.146,2,up,1.4493,,1.5,0.3,"[2,1,3]",0.87616867,stimuli/card_100_transparent.png,100,2,0,2,0,1,,,,,,,,,,
,,,,6643ca14c53f7ffbef7b9917,A,2024-07-07_11h24.59.429,Slot Machine Game,2023.1.3,Win32,8.992805755,,,,,,,,,,,,,,,,,,,,,,,,,,,,,,,,210,,,,,,,,,,,,,,,,8,8,,,583.0832,3,up,0.0071,,1,0.3,"[2,1,3]",0.257127403,stimuli/card_100_transparent.png,100,3,0,3,0,1,,,,,,,,,,
,,,,6643ca14c53f7ffbef7b9917,A,2024-07-07_11h24.59.429,Slot Machine Game,2023.1.3,Win32,8.992805755,,,,,,,,,,,,,,,,,,,,,,,,,,,,,,,,210,,,,,,,,,,,,,,,,8,8,,,585.1384,4,up,0.4313,,1.5,0.3,"[2,1,3]",0.012113804,stimuli/card_0_transparent.png,0,4,0,4,0,1,,,,,,,,,,
,,,,6643ca14c53f7ffbef7b9917,A,2024-07-07_11h24.59.429,Slot Machine Game,2023.1.3,Win32,8.992805755,,,,,,,,,,,,,,,,,,,,,,,,,,,,,,,,220,,,,,,,,,,,,,,,,8,8,,,588.0646,5,left,0.0094,,1,0.3,"[2,1,3]",0.965913367,stimuli/card_10_transparent.png,10,5,0,5,0,1,,,,,,,,,,
,,,,6643ca14c53f7ffbef7b9917,A,2024-07-07_11h24.59.429,Slot Machine Game,2023.1.3,Win32,8.992805755,,,,,,,,,,,,,,,,,,,,,,,,,,,,,,,,320,,,,,,,,,,,,,,,,8,8,,,589.9512,6,left,0.735,,1.5,0.3,"[2,1,3]",0.114350819,stimuli/card_100_transparent.png,100,6,0,6,0,1,,,,,,,,,,
,,,,6643ca14c53f7ffbef7b9917,A,2024-07-07_11h24.59.429,Slot Machine Game,2023.1.3,Win32,8.992805755,,,,,,,,,,,,,,,,,,,,,,,,,,,,,,,,330,,,,,,,,,,,,,,,,8,8,,,593.1953,7,left,0.0071,,1.5,0.3,"[2,1,3]",0.46383951,stimuli/card_10_transparent.png,10,7,0,7,0,1,,,,,,,,,,
,,,,6643ca14c53f7ffbef7b9917,A,2024-07-07_11h24.59.429,Slot Machine Game,2023.1.3,Win32,8.992805755,,,,,,,,,,,,,,,,,,,,,,,,,,,,,,,,330,,,,,,,,,,,,,,,,8,8,,,595.6738,8,right,0.1522,,1.5,0.3,"[2,1,3]",0.51133682,stimuli/card_0_transparent.png,0,8,0,8,0,1,,,,,,,,,,
,,,,6643ca14c53f7ffbef7b9917,A,2024-07-07_11h24.59.429,Slot Machine Game,2023.1.3,Win32,8.992805755,,,,,,,,,,,,,,,,,,,,,,,,,,,,,,,,430,,,,,,,,,,,,,,,,8,8,,,598.3288,9,up,0.4257,,0.5,0.3,"[2,1,3]",0.641781503,stimuli/card_100_transparent.png,100,9,0,9,0,1,,,,,,,,,,
,,,,6643ca14c53f7ffbef7b9917,A,2024-07-07_11h24.59.429,Slot Machine Game,2023.1.3,Win32,8.992805755,,,,,,,,,,,,,,,,,,,,,,,,,,,,,,,,530,,,,,,,,,,,,,,,,8,8,,,600.1953,10,up,0.0083,,1,0.3,"[2,1,3]",0.30063587,stimuli/card_100_transparent.png,100,10,0,10,0,1,,,,,,,,,,
,,,,6643ca14c53f7ffbef7b9917,A,2024-07-07_11h24.59.429,Slot Machine Game,2023.1.3,Win32,8.992805755,,,,,,,,,,,,,,,,,,,,,,,,,,,,,,,,540,,,,,,,,,,,,,,,,8,8,,,602.2498,11,up,0.4324,,0.5,0.3,"[1,2,3]",0.866622758,stimuli/card_10_transparent.png,10,11,0,11,0,1,,,,,,,,,,
,,,,6643ca14c53f7ffbef7b9917,A,2024-07-07_11h24.59.429,Slot Machine Game,2023.1.3,Win32,8.992805755,,,,,,,,,,,,,,,,,,,,,,,,,,,,,,,,540,,,,,,,,,,,,,,,,8,8,,,604.1743,12,right,0.5834,,1.5,0.3,"[1,2,3]",0.295071142,stimuli/card_0_transparent.png,0,12,0,12,0,1,,,,,,,,,,
,,,,6643ca14c53f7ffbef7b9917,A,2024-07-07_11h24.59.429,Slot Machine Game,2023.1.3,Win32,8.992805755,,,,,,,,,,,,,,,,,,,,,,,,,,,,,,,,640,,,,,,,,,,,,,,,,8,8,,,607.2442,13,left,0.0077,,0.5,0.3,"[1,2,3]",0.803973297,stimuli/card_100_transparent.png,100,13,0,13,0,1,,,,,,,,,,
,,,,6643ca14c53f7ffbef7b9917,A,2024-07-07_11h24.59.429,Slot Machine Game,2023.1.3,Win32,8.992805755,,,,,,,,,,,,,,,,,,,,,,,,,,,,,,,,740,,,,,,,,,,,,,,,,8,8,,,608.6988,14,left,0.0075,,1,0.3,"[1,2,3]",0.395898915,stimuli/card_100_transparent.png,100,14,0,14,0,1,,,,,,,,,,
,,,,6643ca14c53f7ffbef7b9917,A,2024-07-07_11h24.59.429,Slot Machine Game,2023.1.3,Win32,8.992805755,,,,,,,,,,,,,,,,,,,,,,,,,,,,,,,,,,,610.6142,,,,,,,,,,,,,,,,,,,,,,,,,,,,,,,,,"[840,920,850,450,650,630,650,740]",7,0,7,0,1,,,,
,,,,6643ca14c53f7ffbef7b9917,A,2024-07-07_11h24.59.429,Slot Machine Game,2023.1.3,Win32,8.992805755,,,,,,,,,,,,,,,,,,,,,,,,,,,,,,,,0,,,,,,,,,,,,,,,,9,9,"[8,15]","[[3,2,1],[3,1,2]]",615.617,0,left,0.7272,,1,0.3,"[3,2,1]",0.46712526,stimuli/card_0_transparent.png,0,0,0,0,0,1,,,,,,,,,,
,,,,6643ca14c53f7ffbef7b9917,A,2024-07-07_11h24.59.429,Slot Machine Game,2023.1.3,Win32,8.992805755,,,,,,,,,,,,,,,,,,,,,,,,,,,,,,,,10,,,,,,,,,,,,,,,,9,9,,,618.2511,1,up,0.7142,,1.5,0.3,"[3,2,1]",0.32674739,stimuli/card_10_transparent.png,10,1,0,1,0,1,,,,,,,,,,
,,,,6643ca14c53f7ffbef7b9917,A,2024-07-07_11h24.59.429,Slot Machine Game,2023.1.3,Win32,8.992805755,,,,,,,,,,,,,,,,,,,,,,,,,,,,,,,,110,,,,,,,,,,,,,,,,9,9,,,621.5108,2,right,0.1569,,0.5,0.3,"[3,2,1]",0.825085959,stimuli/card_100_transparent.png,100,2,0,2,0,1,,,,,,,,,,
,,,,6643ca14c53f7ffbef7b9917,A,2024-07-07_11h24.59.429,Slot Machine Game,2023.1.3,Win32,8.992805755,,,,,,,,,,,,,,,,,,,,,,,,,,,,,,,,110,,,,,,,,,,,,,,,,9,9,,,623.1581,3,right,0.0077,,1,0.3,"[3,2,1]",0.083168316,stimuli/card_0_transparent.png,0,3,0,3,0,1,,,,,,,,,,
,,,,6643ca14c53f7ffbef7b9917,A,2024-07-07_11h24.59.429,Slot Machine Game,2023.1.3,Win32,8.992805755,,,,,,,,,,,,,,,,,,,,,,,,,,,,,,,,120,,,,,,,,,,,,,,,,9,9,,,625.0981,4,up,0.2911,,0.5,0.3,"[3,2,1]",0.485488083,stimuli/card_10_transparent.png,10,4,0,4,0,1,,,,,,,,,,
,,,,6643ca14c53f7ffbef7b9917,A,2024-07-07_11h24.59.429,Slot Machine Game,2023.1.3,Win32,8.992805755,,,,,,,,,,,,,,,,,,,,,,,,,,,,,,,,120,,,,,,,,,,,,,,,,9,9,,,626.832,5,left,0.1524,,1.5,0.3,"[3,2,1]",0.654312024,stimuli/card_0_transparent.png,0,5,0,5,0,1,,,,,,,,,,
,,,,6643ca14c53f7ffbef7b9917,A,2024-07-07_11h24.59.429,Slot Machine Game,2023.1.3,Win32,8.992805755,,,,,,,,,,,,,,,,,,,,,,,,,,,,,,,,120,,,,,,,,,,,,,,,,9,9,,,629.5159,6,left,0.0079,,1.5,0.3,"[3,2,1]",0.211644072,stimuli/card_0_transparent.png,0,6,0,6,0,1,,,,,,,,,,
,,,,6643ca14c53f7ffbef7b9917,A,2024-07-07_11h24.59.429,Slot Machine Game,2023.1.3,Win32,8.992805755,,,,,,,,,,,,,,,,,,,,,,,,,,,,,,,,130,,,,,,,,,,,,,,,,9,9,,,632.0846,7,up,0.5988,,1.5,0.3,"[3,2,1]",0.507462663,stimuli/card_10_transparent.png,10,7,0,7,0,1,,,,,,,,,,
,,,,6643ca14c53f7ffbef7b9917,A,2024-07-07_11h24.59.429,Slot Machine Game,2023.1.3,Win32,8.992805755,,,,,,,,,,,,,,,,,,,,,,,,,,,,,,,,140,,,,,,,,,,,,,,,,9,9,,,635.182,8,right,0.1574,,0.5,0.3,"[3,1,2]",0.328954564,stimuli/card_10_transparent.png,10,8,0,8,0,1,,,,,,,,,,
,,,,6643ca14c53f7ffbef7b9917,A,2024-07-07_11h24.59.429,Slot Machine Game,2023.1.3,Win32,8.992805755,,,,,,,,,,,,,,,,,,,,,,,,,,,,,,,,240,,,,,,,,,,,,,,,,9,9,,,636.8049,9,up,0.0092,,1.5,0.3,"[3,1,2]",0.333518384,stimuli/card_100_transparent.png,100,9,0,9,0,1,,,,,,,,,,
,,,,6643ca14c53f7ffbef7b9917,A,2024-07-07_11h24.59.429,Slot Machine Game,2023.1.3,Win32,8.992805755,,,,,,,,,,,,,,,,,,,,,,,,,,,,,,,,250,,,,,,,,,,,,,,,,9,9,,,639.295,10,up,0.0081,,1.5,0.3,"[3,1,2]",0.116932028,stimuli/card_10_transparent.png,10,10,0,10,0,1,,,,,,,,,,
,,,,6643ca14c53f7ffbef7b9917,A,2024-07-07_11h24.59.429,Slot Machine Game,2023.1.3,Win32,8.992805755,,,,,,,,,,,,,,,,,,,,,,,,,,,,,,,,250,,,,,,,,,,,,,,,,9,9,,,641.8014,11,left,0.0071,,0.5,0.3,"[3,1,2]",0.87000763,stimuli/card_0_transparent.png,0,11,0,11,0,1,,,,,,,,,,
,,,,6643ca14c53f7ffbef7b9917,A,2024-07-07_11h24.59.429,Slot Machine Game,2023.1.3,Win32,8.992805755,,,,,,,,,,,,,,,,,,,,,,,,,,,,,,,,260,,,,,,,,,,,,,,,,9,9,,,643.2502,12,right,0.0068,,0.5,0.3,"[3,1,2]",0.459152302,stimuli/card_10_transparent.png,10,12,0,12,0,1,,,,,,,,,,
,,,,6643ca14c53f7ffbef7b9917,A,2024-07-07_11h24.59.429,Slot Machine Game,2023.1.3,Win32,8.992805755,,,,,,,,,,,,,,,,,,,,,,,,,,,,,,,,360,,,,,,,,,,,,,,,,9,9,,,644.7161,13,up,0.8734,,0.5,0.3,"[3,1,2]",0.760476899,stimuli/card_100_transparent.png,100,13,0,13,0,1,,,,,,,,,,
,,,,6643ca14c53f7ffbef7b9917,A,2024-07-07_11h24.59.429,Slot Machine Game,2023.1.3,Win32,8.992805755,,,,,,,,,,,,,,,,,,,,,,,,,,,,,,,,460,,,,,,,,,,,,,,,,9,9,,,647.018,14,up,0.0073,,0.5,0.3,"[3,1,2]",0.499368899,stimuli/card_100_transparent.png,100,14,0,14,0,1,,,,,,,,,,
,,,,6643ca14c53f7ffbef7b9917,A,2024-07-07_11h24.59.429,Slot Machine Game,2023.1.3,Win32,8.992805755,,,,,,,,,,,,,,,,,,,,,,,,,,,,,,,,,,,648.4999,,,,,,,,,,,,,,,,,,,,,,,,,,,,,,,,,"[840,920,850,450,650,630,650,740,460]",8,0,8,0,1,,,,
,,,,6643ca14c53f7ffbef7b9917,A,2024-07-07_11h24.59.429,Slot Machine Game,2023.1.3,Win32,8.992805755,,,,,,,,,,,,,,,,,,,,,,,,,,,,,,,,0,,,,,,,,,,,,,,,,10,10,"[10,15]","[[3,1,2],[1,3,2]]",653.4669,0,left,0.1503,,0.5,0.3,"[3,1,2]",0.405860186,stimuli/card_0_transparent.png,0,0,0,0,0,1,,,,,,,,,,
,,,,6643ca14c53f7ffbef7b9917,A,2024-07-07_11h24.59.429,Slot Machine Game,2023.1.3,Win32,8.992805755,,,,,,,,,,,,,,,,,,,,,,,,,,,,,,,,100,,,,,,,,,,,,,,,,10,10,,,655.0699,1,up,0.149,,0.5,0.3,"[3,1,2]",0.691437714,stimuli/card_100_transparent.png,100,1,0,1,0,1,,,,,,,,,,
,,,,6643ca14c53f7ffbef7b9917,A,2024-07-07_11h24.59.429,Slot Machine Game,2023.1.3,Win32,8.992805755,,,,,,,,,,,,,,,,,,,,,,,,,,,,,,,,200,,,,,,,,,,,,,,,,10,10,,,656.6765,2,up,0.0082,,1,0.3,"[3,1,2]",0.851233597,stimuli/card_100_transparent.png,100,2,0,2,0,1,,,,,,,,,,
,,,,6643ca14c53f7ffbef7b9917,A,2024-07-07_11h24.59.429,Slot Machine Game,2023.1.3,Win32,8.992805755,,,,,,,,,,,,,,,,,,,,,,,,,,,,,,,,300,,,,,,,,,,,,,,,,10,10,,,658.5914,3,up,0.007,,1.5,0.3,"[3,1,2]",0.226377387,stimuli/card_100_transparent.png,100,3,0,3,0,1,,,,,,,,,,
,,,,6643ca14c53f7ffbef7b9917,A,2024-07-07_11h24.59.429,Slot Machine Game,2023.1.3,Win32,8.992805755,,,,,,,,,,,,,,,,,,,,,,,,,,,,,,,,310,,,,,,,,,,,,,,,,10,10,,,661.1193,4,right,0.4262,,1.5,0.3,"[3,1,2]",0.238888494,stimuli/card_10_transparent.png,10,4,0,4,0,1,,,,,,,,,,
,,,,6643ca14c53f7ffbef7b9917,A,2024-07-07_11h24.59.429,Slot Machine Game,2023.1.3,Win32,8.992805755,,,,,,,,,,,,,,,,,,,,,,,,,,,,,,,,310,,,,,,,,,,,,,,,,10,10,,,664.0162,5,left,0.1504,,0.5,0.3,"[3,1,2]",0.371619958,stimuli/card_0_transparent.png,0,5,0,5,0,1,,,,,,,,,,
,,,,6643ca14c53f7ffbef7b9917,A,2024-07-07_11h24.59.429,Slot Machine Game,2023.1.3,Win32,8.992805755,,,,,,,,,,,,,,,,,,,,,,,,,,,,,,,,310,,,,,,,,,,,,,,,,10,10,,,665.6317,6,up,0.0073,,0.5,0.3,"[3,1,2]",0.032048619,stimuli/card_0_transparent.png,0,6,0,6,0,1,,,,,,,,,,
,,,,6643ca14c53f7ffbef7b9917,A,2024-07-07_11h24.59.429,Slot Machine Game,2023.1.3,Win32,8.992805755,,,,,,,,,,,,,,,,,,,,,,,,,,,,,,,,310,,,,,,,,,,,,,,,,10,10,,,667.0917,7,left,0.5878,,1,0.3,"[3,1,2]",0.384246357,stimuli/card_0_transparent.png,0,7,0,7,0,1,,,,,,,,,,
,,,,6643ca14c53f7ffbef7b9917,A,2024-07-07_11h24.59.429,Slot Machine Game,2023.1.3,Win32,8.992805755,,,,,,,,,,,,,,,,,,,,,,,,,,,,,,,,320,,,,,,,,,,,,,,,,10,10,,,669.5796,8,right,0.5858,,1,0.3,"[3,1,2]",0.575790108,stimuli/card_10_transparent.png,10,8,0,8,0,1,,,,,,,,,,
,,,,6643ca14c53f7ffbef7b9917,A,2024-07-07_11h24.59.429,Slot Machine Game,2023.1.3,Win32,8.992805755,,,,,,,,,,,,,,,,,,,,,,,,,,,,,,,,320,,,,,,,,,,,,,,,,10,10,,,672.0375,9,left,0.4427,9.99999E-05,1.5,0.3,"[3,1,2]",0.999150727,stimuli/card_0_transparent.png,0,9,0,9,0,1,,,,,,,,,,
,,,,6643ca14c53f7ffbef7b9917,A,2024-07-07_11h24.59.429,Slot Machine Game,2023.1.3,Win32,8.992805755,,,,,,,,,,,,,,,,,,,,,,,,,,,,,,,,320,,,,,,,,,,,,,,,,10,10,,,675.033,10,up,0.0078,,0.5,0.3,"[1,3,2]",0.434027057,stimuli/card_0_transparent.png,0,10,0,10,0,1,,,,,,,,,,
,,,,6643ca14c53f7ffbef7b9917,A,2024-07-07_11h24.59.429,Slot Machine Game,2023.1.3,Win32,8.992805755,,,,,,,,,,,,,,,,,,,,,,,,,,,,,,,,330,,,,,,,,,,,,,,,,10,10,,,676.4866,11,right,0.5871,,0.5,0.3,"[1,3,2]",0.991664381,stimuli/card_10_transparent.png,10,11,0,11,0,1,,,,,,,,,,
,,,,6643ca14c53f7ffbef7b9917,A,2024-07-07_11h24.59.429,Slot Machine Game,2023.1.3,Win32,8.992805755,,,,,,,,,,,,,,,,,,,,,,,,,,,,,,,,430,,,,,,,,,,,,,,,,10,10,,,678.513,12,left,0.0076,0.0002,1.5,0.3,"[1,3,2]",0.542246534,stimuli/card_100_transparent.png,100,12,0,12,0,1,,,,,,,,,,
,,,,6643ca14c53f7ffbef7b9917,A,2024-07-07_11h24.59.429,Slot Machine Game,2023.1.3,Win32,8.992805755,,,,,,,,,,,,,,,,,,,,,,,,,,,,,,,,530,,,,,,,,,,,,,,,,10,10,,,681.0115,13,left,0.007,,0.5,0.3,"[1,3,2]",0.575396938,stimuli/card_100_transparent.png,100,13,0,13,0,1,,,,,,,,,,
,,,,6643ca14c53f7ffbef7b9917,A,2024-07-07_11h24.59.429,Slot Machine Game,2023.1.3,Win32,8.992805755,,,,,,,,,,,,,,,,,,,,,,,,,,,,,,,,630,,,,,,,,,,,,,,,,10,10,,,682.4645,14,left,0.7197,,1,0.3,"[1,3,2]",0.686851906,stimuli/card_100_transparent.png,100,14,0,14,0,1,,,,,,,,,,
,,,,6643ca14c53f7ffbef7b9917,A,2024-07-07_11h24.59.429,Slot Machine Game,2023.1.3,Win32,8.992805755,,,,,,,,,,,,,,,,,,,,,,,,,,,,,,,,,,,685.0799,,,,,,,,,,,,,,,,,,,,,,,,,,,,,,,,,"[840,920,850,450,650,630,650,740,460,630]",9,0,9,0,1,,,,
,,,,6643ca14c53f7ffbef7b9917,A,2024-07-07_11h24.59.429,Slot Machine Game,2023.1.3,Win32,8.992805755,,,,,,,,,,,,,,,,,,,,,,,,,,,,,,,,,,,,,,,,,,,,,,,,,,,,,,,,,,,,,,,,,,,,,,,,,,9,"[840,920,850,450,650,630,650,740,460,630]",4.6,2024-07-07_11h36.33.545
