key_resp_welcome_started,key_resp_welcome_keys,key_resp_welcome_rt,key_resp_welcome_duration,prolific_id,path_id,date,expName,psychopyVersion,OS,frameRate,key_resp_instruction1_started,key_resp_instruction1_keys,key_resp_instruction1_rt,key_resp_instruction1_duration,key_resp_instruction2_started,key_resp_instruction2_keys,key_resp_instruction2_rt,key_resp_instruction2_duration,key_resp_instruction3_started,key_resp_instruction3_keys,key_resp_instruction3_rt,key_resp_instruction3_duration,key_resp_instruction4_started,key_resp_instruction4_keys,key_resp_instruction4_rt,key_resp_instruction4_duration,practiceCondition,practice_reward_seqs,practice_trial_started,practice_trial_num,practice_resp_rt,practice_resp_duration,practice_resp_keys,prac_presentationInterval,"practice_reward_seq: 2,1,3",reward_img,cumulative_reward,trial_reward,practice_trials.thisRepN,practice_trials.thisTrialN,practice_trials.thisN,practice_trials.thisIndex,practice_trials.ran,"practice_reward_seq: 2,3,1",block_break_started,"practice_reward_seq: 1,3,2","practice_reward_seq: 3,1,2",practice_end_time,practice_end_keys,practice_end_rt,practice_end_duration,main_instruction_text_started,block_condition,block_order_indices,main_instruction_keys,main_instruction_rt,main_instruction_duration,block_number,block_assignment,current_condition,main_reward_seqs,main_trial_started,main_trial_num,main_trial_keys,main_trial_rt,main_trial_duration,main_presentationInterval,reward_presentation_time,main_reward_seq,reward_rand_val,main_reward_img,current_reward,main_trials.thisRepN,main_trials.thisTrialN,main_trials.thisN,main_trials.thisIndex,main_trials.ran,block_reward,block.thisRepN,block.thisTrialN,block.thisN,block.thisIndex,block.ran,block_reward.length,block_reward_all,reward_amount,date_end_task
0.0002,d,3.6719,,6643a65c3ea38fe03b60767d,B,2024-06-22_06h23.01.447,Slot Machine Game,2023.1.3,Win32,21.83406114,,,,,,,,,,,,,,,,,,,,,,,,,,,,,,,,,,,,,,,,,,,,,,,,,,,,,,,,,,,,,,,,,,,,,,,,,,,,,
,,,,6643a65c3ea38fe03b60767d,B,2024-06-22_06h23.01.447,Slot Machine Game,2023.1.3,Win32,21.83406114,3.7201,space,27.4312,,,,,,,,,,,,,,,,,,,,,,,,,,,,,,,,,,,,,,,,,,,,,,,,,,,,,,,,,,,,,,,,,,,,,,,,,,
,,,,6643a65c3ea38fe03b60767d,B,2024-06-22_06h23.01.447,Slot Machine Game,2023.1.3,Win32,21.83406114,,,,,31.2191,space,45.0137,,,,,,,,,,,,,,,,,,,,,,,,,,,,,,,,,,,,,,,,,,,,,,,,,,,,,,,,,,,,,,,,,,,,,,
,,,,6643a65c3ea38fe03b60767d,B,2024-06-22_06h23.01.447,Slot Machine Game,2023.1.3,Win32,21.83406114,,,,,,,,,76.305,space,7.6366,,,,,,,,,,,,,,,,,,,,,,,,,,,,,,,,,,,,,,,,,,,,,,,,,,,,,,,,,,,,,,,,,,
,,,,6643a65c3ea38fe03b60767d,B,2024-06-22_06h23.01.447,Slot Machine Game,2023.1.3,Win32,21.83406114,,,,,,,,,,,,,,,,,,,,,,,,,,,,,,,,,,,,,,,,,,,,,,,,,,,,,,,,,,,,,,,,,,,,,,,,,,,,,
,,,,6643a65c3ea38fe03b60767d,B,2024-06-22_06h23.01.447,Slot Machine Game,2023.1.3,Win32,21.83406114,,,,,,,,,,,,,226.3514,space,4.0279,,,,,,,,,,,,,,,,,,,,,,,,,,,,,,,,,,,,,,,,,,,,,,,,,,,,,,,,,,,,,,
,,,,6643a65c3ea38fe03b60767d,B,2024-06-22_06h23.01.447,Slot Machine Game,2023.1.3,Win32,21.83406114,,,,,,,,,,,,,,,,,"[9,15]","[[2,1,3],[2,3,1]]",230.4378,0,1.6149,,left,1,,stimuli/card_100_transparent.png,100,100,0,0,0,0,1,,,,,,,,,,,,,,,,,,,,,,,,,,,,,,,,,,,,,,,,,,,,
,,,,6643a65c3ea38fe03b60767d,B,2024-06-22_06h23.01.447,Slot Machine Game,2023.1.3,Win32,21.83406114,,,,,,,,,,,,,,,,,,,233.8886,1,0.5105,,left,1,,stimuli/card_0_transparent.png,100,0,1,0,1,0,1,,,,,,,,,,,,,,,,,,,,,,,,,,,,,,,,,,,,,,,,,,,,
,,,,6643a65c3ea38fe03b60767d,B,2024-06-22_06h23.01.447,Slot Machine Game,2023.1.3,Win32,21.83406114,,,,,,,,,,,,,,,,,,,236.2651,2,2.0446,,left,0.5,,stimuli/card_10_transparent.png,110,10,2,0,2,0,1,,,,,,,,,,,,,,,,,,,,,,,,,,,,,,,,,,,,,,,,,,,,
,,,,6643a65c3ea38fe03b60767d,B,2024-06-22_06h23.01.447,Slot Machine Game,2023.1.3,Win32,21.83406114,,,,,,,,,,,,,,,,,,,239.6844,3,0.2577,,left,0.5,,stimuli/card_10_transparent.png,120,10,3,0,3,0,1,,,,,,,,,,,,,,,,,,,,,,,,,,,,,,,,,,,,,,,,,,,,
,,,,6643a65c3ea38fe03b60767d,B,2024-06-22_06h23.01.447,Slot Machine Game,2023.1.3,Win32,21.83406114,,,,,,,,,,,,,,,,,,,241.382,4,0.3191,,up,1.5,,stimuli/card_100_transparent.png,220,100,4,0,4,0,1,,,,,,,,,,,,,,,,,,,,,,,,,,,,,,,,,,,,,,,,,,,,
,,,,6643a65c3ea38fe03b60767d,B,2024-06-22_06h23.01.447,Slot Machine Game,2023.1.3,Win32,21.83406114,,,,,,,,,,,,,,,,,,,244.0539,5,0.1341,,up,1.5,,stimuli/card_100_transparent.png,320,100,5,0,5,0,1,,,,,,,,,,,,,,,,,,,,,,,,,,,,,,,,,,,,,,,,,,,,
,,,,6643a65c3ea38fe03b60767d,B,2024-06-22_06h23.01.447,Slot Machine Game,2023.1.3,Win32,21.83406114,,,,,,,,,,,,,,,,,,,246.5972,6,0.37,,up,1,,stimuli/card_10_transparent.png,330,10,6,0,6,0,1,,,,,,,,,,,,,,,,,,,,,,,,,,,,,,,,,,,,,,,,,,,,
,,,,6643a65c3ea38fe03b60767d,B,2024-06-22_06h23.01.447,Slot Machine Game,2023.1.3,Win32,21.83406114,,,,,,,,,,,,,,,,,,,248.8486,7,0.0064,,up,0.5,,stimuli/card_10_transparent.png,340,10,7,0,7,0,1,,,,,,,,,,,,,,,,,,,,,,,,,,,,,,,,,,,,,,,,,,,,
,,,,6643a65c3ea38fe03b60767d,B,2024-06-22_06h23.01.447,Slot Machine Game,2023.1.3,Win32,21.83406114,,,,,,,,,,,,,,,,,,,250.2342,8,1.2182,,right,0.5,,stimuli/card_100_transparent.png,440,100,8,0,8,0,1,,,,,,,,,,,,,,,,,,,,,,,,,,,,,,,,,,,,,,,,,,,,
,,,,6643a65c3ea38fe03b60767d,B,2024-06-22_06h23.01.447,Slot Machine Game,2023.1.3,Win32,21.83406114,,,,,,,,,,,,,,,,,,,252.8229,9,0.1884,,right,1,,stimuli/card_100_transparent.png,540,100,9,0,9,0,1,,,,,,,,,,,,,,,,,,,,,,,,,,,,,,,,,,,,,,,,,,,,
,,,,6643a65c3ea38fe03b60767d,B,2024-06-22_06h23.01.447,Slot Machine Game,2023.1.3,Win32,21.83406114,,,,,,,,,,,,,,,,,,,254.8928,10,0.0669,,right,0.5,,stimuli/card_100_transparent.png,640,100,10,0,10,0,1,,,,,,,,,,,,,,,,,,,,,,,,,,,,,,,,,,,,,,,,,,,,
,,,,6643a65c3ea38fe03b60767d,B,2024-06-22_06h23.01.447,Slot Machine Game,2023.1.3,Win32,21.83406114,,,,,,,,,,,,,,,,,,,256.3261,11,0.308,,right,1,,stimuli/card_0_transparent.png,640,0,11,0,11,0,1,,,,,,,,,,,,,,,,,,,,,,,,,,,,,,,,,,,,,,,,,,,,
,,,,6643a65c3ea38fe03b60767d,B,2024-06-22_06h23.01.447,Slot Machine Game,2023.1.3,Win32,21.83406114,,,,,,,,,,,,,,,,,,,258.4225,12,1.2382,,left,0.5,,stimuli/card_10_transparent.png,650,10,12,0,12,0,1,,,,,,,,,,,,,,,,,,,,,,,,,,,,,,,,,,,,,,,,,,,,
,,,,6643a65c3ea38fe03b60767d,B,2024-06-22_06h23.01.447,Slot Machine Game,2023.1.3,Win32,21.83406114,,,,,,,,,,,,,,,,,,,261.031,13,0.1365,,up,1,,stimuli/card_0_transparent.png,650,0,13,0,13,0,1,,,,,,,,,,,,,,,,,,,,,,,,,,,,,,,,,,,,,,,,,,,,
,,,,6643a65c3ea38fe03b60767d,B,2024-06-22_06h23.01.447,Slot Machine Game,2023.1.3,Win32,21.83406114,,,,,,,,,,,,,,,,,,,262.9905,14,0.0687,,left,0.5,,stimuli/card_10_transparent.png,660,10,14,0,14,0,1,,,,,,,,,,,,,,,,,,,,,,,,,,,,,,,,,,,,,,,,,,,,
,,,,6643a65c3ea38fe03b60767d,B,2024-06-22_06h23.01.447,Slot Machine Game,2023.1.3,Win32,21.83406114,,,,,,,,,,,,,,,,,"[6,15]","[[1,3,2],[3,1,2]]",269.4821,0,1.447,,left,1.5,,stimuli/card_10_transparent.png,10,10,0,0,0,0,1,,264.503,,,,,,,,,,,,,,,,,,,,,,,,,,,,,,,,,,,,,,,,,,
,,,,6643a65c3ea38fe03b60767d,B,2024-06-22_06h23.01.447,Slot Machine Game,2023.1.3,Win32,21.83406114,,,,,,,,,,,,,,,,,,,273.2811,1,0.1879,,left,1.5,,stimuli/card_0_transparent.png,10,0,1,0,1,0,1,,,,,,,,,,,,,,,,,,,,,,,,,,,,,,,,,,,,,,,,,,,,
,,,,6643a65c3ea38fe03b60767d,B,2024-06-22_06h23.01.447,Slot Machine Game,2023.1.3,Win32,21.83406114,,,,,,,,,,,,,,,,,,,275.8647,2,0.8041,,up,0.5,,stimuli/card_0_transparent.png,10,0,2,0,2,0,1,,,,,,,,,,,,,,,,,,,,,,,,,,,,,,,,,,,,,,,,,,,,
,,,,6643a65c3ea38fe03b60767d,B,2024-06-22_06h23.01.447,Slot Machine Game,2023.1.3,Win32,21.83406114,,,,,,,,,,,,,,,,,,,278.0322,3,0.4378,,right,1.5,,stimuli/card_10_transparent.png,20,10,3,0,3,0,1,,,,,,,,,,,,,,,,,,,,,,,,,,,,,,,,,,,,,,,,,,,,
,,,,6643a65c3ea38fe03b60767d,B,2024-06-22_06h23.01.447,Slot Machine Game,2023.1.3,Win32,21.83406114,,,,,,,,,,,,,,,,,,,280.8097,4,0.0671,,right,0.5,,stimuli/card_10_transparent.png,30,10,4,0,4,0,1,,,,,,,,,,,,,,,,,,,,,,,,,,,,,,,,,,,,,,,,,,,,
,,,,6643a65c3ea38fe03b60767d,B,2024-06-22_06h23.01.447,Slot Machine Game,2023.1.3,Win32,21.83406114,,,,,,,,,,,,,,,,,,,282.2659,5,1.5965,,up,0.5,,stimuli/card_100_transparent.png,130,100,5,0,5,0,1,,,,,,,,,,,,,,,,,,,,,,,,,,,,,,,,,,,,,,,,,,,,
,,,,6643a65c3ea38fe03b60767d,B,2024-06-22_06h23.01.447,Slot Machine Game,2023.1.3,Win32,21.83406114,,,,,,,,,,,,,,,,,,,285.295,6,0.3693,,up,1,,stimuli/card_100_transparent.png,230,100,6,0,6,0,1,,,,,,,,,,,,,,,,,,,,,,,,,,,,,,,,,,,,,,,,,,,,
,,,,6643a65c3ea38fe03b60767d,B,2024-06-22_06h23.01.447,Slot Machine Game,2023.1.3,Win32,21.83406114,,,,,,,,,,,,,,,,,,,287.4941,7,0.0067,,up,0.5,,stimuli/card_100_transparent.png,330,100,7,0,7,0,1,,,,,,,,,,,,,,,,,,,,,,,,,,,,,,,,,,,,,,,,,,,,
,,,,6643a65c3ea38fe03b60767d,B,2024-06-22_06h23.01.447,Slot Machine Game,2023.1.3,Win32,21.83406114,,,,,,,,,,,,,,,,,,,288.8252,8,0.071,,up,0.5,,stimuli/card_100_transparent.png,430,100,8,0,8,0,1,,,,,,,,,,,,,,,,,,,,,,,,,,,,,,,,,,,,,,,,,,,,
,,,,6643a65c3ea38fe03b60767d,B,2024-06-22_06h23.01.447,Slot Machine Game,2023.1.3,Win32,21.83406114,,,,,,,,,,,,,,,,,,,290.2831,9,0.1281,,up,0.5,,stimuli/card_0_transparent.png,430,0,9,0,9,0,1,,,,,,,,,,,,,,,,,,,,,,,,,,,,,,,,,,,,,,,,,,,,
,,,,6643a65c3ea38fe03b60767d,B,2024-06-22_06h23.01.447,Slot Machine Game,2023.1.3,Win32,21.83406114,,,,,,,,,,,,,,,,,,,291.7484,10,0.5577,,right,0.5,,stimuli/card_10_transparent.png,440,10,10,0,10,0,1,,,,,,,,,,,,,,,,,,,,,,,,,,,,,,,,,,,,,,,,,,,,
,,,,6643a65c3ea38fe03b60767d,B,2024-06-22_06h23.01.447,Slot Machine Game,2023.1.3,Win32,21.83406114,,,,,,,,,,,,,,,,,,,293.6238,11,0.4908,,right,1,,stimuli/card_10_transparent.png,450,10,11,0,11,0,1,,,,,,,,,,,,,,,,,,,,,,,,,,,,,,,,,,,,,,,,,,,,
,,,,6643a65c3ea38fe03b60767d,B,2024-06-22_06h23.01.447,Slot Machine Game,2023.1.3,Win32,21.83406114,,,,,,,,,,,,,,,,,,,296.0223,12,0.3136,,left,1.5,,stimuli/card_0_transparent.png,450,0,12,0,12,0,1,,,,,,,,,,,,,,,,,,,,,,,,,,,,,,,,,,,,,,,,,,,,
,,,,6643a65c3ea38fe03b60767d,B,2024-06-22_06h23.01.447,Slot Machine Game,2023.1.3,Win32,21.83406114,,,,,,,,,,,,,,,,,,,298.7568,13,0.009,,left,0.5,,stimuli/card_0_transparent.png,450,0,13,0,13,0,1,,,,,,,,,,,,,,,,,,,,,,,,,,,,,,,,,,,,,,,,,,,,
,,,,6643a65c3ea38fe03b60767d,B,2024-06-22_06h23.01.447,Slot Machine Game,2023.1.3,Win32,21.83406114,,,,,,,,,,,,,,,,,,,300.1446,14,0.5041,,up,1,,stimuli/card_100_transparent.png,550,100,14,0,14,0,1,,,,,,,,,,,,,,,,,,,,,,,,,,,,,,,,,,,,,,,,,,,,
,,,,6643a65c3ea38fe03b60767d,B,2024-06-22_06h23.01.447,Slot Machine Game,2023.1.3,Win32,21.83406114,,,,,,,,,,,,,,,,,,,,,,,,,,,,,,,,,,,302.5432,,,307.5248,space,3.2726,,,,,,,,,,,,,,,,,,,,,,,,,,,,,,,,,,,,,
,,,,6643a65c3ea38fe03b60767d,B,2024-06-22_06h23.01.447,Slot Machine Game,2023.1.3,Win32,21.83406114,,,,,,,,,,,,,,,,,,,,,,,,,,,,,,,,,,,,,,,,,,310.8515,2,"[2,4,8,0,1,3,9,6,8,5]",space,4.1416,,,,,,,,,,,,,,,,,,,,,,,,,,,,,,,
,,,,6643a65c3ea38fe03b60767d,B,2024-06-22_06h23.01.447,Slot Machine Game,2023.1.3,Win32,21.83406114,,,,,,,,,,,,,,,,,,,,,,,,,,,100,,,,,,,,,,,,,,,,,,,,,1,3,"[15,15]","[[3,1,2],[3,1,2]]",315.0542,0,left,0.4949,,1,0.3,"[3,1,2]",0.093342102,stimuli/card_100_transparent.png,100,0,0,0,0,1,,,,,,,,,,
,,,,6643a65c3ea38fe03b60767d,B,2024-06-22_06h23.01.447,Slot Machine Game,2023.1.3,Win32,21.83406114,,,,,,,,,,,,,,,,,,,,,,,,,,,100,,,,,,,,,,,,,,,,,,,,,1,3,,,317.3759,1,left,0.1318,,1,0.3,"[3,1,2]",0.817523301,stimuli/card_0_transparent.png,0,1,0,1,0,1,,,,,,,,,,
,,,,6643a65c3ea38fe03b60767d,B,2024-06-22_06h23.01.447,Slot Machine Game,2023.1.3,Win32,21.83406114,,,,,,,,,,,,,,,,,,,,,,,,,,,100,,,,,,,,,,,,,,,,,,,,,1,3,,,319.4016,2,left,0.3111,,1,0.3,"[3,1,2]",0.235231691,stimuli/card_0_transparent.png,0,2,0,2,0,1,,,,,,,,,,
,,,,6643a65c3ea38fe03b60767d,B,2024-06-22_06h23.01.447,Slot Machine Game,2023.1.3,Win32,21.83406114,,,,,,,,,,,,,,,,,,,,,,,,,,,200,,,,,,,,,,,,,,,,,,,,,1,3,,,321.5798,3,left,0.1317,,0.5,0.3,"[3,1,2]",0.046892071,stimuli/card_100_transparent.png,100,3,0,3,0,1,,,,,,,,,,
,,,,6643a65c3ea38fe03b60767d,B,2024-06-22_06h23.01.447,Slot Machine Game,2023.1.3,Win32,21.83406114,,,,,,,,,,,,,,,,,,,,,,,,,,,200,,,,,,,,,,,,,,,,,,,,,1,3,,,323.0852,4,left,0.1912,,1.5,0.3,"[3,1,2]",0.89390207,stimuli/card_0_transparent.png,0,4,0,4,0,1,,,,,,,,,,
,,,,6643a65c3ea38fe03b60767d,B,2024-06-22_06h23.01.447,Slot Machine Game,2023.1.3,Win32,21.83406114,,,,,,,,,,,,,,,,,,,,,,,,,,,300,,,,,,,,,,,,,,,,,,,,,1,3,,,325.6619,5,up,0.0064,,1,0.3,"[3,1,2]",0.387166843,stimuli/card_100_transparent.png,100,5,0,5,0,1,,,,,,,,,,
,,,,6643a65c3ea38fe03b60767d,B,2024-06-22_06h23.01.447,Slot Machine Game,2023.1.3,Win32,21.83406114,,,,,,,,,,,,,,,,,,,,,,,,,,,400,,,,,,,,,,,,,,,,,,,,,1,3,,,327.5859,6,up,0.437,,0.5,0.3,"[3,1,2]",0.965541193,stimuli/card_100_transparent.png,100,6,0,6,0,1,,,,,,,,,,
,,,,6643a65c3ea38fe03b60767d,B,2024-06-22_06h23.01.447,Slot Machine Game,2023.1.3,Win32,21.83406114,,,,,,,,,,,,,,,,,,,,,,,,,,,400,,,,,,,,,,,,,,,,,,,,,1,3,,,329.3544,7,up,0.1886,,1,0.3,"[3,1,2]",0.010197591,stimuli/card_0_transparent.png,0,7,0,7,0,1,,,,,,,,,,
,,,,6643a65c3ea38fe03b60767d,B,2024-06-22_06h23.01.447,Slot Machine Game,2023.1.3,Win32,21.83406114,,,,,,,,,,,,,,,,,,,,,,,,,,,410,,,,,,,,,,,,,,,,,,,,,1,3,,,331.3666,8,right,0.3284,,1,0.3,"[3,1,2]",0.799298078,stimuli/card_10_transparent.png,10,8,0,8,0,1,,,,,,,,,,
,,,,6643a65c3ea38fe03b60767d,B,2024-06-22_06h23.01.447,Slot Machine Game,2023.1.3,Win32,21.83406114,,,,,,,,,,,,,,,,,,,,,,,,,,,510,,,,,,,,,,,,,,,,,,,,,1,3,,,333.5212,9,up,0.3133,,1.5,0.3,"[3,1,2]",0.902913069,stimuli/card_100_transparent.png,100,9,0,9,0,1,,,,,,,,,,
,,,,6643a65c3ea38fe03b60767d,B,2024-06-22_06h23.01.447,Slot Machine Game,2023.1.3,Win32,21.83406114,,,,,,,,,,,,,,,,,,,,,,,,,,,610,,,,,,,,,,,,,,,,,,,,,1,3,,,336.2277,10,up,0.3882,,0.5,0.3,"[3,1,2]",0.843062289,stimuli/card_100_transparent.png,100,10,0,10,0,1,,,,,,,,,,
,,,,6643a65c3ea38fe03b60767d,B,2024-06-22_06h23.01.447,Slot Machine Game,2023.1.3,Win32,21.83406114,,,,,,,,,,,,,,,,,,,,,,,,,,,710,,,,,,,,,,,,,,,,,,,,,1,3,,,337.9404,11,up,0.3105,,1,0.3,"[3,1,2]",0.91771464,stimuli/card_100_transparent.png,100,11,0,11,0,1,,,,,,,,,,
,,,,6643a65c3ea38fe03b60767d,B,2024-06-22_06h23.01.447,Slot Machine Game,2023.1.3,Win32,21.83406114,,,,,,,,,,,,,,,,,,,,,,,,,,,810,,,,,,,,,,,,,,,,,,,,,1,3,,,340.0915,12,up,0.3692,,0.5,0.3,"[3,1,2]",0.500396784,stimuli/card_100_transparent.png,100,12,0,12,0,1,,,,,,,,,,
,,,,6643a65c3ea38fe03b60767d,B,2024-06-22_06h23.01.447,Slot Machine Game,2023.1.3,Win32,21.83406114,,,,,,,,,,,,,,,,,,,,,,,,,,,910,,,,,,,,,,,,,,,,,,,,,1,3,,,341.8404,13,up,0.1898,,0.5,0.3,"[3,1,2]",0.275959829,stimuli/card_100_transparent.png,100,13,0,13,0,1,,,,,,,,,,
,,,,6643a65c3ea38fe03b60767d,B,2024-06-22_06h23.01.447,Slot Machine Game,2023.1.3,Win32,21.83406114,,,,,,,,,,,,,,,,,,,,,,,,,,,1010,,,,,,,,,,,,,,,,,,,,,1,3,,,343.4684,14,up,0.1339,,0.5,0.3,"[3,1,2]",0.725245697,stimuli/card_100_transparent.png,100,14,0,14,0,1,,,,,,,,,,
,,,,6643a65c3ea38fe03b60767d,B,2024-06-22_06h23.01.447,Slot Machine Game,2023.1.3,Win32,21.83406114,,,,,,,,,,,,,,,,,,,,,,,,,,,,,,,,,,,344.9854,,,,,,,,,,,,,,,,,,,,,,,,,,,,,,,,,[1010],0,0,0,0,1,,,,
,,,,6643a65c3ea38fe03b60767d,B,2024-06-22_06h23.01.447,Slot Machine Game,2023.1.3,Win32,21.83406114,,,,,,,,,,,,,,,,,,,,,,,,,,,100,,,,,,,,,,,,,,,,,,,,,2,5,"[5,15]","[[1,2,3],[3,1,2]]",349.9889,0,left,0.4319,,1.5,0.3,"[1,2,3]",0.761141485,stimuli/card_100_transparent.png,100,0,0,0,0,1,,,,,,,,,,
,,,,6643a65c3ea38fe03b60767d,B,2024-06-22_06h23.01.447,Slot Machine Game,2023.1.3,Win32,21.83406114,,,,,,,,,,,,,,,,,,,,,,,,,,,200,,,,,,,,,,,,,,,,,,,,,2,5,,,352.7646,1,left,0.0063,,1.5,0.3,"[1,2,3]",0.683344583,stimuli/card_100_transparent.png,100,1,0,1,0,1,,,,,,,,,,
,,,,6643a65c3ea38fe03b60767d,B,2024-06-22_06h23.01.447,Slot Machine Game,2023.1.3,Win32,21.83406114,,,,,,,,,,,,,,,,,,,,,,,,,,,300,,,,,,,,,,,,,,,,,,,,,2,5,,,355.154,2,left,0.321,,0.5,0.3,"[1,2,3]",0.467688198,stimuli/card_100_transparent.png,100,2,0,2,0,1,,,,,,,,,,
,,,,6643a65c3ea38fe03b60767d,B,2024-06-22_06h23.01.447,Slot Machine Game,2023.1.3,Win32,21.83406114,,,,,,,,,,,,,,,,,,,,,,,,,,,310,,,,,,,,,,,,,,,,,,,,,2,5,,,356.9031,3,left,0.3089,,0.5,0.3,"[1,2,3]",0.150100002,stimuli/card_10_transparent.png,10,3,0,3,0,1,,,,,,,,,,
,,,,6643a65c3ea38fe03b60767d,B,2024-06-22_06h23.01.447,Slot Machine Game,2023.1.3,Win32,21.83406114,,,,,,,,,,,,,,,,,,,,,,,,,,,410,,,,,,,,,,,,,,,,,,,,,2,5,,,358.6419,4,left,0.1281,,0.5,0.3,"[1,2,3]",0.550064156,stimuli/card_100_transparent.png,100,4,0,4,0,1,,,,,,,,,,
,,,,6643a65c3ea38fe03b60767d,B,2024-06-22_06h23.01.447,Slot Machine Game,2023.1.3,Win32,21.83406114,,,,,,,,,,,,,,,,,,,,,,,,,,,410,,,,,,,,,,,,,,,,,,,,,2,5,,,360.1394,5,left,0.0666,,0.5,0.3,"[3,1,2]",0.462099756,stimuli/card_0_transparent.png,0,5,0,5,0,1,,,,,,,,,,
,,,,6643a65c3ea38fe03b60767d,B,2024-06-22_06h23.01.447,Slot Machine Game,2023.1.3,Win32,21.83406114,,,,,,,,,,,,,,,,,,,,,,,,,,,410,,,,,,,,,,,,,,,,,,,,,2,5,,,361.629,6,left,0.0064,,0.5,0.3,"[3,1,2]",0.453140978,stimuli/card_0_transparent.png,0,6,0,6,0,1,,,,,,,,,,
,,,,6643a65c3ea38fe03b60767d,B,2024-06-22_06h23.01.447,Slot Machine Game,2023.1.3,Win32,21.83406114,,,,,,,,,,,,,,,,,,,,,,,,,,,510,,,,,,,,,,,,,,,,,,,,,2,5,,,362.9973,7,up,0.5003,,1.5,0.3,"[3,1,2]",0.490670795,stimuli/card_100_transparent.png,100,7,0,7,0,1,,,,,,,,,,
,,,,6643a65c3ea38fe03b60767d,B,2024-06-22_06h23.01.447,Slot Machine Game,2023.1.3,Win32,21.83406114,,,,,,,,,,,,,,,,,,,,,,,,,,,610,,,,,,,,,,,,,,,,,,,,,2,5,,,365.8839,8,up,0.4314,,1.5,0.3,"[3,1,2]",0.358337988,stimuli/card_100_transparent.png,100,8,0,8,0,1,,,,,,,,,,
,,,,6643a65c3ea38fe03b60767d,B,2024-06-22_06h23.01.447,Slot Machine Game,2023.1.3,Win32,21.83406114,,,,,,,,,,,,,,,,,,,,,,,,,,,610,,,,,,,,,,,,,,,,,,,,,2,5,,,368.6933,9,up,0.0064,,1.5,0.3,"[3,1,2]",0.033490845,stimuli/card_0_transparent.png,0,9,0,9,0,1,,,,,,,,,,
,,,,6643a65c3ea38fe03b60767d,B,2024-06-22_06h23.01.447,Slot Machine Game,2023.1.3,Win32,21.83406114,,,,,,,,,,,,,,,,,,,,,,,,,,,710,,,,,,,,,,,,,,,,,,,,,2,5,,,371.033,10,up,0.2553,,0.5,0.3,"[3,1,2]",0.806720123,stimuli/card_100_transparent.png,100,10,0,10,0,1,,,,,,,,,,
,,,,6643a65c3ea38fe03b60767d,B,2024-06-22_06h23.01.447,Slot Machine Game,2023.1.3,Win32,21.83406114,,,,,,,,,,,,,,,,,,,,,,,,,,,810,,,,,,,,,,,,,,,,,,,,,2,5,,,372.7065,11,up,0.067,,1,0.3,"[3,1,2]",0.303153645,stimuli/card_100_transparent.png,100,11,0,11,0,1,,,,,,,,,,
,,,,6643a65c3ea38fe03b60767d,B,2024-06-22_06h23.01.447,Slot Machine Game,2023.1.3,Win32,21.83406114,,,,,,,,,,,,,,,,,,,,,,,,,,,910,,,,,,,,,,,,,,,,,,,,,2,5,,,374.6068,12,up,0.376,,0.5,0.3,"[3,1,2]",0.824547249,stimuli/card_100_transparent.png,100,12,0,12,0,1,,,,,,,,,,
,,,,6643a65c3ea38fe03b60767d,B,2024-06-22_06h23.01.447,Slot Machine Game,2023.1.3,Win32,21.83406114,,,,,,,,,,,,,,,,,,,,,,,,,,,1010,,,,,,,,,,,,,,,,,,,,,2,5,,,376.4125,13,up,0.1273,,0.5,0.3,"[3,1,2]",0.62930994,stimuli/card_100_transparent.png,100,13,0,13,0,1,,,,,,,,,,
,,,,6643a65c3ea38fe03b60767d,B,2024-06-22_06h23.01.447,Slot Machine Game,2023.1.3,Win32,21.83406114,,,,,,,,,,,,,,,,,,,,,,,,,,,1110,,,,,,,,,,,,,,,,,,,,,2,5,,,377.9744,14,up,0.1277,,1,0.3,"[3,1,2]",0.490169944,stimuli/card_100_transparent.png,100,14,0,14,0,1,,,,,,,,,,
,,,,6643a65c3ea38fe03b60767d,B,2024-06-22_06h23.01.447,Slot Machine Game,2023.1.3,Win32,21.83406114,,,,,,,,,,,,,,,,,,,,,,,,,,,,,,,,,,,379.918,,,,,,,,,,,,,,,,,,,,,,,,,,,,,,,,,"[1010,1110]",1,0,1,0,1,,,,
,,,,6643a65c3ea38fe03b60767d,B,2024-06-22_06h23.01.447,Slot Machine Game,2023.1.3,Win32,21.83406114,,,,,,,,,,,,,,,,,,,,,,,,,,,0,,,,,,,,,,,,,,,,,,,,,3,9,"[8,15]","[[3,2,1],[3,1,2]]",384.9265,0,left,0.5031,,1.5,0.3,"[3,2,1]",0.209728428,stimuli/card_0_transparent.png,0,0,0,0,0,1,,,,,,,,,,
,,,,6643a65c3ea38fe03b60767d,B,2024-06-22_06h23.01.447,Slot Machine Game,2023.1.3,Win32,21.83406114,,,,,,,,,,,,,,,,,,,,,,,,,,,10,,,,,,,,,,,,,,,,,,,,,3,9,,,387.821,1,up,0.37,,1,0.3,"[3,2,1]",0.811327867,stimuli/card_10_transparent.png,10,1,0,1,0,1,,,,,,,,,,
,,,,6643a65c3ea38fe03b60767d,B,2024-06-22_06h23.01.447,Slot Machine Game,2023.1.3,Win32,21.83406114,,,,,,,,,,,,,,,,,,,,,,,,,,,110,,,,,,,,,,,,,,,,,,,,,3,9,,,390.019,2,right,0.3132,,1.5,0.3,"[3,2,1]",0.286410263,stimuli/card_100_transparent.png,100,2,0,2,0,1,,,,,,,,,,
,,,,6643a65c3ea38fe03b60767d,B,2024-06-22_06h23.01.447,Slot Machine Game,2023.1.3,Win32,21.83406114,,,,,,,,,,,,,,,,,,,,,,,,,,,110,,,,,,,,,,,,,,,,,,,,,3,9,,,392.7218,3,right,0.3197,,1.5,0.3,"[3,2,1]",0.052473154,stimuli/card_0_transparent.png,0,3,0,3,0,1,,,,,,,,,,
,,,,6643a65c3ea38fe03b60767d,B,2024-06-22_06h23.01.447,Slot Machine Game,2023.1.3,Win32,21.83406114,,,,,,,,,,,,,,,,,,,,,,,,,,,210,,,,,,,,,,,,,,,,,,,,,3,9,,,395.3712,4,right,0.2542,,0.5,0.3,"[3,2,1]",0.94259307,stimuli/card_100_transparent.png,100,4,0,4,0,1,,,,,,,,,,
,,,,6643a65c3ea38fe03b60767d,B,2024-06-22_06h23.01.447,Slot Machine Game,2023.1.3,Win32,21.83406114,,,,,,,,,,,,,,,,,,,,,,,,,,,310,,,,,,,,,,,,,,,,,,,,,3,9,,,396.9648,5,right,0.376,,1.5,0.3,"[3,2,1]",0.994147409,stimuli/card_100_transparent.png,100,5,0,5,0,1,,,,,,,,,,
,,,,6643a65c3ea38fe03b60767d,B,2024-06-22_06h23.01.447,Slot Machine Game,2023.1.3,Win32,21.83406114,,,,,,,,,,,,,,,,,,,,,,,,,,,410,,,,,,,,,,,,,,,,,,,,,3,9,,,399.6801,6,right,0.3147,,1,0.3,"[3,2,1]",0.911626389,stimuli/card_100_transparent.png,100,6,0,6,0,1,,,,,,,,,,
,,,,6643a65c3ea38fe03b60767d,B,2024-06-22_06h23.01.447,Slot Machine Game,2023.1.3,Win32,21.83406114,,,,,,,,,,,,,,,,,,,,,,,,,,,510,,,,,,,,,,,,,,,,,,,,,3,9,,,401.8919,7,right,0.0064,,1,0.3,"[3,2,1]",0.766891326,stimuli/card_100_transparent.png,100,7,0,7,0,1,,,,,,,,,,
,,,,6643a65c3ea38fe03b60767d,B,2024-06-22_06h23.01.447,Slot Machine Game,2023.1.3,Win32,21.83406114,,,,,,,,,,,,,,,,,,,,,,,,,,,520,,,,,,,,,,,,,,,,,,,,,3,9,,,403.6722,8,right,0.3228,,1.5,0.3,"[3,1,2]",0.863278489,stimuli/card_10_transparent.png,10,8,0,8,0,1,,,,,,,,,,
,,,,6643a65c3ea38fe03b60767d,B,2024-06-22_06h23.01.447,Slot Machine Game,2023.1.3,Win32,21.83406114,,,,,,,,,,,,,,,,,,,,,,,,,,,520,,,,,,,,,,,,,,,,,,,,,3,9,,,406.3739,9,right,0.1933,,1,0.3,"[3,1,2]",0.084737845,stimuli/card_0_transparent.png,0,9,0,9,0,1,,,,,,,,,,
,,,,6643a65c3ea38fe03b60767d,B,2024-06-22_06h23.01.447,Slot Machine Game,2023.1.3,Win32,21.83406114,,,,,,,,,,,,,,,,,,,,,,,,,,,620,,,,,,,,,,,,,,,,,,,,,3,9,,,408.4343,10,up,0.1901,,1.5,0.3,"[3,1,2]",0.309416368,stimuli/card_100_transparent.png,100,10,0,10,0,1,,,,,,,,,,
,,,,6643a65c3ea38fe03b60767d,B,2024-06-22_06h23.01.447,Slot Machine Game,2023.1.3,Win32,21.83406114,,,,,,,,,,,,,,,,,,,,,,,,,,,720,,,,,,,,,,,,,,,,,,,,,3,9,,,411.0397,11,up,0.1873,,0.5,0.3,"[3,1,2]",0.253202828,stimuli/card_100_transparent.png,100,11,0,11,0,1,,,,,,,,,,
,,,,6643a65c3ea38fe03b60767d,B,2024-06-22_06h23.01.447,Slot Machine Game,2023.1.3,Win32,21.83406114,,,,,,,,,,,,,,,,,,,,,,,,,,,720,,,,,,,,,,,,,,,,,,,,,3,9,,,412.6538,12,up,0.0671,,1,0.3,"[3,1,2]",0.083410954,stimuli/card_0_transparent.png,0,12,0,12,0,1,,,,,,,,,,
,,,,6643a65c3ea38fe03b60767d,B,2024-06-22_06h23.01.447,Slot Machine Game,2023.1.3,Win32,21.83406114,,,,,,,,,,,,,,,,,,,,,,,,,,,820,,,,,,,,,,,,,,,,,,,,,3,9,,,414.6029,13,up,0.1893,,0.5,0.3,"[3,1,2]",0.256669534,stimuli/card_100_transparent.png,100,13,0,13,0,1,,,,,,,,,,
,,,,6643a65c3ea38fe03b60767d,B,2024-06-22_06h23.01.447,Slot Machine Game,2023.1.3,Win32,21.83406114,,,,,,,,,,,,,,,,,,,,,,,,,,,920,,,,,,,,,,,,,,,,,,,,,3,9,,,416.2125,14,up,0.0063,,1.5,0.3,"[3,1,2]",0.483035066,stimuli/card_100_transparent.png,100,14,0,14,0,1,,,,,,,,,,
,,,,6643a65c3ea38fe03b60767d,B,2024-06-22_06h23.01.447,Slot Machine Game,2023.1.3,Win32,21.83406114,,,,,,,,,,,,,,,,,,,,,,,,,,,,,,,,,,,418.5703,,,,,,,,,,,,,,,,,,,,,,,,,,,,,,,,,"[1010,1110,920]",2,0,2,0,1,,,,
,,,,6643a65c3ea38fe03b60767d,B,2024-06-22_06h23.01.447,Slot Machine Game,2023.1.3,Win32,21.83406114,,,,,,,,,,,,,,,,,,,,,,,,,,,10,,,,,,,,,,,,,,,,,,,,,4,1,"[12,15]","[[2,1,3],[2,3,1]]",423.5813,0,left,0.6737,,0.5,0.3,"[2,1,3]",0.572530861,stimuli/card_10_transparent.png,10,0,0,0,0,1,,,,,,,,,,
,,,,6643a65c3ea38fe03b60767d,B,2024-06-22_06h23.01.447,Slot Machine Game,2023.1.3,Win32,21.83406114,,,,,,,,,,,,,,,,,,,,,,,,,,,110,,,,,,,,,,,,,,,,,,,,,4,1,,,425.6224,1,up,0.972,,1,0.3,"[2,1,3]",0.347286262,stimuli/card_100_transparent.png,100,1,0,1,0,1,,,,,,,,,,
,,,,6643a65c3ea38fe03b60767d,B,2024-06-22_06h23.01.447,Slot Machine Game,2023.1.3,Win32,21.83406114,,,,,,,,,,,,,,,,,,,,,,,,,,,210,,,,,,,,,,,,,,,,,,,,,4,1,,,428.4728,2,up,0.1883,,1.5,0.3,"[2,1,3]",0.956741508,stimuli/card_100_transparent.png,100,2,0,2,0,1,,,,,,,,,,
,,,,6643a65c3ea38fe03b60767d,B,2024-06-22_06h23.01.447,Slot Machine Game,2023.1.3,Win32,21.83406114,,,,,,,,,,,,,,,,,,,,,,,,,,,310,,,,,,,,,,,,,,,,,,,,,4,1,,,431.0082,3,up,0.2583,,1.5,0.3,"[2,1,3]",0.496104526,stimuli/card_100_transparent.png,100,3,0,3,0,1,,,,,,,,,,
,,,,6643a65c3ea38fe03b60767d,B,2024-06-22_06h23.01.447,Slot Machine Game,2023.1.3,Win32,21.83406114,,,,,,,,,,,,,,,,,,,,,,,,,,,410,,,,,,,,,,,,,,,,,,,,,4,1,,,433.6046,4,up,0.0666,,1.5,0.3,"[2,1,3]",0.274080743,stimuli/card_100_transparent.png,100,4,0,4,0,1,,,,,,,,,,
,,,,6643a65c3ea38fe03b60767d,B,2024-06-22_06h23.01.447,Slot Machine Game,2023.1.3,Win32,21.83406114,,,,,,,,,,,,,,,,,,,,,,,,,,,420,,,,,,,,,,,,,,,,,,,,,4,1,,,436.0469,5,up,0.1293,,1.5,0.3,"[2,1,3]",0.157999234,stimuli/card_10_transparent.png,10,5,0,5,0,1,,,,,,,,,,
,,,,6643a65c3ea38fe03b60767d,B,2024-06-22_06h23.01.447,Slot Machine Game,2023.1.3,Win32,21.83406114,,,,,,,,,,,,,,,,,,,,,,,,,,,520,,,,,,,,,,,,,,,,,,,,,4,1,,,438.5205,6,up,0.0736,,1.5,0.3,"[2,1,3]",0.28640098,stimuli/card_100_transparent.png,100,6,0,6,0,1,,,,,,,,,,
,,,,6643a65c3ea38fe03b60767d,B,2024-06-22_06h23.01.447,Slot Machine Game,2023.1.3,Win32,21.83406114,,,,,,,,,,,,,,,,,,,,,,,,,,,520,,,,,,,,,,,,,,,,,,,,,4,1,,,440.9924,7,up,0.2559,,1,0.3,"[2,1,3]",0.08018806,stimuli/card_0_transparent.png,0,7,0,7,0,1,,,,,,,,,,
,,,,6643a65c3ea38fe03b60767d,B,2024-06-22_06h23.01.447,Slot Machine Game,2023.1.3,Win32,21.83406114,,,,,,,,,,,,,,,,,,,,,,,,,,,530,,,,,,,,,,,,,,,,,,,,,4,1,,,443.1168,8,left,0.0668,,1,0.3,"[2,1,3]",0.232593621,stimuli/card_10_transparent.png,10,8,0,8,0,1,,,,,,,,,,
,,,,6643a65c3ea38fe03b60767d,B,2024-06-22_06h23.01.447,Slot Machine Game,2023.1.3,Win32,21.83406114,,,,,,,,,,,,,,,,,,,,,,,,,,,530,,,,,,,,,,,,,,,,,,,,,4,1,,,445.0629,9,right,0.1275,,0.5,0.3,"[2,1,3]",0.849669206,stimuli/card_0_transparent.png,0,9,0,9,0,1,,,,,,,,,,
,,,,6643a65c3ea38fe03b60767d,B,2024-06-22_06h23.01.447,Slot Machine Game,2023.1.3,Win32,21.83406114,,,,,,,,,,,,,,,,,,,,,,,,,,,630,,,,,,,,,,,,,,,,,,,,,4,1,,,446.5208,10,left,0.0063,,1,0.3,"[2,1,3]",0.130405114,stimuli/card_100_transparent.png,100,10,0,10,0,1,,,,,,,,,,
,,,,6643a65c3ea38fe03b60767d,B,2024-06-22_06h23.01.447,Slot Machine Game,2023.1.3,Win32,21.83406114,,,,,,,,,,,,,,,,,,,,,,,,,,,730,,,,,,,,,,,,,,,,,,,,,4,1,,,448.4118,11,left,0.1294,,1.5,0.3,"[2,1,3]",0.164552536,stimuli/card_100_transparent.png,100,11,0,11,0,1,,,,,,,,,,
,,,,6643a65c3ea38fe03b60767d,B,2024-06-22_06h23.01.447,Slot Machine Game,2023.1.3,Win32,21.83406114,,,,,,,,,,,,,,,,,,,,,,,,,,,740,,,,,,,,,,,,,,,,,,,,,4,1,,,450.8706,12,left,0.1277,,0.5,0.3,"[2,3,1]",0.643752642,stimuli/card_10_transparent.png,10,12,0,12,0,1,,,,,,,,,,
,,,,6643a65c3ea38fe03b60767d,B,2024-06-22_06h23.01.447,Slot Machine Game,2023.1.3,Win32,21.83406114,,,,,,,,,,,,,,,,,,,,,,,,,,,750,,,,,,,,,,,,,,,,,,,,,4,1,,,452.3736,13,left,0.3691,,1.5,0.3,"[2,3,1]",0.473245409,stimuli/card_10_transparent.png,10,13,0,13,0,1,,,,,,,,,,
,,,,6643a65c3ea38fe03b60767d,B,2024-06-22_06h23.01.447,Slot Machine Game,2023.1.3,Win32,21.83406114,,,,,,,,,,,,,,,,,,,,,,,,,,,760,,,,,,,,,,,,,,,,,,,,,4,1,,,455.1342,14,left,0.2603,,1,0.3,"[2,3,1]",0.970924727,stimuli/card_10_transparent.png,10,14,0,14,0,1,,,,,,,,,,
,,,,6643a65c3ea38fe03b60767d,B,2024-06-22_06h23.01.447,Slot Machine Game,2023.1.3,Win32,21.83406114,,,,,,,,,,,,,,,,,,,,,,,,,,,,,,,,,,,457.2299,,,,,,,,,,,,,,,,,,,,,,,,,,,,,,,,,"[1010,1110,920,760]",3,0,3,0,1,,,,
,,,,6643a65c3ea38fe03b60767d,B,2024-06-22_06h23.01.447,Slot Machine Game,2023.1.3,Win32,21.83406114,,,,,,,,,,,,,,,,,,,,,,,,,,,100,,,,,,,,,,,,,,,,,,,,,5,2,"[6,15]","[[1,3,2],[3,2,1]]",462.2192,0,left,0.4347,,1,0.3,"[1,3,2]",0.221959076,stimuli/card_100_transparent.png,100,0,0,0,0,1,,,,,,,,,,
,,,,6643a65c3ea38fe03b60767d,B,2024-06-22_06h23.01.447,Slot Machine Game,2023.1.3,Win32,21.83406114,,,,,,,,,,,,,,,,,,,,,,,,,,,200,,,,,,,,,,,,,,,,,,,,,5,2,,,464.4929,1,left,0.5567,,1,0.3,"[1,3,2]",0.703401213,stimuli/card_100_transparent.png,100,1,0,1,0,1,,,,,,,,,,
,,,,6643a65c3ea38fe03b60767d,B,2024-06-22_06h23.01.447,Slot Machine Game,2023.1.3,Win32,21.83406114,,,,,,,,,,,,,,,,,,,,,,,,,,,200,,,,,,,,,,,,,,,,,,,,,5,2,,,466.936,2,left,0.3091,,0.5,0.3,"[1,3,2]",0.085566749,stimuli/card_0_transparent.png,0,2,0,2,0,1,,,,,,,,,,
,,,,6643a65c3ea38fe03b60767d,B,2024-06-22_06h23.01.447,Slot Machine Game,2023.1.3,Win32,21.83406114,,,,,,,,,,,,,,,,,,,,,,,,,,,200,,,,,,,,,,,,,,,,,,,,,5,2,,,468.6123,3,left,0.0668,,1.5,0.3,"[1,3,2]",0.089868276,stimuli/card_0_transparent.png,0,3,0,3,0,1,,,,,,,,,,
,,,,6643a65c3ea38fe03b60767d,B,2024-06-22_06h23.01.447,Slot Machine Game,2023.1.3,Win32,21.83406114,,,,,,,,,,,,,,,,,,,,,,,,,,,200,,,,,,,,,,,,,,,,,,,,,5,2,,,471.0838,4,up,0.1363,,0.5,0.3,"[1,3,2]",0.975577671,stimuli/card_0_transparent.png,0,4,0,4,0,1,,,,,,,,,,
,,,,6643a65c3ea38fe03b60767d,B,2024-06-22_06h23.01.447,Slot Machine Game,2023.1.3,Win32,21.83406114,,,,,,,,,,,,,,,,,,,,,,,,,,,210,,,,,,,,,,,,,,,,,,,,,5,2,,,472.6478,5,right,0.3784,,1.5,0.3,"[1,3,2]",0.327935945,stimuli/card_10_transparent.png,10,5,0,5,0,1,,,,,,,,,,
,,,,6643a65c3ea38fe03b60767d,B,2024-06-22_06h23.01.447,Slot Machine Game,2023.1.3,Win32,21.83406114,,,,,,,,,,,,,,,,,,,,,,,,,,,310,,,,,,,,,,,,,,,,,,,,,5,2,,,475.462,6,right,0.4315,,1.5,0.3,"[3,2,1]",0.843241975,stimuli/card_100_transparent.png,100,6,0,6,0,1,,,,,,,,,,
,,,,6643a65c3ea38fe03b60767d,B,2024-06-22_06h23.01.447,Slot Machine Game,2023.1.3,Win32,21.83406114,,,,,,,,,,,,,,,,,,,,,,,,,,,410,,,,,,,,,,,,,,,,,,,,,5,2,,,478.1618,7,right,0.3774,,1,0.3,"[3,2,1]",0.610906104,stimuli/card_100_transparent.png,100,7,0,7,0,1,,,,,,,,,,
,,,,6643a65c3ea38fe03b60767d,B,2024-06-22_06h23.01.447,Slot Machine Game,2023.1.3,Win32,21.83406114,,,,,,,,,,,,,,,,,,,,,,,,,,,510,,,,,,,,,,,,,,,,,,,,,5,2,,,480.4224,8,right,0.3749,,0.5,0.3,"[3,2,1]",0.958558462,stimuli/card_100_transparent.png,100,8,0,8,0,1,,,,,,,,,,
,,,,6643a65c3ea38fe03b60767d,B,2024-06-22_06h23.01.447,Slot Machine Game,2023.1.3,Win32,21.83406114,,,,,,,,,,,,,,,,,,,,,,,,,,,610,,,,,,,,,,,,,,,,,,,,,5,2,,,482.1695,9,right,0.4957,,1.5,0.3,"[3,2,1]",0.55303604,stimuli/card_100_transparent.png,100,9,0,9,0,1,,,,,,,,,,
,,,,6643a65c3ea38fe03b60767d,B,2024-06-22_06h23.01.447,Slot Machine Game,2023.1.3,Win32,21.83406114,,,,,,,,,,,,,,,,,,,,,,,,,,,710,,,,,,,,,,,,,,,,,,,,,5,2,,,485.0177,10,right,1.1702,,1,0.3,"[3,2,1]",0.847902914,stimuli/card_100_transparent.png,100,10,0,10,0,1,,,,,,,,,,
,,,,6643a65c3ea38fe03b60767d,B,2024-06-22_06h23.01.447,Slot Machine Game,2023.1.3,Win32,21.83406114,,,,,,,,,,,,,,,,,,,,,,,,,,,810,,,,,,,,,,,,,,,,,,,,,5,2,,,488.0207,11,right,0.3222,,1.5,0.3,"[3,2,1]",0.809078455,stimuli/card_100_transparent.png,100,11,0,11,0,1,,,,,,,,,,
,,,,6643a65c3ea38fe03b60767d,B,2024-06-22_06h23.01.447,Slot Machine Game,2023.1.3,Win32,21.83406114,,,,,,,,,,,,,,,,,,,,,,,,,,,910,,,,,,,,,,,,,,,,,,,,,5,2,,,490.6615,12,right,0.0672,,0.5,0.3,"[3,2,1]",0.926289229,stimuli/card_100_transparent.png,100,12,0,12,0,1,,,,,,,,,,
,,,,6643a65c3ea38fe03b60767d,B,2024-06-22_06h23.01.447,Slot Machine Game,2023.1.3,Win32,21.83406114,,,,,,,,,,,,,,,,,,,,,,,,,,,1010,,,,,,,,,,,,,,,,,,,,,5,2,,,492.0935,13,right,0.3691,,1,0.3,"[3,2,1]",0.778195656,stimuli/card_100_transparent.png,100,13,0,13,0,1,,,,,,,,,,
,,,,6643a65c3ea38fe03b60767d,B,2024-06-22_06h23.01.447,Slot Machine Game,2023.1.3,Win32,21.83406114,,,,,,,,,,,,,,,,,,,,,,,,,,,1110,,,,,,,,,,,,,,,,,,,,,5,2,,,494.3386,14,right,0.2,,1,0.3,"[3,2,1]",0.555775151,stimuli/card_100_transparent.png,100,14,0,14,0,1,,,,,,,,,,
,,,,6643a65c3ea38fe03b60767d,B,2024-06-22_06h23.01.447,Slot Machine Game,2023.1.3,Win32,21.83406114,,,,,,,,,,,,,,,,,,,,,,,,,,,,,,,,,,,496.358,,,,,,,,,,,,,,,,,,,,,,,,,,,,,,,,,"[1010,1110,920,760,1110]",4,0,4,0,1,,,,
,,,,6643a65c3ea38fe03b60767d,B,2024-06-22_06h23.01.447,Slot Machine Game,2023.1.3,Win32,21.83406114,,,,,,,,,,,,,,,,,,,,,,,,,,,100,,,,,,,,,,,,,,,,,,,,,6,4,"[7,15]","[[2,3,1],[1,2,3]]",501.3584,0,left,0.2519,,1.5,0.3,"[2,3,1]",0.197065741,stimuli/card_100_transparent.png,100,0,0,0,0,1,,,,,,,,,,
,,,,6643a65c3ea38fe03b60767d,B,2024-06-22_06h23.01.447,Slot Machine Game,2023.1.3,Win32,21.83406114,,,,,,,,,,,,,,,,,,,,,,,,,,,110,,,,,,,,,,,,,,,,,,,,,6,4,,,503.9646,1,left,1.1759,,0.5,0.3,"[2,3,1]",0.365490595,stimuli/card_10_transparent.png,10,1,0,1,0,1,,,,,,,,,,
,,,,6643a65c3ea38fe03b60767d,B,2024-06-22_06h23.01.447,Slot Machine Game,2023.1.3,Win32,21.83406114,,,,,,,,,,,,,,,,,,,,,,,,,,,120,,,,,,,,,,,,,,,,,,,,,6,4,,,506.4737,2,left,0.9414,,1,0.3,"[2,3,1]",0.987733104,stimuli/card_10_transparent.png,10,2,0,2,0,1,,,,,,,,,,
,,,,6643a65c3ea38fe03b60767d,B,2024-06-22_06h23.01.447,Slot Machine Game,2023.1.3,Win32,21.83406114,,,,,,,,,,,,,,,,,,,,,,,,,,,120,,,,,,,,,,,,,,,,,,,,,6,4,,,509.2308,3,left,0.4453,,1,0.3,"[2,3,1]",0.063701103,stimuli/card_0_transparent.png,0,3,0,3,0,1,,,,,,,,,,
,,,,6643a65c3ea38fe03b60767d,B,2024-06-22_06h23.01.447,Slot Machine Game,2023.1.3,Win32,21.83406114,,,,,,,,,,,,,,,,,,,,,,,,,,,120,,,,,,,,,,,,,,,,,,,,,6,4,,,511.5017,4,up,0.0068,,1.5,0.3,"[2,3,1]",0.538005505,stimuli/card_0_transparent.png,0,4,0,4,0,1,,,,,,,,,,
,,,,6643a65c3ea38fe03b60767d,B,2024-06-22_06h23.01.447,Slot Machine Game,2023.1.3,Win32,21.83406114,,,,,,,,,,,,,,,,,,,,,,,,,,,220,,,,,,,,,,,,,,,,,,,,,6,4,,,513.8627,5,right,0.3095,,0.5,0.3,"[2,3,1]",0.813547766,stimuli/card_100_transparent.png,100,5,0,5,0,1,,,,,,,,,,
,,,,6643a65c3ea38fe03b60767d,B,2024-06-22_06h23.01.447,Slot Machine Game,2023.1.3,Win32,21.83406114,,,,,,,,,,,,,,,,,,,,,,,,,,,320,,,,,,,,,,,,,,,,,,,,,6,4,,,515.5906,6,right,0.3728,,1,0.3,"[2,3,1]",0.244426907,stimuli/card_100_transparent.png,100,6,0,6,0,1,,,,,,,,,,
,,,,6643a65c3ea38fe03b60767d,B,2024-06-22_06h23.01.447,Slot Machine Game,2023.1.3,Win32,21.83406114,,,,,,,,,,,,,,,,,,,,,,,,,,,320,,,,,,,,,,,,,,,,,,,,,6,4,,,517.8199,7,right,0.3123,,0.5,0.3,"[1,2,3]",0.858511553,stimuli/card_0_transparent.png,0,7,0,7,0,1,,,,,,,,,,
,,,,6643a65c3ea38fe03b60767d,B,2024-06-22_06h23.01.447,Slot Machine Game,2023.1.3,Win32,21.83406114,,,,,,,,,,,,,,,,,,,,,,,,,,,320,,,,,,,,,,,,,,,,,,,,,6,4,,,519.4472,8,right,0.4416,,1,0.3,"[1,2,3]",0.214386654,stimuli/card_0_transparent.png,0,8,0,8,0,1,,,,,,,,,,
,,,,6643a65c3ea38fe03b60767d,B,2024-06-22_06h23.01.447,Slot Machine Game,2023.1.3,Win32,21.83406114,,,,,,,,,,,,,,,,,,,,,,,,,,,330,,,,,,,,,,,,,,,,,,,,,6,4,,,521.757,9,up,0.3172,,1,0.3,"[1,2,3]",0.567921904,stimuli/card_10_transparent.png,10,9,0,9,0,1,,,,,,,,,,
,,,,6643a65c3ea38fe03b60767d,B,2024-06-22_06h23.01.447,Slot Machine Game,2023.1.3,Win32,21.83406114,,,,,,,,,,,,,,,,,,,,,,,,,,,340,,,,,,,,,,,,,,,,,,,,,6,4,,,523.9455,10,up,0.3837,,1.5,0.3,"[1,2,3]",0.256903187,stimuli/card_10_transparent.png,10,10,0,10,0,1,,,,,,,,,,
,,,,6643a65c3ea38fe03b60767d,B,2024-06-22_06h23.01.447,Slot Machine Game,2023.1.3,Win32,21.83406114,,,,,,,,,,,,,,,,,,,,,,,,,,,440,,,,,,,,,,,,,,,,,,,,,6,4,,,526.7319,11,left,0.0672,,1,0.3,"[1,2,3]",0.30661089,stimuli/card_100_transparent.png,100,11,0,11,0,1,,,,,,,,,,
,,,,6643a65c3ea38fe03b60767d,B,2024-06-22_06h23.01.447,Slot Machine Game,2023.1.3,Win32,21.83406114,,,,,,,,,,,,,,,,,,,,,,,,,,,540,,,,,,,,,,,,,,,,,,,,,6,4,,,528.6905,12,left,0.3147,,0.5,0.3,"[1,2,3]",0.770012235,stimuli/card_100_transparent.png,100,12,0,12,0,1,,,,,,,,,,
,,,,6643a65c3ea38fe03b60767d,B,2024-06-22_06h23.01.447,Slot Machine Game,2023.1.3,Win32,21.83406114,,,,,,,,,,,,,,,,,,,,,,,,,,,640,,,,,,,,,,,,,,,,,,,,,6,4,,,530.4273,13,left,0.2483,,0.5,0.3,"[1,2,3]",0.447328163,stimuli/card_100_transparent.png,100,13,0,13,0,1,,,,,,,,,,
,,,,6643a65c3ea38fe03b60767d,B,2024-06-22_06h23.01.447,Slot Machine Game,2023.1.3,Win32,21.83406114,,,,,,,,,,,,,,,,,,,,,,,,,,,740,,,,,,,,,,,,,,,,,,,,,6,4,,,532.1033,14,left,0.0671,,1.5,0.3,"[1,2,3]",0.60903622,stimuli/card_100_transparent.png,100,14,0,14,0,1,,,,,,,,,,
,,,,6643a65c3ea38fe03b60767d,B,2024-06-22_06h23.01.447,Slot Machine Game,2023.1.3,Win32,21.83406114,,,,,,,,,,,,,,,,,,,,,,,,,,,,,,,,,,,534.5675,,,,,,,,,,,,,,,,,,,,,,,,,,,,,,,,,"[1010,1110,920,760,1110,740]",5,0,5,0,1,,,,
,,,,6643a65c3ea38fe03b60767d,B,2024-06-22_06h23.01.447,Slot Machine Game,2023.1.3,Win32,21.83406114,,,,,,,,,,,,,,,,,,,,,,,,,,,0,,,,,,,,,,,,,,,,,,,,,7,10,"[10,15]","[[3,1,2],[1,3,2]]",539.5443,0,left,0.3713,,1.5,0.3,"[3,1,2]",0.866834727,stimuli/card_0_transparent.png,0,0,0,0,0,1,,,,,,,,,,
,,,,6643a65c3ea38fe03b60767d,B,2024-06-22_06h23.01.447,Slot Machine Game,2023.1.3,Win32,21.83406114,,,,,,,,,,,,,,,,,,,,,,,,,,,10,,,,,,,,,,,,,,,,,,,,,7,10,,,542.2312,1,right,0.4307,,1.5,0.3,"[3,1,2]",0.319110431,stimuli/card_10_transparent.png,10,1,0,1,0,1,,,,,,,,,,
,,,,6643a65c3ea38fe03b60767d,B,2024-06-22_06h23.01.447,Slot Machine Game,2023.1.3,Win32,21.83406114,,,,,,,,,,,,,,,,,,,,,,,,,,,10,,,,,,,,,,,,,,,,,,,,,7,10,,,545.0687,2,up,0.3858,,1.5,0.3,"[3,1,2]",0.041140511,stimuli/card_0_transparent.png,0,2,0,2,0,1,,,,,,,,,,
,,,,6643a65c3ea38fe03b60767d,B,2024-06-22_06h23.01.447,Slot Machine Game,2023.1.3,Win32,21.83406114,,,,,,,,,,,,,,,,,,,,,,,,,,,20,,,,,,,,,,,,,,,,,,,,,7,10,,,547.8487,3,right,0.3697,,0.5,0.3,"[3,1,2]",0.947344536,stimuli/card_10_transparent.png,10,3,0,3,0,1,,,,,,,,,,
,,,,6643a65c3ea38fe03b60767d,B,2024-06-22_06h23.01.447,Slot Machine Game,2023.1.3,Win32,21.83406114,,,,,,,,,,,,,,,,,,,,,,,,,,,120,,,,,,,,,,,,,,,,,,,,,7,10,,,549.6514,4,left,0.0694,,1.5,0.3,"[3,1,2]",0.014515521,stimuli/card_100_transparent.png,100,4,0,4,0,1,,,,,,,,,,
,,,,6643a65c3ea38fe03b60767d,B,2024-06-22_06h23.01.447,Slot Machine Game,2023.1.3,Win32,21.83406114,,,,,,,,,,,,,,,,,,,,,,,,,,,120,,,,,,,,,,,,,,,,,,,,,7,10,,,552.0653,5,left,0.6216,,1.5,0.3,"[3,1,2]",0.36698337,stimuli/card_0_transparent.png,0,5,0,5,0,1,,,,,,,,,,
,,,,6643a65c3ea38fe03b60767d,B,2024-06-22_06h23.01.447,Slot Machine Game,2023.1.3,Win32,21.83406114,,,,,,,,,,,,,,,,,,,,,,,,,,,220,,,,,,,,,,,,,,,,,,,,,7,10,,,555.0777,6,left,0.3146,,1.5,0.3,"[3,1,2]",0.018906534,stimuli/card_100_transparent.png,100,6,0,6,0,1,,,,,,,,,,
,,,,6643a65c3ea38fe03b60767d,B,2024-06-22_06h23.01.447,Slot Machine Game,2023.1.3,Win32,21.83406114,,,,,,,,,,,,,,,,,,,,,,,,,,,220,,,,,,,,,,,,,,,,,,,,,7,10,,,557.818,7,left,0.3693,,0.5,0.3,"[3,1,2]",0.824846946,stimuli/card_0_transparent.png,0,7,0,7,0,1,,,,,,,,,,
,,,,6643a65c3ea38fe03b60767d,B,2024-06-22_06h23.01.447,Slot Machine Game,2023.1.3,Win32,21.83406114,,,,,,,,,,,,,,,,,,,,,,,,,,,230,,,,,,,,,,,,,,,,,,,,,7,10,,,559.6206,8,left,0.6301,,0.5,0.3,"[3,1,2]",0.137681688,stimuli/card_10_transparent.png,10,8,0,8,0,1,,,,,,,,,,
,,,,6643a65c3ea38fe03b60767d,B,2024-06-22_06h23.01.447,Slot Machine Game,2023.1.3,Win32,21.83406114,,,,,,,,,,,,,,,,,,,,,,,,,,,240,,,,,,,,,,,,,,,,,,,,,7,10,,,561.647,9,right,0.1337,,0.5,0.3,"[3,1,2]",0.335390256,stimuli/card_10_transparent.png,10,9,0,9,0,1,,,,,,,,,,
,,,,6643a65c3ea38fe03b60767d,B,2024-06-22_06h23.01.447,Slot Machine Game,2023.1.3,Win32,21.83406114,,,,,,,,,,,,,,,,,,,,,,,,,,,240,,,,,,,,,,,,,,,,,,,,,7,10,,,563.2171,10,up,0.3156,,1.5,0.3,"[1,3,2]",0.766305144,stimuli/card_0_transparent.png,0,10,0,10,0,1,,,,,,,,,,
,,,,6643a65c3ea38fe03b60767d,B,2024-06-22_06h23.01.447,Slot Machine Game,2023.1.3,Win32,21.83406114,,,,,,,,,,,,,,,,,,,,,,,,,,,250,,,,,,,,,,,,,,,,,,,,,7,10,,,565.923,11,right,0.1273,,0.5,0.3,"[1,3,2]",0.698168445,stimuli/card_10_transparent.png,10,11,0,11,0,1,,,,,,,,,,
,,,,6643a65c3ea38fe03b60767d,B,2024-06-22_06h23.01.447,Slot Machine Game,2023.1.3,Win32,21.83406114,,,,,,,,,,,,,,,,,,,,,,,,,,,350,,,,,,,,,,,,,,,,,,,,,7,10,,,567.427,12,left,0.252,,1.5,0.3,"[1,3,2]",0.271508011,stimuli/card_100_transparent.png,100,12,0,12,0,1,,,,,,,,,,
,,,,6643a65c3ea38fe03b60767d,B,2024-06-22_06h23.01.447,Slot Machine Game,2023.1.3,Win32,21.83406114,,,,,,,,,,,,,,,,,,,,,,,,,,,450,,,,,,,,,,,,,,,,,,,,,7,10,,,570.0687,13,left,0.1899,,1.5,0.3,"[1,3,2]",0.496912463,stimuli/card_100_transparent.png,100,13,0,13,0,1,,,,,,,,,,
,,,,6643a65c3ea38fe03b60767d,B,2024-06-22_06h23.01.447,Slot Machine Game,2023.1.3,Win32,21.83406114,,,,,,,,,,,,,,,,,,,,,,,,,,,550,,,,,,,,,,,,,,,,,,,,,7,10,,,572.6544,14,left,0.0671,,1.5,0.3,"[1,3,2]",0.68090859,stimuli/card_100_transparent.png,100,14,0,14,0,1,,,,,,,,,,
,,,,6643a65c3ea38fe03b60767d,B,2024-06-22_06h23.01.447,Slot Machine Game,2023.1.3,Win32,21.83406114,,,,,,,,,,,,,,,,,,,,,,,,,,,,,,,,,,,575.0707,,,,,,,,,,,,,,,,,,,,,,,,,,,,,,,,,"[1010,1110,920,760,1110,740,550]",6,0,6,0,1,,,,
,,,,6643a65c3ea38fe03b60767d,B,2024-06-22_06h23.01.447,Slot Machine Game,2023.1.3,Win32,21.83406114,,,,,,,,,,,,,,,,,,,,,,,,,,,100,,,,,,,,,,,,,,,,,,,,,8,7,"[9,15]","[[1,3,2],[2,3,1]]",580.0538,0,left,0.3193,,0.5,0.3,"[1,3,2]",0.488568415,stimuli/card_100_transparent.png,100,0,0,0,0,1,,,,,,,,,,
,,,,6643a65c3ea38fe03b60767d,B,2024-06-22_06h23.01.447,Slot Machine Game,2023.1.3,Win32,21.83406114,,,,,,,,,,,,,,,,,,,,,,,,,,,200,,,,,,,,,,,,,,,,,,,,,8,7,,,581.7443,1,left,0.5568,,1,0.3,"[1,3,2]",0.497869066,stimuli/card_100_transparent.png,100,1,0,1,0,1,,,,,,,,,,
,,,,6643a65c3ea38fe03b60767d,B,2024-06-22_06h23.01.447,Slot Machine Game,2023.1.3,Win32,21.83406114,,,,,,,,,,,,,,,,,,,,,,,,,,,300,,,,,,,,,,,,,,,,,,,,,8,7,,,584.1211,2,left,0.5598,,0.5,0.3,"[1,3,2]",0.776421271,stimuli/card_100_transparent.png,100,2,0,2,0,1,,,,,,,,,,
,,,,6643a65c3ea38fe03b60767d,B,2024-06-22_06h23.01.447,Slot Machine Game,2023.1.3,Win32,21.83406114,,,,,,,,,,,,,,,,,,,,,,,,,,,400,,,,,,,,,,,,,,,,,,,,,8,7,,,585.9926,3,left,0.4377,,1.5,0.3,"[1,3,2]",0.365011152,stimuli/card_100_transparent.png,100,3,0,3,0,1,,,,,,,,,,
,,,,6643a65c3ea38fe03b60767d,B,2024-06-22_06h23.01.447,Slot Machine Game,2023.1.3,Win32,21.83406114,,,,,,,,,,,,,,,,,,,,,,,,,,,500,,,,,,,,,,,,,,,,,,,,,8,7,,,588.7963,4,left,0.437,,0.5,0.3,"[1,3,2]",0.697667816,stimuli/card_100_transparent.png,100,4,0,4,0,1,,,,,,,,,,
,,,,6643a65c3ea38fe03b60767d,B,2024-06-22_06h23.01.447,Slot Machine Game,2023.1.3,Win32,21.83406114,,,,,,,,,,,,,,,,,,,,,,,,,,,600,,,,,,,,,,,,,,,,,,,,,8,7,,,590.6674,5,left,0.3716,,0.5,0.3,"[1,3,2]",0.515744256,stimuli/card_100_transparent.png,100,5,0,5,0,1,,,,,,,,,,
,,,,6643a65c3ea38fe03b60767d,B,2024-06-22_06h23.01.447,Slot Machine Game,2023.1.3,Win32,21.83406114,,,,,,,,,,,,,,,,,,,,,,,,,,,700,,,,,,,,,,,,,,,,,,,,,8,7,,,592.4742,6,left,0.3119,,0.5,0.3,"[1,3,2]",0.328293153,stimuli/card_100_transparent.png,100,6,0,6,0,1,,,,,,,,,,
,,,,6643a65c3ea38fe03b60767d,B,2024-06-22_06h23.01.447,Slot Machine Game,2023.1.3,Win32,21.83406114,,,,,,,,,,,,,,,,,,,,,,,,,,,800,,,,,,,,,,,,,,,,,,,,,8,7,,,594.1628,7,left,0.2491,,1,0.3,"[1,3,2]",0.213371512,stimuli/card_100_transparent.png,100,7,0,7,0,1,,,,,,,,,,
,,,,6643a65c3ea38fe03b60767d,B,2024-06-22_06h23.01.447,Slot Machine Game,2023.1.3,Win32,21.83406114,,,,,,,,,,,,,,,,,,,,,,,,,,,800,,,,,,,,,,,,,,,,,,,,,8,7,,,596.2415,8,left,0.068,,1,0.3,"[1,3,2]",0.071958699,stimuli/card_0_transparent.png,0,8,0,8,0,1,,,,,,,,,,
,,,,6643a65c3ea38fe03b60767d,B,2024-06-22_06h23.01.447,Slot Machine Game,2023.1.3,Win32,21.83406114,,,,,,,,,,,,,,,,,,,,,,,,,,,810,,,,,,,,,,,,,,,,,,,,,8,7,,,598.1801,9,left,0.4469,,1,0.3,"[2,3,1]",0.693857457,stimuli/card_10_transparent.png,10,9,0,9,0,1,,,,,,,,,,
,,,,6643a65c3ea38fe03b60767d,B,2024-06-22_06h23.01.447,Slot Machine Game,2023.1.3,Win32,21.83406114,,,,,,,,,,,,,,,,,,,,,,,,,,,820,,,,,,,,,,,,,,,,,,,,,8,7,,,600.4592,10,left,0.0671,,0.5,0.3,"[2,3,1]",0.831566846,stimuli/card_10_transparent.png,10,10,0,10,0,1,,,,,,,,,,
,,,,6643a65c3ea38fe03b60767d,B,2024-06-22_06h23.01.447,Slot Machine Game,2023.1.3,Win32,21.83406114,,,,,,,,,,,,,,,,,,,,,,,,,,,920,,,,,,,,,,,,,,,,,,,,,8,7,,,601.956,11,right,0.6121,,0.5,0.3,"[2,3,1]",0.972497004,stimuli/card_100_transparent.png,100,11,0,11,0,1,,,,,,,,,,
,,,,6643a65c3ea38fe03b60767d,B,2024-06-22_06h23.01.447,Slot Machine Game,2023.1.3,Win32,21.83406114,,,,,,,,,,,,,,,,,,,,,,,,,,,1020,,,,,,,,,,,,,,,,,,,,,8,7,,,604.0011,12,right,0.4995,,1,0.3,"[2,3,1]",0.991105733,stimuli/card_100_transparent.png,100,12,0,12,0,1,,,,,,,,,,
,,,,6643a65c3ea38fe03b60767d,B,2024-06-22_06h23.01.447,Slot Machine Game,2023.1.3,Win32,21.83406114,,,,,,,,,,,,,,,,,,,,,,,,,,,1030,,,,,,,,,,,,,,,,,,,,,8,7,,,606.328,13,right,0.2507,,1.5,0.3,"[2,3,1]",0.188192619,stimuli/card_10_transparent.png,10,13,0,13,0,1,,,,,,,,,,
,,,,6643a65c3ea38fe03b60767d,B,2024-06-22_06h23.01.447,Slot Machine Game,2023.1.3,Win32,21.83406114,,,,,,,,,,,,,,,,,,,,,,,,,,,1130,,,,,,,,,,,,,,,,,,,,,8,7,,,608.9199,14,right,0.6164,,0.5,0.3,"[2,3,1]",0.455096846,stimuli/card_100_transparent.png,100,14,0,14,0,1,,,,,,,,,,
,,,,6643a65c3ea38fe03b60767d,B,2024-06-22_06h23.01.447,Slot Machine Game,2023.1.3,Win32,21.83406114,,,,,,,,,,,,,,,,,,,,,,,,,,,,,,,,,,,610.9126,,,,,,,,,,,,,,,,,,,,,,,,,,,,,,,,,"[1010,1110,920,760,1110,740,550,1130]",7,0,7,0,1,,,,
,,,,6643a65c3ea38fe03b60767d,B,2024-06-22_06h23.01.447,Slot Machine Game,2023.1.3,Win32,21.83406114,,,,,,,,,,,,,,,,,,,,,,,,,,,100,,,,,,,,,,,,,,,,,,,,,9,9,[15],"[[3,1,2]]",615.9161,0,left,2.8963,,1,0.3,"[3,1,2]",0.069729672,stimuli/card_100_transparent.png,100,0,0,0,0,1,,,,,,,,,,
,,,,6643a65c3ea38fe03b60767d,B,2024-06-22_06h23.01.447,Slot Machine Game,2023.1.3,Win32,21.83406114,,,,,,,,,,,,,,,,,,,,,,,,,,,100,,,,,,,,,,,,,,,,,,,,,9,9,,,620.6903,1,left,0.1277,,1.5,0.3,"[3,1,2]",0.658380519,stimuli/card_0_transparent.png,0,1,0,1,0,1,,,,,,,,,,
,,,,6643a65c3ea38fe03b60767d,B,2024-06-22_06h23.01.447,Slot Machine Game,2023.1.3,Win32,21.83406114,,,,,,,,,,,,,,,,,,,,,,,,,,,110,,,,,,,,,,,,,,,,,,,,,9,9,,,623.2342,2,left,0.0673,,0.5,0.3,"[3,1,2]",0.178873023,stimuli/card_10_transparent.png,10,2,0,2,0,1,,,,,,,,,,
,,,,6643a65c3ea38fe03b60767d,B,2024-06-22_06h23.01.447,Slot Machine Game,2023.1.3,Win32,21.83406114,,,,,,,,,,,,,,,,,,,,,,,,,,,110,,,,,,,,,,,,,,,,,,,,,9,9,,,624.6753,3,left,0.0065,,1,0.3,"[3,1,2]",0.858055163,stimuli/card_0_transparent.png,0,3,0,3,0,1,,,,,,,,,,
,,,,6643a65c3ea38fe03b60767d,B,2024-06-22_06h23.01.447,Slot Machine Game,2023.1.3,Win32,21.83406114,,,,,,,,,,,,,,,,,,,,,,,,,,,120,,,,,,,,,,,,,,,,,,,,,9,9,,,626.503,4,right,0.0063,,1.5,0.3,"[3,1,2]",0.79152473,stimuli/card_10_transparent.png,10,4,0,4,0,1,,,,,,,,,,
,,,,6643a65c3ea38fe03b60767d,B,2024-06-22_06h23.01.447,Slot Machine Game,2023.1.3,Win32,21.83406114,,,,,,,,,,,,,,,,,,,,,,,,,,,220,,,,,,,,,,,,,,,,,,,,,9,9,,,628.8339,5,up,0.128,,1,0.3,"[3,1,2]",0.750986989,stimuli/card_100_transparent.png,100,5,0,5,0,1,,,,,,,,,,
,,,,6643a65c3ea38fe03b60767d,B,2024-06-22_06h23.01.447,Slot Machine Game,2023.1.3,Win32,21.83406114,,,,,,,,,,,,,,,,,,,,,,,,,,,220,,,,,,,,,,,,,,,,,,,,,9,9,,,630.8125,6,up,0.0065,,0.5,0.3,"[3,1,2]",0.016735885,stimuli/card_0_transparent.png,0,6,0,6,0,1,,,,,,,,,,
,,,,6643a65c3ea38fe03b60767d,B,2024-06-22_06h23.01.447,Slot Machine Game,2023.1.3,Win32,21.83406114,,,,,,,,,,,,,,,,,,,,,,,,,,,220,,,,,,,,,,,,,,,,,,,,,9,9,,,632.1905,7,up,0.067,,1,0.3,"[3,1,2]",0.044418506,stimuli/card_0_transparent.png,0,7,0,7,0,1,,,,,,,,,,
,,,,6643a65c3ea38fe03b60767d,B,2024-06-22_06h23.01.447,Slot Machine Game,2023.1.3,Win32,21.83406114,,,,,,,,,,,,,,,,,,,,,,,,,,,230,,,,,,,,,,,,,,,,,,,,,9,9,,,634.134,8,right,0.007,,1.5,0.3,"[3,1,2]",0.951388744,stimuli/card_10_transparent.png,10,8,0,8,0,1,,,,,,,,,,
,,,,6643a65c3ea38fe03b60767d,B,2024-06-22_06h23.01.447,Slot Machine Game,2023.1.3,Win32,21.83406114,,,,,,,,,,,,,,,,,,,,,,,,,,,230,,,,,,,,,,,,,,,,,,,,,9,9,,,636.4318,9,left,0.9988,,0.5,0.3,"[3,1,2]",0.233726143,stimuli/card_0_transparent.png,0,9,0,9,0,1,,,,,,,,,,
,,,,6643a65c3ea38fe03b60767d,B,2024-06-22_06h23.01.447,Slot Machine Game,2023.1.3,Win32,21.83406114,,,,,,,,,,,,,,,,,,,,,,,,,,,240,,,,,,,,,,,,,,,,,,,,,9,9,,,638.8671,10,right,0.2523,,1.5,0.3,"[3,1,2]",0.559321205,stimuli/card_10_transparent.png,10,10,0,10,0,1,,,,,,,,,,
,,,,6643a65c3ea38fe03b60767d,B,2024-06-22_06h23.01.447,Slot Machine Game,2023.1.3,Win32,21.83406114,,,,,,,,,,,,,,,,,,,,,,,,,,,340,,,,,,,,,,,,,,,,,,,,,9,9,,,641.4815,11,up,0.2548,,1.5,0.3,"[3,1,2]",0.574315426,stimuli/card_100_transparent.png,100,11,0,11,0,1,,,,,,,,,,
,,,,6643a65c3ea38fe03b60767d,B,2024-06-22_06h23.01.447,Slot Machine Game,2023.1.3,Win32,21.83406114,,,,,,,,,,,,,,,,,,,,,,,,,,,440,,,,,,,,,,,,,,,,,,,,,9,9,,,644.0652,12,up,0.2535,,1.5,0.3,"[3,1,2]",0.945786304,stimuli/card_100_transparent.png,100,12,0,12,0,1,,,,,,,,,,
,,,,6643a65c3ea38fe03b60767d,B,2024-06-22_06h23.01.447,Slot Machine Game,2023.1.3,Win32,21.83406114,,,,,,,,,,,,,,,,,,,,,,,,,,,540,,,,,,,,,,,,,,,,,,,,,9,9,,,646.7122,13,up,0.1917,,0.5,0.3,"[3,1,2]",0.289739604,stimuli/card_100_transparent.png,100,13,0,13,0,1,,,,,,,,,,
,,,,6643a65c3ea38fe03b60767d,B,2024-06-22_06h23.01.447,Slot Machine Game,2023.1.3,Win32,21.83406114,,,,,,,,,,,,,,,,,,,,,,,,,,,540,,,,,,,,,,,,,,,,,,,,,9,9,,,648.28,14,up,0.1344,,1.5,0.3,"[3,1,2]",0.030670353,stimuli/card_0_transparent.png,0,14,0,14,0,1,,,,,,,,,,
,,,,6643a65c3ea38fe03b60767d,B,2024-06-22_06h23.01.447,Slot Machine Game,2023.1.3,Win32,21.83406114,,,,,,,,,,,,,,,,,,,,,,,,,,,,,,,,,,,650.7647,,,,,,,,,,,,,,,,,,,,,,,,,,,,,,,,,"[1010,1110,920,760,1110,740,550,1130,540]",8,0,8,0,1,,,,
,,,,6643a65c3ea38fe03b60767d,B,2024-06-22_06h23.01.447,Slot Machine Game,2023.1.3,Win32,21.83406114,,,,,,,,,,,,,,,,,,,,,,,,,,,10,,,,,,,,,,,,,,,,,,,,,10,6,"[4,10,15]","[[2,3,1],[1,3,2],[3,2,1]]",655.7539,0,left,0.3103,,1,0.3,"[2,3,1]",0.722154633,stimuli/card_10_transparent.png,10,0,0,0,0,1,,,,,,,,,,
,,,,6643a65c3ea38fe03b60767d,B,2024-06-22_06h23.01.447,Slot Machine Game,2023.1.3,Win32,21.83406114,,,,,,,,,,,,,,,,,,,,,,,,,,,20,,,,,,,,,,,,,,,,,,,,,10,6,,,657.9104,1,up,0.8145,,1.5,0.3,"[2,3,1]",0.136431147,stimuli/card_10_transparent.png,10,1,0,1,0,1,,,,,,,,,,
,,,,6643a65c3ea38fe03b60767d,B,2024-06-22_06h23.01.447,Slot Machine Game,2023.1.3,Win32,21.83406114,,,,,,,,,,,,,,,,,,,,,,,,,,,20,,,,,,,,,,,,,,,,,,,,,10,6,,,661.1431,2,right,0.3156,,1,0.3,"[2,3,1]",0.007736649,stimuli/card_0_transparent.png,0,2,0,2,0,1,,,,,,,,,,
,,,,6643a65c3ea38fe03b60767d,B,2024-06-22_06h23.01.447,Slot Machine Game,2023.1.3,Win32,21.83406114,,,,,,,,,,,,,,,,,,,,,,,,,,,20,,,,,,,,,,,,,,,,,,,,,10,6,,,663.3488,3,up,0.4955,,1.5,0.3,"[2,3,1]",0.676982088,stimuli/card_0_transparent.png,0,3,0,3,0,1,,,,,,,,,,
,,,,6643a65c3ea38fe03b60767d,B,2024-06-22_06h23.01.447,Slot Machine Game,2023.1.3,Win32,21.83406114,,,,,,,,,,,,,,,,,,,,,,,,,,,30,,,,,,,,,,,,,,,,,,,,,10,6,,,666.242,4,left,0.0669,,1,0.3,"[1,3,2]",0.170208225,stimuli/card_10_transparent.png,10,4,0,4,0,1,,,,,,,,,,
,,,,6643a65c3ea38fe03b60767d,B,2024-06-22_06h23.01.447,Slot Machine Game,2023.1.3,Win32,21.83406114,,,,,,,,,,,,,,,,,,,,,,,,,,,130,,,,,,,,,,,,,,,,,,,,,10,6,,,668.1504,5,left,0.0668,,0.5,0.3,"[1,3,2]",0.412254021,stimuli/card_100_transparent.png,100,5,0,5,0,1,,,,,,,,,,
,,,,6643a65c3ea38fe03b60767d,B,2024-06-22_06h23.01.447,Slot Machine Game,2023.1.3,Win32,21.83406114,,,,,,,,,,,,,,,,,,,,,,,,,,,230,,,,,,,,,,,,,,,,,,,,,10,6,,,669.5987,6,left,0.0064,,0.5,0.3,"[1,3,2]",0.243666098,stimuli/card_100_transparent.png,100,6,0,6,0,1,,,,,,,,,,
,,,,6643a65c3ea38fe03b60767d,B,2024-06-22_06h23.01.447,Slot Machine Game,2023.1.3,Win32,21.83406114,,,,,,,,,,,,,,,,,,,,,,,,,,,330,,,,,,,,,,,,,,,,,,,,,10,6,,,670.9085,7,left,0.25,,0.5,0.3,"[1,3,2]",0.215618987,stimuli/card_100_transparent.png,100,7,0,7,0,1,,,,,,,,,,
,,,,6643a65c3ea38fe03b60767d,B,2024-06-22_06h23.01.447,Slot Machine Game,2023.1.3,Win32,21.83406114,,,,,,,,,,,,,,,,,,,,,,,,,,,430,,,,,,,,,,,,,,,,,,,,,10,6,,,672.4772,8,left,0.1277,,1.5,0.3,"[1,3,2]",0.937981256,stimuli/card_100_transparent.png,100,8,0,8,0,1,,,,,,,,,,
,,,,6643a65c3ea38fe03b60767d,B,2024-06-22_06h23.01.447,Slot Machine Game,2023.1.3,Win32,21.83406114,,,,,,,,,,,,,,,,,,,,,,,,,,,530,,,,,,,,,,,,,,,,,,,,,10,6,,,674.9747,9,left,0.6798,,1,0.3,"[1,3,2]",0.403678746,stimuli/card_100_transparent.png,100,9,0,9,0,1,,,,,,,,,,
,,,,6643a65c3ea38fe03b60767d,B,2024-06-22_06h23.01.447,Slot Machine Game,2023.1.3,Win32,21.83406114,,,,,,,,,,,,,,,,,,,,,,,,,,,530,,,,,,,,,,,,,,,,,,,,,10,6,,,677.5306,10,left,0.1883,,1.5,0.3,"[3,2,1]",0.65929585,stimuli/card_0_transparent.png,0,10,0,10,0,1,,,,,,,,,,
,,,,6643a65c3ea38fe03b60767d,B,2024-06-22_06h23.01.447,Slot Machine Game,2023.1.3,Win32,21.83406114,,,,,,,,,,,,,,,,,,,,,,,,,,,540,,,,,,,,,,,,,,,,,,,,,10,6,,,680.1352,11,up,0.1271,,0.5,0.3,"[3,2,1]",0.934111529,stimuli/card_10_transparent.png,10,11,0,11,0,1,,,,,,,,,,
,,,,6643a65c3ea38fe03b60767d,B,2024-06-22_06h23.01.447,Slot Machine Game,2023.1.3,Win32,21.83406114,,,,,,,,,,,,,,,,,,,,,,,,,,,540,,,,,,,,,,,,,,,,,,,,,10,6,,,681.5886,12,left,0.1874,,0.5,0.3,"[3,2,1]",0.336151196,stimuli/card_0_transparent.png,0,12,0,12,0,1,,,,,,,,,,
,,,,6643a65c3ea38fe03b60767d,B,2024-06-22_06h23.01.447,Slot Machine Game,2023.1.3,Win32,21.83406114,,,,,,,,,,,,,,,,,,,,,,,,,,,540,,,,,,,,,,,,,,,,,,,,,10,6,,,683.1526,13,left,0.308,,1.5,0.3,"[3,2,1]",0.640848062,stimuli/card_0_transparent.png,0,13,0,13,0,1,,,,,,,,,,
,,,,6643a65c3ea38fe03b60767d,B,2024-06-22_06h23.01.447,Slot Machine Game,2023.1.3,Win32,21.83406114,,,,,,,,,,,,,,,,,,,,,,,,,,,640,,,,,,,,,,,,,,,,,,,,,10,6,,,685.792,14,right,1.5662,,1.5,0.3,"[3,2,1]",0.344601295,stimuli/card_100_transparent.png,100,14,0,14,0,1,,,,,,,,,,
,,,,6643a65c3ea38fe03b60767d,B,2024-06-22_06h23.01.447,Slot Machine Game,2023.1.3,Win32,21.83406114,,,,,,,,,,,,,,,,,,,,,,,,,,,,,,,,,,,689.7739,,,,,,,,,,,,,,,,,,,,,,,,,,,,,,,,,"[1010,1110,920,760,1110,740,550,1130,540,640]",9,0,9,0,1,,,,
,,,,6643a65c3ea38fe03b60767d,B,2024-06-22_06h23.01.447,Slot Machine Game,2023.1.3,Win32,21.83406114,,,,,,,,,,,,,,,,,,,,,,,,,,,,,,,,,,,,,,,,,,,,,,,,,,,,,,,,,,,,,,,,,,,,,,,,,,9,"[1010,1110,920,760,1110,740,550,1130,540,640]",5.5,2024-06-22_06h34.40.249
