key_resp_welcome_started,key_resp_welcome_keys,key_resp_welcome_rt,key_resp_welcome_duration,prolific_id,path_id,date,expName,psychopyVersion,OS,frameRate,key_resp_instruction1_started,key_resp_instruction1_keys,key_resp_instruction1_rt,key_resp_instruction1_duration,key_resp_instruction2_started,key_resp_instruction2_keys,key_resp_instruction2_rt,key_resp_instruction2_duration,key_resp_instruction3_started,key_resp_instruction3_keys,key_resp_instruction3_rt,key_resp_instruction3_duration,key_resp_instruction4_started,key_resp_instruction4_keys,key_resp_instruction4_rt,key_resp_instruction4_duration,practiceCondition,practice_reward_seqs,practice_trial_started,practice_trial_num,practice_resp_rt,practice_resp_duration,practice_resp_keys,prac_presentationInterval,"practice_reward_seq: 2,1,3",reward_img,cumulative_reward,trial_reward,practice_trials.thisRepN,practice_trials.thisTrialN,practice_trials.thisN,practice_trials.thisIndex,practice_trials.ran,"practice_reward_seq: 2,3,1",block_break_started,"practice_reward_seq: 1,3,2","practice_reward_seq: 3,1,2",practice_end_time,practice_end_keys,practice_end_rt,practice_end_duration,main_instruction_text_started,block_condition,block_order_indices,main_instruction_keys,main_instruction_rt,main_instruction_duration,block_number,block_assignment,current_condition,main_reward_seqs,main_trial_started,main_trial_num,main_trial_keys,main_trial_rt,main_trial_duration,main_presentationInterval,reward_presentation_time,main_reward_seq,reward_rand_val,main_reward_img,current_reward,main_trials.thisRepN,main_trials.thisTrialN,main_trials.thisN,main_trials.thisIndex,main_trials.ran,block_reward,block.thisRepN,block.thisTrialN,block.thisN,block.thisIndex,block.ran,block_reward.length,block_reward_all,reward_amount,date_end_task
0.0002,space,6.2388,,664bae9ae5900c0b842196f2,B,2024-06-30_10h21.13.929,Slot Machine Game,2023.1.3,Win32,60.24096386,,,,,,,,,,,,,,,,,,,,,,,,,,,,,,,,,,,,,,,,,,,,,,,,,,,,,,,,,,,,,,,,,,,,,,,,,,,,,
,,,,664bae9ae5900c0b842196f2,B,2024-06-30_10h21.13.929,Slot Machine Game,2023.1.3,Win32,60.24096386,6.2497,space,10.6785,,,,,,,,,,,,,,,,,,,,,,,,,,,,,,,,,,,,,,,,,,,,,,,,,,,,,,,,,,,,,,,,,,,,,,,,,,
,,,,664bae9ae5900c0b842196f2,B,2024-06-30_10h21.13.929,Slot Machine Game,2023.1.3,Win32,60.24096386,,,,,16.949,space,28.9148,,,,,,,,,,,,,,,,,,,,,,,,,,,,,,,,,,,,,,,,,,,,,,,,,,,,,,,,,,,,,,,,,,,,,,
,,,,664bae9ae5900c0b842196f2,B,2024-06-30_10h21.13.929,Slot Machine Game,2023.1.3,Win32,60.24096386,,,,,,,,,45.8989,space,6.0501,,,,,,,,,,,,,,,,,,,,,,,,,,,,,,,,,,,,,,,,,,,,,,,,,,,,,,,,,,,,,,,,,,
,,,,664bae9ae5900c0b842196f2,B,2024-06-30_10h21.13.929,Slot Machine Game,2023.1.3,Win32,60.24096386,,,,,,,,,,,,,,,,,,,,,,,,,,,,,,,,,,,,,,,,,,,,,,,,,,,,,,,,,,,,,,,,,,,,,,,,,,,,,
,,,,664bae9ae5900c0b842196f2,B,2024-06-30_10h21.13.929,Slot Machine Game,2023.1.3,Win32,60.24096386,,,,,,,,,,,,,193.5986,space,4.2787,,,,,,,,,,,,,,,,,,,,,,,,,,,,,,,,,,,,,,,,,,,,,,,,,,,,,,,,,,,,,,
,,,,664bae9ae5900c0b842196f2,B,2024-06-30_10h21.13.929,Slot Machine Game,2023.1.3,Win32,60.24096386,,,,,,,,,,,,,,,,,"[9,15]","[[2,1,3],[2,3,1]]",197.9038,0,1.0907,,left,0.5,,stimuli/card_10_transparent.png,10,10,0,0,0,0,1,,,,,,,,,,,,,,,,,,,,,,,,,,,,,,,,,,,,,,,,,,,,
,,,,664bae9ae5900c0b842196f2,B,2024-06-30_10h21.13.929,Slot Machine Game,2023.1.3,Win32,60.24096386,,,,,,,,,,,,,,,,,,,200.3112,1,0.858,,left,1,,stimuli/card_10_transparent.png,20,10,1,0,1,0,1,,,,,,,,,,,,,,,,,,,,,,,,,,,,,,,,,,,,,,,,,,,,
,,,,664bae9ae5900c0b842196f2,B,2024-06-30_10h21.13.929,Slot Machine Game,2023.1.3,Win32,60.24096386,,,,,,,,,,,,,,,,,,,202.9944,2,2.4884,,left,1,,stimuli/card_0_transparent.png,20,0,2,0,2,0,1,,,,,,,,,,,,,,,,,,,,,,,,,,,,,,,,,,,,,,,,,,,,
,,,,664bae9ae5900c0b842196f2,B,2024-06-30_10h21.13.929,Slot Machine Game,2023.1.3,Win32,60.24096386,,,,,,,,,,,,,,,,,,,207.3109,3,0.3999,,left,0.5,,stimuli/card_10_transparent.png,30,10,3,0,3,0,1,,,,,,,,,,,,,,,,,,,,,,,,,,,,,,,,,,,,,,,,,,,,
,,,,664bae9ae5900c0b842196f2,B,2024-06-30_10h21.13.929,Slot Machine Game,2023.1.3,Win32,60.24096386,,,,,,,,,,,,,,,,,,,209.0442,4,0.8349,,right,0.5,,stimuli/card_0_transparent.png,30,0,4,0,4,0,1,,,,,,,,,,,,,,,,,,,,,,,,,,,,,,,,,,,,,,,,,,,,
,,,,664bae9ae5900c0b842196f2,B,2024-06-30_10h21.13.929,Slot Machine Game,2023.1.3,Win32,60.24096386,,,,,,,,,,,,,,,,,,,211.2107,5,0.1678,,left,0.5,,stimuli/card_0_transparent.png,30,0,5,0,5,0,1,,,,,,,,,,,,,,,,,,,,,,,,,,,,,,,,,,,,,,,,,,,,
,,,,664bae9ae5900c0b842196f2,B,2024-06-30_10h21.13.929,Slot Machine Game,2023.1.3,Win32,60.24096386,,,,,,,,,,,,,,,,,,,212.7107,6,0.6339,,up,0.5,,stimuli/card_100_transparent.png,130,100,6,0,6,0,1,,,,,,,,,,,,,,,,,,,,,,,,,,,,,,,,,,,,,,,,,,,,
,,,,664bae9ae5900c0b842196f2,B,2024-06-30_10h21.13.929,Slot Machine Game,2023.1.3,Win32,60.24096386,,,,,,,,,,,,,,,,,,,214.6773,7,0.2485,,up,0.5,,stimuli/card_100_transparent.png,230,100,7,0,7,0,1,,,,,,,,,,,,,,,,,,,,,,,,,,,,,,,,,,,,,,,,,,,,
,,,,664bae9ae5900c0b842196f2,B,2024-06-30_10h21.13.929,Slot Machine Game,2023.1.3,Win32,60.24096386,,,,,,,,,,,,,,,,,,,216.2606,8,2.038,,up,1.5,,stimuli/card_10_transparent.png,240,10,8,0,8,0,1,,,,,,,,,,,,,,,,,,,,,,,,,,,,,,,,,,,,,,,,,,,,
,,,,664bae9ae5900c0b842196f2,B,2024-06-30_10h21.13.929,Slot Machine Game,2023.1.3,Win32,60.24096386,,,,,,,,,,,,,,,,,,,220.6272,9,1.5179,,up,1,,stimuli/card_0_transparent.png,240,0,9,0,9,0,1,,,,,,,,,,,,,,,,,,,,,,,,,,,,,,,,,,,,,,,,,,,,
,,,,664bae9ae5900c0b842196f2,B,2024-06-30_10h21.13.929,Slot Machine Game,2023.1.3,Win32,60.24096386,,,,,,,,,,,,,,,,,,,223.9768,10,2.4668,,up,0.5,,stimuli/card_10_transparent.png,250,10,10,0,10,0,1,,,,,,,,,,,,,,,,,,,,,,,,,,,,,,,,,,,,,,,,,,,,
,,,,664bae9ae5900c0b842196f2,B,2024-06-30_10h21.13.929,Slot Machine Game,2023.1.3,Win32,60.24096386,,,,,,,,,,,,,,,,,,,227.7604,11,1.4169,,up,1,,stimuli/card_0_transparent.png,250,0,11,0,11,0,1,,,,,,,,,,,,,,,,,,,,,,,,,,,,,,,,,,,,,,,,,,,,
,,,,664bae9ae5900c0b842196f2,B,2024-06-30_10h21.13.929,Slot Machine Game,2023.1.3,Win32,60.24096386,,,,,,,,,,,,,,,,,,,231.0102,12,0.0337,,up,1,,stimuli/card_0_transparent.png,250,0,12,0,12,0,1,,,,,,,,,,,,,,,,,,,,,,,,,,,,,,,,,,,,,,,,,,,,
,,,,664bae9ae5900c0b842196f2,B,2024-06-30_10h21.13.929,Slot Machine Game,2023.1.3,Win32,60.24096386,,,,,,,,,,,,,,,,,,,232.8769,13,1.9901,,up,1.5,,stimuli/card_0_transparent.png,250,0,13,0,13,0,1,,,,,,,,,,,,,,,,,,,,,,,,,,,,,,,,,,,,,,,,,,,,
,,,,664bae9ae5900c0b842196f2,B,2024-06-30_10h21.13.929,Slot Machine Game,2023.1.3,Win32,60.24096386,,,,,,,,,,,,,,,,,,,237.1933,14,1.8665,,left,1,,stimuli/card_10_transparent.png,260,10,14,0,14,0,1,,,,,,,,,,,,,,,,,,,,,,,,,,,,,,,,,,,,,,,,,,,,
,,,,664bae9ae5900c0b842196f2,B,2024-06-30_10h21.13.929,Slot Machine Game,2023.1.3,Win32,60.24096386,,,,,,,,,,,,,,,,,"[6,15]","[[1,3,2],[3,1,2]]",245.9005,0,0.5337,,right,1,,stimuli/card_10_transparent.png,10,10,0,0,0,0,1,,240.9007,,,,,,,,,,,,,,,,,,,,,,,,,,,,,,,,,,,,,,,,,,
,,,,664bae9ae5900c0b842196f2,B,2024-06-30_10h21.13.929,Slot Machine Game,2023.1.3,Win32,60.24096386,,,,,,,,,,,,,,,,,,,248.2598,1,0.023,,right,1.5,,stimuli/card_10_transparent.png,20,10,1,0,1,0,1,,,,,,,,,,,,,,,,,,,,,,,,,,,,,,,,,,,,,,,,,,,,
,,,,664bae9ae5900c0b842196f2,B,2024-06-30_10h21.13.929,Slot Machine Game,2023.1.3,Win32,60.24096386,,,,,,,,,,,,,,,,,,,250.6097,2,1.9518,,left,1,,stimuli/card_10_transparent.png,30,10,2,0,2,0,1,,,,,,,,,,,,,,,,,,,,,,,,,,,,,,,,,,,,,,,,,,,,
,,,,664bae9ae5900c0b842196f2,B,2024-06-30_10h21.13.929,Slot Machine Game,2023.1.3,Win32,60.24096386,,,,,,,,,,,,,,,,,,,254.393,3,1.7519,,left,1,,stimuli/card_100_transparent.png,130,100,3,0,3,0,1,,,,,,,,,,,,,,,,,,,,,,,,,,,,,,,,,,,,,,,,,,,,
,,,,664bae9ae5900c0b842196f2,B,2024-06-30_10h21.13.929,Slot Machine Game,2023.1.3,Win32,60.24096386,,,,,,,,,,,,,,,,,,,257.976,4,0.0589,,left,1.5,,stimuli/card_100_transparent.png,230,100,4,0,4,0,1,,,,,,,,,,,,,,,,,,,,,,,,,,,,,,,,,,,,,,,,,,,,
,,,,664bae9ae5900c0b842196f2,B,2024-06-30_10h21.13.929,Slot Machine Game,2023.1.3,Win32,60.24096386,,,,,,,,,,,,,,,,,,,260.3596,5,0.0834,,left,1,,stimuli/card_100_transparent.png,330,100,5,0,5,0,1,,,,,,,,,,,,,,,,,,,,,,,,,,,,,,,,,,,,,,,,,,,,
,,,,664bae9ae5900c0b842196f2,B,2024-06-30_10h21.13.929,Slot Machine Game,2023.1.3,Win32,60.24096386,,,,,,,,,,,,,,,,,,,262.2761,6,0.1729,,left,0.5,,stimuli/card_0_transparent.png,330,0,6,0,6,0,1,,,,,,,,,,,,,,,,,,,,,,,,,,,,,,,,,,,,,,,,,,,,
,,,,664bae9ae5900c0b842196f2,B,2024-06-30_10h21.13.929,Slot Machine Game,2023.1.3,Win32,60.24096386,,,,,,,,,,,,,,,,,,,263.7761,7,0.8745,,left,1,,stimuli/card_0_transparent.png,330,0,7,0,7,0,1,,,,,,,,,,,,,,,,,,,,,,,,,,,,,,,,,,,,,,,,,,,,
,,,,664bae9ae5900c0b842196f2,B,2024-06-30_10h21.13.929,Slot Machine Game,2023.1.3,Win32,60.24096386,,,,,,,,,,,,,,,,,,,266.476,8,0.0165,,up,1.5,,stimuli/card_100_transparent.png,430,100,8,0,8,0,1,,,,,,,,,,,,,,,,,,,,,,,,,,,,,,,,,,,,,,,,,,,,
,,,,664bae9ae5900c0b842196f2,B,2024-06-30_10h21.13.929,Slot Machine Game,2023.1.3,Win32,60.24096386,,,,,,,,,,,,,,,,,,,268.8256,9,0.0256,,up,1.5,,stimuli/card_100_transparent.png,530,100,9,0,9,0,1,,,,,,,,,,,,,,,,,,,,,,,,,,,,,,,,,,,,,,,,,,,,
,,,,664bae9ae5900c0b842196f2,B,2024-06-30_10h21.13.929,Slot Machine Game,2023.1.3,Win32,60.24096386,,,,,,,,,,,,,,,,,,,271.1593,10,0.8898,,up,1,,stimuli/card_100_transparent.png,630,100,10,0,10,0,1,,,,,,,,,,,,,,,,,,,,,,,,,,,,,,,,,,,,,,,,,,,,
,,,,664bae9ae5900c0b842196f2,B,2024-06-30_10h21.13.929,Slot Machine Game,2023.1.3,Win32,60.24096386,,,,,,,,,,,,,,,,,,,273.8758,11,0.2335,,up,1.5,,stimuli/card_100_transparent.png,730,100,11,0,11,0,1,,,,,,,,,,,,,,,,,,,,,,,,,,,,,,,,,,,,,,,,,,,,
,,,,664bae9ae5900c0b842196f2,B,2024-06-30_10h21.13.929,Slot Machine Game,2023.1.3,Win32,60.24096386,,,,,,,,,,,,,,,,,,,276.4257,12,0.2012,,up,1,,stimuli/card_100_transparent.png,830,100,12,0,12,0,1,,,,,,,,,,,,,,,,,,,,,,,,,,,,,,,,,,,,,,,,,,,,
,,,,664bae9ae5900c0b842196f2,B,2024-06-30_10h21.13.929,Slot Machine Game,2023.1.3,Win32,60.24096386,,,,,,,,,,,,,,,,,,,278.4424,13,0.0002,,up,1,,stimuli/card_100_transparent.png,930,100,13,0,13,0,1,,,,,,,,,,,,,,,,,,,,,,,,,,,,,,,,,,,,,,,,,,,,
,,,,664bae9ae5900c0b842196f2,B,2024-06-30_10h21.13.929,Slot Machine Game,2023.1.3,Win32,60.24096386,,,,,,,,,,,,,,,,,,,280.2756,14,1.4391,,up,0.5,,stimuli/card_100_transparent.png,1030,100,14,0,14,0,1,,,,,,,,,,,,,,,,,,,,,,,,,,,,,,,,,,,,,,,,,,,,
,,,,664bae9ae5900c0b842196f2,B,2024-06-30_10h21.13.929,Slot Machine Game,2023.1.3,Win32,60.24096386,,,,,,,,,,,,,,,,,,,,,,,,,,,,,,,,,,,283.0422,,,288.0431,space,3.6635,,,,,,,,,,,,,,,,,,,,,,,,,,,,,,,,,,,,,
,,,,664bae9ae5900c0b842196f2,B,2024-06-30_10h21.13.929,Slot Machine Game,2023.1.3,Win32,60.24096386,,,,,,,,,,,,,,,,,,,,,,,,,,,,,,,,,,,,,,,,,,291.7263,2,"[2,4,8,0,1,3,9,6,8,5]",space,1.8299,,,,,,,,,,,,,,,,,,,,,,,,,,,,,,,
,,,,664bae9ae5900c0b842196f2,B,2024-06-30_10h21.13.929,Slot Machine Game,2023.1.3,Win32,60.24096386,,,,,,,,,,,,,,,,,,,,,,,,,,,0,,,,,,,,,,,,,,,,,,,,,1,3,"[15,15]","[[3,1,2],[3,1,2]]",293.5841,0,left,0.1218,,0.5,0.3,"[3,1,2]",0.344839407,stimuli/card_0_transparent.png,0,0,0,0,0,1,,,,,,,,,,
,,,,664bae9ae5900c0b842196f2,B,2024-06-30_10h21.13.929,Slot Machine Game,2023.1.3,Win32,60.24096386,,,,,,,,,,,,,,,,,,,,,,,,,,,10,,,,,,,,,,,,,,,,,,,,,1,3,,,295.0256,1,right,0.0252,,0.5,0.3,"[3,1,2]",0.779666183,stimuli/card_10_transparent.png,10,1,0,1,0,1,,,,,,,,,,
,,,,664bae9ae5900c0b842196f2,B,2024-06-30_10h21.13.929,Slot Machine Game,2023.1.3,Win32,60.24096386,,,,,,,,,,,,,,,,,,,,,,,,,,,110,,,,,,,,,,,,,,,,,,,,,1,3,,,296.3751,2,up,1.4758,,1,0.3,"[3,1,2]",0.667525862,stimuli/card_100_transparent.png,100,2,0,2,0,1,,,,,,,,,,
,,,,664bae9ae5900c0b842196f2,B,2024-06-30_10h21.13.929,Slot Machine Game,2023.1.3,Win32,60.24096386,,,,,,,,,,,,,,,,,,,,,,,,,,,210,,,,,,,,,,,,,,,,,,,,,1,3,,,299.6585,3,up,1.0172,,0.5,0.3,"[3,1,2]",0.917926793,stimuli/card_100_transparent.png,100,3,0,3,0,1,,,,,,,,,,
,,,,664bae9ae5900c0b842196f2,B,2024-06-30_10h21.13.929,Slot Machine Game,2023.1.3,Win32,60.24096386,,,,,,,,,,,,,,,,,,,,,,,,,,,310,,,,,,,,,,,,,,,,,,,,,1,3,,,302.0085,4,up,0.2024,,1.5,0.3,"[3,1,2]",0.41899469,stimuli/card_100_transparent.png,100,4,0,4,0,1,,,,,,,,,,
,,,,664bae9ae5900c0b842196f2,B,2024-06-30_10h21.13.929,Slot Machine Game,2023.1.3,Win32,60.24096386,,,,,,,,,,,,,,,,,,,,,,,,,,,410,,,,,,,,,,,,,,,,,,,,,1,3,,,304.5418,5,up,0.1566,,1,0.3,"[3,1,2]",0.217849237,stimuli/card_100_transparent.png,100,5,0,5,0,1,,,,,,,,,,
,,,,664bae9ae5900c0b842196f2,B,2024-06-30_10h21.13.929,Slot Machine Game,2023.1.3,Win32,60.24096386,,,,,,,,,,,,,,,,,,,,,,,,,,,510,,,,,,,,,,,,,,,,,,,,,1,3,,,306.5251,6,up,0.1898,,0.5,0.3,"[3,1,2]",0.279232541,stimuli/card_100_transparent.png,100,6,0,6,0,1,,,,,,,,,,
,,,,664bae9ae5900c0b842196f2,B,2024-06-30_10h21.13.929,Slot Machine Game,2023.1.3,Win32,60.24096386,,,,,,,,,,,,,,,,,,,,,,,,,,,610,,,,,,,,,,,,,,,,,,,,,1,3,,,308.0417,7,up,1.75,,1,0.3,"[3,1,2]",0.612580926,stimuli/card_100_transparent.png,100,7,0,7,0,1,,,,,,,,,,
,,,,664bae9ae5900c0b842196f2,B,2024-06-30_10h21.13.929,Slot Machine Game,2023.1.3,Win32,60.24096386,,,,,,,,,,,,,,,,,,,,,,,,,,,710,,,,,,,,,,,,,,,,,,,,,1,3,,,311.6249,8,up,0.4836,,0.5,0.3,"[3,1,2]",0.319152338,stimuli/card_100_transparent.png,100,8,0,8,0,1,,,,,,,,,,
,,,,664bae9ae5900c0b842196f2,B,2024-06-30_10h21.13.929,Slot Machine Game,2023.1.3,Win32,60.24096386,,,,,,,,,,,,,,,,,,,,,,,,,,,810,,,,,,,,,,,,,,,,,,,,,1,3,,,313.4416,9,up,0.1834,,0.5,0.3,"[3,1,2]",0.632461304,stimuli/card_100_transparent.png,100,9,0,9,0,1,,,,,,,,,,
,,,,664bae9ae5900c0b842196f2,B,2024-06-30_10h21.13.929,Slot Machine Game,2023.1.3,Win32,60.24096386,,,,,,,,,,,,,,,,,,,,,,,,,,,810,,,,,,,,,,,,,,,,,,,,,1,3,,,314.9582,10,up,2.0684,,0.5,0.3,"[3,1,2]",0.042643537,stimuli/card_0_transparent.png,0,10,0,10,0,1,,,,,,,,,,
,,,,664bae9ae5900c0b842196f2,B,2024-06-30_10h21.13.929,Slot Machine Game,2023.1.3,Win32,60.24096386,,,,,,,,,,,,,,,,,,,,,,,,,,,910,,,,,,,,,,,,,,,,,,,,,1,3,,,318.358,11,up,0.5405,,1.5,0.3,"[3,1,2]",0.476072734,stimuli/card_100_transparent.png,100,11,0,11,0,1,,,,,,,,,,
,,,,664bae9ae5900c0b842196f2,B,2024-06-30_10h21.13.929,Slot Machine Game,2023.1.3,Win32,60.24096386,,,,,,,,,,,,,,,,,,,,,,,,,,,1010,,,,,,,,,,,,,,,,,,,,,1,3,,,321.2246,12,up,0.3168,,0.5,0.3,"[3,1,2]",0.776472089,stimuli/card_100_transparent.png,100,12,0,12,0,1,,,,,,,,,,
,,,,664bae9ae5900c0b842196f2,B,2024-06-30_10h21.13.929,Slot Machine Game,2023.1.3,Win32,60.24096386,,,,,,,,,,,,,,,,,,,,,,,,,,,1110,,,,,,,,,,,,,,,,,,,,,1,3,,,322.8745,13,up,0.1046,,1.5,0.3,"[3,1,2]",0.437159353,stimuli/card_100_transparent.png,100,13,0,13,0,1,,,,,,,,,,
,,,,664bae9ae5900c0b842196f2,B,2024-06-30_10h21.13.929,Slot Machine Game,2023.1.3,Win32,60.24096386,,,,,,,,,,,,,,,,,,,,,,,,,,,1210,,,,,,,,,,,,,,,,,,,,,1,3,,,325.2913,14,up,0.1837,,0.5,0.3,"[3,1,2]",0.544309574,stimuli/card_100_transparent.png,100,14,0,14,0,1,,,,,,,,,,
,,,,664bae9ae5900c0b842196f2,B,2024-06-30_10h21.13.929,Slot Machine Game,2023.1.3,Win32,60.24096386,,,,,,,,,,,,,,,,,,,,,,,,,,,,,,,,,,,326.8079,,,,,,,,,,,,,,,,,,,,,,,,,,,,,,,,,[1210],0,0,0,0,1,,,,
,,,,664bae9ae5900c0b842196f2,B,2024-06-30_10h21.13.929,Slot Machine Game,2023.1.3,Win32,60.24096386,,,,,,,,,,,,,,,,,,,,,,,,,,,10,,,,,,,,,,,,,,,,,,,,,2,5,"[5,15]","[[1,2,3],[3,1,2]]",331.8158,0,up,0.7848,,0.5,0.3,"[1,2,3]",0.542155278,stimuli/card_10_transparent.png,10,0,0,0,0,1,,,,,,,,,,
,,,,664bae9ae5900c0b842196f2,B,2024-06-30_10h21.13.929,Slot Machine Game,2023.1.3,Win32,60.24096386,,,,,,,,,,,,,,,,,,,,,,,,,,,10,,,,,,,,,,,,,,,,,,,,,2,5,,,333.9242,1,right,0.8387,,1.5,0.3,"[1,2,3]",0.706956687,stimuli/card_0_transparent.png,0,1,0,1,0,1,,,,,,,,,,
,,,,664bae9ae5900c0b842196f2,B,2024-06-30_10h21.13.929,Slot Machine Game,2023.1.3,Win32,60.24096386,,,,,,,,,,,,,,,,,,,,,,,,,,,110,,,,,,,,,,,,,,,,,,,,,2,5,,,337.0747,2,left,0.6665,,1,0.3,"[1,2,3]",0.401860281,stimuli/card_100_transparent.png,100,2,0,2,0,1,,,,,,,,,,
,,,,664bae9ae5900c0b842196f2,B,2024-06-30_10h21.13.929,Slot Machine Game,2023.1.3,Win32,60.24096386,,,,,,,,,,,,,,,,,,,,,,,,,,,210,,,,,,,,,,,,,,,,,,,,,2,5,,,339.5742,3,left,0.1687,,1.5,0.3,"[1,2,3]",0.880952283,stimuli/card_100_transparent.png,100,3,0,3,0,1,,,,,,,,,,
,,,,664bae9ae5900c0b842196f2,B,2024-06-30_10h21.13.929,Slot Machine Game,2023.1.3,Win32,60.24096386,,,,,,,,,,,,,,,,,,,,,,,,,,,310,,,,,,,,,,,,,,,,,,,,,2,5,,,342.0742,4,left,0.2502,,1,0.3,"[1,2,3]",0.435121304,stimuli/card_100_transparent.png,100,4,0,4,0,1,,,,,,,,,,
,,,,664bae9ae5900c0b842196f2,B,2024-06-30_10h21.13.929,Slot Machine Game,2023.1.3,Win32,60.24096386,,,,,,,,,,,,,,,,,,,,,,,,,,,310,,,,,,,,,,,,,,,,,,,,,2,5,,,344.1574,5,left,0.5255,,1,0.3,"[3,1,2]",0.728458818,stimuli/card_0_transparent.png,0,5,0,5,0,1,,,,,,,,,,
,,,,664bae9ae5900c0b842196f2,B,2024-06-30_10h21.13.929,Slot Machine Game,2023.1.3,Win32,60.24096386,,,,,,,,,,,,,,,,,,,,,,,,,,,410,,,,,,,,,,,,,,,,,,,,,2,5,,,346.5073,6,left,0.1435,,0.5,0.3,"[3,1,2]",0.043235538,stimuli/card_100_transparent.png,100,6,0,6,0,1,,,,,,,,,,
,,,,664bae9ae5900c0b842196f2,B,2024-06-30_10h21.13.929,Slot Machine Game,2023.1.3,Win32,60.24096386,,,,,,,,,,,,,,,,,,,,,,,,,,,410,,,,,,,,,,,,,,,,,,,,,2,5,,,347.9741,7,left,0.3885,,0.5,0.3,"[3,1,2]",0.738224473,stimuli/card_0_transparent.png,0,7,0,7,0,1,,,,,,,,,,
,,,,664bae9ae5900c0b842196f2,B,2024-06-30_10h21.13.929,Slot Machine Game,2023.1.3,Win32,60.24096386,,,,,,,,,,,,,,,,,,,,,,,,,,,410,,,,,,,,,,,,,,,,,,,,,2,5,,,349.6907,8,left,0.6175,,1,0.3,"[3,1,2]",0.608598546,stimuli/card_0_transparent.png,0,8,0,8,0,1,,,,,,,,,,
,,,,664bae9ae5900c0b842196f2,B,2024-06-30_10h21.13.929,Slot Machine Game,2023.1.3,Win32,60.24096386,,,,,,,,,,,,,,,,,,,,,,,,,,,410,,,,,,,,,,,,,,,,,,,,,2,5,,,352.1406,9,up,0.1497,,1,0.3,"[3,1,2]",0.063241843,stimuli/card_0_transparent.png,0,9,0,9,0,1,,,,,,,,,,
,,,,664bae9ae5900c0b842196f2,B,2024-06-30_10h21.13.929,Slot Machine Game,2023.1.3,Win32,60.24096386,,,,,,,,,,,,,,,,,,,,,,,,,,,510,,,,,,,,,,,,,,,,,,,,,2,5,,,354.1239,10,left,0.4868,,0.5,0.3,"[3,1,2]",0.086998384,stimuli/card_100_transparent.png,100,10,0,10,0,1,,,,,,,,,,
,,,,664bae9ae5900c0b842196f2,B,2024-06-30_10h21.13.929,Slot Machine Game,2023.1.3,Win32,60.24096386,,,,,,,,,,,,,,,,,,,,,,,,,,,510,,,,,,,,,,,,,,,,,,,,,2,5,,,355.9405,11,left,0.0667,,0.5,0.3,"[3,1,2]",0.977664686,stimuli/card_0_transparent.png,0,11,0,11,0,1,,,,,,,,,,
,,,,664bae9ae5900c0b842196f2,B,2024-06-30_10h21.13.929,Slot Machine Game,2023.1.3,Win32,60.24096386,,,,,,,,,,,,,,,,,,,,,,,,,,,510,,,,,,,,,,,,,,,,,,,,,2,5,,,357.3405,12,up,0.2168,,1.5,0.3,"[3,1,2]",0.025859244,stimuli/card_0_transparent.png,0,12,0,12,0,1,,,,,,,,,,
,,,,664bae9ae5900c0b842196f2,B,2024-06-30_10h21.13.929,Slot Machine Game,2023.1.3,Win32,60.24096386,,,,,,,,,,,,,,,,,,,,,,,,,,,510,,,,,,,,,,,,,,,,,,,,,2,5,,,359.8902,13,left,0.2888,,1.5,0.3,"[3,1,2]",0.86257721,stimuli/card_0_transparent.png,0,13,0,13,0,1,,,,,,,,,,
,,,,664bae9ae5900c0b842196f2,B,2024-06-30_10h21.13.929,Slot Machine Game,2023.1.3,Win32,60.24096386,,,,,,,,,,,,,,,,,,,,,,,,,,,520,,,,,,,,,,,,,,,,,,,,,2,5,,,362.4902,14,right,0.1501,,1,0.3,"[3,1,2]",0.262714743,stimuli/card_10_transparent.png,10,14,0,14,0,1,,,,,,,,,,
,,,,664bae9ae5900c0b842196f2,B,2024-06-30_10h21.13.929,Slot Machine Game,2023.1.3,Win32,60.24096386,,,,,,,,,,,,,,,,,,,,,,,,,,,,,,,,,,,364.4567,,,,,,,,,,,,,,,,,,,,,,,,,,,,,,,,,"[1210,520]",1,0,1,0,1,,,,
,,,,664bae9ae5900c0b842196f2,B,2024-06-30_10h21.13.929,Slot Machine Game,2023.1.3,Win32,60.24096386,,,,,,,,,,,,,,,,,,,,,,,,,,,10,,,,,,,,,,,,,,,,,,,,,3,9,"[8,15]","[[3,2,1],[3,1,2]]",369.4647,0,left,0.1671,,0.5,0.3,"[3,2,1]",0.187786849,stimuli/card_10_transparent.png,10,0,0,0,0,1,,,,,,,,,,
,,,,664bae9ae5900c0b842196f2,B,2024-06-30_10h21.13.929,Slot Machine Game,2023.1.3,Win32,60.24096386,,,,,,,,,,,,,,,,,,,,,,,,,,,10,,,,,,,,,,,,,,,,,,,,,3,9,,,370.9566,1,left,0.3515,,1.5,0.3,"[3,2,1]",0.822670825,stimuli/card_0_transparent.png,0,1,0,1,0,1,,,,,,,,,,
,,,,664bae9ae5900c0b842196f2,B,2024-06-30_10h21.13.929,Slot Machine Game,2023.1.3,Win32,60.24096386,,,,,,,,,,,,,,,,,,,,,,,,,,,110,,,,,,,,,,,,,,,,,,,,,3,9,,,373.6235,2,right,0.203,,1,0.3,"[3,2,1]",0.286841183,stimuli/card_100_transparent.png,100,2,0,2,0,1,,,,,,,,,,
,,,,664bae9ae5900c0b842196f2,B,2024-06-30_10h21.13.929,Slot Machine Game,2023.1.3,Win32,60.24096386,,,,,,,,,,,,,,,,,,,,,,,,,,,210,,,,,,,,,,,,,,,,,,,,,3,9,,,375.6564,3,right,0.0175,,1.5,0.3,"[3,2,1]",0.224751783,stimuli/card_100_transparent.png,100,3,0,3,0,1,,,,,,,,,,
,,,,664bae9ae5900c0b842196f2,B,2024-06-30_10h21.13.929,Slot Machine Game,2023.1.3,Win32,60.24096386,,,,,,,,,,,,,,,,,,,,,,,,,,,310,,,,,,,,,,,,,,,,,,,,,3,9,,,377.9901,4,right,0.182,,1,0.3,"[3,2,1]",0.718676802,stimuli/card_100_transparent.png,100,4,0,4,0,1,,,,,,,,,,
,,,,664bae9ae5900c0b842196f2,B,2024-06-30_10h21.13.929,Slot Machine Game,2023.1.3,Win32,60.24096386,,,,,,,,,,,,,,,,,,,,,,,,,,,410,,,,,,,,,,,,,,,,,,,,,3,9,,,380.0063,5,right,0.1832,,1.5,0.3,"[3,2,1]",0.312202579,stimuli/card_100_transparent.png,100,5,0,5,0,1,,,,,,,,,,
,,,,664bae9ae5900c0b842196f2,B,2024-06-30_10h21.13.929,Slot Machine Game,2023.1.3,Win32,60.24096386,,,,,,,,,,,,,,,,,,,,,,,,,,,410,,,,,,,,,,,,,,,,,,,,,3,9,,,382.5232,6,right,0.1334,,1.5,0.3,"[3,2,1]",0.047881922,stimuli/card_0_transparent.png,0,6,0,6,0,1,,,,,,,,,,
,,,,664bae9ae5900c0b842196f2,B,2024-06-30_10h21.13.929,Slot Machine Game,2023.1.3,Win32,60.24096386,,,,,,,,,,,,,,,,,,,,,,,,,,,510,,,,,,,,,,,,,,,,,,,,,3,9,,,384.9898,7,right,0.0193,,1.5,0.3,"[3,2,1]",0.320779507,stimuli/card_100_transparent.png,100,7,0,7,0,1,,,,,,,,,,
,,,,664bae9ae5900c0b842196f2,B,2024-06-30_10h21.13.929,Slot Machine Game,2023.1.3,Win32,60.24096386,,,,,,,,,,,,,,,,,,,,,,,,,,,520,,,,,,,,,,,,,,,,,,,,,3,9,,,387.3397,8,right,0.1834,,1,0.3,"[3,1,2]",0.683858087,stimuli/card_10_transparent.png,10,8,0,8,0,1,,,,,,,,,,
,,,,664bae9ae5900c0b842196f2,B,2024-06-30_10h21.13.929,Slot Machine Game,2023.1.3,Win32,60.24096386,,,,,,,,,,,,,,,,,,,,,,,,,,,530,,,,,,,,,,,,,,,,,,,,,3,9,,,389.3563,9,right,0.2322,,1,0.3,"[3,1,2]",0.570164275,stimuli/card_10_transparent.png,10,9,0,9,0,1,,,,,,,,,,
,,,,664bae9ae5900c0b842196f2,B,2024-06-30_10h21.13.929,Slot Machine Game,2023.1.3,Win32,60.24096386,,,,,,,,,,,,,,,,,,,,,,,,,,,540,,,,,,,,,,,,,,,,,,,,,3,9,,,391.4228,10,right,0.1667,,0.5,0.3,"[3,1,2]",0.674959923,stimuli/card_10_transparent.png,10,10,0,10,0,1,,,,,,,,,,
,,,,664bae9ae5900c0b842196f2,B,2024-06-30_10h21.13.929,Slot Machine Game,2023.1.3,Win32,60.24096386,,,,,,,,,,,,,,,,,,,,,,,,,,,550,,,,,,,,,,,,,,,,,,,,,3,9,,,392.9227,11,right,0.0662,,1.5,0.3,"[3,1,2]",0.911815945,stimuli/card_10_transparent.png,10,11,0,11,0,1,,,,,,,,,,
,,,,664bae9ae5900c0b842196f2,B,2024-06-30_10h21.13.929,Slot Machine Game,2023.1.3,Win32,60.24096386,,,,,,,,,,,,,,,,,,,,,,,,,,,560,,,,,,,,,,,,,,,,,,,,,3,9,,,395.3228,12,right,0.1836,,1,0.3,"[3,1,2]",0.776301101,stimuli/card_10_transparent.png,10,12,0,12,0,1,,,,,,,,,,
,,,,664bae9ae5900c0b842196f2,B,2024-06-30_10h21.13.929,Slot Machine Game,2023.1.3,Win32,60.24096386,,,,,,,,,,,,,,,,,,,,,,,,,,,560,,,,,,,,,,,,,,,,,,,,,3,9,,,397.3394,13,right,0.1194,,0.5,0.3,"[3,1,2]",0.016025277,stimuli/card_0_transparent.png,0,13,0,13,0,1,,,,,,,,,,
,,,,664bae9ae5900c0b842196f2,B,2024-06-30_10h21.13.929,Slot Machine Game,2023.1.3,Win32,60.24096386,,,,,,,,,,,,,,,,,,,,,,,,,,,660,,,,,,,,,,,,,,,,,,,,,3,9,,,398.7727,14,up,0.3335,,1,0.3,"[3,1,2]",0.512520297,stimuli/card_100_transparent.png,100,14,0,14,0,1,,,,,,,,,,
,,,,664bae9ae5900c0b842196f2,B,2024-06-30_10h21.13.929,Slot Machine Game,2023.1.3,Win32,60.24096386,,,,,,,,,,,,,,,,,,,,,,,,,,,,,,,,,,,400.9393,,,,,,,,,,,,,,,,,,,,,,,,,,,,,,,,,"[1210,520,660]",2,0,2,0,1,,,,
,,,,664bae9ae5900c0b842196f2,B,2024-06-30_10h21.13.929,Slot Machine Game,2023.1.3,Win32,60.24096386,,,,,,,,,,,,,,,,,,,,,,,,,,,100,,,,,,,,,,,,,,,,,,,,,4,1,"[12,15]","[[2,1,3],[2,3,1]]",405.947,0,up,0.5833,,1,0.3,"[2,1,3]",0.330790551,stimuli/card_100_transparent.png,100,0,0,0,0,1,,,,,,,,,,
,,,,664bae9ae5900c0b842196f2,B,2024-06-30_10h21.13.929,Slot Machine Game,2023.1.3,Win32,60.24096386,,,,,,,,,,,,,,,,,,,,,,,,,,,200,,,,,,,,,,,,,,,,,,,,,4,1,,,408.3558,1,up,0.469,,0.5,0.3,"[2,1,3]",0.385432152,stimuli/card_100_transparent.png,100,1,0,1,0,1,,,,,,,,,,
,,,,664bae9ae5900c0b842196f2,B,2024-06-30_10h21.13.929,Slot Machine Game,2023.1.3,Win32,60.24096386,,,,,,,,,,,,,,,,,,,,,,,,,,,300,,,,,,,,,,,,,,,,,,,,,4,1,,,410.1559,2,up,0.1426,,1,0.3,"[2,1,3]",0.240897756,stimuli/card_100_transparent.png,100,2,0,2,0,1,,,,,,,,,,
,,,,664bae9ae5900c0b842196f2,B,2024-06-30_10h21.13.929,Slot Machine Game,2023.1.3,Win32,60.24096386,,,,,,,,,,,,,,,,,,,,,,,,,,,400,,,,,,,,,,,,,,,,,,,,,4,1,,,412.1225,3,up,0.1507,,1.5,0.3,"[2,1,3]",0.394106231,stimuli/card_100_transparent.png,100,3,0,3,0,1,,,,,,,,,,
,,,,664bae9ae5900c0b842196f2,B,2024-06-30_10h21.13.929,Slot Machine Game,2023.1.3,Win32,60.24096386,,,,,,,,,,,,,,,,,,,,,,,,,,,500,,,,,,,,,,,,,,,,,,,,,4,1,,,414.6057,4,up,0.1232,,1,0.3,"[2,1,3]",0.861788384,stimuli/card_100_transparent.png,100,4,0,4,0,1,,,,,,,,,,
,,,,664bae9ae5900c0b842196f2,B,2024-06-30_10h21.13.929,Slot Machine Game,2023.1.3,Win32,60.24096386,,,,,,,,,,,,,,,,,,,,,,,,,,,600,,,,,,,,,,,,,,,,,,,,,4,1,,,416.5557,5,up,1.2011,,0.5,0.3,"[2,1,3]",0.990947651,stimuli/card_100_transparent.png,100,5,0,5,0,1,,,,,,,,,,
,,,,664bae9ae5900c0b842196f2,B,2024-06-30_10h21.13.929,Slot Machine Game,2023.1.3,Win32,60.24096386,,,,,,,,,,,,,,,,,,,,,,,,,,,610,,,,,,,,,,,,,,,,,,,,,4,1,,,419.089,6,up,0.122,,0.5,0.3,"[2,1,3]",0.167358865,stimuli/card_10_transparent.png,10,6,0,6,0,1,,,,,,,,,,
,,,,664bae9ae5900c0b842196f2,B,2024-06-30_10h21.13.929,Slot Machine Game,2023.1.3,Win32,60.24096386,,,,,,,,,,,,,,,,,,,,,,,,,,,610,,,,,,,,,,,,,,,,,,,,,4,1,,,420.5387,7,up,0.2223,,1,0.3,"[2,1,3]",0.063855495,stimuli/card_0_transparent.png,0,7,0,7,0,1,,,,,,,,,,
,,,,664bae9ae5900c0b842196f2,B,2024-06-30_10h21.13.929,Slot Machine Game,2023.1.3,Win32,60.24096386,,,,,,,,,,,,,,,,,,,,,,,,,,,610,,,,,,,,,,,,,,,,,,,,,4,1,,,422.5887,8,right,0.1583,,1.5,0.3,"[2,1,3]",0.664834268,stimuli/card_0_transparent.png,0,8,0,8,0,1,,,,,,,,,,
,,,,664bae9ae5900c0b842196f2,B,2024-06-30_10h21.13.929,Slot Machine Game,2023.1.3,Win32,60.24096386,,,,,,,,,,,,,,,,,,,,,,,,,,,620,,,,,,,,,,,,,,,,,,,,,4,1,,,425.0555,9,left,0.1503,,0.5,0.3,"[2,1,3]",0.375890126,stimuli/card_10_transparent.png,10,9,0,9,0,1,,,,,,,,,,
,,,,664bae9ae5900c0b842196f2,B,2024-06-30_10h21.13.929,Slot Machine Game,2023.1.3,Win32,60.24096386,,,,,,,,,,,,,,,,,,,,,,,,,,,720,,,,,,,,,,,,,,,,,,,,,4,1,,,426.5388,10,right,0.1335,,1,0.3,"[2,1,3]",0.046022663,stimuli/card_100_transparent.png,100,10,0,10,0,1,,,,,,,,,,
,,,,664bae9ae5900c0b842196f2,B,2024-06-30_10h21.13.929,Slot Machine Game,2023.1.3,Win32,60.24096386,,,,,,,,,,,,,,,,,,,,,,,,,,,720,,,,,,,,,,,,,,,,,,,,,4,1,,,428.5055,11,right,0.1339,,1,0.3,"[2,1,3]",0.842989833,stimuli/card_0_transparent.png,0,11,0,11,0,1,,,,,,,,,,
,,,,664bae9ae5900c0b842196f2,B,2024-06-30_10h21.13.929,Slot Machine Game,2023.1.3,Win32,60.24096386,,,,,,,,,,,,,,,,,,,,,,,,,,,730,,,,,,,,,,,,,,,,,,,,,4,1,,,430.472,12,left,0.0666,,1.5,0.3,"[2,3,1]",0.519937237,stimuli/card_10_transparent.png,10,12,0,12,0,1,,,,,,,,,,
,,,,664bae9ae5900c0b842196f2,B,2024-06-30_10h21.13.929,Slot Machine Game,2023.1.3,Win32,60.24096386,,,,,,,,,,,,,,,,,,,,,,,,,,,730,,,,,,,,,,,,,,,,,,,,,4,1,,,432.8719,13,up,0.0492,,1,0.3,"[2,3,1]",0.295113989,stimuli/card_0_transparent.png,0,13,0,13,0,1,,,,,,,,,,
,,,,664bae9ae5900c0b842196f2,B,2024-06-30_10h21.13.929,Slot Machine Game,2023.1.3,Win32,60.24096386,,,,,,,,,,,,,,,,,,,,,,,,,,,730,,,,,,,,,,,,,,,,,,,,,4,1,,,434.7387,14,up,0.1522,,1,0.3,"[2,3,1]",0.707592417,stimuli/card_0_transparent.png,0,14,0,14,0,1,,,,,,,,,,
,,,,664bae9ae5900c0b842196f2,B,2024-06-30_10h21.13.929,Slot Machine Game,2023.1.3,Win32,60.24096386,,,,,,,,,,,,,,,,,,,,,,,,,,,,,,,,,,,436.7216,,,,,,,,,,,,,,,,,,,,,,,,,,,,,,,,,"[1210,520,660,730]",3,0,3,0,1,,,,
,,,,664bae9ae5900c0b842196f2,B,2024-06-30_10h21.13.929,Slot Machine Game,2023.1.3,Win32,60.24096386,,,,,,,,,,,,,,,,,,,,,,,,,,,10,,,,,,,,,,,,,,,,,,,,,5,2,"[6,15]","[[1,3,2],[3,2,1]]",441.7299,0,right,0.537,,1,0.3,"[1,3,2]",0.407484708,stimuli/card_10_transparent.png,10,0,0,0,0,1,,,,,,,,,,
,,,,664bae9ae5900c0b842196f2,B,2024-06-30_10h21.13.929,Slot Machine Game,2023.1.3,Win32,60.24096386,,,,,,,,,,,,,,,,,,,,,,,,,,,10,,,,,,,,,,,,,,,,,,,,,5,2,,,444.0883,1,left,0.0585,,1.5,0.3,"[1,3,2]",0.060132469,stimuli/card_0_transparent.png,0,1,0,1,0,1,,,,,,,,,,
,,,,664bae9ae5900c0b842196f2,B,2024-06-30_10h21.13.929,Slot Machine Game,2023.1.3,Win32,60.24096386,,,,,,,,,,,,,,,,,,,,,,,,,,,10,,,,,,,,,,,,,,,,,,,,,5,2,,,446.4717,2,up,0.2313,,1,0.3,"[1,3,2]",0.988151956,stimuli/card_0_transparent.png,0,2,0,2,0,1,,,,,,,,,,
,,,,664bae9ae5900c0b842196f2,B,2024-06-30_10h21.13.929,Slot Machine Game,2023.1.3,Win32,60.24096386,,,,,,,,,,,,,,,,,,,,,,,,,,,20,,,,,,,,,,,,,,,,,,,,,5,2,,,448.538,3,right,0.0237,,1,0.3,"[1,3,2]",0.916442953,stimuli/card_10_transparent.png,10,3,0,3,0,1,,,,,,,,,,
,,,,664bae9ae5900c0b842196f2,B,2024-06-30_10h21.13.929,Slot Machine Game,2023.1.3,Win32,60.24096386,,,,,,,,,,,,,,,,,,,,,,,,,,,30,,,,,,,,,,,,,,,,,,,,,5,2,,,450.3714,4,left,0.0833,,1.5,0.3,"[1,3,2]",0.179747473,stimuli/card_10_transparent.png,10,4,0,4,0,1,,,,,,,,,,
,,,,664bae9ae5900c0b842196f2,B,2024-06-30_10h21.13.929,Slot Machine Game,2023.1.3,Win32,60.24096386,,,,,,,,,,,,,,,,,,,,,,,,,,,40,,,,,,,,,,,,,,,,,,,,,5,2,,,452.7881,5,up,0.0686,,1.5,0.3,"[1,3,2]",0.162903511,stimuli/card_10_transparent.png,10,5,0,5,0,1,,,,,,,,,,
,,,,664bae9ae5900c0b842196f2,B,2024-06-30_10h21.13.929,Slot Machine Game,2023.1.3,Win32,60.24096386,,,,,,,,,,,,,,,,,,,,,,,,,,,140,,,,,,,,,,,,,,,,,,,,,5,2,,,455.188,6,right,0.1744,,1.5,0.3,"[3,2,1]",0.409042199,stimuli/card_100_transparent.png,100,6,0,6,0,1,,,,,,,,,,
,,,,664bae9ae5900c0b842196f2,B,2024-06-30_10h21.13.929,Slot Machine Game,2023.1.3,Win32,60.24096386,,,,,,,,,,,,,,,,,,,,,,,,,,,150,,,,,,,,,,,,,,,,,,,,,5,2,,,457.6879,7,right,0.1375,,0.5,0.3,"[3,2,1]",0.160308012,stimuli/card_10_transparent.png,10,7,0,7,0,1,,,,,,,,,,
,,,,664bae9ae5900c0b842196f2,B,2024-06-30_10h21.13.929,Slot Machine Game,2023.1.3,Win32,60.24096386,,,,,,,,,,,,,,,,,,,,,,,,,,,250,,,,,,,,,,,,,,,,,,,,,5,2,,,459.1378,8,right,0.1996,,1,0.3,"[3,2,1]",0.392246734,stimuli/card_100_transparent.png,100,8,0,8,0,1,,,,,,,,,,
,,,,664bae9ae5900c0b842196f2,B,2024-06-30_10h21.13.929,Slot Machine Game,2023.1.3,Win32,60.24096386,,,,,,,,,,,,,,,,,,,,,,,,,,,350,,,,,,,,,,,,,,,,,,,,,5,2,,,461.1545,9,right,0.0402,,1,0.3,"[3,2,1]",0.798381543,stimuli/card_100_transparent.png,100,9,0,9,0,1,,,,,,,,,,
,,,,664bae9ae5900c0b842196f2,B,2024-06-30_10h21.13.929,Slot Machine Game,2023.1.3,Win32,60.24096386,,,,,,,,,,,,,,,,,,,,,,,,,,,450,,,,,,,,,,,,,,,,,,,,,5,2,,,463.0212,10,right,0.2049,,0.5,0.3,"[3,2,1]",0.324460601,stimuli/card_100_transparent.png,100,10,0,10,0,1,,,,,,,,,,
,,,,664bae9ae5900c0b842196f2,B,2024-06-30_10h21.13.929,Slot Machine Game,2023.1.3,Win32,60.24096386,,,,,,,,,,,,,,,,,,,,,,,,,,,550,,,,,,,,,,,,,,,,,,,,,5,2,,,464.5546,11,right,0.1518,,0.5,0.3,"[3,2,1]",0.591910464,stimuli/card_100_transparent.png,100,11,0,11,0,1,,,,,,,,,,
,,,,664bae9ae5900c0b842196f2,B,2024-06-30_10h21.13.929,Slot Machine Game,2023.1.3,Win32,60.24096386,,,,,,,,,,,,,,,,,,,,,,,,,,,650,,,,,,,,,,,,,,,,,,,,,5,2,,,466.0375,12,right,0.1576,,0.5,0.3,"[3,2,1]",0.33500504,stimuli/card_100_transparent.png,100,12,0,12,0,1,,,,,,,,,,
,,,,664bae9ae5900c0b842196f2,B,2024-06-30_10h21.13.929,Slot Machine Game,2023.1.3,Win32,60.24096386,,,,,,,,,,,,,,,,,,,,,,,,,,,750,,,,,,,,,,,,,,,,,,,,,5,2,,,467.5045,13,right,0.1666,,0.5,0.3,"[3,2,1]",0.767745328,stimuli/card_100_transparent.png,100,13,0,13,0,1,,,,,,,,,,
,,,,664bae9ae5900c0b842196f2,B,2024-06-30_10h21.13.929,Slot Machine Game,2023.1.3,Win32,60.24096386,,,,,,,,,,,,,,,,,,,,,,,,,,,850,,,,,,,,,,,,,,,,,,,,,5,2,,,469.0044,14,right,0.0046,,1,0.3,"[3,2,1]",0.64934814,stimuli/card_100_transparent.png,100,14,0,14,0,1,,,,,,,,,,
,,,,664bae9ae5900c0b842196f2,B,2024-06-30_10h21.13.929,Slot Machine Game,2023.1.3,Win32,60.24096386,,,,,,,,,,,,,,,,,,,,,,,,,,,,,,,,,,,470.8377,,,,,,,,,,,,,,,,,,,,,,,,,,,,,,,,,"[1210,520,660,730,850]",4,0,4,0,1,,,,
,,,,664bae9ae5900c0b842196f2,B,2024-06-30_10h21.13.929,Slot Machine Game,2023.1.3,Win32,60.24096386,,,,,,,,,,,,,,,,,,,,,,,,,,,100,,,,,,,,,,,,,,,,,,,,,6,4,"[7,15]","[[2,3,1],[1,2,3]]",475.846,0,right,0.1879,,1.5,0.3,"[2,3,1]",0.41914099,stimuli/card_100_transparent.png,100,0,0,0,0,1,,,,,,,,,,
,,,,664bae9ae5900c0b842196f2,B,2024-06-30_10h21.13.929,Slot Machine Game,2023.1.3,Win32,60.24096386,,,,,,,,,,,,,,,,,,,,,,,,,,,200,,,,,,,,,,,,,,,,,,,,,6,4,,,478.3542,1,right,0.0641,,1.5,0.3,"[2,3,1]",0.591104408,stimuli/card_100_transparent.png,100,1,0,1,0,1,,,,,,,,,,
,,,,664bae9ae5900c0b842196f2,B,2024-06-30_10h21.13.929,Slot Machine Game,2023.1.3,Win32,60.24096386,,,,,,,,,,,,,,,,,,,,,,,,,,,210,,,,,,,,,,,,,,,,,,,,,6,4,,,480.7538,2,right,0.1932,,1,0.3,"[2,3,1]",0.171803334,stimuli/card_10_transparent.png,10,2,0,2,0,1,,,,,,,,,,
,,,,664bae9ae5900c0b842196f2,B,2024-06-30_10h21.13.929,Slot Machine Game,2023.1.3,Win32,60.24096386,,,,,,,,,,,,,,,,,,,,,,,,,,,310,,,,,,,,,,,,,,,,,,,,,6,4,,,482.7541,3,right,0.45,,1.5,0.3,"[2,3,1]",0.580274973,stimuli/card_100_transparent.png,100,3,0,3,0,1,,,,,,,,,,
,,,,664bae9ae5900c0b842196f2,B,2024-06-30_10h21.13.929,Slot Machine Game,2023.1.3,Win32,60.24096386,,,,,,,,,,,,,,,,,,,,,,,,,,,410,,,,,,,,,,,,,,,,,,,,,6,4,,,485.5373,4,right,0.1056,,1.5,0.3,"[2,3,1]",0.697295299,stimuli/card_100_transparent.png,100,4,0,4,0,1,,,,,,,,,,
,,,,664bae9ae5900c0b842196f2,B,2024-06-30_10h21.13.929,Slot Machine Game,2023.1.3,Win32,60.24096386,,,,,,,,,,,,,,,,,,,,,,,,,,,510,,,,,,,,,,,,,,,,,,,,,6,4,,,487.9705,5,right,0.2245,,0.5,0.3,"[2,3,1]",0.460965694,stimuli/card_100_transparent.png,100,5,0,5,0,1,,,,,,,,,,
,,,,664bae9ae5900c0b842196f2,B,2024-06-30_10h21.13.929,Slot Machine Game,2023.1.3,Win32,60.24096386,,,,,,,,,,,,,,,,,,,,,,,,,,,610,,,,,,,,,,,,,,,,,,,,,6,4,,,489.5038,6,right,0.1548,,1.5,0.3,"[2,3,1]",0.407839043,stimuli/card_100_transparent.png,100,6,0,6,0,1,,,,,,,,,,
,,,,664bae9ae5900c0b842196f2,B,2024-06-30_10h21.13.929,Slot Machine Game,2023.1.3,Win32,60.24096386,,,,,,,,,,,,,,,,,,,,,,,,,,,610,,,,,,,,,,,,,,,,,,,,,6,4,,,491.9872,7,right,0.0002,,1,0.3,"[1,2,3]",0.255589203,stimuli/card_0_transparent.png,0,7,0,7,0,1,,,,,,,,,,
,,,,664bae9ae5900c0b842196f2,B,2024-06-30_10h21.13.929,Slot Machine Game,2023.1.3,Win32,60.24096386,,,,,,,,,,,,,,,,,,,,,,,,,,,610,,,,,,,,,,,,,,,,,,,,,6,4,,,493.8206,8,right,0.1822,,0.5,0.3,"[1,2,3]",0.44328274,stimuli/card_0_transparent.png,0,8,0,8,0,1,,,,,,,,,,
,,,,664bae9ae5900c0b842196f2,B,2024-06-30_10h21.13.929,Slot Machine Game,2023.1.3,Win32,60.24096386,,,,,,,,,,,,,,,,,,,,,,,,,,,610,,,,,,,,,,,,,,,,,,,,,6,4,,,495.3369,9,right,0.0732,,1.5,0.3,"[1,2,3]",0.908566282,stimuli/card_0_transparent.png,0,9,0,9,0,1,,,,,,,,,,
,,,,664bae9ae5900c0b842196f2,B,2024-06-30_10h21.13.929,Slot Machine Game,2023.1.3,Win32,60.24096386,,,,,,,,,,,,,,,,,,,,,,,,,,,710,,,,,,,,,,,,,,,,,,,,,6,4,,,497.737,10,left,0.0012,,1,0.3,"[1,2,3]",0.661950962,stimuli/card_100_transparent.png,100,10,0,10,0,1,,,,,,,,,,
,,,,664bae9ae5900c0b842196f2,B,2024-06-30_10h21.13.929,Slot Machine Game,2023.1.3,Win32,60.24096386,,,,,,,,,,,,,,,,,,,,,,,,,,,810,,,,,,,,,,,,,,,,,,,,,6,4,,,499.5702,11,left,0.1193,,1.5,0.3,"[1,2,3]",0.435154209,stimuli/card_100_transparent.png,100,11,0,11,0,1,,,,,,,,,,
,,,,664bae9ae5900c0b842196f2,B,2024-06-30_10h21.13.929,Slot Machine Game,2023.1.3,Win32,60.24096386,,,,,,,,,,,,,,,,,,,,,,,,,,,910,,,,,,,,,,,,,,,,,,,,,6,4,,,502.0036,12,left,0.017,,0.5,0.3,"[1,2,3]",0.476609144,stimuli/card_100_transparent.png,100,12,0,12,0,1,,,,,,,,,,
,,,,664bae9ae5900c0b842196f2,B,2024-06-30_10h21.13.929,Slot Machine Game,2023.1.3,Win32,60.24096386,,,,,,,,,,,,,,,,,,,,,,,,,,,1010,,,,,,,,,,,,,,,,,,,,,6,4,,,503.3533,13,left,0.6576,,1,0.3,"[1,2,3]",0.721860684,stimuli/card_100_transparent.png,100,13,0,13,0,1,,,,,,,,,,
,,,,664bae9ae5900c0b842196f2,B,2024-06-30_10h21.13.929,Slot Machine Game,2023.1.3,Win32,60.24096386,,,,,,,,,,,,,,,,,,,,,,,,,,,1110,,,,,,,,,,,,,,,,,,,,,6,4,,,505.8201,14,left,0.0709,,1.5,0.3,"[1,2,3]",0.962749425,stimuli/card_100_transparent.png,100,14,0,14,0,1,,,,,,,,,,
,,,,664bae9ae5900c0b842196f2,B,2024-06-30_10h21.13.929,Slot Machine Game,2023.1.3,Win32,60.24096386,,,,,,,,,,,,,,,,,,,,,,,,,,,,,,,,,,,508.2033,,,,,,,,,,,,,,,,,,,,,,,,,,,,,,,,,"[1210,520,660,730,850,1110]",5,0,5,0,1,,,,
,,,,664bae9ae5900c0b842196f2,B,2024-06-30_10h21.13.929,Slot Machine Game,2023.1.3,Win32,60.24096386,,,,,,,,,,,,,,,,,,,,,,,,,,,0,,,,,,,,,,,,,,,,,,,,,7,10,"[10,15]","[[3,1,2],[1,3,2]]",513.2113,0,left,1.1335,,0.5,0.3,"[3,1,2]",0.514707371,stimuli/card_0_transparent.png,0,0,0,0,0,1,,,,,,,,,,
,,,,664bae9ae5900c0b842196f2,B,2024-06-30_10h21.13.929,Slot Machine Game,2023.1.3,Win32,60.24096386,,,,,,,,,,,,,,,,,,,,,,,,,,,100,,,,,,,,,,,,,,,,,,,,,7,10,,,515.67,1,up,1.2485,,1,0.3,"[3,1,2]",0.959454874,stimuli/card_100_transparent.png,100,1,0,1,0,1,,,,,,,,,,
,,,,664bae9ae5900c0b842196f2,B,2024-06-30_10h21.13.929,Slot Machine Game,2023.1.3,Win32,60.24096386,,,,,,,,,,,,,,,,,,,,,,,,,,,200,,,,,,,,,,,,,,,,,,,,,7,10,,,518.753,2,up,0.0339,,0.5,0.3,"[3,1,2]",0.404380543,stimuli/card_100_transparent.png,100,2,0,2,0,1,,,,,,,,,,
,,,,664bae9ae5900c0b842196f2,B,2024-06-30_10h21.13.929,Slot Machine Game,2023.1.3,Win32,60.24096386,,,,,,,,,,,,,,,,,,,,,,,,,,,300,,,,,,,,,,,,,,,,,,,,,7,10,,,520.1032,3,up,0.2421,,1.5,0.3,"[3,1,2]",0.238427475,stimuli/card_100_transparent.png,100,3,0,3,0,1,,,,,,,,,,
,,,,664bae9ae5900c0b842196f2,B,2024-06-30_10h21.13.929,Slot Machine Game,2023.1.3,Win32,60.24096386,,,,,,,,,,,,,,,,,,,,,,,,,,,300,,,,,,,,,,,,,,,,,,,,,7,10,,,522.6696,4,up,0.1388,,1,0.3,"[3,1,2]",0.052264738,stimuli/card_0_transparent.png,0,4,0,4,0,1,,,,,,,,,,
,,,,664bae9ae5900c0b842196f2,B,2024-06-30_10h21.13.929,Slot Machine Game,2023.1.3,Win32,60.24096386,,,,,,,,,,,,,,,,,,,,,,,,,,,310,,,,,,,,,,,,,,,,,,,,,7,10,,,524.6195,5,right,0.1034,,1,0.3,"[3,1,2]",0.36422989,stimuli/card_10_transparent.png,10,5,0,5,0,1,,,,,,,,,,
,,,,664bae9ae5900c0b842196f2,B,2024-06-30_10h21.13.929,Slot Machine Game,2023.1.3,Win32,60.24096386,,,,,,,,,,,,,,,,,,,,,,,,,,,410,,,,,,,,,,,,,,,,,,,,,7,10,,,526.5364,6,left,0.186,,1.5,0.3,"[3,1,2]",0.067728475,stimuli/card_100_transparent.png,100,6,0,6,0,1,,,,,,,,,,
,,,,664bae9ae5900c0b842196f2,B,2024-06-30_10h21.13.929,Slot Machine Game,2023.1.3,Win32,60.24096386,,,,,,,,,,,,,,,,,,,,,,,,,,,410,,,,,,,,,,,,,,,,,,,,,7,10,,,529.0531,7,left,0.0836,,0.5,0.3,"[3,1,2]",0.231666202,stimuli/card_0_transparent.png,0,7,0,7,0,1,,,,,,,,,,
,,,,664bae9ae5900c0b842196f2,B,2024-06-30_10h21.13.929,Slot Machine Game,2023.1.3,Win32,60.24096386,,,,,,,,,,,,,,,,,,,,,,,,,,,410,,,,,,,,,,,,,,,,,,,,,7,10,,,530.4696,8,up,0.2016,,0.5,0.3,"[3,1,2]",0.0680324,stimuli/card_0_transparent.png,0,8,0,8,0,1,,,,,,,,,,
,,,,664bae9ae5900c0b842196f2,B,2024-06-30_10h21.13.929,Slot Machine Game,2023.1.3,Win32,60.24096386,,,,,,,,,,,,,,,,,,,,,,,,,,,410,,,,,,,,,,,,,,,,,,,,,7,10,,,532.0027,9,left,0.1352,,1,0.3,"[3,1,2]",0.531785606,stimuli/card_0_transparent.png,0,9,0,9,0,1,,,,,,,,,,
,,,,664bae9ae5900c0b842196f2,B,2024-06-30_10h21.13.929,Slot Machine Game,2023.1.3,Win32,60.24096386,,,,,,,,,,,,,,,,,,,,,,,,,,,420,,,,,,,,,,,,,,,,,,,,,7,10,,,533.9696,10,right,0.1372,,1.5,0.3,"[1,3,2]",0.558595386,stimuli/card_10_transparent.png,10,10,0,10,0,1,,,,,,,,,,
,,,,664bae9ae5900c0b842196f2,B,2024-06-30_10h21.13.929,Slot Machine Game,2023.1.3,Win32,60.24096386,,,,,,,,,,,,,,,,,,,,,,,,,,,520,,,,,,,,,,,,,,,,,,,,,7,10,,,536.4362,11,right,0.1341,,1.5,0.3,"[1,3,2]",0.117665093,stimuli/card_100_transparent.png,100,11,0,11,0,1,,,,,,,,,,
,,,,664bae9ae5900c0b842196f2,B,2024-06-30_10h21.13.929,Slot Machine Game,2023.1.3,Win32,60.24096386,,,,,,,,,,,,,,,,,,,,,,,,,,,530,,,,,,,,,,,,,,,,,,,,,7,10,,,538.9028,12,right,0.0483,,1,0.3,"[1,3,2]",0.22602288,stimuli/card_10_transparent.png,10,12,0,12,0,1,,,,,,,,,,
,,,,664bae9ae5900c0b842196f2,B,2024-06-30_10h21.13.929,Slot Machine Game,2023.1.3,Win32,60.24096386,,,,,,,,,,,,,,,,,,,,,,,,,,,630,,,,,,,,,,,,,,,,,,,,,7,10,,,540.7858,13,left,0.1168,,1.5,0.3,"[1,3,2]",0.889829536,stimuli/card_100_transparent.png,100,13,0,13,0,1,,,,,,,,,,
,,,,664bae9ae5900c0b842196f2,B,2024-06-30_10h21.13.929,Slot Machine Game,2023.1.3,Win32,60.24096386,,,,,,,,,,,,,,,,,,,,,,,,,,,730,,,,,,,,,,,,,,,,,,,,,7,10,,,543.2193,14,left,0.0395,,1,0.3,"[1,3,2]",0.959660105,stimuli/card_100_transparent.png,100,14,0,14,0,1,,,,,,,,,,
,,,,664bae9ae5900c0b842196f2,B,2024-06-30_10h21.13.929,Slot Machine Game,2023.1.3,Win32,60.24096386,,,,,,,,,,,,,,,,,,,,,,,,,,,,,,,,,,,545.086,,,,,,,,,,,,,,,,,,,,,,,,,,,,,,,,,"[1210,520,660,730,850,1110,730]",6,0,6,0,1,,,,
,,,,664bae9ae5900c0b842196f2,B,2024-06-30_10h21.13.929,Slot Machine Game,2023.1.3,Win32,60.24096386,,,,,,,,,,,,,,,,,,,,,,,,,,,100,,,,,,,,,,,,,,,,,,,,,8,7,"[9,15]","[[1,3,2],[2,3,1]]",550.0943,0,left,0.2333,,0.5,0.3,"[1,3,2]",0.961422695,stimuli/card_100_transparent.png,100,0,0,0,0,1,,,,,,,,,,
,,,,664bae9ae5900c0b842196f2,B,2024-06-30_10h21.13.929,Slot Machine Game,2023.1.3,Win32,60.24096386,,,,,,,,,,,,,,,,,,,,,,,,,,,110,,,,,,,,,,,,,,,,,,,,,8,7,,,551.6525,1,right,0.0669,,1,0.3,"[1,3,2]",0.485020869,stimuli/card_10_transparent.png,10,1,0,1,0,1,,,,,,,,,,
,,,,664bae9ae5900c0b842196f2,B,2024-06-30_10h21.13.929,Slot Machine Game,2023.1.3,Win32,60.24096386,,,,,,,,,,,,,,,,,,,,,,,,,,,120,,,,,,,,,,,,,,,,,,,,,8,7,,,553.5523,2,left,0.1379,,1,0.3,"[1,3,2]",0.199895043,stimuli/card_10_transparent.png,10,2,0,2,0,1,,,,,,,,,,
,,,,664bae9ae5900c0b842196f2,B,2024-06-30_10h21.13.929,Slot Machine Game,2023.1.3,Win32,60.24096386,,,,,,,,,,,,,,,,,,,,,,,,,,,120,,,,,,,,,,,,,,,,,,,,,8,7,,,555.5188,3,up,0.1484,,0.5,0.3,"[1,3,2]",0.380366357,stimuli/card_0_transparent.png,0,3,0,3,0,1,,,,,,,,,,
,,,,664bae9ae5900c0b842196f2,B,2024-06-30_10h21.13.929,Slot Machine Game,2023.1.3,Win32,60.24096386,,,,,,,,,,,,,,,,,,,,,,,,,,,220,,,,,,,,,,,,,,,,,,,,,8,7,,,556.9855,4,left,0.2082,,0.5,0.3,"[1,3,2]",0.790615389,stimuli/card_100_transparent.png,100,4,0,4,0,1,,,,,,,,,,
,,,,664bae9ae5900c0b842196f2,B,2024-06-30_10h21.13.929,Slot Machine Game,2023.1.3,Win32,60.24096386,,,,,,,,,,,,,,,,,,,,,,,,,,,320,,,,,,,,,,,,,,,,,,,,,8,7,,,558.502,5,left,0.2204,,0.5,0.3,"[1,3,2]",0.627448947,stimuli/card_100_transparent.png,100,5,0,5,0,1,,,,,,,,,,
,,,,664bae9ae5900c0b842196f2,B,2024-06-30_10h21.13.929,Slot Machine Game,2023.1.3,Win32,60.24096386,,,,,,,,,,,,,,,,,,,,,,,,,,,420,,,,,,,,,,,,,,,,,,,,,8,7,,,560.0354,6,left,0.0319,,0.5,0.3,"[1,3,2]",0.487781237,stimuli/card_100_transparent.png,100,6,0,6,0,1,,,,,,,,,,
,,,,664bae9ae5900c0b842196f2,B,2024-06-30_10h21.13.929,Slot Machine Game,2023.1.3,Win32,60.24096386,,,,,,,,,,,,,,,,,,,,,,,,,,,520,,,,,,,,,,,,,,,,,,,,,8,7,,,561.3853,7,left,0.0016,,1,0.3,"[1,3,2]",0.51933296,stimuli/card_100_transparent.png,100,7,0,7,0,1,,,,,,,,,,
,,,,664bae9ae5900c0b842196f2,B,2024-06-30_10h21.13.929,Slot Machine Game,2023.1.3,Win32,60.24096386,,,,,,,,,,,,,,,,,,,,,,,,,,,620,,,,,,,,,,,,,,,,,,,,,8,7,,,563.2022,8,left,0.1201,,1.5,0.3,"[1,3,2]",0.981408785,stimuli/card_100_transparent.png,100,8,0,8,0,1,,,,,,,,,,
,,,,664bae9ae5900c0b842196f2,B,2024-06-30_10h21.13.929,Slot Machine Game,2023.1.3,Win32,60.24096386,,,,,,,,,,,,,,,,,,,,,,,,,,,720,,,,,,,,,,,,,,,,,,,,,8,7,,,565.6521,9,left,0.0367,,0.5,0.3,"[2,3,1]",0.160758961,stimuli/card_100_transparent.png,100,9,0,9,0,1,,,,,,,,,,
,,,,664bae9ae5900c0b842196f2,B,2024-06-30_10h21.13.929,Slot Machine Game,2023.1.3,Win32,60.24096386,,,,,,,,,,,,,,,,,,,,,,,,,,,730,,,,,,,,,,,,,,,,,,,,,8,7,,,567.0187,10,left,0.1759,,0.5,0.3,"[2,3,1]",0.650379045,stimuli/card_10_transparent.png,10,10,0,10,0,1,,,,,,,,,,
,,,,664bae9ae5900c0b842196f2,B,2024-06-30_10h21.13.929,Slot Machine Game,2023.1.3,Win32,60.24096386,,,,,,,,,,,,,,,,,,,,,,,,,,,830,,,,,,,,,,,,,,,,,,,,,8,7,,,568.5187,11,right,0.2354,,1.5,0.3,"[2,3,1]",0.240381527,stimuli/card_100_transparent.png,100,11,0,11,0,1,,,,,,,,,,
,,,,664bae9ae5900c0b842196f2,B,2024-06-30_10h21.13.929,Slot Machine Game,2023.1.3,Win32,60.24096386,,,,,,,,,,,,,,,,,,,,,,,,,,,930,,,,,,,,,,,,,,,,,,,,,8,7,,,571.0853,12,right,0.053,,1.5,0.3,"[2,3,1]",0.460291492,stimuli/card_100_transparent.png,100,12,0,12,0,1,,,,,,,,,,
,,,,664bae9ae5900c0b842196f2,B,2024-06-30_10h21.13.929,Slot Machine Game,2023.1.3,Win32,60.24096386,,,,,,,,,,,,,,,,,,,,,,,,,,,930,,,,,,,,,,,,,,,,,,,,,8,7,,,573.4685,13,right,0.0317,,1,0.3,"[2,3,1]",0.004502905,stimuli/card_0_transparent.png,0,13,0,13,0,1,,,,,,,,,,
,,,,664bae9ae5900c0b842196f2,B,2024-06-30_10h21.13.929,Slot Machine Game,2023.1.3,Win32,60.24096386,,,,,,,,,,,,,,,,,,,,,,,,,,,940,,,,,,,,,,,,,,,,,,,,,8,7,,,575.3351,14,up,0.1554,,1,0.3,"[2,3,1]",0.161808576,stimuli/card_10_transparent.png,10,14,0,14,0,1,,,,,,,,,,
,,,,664bae9ae5900c0b842196f2,B,2024-06-30_10h21.13.929,Slot Machine Game,2023.1.3,Win32,60.24096386,,,,,,,,,,,,,,,,,,,,,,,,,,,,,,,,,,,577.3183,,,,,,,,,,,,,,,,,,,,,,,,,,,,,,,,,"[1210,520,660,730,850,1110,730,940]",7,0,7,0,1,,,,
,,,,664bae9ae5900c0b842196f2,B,2024-06-30_10h21.13.929,Slot Machine Game,2023.1.3,Win32,60.24096386,,,,,,,,,,,,,,,,,,,,,,,,,,,0,,,,,,,,,,,,,,,,,,,,,9,9,[15],"[[3,1,2]]",582.3263,0,left,0.323,,1.5,0.3,"[3,1,2]",0.399407712,stimuli/card_0_transparent.png,0,0,0,0,0,1,,,,,,,,,,
,,,,664bae9ae5900c0b842196f2,B,2024-06-30_10h21.13.929,Slot Machine Game,2023.1.3,Win32,60.24096386,,,,,,,,,,,,,,,,,,,,,,,,,,,10,,,,,,,,,,,,,,,,,,,,,9,9,,,584.9682,1,right,1.1702,,1.5,0.3,"[3,1,2]",0.354387704,stimuli/card_10_transparent.png,10,1,0,1,0,1,,,,,,,,,,
,,,,664bae9ae5900c0b842196f2,B,2024-06-30_10h21.13.929,Slot Machine Game,2023.1.3,Win32,60.24096386,,,,,,,,,,,,,,,,,,,,,,,,,,,10,,,,,,,,,,,,,,,,,,,,,9,9,,,588.4681,2,up,0.2222,,0.5,0.3,"[3,1,2]",0.090830375,stimuli/card_0_transparent.png,0,2,0,2,0,1,,,,,,,,,,
,,,,664bae9ae5900c0b842196f2,B,2024-06-30_10h21.13.929,Slot Machine Game,2023.1.3,Win32,60.24096386,,,,,,,,,,,,,,,,,,,,,,,,,,,20,,,,,,,,,,,,,,,,,,,,,9,9,,,590.0181,3,right,0.3347,,1.5,0.3,"[3,1,2]",0.679044255,stimuli/card_10_transparent.png,10,3,0,3,0,1,,,,,,,,,,
,,,,664bae9ae5900c0b842196f2,B,2024-06-30_10h21.13.929,Slot Machine Game,2023.1.3,Win32,60.24096386,,,,,,,,,,,,,,,,,,,,,,,,,,,20,,,,,,,,,,,,,,,,,,,,,9,9,,,592.6849,4,left,0.0999,,0.5,0.3,"[3,1,2]",0.278006037,stimuli/card_0_transparent.png,0,4,0,4,0,1,,,,,,,,,,
,,,,664bae9ae5900c0b842196f2,B,2024-06-30_10h21.13.929,Slot Machine Game,2023.1.3,Win32,60.24096386,,,,,,,,,,,,,,,,,,,,,,,,,,,30,,,,,,,,,,,,,,,,,,,,,9,9,,,594.1181,5,right,0.0168,,1.5,0.3,"[3,1,2]",0.675840884,stimuli/card_10_transparent.png,10,5,0,5,0,1,,,,,,,,,,
,,,,664bae9ae5900c0b842196f2,B,2024-06-30_10h21.13.929,Slot Machine Game,2023.1.3,Win32,60.24096386,,,,,,,,,,,,,,,,,,,,,,,,,,,130,,,,,,,,,,,,,,,,,,,,,9,9,,,596.4679,6,up,0.0548,,1.5,0.3,"[3,1,2]",0.334434532,stimuli/card_100_transparent.png,100,6,0,6,0,1,,,,,,,,,,
,,,,664bae9ae5900c0b842196f2,B,2024-06-30_10h21.13.929,Slot Machine Game,2023.1.3,Win32,60.24096386,,,,,,,,,,,,,,,,,,,,,,,,,,,230,,,,,,,,,,,,,,,,,,,,,9,9,,,598.8512,7,up,0.3572,,1.5,0.3,"[3,1,2]",0.484217986,stimuli/card_100_transparent.png,100,7,0,7,0,1,,,,,,,,,,
,,,,664bae9ae5900c0b842196f2,B,2024-06-30_10h21.13.929,Slot Machine Game,2023.1.3,Win32,60.24096386,,,,,,,,,,,,,,,,,,,,,,,,,,,330,,,,,,,,,,,,,,,,,,,,,9,9,,,601.5346,8,up,0.0752,,1,0.3,"[3,1,2]",0.264770184,stimuli/card_100_transparent.png,100,8,0,8,0,1,,,,,,,,,,
,,,,664bae9ae5900c0b842196f2,B,2024-06-30_10h21.13.929,Slot Machine Game,2023.1.3,Win32,60.24096386,,,,,,,,,,,,,,,,,,,,,,,,,,,430,,,,,,,,,,,,,,,,,,,,,9,9,,,603.4345,9,up,0.1837,,1,0.3,"[3,1,2]",0.305240871,stimuli/card_100_transparent.png,100,9,0,9,0,1,,,,,,,,,,
,,,,664bae9ae5900c0b842196f2,B,2024-06-30_10h21.13.929,Slot Machine Game,2023.1.3,Win32,60.24096386,,,,,,,,,,,,,,,,,,,,,,,,,,,530,,,,,,,,,,,,,,,,,,,,,9,9,,,605.4515,10,up,0.3919,,1,0.3,"[3,1,2]",0.204450501,stimuli/card_100_transparent.png,100,10,0,10,0,1,,,,,,,,,,
,,,,664bae9ae5900c0b842196f2,B,2024-06-30_10h21.13.929,Slot Machine Game,2023.1.3,Win32,60.24096386,,,,,,,,,,,,,,,,,,,,,,,,,,,630,,,,,,,,,,,,,,,,,,,,,9,9,,,607.6677,11,up,0.0546,,0.5,0.3,"[3,1,2]",0.538179126,stimuli/card_100_transparent.png,100,11,0,11,0,1,,,,,,,,,,
,,,,664bae9ae5900c0b842196f2,B,2024-06-30_10h21.13.929,Slot Machine Game,2023.1.3,Win32,60.24096386,,,,,,,,,,,,,,,,,,,,,,,,,,,730,,,,,,,,,,,,,,,,,,,,,9,9,,,609.051,12,up,0.1165,,0.5,0.3,"[3,1,2]",0.876442711,stimuli/card_100_transparent.png,100,12,0,12,0,1,,,,,,,,,,
,,,,664bae9ae5900c0b842196f2,B,2024-06-30_10h21.13.929,Slot Machine Game,2023.1.3,Win32,60.24096386,,,,,,,,,,,,,,,,,,,,,,,,,,,830,,,,,,,,,,,,,,,,,,,,,9,9,,,610.501,13,up,0.1718,,1.5,0.3,"[3,1,2]",0.343939544,stimuli/card_100_transparent.png,100,13,0,13,0,1,,,,,,,,,,
,,,,664bae9ae5900c0b842196f2,B,2024-06-30_10h21.13.929,Slot Machine Game,2023.1.3,Win32,60.24096386,,,,,,,,,,,,,,,,,,,,,,,,,,,930,,,,,,,,,,,,,,,,,,,,,9,9,,,613.001,14,up,0.1999,,0.5,0.3,"[3,1,2]",0.928993888,stimuli/card_100_transparent.png,100,14,0,14,0,1,,,,,,,,,,
,,,,664bae9ae5900c0b842196f2,B,2024-06-30_10h21.13.929,Slot Machine Game,2023.1.3,Win32,60.24096386,,,,,,,,,,,,,,,,,,,,,,,,,,,,,,,,,,,614.5343,,,,,,,,,,,,,,,,,,,,,,,,,,,,,,,,,"[1210,520,660,730,850,1110,730,940,930]",8,0,8,0,1,,,,
,,,,664bae9ae5900c0b842196f2,B,2024-06-30_10h21.13.929,Slot Machine Game,2023.1.3,Win32,60.24096386,,,,,,,,,,,,,,,,,,,,,,,,,,,0,,,,,,,,,,,,,,,,,,,,,10,6,"[4,10,15]","[[2,3,1],[1,3,2],[3,2,1]]",619.5421,0,up,0.1334,,1,0.3,"[2,3,1]",0.39953076,stimuli/card_0_transparent.png,0,0,0,0,0,1,,,,,,,,,,
,,,,664bae9ae5900c0b842196f2,B,2024-06-30_10h21.13.929,Slot Machine Game,2023.1.3,Win32,60.24096386,,,,,,,,,,,,,,,,,,,,,,,,,,,0,,,,,,,,,,,,,,,,,,,,,10,6,,,621.5007,1,right,0.3835,,1,0.3,"[2,3,1]",0.090282899,stimuli/card_0_transparent.png,0,1,0,1,0,1,,,,,,,,,,
,,,,664bae9ae5900c0b842196f2,B,2024-06-30_10h21.13.929,Slot Machine Game,2023.1.3,Win32,60.24096386,,,,,,,,,,,,,,,,,,,,,,,,,,,10,,,,,,,,,,,,,,,,,,,,,10,6,,,623.7173,2,left,0.0835,,0.5,0.3,"[2,3,1]",0.201651105,stimuli/card_10_transparent.png,10,2,0,2,0,1,,,,,,,,,,
,,,,664bae9ae5900c0b842196f2,B,2024-06-30_10h21.13.929,Slot Machine Game,2023.1.3,Win32,60.24096386,,,,,,,,,,,,,,,,,,,,,,,,,,,110,,,,,,,,,,,,,,,,,,,,,10,6,,,625.134,3,right,0.1336,,1,0.3,"[2,3,1]",0.697816497,stimuli/card_100_transparent.png,100,3,0,3,0,1,,,,,,,,,,
,,,,664bae9ae5900c0b842196f2,B,2024-06-30_10h21.13.929,Slot Machine Game,2023.1.3,Win32,60.24096386,,,,,,,,,,,,,,,,,,,,,,,,,,,120,,,,,,,,,,,,,,,,,,,,,10,6,,,627.1007,4,right,0.465,,0.5,0.3,"[1,3,2]",0.370241746,stimuli/card_10_transparent.png,10,4,0,4,0,1,,,,,,,,,,
,,,,664bae9ae5900c0b842196f2,B,2024-06-30_10h21.13.929,Slot Machine Game,2023.1.3,Win32,60.24096386,,,,,,,,,,,,,,,,,,,,,,,,,,,130,,,,,,,,,,,,,,,,,,,,,10,6,,,628.9005,5,right,0.6381,,0.5,0.3,"[1,3,2]",0.87252337,stimuli/card_10_transparent.png,10,5,0,5,0,1,,,,,,,,,,
,,,,664bae9ae5900c0b842196f2,B,2024-06-30_10h21.13.929,Slot Machine Game,2023.1.3,Win32,60.24096386,,,,,,,,,,,,,,,,,,,,,,,,,,,140,,,,,,,,,,,,,,,,,,,,,10,6,,,630.8672,6,right,0.0872,,0.5,0.3,"[1,3,2]",0.718226127,stimuli/card_10_transparent.png,10,6,0,6,0,1,,,,,,,,,,
,,,,664bae9ae5900c0b842196f2,B,2024-06-30_10h21.13.929,Slot Machine Game,2023.1.3,Win32,60.24096386,,,,,,,,,,,,,,,,,,,,,,,,,,,150,,,,,,,,,,,,,,,,,,,,,10,6,,,632.2838,7,right,0.1572,,0.5,0.3,"[1,3,2]",0.366001484,stimuli/card_10_transparent.png,10,7,0,7,0,1,,,,,,,,,,
,,,,664bae9ae5900c0b842196f2,B,2024-06-30_10h21.13.929,Slot Machine Game,2023.1.3,Win32,60.24096386,,,,,,,,,,,,,,,,,,,,,,,,,,,160,,,,,,,,,,,,,,,,,,,,,10,6,,,633.7671,8,right,0.0193,,1.5,0.3,"[1,3,2]",0.261027441,stimuli/card_10_transparent.png,10,8,0,8,0,1,,,,,,,,,,
,,,,664bae9ae5900c0b842196f2,B,2024-06-30_10h21.13.929,Slot Machine Game,2023.1.3,Win32,60.24096386,,,,,,,,,,,,,,,,,,,,,,,,,,,170,,,,,,,,,,,,,,,,,,,,,10,6,,,636.1167,9,right,0.0671,,1,0.3,"[1,3,2]",0.466240456,stimuli/card_10_transparent.png,10,9,0,9,0,1,,,,,,,,,,
,,,,664bae9ae5900c0b842196f2,B,2024-06-30_10h21.13.929,Slot Machine Game,2023.1.3,Win32,60.24096386,,,,,,,,,,,,,,,,,,,,,,,,,,,270,,,,,,,,,,,,,,,,,,,,,10,6,,,638.0002,10,right,0.0349,,1.5,0.3,"[3,2,1]",0.405277584,stimuli/card_100_transparent.png,100,10,0,10,0,1,,,,,,,,,,
,,,,664bae9ae5900c0b842196f2,B,2024-06-30_10h21.13.929,Slot Machine Game,2023.1.3,Win32,60.24096386,,,,,,,,,,,,,,,,,,,,,,,,,,,370,,,,,,,,,,,,,,,,,,,,,10,6,,,640.3503,11,left,0.0521,,1,0.3,"[3,2,1]",0.093471401,stimuli/card_100_transparent.png,100,11,0,11,0,1,,,,,,,,,,
,,,,664bae9ae5900c0b842196f2,B,2024-06-30_10h21.13.929,Slot Machine Game,2023.1.3,Win32,60.24096386,,,,,,,,,,,,,,,,,,,,,,,,,,,370,,,,,,,,,,,,,,,,,,,,,10,6,,,642.2335,12,left,0.1931,,1,0.3,"[3,2,1]",0.95336419,stimuli/card_0_transparent.png,0,12,0,12,0,1,,,,,,,,,,
,,,,664bae9ae5900c0b842196f2,B,2024-06-30_10h21.13.929,Slot Machine Game,2023.1.3,Win32,60.24096386,,,,,,,,,,,,,,,,,,,,,,,,,,,470,,,,,,,,,,,,,,,,,,,,,10,6,,,644.2502,13,right,0.0228,,0.5,0.3,"[3,2,1]",0.406987026,stimuli/card_100_transparent.png,100,13,0,13,0,1,,,,,,,,,,
,,,,664bae9ae5900c0b842196f2,B,2024-06-30_10h21.13.929,Slot Machine Game,2023.1.3,Win32,60.24096386,,,,,,,,,,,,,,,,,,,,,,,,,,,570,,,,,,,,,,,,,,,,,,,,,10,6,,,645.6002,14,right,0.0509,,1,0.3,"[3,2,1]",0.79563835,stimuli/card_100_transparent.png,100,14,0,14,0,1,,,,,,,,,,
,,,,664bae9ae5900c0b842196f2,B,2024-06-30_10h21.13.929,Slot Machine Game,2023.1.3,Win32,60.24096386,,,,,,,,,,,,,,,,,,,,,,,,,,,,,,,,,,,647.4835,,,,,,,,,,,,,,,,,,,,,,,,,,,,,,,,,"[1210,520,660,730,850,1110,730,940,930,570]",9,0,9,0,1,,,,
,,,,664bae9ae5900c0b842196f2,B,2024-06-30_10h21.13.929,Slot Machine Game,2023.1.3,Win32,60.24096386,,,,,,,,,,,,,,,,,,,,,,,,,,,,,,,,,,,,,,,,,,,,,,,,,,,,,,,,,,,,,,,,,,,,,,,,,,9,"[1210,520,660,730,850,1110,730,940,930,570]",7.3,2024-06-30_10h32.10.487
