key_resp_welcome_started,key_resp_welcome_keys,key_resp_welcome_rt,key_resp_welcome_duration,prolific_id,path_id,date,expName,psychopyVersion,OS,frameRate,key_resp_instruction1_started,key_resp_instruction1_keys,key_resp_instruction1_rt,key_resp_instruction1_duration,key_resp_instruction2_started,key_resp_instruction2_keys,key_resp_instruction2_rt,key_resp_instruction2_duration,key_resp_instruction3_started,key_resp_instruction3_keys,key_resp_instruction3_rt,key_resp_instruction3_duration,key_resp_instruction4_started,key_resp_instruction4_keys,key_resp_instruction4_rt,key_resp_instruction4_duration,practiceCondition,practice_reward_seqs,practice_trial_started,practice_trial_num,practice_resp_rt,practice_resp_duration,practice_resp_keys,prac_presentationInterval,"practice_reward_seq: 2,1,3",reward_img,cumulative_reward,trial_reward,practice_trials.thisRepN,practice_trials.thisTrialN,practice_trials.thisN,practice_trials.thisIndex,practice_trials.ran,"practice_reward_seq: 2,3,1",block_break_started,"practice_reward_seq: 1,3,2","practice_reward_seq: 3,1,2",practice_end_time,practice_end_keys,practice_end_rt,practice_end_duration,main_instruction_text_started,block_condition,block_order_indices,main_instruction_keys,main_instruction_rt,main_instruction_duration,block_number,block_assignment,current_condition,main_reward_seqs,main_trial_started,main_trial_num,main_trial_keys,main_trial_rt,main_trial_duration,main_presentationInterval,reward_presentation_time,main_reward_seq,reward_rand_val,main_reward_img,current_reward,main_trials.thisRepN,main_trials.thisTrialN,main_trials.thisN,main_trials.thisIndex,main_trials.ran,block_reward,block.thisRepN,block.thisTrialN,block.thisN,block.thisIndex,block.ran,block_reward.length,block_reward_all,reward_amount,date_end_task
0.0004,a,92.498,,665866b4b7e41fe5f4a9a335,B,2024-06-21_23h10.36.246,Slot Machine Game,2023.1.3,Win32,39.68253968,,,,,,,,,,,,,,,,,,,,,,,,,,,,,,,,,,,,,,,,,,,,,,,,,,,,,,,,,,,,,,,,,,,,,,,,,,,,,
,,,,665866b4b7e41fe5f4a9a335,B,2024-06-21_23h10.36.246,Slot Machine Game,2023.1.3,Win32,39.68253968,92.5237,s,34.3381,,,,,,,,,,,,,,,,,,,,,,,,,,,,,,,,,,,,,,,,,,,,,,,,,,,,,,,,,,,,,,,,,,,,,,,,,,
,,,,665866b4b7e41fe5f4a9a335,B,2024-06-21_23h10.36.246,Slot Machine Game,2023.1.3,Win32,39.68253968,,,,,126.8818,space,20.8151,,,,,,,,,,,,,,,,,,,,,,,,,,,,,,,,,,,,,,,,,,,,,,,,,,,,,,,,,,,,,,,,,,,,,,
,,,,665866b4b7e41fe5f4a9a335,B,2024-06-21_23h10.36.246,Slot Machine Game,2023.1.3,Win32,39.68253968,,,,,,,,,147.7585,space,6.3601,,,,,,,,,,,,,,,,,,,,,,,,,,,,,,,,,,,,,,,,,,,,,,,,,,,,,,,,,,,,,,,,,,
,,,,665866b4b7e41fe5f4a9a335,B,2024-06-21_23h10.36.246,Slot Machine Game,2023.1.3,Win32,39.68253968,,,,,,,,,,,,,,,,,,,,,,,,,,,,,,,,,,,,,,,,,,,,,,,,,,,,,,,,,,,,,,,,,,,,,,,,,,,,,
,,,,665866b4b7e41fe5f4a9a335,B,2024-06-21_23h10.36.246,Slot Machine Game,2023.1.3,Win32,39.68253968,,,,,,,,,,,,,295.8966,b,83.8789,,,,,,,,,,,,,,,,,,,,,,,,,,,,,,,,,,,,,,,,,,,,,,,,,,,,,,,,,,,,,,
,,,,665866b4b7e41fe5f4a9a335,B,2024-06-21_23h10.36.246,Slot Machine Game,2023.1.3,Win32,39.68253968,,,,,,,,,,,,,,,,,"[9,15]","[[2,1,3],[2,3,1]]",379.8132,0,2.4248,,left,1.5,,stimuli/card_10_transparent.png,10,10,0,0,0,0,1,,,,,,,,,,,,,,,,,,,,,,,,,,,,,,,,,,,,,,,,,,,,
,,,,665866b4b7e41fe5f4a9a335,B,2024-06-21_23h10.36.246,Slot Machine Game,2023.1.3,Win32,39.68253968,,,,,,,,,,,,,,,,,,,384.5457,1,1.6795,,right,1,,stimuli/card_0_transparent.png,10,0,1,0,1,0,1,,,,,,,,,,,,,,,,,,,,,,,,,,,,,,,,,,,,,,,,,,,,
,,,,665866b4b7e41fe5f4a9a335,B,2024-06-21_23h10.36.246,Slot Machine Game,2023.1.3,Win32,39.68253968,,,,,,,,,,,,,,,,,,,388.0422,2,1.4473,,up,0.5,,stimuli/card_10_transparent.png,20,10,2,0,2,0,1,,,,,,,,,,,,,,,,,,,,,,,,,,,,,,,,,,,,,,,,,,,,
,,,,665866b4b7e41fe5f4a9a335,B,2024-06-21_23h10.36.246,Slot Machine Game,2023.1.3,Win32,39.68253968,,,,,,,,,,,,,,,,,,,390.8081,3,0.2518,,left,1,,stimuli/card_100_transparent.png,120,100,3,0,3,0,1,,,,,,,,,,,,,,,,,,,,,,,,,,,,,,,,,,,,,,,,,,,,
,,,,665866b4b7e41fe5f4a9a335,B,2024-06-21_23h10.36.246,Slot Machine Game,2023.1.3,Win32,39.68253968,,,,,,,,,,,,,,,,,,,392.8961,4,0.2051,,left,0.5,,stimuli/card_10_transparent.png,130,10,4,0,4,0,1,,,,,,,,,,,,,,,,,,,,,,,,,,,,,,,,,,,,,,,,,,,,
,,,,665866b4b7e41fe5f4a9a335,B,2024-06-21_23h10.36.246,Slot Machine Game,2023.1.3,Win32,39.68253968,,,,,,,,,,,,,,,,,,,394.4302,5,1.1573,,left,0.5,,stimuli/card_100_transparent.png,230,100,5,0,5,0,1,,,,,,,,,,,,,,,,,,,,,,,,,,,,,,,,,,,,,,,,,,,,
,,,,665866b4b7e41fe5f4a9a335,B,2024-06-21_23h10.36.246,Slot Machine Game,2023.1.3,Win32,39.68253968,,,,,,,,,,,,,,,,,,,396.9203,6,0.0653,,left,1,,stimuli/card_10_transparent.png,240,10,6,0,6,0,1,,,,,,,,,,,,,,,,,,,,,,,,,,,,,,,,,,,,,,,,,,,,
,,,,665866b4b7e41fe5f4a9a335,B,2024-06-21_23h10.36.246,Slot Machine Game,2023.1.3,Win32,39.68253968,,,,,,,,,,,,,,,,,,,398.8067,7,1.5432,,left,1,,stimuli/card_10_transparent.png,250,10,7,0,7,0,1,,,,,,,,,,,,,,,,,,,,,,,,,,,,,,,,,,,,,,,,,,,,
,,,,665866b4b7e41fe5f4a9a335,B,2024-06-21_23h10.36.246,Slot Machine Game,2023.1.3,Win32,39.68253968,,,,,,,,,,,,,,,,,,,402.1772,8,0.0597,,up,1.5,,stimuli/card_100_transparent.png,350,100,8,0,8,0,1,,,,,,,,,,,,,,,,,,,,,,,,,,,,,,,,,,,,,,,,,,,,
,,,,665866b4b7e41fe5f4a9a335,B,2024-06-21_23h10.36.246,Slot Machine Game,2023.1.3,Win32,39.68253968,,,,,,,,,,,,,,,,,,,404.5416,9,0.1774,,up,0.5,,stimuli/card_0_transparent.png,350,0,9,0,9,0,1,,,,,,,,,,,,,,,,,,,,,,,,,,,,,,,,,,,,,,,,,,,,
,,,,665866b4b7e41fe5f4a9a335,B,2024-06-21_23h10.36.246,Slot Machine Game,2023.1.3,Win32,39.68253968,,,,,,,,,,,,,,,,,,,406.0507,10,0.4184,,left,0.5,,stimuli/card_10_transparent.png,360,10,10,0,10,0,1,,,,,,,,,,,,,,,,,,,,,,,,,,,,,,,,,,,,,,,,,,,,
,,,,665866b4b7e41fe5f4a9a335,B,2024-06-21_23h10.36.246,Slot Machine Game,2023.1.3,Win32,39.68253968,,,,,,,,,,,,,,,,,,,407.7862,11,1.4885,,left,0.5,,stimuli/card_10_transparent.png,370,10,11,0,11,0,1,,,,,,,,,,,,,,,,,,,,,,,,,,,,,,,,,,,,,,,,,,,,
,,,,665866b4b7e41fe5f4a9a335,B,2024-06-21_23h10.36.246,Slot Machine Game,2023.1.3,Win32,39.68253968,,,,,,,,,,,,,,,,,,,410.6033,12,0.7298,,up,1,,stimuli/card_0_transparent.png,370,0,12,0,12,0,1,,,,,,,,,,,,,,,,,,,,,,,,,,,,,,,,,,,,,,,,,,,,
,,,,665866b4b7e41fe5f4a9a335,B,2024-06-21_23h10.36.246,Slot Machine Game,2023.1.3,Win32,39.68253968,,,,,,,,,,,,,,,,,,,413.169,13,2.1958,,up,1.5,,stimuli/card_0_transparent.png,370,0,13,0,13,0,1,,,,,,,,,,,,,,,,,,,,,,,,,,,,,,,,,,,,,,,,,,,,
,,,,665866b4b7e41fe5f4a9a335,B,2024-06-21_23h10.36.246,Slot Machine Game,2023.1.3,Win32,39.68253968,,,,,,,,,,,,,,,,,,,417.6712,14,0.1391,,left,1,,stimuli/card_10_transparent.png,380,10,14,0,14,0,1,,,,,,,,,,,,,,,,,,,,,,,,,,,,,,,,,,,,,,,,,,,,
,,,,665866b4b7e41fe5f4a9a335,B,2024-06-21_23h10.36.246,Slot Machine Game,2023.1.3,Win32,39.68253968,,,,,,,,,,,,,,,,,"[6,15]","[[1,3,2],[3,1,2]]",424.6516,0,0.7832,,left,0.5,,stimuli/card_100_transparent.png,100,100,0,0,0,0,1,,419.647,,,,,,,,,,,,,,,,,,,,,,,,,,,,,,,,,,,,,,,,,,
,,,,665866b4b7e41fe5f4a9a335,B,2024-06-21_23h10.36.246,Slot Machine Game,2023.1.3,Win32,39.68253968,,,,,,,,,,,,,,,,,,,426.7765,1,0.7172,,right,1.5,,stimuli/card_10_transparent.png,110,10,1,0,1,0,1,,,,,,,,,,,,,,,,,,,,,,,,,,,,,,,,,,,,,,,,,,,,
,,,,665866b4b7e41fe5f4a9a335,B,2024-06-21_23h10.36.246,Slot Machine Game,2023.1.3,Win32,39.68253968,,,,,,,,,,,,,,,,,,,429.7949,2,0.3549,,right,0.5,,stimuli/card_10_transparent.png,120,10,2,0,2,0,1,,,,,,,,,,,,,,,,,,,,,,,,,,,,,,,,,,,,,,,,,,,,
,,,,665866b4b7e41fe5f4a9a335,B,2024-06-21_23h10.36.246,Slot Machine Game,2023.1.3,Win32,39.68253968,,,,,,,,,,,,,,,,,,,431.4802,3,0.4876,,left,1,,stimuli/card_100_transparent.png,220,100,3,0,3,0,1,,,,,,,,,,,,,,,,,,,,,,,,,,,,,,,,,,,,,,,,,,,,
,,,,665866b4b7e41fe5f4a9a335,B,2024-06-21_23h10.36.246,Slot Machine Game,2023.1.3,Win32,39.68253968,,,,,,,,,,,,,,,,,,,433.7943,4,0.2589,,left,1,,stimuli/card_100_transparent.png,320,100,4,0,4,0,1,,,,,,,,,,,,,,,,,,,,,,,,,,,,,,,,,,,,,,,,,,,,
,,,,665866b4b7e41fe5f4a9a335,B,2024-06-21_23h10.36.246,Slot Machine Game,2023.1.3,Win32,39.68253968,,,,,,,,,,,,,,,,,,,435.8819,5,1.3373,,left,1.5,,stimuli/card_100_transparent.png,420,100,5,0,5,0,1,,,,,,,,,,,,,,,,,,,,,,,,,,,,,,,,,,,,,,,,,,,,
,,,,665866b4b7e41fe5f4a9a335,B,2024-06-21_23h10.36.246,Slot Machine Game,2023.1.3,Win32,39.68253968,,,,,,,,,,,,,,,,,,,439.529,6,1.0342,,left,0.5,,stimuli/card_0_transparent.png,420,0,6,0,6,0,1,,,,,,,,,,,,,,,,,,,,,,,,,,,,,,,,,,,,,,,,,,,,
,,,,665866b4b7e41fe5f4a9a335,B,2024-06-21_23h10.36.246,Slot Machine Game,2023.1.3,Win32,39.68253968,,,,,,,,,,,,,,,,,,,441.8939,7,0.7783,,left,0.5,,stimuli/card_0_transparent.png,420,0,7,0,7,0,1,,,,,,,,,,,,,,,,,,,,,,,,,,,,,,,,,,,,,,,,,,,,
,,,,665866b4b7e41fe5f4a9a335,B,2024-06-21_23h10.36.246,Slot Machine Game,2023.1.3,Win32,39.68253968,,,,,,,,,,,,,,,,,,,444.0061,8,0.5099,,left,1.5,,stimuli/card_0_transparent.png,420,0,8,0,8,0,1,,,,,,,,,,,,,,,,,,,,,,,,,,,,,,,,,,,,,,,,,,,,
,,,,665866b4b7e41fe5f4a9a335,B,2024-06-21_23h10.36.246,Slot Machine Game,2023.1.3,Win32,39.68253968,,,,,,,,,,,,,,,,,,,446.8241,9,0.2697,,up,1.5,,stimuli/card_0_transparent.png,420,0,9,0,9,0,1,,,,,,,,,,,,,,,,,,,,,,,,,,,,,,,,,,,,,,,,,,,,
,,,,665866b4b7e41fe5f4a9a335,B,2024-06-21_23h10.36.246,Slot Machine Game,2023.1.3,Win32,39.68253968,,,,,,,,,,,,,,,,,,,449.3888,10,0.3299,,right,1,,stimuli/card_10_transparent.png,430,10,10,0,10,0,1,,,,,,,,,,,,,,,,,,,,,,,,,,,,,,,,,,,,,,,,,,,,
,,,,665866b4b7e41fe5f4a9a335,B,2024-06-21_23h10.36.246,Slot Machine Game,2023.1.3,Win32,39.68253968,,,,,,,,,,,,,,,,,,,451.5522,11,0.3128,,left,1.5,,stimuli/card_0_transparent.png,430,0,11,0,11,0,1,,,,,,,,,,,,,,,,,,,,,,,,,,,,,,,,,,,,,,,,,,,,
,,,,665866b4b7e41fe5f4a9a335,B,2024-06-21_23h10.36.246,Slot Machine Game,2023.1.3,Win32,39.68253968,,,,,,,,,,,,,,,,,,,454.1679,12,0.1439,,left,1.5,,stimuli/card_0_transparent.png,430,0,12,0,12,0,1,,,,,,,,,,,,,,,,,,,,,,,,,,,,,,,,,,,,,,,,,,,,
,,,,665866b4b7e41fe5f4a9a335,B,2024-06-21_23h10.36.246,Slot Machine Game,2023.1.3,Win32,39.68253968,,,,,,,,,,,,,,,,,,,456.6076,13,0.3015,,up,0.5,,stimuli/card_100_transparent.png,530,100,13,0,13,0,1,,,,,,,,,,,,,,,,,,,,,,,,,,,,,,,,,,,,,,,,,,,,
,,,,665866b4b7e41fe5f4a9a335,B,2024-06-21_23h10.36.246,Slot Machine Game,2023.1.3,Win32,39.68253968,,,,,,,,,,,,,,,,,,,458.2425,14,0.3318,,up,0.5,,stimuli/card_100_transparent.png,630,100,14,0,14,0,1,,,,,,,,,,,,,,,,,,,,,,,,,,,,,,,,,,,,,,,,,,,,
,,,,665866b4b7e41fe5f4a9a335,B,2024-06-21_23h10.36.246,Slot Machine Game,2023.1.3,Win32,39.68253968,,,,,,,,,,,,,,,,,,,,,,,,,,,,,,,,,,,459.9029,,,464.9102,space,408.7357,,,,,,,,,,,,,,,,,,,,,,,,,,,,,,,,,,,,,
,,,,665866b4b7e41fe5f4a9a335,B,2024-06-21_23h10.36.246,Slot Machine Game,2023.1.3,Win32,39.68253968,,,,,,,,,,,,,,,,,,,,,,,,,,,,,,,,,,,,,,,,,,873.6671,2,"[2,4,8,0,1,3,9,6,8,5]",space,0.8975,,,,,,,,,,,,,,,,,,,,,,,,,,,,,,,
,,,,665866b4b7e41fe5f4a9a335,B,2024-06-21_23h10.36.246,Slot Machine Game,2023.1.3,Win32,39.68253968,,,,,,,,,,,,,,,,,,,,,,,,,,,0,,,,,,,,,,,,,,,,,,,,,1,3,"[15,15]","[[3,1,2],[3,1,2]]",874.6172,0,left,0.4392,,1.5,0.3,"[3,1,2]",0.920421049,stimuli/card_0_transparent.png,0,0,0,0,0,1,,,,,,,,,,
,,,,665866b4b7e41fe5f4a9a335,B,2024-06-21_23h10.36.246,Slot Machine Game,2023.1.3,Win32,39.68253968,,,,,,,,,,,,,,,,,,,,,,,,,,,100,,,,,,,,,,,,,,,,,,,,,1,3,,,877.3633,1,up,0.4822,,0.5,0.3,"[3,1,2]",0.219254562,stimuli/card_100_transparent.png,100,1,0,1,0,1,,,,,,,,,,
,,,,665866b4b7e41fe5f4a9a335,B,2024-06-21_23h10.36.246,Slot Machine Game,2023.1.3,Win32,39.68253968,,,,,,,,,,,,,,,,,,,,,,,,,,,110,,,,,,,,,,,,,,,,,,,,,1,3,,,879.1745,2,up,0.7477,,1.5,0.3,"[3,1,2]",0.1902225,stimuli/card_10_transparent.png,10,2,0,2,0,1,,,,,,,,,,
,,,,665866b4b7e41fe5f4a9a335,B,2024-06-21_23h10.36.246,Slot Machine Game,2023.1.3,Win32,39.68253968,,,,,,,,,,,,,,,,,,,,,,,,,,,110,,,,,,,,,,,,,,,,,,,,,1,3,,,882.2175,3,right,0.1701,,0.5,0.3,"[3,1,2]",0.079493786,stimuli/card_0_transparent.png,0,3,0,3,0,1,,,,,,,,,,
,,,,665866b4b7e41fe5f4a9a335,B,2024-06-21_23h10.36.246,Slot Machine Game,2023.1.3,Win32,39.68253968,,,,,,,,,,,,,,,,,,,,,,,,,,,210,,,,,,,,,,,,,,,,,,,,,1,3,,,883.7015,4,up,1.6847,,1,0.3,"[3,1,2]",0.960766826,stimuli/card_100_transparent.png,100,4,0,4,0,1,,,,,,,,,,
,,,,665866b4b7e41fe5f4a9a335,B,2024-06-21_23h10.36.246,Slot Machine Game,2023.1.3,Win32,39.68253968,,,,,,,,,,,,,,,,,,,,,,,,,,,,,,,,,,,,,,,,,,,,,,,,1,3,,,887.2231,5,,,,0.5,0.3,,,,,5,0,5,0,1,,,,,,,,,,
,,,,665866b4b7e41fe5f4a9a335,B,2024-06-21_23h10.36.246,Slot Machine Game,2023.1.3,Win32,39.68253968,,,,,,,,,,,,,,,,,,,,,,,,,,,310,,,,,,,,,,,,,,,,,,,,,1,3,,,899.1525,6,up,3.7167,,1,0.3,"[3,1,2]",0.515267293,stimuli/card_100_transparent.png,100,6,0,6,0,1,,,,,,,,,,
,,,,665866b4b7e41fe5f4a9a335,B,2024-06-21_23h10.36.246,Slot Machine Game,2023.1.3,Win32,39.68253968,,,,,,,,,,,,,,,,,,,,,,,,,,,410,,,,,,,,,,,,,,,,,,,,,1,3,,,904.2011,7,up,0.404,,1.5,0.3,"[3,1,2]",0.959493356,stimuli/card_100_transparent.png,100,7,0,7,0,1,,,,,,,,,,
,,,,665866b4b7e41fe5f4a9a335,B,2024-06-21_23h10.36.246,Slot Machine Game,2023.1.3,Win32,39.68253968,,,,,,,,,,,,,,,,,,,,,,,,,,,410,,,,,,,,,,,,,,,,,,,,,1,3,,,906.9178,8,up,0.1142,,1,0.3,"[3,1,2]",0.030993294,stimuli/card_0_transparent.png,0,8,0,8,0,1,,,,,,,,,,
,,,,665866b4b7e41fe5f4a9a335,B,2024-06-21_23h10.36.246,Slot Machine Game,2023.1.3,Win32,39.68253968,,,,,,,,,,,,,,,,,,,,,,,,,,,410,,,,,,,,,,,,,,,,,,,,,1,3,,,908.8543,9,right,0.0765,,1,0.3,"[3,1,2]",0.010885779,stimuli/card_0_transparent.png,0,9,0,9,0,1,,,,,,,,,,
,,,,665866b4b7e41fe5f4a9a335,B,2024-06-21_23h10.36.246,Slot Machine Game,2023.1.3,Win32,39.68253968,,,,,,,,,,,,,,,,,,,,,,,,,,,410,,,,,,,,,,,,,,,,,,,,,1,3,,,910.766,10,left,0.1098,,1,0.3,"[3,1,2]",0.270386719,stimuli/card_0_transparent.png,0,10,0,10,0,1,,,,,,,,,,
,,,,665866b4b7e41fe5f4a9a335,B,2024-06-21_23h10.36.246,Slot Machine Game,2023.1.3,Win32,39.68253968,,,,,,,,,,,,,,,,,,,,,,,,,,,510,,,,,,,,,,,,,,,,,,,,,1,3,,,912.7027,11,up,0.1794,,1,0.3,"[3,1,2]",0.383371748,stimuli/card_100_transparent.png,100,11,0,11,0,1,,,,,,,,,,
,,,,665866b4b7e41fe5f4a9a335,B,2024-06-21_23h10.36.246,Slot Machine Game,2023.1.3,Win32,39.68253968,,,,,,,,,,,,,,,,,,,,,,,,,,,610,,,,,,,,,,,,,,,,,,,,,1,3,,,914.7149,12,up,0.0933,,1,0.3,"[3,1,2]",0.505722584,stimuli/card_100_transparent.png,100,12,0,12,0,1,,,,,,,,,,
,,,,665866b4b7e41fe5f4a9a335,B,2024-06-21_23h10.36.246,Slot Machine Game,2023.1.3,Win32,39.68253968,,,,,,,,,,,,,,,,,,,,,,,,,,,710,,,,,,,,,,,,,,,,,,,,,1,3,,,916.6267,13,up,0.0878,,1,0.3,"[3,1,2]",0.457804152,stimuli/card_100_transparent.png,100,13,0,13,0,1,,,,,,,,,,
,,,,665866b4b7e41fe5f4a9a335,B,2024-06-21_23h10.36.246,Slot Machine Game,2023.1.3,Win32,39.68253968,,,,,,,,,,,,,,,,,,,,,,,,,,,810,,,,,,,,,,,,,,,,,,,,,1,3,,,918.5384,14,up,0.1036,,1.5,0.3,"[3,1,2]",0.975278665,stimuli/card_100_transparent.png,100,14,0,14,0,1,,,,,,,,,,
,,,,665866b4b7e41fe5f4a9a335,B,2024-06-21_23h10.36.246,Slot Machine Game,2023.1.3,Win32,39.68253968,,,,,,,,,,,,,,,,,,,,,,,,,,,,,,,,,,,920.9532,,,,,,,,,,,,,,,,,,,,,,,,,,,,,,,,,[810],0,0,0,0,1,,,,
,,,,665866b4b7e41fe5f4a9a335,B,2024-06-21_23h10.36.246,Slot Machine Game,2023.1.3,Win32,39.68253968,,,,,,,,,,,,,,,,,,,,,,,,,,,0,,,,,,,,,,,,,,,,,,,,,2,5,"[5,15]","[[1,2,3],[3,1,2]]",925.9713,0,right,2.6502,,1.5,0.3,"[1,2,3]",0.687973375,stimuli/card_0_transparent.png,0,0,0,0,0,1,,,,,,,,,,
,,,,665866b4b7e41fe5f4a9a335,B,2024-06-21_23h10.36.246,Slot Machine Game,2023.1.3,Win32,39.68253968,,,,,,,,,,,,,,,,,,,,,,,,,,,100,,,,,,,,,,,,,,,,,,,,,2,5,,,930.9385,1,right,1.3886,,1,0.3,"[1,2,3]",0.085196757,stimuli/card_100_transparent.png,100,1,0,1,0,1,,,,,,,,,,
,,,,665866b4b7e41fe5f4a9a335,B,2024-06-21_23h10.36.246,Slot Machine Game,2023.1.3,Win32,39.68253968,,,,,,,,,,,,,,,,,,,,,,,,,,,200,,,,,,,,,,,,,,,,,,,,,2,5,,,934.1579,2,left,0.4634,,1.5,0.3,"[1,2,3]",0.331144393,stimuli/card_100_transparent.png,100,2,0,2,0,1,,,,,,,,,,
,,,,665866b4b7e41fe5f4a9a335,B,2024-06-21_23h10.36.246,Slot Machine Game,2023.1.3,Win32,39.68253968,,,,,,,,,,,,,,,,,,,,,,,,,,,300,,,,,,,,,,,,,,,,,,,,,2,5,,,936.9248,3,left,0.4914,,1.5,0.3,"[1,2,3]",0.253392794,stimuli/card_100_transparent.png,100,3,0,3,0,1,,,,,,,,,,
,,,,665866b4b7e41fe5f4a9a335,B,2024-06-21_23h10.36.246,Slot Machine Game,2023.1.3,Win32,39.68253968,,,,,,,,,,,,,,,,,,,,,,,,,,,300,,,,,,,,,,,,,,,,,,,,,2,5,,,939.717,4,left,0.0758,,0.5,0.3,"[1,2,3]",0.03344608,stimuli/card_0_transparent.png,0,4,0,4,0,1,,,,,,,,,,
,,,,665866b4b7e41fe5f4a9a335,B,2024-06-21_23h10.36.246,Slot Machine Game,2023.1.3,Win32,39.68253968,,,,,,,,,,,,,,,,,,,,,,,,,,,400,,,,,,,,,,,,,,,,,,,,,2,5,,,941.1254,5,right,0.2272,,0.5,0.3,"[3,1,2]",0.197394034,stimuli/card_100_transparent.png,100,5,0,5,0,1,,,,,,,,,,
,,,,665866b4b7e41fe5f4a9a335,B,2024-06-21_23h10.36.246,Slot Machine Game,2023.1.3,Win32,39.68253968,,,,,,,,,,,,,,,,,,,,,,,,,,,500,,,,,,,,,,,,,,,,,,,,,2,5,,,942.6849,6,up,2.3893,,0.5,0.3,"[3,1,2]",0.2527099,stimuli/card_100_transparent.png,100,6,0,6,0,1,,,,,,,,,,
,,,,665866b4b7e41fe5f4a9a335,B,2024-06-21_23h10.36.246,Slot Machine Game,2023.1.3,Win32,39.68253968,,,,,,,,,,,,,,,,,,,,,,,,,,,600,,,,,,,,,,,,,,,,,,,,,2,5,,,946.4074,7,right,0.5025,,1.5,0.3,"[3,1,2]",0.188526709,stimuli/card_100_transparent.png,100,7,0,7,0,1,,,,,,,,,,
,,,,665866b4b7e41fe5f4a9a335,B,2024-06-21_23h10.36.246,Slot Machine Game,2023.1.3,Win32,39.68253968,,,,,,,,,,,,,,,,,,,,,,,,,,,700,,,,,,,,,,,,,,,,,,,,,2,5,,,949.2246,8,up,0.5188,,1.5,0.3,"[3,1,2]",0.385872686,stimuli/card_100_transparent.png,100,8,0,8,0,1,,,,,,,,,,
,,,,665866b4b7e41fe5f4a9a335,B,2024-06-21_23h10.36.246,Slot Machine Game,2023.1.3,Win32,39.68253968,,,,,,,,,,,,,,,,,,,,,,,,,,,710,,,,,,,,,,,,,,,,,,,,,2,5,,,952.0416,9,right,0.0371,,0.5,0.3,"[3,1,2]",0.823553404,stimuli/card_10_transparent.png,10,9,0,9,0,1,,,,,,,,,,
,,,,665866b4b7e41fe5f4a9a335,B,2024-06-21_23h10.36.246,Slot Machine Game,2023.1.3,Win32,39.68253968,,,,,,,,,,,,,,,,,,,,,,,,,,,810,,,,,,,,,,,,,,,,,,,,,2,5,,,953.3998,10,up,0.026,,1,0.3,"[3,1,2]",0.367806298,stimuli/card_100_transparent.png,100,10,0,10,0,1,,,,,,,,,,
,,,,665866b4b7e41fe5f4a9a335,B,2024-06-21_23h10.36.246,Slot Machine Game,2023.1.3,Win32,39.68253968,,,,,,,,,,,,,,,,,,,,,,,,,,,810,,,,,,,,,,,,,,,,,,,,,2,5,,,955.2612,11,left,0.2611,,0.5,0.3,"[3,1,2]",0.407263302,stimuli/card_0_transparent.png,0,11,0,11,0,1,,,,,,,,,,
,,,,665866b4b7e41fe5f4a9a335,B,2024-06-21_23h10.36.246,Slot Machine Game,2023.1.3,Win32,39.68253968,,,,,,,,,,,,,,,,,,,,,,,,,,,910,,,,,,,,,,,,,,,,,,,,,2,5,,,956.8457,12,up,0.1531,,1,0.3,"[3,1,2]",0.465084504,stimuli/card_100_transparent.png,100,12,0,12,0,1,,,,,,,,,,
,,,,665866b4b7e41fe5f4a9a335,B,2024-06-21_23h10.36.246,Slot Machine Game,2023.1.3,Win32,39.68253968,,,,,,,,,,,,,,,,,,,,,,,,,,,920,,,,,,,,,,,,,,,,,,,,,2,5,,,958.8078,13,up,0.4567,,0.5,0.3,"[3,1,2]",0.16761268,stimuli/card_10_transparent.png,10,13,0,13,0,1,,,,,,,,,,
,,,,665866b4b7e41fe5f4a9a335,B,2024-06-21_23h10.36.246,Slot Machine Game,2023.1.3,Win32,39.68253968,,,,,,,,,,,,,,,,,,,,,,,,,,,930,,,,,,,,,,,,,,,,,,,,,2,5,,,960.594,14,right,0.189,,1,0.3,"[3,1,2]",0.309143653,stimuli/card_10_transparent.png,10,14,0,14,0,1,,,,,,,,,,
,,,,665866b4b7e41fe5f4a9a335,B,2024-06-21_23h10.36.246,Slot Machine Game,2023.1.3,Win32,39.68253968,,,,,,,,,,,,,,,,,,,,,,,,,,,,,,,,,,,962.6057,,,,,,,,,,,,,,,,,,,,,,,,,,,,,,,,,"[810,930]",1,0,1,0,1,,,,
,,,,665866b4b7e41fe5f4a9a335,B,2024-06-21_23h10.36.246,Slot Machine Game,2023.1.3,Win32,39.68253968,,,,,,,,,,,,,,,,,,,,,,,,,,,10,,,,,,,,,,,,,,,,,,,,,3,9,"[8,15]","[[3,2,1],[3,1,2]]",967.6245,0,up,0.9315,,1.5,0.3,"[3,2,1]",0.643262414,stimuli/card_10_transparent.png,10,0,0,0,0,1,,,,,,,,,,
,,,,665866b4b7e41fe5f4a9a335,B,2024-06-21_23h10.36.246,Slot Machine Game,2023.1.3,Win32,39.68253968,,,,,,,,,,,,,,,,,,,,,,,,,,,110,,,,,,,,,,,,,,,,,,,,,3,9,,,970.8811,1,right,0.3802,,1.5,0.3,"[3,2,1]",0.250849025,stimuli/card_100_transparent.png,100,1,0,1,0,1,,,,,,,,,,
,,,,665866b4b7e41fe5f4a9a335,B,2024-06-21_23h10.36.246,Slot Machine Game,2023.1.3,Win32,39.68253968,,,,,,,,,,,,,,,,,,,,,,,,,,,120,,,,,,,,,,,,,,,,,,,,,3,9,,,973.5725,2,up,0.0053,,0.5,0.3,"[3,2,1]",0.682268359,stimuli/card_10_transparent.png,10,2,0,2,0,1,,,,,,,,,,
,,,,665866b4b7e41fe5f4a9a335,B,2024-06-21_23h10.36.246,Slot Machine Game,2023.1.3,Win32,39.68253968,,,,,,,,,,,,,,,,,,,,,,,,,,,220,,,,,,,,,,,,,,,,,,,,,3,9,,,974.9055,3,right,0.1404,,0.5,0.3,"[3,2,1]",0.350550519,stimuli/card_100_transparent.png,100,3,0,3,0,1,,,,,,,,,,
,,,,665866b4b7e41fe5f4a9a335,B,2024-06-21_23h10.36.246,Slot Machine Game,2023.1.3,Win32,39.68253968,,,,,,,,,,,,,,,,,,,,,,,,,,,230,,,,,,,,,,,,,,,,,,,,,3,9,,,976.3644,4,up,0.2376,,1.5,0.3,"[3,2,1]",0.946136528,stimuli/card_10_transparent.png,10,4,0,4,0,1,,,,,,,,,,
,,,,665866b4b7e41fe5f4a9a335,B,2024-06-21_23h10.36.246,Slot Machine Game,2023.1.3,Win32,39.68253968,,,,,,,,,,,,,,,,,,,,,,,,,,,330,,,,,,,,,,,,,,,,,,,,,3,9,,,978.9051,5,right,0.0935,,0.5,0.3,"[3,2,1]",0.333518819,stimuli/card_100_transparent.png,100,5,0,5,0,1,,,,,,,,,,
,,,,665866b4b7e41fe5f4a9a335,B,2024-06-21_23h10.36.246,Slot Machine Game,2023.1.3,Win32,39.68253968,,,,,,,,,,,,,,,,,,,,,,,,,,,340,,,,,,,,,,,,,,,,,,,,,3,9,,,980.3133,6,up,0.3405,,1,0.3,"[3,2,1]",0.362875063,stimuli/card_10_transparent.png,10,6,0,6,0,1,,,,,,,,,,
,,,,665866b4b7e41fe5f4a9a335,B,2024-06-21_23h10.36.246,Slot Machine Game,2023.1.3,Win32,39.68253968,,,,,,,,,,,,,,,,,,,,,,,,,,,440,,,,,,,,,,,,,,,,,,,,,3,9,,,982.4766,7,right,0.1546,,0.5,0.3,"[3,2,1]",0.356215726,stimuli/card_100_transparent.png,100,7,0,7,0,1,,,,,,,,,,
,,,,665866b4b7e41fe5f4a9a335,B,2024-06-21_23h10.36.246,Slot Machine Game,2023.1.3,Win32,39.68253968,,,,,,,,,,,,,,,,,,,,,,,,,,,440,,,,,,,,,,,,,,,,,,,,,3,9,,,983.9605,8,left,0.1507,,1.5,0.3,"[3,1,2]",0.869141875,stimuli/card_0_transparent.png,0,8,0,8,0,1,,,,,,,,,,
,,,,665866b4b7e41fe5f4a9a335,B,2024-06-21_23h10.36.246,Slot Machine Game,2023.1.3,Win32,39.68253968,,,,,,,,,,,,,,,,,,,,,,,,,,,450,,,,,,,,,,,,,,,,,,,,,3,9,,,986.4255,9,right,0.1785,,1,0.3,"[3,1,2]",0.408484442,stimuli/card_10_transparent.png,10,9,0,9,0,1,,,,,,,,,,
,,,,665866b4b7e41fe5f4a9a335,B,2024-06-21_23h10.36.246,Slot Machine Game,2023.1.3,Win32,39.68253968,,,,,,,,,,,,,,,,,,,,,,,,,,,550,,,,,,,,,,,,,,,,,,,,,3,9,,,988.4378,10,up,0.1125,,1,0.3,"[3,1,2]",0.867338786,stimuli/card_100_transparent.png,100,10,0,10,0,1,,,,,,,,,,
,,,,665866b4b7e41fe5f4a9a335,B,2024-06-21_23h10.36.246,Slot Machine Game,2023.1.3,Win32,39.68253968,,,,,,,,,,,,,,,,,,,,,,,,,,,560,,,,,,,,,,,,,,,,,,,,,3,9,,,990.3748,11,right,0.2909,,1,0.3,"[3,1,2]",0.457240368,stimuli/card_10_transparent.png,10,11,0,11,0,1,,,,,,,,,,
,,,,665866b4b7e41fe5f4a9a335,B,2024-06-21_23h10.36.246,Slot Machine Game,2023.1.3,Win32,39.68253968,,,,,,,,,,,,,,,,,,,,,,,,,,,660,,,,,,,,,,,,,,,,,,,,,3,9,,,992.4872,12,up,0.0655,,1.5,0.3,"[3,1,2]",0.286015247,stimuli/card_100_transparent.png,100,12,0,12,0,1,,,,,,,,,,
,,,,665866b4b7e41fe5f4a9a335,B,2024-06-21_23h10.36.246,Slot Machine Game,2023.1.3,Win32,39.68253968,,,,,,,,,,,,,,,,,,,,,,,,,,,670,,,,,,,,,,,,,,,,,,,,,3,9,,,994.8516,13,right,0.0365,,0.5,0.3,"[3,1,2]",0.257372401,stimuli/card_10_transparent.png,10,13,0,13,0,1,,,,,,,,,,
,,,,665866b4b7e41fe5f4a9a335,B,2024-06-21_23h10.36.246,Slot Machine Game,2023.1.3,Win32,39.68253968,,,,,,,,,,,,,,,,,,,,,,,,,,,770,,,,,,,,,,,,,,,,,,,,,3,9,,,996.21,14,up,0.0651,,1.5,0.3,"[3,1,2]",0.926687135,stimuli/card_100_transparent.png,100,14,0,14,0,1,,,,,,,,,,
,,,,665866b4b7e41fe5f4a9a335,B,2024-06-21_23h10.36.246,Slot Machine Game,2023.1.3,Win32,39.68253968,,,,,,,,,,,,,,,,,,,,,,,,,,,,,,,,,,,998.5745,,,,,,,,,,,,,,,,,,,,,,,,,,,,,,,,,"[810,930,770]",2,0,2,0,1,,,,
,,,,665866b4b7e41fe5f4a9a335,B,2024-06-21_23h10.36.246,Slot Machine Game,2023.1.3,Win32,39.68253968,,,,,,,,,,,,,,,,,,,,,,,,,,,10,,,,,,,,,,,,,,,,,,,,,4,1,"[12,15]","[[2,1,3],[2,3,1]]",1003.5922,0,up,0.2166,,0.5,0.3,"[2,1,3]",0.17364091,stimuli/card_10_transparent.png,10,0,0,0,0,1,,,,,,,,,,
,,,,665866b4b7e41fe5f4a9a335,B,2024-06-21_23h10.36.246,Slot Machine Game,2023.1.3,Win32,39.68253968,,,,,,,,,,,,,,,,,,,,,,,,,,,20,,,,,,,,,,,,,,,,,,,,,4,1,,,1005.1392,1,right,0.0195,,0.5,0.3,"[2,1,3]",0.167496808,stimuli/card_10_transparent.png,10,1,0,1,0,1,,,,,,,,,,
,,,,665866b4b7e41fe5f4a9a335,B,2024-06-21_23h10.36.246,Slot Machine Game,2023.1.3,Win32,39.68253968,,,,,,,,,,,,,,,,,,,,,,,,,,,30,,,,,,,,,,,,,,,,,,,,,4,1,,,1006.4724,2,left,0.1532,,1,0.3,"[2,1,3]",0.821061673,stimuli/card_10_transparent.png,10,2,0,2,0,1,,,,,,,,,,
,,,,665866b4b7e41fe5f4a9a335,B,2024-06-21_23h10.36.246,Slot Machine Game,2023.1.3,Win32,39.68253968,,,,,,,,,,,,,,,,,,,,,,,,,,,130,,,,,,,,,,,,,,,,,,,,,4,1,,,1008.4596,3,up,0.1032,,1.5,0.3,"[2,1,3]",0.714775627,stimuli/card_100_transparent.png,100,3,0,3,0,1,,,,,,,,,,
,,,,665866b4b7e41fe5f4a9a335,B,2024-06-21_23h10.36.246,Slot Machine Game,2023.1.3,Win32,39.68253968,,,,,,,,,,,,,,,,,,,,,,,,,,,140,,,,,,,,,,,,,,,,,,,,,4,1,,,1010.874,4,left,0.334,,1,0.3,"[2,1,3]",0.743471444,stimuli/card_10_transparent.png,10,4,0,4,0,1,,,,,,,,,,
,,,,665866b4b7e41fe5f4a9a335,B,2024-06-21_23h10.36.246,Slot Machine Game,2023.1.3,Win32,39.68253968,,,,,,,,,,,,,,,,,,,,,,,,,,,240,,,,,,,,,,,,,,,,,,,,,4,1,,,1013.0371,5,up,0.0006,,0.5,0.3,"[2,1,3]",0.31030629,stimuli/card_100_transparent.png,100,5,0,5,0,1,,,,,,,,,,
,,,,665866b4b7e41fe5f4a9a335,B,2024-06-21_23h10.36.246,Slot Machine Game,2023.1.3,Win32,39.68253968,,,,,,,,,,,,,,,,,,,,,,,,,,,250,,,,,,,,,,,,,,,,,,,,,4,1,,,1014.3702,6,left,0.0258,,0.5,0.3,"[2,1,3]",0.56272337,stimuli/card_10_transparent.png,10,6,0,6,0,1,,,,,,,,,,
,,,,665866b4b7e41fe5f4a9a335,B,2024-06-21_23h10.36.246,Slot Machine Game,2023.1.3,Win32,39.68253968,,,,,,,,,,,,,,,,,,,,,,,,,,,250,,,,,,,,,,,,,,,,,,,,,4,1,,,1015.7289,7,up,0.0008,,1.5,0.3,"[2,1,3]",0.066391051,stimuli/card_0_transparent.png,0,7,0,7,0,1,,,,,,,,,,
,,,,665866b4b7e41fe5f4a9a335,B,2024-06-21_23h10.36.246,Slot Machine Game,2023.1.3,Win32,39.68253968,,,,,,,,,,,,,,,,,,,,,,,,,,,250,,,,,,,,,,,,,,,,,,,,,4,1,,,1018.0429,8,right,0.0814,,1.5,0.3,"[2,1,3]",0.383952463,stimuli/card_0_transparent.png,0,8,0,8,0,1,,,,,,,,,,
,,,,665866b4b7e41fe5f4a9a335,B,2024-06-21_23h10.36.246,Slot Machine Game,2023.1.3,Win32,39.68253968,,,,,,,,,,,,,,,,,,,,,,,,,,,260,,,,,,,,,,,,,,,,,,,,,4,1,,,1020.432,9,left,0.1874,,1.5,0.3,"[2,1,3]",0.80025403,stimuli/card_10_transparent.png,10,9,0,9,0,1,,,,,,,,,,
,,,,665866b4b7e41fe5f4a9a335,B,2024-06-21_23h10.36.246,Slot Machine Game,2023.1.3,Win32,39.68253968,,,,,,,,,,,,,,,,,,,,,,,,,,,360,,,,,,,,,,,,,,,,,,,,,4,1,,,1022.9223,10,up,0.0324,,1.5,0.3,"[2,1,3]",0.570448505,stimuli/card_100_transparent.png,100,10,0,10,0,1,,,,,,,,,,
,,,,665866b4b7e41fe5f4a9a335,B,2024-06-21_23h10.36.246,Slot Machine Game,2023.1.3,Win32,39.68253968,,,,,,,,,,,,,,,,,,,,,,,,,,,370,,,,,,,,,,,,,,,,,,,,,4,1,,,1025.2614,11,left,0.1394,,1,0.3,"[2,1,3]",0.66193549,stimuli/card_10_transparent.png,10,11,0,11,0,1,,,,,,,,,,
,,,,665866b4b7e41fe5f4a9a335,B,2024-06-21_23h10.36.246,Slot Machine Game,2023.1.3,Win32,39.68253968,,,,,,,,,,,,,,,,,,,,,,,,,,,370,,,,,,,,,,,,,,,,,,,,,4,1,,,1027.2233,12,up,0.176,,1,0.3,"[2,3,1]",0.677129218,stimuli/card_0_transparent.png,0,12,0,12,0,1,,,,,,,,,,
,,,,665866b4b7e41fe5f4a9a335,B,2024-06-21_23h10.36.246,Slot Machine Game,2023.1.3,Win32,39.68253968,,,,,,,,,,,,,,,,,,,,,,,,,,,380,,,,,,,,,,,,,,,,,,,,,4,1,,,1029.2358,13,left,0.1661,,0.5,0.3,"[2,3,1]",0.374197938,stimuli/card_10_transparent.png,10,13,0,13,0,1,,,,,,,,,,
,,,,665866b4b7e41fe5f4a9a335,B,2024-06-21_23h10.36.246,Slot Machine Game,2023.1.3,Win32,39.68253968,,,,,,,,,,,,,,,,,,,,,,,,,,,380,,,,,,,,,,,,,,,,,,,,,4,1,,,1030.7195,14,up,0.1407,,1,0.3,"[2,3,1]",0.926948925,stimuli/card_0_transparent.png,0,14,0,14,0,1,,,,,,,,,,
,,,,665866b4b7e41fe5f4a9a335,B,2024-06-21_23h10.36.246,Slot Machine Game,2023.1.3,Win32,39.68253968,,,,,,,,,,,,,,,,,,,,,,,,,,,,,,,,,,,1032.6814,,,,,,,,,,,,,,,,,,,,,,,,,,,,,,,,,"[810,930,770,380]",3,0,3,0,1,,,,
,,,,665866b4b7e41fe5f4a9a335,B,2024-06-21_23h10.36.246,Slot Machine Game,2023.1.3,Win32,39.68253968,,,,,,,,,,,,,,,,,,,,,,,,,,,10,,,,,,,,,,,,,,,,,,,,,5,2,"[6,15]","[[1,3,2],[3,2,1]]",1037.7005,0,right,0.1834,,1,0.3,"[1,3,2]",0.975872553,stimuli/card_10_transparent.png,10,0,0,0,0,1,,,,,,,,,,
,,,,665866b4b7e41fe5f4a9a335,B,2024-06-21_23h10.36.246,Slot Machine Game,2023.1.3,Win32,39.68253968,,,,,,,,,,,,,,,,,,,,,,,,,,,20,,,,,,,,,,,,,,,,,,,,,5,2,,,1039.7242,1,left,0.0283,,1,0.3,"[1,3,2]",0.147739829,stimuli/card_10_transparent.png,10,1,0,1,0,1,,,,,,,,,,
,,,,665866b4b7e41fe5f4a9a335,B,2024-06-21_23h10.36.246,Slot Machine Game,2023.1.3,Win32,39.68253968,,,,,,,,,,,,,,,,,,,,,,,,,,,20,,,,,,,,,,,,,,,,,,,,,5,2,,,1041.5855,2,up,0.1826,,0.5,0.3,"[1,3,2]",0.61662038,stimuli/card_0_transparent.png,0,2,0,2,0,1,,,,,,,,,,
,,,,665866b4b7e41fe5f4a9a335,B,2024-06-21_23h10.36.246,Slot Machine Game,2023.1.3,Win32,39.68253968,,,,,,,,,,,,,,,,,,,,,,,,,,,30,,,,,,,,,,,,,,,,,,,,,5,2,,,1043.0946,3,right,0.1118,,0.5,0.3,"[1,3,2]",0.496264788,stimuli/card_10_transparent.png,10,3,0,3,0,1,,,,,,,,,,
,,,,665866b4b7e41fe5f4a9a335,B,2024-06-21_23h10.36.246,Slot Machine Game,2023.1.3,Win32,39.68253968,,,,,,,,,,,,,,,,,,,,,,,,,,,130,,,,,,,,,,,,,,,,,,,,,5,2,,,1044.5289,4,left,0.2151,,0.5,0.3,"[1,3,2]",0.768494695,stimuli/card_100_transparent.png,100,4,0,4,0,1,,,,,,,,,,
,,,,665866b4b7e41fe5f4a9a335,B,2024-06-21_23h10.36.246,Slot Machine Game,2023.1.3,Win32,39.68253968,,,,,,,,,,,,,,,,,,,,,,,,,,,230,,,,,,,,,,,,,,,,,,,,,5,2,,,1046.0627,5,left,0.0783,,1,0.3,"[1,3,2]",0.347387405,stimuli/card_100_transparent.png,100,5,0,5,0,1,,,,,,,,,,
,,,,665866b4b7e41fe5f4a9a335,B,2024-06-21_23h10.36.246,Slot Machine Game,2023.1.3,Win32,39.68253968,,,,,,,,,,,,,,,,,,,,,,,,,,,230,,,,,,,,,,,,,,,,,,,,,5,2,,,1047.9743,6,left,0.0329,,1.5,0.3,"[3,2,1]",0.956580811,stimuli/card_0_transparent.png,0,6,0,6,0,1,,,,,,,,,,
,,,,665866b4b7e41fe5f4a9a335,B,2024-06-21_23h10.36.246,Slot Machine Game,2023.1.3,Win32,39.68253968,,,,,,,,,,,,,,,,,,,,,,,,,,,330,,,,,,,,,,,,,,,,,,,,,5,2,,,1050.3135,7,right,0.0597,,1.5,0.3,"[3,2,1]",0.703948821,stimuli/card_100_transparent.png,100,7,0,7,0,1,,,,,,,,,,
,,,,665866b4b7e41fe5f4a9a335,B,2024-06-21_23h10.36.246,Slot Machine Game,2023.1.3,Win32,39.68253968,,,,,,,,,,,,,,,,,,,,,,,,,,,330,,,,,,,,,,,,,,,,,,,,,5,2,,,1052.6782,8,left,0.1696,,1.5,0.3,"[3,2,1]",0.333240168,stimuli/card_0_transparent.png,0,8,0,8,0,1,,,,,,,,,,
,,,,665866b4b7e41fe5f4a9a335,B,2024-06-21_23h10.36.246,Slot Machine Game,2023.1.3,Win32,39.68253968,,,,,,,,,,,,,,,,,,,,,,,,,,,430,,,,,,,,,,,,,,,,,,,,,5,2,,,1055.1427,9,right,0.0251,,0.5,0.3,"[3,2,1]",0.702108259,stimuli/card_100_transparent.png,100,9,0,9,0,1,,,,,,,,,,
,,,,665866b4b7e41fe5f4a9a335,B,2024-06-21_23h10.36.246,Slot Machine Game,2023.1.3,Win32,39.68253968,,,,,,,,,,,,,,,,,,,,,,,,,,,530,,,,,,,,,,,,,,,,,,,,,5,2,,,1056.5012,10,right,0.0797,,1,0.3,"[3,2,1]",0.484261195,stimuli/card_100_transparent.png,100,10,0,10,0,1,,,,,,,,,,
,,,,665866b4b7e41fe5f4a9a335,B,2024-06-21_23h10.36.246,Slot Machine Game,2023.1.3,Win32,39.68253968,,,,,,,,,,,,,,,,,,,,,,,,,,,630,,,,,,,,,,,,,,,,,,,,,5,2,,,1058.4147,11,right,0.0958,,1,0.3,"[3,2,1]",0.559054779,stimuli/card_100_transparent.png,100,11,0,11,0,1,,,,,,,,,,
,,,,665866b4b7e41fe5f4a9a335,B,2024-06-21_23h10.36.246,Slot Machine Game,2023.1.3,Win32,39.68253968,,,,,,,,,,,,,,,,,,,,,,,,,,,730,,,,,,,,,,,,,,,,,,,,,5,2,,,1060.3246,12,right,0.169,,0.5,0.3,"[3,2,1]",0.628166919,stimuli/card_100_transparent.png,100,12,0,12,0,1,,,,,,,,,,
,,,,665866b4b7e41fe5f4a9a335,B,2024-06-21_23h10.36.246,Slot Machine Game,2023.1.3,Win32,39.68253968,,,,,,,,,,,,,,,,,,,,,,,,,,,830,,,,,,,,,,,,,,,,,,,,,5,2,,,1061.8088,13,right,0.053,,0.5,0.3,"[3,2,1]",0.901454332,stimuli/card_100_transparent.png,100,13,0,13,0,1,,,,,,,,,,
,,,,665866b4b7e41fe5f4a9a335,B,2024-06-21_23h10.36.246,Slot Machine Game,2023.1.3,Win32,39.68253968,,,,,,,,,,,,,,,,,,,,,,,,,,,930,,,,,,,,,,,,,,,,,,,,,5,2,,,1063.1917,14,right,0.1575,,1.5,0.3,"[3,2,1]",0.293387591,stimuli/card_100_transparent.png,100,14,0,14,0,1,,,,,,,,,,
,,,,665866b4b7e41fe5f4a9a335,B,2024-06-21_23h10.36.246,Slot Machine Game,2023.1.3,Win32,39.68253968,,,,,,,,,,,,,,,,,,,,,,,,,,,,,,,,,,,1065.6572,,,,,,,,,,,,,,,,,,,,,,,,,,,,,,,,,"[810,930,770,380,930]",4,0,4,0,1,,,,
,,,,665866b4b7e41fe5f4a9a335,B,2024-06-21_23h10.36.246,Slot Machine Game,2023.1.3,Win32,39.68253968,,,,,,,,,,,,,,,,,,,,,,,,,,,10,,,,,,,,,,,,,,,,,,,,,6,4,"[7,15]","[[2,3,1],[1,2,3]]",1070.6754,0,right,1.2631,,0.5,0.3,"[2,3,1]",0.150385055,stimuli/card_10_transparent.png,10,0,0,0,0,1,,,,,,,,,,
,,,,665866b4b7e41fe5f4a9a335,B,2024-06-21_23h10.36.246,Slot Machine Game,2023.1.3,Win32,39.68253968,,,,,,,,,,,,,,,,,,,,,,,,,,,20,,,,,,,,,,,,,,,,,,,,,6,4,,,1073.2782,1,left,0.1115,,1.5,0.3,"[2,3,1]",0.842076465,stimuli/card_10_transparent.png,10,1,0,1,0,1,,,,,,,,,,
,,,,665866b4b7e41fe5f4a9a335,B,2024-06-21_23h10.36.246,Slot Machine Game,2023.1.3,Win32,39.68253968,,,,,,,,,,,,,,,,,,,,,,,,,,,20,,,,,,,,,,,,,,,,,,,,,6,4,,,1075.6927,2,up,0.0421,,0.5,0.3,"[2,3,1]",0.707966729,stimuli/card_0_transparent.png,0,2,0,2,0,1,,,,,,,,,,
,,,,665866b4b7e41fe5f4a9a335,B,2024-06-21_23h10.36.246,Slot Machine Game,2023.1.3,Win32,39.68253968,,,,,,,,,,,,,,,,,,,,,,,,,,,120,,,,,,,,,,,,,,,,,,,,,6,4,,,1077.0508,3,right,0.1517,,1.5,0.3,"[2,3,1]",0.933319295,stimuli/card_100_transparent.png,100,3,0,3,0,1,,,,,,,,,,
,,,,665866b4b7e41fe5f4a9a335,B,2024-06-21_23h10.36.246,Slot Machine Game,2023.1.3,Win32,39.68253968,,,,,,,,,,,,,,,,,,,,,,,,,,,130,,,,,,,,,,,,,,,,,,,,,6,4,,,1079.5159,4,right,0.0012,,1.5,0.3,"[2,3,1]",0.14454103,stimuli/card_10_transparent.png,10,4,0,4,0,1,,,,,,,,,,
,,,,665866b4b7e41fe5f4a9a335,B,2024-06-21_23h10.36.246,Slot Machine Game,2023.1.3,Win32,39.68253968,,,,,,,,,,,,,,,,,,,,,,,,,,,140,,,,,,,,,,,,,,,,,,,,,6,4,,,1081.83,5,left,0.0609,,0.5,0.3,"[2,3,1]",0.897274562,stimuli/card_10_transparent.png,10,5,0,5,0,1,,,,,,,,,,
,,,,665866b4b7e41fe5f4a9a335,B,2024-06-21_23h10.36.246,Slot Machine Game,2023.1.3,Win32,39.68253968,,,,,,,,,,,,,,,,,,,,,,,,,,,140,,,,,,,,,,,,,,,,,,,,,6,4,,,1083.2132,6,up,0.1509,,1.5,0.3,"[2,3,1]",0.991507847,stimuli/card_0_transparent.png,0,6,0,6,0,1,,,,,,,,,,
,,,,665866b4b7e41fe5f4a9a335,B,2024-06-21_23h10.36.246,Slot Machine Game,2023.1.3,Win32,39.68253968,,,,,,,,,,,,,,,,,,,,,,,,,,,140,,,,,,,,,,,,,,,,,,,,,6,4,,,1085.6785,7,right,0.027,,1.5,0.3,"[1,2,3]",0.498610051,stimuli/card_0_transparent.png,0,7,0,7,0,1,,,,,,,,,,
,,,,665866b4b7e41fe5f4a9a335,B,2024-06-21_23h10.36.246,Slot Machine Game,2023.1.3,Win32,39.68253968,,,,,,,,,,,,,,,,,,,,,,,,,,,150,,,,,,,,,,,,,,,,,,,,,6,4,,,1088.0192,8,up,0.1923,,1,0.3,"[1,2,3]",0.885851739,stimuli/card_10_transparent.png,10,8,0,8,0,1,,,,,,,,,,
,,,,665866b4b7e41fe5f4a9a335,B,2024-06-21_23h10.36.246,Slot Machine Game,2023.1.3,Win32,39.68253968,,,,,,,,,,,,,,,,,,,,,,,,,,,150,,,,,,,,,,,,,,,,,,,,,6,4,,,1090.0297,9,right,0.1011,,0.5,0.3,"[1,2,3]",0.981465594,stimuli/card_0_transparent.png,0,9,0,9,0,1,,,,,,,,,,
,,,,665866b4b7e41fe5f4a9a335,B,2024-06-21_23h10.36.246,Slot Machine Game,2023.1.3,Win32,39.68253968,,,,,,,,,,,,,,,,,,,,,,,,,,,150,,,,,,,,,,,,,,,,,,,,,6,4,,,1091.4639,10,left,0.1014,,1,0.3,"[1,2,3]",0.089535917,stimuli/card_0_transparent.png,0,10,0,10,0,1,,,,,,,,,,
,,,,665866b4b7e41fe5f4a9a335,B,2024-06-21_23h10.36.246,Slot Machine Game,2023.1.3,Win32,39.68253968,,,,,,,,,,,,,,,,,,,,,,,,,,,160,,,,,,,,,,,,,,,,,,,,,6,4,,,1093.4002,11,up,0.081,,0.5,0.3,"[1,2,3]",0.712383594,stimuli/card_10_transparent.png,10,11,0,11,0,1,,,,,,,,,,
,,,,665866b4b7e41fe5f4a9a335,B,2024-06-21_23h10.36.246,Slot Machine Game,2023.1.3,Win32,39.68253968,,,,,,,,,,,,,,,,,,,,,,,,,,,160,,,,,,,,,,,,,,,,,,,,,6,4,,,1094.8095,12,right,0.0581,,0.5,0.3,"[1,2,3]",0.396169039,stimuli/card_0_transparent.png,0,12,0,12,0,1,,,,,,,,,,
,,,,665866b4b7e41fe5f4a9a335,B,2024-06-21_23h10.36.246,Slot Machine Game,2023.1.3,Win32,39.68253968,,,,,,,,,,,,,,,,,,,,,,,,,,,160,,,,,,,,,,,,,,,,,,,,,6,4,,,1096.1926,13,right,1.0922,,1,0.3,"[1,2,3]",0.924710646,stimuli/card_0_transparent.png,0,13,0,13,0,1,,,,,,,,,,
,,,,665866b4b7e41fe5f4a9a335,B,2024-06-21_23h10.36.246,Slot Machine Game,2023.1.3,Win32,39.68253968,,,,,,,,,,,,,,,,,,,,,,,,,,,170,,,,,,,,,,,,,,,,,,,,,6,4,,,1099.1102,14,up,0.1097,,1,0.3,"[1,2,3]",0.501439807,stimuli/card_10_transparent.png,10,14,0,14,0,1,,,,,,,,,,
,,,,665866b4b7e41fe5f4a9a335,B,2024-06-21_23h10.36.246,Slot Machine Game,2023.1.3,Win32,39.68253968,,,,,,,,,,,,,,,,,,,,,,,,,,,,,,,,,,,1101.0467,,,,,,,,,,,,,,,,,,,,,,,,,,,,,,,,,"[810,930,770,380,930,170]",5,0,5,0,1,,,,
,,,,665866b4b7e41fe5f4a9a335,B,2024-06-21_23h10.36.246,Slot Machine Game,2023.1.3,Win32,39.68253968,,,,,,,,,,,,,,,,,,,,,,,,,,,10,,,,,,,,,,,,,,,,,,,,,7,10,"[10,15]","[[3,1,2],[1,3,2]]",1106.0658,0,right,1.396,,1.5,0.3,"[3,1,2]",0.847886865,stimuli/card_10_transparent.png,10,0,0,0,0,1,,,,,,,,,,
,,,,665866b4b7e41fe5f4a9a335,B,2024-06-21_23h10.36.246,Slot Machine Game,2023.1.3,Win32,39.68253968,,,,,,,,,,,,,,,,,,,,,,,,,,,110,,,,,,,,,,,,,,,,,,,,,7,10,,,1109.7749,1,up,0.1138,,1.5,0.3,"[3,1,2]",0.924879027,stimuli/card_100_transparent.png,100,1,0,1,0,1,,,,,,,,,,
,,,,665866b4b7e41fe5f4a9a335,B,2024-06-21_23h10.36.246,Slot Machine Game,2023.1.3,Win32,39.68253968,,,,,,,,,,,,,,,,,,,,,,,,,,,,,,,,,,,,,,,,,,,,,,,,7,10,,,1112.1892,2,,,,0.5,0.3,,,,,2,0,2,0,1,,,,,,,,,,
,,,,665866b4b7e41fe5f4a9a335,B,2024-06-21_23h10.36.246,Slot Machine Game,2023.1.3,Win32,39.68253968,,,,,,,,,,,,,,,,,,,,,,,,,,,110,,,,,,,,,,,,,,,,,,,,,7,10,,,1119.2966,3,left,0.3809,,1,0.3,"[3,1,2]",0.479945902,stimuli/card_0_transparent.png,0,3,0,3,0,1,,,,,,,,,,
,,,,665866b4b7e41fe5f4a9a335,B,2024-06-21_23h10.36.246,Slot Machine Game,2023.1.3,Win32,39.68253968,,,,,,,,,,,,,,,,,,,,,,,,,,,110,,,,,,,,,,,,,,,,,,,,,7,10,,,1121.496,4,up,0.0507,,1.5,0.3,"[3,1,2]",0.052503918,stimuli/card_0_transparent.png,0,4,0,4,0,1,,,,,,,,,,
,,,,665866b4b7e41fe5f4a9a335,B,2024-06-21_23h10.36.246,Slot Machine Game,2023.1.3,Win32,39.68253968,,,,,,,,,,,,,,,,,,,,,,,,,,,210,,,,,,,,,,,,,,,,,,,,,7,10,,,1123.8613,5,right,0.0306,,1,0.3,"[3,1,2]",0.119975036,stimuli/card_100_transparent.png,100,5,0,5,0,1,,,,,,,,,,
,,,,665866b4b7e41fe5f4a9a335,B,2024-06-21_23h10.36.246,Slot Machine Game,2023.1.3,Win32,39.68253968,,,,,,,,,,,,,,,,,,,,,,,,,,,220,,,,,,,,,,,,,,,,,,,,,7,10,,,1125.7219,6,right,0.1519,,1,0.3,"[3,1,2]",0.953218056,stimuli/card_10_transparent.png,10,6,0,6,0,1,,,,,,,,,,
,,,,665866b4b7e41fe5f4a9a335,B,2024-06-21_23h10.36.246,Slot Machine Game,2023.1.3,Win32,39.68253968,,,,,,,,,,,,,,,,,,,,,,,,,,,230,,,,,,,,,,,,,,,,,,,,,7,10,,,1127.7086,7,right,3.8879,,1.5,0.3,"[3,1,2]",0.261908806,stimuli/card_10_transparent.png,10,7,0,7,0,1,,,,,,,,,,
,,,,665866b4b7e41fe5f4a9a335,B,2024-06-21_23h10.36.246,Slot Machine Game,2023.1.3,Win32,39.68253968,,,,,,,,,,,,,,,,,,,,,,,,,,,230,,,,,,,,,,,,,,,,,,,,,7,10,,,1133.8966,8,left,0.1051,,1.5,0.3,"[3,1,2]",0.74517402,stimuli/card_0_transparent.png,0,8,0,8,0,1,,,,,,,,,,
,,,,665866b4b7e41fe5f4a9a335,B,2024-06-21_23h10.36.246,Slot Machine Game,2023.1.3,Win32,39.68253968,,,,,,,,,,,,,,,,,,,,,,,,,,,230,,,,,,,,,,,,,,,,,,,,,7,10,,,1136.3107,9,right,1.3368,,1,0.3,"[3,1,2]",0.030594012,stimuli/card_0_transparent.png,0,9,0,9,0,1,,,,,,,,,,
,,,,665866b4b7e41fe5f4a9a335,B,2024-06-21_23h10.36.246,Slot Machine Game,2023.1.3,Win32,39.68253968,,,,,,,,,,,,,,,,,,,,,,,,,,,240,,,,,,,,,,,,,,,,,,,,,7,10,,,1139.4799,10,right,0.076,,1,0.3,"[1,3,2]",0.915347637,stimuli/card_10_transparent.png,10,10,0,10,0,1,,,,,,,,,,
,,,,665866b4b7e41fe5f4a9a335,B,2024-06-21_23h10.36.246,Slot Machine Game,2023.1.3,Win32,39.68253968,,,,,,,,,,,,,,,,,,,,,,,,,,,,,,,,,,,,,,,,,,,,,,,,7,10,,,1141.3918,11,,,,1,0.3,,,,,11,0,11,0,1,,,,,,,,,,
,,,,665866b4b7e41fe5f4a9a335,B,2024-06-21_23h10.36.246,Slot Machine Game,2023.1.3,Win32,39.68253968,,,,,,,,,,,,,,,,,,,,,,,,,,,250,,,,,,,,,,,,,,,,,,,,,7,10,,,1147.9547,12,right,1.1172,,1.5,0.3,"[1,3,2]",0.414219152,stimuli/card_10_transparent.png,10,12,0,12,0,1,,,,,,,,,,
,,,,665866b4b7e41fe5f4a9a335,B,2024-06-21_23h10.36.246,Slot Machine Game,2023.1.3,Win32,39.68253968,,,,,,,,,,,,,,,,,,,,,,,,,,,350,,,,,,,,,,,,,,,,,,,,,7,10,,,1151.3775,13,left,1.6803,,1,0.3,"[1,3,2]",0.282466228,stimuli/card_100_transparent.png,100,13,0,13,0,1,,,,,,,,,,
,,,,665866b4b7e41fe5f4a9a335,B,2024-06-21_23h10.36.246,Slot Machine Game,2023.1.3,Win32,39.68253968,,,,,,,,,,,,,,,,,,,,,,,,,,,360,,,,,,,,,,,,,,,,,,,,,7,10,,,1154.8738,14,right,0.5579,,0.5,0.3,"[1,3,2]",0.254211461,stimuli/card_10_transparent.png,10,14,0,14,0,1,,,,,,,,,,
,,,,665866b4b7e41fe5f4a9a335,B,2024-06-21_23h10.36.246,Slot Machine Game,2023.1.3,Win32,39.68253968,,,,,,,,,,,,,,,,,,,,,,,,,,,,,,,,,,,1156.7601,,,,,,,,,,,,,,,,,,,,,,,,,,,,,,,,,"[810,930,770,380,930,170,360]",6,0,6,0,1,,,,
,,,,665866b4b7e41fe5f4a9a335,B,2024-06-21_23h10.36.246,Slot Machine Game,2023.1.3,Win32,39.68253968,,,,,,,,,,,,,,,,,,,,,,,,,,,10,,,,,,,,,,,,,,,,,,,,,8,7,"[9,15]","[[1,3,2],[2,3,1]]",1161.7787,0,right,0.7191,,1,0.3,"[1,3,2]",0.708162747,stimuli/card_10_transparent.png,10,0,0,0,0,1,,,,,,,,,,
,,,,665866b4b7e41fe5f4a9a335,B,2024-06-21_23h10.36.246,Slot Machine Game,2023.1.3,Win32,39.68253968,,,,,,,,,,,,,,,,,,,,,,,,,,,110,,,,,,,,,,,,,,,,,,,,,8,7,,,1164.3312,1,left,1.6222,,1.5,0.3,"[1,3,2]",0.55341048,stimuli/card_100_transparent.png,100,1,0,1,0,1,,,,,,,,,,
,,,,665866b4b7e41fe5f4a9a335,B,2024-06-21_23h10.36.246,Slot Machine Game,2023.1.3,Win32,39.68253968,,,,,,,,,,,,,,,,,,,,,,,,,,,120,,,,,,,,,,,,,,,,,,,,,8,7,,,1168.2552,2,right,0.8714,,1.5,0.3,"[1,3,2]",0.733585073,stimuli/card_10_transparent.png,10,2,0,2,0,1,,,,,,,,,,
,,,,665866b4b7e41fe5f4a9a335,B,2024-06-21_23h10.36.246,Slot Machine Game,2023.1.3,Win32,39.68253968,,,,,,,,,,,,,,,,,,,,,,,,,,,130,,,,,,,,,,,,,,,,,,,,,8,7,,,1171.4241,3,right,2.5325,,0.5,0.3,"[1,3,2]",0.475453487,stimuli/card_10_transparent.png,10,3,0,3,0,1,,,,,,,,,,
,,,,665866b4b7e41fe5f4a9a335,B,2024-06-21_23h10.36.246,Slot Machine Game,2023.1.3,Win32,39.68253968,,,,,,,,,,,,,,,,,,,,,,,,,,,230,,,,,,,,,,,,,,,,,,,,,8,7,,,1175.2724,4,left,2.0701,,1.5,0.3,"[1,3,2]",0.65362945,stimuli/card_100_transparent.png,100,4,0,4,0,1,,,,,,,,,,
,,,,665866b4b7e41fe5f4a9a335,B,2024-06-21_23h10.36.246,Slot Machine Game,2023.1.3,Win32,39.68253968,,,,,,,,,,,,,,,,,,,,,,,,,,,240,,,,,,,,,,,,,,,,,,,,,8,7,,,1179.6491,5,right,2.1437,,1.5,0.3,"[1,3,2]",0.747610671,stimuli/card_10_transparent.png,10,5,0,5,0,1,,,,,,,,,,
,,,,665866b4b7e41fe5f4a9a335,B,2024-06-21_23h10.36.246,Slot Machine Game,2023.1.3,Win32,39.68253968,,,,,,,,,,,,,,,,,,,,,,,,,,,240,,,,,,,,,,,,,,,,,,,,,8,7,,,1184.1011,6,right,0.637,,0.5,0.3,"[1,3,2]",0.012292616,stimuli/card_0_transparent.png,0,6,0,6,0,1,,,,,,,,,,
,,,,665866b4b7e41fe5f4a9a335,B,2024-06-21_23h10.36.246,Slot Machine Game,2023.1.3,Win32,39.68253968,,,,,,,,,,,,,,,,,,,,,,,,,,,250,,,,,,,,,,,,,,,,,,,,,8,7,,,1186.063,7,right,0.5603,,1.5,0.3,"[1,3,2]",0.359068217,stimuli/card_10_transparent.png,10,7,0,7,0,1,,,,,,,,,,
,,,,665866b4b7e41fe5f4a9a335,B,2024-06-21_23h10.36.246,Slot Machine Game,2023.1.3,Win32,39.68253968,,,,,,,,,,,,,,,,,,,,,,,,,,,260,,,,,,,,,,,,,,,,,,,,,8,7,,,1188.9304,8,right,3.8923,,1,0.3,"[1,3,2]",0.754108166,stimuli/card_10_transparent.png,10,8,0,8,0,1,,,,,,,,,,
,,,,665866b4b7e41fe5f4a9a335,B,2024-06-21_23h10.36.246,Slot Machine Game,2023.1.3,Win32,39.68253968,,,,,,,,,,,,,,,,,,,,,,,,,,,270,,,,,,,,,,,,,,,,,,,,,8,7,,,1194.64,9,right,2.239,,1,0.3,"[2,3,1]",0.158179351,stimuli/card_10_transparent.png,10,9,0,9,0,1,,,,,,,,,,
,,,,665866b4b7e41fe5f4a9a335,B,2024-06-21_23h10.36.246,Slot Machine Game,2023.1.3,Win32,39.68253968,,,,,,,,,,,,,,,,,,,,,,,,,,,370,,,,,,,,,,,,,,,,,,,,,8,7,,,1198.7148,10,left,3.2301,,1,0.3,"[2,3,1]",0.155835683,stimuli/card_100_transparent.png,100,10,0,10,0,1,,,,,,,,,,
,,,,665866b4b7e41fe5f4a9a335,B,2024-06-21_23h10.36.246,Slot Machine Game,2023.1.3,Win32,39.68253968,,,,,,,,,,,,,,,,,,,,,,,,,,,380,,,,,,,,,,,,,,,,,,,,,8,7,,,1203.7706,11,left,0.2711,,1,0.3,"[2,3,1]",0.213668757,stimuli/card_10_transparent.png,10,11,0,11,0,1,,,,,,,,,,
,,,,665866b4b7e41fe5f4a9a335,B,2024-06-21_23h10.36.246,Slot Machine Game,2023.1.3,Win32,39.68253968,,,,,,,,,,,,,,,,,,,,,,,,,,,390,,,,,,,,,,,,,,,,,,,,,8,7,,,1205.8582,12,left,0.0091,,0.5,0.3,"[2,3,1]",0.258879458,stimuli/card_10_transparent.png,10,12,0,12,0,1,,,,,,,,,,
,,,,665866b4b7e41fe5f4a9a335,B,2024-06-21_23h10.36.246,Slot Machine Game,2023.1.3,Win32,39.68253968,,,,,,,,,,,,,,,,,,,,,,,,,,,400,,,,,,,,,,,,,,,,,,,,,8,7,,,1207.1913,13,left,0.144,,0.5,0.3,"[2,3,1]",0.554298023,stimuli/card_10_transparent.png,10,13,0,13,0,1,,,,,,,,,,
,,,,665866b4b7e41fe5f4a9a335,B,2024-06-21_23h10.36.246,Slot Machine Game,2023.1.3,Win32,39.68253968,,,,,,,,,,,,,,,,,,,,,,,,,,,500,,,,,,,,,,,,,,,,,,,,,8,7,,,1208.6502,14,right,0.2522,,1.5,0.3,"[2,3,1]",0.585045916,stimuli/card_100_transparent.png,100,14,0,14,0,1,,,,,,,,,,
,,,,665866b4b7e41fe5f4a9a335,B,2024-06-21_23h10.36.246,Slot Machine Game,2023.1.3,Win32,39.68253968,,,,,,,,,,,,,,,,,,,,,,,,,,,,,,,,,,,1211.2157,,,,,,,,,,,,,,,,,,,,,,,,,,,,,,,,,"[810,930,770,380,930,170,360,500]",7,0,7,0,1,,,,
,,,,665866b4b7e41fe5f4a9a335,B,2024-06-21_23h10.36.246,Slot Machine Game,2023.1.3,Win32,39.68253968,,,,,,,,,,,,,,,,,,,,,,,,,,,0,,,,,,,,,,,,,,,,,,,,,9,9,[15],"[[3,1,2]]",1216.2334,0,left,0.1607,,0.5,0.3,"[3,1,2]",0.874850426,stimuli/card_0_transparent.png,0,0,0,0,0,1,,,,,,,,,,
,,,,665866b4b7e41fe5f4a9a335,B,2024-06-21_23h10.36.246,Slot Machine Game,2023.1.3,Win32,39.68253968,,,,,,,,,,,,,,,,,,,,,,,,,,,100,,,,,,,,,,,,,,,,,,,,,9,9,,,1217.7303,1,left,0.2274,,0.5,0.3,"[3,1,2]",0.086680002,stimuli/card_100_transparent.png,100,1,0,1,0,1,,,,,,,,,,
,,,,665866b4b7e41fe5f4a9a335,B,2024-06-21_23h10.36.246,Slot Machine Game,2023.1.3,Win32,39.68253968,,,,,,,,,,,,,,,,,,,,,,,,,,,200,,,,,,,,,,,,,,,,,,,,,9,9,,,1219.2901,2,right,0.5541,,1.5,0.3,"[3,1,2]",0.137111659,stimuli/card_100_transparent.png,100,2,0,2,0,1,,,,,,,,,,
,,,,665866b4b7e41fe5f4a9a335,B,2024-06-21_23h10.36.246,Slot Machine Game,2023.1.3,Win32,39.68253968,,,,,,,,,,,,,,,,,,,,,,,,,,,300,,,,,,,,,,,,,,,,,,,,,9,9,,,1222.1574,3,right,2.6563,,0.5,0.3,"[3,1,2]",0.103571199,stimuli/card_100_transparent.png,100,3,0,3,0,1,,,,,,,,,,
,,,,665866b4b7e41fe5f4a9a335,B,2024-06-21_23h10.36.246,Slot Machine Game,2023.1.3,Win32,39.68253968,,,,,,,,,,,,,,,,,,,,,,,,,,,300,,,,,,,,,,,,,,,,,,,,,9,9,,,1226.1313,4,left,2.884,,1.5,0.3,"[3,1,2]",0.530701071,stimuli/card_0_transparent.png,0,4,0,4,0,1,,,,,,,,,,
,,,,665866b4b7e41fe5f4a9a335,B,2024-06-21_23h10.36.246,Slot Machine Game,2023.1.3,Win32,39.68253968,,,,,,,,,,,,,,,,,,,,,,,,,,,310,,,,,,,,,,,,,,,,,,,,,9,9,,,1231.3128,5,right,0.6971,,1.5,0.3,"[3,1,2]",0.784125327,stimuli/card_10_transparent.png,10,5,0,5,0,1,,,,,,,,,,
,,,,665866b4b7e41fe5f4a9a335,B,2024-06-21_23h10.36.246,Slot Machine Game,2023.1.3,Win32,39.68253968,,,,,,,,,,,,,,,,,,,,,,,,,,,320,,,,,,,,,,,,,,,,,,,,,9,9,,,1234.3059,6,right,2.544,,0.5,0.3,"[3,1,2]",0.876769189,stimuli/card_10_transparent.png,10,6,0,6,0,1,,,,,,,,,,
,,,,665866b4b7e41fe5f4a9a335,B,2024-06-21_23h10.36.246,Slot Machine Game,2023.1.3,Win32,39.68253968,,,,,,,,,,,,,,,,,,,,,,,,,,,320,,,,,,,,,,,,,,,,,,,,,9,9,,,1238.1793,7,left,2.6336,,1.5,0.3,"[3,1,2]",0.334344554,stimuli/card_0_transparent.png,0,7,0,7,0,1,,,,,,,,,,
,,,,665866b4b7e41fe5f4a9a335,B,2024-06-21_23h10.36.246,Slot Machine Game,2023.1.3,Win32,39.68253968,,,,,,,,,,,,,,,,,,,,,,,,,,,330,,,,,,,,,,,,,,,,,,,,,9,9,,,1243.1093,8,right,0.6297,,1.5,0.3,"[3,1,2]",0.268856403,stimuli/card_10_transparent.png,10,8,0,8,0,1,,,,,,,,,,
,,,,665866b4b7e41fe5f4a9a335,B,2024-06-21_23h10.36.246,Slot Machine Game,2023.1.3,Win32,39.68253968,,,,,,,,,,,,,,,,,,,,,,,,,,,340,,,,,,,,,,,,,,,,,,,,,9,9,,,1246.0524,9,right,2.2258,,0.5,0.3,"[3,1,2]",0.708834375,stimuli/card_10_transparent.png,10,9,0,9,0,1,,,,,,,,,,
,,,,665866b4b7e41fe5f4a9a335,B,2024-06-21_23h10.36.246,Slot Machine Game,2023.1.3,Win32,39.68253968,,,,,,,,,,,,,,,,,,,,,,,,,,,350,,,,,,,,,,,,,,,,,,,,,9,9,,,1249.5989,10,right,3.4515,,0.5,0.3,"[3,1,2]",0.755964215,stimuli/card_10_transparent.png,10,10,0,10,0,1,,,,,,,,,,
,,,,665866b4b7e41fe5f4a9a335,B,2024-06-21_23h10.36.246,Slot Machine Game,2023.1.3,Win32,39.68253968,,,,,,,,,,,,,,,,,,,,,,,,,,,360,,,,,,,,,,,,,,,,,,,,,9,9,,,1254.3779,11,right,0.937,,1.5,0.3,"[3,1,2]",0.416381838,stimuli/card_10_transparent.png,10,11,0,11,0,1,,,,,,,,,,
,,,,665866b4b7e41fe5f4a9a335,B,2024-06-21_23h10.36.246,Slot Machine Game,2023.1.3,Win32,39.68253968,,,,,,,,,,,,,,,,,,,,,,,,,,,370,,,,,,,,,,,,,,,,,,,,,9,9,,,1257.6227,12,right,2.3667,,1.5,0.3,"[3,1,2]",0.446622961,stimuli/card_10_transparent.png,10,12,0,12,0,1,,,,,,,,,,
,,,,665866b4b7e41fe5f4a9a335,B,2024-06-21_23h10.36.246,Slot Machine Game,2023.1.3,Win32,39.68253968,,,,,,,,,,,,,,,,,,,,,,,,,,,380,,,,,,,,,,,,,,,,,,,,,9,9,,,1262.3009,13,right,0.9718,,1,0.3,"[3,1,2]",0.57527023,stimuli/card_10_transparent.png,10,13,0,13,0,1,,,,,,,,,,
,,,,665866b4b7e41fe5f4a9a335,B,2024-06-21_23h10.36.246,Slot Machine Game,2023.1.3,Win32,39.68253968,,,,,,,,,,,,,,,,,,,,,,,,,,,390,,,,,,,,,,,,,,,,,,,,,9,9,,,1265.0932,14,right,0.4846,,1.5,0.3,"[3,1,2]",0.988110146,stimuli/card_10_transparent.png,10,14,0,14,0,1,,,,,,,,,,
,,,,665866b4b7e41fe5f4a9a335,B,2024-06-21_23h10.36.246,Slot Machine Game,2023.1.3,Win32,39.68253968,,,,,,,,,,,,,,,,,,,,,,,,,,,,,,,,,,,1267.8856,,,,,,,,,,,,,,,,,,,,,,,,,,,,,,,,,"[810,930,770,380,930,170,360,500,390]",8,0,8,0,1,,,,
,,,,665866b4b7e41fe5f4a9a335,B,2024-06-21_23h10.36.246,Slot Machine Game,2023.1.3,Win32,39.68253968,,,,,,,,,,,,,,,,,,,,,,,,,,,100,,,,,,,,,,,,,,,,,,,,,10,6,"[4,10,15]","[[2,3,1],[1,3,2],[3,2,1]]",1272.9047,0,right,4.0313,,1.5,0.3,"[2,3,1]",0.75150368,stimuli/card_100_transparent.png,100,0,0,0,0,1,,,,,,,,,,
,,,,665866b4b7e41fe5f4a9a335,B,2024-06-21_23h10.36.246,Slot Machine Game,2023.1.3,Win32,39.68253968,,,,,,,,,,,,,,,,,,,,,,,,,,,200,,,,,,,,,,,,,,,,,,,,,10,6,,,1279.2539,1,left,0.5168,,0.5,0.3,"[2,3,1]",0.104968543,stimuli/card_100_transparent.png,100,1,0,1,0,1,,,,,,,,,,
,,,,665866b4b7e41fe5f4a9a335,B,2024-06-21_23h10.36.246,Slot Machine Game,2023.1.3,Win32,39.68253968,,,,,,,,,,,,,,,,,,,,,,,,,,,210,,,,,,,,,,,,,,,,,,,,,10,6,,,1281.09,2,left,0.8806,,0.5,0.3,"[2,3,1]",0.865870092,stimuli/card_10_transparent.png,10,2,0,2,0,1,,,,,,,,,,
,,,,665866b4b7e41fe5f4a9a335,B,2024-06-21_23h10.36.246,Slot Machine Game,2023.1.3,Win32,39.68253968,,,,,,,,,,,,,,,,,,,,,,,,,,,220,,,,,,,,,,,,,,,,,,,,,10,6,,,1283.3035,3,right,0.5694,,0.5,0.3,"[2,3,1]",0.152694578,stimuli/card_10_transparent.png,10,3,0,3,0,1,,,,,,,,,,
,,,,665866b4b7e41fe5f4a9a335,B,2024-06-21_23h10.36.246,Slot Machine Game,2023.1.3,Win32,39.68253968,,,,,,,,,,,,,,,,,,,,,,,,,,,320,,,,,,,,,,,,,,,,,,,,,10,6,,,1285.1901,4,right,3.0839,,1.5,0.3,"[1,3,2]",0.104942865,stimuli/card_100_transparent.png,100,4,0,4,0,1,,,,,,,,,,
,,,,665866b4b7e41fe5f4a9a335,B,2024-06-21_23h10.36.246,Slot Machine Game,2023.1.3,Win32,39.68253968,,,,,,,,,,,,,,,,,,,,,,,,,,,330,,,,,,,,,,,,,,,,,,,,,10,6,,,1290.5728,5,right,0.078,,0.5,0.3,"[1,3,2]",0.405856056,stimuli/card_10_transparent.png,10,5,0,5,0,1,,,,,,,,,,
,,,,665866b4b7e41fe5f4a9a335,B,2024-06-21_23h10.36.246,Slot Machine Game,2023.1.3,Win32,39.68253968,,,,,,,,,,,,,,,,,,,,,,,,,,,430,,,,,,,,,,,,,,,,,,,,,10,6,,,1291.9814,6,left,1.4233,,1,0.3,"[1,3,2]",0.42725607,stimuli/card_100_transparent.png,100,6,0,6,0,1,,,,,,,,,,
,,,,665866b4b7e41fe5f4a9a335,B,2024-06-21_23h10.36.246,Slot Machine Game,2023.1.3,Win32,39.68253968,,,,,,,,,,,,,,,,,,,,,,,,,,,440,,,,,,,,,,,,,,,,,,,,,10,6,,,1295.2261,7,right,0.2849,,0.5,0.3,"[1,3,2]",0.443390386,stimuli/card_10_transparent.png,10,7,0,7,0,1,,,,,,,,,,
,,,,665866b4b7e41fe5f4a9a335,B,2024-06-21_23h10.36.246,Slot Machine Game,2023.1.3,Win32,39.68253968,,,,,,,,,,,,,,,,,,,,,,,,,,,540,,,,,,,,,,,,,,,,,,,,,10,6,,,1296.8358,8,left,0.3522,,0.5,0.3,"[1,3,2]",0.841984738,stimuli/card_100_transparent.png,100,8,0,8,0,1,,,,,,,,,,
,,,,665866b4b7e41fe5f4a9a335,B,2024-06-21_23h10.36.246,Slot Machine Game,2023.1.3,Win32,39.68253968,,,,,,,,,,,,,,,,,,,,,,,,,,,640,,,,,,,,,,,,,,,,,,,,,10,6,,,1298.5208,9,left,0.0635,,0.5,0.3,"[1,3,2]",0.945386341,stimuli/card_100_transparent.png,100,9,0,9,0,1,,,,,,,,,,
,,,,665866b4b7e41fe5f4a9a335,B,2024-06-21_23h10.36.246,Slot Machine Game,2023.1.3,Win32,39.68253968,,,,,,,,,,,,,,,,,,,,,,,,,,,640,,,,,,,,,,,,,,,,,,,,,10,6,,,1299.9043,10,left,0.0176,,0.5,0.3,"[3,2,1]",0.3561463,stimuli/card_0_transparent.png,0,10,0,10,0,1,,,,,,,,,,
,,,,665866b4b7e41fe5f4a9a335,B,2024-06-21_23h10.36.246,Slot Machine Game,2023.1.3,Win32,39.68253968,,,,,,,,,,,,,,,,,,,,,,,,,,,640,,,,,,,,,,,,,,,,,,,,,10,6,,,1301.2374,11,left,0.2419,,1,0.3,"[3,2,1]",0.458113939,stimuli/card_0_transparent.png,0,11,0,11,0,1,,,,,,,,,,
,,,,665866b4b7e41fe5f4a9a335,B,2024-06-21_23h10.36.246,Slot Machine Game,2023.1.3,Win32,39.68253968,,,,,,,,,,,,,,,,,,,,,,,,,,,740,,,,,,,,,,,,,,,,,,,,,10,6,,,1303.2999,12,left,0.0768,,0.5,0.3,"[3,2,1]",0.00610702,stimuli/card_100_transparent.png,100,12,0,12,0,1,,,,,,,,,,
,,,,665866b4b7e41fe5f4a9a335,B,2024-06-21_23h10.36.246,Slot Machine Game,2023.1.3,Win32,39.68253968,,,,,,,,,,,,,,,,,,,,,,,,,,,740,,,,,,,,,,,,,,,,,,,,,10,6,,,1304.7098,13,left,1.8219,,0.5,0.3,"[3,2,1]",0.698620645,stimuli/card_0_transparent.png,0,13,0,13,0,1,,,,,,,,,,
,,,,665866b4b7e41fe5f4a9a335,B,2024-06-21_23h10.36.246,Slot Machine Game,2023.1.3,Win32,39.68253968,,,,,,,,,,,,,,,,,,,,,,,,,,,740,,,,,,,,,,,,,,,,,,,,,10,6,,,1307.8526,14,left,0.1765,,0.5,0.3,"[3,2,1]",0.307092393,stimuli/card_0_transparent.png,0,14,0,14,0,1,,,,,,,,,,
,,,,665866b4b7e41fe5f4a9a335,B,2024-06-21_23h10.36.246,Slot Machine Game,2023.1.3,Win32,39.68253968,,,,,,,,,,,,,,,,,,,,,,,,,,,,,,,,,,,1309.3619,,,,,,,,,,,,,,,,,,,,,,,,,,,,,,,,,"[810,930,770,380,930,170,360,500,390,740]",9,0,9,0,1,,,,
,,,,665866b4b7e41fe5f4a9a335,B,2024-06-21_23h10.36.246,Slot Machine Game,2023.1.3,Win32,39.68253968,,,,,,,,,,,,,,,,,,,,,,,,,,,,,,,,,,,,,,,,,,,,,,,,,,,,,,,,,,,,,,,,,,,,,,,,,,9,"[810,930,770,380,930,170,360,500,390,740]",9.3,2024-06-21_23h32.34.809
