key_resp_welcome_started,key_resp_welcome_keys,key_resp_welcome_rt,key_resp_welcome_duration,prolific_id,path_id,date,expName,psychopyVersion,OS,frameRate,key_resp_instruction1_started,key_resp_instruction1_keys,key_resp_instruction1_rt,key_resp_instruction1_duration,key_resp_instruction2_started,key_resp_instruction2_keys,key_resp_instruction2_rt,key_resp_instruction2_duration,key_resp_instruction3_started,key_resp_instruction3_keys,key_resp_instruction3_rt,key_resp_instruction3_duration,key_resp_instruction4_started,key_resp_instruction4_keys,key_resp_instruction4_rt,key_resp_instruction4_duration,practiceCondition,practice_reward_seqs,practice_trial_started,practice_trial_num,practice_resp_rt,practice_resp_duration,practice_resp_keys,prac_presentationInterval,"practice_reward_seq: 2,1,3",reward_img,cumulative_reward,trial_reward,practice_trials.thisRepN,practice_trials.thisTrialN,practice_trials.thisN,practice_trials.thisIndex,practice_trials.ran,"practice_reward_seq: 2,3,1",block_break_started,"practice_reward_seq: 1,3,2","practice_reward_seq: 3,1,2",practice_end_time,practice_end_keys,practice_end_rt,practice_end_duration,main_instruction_text_started,block_condition,block_order_indices,main_instruction_keys,main_instruction_rt,main_instruction_duration,block_number,block_assignment,current_condition,main_reward_seqs,main_trial_started,main_trial_num,main_trial_keys,main_trial_rt,main_trial_duration,main_presentationInterval,reward_presentation_time,main_reward_seq,reward_rand_val,main_reward_img,current_reward,main_trials.thisRepN,main_trials.thisTrialN,main_trials.thisN,main_trials.thisIndex,main_trials.ran,block_reward,block.thisRepN,block.thisTrialN,block.thisN,block.thisIndex,block.ran,block_reward.length,block_reward_all,reward_amount,date_end_task
0.0003,j,38.729,,665f68b8add44deb50c32311,B,2024-06-21_18h23.13.355,Slot Machine Game,2023.1.3,MacIntel,59.88023952,,,,,,,,,,,,,,,,,,,,,,,,,,,,,,,,,,,,,,,,,,,,,,,,,,,,,,,,,,,,,,,,,,,,,,,,,,,,,
,,,,665f68b8add44deb50c32311,B,2024-06-21_18h23.13.355,Slot Machine Game,2023.1.3,MacIntel,59.88023952,38.7383,space,20.9548,,,,,,,,,,,,,,,,,,,,,,,,,,,,,,,,,,,,,,,,,,,,,,,,,,,,,,,,,,,,,,,,,,,,,,,,,,
,,,,665f68b8add44deb50c32311,B,2024-06-21_18h23.13.355,Slot Machine Game,2023.1.3,MacIntel,59.88023952,,,,,59.722,j,21.2726,,,,,,,,,,,,,,,,,,,,,,,,,,,,,,,,,,,,,,,,,,,,,,,,,,,,,,,,,,,,,,,,,,,,,,
,,,,665f68b8add44deb50c32311,B,2024-06-21_18h23.13.355,Slot Machine Game,2023.1.3,MacIntel,59.88023952,,,,,,,,,81.022,j,8.3433,,,,,,,,,,,,,,,,,,,,,,,,,,,,,,,,,,,,,,,,,,,,,,,,,,,,,,,,,,,,,,,,,,
,,,,665f68b8add44deb50c32311,B,2024-06-21_18h23.13.355,Slot Machine Game,2023.1.3,MacIntel,59.88023952,,,,,,,,,,,,,,,,,,,,,,,,,,,,,,,,,,,,,,,,,,,,,,,,,,,,,,,,,,,,,,,,,,,,,,,,,,,,,
,,,,665f68b8add44deb50c32311,B,2024-06-21_18h23.13.355,Slot Machine Game,2023.1.3,MacIntel,59.88023952,,,,,,,,,,,,,231.2211,j,2.5688,,,,,,,,,,,,,,,,,,,,,,,,,,,,,,,,,,,,,,,,,,,,,,,,,,,,,,,,,,,,,,
,,,,665f68b8add44deb50c32311,B,2024-06-21_18h23.13.355,Slot Machine Game,2023.1.3,MacIntel,59.88023952,,,,,,,,,,,,,,,,,"[9,15]","[[2,1,3],[2,3,1]]",233.8169,0,2.283,,right,1,,stimuli/card_0_transparent.png,0,0,0,0,0,0,1,,,,,,,,,,,,,,,,,,,,,,,,,,,,,,,,,,,,,,,,,,,,
,,,,665f68b8add44deb50c32311,B,2024-06-21_18h23.13.355,Slot Machine Game,2023.1.3,MacIntel,59.88023952,,,,,,,,,,,,,,,,,,,237.9296,1,0.317,,up,1,,stimuli/card_100_transparent.png,100,100,1,0,1,0,1,,,,,,,,,,,,,,,,,,,,,,,,,,,,,,,,,,,,,,,,,,,,
,,,,665f68b8add44deb50c32311,B,2024-06-21_18h23.13.355,Slot Machine Game,2023.1.3,MacIntel,59.88023952,,,,,,,,,,,,,,,,,,,240.0788,2,0.3113,,up,1,,stimuli/card_100_transparent.png,200,100,2,0,2,0,1,,,,,,,,,,,,,,,,,,,,,,,,,,,,,,,,,,,,,,,,,,,,
,,,,665f68b8add44deb50c32311,B,2024-06-21_18h23.13.355,Slot Machine Game,2023.1.3,MacIntel,59.88023952,,,,,,,,,,,,,,,,,,,242.1959,3,0.3175,,up,1.5,,stimuli/card_100_transparent.png,300,100,3,0,3,0,1,,,,,,,,,,,,,,,,,,,,,,,,,,,,,,,,,,,,,,,,,,,,
,,,,665f68b8add44deb50c32311,B,2024-06-21_18h23.13.355,Slot Machine Game,2023.1.3,MacIntel,59.88023952,,,,,,,,,,,,,,,,,,,244.8463,4,0.5019,,up,0.5,,stimuli/card_100_transparent.png,400,100,4,0,4,0,1,,,,,,,,,,,,,,,,,,,,,,,,,,,,,,,,,,,,,,,,,,,,
,,,,665f68b8add44deb50c32311,B,2024-06-21_18h23.13.355,Slot Machine Game,2023.1.3,MacIntel,59.88023952,,,,,,,,,,,,,,,,,,,246.6797,5,0.2824,,up,0.5,,stimuli/card_100_transparent.png,500,100,5,0,5,0,1,,,,,,,,,,,,,,,,,,,,,,,,,,,,,,,,,,,,,,,,,,,,
,,,,665f68b8add44deb50c32311,B,2024-06-21_18h23.13.355,Slot Machine Game,2023.1.3,MacIntel,59.88023952,,,,,,,,,,,,,,,,,,,248.2963,6,0.3165,,up,0.5,,stimuli/card_100_transparent.png,600,100,6,0,6,0,1,,,,,,,,,,,,,,,,,,,,,,,,,,,,,,,,,,,,,,,,,,,,
,,,,665f68b8add44deb50c32311,B,2024-06-21_18h23.13.355,Slot Machine Game,2023.1.3,MacIntel,59.88023952,,,,,,,,,,,,,,,,,,,249.9463,7,0.3328,,up,0.5,,stimuli/card_100_transparent.png,700,100,7,0,7,0,1,,,,,,,,,,,,,,,,,,,,,,,,,,,,,,,,,,,,,,,,,,,,
,,,,665f68b8add44deb50c32311,B,2024-06-21_18h23.13.355,Slot Machine Game,2023.1.3,MacIntel,59.88023952,,,,,,,,,,,,,,,,,,,251.612,8,0.2168,,up,0.5,,stimuli/card_100_transparent.png,800,100,8,0,8,0,1,,,,,,,,,,,,,,,,,,,,,,,,,,,,,,,,,,,,,,,,,,,,
,,,,665f68b8add44deb50c32311,B,2024-06-21_18h23.13.355,Slot Machine Game,2023.1.3,MacIntel,59.88023952,,,,,,,,,,,,,,,,,,,253.1463,9,0.1506,,up,1,,stimuli/card_0_transparent.png,800,0,9,0,9,0,1,,,,,,,,,,,,,,,,,,,,,,,,,,,,,,,,,,,,,,,,,,,,
,,,,665f68b8add44deb50c32311,B,2024-06-21_18h23.13.355,Slot Machine Game,2023.1.3,MacIntel,59.88023952,,,,,,,,,,,,,,,,,,,255.13,10,0.1683,,left,0.5,,stimuli/card_10_transparent.png,810,10,10,0,10,0,1,,,,,,,,,,,,,,,,,,,,,,,,,,,,,,,,,,,,,,,,,,,,
,,,,665f68b8add44deb50c32311,B,2024-06-21_18h23.13.355,Slot Machine Game,2023.1.3,MacIntel,59.88023952,,,,,,,,,,,,,,,,,,,256.6301,11,0.3828,,right,1.5,,stimuli/card_100_transparent.png,910,100,11,0,11,0,1,,,,,,,,,,,,,,,,,,,,,,,,,,,,,,,,,,,,,,,,,,,,
,,,,665f68b8add44deb50c32311,B,2024-06-21_18h23.13.355,Slot Machine Game,2023.1.3,MacIntel,59.88023952,,,,,,,,,,,,,,,,,,,259.3467,12,0.2016,,right,1.5,,stimuli/card_0_transparent.png,910,0,12,0,12,0,1,,,,,,,,,,,,,,,,,,,,,,,,,,,,,,,,,,,,,,,,,,,,
,,,,665f68b8add44deb50c32311,B,2024-06-21_18h23.13.355,Slot Machine Game,2023.1.3,MacIntel,59.88023952,,,,,,,,,,,,,,,,,,,261.8804,13,0.3155,,right,1.5,,stimuli/card_0_transparent.png,910,0,13,0,13,0,1,,,,,,,,,,,,,,,,,,,,,,,,,,,,,,,,,,,,,,,,,,,,
,,,,665f68b8add44deb50c32311,B,2024-06-21_18h23.13.355,Slot Machine Game,2023.1.3,MacIntel,59.88023952,,,,,,,,,,,,,,,,,,,264.5304,14,1.5315,,left,1.5,,stimuli/card_0_transparent.png,910,0,14,0,14,0,1,,,,,,,,,,,,,,,,,,,,,,,,,,,,,,,,,,,,,,,,,,,,
,,,,665f68b8add44deb50c32311,B,2024-06-21_18h23.13.355,Slot Machine Game,2023.1.3,MacIntel,59.88023952,,,,,,,,,,,,,,,,,"[6,15]","[[1,3,2],[3,1,2]]",273.4104,0,1.8394,,up,1.5,,stimuli/card_10_transparent.png,10,10,0,0,0,0,1,,268.4121,,,,,,,,,,,,,,,,,,,,,,,,,,,,,,,,,,,,,,,,,,
,,,,665f68b8add44deb50c32311,B,2024-06-21_18h23.13.355,Slot Machine Game,2023.1.3,MacIntel,59.88023952,,,,,,,,,,,,,,,,,,,277.5643,1,3.25,,left,0.5,,stimuli/card_100_transparent.png,110,100,1,0,1,0,1,,,,,,,,,,,,,,,,,,,,,,,,,,,,,,,,,,,,,,,,,,,,
,,,,665f68b8add44deb50c32311,B,2024-06-21_18h23.13.355,Slot Machine Game,2023.1.3,MacIntel,59.88023952,,,,,,,,,,,,,,,,,,,282.1479,2,0.3669,,left,0.5,,stimuli/card_100_transparent.png,210,100,2,0,2,0,1,,,,,,,,,,,,,,,,,,,,,,,,,,,,,,,,,,,,,,,,,,,,
,,,,665f68b8add44deb50c32311,B,2024-06-21_18h23.13.355,Slot Machine Game,2023.1.3,MacIntel,59.88023952,,,,,,,,,,,,,,,,,,,283.848,3,0.2495,,left,1.5,,stimuli/card_100_transparent.png,310,100,3,0,3,0,1,,,,,,,,,,,,,,,,,,,,,,,,,,,,,,,,,,,,,,,,,,,,
,,,,665f68b8add44deb50c32311,B,2024-06-21_18h23.13.355,Slot Machine Game,2023.1.3,MacIntel,59.88023952,,,,,,,,,,,,,,,,,,,286.4303,4,0.2335,,left,1,,stimuli/card_100_transparent.png,410,100,4,0,4,0,1,,,,,,,,,,,,,,,,,,,,,,,,,,,,,,,,,,,,,,,,,,,,
,,,,665f68b8add44deb50c32311,B,2024-06-21_18h23.13.355,Slot Machine Game,2023.1.3,MacIntel,59.88023952,,,,,,,,,,,,,,,,,,,288.4815,5,0.0956,,left,1,,stimuli/card_100_transparent.png,510,100,5,0,5,0,1,,,,,,,,,,,,,,,,,,,,,,,,,,,,,,,,,,,,,,,,,,,,
,,,,665f68b8add44deb50c32311,B,2024-06-21_18h23.13.355,Slot Machine Game,2023.1.3,MacIntel,59.88023952,,,,,,,,,,,,,,,,,,,290.3972,6,0.0998,,left,0.5,,stimuli/card_0_transparent.png,510,0,6,0,6,0,1,,,,,,,,,,,,,,,,,,,,,,,,,,,,,,,,,,,,,,,,,,,,
,,,,665f68b8add44deb50c32311,B,2024-06-21_18h23.13.355,Slot Machine Game,2023.1.3,MacIntel,59.88023952,,,,,,,,,,,,,,,,,,,291.8316,7,2.2003,,right,1,,stimuli/card_10_transparent.png,520,10,7,0,7,0,1,,,,,,,,,,,,,,,,,,,,,,,,,,,,,,,,,,,,,,,,,,,,
,,,,665f68b8add44deb50c32311,B,2024-06-21_18h23.13.355,Slot Machine Game,2023.1.3,MacIntel,59.88023952,,,,,,,,,,,,,,,,,,,295.8652,8,0.3433,,up,0.5,,stimuli/card_100_transparent.png,620,100,8,0,8,0,1,,,,,,,,,,,,,,,,,,,,,,,,,,,,,,,,,,,,,,,,,,,,
,,,,665f68b8add44deb50c32311,B,2024-06-21_18h23.13.355,Slot Machine Game,2023.1.3,MacIntel,59.88023952,,,,,,,,,,,,,,,,,,,297.5318,9,0.1164,,up,1.5,,stimuli/card_100_transparent.png,720,100,9,0,9,0,1,,,,,,,,,,,,,,,,,,,,,,,,,,,,,,,,,,,,,,,,,,,,
,,,,665f68b8add44deb50c32311,B,2024-06-21_18h23.13.355,Slot Machine Game,2023.1.3,MacIntel,59.88023952,,,,,,,,,,,,,,,,,,,299.982,10,0.5346,,up,1,,stimuli/card_100_transparent.png,820,100,10,0,10,0,1,,,,,,,,,,,,,,,,,,,,,,,,,,,,,,,,,,,,,,,,,,,,
,,,,665f68b8add44deb50c32311,B,2024-06-21_18h23.13.355,Slot Machine Game,2023.1.3,MacIntel,59.88023952,,,,,,,,,,,,,,,,,,,302.3489,11,0.6009,,up,0.5,,stimuli/card_100_transparent.png,920,100,11,0,11,0,1,,,,,,,,,,,,,,,,,,,,,,,,,,,,,,,,,,,,,,,,,,,,
,,,,665f68b8add44deb50c32311,B,2024-06-21_18h23.13.355,Slot Machine Game,2023.1.3,MacIntel,59.88023952,,,,,,,,,,,,,,,,,,,304.2822,12,0.0998,,up,1,,stimuli/card_100_transparent.png,1020,100,12,0,12,0,1,,,,,,,,,,,,,,,,,,,,,,,,,,,,,,,,,,,,,,,,,,,,
,,,,665f68b8add44deb50c32311,B,2024-06-21_18h23.13.355,Slot Machine Game,2023.1.3,MacIntel,59.88023952,,,,,,,,,,,,,,,,,,,306.2147,13,0.1507,,up,0.5,,stimuli/card_100_transparent.png,1120,100,13,0,13,0,1,,,,,,,,,,,,,,,,,,,,,,,,,,,,,,,,,,,,,,,,,,,,
,,,,665f68b8add44deb50c32311,B,2024-06-21_18h23.13.355,Slot Machine Game,2023.1.3,MacIntel,59.88023952,,,,,,,,,,,,,,,,,,,307.6824,14,0.3663,,up,1.5,,stimuli/card_100_transparent.png,1220,100,14,0,14,0,1,,,,,,,,,,,,,,,,,,,,,,,,,,,,,,,,,,,,,,,,,,,,
,,,,665f68b8add44deb50c32311,B,2024-06-21_18h23.13.355,Slot Machine Game,2023.1.3,MacIntel,59.88023952,,,,,,,,,,,,,,,,,,,,,,,,,,,,,,,,,,,310.3825,,,315.3836,space,2.7729,,,,,,,,,,,,,,,,,,,,,,,,,,,,,,,,,,,,,
,,,,665f68b8add44deb50c32311,B,2024-06-21_18h23.13.355,Slot Machine Game,2023.1.3,MacIntel,59.88023952,,,,,,,,,,,,,,,,,,,,,,,,,,,,,,,,,,,,,,,,,,318.1837,3,"[0,4,6,3,5,7,8,1,9,2]",space,4.4864,,,,,,,,,,,,,,,,,,,,,,,,,,,,,,,
,,,,665f68b8add44deb50c32311,B,2024-06-21_18h23.13.355,Slot Machine Game,2023.1.3,MacIntel,59.88023952,,,,,,,,,,,,,,,,,,,,,,,,,,,100,,,,,,,,,,,,,,,,,,,,,1,1,"[12,15]","[[2,1,3],[2,3,1]]",322.7186,0,up,0.5318,,0.5,0.3,"[2,1,3]",0.968466374,stimuli/card_100_transparent.png,100,0,0,0,0,1,,,,,,,,,,
,,,,665f68b8add44deb50c32311,B,2024-06-21_18h23.13.355,Slot Machine Game,2023.1.3,MacIntel,59.88023952,,,,,,,,,,,,,,,,,,,,,,,,,,,200,,,,,,,,,,,,,,,,,,,,,1,1,,,324.5836,1,up,0.1029,,1.5,0.3,"[2,1,3]",0.840939667,stimuli/card_100_transparent.png,100,1,0,1,0,1,,,,,,,,,,
,,,,665f68b8add44deb50c32311,B,2024-06-21_18h23.13.355,Slot Machine Game,2023.1.3,MacIntel,59.88023952,,,,,,,,,,,,,,,,,,,,,,,,,,,200,,,,,,,,,,,,,,,,,,,,,1,1,,,327.0155,2,up,0.1769,,1,0.3,"[2,1,3]",0.004816134,stimuli/card_0_transparent.png,0,2,0,2,0,1,,,,,,,,,,
,,,,665f68b8add44deb50c32311,B,2024-06-21_18h23.13.355,Slot Machine Game,2023.1.3,MacIntel,59.88023952,,,,,,,,,,,,,,,,,,,,,,,,,,,210,,,,,,,,,,,,,,,,,,,,,1,1,,,329.0001,3,left,1.9003,,0.5,0.3,"[2,1,3]",0.858284898,stimuli/card_10_transparent.png,10,3,0,3,0,1,,,,,,,,,,
,,,,665f68b8add44deb50c32311,B,2024-06-21_18h23.13.355,Slot Machine Game,2023.1.3,MacIntel,59.88023952,,,,,,,,,,,,,,,,,,,,,,,,,,,210,,,,,,,,,,,,,,,,,,,,,1,1,,,332.2336,4,right,0.5092,,1.5,0.3,"[2,1,3]",0.478987861,stimuli/card_0_transparent.png,0,4,0,4,0,1,,,,,,,,,,
,,,,665f68b8add44deb50c32311,B,2024-06-21_18h23.13.355,Slot Machine Game,2023.1.3,MacIntel,59.88023952,,,,,,,,,,,,,,,,,,,,,,,,,,,220,,,,,,,,,,,,,,,,,,,,,1,1,,,335.067,5,left,0.3494,,1,0.3,"[2,1,3]",0.26466533,stimuli/card_10_transparent.png,10,5,0,5,0,1,,,,,,,,,,
,,,,665f68b8add44deb50c32311,B,2024-06-21_18h23.13.355,Slot Machine Game,2023.1.3,MacIntel,59.88023952,,,,,,,,,,,,,,,,,,,,,,,,,,,320,,,,,,,,,,,,,,,,,,,,,1,1,,,337.2504,6,up,1.2484,,1.5,0.3,"[2,1,3]",0.576914362,stimuli/card_100_transparent.png,100,6,0,6,0,1,,,,,,,,,,
,,,,665f68b8add44deb50c32311,B,2024-06-21_18h23.13.355,Slot Machine Game,2023.1.3,MacIntel,59.88023952,,,,,,,,,,,,,,,,,,,,,,,,,,,420,,,,,,,,,,,,,,,,,,,,,1,1,,,340.8341,7,up,0.2495,,1,0.3,"[2,1,3]",0.688211365,stimuli/card_100_transparent.png,100,7,0,7,0,1,,,,,,,,,,
,,,,665f68b8add44deb50c32311,B,2024-06-21_18h23.13.355,Slot Machine Game,2023.1.3,MacIntel,59.88023952,,,,,,,,,,,,,,,,,,,,,,,,,,,520,,,,,,,,,,,,,,,,,,,,,1,1,,,342.9174,8,up,0.0558,,1.5,0.3,"[2,1,3]",0.641790253,stimuli/card_100_transparent.png,100,8,0,8,0,1,,,,,,,,,,
,,,,665f68b8add44deb50c32311,B,2024-06-21_18h23.13.355,Slot Machine Game,2023.1.3,MacIntel,59.88023952,,,,,,,,,,,,,,,,,,,,,,,,,,,620,,,,,,,,,,,,,,,,,,,,,1,1,,,345.3004,9,up,0.3018,,1,0.3,"[2,1,3]",0.355091626,stimuli/card_100_transparent.png,100,9,0,9,0,1,,,,,,,,,,
,,,,665f68b8add44deb50c32311,B,2024-06-21_18h23.13.355,Slot Machine Game,2023.1.3,MacIntel,59.88023952,,,,,,,,,,,,,,,,,,,,,,,,,,,720,,,,,,,,,,,,,,,,,,,,,1,1,,,347.4177,10,up,0.1932,,0.5,0.3,"[2,1,3]",0.996035929,stimuli/card_100_transparent.png,100,10,0,10,0,1,,,,,,,,,,
,,,,665f68b8add44deb50c32311,B,2024-06-21_18h23.13.355,Slot Machine Game,2023.1.3,MacIntel,59.88023952,,,,,,,,,,,,,,,,,,,,,,,,,,,820,,,,,,,,,,,,,,,,,,,,,1,1,,,348.9338,11,up,0.0998,,0.5,0.3,"[2,1,3]",0.339484643,stimuli/card_100_transparent.png,100,11,0,11,0,1,,,,,,,,,,
,,,,665f68b8add44deb50c32311,B,2024-06-21_18h23.13.355,Slot Machine Game,2023.1.3,MacIntel,59.88023952,,,,,,,,,,,,,,,,,,,,,,,,,,,820,,,,,,,,,,,,,,,,,,,,,1,1,,,350.3511,12,up,0.1028,,1.5,0.3,"[2,3,1]",0.786271491,stimuli/card_0_transparent.png,0,12,0,12,0,1,,,,,,,,,,
,,,,665f68b8add44deb50c32311,B,2024-06-21_18h23.13.355,Slot Machine Game,2023.1.3,MacIntel,59.88023952,,,,,,,,,,,,,,,,,,,,,,,,,,,830,,,,,,,,,,,,,,,,,,,,,1,1,,,352.784,13,left,0.7501,,0.5,0.3,"[2,3,1]",0.833656441,stimuli/card_10_transparent.png,10,13,0,13,0,1,,,,,,,,,,
,,,,665f68b8add44deb50c32311,B,2024-06-21_18h23.13.355,Slot Machine Game,2023.1.3,MacIntel,59.88023952,,,,,,,,,,,,,,,,,,,,,,,,,,,830,,,,,,,,,,,,,,,,,,,,,1,1,,,354.8679,14,right,0.4856,,1.5,0.3,"[2,3,1]",0.012814908,stimuli/card_0_transparent.png,0,14,0,14,0,1,,,,,,,,,,
,,,,665f68b8add44deb50c32311,B,2024-06-21_18h23.13.355,Slot Machine Game,2023.1.3,MacIntel,59.88023952,,,,,,,,,,,,,,,,,,,,,,,,,,,,,,,,,,,357.6849,,,,,,,,,,,,,,,,,,,,,,,,,,,,,,,,,[830],0,0,0,0,1,,,,
,,,,665f68b8add44deb50c32311,B,2024-06-21_18h23.13.355,Slot Machine Game,2023.1.3,MacIntel,59.88023952,,,,,,,,,,,,,,,,,,,,,,,,,,,0,,,,,,,,,,,,,,,,,,,,,2,5,"[5,15]","[[1,2,3],[3,1,2]]",362.7008,0,right,1.5209,,0.5,0.3,"[1,2,3]",0.947917201,stimuli/card_0_transparent.png,0,0,0,0,0,1,,,,,,,,,,
,,,,665f68b8add44deb50c32311,B,2024-06-21_18h23.13.355,Slot Machine Game,2023.1.3,MacIntel,59.88023952,,,,,,,,,,,,,,,,,,,,,,,,,,,10,,,,,,,,,,,,,,,,,,,,,2,5,,,365.5517,1,left,0.5355,,1,0.3,"[1,2,3]",0.17070063,stimuli/card_10_transparent.png,10,1,0,1,0,1,,,,,,,,,,
,,,,665f68b8add44deb50c32311,B,2024-06-21_18h23.13.355,Slot Machine Game,2023.1.3,MacIntel,59.88023952,,,,,,,,,,,,,,,,,,,,,,,,,,,20,,,,,,,,,,,,,,,,,,,,,2,5,,,367.9186,2,up,0.302,,1,0.3,"[1,2,3]",0.31639181,stimuli/card_10_transparent.png,10,2,0,2,0,1,,,,,,,,,,
,,,,665f68b8add44deb50c32311,B,2024-06-21_18h23.13.355,Slot Machine Game,2023.1.3,MacIntel,59.88023952,,,,,,,,,,,,,,,,,,,,,,,,,,,120,,,,,,,,,,,,,,,,,,,,,2,5,,,370.0514,3,left,0.1652,,1.5,0.3,"[1,2,3]",0.4889022,stimuli/card_100_transparent.png,100,3,0,3,0,1,,,,,,,,,,
,,,,665f68b8add44deb50c32311,B,2024-06-21_18h23.13.355,Slot Machine Game,2023.1.3,MacIntel,59.88023952,,,,,,,,,,,,,,,,,,,,,,,,,,,220,,,,,,,,,,,,,,,,,,,,,2,5,,,372.5522,4,left,0.4167,,1.5,0.3,"[1,2,3]",0.95074883,stimuli/card_100_transparent.png,100,4,0,4,0,1,,,,,,,,,,
,,,,665f68b8add44deb50c32311,B,2024-06-21_18h23.13.355,Slot Machine Game,2023.1.3,MacIntel,59.88023952,,,,,,,,,,,,,,,,,,,,,,,,,,,220,,,,,,,,,,,,,,,,,,,,,2,5,,,375.3023,5,left,0.0185,,1,0.3,"[3,1,2]",0.86823837,stimuli/card_0_transparent.png,0,5,0,5,0,1,,,,,,,,,,
,,,,665f68b8add44deb50c32311,B,2024-06-21_18h23.13.355,Slot Machine Game,2023.1.3,MacIntel,59.88023952,,,,,,,,,,,,,,,,,,,,,,,,,,,230,,,,,,,,,,,,,,,,,,,,,2,5,,,377.1524,6,right,1.0503,,1.5,0.3,"[3,1,2]",0.336052937,stimuli/card_10_transparent.png,10,6,0,6,0,1,,,,,,,,,,
,,,,665f68b8add44deb50c32311,B,2024-06-21_18h23.13.355,Slot Machine Game,2023.1.3,MacIntel,59.88023952,,,,,,,,,,,,,,,,,,,,,,,,,,,330,,,,,,,,,,,,,,,,,,,,,2,5,,,380.5359,7,up,0.1202,,0.5,0.3,"[3,1,2]",0.447646861,stimuli/card_100_transparent.png,100,7,0,7,0,1,,,,,,,,,,
,,,,665f68b8add44deb50c32311,B,2024-06-21_18h23.13.355,Slot Machine Game,2023.1.3,MacIntel,59.88023952,,,,,,,,,,,,,,,,,,,,,,,,,,,430,,,,,,,,,,,,,,,,,,,,,2,5,,,381.9859,8,up,0.2511,,1,0.3,"[3,1,2]",0.763613794,stimuli/card_100_transparent.png,100,8,0,8,0,1,,,,,,,,,,
,,,,665f68b8add44deb50c32311,B,2024-06-21_18h23.13.355,Slot Machine Game,2023.1.3,MacIntel,59.88023952,,,,,,,,,,,,,,,,,,,,,,,,,,,530,,,,,,,,,,,,,,,,,,,,,2,5,,,384.0683,9,up,0.2331,,0.5,0.3,"[3,1,2]",0.331259344,stimuli/card_100_transparent.png,100,9,0,9,0,1,,,,,,,,,,
,,,,665f68b8add44deb50c32311,B,2024-06-21_18h23.13.355,Slot Machine Game,2023.1.3,MacIntel,59.88023952,,,,,,,,,,,,,,,,,,,,,,,,,,,630,,,,,,,,,,,,,,,,,,,,,2,5,,,385.6195,10,up,0.2335,,1.5,0.3,"[3,1,2]",0.698081864,stimuli/card_100_transparent.png,100,10,0,10,0,1,,,,,,,,,,
,,,,665f68b8add44deb50c32311,B,2024-06-21_18h23.13.355,Slot Machine Game,2023.1.3,MacIntel,59.88023952,,,,,,,,,,,,,,,,,,,,,,,,,,,730,,,,,,,,,,,,,,,,,,,,,2,5,,,388.1862,11,up,0.3163,,1,0.3,"[3,1,2]",0.331456131,stimuli/card_100_transparent.png,100,11,0,11,0,1,,,,,,,,,,
,,,,665f68b8add44deb50c32311,B,2024-06-21_18h23.13.355,Slot Machine Game,2023.1.3,MacIntel,59.88023952,,,,,,,,,,,,,,,,,,,,,,,,,,,830,,,,,,,,,,,,,,,,,,,,,2,5,,,390.3363,12,up,1.1819,,0.5,0.3,"[3,1,2]",0.287269714,stimuli/card_100_transparent.png,100,12,0,12,0,1,,,,,,,,,,
,,,,665f68b8add44deb50c32311,B,2024-06-21_18h23.13.355,Slot Machine Game,2023.1.3,MacIntel,59.88023952,,,,,,,,,,,,,,,,,,,,,,,,,,,930,,,,,,,,,,,,,,,,,,,,,2,5,,,392.8533,13,up,0.3654,,1.5,0.3,"[3,1,2]",0.543867127,stimuli/card_100_transparent.png,100,13,0,13,0,1,,,,,,,,,,
,,,,665f68b8add44deb50c32311,B,2024-06-21_18h23.13.355,Slot Machine Game,2023.1.3,MacIntel,59.88023952,,,,,,,,,,,,,,,,,,,,,,,,,,,1030,,,,,,,,,,,,,,,,,,,,,2,5,,,395.5522,14,up,0.0664,,0.5,0.3,"[3,1,2]",0.940535,stimuli/card_100_transparent.png,100,14,0,14,0,1,,,,,,,,,,
,,,,665f68b8add44deb50c32311,B,2024-06-21_18h23.13.355,Slot Machine Game,2023.1.3,MacIntel,59.88023952,,,,,,,,,,,,,,,,,,,,,,,,,,,,,,,,,,,396.9367,,,,,,,,,,,,,,,,,,,,,,,,,,,,,,,,,"[830,1030]",1,0,1,0,1,,,,
,,,,665f68b8add44deb50c32311,B,2024-06-21_18h23.13.355,Slot Machine Game,2023.1.3,MacIntel,59.88023952,,,,,,,,,,,,,,,,,,,,,,,,,,,100,,,,,,,,,,,,,,,,,,,,,3,7,"[9,15]","[[1,3,2],[2,3,1]]",401.9534,0,left,0.1499,,1,0.3,"[1,3,2]",0.618758318,stimuli/card_100_transparent.png,100,0,0,0,0,1,,,,,,,,,,
,,,,665f68b8add44deb50c32311,B,2024-06-21_18h23.13.355,Slot Machine Game,2023.1.3,MacIntel,59.88023952,,,,,,,,,,,,,,,,,,,,,,,,,,,200,,,,,,,,,,,,,,,,,,,,,3,7,,,403.936,1,left,0.4177,,1,0.3,"[1,3,2]",0.553483997,stimuli/card_100_transparent.png,100,1,0,1,0,1,,,,,,,,,,
,,,,665f68b8add44deb50c32311,B,2024-06-21_18h23.13.355,Slot Machine Game,2023.1.3,MacIntel,59.88023952,,,,,,,,,,,,,,,,,,,,,,,,,,,300,,,,,,,,,,,,,,,,,,,,,3,7,,,406.187,2,left,0.4832,,1.5,0.3,"[1,3,2]",0.906039913,stimuli/card_100_transparent.png,100,2,0,2,0,1,,,,,,,,,,
,,,,665f68b8add44deb50c32311,B,2024-06-21_18h23.13.355,Slot Machine Game,2023.1.3,MacIntel,59.88023952,,,,,,,,,,,,,,,,,,,,,,,,,,,400,,,,,,,,,,,,,,,,,,,,,3,7,,,409.0039,3,left,0.3708,,1,0.3,"[1,3,2]",0.738640313,stimuli/card_100_transparent.png,100,3,0,3,0,1,,,,,,,,,,
,,,,665f68b8add44deb50c32311,B,2024-06-21_18h23.13.355,Slot Machine Game,2023.1.3,MacIntel,59.88023952,,,,,,,,,,,,,,,,,,,,,,,,,,,500,,,,,,,,,,,,,,,,,,,,,3,7,,,411.2039,4,left,0.3755,,1.5,0.3,"[1,3,2]",0.34050882,stimuli/card_100_transparent.png,100,4,0,4,0,1,,,,,,,,,,
,,,,665f68b8add44deb50c32311,B,2024-06-21_18h23.13.355,Slot Machine Game,2023.1.3,MacIntel,59.88023952,,,,,,,,,,,,,,,,,,,,,,,,,,,600,,,,,,,,,,,,,,,,,,,,,3,7,,,413.9041,5,left,0.2835,,0.5,0.3,"[1,3,2]",0.597614749,stimuli/card_100_transparent.png,100,5,0,5,0,1,,,,,,,,,,
,,,,665f68b8add44deb50c32311,B,2024-06-21_18h23.13.355,Slot Machine Game,2023.1.3,MacIntel,59.88023952,,,,,,,,,,,,,,,,,,,,,,,,,,,700,,,,,,,,,,,,,,,,,,,,,3,7,,,415.5209,6,left,0.3354,,1,0.3,"[1,3,2]",0.994108679,stimuli/card_100_transparent.png,100,6,0,6,0,1,,,,,,,,,,
,,,,665f68b8add44deb50c32311,B,2024-06-21_18h23.13.355,Slot Machine Game,2023.1.3,MacIntel,59.88023952,,,,,,,,,,,,,,,,,,,,,,,,,,,800,,,,,,,,,,,,,,,,,,,,,3,7,,,417.6878,7,left,0.0013,,1.5,0.3,"[1,3,2]",0.985741831,stimuli/card_100_transparent.png,100,7,0,7,0,1,,,,,,,,,,
,,,,665f68b8add44deb50c32311,B,2024-06-21_18h23.13.355,Slot Machine Game,2023.1.3,MacIntel,59.88023952,,,,,,,,,,,,,,,,,,,,,,,,,,,900,,,,,,,,,,,,,,,,,,,,,3,7,,,420.021,8,left,0.2998,,1,0.3,"[1,3,2]",0.363604288,stimuli/card_100_transparent.png,100,8,0,8,0,1,,,,,,,,,,
,,,,665f68b8add44deb50c32311,B,2024-06-21_18h23.13.355,Slot Machine Game,2023.1.3,MacIntel,59.88023952,,,,,,,,,,,,,,,,,,,,,,,,,,,910,,,,,,,,,,,,,,,,,,,,,3,7,,,422.1545,9,left,0.318,,1.5,0.3,"[2,3,1]",0.233332825,stimuli/card_10_transparent.png,10,9,0,9,0,1,,,,,,,,,,
,,,,665f68b8add44deb50c32311,B,2024-06-21_18h23.13.355,Slot Machine Game,2023.1.3,MacIntel,59.88023952,,,,,,,,,,,,,,,,,,,,,,,,,,,1010,,,,,,,,,,,,,,,,,,,,,3,7,,,424.8046,10,right,0.3002,,1,0.3,"[2,3,1]",0.392827898,stimuli/card_100_transparent.png,100,10,0,10,0,1,,,,,,,,,,
,,,,665f68b8add44deb50c32311,B,2024-06-21_18h23.13.355,Slot Machine Game,2023.1.3,MacIntel,59.88023952,,,,,,,,,,,,,,,,,,,,,,,,,,,1110,,,,,,,,,,,,,,,,,,,,,3,7,,,426.9379,11,right,0.0178,,0.5,0.3,"[2,3,1]",0.987772677,stimuli/card_100_transparent.png,100,11,0,11,0,1,,,,,,,,,,
,,,,665f68b8add44deb50c32311,B,2024-06-21_18h23.13.355,Slot Machine Game,2023.1.3,MacIntel,59.88023952,,,,,,,,,,,,,,,,,,,,,,,,,,,1210,,,,,,,,,,,,,,,,,,,,,3,7,,,428.2881,12,right,0.1028,,1,0.3,"[2,3,1]",0.429606907,stimuli/card_100_transparent.png,100,12,0,12,0,1,,,,,,,,,,
,,,,665f68b8add44deb50c32311,B,2024-06-21_18h23.13.355,Slot Machine Game,2023.1.3,MacIntel,59.88023952,,,,,,,,,,,,,,,,,,,,,,,,,,,1210,,,,,,,,,,,,,,,,,,,,,3,7,,,430.2217,13,right,0.1927,,1,0.3,"[2,3,1]",0.062223324,stimuli/card_0_transparent.png,0,13,0,13,0,1,,,,,,,,,,
,,,,665f68b8add44deb50c32311,B,2024-06-21_18h23.13.355,Slot Machine Game,2023.1.3,MacIntel,59.88023952,,,,,,,,,,,,,,,,,,,,,,,,,,,1310,,,,,,,,,,,,,,,,,,,,,3,7,,,432.2384,14,right,0.3118,,1.5,0.3,"[2,3,1]",0.348873365,stimuli/card_100_transparent.png,100,14,0,14,0,1,,,,,,,,,,
,,,,665f68b8add44deb50c32311,B,2024-06-21_18h23.13.355,Slot Machine Game,2023.1.3,MacIntel,59.88023952,,,,,,,,,,,,,,,,,,,,,,,,,,,,,,,,,,,434.8707,,,,,,,,,,,,,,,,,,,,,,,,,,,,,,,,,"[830,1030,1310]",2,0,2,0,1,,,,
,,,,665f68b8add44deb50c32311,B,2024-06-21_18h23.13.355,Slot Machine Game,2023.1.3,MacIntel,59.88023952,,,,,,,,,,,,,,,,,,,,,,,,,,,0,,,,,,,,,,,,,,,,,,,,,4,4,"[7,15]","[[2,3,1],[1,2,3]]",439.8842,0,up,0.0162,,0.5,0.3,"[2,3,1]",0.788954111,stimuli/card_0_transparent.png,0,0,0,0,0,1,,,,,,,,,,
,,,,665f68b8add44deb50c32311,B,2024-06-21_18h23.13.355,Slot Machine Game,2023.1.3,MacIntel,59.88023952,,,,,,,,,,,,,,,,,,,,,,,,,,,100,,,,,,,,,,,,,,,,,,,,,4,4,,,441.2219,1,right,0.316,,0.5,0.3,"[2,3,1]",0.815077323,stimuli/card_100_transparent.png,100,1,0,1,0,1,,,,,,,,,,
,,,,665f68b8add44deb50c32311,B,2024-06-21_18h23.13.355,Slot Machine Game,2023.1.3,MacIntel,59.88023952,,,,,,,,,,,,,,,,,,,,,,,,,,,200,,,,,,,,,,,,,,,,,,,,,4,4,,,442.872,2,right,0.3344,,1,0.3,"[2,3,1]",0.50454333,stimuli/card_100_transparent.png,100,2,0,2,0,1,,,,,,,,,,
,,,,665f68b8add44deb50c32311,B,2024-06-21_18h23.13.355,Slot Machine Game,2023.1.3,MacIntel,59.88023952,,,,,,,,,,,,,,,,,,,,,,,,,,,210,,,,,,,,,,,,,,,,,,,,,4,4,,,445.0387,3,right,0.3623,,1,0.3,"[2,3,1]",0.14607225,stimuli/card_10_transparent.png,10,3,0,3,0,1,,,,,,,,,,
,,,,665f68b8add44deb50c32311,B,2024-06-21_18h23.13.355,Slot Machine Game,2023.1.3,MacIntel,59.88023952,,,,,,,,,,,,,,,,,,,,,,,,,,,210,,,,,,,,,,,,,,,,,,,,,4,4,,,447.2222,4,up,0.0339,,1.5,0.3,"[2,3,1]",0.689304408,stimuli/card_0_transparent.png,0,4,0,4,0,1,,,,,,,,,,
,,,,665f68b8add44deb50c32311,B,2024-06-21_18h23.13.355,Slot Machine Game,2023.1.3,MacIntel,59.88023952,,,,,,,,,,,,,,,,,,,,,,,,,,,220,,,,,,,,,,,,,,,,,,,,,4,4,,,449.588,5,left,0.3331,,1.5,0.3,"[2,3,1]",0.509777173,stimuli/card_10_transparent.png,10,5,0,5,0,1,,,,,,,,,,
,,,,665f68b8add44deb50c32311,B,2024-06-21_18h23.13.355,Slot Machine Game,2023.1.3,MacIntel,59.88023952,,,,,,,,,,,,,,,,,,,,,,,,,,,220,,,,,,,,,,,,,,,,,,,,,4,4,,,452.2391,6,right,0.1694,,0.5,0.3,"[2,3,1]",0.061605067,stimuli/card_0_transparent.png,0,6,0,6,0,1,,,,,,,,,,
,,,,665f68b8add44deb50c32311,B,2024-06-21_18h23.13.355,Slot Machine Game,2023.1.3,MacIntel,59.88023952,,,,,,,,,,,,,,,,,,,,,,,,,,,320,,,,,,,,,,,,,,,,,,,,,4,4,,,453.7392,7,left,0.2856,,0.5,0.3,"[1,2,3]",0.975727659,stimuli/card_100_transparent.png,100,7,0,7,0,1,,,,,,,,,,
,,,,665f68b8add44deb50c32311,B,2024-06-21_18h23.13.355,Slot Machine Game,2023.1.3,MacIntel,59.88023952,,,,,,,,,,,,,,,,,,,,,,,,,,,420,,,,,,,,,,,,,,,,,,,,,4,4,,,455.3559,8,left,0.1843,,1,0.3,"[1,2,3]",0.704750391,stimuli/card_100_transparent.png,100,8,0,8,0,1,,,,,,,,,,
,,,,665f68b8add44deb50c32311,B,2024-06-21_18h23.13.355,Slot Machine Game,2023.1.3,MacIntel,59.88023952,,,,,,,,,,,,,,,,,,,,,,,,,,,520,,,,,,,,,,,,,,,,,,,,,4,4,,,457.3727,9,left,0.1334,,1.5,0.3,"[1,2,3]",0.903731058,stimuli/card_100_transparent.png,100,9,0,9,0,1,,,,,,,,,,
,,,,665f68b8add44deb50c32311,B,2024-06-21_18h23.13.355,Slot Machine Game,2023.1.3,MacIntel,59.88023952,,,,,,,,,,,,,,,,,,,,,,,,,,,620,,,,,,,,,,,,,,,,,,,,,4,4,,,459.8394,10,left,0.6993,,0.5,0.3,"[1,2,3]",0.501547979,stimuli/card_100_transparent.png,100,10,0,10,0,1,,,,,,,,,,
,,,,665f68b8add44deb50c32311,B,2024-06-21_18h23.13.355,Slot Machine Game,2023.1.3,MacIntel,59.88023952,,,,,,,,,,,,,,,,,,,,,,,,,,,720,,,,,,,,,,,,,,,,,,,,,4,4,,,461.8729,11,left,0.0778,,0.5,0.3,"[1,2,3]",0.6895124,stimuli/card_100_transparent.png,100,11,0,11,0,1,,,,,,,,,,
,,,,665f68b8add44deb50c32311,B,2024-06-21_18h23.13.355,Slot Machine Game,2023.1.3,MacIntel,59.88023952,,,,,,,,,,,,,,,,,,,,,,,,,,,820,,,,,,,,,,,,,,,,,,,,,4,4,,,463.272,12,left,0.316,,1,0.3,"[1,2,3]",0.55584402,stimuli/card_100_transparent.png,100,12,0,12,0,1,,,,,,,,,,
,,,,665f68b8add44deb50c32311,B,2024-06-21_18h23.13.355,Slot Machine Game,2023.1.3,MacIntel,59.88023952,,,,,,,,,,,,,,,,,,,,,,,,,,,920,,,,,,,,,,,,,,,,,,,,,4,4,,,465.4054,13,left,0.4669,,1.5,0.3,"[1,2,3]",0.213246518,stimuli/card_100_transparent.png,100,13,0,13,0,1,,,,,,,,,,
,,,,665f68b8add44deb50c32311,B,2024-06-21_18h23.13.355,Slot Machine Game,2023.1.3,MacIntel,59.88023952,,,,,,,,,,,,,,,,,,,,,,,,,,,1020,,,,,,,,,,,,,,,,,,,,,4,4,,,468.1898,14,left,0.4441,,1,0.3,"[1,2,3]",0.63316941,stimuli/card_100_transparent.png,100,14,0,14,0,1,,,,,,,,,,
,,,,665f68b8add44deb50c32311,B,2024-06-21_18h23.13.355,Slot Machine Game,2023.1.3,MacIntel,59.88023952,,,,,,,,,,,,,,,,,,,,,,,,,,,,,,,,,,,470.4567,,,,,,,,,,,,,,,,,,,,,,,,,,,,,,,,,"[830,1030,1310,1020]",3,0,3,0,1,,,,
,,,,665f68b8add44deb50c32311,B,2024-06-21_18h23.13.355,Slot Machine Game,2023.1.3,MacIntel,59.88023952,,,,,,,,,,,,,,,,,,,,,,,,,,,10,,,,,,,,,,,,,,,,,,,,,5,6,"[4,10,15]","[[2,3,1],[1,3,2],[3,2,1]]",475.4671,0,left,0.9292,,1.5,0.3,"[2,3,1]",0.708735305,stimuli/card_10_transparent.png,10,0,0,0,0,1,,,,,,,,,,
,,,,665f68b8add44deb50c32311,B,2024-06-21_18h23.13.355,Slot Machine Game,2023.1.3,MacIntel,59.88023952,,,,,,,,,,,,,,,,,,,,,,,,,,,110,,,,,,,,,,,,,,,,,,,,,5,6,,,478.7071,1,right,0.3283,,1.5,0.3,"[2,3,1]",0.270916864,stimuli/card_100_transparent.png,100,1,0,1,0,1,,,,,,,,,,
,,,,665f68b8add44deb50c32311,B,2024-06-21_18h23.13.355,Slot Machine Game,2023.1.3,MacIntel,59.88023952,,,,,,,,,,,,,,,,,,,,,,,,,,,210,,,,,,,,,,,,,,,,,,,,,5,6,,,481.3572,2,right,0.6953,,0.5,0.3,"[2,3,1]",0.395165337,stimuli/card_100_transparent.png,100,2,0,2,0,1,,,,,,,,,,
,,,,665f68b8add44deb50c32311,B,2024-06-21_18h23.13.355,Slot Machine Game,2023.1.3,MacIntel,59.88023952,,,,,,,,,,,,,,,,,,,,,,,,,,,310,,,,,,,,,,,,,,,,,,,,,5,6,,,483.3739,3,right,0.3505,,1,0.3,"[2,3,1]",0.621348679,stimuli/card_100_transparent.png,100,3,0,3,0,1,,,,,,,,,,
,,,,665f68b8add44deb50c32311,B,2024-06-21_18h23.13.355,Slot Machine Game,2023.1.3,MacIntel,59.88023952,,,,,,,,,,,,,,,,,,,,,,,,,,,410,,,,,,,,,,,,,,,,,,,,,5,6,,,485.5574,4,right,0.4988,,1.5,0.3,"[1,3,2]",0.105834623,stimuli/card_100_transparent.png,100,4,0,4,0,1,,,,,,,,,,
,,,,665f68b8add44deb50c32311,B,2024-06-21_18h23.13.355,Slot Machine Game,2023.1.3,MacIntel,59.88023952,,,,,,,,,,,,,,,,,,,,,,,,,,,420,,,,,,,,,,,,,,,,,,,,,5,6,,,488.3904,5,right,0.4433,,0.5,0.3,"[1,3,2]",0.607032393,stimuli/card_10_transparent.png,10,5,0,5,0,1,,,,,,,,,,
,,,,665f68b8add44deb50c32311,B,2024-06-21_18h23.13.355,Slot Machine Game,2023.1.3,MacIntel,59.88023952,,,,,,,,,,,,,,,,,,,,,,,,,,,520,,,,,,,,,,,,,,,,,,,,,5,6,,,490.1575,6,left,0.45,,1,0.3,"[1,3,2]",0.992246601,stimuli/card_100_transparent.png,100,6,0,6,0,1,,,,,,,,,,
,,,,665f68b8add44deb50c32311,B,2024-06-21_18h23.13.355,Slot Machine Game,2023.1.3,MacIntel,59.88023952,,,,,,,,,,,,,,,,,,,,,,,,,,,620,,,,,,,,,,,,,,,,,,,,,5,6,,,492.4411,7,left,0.6329,,1.5,0.3,"[1,3,2]",0.940957875,stimuli/card_100_transparent.png,100,7,0,7,0,1,,,,,,,,,,
,,,,665f68b8add44deb50c32311,B,2024-06-21_18h23.13.355,Slot Machine Game,2023.1.3,MacIntel,59.88023952,,,,,,,,,,,,,,,,,,,,,,,,,,,720,,,,,,,,,,,,,,,,,,,,,5,6,,,495.4079,8,left,0.127,,1,0.3,"[1,3,2]",0.586802812,stimuli/card_100_transparent.png,100,8,0,8,0,1,,,,,,,,,,
,,,,665f68b8add44deb50c32311,B,2024-06-21_18h23.13.355,Slot Machine Game,2023.1.3,MacIntel,59.88023952,,,,,,,,,,,,,,,,,,,,,,,,,,,820,,,,,,,,,,,,,,,,,,,,,5,6,,,497.3579,9,left,0.0027,,1.5,0.3,"[1,3,2]",0.207008648,stimuli/card_100_transparent.png,100,9,0,9,0,1,,,,,,,,,,
,,,,665f68b8add44deb50c32311,B,2024-06-21_18h23.13.355,Slot Machine Game,2023.1.3,MacIntel,59.88023952,,,,,,,,,,,,,,,,,,,,,,,,,,,820,,,,,,,,,,,,,,,,,,,,,5,6,,,499.6908,10,left,2.2997,,1.5,0.3,"[3,2,1]",0.799494391,stimuli/card_0_transparent.png,0,10,0,10,0,1,,,,,,,,,,
,,,,665f68b8add44deb50c32311,B,2024-06-21_18h23.13.355,Slot Machine Game,2023.1.3,MacIntel,59.88023952,,,,,,,,,,,,,,,,,,,,,,,,,,,820,,,,,,,,,,,,,,,,,,,,,5,6,,,504.308,11,up,0.2787,,1.5,0.3,"[3,2,1]",0.064455891,stimuli/card_0_transparent.png,0,11,0,11,0,1,,,,,,,,,,
,,,,665f68b8add44deb50c32311,B,2024-06-21_18h23.13.355,Slot Machine Game,2023.1.3,MacIntel,59.88023952,,,,,,,,,,,,,,,,,,,,,,,,,,,920,,,,,,,,,,,,,,,,,,,,,5,6,,,506.8917,12,right,0.3327,,0.5,0.3,"[3,2,1]",0.245724337,stimuli/card_100_transparent.png,100,12,0,12,0,1,,,,,,,,,,
,,,,665f68b8add44deb50c32311,B,2024-06-21_18h23.13.355,Slot Machine Game,2023.1.3,MacIntel,59.88023952,,,,,,,,,,,,,,,,,,,,,,,,,,,1020,,,,,,,,,,,,,,,,,,,,,5,6,,,508.5585,13,right,0.1207,,0.5,0.3,"[3,2,1]",0.252254046,stimuli/card_100_transparent.png,100,13,0,13,0,1,,,,,,,,,,
,,,,665f68b8add44deb50c32311,B,2024-06-21_18h23.13.355,Slot Machine Game,2023.1.3,MacIntel,59.88023952,,,,,,,,,,,,,,,,,,,,,,,,,,,1120,,,,,,,,,,,,,,,,,,,,,5,6,,,510.0085,14,right,0.8082,,1.5,0.3,"[3,2,1]",0.634843496,stimuli/card_100_transparent.png,100,14,0,14,0,1,,,,,,,,,,
,,,,665f68b8add44deb50c32311,B,2024-06-21_18h23.13.355,Slot Machine Game,2023.1.3,MacIntel,59.88023952,,,,,,,,,,,,,,,,,,,,,,,,,,,,,,,,,,,513.141,,,,,,,,,,,,,,,,,,,,,,,,,,,,,,,,,"[830,1030,1310,1020,1120]",4,0,4,0,1,,,,
,,,,665f68b8add44deb50c32311,B,2024-06-21_18h23.13.355,Slot Machine Game,2023.1.3,MacIntel,59.88023952,,,,,,,,,,,,,,,,,,,,,,,,,,,0,,,,,,,,,,,,,,,,,,,,,6,8,"[11,15]","[[2,1,3],[1,2,3]]",518.1535,0,right,0.917,,1.5,0.3,"[2,1,3]",0.529386755,stimuli/card_0_transparent.png,0,0,0,0,0,1,,,,,,,,,,
,,,,665f68b8add44deb50c32311,B,2024-06-21_18h23.13.355,Slot Machine Game,2023.1.3,MacIntel,59.88023952,,,,,,,,,,,,,,,,,,,,,,,,,,,100,,,,,,,,,,,,,,,,,,,,,6,8,,,521.3924,1,left,0.096,,1.5,0.3,"[2,1,3]",0.17801742,stimuli/card_100_transparent.png,100,1,0,1,0,1,,,,,,,,,,
,,,,665f68b8add44deb50c32311,B,2024-06-21_18h23.13.355,Slot Machine Game,2023.1.3,MacIntel,59.88023952,,,,,,,,,,,,,,,,,,,,,,,,,,,110,,,,,,,,,,,,,,,,,,,,,6,8,,,523.8093,2,left,0.284,,1.5,0.3,"[2,1,3]",0.769668962,stimuli/card_10_transparent.png,10,2,0,2,0,1,,,,,,,,,,
,,,,665f68b8add44deb50c32311,B,2024-06-21_18h23.13.355,Slot Machine Game,2023.1.3,MacIntel,59.88023952,,,,,,,,,,,,,,,,,,,,,,,,,,,120,,,,,,,,,,,,,,,,,,,,,6,8,,,526.426,3,left,0.4784,,0.5,0.3,"[2,1,3]",0.992467881,stimuli/card_10_transparent.png,10,3,0,3,0,1,,,,,,,,,,
,,,,665f68b8add44deb50c32311,B,2024-06-21_18h23.13.355,Slot Machine Game,2023.1.3,MacIntel,59.88023952,,,,,,,,,,,,,,,,,,,,,,,,,,,130,,,,,,,,,,,,,,,,,,,,,6,8,,,528.2252,4,up,0.2044,,1.5,0.3,"[2,1,3]",0.126336243,stimuli/card_10_transparent.png,10,4,0,4,0,1,,,,,,,,,,
,,,,665f68b8add44deb50c32311,B,2024-06-21_18h23.13.355,Slot Machine Game,2023.1.3,MacIntel,59.88023952,,,,,,,,,,,,,,,,,,,,,,,,,,,130,,,,,,,,,,,,,,,,,,,,,6,8,,,530.7428,5,right,0.2277,,1.5,0.3,"[2,1,3]",0.618707701,stimuli/card_0_transparent.png,0,5,0,5,0,1,,,,,,,,,,
,,,,665f68b8add44deb50c32311,B,2024-06-21_18h23.13.355,Slot Machine Game,2023.1.3,MacIntel,59.88023952,,,,,,,,,,,,,,,,,,,,,,,,,,,230,,,,,,,,,,,,,,,,,,,,,6,8,,,533.2921,6,up,0.2337,,0.5,0.3,"[2,1,3]",0.480974273,stimuli/card_100_transparent.png,100,6,0,6,0,1,,,,,,,,,,
,,,,665f68b8add44deb50c32311,B,2024-06-21_18h23.13.355,Slot Machine Game,2023.1.3,MacIntel,59.88023952,,,,,,,,,,,,,,,,,,,,,,,,,,,330,,,,,,,,,,,,,,,,,,,,,6,8,,,534.8429,7,up,0.5515,,1,0.3,"[2,1,3]",0.671446764,stimuli/card_100_transparent.png,100,7,0,7,0,1,,,,,,,,,,
,,,,665f68b8add44deb50c32311,B,2024-06-21_18h23.13.355,Slot Machine Game,2023.1.3,MacIntel,59.88023952,,,,,,,,,,,,,,,,,,,,,,,,,,,430,,,,,,,,,,,,,,,,,,,,,6,8,,,537.2263,8,up,0.1001,,1,0.3,"[2,1,3]",0.465132444,stimuli/card_100_transparent.png,100,8,0,8,0,1,,,,,,,,,,
,,,,665f68b8add44deb50c32311,B,2024-06-21_18h23.13.355,Slot Machine Game,2023.1.3,MacIntel,59.88023952,,,,,,,,,,,,,,,,,,,,,,,,,,,530,,,,,,,,,,,,,,,,,,,,,6,8,,,539.1598,9,up,0.2675,,0.5,0.3,"[2,1,3]",0.792651003,stimuli/card_100_transparent.png,100,9,0,9,0,1,,,,,,,,,,
,,,,665f68b8add44deb50c32311,B,2024-06-21_18h23.13.355,Slot Machine Game,2023.1.3,MacIntel,59.88023952,,,,,,,,,,,,,,,,,,,,,,,,,,,630,,,,,,,,,,,,,,,,,,,,,6,8,,,540.7599,10,up,0.0336,,0.5,0.3,"[2,1,3]",0.667784232,stimuli/card_100_transparent.png,100,10,0,10,0,1,,,,,,,,,,
,,,,665f68b8add44deb50c32311,B,2024-06-21_18h23.13.355,Slot Machine Game,2023.1.3,MacIntel,59.88023952,,,,,,,,,,,,,,,,,,,,,,,,,,,640,,,,,,,,,,,,,,,,,,,,,6,8,,,542.1255,11,up,0.0839,,1,0.3,"[1,2,3]",0.95738184,stimuli/card_10_transparent.png,10,11,0,11,0,1,,,,,,,,,,
,,,,665f68b8add44deb50c32311,B,2024-06-21_18h23.13.355,Slot Machine Game,2023.1.3,MacIntel,59.88023952,,,,,,,,,,,,,,,,,,,,,,,,,,,650,,,,,,,,,,,,,,,,,,,,,6,8,,,544.0266,12,right,0.27,,1.5,0.3,"[1,2,3]",0.146059439,stimuli/card_10_transparent.png,10,12,0,12,0,1,,,,,,,,,,
,,,,665f68b8add44deb50c32311,B,2024-06-21_18h23.13.355,Slot Machine Game,2023.1.3,MacIntel,59.88023952,,,,,,,,,,,,,,,,,,,,,,,,,,,750,,,,,,,,,,,,,,,,,,,,,6,8,,,546.6268,13,left,0.1666,,1.5,0.3,"[1,2,3]",0.991044295,stimuli/card_100_transparent.png,100,13,0,13,0,1,,,,,,,,,,
,,,,665f68b8add44deb50c32311,B,2024-06-21_18h23.13.355,Slot Machine Game,2023.1.3,MacIntel,59.88023952,,,,,,,,,,,,,,,,,,,,,,,,,,,850,,,,,,,,,,,,,,,,,,,,,6,8,,,549.1267,14,left,0.2925,,0.5,0.3,"[1,2,3]",0.440819467,stimuli/card_100_transparent.png,100,14,0,14,0,1,,,,,,,,,,
,,,,665f68b8add44deb50c32311,B,2024-06-21_18h23.13.355,Slot Machine Game,2023.1.3,MacIntel,59.88023952,,,,,,,,,,,,,,,,,,,,,,,,,,,,,,,,,,,550.7436,,,,,,,,,,,,,,,,,,,,,,,,,,,,,,,,,"[830,1030,1310,1020,1120,850]",5,0,5,0,1,,,,
,,,,665f68b8add44deb50c32311,B,2024-06-21_18h23.13.355,Slot Machine Game,2023.1.3,MacIntel,59.88023952,,,,,,,,,,,,,,,,,,,,,,,,,,,100,,,,,,,,,,,,,,,,,,,,,7,9,"[8,15]","[[3,2,1],[3,1,2]]",555.7546,0,left,0.1102,,1.5,0.3,"[3,2,1]",0.070158581,stimuli/card_100_transparent.png,100,0,0,0,0,1,,,,,,,,,,
,,,,665f68b8add44deb50c32311,B,2024-06-21_18h23.13.355,Slot Machine Game,2023.1.3,MacIntel,59.88023952,,,,,,,,,,,,,,,,,,,,,,,,,,,110,,,,,,,,,,,,,,,,,,,,,7,9,,,558.1763,1,left,0.0012,,1,0.3,"[3,2,1]",0.112523622,stimuli/card_10_transparent.png,10,1,0,1,0,1,,,,,,,,,,
,,,,665f68b8add44deb50c32311,B,2024-06-21_18h23.13.355,Slot Machine Game,2023.1.3,MacIntel,59.88023952,,,,,,,,,,,,,,,,,,,,,,,,,,,110,,,,,,,,,,,,,,,,,,,,,7,9,,,559.994,2,left,0.0497,,1.5,0.3,"[3,2,1]",0.343960108,stimuli/card_0_transparent.png,0,2,0,2,0,1,,,,,,,,,,
,,,,665f68b8add44deb50c32311,B,2024-06-21_18h23.13.355,Slot Machine Game,2023.1.3,MacIntel,59.88023952,,,,,,,,,,,,,,,,,,,,,,,,,,,210,,,,,,,,,,,,,,,,,,,,,7,9,,,562.3769,3,right,2.8432,,1.5,0.3,"[3,2,1]",0.773153085,stimuli/card_100_transparent.png,100,3,0,3,0,1,,,,,,,,,,
,,,,665f68b8add44deb50c32311,B,2024-06-21_18h23.13.355,Slot Machine Game,2023.1.3,MacIntel,59.88023952,,,,,,,,,,,,,,,,,,,,,,,,,,,310,,,,,,,,,,,,,,,,,,,,,7,9,,,567.5277,4,right,0.4012,,0.5,0.3,"[3,2,1]",0.285783375,stimuli/card_100_transparent.png,100,4,0,4,0,1,,,,,,,,,,
,,,,665f68b8add44deb50c32311,B,2024-06-21_18h23.13.355,Slot Machine Game,2023.1.3,MacIntel,59.88023952,,,,,,,,,,,,,,,,,,,,,,,,,,,410,,,,,,,,,,,,,,,,,,,,,7,9,,,569.2611,5,right,0.6338,,0.5,0.3,"[3,2,1]",0.773444004,stimuli/card_100_transparent.png,100,5,0,5,0,1,,,,,,,,,,
,,,,665f68b8add44deb50c32311,B,2024-06-21_18h23.13.355,Slot Machine Game,2023.1.3,MacIntel,59.88023952,,,,,,,,,,,,,,,,,,,,,,,,,,,510,,,,,,,,,,,,,,,,,,,,,7,9,,,571.2272,6,right,0.2167,,0.5,0.3,"[3,2,1]",0.826493768,stimuli/card_100_transparent.png,100,6,0,6,0,1,,,,,,,,,,
,,,,665f68b8add44deb50c32311,B,2024-06-21_18h23.13.355,Slot Machine Game,2023.1.3,MacIntel,59.88023952,,,,,,,,,,,,,,,,,,,,,,,,,,,610,,,,,,,,,,,,,,,,,,,,,7,9,,,572.7613,7,right,0.1596,,1.5,0.3,"[3,2,1]",0.596430363,stimuli/card_100_transparent.png,100,7,0,7,0,1,,,,,,,,,,
,,,,665f68b8add44deb50c32311,B,2024-06-21_18h23.13.355,Slot Machine Game,2023.1.3,MacIntel,59.88023952,,,,,,,,,,,,,,,,,,,,,,,,,,,610,,,,,,,,,,,,,,,,,,,,,7,9,,,575.2444,8,right,0.5338,,1.5,0.3,"[3,1,2]",0.00875274,stimuli/card_0_transparent.png,0,8,0,8,0,1,,,,,,,,,,
,,,,665f68b8add44deb50c32311,B,2024-06-21_18h23.13.355,Slot Machine Game,2023.1.3,MacIntel,59.88023952,,,,,,,,,,,,,,,,,,,,,,,,,,,710,,,,,,,,,,,,,,,,,,,,,7,9,,,578.1115,9,up,0.5294,,1.5,0.3,"[3,1,2]",0.580073407,stimuli/card_100_transparent.png,100,9,0,9,0,1,,,,,,,,,,
,,,,665f68b8add44deb50c32311,B,2024-06-21_18h23.13.355,Slot Machine Game,2023.1.3,MacIntel,59.88023952,,,,,,,,,,,,,,,,,,,,,,,,,,,710,,,,,,,,,,,,,,,,,,,,,7,9,,,580.9615,10,up,0.3267,,1,0.3,"[3,1,2]",0.049283886,stimuli/card_0_transparent.png,0,10,0,10,0,1,,,,,,,,,,
,,,,665f68b8add44deb50c32311,B,2024-06-21_18h23.13.355,Slot Machine Game,2023.1.3,MacIntel,59.88023952,,,,,,,,,,,,,,,,,,,,,,,,,,,810,,,,,,,,,,,,,,,,,,,,,7,9,,,583.1116,11,up,0.1199,,1.5,0.3,"[3,1,2]",0.627890395,stimuli/card_100_transparent.png,100,11,0,11,0,1,,,,,,,,,,
,,,,665f68b8add44deb50c32311,B,2024-06-21_18h23.13.355,Slot Machine Game,2023.1.3,MacIntel,59.88023952,,,,,,,,,,,,,,,,,,,,,,,,,,,910,,,,,,,,,,,,,,,,,,,,,7,9,,,585.5617,12,up,0.1951,,0.5,0.3,"[3,1,2]",0.28939688,stimuli/card_100_transparent.png,100,12,0,12,0,1,,,,,,,,,,
,,,,665f68b8add44deb50c32311,B,2024-06-21_18h23.13.355,Slot Machine Game,2023.1.3,MacIntel,59.88023952,,,,,,,,,,,,,,,,,,,,,,,,,,,1010,,,,,,,,,,,,,,,,,,,,,7,9,,,587.0783,13,up,0.0933,,0.5,0.3,"[3,1,2]",0.918446294,stimuli/card_100_transparent.png,100,13,0,13,0,1,,,,,,,,,,
,,,,665f68b8add44deb50c32311,B,2024-06-21_18h23.13.355,Slot Machine Game,2023.1.3,MacIntel,59.88023952,,,,,,,,,,,,,,,,,,,,,,,,,,,1110,,,,,,,,,,,,,,,,,,,,,7,9,,,588.4953,14,up,0.2679,,0.5,0.3,"[3,1,2]",0.998871607,stimuli/card_100_transparent.png,100,14,0,14,0,1,,,,,,,,,,
,,,,665f68b8add44deb50c32311,B,2024-06-21_18h23.13.355,Slot Machine Game,2023.1.3,MacIntel,59.88023952,,,,,,,,,,,,,,,,,,,,,,,,,,,,,,,,,,,590.0953,,,,,,,,,,,,,,,,,,,,,,,,,,,,,,,,,"[830,1030,1310,1020,1120,850,1110]",6,0,6,0,1,,,,
,,,,665f68b8add44deb50c32311,B,2024-06-21_18h23.13.355,Slot Machine Game,2023.1.3,MacIntel,59.88023952,,,,,,,,,,,,,,,,,,,,,,,,,,,100,,,,,,,,,,,,,,,,,,,,,8,2,"[6,15]","[[1,3,2],[3,2,1]]",595.1071,0,left,0.2829,,1,0.3,"[1,3,2]",0.822245532,stimuli/card_100_transparent.png,100,0,0,0,0,1,,,,,,,,,,
,,,,665f68b8add44deb50c32311,B,2024-06-21_18h23.13.355,Slot Machine Game,2023.1.3,MacIntel,59.88023952,,,,,,,,,,,,,,,,,,,,,,,,,,,110,,,,,,,,,,,,,,,,,,,,,8,2,,,597.2112,1,left,0.5216,,1.5,0.3,"[1,3,2]",0.155895722,stimuli/card_10_transparent.png,10,1,0,1,0,1,,,,,,,,,,
,,,,665f68b8add44deb50c32311,B,2024-06-21_18h23.13.355,Slot Machine Game,2023.1.3,MacIntel,59.88023952,,,,,,,,,,,,,,,,,,,,,,,,,,,120,,,,,,,,,,,,,,,,,,,,,8,2,,,600.0457,2,left,0.2697,,0.5,0.3,"[1,3,2]",0.104515726,stimuli/card_10_transparent.png,10,2,0,2,0,1,,,,,,,,,,
,,,,665f68b8add44deb50c32311,B,2024-06-21_18h23.13.355,Slot Machine Game,2023.1.3,MacIntel,59.88023952,,,,,,,,,,,,,,,,,,,,,,,,,,,130,,,,,,,,,,,,,,,,,,,,,8,2,,,601.6457,3,right,0.0674,,0.5,0.3,"[1,3,2]",0.628393354,stimuli/card_10_transparent.png,10,3,0,3,0,1,,,,,,,,,,
,,,,665f68b8add44deb50c32311,B,2024-06-21_18h23.13.355,Slot Machine Game,2023.1.3,MacIntel,59.88023952,,,,,,,,,,,,,,,,,,,,,,,,,,,230,,,,,,,,,,,,,,,,,,,,,8,2,,,603.0458,4,up,0.2453,,1,0.3,"[1,3,2]",0.073793788,stimuli/card_100_transparent.png,100,4,0,4,0,1,,,,,,,,,,
,,,,665f68b8add44deb50c32311,B,2024-06-21_18h23.13.355,Slot Machine Game,2023.1.3,MacIntel,59.88023952,,,,,,,,,,,,,,,,,,,,,,,,,,,230,,,,,,,,,,,,,,,,,,,,,8,2,,,605.1125,5,up,0.137,,0.5,0.3,"[1,3,2]",0.993792646,stimuli/card_0_transparent.png,0,5,0,5,0,1,,,,,,,,,,
,,,,665f68b8add44deb50c32311,B,2024-06-21_18h23.13.355,Slot Machine Game,2023.1.3,MacIntel,59.88023952,,,,,,,,,,,,,,,,,,,,,,,,,,,240,,,,,,,,,,,,,,,,,,,,,8,2,,,606.5787,6,up,0.012,,0.5,0.3,"[3,2,1]",0.595069786,stimuli/card_10_transparent.png,10,6,0,6,0,1,,,,,,,,,,
,,,,665f68b8add44deb50c32311,B,2024-06-21_18h23.13.355,Slot Machine Game,2023.1.3,MacIntel,59.88023952,,,,,,,,,,,,,,,,,,,,,,,,,,,340,,,,,,,,,,,,,,,,,,,,,8,2,,,607.8953,7,right,0.1183,,0.5,0.3,"[3,2,1]",0.270707917,stimuli/card_100_transparent.png,100,7,0,7,0,1,,,,,,,,,,
,,,,665f68b8add44deb50c32311,B,2024-06-21_18h23.13.355,Slot Machine Game,2023.1.3,MacIntel,59.88023952,,,,,,,,,,,,,,,,,,,,,,,,,,,340,,,,,,,,,,,,,,,,,,,,,8,2,,,609.329,8,right,0.2026,,1,0.3,"[3,2,1]",0.018303142,stimuli/card_0_transparent.png,0,8,0,8,0,1,,,,,,,,,,
,,,,665f68b8add44deb50c32311,B,2024-06-21_18h23.13.355,Slot Machine Game,2023.1.3,MacIntel,59.88023952,,,,,,,,,,,,,,,,,,,,,,,,,,,340,,,,,,,,,,,,,,,,,,,,,8,2,,,611.3461,9,left,0.1605,,1,0.3,"[3,2,1]",0.252867484,stimuli/card_0_transparent.png,0,9,0,9,0,1,,,,,,,,,,
,,,,665f68b8add44deb50c32311,B,2024-06-21_18h23.13.355,Slot Machine Game,2023.1.3,MacIntel,59.88023952,,,,,,,,,,,,,,,,,,,,,,,,,,,440,,,,,,,,,,,,,,,,,,,,,8,2,,,613.3292,10,right,0.0601,,0.5,0.3,"[3,2,1]",0.508711674,stimuli/card_100_transparent.png,100,10,0,10,0,1,,,,,,,,,,
,,,,665f68b8add44deb50c32311,B,2024-06-21_18h23.13.355,Slot Machine Game,2023.1.3,MacIntel,59.88023952,,,,,,,,,,,,,,,,,,,,,,,,,,,540,,,,,,,,,,,,,,,,,,,,,8,2,,,614.713,11,right,0.1002,,1.5,0.3,"[3,2,1]",0.548805937,stimuli/card_100_transparent.png,100,11,0,11,0,1,,,,,,,,,,
,,,,665f68b8add44deb50c32311,B,2024-06-21_18h23.13.355,Slot Machine Game,2023.1.3,MacIntel,59.88023952,,,,,,,,,,,,,,,,,,,,,,,,,,,640,,,,,,,,,,,,,,,,,,,,,8,2,,,617.1465,12,right,0.1157,,0.5,0.3,"[3,2,1]",0.53997377,stimuli/card_100_transparent.png,100,12,0,12,0,1,,,,,,,,,,
,,,,665f68b8add44deb50c32311,B,2024-06-21_18h23.13.355,Slot Machine Game,2023.1.3,MacIntel,59.88023952,,,,,,,,,,,,,,,,,,,,,,,,,,,740,,,,,,,,,,,,,,,,,,,,,8,2,,,618.5961,13,right,0.2267,,0.5,0.3,"[3,2,1]",0.647314684,stimuli/card_100_transparent.png,100,13,0,13,0,1,,,,,,,,,,
,,,,665f68b8add44deb50c32311,B,2024-06-21_18h23.13.355,Slot Machine Game,2023.1.3,MacIntel,59.88023952,,,,,,,,,,,,,,,,,,,,,,,,,,,740,,,,,,,,,,,,,,,,,,,,,8,2,,,620.1299,14,right,0.022,,1,0.3,"[3,2,1]",0.050037054,stimuli/card_0_transparent.png,0,14,0,14,0,1,,,,,,,,,,
,,,,665f68b8add44deb50c32311,B,2024-06-21_18h23.13.355,Slot Machine Game,2023.1.3,MacIntel,59.88023952,,,,,,,,,,,,,,,,,,,,,,,,,,,,,,,,,,,621.9799,,,,,,,,,,,,,,,,,,,,,,,,,,,,,,,,,"[830,1030,1310,1020,1120,850,1110,740]",7,0,7,0,1,,,,
,,,,665f68b8add44deb50c32311,B,2024-06-21_18h23.13.355,Slot Machine Game,2023.1.3,MacIntel,59.88023952,,,,,,,,,,,,,,,,,,,,,,,,,,,0,,,,,,,,,,,,,,,,,,,,,9,10,"[10,15]","[[3,1,2],[1,3,2]]",626.9908,0,left,0.1277,,0.5,0.3,"[3,1,2]",0.389621039,stimuli/card_0_transparent.png,0,0,0,0,0,1,,,,,,,,,,
,,,,665f68b8add44deb50c32311,B,2024-06-21_18h23.13.355,Slot Machine Game,2023.1.3,MacIntel,59.88023952,,,,,,,,,,,,,,,,,,,,,,,,,,,10,,,,,,,,,,,,,,,,,,,,,9,10,,,628.4302,1,right,0.05,,1.5,0.3,"[3,1,2]",0.782910749,stimuli/card_10_transparent.png,10,1,0,1,0,1,,,,,,,,,,
,,,,665f68b8add44deb50c32311,B,2024-06-21_18h23.13.355,Slot Machine Game,2023.1.3,MacIntel,59.88023952,,,,,,,,,,,,,,,,,,,,,,,,,,,110,,,,,,,,,,,,,,,,,,,,,9,10,,,630.8137,2,up,1.9998,,1,0.3,"[3,1,2]",0.427446722,stimuli/card_100_transparent.png,100,2,0,2,0,1,,,,,,,,,,
,,,,665f68b8add44deb50c32311,B,2024-06-21_18h23.13.355,Slot Machine Game,2023.1.3,MacIntel,59.88023952,,,,,,,,,,,,,,,,,,,,,,,,,,,210,,,,,,,,,,,,,,,,,,,,,9,10,,,634.6471,3,up,0.1457,,0.5,0.3,"[3,1,2]",0.842736797,stimuli/card_100_transparent.png,100,3,0,3,0,1,,,,,,,,,,
,,,,665f68b8add44deb50c32311,B,2024-06-21_18h23.13.355,Slot Machine Game,2023.1.3,MacIntel,59.88023952,,,,,,,,,,,,,,,,,,,,,,,,,,,220,,,,,,,,,,,,,,,,,,,,,9,10,,,636.1138,4,up,0.2016,,1,0.3,"[3,1,2]",0.103837084,stimuli/card_10_transparent.png,10,4,0,4,0,1,,,,,,,,,,
,,,,665f68b8add44deb50c32311,B,2024-06-21_18h23.13.355,Slot Machine Game,2023.1.3,MacIntel,59.88023952,,,,,,,,,,,,,,,,,,,,,,,,,,,320,,,,,,,,,,,,,,,,,,,,,9,10,,,638.1473,5,up,0.2004,,1,0.3,"[3,1,2]",0.741746766,stimuli/card_100_transparent.png,100,5,0,5,0,1,,,,,,,,,,
,,,,665f68b8add44deb50c32311,B,2024-06-21_18h23.13.355,Slot Machine Game,2023.1.3,MacIntel,59.88023952,,,,,,,,,,,,,,,,,,,,,,,,,,,420,,,,,,,,,,,,,,,,,,,,,9,10,,,640.1807,6,up,0.1287,,1,0.3,"[3,1,2]",0.590593374,stimuli/card_100_transparent.png,100,6,0,6,0,1,,,,,,,,,,
,,,,665f68b8add44deb50c32311,B,2024-06-21_18h23.13.355,Slot Machine Game,2023.1.3,MacIntel,59.88023952,,,,,,,,,,,,,,,,,,,,,,,,,,,420,,,,,,,,,,,,,,,,,,,,,9,10,,,642.1304,7,up,0.0951,,1.5,0.3,"[3,1,2]",0.067115949,stimuli/card_0_transparent.png,0,7,0,7,0,1,,,,,,,,,,
,,,,665f68b8add44deb50c32311,B,2024-06-21_18h23.13.355,Slot Machine Game,2023.1.3,MacIntel,59.88023952,,,,,,,,,,,,,,,,,,,,,,,,,,,420,,,,,,,,,,,,,,,,,,,,,9,10,,,644.5306,8,left,0.0599,,0.5,0.3,"[3,1,2]",0.274192627,stimuli/card_0_transparent.png,0,8,0,8,0,1,,,,,,,,,,
,,,,665f68b8add44deb50c32311,B,2024-06-21_18h23.13.355,Slot Machine Game,2023.1.3,MacIntel,59.88023952,,,,,,,,,,,,,,,,,,,,,,,,,,,420,,,,,,,,,,,,,,,,,,,,,9,10,,,645.8976,9,right,1.6252,,1.5,0.3,"[3,1,2]",0.015314967,stimuli/card_0_transparent.png,0,9,0,9,0,1,,,,,,,,,,
,,,,665f68b8add44deb50c32311,B,2024-06-21_18h23.13.355,Slot Machine Game,2023.1.3,MacIntel,59.88023952,,,,,,,,,,,,,,,,,,,,,,,,,,,420,,,,,,,,,,,,,,,,,,,,,9,10,,,649.8471,10,up,0.1768,,0.5,0.3,"[1,3,2]",0.930088144,stimuli/card_0_transparent.png,0,10,0,10,0,1,,,,,,,,,,
,,,,665f68b8add44deb50c32311,B,2024-06-21_18h23.13.355,Slot Machine Game,2023.1.3,MacIntel,59.88023952,,,,,,,,,,,,,,,,,,,,,,,,,,,420,,,,,,,,,,,,,,,,,,,,,9,10,,,651.3312,11,left,0.1271,,0.5,0.3,"[1,3,2]",0.055283757,stimuli/card_0_transparent.png,0,11,0,11,0,1,,,,,,,,,,
,,,,665f68b8add44deb50c32311,B,2024-06-21_18h23.13.355,Slot Machine Game,2023.1.3,MacIntel,59.88023952,,,,,,,,,,,,,,,,,,,,,,,,,,,430,,,,,,,,,,,,,,,,,,,,,9,10,,,652.7803,12,right,0.1879,,1,0.3,"[1,3,2]",0.273881532,stimuli/card_10_transparent.png,10,12,0,12,0,1,,,,,,,,,,
,,,,665f68b8add44deb50c32311,B,2024-06-21_18h23.13.355,Slot Machine Game,2023.1.3,MacIntel,59.88023952,,,,,,,,,,,,,,,,,,,,,,,,,,,440,,,,,,,,,,,,,,,,,,,,,9,10,,,654.7813,13,right,0.1204,,1.5,0.3,"[1,3,2]",0.84283331,stimuli/card_10_transparent.png,10,13,0,13,0,1,,,,,,,,,,
,,,,665f68b8add44deb50c32311,B,2024-06-21_18h23.13.355,Slot Machine Game,2023.1.3,MacIntel,59.88023952,,,,,,,,,,,,,,,,,,,,,,,,,,,540,,,,,,,,,,,,,,,,,,,,,9,10,,,657.2305,14,left,0.6669,,1,0.3,"[1,3,2]",0.985228361,stimuli/card_100_transparent.png,100,14,0,14,0,1,,,,,,,,,,
,,,,665f68b8add44deb50c32311,B,2024-06-21_18h23.13.355,Slot Machine Game,2023.1.3,MacIntel,59.88023952,,,,,,,,,,,,,,,,,,,,,,,,,,,,,,,,,,,659.7149,,,,,,,,,,,,,,,,,,,,,,,,,,,,,,,,,"[830,1030,1310,1020,1120,850,1110,740,540]",8,0,8,0,1,,,,
,,,,665f68b8add44deb50c32311,B,2024-06-21_18h23.13.355,Slot Machine Game,2023.1.3,MacIntel,59.88023952,,,,,,,,,,,,,,,,,,,,,,,,,,,0,,,,,,,,,,,,,,,,,,,,,10,3,"[15,15]","[[3,1,2],[3,1,2]]",664.7262,0,left,0.0168,,1.5,0.3,"[3,1,2]",0.419817138,stimuli/card_0_transparent.png,0,0,0,0,0,1,,,,,,,,,,
,,,,665f68b8add44deb50c32311,B,2024-06-21_18h23.13.355,Slot Machine Game,2023.1.3,MacIntel,59.88023952,,,,,,,,,,,,,,,,,,,,,,,,,,,100,,,,,,,,,,,,,,,,,,,,,10,3,,,667.0642,1,up,0.1672,,1,0.3,"[3,1,2]",0.904048445,stimuli/card_100_transparent.png,100,1,0,1,0,1,,,,,,,,,,
,,,,665f68b8add44deb50c32311,B,2024-06-21_18h23.13.355,Slot Machine Game,2023.1.3,MacIntel,59.88023952,,,,,,,,,,,,,,,,,,,,,,,,,,,200,,,,,,,,,,,,,,,,,,,,,10,3,,,669.0653,2,up,0.0764,,1,0.3,"[3,1,2]",0.742195992,stimuli/card_100_transparent.png,100,2,0,2,0,1,,,,,,,,,,
,,,,665f68b8add44deb50c32311,B,2024-06-21_18h23.13.355,Slot Machine Game,2023.1.3,MacIntel,59.88023952,,,,,,,,,,,,,,,,,,,,,,,,,,,300,,,,,,,,,,,,,,,,,,,,,10,3,,,670.9653,3,up,0.0852,,1,0.3,"[3,1,2]",0.326255498,stimuli/card_100_transparent.png,100,3,0,3,0,1,,,,,,,,,,
,,,,665f68b8add44deb50c32311,B,2024-06-21_18h23.13.355,Slot Machine Game,2023.1.3,MacIntel,59.88023952,,,,,,,,,,,,,,,,,,,,,,,,,,,400,,,,,,,,,,,,,,,,,,,,,10,3,,,672.8822,4,up,0.0601,,0.5,0.3,"[3,1,2]",0.557009191,stimuli/card_100_transparent.png,100,4,0,4,0,1,,,,,,,,,,
,,,,665f68b8add44deb50c32311,B,2024-06-21_18h23.13.355,Slot Machine Game,2023.1.3,MacIntel,59.88023952,,,,,,,,,,,,,,,,,,,,,,,,,,,500,,,,,,,,,,,,,,,,,,,,,10,3,,,674.2655,5,up,0.4447,,1.5,0.3,"[3,1,2]",0.385321756,stimuli/card_100_transparent.png,100,5,0,5,0,1,,,,,,,,,,
,,,,665f68b8add44deb50c32311,B,2024-06-21_18h23.13.355,Slot Machine Game,2023.1.3,MacIntel,59.88023952,,,,,,,,,,,,,,,,,,,,,,,,,,,600,,,,,,,,,,,,,,,,,,,,,10,3,,,677.0323,6,up,0.0839,,1.5,0.3,"[3,1,2]",0.500223796,stimuli/card_100_transparent.png,100,6,0,6,0,1,,,,,,,,,,
,,,,665f68b8add44deb50c32311,B,2024-06-21_18h23.13.355,Slot Machine Game,2023.1.3,MacIntel,59.88023952,,,,,,,,,,,,,,,,,,,,,,,,,,,700,,,,,,,,,,,,,,,,,,,,,10,3,,,679.4491,7,up,0.0453,,0.5,0.3,"[3,1,2]",0.346727703,stimuli/card_100_transparent.png,100,7,0,7,0,1,,,,,,,,,,
,,,,665f68b8add44deb50c32311,B,2024-06-21_18h23.13.355,Slot Machine Game,2023.1.3,MacIntel,59.88023952,,,,,,,,,,,,,,,,,,,,,,,,,,,800,,,,,,,,,,,,,,,,,,,,,10,3,,,680.8158,8,up,0.1665,,1,0.3,"[3,1,2]",0.200101725,stimuli/card_100_transparent.png,100,8,0,8,0,1,,,,,,,,,,
,,,,665f68b8add44deb50c32311,B,2024-06-21_18h23.13.355,Slot Machine Game,2023.1.3,MacIntel,59.88023952,,,,,,,,,,,,,,,,,,,,,,,,,,,900,,,,,,,,,,,,,,,,,,,,,10,3,,,682.8148,9,up,0.0105,,1.5,0.3,"[3,1,2]",0.369127243,stimuli/card_100_transparent.png,100,9,0,9,0,1,,,,,,,,,,
,,,,665f68b8add44deb50c32311,B,2024-06-21_18h23.13.355,Slot Machine Game,2023.1.3,MacIntel,59.88023952,,,,,,,,,,,,,,,,,,,,,,,,,,,910,,,,,,,,,,,,,,,,,,,,,10,3,,,685.1326,10,up,0.0339,,1,0.3,"[3,1,2]",0.170870295,stimuli/card_10_transparent.png,10,10,0,10,0,1,,,,,,,,,,
,,,,665f68b8add44deb50c32311,B,2024-06-21_18h23.13.355,Slot Machine Game,2023.1.3,MacIntel,59.88023952,,,,,,,,,,,,,,,,,,,,,,,,,,,920,,,,,,,,,,,,,,,,,,,,,10,3,,,686.9994,11,right,0.0787,,1,0.3,"[3,1,2]",0.368349187,stimuli/card_10_transparent.png,10,11,0,11,0,1,,,,,,,,,,
,,,,665f68b8add44deb50c32311,B,2024-06-21_18h23.13.355,Slot Machine Game,2023.1.3,MacIntel,59.88023952,,,,,,,,,,,,,,,,,,,,,,,,,,,930,,,,,,,,,,,,,,,,,,,,,10,3,,,688.8995,12,left,0.0865,,1.5,0.3,"[3,1,2]",0.102087085,stimuli/card_10_transparent.png,10,12,0,12,0,1,,,,,,,,,,
,,,,665f68b8add44deb50c32311,B,2024-06-21_18h23.13.355,Slot Machine Game,2023.1.3,MacIntel,59.88023952,,,,,,,,,,,,,,,,,,,,,,,,,,,940,,,,,,,,,,,,,,,,,,,,,10,3,,,691.3163,13,up,1.7172,,0.5,0.3,"[3,1,2]",0.134724271,stimuli/card_10_transparent.png,10,13,0,13,0,1,,,,,,,,,,
,,,,665f68b8add44deb50c32311,B,2024-06-21_18h23.13.355,Slot Machine Game,2023.1.3,MacIntel,59.88023952,,,,,,,,,,,,,,,,,,,,,,,,,,,950,,,,,,,,,,,,,,,,,,,,,10,3,,,694.3666,14,right,0.1454,,0.5,0.3,"[3,1,2]",0.842948658,stimuli/card_10_transparent.png,10,14,0,14,0,1,,,,,,,,,,
,,,,665f68b8add44deb50c32311,B,2024-06-21_18h23.13.355,Slot Machine Game,2023.1.3,MacIntel,59.88023952,,,,,,,,,,,,,,,,,,,,,,,,,,,,,,,,,,,695.833,,,,,,,,,,,,,,,,,,,,,,,,,,,,,,,,,"[830,1030,1310,1020,1120,850,1110,740,540,950]",9,0,9,0,1,,,,
,,,,665f68b8add44deb50c32311,B,2024-06-21_18h23.13.355,Slot Machine Game,2023.1.3,MacIntel,59.88023952,,,,,,,,,,,,,,,,,,,,,,,,,,,,,,,,,,,,,,,,,,,,,,,,,,,,,,,,,,,,,,,,,,,,,,,,,,9,"[830,1030,1310,1020,1120,850,1110,740,540,950]",10.2,2024-06-21_18h34.58.222
