key_resp_welcome_started,key_resp_welcome_keys,key_resp_welcome_rt,key_resp_welcome_duration,prolific_id,path_id,date,expName,psychopyVersion,OS,frameRate,key_resp_instruction1_started,key_resp_instruction1_keys,key_resp_instruction1_rt,key_resp_instruction1_duration,key_resp_instruction2_started,key_resp_instruction2_keys,key_resp_instruction2_rt,key_resp_instruction2_duration,key_resp_instruction3_started,key_resp_instruction3_keys,key_resp_instruction3_rt,key_resp_instruction3_duration,key_resp_instruction4_started,key_resp_instruction4_keys,key_resp_instruction4_rt,key_resp_instruction4_duration,practiceCondition,practice_reward_seqs,practice_trial_started,practice_trial_num,practice_resp_rt,practice_resp_duration,practice_resp_keys,prac_presentationInterval,"practice_reward_seq: 2,1,3",reward_img,cumulative_reward,trial_reward,practice_trials.thisRepN,practice_trials.thisTrialN,practice_trials.thisN,practice_trials.thisIndex,practice_trials.ran,"practice_reward_seq: 2,3,1",block_break_started,"practice_reward_seq: 1,3,2","practice_reward_seq: 3,1,2",practice_end_time,practice_end_keys,practice_end_rt,practice_end_duration,main_instruction_text_started,block_condition,block_order_indices,main_instruction_keys,main_instruction_rt,main_instruction_duration,block_number,block_assignment,current_condition,main_reward_seqs,main_trial_started,main_trial_num,main_trial_keys,main_trial_rt,main_trial_duration,main_presentationInterval,reward_presentation_time,main_reward_seq,reward_rand_val,main_reward_img,current_reward,main_trials.thisRepN,main_trials.thisTrialN,main_trials.thisN,main_trials.thisIndex,main_trials.ran,block_reward,block.thisRepN,block.thisTrialN,block.thisN,block.thisIndex,block.ran,block_reward.length,block_reward_all,reward_amount,date_end_task
0.0006,space,2.3364,,666488720dd0a3d4ef4c7c3e,B,2024-06-24_11h31.27.122,Slot Machine Game,2023.1.3,Win32,59.88023952,,,,,,,,,,,,,,,,,,,,,,,,,,,,,,,,,,,,,,,,,,,,,,,,,,,,,,,,,,,,,,,,,,,,,,,,,,,,,
,,,,666488720dd0a3d4ef4c7c3e,B,2024-06-24_11h31.27.122,Slot Machine Game,2023.1.3,Win32,59.88023952,2.3627,space,7.9553,,,,,,,,,,,,,,,,,,,,,,,,,,,,,,,,,,,,,,,,,,,,,,,,,,,,,,,,,,,,,,,,,,,,,,,,,,
,,,,666488720dd0a3d4ef4c7c3e,B,2024-06-24_11h31.27.122,Slot Machine Game,2023.1.3,Win32,59.88023952,,,,,10.3484,space,33.4246,,,,,,,,,,,,,,,,,,,,,,,,,,,,,,,,,,,,,,,,,,,,,,,,,,,,,,,,,,,,,,,,,,,,,,
,,,,666488720dd0a3d4ef4c7c3e,B,2024-06-24_11h31.27.122,Slot Machine Game,2023.1.3,Win32,59.88023952,,,,,,,,,43.8371,space,9.864,,,,,,,,,,,,,,,,,,,,,,,,,,,,,,,,,,,,,,,,,,,,,,,,,,,,,,,,,,,,,,,,,,
,,,,666488720dd0a3d4ef4c7c3e,B,2024-06-24_11h31.27.122,Slot Machine Game,2023.1.3,Win32,59.88023952,,,,,,,,,,,,,,,,,,,,,,,,,,,,,,,,,,,,,,,,,,,,,,,,,,,,,,,,,,,,,,,,,,,,,,,,,,,,,
,,,,666488720dd0a3d4ef4c7c3e,B,2024-06-24_11h31.27.122,Slot Machine Game,2023.1.3,Win32,59.88023952,,,,,,,,,,,,,195.6734,space,3.6541,,,,,,,,,,,,,,,,,,,,,,,,,,,,,,,,,,,,,,,,,,,,,,,,,,,,,,,,,,,,,,
,,,,666488720dd0a3d4ef4c7c3e,B,2024-06-24_11h31.27.122,Slot Machine Game,2023.1.3,Win32,59.88023952,,,,,,,,,,,,,,,,,"[9,15]","[[2,1,3],[2,3,1]]",199.3624,0,3.6709,,right,1.5,,stimuli/card_0_transparent.png,0,0,0,0,0,0,1,,,,,,,,,,,,,,,,,,,,,,,,,,,,,,,,,,,,,,,,,,,,
,,,,666488720dd0a3d4ef4c7c3e,B,2024-06-24_11h31.27.122,Slot Machine Game,2023.1.3,Win32,59.88023952,,,,,,,,,,,,,,,,,,,205.3577,1,0.4586,,up,1.5,,stimuli/card_10_transparent.png,10,10,1,0,1,0,1,,,,,,,,,,,,,,,,,,,,,,,,,,,,,,,,,,,,,,,,,,,,
,,,,666488720dd0a3d4ef4c7c3e,B,2024-06-24_11h31.27.122,Slot Machine Game,2023.1.3,Win32,59.88023952,,,,,,,,,,,,,,,,,,,208.1376,2,0.3169,,left,1.5,,stimuli/card_10_transparent.png,20,10,2,0,2,0,1,,,,,,,,,,,,,,,,,,,,,,,,,,,,,,,,,,,,,,,,,,,,
,,,,666488720dd0a3d4ef4c7c3e,B,2024-06-24_11h31.27.122,Slot Machine Game,2023.1.3,Win32,59.88023952,,,,,,,,,,,,,,,,,,,210.7887,3,1.6376,,right,0.5,,stimuli/card_10_transparent.png,30,10,3,0,3,0,1,,,,,,,,,,,,,,,,,,,,,,,,,,,,,,,,,,,,,,,,,,,,
,,,,666488720dd0a3d4ef4c7c3e,B,2024-06-24_11h31.27.122,Slot Machine Game,2023.1.3,Win32,59.88023952,,,,,,,,,,,,,,,,,,,213.7564,4,0.6828,,left,0.5,,stimuli/card_10_transparent.png,40,10,4,0,4,0,1,,,,,,,,,,,,,,,,,,,,,,,,,,,,,,,,,,,,,,,,,,,,
,,,,666488720dd0a3d4ef4c7c3e,B,2024-06-24_11h31.27.122,Slot Machine Game,2023.1.3,Win32,59.88023952,,,,,,,,,,,,,,,,,,,215.7738,5,1.9986,,up,1.5,,stimuli/card_100_transparent.png,140,100,5,0,5,0,1,,,,,,,,,,,,,,,,,,,,,,,,,,,,,,,,,,,,,,,,,,,,
,,,,666488720dd0a3d4ef4c7c3e,B,2024-06-24_11h31.27.122,Slot Machine Game,2023.1.3,Win32,59.88023952,,,,,,,,,,,,,,,,,,,220.0927,6,3.3736,,right,0.5,,stimuli/card_0_transparent.png,140,0,6,0,6,0,1,,,,,,,,,,,,,,,,,,,,,,,,,,,,,,,,,,,,,,,,,,,,
,,,,666488720dd0a3d4ef4c7c3e,B,2024-06-24_11h31.27.122,Slot Machine Game,2023.1.3,Win32,59.88023952,,,,,,,,,,,,,,,,,,,224.795,7,0.5355,,left,1.5,,stimuli/card_10_transparent.png,150,10,7,0,7,0,1,,,,,,,,,,,,,,,,,,,,,,,,,,,,,,,,,,,,,,,,,,,,
,,,,666488720dd0a3d4ef4c7c3e,B,2024-06-24_11h31.27.122,Slot Machine Game,2023.1.3,Win32,59.88023952,,,,,,,,,,,,,,,,,,,227.6629,8,0.3014,,right,1.5,,stimuli/card_0_transparent.png,150,0,8,0,8,0,1,,,,,,,,,,,,,,,,,,,,,,,,,,,,,,,,,,,,,,,,,,,,
,,,,666488720dd0a3d4ef4c7c3e,B,2024-06-24_11h31.27.122,Slot Machine Game,2023.1.3,Win32,59.88023952,,,,,,,,,,,,,,,,,,,230.2969,9,0.1539,,right,0.5,,stimuli/card_100_transparent.png,250,100,9,0,9,0,1,,,,,,,,,,,,,,,,,,,,,,,,,,,,,,,,,,,,,,,,,,,,
,,,,666488720dd0a3d4ef4c7c3e,B,2024-06-24_11h31.27.122,Slot Machine Game,2023.1.3,Win32,59.88023952,,,,,,,,,,,,,,,,,,,231.798,10,1.1601,,right,1.5,,stimuli/card_100_transparent.png,350,100,10,0,10,0,1,,,,,,,,,,,,,,,,,,,,,,,,,,,,,,,,,,,,,,,,,,,,
,,,,666488720dd0a3d4ef4c7c3e,B,2024-06-24_11h31.27.122,Slot Machine Game,2023.1.3,Win32,59.88023952,,,,,,,,,,,,,,,,,,,235.2825,11,0.3378,,right,1.5,,stimuli/card_100_transparent.png,450,100,11,0,11,0,1,,,,,,,,,,,,,,,,,,,,,,,,,,,,,,,,,,,,,,,,,,,,
,,,,666488720dd0a3d4ef4c7c3e,B,2024-06-24_11h31.27.122,Slot Machine Game,2023.1.3,Win32,59.88023952,,,,,,,,,,,,,,,,,,,237.9515,12,0.0807,,right,1.5,,stimuli/card_100_transparent.png,550,100,12,0,12,0,1,,,,,,,,,,,,,,,,,,,,,,,,,,,,,,,,,,,,,,,,,,,,
,,,,666488720dd0a3d4ef4c7c3e,B,2024-06-24_11h31.27.122,Slot Machine Game,2023.1.3,Win32,59.88023952,,,,,,,,,,,,,,,,,,,240.373,13,0.4552,,right,1.5,,stimuli/card_100_transparent.png,650,100,13,0,13,0,1,,,,,,,,,,,,,,,,,,,,,,,,,,,,,,,,,,,,,,,,,,,,
,,,,666488720dd0a3d4ef4c7c3e,B,2024-06-24_11h31.27.122,Slot Machine Game,2023.1.3,Win32,59.88023952,,,,,,,,,,,,,,,,,,,243.1533,14,0.1442,,right,0.5,,stimuli/card_100_transparent.png,750,100,14,0,14,0,1,,,,,,,,,,,,,,,,,,,,,,,,,,,,,,,,,,,,,,,,,,,,
,,,,666488720dd0a3d4ef4c7c3e,B,2024-06-24_11h31.27.122,Slot Machine Game,2023.1.3,Win32,59.88023952,,,,,,,,,,,,,,,,,"[6,15]","[[1,3,2],[3,1,2]]",249.6586,0,3.6627,,left,1.5,,stimuli/card_100_transparent.png,100,100,0,0,0,0,1,,244.6506,,,,,,,,,,,,,,,,,,,,,,,,,,,,,,,,,,,,,,,,,,
,,,,666488720dd0a3d4ef4c7c3e,B,2024-06-24_11h31.27.122,Slot Machine Game,2023.1.3,Win32,59.88023952,,,,,,,,,,,,,,,,,,,255.6581,1,1.2713,,left,0.5,,stimuli/card_100_transparent.png,200,100,1,0,1,0,1,,,,,,,,,,,,,,,,,,,,,,,,,,,,,,,,,,,,,,,,,,,,
,,,,666488720dd0a3d4ef4c7c3e,B,2024-06-24_11h31.27.122,Slot Machine Game,2023.1.3,Win32,59.88023952,,,,,,,,,,,,,,,,,,,258.2769,2,0.5179,,left,1,,stimuli/card_0_transparent.png,200,0,2,0,2,0,1,,,,,,,,,,,,,,,,,,,,,,,,,,,,,,,,,,,,,,,,,,,,
,,,,666488720dd0a3d4ef4c7c3e,B,2024-06-24_11h31.27.122,Slot Machine Game,2023.1.3,Win32,59.88023952,,,,,,,,,,,,,,,,,,,260.6272,3,0.2108,,left,1,,stimuli/card_100_transparent.png,300,100,3,0,3,0,1,,,,,,,,,,,,,,,,,,,,,,,,,,,,,,,,,,,,,,,,,,,,
,,,,666488720dd0a3d4ef4c7c3e,B,2024-06-24_11h31.27.122,Slot Machine Game,2023.1.3,Win32,59.88023952,,,,,,,,,,,,,,,,,,,262.6455,4,1.0514,,left,1.5,,stimuli/card_100_transparent.png,400,100,4,0,4,0,1,,,,,,,,,,,,,,,,,,,,,,,,,,,,,,,,,,,,,,,,,,,,
,,,,666488720dd0a3d4ef4c7c3e,B,2024-06-24_11h31.27.122,Slot Machine Game,2023.1.3,Win32,59.88023952,,,,,,,,,,,,,,,,,,,266.0136,5,0.46,,left,1,,stimuli/card_100_transparent.png,500,100,5,0,5,0,1,,,,,,,,,,,,,,,,,,,,,,,,,,,,,,,,,,,,,,,,,,,,
,,,,666488720dd0a3d4ef4c7c3e,B,2024-06-24_11h31.27.122,Slot Machine Game,2023.1.3,Win32,59.88023952,,,,,,,,,,,,,,,,,,,268.3145,6,0.1532,,left,1.5,,stimuli/card_0_transparent.png,500,0,6,0,6,0,1,,,,,,,,,,,,,,,,,,,,,,,,,,,,,,,,,,,,,,,,,,,,
,,,,666488720dd0a3d4ef4c7c3e,B,2024-06-24_11h31.27.122,Slot Machine Game,2023.1.3,Win32,59.88023952,,,,,,,,,,,,,,,,,,,270.799,7,1.2971,,left,1,,stimuli/card_0_transparent.png,500,0,7,0,7,0,1,,,,,,,,,,,,,,,,,,,,,,,,,,,,,,,,,,,,,,,,,,,,
,,,,666488720dd0a3d4ef4c7c3e,B,2024-06-24_11h31.27.122,Slot Machine Game,2023.1.3,Win32,59.88023952,,,,,,,,,,,,,,,,,,,273.9335,8,1.9753,,left,0.5,,stimuli/card_0_transparent.png,500,0,8,0,8,0,1,,,,,,,,,,,,,,,,,,,,,,,,,,,,,,,,,,,,,,,,,,,,
,,,,666488720dd0a3d4ef4c7c3e,B,2024-06-24_11h31.27.122,Slot Machine Game,2023.1.3,Win32,59.88023952,,,,,,,,,,,,,,,,,,,277.2183,9,0.5618,,up,0.5,,stimuli/card_100_transparent.png,600,100,9,0,9,0,1,,,,,,,,,,,,,,,,,,,,,,,,,,,,,,,,,,,,,,,,,,,,
,,,,666488720dd0a3d4ef4c7c3e,B,2024-06-24_11h31.27.122,Slot Machine Game,2023.1.3,Win32,59.88023952,,,,,,,,,,,,,,,,,,,279.1072,10,0.1893,,up,1,,stimuli/card_100_transparent.png,700,100,10,0,10,0,1,,,,,,,,,,,,,,,,,,,,,,,,,,,,,,,,,,,,,,,,,,,,
,,,,666488720dd0a3d4ef4c7c3e,B,2024-06-24_11h31.27.122,Slot Machine Game,2023.1.3,Win32,59.88023952,,,,,,,,,,,,,,,,,,,281.1205,11,0.3314,,up,1,,stimuli/card_100_transparent.png,800,100,11,0,11,0,1,,,,,,,,,,,,,,,,,,,,,,,,,,,,,,,,,,,,,,,,,,,,
,,,,666488720dd0a3d4ef4c7c3e,B,2024-06-24_11h31.27.122,Slot Machine Game,2023.1.3,Win32,59.88023952,,,,,,,,,,,,,,,,,,,283.2714,12,0.2342,,up,0.5,,stimuli/card_100_transparent.png,900,100,12,0,12,0,1,,,,,,,,,,,,,,,,,,,,,,,,,,,,,,,,,,,,,,,,,,,,
,,,,666488720dd0a3d4ef4c7c3e,B,2024-06-24_11h31.27.122,Slot Machine Game,2023.1.3,Win32,59.88023952,,,,,,,,,,,,,,,,,,,284.8217,13,0.1514,,up,1.5,,stimuli/card_100_transparent.png,1000,100,13,0,13,0,1,,,,,,,,,,,,,,,,,,,,,,,,,,,,,,,,,,,,,,,,,,,,
,,,,666488720dd0a3d4ef4c7c3e,B,2024-06-24_11h31.27.122,Slot Machine Game,2023.1.3,Win32,59.88023952,,,,,,,,,,,,,,,,,,,287.2774,14,0.2828,,up,0.5,,stimuli/card_100_transparent.png,1100,100,14,0,14,0,1,,,,,,,,,,,,,,,,,,,,,,,,,,,,,,,,,,,,,,,,,,,,
,,,,666488720dd0a3d4ef4c7c3e,B,2024-06-24_11h31.27.122,Slot Machine Game,2023.1.3,Win32,59.88023952,,,,,,,,,,,,,,,,,,,,,,,,,,,,,,,,,,,288.8903,,,293.8921,space,3.0471,,,,,,,,,,,,,,,,,,,,,,,,,,,,,,,,,,,,,
,,,,666488720dd0a3d4ef4c7c3e,B,2024-06-24_11h31.27.122,Slot Machine Game,2023.1.3,Win32,59.88023952,,,,,,,,,,,,,,,,,,,,,,,,,,,,,,,,,,,,,,,,,,296.9621,2,"[2,4,8,0,1,3,9,6,8,5]",space,3.2655,,,,,,,,,,,,,,,,,,,,,,,,,,,,,,,
,,,,666488720dd0a3d4ef4c7c3e,B,2024-06-24_11h31.27.122,Slot Machine Game,2023.1.3,Win32,59.88023952,,,,,,,,,,,,,,,,,,,,,,,,,,,0,,,,,,,,,,,,,,,,,,,,,1,3,"[15,15]","[[3,1,2],[3,1,2]]",300.2999,0,left,0.8267,,0.5,0.3,"[3,1,2]",0.34549734,stimuli/card_0_transparent.png,0,0,0,0,0,1,,,,,,,,,,
,,,,666488720dd0a3d4ef4c7c3e,B,2024-06-24_11h31.27.122,Slot Machine Game,2023.1.3,Win32,59.88023952,,,,,,,,,,,,,,,,,,,,,,,,,,,0,,,,,,,,,,,,,,,,,,,,,1,3,,,302.4638,1,left,0.4694,,1.5,0.3,"[3,1,2]",0.354958148,stimuli/card_0_transparent.png,0,1,0,1,0,1,,,,,,,,,,
,,,,666488720dd0a3d4ef4c7c3e,B,2024-06-24_11h31.27.122,Slot Machine Game,2023.1.3,Win32,59.88023952,,,,,,,,,,,,,,,,,,,,,,,,,,,100,,,,,,,,,,,,,,,,,,,,,1,3,,,305.2643,2,up,0.1172,,0.5,0.3,"[3,1,2]",0.803733571,stimuli/card_100_transparent.png,100,2,0,2,0,1,,,,,,,,,,
,,,,666488720dd0a3d4ef4c7c3e,B,2024-06-24_11h31.27.122,Slot Machine Game,2023.1.3,Win32,59.88023952,,,,,,,,,,,,,,,,,,,,,,,,,,,200,,,,,,,,,,,,,,,,,,,,,1,3,,,306.7151,3,up,0.7523,,1.5,0.3,"[3,1,2]",0.598555755,stimuli/card_100_transparent.png,100,3,0,3,0,1,,,,,,,,,,
,,,,666488720dd0a3d4ef4c7c3e,B,2024-06-24_11h31.27.122,Slot Machine Game,2023.1.3,Win32,59.88023952,,,,,,,,,,,,,,,,,,,,,,,,,,,300,,,,,,,,,,,,,,,,,,,,,1,3,,,309.7997,4,up,0.505,,1,0.3,"[3,1,2]",0.424190574,stimuli/card_100_transparent.png,100,4,0,4,0,1,,,,,,,,,,
,,,,666488720dd0a3d4ef4c7c3e,B,2024-06-24_11h31.27.122,Slot Machine Game,2023.1.3,Win32,59.88023952,,,,,,,,,,,,,,,,,,,,,,,,,,,400,,,,,,,,,,,,,,,,,,,,,1,3,,,312.1344,5,up,0.3183,,0.5,0.3,"[3,1,2]",0.882259472,stimuli/card_100_transparent.png,100,5,0,5,0,1,,,,,,,,,,
,,,,666488720dd0a3d4ef4c7c3e,B,2024-06-24_11h31.27.122,Slot Machine Game,2023.1.3,Win32,59.88023952,,,,,,,,,,,,,,,,,,,,,,,,,,,400,,,,,,,,,,,,,,,,,,,,,1,3,,,313.7854,6,up,0.1997,,1.5,0.3,"[3,1,2]",0.067433878,stimuli/card_0_transparent.png,0,6,0,6,0,1,,,,,,,,,,
,,,,666488720dd0a3d4ef4c7c3e,B,2024-06-24_11h31.27.122,Slot Machine Game,2023.1.3,Win32,59.88023952,,,,,,,,,,,,,,,,,,,,,,,,,,,500,,,,,,,,,,,,,,,,,,,,,1,3,,,316.3192,7,up,0.1995,,0.5,0.3,"[3,1,2]",0.813643572,stimuli/card_100_transparent.png,100,7,0,7,0,1,,,,,,,,,,
,,,,666488720dd0a3d4ef4c7c3e,B,2024-06-24_11h31.27.122,Slot Machine Game,2023.1.3,Win32,59.88023952,,,,,,,,,,,,,,,,,,,,,,,,,,,600,,,,,,,,,,,,,,,,,,,,,1,3,,,317.8533,8,up,0.4181,,0.5,0.3,"[3,1,2]",0.605167193,stimuli/card_100_transparent.png,100,8,0,8,0,1,,,,,,,,,,
,,,,666488720dd0a3d4ef4c7c3e,B,2024-06-24_11h31.27.122,Slot Machine Game,2023.1.3,Win32,59.88023952,,,,,,,,,,,,,,,,,,,,,,,,,,,700,,,,,,,,,,,,,,,,,,,,,1,3,,,319.6039,9,up,0.1916,,1.5,0.3,"[3,1,2]",0.639434681,stimuli/card_100_transparent.png,100,9,0,9,0,1,,,,,,,,,,
,,,,666488720dd0a3d4ef4c7c3e,B,2024-06-24_11h31.27.122,Slot Machine Game,2023.1.3,Win32,59.88023952,,,,,,,,,,,,,,,,,,,,,,,,,,,800,,,,,,,,,,,,,,,,,,,,,1,3,,,322.1217,10,up,0.2351,,1.5,0.3,"[3,1,2]",0.367871896,stimuli/card_100_transparent.png,100,10,0,10,0,1,,,,,,,,,,
,,,,666488720dd0a3d4ef4c7c3e,B,2024-06-24_11h31.27.122,Slot Machine Game,2023.1.3,Win32,59.88023952,,,,,,,,,,,,,,,,,,,,,,,,,,,900,,,,,,,,,,,,,,,,,,,,,1,3,,,324.69,11,up,0.1174,,1,0.3,"[3,1,2]",0.797673132,stimuli/card_100_transparent.png,100,11,0,11,0,1,,,,,,,,,,
,,,,666488720dd0a3d4ef4c7c3e,B,2024-06-24_11h31.27.122,Slot Machine Game,2023.1.3,Win32,59.88023952,,,,,,,,,,,,,,,,,,,,,,,,,,,1000,,,,,,,,,,,,,,,,,,,,,1,3,,,326.6404,12,up,0.1335,,1,0.3,"[3,1,2]",0.653764142,stimuli/card_100_transparent.png,100,12,0,12,0,1,,,,,,,,,,
,,,,666488720dd0a3d4ef4c7c3e,B,2024-06-24_11h31.27.122,Slot Machine Game,2023.1.3,Win32,59.88023952,,,,,,,,,,,,,,,,,,,,,,,,,,,1100,,,,,,,,,,,,,,,,,,,,,1,3,,,328.608,13,up,0.1509,,1,0.3,"[3,1,2]",0.313427851,stimuli/card_100_transparent.png,100,13,0,13,0,1,,,,,,,,,,
,,,,666488720dd0a3d4ef4c7c3e,B,2024-06-24_11h31.27.122,Slot Machine Game,2023.1.3,Win32,59.88023952,,,,,,,,,,,,,,,,,,,,,,,,,,,1200,,,,,,,,,,,,,,,,,,,,,1,3,,,330.5922,14,up,0.0671,,0.5,0.3,"[3,1,2]",0.407093902,stimuli/card_100_transparent.png,100,14,0,14,0,1,,,,,,,,,,
,,,,666488720dd0a3d4ef4c7c3e,B,2024-06-24_11h31.27.122,Slot Machine Game,2023.1.3,Win32,59.88023952,,,,,,,,,,,,,,,,,,,,,,,,,,,,,,,,,,,331.9927,,,,,,,,,,,,,,,,,,,,,,,,,,,,,,,,,[1200],0,0,0,0,1,,,,
,,,,666488720dd0a3d4ef4c7c3e,B,2024-06-24_11h31.27.122,Slot Machine Game,2023.1.3,Win32,59.88023952,,,,,,,,,,,,,,,,,,,,,,,,,,,10,,,,,,,,,,,,,,,,,,,,,2,5,"[5,15]","[[1,2,3],[3,1,2]]",337.0343,0,up,0.5821,,1,0.3,"[1,2,3]",0.852070314,stimuli/card_10_transparent.png,10,0,0,0,0,1,,,,,,,,,,
,,,,666488720dd0a3d4ef4c7c3e,B,2024-06-24_11h31.27.122,Slot Machine Game,2023.1.3,Win32,59.88023952,,,,,,,,,,,,,,,,,,,,,,,,,,,110,,,,,,,,,,,,,,,,,,,,,2,5,,,339.4465,1,up,1.3411,,0.5,0.3,"[1,2,3]",0.106046534,stimuli/card_100_transparent.png,100,1,0,1,0,1,,,,,,,,,,
,,,,666488720dd0a3d4ef4c7c3e,B,2024-06-24_11h31.27.122,Slot Machine Game,2023.1.3,Win32,59.88023952,,,,,,,,,,,,,,,,,,,,,,,,,,,120,,,,,,,,,,,,,,,,,,,,,2,5,,,342.1143,2,up,0.0198,,1.5,0.3,"[1,2,3]",0.727099114,stimuli/card_10_transparent.png,10,2,0,2,0,1,,,,,,,,,,
,,,,666488720dd0a3d4ef4c7c3e,B,2024-06-24_11h31.27.122,Slot Machine Game,2023.1.3,Win32,59.88023952,,,,,,,,,,,,,,,,,,,,,,,,,,,120,,,,,,,,,,,,,,,,,,,,,2,5,,,344.465,3,right,0.4499,,1,0.3,"[1,2,3]",0.892512202,stimuli/card_0_transparent.png,0,3,0,3,0,1,,,,,,,,,,
,,,,666488720dd0a3d4ef4c7c3e,B,2024-06-24_11h31.27.122,Slot Machine Game,2023.1.3,Win32,59.88023952,,,,,,,,,,,,,,,,,,,,,,,,,,,120,,,,,,,,,,,,,,,,,,,,,2,5,,,346.7496,4,right,0.7355,,0.5,0.3,"[1,2,3]",0.842320022,stimuli/card_0_transparent.png,0,4,0,4,0,1,,,,,,,,,,
,,,,666488720dd0a3d4ef4c7c3e,B,2024-06-24_11h31.27.122,Slot Machine Game,2023.1.3,Win32,59.88023952,,,,,,,,,,,,,,,,,,,,,,,,,,,120,,,,,,,,,,,,,,,,,,,,,2,5,,,348.8167,5,right,1.5519,,0.5,0.3,"[3,1,2]",0.077625014,stimuli/card_0_transparent.png,0,5,0,5,0,1,,,,,,,,,,
,,,,666488720dd0a3d4ef4c7c3e,B,2024-06-24_11h31.27.122,Slot Machine Game,2023.1.3,Win32,59.88023952,,,,,,,,,,,,,,,,,,,,,,,,,,,120,,,,,,,,,,,,,,,,,,,,,2,5,,,351.6851,6,left,0.3171,,1,0.3,"[3,1,2]",0.384953607,stimuli/card_0_transparent.png,0,6,0,6,0,1,,,,,,,,,,
,,,,666488720dd0a3d4ef4c7c3e,B,2024-06-24_11h31.27.122,Slot Machine Game,2023.1.3,Win32,59.88023952,,,,,,,,,,,,,,,,,,,,,,,,,,,220,,,,,,,,,,,,,,,,,,,,,2,5,,,353.8359,7,left,0.4263,,1.5,0.3,"[3,1,2]",0.033560595,stimuli/card_100_transparent.png,100,7,0,7,0,1,,,,,,,,,,
,,,,666488720dd0a3d4ef4c7c3e,B,2024-06-24_11h31.27.122,Slot Machine Game,2023.1.3,Win32,59.88023952,,,,,,,,,,,,,,,,,,,,,,,,,,,320,,,,,,,,,,,,,,,,,,,,,2,5,,,356.5873,8,left,0.1669,,0.5,0.3,"[3,1,2]",0.066561343,stimuli/card_100_transparent.png,100,8,0,8,0,1,,,,,,,,,,
,,,,666488720dd0a3d4ef4c7c3e,B,2024-06-24_11h31.27.122,Slot Machine Game,2023.1.3,Win32,59.88023952,,,,,,,,,,,,,,,,,,,,,,,,,,,320,,,,,,,,,,,,,,,,,,,,,2,5,,,358.0881,9,left,0.2375,,1.5,0.3,"[3,1,2]",0.886052517,stimuli/card_0_transparent.png,0,9,0,9,0,1,,,,,,,,,,
,,,,666488720dd0a3d4ef4c7c3e,B,2024-06-24_11h31.27.122,Slot Machine Game,2023.1.3,Win32,59.88023952,,,,,,,,,,,,,,,,,,,,,,,,,,,320,,,,,,,,,,,,,,,,,,,,,2,5,,,360.6559,10,left,0.185,,1.5,0.3,"[3,1,2]",0.394963308,stimuli/card_0_transparent.png,0,10,0,10,0,1,,,,,,,,,,
,,,,666488720dd0a3d4ef4c7c3e,B,2024-06-24_11h31.27.122,Slot Machine Game,2023.1.3,Win32,59.88023952,,,,,,,,,,,,,,,,,,,,,,,,,,,320,,,,,,,,,,,,,,,,,,,,,2,5,,,363.1736,11,left,0.1913,,1.5,0.3,"[3,1,2]",0.767844118,stimuli/card_0_transparent.png,0,11,0,11,0,1,,,,,,,,,,
,,,,666488720dd0a3d4ef4c7c3e,B,2024-06-24_11h31.27.122,Slot Machine Game,2023.1.3,Win32,59.88023952,,,,,,,,,,,,,,,,,,,,,,,,,,,420,,,,,,,,,,,,,,,,,,,,,2,5,,,365.6915,12,up,0.0998,,0.5,0.3,"[3,1,2]",0.579259911,stimuli/card_100_transparent.png,100,12,0,12,0,1,,,,,,,,,,
,,,,666488720dd0a3d4ef4c7c3e,B,2024-06-24_11h31.27.122,Slot Machine Game,2023.1.3,Win32,59.88023952,,,,,,,,,,,,,,,,,,,,,,,,,,,420,,,,,,,,,,,,,,,,,,,,,2,5,,,367.1254,13,up,0.1931,,1.5,0.3,"[3,1,2]",0.075872004,stimuli/card_0_transparent.png,0,13,0,13,0,1,,,,,,,,,,
,,,,666488720dd0a3d4ef4c7c3e,B,2024-06-24_11h31.27.122,Slot Machine Game,2023.1.3,Win32,59.88023952,,,,,,,,,,,,,,,,,,,,,,,,,,,420,,,,,,,,,,,,,,,,,,,,,2,5,,,369.6433,14,up,0.1221,,1.5,0.3,"[3,1,2]",0.096030097,stimuli/card_0_transparent.png,0,14,0,14,0,1,,,,,,,,,,
,,,,666488720dd0a3d4ef4c7c3e,B,2024-06-24_11h31.27.122,Slot Machine Game,2023.1.3,Win32,59.88023952,,,,,,,,,,,,,,,,,,,,,,,,,,,,,,,,,,,372.0944,,,,,,,,,,,,,,,,,,,,,,,,,,,,,,,,,"[1200,420]",1,0,1,0,1,,,,
,,,,666488720dd0a3d4ef4c7c3e,B,2024-06-24_11h31.27.122,Slot Machine Game,2023.1.3,Win32,59.88023952,,,,,,,,,,,,,,,,,,,,,,,,,,,0,,,,,,,,,,,,,,,,,,,,,3,9,"[8,15]","[[3,2,1],[3,1,2]]",377.1329,0,left,1.5843,,1,0.3,"[3,2,1]",0.93802185,stimuli/card_0_transparent.png,0,0,0,0,0,1,,,,,,,,,,
,,,,666488720dd0a3d4ef4c7c3e,B,2024-06-24_11h31.27.122,Slot Machine Game,2023.1.3,Win32,59.88023952,,,,,,,,,,,,,,,,,,,,,,,,,,,0,,,,,,,,,,,,,,,,,,,,,3,9,,,380.5479,1,left,0.2171,,0.5,0.3,"[3,2,1]",0.491486852,stimuli/card_0_transparent.png,0,1,0,1,0,1,,,,,,,,,,
,,,,666488720dd0a3d4ef4c7c3e,B,2024-06-24_11h31.27.122,Slot Machine Game,2023.1.3,Win32,59.88023952,,,,,,,,,,,,,,,,,,,,,,,,,,,0,,,,,,,,,,,,,,,,,,,,,3,9,,,382.099,2,left,1.3215,,1.5,0.3,"[3,2,1]",0.883053837,stimuli/card_0_transparent.png,0,2,0,2,0,1,,,,,,,,,,
,,,,666488720dd0a3d4ef4c7c3e,B,2024-06-24_11h31.27.122,Slot Machine Game,2023.1.3,Win32,59.88023952,,,,,,,,,,,,,,,,,,,,,,,,,,,10,,,,,,,,,,,,,,,,,,,,,3,9,,,385.7509,3,up,0.2724,,0.5,0.3,"[3,2,1]",0.711723352,stimuli/card_10_transparent.png,10,3,0,3,0,1,,,,,,,,,,
,,,,666488720dd0a3d4ef4c7c3e,B,2024-06-24_11h31.27.122,Slot Machine Game,2023.1.3,Win32,59.88023952,,,,,,,,,,,,,,,,,,,,,,,,,,,20,,,,,,,,,,,,,,,,,,,,,3,9,,,387.3513,4,up,0.0919,,1.5,0.3,"[3,2,1]",0.483656055,stimuli/card_10_transparent.png,10,4,0,4,0,1,,,,,,,,,,
,,,,666488720dd0a3d4ef4c7c3e,B,2024-06-24_11h31.27.122,Slot Machine Game,2023.1.3,Win32,59.88023952,,,,,,,,,,,,,,,,,,,,,,,,,,,30,,,,,,,,,,,,,,,,,,,,,3,9,,,389.769,5,up,0.2935,,1,0.3,"[3,2,1]",0.835921153,stimuli/card_10_transparent.png,10,5,0,5,0,1,,,,,,,,,,
,,,,666488720dd0a3d4ef4c7c3e,B,2024-06-24_11h31.27.122,Slot Machine Game,2023.1.3,Win32,59.88023952,,,,,,,,,,,,,,,,,,,,,,,,,,,130,,,,,,,,,,,,,,,,,,,,,3,9,,,391.8866,6,right,0.0581,,1,0.3,"[3,2,1]",0.876740179,stimuli/card_100_transparent.png,100,6,0,6,0,1,,,,,,,,,,
,,,,666488720dd0a3d4ef4c7c3e,B,2024-06-24_11h31.27.122,Slot Machine Game,2023.1.3,Win32,59.88023952,,,,,,,,,,,,,,,,,,,,,,,,,,,130,,,,,,,,,,,,,,,,,,,,,3,9,,,393.771,7,right,0.3544,,1.5,0.3,"[3,2,1]",0.023546829,stimuli/card_0_transparent.png,0,7,0,7,0,1,,,,,,,,,,
,,,,666488720dd0a3d4ef4c7c3e,B,2024-06-24_11h31.27.122,Slot Machine Game,2023.1.3,Win32,59.88023952,,,,,,,,,,,,,,,,,,,,,,,,,,,140,,,,,,,,,,,,,,,,,,,,,3,9,,,396.4554,8,right,0.1826,,0.5,0.3,"[3,1,2]",0.950560051,stimuli/card_10_transparent.png,10,8,0,8,0,1,,,,,,,,,,
,,,,666488720dd0a3d4ef4c7c3e,B,2024-06-24_11h31.27.122,Slot Machine Game,2023.1.3,Win32,59.88023952,,,,,,,,,,,,,,,,,,,,,,,,,,,150,,,,,,,,,,,,,,,,,,,,,3,9,,,397.9728,9,right,0.1767,,0.5,0.3,"[3,1,2]",0.369107354,stimuli/card_10_transparent.png,10,9,0,9,0,1,,,,,,,,,,
,,,,666488720dd0a3d4ef4c7c3e,B,2024-06-24_11h31.27.122,Slot Machine Game,2023.1.3,Win32,59.88023952,,,,,,,,,,,,,,,,,,,,,,,,,,,160,,,,,,,,,,,,,,,,,,,,,3,9,,,399.4902,10,right,0.0275,,1.5,0.3,"[3,1,2]",0.633965531,stimuli/card_10_transparent.png,10,10,0,10,0,1,,,,,,,,,,
,,,,666488720dd0a3d4ef4c7c3e,B,2024-06-24_11h31.27.122,Slot Machine Game,2023.1.3,Win32,59.88023952,,,,,,,,,,,,,,,,,,,,,,,,,,,170,,,,,,,,,,,,,,,,,,,,,3,9,,,401.8416,11,right,0.0777,,1,0.3,"[3,1,2]",0.605243244,stimuli/card_10_transparent.png,10,11,0,11,0,1,,,,,,,,,,
,,,,666488720dd0a3d4ef4c7c3e,B,2024-06-24_11h31.27.122,Slot Machine Game,2023.1.3,Win32,59.88023952,,,,,,,,,,,,,,,,,,,,,,,,,,,180,,,,,,,,,,,,,,,,,,,,,3,9,,,403.7433,12,right,0.114,,1,0.3,"[3,1,2]",0.696854054,stimuli/card_10_transparent.png,10,12,0,12,0,1,,,,,,,,,,
,,,,666488720dd0a3d4ef4c7c3e,B,2024-06-24_11h31.27.122,Slot Machine Game,2023.1.3,Win32,59.88023952,,,,,,,,,,,,,,,,,,,,,,,,,,,190,,,,,,,,,,,,,,,,,,,,,3,9,,,405.66,13,right,0.0846,,1,0.3,"[3,1,2]",0.469049654,stimuli/card_10_transparent.png,10,13,0,13,0,1,,,,,,,,,,
,,,,666488720dd0a3d4ef4c7c3e,B,2024-06-24_11h31.27.122,Slot Machine Game,2023.1.3,Win32,59.88023952,,,,,,,,,,,,,,,,,,,,,,,,,,,200,,,,,,,,,,,,,,,,,,,,,3,9,,,407.5772,14,right,0.0698,,1,0.3,"[3,1,2]",0.652873667,stimuli/card_10_transparent.png,10,14,0,14,0,1,,,,,,,,,,
,,,,666488720dd0a3d4ef4c7c3e,B,2024-06-24_11h31.27.122,Slot Machine Game,2023.1.3,Win32,59.88023952,,,,,,,,,,,,,,,,,,,,,,,,,,,,,,,,,,,409.4784,,,,,,,,,,,,,,,,,,,,,,,,,,,,,,,,,"[1200,420,200]",2,0,2,0,1,,,,
,,,,666488720dd0a3d4ef4c7c3e,B,2024-06-24_11h31.27.122,Slot Machine Game,2023.1.3,Win32,59.88023952,,,,,,,,,,,,,,,,,,,,,,,,,,,100,,,,,,,,,,,,,,,,,,,,,4,1,"[12,15]","[[2,1,3],[2,3,1]]",414.5074,0,up,2.2897,,1.5,0.3,"[2,1,3]",0.622248052,stimuli/card_100_transparent.png,100,0,0,0,0,1,,,,,,,,,,
,,,,666488720dd0a3d4ef4c7c3e,B,2024-06-24_11h31.27.122,Slot Machine Game,2023.1.3,Win32,59.88023952,,,,,,,,,,,,,,,,,,,,,,,,,,,100,,,,,,,,,,,,,,,,,,,,,4,1,,,419.1158,1,up,0.0174,,1.5,0.3,"[2,1,3]",0.073524862,stimuli/card_0_transparent.png,0,1,0,1,0,1,,,,,,,,,,
,,,,666488720dd0a3d4ef4c7c3e,B,2024-06-24_11h31.27.122,Slot Machine Game,2023.1.3,Win32,59.88023952,,,,,,,,,,,,,,,,,,,,,,,,,,,200,,,,,,,,,,,,,,,,,,,,,4,1,,,421.4673,2,up,0.0842,,1.5,0.3,"[2,1,3]",0.479251727,stimuli/card_100_transparent.png,100,2,0,2,0,1,,,,,,,,,,
,,,,666488720dd0a3d4ef4c7c3e,B,2024-06-24_11h31.27.122,Slot Machine Game,2023.1.3,Win32,59.88023952,,,,,,,,,,,,,,,,,,,,,,,,,,,300,,,,,,,,,,,,,,,,,,,,,4,1,,,423.8849,3,up,0.2682,,0.5,0.3,"[2,1,3]",0.636222002,stimuli/card_100_transparent.png,100,3,0,3,0,1,,,,,,,,,,
,,,,666488720dd0a3d4ef4c7c3e,B,2024-06-24_11h31.27.122,Slot Machine Game,2023.1.3,Win32,59.88023952,,,,,,,,,,,,,,,,,,,,,,,,,,,400,,,,,,,,,,,,,,,,,,,,,4,1,,,425.4854,4,up,0.1937,,1.5,0.3,"[2,1,3]",0.442650336,stimuli/card_100_transparent.png,100,4,0,4,0,1,,,,,,,,,,
,,,,666488720dd0a3d4ef4c7c3e,B,2024-06-24_11h31.27.122,Slot Machine Game,2023.1.3,Win32,59.88023952,,,,,,,,,,,,,,,,,,,,,,,,,,,500,,,,,,,,,,,,,,,,,,,,,4,1,,,428.0033,5,up,0.339,,1.5,0.3,"[2,1,3]",0.858294888,stimuli/card_100_transparent.png,100,5,0,5,0,1,,,,,,,,,,
,,,,666488720dd0a3d4ef4c7c3e,B,2024-06-24_11h31.27.122,Slot Machine Game,2023.1.3,Win32,59.88023952,,,,,,,,,,,,,,,,,,,,,,,,,,,510,,,,,,,,,,,,,,,,,,,,,4,1,,,430.6547,6,up,0.2232,,1,0.3,"[2,1,3]",0.18333726,stimuli/card_10_transparent.png,10,6,0,6,0,1,,,,,,,,,,
,,,,666488720dd0a3d4ef4c7c3e,B,2024-06-24_11h31.27.122,Slot Machine Game,2023.1.3,Win32,59.88023952,,,,,,,,,,,,,,,,,,,,,,,,,,,610,,,,,,,,,,,,,,,,,,,,,4,1,,,432.7055,7,up,0.0035,,1.5,0.3,"[2,1,3]",0.508111874,stimuli/card_100_transparent.png,100,7,0,7,0,1,,,,,,,,,,
,,,,666488720dd0a3d4ef4c7c3e,B,2024-06-24_11h31.27.122,Slot Machine Game,2023.1.3,Win32,59.88023952,,,,,,,,,,,,,,,,,,,,,,,,,,,710,,,,,,,,,,,,,,,,,,,,,4,1,,,435.04,8,up,0.0346,,1,0.3,"[2,1,3]",0.358959396,stimuli/card_100_transparent.png,100,8,0,8,0,1,,,,,,,,,,
,,,,666488720dd0a3d4ef4c7c3e,B,2024-06-24_11h31.27.122,Slot Machine Game,2023.1.3,Win32,59.88023952,,,,,,,,,,,,,,,,,,,,,,,,,,,810,,,,,,,,,,,,,,,,,,,,,4,1,,,436.9074,9,up,0.1847,,1.5,0.3,"[2,1,3]",0.662375113,stimuli/card_100_transparent.png,100,9,0,9,0,1,,,,,,,,,,
,,,,666488720dd0a3d4ef4c7c3e,B,2024-06-24_11h31.27.122,Slot Machine Game,2023.1.3,Win32,59.88023952,,,,,,,,,,,,,,,,,,,,,,,,,,,910,,,,,,,,,,,,,,,,,,,,,4,1,,,439.4252,10,up,0.326,,1.5,0.3,"[2,1,3]",0.492881545,stimuli/card_100_transparent.png,100,10,0,10,0,1,,,,,,,,,,
,,,,666488720dd0a3d4ef4c7c3e,B,2024-06-24_11h31.27.122,Slot Machine Game,2023.1.3,Win32,59.88023952,,,,,,,,,,,,,,,,,,,,,,,,,,,1010,,,,,,,,,,,,,,,,,,,,,4,1,,,442.0764,11,up,1.5626,,1.5,0.3,"[2,1,3]",0.607518919,stimuli/card_100_transparent.png,100,11,0,11,0,1,,,,,,,,,,
,,,,666488720dd0a3d4ef4c7c3e,B,2024-06-24_11h31.27.122,Slot Machine Game,2023.1.3,Win32,59.88023952,,,,,,,,,,,,,,,,,,,,,,,,,,,1010,,,,,,,,,,,,,,,,,,,,,4,1,,,445.9613,12,up,0.0174,,0.5,0.3,"[2,3,1]",0.526876212,stimuli/card_0_transparent.png,0,12,0,12,0,1,,,,,,,,,,
,,,,666488720dd0a3d4ef4c7c3e,B,2024-06-24_11h31.27.122,Slot Machine Game,2023.1.3,Win32,59.88023952,,,,,,,,,,,,,,,,,,,,,,,,,,,1010,,,,,,,,,,,,,,,,,,,,,4,1,,,447.3123,13,up,0.1848,,1,0.3,"[2,3,1]",0.709778347,stimuli/card_0_transparent.png,0,13,0,13,0,1,,,,,,,,,,
,,,,666488720dd0a3d4ef4c7c3e,B,2024-06-24_11h31.27.122,Slot Machine Game,2023.1.3,Win32,59.88023952,,,,,,,,,,,,,,,,,,,,,,,,,,,1010,,,,,,,,,,,,,,,,,,,,,4,1,,,449.33,14,up,0.3116,,1,0.3,"[2,3,1]",0.615247402,stimuli/card_0_transparent.png,0,14,0,14,0,1,,,,,,,,,,
,,,,666488720dd0a3d4ef4c7c3e,B,2024-06-24_11h31.27.122,Slot Machine Game,2023.1.3,Win32,59.88023952,,,,,,,,,,,,,,,,,,,,,,,,,,,,,,,,,,,451.4642,,,,,,,,,,,,,,,,,,,,,,,,,,,,,,,,,"[1200,420,200,1010]",3,0,3,0,1,,,,
,,,,666488720dd0a3d4ef4c7c3e,B,2024-06-24_11h31.27.122,Slot Machine Game,2023.1.3,Win32,59.88023952,,,,,,,,,,,,,,,,,,,,,,,,,,,100,,,,,,,,,,,,,,,,,,,,,5,2,"[6,15]","[[1,3,2],[3,2,1]]",456.5053,0,up,4.2911,,1.5,0.3,"[1,3,2]",0.058561704,stimuli/card_100_transparent.png,100,0,0,0,0,1,,,,,,,,,,
,,,,666488720dd0a3d4ef4c7c3e,B,2024-06-24_11h31.27.122,Slot Machine Game,2023.1.3,Win32,59.88023952,,,,,,,,,,,,,,,,,,,,,,,,,,,100,,,,,,,,,,,,,,,,,,,,,5,2,,,463.1232,1,up,0.0577,,1.5,0.3,"[1,3,2]",0.792331587,stimuli/card_0_transparent.png,0,1,0,1,0,1,,,,,,,,,,
,,,,666488720dd0a3d4ef4c7c3e,B,2024-06-24_11h31.27.122,Slot Machine Game,2023.1.3,Win32,59.88023952,,,,,,,,,,,,,,,,,,,,,,,,,,,100,,,,,,,,,,,,,,,,,,,,,5,2,,,465.5205,2,up,0.1084,,1.5,0.3,"[1,3,2]",0.464346202,stimuli/card_0_transparent.png,0,2,0,2,0,1,,,,,,,,,,
,,,,666488720dd0a3d4ef4c7c3e,B,2024-06-24_11h31.27.122,Slot Machine Game,2023.1.3,Win32,59.88023952,,,,,,,,,,,,,,,,,,,,,,,,,,,100,,,,,,,,,,,,,,,,,,,,,5,2,,,467.9738,3,up,0.1375,,1.5,0.3,"[1,3,2]",0.53828397,stimuli/card_0_transparent.png,0,3,0,3,0,1,,,,,,,,,,
,,,,666488720dd0a3d4ef4c7c3e,B,2024-06-24_11h31.27.122,Slot Machine Game,2023.1.3,Win32,59.88023952,,,,,,,,,,,,,,,,,,,,,,,,,,,110,,,,,,,,,,,,,,,,,,,,,5,2,,,470.4394,4,left,0.0589,,1.5,0.3,"[1,3,2]",0.129983944,stimuli/card_10_transparent.png,10,4,0,4,0,1,,,,,,,,,,
,,,,666488720dd0a3d4ef4c7c3e,B,2024-06-24_11h31.27.122,Slot Machine Game,2023.1.3,Win32,59.88023952,,,,,,,,,,,,,,,,,,,,,,,,,,,210,,,,,,,,,,,,,,,,,,,,,5,2,,,472.8234,5,left,0.2017,,1,0.3,"[1,3,2]",0.889253785,stimuli/card_100_transparent.png,100,5,0,5,0,1,,,,,,,,,,
,,,,666488720dd0a3d4ef4c7c3e,B,2024-06-24_11h31.27.122,Slot Machine Game,2023.1.3,Win32,59.88023952,,,,,,,,,,,,,,,,,,,,,,,,,,,210,,,,,,,,,,,,,,,,,,,,,5,2,,,474.8456,6,left,0.2229,,0.5,0.3,"[3,2,1]",0.86287583,stimuli/card_0_transparent.png,0,6,0,6,0,1,,,,,,,,,,
,,,,666488720dd0a3d4ef4c7c3e,B,2024-06-24_11h31.27.122,Slot Machine Game,2023.1.3,Win32,59.88023952,,,,,,,,,,,,,,,,,,,,,,,,,,,220,,,,,,,,,,,,,,,,,,,,,5,2,,,476.4124,7,left,0.1599,,1.5,0.3,"[3,2,1]",0.101010097,stimuli/card_10_transparent.png,10,7,0,7,0,1,,,,,,,,,,
,,,,666488720dd0a3d4ef4c7c3e,B,2024-06-24_11h31.27.122,Slot Machine Game,2023.1.3,Win32,59.88023952,,,,,,,,,,,,,,,,,,,,,,,,,,,220,,,,,,,,,,,,,,,,,,,,,5,2,,,478.9097,8,left,0.2681,,1.5,0.3,"[3,2,1]",0.70153337,stimuli/card_0_transparent.png,0,8,0,8,0,1,,,,,,,,,,
,,,,666488720dd0a3d4ef4c7c3e,B,2024-06-24_11h31.27.122,Slot Machine Game,2023.1.3,Win32,59.88023952,,,,,,,,,,,,,,,,,,,,,,,,,,,220,,,,,,,,,,,,,,,,,,,,,5,2,,,481.5148,9,left,0.0179,,0.5,0.3,"[3,2,1]",0.847332746,stimuli/card_0_transparent.png,0,9,0,9,0,1,,,,,,,,,,
,,,,666488720dd0a3d4ef4c7c3e,B,2024-06-24_11h31.27.122,Slot Machine Game,2023.1.3,Win32,59.88023952,,,,,,,,,,,,,,,,,,,,,,,,,,,230,,,,,,,,,,,,,,,,,,,,,5,2,,,482.8656,10,up,0.0719,,0.5,0.3,"[3,2,1]",0.421846937,stimuli/card_10_transparent.png,10,10,0,10,0,1,,,,,,,,,,
,,,,666488720dd0a3d4ef4c7c3e,B,2024-06-24_11h31.27.122,Slot Machine Game,2023.1.3,Win32,59.88023952,,,,,,,,,,,,,,,,,,,,,,,,,,,240,,,,,,,,,,,,,,,,,,,,,5,2,,,484.2785,11,up,0.2682,,1,0.3,"[3,2,1]",0.874260096,stimuli/card_10_transparent.png,10,11,0,11,0,1,,,,,,,,,,
,,,,666488720dd0a3d4ef4c7c3e,B,2024-06-24_11h31.27.122,Slot Machine Game,2023.1.3,Win32,59.88023952,,,,,,,,,,,,,,,,,,,,,,,,,,,250,,,,,,,,,,,,,,,,,,,,,5,2,,,486.3795,12,up,0.2185,,1,0.3,"[3,2,1]",0.997442658,stimuli/card_10_transparent.png,10,12,0,12,0,1,,,,,,,,,,
,,,,666488720dd0a3d4ef4c7c3e,B,2024-06-24_11h31.27.122,Slot Machine Game,2023.1.3,Win32,59.88023952,,,,,,,,,,,,,,,,,,,,,,,,,,,260,,,,,,,,,,,,,,,,,,,,,5,2,,,488.4139,13,up,0.1681,,1,0.3,"[3,2,1]",0.351218938,stimuli/card_10_transparent.png,10,13,0,13,0,1,,,,,,,,,,
,,,,666488720dd0a3d4ef4c7c3e,B,2024-06-24_11h31.27.122,Slot Machine Game,2023.1.3,Win32,59.88023952,,,,,,,,,,,,,,,,,,,,,,,,,,,270,,,,,,,,,,,,,,,,,,,,,5,2,,,490.4147,14,up,0.0547,,1,0.3,"[3,2,1]",0.967410321,stimuli/card_10_transparent.png,10,14,0,14,0,1,,,,,,,,,,
,,,,666488720dd0a3d4ef4c7c3e,B,2024-06-24_11h31.27.122,Slot Machine Game,2023.1.3,Win32,59.88023952,,,,,,,,,,,,,,,,,,,,,,,,,,,,,,,,,,,492.316,,,,,,,,,,,,,,,,,,,,,,,,,,,,,,,,,"[1200,420,200,1010,270]",4,0,4,0,1,,,,
,,,,666488720dd0a3d4ef4c7c3e,B,2024-06-24_11h31.27.122,Slot Machine Game,2023.1.3,Win32,59.88023952,,,,,,,,,,,,,,,,,,,,,,,,,,,0,,,,,,,,,,,,,,,,,,,,,6,4,"[7,15]","[[2,3,1],[1,2,3]]",497.3578,0,up,1.4779,,1.5,0.3,"[2,3,1]",0.362323316,stimuli/card_0_transparent.png,0,0,0,0,0,1,,,,,,,,,,
,,,,666488720dd0a3d4ef4c7c3e,B,2024-06-24_11h31.27.122,Slot Machine Game,2023.1.3,Win32,59.88023952,,,,,,,,,,,,,,,,,,,,,,,,,,,0,,,,,,,,,,,,,,,,,,,,,6,4,,,501.1697,1,up,0.2798,,1,0.3,"[2,3,1]",0.552331644,stimuli/card_0_transparent.png,0,1,0,1,0,1,,,,,,,,,,
,,,,666488720dd0a3d4ef4c7c3e,B,2024-06-24_11h31.27.122,Slot Machine Game,2023.1.3,Win32,59.88023952,,,,,,,,,,,,,,,,,,,,,,,,,,,100,,,,,,,,,,,,,,,,,,,,,6,4,,,503.2875,2,right,0.2877,,1,0.3,"[2,3,1]",0.606388985,stimuli/card_100_transparent.png,100,2,0,2,0,1,,,,,,,,,,
,,,,666488720dd0a3d4ef4c7c3e,B,2024-06-24_11h31.27.122,Slot Machine Game,2023.1.3,Win32,59.88023952,,,,,,,,,,,,,,,,,,,,,,,,,,,200,,,,,,,,,,,,,,,,,,,,,6,4,,,505.4047,3,right,0.2801,,0.5,0.3,"[2,3,1]",0.244835201,stimuli/card_100_transparent.png,100,3,0,3,0,1,,,,,,,,,,
,,,,666488720dd0a3d4ef4c7c3e,B,2024-06-24_11h31.27.122,Slot Machine Game,2023.1.3,Win32,59.88023952,,,,,,,,,,,,,,,,,,,,,,,,,,,210,,,,,,,,,,,,,,,,,,,,,6,4,,,506.9945,4,right,0.0514,,1,0.3,"[2,3,1]",0.149661835,stimuli/card_10_transparent.png,10,4,0,4,0,1,,,,,,,,,,
,,,,666488720dd0a3d4ef4c7c3e,B,2024-06-24_11h31.27.122,Slot Machine Game,2023.1.3,Win32,59.88023952,,,,,,,,,,,,,,,,,,,,,,,,,,,210,,,,,,,,,,,,,,,,,,,,,6,4,,,508.8733,5,right,0.1143,,1.5,0.3,"[2,3,1]",0.039602384,stimuli/card_0_transparent.png,0,5,0,5,0,1,,,,,,,,,,
,,,,666488720dd0a3d4ef4c7c3e,B,2024-06-24_11h31.27.122,Slot Machine Game,2023.1.3,Win32,59.88023952,,,,,,,,,,,,,,,,,,,,,,,,,,,310,,,,,,,,,,,,,,,,,,,,,6,4,,,511.3129,6,right,0.1162,,0.5,0.3,"[2,3,1]",0.602986078,stimuli/card_100_transparent.png,100,6,0,6,0,1,,,,,,,,,,
,,,,666488720dd0a3d4ef4c7c3e,B,2024-06-24_11h31.27.122,Slot Machine Game,2023.1.3,Win32,59.88023952,,,,,,,,,,,,,,,,,,,,,,,,,,,310,,,,,,,,,,,,,,,,,,,,,6,4,,,512.7584,7,right,0.0852,,1,0.3,"[1,2,3]",0.962314592,stimuli/card_0_transparent.png,0,7,0,7,0,1,,,,,,,,,,
,,,,666488720dd0a3d4ef4c7c3e,B,2024-06-24_11h31.27.122,Slot Machine Game,2023.1.3,Win32,59.88023952,,,,,,,,,,,,,,,,,,,,,,,,,,,310,,,,,,,,,,,,,,,,,,,,,6,4,,,514.6761,8,right,0.171,,1,0.3,"[1,2,3]",0.242736175,stimuli/card_0_transparent.png,0,8,0,8,0,1,,,,,,,,,,
,,,,666488720dd0a3d4ef4c7c3e,B,2024-06-24_11h31.27.122,Slot Machine Game,2023.1.3,Win32,59.88023952,,,,,,,,,,,,,,,,,,,,,,,,,,,310,,,,,,,,,,,,,,,,,,,,,6,4,,,516.6939,9,right,0.1276,,1,0.3,"[1,2,3]",0.643512498,stimuli/card_0_transparent.png,0,9,0,9,0,1,,,,,,,,,,
,,,,666488720dd0a3d4ef4c7c3e,B,2024-06-24_11h31.27.122,Slot Machine Game,2023.1.3,Win32,59.88023952,,,,,,,,,,,,,,,,,,,,,,,,,,,310,,,,,,,,,,,,,,,,,,,,,6,4,,,518.6488,10,right,0.0015,,1.5,0.3,"[1,2,3]",0.621290628,stimuli/card_0_transparent.png,0,10,0,10,0,1,,,,,,,,,,
,,,,666488720dd0a3d4ef4c7c3e,B,2024-06-24_11h31.27.122,Slot Machine Game,2023.1.3,Win32,59.88023952,,,,,,,,,,,,,,,,,,,,,,,,,,,410,,,,,,,,,,,,,,,,,,,,,6,4,,,520.9784,11,left,0.1345,,1,0.3,"[1,2,3]",0.242745187,stimuli/card_100_transparent.png,100,11,0,11,0,1,,,,,,,,,,
,,,,666488720dd0a3d4ef4c7c3e,B,2024-06-24_11h31.27.122,Slot Machine Game,2023.1.3,Win32,59.88023952,,,,,,,,,,,,,,,,,,,,,,,,,,,510,,,,,,,,,,,,,,,,,,,,,6,4,,,522.9341,12,left,0.1416,,1,0.3,"[1,2,3]",0.462267885,stimuli/card_100_transparent.png,100,12,0,12,0,1,,,,,,,,,,
,,,,666488720dd0a3d4ef4c7c3e,B,2024-06-24_11h31.27.122,Slot Machine Game,2023.1.3,Win32,59.88023952,,,,,,,,,,,,,,,,,,,,,,,,,,,510,,,,,,,,,,,,,,,,,,,,,6,4,,,524.9195,13,left,0.2167,,0.5,0.3,"[1,2,3]",0.032431414,stimuli/card_0_transparent.png,0,13,0,13,0,1,,,,,,,,,,
,,,,666488720dd0a3d4ef4c7c3e,B,2024-06-24_11h31.27.122,Slot Machine Game,2023.1.3,Win32,59.88023952,,,,,,,,,,,,,,,,,,,,,,,,,,,610,,,,,,,,,,,,,,,,,,,,,6,4,,,526.4643,14,left,0.1612,,1,0.3,"[1,2,3]",0.999750689,stimuli/card_100_transparent.png,100,14,0,14,0,1,,,,,,,,,,
,,,,666488720dd0a3d4ef4c7c3e,B,2024-06-24_11h31.27.122,Slot Machine Game,2023.1.3,Win32,59.88023952,,,,,,,,,,,,,,,,,,,,,,,,,,,,,,,,,,,528.4376,,,,,,,,,,,,,,,,,,,,,,,,,,,,,,,,,"[1200,420,200,1010,270,610]",5,0,5,0,1,,,,
,,,,666488720dd0a3d4ef4c7c3e,B,2024-06-24_11h31.27.122,Slot Machine Game,2023.1.3,Win32,59.88023952,,,,,,,,,,,,,,,,,,,,,,,,,,,100,,,,,,,,,,,,,,,,,,,,,7,10,"[10,15]","[[3,1,2],[1,3,2]]",533.4781,0,up,0.9685,,1,0.3,"[3,1,2]",0.381621388,stimuli/card_100_transparent.png,100,0,0,0,0,1,,,,,,,,,,
,,,,666488720dd0a3d4ef4c7c3e,B,2024-06-24_11h31.27.122,Slot Machine Game,2023.1.3,Win32,59.88023952,,,,,,,,,,,,,,,,,,,,,,,,,,,100,,,,,,,,,,,,,,,,,,,,,7,10,,,536.2734,1,up,0.1593,,1.5,0.3,"[3,1,2]",0.010170046,stimuli/card_0_transparent.png,0,1,0,1,0,1,,,,,,,,,,
,,,,666488720dd0a3d4ef4c7c3e,B,2024-06-24_11h31.27.122,Slot Machine Game,2023.1.3,Win32,59.88023952,,,,,,,,,,,,,,,,,,,,,,,,,,,200,,,,,,,,,,,,,,,,,,,,,7,10,,,538.774,2,up,0.1664,,1.5,0.3,"[3,1,2]",0.242604839,stimuli/card_100_transparent.png,100,2,0,2,0,1,,,,,,,,,,
,,,,666488720dd0a3d4ef4c7c3e,B,2024-06-24_11h31.27.122,Slot Machine Game,2023.1.3,Win32,59.88023952,,,,,,,,,,,,,,,,,,,,,,,,,,,210,,,,,,,,,,,,,,,,,,,,,7,10,,,541.2716,3,up,0.1726,,1.5,0.3,"[3,1,2]",0.117031088,stimuli/card_10_transparent.png,10,3,0,3,0,1,,,,,,,,,,
,,,,666488720dd0a3d4ef4c7c3e,B,2024-06-24_11h31.27.122,Slot Machine Game,2023.1.3,Win32,59.88023952,,,,,,,,,,,,,,,,,,,,,,,,,,,310,,,,,,,,,,,,,,,,,,,,,7,10,,,543.7908,4,up,0.268,,1,0.3,"[3,1,2]",0.349860212,stimuli/card_100_transparent.png,100,4,0,4,0,1,,,,,,,,,,
,,,,666488720dd0a3d4ef4c7c3e,B,2024-06-24_11h31.27.122,Slot Machine Game,2023.1.3,Win32,59.88023952,,,,,,,,,,,,,,,,,,,,,,,,,,,410,,,,,,,,,,,,,,,,,,,,,7,10,,,545.8731,5,up,0.2094,,1.5,0.3,"[3,1,2]",0.544443848,stimuli/card_100_transparent.png,100,5,0,5,0,1,,,,,,,,,,
,,,,666488720dd0a3d4ef4c7c3e,B,2024-06-24_11h31.27.122,Slot Machine Game,2023.1.3,Win32,59.88023952,,,,,,,,,,,,,,,,,,,,,,,,,,,510,,,,,,,,,,,,,,,,,,,,,7,10,,,548.4079,6,up,0.151,,1,0.3,"[3,1,2]",0.631815347,stimuli/card_100_transparent.png,100,6,0,6,0,1,,,,,,,,,,
,,,,666488720dd0a3d4ef4c7c3e,B,2024-06-24_11h31.27.122,Slot Machine Game,2023.1.3,Win32,59.88023952,,,,,,,,,,,,,,,,,,,,,,,,,,,610,,,,,,,,,,,,,,,,,,,,,7,10,,,550.3923,7,up,0.0513,,1,0.3,"[3,1,2]",0.606455934,stimuli/card_100_transparent.png,100,7,0,7,0,1,,,,,,,,,,
,,,,666488720dd0a3d4ef4c7c3e,B,2024-06-24_11h31.27.122,Slot Machine Game,2023.1.3,Win32,59.88023952,,,,,,,,,,,,,,,,,,,,,,,,,,,710,,,,,,,,,,,,,,,,,,,,,7,10,,,552.2636,8,up,0.0579,,1.5,0.3,"[3,1,2]",0.564617372,stimuli/card_100_transparent.png,100,8,0,8,0,1,,,,,,,,,,
,,,,666488720dd0a3d4ef4c7c3e,B,2024-06-24_11h31.27.122,Slot Machine Game,2023.1.3,Win32,59.88023952,,,,,,,,,,,,,,,,,,,,,,,,,,,710,,,,,,,,,,,,,,,,,,,,,7,10,,,554.6486,9,up,0.1541,,1,0.3,"[3,1,2]",0.061685589,stimuli/card_0_transparent.png,0,9,0,9,0,1,,,,,,,,,,
,,,,666488720dd0a3d4ef4c7c3e,B,2024-06-24_11h31.27.122,Slot Machine Game,2023.1.3,Win32,59.88023952,,,,,,,,,,,,,,,,,,,,,,,,,,,710,,,,,,,,,,,,,,,,,,,,,7,10,,,556.6488,10,up,0.1178,,1.5,0.3,"[1,3,2]",0.643441249,stimuli/card_0_transparent.png,0,10,0,10,0,1,,,,,,,,,,
,,,,666488720dd0a3d4ef4c7c3e,B,2024-06-24_11h31.27.122,Slot Machine Game,2023.1.3,Win32,59.88023952,,,,,,,,,,,,,,,,,,,,,,,,,,,710,,,,,,,,,,,,,,,,,,,,,7,10,,,559.1006,11,up,0.0217,,0.5,0.3,"[1,3,2]",0.426281927,stimuli/card_0_transparent.png,0,11,0,11,0,1,,,,,,,,,,
,,,,666488720dd0a3d4ef4c7c3e,B,2024-06-24_11h31.27.122,Slot Machine Game,2023.1.3,Win32,59.88023952,,,,,,,,,,,,,,,,,,,,,,,,,,,810,,,,,,,,,,,,,,,,,,,,,7,10,,,560.4637,12,up,0.0548,,0.5,0.3,"[1,3,2]",0.009496987,stimuli/card_100_transparent.png,100,12,0,12,0,1,,,,,,,,,,
,,,,666488720dd0a3d4ef4c7c3e,B,2024-06-24_11h31.27.122,Slot Machine Game,2023.1.3,Win32,59.88023952,,,,,,,,,,,,,,,,,,,,,,,,,,,910,,,,,,,,,,,,,,,,,,,,,7,10,,,561.8674,13,up,0.061,,0.5,0.3,"[1,3,2]",0.012232674,stimuli/card_100_transparent.png,100,13,0,13,0,1,,,,,,,,,,
,,,,666488720dd0a3d4ef4c7c3e,B,2024-06-24_11h31.27.122,Slot Machine Game,2023.1.3,Win32,59.88023952,,,,,,,,,,,,,,,,,,,,,,,,,,,1010,,,,,,,,,,,,,,,,,,,,,7,10,,,563.2534,14,up,0.0013,,1.5,0.3,"[1,3,2]",0.067520217,stimuli/card_100_transparent.png,100,14,0,14,0,1,,,,,,,,,,
,,,,666488720dd0a3d4ef4c7c3e,B,2024-06-24_11h31.27.122,Slot Machine Game,2023.1.3,Win32,59.88023952,,,,,,,,,,,,,,,,,,,,,,,,,,,,,,,,,,,565.5826,,,,,,,,,,,,,,,,,,,,,,,,,,,,,,,,,"[1200,420,200,1010,270,610,1010]",6,0,6,0,1,,,,
,,,,666488720dd0a3d4ef4c7c3e,B,2024-06-24_11h31.27.122,Slot Machine Game,2023.1.3,Win32,59.88023952,,,,,,,,,,,,,,,,,,,,,,,,,,,10,,,,,,,,,,,,,,,,,,,,,8,7,"[9,15]","[[1,3,2],[2,3,1]]",570.6115,0,up,0.5256,,0.5,0.3,"[1,3,2]",0.185664206,stimuli/card_10_transparent.png,10,0,0,0,0,1,,,,,,,,,,
,,,,666488720dd0a3d4ef4c7c3e,B,2024-06-24_11h31.27.122,Slot Machine Game,2023.1.3,Win32,59.88023952,,,,,,,,,,,,,,,,,,,,,,,,,,,10,,,,,,,,,,,,,,,,,,,,,8,7,,,572.4691,1,up,0.0012,,1.5,0.3,"[1,3,2]",0.651733933,stimuli/card_0_transparent.png,0,1,0,1,0,1,,,,,,,,,,
,,,,666488720dd0a3d4ef4c7c3e,B,2024-06-24_11h31.27.122,Slot Machine Game,2023.1.3,Win32,59.88023952,,,,,,,,,,,,,,,,,,,,,,,,,,,10,,,,,,,,,,,,,,,,,,,,,8,7,,,574.8033,2,up,0.033,,1.5,0.3,"[1,3,2]",0.362923881,stimuli/card_0_transparent.png,0,2,0,2,0,1,,,,,,,,,,
,,,,666488720dd0a3d4ef4c7c3e,B,2024-06-24_11h31.27.122,Slot Machine Game,2023.1.3,Win32,59.88023952,,,,,,,,,,,,,,,,,,,,,,,,,,,10,,,,,,,,,,,,,,,,,,,,,8,7,,,577.1748,3,up,0.0013,,1,0.3,"[1,3,2]",0.252160938,stimuli/card_0_transparent.png,0,3,0,3,0,1,,,,,,,,,,
,,,,666488720dd0a3d4ef4c7c3e,B,2024-06-24_11h31.27.122,Slot Machine Game,2023.1.3,Win32,59.88023952,,,,,,,,,,,,,,,,,,,,,,,,,,,20,,,,,,,,,,,,,,,,,,,,,8,7,,,579.0051,4,left,0.168,,0.5,0.3,"[1,3,2]",0.167241355,stimuli/card_10_transparent.png,10,4,0,4,0,1,,,,,,,,,,
,,,,666488720dd0a3d4ef4c7c3e,B,2024-06-24_11h31.27.122,Slot Machine Game,2023.1.3,Win32,59.88023952,,,,,,,,,,,,,,,,,,,,,,,,,,,120,,,,,,,,,,,,,,,,,,,,,8,7,,,580.5057,5,left,0.1184,,1,0.3,"[1,3,2]",0.585151208,stimuli/card_100_transparent.png,100,5,0,5,0,1,,,,,,,,,,
,,,,666488720dd0a3d4ef4c7c3e,B,2024-06-24_11h31.27.122,Slot Machine Game,2023.1.3,Win32,59.88023952,,,,,,,,,,,,,,,,,,,,,,,,,,,220,,,,,,,,,,,,,,,,,,,,,8,7,,,582.4567,6,left,0.221,,1,0.3,"[1,3,2]",0.74967102,stimuli/card_100_transparent.png,100,6,0,6,0,1,,,,,,,,,,
,,,,666488720dd0a3d4ef4c7c3e,B,2024-06-24_11h31.27.122,Slot Machine Game,2023.1.3,Win32,59.88023952,,,,,,,,,,,,,,,,,,,,,,,,,,,320,,,,,,,,,,,,,,,,,,,,,8,7,,,584.4905,7,left,0.1852,,0.5,0.3,"[1,3,2]",0.886002102,stimuli/card_100_transparent.png,100,7,0,7,0,1,,,,,,,,,,
,,,,666488720dd0a3d4ef4c7c3e,B,2024-06-24_11h31.27.122,Slot Machine Game,2023.1.3,Win32,59.88023952,,,,,,,,,,,,,,,,,,,,,,,,,,,420,,,,,,,,,,,,,,,,,,,,,8,7,,,585.9916,8,left,0.168,,1,0.3,"[1,3,2]",0.247402232,stimuli/card_100_transparent.png,100,8,0,8,0,1,,,,,,,,,,
,,,,666488720dd0a3d4ef4c7c3e,B,2024-06-24_11h31.27.122,Slot Machine Game,2023.1.3,Win32,59.88023952,,,,,,,,,,,,,,,,,,,,,,,,,,,430,,,,,,,,,,,,,,,,,,,,,8,7,,,587.9797,9,left,0.1681,,0.5,0.3,"[2,3,1]",0.906382663,stimuli/card_10_transparent.png,10,9,0,9,0,1,,,,,,,,,,
,,,,666488720dd0a3d4ef4c7c3e,B,2024-06-24_11h31.27.122,Slot Machine Game,2023.1.3,Win32,59.88023952,,,,,,,,,,,,,,,,,,,,,,,,,,,440,,,,,,,,,,,,,,,,,,,,,8,7,,,589.476,10,left,0.1635,,0.5,0.3,"[2,3,1]",0.415726044,stimuli/card_10_transparent.png,10,10,0,10,0,1,,,,,,,,,,
,,,,666488720dd0a3d4ef4c7c3e,B,2024-06-24_11h31.27.122,Slot Machine Game,2023.1.3,Win32,59.88023952,,,,,,,,,,,,,,,,,,,,,,,,,,,450,,,,,,,,,,,,,,,,,,,,,8,7,,,590.9772,11,left,0.1348,,1,0.3,"[2,3,1]",0.380972902,stimuli/card_10_transparent.png,10,11,0,11,0,1,,,,,,,,,,
,,,,666488720dd0a3d4ef4c7c3e,B,2024-06-24_11h31.27.122,Slot Machine Game,2023.1.3,Win32,59.88023952,,,,,,,,,,,,,,,,,,,,,,,,,,,460,,,,,,,,,,,,,,,,,,,,,8,7,,,592.9322,12,left,0.0015,,1,0.3,"[2,3,1]",0.362112477,stimuli/card_10_transparent.png,10,12,0,12,0,1,,,,,,,,,,
,,,,666488720dd0a3d4ef4c7c3e,B,2024-06-24_11h31.27.122,Slot Machine Game,2023.1.3,Win32,59.88023952,,,,,,,,,,,,,,,,,,,,,,,,,,,560,,,,,,,,,,,,,,,,,,,,,8,7,,,594.7622,13,right,0.1639,,1.5,0.3,"[2,3,1]",0.576550842,stimuli/card_100_transparent.png,100,13,0,13,0,1,,,,,,,,,,
,,,,666488720dd0a3d4ef4c7c3e,B,2024-06-24_11h31.27.122,Slot Machine Game,2023.1.3,Win32,59.88023952,,,,,,,,,,,,,,,,,,,,,,,,,,,660,,,,,,,,,,,,,,,,,,,,,8,7,,,597.2465,14,right,0.1862,,1.5,0.3,"[2,3,1]",0.582435719,stimuli/card_100_transparent.png,100,14,0,14,0,1,,,,,,,,,,
,,,,666488720dd0a3d4ef4c7c3e,B,2024-06-24_11h31.27.122,Slot Machine Game,2023.1.3,Win32,59.88023952,,,,,,,,,,,,,,,,,,,,,,,,,,,,,,,,,,,599.7522,,,,,,,,,,,,,,,,,,,,,,,,,,,,,,,,,"[1200,420,200,1010,270,610,1010,660]",7,0,7,0,1,,,,
,,,,666488720dd0a3d4ef4c7c3e,B,2024-06-24_11h31.27.122,Slot Machine Game,2023.1.3,Win32,59.88023952,,,,,,,,,,,,,,,,,,,,,,,,,,,100,,,,,,,,,,,,,,,,,,,,,9,9,[15],"[[3,1,2]]",604.755,0,up,0.5445,,1,0.3,"[3,1,2]",0.866785066,stimuli/card_100_transparent.png,100,0,0,0,0,1,,,,,,,,,,
,,,,666488720dd0a3d4ef4c7c3e,B,2024-06-24_11h31.27.122,Slot Machine Game,2023.1.3,Win32,59.88023952,,,,,,,,,,,,,,,,,,,,,,,,,,,200,,,,,,,,,,,,,,,,,,,,,9,9,,,607.1217,1,up,0.0364,,1.5,0.3,"[3,1,2]",0.881661635,stimuli/card_100_transparent.png,100,1,0,1,0,1,,,,,,,,,,
,,,,666488720dd0a3d4ef4c7c3e,B,2024-06-24_11h31.27.122,Slot Machine Game,2023.1.3,Win32,59.88023952,,,,,,,,,,,,,,,,,,,,,,,,,,,300,,,,,,,,,,,,,,,,,,,,,9,9,,,609.49,2,up,0.0515,,1,0.3,"[3,1,2]",0.673914451,stimuli/card_100_transparent.png,100,2,0,2,0,1,,,,,,,,,,
,,,,666488720dd0a3d4ef4c7c3e,B,2024-06-24_11h31.27.122,Slot Machine Game,2023.1.3,Win32,59.88023952,,,,,,,,,,,,,,,,,,,,,,,,,,,400,,,,,,,,,,,,,,,,,,,,,9,9,,,611.3693,3,up,0.0349,,1.5,0.3,"[3,1,2]",0.89618312,stimuli/card_100_transparent.png,100,3,0,3,0,1,,,,,,,,,,
,,,,666488720dd0a3d4ef4c7c3e,B,2024-06-24_11h31.27.122,Slot Machine Game,2023.1.3,Win32,59.88023952,,,,,,,,,,,,,,,,,,,,,,,,,,,500,,,,,,,,,,,,,,,,,,,,,9,9,,,613.7398,4,up,0.0613,,1.5,0.3,"[3,1,2]",0.240464832,stimuli/card_100_transparent.png,100,4,0,4,0,1,,,,,,,,,,
,,,,666488720dd0a3d4ef4c7c3e,B,2024-06-24_11h31.27.122,Slot Machine Game,2023.1.3,Win32,59.88023952,,,,,,,,,,,,,,,,,,,,,,,,,,,600,,,,,,,,,,,,,,,,,,,,,9,9,,,616.1383,5,up,0.0523,,1.5,0.3,"[3,1,2]",0.346483293,stimuli/card_100_transparent.png,100,5,0,5,0,1,,,,,,,,,,
,,,,666488720dd0a3d4ef4c7c3e,B,2024-06-24_11h31.27.122,Slot Machine Game,2023.1.3,Win32,59.88023952,,,,,,,,,,,,,,,,,,,,,,,,,,,700,,,,,,,,,,,,,,,,,,,,,9,9,,,618.5115,6,up,0.209,,1.5,0.3,"[3,1,2]",0.471957298,stimuli/card_100_transparent.png,100,6,0,6,0,1,,,,,,,,,,
,,,,666488720dd0a3d4ef4c7c3e,B,2024-06-24_11h31.27.122,Slot Machine Game,2023.1.3,Win32,59.88023952,,,,,,,,,,,,,,,,,,,,,,,,,,,800,,,,,,,,,,,,,,,,,,,,,9,9,,,621.0406,7,up,0.1339,,1,0.3,"[3,1,2]",0.643220626,stimuli/card_100_transparent.png,100,7,0,7,0,1,,,,,,,,,,
,,,,666488720dd0a3d4ef4c7c3e,B,2024-06-24_11h31.27.122,Slot Machine Game,2023.1.3,Win32,59.88023952,,,,,,,,,,,,,,,,,,,,,,,,,,,810,,,,,,,,,,,,,,,,,,,,,9,9,,,623.0083,8,up,0.1349,,0.5,0.3,"[3,1,2]",0.110789121,stimuli/card_10_transparent.png,10,8,0,8,0,1,,,,,,,,,,
,,,,666488720dd0a3d4ef4c7c3e,B,2024-06-24_11h31.27.122,Slot Machine Game,2023.1.3,Win32,59.88023952,,,,,,,,,,,,,,,,,,,,,,,,,,,820,,,,,,,,,,,,,,,,,,,,,9,9,,,624.4636,9,up,0.2264,,1.5,0.3,"[3,1,2]",0.178231133,stimuli/card_10_transparent.png,10,9,0,9,0,1,,,,,,,,,,
,,,,666488720dd0a3d4ef4c7c3e,B,2024-06-24_11h31.27.122,Slot Machine Game,2023.1.3,Win32,59.88023952,,,,,,,,,,,,,,,,,,,,,,,,,,,830,,,,,,,,,,,,,,,,,,,,,9,9,,,627.0268,10,up,0.2267,,1.5,0.3,"[3,1,2]",0.161482921,stimuli/card_10_transparent.png,10,10,0,10,0,1,,,,,,,,,,
,,,,666488720dd0a3d4ef4c7c3e,B,2024-06-24_11h31.27.122,Slot Machine Game,2023.1.3,Win32,59.88023952,,,,,,,,,,,,,,,,,,,,,,,,,,,930,,,,,,,,,,,,,,,,,,,,,9,9,,,629.5782,11,up,0.2416,,1,0.3,"[3,1,2]",0.666573418,stimuli/card_100_transparent.png,100,11,0,11,0,1,,,,,,,,,,
,,,,666488720dd0a3d4ef4c7c3e,B,2024-06-24_11h31.27.122,Slot Machine Game,2023.1.3,Win32,59.88023952,,,,,,,,,,,,,,,,,,,,,,,,,,,1030,,,,,,,,,,,,,,,,,,,,,9,9,,,631.6622,12,up,0.105,,1,0.3,"[3,1,2]",0.481099933,stimuli/card_100_transparent.png,100,12,0,12,0,1,,,,,,,,,,
,,,,666488720dd0a3d4ef4c7c3e,B,2024-06-24_11h31.27.122,Slot Machine Game,2023.1.3,Win32,59.88023952,,,,,,,,,,,,,,,,,,,,,,,,,,,1130,,,,,,,,,,,,,,,,,,,,,9,9,,,633.5966,13,up,0.0512,,1,0.3,"[3,1,2]",0.727524839,stimuli/card_100_transparent.png,100,13,0,13,0,1,,,,,,,,,,
,,,,666488720dd0a3d4ef4c7c3e,B,2024-06-24_11h31.27.122,Slot Machine Game,2023.1.3,Win32,59.88023952,,,,,,,,,,,,,,,,,,,,,,,,,,,1230,,,,,,,,,,,,,,,,,,,,,9,9,,,635.4849,14,up,0.224,,1.5,0.3,"[3,1,2]",0.96446809,stimuli/card_100_transparent.png,100,14,0,14,0,1,,,,,,,,,,
,,,,666488720dd0a3d4ef4c7c3e,B,2024-06-24_11h31.27.122,Slot Machine Game,2023.1.3,Win32,59.88023952,,,,,,,,,,,,,,,,,,,,,,,,,,,,,,,,,,,638.0309,,,,,,,,,,,,,,,,,,,,,,,,,,,,,,,,,"[1200,420,200,1010,270,610,1010,660,1230]",8,0,8,0,1,,,,
,,,,666488720dd0a3d4ef4c7c3e,B,2024-06-24_11h31.27.122,Slot Machine Game,2023.1.3,Win32,59.88023952,,,,,,,,,,,,,,,,,,,,,,,,,,,0,,,,,,,,,,,,,,,,,,,,,10,6,"[4,10,15]","[[2,3,1],[1,3,2],[3,2,1]]",643.0774,0,up,0.2493,,0.5,0.3,"[2,3,1]",0.525838875,stimuli/card_0_transparent.png,0,0,0,0,0,1,,,,,,,,,,
,,,,666488720dd0a3d4ef4c7c3e,B,2024-06-24_11h31.27.122,Slot Machine Game,2023.1.3,Win32,59.88023952,,,,,,,,,,,,,,,,,,,,,,,,,,,0,,,,,,,,,,,,,,,,,,,,,10,6,,,644.6511,1,up,0.1028,,0.5,0.3,"[2,3,1]",0.971275612,stimuli/card_0_transparent.png,0,1,0,1,0,1,,,,,,,,,,
,,,,666488720dd0a3d4ef4c7c3e,B,2024-06-24_11h31.27.122,Slot Machine Game,2023.1.3,Win32,59.88023952,,,,,,,,,,,,,,,,,,,,,,,,,,,100,,,,,,,,,,,,,,,,,,,,,10,6,,,646.0851,2,left,0.22,,0.5,0.3,"[2,3,1]",0.159189891,stimuli/card_100_transparent.png,100,2,0,2,0,1,,,,,,,,,,
,,,,666488720dd0a3d4ef4c7c3e,B,2024-06-24_11h31.27.122,Slot Machine Game,2023.1.3,Win32,59.88023952,,,,,,,,,,,,,,,,,,,,,,,,,,,200,,,,,,,,,,,,,,,,,,,,,10,6,,,647.6359,3,left,0.0331,,1.5,0.3,"[2,3,1]",0.106063481,stimuli/card_100_transparent.png,100,3,0,3,0,1,,,,,,,,,,
,,,,666488720dd0a3d4ef4c7c3e,B,2024-06-24_11h31.27.122,Slot Machine Game,2023.1.3,Win32,59.88023952,,,,,,,,,,,,,,,,,,,,,,,,,,,300,,,,,,,,,,,,,,,,,,,,,10,6,,,650.0036,4,left,0.0726,,0.5,0.3,"[1,3,2]",0.569254494,stimuli/card_100_transparent.png,100,4,0,4,0,1,,,,,,,,,,
,,,,666488720dd0a3d4ef4c7c3e,B,2024-06-24_11h31.27.122,Slot Machine Game,2023.1.3,Win32,59.88023952,,,,,,,,,,,,,,,,,,,,,,,,,,,400,,,,,,,,,,,,,,,,,,,,,10,6,,,651.4042,5,left,0.1831,,1,0.3,"[1,3,2]",0.421931313,stimuli/card_100_transparent.png,100,5,0,5,0,1,,,,,,,,,,
,,,,666488720dd0a3d4ef4c7c3e,B,2024-06-24_11h31.27.122,Slot Machine Game,2023.1.3,Win32,59.88023952,,,,,,,,,,,,,,,,,,,,,,,,,,,400,,,,,,,,,,,,,,,,,,,,,10,6,,,653.4219,6,left,0.1834,,1,0.3,"[1,3,2]",0.078273997,stimuli/card_0_transparent.png,0,6,0,6,0,1,,,,,,,,,,
,,,,666488720dd0a3d4ef4c7c3e,B,2024-06-24_11h31.27.122,Slot Machine Game,2023.1.3,Win32,59.88023952,,,,,,,,,,,,,,,,,,,,,,,,,,,500,,,,,,,,,,,,,,,,,,,,,10,6,,,655.4394,7,left,0.7854,,1.5,0.3,"[1,3,2]",0.771063952,stimuli/card_100_transparent.png,100,7,0,7,0,1,,,,,,,,,,
,,,,666488720dd0a3d4ef4c7c3e,B,2024-06-24_11h31.27.122,Slot Machine Game,2023.1.3,Win32,59.88023952,,,,,,,,,,,,,,,,,,,,,,,,,,,510,,,,,,,,,,,,,,,,,,,,,10,6,,,658.5573,8,left,0.1186,,1.5,0.3,"[1,3,2]",0.179690853,stimuli/card_10_transparent.png,10,8,0,8,0,1,,,,,,,,,,
,,,,666488720dd0a3d4ef4c7c3e,B,2024-06-24_11h31.27.122,Slot Machine Game,2023.1.3,Win32,59.88023952,,,,,,,,,,,,,,,,,,,,,,,,,,,610,,,,,,,,,,,,,,,,,,,,,10,6,,,661.0084,9,left,0.0515,,1.5,0.3,"[1,3,2]",0.673054256,stimuli/card_100_transparent.png,100,9,0,9,0,1,,,,,,,,,,
,,,,666488720dd0a3d4ef4c7c3e,B,2024-06-24_11h31.27.122,Slot Machine Game,2023.1.3,Win32,59.88023952,,,,,,,,,,,,,,,,,,,,,,,,,,,610,,,,,,,,,,,,,,,,,,,,,10,6,,,663.3928,10,left,0.1498,,1.5,0.3,"[3,2,1]",0.506876439,stimuli/card_0_transparent.png,0,10,0,10,0,1,,,,,,,,,,
,,,,666488720dd0a3d4ef4c7c3e,B,2024-06-24_11h31.27.122,Slot Machine Game,2023.1.3,Win32,59.88023952,,,,,,,,,,,,,,,,,,,,,,,,,,,610,,,,,,,,,,,,,,,,,,,,,10,6,,,665.877,11,left,0.1068,,1,0.3,"[3,2,1]",0.373769441,stimuli/card_0_transparent.png,0,11,0,11,0,1,,,,,,,,,,
,,,,666488720dd0a3d4ef4c7c3e,B,2024-06-24_11h31.27.122,Slot Machine Game,2023.1.3,Win32,59.88023952,,,,,,,,,,,,,,,,,,,,,,,,,,,620,,,,,,,,,,,,,,,,,,,,,10,6,,,667.8118,12,right,0.1669,,0.5,0.3,"[3,2,1]",0.151201066,stimuli/card_10_transparent.png,10,12,0,12,0,1,,,,,,,,,,
,,,,666488720dd0a3d4ef4c7c3e,B,2024-06-24_11h31.27.122,Slot Machine Game,2023.1.3,Win32,59.88023952,,,,,,,,,,,,,,,,,,,,,,,,,,,720,,,,,,,,,,,,,,,,,,,,,10,6,,,669.3124,13,right,0.0513,,0.5,0.3,"[3,2,1]",0.920519328,stimuli/card_100_transparent.png,100,13,0,13,0,1,,,,,,,,,,
,,,,666488720dd0a3d4ef4c7c3e,B,2024-06-24_11h31.27.122,Slot Machine Game,2023.1.3,Win32,59.88023952,,,,,,,,,,,,,,,,,,,,,,,,,,,820,,,,,,,,,,,,,,,,,,,,,10,6,,,670.6845,14,right,0.1684,,1.5,0.3,"[3,2,1]",0.267050078,stimuli/card_100_transparent.png,100,14,0,14,0,1,,,,,,,,,,
,,,,666488720dd0a3d4ef4c7c3e,B,2024-06-24_11h31.27.122,Slot Machine Game,2023.1.3,Win32,59.88023952,,,,,,,,,,,,,,,,,,,,,,,,,,,,,,,,,,,673.1847,,,,,,,,,,,,,,,,,,,,,,,,,,,,,,,,,"[1200,420,200,1010,270,610,1010,660,1230,820]",9,0,9,0,1,,,,
,,,,666488720dd0a3d4ef4c7c3e,B,2024-06-24_11h31.27.122,Slot Machine Game,2023.1.3,Win32,59.88023952,,,,,,,,,,,,,,,,,,,,,,,,,,,,,,,,,,,,,,,,,,,,,,,,,,,,,,,,,,,,,,,,,,,,,,,,,,9,"[1200,420,200,1010,270,610,1010,660,1230,820]",6.6,2024-06-24_11h42.49.664
