key_resp_welcome_started,key_resp_welcome_keys,key_resp_welcome_rt,key_resp_welcome_duration,prolific_id,path_id,date,expName,psychopyVersion,OS,frameRate,key_resp_instruction1_started,key_resp_instruction1_keys,key_resp_instruction1_rt,key_resp_instruction1_duration,key_resp_instruction2_started,key_resp_instruction2_keys,key_resp_instruction2_rt,key_resp_instruction2_duration,key_resp_instruction3_started,key_resp_instruction3_keys,key_resp_instruction3_rt,key_resp_instruction3_duration,key_resp_instruction4_started,key_resp_instruction4_keys,key_resp_instruction4_rt,key_resp_instruction4_duration,practiceCondition,practice_reward_seqs,practice_trial_started,practice_trial_num,practice_resp_rt,practice_resp_duration,practice_resp_keys,prac_presentationInterval,"practice_reward_seq: 2,1,3",reward_img,cumulative_reward,trial_reward,practice_trials.thisRepN,practice_trials.thisTrialN,practice_trials.thisN,practice_trials.thisIndex,practice_trials.ran,"practice_reward_seq: 2,3,1",block_break_started,"practice_reward_seq: 1,3,2","practice_reward_seq: 3,1,2",practice_end_time,practice_end_keys,practice_end_rt,practice_end_duration,main_instruction_text_started,block_condition,block_order_indices,main_instruction_keys,main_instruction_rt,main_instruction_duration,block_number,block_assignment,current_condition,main_reward_seqs,main_trial_started,main_trial_num,main_trial_keys,main_trial_rt,main_trial_duration,main_presentationInterval,reward_presentation_time,main_reward_seq,reward_rand_val,main_reward_img,current_reward,main_trials.thisRepN,main_trials.thisTrialN,main_trials.thisN,main_trials.thisIndex,main_trials.ran,block_reward,block.thisRepN,block.thisTrialN,block.thisN,block.thisIndex,block.ran,block_reward.length,block_reward_all,reward_amount,date_end_task
0.0003,m,4.9897,0.0011,666826860cf905282f9e3421,A,2024-07-01_16h52.49.768,Slot Machine Game,2023.1.3,Win32,3.750937734,,,,,,,,,,,,,,,,,,,,,,,,,,,,,,,,,,,,,,,,,,,,,,,,,,,,,,,,,,,,,,,,,,,,,,,,,,,,,
,,,,666826860cf905282f9e3421,A,2024-07-01_16h52.49.768,Slot Machine Game,2023.1.3,Win32,3.750937734,5.1728,j,15.8662,0.0004,,,,,,,,,,,,,,,,,,,,,,,,,,,,,,,,,,,,,,,,,,,,,,,,,,,,,,,,,,,,,,,,,,,,,,,,,
,,,,666826860cf905282f9e3421,A,2024-07-01_16h52.49.768,Slot Machine Game,2023.1.3,Win32,3.750937734,,,,,21.3943,m,64.0596,,,,,,,,,,,,,,,,,,,,,,,,,,,,,,,,,,,,,,,,,,,,,,,,,,,,,,,,,,,,,,,,,,,,,,
,,,,666826860cf905282f9e3421,A,2024-07-01_16h52.49.768,Slot Machine Game,2023.1.3,Win32,3.750937734,,,,,,,,,85.7487,k,18.0034,0.0003,,,,,,,,,,,,,,,,,,,,,,,,,,,,,,,,,,,,,,,,,,,,,,,,,,,,,,,,,,,,,,,,,
,,,,666826860cf905282f9e3421,A,2024-07-01_16h52.49.768,Slot Machine Game,2023.1.3,Win32,3.750937734,,,,,,,,,,,,,,,,,,,,,,,,,,,,,,,,,,,,,,,,,,,,,,,,,,,,,,,,,,,,,,,,,,,,,,,,,,,,,
,,,,666826860cf905282f9e3421,A,2024-07-01_16h52.49.768,Slot Machine Game,2023.1.3,Win32,3.750937734,,,,,,,,,,,,,326.1339,space,7.852,0.0007,,,,,,,,,,,,,,,,,,,,,,,,,,,,,,,,,,,,,,,,,,,,,,,,,,,,,,,,,,,,,
,,,,666826860cf905282f9e3421,A,2024-07-01_16h52.49.768,Slot Machine Game,2023.1.3,Win32,3.750937734,,,,,,,,,,,,,,,,,"[9,15]","[[2,1,3],[2,3,1]]",334.2857,0,2.8308,,left,1,,stimuli/card_10_transparent.png,10,10,0,0,0,0,1,,,,,,,,,,,,,,,,,,,,,,,,,,,,,,,,,,,,,,,,,,,,
,,,,666826860cf905282f9e3421,A,2024-07-01_16h52.49.768,Slot Machine Game,2023.1.3,Win32,3.750937734,,,,,,,,,,,,,,,,,,,339.3426,1,1.8176,0.0003,right,1.5,,stimuli/card_0_transparent.png,10,0,1,0,1,0,1,,,,,,,,,,,,,,,,,,,,,,,,,,,,,,,,,,,,,,,,,,,,
,,,,666826860cf905282f9e3421,A,2024-07-01_16h52.49.768,Slot Machine Game,2023.1.3,Win32,3.750937734,,,,,,,,,,,,,,,,,,,343.6408,2,2.2916,,right,1.5,,stimuli/card_0_transparent.png,10,0,2,0,2,0,1,,,,,,,,,,,,,,,,,,,,,,,,,,,,,,,,,,,,,,,,,,,,
,,,,666826860cf905282f9e3421,A,2024-07-01_16h52.49.768,Slot Machine Game,2023.1.3,Win32,3.750937734,,,,,,,,,,,,,,,,,,,348.5404,3,1.1207,,up,0.5,,stimuli/card_100_transparent.png,110,100,3,0,3,0,1,,,,,,,,,,,,,,,,,,,,,,,,,,,,,,,,,,,,,,,,,,,,
,,,,666826860cf905282f9e3421,A,2024-07-01_16h52.49.768,Slot Machine Game,2023.1.3,Win32,3.750937734,,,,,,,,,,,,,,,,,,,351.3003,4,1.7634,,up,1.5,,stimuli/card_10_transparent.png,120,10,4,0,4,0,1,,,,,,,,,,,,,,,,,,,,,,,,,,,,,,,,,,,,,,,,,,,,
,,,,666826860cf905282f9e3421,A,2024-07-01_16h52.49.768,Slot Machine Game,2023.1.3,Win32,3.750937734,,,,,,,,,,,,,,,,,,,355.5449,5,1.9861,,right,1,,stimuli/card_0_transparent.png,120,0,5,0,5,0,1,,,,,,,,,,,,,,,,,,,,,,,,,,,,,,,,,,,,,,,,,,,,
,,,,666826860cf905282f9e3421,A,2024-07-01_16h52.49.768,Slot Machine Game,2023.1.3,Win32,3.750937734,,,,,,,,,,,,,,,,,,,360.1359,6,1.7026,,right,0.5,,stimuli/card_10_transparent.png,130,10,6,0,6,0,1,,,,,,,,,,,,,,,,,,,,,,,,,,,,,,,,,,,,,,,,,,,,
,,,,666826860cf905282f9e3421,A,2024-07-01_16h52.49.768,Slot Machine Game,2023.1.3,Win32,3.750937734,,,,,,,,,,,,,,,,,,,363.5276,7,1.4676,,left,1.5,,stimuli/card_10_transparent.png,140,10,7,0,7,0,1,,,,,,,,,,,,,,,,,,,,,,,,,,,,,,,,,,,,,,,,,,,,
,,,,666826860cf905282f9e3421,A,2024-07-01_16h52.49.768,Slot Machine Game,2023.1.3,Win32,3.750937734,,,,,,,,,,,,,,,,,,,367.4392,8,1.5372,0.0004,left,1.5,,stimuli/card_10_transparent.png,150,10,8,0,8,0,1,,,,,,,,,,,,,,,,,,,,,,,,,,,,,,,,,,,,,,,,,,,,
,,,,666826860cf905282f9e3421,A,2024-07-01_16h52.49.768,Slot Machine Game,2023.1.3,Win32,3.750937734,,,,,,,,,,,,,,,,,,,371.6126,9,1.1659,,up,0.5,,stimuli/card_0_transparent.png,150,0,9,0,9,0,1,,,,,,,,,,,,,,,,,,,,,,,,,,,,,,,,,,,,,,,,,,,,
,,,,666826860cf905282f9e3421,A,2024-07-01_16h52.49.768,Slot Machine Game,2023.1.3,Win32,3.750937734,,,,,,,,,,,,,,,,,,,374.4048,10,2.1601,,left,1,,stimuli/card_10_transparent.png,160,10,10,0,10,0,1,,,,,,,,,,,,,,,,,,,,,,,,,,,,,,,,,,,,,,,,,,,,
,,,,666826860cf905282f9e3421,A,2024-07-01_16h52.49.768,Slot Machine Game,2023.1.3,Win32,3.750937734,,,,,,,,,,,,,,,,,,,378.5878,11,1.596,0.0004,up,1,,stimuli/card_0_transparent.png,160,0,11,0,11,0,1,,,,,,,,,,,,,,,,,,,,,,,,,,,,,,,,,,,,,,,,,,,,
,,,,666826860cf905282f9e3421,A,2024-07-01_16h52.49.768,Slot Machine Game,2023.1.3,Win32,3.750937734,,,,,,,,,,,,,,,,,,,382.2566,12,1.082,,right,1.5,,stimuli/card_100_transparent.png,260,100,12,0,12,0,1,,,,,,,,,,,,,,,,,,,,,,,,,,,,,,,,,,,,,,,,,,,,
,,,,666826860cf905282f9e3421,A,2024-07-01_16h52.49.768,Slot Machine Game,2023.1.3,Win32,3.750937734,,,,,,,,,,,,,,,,,,,386.2502,13,1.3418,,right,0.5,,stimuli/card_100_transparent.png,360,100,13,0,13,0,1,,,,,,,,,,,,,,,,,,,,,,,,,,,,,,,,,,,,,,,,,,,,
,,,,666826860cf905282f9e3421,A,2024-07-01_16h52.49.768,Slot Machine Game,2023.1.3,Win32,3.750937734,,,,,,,,,,,,,,,,,,,388.9526,14,1.6788,0.0006,right,1.5,,stimuli/card_100_transparent.png,460,100,14,0,14,0,1,,,,,,,,,,,,,,,,,,,,,,,,,,,,,,,,,,,,,,,,,,,,
,,,,666826860cf905282f9e3421,A,2024-07-01_16h52.49.768,Slot Machine Game,2023.1.3,Win32,3.750937734,,,,,,,,,,,,,,,,,"[6,15]","[[1,3,2],[3,1,2]]",398.5601,0,2.8187,,left,1,,stimuli/card_100_transparent.png,100,100,0,0,0,0,1,,393.616,,,,,,,,,,,,,,,,,,,,,,,,,,,,,,,,,,,,,,,,,,
,,,,666826860cf905282f9e3421,A,2024-07-01_16h52.49.768,Slot Machine Game,2023.1.3,Win32,3.750937734,,,,,,,,,,,,,,,,,,,403.7959,1,1.0135,0.0004,right,1,,stimuli/card_10_transparent.png,110,10,1,0,1,0,1,,,,,,,,,,,,,,,,,,,,,,,,,,,,,,,,,,,,,,,,,,,,
,,,,666826860cf905282f9e3421,A,2024-07-01_16h52.49.768,Slot Machine Game,2023.1.3,Win32,3.750937734,,,,,,,,,,,,,,,,,,,406.9007,2,2.4759,0.0002,left,1.5,,stimuli/card_0_transparent.png,110,0,2,0,2,0,1,,,,,,,,,,,,,,,,,,,,,,,,,,,,,,,,,,,,,,,,,,,,
,,,,666826860cf905282f9e3421,A,2024-07-01_16h52.49.768,Slot Machine Game,2023.1.3,Win32,3.750937734,,,,,,,,,,,,,,,,,,,412.1664,3,0.8927,,up,1.5,,stimuli/card_0_transparent.png,110,0,3,0,3,0,1,,,,,,,,,,,,,,,,,,,,,,,,,,,,,,,,,,,,,,,,,,,,
,,,,666826860cf905282f9e3421,A,2024-07-01_16h52.49.768,Slot Machine Game,2023.1.3,Win32,3.750937734,,,,,,,,,,,,,,,,,,,415.5268,4,0.4678,,up,1,,stimuli/card_0_transparent.png,110,0,4,0,4,0,1,,,,,,,,,,,,,,,,,,,,,,,,,,,,,,,,,,,,,,,,,,,,
,,,,666826860cf905282f9e3421,A,2024-07-01_16h52.49.768,Slot Machine Game,2023.1.3,Win32,3.750937734,,,,,,,,,,,,,,,,,,,418.1327,5,1.7879,0.0003,up,1,,stimuli/card_100_transparent.png,210,100,5,0,5,0,1,,,,,,,,,,,,,,,,,,,,,,,,,,,,,,,,,,,,,,,,,,,,
,,,,666826860cf905282f9e3421,A,2024-07-01_16h52.49.768,Slot Machine Game,2023.1.3,Win32,3.750937734,,,,,,,,,,,,,,,,,,,422.0058,6,1.0624,,up,0.5,,stimuli/card_100_transparent.png,310,100,6,0,6,0,1,,,,,,,,,,,,,,,,,,,,,,,,,,,,,,,,,,,,,,,,,,,,
,,,,666826860cf905282f9e3421,A,2024-07-01_16h52.49.768,Slot Machine Game,2023.1.3,Win32,3.750937734,,,,,,,,,,,,,,,,,,,424.7159,7,0.8874,,up,1,,stimuli/card_100_transparent.png,410,100,7,0,7,0,1,,,,,,,,,,,,,,,,,,,,,,,,,,,,,,,,,,,,,,,,,,,,
,,,,666826860cf905282f9e3421,A,2024-07-01_16h52.49.768,Slot Machine Game,2023.1.3,Win32,3.750937734,,,,,,,,,,,,,,,,,,,427.9383,8,1.0306,,right,1,,stimuli/card_10_transparent.png,420,10,8,0,8,0,1,,,,,,,,,,,,,,,,,,,,,,,,,,,,,,,,,,,,,,,,,,,,
,,,,666826860cf905282f9e3421,A,2024-07-01_16h52.49.768,Slot Machine Game,2023.1.3,Win32,3.750937734,,,,,,,,,,,,,,,,,,,431.0291,9,0.6888,,right,1,,stimuli/card_10_transparent.png,430,10,9,0,9,0,1,,,,,,,,,,,,,,,,,,,,,,,,,,,,,,,,,,,,,,,,,,,,
,,,,666826860cf905282f9e3421,A,2024-07-01_16h52.49.768,Slot Machine Game,2023.1.3,Win32,3.750937734,,,,,,,,,,,,,,,,,,,434.0171,10,0.2909,0.0003,right,0.5,,stimuli/card_10_transparent.png,440,10,10,0,10,0,1,,,,,,,,,,,,,,,,,,,,,,,,,,,,,,,,,,,,,,,,,,,,
,,,,666826860cf905282f9e3421,A,2024-07-01_16h52.49.768,Slot Machine Game,2023.1.3,Win32,3.750937734,,,,,,,,,,,,,,,,,,,435.9618,11,1.7766,0.0003,left,1,,stimuli/card_0_transparent.png,440,0,11,0,11,0,1,,,,,,,,,,,,,,,,,,,,,,,,,,,,,,,,,,,,,,,,,,,,
,,,,666826860cf905282f9e3421,A,2024-07-01_16h52.49.768,Slot Machine Game,2023.1.3,Win32,3.750937734,,,,,,,,,,,,,,,,,,,439.8816,12,0.993,0.0004,left,1.5,,stimuli/card_0_transparent.png,440,0,12,0,12,0,1,,,,,,,,,,,,,,,,,,,,,,,,,,,,,,,,,,,,,,,,,,,,
,,,,666826860cf905282f9e3421,A,2024-07-01_16h52.49.768,Slot Machine Game,2023.1.3,Win32,3.750937734,,,,,,,,,,,,,,,,,,,443.3504,13,0.9904,0.0003,left,1,,stimuli/card_100_transparent.png,540,100,13,0,13,0,1,,,,,,,,,,,,,,,,,,,,,,,,,,,,,,,,,,,,,,,,,,,,
,,,,666826860cf905282f9e3421,A,2024-07-01_16h52.49.768,Slot Machine Game,2023.1.3,Win32,3.750937734,,,,,,,,,,,,,,,,,,,446.6641,14,1.6161,,left,1,,stimuli/card_0_transparent.png,540,0,14,0,14,0,1,,,,,,,,,,,,,,,,,,,,,,,,,,,,,,,,,,,,,,,,,,,,
,,,,666826860cf905282f9e3421,A,2024-07-01_16h52.49.768,Slot Machine Game,2023.1.3,Win32,3.750937734,,,,,,,,,,,,,,,,,,,,,,,,,,,,,,,,,,,450.2671,,,455.2814,space,4.2024,0.0004,,,,,,,,,,,,,,,,,,,,,,,,,,,,,,,,,,,,
,,,,666826860cf905282f9e3421,A,2024-07-01_16h52.49.768,Slot Machine Game,2023.1.3,Win32,3.750937734,,,,,,,,,,,,,,,,,,,,,,,,,,,,,,,,,,,,,,,,,,459.7984,3,"[0,4,6,3,5,7,8,1,9,2]",space,8.5162,,,,,,,,,,,,,,,,,,,,,,,,,,,,,,,
,,,,666826860cf905282f9e3421,A,2024-07-01_16h52.49.768,Slot Machine Game,2023.1.3,Win32,3.750937734,,,,,,,,,,,,,,,,,,,,,,,,,,,10,,,,,,,,,,,,,,,,,,,,,1,1,"[12,15]","[[2,1,3],[2,3,1]]",468.5758,0,left,1.702,,0.5,0.3,"[2,1,3]",0.939023024,stimuli/card_10_transparent.png,10,0,0,0,0,1,,,,,,,,,,
,,,,666826860cf905282f9e3421,A,2024-07-01_16h52.49.768,Slot Machine Game,2023.1.3,Win32,3.750937734,,,,,,,,,,,,,,,,,,,,,,,,,,,110,,,,,,,,,,,,,,,,,,,,,1,1,,,472.0377,1,right,0.8683,,1.5,0.3,"[2,1,3]",0.091027947,stimuli/card_100_transparent.png,100,1,0,1,0,1,,,,,,,,,,
,,,,666826860cf905282f9e3421,A,2024-07-01_16h52.49.768,Slot Machine Game,2023.1.3,Win32,3.750937734,,,,,,,,,,,,,,,,,,,,,,,,,,,110,,,,,,,,,,,,,,,,,,,,,1,1,,,475.6678,2,right,0.3775,,1,0.3,"[2,1,3]",0.444818258,stimuli/card_0_transparent.png,0,2,0,2,0,1,,,,,,,,,,
,,,,666826860cf905282f9e3421,A,2024-07-01_16h52.49.768,Slot Machine Game,2023.1.3,Win32,3.750937734,,,,,,,,,,,,,,,,,,,,,,,,,,,110,,,,,,,,,,,,,,,,,,,,,1,1,,,478.1453,3,right,0.7691,,1,0.3,"[2,1,3]",0.983944306,stimuli/card_0_transparent.png,0,3,0,3,0,1,,,,,,,,,,
,,,,666826860cf905282f9e3421,A,2024-07-01_16h52.49.768,Slot Machine Game,2023.1.3,Win32,3.750937734,,,,,,,,,,,,,,,,,,,,,,,,,,,210,,,,,,,,,,,,,,,,,,,,,1,1,,,481.5393,4,up,0.8527,,1.5,0.3,"[2,1,3]",0.535166479,stimuli/card_100_transparent.png,100,4,0,4,0,1,,,,,,,,,,
,,,,666826860cf905282f9e3421,A,2024-07-01_16h52.49.768,Slot Machine Game,2023.1.3,Win32,3.750937734,,,,,,,,,,,,,,,,,,,,,,,,,,,220,,,,,,,,,,,,,,,,,,,,,1,1,,,484.9358,5,up,0.616,,1,0.3,"[2,1,3]",0.196773557,stimuli/card_10_transparent.png,10,5,0,5,0,1,,,,,,,,,,
,,,,666826860cf905282f9e3421,A,2024-07-01_16h52.49.768,Slot Machine Game,2023.1.3,Win32,3.750937734,,,,,,,,,,,,,,,,,,,,,,,,,,,220,,,,,,,,,,,,,,,,,,,,,1,1,,,487.8673,6,left,0.9682,,1,0.3,"[2,1,3]",0.077021804,stimuli/card_0_transparent.png,0,6,0,6,0,1,,,,,,,,,,
,,,,666826860cf905282f9e3421,A,2024-07-01_16h52.49.768,Slot Machine Game,2023.1.3,Win32,3.750937734,,,,,,,,,,,,,,,,,,,,,,,,,,,320,,,,,,,,,,,,,,,,,,,,,1,1,,,490.9555,7,up,0.7354,0.0003,1,0.3,"[2,1,3]",0.754229363,stimuli/card_100_transparent.png,100,7,0,7,0,1,,,,,,,,,,
,,,,666826860cf905282f9e3421,A,2024-07-01_16h52.49.768,Slot Machine Game,2023.1.3,Win32,3.750937734,,,,,,,,,,,,,,,,,,,,,,,,,,,420,,,,,,,,,,,,,,,,,,,,,1,1,,,494.0776,8,up,0.5715,,1.5,0.3,"[2,1,3]",0.784074637,stimuli/card_100_transparent.png,100,8,0,8,0,1,,,,,,,,,,
,,,,666826860cf905282f9e3421,A,2024-07-01_16h52.49.768,Slot Machine Game,2023.1.3,Win32,3.750937734,,,,,,,,,,,,,,,,,,,,,,,,,,,520,,,,,,,,,,,,,,,,,,,,,1,1,,,497.3022,9,up,0.6228,,0.5,0.3,"[2,1,3]",0.360146348,stimuli/card_100_transparent.png,100,9,0,9,0,1,,,,,,,,,,
,,,,666826860cf905282f9e3421,A,2024-07-01_16h52.49.768,Slot Machine Game,2023.1.3,Win32,3.750937734,,,,,,,,,,,,,,,,,,,,,,,,,,,530,,,,,,,,,,,,,,,,,,,,,1,1,,,499.498,10,up,0.3643,,1.5,0.3,"[2,1,3]",0.100726454,stimuli/card_10_transparent.png,10,10,0,10,0,1,,,,,,,,,,
,,,,666826860cf905282f9e3421,A,2024-07-01_16h52.49.768,Slot Machine Game,2023.1.3,Win32,3.750937734,,,,,,,,,,,,,,,,,,,,,,,,,,,540,,,,,,,,,,,,,,,,,,,,,1,1,,,502.3379,11,left,1.1081,0.0003,1,0.3,"[2,1,3]",0.96886471,stimuli/card_10_transparent.png,10,11,0,11,0,1,,,,,,,,,,
,,,,666826860cf905282f9e3421,A,2024-07-01_16h52.49.768,Slot Machine Game,2023.1.3,Win32,3.750937734,,,,,,,,,,,,,,,,,,,,,,,,,,,640,,,,,,,,,,,,,,,,,,,,,1,1,,,505.1603,12,right,0.9574,0.0002,0.5,0.3,"[2,3,1]",0.300796933,stimuli/card_100_transparent.png,100,12,0,12,0,1,,,,,,,,,,
,,,,666826860cf905282f9e3421,A,2024-07-01_16h52.49.768,Slot Machine Game,2023.1.3,Win32,3.750937734,,,,,,,,,,,,,,,,,,,,,,,,,,,740,,,,,,,,,,,,,,,,,,,,,1,1,,,507.5337,13,right,0.8397,,1.5,0.3,"[2,3,1]",0.929605641,stimuli/card_100_transparent.png,100,13,0,13,0,1,,,,,,,,,,
,,,,666826860cf905282f9e3421,A,2024-07-01_16h52.49.768,Slot Machine Game,2023.1.3,Win32,3.750937734,,,,,,,,,,,,,,,,,,,,,,,,,,,840,,,,,,,,,,,,,,,,,,,,,1,1,,,510.9804,14,right,0.7016,0.0003,0.5,0.3,"[2,3,1]",0.854683655,stimuli/card_100_transparent.png,100,14,0,14,0,1,,,,,,,,,,
,,,,666826860cf905282f9e3421,A,2024-07-01_16h52.49.768,Slot Machine Game,2023.1.3,Win32,3.750937734,,,,,,,,,,,,,,,,,,,,,,,,,,,,,,,,,,,513.3362,,,,,,,,,,,,,,,,,,,,,,,,,,,,,,,,,[840],0,0,0,0,1,,,,
,,,,666826860cf905282f9e3421,A,2024-07-01_16h52.49.768,Slot Machine Game,2023.1.3,Win32,3.750937734,,,,,,,,,,,,,,,,,,,,,,,,,,,0,,,,,,,,,,,,,,,,,,,,,2,5,"[5,15]","[[1,2,3],[3,1,2]]",518.1848,0,right,0.3129,,1,0.3,"[1,2,3]",0.975467485,stimuli/card_0_transparent.png,0,0,0,0,0,1,,,,,,,,,,
,,,,666826860cf905282f9e3421,A,2024-07-01_16h52.49.768,Slot Machine Game,2023.1.3,Win32,3.750937734,,,,,,,,,,,,,,,,,,,,,,,,,,,0,,,,,,,,,,,,,,,,,,,,,2,5,,,520.5526,1,right,0.3309,,1.5,0.3,"[1,2,3]",0.498963527,stimuli/card_0_transparent.png,0,1,0,1,0,1,,,,,,,,,,
,,,,666826860cf905282f9e3421,A,2024-07-01_16h52.49.768,Slot Machine Game,2023.1.3,Win32,3.750937734,,,,,,,,,,,,,,,,,,,,,,,,,,,100,,,,,,,,,,,,,,,,,,,,,2,5,,,523.6301,2,left,1.2067,0.0005,0.5,0.3,"[1,2,3]",0.97359023,stimuli/card_100_transparent.png,100,2,0,2,0,1,,,,,,,,,,
,,,,666826860cf905282f9e3421,A,2024-07-01_16h52.49.768,Slot Machine Game,2023.1.3,Win32,3.750937734,,,,,,,,,,,,,,,,,,,,,,,,,,,200,,,,,,,,,,,,,,,,,,,,,2,5,,,526.34,3,left,1.0521,0.0005,1,0.3,"[1,2,3]",0.672445918,stimuli/card_100_transparent.png,100,3,0,3,0,1,,,,,,,,,,
,,,,666826860cf905282f9e3421,A,2024-07-01_16h52.49.768,Slot Machine Game,2023.1.3,Win32,3.750937734,,,,,,,,,,,,,,,,,,,,,,,,,,,200,,,,,,,,,,,,,,,,,,,,,2,5,,,529.7602,4,left,0.314,,1,0.3,"[1,2,3]",0.068740862,stimuli/card_0_transparent.png,0,4,0,4,0,1,,,,,,,,,,
,,,,666826860cf905282f9e3421,A,2024-07-01_16h52.49.768,Slot Machine Game,2023.1.3,Win32,3.750937734,,,,,,,,,,,,,,,,,,,,,,,,,,,200,,,,,,,,,,,,,,,,,,,,,2,5,,,532.1277,5,left,0.5564,,1,0.3,"[3,1,2]",0.288942126,stimuli/card_0_transparent.png,0,5,0,5,0,1,,,,,,,,,,
,,,,666826860cf905282f9e3421,A,2024-07-01_16h52.49.768,Slot Machine Game,2023.1.3,Win32,3.750937734,,,,,,,,,,,,,,,,,,,,,,,,,,,200,,,,,,,,,,,,,,,,,,,,,2,5,,,534.7607,6,left,0.013,,1.5,0.3,"[3,1,2]",0.508921994,stimuli/card_0_transparent.png,0,6,0,6,0,1,,,,,,,,,,
,,,,666826860cf905282f9e3421,A,2024-07-01_16h52.49.768,Slot Machine Game,2023.1.3,Win32,3.750937734,,,,,,,,,,,,,,,,,,,,,,,,,,,210,,,,,,,,,,,,,,,,,,,,,2,5,,,537.721,7,right,0.0161,0.0005,0.5,0.3,"[3,1,2]",0.404677467,stimuli/card_10_transparent.png,10,7,0,7,0,1,,,,,,,,,,
,,,,666826860cf905282f9e3421,A,2024-07-01_16h52.49.768,Slot Machine Game,2023.1.3,Win32,3.750937734,,,,,,,,,,,,,,,,,,,,,,,,,,,210,,,,,,,,,,,,,,,,,,,,,2,5,,,539.6216,8,up,0.7449,,0.5,0.3,"[3,1,2]",0.009049571,stimuli/card_0_transparent.png,0,8,0,8,0,1,,,,,,,,,,
,,,,666826860cf905282f9e3421,A,2024-07-01_16h52.49.768,Slot Machine Game,2023.1.3,Win32,3.750937734,,,,,,,,,,,,,,,,,,,,,,,,,,,220,,,,,,,,,,,,,,,,,,,,,2,5,,,541.9945,9,up,0.5858,,1.5,0.3,"[3,1,2]",0.112936338,stimuli/card_10_transparent.png,10,9,0,9,0,1,,,,,,,,,,
,,,,666826860cf905282f9e3421,A,2024-07-01_16h52.49.768,Slot Machine Game,2023.1.3,Win32,3.750937734,,,,,,,,,,,,,,,,,,,,,,,,,,,320,,,,,,,,,,,,,,,,,,,,,2,5,,,545.1038,10,left,1.8465,,0.5,0.3,"[3,1,2]",0.079541712,stimuli/card_100_transparent.png,100,10,0,10,0,1,,,,,,,,,,
,,,,666826860cf905282f9e3421,A,2024-07-01_16h52.49.768,Slot Machine Game,2023.1.3,Win32,3.750937734,,,,,,,,,,,,,,,,,,,,,,,,,,,320,,,,,,,,,,,,,,,,,,,,,2,5,,,548.5253,11,left,1.0467,0.0003,1,0.3,"[3,1,2]",0.286210394,stimuli/card_0_transparent.png,0,11,0,11,0,1,,,,,,,,,,
,,,,666826860cf905282f9e3421,A,2024-07-01_16h52.49.768,Slot Machine Game,2023.1.3,Win32,3.750937734,,,,,,,,,,,,,,,,,,,,,,,,,,,320,,,,,,,,,,,,,,,,,,,,,2,5,,,551.7608,12,left,0.364,,0.5,0.3,"[3,1,2]",0.34210934,stimuli/card_0_transparent.png,0,12,0,12,0,1,,,,,,,,,,
,,,,666826860cf905282f9e3421,A,2024-07-01_16h52.49.768,Slot Machine Game,2023.1.3,Win32,3.750937734,,,,,,,,,,,,,,,,,,,,,,,,,,,330,,,,,,,,,,,,,,,,,,,,,2,5,,,553.8397,13,right,0.8677,,0.5,0.3,"[3,1,2]",0.751921958,stimuli/card_10_transparent.png,10,13,0,13,0,1,,,,,,,,,,
,,,,666826860cf905282f9e3421,A,2024-07-01_16h52.49.768,Slot Machine Game,2023.1.3,Win32,3.750937734,,,,,,,,,,,,,,,,,,,,,,,,,,,340,,,,,,,,,,,,,,,,,,,,,2,5,,,556.3841,14,right,0.3105,0.0002,1,0.3,"[3,1,2]",0.764940676,stimuli/card_10_transparent.png,10,14,0,14,0,1,,,,,,,,,,
,,,,666826860cf905282f9e3421,A,2024-07-01_16h52.49.768,Slot Machine Game,2023.1.3,Win32,3.750937734,,,,,,,,,,,,,,,,,,,,,,,,,,,,,,,,,,,558.7329,,,,,,,,,,,,,,,,,,,,,,,,,,,,,,,,,"[840,340]",1,0,1,0,1,,,,
,,,,666826860cf905282f9e3421,A,2024-07-01_16h52.49.768,Slot Machine Game,2023.1.3,Win32,3.750937734,,,,,,,,,,,,,,,,,,,,,,,,,,,0,,,,,,,,,,,,,,,,,,,,,3,7,"[9,15]","[[1,3,2],[2,3,1]]",563.6502,0,up,0.743,0.0002,0.5,0.3,"[1,3,2]",0.587399518,stimuli/card_0_transparent.png,0,0,0,0,0,1,,,,,,,,,,
,,,,666826860cf905282f9e3421,A,2024-07-01_16h52.49.768,Slot Machine Game,2023.1.3,Win32,3.750937734,,,,,,,,,,,,,,,,,,,,,,,,,,,100,,,,,,,,,,,,,,,,,,,,,3,7,,,566.0367,1,left,0.5788,,1.5,0.3,"[1,3,2]",0.345676918,stimuli/card_100_transparent.png,100,1,0,1,0,1,,,,,,,,,,
,,,,666826860cf905282f9e3421,A,2024-07-01_16h52.49.768,Slot Machine Game,2023.1.3,Win32,3.750937734,,,,,,,,,,,,,,,,,,,,,,,,,,,200,,,,,,,,,,,,,,,,,,,,,3,7,,,569.0922,2,left,0.3191,9.99999E-05,1,0.3,"[1,3,2]",0.37331863,stimuli/card_100_transparent.png,100,2,0,2,0,1,,,,,,,,,,
,,,,666826860cf905282f9e3421,A,2024-07-01_16h52.49.768,Slot Machine Game,2023.1.3,Win32,3.750937734,,,,,,,,,,,,,,,,,,,,,,,,,,,210,,,,,,,,,,,,,,,,,,,,,3,7,,,571.5268,3,right,1.1798,0.0003,1.5,0.3,"[1,3,2]",0.475319942,stimuli/card_10_transparent.png,10,3,0,3,0,1,,,,,,,,,,
,,,,666826860cf905282f9e3421,A,2024-07-01_16h52.49.768,Slot Machine Game,2023.1.3,Win32,3.750937734,,,,,,,,,,,,,,,,,,,,,,,,,,,210,,,,,,,,,,,,,,,,,,,,,3,7,,,575.0176,4,up,0.3715,,1,0.3,"[1,3,2]",0.484875519,stimuli/card_0_transparent.png,0,4,0,4,0,1,,,,,,,,,,
,,,,666826860cf905282f9e3421,A,2024-07-01_16h52.49.768,Slot Machine Game,2023.1.3,Win32,3.750937734,,,,,,,,,,,,,,,,,,,,,,,,,,,210,,,,,,,,,,,,,,,,,,,,,3,7,,,577.2658,5,up,0.8657,0.0003,1,0.3,"[1,3,2]",0.271421507,stimuli/card_0_transparent.png,0,5,0,5,0,1,,,,,,,,,,
,,,,666826860cf905282f9e3421,A,2024-07-01_16h52.49.768,Slot Machine Game,2023.1.3,Win32,3.750937734,,,,,,,,,,,,,,,,,,,,,,,,,,,310,,,,,,,,,,,,,,,,,,,,,3,7,,,580.1038,6,left,0.011,,1.5,0.3,"[1,3,2]",0.524291528,stimuli/card_100_transparent.png,100,6,0,6,0,1,,,,,,,,,,
,,,,666826860cf905282f9e3421,A,2024-07-01_16h52.49.768,Slot Machine Game,2023.1.3,Win32,3.750937734,,,,,,,,,,,,,,,,,,,,,,,,,,,410,,,,,,,,,,,,,,,,,,,,,3,7,,,582.746,7,left,0.3469,,1,0.3,"[1,3,2]",0.580260552,stimuli/card_100_transparent.png,100,7,0,7,0,1,,,,,,,,,,
,,,,666826860cf905282f9e3421,A,2024-07-01_16h52.49.768,Slot Machine Game,2023.1.3,Win32,3.750937734,,,,,,,,,,,,,,,,,,,,,,,,,,,510,,,,,,,,,,,,,,,,,,,,,3,7,,,585.47,8,left,0.5194,,1,0.3,"[1,3,2]",0.407157486,stimuli/card_100_transparent.png,100,8,0,8,0,1,,,,,,,,,,
,,,,666826860cf905282f9e3421,A,2024-07-01_16h52.49.768,Slot Machine Game,2023.1.3,Win32,3.750937734,,,,,,,,,,,,,,,,,,,,,,,,,,,520,,,,,,,,,,,,,,,,,,,,,3,7,,,588.5825,9,left,0.3004,,0.5,0.3,"[2,3,1]",0.803331482,stimuli/card_10_transparent.png,10,9,0,9,0,1,,,,,,,,,,
,,,,666826860cf905282f9e3421,A,2024-07-01_16h52.49.768,Slot Machine Game,2023.1.3,Win32,3.750937734,,,,,,,,,,,,,,,,,,,,,,,,,,,520,,,,,,,,,,,,,,,,,,,,,3,7,,,590.6037,10,left,0.5225,0.0002,0.5,0.3,"[2,3,1]",0.06705506,stimuli/card_0_transparent.png,0,10,0,10,0,1,,,,,,,,,,
,,,,666826860cf905282f9e3421,A,2024-07-01_16h52.49.768,Slot Machine Game,2023.1.3,Win32,3.750937734,,,,,,,,,,,,,,,,,,,,,,,,,,,520,,,,,,,,,,,,,,,,,,,,,3,7,,,592.8245,11,right,0.5792,0.0002,0.5,0.3,"[2,3,1]",0.093772785,stimuli/card_0_transparent.png,0,11,0,11,0,1,,,,,,,,,,
,,,,666826860cf905282f9e3421,A,2024-07-01_16h52.49.768,Slot Machine Game,2023.1.3,Win32,3.750937734,,,,,,,,,,,,,,,,,,,,,,,,,,,620,,,,,,,,,,,,,,,,,,,,,3,7,,,594.7898,12,right,0.3723,0.0003,1,0.3,"[2,3,1]",0.481061947,stimuli/card_100_transparent.png,100,12,0,12,0,1,,,,,,,,,,
,,,,666826860cf905282f9e3421,A,2024-07-01_16h52.49.768,Slot Machine Game,2023.1.3,Win32,3.750937734,,,,,,,,,,,,,,,,,,,,,,,,,,,630,,,,,,,,,,,,,,,,,,,,,3,7,,,596.8113,13,right,0.5854,,1,0.3,"[2,3,1]",0.108649225,stimuli/card_10_transparent.png,10,13,0,13,0,1,,,,,,,,,,
,,,,666826860cf905282f9e3421,A,2024-07-01_16h52.49.768,Slot Machine Game,2023.1.3,Win32,3.750937734,,,,,,,,,,,,,,,,,,,,,,,,,,,630,,,,,,,,,,,,,,,,,,,,,3,7,,,599.5817,14,up,0.3788,0.0004,0.5,0.3,"[2,3,1]",0.728426641,stimuli/card_0_transparent.png,0,14,0,14,0,1,,,,,,,,,,
,,,,666826860cf905282f9e3421,A,2024-07-01_16h52.49.768,Slot Machine Game,2023.1.3,Win32,3.750937734,,,,,,,,,,,,,,,,,,,,,,,,,,,,,,,,,,,601.6311,,,,,,,,,,,,,,,,,,,,,,,,,,,,,,,,,"[840,340,630]",2,0,2,0,1,,,,
,,,,666826860cf905282f9e3421,A,2024-07-01_16h52.49.768,Slot Machine Game,2023.1.3,Win32,3.750937734,,,,,,,,,,,,,,,,,,,,,,,,,,,0,,,,,,,,,,,,,,,,,,,,,4,4,"[7,15]","[[2,3,1],[1,2,3]]",606.5938,0,left,2.9104,,1.5,0.3,"[2,3,1]",0.000422634,stimuli/card_0_transparent.png,0,0,0,0,0,1,,,,,,,,,,
,,,,666826860cf905282f9e3421,A,2024-07-01_16h52.49.768,Slot Machine Game,2023.1.3,Win32,3.750937734,,,,,,,,,,,,,,,,,,,,,,,,,,,0,,,,,,,,,,,,,,,,,,,,,4,4,,,611.8055,1,up,0.3438,,0.5,0.3,"[2,3,1]",0.984272231,stimuli/card_0_transparent.png,0,1,0,1,0,1,,,,,,,,,,
,,,,666826860cf905282f9e3421,A,2024-07-01_16h52.49.768,Slot Machine Game,2023.1.3,Win32,3.750937734,,,,,,,,,,,,,,,,,,,,,,,,,,,0,,,,,,,,,,,,,,,,,,,,,4,4,,,613.8372,2,up,0.01,,1,0.3,"[2,3,1]",0.711649751,stimuli/card_0_transparent.png,0,2,0,2,0,1,,,,,,,,,,
,,,,666826860cf905282f9e3421,A,2024-07-01_16h52.49.768,Slot Machine Game,2023.1.3,Win32,3.750937734,,,,,,,,,,,,,,,,,,,,,,,,,,,100,,,,,,,,,,,,,,,,,,,,,4,4,,,615.8825,3,right,0.5962,,1.5,0.3,"[2,3,1]",0.533313854,stimuli/card_100_transparent.png,100,3,0,3,0,1,,,,,,,,,,
,,,,666826860cf905282f9e3421,A,2024-07-01_16h52.49.768,Slot Machine Game,2023.1.3,Win32,3.750937734,,,,,,,,,,,,,,,,,,,,,,,,,,,110,,,,,,,,,,,,,,,,,,,,,4,4,,,619.1605,4,right,0.3502,,0.5,0.3,"[2,3,1]",0.196689004,stimuli/card_10_transparent.png,10,4,0,4,0,1,,,,,,,,,,
,,,,666826860cf905282f9e3421,A,2024-07-01_16h52.49.768,Slot Machine Game,2023.1.3,Win32,3.750937734,,,,,,,,,,,,,,,,,,,,,,,,,,,120,,,,,,,,,,,,,,,,,,,,,4,4,,,621.1807,5,right,0.584,0.0004,1.5,0.3,"[2,3,1]",0.125081141,stimuli/card_10_transparent.png,10,5,0,5,0,1,,,,,,,,,,
,,,,666826860cf905282f9e3421,A,2024-07-01_16h52.49.768,Slot Machine Game,2023.1.3,Win32,3.750937734,,,,,,,,,,,,,,,,,,,,,,,,,,,130,,,,,,,,,,,,,,,,,,,,,4,4,,,624.3634,6,left,1.2764,0.0003,1,0.3,"[2,3,1]",0.525850443,stimuli/card_10_transparent.png,10,6,0,6,0,1,,,,,,,,,,
,,,,666826860cf905282f9e3421,A,2024-07-01_16h52.49.768,Slot Machine Game,2023.1.3,Win32,3.750937734,,,,,,,,,,,,,,,,,,,,,,,,,,,230,,,,,,,,,,,,,,,,,,,,,4,4,,,627.9824,7,left,1.1349,,1,0.3,"[1,2,3]",0.497586436,stimuli/card_100_transparent.png,100,7,0,7,0,1,,,,,,,,,,
,,,,666826860cf905282f9e3421,A,2024-07-01_16h52.49.768,Slot Machine Game,2023.1.3,Win32,3.750937734,,,,,,,,,,,,,,,,,,,,,,,,,,,330,,,,,,,,,,,,,,,,,,,,,4,4,,,631.1758,8,left,0.3973,,0.5,0.3,"[1,2,3]",0.983732191,stimuli/card_100_transparent.png,100,8,0,8,0,1,,,,,,,,,,
,,,,666826860cf905282f9e3421,A,2024-07-01_16h52.49.768,Slot Machine Game,2023.1.3,Win32,3.750937734,,,,,,,,,,,,,,,,,,,,,,,,,,,430,,,,,,,,,,,,,,,,,,,,,4,4,,,633.2477,9,left,0.6041,0.0002,1,0.3,"[1,2,3]",0.43042194,stimuli/card_100_transparent.png,100,9,0,9,0,1,,,,,,,,,,
,,,,666826860cf905282f9e3421,A,2024-07-01_16h52.49.768,Slot Machine Game,2023.1.3,Win32,3.750937734,,,,,,,,,,,,,,,,,,,,,,,,,,,430,,,,,,,,,,,,,,,,,,,,,4,4,,,636.0618,10,right,0.7081,,1,0.3,"[1,2,3]",0.47874376,stimuli/card_0_transparent.png,0,10,0,10,0,1,,,,,,,,,,
,,,,666826860cf905282f9e3421,A,2024-07-01_16h52.49.768,Slot Machine Game,2023.1.3,Win32,3.750937734,,,,,,,,,,,,,,,,,,,,,,,,,,,440,,,,,,,,,,,,,,,,,,,,,4,4,,,639.0104,11,up,0.5627,,1.5,0.3,"[1,2,3]",0.706204076,stimuli/card_10_transparent.png,10,11,0,11,0,1,,,,,,,,,,
,,,,666826860cf905282f9e3421,A,2024-07-01_16h52.49.768,Slot Machine Game,2023.1.3,Win32,3.750937734,,,,,,,,,,,,,,,,,,,,,,,,,,,450,,,,,,,,,,,,,,,,,,,,,4,4,,,642.1066,12,up,0.6268,0.0002,1,0.3,"[1,2,3]",0.268842974,stimuli/card_10_transparent.png,10,12,0,12,0,1,,,,,,,,,,
,,,,666826860cf905282f9e3421,A,2024-07-01_16h52.49.768,Slot Machine Game,2023.1.3,Win32,3.750937734,,,,,,,,,,,,,,,,,,,,,,,,,,,550,,,,,,,,,,,,,,,,,,,,,4,4,,,644.9869,13,left,0.4957,0.0003,1,0.3,"[1,2,3]",0.824722046,stimuli/card_100_transparent.png,100,13,0,13,0,1,,,,,,,,,,
,,,,666826860cf905282f9e3421,A,2024-07-01_16h52.49.768,Slot Machine Game,2023.1.3,Win32,3.750937734,,,,,,,,,,,,,,,,,,,,,,,,,,,650,,,,,,,,,,,,,,,,,,,,,4,4,,,647.6416,14,left,0.3361,,0.5,0.3,"[1,2,3]",0.649559646,stimuli/card_100_transparent.png,100,14,0,14,0,1,,,,,,,,,,
,,,,666826860cf905282f9e3421,A,2024-07-01_16h52.49.768,Slot Machine Game,2023.1.3,Win32,3.750937734,,,,,,,,,,,,,,,,,,,,,,,,,,,,,,,,,,,649.7592,,,,,,,,,,,,,,,,,,,,,,,,,,,,,,,,,"[840,340,630,650]",3,0,3,0,1,,,,
,,,,666826860cf905282f9e3421,A,2024-07-01_16h52.49.768,Slot Machine Game,2023.1.3,Win32,3.750937734,,,,,,,,,,,,,,,,,,,,,,,,,,,100,,,,,,,,,,,,,,,,,,,,,5,6,"[4,10,15]","[[2,3,1],[1,3,2],[3,2,1]]",654.8176,0,right,1.0305,,1,0.3,"[2,3,1]",0.674263403,stimuli/card_100_transparent.png,100,0,0,0,0,1,,,,,,,,,,
,,,,666826860cf905282f9e3421,A,2024-07-01_16h52.49.768,Slot Machine Game,2023.1.3,Win32,3.750937734,,,,,,,,,,,,,,,,,,,,,,,,,,,200,,,,,,,,,,,,,,,,,,,,,5,6,,,658.2538,1,right,0.0131,0.0003,1.5,0.3,"[2,3,1]",0.542335622,stimuli/card_100_transparent.png,100,1,0,1,0,1,,,,,,,,,,
,,,,666826860cf905282f9e3421,A,2024-07-01_16h52.49.768,Slot Machine Game,2023.1.3,Win32,3.750937734,,,,,,,,,,,,,,,,,,,,,,,,,,,210,,,,,,,,,,,,,,,,,,,,,5,6,,,661.5311,2,left,0.5937,,1.5,0.3,"[2,3,1]",0.233342818,stimuli/card_10_transparent.png,10,2,0,2,0,1,,,,,,,,,,
,,,,666826860cf905282f9e3421,A,2024-07-01_16h52.49.768,Slot Machine Game,2023.1.3,Win32,3.750937734,,,,,,,,,,,,,,,,,,,,,,,,,,,210,,,,,,,,,,,,,,,,,,,,,5,6,,,664.7134,3,up,0.5458,9.99999E-05,0.5,0.3,"[2,3,1]",0.377011687,stimuli/card_0_transparent.png,0,3,0,3,0,1,,,,,,,,,,
,,,,666826860cf905282f9e3421,A,2024-07-01_16h52.49.768,Slot Machine Game,2023.1.3,Win32,3.750937734,,,,,,,,,,,,,,,,,,,,,,,,,,,310,,,,,,,,,,,,,,,,,,,,,5,6,,,666.6362,4,up,0.9668,0.0002,0.5,0.3,"[1,3,2]",0.050098697,stimuli/card_100_transparent.png,100,4,0,4,0,1,,,,,,,,,,
,,,,666826860cf905282f9e3421,A,2024-07-01_16h52.49.768,Slot Machine Game,2023.1.3,Win32,3.750937734,,,,,,,,,,,,,,,,,,,,,,,,,,,310,,,,,,,,,,,,,,,,,,,,,5,6,,,669.1774,5,up,1.0522,0.0003,1.5,0.3,"[1,3,2]",0.73911159,stimuli/card_0_transparent.png,0,5,0,5,0,1,,,,,,,,,,
,,,,666826860cf905282f9e3421,A,2024-07-01_16h52.49.768,Slot Machine Game,2023.1.3,Win32,3.750937734,,,,,,,,,,,,,,,,,,,,,,,,,,,410,,,,,,,,,,,,,,,,,,,,,5,6,,,673.0129,6,left,0.2987,,1,0.3,"[1,3,2]",0.550097428,stimuli/card_100_transparent.png,100,6,0,6,0,1,,,,,,,,,,
,,,,666826860cf905282f9e3421,A,2024-07-01_16h52.49.768,Slot Machine Game,2023.1.3,Win32,3.750937734,,,,,,,,,,,,,,,,,,,,,,,,,,,510,,,,,,,,,,,,,,,,,,,,,5,6,,,675.5073,7,left,0.2714,,1.5,0.3,"[1,3,2]",0.805508319,stimuli/card_100_transparent.png,100,7,0,7,0,1,,,,,,,,,,
,,,,666826860cf905282f9e3421,A,2024-07-01_16h52.49.768,Slot Machine Game,2023.1.3,Win32,3.750937734,,,,,,,,,,,,,,,,,,,,,,,,,,,510,,,,,,,,,,,,,,,,,,,,,5,6,,,678.2865,8,left,0.643,0.0003,1,0.3,"[1,3,2]",0.067934557,stimuli/card_0_transparent.png,0,8,0,8,0,1,,,,,,,,,,
,,,,666826860cf905282f9e3421,A,2024-07-01_16h52.49.768,Slot Machine Game,2023.1.3,Win32,3.750937734,,,,,,,,,,,,,,,,,,,,,,,,,,,610,,,,,,,,,,,,,,,,,,,,,5,6,,,680.6201,9,left,1.4191,0.0004,1,0.3,"[1,3,2]",0.560966742,stimuli/card_100_transparent.png,100,9,0,9,0,1,,,,,,,,,,
,,,,666826860cf905282f9e3421,A,2024-07-01_16h52.49.768,Slot Machine Game,2023.1.3,Win32,3.750937734,,,,,,,,,,,,,,,,,,,,,,,,,,,610,,,,,,,,,,,,,,,,,,,,,5,6,,,683.6809,10,left,0.3997,,1.5,0.3,"[3,2,1]",0.721975984,stimuli/card_0_transparent.png,0,10,0,10,0,1,,,,,,,,,,
,,,,666826860cf905282f9e3421,A,2024-07-01_16h52.49.768,Slot Machine Game,2023.1.3,Win32,3.750937734,,,,,,,,,,,,,,,,,,,,,,,,,,,710,,,,,,,,,,,,,,,,,,,,,5,6,,,686.9072,11,right,0.2821,,0.5,0.3,"[3,2,1]",0.602338576,stimuli/card_100_transparent.png,100,11,0,11,0,1,,,,,,,,,,
,,,,666826860cf905282f9e3421,A,2024-07-01_16h52.49.768,Slot Machine Game,2023.1.3,Win32,3.750937734,,,,,,,,,,,,,,,,,,,,,,,,,,,810,,,,,,,,,,,,,,,,,,,,,5,6,,,688.9481,12,right,0.5461,,1,0.3,"[3,2,1]",0.377763919,stimuli/card_100_transparent.png,100,12,0,12,0,1,,,,,,,,,,
,,,,666826860cf905282f9e3421,A,2024-07-01_16h52.49.768,Slot Machine Game,2023.1.3,Win32,3.750937734,,,,,,,,,,,,,,,,,,,,,,,,,,,810,,,,,,,,,,,,,,,,,,,,,5,6,,,691.5183,13,up,0.7115,,0.5,0.3,"[3,2,1]",0.028214868,stimuli/card_0_transparent.png,0,13,0,13,0,1,,,,,,,,,,
,,,,666826860cf905282f9e3421,A,2024-07-01_16h52.49.768,Slot Machine Game,2023.1.3,Win32,3.750937734,,,,,,,,,,,,,,,,,,,,,,,,,,,910,,,,,,,,,,,,,,,,,,,,,5,6,,,693.9587,14,left,0.2952,,1.5,0.3,"[3,2,1]",0.047484727,stimuli/card_100_transparent.png,100,14,0,14,0,1,,,,,,,,,,
,,,,666826860cf905282f9e3421,A,2024-07-01_16h52.49.768,Slot Machine Game,2023.1.3,Win32,3.750937734,,,,,,,,,,,,,,,,,,,,,,,,,,,,,,,,,,,696.8829,,,,,,,,,,,,,,,,,,,,,,,,,,,,,,,,,"[840,340,630,650,910]",4,0,4,0,1,,,,
,,,,666826860cf905282f9e3421,A,2024-07-01_16h52.49.768,Slot Machine Game,2023.1.3,Win32,3.750937734,,,,,,,,,,,,,,,,,,,,,,,,,,,10,,,,,,,,,,,,,,,,,,,,,6,8,"[11,15]","[[2,1,3],[1,2,3]]",701.7722,0,up,1.9463,,0.5,0.3,"[2,1,3]",0.109358116,stimuli/card_10_transparent.png,10,0,0,0,0,1,,,,,,,,,,
,,,,666826860cf905282f9e3421,A,2024-07-01_16h52.49.768,Slot Machine Game,2023.1.3,Win32,3.750937734,,,,,,,,,,,,,,,,,,,,,,,,,,,10,,,,,,,,,,,,,,,,,,,,,6,8,,,705.378,1,right,0.523,0.0004,1.5,0.3,"[2,1,3]",0.975937507,stimuli/card_0_transparent.png,0,1,0,1,0,1,,,,,,,,,,
,,,,666826860cf905282f9e3421,A,2024-07-01_16h52.49.768,Slot Machine Game,2023.1.3,Win32,3.750937734,,,,,,,,,,,,,,,,,,,,,,,,,,,110,,,,,,,,,,,,,,,,,,,,,6,8,,,708.4281,2,up,1.0155,,1.5,0.3,"[2,1,3]",0.55730816,stimuli/card_100_transparent.png,100,2,0,2,0,1,,,,,,,,,,
,,,,666826860cf905282f9e3421,A,2024-07-01_16h52.49.768,Slot Machine Game,2023.1.3,Win32,3.750937734,,,,,,,,,,,,,,,,,,,,,,,,,,,210,,,,,,,,,,,,,,,,,,,,,6,8,,,712.3433,3,up,0.5596,0.0003,0.5,0.3,"[2,1,3]",0.214419096,stimuli/card_100_transparent.png,100,3,0,3,0,1,,,,,,,,,,
,,,,666826860cf905282f9e3421,A,2024-07-01_16h52.49.768,Slot Machine Game,2023.1.3,Win32,3.750937734,,,,,,,,,,,,,,,,,,,,,,,,,,,310,,,,,,,,,,,,,,,,,,,,,6,8,,,714.2916,4,up,0.6459,,0.5,0.3,"[2,1,3]",0.825126166,stimuli/card_100_transparent.png,100,4,0,4,0,1,,,,,,,,,,
,,,,666826860cf905282f9e3421,A,2024-07-01_16h52.49.768,Slot Machine Game,2023.1.3,Win32,3.750937734,,,,,,,,,,,,,,,,,,,,,,,,,,,320,,,,,,,,,,,,,,,,,,,,,6,8,,,716.5145,5,left,0.3503,,0.5,0.3,"[2,1,3]",0.836270226,stimuli/card_10_transparent.png,10,5,0,5,0,1,,,,,,,,,,
,,,,666826860cf905282f9e3421,A,2024-07-01_16h52.49.768,Slot Machine Game,2023.1.3,Win32,3.750937734,,,,,,,,,,,,,,,,,,,,,,,,,,,330,,,,,,,,,,,,,,,,,,,,,6,8,,,718.8601,6,left,0.4074,0.0004,1,0.3,"[2,1,3]",0.765967068,stimuli/card_10_transparent.png,10,6,0,6,0,1,,,,,,,,,,
,,,,666826860cf905282f9e3421,A,2024-07-01_16h52.49.768,Slot Machine Game,2023.1.3,Win32,3.750937734,,,,,,,,,,,,,,,,,,,,,,,,,,,330,,,,,,,,,,,,,,,,,,,,,6,8,,,721.4144,7,right,0.0108,,1.5,0.3,"[2,1,3]",0.757448908,stimuli/card_0_transparent.png,0,7,0,7,0,1,,,,,,,,,,
,,,,666826860cf905282f9e3421,A,2024-07-01_16h52.49.768,Slot Machine Game,2023.1.3,Win32,3.750937734,,,,,,,,,,,,,,,,,,,,,,,,,,,430,,,,,,,,,,,,,,,,,,,,,6,8,,,724.0217,8,up,1.0495,,1,0.3,"[2,1,3]",0.526706466,stimuli/card_100_transparent.png,100,8,0,8,0,1,,,,,,,,,,
,,,,666826860cf905282f9e3421,A,2024-07-01_16h52.49.768,Slot Machine Game,2023.1.3,Win32,3.750937734,,,,,,,,,,,,,,,,,,,,,,,,,,,530,,,,,,,,,,,,,,,,,,,,,6,8,,,727.042,9,up,1.0337,,1.5,0.3,"[2,1,3]",0.701469656,stimuli/card_100_transparent.png,100,9,0,9,0,1,,,,,,,,,,
,,,,666826860cf905282f9e3421,A,2024-07-01_16h52.49.768,Slot Machine Game,2023.1.3,Win32,3.750937734,,,,,,,,,,,,,,,,,,,,,,,,,,,630,,,,,,,,,,,,,,,,,,,,,6,8,,,730.6658,10,up,0.8664,0.0002,0.5,0.3,"[2,1,3]",0.201505008,stimuli/card_100_transparent.png,100,10,0,10,0,1,,,,,,,,,,
,,,,666826860cf905282f9e3421,A,2024-07-01_16h52.49.768,Slot Machine Game,2023.1.3,Win32,3.750937734,,,,,,,,,,,,,,,,,,,,,,,,,,,640,,,,,,,,,,,,,,,,,,,,,6,8,,,733.2254,11,up,0.5811,,1.5,0.3,"[1,2,3]",0.37675365,stimuli/card_10_transparent.png,10,11,0,11,0,1,,,,,,,,,,
,,,,666826860cf905282f9e3421,A,2024-07-01_16h52.49.768,Slot Machine Game,2023.1.3,Win32,3.750937734,,,,,,,,,,,,,,,,,,,,,,,,,,,640,,,,,,,,,,,,,,,,,,,,,6,8,,,736.6435,12,right,0.5509,,1.5,0.3,"[1,2,3]",0.416690204,stimuli/card_0_transparent.png,0,12,0,12,0,1,,,,,,,,,,
,,,,666826860cf905282f9e3421,A,2024-07-01_16h52.49.768,Slot Machine Game,2023.1.3,Win32,3.750937734,,,,,,,,,,,,,,,,,,,,,,,,,,,640,,,,,,,,,,,,,,,,,,,,,6,8,,,739.7757,13,up,0.4302,0.0006,1,0.3,"[1,2,3]",0.097610576,stimuli/card_0_transparent.png,0,13,0,13,0,1,,,,,,,,,,
,,,,666826860cf905282f9e3421,A,2024-07-01_16h52.49.768,Slot Machine Game,2023.1.3,Win32,3.750937734,,,,,,,,,,,,,,,,,,,,,,,,,,,740,,,,,,,,,,,,,,,,,,,,,6,8,,,742.2842,14,left,0.0125,,0.5,0.3,"[1,2,3]",0.899414745,stimuli/card_100_transparent.png,100,14,0,14,0,1,,,,,,,,,,
,,,,666826860cf905282f9e3421,A,2024-07-01_16h52.49.768,Slot Machine Game,2023.1.3,Win32,3.750937734,,,,,,,,,,,,,,,,,,,,,,,,,,,,,,,,,,,743.844,,,,,,,,,,,,,,,,,,,,,,,,,,,,,,,,,"[840,340,630,650,910,740]",5,0,5,0,1,,,,
,,,,666826860cf905282f9e3421,A,2024-07-01_16h52.49.768,Slot Machine Game,2023.1.3,Win32,3.750937734,,,,,,,,,,,,,,,,,,,,,,,,,,,0,,,,,,,,,,,,,,,,,,,,,7,9,"[8,15]","[[3,2,1],[3,1,2]]",748.7562,0,left,1.7766,,0.5,0.3,"[3,2,1]",0.594735084,stimuli/card_0_transparent.png,0,0,0,0,0,1,,,,,,,,,,
,,,,666826860cf905282f9e3421,A,2024-07-01_16h52.49.768,Slot Machine Game,2023.1.3,Win32,3.750937734,,,,,,,,,,,,,,,,,,,,,,,,,,,100,,,,,,,,,,,,,,,,,,,,,7,9,,,752.0682,1,right,0.7252,,1.5,0.3,"[3,2,1]",0.623060428,stimuli/card_100_transparent.png,100,1,0,1,0,1,,,,,,,,,,
,,,,666826860cf905282f9e3421,A,2024-07-01_16h52.49.768,Slot Machine Game,2023.1.3,Win32,3.750937734,,,,,,,,,,,,,,,,,,,,,,,,,,,200,,,,,,,,,,,,,,,,,,,,,7,9,,,755.4546,2,right,0.2795,,1,0.3,"[3,2,1]",0.92040445,stimuli/card_100_transparent.png,100,2,0,2,0,1,,,,,,,,,,
,,,,666826860cf905282f9e3421,A,2024-07-01_16h52.49.768,Slot Machine Game,2023.1.3,Win32,3.750937734,,,,,,,,,,,,,,,,,,,,,,,,,,,210,,,,,,,,,,,,,,,,,,,,,7,9,,,757.6669,3,right,0.3215,,1.5,0.3,"[3,2,1]",0.136540319,stimuli/card_10_transparent.png,10,3,0,3,0,1,,,,,,,,,,
,,,,666826860cf905282f9e3421,A,2024-07-01_16h52.49.768,Slot Machine Game,2023.1.3,Win32,3.750937734,,,,,,,,,,,,,,,,,,,,,,,,,,,220,,,,,,,,,,,,,,,,,,,,,7,9,,,760.7492,4,up,0.3634,0.0004,1,0.3,"[3,2,1]",0.70840177,stimuli/card_10_transparent.png,10,4,0,4,0,1,,,,,,,,,,
,,,,666826860cf905282f9e3421,A,2024-07-01_16h52.49.768,Slot Machine Game,2023.1.3,Win32,3.750937734,,,,,,,,,,,,,,,,,,,,,,,,,,,320,,,,,,,,,,,,,,,,,,,,,7,9,,,763.3508,5,right,0.6893,0.0002,1,0.3,"[3,2,1]",0.774582046,stimuli/card_100_transparent.png,100,5,0,5,0,1,,,,,,,,,,
,,,,666826860cf905282f9e3421,A,2024-07-01_16h52.49.768,Slot Machine Game,2023.1.3,Win32,3.750937734,,,,,,,,,,,,,,,,,,,,,,,,,,,420,,,,,,,,,,,,,,,,,,,,,7,9,,,765.9842,6,right,0.3388,0.0003,0.5,0.3,"[3,2,1]",0.208775119,stimuli/card_100_transparent.png,100,6,0,6,0,1,,,,,,,,,,
,,,,666826860cf905282f9e3421,A,2024-07-01_16h52.49.768,Slot Machine Game,2023.1.3,Win32,3.750937734,,,,,,,,,,,,,,,,,,,,,,,,,,,520,,,,,,,,,,,,,,,,,,,,,7,9,,,767.8705,7,right,1.0043,,1,0.3,"[3,2,1]",0.7414928,stimuli/card_100_transparent.png,100,7,0,7,0,1,,,,,,,,,,
,,,,666826860cf905282f9e3421,A,2024-07-01_16h52.49.768,Slot Machine Game,2023.1.3,Win32,3.750937734,,,,,,,,,,,,,,,,,,,,,,,,,,,530,,,,,,,,,,,,,,,,,,,,,7,9,,,770.818,8,right,0.3011,,1,0.3,"[3,1,2]",0.466352905,stimuli/card_10_transparent.png,10,8,0,8,0,1,,,,,,,,,,
,,,,666826860cf905282f9e3421,A,2024-07-01_16h52.49.768,Slot Machine Game,2023.1.3,Win32,3.750937734,,,,,,,,,,,,,,,,,,,,,,,,,,,530,,,,,,,,,,,,,,,,,,,,,7,9,,,773.2882,9,left,0.4491,0.0004,1,0.3,"[3,1,2]",0.689889276,stimuli/card_0_transparent.png,0,9,0,9,0,1,,,,,,,,,,
,,,,666826860cf905282f9e3421,A,2024-07-01_16h52.49.768,Slot Machine Game,2023.1.3,Win32,3.750937734,,,,,,,,,,,,,,,,,,,,,,,,,,,630,,,,,,,,,,,,,,,,,,,,,7,9,,,775.7624,10,up,0.7168,,1,0.3,"[3,1,2]",0.735961749,stimuli/card_100_transparent.png,100,10,0,10,0,1,,,,,,,,,,
,,,,666826860cf905282f9e3421,A,2024-07-01_16h52.49.768,Slot Machine Game,2023.1.3,Win32,3.750937734,,,,,,,,,,,,,,,,,,,,,,,,,,,730,,,,,,,,,,,,,,,,,,,,,7,9,,,778.66,11,up,0.3043,,1,0.3,"[3,1,2]",0.365960553,stimuli/card_100_transparent.png,100,11,0,11,0,1,,,,,,,,,,
,,,,666826860cf905282f9e3421,A,2024-07-01_16h52.49.768,Slot Machine Game,2023.1.3,Win32,3.750937734,,,,,,,,,,,,,,,,,,,,,,,,,,,740,,,,,,,,,,,,,,,,,,,,,7,9,,,780.9967,12,right,0.2755,,0.5,0.3,"[3,1,2]",0.629925351,stimuli/card_10_transparent.png,10,12,0,12,0,1,,,,,,,,,,
,,,,666826860cf905282f9e3421,A,2024-07-01_16h52.49.768,Slot Machine Game,2023.1.3,Win32,3.750937734,,,,,,,,,,,,,,,,,,,,,,,,,,,740,,,,,,,,,,,,,,,,,,,,,7,9,,,782.9639,13,left,0.2982,,1,0.3,"[3,1,2]",0.370494544,stimuli/card_0_transparent.png,0,13,0,13,0,1,,,,,,,,,,
,,,,666826860cf905282f9e3421,A,2024-07-01_16h52.49.768,Slot Machine Game,2023.1.3,Win32,3.750937734,,,,,,,,,,,,,,,,,,,,,,,,,,,740,,,,,,,,,,,,,,,,,,,,,7,9,,,785.5461,14,left,0.0143,0.0003,0.5,0.3,"[3,1,2]",0.201641497,stimuli/card_0_transparent.png,0,14,0,14,0,1,,,,,,,,,,
,,,,666826860cf905282f9e3421,A,2024-07-01_16h52.49.768,Slot Machine Game,2023.1.3,Win32,3.750937734,,,,,,,,,,,,,,,,,,,,,,,,,,,,,,,,,,,787.1477,,,,,,,,,,,,,,,,,,,,,,,,,,,,,,,,,"[840,340,630,650,910,740,740]",6,0,6,0,1,,,,
,,,,666826860cf905282f9e3421,A,2024-07-01_16h52.49.768,Slot Machine Game,2023.1.3,Win32,3.750937734,,,,,,,,,,,,,,,,,,,,,,,,,,,100,,,,,,,,,,,,,,,,,,,,,8,2,"[6,15]","[[1,3,2],[3,2,1]]",792.2428,0,up,0.7916,,0.5,0.3,"[1,3,2]",0.061009417,stimuli/card_100_transparent.png,100,0,0,0,0,1,,,,,,,,,,
,,,,666826860cf905282f9e3421,A,2024-07-01_16h52.49.768,Slot Machine Game,2023.1.3,Win32,3.750937734,,,,,,,,,,,,,,,,,,,,,,,,,,,200,,,,,,,,,,,,,,,,,,,,,8,2,,,794.6329,1,up,0.0101,,0.5,0.3,"[1,3,2]",0.078008657,stimuli/card_100_transparent.png,100,1,0,1,0,1,,,,,,,,,,
,,,,666826860cf905282f9e3421,A,2024-07-01_16h52.49.768,Slot Machine Game,2023.1.3,Win32,3.750937734,,,,,,,,,,,,,,,,,,,,,,,,,,,200,,,,,,,,,,,,,,,,,,,,,8,2,,,796.094,2,up,0.3541,0.0002,0.5,0.3,"[1,3,2]",0.203070297,stimuli/card_0_transparent.png,0,2,0,2,0,1,,,,,,,,,,
,,,,666826860cf905282f9e3421,A,2024-07-01_16h52.49.768,Slot Machine Game,2023.1.3,Win32,3.750937734,,,,,,,,,,,,,,,,,,,,,,,,,,,210,,,,,,,,,,,,,,,,,,,,,8,2,,,798.0887,3,right,1.0058,0.0003,1.5,0.3,"[1,3,2]",0.459681951,stimuli/card_10_transparent.png,10,3,0,3,0,1,,,,,,,,,,
,,,,666826860cf905282f9e3421,A,2024-07-01_16h52.49.768,Slot Machine Game,2023.1.3,Win32,3.750937734,,,,,,,,,,,,,,,,,,,,,,,,,,,310,,,,,,,,,,,,,,,,,,,,,8,2,,,802.2681,4,left,0.3177,0.0002,1.5,0.3,"[1,3,2]",0.868915724,stimuli/card_100_transparent.png,100,4,0,4,0,1,,,,,,,,,,
,,,,666826860cf905282f9e3421,A,2024-07-01_16h52.49.768,Slot Machine Game,2023.1.3,Win32,3.750937734,,,,,,,,,,,,,,,,,,,,,,,,,,,410,,,,,,,,,,,,,,,,,,,,,8,2,,,805.113,5,left,0.2977,,1,0.3,"[1,3,2]",0.947862952,stimuli/card_100_transparent.png,100,5,0,5,0,1,,,,,,,,,,
,,,,666826860cf905282f9e3421,A,2024-07-01_16h52.49.768,Slot Machine Game,2023.1.3,Win32,3.750937734,,,,,,,,,,,,,,,,,,,,,,,,,,,410,,,,,,,,,,,,,,,,,,,,,8,2,,,807.4742,6,left,0.3166,,1.5,0.3,"[3,2,1]",0.749743289,stimuli/card_0_transparent.png,0,6,0,6,0,1,,,,,,,,,,
,,,,666826860cf905282f9e3421,A,2024-07-01_16h52.49.768,Slot Machine Game,2023.1.3,Win32,3.750937734,,,,,,,,,,,,,,,,,,,,,,,,,,,420,,,,,,,,,,,,,,,,,,,,,8,2,,,810.3609,7,right,0.0105,0.0003,1.5,0.3,"[3,2,1]",0.139280608,stimuli/card_10_transparent.png,10,7,0,7,0,1,,,,,,,,,,
,,,,666826860cf905282f9e3421,A,2024-07-01_16h52.49.768,Slot Machine Game,2023.1.3,Win32,3.750937734,,,,,,,,,,,,,,,,,,,,,,,,,,,430,,,,,,,,,,,,,,,,,,,,,8,2,,,813.1105,8,up,0.3679,,0.5,0.3,"[3,2,1]",0.386224326,stimuli/card_10_transparent.png,10,8,0,8,0,1,,,,,,,,,,
,,,,666826860cf905282f9e3421,A,2024-07-01_16h52.49.768,Slot Machine Game,2023.1.3,Win32,3.750937734,,,,,,,,,,,,,,,,,,,,,,,,,,,440,,,,,,,,,,,,,,,,,,,,,8,2,,,815.1597,9,right,0.0105,,0.5,0.3,"[3,2,1]",0.158020425,stimuli/card_10_transparent.png,10,9,0,9,0,1,,,,,,,,,,
,,,,666826860cf905282f9e3421,A,2024-07-01_16h52.49.768,Slot Machine Game,2023.1.3,Win32,3.750937734,,,,,,,,,,,,,,,,,,,,,,,,,,,540,,,,,,,,,,,,,,,,,,,,,8,2,,,816.6623,10,right,0.5179,,1.5,0.3,"[3,2,1]",0.615115407,stimuli/card_100_transparent.png,100,10,0,10,0,1,,,,,,,,,,
,,,,666826860cf905282f9e3421,A,2024-07-01_16h52.49.768,Slot Machine Game,2023.1.3,Win32,3.750937734,,,,,,,,,,,,,,,,,,,,,,,,,,,640,,,,,,,,,,,,,,,,,,,,,8,2,,,820.848,11,right,3.0681,,0.5,0.3,"[3,2,1]",0.279164539,stimuli/card_100_transparent.png,100,11,0,11,0,1,,,,,,,,,,
,,,,666826860cf905282f9e3421,A,2024-07-01_16h52.49.768,Slot Machine Game,2023.1.3,Win32,3.750937734,,,,,,,,,,,,,,,,,,,,,,,,,,,650,,,,,,,,,,,,,,,,,,,,,8,2,,,825.3213,12,up,1.2873,,1,0.3,"[3,2,1]",0.45522241,stimuli/card_10_transparent.png,10,12,0,12,0,1,,,,,,,,,,
,,,,666826860cf905282f9e3421,A,2024-07-01_16h52.49.768,Slot Machine Game,2023.1.3,Win32,3.750937734,,,,,,,,,,,,,,,,,,,,,,,,,,,660,,,,,,,,,,,,,,,,,,,,,8,2,,,829.009,13,left,0.8494,,1,0.3,"[3,2,1]",0.137961178,stimuli/card_10_transparent.png,10,13,0,13,0,1,,,,,,,,,,
,,,,666826860cf905282f9e3421,A,2024-07-01_16h52.49.768,Slot Machine Game,2023.1.3,Win32,3.750937734,,,,,,,,,,,,,,,,,,,,,,,,,,,660,,,,,,,,,,,,,,,,,,,,,8,2,,,831.923,14,up,0.7334,0.0011,1.5,0.3,"[3,2,1]",0.073925473,stimuli/card_0_transparent.png,0,14,0,14,0,1,,,,,,,,,,
,,,,666826860cf905282f9e3421,A,2024-07-01_16h52.49.768,Slot Machine Game,2023.1.3,Win32,3.750937734,,,,,,,,,,,,,,,,,,,,,,,,,,,,,,,,,,,835.2082,,,,,,,,,,,,,,,,,,,,,,,,,,,,,,,,,"[840,340,630,650,910,740,740,660]",7,0,7,0,1,,,,
,,,,666826860cf905282f9e3421,A,2024-07-01_16h52.49.768,Slot Machine Game,2023.1.3,Win32,3.750937734,,,,,,,,,,,,,,,,,,,,,,,,,,,0,,,,,,,,,,,,,,,,,,,,,9,10,"[10,15]","[[3,1,2],[1,3,2]]",840.1613,0,left,2.3985,,1,0.3,"[3,1,2]",0.783394533,stimuli/card_0_transparent.png,0,0,0,0,0,1,,,,,,,,,,
,,,,666826860cf905282f9e3421,A,2024-07-01_16h52.49.768,Slot Machine Game,2023.1.3,Win32,3.750937734,,,,,,,,,,,,,,,,,,,,,,,,,,,10,,,,,,,,,,,,,,,,,,,,,9,10,,,844.5745,1,right,0.361,,1,0.3,"[3,1,2]",0.24600978,stimuli/card_10_transparent.png,10,1,0,1,0,1,,,,,,,,,,
,,,,666826860cf905282f9e3421,A,2024-07-01_16h52.49.768,Slot Machine Game,2023.1.3,Win32,3.750937734,,,,,,,,,,,,,,,,,,,,,,,,,,,110,,,,,,,,,,,,,,,,,,,,,9,10,,,847.2852,2,up,0.4374,0.0003,1.5,0.3,"[3,1,2]",0.77228382,stimuli/card_100_transparent.png,100,2,0,2,0,1,,,,,,,,,,
,,,,666826860cf905282f9e3421,A,2024-07-01_16h52.49.768,Slot Machine Game,2023.1.3,Win32,3.750937734,,,,,,,,,,,,,,,,,,,,,,,,,,,210,,,,,,,,,,,,,,,,,,,,,9,10,,,850.6998,3,up,0.3292,,1.5,0.3,"[3,1,2]",0.657293503,stimuli/card_100_transparent.png,100,3,0,3,0,1,,,,,,,,,,
,,,,666826860cf905282f9e3421,A,2024-07-01_16h52.49.768,Slot Machine Game,2023.1.3,Win32,3.750937734,,,,,,,,,,,,,,,,,,,,,,,,,,,310,,,,,,,,,,,,,,,,,,,,,9,10,,,853.5789,4,up,0.5429,,1,0.3,"[3,1,2]",0.320671623,stimuli/card_100_transparent.png,100,4,0,4,0,1,,,,,,,,,,
,,,,666826860cf905282f9e3421,A,2024-07-01_16h52.49.768,Slot Machine Game,2023.1.3,Win32,3.750937734,,,,,,,,,,,,,,,,,,,,,,,,,,,410,,,,,,,,,,,,,,,,,,,,,9,10,,,856.0875,5,up,1.387,,0.5,0.3,"[3,1,2]",0.592591823,stimuli/card_100_transparent.png,100,5,0,5,0,1,,,,,,,,,,
,,,,666826860cf905282f9e3421,A,2024-07-01_16h52.49.768,Slot Machine Game,2023.1.3,Win32,3.750937734,,,,,,,,,,,,,,,,,,,,,,,,,,,510,,,,,,,,,,,,,,,,,,,,,9,10,,,859.292,6,up,1.4931,0.0003,1,0.3,"[3,1,2]",0.304374896,stimuli/card_100_transparent.png,100,6,0,6,0,1,,,,,,,,,,
,,,,666826860cf905282f9e3421,A,2024-07-01_16h52.49.768,Slot Machine Game,2023.1.3,Win32,3.750937734,,,,,,,,,,,,,,,,,,,,,,,,,,,510,,,,,,,,,,,,,,,,,,,,,9,10,,,863.0977,7,left,1.6263,0.0002,1,0.3,"[3,1,2]",0.476439754,stimuli/card_0_transparent.png,0,7,0,7,0,1,,,,,,,,,,
,,,,666826860cf905282f9e3421,A,2024-07-01_16h52.49.768,Slot Machine Game,2023.1.3,Win32,3.750937734,,,,,,,,,,,,,,,,,,,,,,,,,,,610,,,,,,,,,,,,,,,,,,,,,9,10,,,866.6992,8,right,0.3351,0.0002,1.5,0.3,"[3,1,2]",0.174726564,stimuli/card_100_transparent.png,100,8,0,8,0,1,,,,,,,,,,
,,,,666826860cf905282f9e3421,A,2024-07-01_16h52.49.768,Slot Machine Game,2023.1.3,Win32,3.750937734,,,,,,,,,,,,,,,,,,,,,,,,,,,,,,,,,,,,,,,,,,,,,,,,9,10,,,869.6035,9,,,,1.5,0.3,,,,,9,0,9,0,1,,,,,,,,,,
,,,,666826860cf905282f9e3421,A,2024-07-01_16h52.49.768,Slot Machine Game,2023.1.3,Win32,3.750937734,,,,,,,,,,,,,,,,,,,,,,,,,,,620,,,,,,,,,,,,,,,,,,,,,9,10,,,875.1819,10,right,2.9515,0.0002,0.5,0.3,"[1,3,2]",0.46395083,stimuli/card_10_transparent.png,10,10,0,10,0,1,,,,,,,,,,
,,,,666826860cf905282f9e3421,A,2024-07-01_16h52.49.768,Slot Machine Game,2023.1.3,Win32,3.750937734,,,,,,,,,,,,,,,,,,,,,,,,,,,630,,,,,,,,,,,,,,,,,,,,,9,10,,,879.6034,11,up,0.0117,,1.5,0.3,"[1,3,2]",0.124911029,stimuli/card_10_transparent.png,10,11,0,11,0,1,,,,,,,,,,
,,,,666826860cf905282f9e3421,A,2024-07-01_16h52.49.768,Slot Machine Game,2023.1.3,Win32,3.750937734,,,,,,,,,,,,,,,,,,,,,,,,,,,630,,,,,,,,,,,,,,,,,,,,,9,10,,,882.2663,12,up,2.1463,,0.5,0.3,"[1,3,2]",0.634436814,stimuli/card_0_transparent.png,0,12,0,12,0,1,,,,,,,,,,
,,,,666826860cf905282f9e3421,A,2024-07-01_16h52.49.768,Slot Machine Game,2023.1.3,Win32,3.750937734,,,,,,,,,,,,,,,,,,,,,,,,,,,640,,,,,,,,,,,,,,,,,,,,,9,10,,,886.3219,13,right,0.012,,1,0.3,"[1,3,2]",0.756392851,stimuli/card_10_transparent.png,10,13,0,13,0,1,,,,,,,,,,
,,,,666826860cf905282f9e3421,A,2024-07-01_16h52.49.768,Slot Machine Game,2023.1.3,Win32,3.750937734,,,,,,,,,,,,,,,,,,,,,,,,,,,650,,,,,,,,,,,,,,,,,,,,,9,10,,,888.499,14,right,0.531,,0.5,0.3,"[1,3,2]",0.958214902,stimuli/card_10_transparent.png,10,14,0,14,0,1,,,,,,,,,,
,,,,666826860cf905282f9e3421,A,2024-07-01_16h52.49.768,Slot Machine Game,2023.1.3,Win32,3.750937734,,,,,,,,,,,,,,,,,,,,,,,,,,,,,,,,,,,890.6467,,,,,,,,,,,,,,,,,,,,,,,,,,,,,,,,,"[840,340,630,650,910,740,740,660,650]",8,0,8,0,1,,,,
,,,,666826860cf905282f9e3421,A,2024-07-01_16h52.49.768,Slot Machine Game,2023.1.3,Win32,3.750937734,,,,,,,,,,,,,,,,,,,,,,,,,,,0,,,,,,,,,,,,,,,,,,,,,10,3,"[15,15]","[[3,1,2],[3,1,2]]",895.5052,0,left,0.73,0.0004,1.5,0.3,"[3,1,2]",0.534989433,stimuli/card_0_transparent.png,0,0,0,0,0,1,,,,,,,,,,
,,,,666826860cf905282f9e3421,A,2024-07-01_16h52.49.768,Slot Machine Game,2023.1.3,Win32,3.750937734,,,,,,,,,,,,,,,,,,,,,,,,,,,10,,,,,,,,,,,,,,,,,,,,,10,3,,,899.043,1,right,0.6264,,1,0.3,"[3,1,2]",0.370981292,stimuli/card_10_transparent.png,10,1,0,1,0,1,,,,,,,,,,
,,,,666826860cf905282f9e3421,A,2024-07-01_16h52.49.768,Slot Machine Game,2023.1.3,Win32,3.750937734,,,,,,,,,,,,,,,,,,,,,,,,,,,110,,,,,,,,,,,,,,,,,,,,,10,3,,,901.6393,2,up,0.0113,,0.5,0.3,"[3,1,2]",0.655108667,stimuli/card_100_transparent.png,100,2,0,2,0,1,,,,,,,,,,
,,,,666826860cf905282f9e3421,A,2024-07-01_16h52.49.768,Slot Machine Game,2023.1.3,Win32,3.750937734,,,,,,,,,,,,,,,,,,,,,,,,,,,210,,,,,,,,,,,,,,,,,,,,,10,3,,,903.007,3,up,0.0108,0.0003,0.5,0.3,"[3,1,2]",0.661526923,stimuli/card_100_transparent.png,100,3,0,3,0,1,,,,,,,,,,
,,,,666826860cf905282f9e3421,A,2024-07-01_16h52.49.768,Slot Machine Game,2023.1.3,Win32,3.750937734,,,,,,,,,,,,,,,,,,,,,,,,,,,310,,,,,,,,,,,,,,,,,,,,,10,3,,,904.4853,4,up,1.3728,0.0003,0.5,0.3,"[3,1,2]",0.58143379,stimuli/card_100_transparent.png,100,4,0,4,0,1,,,,,,,,,,
,,,,666826860cf905282f9e3421,A,2024-07-01_16h52.49.768,Slot Machine Game,2023.1.3,Win32,3.750937734,,,,,,,,,,,,,,,,,,,,,,,,,,,410,,,,,,,,,,,,,,,,,,,,,10,3,,,907.7187,5,up,0.0111,0.0003,1.5,0.3,"[3,1,2]",0.704390353,stimuli/card_100_transparent.png,100,5,0,5,0,1,,,,,,,,,,
,,,,666826860cf905282f9e3421,A,2024-07-01_16h52.49.768,Slot Machine Game,2023.1.3,Win32,3.750937734,,,,,,,,,,,,,,,,,,,,,,,,,,,510,,,,,,,,,,,,,,,,,,,,,10,3,,,910.9413,6,up,0.3053,,0.5,0.3,"[3,1,2]",0.654324809,stimuli/card_100_transparent.png,100,6,0,6,0,1,,,,,,,,,,
,,,,666826860cf905282f9e3421,A,2024-07-01_16h52.49.768,Slot Machine Game,2023.1.3,Win32,3.750937734,,,,,,,,,,,,,,,,,,,,,,,,,,,520,,,,,,,,,,,,,,,,,,,,,10,3,,,912.6748,7,up,0.8262,,1,0.3,"[3,1,2]",0.19551635,stimuli/card_10_transparent.png,10,7,0,7,0,1,,,,,,,,,,
,,,,666826860cf905282f9e3421,A,2024-07-01_16h52.49.768,Slot Machine Game,2023.1.3,Win32,3.750937734,,,,,,,,,,,,,,,,,,,,,,,,,,,520,,,,,,,,,,,,,,,,,,,,,10,3,,,915.4586,8,left,0.6053,0.0003,0.5,0.3,"[3,1,2]",0.877721293,stimuli/card_0_transparent.png,0,8,0,8,0,1,,,,,,,,,,
,,,,666826860cf905282f9e3421,A,2024-07-01_16h52.49.768,Slot Machine Game,2023.1.3,Win32,3.750937734,,,,,,,,,,,,,,,,,,,,,,,,,,,530,,,,,,,,,,,,,,,,,,,,,10,3,,,917.7196,9,right,0.4299,0.0003,0.5,0.3,"[3,1,2]",0.959869542,stimuli/card_10_transparent.png,10,9,0,9,0,1,,,,,,,,,,
,,,,666826860cf905282f9e3421,A,2024-07-01_16h52.49.768,Slot Machine Game,2023.1.3,Win32,3.750937734,,,,,,,,,,,,,,,,,,,,,,,,,,,630,,,,,,,,,,,,,,,,,,,,,10,3,,,919.636,10,up,1.5183,0.0005,1,0.3,"[3,1,2]",0.717817524,stimuli/card_100_transparent.png,100,10,0,10,0,1,,,,,,,,,,
,,,,666826860cf905282f9e3421,A,2024-07-01_16h52.49.768,Slot Machine Game,2023.1.3,Win32,3.750937734,,,,,,,,,,,,,,,,,,,,,,,,,,,630,,,,,,,,,,,,,,,,,,,,,10,3,,,923.4962,11,left,0.3366,0.0008,0.5,0.3,"[3,1,2]",0.907246168,stimuli/card_0_transparent.png,0,11,0,11,0,1,,,,,,,,,,
,,,,666826860cf905282f9e3421,A,2024-07-01_16h52.49.768,Slot Machine Game,2023.1.3,Win32,3.750937734,,,,,,,,,,,,,,,,,,,,,,,,,,,730,,,,,,,,,,,,,,,,,,,,,10,3,,,925.3114,12,up,0.2841,,0.5,0.3,"[3,1,2]",0.282095872,stimuli/card_100_transparent.png,100,12,0,12,0,1,,,,,,,,,,
,,,,666826860cf905282f9e3421,A,2024-07-01_16h52.49.768,Slot Machine Game,2023.1.3,Win32,3.750937734,,,,,,,,,,,,,,,,,,,,,,,,,,,830,,,,,,,,,,,,,,,,,,,,,10,3,,,926.96,13,up,0.6151,,0.5,0.3,"[3,1,2]",0.201737559,stimuli/card_100_transparent.png,100,13,0,13,0,1,,,,,,,,,,
,,,,666826860cf905282f9e3421,A,2024-07-01_16h52.49.768,Slot Machine Game,2023.1.3,Win32,3.750937734,,,,,,,,,,,,,,,,,,,,,,,,,,,840,,,,,,,,,,,,,,,,,,,,,10,3,,,929.0094,14,right,0.7895,,1.5,0.3,"[3,1,2]",0.252817574,stimuli/card_10_transparent.png,10,14,0,14,0,1,,,,,,,,,,
,,,,666826860cf905282f9e3421,A,2024-07-01_16h52.49.768,Slot Machine Game,2023.1.3,Win32,3.750937734,,,,,,,,,,,,,,,,,,,,,,,,,,,,,,,,,,,932.7358,,,,,,,,,,,,,,,,,,,,,,,,,,,,,,,,,"[840,340,630,650,910,740,740,660,650,840]",9,0,9,0,1,,,,
,,,,666826860cf905282f9e3421,A,2024-07-01_16h52.49.768,Slot Machine Game,2023.1.3,Win32,3.750937734,,,,,,,,,,,,,,,,,,,,,,,,,,,,,,,,,,,,,,,,,,,,,,,,,,,,,,,,,,,,,,,,,,,,,,,,,,9,"[840,340,630,650,910,740,740,660,650,840]",8.4,2024-07-01_17h08.32.550
