key_resp_welcome_started,key_resp_welcome_keys,key_resp_welcome_rt,key_resp_welcome_duration,prolific_id,path_id,date,expName,psychopyVersion,OS,frameRate,key_resp_instruction1_started,key_resp_instruction1_keys,key_resp_instruction1_rt,key_resp_instruction1_duration,key_resp_instruction2_started,key_resp_instruction2_keys,key_resp_instruction2_rt,key_resp_instruction2_duration,key_resp_instruction3_started,key_resp_instruction3_keys,key_resp_instruction3_rt,key_resp_instruction3_duration,key_resp_instruction4_started,key_resp_instruction4_keys,key_resp_instruction4_rt,key_resp_instruction4_duration,practiceCondition,practice_reward_seqs,practice_trial_started,practice_trial_num,practice_resp_rt,practice_resp_duration,practice_resp_keys,prac_presentationInterval,"practice_reward_seq: 2,1,3",reward_img,cumulative_reward,trial_reward,practice_trials.thisRepN,practice_trials.thisTrialN,practice_trials.thisN,practice_trials.thisIndex,practice_trials.ran,"practice_reward_seq: 2,3,1",block_break_started,"practice_reward_seq: 1,3,2","practice_reward_seq: 3,1,2",practice_end_time,practice_end_keys,practice_end_rt,practice_end_duration,main_instruction_text_started,block_condition,block_order_indices,main_instruction_keys,main_instruction_rt,main_instruction_duration,block_number,block_assignment,current_condition,main_reward_seqs,main_trial_started,main_trial_num,main_trial_keys,main_trial_rt,main_trial_duration,main_presentationInterval,reward_presentation_time,main_reward_seq,reward_rand_val,main_reward_img,current_reward,main_trials.thisRepN,main_trials.thisTrialN,main_trials.thisN,main_trials.thisIndex,main_trials.ran,block_reward,block.thisRepN,block.thisTrialN,block.thisN,block.thisIndex,block.ran,block_reward.length,block_reward_all,reward_amount,date_end_task
0.0002,space,2.3128,,667d9cb7bafabb164cbf14a2,A,2024-07-01_11h13.06.750,Slot Machine Game,2023.1.3,Win32,59.52380952,,,,,,,,,,,,,,,,,,,,,,,,,,,,,,,,,,,,,,,,,,,,,,,,,,,,,,,,,,,,,,,,,,,,,,,,,,,,,
,,,,667d9cb7bafabb164cbf14a2,A,2024-07-01_11h13.06.750,Slot Machine Game,2023.1.3,Win32,59.52380952,2.327,space,10.1067,,,,,,,,,,,,,,,,,,,,,,,,,,,,,,,,,,,,,,,,,,,,,,,,,,,,,,,,,,,,,,,,,,,,,,,,,,
,,,,667d9cb7bafabb164cbf14a2,A,2024-07-01_11h13.06.750,Slot Machine Game,2023.1.3,Win32,59.52380952,,,,,12.4475,space,23.9327,,,,,,,,,,,,,,,,,,,,,,,,,,,,,,,,,,,,,,,,,,,,,,,,,,,,,,,,,,,,,,,,,,,,,,
,,,,667d9cb7bafabb164cbf14a2,A,2024-07-01_11h13.06.750,Slot Machine Game,2023.1.3,Win32,59.52380952,,,,,,,,,36.4448,space,14.9287,,,,,,,,,,,,,,,,,,,,,,,,,,,,,,,,,,,,,,,,,,,,,,,,,,,,,,,,,,,,,,,,,,
,,,,667d9cb7bafabb164cbf14a2,A,2024-07-01_11h13.06.750,Slot Machine Game,2023.1.3,Win32,59.52380952,,,,,,,,,,,,,,,,,,,,,,,,,,,,,,,,,,,,,,,,,,,,,,,,,,,,,,,,,,,,,,,,,,,,,,,,,,,,,
,,,,667d9cb7bafabb164cbf14a2,A,2024-07-01_11h13.06.750,Slot Machine Game,2023.1.3,Win32,59.52380952,,,,,,,,,,,,,193.9723,space,3.2344,,,,,,,,,,,,,,,,,,,,,,,,,,,,,,,,,,,,,,,,,,,,,,,,,,,,,,,,,,,,,,
,,,,667d9cb7bafabb164cbf14a2,A,2024-07-01_11h13.06.750,Slot Machine Game,2023.1.3,Win32,59.52380952,,,,,,,,,,,,,,,,,"[9,15]","[[2,1,3],[2,3,1]]",197.238,0,2.3366,,left,0.5,,stimuli/card_0_transparent.png,0,0,0,0,0,0,1,,,,,,,,,,,,,,,,,,,,,,,,,,,,,,,,,,,,,,,,,,,,
,,,,667d9cb7bafabb164cbf14a2,A,2024-07-01_11h13.06.750,Slot Machine Game,2023.1.3,Win32,59.52380952,,,,,,,,,,,,,,,,,,,200.9017,1,0.4114,,up,0.5,,stimuli/card_100_transparent.png,100,100,1,0,1,0,1,,,,,,,,,,,,,,,,,,,,,,,,,,,,,,,,,,,,,,,,,,,,
,,,,667d9cb7bafabb164cbf14a2,A,2024-07-01_11h13.06.750,Slot Machine Game,2023.1.3,Win32,59.52380952,,,,,,,,,,,,,,,,,,,202.6516,2,0.0611,,up,1,,stimuli/card_100_transparent.png,200,100,2,0,2,0,1,,,,,,,,,,,,,,,,,,,,,,,,,,,,,,,,,,,,,,,,,,,,
,,,,667d9cb7bafabb164cbf14a2,A,2024-07-01_11h13.06.750,Slot Machine Game,2023.1.3,Win32,59.52380952,,,,,,,,,,,,,,,,,,,204.5348,3,2.5672,,up,0.5,,stimuli/card_0_transparent.png,200,0,3,0,3,0,1,,,,,,,,,,,,,,,,,,,,,,,,,,,,,,,,,,,,,,,,,,,,
,,,,667d9cb7bafabb164cbf14a2,A,2024-07-01_11h13.06.750,Slot Machine Game,2023.1.3,Win32,59.52380952,,,,,,,,,,,,,,,,,,,208.435,4,2.5317,,up,1.5,,stimuli/card_100_transparent.png,300,100,4,0,4,0,1,,,,,,,,,,,,,,,,,,,,,,,,,,,,,,,,,,,,,,,,,,,,
,,,,667d9cb7bafabb164cbf14a2,A,2024-07-01_11h13.06.750,Slot Machine Game,2023.1.3,Win32,59.52380952,,,,,,,,,,,,,,,,,,,213.2908,5,0.0339,,up,0.5,,stimuli/card_100_transparent.png,400,100,5,0,5,0,1,,,,,,,,,,,,,,,,,,,,,,,,,,,,,,,,,,,,,,,,,,,,
,,,,667d9cb7bafabb164cbf14a2,A,2024-07-01_11h13.06.750,Slot Machine Game,2023.1.3,Win32,59.52380952,,,,,,,,,,,,,,,,,,,214.6586,6,1.8711,,up,0.5,,stimuli/card_100_transparent.png,500,100,6,0,6,0,1,,,,,,,,,,,,,,,,,,,,,,,,,,,,,,,,,,,,,,,,,,,,
,,,,667d9cb7bafabb164cbf14a2,A,2024-07-01_11h13.06.750,Slot Machine Game,2023.1.3,Win32,59.52380952,,,,,,,,,,,,,,,,,,,217.8611,7,1.5981,,up,0.5,,stimuli/card_100_transparent.png,600,100,7,0,7,0,1,,,,,,,,,,,,,,,,,,,,,,,,,,,,,,,,,,,,,,,,,,,,
,,,,667d9cb7bafabb164cbf14a2,A,2024-07-01_11h13.06.750,Slot Machine Game,2023.1.3,Win32,59.52380952,,,,,,,,,,,,,,,,,,,220.7522,8,0.0342,,up,1.5,,stimuli/card_100_transparent.png,700,100,8,0,8,0,1,,,,,,,,,,,,,,,,,,,,,,,,,,,,,,,,,,,,,,,,,,,,
,,,,667d9cb7bafabb164cbf14a2,A,2024-07-01_11h13.06.750,Slot Machine Game,2023.1.3,Win32,59.52380952,,,,,,,,,,,,,,,,,,,223.1189,9,2.5537,,up,0.5,,stimuli/card_10_transparent.png,710,10,9,0,9,0,1,,,,,,,,,,,,,,,,,,,,,,,,,,,,,,,,,,,,,,,,,,,,
,,,,667d9cb7bafabb164cbf14a2,A,2024-07-01_11h13.06.750,Slot Machine Game,2023.1.3,Win32,59.52380952,,,,,,,,,,,,,,,,,,,226.9864,10,0.1013,,up,0.5,,stimuli/card_0_transparent.png,710,0,10,0,10,0,1,,,,,,,,,,,,,,,,,,,,,,,,,,,,,,,,,,,,,,,,,,,,
,,,,667d9cb7bafabb164cbf14a2,A,2024-07-01_11h13.06.750,Slot Machine Game,2023.1.3,Win32,59.52380952,,,,,,,,,,,,,,,,,,,228.4207,11,0.0507,,right,0.5,,stimuli/card_100_transparent.png,810,100,11,0,11,0,1,,,,,,,,,,,,,,,,,,,,,,,,,,,,,,,,,,,,,,,,,,,,
,,,,667d9cb7bafabb164cbf14a2,A,2024-07-01_11h13.06.750,Slot Machine Game,2023.1.3,Win32,59.52380952,,,,,,,,,,,,,,,,,,,229.7883,12,0.8847,,right,1.5,,stimuli/card_100_transparent.png,910,100,12,0,12,0,1,,,,,,,,,,,,,,,,,,,,,,,,,,,,,,,,,,,,,,,,,,,,
,,,,667d9cb7bafabb164cbf14a2,A,2024-07-01_11h13.06.750,Slot Machine Game,2023.1.3,Win32,59.52380952,,,,,,,,,,,,,,,,,,,232.9909,13,0.2511,,right,1,,stimuli/card_10_transparent.png,920,10,13,0,13,0,1,,,,,,,,,,,,,,,,,,,,,,,,,,,,,,,,,,,,,,,,,,,,
,,,,667d9cb7bafabb164cbf14a2,A,2024-07-01_11h13.06.750,Slot Machine Game,2023.1.3,Win32,59.52380952,,,,,,,,,,,,,,,,,,,235.059,14,0.3513,,right,1.5,,stimuli/card_100_transparent.png,1020,100,14,0,14,0,1,,,,,,,,,,,,,,,,,,,,,,,,,,,,,,,,,,,,,,,,,,,,
,,,,667d9cb7bafabb164cbf14a2,A,2024-07-01_11h13.06.750,Slot Machine Game,2023.1.3,Win32,59.52380952,,,,,,,,,,,,,,,,,"[6,15]","[[1,3,2],[3,1,2]]",242.7549,0,0.7197,,left,1.5,,stimuli/card_100_transparent.png,100,100,0,0,0,0,1,,237.7371,,,,,,,,,,,,,,,,,,,,,,,,,,,,,,,,,,,,,,,,,,
,,,,667d9cb7bafabb164cbf14a2,A,2024-07-01_11h13.06.750,Slot Machine Game,2023.1.3,Win32,59.52380952,,,,,,,,,,,,,,,,,,,245.8178,1,0.0507,,left,1,,stimuli/card_100_transparent.png,200,100,1,0,1,0,1,,,,,,,,,,,,,,,,,,,,,,,,,,,,,,,,,,,,,,,,,,,,
,,,,667d9cb7bafabb164cbf14a2,A,2024-07-01_11h13.06.750,Slot Machine Game,2023.1.3,Win32,59.52380952,,,,,,,,,,,,,,,,,,,247.7035,2,0.9854,,left,1,,stimuli/card_100_transparent.png,300,100,2,0,2,0,1,,,,,,,,,,,,,,,,,,,,,,,,,,,,,,,,,,,,,,,,,,,,
,,,,667d9cb7bafabb164cbf14a2,A,2024-07-01_11h13.06.750,Slot Machine Game,2023.1.3,Win32,59.52380952,,,,,,,,,,,,,,,,,,,250.522,3,0.6508,,left,1.5,,stimuli/card_10_transparent.png,310,10,3,0,3,0,1,,,,,,,,,,,,,,,,,,,,,,,,,,,,,,,,,,,,,,,,,,,,
,,,,667d9cb7bafabb164cbf14a2,A,2024-07-01_11h13.06.750,Slot Machine Game,2023.1.3,Win32,59.52380952,,,,,,,,,,,,,,,,,,,253.4911,4,0.4677,,left,0.5,,stimuli/card_100_transparent.png,410,100,4,0,4,0,1,,,,,,,,,,,,,,,,,,,,,,,,,,,,,,,,,,,,,,,,,,,,
,,,,667d9cb7bafabb164cbf14a2,A,2024-07-01_11h13.06.750,Slot Machine Game,2023.1.3,Win32,59.52380952,,,,,,,,,,,,,,,,,,,255.276,5,1.2515,,left,1,,stimuli/card_100_transparent.png,510,100,5,0,5,0,1,,,,,,,,,,,,,,,,,,,,,,,,,,,,,,,,,,,,,,,,,,,,
,,,,667d9cb7bafabb164cbf14a2,A,2024-07-01_11h13.06.750,Slot Machine Game,2023.1.3,Win32,59.52380952,,,,,,,,,,,,,,,,,,,258.3453,6,0.3174,,left,1.5,,stimuli/card_100_transparent.png,610,100,6,0,6,0,1,,,,,,,,,,,,,,,,,,,,,,,,,,,,,,,,,,,,,,,,,,,,
,,,,667d9cb7bafabb164cbf14a2,A,2024-07-01_11h13.06.750,Slot Machine Game,2023.1.3,Win32,59.52380952,,,,,,,,,,,,,,,,,,,260.9814,7,0.3505,,left,1.5,,stimuli/card_0_transparent.png,610,0,7,0,7,0,1,,,,,,,,,,,,,,,,,,,,,,,,,,,,,,,,,,,,,,,,,,,,
,,,,667d9cb7bafabb164cbf14a2,A,2024-07-01_11h13.06.750,Slot Machine Game,2023.1.3,Win32,59.52380952,,,,,,,,,,,,,,,,,,,263.6663,8,0.2839,,left,1.5,,stimuli/card_0_transparent.png,610,0,8,0,8,0,1,,,,,,,,,,,,,,,,,,,,,,,,,,,,,,,,,,,,,,,,,,,,
,,,,667d9cb7bafabb164cbf14a2,A,2024-07-01_11h13.06.750,Slot Machine Game,2023.1.3,Win32,59.52380952,,,,,,,,,,,,,,,,,,,266.2683,9,0.4174,,up,1.5,,stimuli/card_100_transparent.png,710,100,9,0,9,0,1,,,,,,,,,,,,,,,,,,,,,,,,,,,,,,,,,,,,,,,,,,,,
,,,,667d9cb7bafabb164cbf14a2,A,2024-07-01_11h13.06.750,Slot Machine Game,2023.1.3,Win32,59.52380952,,,,,,,,,,,,,,,,,,,269.0046,10,0.5306,,up,0.5,,stimuli/card_100_transparent.png,810,100,10,0,10,0,1,,,,,,,,,,,,,,,,,,,,,,,,,,,,,,,,,,,,,,,,,,,,
,,,,667d9cb7bafabb164cbf14a2,A,2024-07-01_11h13.06.750,Slot Machine Game,2023.1.3,Win32,59.52380952,,,,,,,,,,,,,,,,,,,270.871,11,0.3348,,up,0.5,,stimuli/card_100_transparent.png,910,100,11,0,11,0,1,,,,,,,,,,,,,,,,,,,,,,,,,,,,,,,,,,,,,,,,,,,,
,,,,667d9cb7bafabb164cbf14a2,A,2024-07-01_11h13.06.750,Slot Machine Game,2023.1.3,Win32,59.52380952,,,,,,,,,,,,,,,,,,,272.5397,12,0.2678,,up,1.5,,stimuli/card_100_transparent.png,1010,100,12,0,12,0,1,,,,,,,,,,,,,,,,,,,,,,,,,,,,,,,,,,,,,,,,,,,,
,,,,667d9cb7bafabb164cbf14a2,A,2024-07-01_11h13.06.750,Slot Machine Game,2023.1.3,Win32,59.52380952,,,,,,,,,,,,,,,,,,,275.1219,13,1.1517,,up,1,,stimuli/card_100_transparent.png,1110,100,13,0,13,0,1,,,,,,,,,,,,,,,,,,,,,,,,,,,,,,,,,,,,,,,,,,,,
,,,,667d9cb7bafabb164cbf14a2,A,2024-07-01_11h13.06.750,Slot Machine Game,2023.1.3,Win32,59.52380952,,,,,,,,,,,,,,,,,,,278.1275,14,0.1092,,up,0.5,,stimuli/card_100_transparent.png,1210,100,14,0,14,0,1,,,,,,,,,,,,,,,,,,,,,,,,,,,,,,,,,,,,,,,,,,,,
,,,,667d9cb7bafabb164cbf14a2,A,2024-07-01_11h13.06.750,Slot Machine Game,2023.1.3,Win32,59.52380952,,,,,,,,,,,,,,,,,,,,,,,,,,,,,,,,,,,279.5715,,,284.5813,space,3.5341,,,,,,,,,,,,,,,,,,,,,,,,,,,,,,,,,,,,,
,,,,667d9cb7bafabb164cbf14a2,A,2024-07-01_11h13.06.750,Slot Machine Game,2023.1.3,Win32,59.52380952,,,,,,,,,,,,,,,,,,,,,,,,,,,,,,,,,,,,,,,,,,288.1349,1,"[0,1,2,3,4,5,6,7,8,9]",space,1.3165,,,,,,,,,,,,,,,,,,,,,,,,,,,,,,,
,,,,667d9cb7bafabb164cbf14a2,A,2024-07-01_11h13.06.750,Slot Machine Game,2023.1.3,Win32,59.52380952,,,,,,,,,,,,,,,,,,,,,,,,,,,10,,,,,,,,,,,,,,,,,,,,,1,1,"[12,15]","[[2,1,3],[2,3,1]]",289.4824,0,left,0.3578,,0.5,0.3,"[2,1,3]",0.820041316,stimuli/card_10_transparent.png,10,0,0,0,0,1,,,,,,,,,,
,,,,667d9cb7bafabb164cbf14a2,A,2024-07-01_11h13.06.750,Slot Machine Game,2023.1.3,Win32,59.52380952,,,,,,,,,,,,,,,,,,,,,,,,,,,110,,,,,,,,,,,,,,,,,,,,,1,1,,,291.1723,1,up,2.42,,0.5,0.3,"[2,1,3]",0.339824784,stimuli/card_100_transparent.png,100,1,0,1,0,1,,,,,,,,,,
,,,,667d9cb7bafabb164cbf14a2,A,2024-07-01_11h13.06.750,Slot Machine Game,2023.1.3,Win32,59.52380952,,,,,,,,,,,,,,,,,,,,,,,,,,,210,,,,,,,,,,,,,,,,,,,,,1,1,,,294.9223,2,up,0.0087,,1.5,0.3,"[2,1,3]",0.667589197,stimuli/card_100_transparent.png,100,2,0,2,0,1,,,,,,,,,,
,,,,667d9cb7bafabb164cbf14a2,A,2024-07-01_11h13.06.750,Slot Machine Game,2023.1.3,Win32,59.52380952,,,,,,,,,,,,,,,,,,,,,,,,,,,210,,,,,,,,,,,,,,,,,,,,,1,1,,,297.2564,3,up,1.5852,,1,0.3,"[2,1,3]",0.024838184,stimuli/card_0_transparent.png,0,3,0,3,0,1,,,,,,,,,,
,,,,667d9cb7bafabb164cbf14a2,A,2024-07-01_11h13.06.750,Slot Machine Game,2023.1.3,Win32,59.52380952,,,,,,,,,,,,,,,,,,,,,,,,,,,310,,,,,,,,,,,,,,,,,,,,,1,1,,,300.6724,4,up,0.1007,,1.5,0.3,"[2,1,3]",0.779430881,stimuli/card_100_transparent.png,100,4,0,4,0,1,,,,,,,,,,
,,,,667d9cb7bafabb164cbf14a2,A,2024-07-01_11h13.06.750,Slot Machine Game,2023.1.3,Win32,59.52380952,,,,,,,,,,,,,,,,,,,,,,,,,,,410,,,,,,,,,,,,,,,,,,,,,1,1,,,303.1059,5,up,0.4217,,0.5,0.3,"[2,1,3]",0.214199619,stimuli/card_100_transparent.png,100,5,0,5,0,1,,,,,,,,,,
,,,,667d9cb7bafabb164cbf14a2,A,2024-07-01_11h13.06.750,Slot Machine Game,2023.1.3,Win32,59.52380952,,,,,,,,,,,,,,,,,,,,,,,,,,,510,,,,,,,,,,,,,,,,,,,,,1,1,,,304.8726,6,up,0.3347,,1.5,0.3,"[2,1,3]",0.219564895,stimuli/card_100_transparent.png,100,6,0,6,0,1,,,,,,,,,,
,,,,667d9cb7bafabb164cbf14a2,A,2024-07-01_11h13.06.750,Slot Machine Game,2023.1.3,Win32,59.52380952,,,,,,,,,,,,,,,,,,,,,,,,,,,520,,,,,,,,,,,,,,,,,,,,,1,1,,,307.5395,7,up,1.6863,,1.5,0.3,"[2,1,3]",0.178831178,stimuli/card_10_transparent.png,10,7,0,7,0,1,,,,,,,,,,
,,,,667d9cb7bafabb164cbf14a2,A,2024-07-01_11h13.06.750,Slot Machine Game,2023.1.3,Win32,59.52380952,,,,,,,,,,,,,,,,,,,,,,,,,,,620,,,,,,,,,,,,,,,,,,,,,1,1,,,311.573,8,up,0.9009,,1.5,0.3,"[2,1,3]",0.332178204,stimuli/card_100_transparent.png,100,8,0,8,0,1,,,,,,,,,,
,,,,667d9cb7bafabb164cbf14a2,A,2024-07-01_11h13.06.750,Slot Machine Game,2023.1.3,Win32,59.52380952,,,,,,,,,,,,,,,,,,,,,,,,,,,620,,,,,,,,,,,,,,,,,,,,,1,1,,,314.8083,9,up,0.0672,,0.5,0.3,"[2,1,3]",0.050903256,stimuli/card_0_transparent.png,0,9,0,9,0,1,,,,,,,,,,
,,,,667d9cb7bafabb164cbf14a2,A,2024-07-01_11h13.06.750,Slot Machine Game,2023.1.3,Win32,59.52380952,,,,,,,,,,,,,,,,,,,,,,,,,,,620,,,,,,,,,,,,,,,,,,,,,1,1,,,316.193,10,up,1.2686,,0.5,0.3,"[2,1,3]",0.068926117,stimuli/card_0_transparent.png,0,10,0,10,0,1,,,,,,,,,,
,,,,667d9cb7bafabb164cbf14a2,A,2024-07-01_11h13.06.750,Slot Machine Game,2023.1.3,Win32,59.52380952,,,,,,,,,,,,,,,,,,,,,,,,,,,620,,,,,,,,,,,,,,,,,,,,,1,1,,,318.7782,11,right,0.5677,,1.5,0.3,"[2,1,3]",0.483408636,stimuli/card_0_transparent.png,0,11,0,11,0,1,,,,,,,,,,
,,,,667d9cb7bafabb164cbf14a2,A,2024-07-01_11h13.06.750,Slot Machine Game,2023.1.3,Win32,59.52380952,,,,,,,,,,,,,,,,,,,,,,,,,,,630,,,,,,,,,,,,,,,,,,,,,1,1,,,321.6639,12,left,0.5006,,1,0.3,"[2,3,1]",0.716758063,stimuli/card_10_transparent.png,10,12,0,12,0,1,,,,,,,,,,
,,,,667d9cb7bafabb164cbf14a2,A,2024-07-01_11h13.06.750,Slot Machine Game,2023.1.3,Win32,59.52380952,,,,,,,,,,,,,,,,,,,,,,,,,,,640,,,,,,,,,,,,,,,,,,,,,1,1,,,323.9826,13,left,1.8362,,0.5,0.3,"[2,3,1]",0.43656455,stimuli/card_10_transparent.png,10,13,0,13,0,1,,,,,,,,,,
,,,,667d9cb7bafabb164cbf14a2,A,2024-07-01_11h13.06.750,Slot Machine Game,2023.1.3,Win32,59.52380952,,,,,,,,,,,,,,,,,,,,,,,,,,,640,,,,,,,,,,,,,,,,,,,,,1,1,,,327.1353,14,right,0.8014,,0.5,0.3,"[2,3,1]",0.023382456,stimuli/card_0_transparent.png,0,14,0,14,0,1,,,,,,,,,,
,,,,667d9cb7bafabb164cbf14a2,A,2024-07-01_11h13.06.750,Slot Machine Game,2023.1.3,Win32,59.52380952,,,,,,,,,,,,,,,,,,,,,,,,,,,,,,,,,,,329.2706,,,,,,,,,,,,,,,,,,,,,,,,,,,,,,,,,[640],0,0,0,0,1,,,,
,,,,667d9cb7bafabb164cbf14a2,A,2024-07-01_11h13.06.750,Slot Machine Game,2023.1.3,Win32,59.52380952,,,,,,,,,,,,,,,,,,,,,,,,,,,100,,,,,,,,,,,,,,,,,,,,,2,2,"[6,15]","[[1,3,2],[3,2,1]]",334.2834,0,left,2.0854,,1.5,0.3,"[1,3,2]",0.473186444,stimuli/card_100_transparent.png,100,0,0,0,0,1,,,,,,,,,,
,,,,667d9cb7bafabb164cbf14a2,A,2024-07-01_11h13.06.750,Slot Machine Game,2023.1.3,Win32,59.52380952,,,,,,,,,,,,,,,,,,,,,,,,,,,200,,,,,,,,,,,,,,,,,,,,,2,2,,,338.6945,1,left,0.1672,,1.5,0.3,"[1,3,2]",0.934700994,stimuli/card_100_transparent.png,100,1,0,1,0,1,,,,,,,,,,
,,,,667d9cb7bafabb164cbf14a2,A,2024-07-01_11h13.06.750,Slot Machine Game,2023.1.3,Win32,59.52380952,,,,,,,,,,,,,,,,,,,,,,,,,,,300,,,,,,,,,,,,,,,,,,,,,2,2,,,341.1803,2,left,0.9851,,1,0.3,"[1,3,2]",0.21527557,stimuli/card_100_transparent.png,100,2,0,2,0,1,,,,,,,,,,
,,,,667d9cb7bafabb164cbf14a2,A,2024-07-01_11h13.06.750,Slot Machine Game,2023.1.3,Win32,59.52380952,,,,,,,,,,,,,,,,,,,,,,,,,,,400,,,,,,,,,,,,,,,,,,,,,2,2,,,343.9822,3,left,0.0174,,0.5,0.3,"[1,3,2]",0.641193218,stimuli/card_100_transparent.png,100,3,0,3,0,1,,,,,,,,,,
,,,,667d9cb7bafabb164cbf14a2,A,2024-07-01_11h13.06.750,Slot Machine Game,2023.1.3,Win32,59.52380952,,,,,,,,,,,,,,,,,,,,,,,,,,,500,,,,,,,,,,,,,,,,,,,,,2,2,,,345.3167,4,left,0.6677,,0.5,0.3,"[1,3,2]",0.710174813,stimuli/card_100_transparent.png,100,4,0,4,0,1,,,,,,,,,,
,,,,667d9cb7bafabb164cbf14a2,A,2024-07-01_11h13.06.750,Slot Machine Game,2023.1.3,Win32,59.52380952,,,,,,,,,,,,,,,,,,,,,,,,,,,600,,,,,,,,,,,,,,,,,,,,,2,2,,,347.3018,5,left,0.4346,,1.5,0.3,"[1,3,2]",0.598950697,stimuli/card_100_transparent.png,100,5,0,5,0,1,,,,,,,,,,
,,,,667d9cb7bafabb164cbf14a2,A,2024-07-01_11h13.06.750,Slot Machine Game,2023.1.3,Win32,59.52380952,,,,,,,,,,,,,,,,,,,,,,,,,,,600,,,,,,,,,,,,,,,,,,,,,2,2,,,350.0539,6,left,1.2522,,0.5,0.3,"[3,2,1]",0.793352775,stimuli/card_0_transparent.png,0,6,0,6,0,1,,,,,,,,,,
,,,,667d9cb7bafabb164cbf14a2,A,2024-07-01_11h13.06.750,Slot Machine Game,2023.1.3,Win32,59.52380952,,,,,,,,,,,,,,,,,,,,,,,,,,,600,,,,,,,,,,,,,,,,,,,,,2,2,,,352.6369,7,left,0.9341,,1,0.3,"[3,2,1]",0.756523676,stimuli/card_0_transparent.png,0,7,0,7,0,1,,,,,,,,,,
,,,,667d9cb7bafabb164cbf14a2,A,2024-07-01_11h13.06.750,Slot Machine Game,2023.1.3,Win32,59.52380952,,,,,,,,,,,,,,,,,,,,,,,,,,,610,,,,,,,,,,,,,,,,,,,,,2,2,,,355.4084,8,up,0.201,,1,0.3,"[3,2,1]",0.435641285,stimuli/card_10_transparent.png,10,8,0,8,0,1,,,,,,,,,,
,,,,667d9cb7bafabb164cbf14a2,A,2024-07-01_11h13.06.750,Slot Machine Game,2023.1.3,Win32,59.52380952,,,,,,,,,,,,,,,,,,,,,,,,,,,620,,,,,,,,,,,,,,,,,,,,,2,2,,,357.4269,9,up,0.4343,,1.5,0.3,"[3,2,1]",0.803638847,stimuli/card_10_transparent.png,10,9,0,9,0,1,,,,,,,,,,
,,,,667d9cb7bafabb164cbf14a2,A,2024-07-01_11h13.06.750,Slot Machine Game,2023.1.3,Win32,59.52380952,,,,,,,,,,,,,,,,,,,,,,,,,,,720,,,,,,,,,,,,,,,,,,,,,2,2,,,360.1789,10,right,0.4178,,1.5,0.3,"[3,2,1]",0.992722227,stimuli/card_100_transparent.png,100,10,0,10,0,1,,,,,,,,,,
,,,,667d9cb7bafabb164cbf14a2,A,2024-07-01_11h13.06.750,Slot Machine Game,2023.1.3,Win32,59.52380952,,,,,,,,,,,,,,,,,,,,,,,,,,,820,,,,,,,,,,,,,,,,,,,,,2,2,,,362.9145,11,right,0.568,,1,0.3,"[3,2,1]",0.86113533,stimuli/card_100_transparent.png,100,11,0,11,0,1,,,,,,,,,,
,,,,667d9cb7bafabb164cbf14a2,A,2024-07-01_11h13.06.750,Slot Machine Game,2023.1.3,Win32,59.52380952,,,,,,,,,,,,,,,,,,,,,,,,,,,920,,,,,,,,,,,,,,,,,,,,,2,2,,,365.3,12,right,0.1674,,1,0.3,"[3,2,1]",0.860428742,stimuli/card_100_transparent.png,100,12,0,12,0,1,,,,,,,,,,
,,,,667d9cb7bafabb164cbf14a2,A,2024-07-01_11h13.06.750,Slot Machine Game,2023.1.3,Win32,59.52380952,,,,,,,,,,,,,,,,,,,,,,,,,,,1020,,,,,,,,,,,,,,,,,,,,,2,2,,,367.3014,13,right,0.5179,,0.5,0.3,"[3,2,1]",0.456149093,stimuli/card_100_transparent.png,100,13,0,13,0,1,,,,,,,,,,
,,,,667d9cb7bafabb164cbf14a2,A,2024-07-01_11h13.06.750,Slot Machine Game,2023.1.3,Win32,59.52380952,,,,,,,,,,,,,,,,,,,,,,,,,,,1120,,,,,,,,,,,,,,,,,,,,,2,2,,,369.1363,14,right,0.5505,,0.5,0.3,"[3,2,1]",0.918228245,stimuli/card_100_transparent.png,100,14,0,14,0,1,,,,,,,,,,
,,,,667d9cb7bafabb164cbf14a2,A,2024-07-01_11h13.06.750,Slot Machine Game,2023.1.3,Win32,59.52380952,,,,,,,,,,,,,,,,,,,,,,,,,,,,,,,,,,,371.0046,,,,,,,,,,,,,,,,,,,,,,,,,,,,,,,,,"[640,1120]",1,0,1,0,1,,,,
,,,,667d9cb7bafabb164cbf14a2,A,2024-07-01_11h13.06.750,Slot Machine Game,2023.1.3,Win32,59.52380952,,,,,,,,,,,,,,,,,,,,,,,,,,,100,,,,,,,,,,,,,,,,,,,,,3,3,"[15,15]","[[3,1,2],[3,1,2]]",376.0175,0,up,3.3006,,0.5,0.3,"[3,1,2]",0.217172578,stimuli/card_100_transparent.png,100,0,0,0,0,1,,,,,,,,,,
,,,,667d9cb7bafabb164cbf14a2,A,2024-07-01_11h13.06.750,Slot Machine Game,2023.1.3,Win32,59.52380952,,,,,,,,,,,,,,,,,,,,,,,,,,,200,,,,,,,,,,,,,,,,,,,,,3,3,,,380.6455,1,up,2.1534,,1.5,0.3,"[3,1,2]",0.344634027,stimuli/card_100_transparent.png,100,1,0,1,0,1,,,,,,,,,,
,,,,667d9cb7bafabb164cbf14a2,A,2024-07-01_11h13.06.750,Slot Machine Game,2023.1.3,Win32,59.52380952,,,,,,,,,,,,,,,,,,,,,,,,,,,300,,,,,,,,,,,,,,,,,,,,,3,3,,,385.1094,2,up,0.2738,,1,0.3,"[3,1,2]",0.420495678,stimuli/card_100_transparent.png,100,2,0,2,0,1,,,,,,,,,,
,,,,667d9cb7bafabb164cbf14a2,A,2024-07-01_11h13.06.750,Slot Machine Game,2023.1.3,Win32,59.52380952,,,,,,,,,,,,,,,,,,,,,,,,,,,400,,,,,,,,,,,,,,,,,,,,,3,3,,,387.2178,3,up,0.2007,,1,0.3,"[3,1,2]",0.254600524,stimuli/card_100_transparent.png,100,3,0,3,0,1,,,,,,,,,,
,,,,667d9cb7bafabb164cbf14a2,A,2024-07-01_11h13.06.750,Slot Machine Game,2023.1.3,Win32,59.52380952,,,,,,,,,,,,,,,,,,,,,,,,,,,400,,,,,,,,,,,,,,,,,,,,,3,3,,,389.2596,4,up,0.6506,,0.5,0.3,"[3,1,2]",0.043448507,stimuli/card_0_transparent.png,0,4,0,4,0,1,,,,,,,,,,
,,,,667d9cb7bafabb164cbf14a2,A,2024-07-01_11h13.06.750,Slot Machine Game,2023.1.3,Win32,59.52380952,,,,,,,,,,,,,,,,,,,,,,,,,,,500,,,,,,,,,,,,,,,,,,,,,3,3,,,391.235,5,up,0.9351,,1,0.3,"[3,1,2]",0.536315204,stimuli/card_100_transparent.png,100,5,0,5,0,1,,,,,,,,,,
,,,,667d9cb7bafabb164cbf14a2,A,2024-07-01_11h13.06.750,Slot Machine Game,2023.1.3,Win32,59.52380952,,,,,,,,,,,,,,,,,,,,,,,,,,,600,,,,,,,,,,,,,,,,,,,,,3,3,,,393.9932,6,up,0.4012,,0.5,0.3,"[3,1,2]",0.215244737,stimuli/card_100_transparent.png,100,6,0,6,0,1,,,,,,,,,,
,,,,667d9cb7bafabb164cbf14a2,A,2024-07-01_11h13.06.750,Slot Machine Game,2023.1.3,Win32,59.52380952,,,,,,,,,,,,,,,,,,,,,,,,,,,700,,,,,,,,,,,,,,,,,,,,,3,3,,,395.7601,7,up,1.2323,,1,0.3,"[3,1,2]",0.99784776,stimuli/card_100_transparent.png,100,7,0,7,0,1,,,,,,,,,,
,,,,667d9cb7bafabb164cbf14a2,A,2024-07-01_11h13.06.750,Slot Machine Game,2023.1.3,Win32,59.52380952,,,,,,,,,,,,,,,,,,,,,,,,,,,800,,,,,,,,,,,,,,,,,,,,,3,3,,,398.8268,8,up,0.8819,,1.5,0.3,"[3,1,2]",0.418735682,stimuli/card_100_transparent.png,100,8,0,8,0,1,,,,,,,,,,
,,,,667d9cb7bafabb164cbf14a2,A,2024-07-01_11h13.06.750,Slot Machine Game,2023.1.3,Win32,59.52380952,,,,,,,,,,,,,,,,,,,,,,,,,,,900,,,,,,,,,,,,,,,,,,,,,3,3,,,402.0437,9,up,0.3293,,1,0.3,"[3,1,2]",0.409285838,stimuli/card_100_transparent.png,100,9,0,9,0,1,,,,,,,,,,
,,,,667d9cb7bafabb164cbf14a2,A,2024-07-01_11h13.06.750,Slot Machine Game,2023.1.3,Win32,59.52380952,,,,,,,,,,,,,,,,,,,,,,,,,,,1000,,,,,,,,,,,,,,,,,,,,,3,3,,,404.1776,10,up,0.4982,,0.5,0.3,"[3,1,2]",0.68525011,stimuli/card_100_transparent.png,100,10,0,10,0,1,,,,,,,,,,
,,,,667d9cb7bafabb164cbf14a2,A,2024-07-01_11h13.06.750,Slot Machine Game,2023.1.3,Win32,59.52380952,,,,,,,,,,,,,,,,,,,,,,,,,,,1100,,,,,,,,,,,,,,,,,,,,,3,3,,,405.9999,11,up,0.3099,,0.5,0.3,"[3,1,2]",0.410366874,stimuli/card_100_transparent.png,100,11,0,11,0,1,,,,,,,,,,
,,,,667d9cb7bafabb164cbf14a2,A,2024-07-01_11h13.06.750,Slot Machine Game,2023.1.3,Win32,59.52380952,,,,,,,,,,,,,,,,,,,,,,,,,,,1200,,,,,,,,,,,,,,,,,,,,,3,3,,,407.6348,12,up,0.2752,,1.5,0.3,"[3,1,2]",0.27103645,stimuli/card_100_transparent.png,100,12,0,12,0,1,,,,,,,,,,
,,,,667d9cb7bafabb164cbf14a2,A,2024-07-01_11h13.06.750,Slot Machine Game,2023.1.3,Win32,59.52380952,,,,,,,,,,,,,,,,,,,,,,,,,,,1210,,,,,,,,,,,,,,,,,,,,,3,3,,,410.2106,13,up,0.1485,,1.5,0.3,"[3,1,2]",0.183431236,stimuli/card_10_transparent.png,10,13,0,13,0,1,,,,,,,,,,
,,,,667d9cb7bafabb164cbf14a2,A,2024-07-01_11h13.06.750,Slot Machine Game,2023.1.3,Win32,59.52380952,,,,,,,,,,,,,,,,,,,,,,,,,,,1310,,,,,,,,,,,,,,,,,,,,,3,3,,,412.6774,14,up,0.2178,,1.5,0.3,"[3,1,2]",0.959509979,stimuli/card_100_transparent.png,100,14,0,14,0,1,,,,,,,,,,
,,,,667d9cb7bafabb164cbf14a2,A,2024-07-01_11h13.06.750,Slot Machine Game,2023.1.3,Win32,59.52380952,,,,,,,,,,,,,,,,,,,,,,,,,,,,,,,,,,,415.2442,,,,,,,,,,,,,,,,,,,,,,,,,,,,,,,,,"[640,1120,1310]",2,0,2,0,1,,,,
,,,,667d9cb7bafabb164cbf14a2,A,2024-07-01_11h13.06.750,Slot Machine Game,2023.1.3,Win32,59.52380952,,,,,,,,,,,,,,,,,,,,,,,,,,,0,,,,,,,,,,,,,,,,,,,,,4,4,"[7,15]","[[2,3,1],[1,2,3]]",420.2545,0,right,1.0512,,1.5,0.3,"[2,3,1]",0.092952049,stimuli/card_0_transparent.png,0,0,0,0,0,1,,,,,,,,,,
,,,,667d9cb7bafabb164cbf14a2,A,2024-07-01_11h13.06.750,Slot Machine Game,2023.1.3,Win32,59.52380952,,,,,,,,,,,,,,,,,,,,,,,,,,,10,,,,,,,,,,,,,,,,,,,,,4,4,,,423.6311,1,left,1.5854,,0.5,0.3,"[2,3,1]",0.552017191,stimuli/card_10_transparent.png,10,1,0,1,0,1,,,,,,,,,,
,,,,667d9cb7bafabb164cbf14a2,A,2024-07-01_11h13.06.750,Slot Machine Game,2023.1.3,Win32,59.52380952,,,,,,,,,,,,,,,,,,,,,,,,,,,20,,,,,,,,,,,,,,,,,,,,,4,4,,,426.5339,2,up,0.0171,,1,0.3,"[2,3,1]",0.126833179,stimuli/card_10_transparent.png,10,2,0,2,0,1,,,,,,,,,,
,,,,667d9cb7bafabb164cbf14a2,A,2024-07-01_11h13.06.750,Slot Machine Game,2023.1.3,Win32,59.52380952,,,,,,,,,,,,,,,,,,,,,,,,,,,30,,,,,,,,,,,,,,,,,,,,,4,4,,,428.3686,3,left,0.9011,,1.5,0.3,"[2,3,1]",0.554703162,stimuli/card_10_transparent.png,10,3,0,3,0,1,,,,,,,,,,
,,,,667d9cb7bafabb164cbf14a2,A,2024-07-01_11h13.06.750,Slot Machine Game,2023.1.3,Win32,59.52380952,,,,,,,,,,,,,,,,,,,,,,,,,,,30,,,,,,,,,,,,,,,,,,,,,4,4,,,431.5879,4,up,1.2018,,1.5,0.3,"[2,3,1]",0.619076582,stimuli/card_0_transparent.png,0,4,0,4,0,1,,,,,,,,,,
,,,,667d9cb7bafabb164cbf14a2,A,2024-07-01_11h13.06.750,Slot Machine Game,2023.1.3,Win32,59.52380952,,,,,,,,,,,,,,,,,,,,,,,,,,,130,,,,,,,,,,,,,,,,,,,,,4,4,,,435.1076,5,right,0.2175,,0.5,0.3,"[2,3,1]",0.214156495,stimuli/card_100_transparent.png,100,5,0,5,0,1,,,,,,,,,,
,,,,667d9cb7bafabb164cbf14a2,A,2024-07-01_11h13.06.750,Slot Machine Game,2023.1.3,Win32,59.52380952,,,,,,,,,,,,,,,,,,,,,,,,,,,230,,,,,,,,,,,,,,,,,,,,,4,4,,,436.6417,6,right,0.0507,,1,0.3,"[2,3,1]",0.607419475,stimuli/card_100_transparent.png,100,6,0,6,0,1,,,,,,,,,,
,,,,667d9cb7bafabb164cbf14a2,A,2024-07-01_11h13.06.750,Slot Machine Game,2023.1.3,Win32,59.52380952,,,,,,,,,,,,,,,,,,,,,,,,,,,230,,,,,,,,,,,,,,,,,,,,,4,4,,,438.5119,7,right,0.5509,,1,0.3,"[1,2,3]",0.381318519,stimuli/card_0_transparent.png,0,7,0,7,0,1,,,,,,,,,,
,,,,667d9cb7bafabb164cbf14a2,A,2024-07-01_11h13.06.750,Slot Machine Game,2023.1.3,Win32,59.52380952,,,,,,,,,,,,,,,,,,,,,,,,,,,230,,,,,,,,,,,,,,,,,,,,,4,4,,,440.8953,8,right,0.1006,,1,0.3,"[1,2,3]",0.896764496,stimuli/card_0_transparent.png,0,8,0,8,0,1,,,,,,,,,,
,,,,667d9cb7bafabb164cbf14a2,A,2024-07-01_11h13.06.750,Slot Machine Game,2023.1.3,Win32,59.52380952,,,,,,,,,,,,,,,,,,,,,,,,,,,330,,,,,,,,,,,,,,,,,,,,,4,4,,,442.8303,9,left,0.2571,,1.5,0.3,"[1,2,3]",0.257817433,stimuli/card_100_transparent.png,100,9,0,9,0,1,,,,,,,,,,
,,,,667d9cb7bafabb164cbf14a2,A,2024-07-01_11h13.06.750,Slot Machine Game,2023.1.3,Win32,59.52380952,,,,,,,,,,,,,,,,,,,,,,,,,,,430,,,,,,,,,,,,,,,,,,,,,4,4,,,445.4293,10,left,0.3839,,0.5,0.3,"[1,2,3]",0.293025286,stimuli/card_100_transparent.png,100,10,0,10,0,1,,,,,,,,,,
,,,,667d9cb7bafabb164cbf14a2,A,2024-07-01_11h13.06.750,Slot Machine Game,2023.1.3,Win32,59.52380952,,,,,,,,,,,,,,,,,,,,,,,,,,,530,,,,,,,,,,,,,,,,,,,,,4,4,,,447.1465,11,left,0.127,,0.5,0.3,"[1,2,3]",0.32809832,stimuli/card_100_transparent.png,100,11,0,11,0,1,,,,,,,,,,
,,,,667d9cb7bafabb164cbf14a2,A,2024-07-01_11h13.06.750,Slot Machine Game,2023.1.3,Win32,59.52380952,,,,,,,,,,,,,,,,,,,,,,,,,,,630,,,,,,,,,,,,,,,,,,,,,4,4,,,448.5792,12,left,0.0046,,1.5,0.3,"[1,2,3]",0.872678313,stimuli/card_100_transparent.png,100,12,0,12,0,1,,,,,,,,,,
,,,,667d9cb7bafabb164cbf14a2,A,2024-07-01_11h13.06.750,Slot Machine Game,2023.1.3,Win32,59.52380952,,,,,,,,,,,,,,,,,,,,,,,,,,,730,,,,,,,,,,,,,,,,,,,,,4,4,,,450.9124,13,left,0.1034,,1.5,0.3,"[1,2,3]",0.342479751,stimuli/card_100_transparent.png,100,13,0,13,0,1,,,,,,,,,,
,,,,667d9cb7bafabb164cbf14a2,A,2024-07-01_11h13.06.750,Slot Machine Game,2023.1.3,Win32,59.52380952,,,,,,,,,,,,,,,,,,,,,,,,,,,830,,,,,,,,,,,,,,,,,,,,,4,4,,,453.3533,14,left,1.2185,,0.5,0.3,"[1,2,3]",0.337197691,stimuli/card_100_transparent.png,100,14,0,14,0,1,,,,,,,,,,
,,,,667d9cb7bafabb164cbf14a2,A,2024-07-01_11h13.06.750,Slot Machine Game,2023.1.3,Win32,59.52380952,,,,,,,,,,,,,,,,,,,,,,,,,,,,,,,,,,,455.896,,,,,,,,,,,,,,,,,,,,,,,,,,,,,,,,,"[640,1120,1310,830]",3,0,3,0,1,,,,
,,,,667d9cb7bafabb164cbf14a2,A,2024-07-01_11h13.06.750,Slot Machine Game,2023.1.3,Win32,59.52380952,,,,,,,,,,,,,,,,,,,,,,,,,,,100,,,,,,,,,,,,,,,,,,,,,5,5,"[5,15]","[[1,2,3],[3,1,2]]",460.9075,0,left,0.999,,1,0.3,"[1,2,3]",0.423179337,stimuli/card_100_transparent.png,100,0,0,0,0,1,,,,,,,,,,
,,,,667d9cb7bafabb164cbf14a2,A,2024-07-01_11h13.06.750,Slot Machine Game,2023.1.3,Win32,59.52380952,,,,,,,,,,,,,,,,,,,,,,,,,,,200,,,,,,,,,,,,,,,,,,,,,5,5,,,463.7296,1,left,0.3309,,0.5,0.3,"[1,2,3]",0.383765937,stimuli/card_100_transparent.png,100,1,0,1,0,1,,,,,,,,,,
,,,,667d9cb7bafabb164cbf14a2,A,2024-07-01_11h13.06.750,Slot Machine Game,2023.1.3,Win32,59.52380952,,,,,,,,,,,,,,,,,,,,,,,,,,,300,,,,,,,,,,,,,,,,,,,,,5,5,,,465.3964,2,left,0.0979,,1,0.3,"[1,2,3]",0.600305388,stimuli/card_100_transparent.png,100,2,0,2,0,1,,,,,,,,,,
,,,,667d9cb7bafabb164cbf14a2,A,2024-07-01_11h13.06.750,Slot Machine Game,2023.1.3,Win32,59.52380952,,,,,,,,,,,,,,,,,,,,,,,,,,,400,,,,,,,,,,,,,,,,,,,,,5,5,,,467.3139,3,left,0.3281,,0.5,0.3,"[1,2,3]",0.87721101,stimuli/card_100_transparent.png,100,3,0,3,0,1,,,,,,,,,,
,,,,667d9cb7bafabb164cbf14a2,A,2024-07-01_11h13.06.750,Slot Machine Game,2023.1.3,Win32,59.52380952,,,,,,,,,,,,,,,,,,,,,,,,,,,500,,,,,,,,,,,,,,,,,,,,,5,5,,,468.9811,4,left,0.3089,,1,0.3,"[1,2,3]",0.979355252,stimuli/card_100_transparent.png,100,4,0,4,0,1,,,,,,,,,,
,,,,667d9cb7bafabb164cbf14a2,A,2024-07-01_11h13.06.750,Slot Machine Game,2023.1.3,Win32,59.52380952,,,,,,,,,,,,,,,,,,,,,,,,,,,500,,,,,,,,,,,,,,,,,,,,,5,5,,,471.0966,5,left,0.2694,,1,0.3,"[3,1,2]",0.321509278,stimuli/card_0_transparent.png,0,5,0,5,0,1,,,,,,,,,,
,,,,667d9cb7bafabb164cbf14a2,A,2024-07-01_11h13.06.750,Slot Machine Game,2023.1.3,Win32,59.52380952,,,,,,,,,,,,,,,,,,,,,,,,,,,500,,,,,,,,,,,,,,,,,,,,,5,5,,,473.2055,6,left,0.3038,,0.5,0.3,"[3,1,2]",0.705994483,stimuli/card_0_transparent.png,0,6,0,6,0,1,,,,,,,,,,
,,,,667d9cb7bafabb164cbf14a2,A,2024-07-01_11h13.06.750,Slot Machine Game,2023.1.3,Win32,59.52380952,,,,,,,,,,,,,,,,,,,,,,,,,,,600,,,,,,,,,,,,,,,,,,,,,5,5,,,474.8301,7,up,0.0838,,1,0.3,"[3,1,2]",0.359654129,stimuli/card_100_transparent.png,100,7,0,7,0,1,,,,,,,,,,
,,,,667d9cb7bafabb164cbf14a2,A,2024-07-01_11h13.06.750,Slot Machine Game,2023.1.3,Win32,59.52380952,,,,,,,,,,,,,,,,,,,,,,,,,,,700,,,,,,,,,,,,,,,,,,,,,5,5,,,476.7577,8,up,0.1151,,1.5,0.3,"[3,1,2]",0.337175703,stimuli/card_100_transparent.png,100,8,0,8,0,1,,,,,,,,,,
,,,,667d9cb7bafabb164cbf14a2,A,2024-07-01_11h13.06.750,Slot Machine Game,2023.1.3,Win32,59.52380952,,,,,,,,,,,,,,,,,,,,,,,,,,,800,,,,,,,,,,,,,,,,,,,,,5,5,,,479.2137,9,up,0.4678,,1,0.3,"[3,1,2]",0.731326971,stimuli/card_100_transparent.png,100,9,0,9,0,1,,,,,,,,,,
,,,,667d9cb7bafabb164cbf14a2,A,2024-07-01_11h13.06.750,Slot Machine Game,2023.1.3,Win32,59.52380952,,,,,,,,,,,,,,,,,,,,,,,,,,,900,,,,,,,,,,,,,,,,,,,,,5,5,,,481.5138,10,up,0.3173,,1.5,0.3,"[3,1,2]",0.21950703,stimuli/card_100_transparent.png,100,10,0,10,0,1,,,,,,,,,,
,,,,667d9cb7bafabb164cbf14a2,A,2024-07-01_11h13.06.750,Slot Machine Game,2023.1.3,Win32,59.52380952,,,,,,,,,,,,,,,,,,,,,,,,,,,1000,,,,,,,,,,,,,,,,,,,,,5,5,,,484.181,11,up,0.4009,,1,0.3,"[3,1,2]",0.445691087,stimuli/card_100_transparent.png,100,11,0,11,0,1,,,,,,,,,,
,,,,667d9cb7bafabb164cbf14a2,A,2024-07-01_11h13.06.750,Slot Machine Game,2023.1.3,Win32,59.52380952,,,,,,,,,,,,,,,,,,,,,,,,,,,1100,,,,,,,,,,,,,,,,,,,,,5,5,,,486.3998,12,up,0.8676,,1,0.3,"[3,1,2]",0.744106453,stimuli/card_100_transparent.png,100,12,0,12,0,1,,,,,,,,,,
,,,,667d9cb7bafabb164cbf14a2,A,2024-07-01_11h13.06.750,Slot Machine Game,2023.1.3,Win32,59.52380952,,,,,,,,,,,,,,,,,,,,,,,,,,,1200,,,,,,,,,,,,,,,,,,,,,5,5,,,489.0852,13,up,1.0177,,0.5,0.3,"[3,1,2]",0.299093698,stimuli/card_100_transparent.png,100,13,0,13,0,1,,,,,,,,,,
,,,,667d9cb7bafabb164cbf14a2,A,2024-07-01_11h13.06.750,Slot Machine Game,2023.1.3,Win32,59.52380952,,,,,,,,,,,,,,,,,,,,,,,,,,,1300,,,,,,,,,,,,,,,,,,,,,5,5,,,491.4203,14,up,0.4179,,0.5,0.3,"[3,1,2]",0.647078605,stimuli/card_100_transparent.png,100,14,0,14,0,1,,,,,,,,,,
,,,,667d9cb7bafabb164cbf14a2,A,2024-07-01_11h13.06.750,Slot Machine Game,2023.1.3,Win32,59.52380952,,,,,,,,,,,,,,,,,,,,,,,,,,,,,,,,,,,493.1553,,,,,,,,,,,,,,,,,,,,,,,,,,,,,,,,,"[640,1120,1310,830,1300]",4,0,4,0,1,,,,
,,,,667d9cb7bafabb164cbf14a2,A,2024-07-01_11h13.06.750,Slot Machine Game,2023.1.3,Win32,59.52380952,,,,,,,,,,,,,,,,,,,,,,,,,,,10,,,,,,,,,,,,,,,,,,,,,6,6,"[4,10,15]","[[2,3,1],[1,3,2],[3,2,1]]",498.1687,0,right,3.0202,,1.5,0.3,"[2,3,1]",0.161062041,stimuli/card_10_transparent.png,10,0,0,0,0,1,,,,,,,,,,
,,,,667d9cb7bafabb164cbf14a2,A,2024-07-01_11h13.06.750,Slot Machine Game,2023.1.3,Win32,59.52380952,,,,,,,,,,,,,,,,,,,,,,,,,,,10,,,,,,,,,,,,,,,,,,,,,6,6,,,503.5314,1,up,0.3184,,0.5,0.3,"[2,3,1]",0.578898141,stimuli/card_0_transparent.png,0,1,0,1,0,1,,,,,,,,,,
,,,,667d9cb7bafabb164cbf14a2,A,2024-07-01_11h13.06.750,Slot Machine Game,2023.1.3,Win32,59.52380952,,,,,,,,,,,,,,,,,,,,,,,,,,,110,,,,,,,,,,,,,,,,,,,,,6,6,,,505.1818,2,left,0.467,,1,0.3,"[2,3,1]",0.184178254,stimuli/card_100_transparent.png,100,2,0,2,0,1,,,,,,,,,,
,,,,667d9cb7bafabb164cbf14a2,A,2024-07-01_11h13.06.750,Slot Machine Game,2023.1.3,Win32,59.52380952,,,,,,,,,,,,,,,,,,,,,,,,,,,210,,,,,,,,,,,,,,,,,,,,,6,6,,,507.4681,3,left,0.4347,,0.5,0.3,"[2,3,1]",0.110318715,stimuli/card_100_transparent.png,100,3,0,3,0,1,,,,,,,,,,
,,,,667d9cb7bafabb164cbf14a2,A,2024-07-01_11h13.06.750,Slot Machine Game,2023.1.3,Win32,59.52380952,,,,,,,,,,,,,,,,,,,,,,,,,,,310,,,,,,,,,,,,,,,,,,,,,6,6,,,509.2357,4,left,0.234,,1,0.3,"[1,3,2]",0.439915631,stimuli/card_100_transparent.png,100,4,0,4,0,1,,,,,,,,,,
,,,,667d9cb7bafabb164cbf14a2,A,2024-07-01_11h13.06.750,Slot Machine Game,2023.1.3,Win32,59.52380952,,,,,,,,,,,,,,,,,,,,,,,,,,,410,,,,,,,,,,,,,,,,,,,,,6,6,,,511.3038,5,left,0.2173,,1.5,0.3,"[1,3,2]",0.280303216,stimuli/card_100_transparent.png,100,5,0,5,0,1,,,,,,,,,,
,,,,667d9cb7bafabb164cbf14a2,A,2024-07-01_11h13.06.750,Slot Machine Game,2023.1.3,Win32,59.52380952,,,,,,,,,,,,,,,,,,,,,,,,,,,510,,,,,,,,,,,,,,,,,,,,,6,6,,,513.839,6,left,0.2176,,1,0.3,"[1,3,2]",0.868420956,stimuli/card_100_transparent.png,100,6,0,6,0,1,,,,,,,,,,
,,,,667d9cb7bafabb164cbf14a2,A,2024-07-01_11h13.06.750,Slot Machine Game,2023.1.3,Win32,59.52380952,,,,,,,,,,,,,,,,,,,,,,,,,,,610,,,,,,,,,,,,,,,,,,,,,6,6,,,515.8741,7,left,1.8688,,0.5,0.3,"[1,3,2]",0.828299554,stimuli/card_100_transparent.png,100,7,0,7,0,1,,,,,,,,,,
,,,,667d9cb7bafabb164cbf14a2,A,2024-07-01_11h13.06.750,Slot Machine Game,2023.1.3,Win32,59.52380952,,,,,,,,,,,,,,,,,,,,,,,,,,,710,,,,,,,,,,,,,,,,,,,,,6,6,,,519.0602,8,left,1.5192,,0.5,0.3,"[1,3,2]",0.531159818,stimuli/card_100_transparent.png,100,8,0,8,0,1,,,,,,,,,,
,,,,667d9cb7bafabb164cbf14a2,A,2024-07-01_11h13.06.750,Slot Machine Game,2023.1.3,Win32,59.52380952,,,,,,,,,,,,,,,,,,,,,,,,,,,810,,,,,,,,,,,,,,,,,,,,,6,6,,,521.8957,9,left,0.4843,,0.5,0.3,"[1,3,2]",0.768286824,stimuli/card_100_transparent.png,100,9,0,9,0,1,,,,,,,,,,
,,,,667d9cb7bafabb164cbf14a2,A,2024-07-01_11h13.06.750,Slot Machine Game,2023.1.3,Win32,59.52380952,,,,,,,,,,,,,,,,,,,,,,,,,,,810,,,,,,,,,,,,,,,,,,,,,6,6,,,523.6973,10,left,0.1852,,1.5,0.3,"[3,2,1]",0.242907167,stimuli/card_0_transparent.png,0,10,0,10,0,1,,,,,,,,,,
,,,,667d9cb7bafabb164cbf14a2,A,2024-07-01_11h13.06.750,Slot Machine Game,2023.1.3,Win32,59.52380952,,,,,,,,,,,,,,,,,,,,,,,,,,,810,,,,,,,,,,,,,,,,,,,,,6,6,,,526.2159,11,left,0.3004,,1,0.3,"[3,2,1]",0.736496463,stimuli/card_0_transparent.png,0,11,0,11,0,1,,,,,,,,,,
,,,,667d9cb7bafabb164cbf14a2,A,2024-07-01_11h13.06.750,Slot Machine Game,2023.1.3,Win32,59.52380952,,,,,,,,,,,,,,,,,,,,,,,,,,,820,,,,,,,,,,,,,,,,,,,,,6,6,,,528.3349,12,up,0.2506,,1.5,0.3,"[3,2,1]",0.363560704,stimuli/card_10_transparent.png,10,12,0,12,0,1,,,,,,,,,,
,,,,667d9cb7bafabb164cbf14a2,A,2024-07-01_11h13.06.750,Slot Machine Game,2023.1.3,Win32,59.52380952,,,,,,,,,,,,,,,,,,,,,,,,,,,830,,,,,,,,,,,,,,,,,,,,,6,6,,,530.9033,13,right,0.1336,,1,0.3,"[3,2,1]",0.190012802,stimuli/card_10_transparent.png,10,13,0,13,0,1,,,,,,,,,,
,,,,667d9cb7bafabb164cbf14a2,A,2024-07-01_11h13.06.750,Slot Machine Game,2023.1.3,Win32,59.52380952,,,,,,,,,,,,,,,,,,,,,,,,,,,840,,,,,,,,,,,,,,,,,,,,,6,6,,,532.8552,14,right,1.1852,,1,0.3,"[3,2,1]",0.134080483,stimuli/card_10_transparent.png,10,14,0,14,0,1,,,,,,,,,,
,,,,667d9cb7bafabb164cbf14a2,A,2024-07-01_11h13.06.750,Slot Machine Game,2023.1.3,Win32,59.52380952,,,,,,,,,,,,,,,,,,,,,,,,,,,,,,,,,,,535.874,,,,,,,,,,,,,,,,,,,,,,,,,,,,,,,,,"[640,1120,1310,830,1300,840]",5,0,5,0,1,,,,
,,,,667d9cb7bafabb164cbf14a2,A,2024-07-01_11h13.06.750,Slot Machine Game,2023.1.3,Win32,59.52380952,,,,,,,,,,,,,,,,,,,,,,,,,,,0,,,,,,,,,,,,,,,,,,,,,7,7,"[9,15]","[[1,3,2],[2,3,1]]",540.8865,0,left,2.4024,,1,0.3,"[1,3,2]",0.036641892,stimuli/card_0_transparent.png,0,0,0,0,0,1,,,,,,,,,,
,,,,667d9cb7bafabb164cbf14a2,A,2024-07-01_11h13.06.750,Slot Machine Game,2023.1.3,Win32,59.52380952,,,,,,,,,,,,,,,,,,,,,,,,,,,100,,,,,,,,,,,,,,,,,,,,,7,7,,,545.1334,1,up,0.3509,,0.5,0.3,"[1,3,2]",0.062516338,stimuli/card_100_transparent.png,100,1,0,1,0,1,,,,,,,,,,
,,,,667d9cb7bafabb164cbf14a2,A,2024-07-01_11h13.06.750,Slot Machine Game,2023.1.3,Win32,59.52380952,,,,,,,,,,,,,,,,,,,,,,,,,,,200,,,,,,,,,,,,,,,,,,,,,7,7,,,546.85,2,up,0.6343,,0.5,0.3,"[1,3,2]",0.004804401,stimuli/card_100_transparent.png,100,2,0,2,0,1,,,,,,,,,,
,,,,667d9cb7bafabb164cbf14a2,A,2024-07-01_11h13.06.750,Slot Machine Game,2023.1.3,Win32,59.52380952,,,,,,,,,,,,,,,,,,,,,,,,,,,200,,,,,,,,,,,,,,,,,,,,,7,7,,,548.8013,3,up,0.3842,,1.5,0.3,"[1,3,2]",0.589687992,stimuli/card_0_transparent.png,0,3,0,3,0,1,,,,,,,,,,
,,,,667d9cb7bafabb164cbf14a2,A,2024-07-01_11h13.06.750,Slot Machine Game,2023.1.3,Win32,59.52380952,,,,,,,,,,,,,,,,,,,,,,,,,,,200,,,,,,,,,,,,,,,,,,,,,7,7,,,551.5035,4,up,0.4506,,0.5,0.3,"[1,3,2]",0.541972433,stimuli/card_0_transparent.png,0,4,0,4,0,1,,,,,,,,,,
,,,,667d9cb7bafabb164cbf14a2,A,2024-07-01_11h13.06.750,Slot Machine Game,2023.1.3,Win32,59.52380952,,,,,,,,,,,,,,,,,,,,,,,,,,,300,,,,,,,,,,,,,,,,,,,,,7,7,,,553.2715,5,right,0.2839,,1.5,0.3,"[1,3,2]",0.189704119,stimuli/card_100_transparent.png,100,5,0,5,0,1,,,,,,,,,,
,,,,667d9cb7bafabb164cbf14a2,A,2024-07-01_11h13.06.750,Slot Machine Game,2023.1.3,Win32,59.52380952,,,,,,,,,,,,,,,,,,,,,,,,,,,310,,,,,,,,,,,,,,,,,,,,,7,7,,,555.8739,6,right,0.3509,,1,0.3,"[1,3,2]",0.212088026,stimuli/card_10_transparent.png,10,6,0,6,0,1,,,,,,,,,,
,,,,667d9cb7bafabb164cbf14a2,A,2024-07-01_11h13.06.750,Slot Machine Game,2023.1.3,Win32,59.52380952,,,,,,,,,,,,,,,,,,,,,,,,,,,410,,,,,,,,,,,,,,,,,,,,,7,7,,,558.0585,7,right,0.3679,,0.5,0.3,"[1,3,2]",0.185438569,stimuli/card_100_transparent.png,100,7,0,7,0,1,,,,,,,,,,
,,,,667d9cb7bafabb164cbf14a2,A,2024-07-01_11h13.06.750,Slot Machine Game,2023.1.3,Win32,59.52380952,,,,,,,,,,,,,,,,,,,,,,,,,,,410,,,,,,,,,,,,,,,,,,,,,7,7,,,559.7435,8,right,0.5177,,0.5,0.3,"[1,3,2]",0.04374721,stimuli/card_0_transparent.png,0,8,0,8,0,1,,,,,,,,,,
,,,,667d9cb7bafabb164cbf14a2,A,2024-07-01_11h13.06.750,Slot Machine Game,2023.1.3,Win32,59.52380952,,,,,,,,,,,,,,,,,,,,,,,,,,,510,,,,,,,,,,,,,,,,,,,,,7,7,,,561.5785,9,right,0.4345,,0.5,0.3,"[2,3,1]",0.681471544,stimuli/card_100_transparent.png,100,9,0,9,0,1,,,,,,,,,,
,,,,667d9cb7bafabb164cbf14a2,A,2024-07-01_11h13.06.750,Slot Machine Game,2023.1.3,Win32,59.52380952,,,,,,,,,,,,,,,,,,,,,,,,,,,610,,,,,,,,,,,,,,,,,,,,,7,7,,,563.3466,10,right,0.3174,,1,0.3,"[2,3,1]",0.8683828,stimuli/card_100_transparent.png,100,10,0,10,0,1,,,,,,,,,,
,,,,667d9cb7bafabb164cbf14a2,A,2024-07-01_11h13.06.750,Slot Machine Game,2023.1.3,Win32,59.52380952,,,,,,,,,,,,,,,,,,,,,,,,,,,710,,,,,,,,,,,,,,,,,,,,,7,7,,,565.4816,11,right,0.5178,,0.5,0.3,"[2,3,1]",0.227564215,stimuli/card_100_transparent.png,100,11,0,11,0,1,,,,,,,,,,
,,,,667d9cb7bafabb164cbf14a2,A,2024-07-01_11h13.06.750,Slot Machine Game,2023.1.3,Win32,59.52380952,,,,,,,,,,,,,,,,,,,,,,,,,,,810,,,,,,,,,,,,,,,,,,,,,7,7,,,567.316,12,right,0.3174,,1.5,0.3,"[2,3,1]",0.74442416,stimuli/card_100_transparent.png,100,12,0,12,0,1,,,,,,,,,,
,,,,667d9cb7bafabb164cbf14a2,A,2024-07-01_11h13.06.750,Slot Machine Game,2023.1.3,Win32,59.52380952,,,,,,,,,,,,,,,,,,,,,,,,,,,910,,,,,,,,,,,,,,,,,,,,,7,7,,,569.969,13,right,1.2183,,1,0.3,"[2,3,1]",0.326386042,stimuli/card_100_transparent.png,100,13,0,13,0,1,,,,,,,,,,
,,,,667d9cb7bafabb164cbf14a2,A,2024-07-01_11h13.06.750,Slot Machine Game,2023.1.3,Win32,59.52380952,,,,,,,,,,,,,,,,,,,,,,,,,,,1010,,,,,,,,,,,,,,,,,,,,,7,7,,,573.0209,14,right,0.7515,,1.5,0.3,"[2,3,1]",0.31475875,stimuli/card_100_transparent.png,100,14,0,14,0,1,,,,,,,,,,
,,,,667d9cb7bafabb164cbf14a2,A,2024-07-01_11h13.06.750,Slot Machine Game,2023.1.3,Win32,59.52380952,,,,,,,,,,,,,,,,,,,,,,,,,,,,,,,,,,,576.0904,,,,,,,,,,,,,,,,,,,,,,,,,,,,,,,,,"[640,1120,1310,830,1300,840,1010]",6,0,6,0,1,,,,
,,,,667d9cb7bafabb164cbf14a2,A,2024-07-01_11h13.06.750,Slot Machine Game,2023.1.3,Win32,59.52380952,,,,,,,,,,,,,,,,,,,,,,,,,,,10,,,,,,,,,,,,,,,,,,,,,8,8,"[11,15]","[[2,1,3],[1,2,3]]",581.0897,0,left,0.8072,,1.5,0.3,"[2,1,3]",0.611521374,stimuli/card_10_transparent.png,10,0,0,0,0,1,,,,,,,,,,
,,,,667d9cb7bafabb164cbf14a2,A,2024-07-01_11h13.06.750,Slot Machine Game,2023.1.3,Win32,59.52380952,,,,,,,,,,,,,,,,,,,,,,,,,,,110,,,,,,,,,,,,,,,,,,,,,8,8,,,584.2275,1,up,0.3009,,1.5,0.3,"[2,1,3]",0.595739705,stimuli/card_100_transparent.png,100,1,0,1,0,1,,,,,,,,,,
,,,,667d9cb7bafabb164cbf14a2,A,2024-07-01_11h13.06.750,Slot Machine Game,2023.1.3,Win32,59.52380952,,,,,,,,,,,,,,,,,,,,,,,,,,,210,,,,,,,,,,,,,,,,,,,,,8,8,,,586.8815,2,up,0.3179,,1.5,0.3,"[2,1,3]",0.243282727,stimuli/card_100_transparent.png,100,2,0,2,0,1,,,,,,,,,,
,,,,667d9cb7bafabb164cbf14a2,A,2024-07-01_11h13.06.750,Slot Machine Game,2023.1.3,Win32,59.52380952,,,,,,,,,,,,,,,,,,,,,,,,,,,310,,,,,,,,,,,,,,,,,,,,,8,8,,,589.5355,3,up,0.0178,,1,0.3,"[2,1,3]",0.617082114,stimuli/card_100_transparent.png,100,3,0,3,0,1,,,,,,,,,,
,,,,667d9cb7bafabb164cbf14a2,A,2024-07-01_11h13.06.750,Slot Machine Game,2023.1.3,Win32,59.52380952,,,,,,,,,,,,,,,,,,,,,,,,,,,410,,,,,,,,,,,,,,,,,,,,,8,8,,,591.3865,4,up,1.7848,,1,0.3,"[2,1,3]",0.695189678,stimuli/card_100_transparent.png,100,4,0,4,0,1,,,,,,,,,,
,,,,667d9cb7bafabb164cbf14a2,A,2024-07-01_11h13.06.750,Slot Machine Game,2023.1.3,Win32,59.52380952,,,,,,,,,,,,,,,,,,,,,,,,,,,510,,,,,,,,,,,,,,,,,,,,,8,8,,,594.9895,5,up,0.0178,,1,0.3,"[2,1,3]",0.930152654,stimuli/card_100_transparent.png,100,5,0,5,0,1,,,,,,,,,,
,,,,667d9cb7bafabb164cbf14a2,A,2024-07-01_11h13.06.750,Slot Machine Game,2023.1.3,Win32,59.52380952,,,,,,,,,,,,,,,,,,,,,,,,,,,610,,,,,,,,,,,,,,,,,,,,,8,8,,,596.8245,6,up,4.0537,,1.5,0.3,"[2,1,3]",0.401213093,stimuli/card_100_transparent.png,100,6,0,6,0,1,,,,,,,,,,
,,,,667d9cb7bafabb164cbf14a2,A,2024-07-01_11h13.06.750,Slot Machine Game,2023.1.3,Win32,59.52380952,,,,,,,,,,,,,,,,,,,,,,,,,,,710,,,,,,,,,,,,,,,,,,,,,8,8,,,603.1961,7,up,2.5693,,1.5,0.3,"[2,1,3]",0.244627107,stimuli/card_100_transparent.png,100,7,0,7,0,1,,,,,,,,,,
,,,,667d9cb7bafabb164cbf14a2,A,2024-07-01_11h13.06.750,Slot Machine Game,2023.1.3,Win32,59.52380952,,,,,,,,,,,,,,,,,,,,,,,,,,,810,,,,,,,,,,,,,,,,,,,,,8,8,,,608.0835,8,up,0.2505,,0.5,0.3,"[2,1,3]",0.512046771,stimuli/card_100_transparent.png,100,8,0,8,0,1,,,,,,,,,,
,,,,667d9cb7bafabb164cbf14a2,A,2024-07-01_11h13.06.750,Slot Machine Game,2023.1.3,Win32,59.52380952,,,,,,,,,,,,,,,,,,,,,,,,,,,910,,,,,,,,,,,,,,,,,,,,,8,8,,,609.6509,9,up,1.602,,0.5,0.3,"[2,1,3]",0.854631668,stimuli/card_100_transparent.png,100,9,0,9,0,1,,,,,,,,,,
,,,,667d9cb7bafabb164cbf14a2,A,2024-07-01_11h13.06.750,Slot Machine Game,2023.1.3,Win32,59.52380952,,,,,,,,,,,,,,,,,,,,,,,,,,,1010,,,,,,,,,,,,,,,,,,,,,8,8,,,612.5877,10,up,0.5177,,1,0.3,"[2,1,3]",0.527592083,stimuli/card_100_transparent.png,100,10,0,10,0,1,,,,,,,,,,
,,,,667d9cb7bafabb164cbf14a2,A,2024-07-01_11h13.06.750,Slot Machine Game,2023.1.3,Win32,59.52380952,,,,,,,,,,,,,,,,,,,,,,,,,,,1020,,,,,,,,,,,,,,,,,,,,,8,8,,,614.9224,11,up,0.1339,,1.5,0.3,"[1,2,3]",0.490085724,stimuli/card_10_transparent.png,10,11,0,11,0,1,,,,,,,,,,
,,,,667d9cb7bafabb164cbf14a2,A,2024-07-01_11h13.06.750,Slot Machine Game,2023.1.3,Win32,59.52380952,,,,,,,,,,,,,,,,,,,,,,,,,,,1030,,,,,,,,,,,,,,,,,,,,,8,8,,,617.3748,12,up,0.2008,,0.5,0.3,"[1,2,3]",0.479669704,stimuli/card_10_transparent.png,10,12,0,12,0,1,,,,,,,,,,
,,,,667d9cb7bafabb164cbf14a2,A,2024-07-01_11h13.06.750,Slot Machine Game,2023.1.3,Win32,59.52380952,,,,,,,,,,,,,,,,,,,,,,,,,,,1030,,,,,,,,,,,,,,,,,,,,,8,8,,,618.8926,13,right,0.0005,,1,0.3,"[1,2,3]",0.20411075,stimuli/card_0_transparent.png,0,13,0,13,0,1,,,,,,,,,,
,,,,667d9cb7bafabb164cbf14a2,A,2024-07-01_11h13.06.750,Slot Machine Game,2023.1.3,Win32,59.52380952,,,,,,,,,,,,,,,,,,,,,,,,,,,1130,,,,,,,,,,,,,,,,,,,,,8,8,,,620.7273,14,left,0.1004,,0.5,0.3,"[1,2,3]",0.505486815,stimuli/card_100_transparent.png,100,14,0,14,0,1,,,,,,,,,,
,,,,667d9cb7bafabb164cbf14a2,A,2024-07-01_11h13.06.750,Slot Machine Game,2023.1.3,Win32,59.52380952,,,,,,,,,,,,,,,,,,,,,,,,,,,,,,,,,,,622.1454,,,,,,,,,,,,,,,,,,,,,,,,,,,,,,,,,"[640,1120,1310,830,1300,840,1010,1130]",7,0,7,0,1,,,,
,,,,667d9cb7bafabb164cbf14a2,A,2024-07-01_11h13.06.750,Slot Machine Game,2023.1.3,Win32,59.52380952,,,,,,,,,,,,,,,,,,,,,,,,,,,0,,,,,,,,,,,,,,,,,,,,,9,9,"[8,15]","[[3,2,1],[3,1,2]]",627.1583,0,left,1.9859,,1.5,0.3,"[3,2,1]",0.371231453,stimuli/card_0_transparent.png,0,0,0,0,0,1,,,,,,,,,,
,,,,667d9cb7bafabb164cbf14a2,A,2024-07-01_11h13.06.750,Slot Machine Game,2023.1.3,Win32,59.52380952,,,,,,,,,,,,,,,,,,,,,,,,,,,10,,,,,,,,,,,,,,,,,,,,,9,9,,,631.5027,1,up,0.4179,,0.5,0.3,"[3,2,1]",0.774578641,stimuli/card_10_transparent.png,10,1,0,1,0,1,,,,,,,,,,
,,,,667d9cb7bafabb164cbf14a2,A,2024-07-01_11h13.06.750,Slot Machine Game,2023.1.3,Win32,59.52380952,,,,,,,,,,,,,,,,,,,,,,,,,,,110,,,,,,,,,,,,,,,,,,,,,9,9,,,633.2542,2,right,0.167,,1.5,0.3,"[3,2,1]",0.932065485,stimuli/card_100_transparent.png,100,2,0,2,0,1,,,,,,,,,,
,,,,667d9cb7bafabb164cbf14a2,A,2024-07-01_11h13.06.750,Slot Machine Game,2023.1.3,Win32,59.52380952,,,,,,,,,,,,,,,,,,,,,,,,,,,210,,,,,,,,,,,,,,,,,,,,,9,9,,,635.7541,3,right,0.2889,,1.5,0.3,"[3,2,1]",0.86282753,stimuli/card_100_transparent.png,100,3,0,3,0,1,,,,,,,,,,
,,,,667d9cb7bafabb164cbf14a2,A,2024-07-01_11h13.06.750,Slot Machine Game,2023.1.3,Win32,59.52380952,,,,,,,,,,,,,,,,,,,,,,,,,,,310,,,,,,,,,,,,,,,,,,,,,9,9,,,638.3882,4,right,0.1094,,1,0.3,"[3,2,1]",0.303992895,stimuli/card_100_transparent.png,100,4,0,4,0,1,,,,,,,,,,
,,,,667d9cb7bafabb164cbf14a2,A,2024-07-01_11h13.06.750,Slot Machine Game,2023.1.3,Win32,59.52380952,,,,,,,,,,,,,,,,,,,,,,,,,,,410,,,,,,,,,,,,,,,,,,,,,9,9,,,640.3263,5,right,0.301,,1,0.3,"[3,2,1]",0.449933455,stimuli/card_100_transparent.png,100,5,0,5,0,1,,,,,,,,,,
,,,,667d9cb7bafabb164cbf14a2,A,2024-07-01_11h13.06.750,Slot Machine Game,2023.1.3,Win32,59.52380952,,,,,,,,,,,,,,,,,,,,,,,,,,,510,,,,,,,,,,,,,,,,,,,,,9,9,,,642.4546,6,right,0.1818,,0.5,0.3,"[3,2,1]",0.420559088,stimuli/card_100_transparent.png,100,6,0,6,0,1,,,,,,,,,,
,,,,667d9cb7bafabb164cbf14a2,A,2024-07-01_11h13.06.750,Slot Machine Game,2023.1.3,Win32,59.52380952,,,,,,,,,,,,,,,,,,,,,,,,,,,610,,,,,,,,,,,,,,,,,,,,,9,9,,,643.9711,7,right,0.0841,,0.5,0.3,"[3,2,1]",0.617171158,stimuli/card_100_transparent.png,100,7,0,7,0,1,,,,,,,,,,
,,,,667d9cb7bafabb164cbf14a2,A,2024-07-01_11h13.06.750,Slot Machine Game,2023.1.3,Win32,59.52380952,,,,,,,,,,,,,,,,,,,,,,,,,,,620,,,,,,,,,,,,,,,,,,,,,9,9,,,645.3811,8,right,1.9531,,1,0.3,"[3,1,2]",0.482951584,stimuli/card_10_transparent.png,10,8,0,8,0,1,,,,,,,,,,
,,,,667d9cb7bafabb164cbf14a2,A,2024-07-01_11h13.06.750,Slot Machine Game,2023.1.3,Win32,59.52380952,,,,,,,,,,,,,,,,,,,,,,,,,,,630,,,,,,,,,,,,,,,,,,,,,9,9,,,649.1843,9,right,0.1181,,1,0.3,"[3,1,2]",0.855053685,stimuli/card_10_transparent.png,10,9,0,9,0,1,,,,,,,,,,
,,,,667d9cb7bafabb164cbf14a2,A,2024-07-01_11h13.06.750,Slot Machine Game,2023.1.3,Win32,59.52380952,,,,,,,,,,,,,,,,,,,,,,,,,,,630,,,,,,,,,,,,,,,,,,,,,9,9,,,651.1687,10,left,0.7514,,1.5,0.3,"[3,1,2]",0.223942679,stimuli/card_0_transparent.png,0,10,0,10,0,1,,,,,,,,,,
,,,,667d9cb7bafabb164cbf14a2,A,2024-07-01_11h13.06.750,Slot Machine Game,2023.1.3,Win32,59.52380952,,,,,,,,,,,,,,,,,,,,,,,,,,,730,,,,,,,,,,,,,,,,,,,,,9,9,,,654.2384,11,up,0.2007,,0.5,0.3,"[3,1,2]",0.326468514,stimuli/card_100_transparent.png,100,11,0,11,0,1,,,,,,,,,,
,,,,667d9cb7bafabb164cbf14a2,A,2024-07-01_11h13.06.750,Slot Machine Game,2023.1.3,Win32,59.52380952,,,,,,,,,,,,,,,,,,,,,,,,,,,830,,,,,,,,,,,,,,,,,,,,,9,9,,,655.7734,12,up,0.3169,,0.5,0.3,"[3,1,2]",0.573963991,stimuli/card_100_transparent.png,100,12,0,12,0,1,,,,,,,,,,
,,,,667d9cb7bafabb164cbf14a2,A,2024-07-01_11h13.06.750,Slot Machine Game,2023.1.3,Win32,59.52380952,,,,,,,,,,,,,,,,,,,,,,,,,,,930,,,,,,,,,,,,,,,,,,,,,9,9,,,657.4081,13,up,0.4673,,1,0.3,"[3,1,2]",0.589984942,stimuli/card_100_transparent.png,100,13,0,13,0,1,,,,,,,,,,
,,,,667d9cb7bafabb164cbf14a2,A,2024-07-01_11h13.06.750,Slot Machine Game,2023.1.3,Win32,59.52380952,,,,,,,,,,,,,,,,,,,,,,,,,,,1030,,,,,,,,,,,,,,,,,,,,,9,9,,,659.71,14,up,0.1842,,0.5,0.3,"[3,1,2]",0.824196376,stimuli/card_100_transparent.png,100,14,0,14,0,1,,,,,,,,,,
,,,,667d9cb7bafabb164cbf14a2,A,2024-07-01_11h13.06.750,Slot Machine Game,2023.1.3,Win32,59.52380952,,,,,,,,,,,,,,,,,,,,,,,,,,,,,,,,,,,661.2277,,,,,,,,,,,,,,,,,,,,,,,,,,,,,,,,,"[640,1120,1310,830,1300,840,1010,1130,1030]",8,0,8,0,1,,,,
,,,,667d9cb7bafabb164cbf14a2,A,2024-07-01_11h13.06.750,Slot Machine Game,2023.1.3,Win32,59.52380952,,,,,,,,,,,,,,,,,,,,,,,,,,,10,,,,,,,,,,,,,,,,,,,,,10,10,"[10,15]","[[3,1,2],[1,3,2]]",666.2402,0,right,1.0538,,0.5,0.3,"[3,1,2]",0.899855385,stimuli/card_10_transparent.png,10,0,0,0,0,1,,,,,,,,,,
,,,,667d9cb7bafabb164cbf14a2,A,2024-07-01_11h13.06.750,Slot Machine Game,2023.1.3,Win32,59.52380952,,,,,,,,,,,,,,,,,,,,,,,,,,,20,,,,,,,,,,,,,,,,,,,,,10,10,,,668.6058,1,up,0.118,,1,0.3,"[3,1,2]",0.123081848,stimuli/card_10_transparent.png,10,1,0,1,0,1,,,,,,,,,,
,,,,667d9cb7bafabb164cbf14a2,A,2024-07-01_11h13.06.750,Slot Machine Game,2023.1.3,Win32,59.52380952,,,,,,,,,,,,,,,,,,,,,,,,,,,20,,,,,,,,,,,,,,,,,,,,,10,10,,,670.5558,2,left,0.4174,,1,0.3,"[3,1,2]",0.609473096,stimuli/card_0_transparent.png,0,2,0,2,0,1,,,,,,,,,,
,,,,667d9cb7bafabb164cbf14a2,A,2024-07-01_11h13.06.750,Slot Machine Game,2023.1.3,Win32,59.52380952,,,,,,,,,,,,,,,,,,,,,,,,,,,30,,,,,,,,,,,,,,,,,,,,,10,10,,,672.8226,3,up,1.5685,,0.5,0.3,"[3,1,2]",0.105646204,stimuli/card_10_transparent.png,10,3,0,3,0,1,,,,,,,,,,
,,,,667d9cb7bafabb164cbf14a2,A,2024-07-01_11h13.06.750,Slot Machine Game,2023.1.3,Win32,59.52380952,,,,,,,,,,,,,,,,,,,,,,,,,,,40,,,,,,,,,,,,,,,,,,,,,10,10,,,675.7395,4,right,0.3674,,0.5,0.3,"[3,1,2]",0.780577766,stimuli/card_10_transparent.png,10,4,0,4,0,1,,,,,,,,,,
,,,,667d9cb7bafabb164cbf14a2,A,2024-07-01_11h13.06.750,Slot Machine Game,2023.1.3,Win32,59.52380952,,,,,,,,,,,,,,,,,,,,,,,,,,,40,,,,,,,,,,,,,,,,,,,,,10,10,,,677.4241,5,left,0.9681,,1,0.3,"[3,1,2]",0.435892839,stimuli/card_0_transparent.png,0,5,0,5,0,1,,,,,,,,,,
,,,,667d9cb7bafabb164cbf14a2,A,2024-07-01_11h13.06.750,Slot Machine Game,2023.1.3,Win32,59.52380952,,,,,,,,,,,,,,,,,,,,,,,,,,,50,,,,,,,,,,,,,,,,,,,,,10,10,,,680.2095,6,right,0.968,,1.5,0.3,"[3,1,2]",0.725313436,stimuli/card_10_transparent.png,10,6,0,6,0,1,,,,,,,,,,
,,,,667d9cb7bafabb164cbf14a2,A,2024-07-01_11h13.06.750,Slot Machine Game,2023.1.3,Win32,59.52380952,,,,,,,,,,,,,,,,,,,,,,,,,,,150,,,,,,,,,,,,,,,,,,,,,10,10,,,683.4955,7,up,0.6016,,1.5,0.3,"[3,1,2]",0.750670053,stimuli/card_100_transparent.png,100,7,0,7,0,1,,,,,,,,,,
,,,,667d9cb7bafabb164cbf14a2,A,2024-07-01_11h13.06.750,Slot Machine Game,2023.1.3,Win32,59.52380952,,,,,,,,,,,,,,,,,,,,,,,,,,,160,,,,,,,,,,,,,,,,,,,,,10,10,,,686.4147,8,up,0.5345,,0.5,0.3,"[3,1,2]",0.126852114,stimuli/card_10_transparent.png,10,8,0,8,0,1,,,,,,,,,,
,,,,667d9cb7bafabb164cbf14a2,A,2024-07-01_11h13.06.750,Slot Machine Game,2023.1.3,Win32,59.52380952,,,,,,,,,,,,,,,,,,,,,,,,,,,260,,,,,,,,,,,,,,,,,,,,,10,10,,,688.2663,9,up,0.2507,,1.5,0.3,"[3,1,2]",0.359389165,stimuli/card_100_transparent.png,100,9,0,9,0,1,,,,,,,,,,
,,,,667d9cb7bafabb164cbf14a2,A,2024-07-01_11h13.06.750,Slot Machine Game,2023.1.3,Win32,59.52380952,,,,,,,,,,,,,,,,,,,,,,,,,,,260,,,,,,,,,,,,,,,,,,,,,10,10,,,690.8354,10,up,0.3178,,1.5,0.3,"[1,3,2]",0.514537457,stimuli/card_0_transparent.png,0,10,0,10,0,1,,,,,,,,,,
,,,,667d9cb7bafabb164cbf14a2,A,2024-07-01_11h13.06.750,Slot Machine Game,2023.1.3,Win32,59.52380952,,,,,,,,,,,,,,,,,,,,,,,,,,,260,,,,,,,,,,,,,,,,,,,,,10,10,,,693.4708,11,up,0.2675,,1.5,0.3,"[1,3,2]",0.673711408,stimuli/card_0_transparent.png,0,11,0,11,0,1,,,,,,,,,,
,,,,667d9cb7bafabb164cbf14a2,A,2024-07-01_11h13.06.750,Slot Machine Game,2023.1.3,Win32,59.52380952,,,,,,,,,,,,,,,,,,,,,,,,,,,270,,,,,,,,,,,,,,,,,,,,,10,10,,,696.0734,12,right,0.3506,,1,0.3,"[1,3,2]",0.68700929,stimuli/card_10_transparent.png,10,12,0,12,0,1,,,,,,,,,,
,,,,667d9cb7bafabb164cbf14a2,A,2024-07-01_11h13.06.750,Slot Machine Game,2023.1.3,Win32,59.52380952,,,,,,,,,,,,,,,,,,,,,,,,,,,370,,,,,,,,,,,,,,,,,,,,,10,10,,,698.2411,13,left,0.3012,,1.5,0.3,"[1,3,2]",0.626520231,stimuli/card_100_transparent.png,100,13,0,13,0,1,,,,,,,,,,
,,,,667d9cb7bafabb164cbf14a2,A,2024-07-01_11h13.06.750,Slot Machine Game,2023.1.3,Win32,59.52380952,,,,,,,,,,,,,,,,,,,,,,,,,,,470,,,,,,,,,,,,,,,,,,,,,10,10,,,700.86,14,left,0.4686,,1,0.3,"[1,3,2]",0.944345025,stimuli/card_100_transparent.png,100,14,0,14,0,1,,,,,,,,,,
,,,,667d9cb7bafabb164cbf14a2,A,2024-07-01_11h13.06.750,Slot Machine Game,2023.1.3,Win32,59.52380952,,,,,,,,,,,,,,,,,,,,,,,,,,,,,,,,,,,703.1457,,,,,,,,,,,,,,,,,,,,,,,,,,,,,,,,,"[640,1120,1310,830,1300,840,1010,1130,1030,470]",9,0,9,0,1,,,,
,,,,667d9cb7bafabb164cbf14a2,A,2024-07-01_11h13.06.750,Slot Machine Game,2023.1.3,Win32,59.52380952,,,,,,,,,,,,,,,,,,,,,,,,,,,,,,,,,,,,,,,,,,,,,,,,,,,,,,,,,,,,,,,,,,,,,,,,,,9,"[640,1120,1310,830,1300,840,1010,1130,1030,470]",8.3,2024-07-01_11h24.59.004
