key_resp_welcome.started,key_resp_welcome.keys,key_resp_welcome.rt,key_resp_welcome.duration,participant,date,expName,psychopyVersion,OS,frameRate,key_resp_instruction1.started,key_resp_instruction1.keys,key_resp_instruction1.rt,key_resp_instruction1.duration,key_resp_instruction2.started,key_resp_instruction2.keys,key_resp_instruction2.rt,key_resp_instruction2.duration,key_resp_instruction3.started,key_resp_instruction3.keys,key_resp_instruction3.rt,key_resp_instruction3.duration,practiceCondition,practice_reward_seqs,key_resp_practice_slots.started,key_resp_practice_slots.rt,key_resp_practice_slots.duration,key_resp_practice_slots.keys,presentationInterval,"practice_reward_seq: 2,1,3",reward_Img,Cuml_rew,currentPracticeTrialReward,practice_trials.thisRepN,practice_trials.thisTrialN,practice_trials.thisN,practice_trials.thisIndex,practice_trials.ran,"practice_reward_seq: 2,3,1",text_block_break.started,"practice_reward_seq: 1,3,2","practice_reward_seq: 3,1,2",key_resp_practice_end.started,key_resp_practice_end.keys,key_resp_practice_end.rt,key_resp_practice_end.duration,text_main_instruction.started,BlockCondition,BlockOrderIndices,key_resp_main_instruction.started,key_resp_main_instruction.keys,key_resp_main_instruction.rt,key_resp_main_instruction.duration,blockNumber,blockAssignment,currentCondition,main_reward_seqs,key_resp_slots_presentation.started,key_resp_slots_presentation.keys,key_resp_slots_presentation.rt,key_resp_slots_presentation.duration,Main_presentationInterval,rewardPresentationTime,Main_reward_seq,Random value generated,Main_reward_Img,Main_Cumul_Reward,Main_currentTrialReward,main_trials.thisRepN,main_trials.thisTrialN,main_trials.thisN,main_trials.thisIndex,main_trials.ran,block.thisRepN,block.thisTrialN,block.thisN,block.thisIndex,block.ran
0.0004,right,4.0539,,a,2023-10-23_17h05.11.343,SlotMachine_updated,2023.1.3,Win32,58.41121495,,,,,,,,,,,,,,,,,,,,,,,,,,,,,,,,,,,,,,,,,,,,,,,,,,,,,,,,,,,,,,,,,,,,
,,,,a,2023-10-23_17h05.11.343,SlotMachine_updated,2023.1.3,Win32,58.41121495,,,,,,,,,,,,,,,,,,,,,,,,,,,,,,,,,,,,,,,,,,,,,,,,,,,,,,,,,,,,,,,,,,,,
,,,,a,2023-10-23_17h05.11.343,SlotMachine_updated,2023.1.3,Win32,58.41121495,145.7167,right,17.0243,,,,,,,,,,,,,,,,,,,,,,,,,,,,,,,,,,,,,,,,,,,,,,,,,,,,,,,,,,,,,,,,,
,,,,a,2023-10-23_17h05.11.343,SlotMachine_updated,2023.1.3,Win32,58.41121495,,,,,162.7784,right,13.0779,,,,,,,,,,,,,,,,,,,,,,,,,,,,,,,,,,,,,,,,,,,,,,,,,,,,,,,,,,,,,
,,,,a,2023-10-23_17h05.11.343,SlotMachine_updated,2023.1.3,Win32,58.41121495,,,,,,,,,175.8867,right,286.1191,,,,,,,,,,,,,,,,,,,,,,,,,,,,,,,,,,,,,,,,,,,,,,,,,,,,,,,,,
,,,,a,2023-10-23_17h05.11.343,SlotMachine_updated,2023.1.3,Win32,58.41121495,,,,,,,,,,,,,"[9,15]","[[2,1,3],[2,3,1]]",462.0512,1.4721,,left,1,,stimuli/card_10_transparent.png,10,10,0,0,0,0,1,,,,,,,,,,,,,,,,,,,,,,,,,,,,,,,,,,,,,,,,
,,,,a,2023-10-23_17h05.11.343,SlotMachine_updated,2023.1.3,Win32,58.41121495,,,,,,,,,,,,,,,464.8641,1.6806,,up,1,,stimuli/card_100_transparent.png,110,100,1,0,1,0,1,,,,,,,,,,,,,,,,,,,,,,,,,,,,,,,,,,,,,,,,
,,,,a,2023-10-23_17h05.11.343,SlotMachine_updated,2023.1.3,Win32,58.41121495,,,,,,,,,,,,,,,467.8621,1.3483,,up,0.5,,stimuli/card_100_transparent.png,210,100,2,0,2,0,1,,,,,,,,,,,,,,,,,,,,,,,,,,,,,,,,,,,,,,,,
,,,,a,2023-10-23_17h05.11.343,SlotMachine_updated,2023.1.3,Win32,58.41121495,,,,,,,,,,,,,,,470.0296,0.2847,,up,0.5,,stimuli/card_100_transparent.png,310,100,3,0,3,0,1,,,,,,,,,,,,,,,,,,,,,,,,,,,,,,,,,,,,,,,,
,,,,a,2023-10-23_17h05.11.343,SlotMachine_updated,2023.1.3,Win32,58.41121495,,,,,,,,,,,,,,,471.1305,0.0177,,up,1.5,,stimuli/card_100_transparent.png,410,100,4,0,4,0,1,,,,,,,,,,,,,,,,,,,,,,,,,,,,,,,,,,,,,,,,
,,,,a,2023-10-23_17h05.11.343,SlotMachine_updated,2023.1.3,Win32,58.41121495,,,,,,,,,,,,,,,472.9623,0.3502,,up,0.5,,stimuli/card_100_transparent.png,510,100,5,0,5,0,1,,,,,,,,,,,,,,,,,,,,,,,,,,,,,,,,,,,,,,,,
,,,,a,2023-10-23_17h05.11.343,SlotMachine_updated,2023.1.3,Win32,58.41121495,,,,,,,,,,,,,,,474.1294,0.485,,up,0.5,,stimuli/card_100_transparent.png,610,100,6,0,6,0,1,,,,,,,,,,,,,,,,,,,,,,,,,,,,,,,,,,,,,,,,
,,,,a,2023-10-23_17h05.11.343,SlotMachine_updated,2023.1.3,Win32,58.41121495,,,,,,,,,,,,,,,475.4293,0.5599,,up,1,,stimuli/card_10_transparent.png,620,10,7,0,7,0,1,,,,,,,,,,,,,,,,,,,,,,,,,,,,,,,,,,,,,,,,
,,,,a,2023-10-23_17h05.11.343,SlotMachine_updated,2023.1.3,Win32,58.41121495,,,,,,,,,,,,,,,477.3133,0.3157,,right,1.5,,stimuli/card_0_transparent.png,620,0,8,0,8,0,1,,,,,,,,,,,,,,,,,,,,,,,,,,,,,,,,,,,,,,,,
,,,,a,2023-10-23_17h05.11.343,SlotMachine_updated,2023.1.3,Win32,58.41121495,,,,,,,,,,,,,,,479.4468,0.2334,,left,0.5,,stimuli/card_10_transparent.png,630,10,9,0,9,0,1,,,,,,,,,,,,,,,,,,,,,,,,,,,,,,,,,,,,,,,,
,,,,a,2023-10-23_17h05.11.343,SlotMachine_updated,2023.1.3,Win32,58.41121495,,,,,,,,,,,,,,,480.4974,0.4623,,left,0.5,,stimuli/card_10_transparent.png,640,10,10,0,10,0,1,,,,,,,,,,,,,,,,,,,,,,,,,,,,,,,,,,,,,,,,
,,,,a,2023-10-23_17h05.11.343,SlotMachine_updated,2023.1.3,Win32,58.41121495,,,,,,,,,,,,,,,481.7803,0.1461,,up,1.5,,stimuli/card_0_transparent.png,640,0,11,0,11,0,1,,,,,,,,,,,,,,,,,,,,,,,,,,,,,,,,,,,,,,,,
,,,,a,2023-10-23_17h05.11.343,SlotMachine_updated,2023.1.3,Win32,58.41121495,,,,,,,,,,,,,,,483.7453,0.3498,,right,1.5,,stimuli/card_100_transparent.png,740,100,12,0,12,0,1,,,,,,,,,,,,,,,,,,,,,,,,,,,,,,,,,,,,,,,,
,,,,a,2023-10-23_17h05.11.343,SlotMachine_updated,2023.1.3,Win32,58.41121495,,,,,,,,,,,,,,,485.9131,0.5809,0.0005,right,0.5,,stimuli/card_10_transparent.png,750,10,13,0,13,0,1,,,,,,,,,,,,,,,,,,,,,,,,,,,,,,,,,,,,,,,,
,,,,a,2023-10-23_17h05.11.343,SlotMachine_updated,2023.1.3,Win32,58.41121495,,,,,,,,,,,,,,,487.313,0.4204,,right,1,,stimuli/card_100_transparent.png,850,100,14,0,14,0,1,,,,,,,,,,,,,,,,,,,,,,,,,,,,,,,,,,,,,,,,
,,,,a,2023-10-23_17h05.11.343,SlotMachine_updated,2023.1.3,Win32,58.41121495,,,,,,,,,,,,,"[6,15]","[[1,3,2],[3,1,2]]",494.0739,0.7774,,left,0.5,,stimuli/card_100_transparent.png,100,100,0,0,0,0,1,,489.0461,,,,,,,,,,,,,,,,,,,,,,,,,,,,,,,,,,,,,,
,,,,a,2023-10-23_17h05.11.343,SlotMachine_updated,2023.1.3,Win32,58.41121495,,,,,,,,,,,,,,,495.6629,0.1306,,right,1,,stimuli/card_0_transparent.png,100,0,1,0,1,0,1,,,,,,,,,,,,,,,,,,,,,,,,,,,,,,,,,,,,,,,,
,,,,a,2023-10-23_17h05.11.343,SlotMachine_updated,2023.1.3,Win32,58.41121495,,,,,,,,,,,,,,,497.1124,0.6588,,left,1.5,,stimuli/card_100_transparent.png,200,100,2,0,2,0,1,,,,,,,,,,,,,,,,,,,,,,,,,,,,,,,,,,,,,,,,
,,,,a,2023-10-23_17h05.11.343,SlotMachine_updated,2023.1.3,Win32,58.41121495,,,,,,,,,,,,,,,499.5783,0.196,,left,1.5,,stimuli/card_100_transparent.png,300,100,3,0,3,0,1,,,,,,,,,,,,,,,,,,,,,,,,,,,,,,,,,,,,,,,,
,,,,a,2023-10-23_17h05.11.343,SlotMachine_updated,2023.1.3,Win32,58.41121495,,,,,,,,,,,,,,,501.5947,0.3162,,left,1,,stimuli/card_10_transparent.png,310,10,4,0,4,0,1,,,,,,,,,,,,,,,,,,,,,,,,,,,,,,,,,,,,,,,,
,,,,a,2023-10-23_17h05.11.343,SlotMachine_updated,2023.1.3,Win32,58.41121495,,,,,,,,,,,,,,,503.2297,0.0493,,left,1,,stimuli/card_10_transparent.png,320,10,5,0,5,0,1,,,,,,,,,,,,,,,,,,,,,,,,,,,,,,,,,,,,,,,,
,,,,a,2023-10-23_17h05.11.343,SlotMachine_updated,2023.1.3,Win32,58.41121495,,,,,,,,,,,,,,,504.5961,0.4158,,left,0.5,,stimuli/card_0_transparent.png,320,0,6,0,6,0,1,,,,,,,,,,,,,,,,,,,,,,,,,,,,,,,,,,,,,,,,
,,,,a,2023-10-23_17h05.11.343,SlotMachine_updated,2023.1.3,Win32,58.41121495,,,,,,,,,,,,,,,505.8289,0.8348,,right,1.5,,stimuli/card_10_transparent.png,330,10,7,0,7,0,1,,,,,,,,,,,,,,,,,,,,,,,,,,,,,,,,,,,,,,,,
,,,,a,2023-10-23_17h05.11.343,SlotMachine_updated,2023.1.3,Win32,58.41121495,,,,,,,,,,,,,,,508.4784,0.8402,,left,1.5,,stimuli/card_0_transparent.png,330,0,8,0,8,0,1,,,,,,,,,,,,,,,,,,,,,,,,,,,,,,,,,,,,,,,,
,,,,a,2023-10-23_17h05.11.343,SlotMachine_updated,2023.1.3,Win32,58.41121495,,,,,,,,,,,,,,,511.1288,1.6032,,up,1.5,,stimuli/card_100_transparent.png,430,100,9,0,9,0,1,,,,,,,,,,,,,,,,,,,,,,,,,,,,,,,,,,,,,,,,
,,,,a,2023-10-23_17h05.11.343,SlotMachine_updated,2023.1.3,Win32,58.41121495,,,,,,,,,,,,,,,514.5452,0.4647,,up,0.5,,stimuli/card_100_transparent.png,530,100,10,0,10,0,1,,,,,,,,,,,,,,,,,,,,,,,,,,,,,,,,,,,,,,,,
,,,,a,2023-10-23_17h05.11.343,SlotMachine_updated,2023.1.3,Win32,58.41121495,,,,,,,,,,,,,,,515.8287,0.3647,,up,1.5,,stimuli/card_100_transparent.png,630,100,11,0,11,0,1,,,,,,,,,,,,,,,,,,,,,,,,,,,,,,,,,,,,,,,,
,,,,a,2023-10-23_17h05.11.343,SlotMachine_updated,2023.1.3,Win32,58.41121495,,,,,,,,,,,,,,,518.011,0.2143,,up,0.5,,stimuli/card_100_transparent.png,730,100,12,0,12,0,1,,,,,,,,,,,,,,,,,,,,,,,,,,,,,,,,,,,,,,,,
,,,,a,2023-10-23_17h05.11.343,SlotMachine_updated,2023.1.3,Win32,58.41121495,,,,,,,,,,,,,,,519.0445,0.6147,,right,1,,stimuli/card_100_transparent.png,830,100,13,0,13,0,1,,,,,,,,,,,,,,,,,,,,,,,,,,,,,,,,,,,,,,,,
,,,,a,2023-10-23_17h05.11.343,SlotMachine_updated,2023.1.3,Win32,58.41121495,,,,,,,,,,,,,,,520.9785,0.435,,right,0.5,,stimuli/card_0_transparent.png,830,0,14,0,14,0,1,,,,,,,,,,,,,,,,,,,,,,,,,,,,,,,,,,,,,,,,
,,,,a,2023-10-23_17h05.11.343,SlotMachine_updated,2023.1.3,Win32,58.41121495,,,,,,,,,,,,,,,,,,,,,,,,,,,,,,522.2276,,,527.2282,space,2.4752,0.0003,,,,,,,,,,,,,,,,,,,,,,,,,,,,,,,,
,,,,a,2023-10-23_17h05.11.343,SlotMachine_updated,2023.1.3,Win32,58.41121495,,,,,,,,,,,,,,,,,,,,,,,,,,,,,,,,,,,,,529.7293,3,"[0,4,6,3,5,7,8,1,9,2]",529.7293,space,2.2118,0.0004,,,,,,,,,,,,,,,,,,,,,,,,,
,,,,a,2023-10-23_17h05.11.343,SlotMachine_updated,2023.1.3,Win32,58.41121495,,,,,,,,,,,,,,,,,,,,,,,,,,,,,,,,,,,,,,,,,,,,1,1,"[12,15]","[[2,1,3],[2,3,1]]",531.9838,left,0.7029,,0.5,0.3,"[2,1,3]",0.496376019,stimuli/card_10_transparent.png,10,10,0,0,0,0,1,,,,,
,,,,a,2023-10-23_17h05.11.343,SlotMachine_updated,2023.1.3,Win32,58.41121495,,,,,,,,,,,,,,,,,,,,,,,,,,,,,,,,,,,,,,,,,,,,,,,,533.5151,right,0.2612,,1.5,0.3,"[2,1,3]",0.019965367,stimuli/card_100_transparent.png,110,100,1,0,1,0,1,,,,,
,,,,a,2023-10-23_17h05.11.343,SlotMachine_updated,2023.1.3,Win32,58.41121495,,,,,,,,,,,,,,,,,,,,,,,,,,,,,,,,,,,,,,,,,,,,,,,,535.5963,right,0.6461,,0.5,0.3,"[2,1,3]",0.5637073,stimuli/card_0_transparent.png,110,0,2,0,2,0,1,,,,,
,,,,a,2023-10-23_17h05.11.343,SlotMachine_updated,2023.1.3,Win32,58.41121495,,,,,,,,,,,,,,,,,,,,,,,,,,,,,,,,,,,,,,,,,,,,,,,,537.063,left,0.6004,,1.5,0.3,"[2,1,3]",0.737359158,stimuli/card_10_transparent.png,120,10,3,0,3,0,1,,,,,
,,,,a,2023-10-23_17h05.11.343,SlotMachine_updated,2023.1.3,Win32,58.41121495,,,,,,,,,,,,,,,,,,,,,,,,,,,,,,,,,,,,,,,,,,,,,,,,539.4779,up,0.0936,,1,0.3,"[2,1,3]",0.601793448,stimuli/card_100_transparent.png,220,100,4,0,4,0,1,,,,,
,,,,a,2023-10-23_17h05.11.343,SlotMachine_updated,2023.1.3,Win32,58.41121495,,,,,,,,,,,,,,,,,,,,,,,,,,,,,,,,,,,,,,,,,,,,,,,,540.896,up,0.3838,,1,0.3,"[2,1,3]",0.464701141,stimuli/card_100_transparent.png,320,100,5,0,5,0,1,,,,,
,,,,a,2023-10-23_17h05.11.343,SlotMachine_updated,2023.1.3,Win32,58.41121495,,,,,,,,,,,,,,,,,,,,,,,,,,,,,,,,,,,,,,,,,,,,,,,,542.5953,up,0.4508,,0.5,0.3,"[2,1,3]",0.409347417,stimuli/card_100_transparent.png,420,100,6,0,6,0,1,,,,,
,,,,a,2023-10-23_17h05.11.343,SlotMachine_updated,2023.1.3,Win32,58.41121495,,,,,,,,,,,,,,,,,,,,,,,,,,,,,,,,,,,,,,,,,,,,,,,,543.8608,up,0.4374,,1,0.3,"[2,1,3]",0.716109318,stimuli/card_100_transparent.png,520,100,7,0,7,0,1,,,,,
,,,,a,2023-10-23_17h05.11.343,SlotMachine_updated,2023.1.3,Win32,58.41121495,,,,,,,,,,,,,,,,,,,,,,,,,,,,,,,,,,,,,,,,,,,,,,,,545.6124,up,2.9151,0.0014,1,0.3,"[2,1,3]",0.468001446,stimuli/card_100_transparent.png,620,100,8,0,8,0,1,,,,,
,,,,a,2023-10-23_17h05.11.343,SlotMachine_updated,2023.1.3,Win32,58.41121495,,,,,,,,,,,,,,,,,,,,,,,,,,,,,,,,,,,,,,,,,,,,,,,,549.8454,up,0.1007,,1,0.3,"[2,1,3]",0.919960355,stimuli/card_100_transparent.png,720,100,9,0,9,0,1,,,,,
,,,,a,2023-10-23_17h05.11.343,SlotMachine_updated,2023.1.3,Win32,58.41121495,,,,,,,,,,,,,,,,,,,,,,,,,,,,,,,,,,,,,,,,,,,,,,,,551.2605,up,0.0572,,0.5,0.3,"[2,1,3]",0.004565819,stimuli/card_0_transparent.png,720,0,10,0,10,0,1,,,,,
,,,,a,2023-10-23_17h05.11.343,SlotMachine_updated,2023.1.3,Win32,58.41121495,,,,,,,,,,,,,,,,,,,,,,,,,,,,,,,,,,,,,,,,,,,,,,,,552.1269,up,0.7248,,0.5,0.3,"[2,1,3]",0.408234976,stimuli/card_100_transparent.png,820,100,11,0,11,0,1,,,,,
,,,,a,2023-10-23_17h05.11.343,SlotMachine_updated,2023.1.3,Win32,58.41121495,,,,,,,,,,,,,,,,,,,,,,,,,,,,,,,,,,,,,,,,,,,,,,,,553.6601,right,0.1179,,0.5,0.3,"[2,3,1]",0.85785114,stimuli/card_100_transparent.png,920,100,12,0,12,0,1,,,,,
,,,,a,2023-10-23_17h05.11.343,SlotMachine_updated,2023.1.3,Win32,58.41121495,,,,,,,,,,,,,,,,,,,,,,,,,,,,,,,,,,,,,,,,,,,,,,,,554.5955,right,0.298,,1,0.3,"[2,3,1]",0.787353108,stimuli/card_100_transparent.png,1020,100,13,0,13,0,1,,,,,
,,,,a,2023-10-23_17h05.11.343,SlotMachine_updated,2023.1.3,Win32,58.41121495,,,,,,,,,,,,,,,,,,,,,,,,,,,,,,,,,,,,,,,,,,,,,,,,556.2116,right,0.0623,,1,0.3,"[2,3,1]",0.35650182,stimuli/card_100_transparent.png,1120,100,14,0,14,0,1,,,,,
,,,,a,2023-10-23_17h05.11.343,SlotMachine_updated,2023.1.3,Win32,58.41121495,,,,,,,,,,,,,,,,,,,,,,,,,,,,,,557.5948,,,,,,,,,,,,,,,,,,,,,,,,,,,,,,,,,,0,0,0,0,1
,,,,a,2023-10-23_17h05.11.343,SlotMachine_updated,2023.1.3,Win32,58.41121495,,,,,,,,,,,,,,,,,,,,,,,,,,,,,,,,,,,,,,,,,,,,2,5,"[5,15]","[[1,2,3],[3,1,2]]",562.6118,left,0.8999,0.0024,1,0.3,"[1,2,3]",0.239812823,stimuli/card_100_transparent.png,100,100,0,0,0,0,1,,,,,
,,,,a,2023-10-23_17h05.11.343,SlotMachine_updated,2023.1.3,Win32,58.41121495,,,,,,,,,,,,,,,,,,,,,,,,,,,,,,,,,,,,,,,,,,,,,,,,564.8272,left,1.0894,,0.5,0.3,"[1,2,3]",0.996295434,stimuli/card_100_transparent.png,200,100,1,0,1,0,1,,,,,
,,,,a,2023-10-23_17h05.11.343,SlotMachine_updated,2023.1.3,Win32,58.41121495,,,,,,,,,,,,,,,,,,,,,,,,,,,,,,,,,,,,,,,,,,,,,,,,566.7277,left,0.1343,,1,0.3,"[1,2,3]",0.479357857,stimuli/card_100_transparent.png,300,100,2,0,2,0,1,,,,,
,,,,a,2023-10-23_17h05.11.343,SlotMachine_updated,2023.1.3,Win32,58.41121495,,,,,,,,,,,,,,,,,,,,,,,,,,,,,,,,,,,,,,,,,,,,,,,,568.177,left,0.3553,,1,0.3,"[1,2,3]",0.96674504,stimuli/card_100_transparent.png,400,100,3,0,3,0,1,,,,,
,,,,a,2023-10-23_17h05.11.343,SlotMachine_updated,2023.1.3,Win32,58.41121495,,,,,,,,,,,,,,,,,,,,,,,,,,,,,,,,,,,,,,,,,,,,,,,,569.8432,left,0.4867,,1,0.3,"[1,2,3]",0.915282786,stimuli/card_100_transparent.png,500,100,4,0,4,0,1,,,,,
,,,,a,2023-10-23_17h05.11.343,SlotMachine_updated,2023.1.3,Win32,58.41121495,,,,,,,,,,,,,,,,,,,,,,,,,,,,,,,,,,,,,,,,,,,,,,,,571.6431,left,1.2363,,1,0.3,"[3,1,2]",0.846161329,stimuli/card_0_transparent.png,500,0,5,0,5,0,1,,,,,
,,,,a,2023-10-23_17h05.11.343,SlotMachine_updated,2023.1.3,Win32,58.41121495,,,,,,,,,,,,,,,,,,,,,,,,,,,,,,,,,,,,,,,,,,,,,,,,574.1947,left,0.7509,,0.5,0.3,"[3,1,2]",0.509022121,stimuli/card_0_transparent.png,500,0,6,0,6,0,1,,,,,
,,,,a,2023-10-23_17h05.11.343,SlotMachine_updated,2023.1.3,Win32,58.41121495,,,,,,,,,,,,,,,,,,,,,,,,,,,,,,,,,,,,,,,,,,,,,,,,575.7623,up,0.3348,,0.5,0.3,"[3,1,2]",0.065346432,stimuli/card_0_transparent.png,500,0,7,0,7,0,1,,,,,
,,,,a,2023-10-23_17h05.11.343,SlotMachine_updated,2023.1.3,Win32,58.41121495,,,,,,,,,,,,,,,,,,,,,,,,,,,,,,,,,,,,,,,,,,,,,,,,576.9116,right,0.2842,,1,0.3,"[3,1,2]",0.568693619,stimuli/card_10_transparent.png,510,10,8,0,8,0,1,,,,,
,,,,a,2023-10-23_17h05.11.343,SlotMachine_updated,2023.1.3,Win32,58.41121495,,,,,,,,,,,,,,,,,,,,,,,,,,,,,,,,,,,,,,,,,,,,,,,,578.5111,right,0.3704,,1,0.3,"[3,1,2]",0.603156852,stimuli/card_10_transparent.png,520,10,9,0,9,0,1,,,,,
,,,,a,2023-10-23_17h05.11.343,SlotMachine_updated,2023.1.3,Win32,58.41121495,,,,,,,,,,,,,,,,,,,,,,,,,,,,,,,,,,,,,,,,,,,,,,,,580.1949,left,0.0635,,0.5,0.3,"[3,1,2]",0.437915302,stimuli/card_0_transparent.png,520,0,10,0,10,0,1,,,,,
,,,,a,2023-10-23_17h05.11.343,SlotMachine_updated,2023.1.3,Win32,58.41121495,,,,,,,,,,,,,,,,,,,,,,,,,,,,,,,,,,,,,,,,,,,,,,,,581.0786,up,0.149,,1.5,0.3,"[3,1,2]",0.512700565,stimuli/card_100_transparent.png,620,100,11,0,11,0,1,,,,,
,,,,a,2023-10-23_17h05.11.343,SlotMachine_updated,2023.1.3,Win32,58.41121495,,,,,,,,,,,,,,,,,,,,,,,,,,,,,,,,,,,,,,,,,,,,,,,,583.0429,up,0.1352,,1,0.3,"[3,1,2]",0.661808641,stimuli/card_100_transparent.png,720,100,12,0,12,0,1,,,,,
,,,,a,2023-10-23_17h05.11.343,SlotMachine_updated,2023.1.3,Win32,58.41121495,,,,,,,,,,,,,,,,,,,,,,,,,,,,,,,,,,,,,,,,,,,,,,,,584.4932,up,0.1715,,0.5,0.3,"[3,1,2]",0.001727302,stimuli/card_0_transparent.png,720,0,13,0,13,0,1,,,,,
,,,,a,2023-10-23_17h05.11.343,SlotMachine_updated,2023.1.3,Win32,58.41121495,,,,,,,,,,,,,,,,,,,,,,,,,,,,,,,,,,,,,,,,,,,,,,,,585.4775,up,0.4905,,0.5,0.3,"[3,1,2]",0.485656301,stimuli/card_100_transparent.png,820,100,14,0,14,0,1,,,,,
,,,,a,2023-10-23_17h05.11.343,SlotMachine_updated,2023.1.3,Win32,58.41121495,,,,,,,,,,,,,,,,,,,,,,,,,,,,,,586.7772,,,,,,,,,,,,,,,,,,,,,,,,,,,,,,,,,,1,0,1,0,1
,,,,a,2023-10-23_17h05.11.343,SlotMachine_updated,2023.1.3,Win32,58.41121495,,,,,,,,,,,,,,,,,,,,,,,,,,,,,,,,,,,,,,,,,,,,3,7,"[9,15]","[[1,3,2],[2,3,1]]",591.7942,,,,0.5,0.3,,,,,,0,0,0,0,1,,,,,
,,,,a,2023-10-23_17h05.11.343,SlotMachine_updated,2023.1.3,Win32,58.41121495,,,,,,,,,,,,,,,,,,,,,,,,,,,,,,,,,,,,,,,,,,,,,,,,597.3313,right,0.4447,,1.5,0.3,"[1,3,2]",0.49550863,stimuli/card_10_transparent.png,10,10,1,0,1,0,1,,,,,
,,,,a,2023-10-23_17h05.11.343,SlotMachine_updated,2023.1.3,Win32,58.41121495,,,,,,,,,,,,,,,,,,,,,,,,,,,,,,,,,,,,,,,,,,,,,,,,599.5929,left,0.1505,,0.5,0.3,"[1,3,2]",0.517011856,stimuli/card_100_transparent.png,110,100,2,0,2,0,1,,,,,
,,,,a,2023-10-23_17h05.11.343,SlotMachine_updated,2023.1.3,Win32,58.41121495,,,,,,,,,,,,,,,,,,,,,,,,,,,,,,,,,,,,,,,,,,,,,,,,600.5609,left,0.439,,1,0.3,"[1,3,2]",0.917921288,stimuli/card_100_transparent.png,210,100,3,0,3,0,1,,,,,
,,,,a,2023-10-23_17h05.11.343,SlotMachine_updated,2023.1.3,Win32,58.41121495,,,,,,,,,,,,,,,,,,,,,,,,,,,,,,,,,,,,,,,,,,,,,,,,602.3105,left,0.0813,,0.5,0.3,"[1,3,2]",0.717428728,stimuli/card_100_transparent.png,310,100,4,0,4,0,1,,,,,
,,,,a,2023-10-23_17h05.11.343,SlotMachine_updated,2023.1.3,Win32,58.41121495,,,,,,,,,,,,,,,,,,,,,,,,,,,,,,,,,,,,,,,,,,,,,,,,603.2108,left,0.2182,,0.5,0.3,"[1,3,2]",0.124508349,stimuli/card_10_transparent.png,320,10,5,0,5,0,1,,,,,
,,,,a,2023-10-23_17h05.11.343,SlotMachine_updated,2023.1.3,Win32,58.41121495,,,,,,,,,,,,,,,,,,,,,,,,,,,,,,,,,,,,,,,,,,,,,,,,604.2442,left,0.2865,,1.5,0.3,"[1,3,2]",0.808702996,stimuli/card_100_transparent.png,420,100,6,0,6,0,1,,,,,
,,,,a,2023-10-23_17h05.11.343,SlotMachine_updated,2023.1.3,Win32,58.41121495,,,,,,,,,,,,,,,,,,,,,,,,,,,,,,,,,,,,,,,,,,,,,,,,606.3433,left,0.567,,1,0.3,"[1,3,2]",0.725223443,stimuli/card_100_transparent.png,520,100,7,0,7,0,1,,,,,
,,,,a,2023-10-23_17h05.11.343,SlotMachine_updated,2023.1.3,Win32,58.41121495,,,,,,,,,,,,,,,,,,,,,,,,,,,,,,,,,,,,,,,,,,,,,,,,608.2279,left,0.1318,,1,0.3,"[1,3,2]",0.293427899,stimuli/card_100_transparent.png,620,100,8,0,8,0,1,,,,,
,,,,a,2023-10-23_17h05.11.343,SlotMachine_updated,2023.1.3,Win32,58.41121495,,,,,,,,,,,,,,,,,,,,,,,,,,,,,,,,,,,,,,,,,,,,,,,,609.6777,left,0.2145,,1,0.3,"[2,3,1]",0.886610871,stimuli/card_10_transparent.png,630,10,9,0,9,0,1,,,,,
,,,,a,2023-10-23_17h05.11.343,SlotMachine_updated,2023.1.3,Win32,58.41121495,,,,,,,,,,,,,,,,,,,,,,,,,,,,,,,,,,,,,,,,,,,,,,,,611.2102,left,0.749,,1,0.3,"[2,3,1]",0.376817937,stimuli/card_10_transparent.png,640,10,10,0,10,0,1,,,,,
,,,,a,2023-10-23_17h05.11.343,SlotMachine_updated,2023.1.3,Win32,58.41121495,,,,,,,,,,,,,,,,,,,,,,,,,,,,,,,,,,,,,,,,,,,,,,,,613.2768,left,0.4136,,1,0.3,"[2,3,1]",0.741170211,stimuli/card_10_transparent.png,650,10,11,0,11,0,1,,,,,
,,,,a,2023-10-23_17h05.11.343,SlotMachine_updated,2023.1.3,Win32,58.41121495,,,,,,,,,,,,,,,,,,,,,,,,,,,,,,,,,,,,,,,,,,,,,,,,615.0102,left,0.4326,,1,0.3,"[2,3,1]",0.402041239,stimuli/card_10_transparent.png,660,10,12,0,12,0,1,,,,,
,,,,a,2023-10-23_17h05.11.343,SlotMachine_updated,2023.1.3,Win32,58.41121495,,,,,,,,,,,,,,,,,,,,,,,,,,,,,,,,,,,,,,,,,,,,,,,,616.7593,left,1.913,,1,0.3,"[2,3,1]",0.579306067,stimuli/card_10_transparent.png,670,10,13,0,13,0,1,,,,,
,,,,a,2023-10-23_17h05.11.343,SlotMachine_updated,2023.1.3,Win32,58.41121495,,,,,,,,,,,,,,,,,,,,,,,,,,,,,,,,,,,,,,,,,,,,,,,,619.9926,left,1.2739,,1,0.3,"[2,3,1]",0.562871739,stimuli/card_10_transparent.png,680,10,14,0,14,0,1,,,,,
,,,,a,2023-10-23_17h05.11.343,SlotMachine_updated,2023.1.3,Win32,58.41121495,,,,,,,,,,,,,,,,,,,,,,,,,,,,,,622.5763,,,,,,,,,,,,,,,,,,,,,,,,,,,,,,,,,,2,0,2,0,1
,,,,a,2023-10-23_17h05.11.343,SlotMachine_updated,2023.1.3,Win32,58.41121495,,,,,,,,,,,,,,,,,,,,,,,,,,,,,,,,,,,,,,,,,,,,4,4,"[7,15]","[[2,3,1],[1,2,3]]",627.5966,right,0.8134,,1.5,0.3,"[2,3,1]",0.674006937,stimuli/card_100_transparent.png,100,100,0,0,0,0,1,,,,,
,,,,a,2023-10-23_17h05.11.343,SlotMachine_updated,2023.1.3,Win32,58.41121495,,,,,,,,,,,,,,,,,,,,,,,,,,,,,,,,,,,,,,,,,,,,,,,,630.2272,right,0.4646,0.0049,0.5,0.3,"[2,3,1]",0.56889814,stimuli/card_100_transparent.png,200,100,1,0,1,0,1,,,,,
,,,,a,2023-10-23_17h05.11.343,SlotMachine_updated,2023.1.3,Win32,58.41121495,,,,,,,,,,,,,,,,,,,,,,,,,,,,,,,,,,,,,,,,,,,,,,,,631.5102,right,0.472,,1,0.3,"[2,3,1]",0.488836594,stimuli/card_100_transparent.png,300,100,2,0,2,0,1,,,,,
,,,,a,2023-10-23_17h05.11.343,SlotMachine_updated,2023.1.3,Win32,58.41121495,,,,,,,,,,,,,,,,,,,,,,,,,,,,,,,,,,,,,,,,,,,,,,,,633.2936,right,1.6155,,0.5,0.3,"[2,3,1]",0.341538713,stimuli/card_100_transparent.png,400,100,3,0,3,0,1,,,,,
,,,,a,2023-10-23_17h05.11.343,SlotMachine_updated,2023.1.3,Win32,58.41121495,,,,,,,,,,,,,,,,,,,,,,,,,,,,,,,,,,,,,,,,,,,,,,,,635.7268,right,0.1468,,1,0.3,"[2,3,1]",0.937960605,stimuli/card_100_transparent.png,500,100,4,0,4,0,1,,,,,
,,,,a,2023-10-23_17h05.11.343,SlotMachine_updated,2023.1.3,Win32,58.41121495,,,,,,,,,,,,,,,,,,,,,,,,,,,,,,,,,,,,,,,,,,,,,,,,637.1925,right,0.1004,,1,0.3,"[2,3,1]",0.30379973,stimuli/card_100_transparent.png,600,100,5,0,5,0,1,,,,,
,,,,a,2023-10-23_17h05.11.343,SlotMachine_updated,2023.1.3,Win32,58.41121495,,,,,,,,,,,,,,,,,,,,,,,,,,,,,,,,,,,,,,,,,,,,,,,,638.6113,right,0.1929,,1.5,0.3,"[2,3,1]",0.469994846,stimuli/card_100_transparent.png,700,100,6,0,6,0,1,,,,,
,,,,a,2023-10-23_17h05.11.343,SlotMachine_updated,2023.1.3,Win32,58.41121495,,,,,,,,,,,,,,,,,,,,,,,,,,,,,,,,,,,,,,,,,,,,,,,,640.6275,right,0.6104,,1,0.3,"[1,2,3]",0.679753628,stimuli/card_0_transparent.png,700,0,7,0,7,0,1,,,,,
,,,,a,2023-10-23_17h05.11.343,SlotMachine_updated,2023.1.3,Win32,58.41121495,,,,,,,,,,,,,,,,,,,,,,,,,,,,,,,,,,,,,,,,,,,,,,,,642.5599,right,0.2893,,1,0.3,"[1,2,3]",0.313186957,stimuli/card_0_transparent.png,700,0,8,0,8,0,1,,,,,
,,,,a,2023-10-23_17h05.11.343,SlotMachine_updated,2023.1.3,Win32,58.41121495,,,,,,,,,,,,,,,,,,,,,,,,,,,,,,,,,,,,,,,,,,,,,,,,644.1586,right,0.4517,,1.5,0.3,"[1,2,3]",0.516471914,stimuli/card_0_transparent.png,700,0,9,0,9,0,1,,,,,
,,,,a,2023-10-23_17h05.11.343,SlotMachine_updated,2023.1.3,Win32,58.41121495,,,,,,,,,,,,,,,,,,,,,,,,,,,,,,,,,,,,,,,,,,,,,,,,646.4251,left,0.3399,,1.5,0.3,"[1,2,3]",0.594898819,stimuli/card_100_transparent.png,800,100,10,0,10,0,1,,,,,
,,,,a,2023-10-23_17h05.11.343,SlotMachine_updated,2023.1.3,Win32,58.41121495,,,,,,,,,,,,,,,,,,,,,,,,,,,,,,,,,,,,,,,,,,,,,,,,648.5765,left,0.2158,,1,0.3,"[1,2,3]",0.413106614,stimuli/card_100_transparent.png,900,100,11,0,11,0,1,,,,,
,,,,a,2023-10-23_17h05.11.343,SlotMachine_updated,2023.1.3,Win32,58.41121495,,,,,,,,,,,,,,,,,,,,,,,,,,,,,,,,,,,,,,,,,,,,,,,,650.1093,left,0.1204,,1,0.3,"[1,2,3]",0.94558822,stimuli/card_100_transparent.png,1000,100,12,0,12,0,1,,,,,
,,,,a,2023-10-23_17h05.11.343,SlotMachine_updated,2023.1.3,Win32,58.41121495,,,,,,,,,,,,,,,,,,,,,,,,,,,,,,,,,,,,,,,,,,,,,,,,651.5434,left,0.178,,1.5,0.3,"[1,2,3]",0.603639435,stimuli/card_100_transparent.png,1100,100,13,0,13,0,1,,,,,
,,,,a,2023-10-23_17h05.11.343,SlotMachine_updated,2023.1.3,Win32,58.41121495,,,,,,,,,,,,,,,,,,,,,,,,,,,,,,,,,,,,,,,,,,,,,,,,653.5433,left,0.4173,,1,0.3,"[1,2,3]",0.901280267,stimuli/card_100_transparent.png,1200,100,14,0,14,0,1,,,,,
,,,,a,2023-10-23_17h05.11.343,SlotMachine_updated,2023.1.3,Win32,58.41121495,,,,,,,,,,,,,,,,,,,,,,,,,,,,,,655.2755,,,,,,,,,,,,,,,,,,,,,,,,,,,,,,,,,,3,0,3,0,1
,,,,a,2023-10-23_17h05.11.343,SlotMachine_updated,2023.1.3,Win32,58.41121495,,,,,,,,,,,,,,,,,,,,,,,,,,,,,,,,,,,,,,,,,,,,5,6,"[4,10,15]","[[2,3,1],[1,3,2],[3,2,1]]",660.2939,left,0.9185,0.0003,1.5,0.3,"[2,3,1]",0.739802306,stimuli/card_10_transparent.png,10,10,0,0,0,0,1,,,,,
,,,,a,2023-10-23_17h05.11.343,SlotMachine_updated,2023.1.3,Win32,58.41121495,,,,,,,,,,,,,,,,,,,,,,,,,,,,,,,,,,,,,,,,,,,,,,,,663.0268,up,0.097,,1.5,0.3,"[2,3,1]",0.950206944,stimuli/card_0_transparent.png,10,0,1,0,1,0,1,,,,,
,,,,a,2023-10-23_17h05.11.343,SlotMachine_updated,2023.1.3,Win32,58.41121495,,,,,,,,,,,,,,,,,,,,,,,,,,,,,,,,,,,,,,,,,,,,,,,,664.9431,right,0.5497,,1,0.3,"[2,3,1]",0.272206082,stimuli/card_100_transparent.png,110,100,2,0,2,0,1,,,,,
,,,,a,2023-10-23_17h05.11.343,SlotMachine_updated,2023.1.3,Win32,58.41121495,,,,,,,,,,,,,,,,,,,,,,,,,,,,,,,,,,,,,,,,,,,,,,,,666.8082,right,0.3396,,0.5,0.3,"[2,3,1]",0.227217341,stimuli/card_100_transparent.png,210,100,3,0,3,0,1,,,,,
,,,,a,2023-10-23_17h05.11.343,SlotMachine_updated,2023.1.3,Win32,58.41121495,,,,,,,,,,,,,,,,,,,,,,,,,,,,,,,,,,,,,,,,,,,,,,,,667.9605,right,0.2676,,1,0.3,"[1,3,2]",0.832991668,stimuli/card_10_transparent.png,220,10,4,0,4,0,1,,,,,
,,,,a,2023-10-23_17h05.11.343,SlotMachine_updated,2023.1.3,Win32,58.41121495,,,,,,,,,,,,,,,,,,,,,,,,,,,,,,,,,,,,,,,,,,,,,,,,669.5416,right,0.0379,,1,0.3,"[1,3,2]",0.764686302,stimuli/card_10_transparent.png,230,10,5,0,5,0,1,,,,,
,,,,a,2023-10-23_17h05.11.343,SlotMachine_updated,2023.1.3,Win32,58.41121495,,,,,,,,,,,,,,,,,,,,,,,,,,,,,,,,,,,,,,,,,,,,,,,,670.8932,right,0.1987,,1,0.3,"[1,3,2]",0.591233993,stimuli/card_10_transparent.png,240,10,6,0,6,0,1,,,,,
,,,,a,2023-10-23_17h05.11.343,SlotMachine_updated,2023.1.3,Win32,58.41121495,,,,,,,,,,,,,,,,,,,,,,,,,,,,,,,,,,,,,,,,,,,,,,,,672.4078,up,1.2172,0.0029,1,0.3,"[1,3,2]",0.732755713,stimuli/card_0_transparent.png,240,0,7,0,7,0,1,,,,,
,,,,a,2023-10-23_17h05.11.343,SlotMachine_updated,2023.1.3,Win32,58.41121495,,,,,,,,,,,,,,,,,,,,,,,,,,,,,,,,,,,,,,,,,,,,,,,,674.941,up,1.0005,,0.5,0.3,"[1,3,2]",0.620120658,stimuli/card_0_transparent.png,240,0,8,0,8,0,1,,,,,
,,,,a,2023-10-23_17h05.11.343,SlotMachine_updated,2023.1.3,Win32,58.41121495,,,,,,,,,,,,,,,,,,,,,,,,,,,,,,,,,,,,,,,,,,,,,,,,676.7593,up,0.3571,,1.5,0.3,"[1,3,2]",0.612282627,stimuli/card_0_transparent.png,240,0,9,0,9,0,1,,,,,
,,,,a,2023-10-23_17h05.11.343,SlotMachine_updated,2023.1.3,Win32,58.41121495,,,,,,,,,,,,,,,,,,,,,,,,,,,,,,,,,,,,,,,,,,,,,,,,678.9243,up,0.8212,,1.5,0.3,"[3,2,1]",0.904639571,stimuli/card_10_transparent.png,250,10,10,0,10,0,1,,,,,
,,,,a,2023-10-23_17h05.11.343,SlotMachine_updated,2023.1.3,Win32,58.41121495,,,,,,,,,,,,,,,,,,,,,,,,,,,,,,,,,,,,,,,,,,,,,,,,681.5577,up,0.8017,,1,0.3,"[3,2,1]",0.461921809,stimuli/card_10_transparent.png,260,10,11,0,11,0,1,,,,,
,,,,a,2023-10-23_17h05.11.343,SlotMachine_updated,2023.1.3,Win32,58.41121495,,,,,,,,,,,,,,,,,,,,,,,,,,,,,,,,,,,,,,,,,,,,,,,,683.6746,up,0.5331,,0.5,0.3,"[3,2,1]",0.356282141,stimuli/card_10_transparent.png,270,10,12,0,12,0,1,,,,,
,,,,a,2023-10-23_17h05.11.343,SlotMachine_updated,2023.1.3,Win32,58.41121495,,,,,,,,,,,,,,,,,,,,,,,,,,,,,,,,,,,,,,,,,,,,,,,,685.024,up,1.1175,,1.5,0.3,"[3,2,1]",0.883532328,stimuli/card_10_transparent.png,280,10,13,0,13,0,1,,,,,
,,,,a,2023-10-23_17h05.11.343,SlotMachine_updated,2023.1.3,Win32,58.41121495,,,,,,,,,,,,,,,,,,,,,,,,,,,,,,,,,,,,,,,,,,,,,,,,687.9592,up,1.9353,,0.5,0.3,"[3,2,1]",0.478505673,stimuli/card_10_transparent.png,290,10,14,0,14,0,1,,,,,
,,,,a,2023-10-23_17h05.11.343,SlotMachine_updated,2023.1.3,Win32,58.41121495,,,,,,,,,,,,,,,,,,,,,,,,,,,,,,690.7083,,,,,,,,,,,,,,,,,,,,,,,,,,,,,,,,,,4,0,4,0,1
,,,,a,2023-10-23_17h05.11.343,SlotMachine_updated,2023.1.3,Win32,58.41121495,,,,,,,,,,,,,,,,,,,,,,,,,,,,,,,,,,,,,,,,,,,,6,8,"[11,15]","[[2,1,3],[1,2,3]]",695.7244,left,0.8575,,0.5,0.3,"[2,1,3]",0.379709733,stimuli/card_10_transparent.png,10,10,0,0,0,0,1,,,,,
,,,,a,2023-10-23_17h05.11.343,SlotMachine_updated,2023.1.3,Win32,58.41121495,,,,,,,,,,,,,,,,,,,,,,,,,,,,,,,,,,,,,,,,,,,,,,,,697.391,up,0.3847,,1,0.3,"[2,1,3]",0.455775077,stimuli/card_100_transparent.png,110,100,1,0,1,0,1,,,,,
,,,,a,2023-10-23_17h05.11.343,SlotMachine_updated,2023.1.3,Win32,58.41121495,,,,,,,,,,,,,,,,,,,,,,,,,,,,,,,,,,,,,,,,,,,,,,,,699.0907,up,0.389,,1,0.3,"[2,1,3]",0.066410901,stimuli/card_0_transparent.png,110,0,2,0,2,0,1,,,,,
,,,,a,2023-10-23_17h05.11.343,SlotMachine_updated,2023.1.3,Win32,58.41121495,,,,,,,,,,,,,,,,,,,,,,,,,,,,,,,,,,,,,,,,,,,,,,,,700.791,up,0.2861,,1,0.3,"[2,1,3]",0.113805953,stimuli/card_10_transparent.png,120,10,3,0,3,0,1,,,,,
,,,,a,2023-10-23_17h05.11.343,SlotMachine_updated,2023.1.3,Win32,58.41121495,,,,,,,,,,,,,,,,,,,,,,,,,,,,,,,,,,,,,,,,,,,,,,,,702.3912,up,0.7835,,0.5,0.3,"[2,1,3]",0.115441456,stimuli/card_10_transparent.png,130,10,4,0,4,0,1,,,,,
,,,,a,2023-10-23_17h05.11.343,SlotMachine_updated,2023.1.3,Win32,58.41121495,,,,,,,,,,,,,,,,,,,,,,,,,,,,,,,,,,,,,,,,,,,,,,,,703.9918,up,1.1621,,1,0.3,"[2,1,3]",0.452178702,stimuli/card_100_transparent.png,230,100,5,0,5,0,1,,,,,
,,,,a,2023-10-23_17h05.11.343,SlotMachine_updated,2023.1.3,Win32,58.41121495,,,,,,,,,,,,,,,,,,,,,,,,,,,,,,,,,,,,,,,,,,,,,,,,706.4743,up,0.431,,1.5,0.3,"[2,1,3]",0.060205409,stimuli/card_0_transparent.png,230,0,6,0,6,0,1,,,,,
,,,,a,2023-10-23_17h05.11.343,SlotMachine_updated,2023.1.3,Win32,58.41121495,,,,,,,,,,,,,,,,,,,,,,,,,,,,,,,,,,,,,,,,,,,,,,,,708.7248,up,0.6765,0.0001,0.5,0.3,"[2,1,3]",0.892604346,stimuli/card_100_transparent.png,330,100,7,0,7,0,1,,,,,
,,,,a,2023-10-23_17h05.11.343,SlotMachine_updated,2023.1.3,Win32,58.41121495,,,,,,,,,,,,,,,,,,,,,,,,,,,,,,,,,,,,,,,,,,,,,,,,710.2251,up,0.3966,,1,0.3,"[2,1,3]",0.335243568,stimuli/card_100_transparent.png,430,100,8,0,8,0,1,,,,,
,,,,a,2023-10-23_17h05.11.343,SlotMachine_updated,2023.1.3,Win32,58.41121495,,,,,,,,,,,,,,,,,,,,,,,,,,,,,,,,,,,,,,,,,,,,,,,,711.9419,up,0.3628,,1,0.3,"[2,1,3]",0.316883268,stimuli/card_100_transparent.png,530,100,9,0,9,0,1,,,,,
,,,,a,2023-10-23_17h05.11.343,SlotMachine_updated,2023.1.3,Win32,58.41121495,,,,,,,,,,,,,,,,,,,,,,,,,,,,,,,,,,,,,,,,,,,,,,,,713.6253,up,2.2687,,1,0.3,"[2,1,3]",0.669490891,stimuli/card_100_transparent.png,630,100,10,0,10,0,1,,,,,
,,,,a,2023-10-23_17h05.11.343,SlotMachine_updated,2023.1.3,Win32,58.41121495,,,,,,,,,,,,,,,,,,,,,,,,,,,,,,,,,,,,,,,,,,,,,,,,717.2086,up,1.0434,,1,0.3,"[1,2,3]",0.998819849,stimuli/card_10_transparent.png,640,10,11,0,11,0,1,,,,,
,,,,a,2023-10-23_17h05.11.343,SlotMachine_updated,2023.1.3,Win32,58.41121495,,,,,,,,,,,,,,,,,,,,,,,,,,,,,,,,,,,,,,,,,,,,,,,,719.5749,up,1.7319,,1.5,0.3,"[1,2,3]",0.110019243,stimuli/card_100_transparent.png,740,100,12,0,12,0,1,,,,,
,,,,a,2023-10-23_17h05.11.343,SlotMachine_updated,2023.1.3,Win32,58.41121495,,,,,,,,,,,,,,,,,,,,,,,,,,,,,,,,,,,,,,,,,,,,,,,,723.1251,up,0.6678,,1.5,0.3,"[1,2,3]",0.277957745,stimuli/card_10_transparent.png,750,10,13,0,13,0,1,,,,,
,,,,a,2023-10-23_17h05.11.343,SlotMachine_updated,2023.1.3,Win32,58.41121495,,,,,,,,,,,,,,,,,,,,,,,,,,,,,,,,,,,,,,,,,,,,,,,,725.6075,up,0.2215,,0.5,0.3,"[1,2,3]",0.746207231,stimuli/card_10_transparent.png,760,10,14,0,14,0,1,,,,,
,,,,a,2023-10-23_17h05.11.343,SlotMachine_updated,2023.1.3,Win32,58.41121495,,,,,,,,,,,,,,,,,,,,,,,,,,,,,,726.64,,,,,,,,,,,,,,,,,,,,,,,,,,,,,,,,,,5,0,5,0,1
,,,,a,2023-10-23_17h05.11.343,SlotMachine_updated,2023.1.3,Win32,58.41121495,,,,,,,,,,,,,,,,,,,,,,,,,,,,,,,,,,,,,,,,,,,,7,9,"[8,15]","[[3,2,1],[3,1,2]]",731.6508,left,0.8059,,1.5,0.3,"[3,2,1]",0.372821833,stimuli/card_0_transparent.png,0,0,0,0,0,0,1,,,,,
,,,,a,2023-10-23_17h05.11.343,SlotMachine_updated,2023.1.3,Win32,58.41121495,,,,,,,,,,,,,,,,,,,,,,,,,,,,,,,,,,,,,,,,,,,,,,,,734.2737,right,0.484,,1.5,0.3,"[3,2,1]",0.769264613,stimuli/card_100_transparent.png,100,100,1,0,1,0,1,,,,,
,,,,a,2023-10-23_17h05.11.343,SlotMachine_updated,2023.1.3,Win32,58.41121495,,,,,,,,,,,,,,,,,,,,,,,,,,,,,,,,,,,,,,,,,,,,,,,,736.5744,right,0.4185,,0.5,0.3,"[3,2,1]",0.519335082,stimuli/card_100_transparent.png,200,100,2,0,2,0,1,,,,,
,,,,a,2023-10-23_17h05.11.343,SlotMachine_updated,2023.1.3,Win32,58.41121495,,,,,,,,,,,,,,,,,,,,,,,,,,,,,,,,,,,,,,,,,,,,,,,,737.8075,right,0.4189,,1,0.3,"[3,2,1]",0.581825204,stimuli/card_100_transparent.png,300,100,3,0,3,0,1,,,,,
,,,,a,2023-10-23_17h05.11.343,SlotMachine_updated,2023.1.3,Win32,58.41121495,,,,,,,,,,,,,,,,,,,,,,,,,,,,,,,,,,,,,,,,,,,,,,,,739.541,right,0.2828,,0.5,0.3,"[3,2,1]",0.619974377,stimuli/card_100_transparent.png,400,100,4,0,4,0,1,,,,,
,,,,a,2023-10-23_17h05.11.343,SlotMachine_updated,2023.1.3,Win32,58.41121495,,,,,,,,,,,,,,,,,,,,,,,,,,,,,,,,,,,,,,,,,,,,,,,,740.6405,right,0.445,,0.5,0.3,"[3,2,1]",0.455019909,stimuli/card_100_transparent.png,500,100,5,0,5,0,1,,,,,
,,,,a,2023-10-23_17h05.11.343,SlotMachine_updated,2023.1.3,Win32,58.41121495,,,,,,,,,,,,,,,,,,,,,,,,,,,,,,,,,,,,,,,,,,,,,,,,741.9076,right,0.3444,,0.5,0.3,"[3,2,1]",0.318611999,stimuli/card_100_transparent.png,600,100,6,0,6,0,1,,,,,
,,,,a,2023-10-23_17h05.11.343,SlotMachine_updated,2023.1.3,Win32,58.41121495,,,,,,,,,,,,,,,,,,,,,,,,,,,,,,,,,,,,,,,,,,,,,,,,743.0742,right,0.5533,,1,0.3,"[3,2,1]",0.777968692,stimuli/card_100_transparent.png,700,100,7,0,7,0,1,,,,,
,,,,a,2023-10-23_17h05.11.343,SlotMachine_updated,2023.1.3,Win32,58.41121495,,,,,,,,,,,,,,,,,,,,,,,,,,,,,,,,,,,,,,,,,,,,,,,,744.9415,right,0.3957,,1.5,0.3,"[3,1,2]",0.052822952,stimuli/card_0_transparent.png,700,0,8,0,8,0,1,,,,,
,,,,a,2023-10-23_17h05.11.343,SlotMachine_updated,2023.1.3,Win32,58.41121495,,,,,,,,,,,,,,,,,,,,,,,,,,,,,,,,,,,,,,,,,,,,,,,,747.1571,left,1.1331,,0.5,0.3,"[3,1,2]",0.138241231,stimuli/card_10_transparent.png,710,10,9,0,9,0,1,,,,,
,,,,a,2023-10-23_17h05.11.343,SlotMachine_updated,2023.1.3,Win32,58.41121495,,,,,,,,,,,,,,,,,,,,,,,,,,,,,,,,,,,,,,,,,,,,,,,,749.1085,up,0.2355,,1,0.3,"[3,1,2]",0.242269344,stimuli/card_100_transparent.png,810,100,10,0,10,0,1,,,,,
,,,,a,2023-10-23_17h05.11.343,SlotMachine_updated,2023.1.3,Win32,58.41121495,,,,,,,,,,,,,,,,,,,,,,,,,,,,,,,,,,,,,,,,,,,,,,,,750.6567,up,0.2827,,1,0.3,"[3,1,2]",0.897777169,stimuli/card_100_transparent.png,910,100,11,0,11,0,1,,,,,
,,,,a,2023-10-23_17h05.11.343,SlotMachine_updated,2023.1.3,Win32,58.41121495,,,,,,,,,,,,,,,,,,,,,,,,,,,,,,,,,,,,,,,,,,,,,,,,752.2579,up,0.1452,,1,0.3,"[3,1,2]",0.242390713,stimuli/card_100_transparent.png,1010,100,12,0,12,0,1,,,,,
,,,,a,2023-10-23_17h05.11.343,SlotMachine_updated,2023.1.3,Win32,58.41121495,,,,,,,,,,,,,,,,,,,,,,,,,,,,,,,,,,,,,,,,,,,,,,,,753.7233,up,0.1008,,0.5,0.3,"[3,1,2]",0.941862106,stimuli/card_100_transparent.png,1110,100,13,0,13,0,1,,,,,
,,,,a,2023-10-23_17h05.11.343,SlotMachine_updated,2023.1.3,Win32,58.41121495,,,,,,,,,,,,,,,,,,,,,,,,,,,,,,,,,,,,,,,,,,,,,,,,754.6412,up,0.2023,,0.5,0.3,"[3,1,2]",0.684490812,stimuli/card_100_transparent.png,1210,100,14,0,14,0,1,,,,,
,,,,a,2023-10-23_17h05.11.343,SlotMachine_updated,2023.1.3,Win32,58.41121495,,,,,,,,,,,,,,,,,,,,,,,,,,,,,,755.6569,,,,,,,,,,,,,,,,,,,,,,,,,,,,,,,,,,6,0,6,0,1
,,,,a,2023-10-23_17h05.11.343,SlotMachine_updated,2023.1.3,Win32,58.41121495,,,,,,,,,,,,,,,,,,,,,,,,,,,,,,,,,,,,,,,,,,,,8,2,"[6,15]","[[1,3,2],[3,2,1]]",760.6769,right,0.5025,,1.5,0.3,"[1,3,2]",0.00403708,stimuli/card_0_transparent.png,0,0,0,0,0,0,1,,,,,
,,,,a,2023-10-23_17h05.11.343,SlotMachine_updated,2023.1.3,Win32,58.41121495,,,,,,,,,,,,,,,,,,,,,,,,,,,,,,,,,,,,,,,,,,,,,,,,762.9907,right,0.1342,,0.5,0.3,"[1,3,2]",0.295161538,stimuli/card_10_transparent.png,10,10,1,0,1,0,1,,,,,
,,,,a,2023-10-23_17h05.11.343,SlotMachine_updated,2023.1.3,Win32,58.41121495,,,,,,,,,,,,,,,,,,,,,,,,,,,,,,,,,,,,,,,,,,,,,,,,763.9412,left,0.1834,,1.5,0.3,"[1,3,2]",0.105328989,stimuli/card_10_transparent.png,20,10,2,0,2,0,1,,,,,
,,,,a,2023-10-23_17h05.11.343,SlotMachine_updated,2023.1.3,Win32,58.41121495,,,,,,,,,,,,,,,,,,,,,,,,,,,,,,,,,,,,,,,,,,,,,,,,765.9409,up,0.1684,,1.5,0.3,"[1,3,2]",0.023900471,stimuli/card_100_transparent.png,120,100,3,0,3,0,1,,,,,
,,,,a,2023-10-23_17h05.11.343,SlotMachine_updated,2023.1.3,Win32,58.41121495,,,,,,,,,,,,,,,,,,,,,,,,,,,,,,,,,,,,,,,,,,,,,,,,767.9232,up,0.3436,,1,0.3,"[1,3,2]",0.94835786,stimuli/card_0_transparent.png,120,0,4,0,4,0,1,,,,,
,,,,a,2023-10-23_17h05.11.343,SlotMachine_updated,2023.1.3,Win32,58.41121495,,,,,,,,,,,,,,,,,,,,,,,,,,,,,,,,,,,,,,,,,,,,,,,,769.5914,up,1.5103,,1.5,0.3,"[1,3,2]",0.157565376,stimuli/card_10_transparent.png,130,10,5,0,5,0,1,,,,,
,,,,a,2023-10-23_17h05.11.343,SlotMachine_updated,2023.1.3,Win32,58.41121495,,,,,,,,,,,,,,,,,,,,,,,,,,,,,,,,,,,,,,,,,,,,,,,,772.9244,up,0.1097,,0.5,0.3,"[3,2,1]",0.209574124,stimuli/card_10_transparent.png,140,10,6,0,6,0,1,,,,,
,,,,a,2023-10-23_17h05.11.343,SlotMachine_updated,2023.1.3,Win32,58.41121495,,,,,,,,,,,,,,,,,,,,,,,,,,,,,,,,,,,,,,,,,,,,,,,,773.8585,up,0.351,,1,0.3,"[3,2,1]",0.462531423,stimuli/card_10_transparent.png,150,10,7,0,7,0,1,,,,,
,,,,a,2023-10-23_17h05.11.343,SlotMachine_updated,2023.1.3,Win32,58.41121495,,,,,,,,,,,,,,,,,,,,,,,,,,,,,,,,,,,,,,,,,,,,,,,,775.5228,up,0.2188,,1.5,0.3,"[3,2,1]",0.102807345,stimuli/card_100_transparent.png,250,100,8,0,8,0,1,,,,,
,,,,a,2023-10-23_17h05.11.343,SlotMachine_updated,2023.1.3,Win32,58.41121495,,,,,,,,,,,,,,,,,,,,,,,,,,,,,,,,,,,,,,,,,,,,,,,,777.5572,up,0.5513,,1,0.3,"[3,2,1]",0.089715173,stimuli/card_0_transparent.png,250,0,9,0,9,0,1,,,,,
,,,,a,2023-10-23_17h05.11.343,SlotMachine_updated,2023.1.3,Win32,58.41121495,,,,,,,,,,,,,,,,,,,,,,,,,,,,,,,,,,,,,,,,,,,,,,,,779.4238,up,0.1841,,1,0.3,"[3,2,1]",0.941623148,stimuli/card_10_transparent.png,260,10,10,0,10,0,1,,,,,
,,,,a,2023-10-23_17h05.11.343,SlotMachine_updated,2023.1.3,Win32,58.41121495,,,,,,,,,,,,,,,,,,,,,,,,,,,,,,,,,,,,,,,,,,,,,,,,780.9229,right,0.5458,,1,0.3,"[3,2,1]",0.771384309,stimuli/card_100_transparent.png,360,100,11,0,11,0,1,,,,,
,,,,a,2023-10-23_17h05.11.343,SlotMachine_updated,2023.1.3,Win32,58.41121495,,,,,,,,,,,,,,,,,,,,,,,,,,,,,,,,,,,,,,,,,,,,,,,,782.7911,right,0.1861,,1.5,0.3,"[3,2,1]",0.501772233,stimuli/card_100_transparent.png,460,100,12,0,12,0,1,,,,,
,,,,a,2023-10-23_17h05.11.343,SlotMachine_updated,2023.1.3,Win32,58.41121495,,,,,,,,,,,,,,,,,,,,,,,,,,,,,,,,,,,,,,,,,,,,,,,,784.7901,right,0.0687,,1,0.3,"[3,2,1]",0.384433571,stimuli/card_100_transparent.png,560,100,13,0,13,0,1,,,,,
,,,,a,2023-10-23_17h05.11.343,SlotMachine_updated,2023.1.3,Win32,58.41121495,,,,,,,,,,,,,,,,,,,,,,,,,,,,,,,,,,,,,,,,,,,,,,,,786.173,right,0.1107,,1.5,0.3,"[3,2,1]",0.340539906,stimuli/card_100_transparent.png,660,100,14,0,14,0,1,,,,,
,,,,a,2023-10-23_17h05.11.343,SlotMachine_updated,2023.1.3,Win32,58.41121495,,,,,,,,,,,,,,,,,,,,,,,,,,,,,,788.1063,,,,,,,,,,,,,,,,,,,,,,,,,,,,,,,,,,7,0,7,0,1
,,,,a,2023-10-23_17h05.11.343,SlotMachine_updated,2023.1.3,Win32,58.41121495,,,,,,,,,,,,,,,,,,,,,,,,,,,,,,,,,,,,,,,,,,,,9,10,"[10,15]","[[3,1,2],[1,3,2]]",793.123,right,1.6351,,0.5,0.3,"[3,1,2]",0.052257232,stimuli/card_0_transparent.png,0,0,0,0,0,0,1,,,,,
,,,,a,2023-10-23_17h05.11.343,SlotMachine_updated,2023.1.3,Win32,58.41121495,,,,,,,,,,,,,,,,,,,,,,,,,,,,,,,,,,,,,,,,,,,,,,,,795.5733,left,0.904,,0.5,0.3,"[3,1,2]",0.477107221,stimuli/card_0_transparent.png,0,0,1,0,1,0,1,,,,,
,,,,a,2023-10-23_17h05.11.343,SlotMachine_updated,2023.1.3,Win32,58.41121495,,,,,,,,,,,,,,,,,,,,,,,,,,,,,,,,,,,,,,,,,,,,,,,,797.2903,left,0.5664,,0.5,0.3,"[3,1,2]",0.718129623,stimuli/card_0_transparent.png,0,0,2,0,2,0,1,,,,,
,,,,a,2023-10-23_17h05.11.343,SlotMachine_updated,2023.1.3,Win32,58.41121495,,,,,,,,,,,,,,,,,,,,,,,,,,,,,,,,,,,,,,,,,,,,,,,,798.6724,left,0.4663,,1.5,0.3,"[3,1,2]",0.145552673,stimuli/card_10_transparent.png,10,10,3,0,3,0,1,,,,,
,,,,a,2023-10-23_17h05.11.343,SlotMachine_updated,2023.1.3,Win32,58.41121495,,,,,,,,,,,,,,,,,,,,,,,,,,,,,,,,,,,,,,,,,,,,,,,,800.9567,right,0.7857,,1,0.3,"[3,1,2]",0.740347174,stimuli/card_10_transparent.png,20,10,4,0,4,0,1,,,,,
,,,,a,2023-10-23_17h05.11.343,SlotMachine_updated,2023.1.3,Win32,58.41121495,,,,,,,,,,,,,,,,,,,,,,,,,,,,,,,,,,,,,,,,,,,,,,,,803.0571,right,0.6441,,1,0.3,"[3,1,2]",0.593607098,stimuli/card_10_transparent.png,30,10,5,0,5,0,1,,,,,
,,,,a,2023-10-23_17h05.11.343,SlotMachine_updated,2023.1.3,Win32,58.41121495,,,,,,,,,,,,,,,,,,,,,,,,,,,,,,,,,,,,,,,,,,,,,,,,805.0228,up,0.7344,,0.5,0.3,"[3,1,2]",0.6556834,stimuli/card_100_transparent.png,130,100,6,0,6,0,1,,,,,
,,,,a,2023-10-23_17h05.11.343,SlotMachine_updated,2023.1.3,Win32,58.41121495,,,,,,,,,,,,,,,,,,,,,,,,,,,,,,,,,,,,,,,,,,,,,,,,806.5728,up,0.4981,,0.5,0.3,"[3,1,2]",0.459653914,stimuli/card_100_transparent.png,230,100,7,0,7,0,1,,,,,
,,,,a,2023-10-23_17h05.11.343,SlotMachine_updated,2023.1.3,Win32,58.41121495,,,,,,,,,,,,,,,,,,,,,,,,,,,,,,,,,,,,,,,,,,,,,,,,807.8894,up,0.5015,,1.5,0.3,"[3,1,2]",0.899902635,stimuli/card_100_transparent.png,330,100,8,0,8,0,1,,,,,
,,,,a,2023-10-23_17h05.11.343,SlotMachine_updated,2023.1.3,Win32,58.41121495,,,,,,,,,,,,,,,,,,,,,,,,,,,,,,,,,,,,,,,,,,,,,,,,810.2076,up,0.1679,,1.5,0.3,"[3,1,2]",0.919499839,stimuli/card_100_transparent.png,430,100,9,0,9,0,1,,,,,
,,,,a,2023-10-23_17h05.11.343,SlotMachine_updated,2023.1.3,Win32,58.41121495,,,,,,,,,,,,,,,,,,,,,,,,,,,,,,,,,,,,,,,,,,,,,,,,812.1899,up,0.06,,1,0.3,"[1,3,2]",0.665209155,stimuli/card_0_transparent.png,430,0,10,0,10,0,1,,,,,
,,,,a,2023-10-23_17h05.11.343,SlotMachine_updated,2023.1.3,Win32,58.41121495,,,,,,,,,,,,,,,,,,,,,,,,,,,,,,,,,,,,,,,,,,,,,,,,813.5722,left,1.0642,0.0004,1,0.3,"[1,3,2]",0.61089882,stimuli/card_100_transparent.png,530,100,11,0,11,0,1,,,,,
,,,,a,2023-10-23_17h05.11.343,SlotMachine_updated,2023.1.3,Win32,58.41121495,,,,,,,,,,,,,,,,,,,,,,,,,,,,,,,,,,,,,,,,,,,,,,,,815.9565,left,0.1633,,1.5,0.3,"[1,3,2]",0.660470704,stimuli/card_100_transparent.png,630,100,12,0,12,0,1,,,,,
,,,,a,2023-10-23_17h05.11.343,SlotMachine_updated,2023.1.3,Win32,58.41121495,,,,,,,,,,,,,,,,,,,,,,,,,,,,,,,,,,,,,,,,,,,,,,,,817.9403,left,0.2518,,1.5,0.3,"[1,3,2]",0.782579258,stimuli/card_100_transparent.png,730,100,13,0,13,0,1,,,,,
,,,,a,2023-10-23_17h05.11.343,SlotMachine_updated,2023.1.3,Win32,58.41121495,,,,,,,,,,,,,,,,,,,,,,,,,,,,,,,,,,,,,,,,,,,,,,,,820.0075,left,0.1863,,1.5,0.3,"[1,3,2]",0.23554447,stimuli/card_100_transparent.png,830,100,14,0,14,0,1,,,,,
,,,,a,2023-10-23_17h05.11.343,SlotMachine_updated,2023.1.3,Win32,58.41121495,,,,,,,,,,,,,,,,,,,,,,,,,,,,,,822.0067,,,,,,,,,,,,,,,,,,,,,,,,,,,,,,,,,,8,0,8,0,1
,,,,a,2023-10-23_17h05.11.343,SlotMachine_updated,2023.1.3,Win32,58.41121495,,,,,,,,,,,,,,,,,,,,,,,,,,,,,,,,,,,,,,,,,,,,10,3,"[15,15]","[[3,1,2],[3,1,2]]",827.0083,right,2.8177,,0.5,0.3,"[3,1,2]",0.451745512,stimuli/card_10_transparent.png,10,10,0,0,0,0,1,,,,,
,,,,a,2023-10-23_17h05.11.343,SlotMachine_updated,2023.1.3,Win32,58.41121495,,,,,,,,,,,,,,,,,,,,,,,,,,,,,,,,,,,,,,,,,,,,,,,,830.6392,up,0.3112,,1,0.3,"[3,1,2]",0.441945394,stimuli/card_100_transparent.png,110,100,1,0,1,0,1,,,,,
,,,,a,2023-10-23_17h05.11.343,SlotMachine_updated,2023.1.3,Win32,58.41121495,,,,,,,,,,,,,,,,,,,,,,,,,,,,,,,,,,,,,,,,,,,,,,,,832.2722,up,0.4674,,0.5,0.3,"[3,1,2]",0.928289874,stimuli/card_100_transparent.png,210,100,2,0,2,0,1,,,,,
,,,,a,2023-10-23_17h05.11.343,SlotMachine_updated,2023.1.3,Win32,58.41121495,,,,,,,,,,,,,,,,,,,,,,,,,,,,,,,,,,,,,,,,,,,,,,,,833.5552,up,1.2608,,0.5,0.3,"[3,1,2]",0.37766774,stimuli/card_100_transparent.png,310,100,3,0,3,0,1,,,,,
,,,,a,2023-10-23_17h05.11.343,SlotMachine_updated,2023.1.3,Win32,58.41121495,,,,,,,,,,,,,,,,,,,,,,,,,,,,,,,,,,,,,,,,,,,,,,,,835.6391,up,2.3021,,1,0.3,"[3,1,2]",0.935741416,stimuli/card_100_transparent.png,410,100,4,0,4,0,1,,,,,
,,,,a,2023-10-23_17h05.11.343,SlotMachine_updated,2023.1.3,Win32,58.41121495,,,,,,,,,,,,,,,,,,,,,,,,,,,,,,,,,,,,,,,,,,,,,,,,839.2549,up,1.4816,,1.5,0.3,"[3,1,2]",0.746114692,stimuli/card_100_transparent.png,510,100,5,0,5,0,1,,,,,
,,,,a,2023-10-23_17h05.11.343,SlotMachine_updated,2023.1.3,Win32,58.41121495,,,,,,,,,,,,,,,,,,,,,,,,,,,,,,,,,,,,,,,,,,,,,,,,842.5553,up,1.5531,,1,0.3,"[3,1,2]",0.728961419,stimuli/card_100_transparent.png,610,100,6,0,6,0,1,,,,,
,,,,a,2023-10-23_17h05.11.343,SlotMachine_updated,2023.1.3,Win32,58.41121495,,,,,,,,,,,,,,,,,,,,,,,,,,,,,,,,,,,,,,,,,,,,,,,,845.4231,left,0.7338,,0.5,0.3,"[3,1,2]",0.530245073,stimuli/card_0_transparent.png,610,0,7,0,7,0,1,,,,,
,,,,a,2023-10-23_17h05.11.343,SlotMachine_updated,2023.1.3,Win32,58.41121495,,,,,,,,,,,,,,,,,,,,,,,,,,,,,,,,,,,,,,,,,,,,,,,,846.9723,right,1.5902,,1.5,0.3,"[3,1,2]",0.4024332,stimuli/card_10_transparent.png,620,10,8,0,8,0,1,,,,,
,,,,a,2023-10-23_17h05.11.343,SlotMachine_updated,2023.1.3,Win32,58.41121495,,,,,,,,,,,,,,,,,,,,,,,,,,,,,,,,,,,,,,,,,,,,,,,,850.3884,left,3.6502,,1.5,0.3,"[3,1,2]",0.714527745,stimuli/card_0_transparent.png,620,0,9,0,9,0,1,,,,,
,,,,a,2023-10-23_17h05.11.343,SlotMachine_updated,2023.1.3,Win32,58.41121495,,,,,,,,,,,,,,,,,,,,,,,,,,,,,,,,,,,,,,,,,,,,,,,,855.8558,up,0.1093,,1,0.3,"[3,1,2]",0.102515079,stimuli/card_10_transparent.png,630,10,10,0,10,0,1,,,,,
,,,,a,2023-10-23_17h05.11.343,SlotMachine_updated,2023.1.3,Win32,58.41121495,,,,,,,,,,,,,,,,,,,,,,,,,,,,,,,,,,,,,,,,,,,,,,,,857.2873,right,0.0992,,1.5,0.3,"[3,1,2]",0.059901465,stimuli/card_0_transparent.png,630,0,11,0,11,0,1,,,,,
,,,,a,2023-10-23_17h05.11.343,SlotMachine_updated,2023.1.3,Win32,58.41121495,,,,,,,,,,,,,,,,,,,,,,,,,,,,,,,,,,,,,,,,,,,,,,,,859.2058,left,0.3156,,1,0.3,"[3,1,2]",0.722857381,stimuli/card_0_transparent.png,630,0,12,0,12,0,1,,,,,
,,,,a,2023-10-23_17h05.11.343,SlotMachine_updated,2023.1.3,Win32,58.41121495,,,,,,,,,,,,,,,,,,,,,,,,,,,,,,,,,,,,,,,,,,,,,,,,860.8401,left,0.3513,,0.5,0.3,"[3,1,2]",0.73796845,stimuli/card_0_transparent.png,630,0,13,0,13,0,1,,,,,
,,,,a,2023-10-23_17h05.11.343,SlotMachine_updated,2023.1.3,Win32,58.41121495,,,,,,,,,,,,,,,,,,,,,,,,,,,,,,,,,,,,,,,,,,,,,,,,862.0056,left,2.7684,0.0005,0.5,0.3,"[3,1,2]",0.482021794,stimuli/card_0_transparent.png,630,0,14,0,14,0,1,,,,,
,,,,a,2023-10-23_17h05.11.343,SlotMachine_updated,2023.1.3,Win32,58.41121495,,,,,,,,,,,,,,,,,,,,,,,,,,,,,,865.5874,,,,,,,,,,,,,,,,,,,,,,,,,,,,,,,,,,9,0,9,0,1
,,,,a,2023-10-23_17h05.11.343,SlotMachine_updated,2023.1.3,Win32,58.41121495,,,,,,,,,,,,,,,,,,,,,,,,,,,,,,,,,,,,,,,,,,,,,,,,,,,,,,,,,,,,,,,,,,,,
