key_resp_welcome_started,key_resp_welcome_keys,key_resp_welcome_rt,key_resp_welcome_duration,prolific_id,path_id,date,expName,psychopyVersion,OS,frameRate,key_resp_instruction1_started,key_resp_instruction1_keys,key_resp_instruction1_rt,key_resp_instruction1_duration,key_resp_instruction2_started,key_resp_instruction2_keys,key_resp_instruction2_rt,key_resp_instruction2_duration,key_resp_instruction3_started,key_resp_instruction3_keys,key_resp_instruction3_rt,key_resp_instruction3_duration,key_resp_instruction4_started,key_resp_instruction4_keys,key_resp_instruction4_rt,key_resp_instruction4_duration,practiceCondition,practice_reward_seqs,practice_trial_started,practice_trial_num,practice_resp_rt,practice_resp_duration,practice_resp_keys,prac_presentationInterval,"practice_reward_seq: 2,1,3",reward_img,cumulative_reward,trial_reward,practice_trials.thisRepN,practice_trials.thisTrialN,practice_trials.thisN,practice_trials.thisIndex,practice_trials.ran,"practice_reward_seq: 2,3,1",block_break_started,"practice_reward_seq: 1,3,2","practice_reward_seq: 3,1,2",practice_end_time,practice_end_keys,practice_end_rt,practice_end_duration,main_instruction_text_started,block_condition,block_order_indices,main_instruction_keys,main_instruction_rt,main_instruction_duration,block_number,block_assignment,current_condition,main_reward_seqs,main_trial_started,main_trial_num,main_trial_keys,main_trial_rt,main_trial_duration,main_presentationInterval,reward_presentation_time,main_reward_seq,reward_rand_val,main_reward_img,current_reward,main_trials.thisRepN,main_trials.thisTrialN,main_trials.thisN,main_trials.thisIndex,main_trials.ran,block_reward,block.thisRepN,block.thisTrialN,block.thisN,block.thisIndex,block.ran,block_reward.length,block_reward_all,reward_amount,date_end_task
0.0011,space,1.208,0.0005,ember,A,2024-05-08_14h50.03.370,Slot Machine Game,2023.1.3,MacIntel,60.97560976,,,,,,,,,,,,,,,,,,,,,,,,,,,,,,,,,,,,,,,,,,,,,,,,,,,,,,,,,,,,,,,,,,,,,,,,,,,,,
,,,,ember,A,2024-05-08_14h50.03.370,Slot Machine Game,2023.1.3,MacIntel,60.97560976,1.2397,space,0.4192,,,,,,,,,,,,,,,,,,,,,,,,,,,,,,,,,,,,,,,,,,,,,,,,,,,,,,,,,,,,,,,,,,,,,,,,,,
,,,,ember,A,2024-05-08_14h50.03.370,Slot Machine Game,2023.1.3,MacIntel,60.97560976,,,,,1.6717,space,0.3728,,,,,,,,,,,,,,,,,,,,,,,,,,,,,,,,,,,,,,,,,,,,,,,,,,,,,,,,,,,,,,,,,,,,,,
,,,,ember,A,2024-05-08_14h50.03.370,Slot Machine Game,2023.1.3,MacIntel,60.97560976,,,,,,,,,2.0727,space,3.1081,,,,,,,,,,,,,,,,,,,,,,,,,,,,,,,,,,,,,,,,,,,,,,,,,,,,,,,,,,,,,,,,,,
,,,,ember,A,2024-05-08_14h50.03.370,Slot Machine Game,2023.1.3,MacIntel,60.97560976,,,,,,,,,,,,,,,,,,,,,,,,,,,,,,,,,,,,,,,,,,,,,,,,,,,,,,,,,,,,,,,,,,,,,,,,,,,,,
,,,,ember,A,2024-05-08_14h50.03.370,Slot Machine Game,2023.1.3,MacIntel,60.97560976,,,,,,,,,,,,,146.8183,space,22.0013,,,,,,,,,,,,,,,,,,,,,,,,,,,,,,,,,,,,,,,,,,,,,,,,,,,,,,,,,,,,,,
,,,,ember,A,2024-05-08_14h50.03.370,Slot Machine Game,2023.1.3,MacIntel,60.97560976,,,,,,,,,,,,,,,,,"[9,15]","[[2,1,3],[2,3,1]]",169.0201,0,2.2692,,left,0.5,,stimuli/card_10_transparent.png,10,10,0,0,0,0,1,,,,,,,,,,,,,,,,,,,,,,,,,,,,,,,,,,,,,,,,,,,,
,,,,ember,A,2024-05-08_14h50.03.370,Slot Machine Game,2023.1.3,MacIntel,60.97560976,,,,,,,,,,,,,,,,,,,172.6185,1,0.2039,,left,1.5,,stimuli/card_100_transparent.png,110,100,1,0,1,0,1,,,,,,,,,,,,,,,,,,,,,,,,,,,,,,,,,,,,,,,,,,,,
,,,,ember,A,2024-05-08_14h50.03.370,Slot Machine Game,2023.1.3,MacIntel,60.97560976,,,,,,,,,,,,,,,,,,,175.1349,2,0.4461,,up,1,,stimuli/card_10_transparent.png,120,10,2,0,2,0,1,,,,,,,,,,,,,,,,,,,,,,,,,,,,,,,,,,,,,,,,,,,,
,,,,ember,A,2024-05-08_14h50.03.370,Slot Machine Game,2023.1.3,MacIntel,60.97560976,,,,,,,,,,,,,,,,,,,177.32,3,0.1266,,right,1.5,,stimuli/card_0_transparent.png,120,0,3,0,3,0,1,,,,,,,,,,,,,,,,,,,,,,,,,,,,,,,,,,,,,,,,,,,,
,,,,ember,A,2024-05-08_14h50.03.370,Slot Machine Game,2023.1.3,MacIntel,60.97560976,,,,,,,,,,,,,,,,,,,179.7683,4,3.3809,,up,1,,stimuli/card_100_transparent.png,220,100,4,0,4,0,1,,,,,,,,,,,,,,,,,,,,,,,,,,,,,,,,,,,,,,,,,,,,
,,,,ember,A,2024-05-08_14h50.03.370,Slot Machine Game,2023.1.3,MacIntel,60.97560976,,,,,,,,,,,,,,,,,,,184.9534,5,1.42,,up,1,,stimuli/card_100_transparent.png,320,100,5,0,5,0,1,,,,,,,,,,,,,,,,,,,,,,,,,,,,,,,,,,,,,,,,,,,,
,,,,ember,A,2024-05-08_14h50.03.370,Slot Machine Game,2023.1.3,MacIntel,60.97560976,,,,,,,,,,,,,,,,,,,188.1903,6,0.6859,,up,1.5,,stimuli/card_100_transparent.png,420,100,6,0,6,0,1,,,,,,,,,,,,,,,,,,,,,,,,,,,,,,,,,,,,,,,,,,,,
,,,,ember,A,2024-05-08_14h50.03.370,Slot Machine Game,2023.1.3,MacIntel,60.97560976,,,,,,,,,,,,,,,,,,,191.1904,7,0.7935,,up,1.5,,stimuli/card_100_transparent.png,520,100,7,0,7,0,1,,,,,,,,,,,,,,,,,,,,,,,,,,,,,,,,,,,,,,,,,,,,
,,,,ember,A,2024-05-08_14h50.03.370,Slot Machine Game,2023.1.3,MacIntel,60.97560976,,,,,,,,,,,,,,,,,,,194.2973,8,0.0263,,up,1.5,,stimuli/card_100_transparent.png,620,100,8,0,8,0,1,,,,,,,,,,,,,,,,,,,,,,,,,,,,,,,,,,,,,,,,,,,,
,,,,ember,A,2024-05-08_14h50.03.370,Slot Machine Game,2023.1.3,MacIntel,60.97560976,,,,,,,,,,,,,,,,,,,196.6316,9,3.451,,up,1.5,,stimuli/card_0_transparent.png,620,0,9,0,9,0,1,,,,,,,,,,,,,,,,,,,,,,,,,,,,,,,,,,,,,,,,,,,,
,,,,ember,A,2024-05-08_14h50.03.370,Slot Machine Game,2023.1.3,MacIntel,60.97560976,,,,,,,,,,,,,,,,,,,202.4006,10,2.766,,up,1.5,,stimuli/card_0_transparent.png,620,0,10,0,10,0,1,,,,,,,,,,,,,,,,,,,,,,,,,,,,,,,,,,,,,,,,,,,,
,,,,ember,A,2024-05-08_14h50.03.370,Slot Machine Game,2023.1.3,MacIntel,60.97560976,,,,,,,,,,,,,,,,,,,207.5101,11,0.2045,,right,1,,stimuli/card_100_transparent.png,720,100,11,0,11,0,1,,,,,,,,,,,,,,,,,,,,,,,,,,,,,,,,,,,,,,,,,,,,
,,,,ember,A,2024-05-08_14h50.03.370,Slot Machine Game,2023.1.3,MacIntel,60.97560976,,,,,,,,,,,,,,,,,,,209.539,12,0.1745,,right,1.5,,stimuli/card_100_transparent.png,820,100,12,0,12,0,1,,,,,,,,,,,,,,,,,,,,,,,,,,,,,,,,,,,,,,,,,,,,
,,,,ember,A,2024-05-08_14h50.03.370,Slot Machine Game,2023.1.3,MacIntel,60.97560976,,,,,,,,,,,,,,,,,,,212.0194,13,0.0568,,right,1,,stimuli/card_100_transparent.png,920,100,13,0,13,0,1,,,,,,,,,,,,,,,,,,,,,,,,,,,,,,,,,,,,,,,,,,,,
,,,,ember,A,2024-05-08_14h50.03.370,Slot Machine Game,2023.1.3,MacIntel,60.97560976,,,,,,,,,,,,,,,,,,,213.8744,14,0.1172,,right,0.5,,stimuli/card_100_transparent.png,1020,100,14,0,14,0,1,,,,,,,,,,,,,,,,,,,,,,,,,,,,,,,,,,,,,,,,,,,,
,,,,ember,A,2024-05-08_14h50.03.370,Slot Machine Game,2023.1.3,MacIntel,60.97560976,,,,,,,,,,,,,,,,,"[6,15]","[[1,3,2],[3,1,2]]",220.2966,0,0.124,,right,0.5,,stimuli/card_10_transparent.png,10,10,0,0,0,0,1,,215.3055,,,,,,,,,,,,,,,,,,,,,,,,,,,,,,,,,,,,,,,,,,
,,,,ember,A,2024-05-08_14h50.03.370,Slot Machine Game,2023.1.3,MacIntel,60.97560976,,,,,,,,,,,,,,,,,,,221.7472,1,1.1027,,right,0.5,,stimuli/card_10_transparent.png,20,10,1,0,1,0,1,,,,,,,,,,,,,,,,,,,,,,,,,,,,,,,,,,,,,,,,,,,,
,,,,ember,A,2024-05-08_14h50.03.370,Slot Machine Game,2023.1.3,MacIntel,60.97560976,,,,,,,,,,,,,,,,,,,224.1811,2,0.1199,,right,1,,stimuli/card_10_transparent.png,30,10,2,0,2,0,1,,,,,,,,,,,,,,,,,,,,,,,,,,,,,,,,,,,,,,,,,,,,
,,,,ember,A,2024-05-08_14h50.03.370,Slot Machine Game,2023.1.3,MacIntel,60.97560976,,,,,,,,,,,,,,,,,,,226.103,3,3.1443,,right,0.5,,stimuli/card_10_transparent.png,40,10,3,0,3,0,1,,,,,,,,,,,,,,,,,,,,,,,,,,,,,,,,,,,,,,,,,,,,
,,,,ember,A,2024-05-08_14h50.03.370,Slot Machine Game,2023.1.3,MacIntel,60.97560976,,,,,,,,,,,,,,,,,,,230.5674,4,0.0347,,right,1.5,,stimuli/card_10_transparent.png,50,10,4,0,4,0,1,,,,,,,,,,,,,,,,,,,,,,,,,,,,,,,,,,,,,,,,,,,,
,,,,ember,A,2024-05-08_14h50.03.370,Slot Machine Game,2023.1.3,MacIntel,60.97560976,,,,,,,,,,,,,,,,,,,232.9181,5,0.3436,,right,1,,stimuli/card_10_transparent.png,60,10,5,0,5,0,1,,,,,,,,,,,,,,,,,,,,,,,,,,,,,,,,,,,,,,,,,,,,
,,,,ember,A,2024-05-08_14h50.03.370,Slot Machine Game,2023.1.3,MacIntel,60.97560976,,,,,,,,,,,,,,,,,,,235.0699,6,0.8102,,up,1,,stimuli/card_100_transparent.png,160,100,6,0,6,0,1,,,,,,,,,,,,,,,,,,,,,,,,,,,,,,,,,,,,,,,,,,,,
,,,,ember,A,2024-05-08_14h50.03.370,Slot Machine Game,2023.1.3,MacIntel,60.97560976,,,,,,,,,,,,,,,,,,,237.704,7,0.4328,,up,0.5,,stimuli/card_100_transparent.png,260,100,7,0,7,0,1,,,,,,,,,,,,,,,,,,,,,,,,,,,,,,,,,,,,,,,,,,,,
,,,,ember,A,2024-05-08_14h50.03.370,Slot Machine Game,2023.1.3,MacIntel,60.97560976,,,,,,,,,,,,,,,,,,,239.4522,8,0.012,,up,0.5,,stimuli/card_100_transparent.png,360,100,8,0,8,0,1,,,,,,,,,,,,,,,,,,,,,,,,,,,,,,,,,,,,,,,,,,,,
,,,,ember,A,2024-05-08_14h50.03.370,Slot Machine Game,2023.1.3,MacIntel,60.97560976,,,,,,,,,,,,,,,,,,,240.7732,9,0.018,,up,0.5,,stimuli/card_100_transparent.png,460,100,9,0,9,0,1,,,,,,,,,,,,,,,,,,,,,,,,,,,,,,,,,,,,,,,,,,,,
,,,,ember,A,2024-05-08_14h50.03.370,Slot Machine Game,2023.1.3,MacIntel,60.97560976,,,,,,,,,,,,,,,,,,,242.1187,10,1.035,,up,1,,stimuli/card_100_transparent.png,560,100,10,0,10,0,1,,,,,,,,,,,,,,,,,,,,,,,,,,,,,,,,,,,,,,,,,,,,
,,,,ember,A,2024-05-08_14h50.03.370,Slot Machine Game,2023.1.3,MacIntel,60.97560976,,,,,,,,,,,,,,,,,,,244.9703,11,0.8333,,up,1.5,,stimuli/card_100_transparent.png,660,100,11,0,11,0,1,,,,,,,,,,,,,,,,,,,,,,,,,,,,,,,,,,,,,,,,,,,,
,,,,ember,A,2024-05-08_14h50.03.370,Slot Machine Game,2023.1.3,MacIntel,60.97560976,,,,,,,,,,,,,,,,,,,248.1257,12,1.1548,,up,1,,stimuli/card_100_transparent.png,760,100,12,0,12,0,1,,,,,,,,,,,,,,,,,,,,,,,,,,,,,,,,,,,,,,,,,,,,
,,,,ember,A,2024-05-08_14h50.03.370,Slot Machine Game,2023.1.3,MacIntel,60.97560976,,,,,,,,,,,,,,,,,,,251.0906,13,1.6499,,up,1,,stimuli/card_0_transparent.png,760,0,13,0,13,0,1,,,,,,,,,,,,,,,,,,,,,,,,,,,,,,,,,,,,,,,,,,,,
,,,,ember,A,2024-05-08_14h50.03.370,Slot Machine Game,2023.1.3,MacIntel,60.97560976,,,,,,,,,,,,,,,,,,,254.5648,14,0.279,,up,0.5,,stimuli/card_100_transparent.png,860,100,14,0,14,0,1,,,,,,,,,,,,,,,,,,,,,,,,,,,,,,,,,,,,,,,,,,,,
,,,,ember,A,2024-05-08_14h50.03.370,Slot Machine Game,2023.1.3,MacIntel,60.97560976,,,,,,,,,,,,,,,,,,,,,,,,,,,,,,,,,,,256.1672,,,261.1772,space,1.7572,,,,,,,,,,,,,,,,,,,,,,,,,,,,,,,,,,,,,
,,,,ember,A,2024-05-08_14h50.03.370,Slot Machine Game,2023.1.3,MacIntel,60.97560976,,,,,,,,,,,,,,,,,,,,,,,,,,,,,,,,,,,,,,,,,,262.9533,2,"[2,4,8,0,1,3,9,6,8,5]",space,4.2251,,,,,,,,,,,,,,,,,,,,,,,,,,,,,,,
,,,,ember,A,2024-05-08_14h50.03.370,Slot Machine Game,2023.1.3,MacIntel,60.97560976,,,,,,,,,,,,,,,,,,,,,,,,,,,100,,,,,,,,,,,,,,,,,,,,,1,3,"[15,15]","[[3,1,2],[3,1,2]]",267.1909,0,up,0.4663,,1.5,0.3,"[3,1,2]",0.827495662,stimuli/card_100_transparent.png,100,0,0,0,0,1,,,,,,,,,,
,,,,ember,A,2024-05-08_14h50.03.370,Slot Machine Game,2023.1.3,MacIntel,60.97560976,,,,,,,,,,,,,,,,,,,,,,,,,,,200,,,,,,,,,,,,,,,,,,,,,1,3,,,269.9894,1,up,0.9518,,1,0.3,"[3,1,2]",0.51654718,stimuli/card_100_transparent.png,100,1,0,1,0,1,,,,,,,,,,
,,,,ember,A,2024-05-08_14h50.03.370,Slot Machine Game,2023.1.3,MacIntel,60.97560976,,,,,,,,,,,,,,,,,,,,,,,,,,,210,,,,,,,,,,,,,,,,,,,,,1,3,,,272.7747,2,up,0.2717,,1,0.3,"[3,1,2]",0.199491475,stimuli/card_10_transparent.png,10,2,0,2,0,1,,,,,,,,,,
,,,,ember,A,2024-05-08_14h50.03.370,Slot Machine Game,2023.1.3,MacIntel,60.97560976,,,,,,,,,,,,,,,,,,,,,,,,,,,220,,,,,,,,,,,,,,,,,,,,,1,3,,,274.8591,3,up,0.4752,,1,0.3,"[3,1,2]",0.146039319,stimuli/card_10_transparent.png,10,3,0,3,0,1,,,,,,,,,,
,,,,ember,A,2024-05-08_14h50.03.370,Slot Machine Game,2023.1.3,MacIntel,60.97560976,,,,,,,,,,,,,,,,,,,,,,,,,,,230,,,,,,,,,,,,,,,,,,,,,1,3,,,277.1435,4,right,0.2986,,0.5,0.3,"[3,1,2]",0.958913429,stimuli/card_10_transparent.png,10,4,0,4,0,1,,,,,,,,,,
,,,,ember,A,2024-05-08_14h50.03.370,Slot Machine Game,2023.1.3,MacIntel,60.97560976,,,,,,,,,,,,,,,,,,,,,,,,,,,230,,,,,,,,,,,,,,,,,,,,,1,3,,,278.7811,5,left,0.107,,1,0.3,"[3,1,2]",0.535600178,stimuli/card_0_transparent.png,0,5,0,5,0,1,,,,,,,,,,
,,,,ember,A,2024-05-08_14h50.03.370,Slot Machine Game,2023.1.3,MacIntel,60.97560976,,,,,,,,,,,,,,,,,,,,,,,,,,,240,,,,,,,,,,,,,,,,,,,,,1,3,,,280.7122,6,up,0.1836,,0.5,0.3,"[3,1,2]",0.159109432,stimuli/card_10_transparent.png,10,6,0,6,0,1,,,,,,,,,,
,,,,ember,A,2024-05-08_14h50.03.370,Slot Machine Game,2023.1.3,MacIntel,60.97560976,,,,,,,,,,,,,,,,,,,,,,,,,,,340,,,,,,,,,,,,,,,,,,,,,1,3,,,282.2182,7,up,0.0007,,1,0.3,"[3,1,2]",0.843942577,stimuli/card_100_transparent.png,100,7,0,7,0,1,,,,,,,,,,
,,,,ember,A,2024-05-08_14h50.03.370,Slot Machine Game,2023.1.3,MacIntel,60.97560976,,,,,,,,,,,,,,,,,,,,,,,,,,,440,,,,,,,,,,,,,,,,,,,,,1,3,,,284.0493,8,up,0.0076,,1.5,0.3,"[3,1,2]",0.839587553,stimuli/card_100_transparent.png,100,8,0,8,0,1,,,,,,,,,,
,,,,ember,A,2024-05-08_14h50.03.370,Slot Machine Game,2023.1.3,MacIntel,60.97560976,,,,,,,,,,,,,,,,,,,,,,,,,,,540,,,,,,,,,,,,,,,,,,,,,1,3,,,286.3771,9,up,0.0007,,1,0.3,"[3,1,2]",0.650270348,stimuli/card_100_transparent.png,100,9,0,9,0,1,,,,,,,,,,
,,,,ember,A,2024-05-08_14h50.03.370,Slot Machine Game,2023.1.3,MacIntel,60.97560976,,,,,,,,,,,,,,,,,,,,,,,,,,,540,,,,,,,,,,,,,,,,,,,,,1,3,,,288.1962,10,up,0.1669,,0.5,0.3,"[3,1,2]",0.096550784,stimuli/card_0_transparent.png,0,10,0,10,0,1,,,,,,,,,,
,,,,ember,A,2024-05-08_14h50.03.370,Slot Machine Game,2023.1.3,MacIntel,60.97560976,,,,,,,,,,,,,,,,,,,,,,,,,,,640,,,,,,,,,,,,,,,,,,,,,1,3,,,289.6799,11,up,0.0826,,0.5,0.3,"[3,1,2]",0.567515338,stimuli/card_100_transparent.png,100,11,0,11,0,1,,,,,,,,,,
,,,,ember,A,2024-05-08_14h50.03.370,Slot Machine Game,2023.1.3,MacIntel,60.97560976,,,,,,,,,,,,,,,,,,,,,,,,,,,740,,,,,,,,,,,,,,,,,,,,,1,3,,,291.0666,12,up,0.1406,,1.5,0.3,"[3,1,2]",0.663796534,stimuli/card_100_transparent.png,100,12,0,12,0,1,,,,,,,,,,
,,,,ember,A,2024-05-08_14h50.03.370,Slot Machine Game,2023.1.3,MacIntel,60.97560976,,,,,,,,,,,,,,,,,,,,,,,,,,,840,,,,,,,,,,,,,,,,,,,,,1,3,,,293.5199,13,up,0.1184,,1.5,0.3,"[3,1,2]",0.852182604,stimuli/card_100_transparent.png,100,13,0,13,0,1,,,,,,,,,,
,,,,ember,A,2024-05-08_14h50.03.370,Slot Machine Game,2023.1.3,MacIntel,60.97560976,,,,,,,,,,,,,,,,,,,,,,,,,,,940,,,,,,,,,,,,,,,,,,,,,1,3,,,295.9708,14,up,0.0789,,0.5,0.3,"[3,1,2]",0.849160921,stimuli/card_100_transparent.png,100,14,0,14,0,1,,,,,,,,,,
,,,,ember,A,2024-05-08_14h50.03.370,Slot Machine Game,2023.1.3,MacIntel,60.97560976,,,,,,,,,,,,,,,,,,,,,,,,,,,,,,,,,,,297.3718,,,,,,,,,,,,,,,,,,,,,,,,,,,,,,,,,[940],0,0,0,0,1,,,,
,,,,ember,A,2024-05-08_14h50.03.370,Slot Machine Game,2023.1.3,MacIntel,60.97560976,,,,,,,,,,,,,,,,,,,,,,,,,,,10,,,,,,,,,,,,,,,,,,,,,2,5,"[5,15]","[[1,2,3],[3,1,2]]",302.3776,0,up,0.5114,,0.5,0.3,"[1,2,3]",0.729251423,stimuli/card_10_transparent.png,10,0,0,0,0,1,,,,,,,,,,
,,,,ember,A,2024-05-08_14h50.03.370,Slot Machine Game,2023.1.3,MacIntel,60.97560976,,,,,,,,,,,,,,,,,,,,,,,,,,,10,,,,,,,,,,,,,,,,,,,,,2,5,,,304.1984,1,right,0.1593,,1,0.3,"[1,2,3]",0.726209934,stimuli/card_0_transparent.png,0,1,0,1,0,1,,,,,,,,,,
,,,,ember,A,2024-05-08_14h50.03.370,Slot Machine Game,2023.1.3,MacIntel,60.97560976,,,,,,,,,,,,,,,,,,,,,,,,,,,110,,,,,,,,,,,,,,,,,,,,,2,5,,,306.1767,2,right,0.1497,,0.5,0.3,"[1,2,3]",0.002398843,stimuli/card_100_transparent.png,100,2,0,2,0,1,,,,,,,,,,
,,,,ember,A,2024-05-08_14h50.03.370,Slot Machine Game,2023.1.3,MacIntel,60.97560976,,,,,,,,,,,,,,,,,,,,,,,,,,,210,,,,,,,,,,,,,,,,,,,,,2,5,,,307.6667,3,left,0.0864,,0.5,0.3,"[1,2,3]",0.642696615,stimuli/card_100_transparent.png,100,3,0,3,0,1,,,,,,,,,,
,,,,ember,A,2024-05-08_14h50.03.370,Slot Machine Game,2023.1.3,MacIntel,60.97560976,,,,,,,,,,,,,,,,,,,,,,,,,,,310,,,,,,,,,,,,,,,,,,,,,2,5,,,309.0767,4,left,0.0591,,0.5,0.3,"[1,2,3]",0.613668691,stimuli/card_100_transparent.png,100,4,0,4,0,1,,,,,,,,,,
,,,,ember,A,2024-05-08_14h50.03.370,Slot Machine Game,2023.1.3,MacIntel,60.97560976,,,,,,,,,,,,,,,,,,,,,,,,,,,310,,,,,,,,,,,,,,,,,,,,,2,5,,,310.4296,5,left,0.1345,,1,0.3,"[3,1,2]",0.252728971,stimuli/card_0_transparent.png,0,5,0,5,0,1,,,,,,,,,,
,,,,ember,A,2024-05-08_14h50.03.370,Slot Machine Game,2023.1.3,MacIntel,60.97560976,,,,,,,,,,,,,,,,,,,,,,,,,,,310,,,,,,,,,,,,,,,,,,,,,2,5,,,312.3958,6,left,0.1198,,0.5,0.3,"[3,1,2]",0.894927469,stimuli/card_0_transparent.png,0,6,0,6,0,1,,,,,,,,,,
,,,,ember,A,2024-05-08_14h50.03.370,Slot Machine Game,2023.1.3,MacIntel,60.97560976,,,,,,,,,,,,,,,,,,,,,,,,,,,310,,,,,,,,,,,,,,,,,,,,,2,5,,,313.8319,7,left,0.1313,,1.5,0.3,"[3,1,2]",0.901449917,stimuli/card_0_transparent.png,0,7,0,7,0,1,,,,,,,,,,
,,,,ember,A,2024-05-08_14h50.03.370,Slot Machine Game,2023.1.3,MacIntel,60.97560976,,,,,,,,,,,,,,,,,,,,,,,,,,,310,,,,,,,,,,,,,,,,,,,,,2,5,,,316.2883,8,left,0.2584,,0.5,0.3,"[3,1,2]",0.374952627,stimuli/card_0_transparent.png,0,8,0,8,0,1,,,,,,,,,,
,,,,ember,A,2024-05-08_14h50.03.370,Slot Machine Game,2023.1.3,MacIntel,60.97560976,,,,,,,,,,,,,,,,,,,,,,,,,,,310,,,,,,,,,,,,,,,,,,,,,2,5,,,317.8665,9,left,0.804,,0.5,0.3,"[3,1,2]",0.59626817,stimuli/card_0_transparent.png,0,9,0,9,0,1,,,,,,,,,,
,,,,ember,A,2024-05-08_14h50.03.370,Slot Machine Game,2023.1.3,MacIntel,60.97560976,,,,,,,,,,,,,,,,,,,,,,,,,,,310,,,,,,,,,,,,,,,,,,,,,2,5,,,320.0043,10,left,0.0662,,1,0.3,"[3,1,2]",0.335449845,stimuli/card_0_transparent.png,0,10,0,10,0,1,,,,,,,,,,
,,,,ember,A,2024-05-08_14h50.03.370,Slot Machine Game,2023.1.3,MacIntel,60.97560976,,,,,,,,,,,,,,,,,,,,,,,,,,,410,,,,,,,,,,,,,,,,,,,,,2,5,,,321.8944,11,left,0.5049,,1,0.3,"[3,1,2]",0.054765371,stimuli/card_100_transparent.png,100,11,0,11,0,1,,,,,,,,,,
,,,,ember,A,2024-05-08_14h50.03.370,Slot Machine Game,2023.1.3,MacIntel,60.97560976,,,,,,,,,,,,,,,,,,,,,,,,,,,420,,,,,,,,,,,,,,,,,,,,,2,5,,,324.222,12,left,0.1133,,1,0.3,"[3,1,2]",0.141094147,stimuli/card_10_transparent.png,10,12,0,12,0,1,,,,,,,,,,
,,,,ember,A,2024-05-08_14h50.03.370,Slot Machine Game,2023.1.3,MacIntel,60.97560976,,,,,,,,,,,,,,,,,,,,,,,,,,,420,,,,,,,,,,,,,,,,,,,,,2,5,,,326.1544,13,left,0.1172,,1,0.3,"[3,1,2]",0.74000955,stimuli/card_0_transparent.png,0,13,0,13,0,1,,,,,,,,,,
,,,,ember,A,2024-05-08_14h50.03.370,Slot Machine Game,2023.1.3,MacIntel,60.97560976,,,,,,,,,,,,,,,,,,,,,,,,,,,520,,,,,,,,,,,,,,,,,,,,,2,5,,,328.1077,14,left,0.7344,,1.5,0.3,"[3,1,2]",0.009248656,stimuli/card_100_transparent.png,100,14,0,14,0,1,,,,,,,,,,
,,,,ember,A,2024-05-08_14h50.03.370,Slot Machine Game,2023.1.3,MacIntel,60.97560976,,,,,,,,,,,,,,,,,,,,,,,,,,,,,,,,,,,331.1769,,,,,,,,,,,,,,,,,,,,,,,,,,,,,,,,,"[940,520]",1,0,1,0,1,,,,
,,,,ember,A,2024-05-08_14h50.03.370,Slot Machine Game,2023.1.3,MacIntel,60.97560976,,,,,,,,,,,,,,,,,,,,,,,,,,,0,,,,,,,,,,,,,,,,,,,,,3,9,"[8,15]","[[3,2,1],[3,1,2]]",336.1798,0,left,0.2154,,0.5,0.3,"[3,2,1]",0.467675014,stimuli/card_0_transparent.png,0,0,0,0,0,1,,,,,,,,,,
,,,,ember,A,2024-05-08_14h50.03.370,Slot Machine Game,2023.1.3,MacIntel,60.97560976,,,,,,,,,,,,,,,,,,,,,,,,,,,0,,,,,,,,,,,,,,,,,,,,,3,9,,,337.7271,1,left,0.0846,,1.5,0.3,"[3,2,1]",0.805144433,stimuli/card_0_transparent.png,0,1,0,1,0,1,,,,,,,,,,
,,,,ember,A,2024-05-08_14h50.03.370,Slot Machine Game,2023.1.3,MacIntel,60.97560976,,,,,,,,,,,,,,,,,,,,,,,,,,,0,,,,,,,,,,,,,,,,,,,,,3,9,,,340.1173,2,left,0.0684,,1,0.3,"[3,2,1]",0.810380523,stimuli/card_0_transparent.png,0,2,0,2,0,1,,,,,,,,,,
,,,,ember,A,2024-05-08_14h50.03.370,Slot Machine Game,2023.1.3,MacIntel,60.97560976,,,,,,,,,,,,,,,,,,,,,,,,,,,0,,,,,,,,,,,,,,,,,,,,,3,9,,,342.0135,3,left,0.0012,,0.5,0.3,"[3,2,1]",0.760117621,stimuli/card_0_transparent.png,0,3,0,3,0,1,,,,,,,,,,
,,,,ember,A,2024-05-08_14h50.03.370,Slot Machine Game,2023.1.3,MacIntel,60.97560976,,,,,,,,,,,,,,,,,,,,,,,,,,,0,,,,,,,,,,,,,,,,,,,,,3,9,,,343.3298,4,left,0.1292,,0.5,0.3,"[3,2,1]",0.444156608,stimuli/card_0_transparent.png,0,4,0,4,0,1,,,,,,,,,,
,,,,ember,A,2024-05-08_14h50.03.370,Slot Machine Game,2023.1.3,MacIntel,60.97560976,,,,,,,,,,,,,,,,,,,,,,,,,,,0,,,,,,,,,,,,,,,,,,,,,3,9,,,344.7653,5,left,0.1104,,1,0.3,"[3,2,1]",0.823952571,stimuli/card_0_transparent.png,0,5,0,5,0,1,,,,,,,,,,
,,,,ember,A,2024-05-08_14h50.03.370,Slot Machine Game,2023.1.3,MacIntel,60.97560976,,,,,,,,,,,,,,,,,,,,,,,,,,,0,,,,,,,,,,,,,,,,,,,,,3,9,,,346.6983,6,left,0.0499,,0.5,0.3,"[3,2,1]",0.924969247,stimuli/card_0_transparent.png,0,6,0,6,0,1,,,,,,,,,,
,,,,ember,A,2024-05-08_14h50.03.370,Slot Machine Game,2023.1.3,MacIntel,60.97560976,,,,,,,,,,,,,,,,,,,,,,,,,,,0,,,,,,,,,,,,,,,,,,,,,3,9,,,348.0696,7,left,0.0829,,1,0.3,"[3,2,1]",0.478800424,stimuli/card_0_transparent.png,0,7,0,7,0,1,,,,,,,,,,
,,,,ember,A,2024-05-08_14h50.03.370,Slot Machine Game,2023.1.3,MacIntel,60.97560976,,,,,,,,,,,,,,,,,,,,,,,,,,,0,,,,,,,,,,,,,,,,,,,,,3,9,,,349.9845,8,left,0.0012,,0.5,0.3,"[3,1,2]",0.791490141,stimuli/card_0_transparent.png,0,8,0,8,0,1,,,,,,,,,,
,,,,ember,A,2024-05-08_14h50.03.370,Slot Machine Game,2023.1.3,MacIntel,60.97560976,,,,,,,,,,,,,,,,,,,,,,,,,,,0,,,,,,,,,,,,,,,,,,,,,3,9,,,351.3189,9,left,0.0499,,1.5,0.3,"[3,1,2]",0.729383075,stimuli/card_0_transparent.png,0,9,0,9,0,1,,,,,,,,,,
,,,,ember,A,2024-05-08_14h50.03.370,Slot Machine Game,2023.1.3,MacIntel,60.97560976,,,,,,,,,,,,,,,,,,,,,,,,,,,0,,,,,,,,,,,,,,,,,,,,,3,9,,,353.6931,10,left,1.8288,,1.5,0.3,"[3,1,2]",0.589874367,stimuli/card_0_transparent.png,0,10,0,10,0,1,,,,,,,,,,
,,,,ember,A,2024-05-08_14h50.03.370,Slot Machine Game,2023.1.3,MacIntel,60.97560976,,,,,,,,,,,,,,,,,,,,,,,,,,,0,,,,,,,,,,,,,,,,,,,,,3,9,,,357.8389,11,left,3.5106,,1.5,0.3,"[3,1,2]",0.914739442,stimuli/card_0_transparent.png,0,11,0,11,0,1,,,,,,,,,,
,,,,ember,A,2024-05-08_14h50.03.370,Slot Machine Game,2023.1.3,MacIntel,60.97560976,,,,,,,,,,,,,,,,,,,,,,,,,,,0,,,,,,,,,,,,,,,,,,,,,3,9,,,363.6923,12,left,0.5373,,0.5,0.3,"[3,1,2]",0.871729865,stimuli/card_0_transparent.png,0,12,0,12,0,1,,,,,,,,,,
,,,,ember,A,2024-05-08_14h50.03.370,Slot Machine Game,2023.1.3,MacIntel,60.97560976,,,,,,,,,,,,,,,,,,,,,,,,,,,10,,,,,,,,,,,,,,,,,,,,,3,9,,,365.5631,13,left,0.4999,,1.5,0.3,"[3,1,2]",0.198505088,stimuli/card_10_transparent.png,10,13,0,13,0,1,,,,,,,,,,
,,,,ember,A,2024-05-08_14h50.03.370,Slot Machine Game,2023.1.3,MacIntel,60.97560976,,,,,,,,,,,,,,,,,,,,,,,,,,,10,,,,,,,,,,,,,,,,,,,,,3,9,,,368.4115,14,left,0.3097,,0.5,0.3,"[3,1,2]",0.860464197,stimuli/card_0_transparent.png,0,14,0,14,0,1,,,,,,,,,,
,,,,ember,A,2024-05-08_14h50.03.370,Slot Machine Game,2023.1.3,MacIntel,60.97560976,,,,,,,,,,,,,,,,,,,,,,,,,,,,,,,,,,,370.0394,,,,,,,,,,,,,,,,,,,,,,,,,,,,,,,,,"[940,520,10]",2,0,2,0,1,,,,
,,,,ember,A,2024-05-08_14h50.03.370,Slot Machine Game,2023.1.3,MacIntel,60.97560976,,,,,,,,,,,,,,,,,,,,,,,,,,,100,,,,,,,,,,,,,,,,,,,,,4,1,"[12,15]","[[2,1,3],[2,3,1]]",375.0342,0,left,0.1168,,0.5,0.3,"[2,1,3]",0.137421823,stimuli/card_100_transparent.png,100,0,0,0,0,1,,,,,,,,,,
,,,,ember,A,2024-05-08_14h50.03.370,Slot Machine Game,2023.1.3,MacIntel,60.97560976,,,,,,,,,,,,,,,,,,,,,,,,,,,110,,,,,,,,,,,,,,,,,,,,,4,1,,,376.4765,1,left,0.7773,,1,0.3,"[2,1,3]",0.260396128,stimuli/card_10_transparent.png,10,1,0,1,0,1,,,,,,,,,,
,,,,ember,A,2024-05-08_14h50.03.370,Slot Machine Game,2023.1.3,MacIntel,60.97560976,,,,,,,,,,,,,,,,,,,,,,,,,,,120,,,,,,,,,,,,,,,,,,,,,4,1,,,379.0656,2,left,0.019,0.0141,1,0.3,"[2,1,3]",0.923807985,stimuli/card_10_transparent.png,10,2,0,2,0,1,,,,,,,,,,
,,,,ember,A,2024-05-08_14h50.03.370,Slot Machine Game,2023.1.3,MacIntel,60.97560976,,,,,,,,,,,,,,,,,,,,,,,,,,,130,,,,,,,,,,,,,,,,,,,,,4,1,,,380.9182,3,left,0.019,,1,0.3,"[2,1,3]",0.775801342,stimuli/card_10_transparent.png,10,3,0,3,0,1,,,,,,,,,,
,,,,ember,A,2024-05-08_14h50.03.370,Slot Machine Game,2023.1.3,MacIntel,60.97560976,,,,,,,,,,,,,,,,,,,,,,,,,,,140,,,,,,,,,,,,,,,,,,,,,4,1,,,382.7542,4,left,0.0683,,1,0.3,"[2,1,3]",0.7712187,stimuli/card_10_transparent.png,10,4,0,4,0,1,,,,,,,,,,
,,,,ember,A,2024-05-08_14h50.03.370,Slot Machine Game,2023.1.3,MacIntel,60.97560976,,,,,,,,,,,,,,,,,,,,,,,,,,,150,,,,,,,,,,,,,,,,,,,,,4,1,,,384.656,5,left,0.5008,,0.5,0.3,"[2,1,3]",0.566825282,stimuli/card_10_transparent.png,10,5,0,5,0,1,,,,,,,,,,
,,,,ember,A,2024-05-08_14h50.03.370,Slot Machine Game,2023.1.3,MacIntel,60.97560976,,,,,,,,,,,,,,,,,,,,,,,,,,,160,,,,,,,,,,,,,,,,,,,,,4,1,,,386.4879,6,left,2.0892,,0.5,0.3,"[2,1,3]",0.51555492,stimuli/card_10_transparent.png,10,6,0,6,0,1,,,,,,,,,,
,,,,ember,A,2024-05-08_14h50.03.370,Slot Machine Game,2023.1.3,MacIntel,60.97560976,,,,,,,,,,,,,,,,,,,,,,,,,,,170,,,,,,,,,,,,,,,,,,,,,4,1,,,389.8853,7,left,0.1177,,0.5,0.3,"[2,1,3]",0.912761963,stimuli/card_10_transparent.png,10,7,0,7,0,1,,,,,,,,,,
,,,,ember,A,2024-05-08_14h50.03.370,Slot Machine Game,2023.1.3,MacIntel,60.97560976,,,,,,,,,,,,,,,,,,,,,,,,,,,180,,,,,,,,,,,,,,,,,,,,,4,1,,,391.325,8,left,0.1331,,0.5,0.3,"[2,1,3]",0.888661045,stimuli/card_10_transparent.png,10,8,0,8,0,1,,,,,,,,,,
,,,,ember,A,2024-05-08_14h50.03.370,Slot Machine Game,2023.1.3,MacIntel,60.97560976,,,,,,,,,,,,,,,,,,,,,,,,,,,180,,,,,,,,,,,,,,,,,,,,,4,1,,,392.7756,9,left,0.0114,,1,0.3,"[2,1,3]",0.079436605,stimuli/card_0_transparent.png,0,9,0,9,0,1,,,,,,,,,,
,,,,ember,A,2024-05-08_14h50.03.370,Slot Machine Game,2023.1.3,MacIntel,60.97560976,,,,,,,,,,,,,,,,,,,,,,,,,,,190,,,,,,,,,,,,,,,,,,,,,4,1,,,394.5921,10,left,1.0168,,0.5,0.3,"[2,1,3]",0.619469116,stimuli/card_10_transparent.png,10,10,0,10,0,1,,,,,,,,,,
,,,,ember,A,2024-05-08_14h50.03.370,Slot Machine Game,2023.1.3,MacIntel,60.97560976,,,,,,,,,,,,,,,,,,,,,,,,,,,200,,,,,,,,,,,,,,,,,,,,,4,1,,,396.9275,11,left,1.1327,,1,0.3,"[2,1,3]",0.759192349,stimuli/card_10_transparent.png,10,11,0,11,0,1,,,,,,,,,,
,,,,ember,A,2024-05-08_14h50.03.370,Slot Machine Game,2023.1.3,MacIntel,60.97560976,,,,,,,,,,,,,,,,,,,,,,,,,,,210,,,,,,,,,,,,,,,,,,,,,4,1,,,399.8818,12,left,0.0856,,0.5,0.3,"[2,3,1]",0.223541364,stimuli/card_10_transparent.png,10,12,0,12,0,1,,,,,,,,,,
,,,,ember,A,2024-05-08_14h50.03.370,Slot Machine Game,2023.1.3,MacIntel,60.97560976,,,,,,,,,,,,,,,,,,,,,,,,,,,210,,,,,,,,,,,,,,,,,,,,,4,1,,,401.2966,13,left,0.0025,,1,0.3,"[2,3,1]",0.013148116,stimuli/card_0_transparent.png,0,13,0,13,0,1,,,,,,,,,,
,,,,ember,A,2024-05-08_14h50.03.370,Slot Machine Game,2023.1.3,MacIntel,60.97560976,,,,,,,,,,,,,,,,,,,,,,,,,,,220,,,,,,,,,,,,,,,,,,,,,4,1,,,403.1145,14,left,1.5603,,1.5,0.3,"[2,3,1]",0.882830624,stimuli/card_10_transparent.png,10,14,0,14,0,1,,,,,,,,,,
,,,,ember,A,2024-05-08_14h50.03.370,Slot Machine Game,2023.1.3,MacIntel,60.97560976,,,,,,,,,,,,,,,,,,,,,,,,,,,,,,,,,,,406.9832,,,,,,,,,,,,,,,,,,,,,,,,,,,,,,,,,"[940,520,10,220]",3,0,3,0,1,,,,
,,,,ember,A,2024-05-08_14h50.03.370,Slot Machine Game,2023.1.3,MacIntel,60.97560976,,,,,,,,,,,,,,,,,,,,,,,,,,,100,,,,,,,,,,,,,,,,,,,,,5,2,"[6,15]","[[1,3,2],[3,2,1]]",411.9894,0,left,0.0872,,1,0.3,"[1,3,2]",0.782938165,stimuli/card_100_transparent.png,100,0,0,0,0,1,,,,,,,,,,
,,,,ember,A,2024-05-08_14h50.03.370,Slot Machine Game,2023.1.3,MacIntel,60.97560976,,,,,,,,,,,,,,,,,,,,,,,,,,,200,,,,,,,,,,,,,,,,,,,,,5,2,,,413.8927,1,left,3.736,,1,0.3,"[1,3,2]",0.679234635,stimuli/card_100_transparent.png,100,1,0,1,0,1,,,,,,,,,,
,,,,ember,A,2024-05-08_14h50.03.370,Slot Machine Game,2023.1.3,MacIntel,60.97560976,,,,,,,,,,,,,,,,,,,,,,,,,,,300,,,,,,,,,,,,,,,,,,,,,5,2,,,419.4569,2,left,0.6585,,1,0.3,"[1,3,2]",0.221874002,stimuli/card_100_transparent.png,100,2,0,2,0,1,,,,,,,,,,
,,,,ember,A,2024-05-08_14h50.03.370,Slot Machine Game,2023.1.3,MacIntel,60.97560976,,,,,,,,,,,,,,,,,,,,,,,,,,,400,,,,,,,,,,,,,,,,,,,,,5,2,,,421.9428,3,left,2.7671,,1.5,0.3,"[1,3,2]",0.277314502,stimuli/card_100_transparent.png,100,3,0,3,0,1,,,,,,,,,,
,,,,ember,A,2024-05-08_14h50.03.370,Slot Machine Game,2023.1.3,MacIntel,60.97560976,,,,,,,,,,,,,,,,,,,,,,,,,,,410,,,,,,,,,,,,,,,,,,,,,5,2,,,427.0503,4,left,0.1189,,0.5,0.3,"[1,3,2]",0.199977773,stimuli/card_10_transparent.png,10,4,0,4,0,1,,,,,,,,,,
,,,,ember,A,2024-05-08_14h50.03.370,Slot Machine Game,2023.1.3,MacIntel,60.97560976,,,,,,,,,,,,,,,,,,,,,,,,,,,510,,,,,,,,,,,,,,,,,,,,,5,2,,,428.4952,5,left,0.1518,,1.5,0.3,"[1,3,2]",0.704885312,stimuli/card_100_transparent.png,100,5,0,5,0,1,,,,,,,,,,
,,,,ember,A,2024-05-08_14h50.03.370,Slot Machine Game,2023.1.3,MacIntel,60.97560976,,,,,,,,,,,,,,,,,,,,,,,,,,,610,,,,,,,,,,,,,,,,,,,,,5,2,,,430.9673,6,right,1.6128,,1,0.3,"[3,2,1]",0.416855654,stimuli/card_100_transparent.png,100,6,0,6,0,1,,,,,,,,,,
,,,,ember,A,2024-05-08_14h50.03.370,Slot Machine Game,2023.1.3,MacIntel,60.97560976,,,,,,,,,,,,,,,,,,,,,,,,,,,710,,,,,,,,,,,,,,,,,,,,,5,2,,,434.3982,7,right,0.0594,,1,0.3,"[3,2,1]",0.271990028,stimuli/card_100_transparent.png,100,7,0,7,0,1,,,,,,,,,,
,,,,ember,A,2024-05-08_14h50.03.370,Slot Machine Game,2023.1.3,MacIntel,60.97560976,,,,,,,,,,,,,,,,,,,,,,,,,,,810,,,,,,,,,,,,,,,,,,,,,5,2,,,436.2613,8,right,0.2715,,1,0.3,"[3,2,1]",0.706021739,stimuli/card_100_transparent.png,100,8,0,8,0,1,,,,,,,,,,
,,,,ember,A,2024-05-08_14h50.03.370,Slot Machine Game,2023.1.3,MacIntel,60.97560976,,,,,,,,,,,,,,,,,,,,,,,,,,,810,,,,,,,,,,,,,,,,,,,,,5,2,,,438.3476,9,right,3.4042,,1,0.3,"[3,2,1]",0.052953216,stimuli/card_0_transparent.png,0,9,0,9,0,1,,,,,,,,,,
,,,,ember,A,2024-05-08_14h50.03.370,Slot Machine Game,2023.1.3,MacIntel,60.97560976,,,,,,,,,,,,,,,,,,,,,,,,,,,910,,,,,,,,,,,,,,,,,,,,,5,2,,,443.5698,10,right,0.0954,,1.5,0.3,"[3,2,1]",0.786089329,stimuli/card_100_transparent.png,100,10,0,10,0,1,,,,,,,,,,
,,,,ember,A,2024-05-08_14h50.03.370,Slot Machine Game,2023.1.3,MacIntel,60.97560976,,,,,,,,,,,,,,,,,,,,,,,,,,,1010,,,,,,,,,,,,,,,,,,,,,5,2,,,445.9682,11,right,0.1127,,0.5,0.3,"[3,2,1]",0.271675908,stimuli/card_100_transparent.png,100,11,0,11,0,1,,,,,,,,,,
,,,,ember,A,2024-05-08_14h50.03.370,Slot Machine Game,2023.1.3,MacIntel,60.97560976,,,,,,,,,,,,,,,,,,,,,,,,,,,1110,,,,,,,,,,,,,,,,,,,,,5,2,,,447.3852,12,right,0.0022,,0.5,0.3,"[3,2,1]",0.706783758,stimuli/card_100_transparent.png,100,12,0,12,0,1,,,,,,,,,,
,,,,ember,A,2024-05-08_14h50.03.370,Slot Machine Game,2023.1.3,MacIntel,60.97560976,,,,,,,,,,,,,,,,,,,,,,,,,,,1210,,,,,,,,,,,,,,,,,,,,,5,2,,,448.7068,13,right,0.7001,,1,0.3,"[3,2,1]",0.88567472,stimuli/card_100_transparent.png,100,13,0,13,0,1,,,,,,,,,,
,,,,ember,A,2024-05-08_14h50.03.370,Slot Machine Game,2023.1.3,MacIntel,60.97560976,,,,,,,,,,,,,,,,,,,,,,,,,,,1310,,,,,,,,,,,,,,,,,,,,,5,2,,,451.2248,14,right,1.7035,,1,0.3,"[3,2,1]",0.771118222,stimuli/card_100_transparent.png,100,14,0,14,0,1,,,,,,,,,,
,,,,ember,A,2024-05-08_14h50.03.370,Slot Machine Game,2023.1.3,MacIntel,60.97560976,,,,,,,,,,,,,,,,,,,,,,,,,,,,,,,,,,,454.761,,,,,,,,,,,,,,,,,,,,,,,,,,,,,,,,,"[940,520,10,220,1310]",4,0,4,0,1,,,,
,,,,ember,A,2024-05-08_14h50.03.370,Slot Machine Game,2023.1.3,MacIntel,60.97560976,,,,,,,,,,,,,,,,,,,,,,,,,,,100,,,,,,,,,,,,,,,,,,,,,6,4,"[7,15]","[[2,3,1],[1,2,3]]",459.7642,0,right,0.1083,,1.5,0.3,"[2,3,1]",0.636968714,stimuli/card_100_transparent.png,100,0,0,0,0,1,,,,,,,,,,
,,,,ember,A,2024-05-08_14h50.03.370,Slot Machine Game,2023.1.3,MacIntel,60.97560976,,,,,,,,,,,,,,,,,,,,,,,,,,,200,,,,,,,,,,,,,,,,,,,,,6,4,,,462.1967,1,right,1.0779,,1.5,0.3,"[2,3,1]",0.447247205,stimuli/card_100_transparent.png,100,1,0,1,0,1,,,,,,,,,,
,,,,ember,A,2024-05-08_14h50.03.370,Slot Machine Game,2023.1.3,MacIntel,60.97560976,,,,,,,,,,,,,,,,,,,,,,,,,,,210,,,,,,,,,,,,,,,,,,,,,6,4,,,465.5836,2,right,0.118,,1,0.3,"[2,3,1]",0.177493455,stimuli/card_10_transparent.png,10,2,0,2,0,1,,,,,,,,,,
,,,,ember,A,2024-05-08_14h50.03.370,Slot Machine Game,2023.1.3,MacIntel,60.97560976,,,,,,,,,,,,,,,,,,,,,,,,,,,210,,,,,,,,,,,,,,,,,,,,,6,4,,,467.5338,3,right,0.1842,,1.5,0.3,"[2,3,1]",0.015792796,stimuli/card_0_transparent.png,0,3,0,3,0,1,,,,,,,,,,
,,,,ember,A,2024-05-08_14h50.03.370,Slot Machine Game,2023.1.3,MacIntel,60.97560976,,,,,,,,,,,,,,,,,,,,,,,,,,,310,,,,,,,,,,,,,,,,,,,,,6,4,,,470.0515,4,right,0.1172,,1.5,0.3,"[2,3,1]",0.984750065,stimuli/card_100_transparent.png,100,4,0,4,0,1,,,,,,,,,,
,,,,ember,A,2024-05-08_14h50.03.370,Slot Machine Game,2023.1.3,MacIntel,60.97560976,,,,,,,,,,,,,,,,,,,,,,,,,,,410,,,,,,,,,,,,,,,,,,,,,6,4,,,472.483,5,right,0.1132,,0.5,0.3,"[2,3,1]",0.558211955,stimuli/card_100_transparent.png,100,5,0,5,0,1,,,,,,,,,,
,,,,ember,A,2024-05-08_14h50.03.370,Slot Machine Game,2023.1.3,MacIntel,60.97560976,,,,,,,,,,,,,,,,,,,,,,,,,,,510,,,,,,,,,,,,,,,,,,,,,6,4,,,473.8993,6,right,0.7631,,0.5,0.3,"[2,3,1]",0.361447312,stimuli/card_100_transparent.png,100,6,0,6,0,1,,,,,,,,,,
,,,,ember,A,2024-05-08_14h50.03.370,Slot Machine Game,2023.1.3,MacIntel,60.97560976,,,,,,,,,,,,,,,,,,,,,,,,,,,520,,,,,,,,,,,,,,,,,,,,,6,4,,,475.9723,7,right,0.2169,,1,0.3,"[1,2,3]",0.107017384,stimuli/card_10_transparent.png,10,7,0,7,0,1,,,,,,,,,,
,,,,ember,A,2024-05-08_14h50.03.370,Slot Machine Game,2023.1.3,MacIntel,60.97560976,,,,,,,,,,,,,,,,,,,,,,,,,,,530,,,,,,,,,,,,,,,,,,,,,6,4,,,478.0231,8,right,0.1153,,1.5,0.3,"[1,2,3]",0.141116613,stimuli/card_10_transparent.png,10,8,0,8,0,1,,,,,,,,,,
,,,,ember,A,2024-05-08_14h50.03.370,Slot Machine Game,2023.1.3,MacIntel,60.97560976,,,,,,,,,,,,,,,,,,,,,,,,,,,530,,,,,,,,,,,,,,,,,,,,,6,4,,,480.4745,9,right,0.0385,,1.5,0.3,"[1,2,3]",0.687660982,stimuli/card_0_transparent.png,0,9,0,9,0,1,,,,,,,,,,
,,,,ember,A,2024-05-08_14h50.03.370,Slot Machine Game,2023.1.3,MacIntel,60.97560976,,,,,,,,,,,,,,,,,,,,,,,,,,,530,,,,,,,,,,,,,,,,,,,,,6,4,,,482.8264,10,right,0.3506,,1.5,0.3,"[1,2,3]",0.212296284,stimuli/card_0_transparent.png,0,10,0,10,0,1,,,,,,,,,,
,,,,ember,A,2024-05-08_14h50.03.370,Slot Machine Game,2023.1.3,MacIntel,60.97560976,,,,,,,,,,,,,,,,,,,,,,,,,,,530,,,,,,,,,,,,,,,,,,,,,6,4,,,485.506,11,right,0.0279,,1,0.3,"[1,2,3]",0.740227578,stimuli/card_0_transparent.png,0,11,0,11,0,1,,,,,,,,,,
,,,,ember,A,2024-05-08_14h50.03.370,Slot Machine Game,2023.1.3,MacIntel,60.97560976,,,,,,,,,,,,,,,,,,,,,,,,,,,530,,,,,,,,,,,,,,,,,,,,,6,4,,,487.3627,12,right,0.0667,,0.5,0.3,"[1,2,3]",0.574168211,stimuli/card_0_transparent.png,0,12,0,12,0,1,,,,,,,,,,
,,,,ember,A,2024-05-08_14h50.03.370,Slot Machine Game,2023.1.3,MacIntel,60.97560976,,,,,,,,,,,,,,,,,,,,,,,,,,,530,,,,,,,,,,,,,,,,,,,,,6,4,,,488.7615,13,right,0.3464,,1.5,0.3,"[1,2,3]",0.621827124,stimuli/card_0_transparent.png,0,13,0,13,0,1,,,,,,,,,,
,,,,ember,A,2024-05-08_14h50.03.370,Slot Machine Game,2023.1.3,MacIntel,60.97560976,,,,,,,,,,,,,,,,,,,,,,,,,,,530,,,,,,,,,,,,,,,,,,,,,6,4,,,491.4302,14,right,0.115,,1,0.3,"[1,2,3]",0.383511115,stimuli/card_0_transparent.png,0,14,0,14,0,1,,,,,,,,,,
,,,,ember,A,2024-05-08_14h50.03.370,Slot Machine Game,2023.1.3,MacIntel,60.97560976,,,,,,,,,,,,,,,,,,,,,,,,,,,,,,,,,,,493.3697,,,,,,,,,,,,,,,,,,,,,,,,,,,,,,,,,"[940,520,10,220,1310,530]",5,0,5,0,1,,,,
,,,,ember,A,2024-05-08_14h50.03.370,Slot Machine Game,2023.1.3,MacIntel,60.97560976,,,,,,,,,,,,,,,,,,,,,,,,,,,10,,,,,,,,,,,,,,,,,,,,,7,10,"[10,15]","[[3,1,2],[1,3,2]]",498.3705,0,right,0.0536,,1.5,0.3,"[3,1,2]",0.643880496,stimuli/card_10_transparent.png,10,0,0,0,0,1,,,,,,,,,,
,,,,ember,A,2024-05-08_14h50.03.370,Slot Machine Game,2023.1.3,MacIntel,60.97560976,,,,,,,,,,,,,,,,,,,,,,,,,,,10,,,,,,,,,,,,,,,,,,,,,7,10,,,500.736,1,right,0.3465,,1.5,0.3,"[3,1,2]",0.036132141,stimuli/card_0_transparent.png,0,1,0,1,0,1,,,,,,,,,,
,,,,ember,A,2024-05-08_14h50.03.370,Slot Machine Game,2023.1.3,MacIntel,60.97560976,,,,,,,,,,,,,,,,,,,,,,,,,,,20,,,,,,,,,,,,,,,,,,,,,7,10,,,503.3874,2,right,0.7783,,0.5,0.3,"[3,1,2]",0.449820087,stimuli/card_10_transparent.png,10,2,0,2,0,1,,,,,,,,,,
,,,,ember,A,2024-05-08_14h50.03.370,Slot Machine Game,2023.1.3,MacIntel,60.97560976,,,,,,,,,,,,,,,,,,,,,,,,,,,120,,,,,,,,,,,,,,,,,,,,,7,10,,,505.4885,3,right,2.4244,,1.5,0.3,"[3,1,2]",0.192184563,stimuli/card_100_transparent.png,100,3,0,3,0,1,,,,,,,,,,
,,,,ember,A,2024-05-08_14h50.03.370,Slot Machine Game,2023.1.3,MacIntel,60.97560976,,,,,,,,,,,,,,,,,,,,,,,,,,,120,,,,,,,,,,,,,,,,,,,,,7,10,,,510.2412,4,right,0.3923,,1,0.3,"[3,1,2]",0.034184066,stimuli/card_0_transparent.png,0,4,0,4,0,1,,,,,,,,,,
,,,,ember,A,2024-05-08_14h50.03.370,Slot Machine Game,2023.1.3,MacIntel,60.97560976,,,,,,,,,,,,,,,,,,,,,,,,,,,120,,,,,,,,,,,,,,,,,,,,,7,10,,,512.4426,5,right,0.3083,0.0027,0.5,0.3,"[3,1,2]",0.098365803,stimuli/card_0_transparent.png,0,5,0,5,0,1,,,,,,,,,,
,,,,ember,A,2024-05-08_14h50.03.370,Slot Machine Game,2023.1.3,MacIntel,60.97560976,,,,,,,,,,,,,,,,,,,,,,,,,,,120,,,,,,,,,,,,,,,,,,,,,7,10,,,514.0896,6,left,0.1455,,0.5,0.3,"[3,1,2]",0.224192196,stimuli/card_0_transparent.png,0,6,0,6,0,1,,,,,,,,,,
,,,,ember,A,2024-05-08_14h50.03.370,Slot Machine Game,2023.1.3,MacIntel,60.97560976,,,,,,,,,,,,,,,,,,,,,,,,,,,120,,,,,,,,,,,,,,,,,,,,,7,10,,,515.5403,7,left,0.0947,,1,0.3,"[3,1,2]",0.242243707,stimuli/card_0_transparent.png,0,7,0,7,0,1,,,,,,,,,,
,,,,ember,A,2024-05-08_14h50.03.370,Slot Machine Game,2023.1.3,MacIntel,60.97560976,,,,,,,,,,,,,,,,,,,,,,,,,,,120,,,,,,,,,,,,,,,,,,,,,7,10,,,517.4523,8,left,0.0751,,0.5,0.3,"[3,1,2]",0.361234926,stimuli/card_0_transparent.png,0,8,0,8,0,1,,,,,,,,,,
,,,,ember,A,2024-05-08_14h50.03.370,Slot Machine Game,2023.1.3,MacIntel,60.97560976,,,,,,,,,,,,,,,,,,,,,,,,,,,220,,,,,,,,,,,,,,,,,,,,,7,10,,,518.8461,9,up,0.0332,,1,0.3,"[3,1,2]",0.23379254,stimuli/card_100_transparent.png,100,9,0,9,0,1,,,,,,,,,,
,,,,ember,A,2024-05-08_14h50.03.370,Slot Machine Game,2023.1.3,MacIntel,60.97560976,,,,,,,,,,,,,,,,,,,,,,,,,,,220,,,,,,,,,,,,,,,,,,,,,7,10,,,520.7128,10,up,0.1614,,1,0.3,"[1,3,2]",0.366989495,stimuli/card_0_transparent.png,0,10,0,10,0,1,,,,,,,,,,
,,,,ember,A,2024-05-08_14h50.03.370,Slot Machine Game,2023.1.3,MacIntel,60.97560976,,,,,,,,,,,,,,,,,,,,,,,,,,,220,,,,,,,,,,,,,,,,,,,,,7,10,,,522.6715,11,up,0.0924,,1.5,0.3,"[1,3,2]",0.94684149,stimuli/card_0_transparent.png,0,11,0,11,0,1,,,,,,,,,,
,,,,ember,A,2024-05-08_14h50.03.370,Slot Machine Game,2023.1.3,MacIntel,60.97560976,,,,,,,,,,,,,,,,,,,,,,,,,,,230,,,,,,,,,,,,,,,,,,,,,7,10,,,525.0829,12,up,0.1776,,1,0.3,"[1,3,2]",0.183769405,stimuli/card_10_transparent.png,10,12,0,12,0,1,,,,,,,,,,
,,,,ember,A,2024-05-08_14h50.03.370,Slot Machine Game,2023.1.3,MacIntel,60.97560976,,,,,,,,,,,,,,,,,,,,,,,,,,,230,,,,,,,,,,,,,,,,,,,,,7,10,,,527.0695,13,up,0.3625,,0.5,0.3,"[1,3,2]",0.93282054,stimuli/card_0_transparent.png,0,13,0,13,0,1,,,,,,,,,,
,,,,ember,A,2024-05-08_14h50.03.370,Slot Machine Game,2023.1.3,MacIntel,60.97560976,,,,,,,,,,,,,,,,,,,,,,,,,,,230,,,,,,,,,,,,,,,,,,,,,7,10,,,528.772,14,up,0.0088,,0.5,0.3,"[1,3,2]",0.475684825,stimuli/card_0_transparent.png,0,14,0,14,0,1,,,,,,,,,,
,,,,ember,A,2024-05-08_14h50.03.370,Slot Machine Game,2023.1.3,MacIntel,60.97560976,,,,,,,,,,,,,,,,,,,,,,,,,,,,,,,,,,,530.1018,,,,,,,,,,,,,,,,,,,,,,,,,,,,,,,,,"[940,520,10,220,1310,530,230]",6,0,6,0,1,,,,
,,,,ember,A,2024-05-08_14h50.03.370,Slot Machine Game,2023.1.3,MacIntel,60.97560976,,,,,,,,,,,,,,,,,,,,,,,,,,,0,,,,,,,,,,,,,,,,,,,,,8,7,"[9,15]","[[1,3,2],[2,3,1]]",535.1056,0,up,0.0032,,1.5,0.3,"[1,3,2]",0.463378415,stimuli/card_0_transparent.png,0,0,0,0,0,1,,,,,,,,,,
,,,,ember,A,2024-05-08_14h50.03.370,Slot Machine Game,2023.1.3,MacIntel,60.97560976,,,,,,,,,,,,,,,,,,,,,,,,,,,0,,,,,,,,,,,,,,,,,,,,,8,7,,,537.4391,1,up,0.028,,1.5,0.3,"[1,3,2]",0.539575122,stimuli/card_0_transparent.png,0,1,0,1,0,1,,,,,,,,,,
,,,,ember,A,2024-05-08_14h50.03.370,Slot Machine Game,2023.1.3,MacIntel,60.97560976,,,,,,,,,,,,,,,,,,,,,,,,,,,10,,,,,,,,,,,,,,,,,,,,,8,7,,,539.7776,2,up,0.1363,,1.5,0.3,"[1,3,2]",0.122905289,stimuli/card_10_transparent.png,10,2,0,2,0,1,,,,,,,,,,
,,,,ember,A,2024-05-08_14h50.03.370,Slot Machine Game,2023.1.3,MacIntel,60.97560976,,,,,,,,,,,,,,,,,,,,,,,,,,,10,,,,,,,,,,,,,,,,,,,,,8,7,,,542.259,3,up,0.0089,,0.5,0.3,"[1,3,2]",0.721720406,stimuli/card_0_transparent.png,0,3,0,3,0,1,,,,,,,,,,
,,,,ember,A,2024-05-08_14h50.03.370,Slot Machine Game,2023.1.3,MacIntel,60.97560976,,,,,,,,,,,,,,,,,,,,,,,,,,,10,,,,,,,,,,,,,,,,,,,,,8,7,,,543.5933,4,up,0.2623,,1.5,0.3,"[1,3,2]",0.577396619,stimuli/card_0_transparent.png,0,4,0,4,0,1,,,,,,,,,,
,,,,ember,A,2024-05-08_14h50.03.370,Slot Machine Game,2023.1.3,MacIntel,60.97560976,,,,,,,,,,,,,,,,,,,,,,,,,,,10,,,,,,,,,,,,,,,,,,,,,8,7,,,546.1781,5,up,0.0016,,0.5,0.3,"[1,3,2]",0.257380697,stimuli/card_0_transparent.png,0,5,0,5,0,1,,,,,,,,,,
,,,,ember,A,2024-05-08_14h50.03.370,Slot Machine Game,2023.1.3,MacIntel,60.97560976,,,,,,,,,,,,,,,,,,,,,,,,,,,10,,,,,,,,,,,,,,,,,,,,,8,7,,,547.5324,6,up,1.0111,,0.5,0.3,"[1,3,2]",0.881337371,stimuli/card_0_transparent.png,0,6,0,6,0,1,,,,,,,,,,
,,,,ember,A,2024-05-08_14h50.03.370,Slot Machine Game,2023.1.3,MacIntel,60.97560976,,,,,,,,,,,,,,,,,,,,,,,,,,,10,,,,,,,,,,,,,,,,,,,,,8,7,,,549.8634,7,up,0.043,,1.5,0.3,"[1,3,2]",0.528842287,stimuli/card_0_transparent.png,0,7,0,7,0,1,,,,,,,,,,
,,,,ember,A,2024-05-08_14h50.03.370,Slot Machine Game,2023.1.3,MacIntel,60.97560976,,,,,,,,,,,,,,,,,,,,,,,,,,,10,,,,,,,,,,,,,,,,,,,,,8,7,,,552.2112,8,up,0.4922,,1.5,0.3,"[1,3,2]",0.989114114,stimuli/card_0_transparent.png,0,8,0,8,0,1,,,,,,,,,,
,,,,ember,A,2024-05-08_14h50.03.370,Slot Machine Game,2023.1.3,MacIntel,60.97560976,,,,,,,,,,,,,,,,,,,,,,,,,,,110,,,,,,,,,,,,,,,,,,,,,8,7,,,555.0118,9,up,1.937,,1,0.3,"[2,3,1]",0.01968617,stimuli/card_100_transparent.png,100,9,0,9,0,1,,,,,,,,,,
,,,,ember,A,2024-05-08_14h50.03.370,Slot Machine Game,2023.1.3,MacIntel,60.97560976,,,,,,,,,,,,,,,,,,,,,,,,,,,110,,,,,,,,,,,,,,,,,,,,,8,7,,,558.7682,10,up,0.2942,,1,0.3,"[2,3,1]",0.402057081,stimuli/card_0_transparent.png,0,10,0,10,0,1,,,,,,,,,,
,,,,ember,A,2024-05-08_14h50.03.370,Slot Machine Game,2023.1.3,MacIntel,60.97560976,,,,,,,,,,,,,,,,,,,,,,,,,,,110,,,,,,,,,,,,,,,,,,,,,8,7,,,560.8702,11,up,0.7175,,1.5,0.3,"[2,3,1]",0.340043775,stimuli/card_0_transparent.png,0,11,0,11,0,1,,,,,,,,,,
,,,,ember,A,2024-05-08_14h50.03.370,Slot Machine Game,2023.1.3,MacIntel,60.97560976,,,,,,,,,,,,,,,,,,,,,,,,,,,120,,,,,,,,,,,,,,,,,,,,,8,7,,,563.9269,12,up,0.4326,,1.5,0.3,"[2,3,1]",0.140633885,stimuli/card_10_transparent.png,10,12,0,12,0,1,,,,,,,,,,
,,,,ember,A,2024-05-08_14h50.03.370,Slot Machine Game,2023.1.3,MacIntel,60.97560976,,,,,,,,,,,,,,,,,,,,,,,,,,,120,,,,,,,,,,,,,,,,,,,,,8,7,,,566.6729,13,up,0.0701,,1,0.3,"[2,3,1]",0.205183419,stimuli/card_0_transparent.png,0,13,0,13,0,1,,,,,,,,,,
,,,,ember,A,2024-05-08_14h50.03.370,Slot Machine Game,2023.1.3,MacIntel,60.97560976,,,,,,,,,,,,,,,,,,,,,,,,,,,120,,,,,,,,,,,,,,,,,,,,,8,7,,,568.5573,14,up,0.1583,,1.5,0.3,"[2,3,1]",0.406102015,stimuli/card_0_transparent.png,0,14,0,14,0,1,,,,,,,,,,
,,,,ember,A,2024-05-08_14h50.03.370,Slot Machine Game,2023.1.3,MacIntel,60.97560976,,,,,,,,,,,,,,,,,,,,,,,,,,,,,,,,,,,571.0398,,,,,,,,,,,,,,,,,,,,,,,,,,,,,,,,,"[940,520,10,220,1310,530,230,120]",7,0,7,0,1,,,,
,,,,ember,A,2024-05-08_14h50.03.370,Slot Machine Game,2023.1.3,MacIntel,60.97560976,,,,,,,,,,,,,,,,,,,,,,,,,,,0,,,,,,,,,,,,,,,,,,,,,9,9,[15],"[[3,1,2]]",576.0314,0,up,0.1182,,1.5,0.3,"[3,1,2]",0.088754833,stimuli/card_0_transparent.png,0,0,0,0,0,1,,,,,,,,,,
,,,,ember,A,2024-05-08_14h50.03.370,Slot Machine Game,2023.1.3,MacIntel,60.97560976,,,,,,,,,,,,,,,,,,,,,,,,,,,100,,,,,,,,,,,,,,,,,,,,,9,9,,,578.4749,1,up,0.1426,,0.5,0.3,"[3,1,2]",0.631846982,stimuli/card_100_transparent.png,100,1,0,1,0,1,,,,,,,,,,
,,,,ember,A,2024-05-08_14h50.03.370,Slot Machine Game,2023.1.3,MacIntel,60.97560976,,,,,,,,,,,,,,,,,,,,,,,,,,,200,,,,,,,,,,,,,,,,,,,,,9,9,,,579.9303,2,up,0.1134,,1.5,0.3,"[3,1,2]",0.607402745,stimuli/card_100_transparent.png,100,2,0,2,0,1,,,,,,,,,,
,,,,ember,A,2024-05-08_14h50.03.370,Slot Machine Game,2023.1.3,MacIntel,60.97560976,,,,,,,,,,,,,,,,,,,,,,,,,,,210,,,,,,,,,,,,,,,,,,,,,9,9,,,582.3648,3,up,0.0433,,0.5,0.3,"[3,1,2]",0.169431801,stimuli/card_10_transparent.png,10,3,0,3,0,1,,,,,,,,,,
,,,,ember,A,2024-05-08_14h50.03.370,Slot Machine Game,2023.1.3,MacIntel,60.97560976,,,,,,,,,,,,,,,,,,,,,,,,,,,220,,,,,,,,,,,,,,,,,,,,,9,9,,,583.7164,4,up,1.2484,,0.5,0.3,"[3,1,2]",0.123610661,stimuli/card_10_transparent.png,10,4,0,4,0,1,,,,,,,,,,
,,,,ember,A,2024-05-08_14h50.03.370,Slot Machine Game,2023.1.3,MacIntel,60.97560976,,,,,,,,,,,,,,,,,,,,,,,,,,,320,,,,,,,,,,,,,,,,,,,,,9,9,,,586.284,5,up,0.8934,,1,0.3,"[3,1,2]",0.502512242,stimuli/card_100_transparent.png,100,5,0,5,0,1,,,,,,,,,,
,,,,ember,A,2024-05-08_14h50.03.370,Slot Machine Game,2023.1.3,MacIntel,60.97560976,,,,,,,,,,,,,,,,,,,,,,,,,,,330,,,,,,,,,,,,,,,,,,,,,9,9,,,588.9854,6,up,0.1865,,0.5,0.3,"[3,1,2]",0.148906778,stimuli/card_10_transparent.png,10,6,0,6,0,1,,,,,,,,,,
,,,,ember,A,2024-05-08_14h50.03.370,Slot Machine Game,2023.1.3,MacIntel,60.97560976,,,,,,,,,,,,,,,,,,,,,,,,,,,430,,,,,,,,,,,,,,,,,,,,,9,9,,,590.494,7,up,2.4509,,1,0.3,"[3,1,2]",0.457466716,stimuli/card_100_transparent.png,100,7,0,7,0,1,,,,,,,,,,
,,,,ember,A,2024-05-08_14h50.03.370,Slot Machine Game,2023.1.3,MacIntel,60.97560976,,,,,,,,,,,,,,,,,,,,,,,,,,,530,,,,,,,,,,,,,,,,,,,,,9,9,,,594.7717,8,up,0.0546,,1.5,0.3,"[3,1,2]",0.764704234,stimuli/card_100_transparent.png,100,8,0,8,0,1,,,,,,,,,,
,,,,ember,A,2024-05-08_14h50.03.370,Slot Machine Game,2023.1.3,MacIntel,60.97560976,,,,,,,,,,,,,,,,,,,,,,,,,,,630,,,,,,,,,,,,,,,,,,,,,9,9,,,597.1188,9,up,0.0794,,1,0.3,"[3,1,2]",0.953433462,stimuli/card_100_transparent.png,100,9,0,9,0,1,,,,,,,,,,
,,,,ember,A,2024-05-08_14h50.03.370,Slot Machine Game,2023.1.3,MacIntel,60.97560976,,,,,,,,,,,,,,,,,,,,,,,,,,,730,,,,,,,,,,,,,,,,,,,,,9,9,,,599.004,10,up,0.0957,,0.5,0.3,"[3,1,2]",0.583997272,stimuli/card_100_transparent.png,100,10,0,10,0,1,,,,,,,,,,
,,,,ember,A,2024-05-08_14h50.03.370,Slot Machine Game,2023.1.3,MacIntel,60.97560976,,,,,,,,,,,,,,,,,,,,,,,,,,,830,,,,,,,,,,,,,,,,,,,,,9,9,,,600.4034,11,up,0.3641,,0.5,0.3,"[3,1,2]",0.805807359,stimuli/card_100_transparent.png,100,11,0,11,0,1,,,,,,,,,,
,,,,ember,A,2024-05-08_14h50.03.370,Slot Machine Game,2023.1.3,MacIntel,60.97560976,,,,,,,,,,,,,,,,,,,,,,,,,,,930,,,,,,,,,,,,,,,,,,,,,9,9,,,602.0896,12,up,0.2426,,1.5,0.3,"[3,1,2]",0.79782244,stimuli/card_100_transparent.png,100,12,0,12,0,1,,,,,,,,,,
,,,,ember,A,2024-05-08_14h50.03.370,Slot Machine Game,2023.1.3,MacIntel,60.97560976,,,,,,,,,,,,,,,,,,,,,,,,,,,930,,,,,,,,,,,,,,,,,,,,,9,9,,,604.6443,13,up,0.3988,,0.5,0.3,"[3,1,2]",0.011917222,stimuli/card_0_transparent.png,0,13,0,13,0,1,,,,,,,,,,
,,,,ember,A,2024-05-08_14h50.03.370,Slot Machine Game,2023.1.3,MacIntel,60.97560976,,,,,,,,,,,,,,,,,,,,,,,,,,,930,,,,,,,,,,,,,,,,,,,,,9,9,,,606.3613,14,up,0.0449,,0.5,0.3,"[3,1,2]",0.095820113,stimuli/card_0_transparent.png,0,14,0,14,0,1,,,,,,,,,,
,,,,ember,A,2024-05-08_14h50.03.370,Slot Machine Game,2023.1.3,MacIntel,60.97560976,,,,,,,,,,,,,,,,,,,,,,,,,,,,,,,,,,,607.7293,,,,,,,,,,,,,,,,,,,,,,,,,,,,,,,,,"[940,520,10,220,1310,530,230,120,930]",8,0,8,0,1,,,,
,,,,ember,A,2024-05-08_14h50.03.370,Slot Machine Game,2023.1.3,MacIntel,60.97560976,,,,,,,,,,,,,,,,,,,,,,,,,,,0,,,,,,,,,,,,,,,,,,,,,10,6,"[4,10,15]","[[2,3,1],[1,3,2],[3,2,1]]",612.7343,0,up,1.8905,,0.5,0.3,"[2,3,1]",0.705371095,stimuli/card_0_transparent.png,0,0,0,0,0,1,,,,,,,,,,
,,,,ember,A,2024-05-08_14h50.03.370,Slot Machine Game,2023.1.3,MacIntel,60.97560976,,,,,,,,,,,,,,,,,,,,,,,,,,,10,,,,,,,,,,,,,,,,,,,,,10,6,,,615.9506,1,up,0.4205,,0.5,0.3,"[2,3,1]",0.111705367,stimuli/card_10_transparent.png,10,1,0,1,0,1,,,,,,,,,,
,,,,ember,A,2024-05-08_14h50.03.370,Slot Machine Game,2023.1.3,MacIntel,60.97560976,,,,,,,,,,,,,,,,,,,,,,,,,,,10,,,,,,,,,,,,,,,,,,,,,10,6,,,617.7068,2,up,3.18,,1.5,0.3,"[2,3,1]",0.487614113,stimuli/card_0_transparent.png,0,2,0,2,0,1,,,,,,,,,,
,,,,ember,A,2024-05-08_14h50.03.370,Slot Machine Game,2023.1.3,MacIntel,60.97560976,,,,,,,,,,,,,,,,,,,,,,,,,,,10,,,,,,,,,,,,,,,,,,,,,10,6,,,623.2373,3,up,0.2733,,1.5,0.3,"[2,3,1]",0.909044284,stimuli/card_0_transparent.png,0,3,0,3,0,1,,,,,,,,,,
,,,,ember,A,2024-05-08_14h50.03.370,Slot Machine Game,2023.1.3,MacIntel,60.97560976,,,,,,,,,,,,,,,,,,,,,,,,,,,20,,,,,,,,,,,,,,,,,,,,,10,6,,,625.8227,4,up,2.263,,0.5,0.3,"[1,3,2]",0.10214494,stimuli/card_10_transparent.png,10,4,0,4,0,1,,,,,,,,,,
,,,,ember,A,2024-05-08_14h50.03.370,Slot Machine Game,2023.1.3,MacIntel,60.97560976,,,,,,,,,,,,,,,,,,,,,,,,,,,20,,,,,,,,,,,,,,,,,,,,,10,6,,,629.3913,5,up,0.1419,,1,0.3,"[1,3,2]",0.991717626,stimuli/card_0_transparent.png,0,5,0,5,0,1,,,,,,,,,,
,,,,ember,A,2024-05-08_14h50.03.370,Slot Machine Game,2023.1.3,MacIntel,60.97560976,,,,,,,,,,,,,,,,,,,,,,,,,,,20,,,,,,,,,,,,,,,,,,,,,10,6,,,631.3592,6,up,0.515,,0.5,0.3,"[1,3,2]",0.645561511,stimuli/card_0_transparent.png,0,6,0,6,0,1,,,,,,,,,,
,,,,ember,A,2024-05-08_14h50.03.370,Slot Machine Game,2023.1.3,MacIntel,60.97560976,,,,,,,,,,,,,,,,,,,,,,,,,,,20,,,,,,,,,,,,,,,,,,,,,10,6,,,633.1937,7,up,2.9502,,0.5,0.3,"[1,3,2]",0.814346474,stimuli/card_0_transparent.png,0,7,0,7,0,1,,,,,,,,,,
,,,,ember,A,2024-05-08_14h50.03.370,Slot Machine Game,2023.1.3,MacIntel,60.97560976,,,,,,,,,,,,,,,,,,,,,,,,,,,30,,,,,,,,,,,,,,,,,,,,,10,6,,,637.4803,8,up,0.7093,,1,0.3,"[1,3,2]",0.165719329,stimuli/card_10_transparent.png,10,8,0,8,0,1,,,,,,,,,,
,,,,ember,A,2024-05-08_14h50.03.370,Slot Machine Game,2023.1.3,MacIntel,60.97560976,,,,,,,,,,,,,,,,,,,,,,,,,,,,,,,,,,,,,,,,,,,,,,,,10,6,,,639.9924,9,,,,1,0.3,,,,,9,0,9,0,1,,,,,,,,,,
,,,,ember,A,2024-05-08_14h50.03.370,Slot Machine Game,2023.1.3,MacIntel,60.97560976,,,,,,,,,,,,,,,,,,,,,,,,,,,40,,,,,,,,,,,,,,,,,,,,,10,6,,,645.5025,10,up,3.6875,,1.5,0.3,"[3,2,1]",0.615159675,stimuli/card_10_transparent.png,10,10,0,10,0,1,,,,,,,,,,
,,,,ember,A,2024-05-08_14h50.03.370,Slot Machine Game,2023.1.3,MacIntel,60.97560976,,,,,,,,,,,,,,,,,,,,,,,,,,,50,,,,,,,,,,,,,,,,,,,,,10,6,,,651.5207,11,up,0.5744,,0.5,0.3,"[3,2,1]",0.468356569,stimuli/card_10_transparent.png,10,11,0,11,0,1,,,,,,,,,,
,,,,ember,A,2024-05-08_14h50.03.370,Slot Machine Game,2023.1.3,MacIntel,60.97560976,,,,,,,,,,,,,,,,,,,,,,,,,,,50,,,,,,,,,,,,,,,,,,,,,10,6,,,653.407,12,up,0.0378,,0.5,0.3,"[3,2,1]",0.054687559,stimuli/card_0_transparent.png,0,12,0,12,0,1,,,,,,,,,,
,,,,ember,A,2024-05-08_14h50.03.370,Slot Machine Game,2023.1.3,MacIntel,60.97560976,,,,,,,,,,,,,,,,,,,,,,,,,,,60,,,,,,,,,,,,,,,,,,,,,10,6,,,654.768,13,up,1.3783,,1,0.3,"[3,2,1]",0.343666769,stimuli/card_10_transparent.png,10,13,0,13,0,1,,,,,,,,,,
,,,,ember,A,2024-05-08_14h50.03.370,Slot Machine Game,2023.1.3,MacIntel,60.97560976,,,,,,,,,,,,,,,,,,,,,,,,,,,70,,,,,,,,,,,,,,,,,,,,,10,6,,,657.9574,14,up,0.1123,,1,0.3,"[3,2,1]",0.890983678,stimuli/card_10_transparent.png,10,14,0,14,0,1,,,,,,,,,,
,,,,ember,A,2024-05-08_14h50.03.370,Slot Machine Game,2023.1.3,MacIntel,60.97560976,,,,,,,,,,,,,,,,,,,,,,,,,,,,,,,,,,,659.8967,,,,,,,,,,,,,,,,,,,,,,,,,,,,,,,,,"[940,520,10,220,1310,530,230,120,930,70]",9,0,9,0,1,,,,
,,,,ember,A,2024-05-08_14h50.03.370,Slot Machine Game,2023.1.3,MacIntel,60.97560976,,,,,,,,,,,,,,,,,,,,,,,,,,,,,,,,,,,,,,,,,,,,,,,,,,,,,,,,,,,,,,,,,,,,,,,,,,9,"[940,520,10,220,1310,530,230,120,930,70]",131,2024-05-08_15h01.12.441
