key_resp_welcome_started,key_resp_welcome_keys,key_resp_welcome_rt,key_resp_welcome_duration,prolific_id,path_id,date,expName,psychopyVersion,OS,frameRate,key_resp_instruction1_started,key_resp_instruction1_keys,key_resp_instruction1_rt,key_resp_instruction1_duration,key_resp_instruction2_started,key_resp_instruction2_keys,key_resp_instruction2_rt,key_resp_instruction2_duration,key_resp_instruction3_started,key_resp_instruction3_keys,key_resp_instruction3_rt,key_resp_instruction3_duration,key_resp_instruction4_started,key_resp_instruction4_keys,key_resp_instruction4_rt,key_resp_instruction4_duration,practiceCondition,practice_reward_seqs,practice_trial_started,practice_trial_num,practice_resp_rt,practice_resp_duration,practice_resp_keys,prac_presentationInterval,"practice_reward_seq: 2,1,3",reward_img,cumulative_reward,trial_reward,practice_trials.thisRepN,practice_trials.thisTrialN,practice_trials.thisN,practice_trials.thisIndex,practice_trials.ran,"practice_reward_seq: 2,3,1",block_break_started,block_reward,"practice_reward_seq: 1,3,2","practice_reward_seq: 3,1,2",practice_end_time,practice_end_keys,practice_end_rt,practice_end_duration,main_instruction_text_started,block_condition,block_order_indices,main_instruction_keys,main_instruction_rt,main_instruction_duration,block_number,block_assignment,current_condition,main_reward_seqs,main_trial_started,main_trial_num,main_trial_keys,main_trial_rt,main_trial_duration,main_presentationInterval,reward_presentation_time,main_reward_seq,reward_rand_val,main_reward_img,current_reward,main_trials.thisRepN,main_trials.thisTrialN,main_trials.thisN,main_trials.thisIndex,main_trials.ran,block.thisRepN,block.thisTrialN,block.thisN,block.thisIndex,block.ran,block_reward.length,block_reward_all,reward_amount,date_end_task
0.0036,space,1.3306,,ember,A,2024-05-08_14h16.38.759,Slot Machine Game,2023.1.3,MacIntel,60.60606061,,,,,,,,,,,,,,,,,,,,,,,,,,,,,,,,,,,,,,,,,,,,,,,,,,,,,,,,,,,,,,,,,,,,,,,,,,,,,
,,,,ember,A,2024-05-08_14h16.38.759,Slot Machine Game,2023.1.3,MacIntel,60.60606061,1.3695,space,0.6016,,,,,,,,,,,,,,,,,,,,,,,,,,,,,,,,,,,,,,,,,,,,,,,,,,,,,,,,,,,,,,,,,,,,,,,,,,
,,,,ember,A,2024-05-08_14h16.38.759,Slot Machine Game,2023.1.3,MacIntel,60.60606061,,,,,1.9897,space,0.3885,,,,,,,,,,,,,,,,,,,,,,,,,,,,,,,,,,,,,,,,,,,,,,,,,,,,,,,,,,,,,,,,,,,,,,
,,,,ember,A,2024-05-08_14h16.38.759,Slot Machine Game,2023.1.3,MacIntel,60.60606061,,,,,,,,,2.4001,space,0.4097,,,,,,,,,,,,,,,,,,,,,,,,,,,,,,,,,,,,,,,,,,,,,,,,,,,,,,,,,,,,,,,,,,
,,,,ember,A,2024-05-08_14h16.38.759,Slot Machine Game,2023.1.3,MacIntel,60.60606061,,,,,,,,,,,,,,,,,,,,,,,,,,,,,,,,,,,,,,,,,,,,,,,,,,,,,,,,,,,,,,,,,,,,,,,,,,,,,
,,,,ember,A,2024-05-08_14h16.38.759,Slot Machine Game,2023.1.3,MacIntel,60.60606061,,,,,,,,,,,,,144.4542,space,30.1333,,,,,,,,,,,,,,,,,,,,,,,,,,,,,,,,,,,,,,,,,,,,,,,,,,,,,,,,,,,,,,
,,,,ember,A,2024-05-08_14h16.38.759,Slot Machine Game,2023.1.3,MacIntel,60.60606061,,,,,,,,,,,,,,,,,"[9,15]","[[2,1,3],[2,3,1]]",174.6089,0,2.1251,,left,1.5,,stimuli/card_100_transparent.png,100,100,0,0,0,0,1,,,,,,,,,,,,,,,,,,,,,,,,,,,,,,,,,,,,,,,,,,,,
,,,,ember,A,2024-05-08_14h16.38.759,Slot Machine Game,2023.1.3,MacIntel,60.60606061,,,,,,,,,,,,,,,,,,,179.0346,1,0.1318,0.0012,up,1.5,,stimuli/card_10_transparent.png,110,10,1,0,1,0,1,,,,,,,,,,,,,,,,,,,,,,,,,,,,,,,,,,,,,,,,,,,,
,,,,ember,A,2024-05-08_14h16.38.759,Slot Machine Game,2023.1.3,MacIntel,60.60606061,,,,,,,,,,,,,,,,,,,181.47,2,0.2422,0.0048,up,1,,stimuli/card_0_transparent.png,110,0,2,0,2,0,1,,,,,,,,,,,,,,,,,,,,,,,,,,,,,,,,,,,,,,,,,,,,
,,,,ember,A,2024-05-08_14h16.38.759,Slot Machine Game,2023.1.3,MacIntel,60.60606061,,,,,,,,,,,,,,,,,,,183.5437,3,3.3979,,up,1,,stimuli/card_100_transparent.png,210,100,3,0,3,0,1,,,,,,,,,,,,,,,,,,,,,,,,,,,,,,,,,,,,,,,,,,,,
,,,,ember,A,2024-05-08_14h16.38.759,Slot Machine Game,2023.1.3,MacIntel,60.60606061,,,,,,,,,,,,,,,,,,,188.7686,4,0.1239,,left,0.5,,stimuli/card_10_transparent.png,220,10,4,0,4,0,1,,,,,,,,,,,,,,,,,,,,,,,,,,,,,,,,,,,,,,,,,,,,
,,,,ember,A,2024-05-08_14h16.38.759,Slot Machine Game,2023.1.3,MacIntel,60.60606061,,,,,,,,,,,,,,,,,,,190.2118,5,3.2803,,left,0.5,,stimuli/card_10_transparent.png,230,10,5,0,5,0,1,,,,,,,,,,,,,,,,,,,,,,,,,,,,,,,,,,,,,,,,,,,,
,,,,ember,A,2024-05-08_14h16.38.759,Slot Machine Game,2023.1.3,MacIntel,60.60606061,,,,,,,,,,,,,,,,,,,194.8149,6,1.0289,,left,1,,stimuli/card_10_transparent.png,240,10,6,0,6,0,1,,,,,,,,,,,,,,,,,,,,,,,,,,,,,,,,,,,,,,,,,,,,
,,,,ember,A,2024-05-08_14h16.38.759,Slot Machine Game,2023.1.3,MacIntel,60.60606061,,,,,,,,,,,,,,,,,,,197.6562,7,3.2745,,left,0.5,,stimuli/card_0_transparent.png,240,0,7,0,7,0,1,,,,,,,,,,,,,,,,,,,,,,,,,,,,,,,,,,,,,,,,,,,,
,,,,ember,A,2024-05-08_14h16.38.759,Slot Machine Game,2023.1.3,MacIntel,60.60606061,,,,,,,,,,,,,,,,,,,202.2191,8,1.5523,,left,1.5,,stimuli/card_0_transparent.png,240,0,8,0,8,0,1,,,,,,,,,,,,,,,,,,,,,,,,,,,,,,,,,,,,,,,,,,,,
,,,,ember,A,2024-05-08_14h16.38.759,Slot Machine Game,2023.1.3,MacIntel,60.60606061,,,,,,,,,,,,,,,,,,,206.1037,9,0.0589,,left,1.5,,stimuli/card_10_transparent.png,250,10,9,0,9,0,1,,,,,,,,,,,,,,,,,,,,,,,,,,,,,,,,,,,,,,,,,,,,
,,,,ember,A,2024-05-08_14h16.38.759,Slot Machine Game,2023.1.3,MacIntel,60.60606061,,,,,,,,,,,,,,,,,,,208.4824,10,0.2151,,left,1.5,,stimuli/card_10_transparent.png,260,10,10,0,10,0,1,,,,,,,,,,,,,,,,,,,,,,,,,,,,,,,,,,,,,,,,,,,,
,,,,ember,A,2024-05-08_14h16.38.759,Slot Machine Game,2023.1.3,MacIntel,60.60606061,,,,,,,,,,,,,,,,,,,211.0241,11,0.1415,,left,1,,stimuli/card_10_transparent.png,270,10,11,0,11,0,1,,,,,,,,,,,,,,,,,,,,,,,,,,,,,,,,,,,,,,,,,,,,
,,,,ember,A,2024-05-08_14h16.38.759,Slot Machine Game,2023.1.3,MacIntel,60.60606061,,,,,,,,,,,,,,,,,,,212.9912,12,0.054,,left,1,,stimuli/card_10_transparent.png,280,10,12,0,12,0,1,,,,,,,,,,,,,,,,,,,,,,,,,,,,,,,,,,,,,,,,,,,,
,,,,ember,A,2024-05-08_14h16.38.759,Slot Machine Game,2023.1.3,MacIntel,60.60606061,,,,,,,,,,,,,,,,,,,214.8589,13,1.2158,,left,1.5,,stimuli/card_10_transparent.png,290,10,13,0,13,0,1,,,,,,,,,,,,,,,,,,,,,,,,,,,,,,,,,,,,,,,,,,,,
,,,,ember,A,2024-05-08_14h16.38.759,Slot Machine Game,2023.1.3,MacIntel,60.60606061,,,,,,,,,,,,,,,,,,,218.3947,14,,,,1,,,,,14,0,14,0,1,,,,,,,,,,,,,,,,,,,,,,,,,,,,,,,,,,,,,,,,,,,,
,,,,ember,A,2024-05-08_14h16.38.759,Slot Machine Game,2023.1.3,MacIntel,60.60606061,,,,,,,,,,,,,,,,,"[6,15]","[[1,3,2],[3,1,2]]",228.9031,0,0.0044,,right,1,,stimuli/card_100_transparent.png,100,100,0,0,0,0,1,,223.9045,[290],,,,,,,,,,,,,,,,,,,,,,,,,,,,,,,,,,,,,,,,,
,,,,ember,A,2024-05-08_14h16.38.759,Slot Machine Game,2023.1.3,MacIntel,60.60606061,,,,,,,,,,,,,,,,,,,230.7345,1,0.1336,,right,1,,stimuli/card_10_transparent.png,110,10,1,0,1,0,1,,,,,,,,,,,,,,,,,,,,,,,,,,,,,,,,,,,,,,,,,,,,
,,,,ember,A,2024-05-08_14h16.38.759,Slot Machine Game,2023.1.3,MacIntel,60.60606061,,,,,,,,,,,,,,,,,,,232.6852,2,0.1776,,right,1.5,,stimuli/card_10_transparent.png,120,10,2,0,2,0,1,,,,,,,,,,,,,,,,,,,,,,,,,,,,,,,,,,,,,,,,,,,,
,,,,ember,A,2024-05-08_14h16.38.759,Slot Machine Game,2023.1.3,MacIntel,60.60606061,,,,,,,,,,,,,,,,,,,235.171,3,0.0244,,right,1,,stimuli/card_10_transparent.png,130,10,3,0,3,0,1,,,,,,,,,,,,,,,,,,,,,,,,,,,,,,,,,,,,,,,,,,,,
,,,,ember,A,2024-05-08_14h16.38.759,Slot Machine Game,2023.1.3,MacIntel,60.60606061,,,,,,,,,,,,,,,,,,,237.0049,4,0.0943,,up,1.5,,stimuli/card_0_transparent.png,130,0,4,0,4,0,1,,,,,,,,,,,,,,,,,,,,,,,,,,,,,,,,,,,,,,,,,,,,
,,,,ember,A,2024-05-08_14h16.38.759,Slot Machine Game,2023.1.3,MacIntel,60.60606061,,,,,,,,,,,,,,,,,,,239.4059,5,0.133,,up,1,,stimuli/card_10_transparent.png,140,10,5,0,5,0,1,,,,,,,,,,,,,,,,,,,,,,,,,,,,,,,,,,,,,,,,,,,,
,,,,ember,A,2024-05-08_14h16.38.759,Slot Machine Game,2023.1.3,MacIntel,60.60606061,,,,,,,,,,,,,,,,,,,241.3568,6,0.1291,,right,1,,stimuli/card_10_transparent.png,150,10,6,0,6,0,1,,,,,,,,,,,,,,,,,,,,,,,,,,,,,,,,,,,,,,,,,,,,
,,,,ember,A,2024-05-08_14h16.38.759,Slot Machine Game,2023.1.3,MacIntel,60.60606061,,,,,,,,,,,,,,,,,,,243.3091,7,0.0384,,up,1,,stimuli/card_100_transparent.png,250,100,7,0,7,0,1,,,,,,,,,,,,,,,,,,,,,,,,,,,,,,,,,,,,,,,,,,,,
,,,,ember,A,2024-05-08_14h16.38.759,Slot Machine Game,2023.1.3,MacIntel,60.60606061,,,,,,,,,,,,,,,,,,,245.2098,8,0.0503,,up,1,,stimuli/card_100_transparent.png,350,100,8,0,8,0,1,,,,,,,,,,,,,,,,,,,,,,,,,,,,,,,,,,,,,,,,,,,,
,,,,ember,A,2024-05-08_14h16.38.759,Slot Machine Game,2023.1.3,MacIntel,60.60606061,,,,,,,,,,,,,,,,,,,247.0777,9,0.1021,,up,1,,stimuli/card_10_transparent.png,360,10,9,0,9,0,1,,,,,,,,,,,,,,,,,,,,,,,,,,,,,,,,,,,,,,,,,,,,
,,,,ember,A,2024-05-08_14h16.38.759,Slot Machine Game,2023.1.3,MacIntel,60.60606061,,,,,,,,,,,,,,,,,,,249.0174,10,0.0005,,up,1,,stimuli/card_100_transparent.png,460,100,10,0,10,0,1,,,,,,,,,,,,,,,,,,,,,,,,,,,,,,,,,,,,,,,,,,,,
,,,,ember,A,2024-05-08_14h16.38.759,Slot Machine Game,2023.1.3,MacIntel,60.60606061,,,,,,,,,,,,,,,,,,,250.8455,11,0.1288,,up,1.5,,stimuli/card_10_transparent.png,470,10,11,0,11,0,1,,,,,,,,,,,,,,,,,,,,,,,,,,,,,,,,,,,,,,,,,,,,
,,,,ember,A,2024-05-08_14h16.38.759,Slot Machine Game,2023.1.3,MacIntel,60.60606061,,,,,,,,,,,,,,,,,,,253.2772,12,0.0211,,up,1,,stimuli/card_100_transparent.png,570,100,12,0,12,0,1,,,,,,,,,,,,,,,,,,,,,,,,,,,,,,,,,,,,,,,,,,,,
,,,,ember,A,2024-05-08_14h16.38.759,Slot Machine Game,2023.1.3,MacIntel,60.60606061,,,,,,,,,,,,,,,,,,,255.0789,13,0.0586,,up,0.5,,stimuli/card_100_transparent.png,670,100,13,0,13,0,1,,,,,,,,,,,,,,,,,,,,,,,,,,,,,,,,,,,,,,,,,,,,
,,,,ember,A,2024-05-08_14h16.38.759,Slot Machine Game,2023.1.3,MacIntel,60.60606061,,,,,,,,,,,,,,,,,,,256.4489,14,0.0091,,up,1,,stimuli/card_100_transparent.png,770,100,14,0,14,0,1,,,,,,,,,,,,,,,,,,,,,,,,,,,,,,,,,,,,,,,,,,,,
,,,,ember,A,2024-05-08_14h16.38.759,Slot Machine Game,2023.1.3,MacIntel,60.60606061,,,,,,,,,,,,,,,,,,,,,,,,,,,,,,,,,,,258.2668,"[290,770]",,,263.2716,space,12.1153,,,,,,,,,,,,,,,,,,,,,,,,,,,,,,,,,,,,
,,,,ember,A,2024-05-08_14h16.38.759,Slot Machine Game,2023.1.3,MacIntel,60.60606061,,,,,,,,,,,,,,,,,,,,,,,,,,,,,,,,,,,,,,,,,,,275.4107,2,"[2,4,8,0,1,3,9,6,8,5]",space,0.4422,,,,,,,,,,,,,,,,,,,,,,,,,,,,,,
,,,,ember,A,2024-05-08_14h16.38.759,Slot Machine Game,2023.1.3,MacIntel,60.60606061,,,,,,,,,,,,,,,,,,,,,,,,,,,0,,,,,,,,,,,,,,,,,,,,,,1,3,"[15,15]","[[3,1,2],[3,1,2]]",275.8812,0,left,0.5756,,0.5,0.3,"[3,1,2]",0.352861894,stimuli/card_0_transparent.png,0,0,0,0,0,1,,,,,,,,,
,,,,ember,A,2024-05-08_14h16.38.759,Slot Machine Game,2023.1.3,MacIntel,60.60606061,,,,,,,,,,,,,,,,,,,,,,,,,,,100,,,,,,,,,,,,,,,,,,,,,,1,3,,,277.7778,1,up,0.0012,,1,0.3,"[3,1,2]",0.783130329,stimuli/card_100_transparent.png,100,1,0,1,0,1,,,,,,,,,
,,,,ember,A,2024-05-08_14h16.38.759,Slot Machine Game,2023.1.3,MacIntel,60.60606061,,,,,,,,,,,,,,,,,,,,,,,,,,,200,,,,,,,,,,,,,,,,,,,,,,1,3,,,279.595,2,up,0.0829,,1,0.3,"[3,1,2]",0.355380192,stimuli/card_100_transparent.png,100,2,0,2,0,1,,,,,,,,,
,,,,ember,A,2024-05-08_14h16.38.759,Slot Machine Game,2023.1.3,MacIntel,60.60606061,,,,,,,,,,,,,,,,,,,,,,,,,,,300,,,,,,,,,,,,,,,,,,,,,,1,3,,,281.4866,3,up,0.0432,,1.5,0.3,"[3,1,2]",0.506831781,stimuli/card_100_transparent.png,100,3,0,3,0,1,,,,,,,,,
,,,,ember,A,2024-05-08_14h16.38.759,Slot Machine Game,2023.1.3,MacIntel,60.60606061,,,,,,,,,,,,,,,,,,,,,,,,,,,400,,,,,,,,,,,,,,,,,,,,,,1,3,,,283.8315,4,up,0.3341,,1.5,0.3,"[3,1,2]",0.766643828,stimuli/card_100_transparent.png,100,4,0,4,0,1,,,,,,,,,
,,,,ember,A,2024-05-08_14h16.38.759,Slot Machine Game,2023.1.3,MacIntel,60.60606061,,,,,,,,,,,,,,,,,,,,,,,,,,,500,,,,,,,,,,,,,,,,,,,,,,1,3,,,286.4822,5,up,0.5773,,1.5,0.3,"[3,1,2]",0.659856028,stimuli/card_100_transparent.png,100,5,0,5,0,1,,,,,,,,,
,,,,ember,A,2024-05-08_14h16.38.759,Slot Machine Game,2023.1.3,MacIntel,60.60606061,,,,,,,,,,,,,,,,,,,,,,,,,,,600,,,,,,,,,,,,,,,,,,,,,,1,3,,,289.3629,6,up,0.5515,,1.5,0.3,"[3,1,2]",0.315000096,stimuli/card_100_transparent.png,100,6,0,6,0,1,,,,,,,,,
,,,,ember,A,2024-05-08_14h16.38.759,Slot Machine Game,2023.1.3,MacIntel,60.60606061,,,,,,,,,,,,,,,,,,,,,,,,,,,700,,,,,,,,,,,,,,,,,,,,,,1,3,,,292.2313,7,up,0.1442,,1.5,0.3,"[3,1,2]",0.64115253,stimuli/card_100_transparent.png,100,7,0,7,0,1,,,,,,,,,
,,,,ember,A,2024-05-08_14h16.38.759,Slot Machine Game,2023.1.3,MacIntel,60.60606061,,,,,,,,,,,,,,,,,,,,,,,,,,,800,,,,,,,,,,,,,,,,,,,,,,1,3,,,294.6825,8,up,1.1262,,0.5,0.3,"[3,1,2]",0.559878731,stimuli/card_100_transparent.png,100,8,0,8,0,1,,,,,,,,,
,,,,ember,A,2024-05-08_14h16.38.759,Slot Machine Game,2023.1.3,MacIntel,60.60606061,,,,,,,,,,,,,,,,,,,,,,,,,,,810,,,,,,,,,,,,,,,,,,,,,,1,3,,,297.1176,9,up,0.3373,,1,0.3,"[3,1,2]",0.101745255,stimuli/card_10_transparent.png,10,9,0,9,0,1,,,,,,,,,
,,,,ember,A,2024-05-08_14h16.38.759,Slot Machine Game,2023.1.3,MacIntel,60.60606061,,,,,,,,,,,,,,,,,,,,,,,,,,,910,,,,,,,,,,,,,,,,,,,,,,1,3,,,299.2736,10,up,0.0168,,0.5,0.3,"[3,1,2]",0.915316696,stimuli/card_100_transparent.png,100,10,0,10,0,1,,,,,,,,,
,,,,ember,A,2024-05-08_14h16.38.759,Slot Machine Game,2023.1.3,MacIntel,60.60606061,,,,,,,,,,,,,,,,,,,,,,,,,,,1010,,,,,,,,,,,,,,,,,,,,,,1,3,,,300.6233,11,up,0.0206,,1.5,0.3,"[3,1,2]",0.693461147,stimuli/card_100_transparent.png,100,11,0,11,0,1,,,,,,,,,
,,,,ember,A,2024-05-08_14h16.38.759,Slot Machine Game,2023.1.3,MacIntel,60.60606061,,,,,,,,,,,,,,,,,,,,,,,,,,,1020,,,,,,,,,,,,,,,,,,,,,,1,3,,,302.959,12,up,0.1479,,0.5,0.3,"[3,1,2]",0.104936686,stimuli/card_10_transparent.png,10,12,0,12,0,1,,,,,,,,,
,,,,ember,A,2024-05-08_14h16.38.759,Slot Machine Game,2023.1.3,MacIntel,60.60606061,,,,,,,,,,,,,,,,,,,,,,,,,,,1120,,,,,,,,,,,,,,,,,,,,,,1,3,,,304.4275,13,up,0.0698,,0.5,0.3,"[3,1,2]",0.95891224,stimuli/card_100_transparent.png,100,13,0,13,0,1,,,,,,,,,
,,,,ember,A,2024-05-08_14h16.38.759,Slot Machine Game,2023.1.3,MacIntel,60.60606061,,,,,,,,,,,,,,,,,,,,,,,,,,,1220,,,,,,,,,,,,,,,,,,,,,,1,3,,,305.8268,14,up,0.0774,,1.5,0.3,"[3,1,2]",0.693271231,stimuli/card_100_transparent.png,100,14,0,14,0,1,,,,,,,,,
,,,,ember,A,2024-05-08_14h16.38.759,Slot Machine Game,2023.1.3,MacIntel,60.60606061,,,,,,,,,,,,,,,,,,,,,,,,,,,,,,,,,,,308.2283,"[290,770,1220]",,,,,,,,,,,,,,,,,,,,,,,,,,,,,,,,,0,0,0,0,1,,,,
,,,,ember,A,2024-05-08_14h16.38.759,Slot Machine Game,2023.1.3,MacIntel,60.60606061,,,,,,,,,,,,,,,,,,,,,,,,,,,0,,,,,,,,,,,,,,,,,,,,,,2,5,"[5,15]","[[1,2,3],[3,1,2]]",313.2347,0,right,0.2149,,1.5,0.3,"[1,2,3]",0.977018564,stimuli/card_0_transparent.png,0,0,0,0,0,1,,,,,,,,,
,,,,ember,A,2024-05-08_14h16.38.759,Slot Machine Game,2023.1.3,MacIntel,60.60606061,,,,,,,,,,,,,,,,,,,,,,,,,,,0,,,,,,,,,,,,,,,,,,,,,,2,5,,,315.7828,1,right,0.0303,,0.5,0.3,"[1,2,3]",0.480482436,stimuli/card_0_transparent.png,0,1,0,1,0,1,,,,,,,,,
,,,,ember,A,2024-05-08_14h16.38.759,Slot Machine Game,2023.1.3,MacIntel,60.60606061,,,,,,,,,,,,,,,,,,,,,,,,,,,100,,,,,,,,,,,,,,,,,,,,,,2,5,,,317.1328,2,right,0.0427,,1,0.3,"[1,2,3]",0.031381025,stimuli/card_100_transparent.png,100,2,0,2,0,1,,,,,,,,,
,,,,ember,A,2024-05-08_14h16.38.759,Slot Machine Game,2023.1.3,MacIntel,60.60606061,,,,,,,,,,,,,,,,,,,,,,,,,,,100,,,,,,,,,,,,,,,,,,,,,,2,5,,,318.9845,3,right,0.1355,,1,0.3,"[1,2,3]",0.371129891,stimuli/card_0_transparent.png,0,3,0,3,0,1,,,,,,,,,
,,,,ember,A,2024-05-08_14h16.38.759,Slot Machine Game,2023.1.3,MacIntel,60.60606061,,,,,,,,,,,,,,,,,,,,,,,,,,,200,,,,,,,,,,,,,,,,,,,,,,2,5,,,320.9358,4,right,0.1338,,0.5,0.3,"[1,2,3]",0.01045955,stimuli/card_100_transparent.png,100,4,0,4,0,1,,,,,,,,,
,,,,ember,A,2024-05-08_14h16.38.759,Slot Machine Game,2023.1.3,MacIntel,60.60606061,,,,,,,,,,,,,,,,,,,,,,,,,,,210,,,,,,,,,,,,,,,,,,,,,,2,5,,,322.3862,5,right,0.1263,,1,0.3,"[3,1,2]",0.694636216,stimuli/card_10_transparent.png,10,5,0,5,0,1,,,,,,,,,
,,,,ember,A,2024-05-08_14h16.38.759,Slot Machine Game,2023.1.3,MacIntel,60.60606061,,,,,,,,,,,,,,,,,,,,,,,,,,,220,,,,,,,,,,,,,,,,,,,,,,2,5,,,324.3369,6,right,0.6018,,1.5,0.3,"[3,1,2]",0.475467214,stimuli/card_10_transparent.png,10,6,0,6,0,1,,,,,,,,,
,,,,ember,A,2024-05-08_14h16.38.759,Slot Machine Game,2023.1.3,MacIntel,60.60606061,,,,,,,,,,,,,,,,,,,,,,,,,,,230,,,,,,,,,,,,,,,,,,,,,,2,5,,,327.2559,7,right,0.0924,,0.5,0.3,"[3,1,2]",0.86334594,stimuli/card_10_transparent.png,10,7,0,7,0,1,,,,,,,,,
,,,,ember,A,2024-05-08_14h16.38.759,Slot Machine Game,2023.1.3,MacIntel,60.60606061,,,,,,,,,,,,,,,,,,,,,,,,,,,240,,,,,,,,,,,,,,,,,,,,,,2,5,,,328.69,8,right,0.0129,,1.5,0.3,"[3,1,2]",0.853082776,stimuli/card_10_transparent.png,10,8,0,8,0,1,,,,,,,,,
,,,,ember,A,2024-05-08_14h16.38.759,Slot Machine Game,2023.1.3,MacIntel,60.60606061,,,,,,,,,,,,,,,,,,,,,,,,,,,250,,,,,,,,,,,,,,,,,,,,,,2,5,,,331.0413,9,right,0.097,,0.5,0.3,"[3,1,2]",0.563427837,stimuli/card_10_transparent.png,10,9,0,9,0,1,,,,,,,,,
,,,,ember,A,2024-05-08_14h16.38.759,Slot Machine Game,2023.1.3,MacIntel,60.60606061,,,,,,,,,,,,,,,,,,,,,,,,,,,260,,,,,,,,,,,,,,,,,,,,,,2,5,,,332.4589,10,right,0.1609,,1,0.3,"[3,1,2]",0.445716891,stimuli/card_10_transparent.png,10,10,0,10,0,1,,,,,,,,,
,,,,ember,A,2024-05-08_14h16.38.759,Slot Machine Game,2023.1.3,MacIntel,60.60606061,,,,,,,,,,,,,,,,,,,,,,,,,,,360,,,,,,,,,,,,,,,,,,,,,,2,5,,,334.4433,11,right,0.1016,,1.5,0.3,"[3,1,2]",0.115491453,stimuli/card_100_transparent.png,100,11,0,11,0,1,,,,,,,,,
,,,,ember,A,2024-05-08_14h16.38.759,Slot Machine Game,2023.1.3,MacIntel,60.60606061,,,,,,,,,,,,,,,,,,,,,,,,,,,,,,,,,,,,,,,,,,,,,,,,,2,5,,,336.8574,12,,,,1.5,0.3,,,,,12,0,12,0,1,,,,,,,,,
,,,,ember,A,2024-05-08_14h16.38.759,Slot Machine Game,2023.1.3,MacIntel,60.60606061,,,,,,,,,,,,,,,,,,,,,,,,,,,370,,,,,,,,,,,,,,,,,,,,,,2,5,,,342.3683,13,right,0.2233,,1.5,0.3,"[3,1,2]",0.599132845,stimuli/card_10_transparent.png,10,13,0,13,0,1,,,,,,,,,
,,,,ember,A,2024-05-08_14h16.38.759,Slot Machine Game,2023.1.3,MacIntel,60.60606061,,,,,,,,,,,,,,,,,,,,,,,,,,,380,,,,,,,,,,,,,,,,,,,,,,2,5,,,344.9111,14,right,3.0675,,0.5,0.3,"[3,1,2]",0.848367373,stimuli/card_10_transparent.png,10,14,0,14,0,1,,,,,,,,,
,,,,ember,A,2024-05-08_14h16.38.759,Slot Machine Game,2023.1.3,MacIntel,60.60606061,,,,,,,,,,,,,,,,,,,,,,,,,,,,,,,,,,,349.3017,"[290,770,1220,380]",,,,,,,,,,,,,,,,,,,,,,,,,,,,,,,,,1,0,1,0,1,,,,
,,,,ember,A,2024-05-08_14h16.38.759,Slot Machine Game,2023.1.3,MacIntel,60.60606061,,,,,,,,,,,,,,,,,,,,,,,,,,,10,,,,,,,,,,,,,,,,,,,,,,3,9,"[8,15]","[[3,2,1],[3,1,2]]",354.3057,0,up,0.0279,,1,0.3,"[3,2,1]",0.676344513,stimuli/card_10_transparent.png,10,0,0,0,0,1,,,,,,,,,
,,,,ember,A,2024-05-08_14h16.38.759,Slot Machine Game,2023.1.3,MacIntel,60.60606061,,,,,,,,,,,,,,,,,,,,,,,,,,,110,,,,,,,,,,,,,,,,,,,,,,3,9,,,356.1549,1,right,0.0032,,1.5,0.3,"[3,2,1]",0.907342509,stimuli/card_100_transparent.png,100,1,0,1,0,1,,,,,,,,,
,,,,ember,A,2024-05-08_14h16.38.759,Slot Machine Game,2023.1.3,MacIntel,60.60606061,,,,,,,,,,,,,,,,,,,,,,,,,,,110,,,,,,,,,,,,,,,,,,,,,,3,9,,,358.4734,2,left,0.092,,1.5,0.3,"[3,2,1]",0.216753503,stimuli/card_0_transparent.png,0,2,0,2,0,1,,,,,,,,,
,,,,ember,A,2024-05-08_14h16.38.759,Slot Machine Game,2023.1.3,MacIntel,60.60606061,,,,,,,,,,,,,,,,,,,,,,,,,,,110,,,,,,,,,,,,,,,,,,,,,,3,9,,,360.8738,3,left,0.0883,,0.5,0.3,"[3,2,1]",0.96033309,stimuli/card_0_transparent.png,0,3,0,3,0,1,,,,,,,,,
,,,,ember,A,2024-05-08_14h16.38.759,Slot Machine Game,2023.1.3,MacIntel,60.60606061,,,,,,,,,,,,,,,,,,,,,,,,,,,110,,,,,,,,,,,,,,,,,,,,,,3,9,,,362.2755,4,left,0.0359,,1.5,0.3,"[3,2,1]",0.91913912,stimuli/card_0_transparent.png,0,4,0,4,0,1,,,,,,,,,
,,,,ember,A,2024-05-08_14h16.38.759,Slot Machine Game,2023.1.3,MacIntel,60.60606061,,,,,,,,,,,,,,,,,,,,,,,,,,,110,,,,,,,,,,,,,,,,,,,,,,3,9,,,364.6436,5,left,0.0392,,1.5,0.3,"[3,2,1]",0.876751535,stimuli/card_0_transparent.png,0,5,0,5,0,1,,,,,,,,,
,,,,ember,A,2024-05-08_14h16.38.759,Slot Machine Game,2023.1.3,MacIntel,60.60606061,,,,,,,,,,,,,,,,,,,,,,,,,,,110,,,,,,,,,,,,,,,,,,,,,,3,9,,,366.9949,6,left,0.0697,,0.5,0.3,"[3,2,1]",0.639599451,stimuli/card_0_transparent.png,0,6,0,6,0,1,,,,,,,,,
,,,,ember,A,2024-05-08_14h16.38.759,Slot Machine Game,2023.1.3,MacIntel,60.60606061,,,,,,,,,,,,,,,,,,,,,,,,,,,110,,,,,,,,,,,,,,,,,,,,,,3,9,,,368.3953,7,left,0.193,,1.5,0.3,"[3,2,1]",0.566358793,stimuli/card_0_transparent.png,0,7,0,7,0,1,,,,,,,,,
,,,,ember,A,2024-05-08_14h16.38.759,Slot Machine Game,2023.1.3,MacIntel,60.60606061,,,,,,,,,,,,,,,,,,,,,,,,,,,120,,,,,,,,,,,,,,,,,,,,,,3,9,,,370.8967,8,left,0.0482,,0.5,0.3,"[3,1,2]",0.18698215,stimuli/card_10_transparent.png,10,8,0,8,0,1,,,,,,,,,
,,,,ember,A,2024-05-08_14h16.38.759,Slot Machine Game,2023.1.3,MacIntel,60.60606061,,,,,,,,,,,,,,,,,,,,,,,,,,,120,,,,,,,,,,,,,,,,,,,,,,3,9,,,372.2654,9,left,0.2249,,1.5,0.3,"[3,1,2]",0.278366043,stimuli/card_0_transparent.png,0,9,0,9,0,1,,,,,,,,,
,,,,ember,A,2024-05-08_14h16.38.759,Slot Machine Game,2023.1.3,MacIntel,60.60606061,,,,,,,,,,,,,,,,,,,,,,,,,,,130,,,,,,,,,,,,,,,,,,,,,,3,9,,,374.8163,10,left,0.017,,1.5,0.3,"[3,1,2]",0.149339394,stimuli/card_10_transparent.png,10,10,0,10,0,1,,,,,,,,,
,,,,ember,A,2024-05-08_14h16.38.759,Slot Machine Game,2023.1.3,MacIntel,60.60606061,,,,,,,,,,,,,,,,,,,,,,,,,,,130,,,,,,,,,,,,,,,,,,,,,,3,9,,,377.1673,11,left,0.1304,,1.5,0.3,"[3,1,2]",0.766068234,stimuli/card_0_transparent.png,0,11,0,11,0,1,,,,,,,,,
,,,,ember,A,2024-05-08_14h16.38.759,Slot Machine Game,2023.1.3,MacIntel,60.60606061,,,,,,,,,,,,,,,,,,,,,,,,,,,140,,,,,,,,,,,,,,,,,,,,,,3,9,,,379.6345,12,right,0.0986,,1.5,0.3,"[3,1,2]",0.722016279,stimuli/card_10_transparent.png,10,12,0,12,0,1,,,,,,,,,
,,,,ember,A,2024-05-08_14h16.38.759,Slot Machine Game,2023.1.3,MacIntel,60.60606061,,,,,,,,,,,,,,,,,,,,,,,,,,,150,,,,,,,,,,,,,,,,,,,,,,3,9,,,382.0491,13,right,0.7698,,1,0.3,"[3,1,2]",0.277566017,stimuli/card_10_transparent.png,10,13,0,13,0,1,,,,,,,,,
,,,,ember,A,2024-05-08_14h16.38.759,Slot Machine Game,2023.1.3,MacIntel,60.60606061,,,,,,,,,,,,,,,,,,,,,,,,,,,150,,,,,,,,,,,,,,,,,,,,,,3,9,,,384.634,14,right,0.0629,,1.5,0.3,"[3,1,2]",0.051254572,stimuli/card_0_transparent.png,0,14,0,14,0,1,,,,,,,,,
,,,,ember,A,2024-05-08_14h16.38.759,Slot Machine Game,2023.1.3,MacIntel,60.60606061,,,,,,,,,,,,,,,,,,,,,,,,,,,,,,,,,,,386.9895,"[290,770,1220,380,150]",,,,,,,,,,,,,,,,,,,,,,,,,,,,,,,,,2,0,2,0,1,,,,
,,,,ember,A,2024-05-08_14h16.38.759,Slot Machine Game,2023.1.3,MacIntel,60.60606061,,,,,,,,,,,,,,,,,,,,,,,,,,,10,,,,,,,,,,,,,,,,,,,,,,4,1,"[12,15]","[[2,1,3],[2,3,1]]",391.9938,0,left,0.0956,,0.5,0.3,"[2,1,3]",0.424508747,stimuli/card_10_transparent.png,10,0,0,0,0,1,,,,,,,,,
,,,,ember,A,2024-05-08_14h16.38.759,Slot Machine Game,2023.1.3,MacIntel,60.60606061,,,,,,,,,,,,,,,,,,,,,,,,,,,20,,,,,,,,,,,,,,,,,,,,,,4,1,,,393.4433,1,left,0.2448,,0.5,0.3,"[2,1,3]",0.46134035,stimuli/card_10_transparent.png,10,1,0,1,0,1,,,,,,,,,
,,,,ember,A,2024-05-08_14h16.38.759,Slot Machine Game,2023.1.3,MacIntel,60.60606061,,,,,,,,,,,,,,,,,,,,,,,,,,,30,,,,,,,,,,,,,,,,,,,,,,4,1,,,394.9932,2,left,0.1872,,0.5,0.3,"[2,1,3]",0.695544225,stimuli/card_10_transparent.png,10,2,0,2,0,1,,,,,,,,,
,,,,ember,A,2024-05-08_14h16.38.759,Slot Machine Game,2023.1.3,MacIntel,60.60606061,,,,,,,,,,,,,,,,,,,,,,,,,,,130,,,,,,,,,,,,,,,,,,,,,,4,1,,,396.4943,3,left,0.1,,1.5,0.3,"[2,1,3]",0.137757593,stimuli/card_100_transparent.png,100,3,0,3,0,1,,,,,,,,,
,,,,ember,A,2024-05-08_14h16.38.759,Slot Machine Game,2023.1.3,MacIntel,60.60606061,,,,,,,,,,,,,,,,,,,,,,,,,,,140,,,,,,,,,,,,,,,,,,,,,,4,1,,,398.924,4,left,0.0845,,1,0.3,"[2,1,3]",0.604638351,stimuli/card_10_transparent.png,10,4,0,4,0,1,,,,,,,,,
,,,,ember,A,2024-05-08_14h16.38.759,Slot Machine Game,2023.1.3,MacIntel,60.60606061,,,,,,,,,,,,,,,,,,,,,,,,,,,150,,,,,,,,,,,,,,,,,,,,,,4,1,,,400.8268,5,left,0.1104,,1,0.3,"[2,1,3]",0.992276322,stimuli/card_10_transparent.png,10,5,0,5,0,1,,,,,,,,,
,,,,ember,A,2024-05-08_14h16.38.759,Slot Machine Game,2023.1.3,MacIntel,60.60606061,,,,,,,,,,,,,,,,,,,,,,,,,,,160,,,,,,,,,,,,,,,,,,,,,,4,1,,,402.8809,6,right,0.0495,,1.5,0.3,"[2,1,3]",0.171888601,stimuli/card_10_transparent.png,10,6,0,6,0,1,,,,,,,,,
,,,,ember,A,2024-05-08_14h16.38.759,Slot Machine Game,2023.1.3,MacIntel,60.60606061,,,,,,,,,,,,,,,,,,,,,,,,,,,260,,,,,,,,,,,,,,,,,,,,,,4,1,,,405.2492,7,left,0.0938,,0.5,0.3,"[2,1,3]",0.182014616,stimuli/card_100_transparent.png,100,7,0,7,0,1,,,,,,,,,
,,,,ember,A,2024-05-08_14h16.38.759,Slot Machine Game,2023.1.3,MacIntel,60.60606061,,,,,,,,,,,,,,,,,,,,,,,,,,,360,,,,,,,,,,,,,,,,,,,,,,4,1,,,406.6513,8,left,0.1514,0.0065,1,0.3,"[2,1,3]",0.153515622,stimuli/card_100_transparent.png,100,8,0,8,0,1,,,,,,,,,
,,,,ember,A,2024-05-08_14h16.38.759,Slot Machine Game,2023.1.3,MacIntel,60.60606061,,,,,,,,,,,,,,,,,,,,,,,,,,,370,,,,,,,,,,,,,,,,,,,,,,4,1,,,408.6342,9,left,0.0481,,1,0.3,"[2,1,3]",0.385937231,stimuli/card_10_transparent.png,10,9,0,9,0,1,,,,,,,,,
,,,,ember,A,2024-05-08_14h16.38.759,Slot Machine Game,2023.1.3,MacIntel,60.60606061,,,,,,,,,,,,,,,,,,,,,,,,,,,470,,,,,,,,,,,,,,,,,,,,,,4,1,,,410.5023,10,left,0.1418,,0.5,0.3,"[2,1,3]",0.144597799,stimuli/card_100_transparent.png,100,10,0,10,0,1,,,,,,,,,
,,,,ember,A,2024-05-08_14h16.38.759,Slot Machine Game,2023.1.3,MacIntel,60.60606061,,,,,,,,,,,,,,,,,,,,,,,,,,,480,,,,,,,,,,,,,,,,,,,,,,4,1,,,411.9535,11,left,0.071,,1,0.3,"[2,1,3]",0.950714191,stimuli/card_10_transparent.png,10,11,0,11,0,1,,,,,,,,,
,,,,ember,A,2024-05-08_14h16.38.759,Slot Machine Game,2023.1.3,MacIntel,60.60606061,,,,,,,,,,,,,,,,,,,,,,,,,,,490,,,,,,,,,,,,,,,,,,,,,,4,1,,,413.8545,12,left,0.1007,,1.5,0.3,"[2,3,1]",0.752759218,stimuli/card_10_transparent.png,10,12,0,12,0,1,,,,,,,,,
,,,,ember,A,2024-05-08_14h16.38.759,Slot Machine Game,2023.1.3,MacIntel,60.60606061,,,,,,,,,,,,,,,,,,,,,,,,,,,,,,,,,,,,,,,,,,,,,,,,,4,1,,,416.2894,13,,,,0.5,0.3,,,,,13,0,13,0,1,,,,,,,,,
,,,,ember,A,2024-05-08_14h16.38.759,Slot Machine Game,2023.1.3,MacIntel,60.60606061,,,,,,,,,,,,,,,,,,,,,,,,,,,490,,,,,,,,,,,,,,,,,,,,,,4,1,,,421.794,14,up,3.0882,,1,0.3,"[2,3,1]",0.54276097,stimuli/card_0_transparent.png,0,14,0,14,0,1,,,,,,,,,
,,,,ember,A,2024-05-08_14h16.38.759,Slot Machine Game,2023.1.3,MacIntel,60.60606061,,,,,,,,,,,,,,,,,,,,,,,,,,,,,,,,,,,426.7117,"[290,770,1220,380,150,490]",,,,,,,,,,,,,,,,,,,,,,,,,,,,,,,,,3,0,3,0,1,,,,
,,,,ember,A,2024-05-08_14h16.38.759,Slot Machine Game,2023.1.3,MacIntel,60.60606061,,,,,,,,,,,,,,,,,,,,,,,,,,,0,,,,,,,,,,,,,,,,,,,,,,5,2,"[6,15]","[[1,3,2],[3,2,1]]",431.7157,0,up,0.8612,,1,0.3,"[1,3,2]",0.915056935,stimuli/card_0_transparent.png,0,0,0,0,0,1,,,,,,,,,
,,,,ember,A,2024-05-08_14h16.38.759,Slot Machine Game,2023.1.3,MacIntel,60.60606061,,,,,,,,,,,,,,,,,,,,,,,,,,,100,,,,,,,,,,,,,,,,,,,,,,5,2,,,434.4,1,left,0.0498,,1.5,0.3,"[1,3,2]",0.757761214,stimuli/card_100_transparent.png,100,1,0,1,0,1,,,,,,,,,
,,,,ember,A,2024-05-08_14h16.38.759,Slot Machine Game,2023.1.3,MacIntel,60.60606061,,,,,,,,,,,,,,,,,,,,,,,,,,,110,,,,,,,,,,,,,,,,,,,,,,5,2,,,436.7837,2,left,0.0303,,0.5,0.3,"[1,3,2]",0.11967753,stimuli/card_10_transparent.png,10,2,0,2,0,1,,,,,,,,,
,,,,ember,A,2024-05-08_14h16.38.759,Slot Machine Game,2023.1.3,MacIntel,60.60606061,,,,,,,,,,,,,,,,,,,,,,,,,,,110,,,,,,,,,,,,,,,,,,,,,,5,2,,,438.1529,3,up,0.0034,,0.5,0.3,"[1,3,2]",0.632973031,stimuli/card_0_transparent.png,0,3,0,3,0,1,,,,,,,,,
,,,,ember,A,2024-05-08_14h16.38.759,Slot Machine Game,2023.1.3,MacIntel,60.60606061,,,,,,,,,,,,,,,,,,,,,,,,,,,120,,,,,,,,,,,,,,,,,,,,,,5,2,,,439.4687,4,up,0.0478,,0.5,0.3,"[1,3,2]",0.186906292,stimuli/card_10_transparent.png,10,4,0,4,0,1,,,,,,,,,
,,,,ember,A,2024-05-08_14h16.38.759,Slot Machine Game,2023.1.3,MacIntel,60.60606061,,,,,,,,,,,,,,,,,,,,,,,,,,,120,,,,,,,,,,,,,,,,,,,,,,5,2,,,440.8372,5,up,0.0359,,0.5,0.3,"[1,3,2]",0.429310117,stimuli/card_0_transparent.png,0,5,0,5,0,1,,,,,,,,,
,,,,ember,A,2024-05-08_14h16.38.759,Slot Machine Game,2023.1.3,MacIntel,60.60606061,,,,,,,,,,,,,,,,,,,,,,,,,,,130,,,,,,,,,,,,,,,,,,,,,,5,2,,,442.1873,6,up,0.055,,1.5,0.3,"[3,2,1]",0.733342287,stimuli/card_10_transparent.png,10,6,0,6,0,1,,,,,,,,,
,,,,ember,A,2024-05-08_14h16.38.759,Slot Machine Game,2023.1.3,MacIntel,60.60606061,,,,,,,,,,,,,,,,,,,,,,,,,,,140,,,,,,,,,,,,,,,,,,,,,,5,2,,,444.5557,7,up,0.0767,,1,0.3,"[3,2,1]",0.874335193,stimuli/card_10_transparent.png,10,7,0,7,0,1,,,,,,,,,
,,,,ember,A,2024-05-08_14h16.38.759,Slot Machine Game,2023.1.3,MacIntel,60.60606061,,,,,,,,,,,,,,,,,,,,,,,,,,,150,,,,,,,,,,,,,,,,,,,,,,5,2,,,446.4547,8,up,0.0801,,1,0.3,"[3,2,1]",0.596720826,stimuli/card_10_transparent.png,10,8,0,8,0,1,,,,,,,,,
,,,,ember,A,2024-05-08_14h16.38.759,Slot Machine Game,2023.1.3,MacIntel,60.60606061,,,,,,,,,,,,,,,,,,,,,,,,,,,160,,,,,,,,,,,,,,,,,,,,,,5,2,,,448.3421,9,up,0.0922,,0.5,0.3,"[3,2,1]",0.297145704,stimuli/card_10_transparent.png,10,9,0,9,0,1,,,,,,,,,
,,,,ember,A,2024-05-08_14h16.38.759,Slot Machine Game,2023.1.3,MacIntel,60.60606061,,,,,,,,,,,,,,,,,,,,,,,,,,,170,,,,,,,,,,,,,,,,,,,,,,5,2,,,450.0613,10,up,0.0562,,0.5,0.3,"[3,2,1]",0.29748825,stimuli/card_10_transparent.png,10,10,0,10,0,1,,,,,,,,,
,,,,ember,A,2024-05-08_14h16.38.759,Slot Machine Game,2023.1.3,MacIntel,60.60606061,,,,,,,,,,,,,,,,,,,,,,,,,,,180,,,,,,,,,,,,,,,,,,,,,,5,2,,,451.4446,11,up,0.2173,,1,0.3,"[3,2,1]",0.30262596,stimuli/card_10_transparent.png,10,11,0,11,0,1,,,,,,,,,
,,,,ember,A,2024-05-08_14h16.38.759,Slot Machine Game,2023.1.3,MacIntel,60.60606061,,,,,,,,,,,,,,,,,,,,,,,,,,,180,,,,,,,,,,,,,,,,,,,,,,5,2,,,453.4957,12,up,0.0111,,1.5,0.3,"[3,2,1]",0.026647177,stimuli/card_0_transparent.png,0,12,0,12,0,1,,,,,,,,,
,,,,ember,A,2024-05-08_14h16.38.759,Slot Machine Game,2023.1.3,MacIntel,60.60606061,,,,,,,,,,,,,,,,,,,,,,,,,,,280,,,,,,,,,,,,,,,,,,,,,,5,2,,,455.8286,13,right,0.0772,,1,0.3,"[3,2,1]",0.619663466,stimuli/card_100_transparent.png,100,13,0,13,0,1,,,,,,,,,
,,,,ember,A,2024-05-08_14h16.38.759,Slot Machine Game,2023.1.3,MacIntel,60.60606061,,,,,,,,,,,,,,,,,,,,,,,,,,,290,,,,,,,,,,,,,,,,,,,,,,5,2,,,457.712,14,up,0.1751,,1.5,0.3,"[3,2,1]",0.364183548,stimuli/card_10_transparent.png,10,14,0,14,0,1,,,,,,,,,
,,,,ember,A,2024-05-08_14h16.38.759,Slot Machine Game,2023.1.3,MacIntel,60.60606061,,,,,,,,,,,,,,,,,,,,,,,,,,,,,,,,,,,460.1967,"[290,770,1220,380,150,490,290]",,,,,,,,,,,,,,,,,,,,,,,,,,,,,,,,,4,0,4,0,1,,,,
,,,,ember,A,2024-05-08_14h16.38.759,Slot Machine Game,2023.1.3,MacIntel,60.60606061,,,,,,,,,,,,,,,,,,,,,,,,,,,100,,,,,,,,,,,,,,,,,,,,,,6,4,"[7,15]","[[2,3,1],[1,2,3]]",465.1873,0,right,0.2695,,1,0.3,"[2,3,1]",0.999919631,stimuli/card_100_transparent.png,100,0,0,0,0,1,,,,,,,,,
,,,,ember,A,2024-05-08_14h16.38.759,Slot Machine Game,2023.1.3,MacIntel,60.60606061,,,,,,,,,,,,,,,,,,,,,,,,,,,200,,,,,,,,,,,,,,,,,,,,,,6,4,,,467.284,1,right,0.0709,,1,0.3,"[2,3,1]",0.587511173,stimuli/card_100_transparent.png,100,1,0,1,0,1,,,,,,,,,
,,,,ember,A,2024-05-08_14h16.38.759,Slot Machine Game,2023.1.3,MacIntel,60.60606061,,,,,,,,,,,,,,,,,,,,,,,,,,,300,,,,,,,,,,,,,,,,,,,,,,6,4,,,469.1699,2,right,0.0428,,1.5,0.3,"[2,3,1]",0.998729545,stimuli/card_100_transparent.png,100,2,0,2,0,1,,,,,,,,,
,,,,ember,A,2024-05-08_14h16.38.759,Slot Machine Game,2023.1.3,MacIntel,60.60606061,,,,,,,,,,,,,,,,,,,,,,,,,,,310,,,,,,,,,,,,,,,,,,,,,,6,4,,,471.5378,3,left,0.1004,,1.5,0.3,"[2,3,1]",0.5712685,stimuli/card_10_transparent.png,10,3,0,3,0,1,,,,,,,,,
,,,,ember,A,2024-05-08_14h16.38.759,Slot Machine Game,2023.1.3,MacIntel,60.60606061,,,,,,,,,,,,,,,,,,,,,,,,,,,320,,,,,,,,,,,,,,,,,,,,,,6,4,,,473.9727,4,left,0.0033,,0.5,0.3,"[2,3,1]",0.707123785,stimuli/card_10_transparent.png,10,4,0,4,0,1,,,,,,,,,
,,,,ember,A,2024-05-08_14h16.38.759,Slot Machine Game,2023.1.3,MacIntel,60.60606061,,,,,,,,,,,,,,,,,,,,,,,,,,,320,,,,,,,,,,,,,,,,,,,,,,6,4,,,475.3071,5,left,0.083,,1.5,0.3,"[2,3,1]",0.001552228,stimuli/card_0_transparent.png,0,5,0,5,0,1,,,,,,,,,
,,,,ember,A,2024-05-08_14h16.38.759,Slot Machine Game,2023.1.3,MacIntel,60.60606061,,,,,,,,,,,,,,,,,,,,,,,,,,,420,,,,,,,,,,,,,,,,,,,,,,6,4,,,477.7242,6,right,0.0902,,1.5,0.3,"[2,3,1]",0.312559911,stimuli/card_100_transparent.png,100,6,0,6,0,1,,,,,,,,,
,,,,ember,A,2024-05-08_14h16.38.759,Slot Machine Game,2023.1.3,MacIntel,60.60606061,,,,,,,,,,,,,,,,,,,,,,,,,,,420,,,,,,,,,,,,,,,,,,,,,,6,4,,,480.1426,7,right,0.0076,,1.5,0.3,"[1,2,3]",0.806607862,stimuli/card_0_transparent.png,0,7,0,7,0,1,,,,,,,,,
,,,,ember,A,2024-05-08_14h16.38.759,Slot Machine Game,2023.1.3,MacIntel,60.60606061,,,,,,,,,,,,,,,,,,,,,,,,,,,430,,,,,,,,,,,,,,,,,,,,,,6,4,,,482.454,8,right,0.2319,,1.5,0.3,"[1,2,3]",0.162794369,stimuli/card_10_transparent.png,10,8,0,8,0,1,,,,,,,,,
,,,,ember,A,2024-05-08_14h16.38.759,Slot Machine Game,2023.1.3,MacIntel,60.60606061,,,,,,,,,,,,,,,,,,,,,,,,,,,430,,,,,,,,,,,,,,,,,,,,,,6,4,,,485.0124,9,right,0.0233,,1,0.3,"[1,2,3]",0.55269911,stimuli/card_0_transparent.png,0,9,0,9,0,1,,,,,,,,,
,,,,ember,A,2024-05-08_14h16.38.759,Slot Machine Game,2023.1.3,MacIntel,60.60606061,,,,,,,,,,,,,,,,,,,,,,,,,,,430,,,,,,,,,,,,,,,,,,,,,,6,4,,,486.8456,10,right,0.134,,1,0.3,"[1,2,3]",0.492721719,stimuli/card_0_transparent.png,0,10,0,10,0,1,,,,,,,,,
,,,,ember,A,2024-05-08_14h16.38.759,Slot Machine Game,2023.1.3,MacIntel,60.60606061,,,,,,,,,,,,,,,,,,,,,,,,,,,430,,,,,,,,,,,,,,,,,,,,,,6,4,,,488.7958,11,right,0.0659,,1.5,0.3,"[1,2,3]",0.286361314,stimuli/card_0_transparent.png,0,11,0,11,0,1,,,,,,,,,
,,,,ember,A,2024-05-08_14h16.38.759,Slot Machine Game,2023.1.3,MacIntel,60.60606061,,,,,,,,,,,,,,,,,,,,,,,,,,,430,,,,,,,,,,,,,,,,,,,,,,6,4,,,491.1815,12,right,0.0923,,0.5,0.3,"[1,2,3]",0.734481669,stimuli/card_0_transparent.png,0,12,0,12,0,1,,,,,,,,,
,,,,ember,A,2024-05-08_14h16.38.759,Slot Machine Game,2023.1.3,MacIntel,60.60606061,,,,,,,,,,,,,,,,,,,,,,,,,,,430,,,,,,,,,,,,,,,,,,,,,,6,4,,,492.5985,13,right,0.0352,,1,0.3,"[1,2,3]",0.682091782,stimuli/card_0_transparent.png,0,13,0,13,0,1,,,,,,,,,
,,,,ember,A,2024-05-08_14h16.38.759,Slot Machine Game,2023.1.3,MacIntel,60.60606061,,,,,,,,,,,,,,,,,,,,,,,,,,,430,,,,,,,,,,,,,,,,,,,,,,6,4,,,494.45,14,right,0.0947,,1,0.3,"[1,2,3]",0.828660953,stimuli/card_0_transparent.png,0,14,0,14,0,1,,,,,,,,,
,,,,ember,A,2024-05-08_14h16.38.759,Slot Machine Game,2023.1.3,MacIntel,60.60606061,,,,,,,,,,,,,,,,,,,,,,,,,,,,,,,,,,,496.3685,"[290,770,1220,380,150,490,290,430]",,,,,,,,,,,,,,,,,,,,,,,,,,,,,,,,,5,0,5,0,1,,,,
,,,,ember,A,2024-05-08_14h16.38.759,Slot Machine Game,2023.1.3,MacIntel,60.60606061,,,,,,,,,,,,,,,,,,,,,,,,,,,0,,,,,,,,,,,,,,,,,,,,,,7,10,"[10,15]","[[3,1,2],[1,3,2]]",501.3746,0,right,0.5133,,1.5,0.3,"[3,1,2]",0.064045074,stimuli/card_0_transparent.png,0,0,0,0,0,1,,,,,,,,,
,,,,ember,A,2024-05-08_14h16.38.759,Slot Machine Game,2023.1.3,MacIntel,60.60606061,,,,,,,,,,,,,,,,,,,,,,,,,,,10,,,,,,,,,,,,,,,,,,,,,,7,10,,,504.2053,1,right,0.1246,,0.5,0.3,"[3,1,2]",0.995058516,stimuli/card_10_transparent.png,10,1,0,1,0,1,,,,,,,,,
,,,,ember,A,2024-05-08_14h16.38.759,Slot Machine Game,2023.1.3,MacIntel,60.60606061,,,,,,,,,,,,,,,,,,,,,,,,,,,20,,,,,,,,,,,,,,,,,,,,,,7,10,,,505.6575,2,right,0.1313,,1.5,0.3,"[3,1,2]",0.87638843,stimuli/card_10_transparent.png,10,2,0,2,0,1,,,,,,,,,
,,,,ember,A,2024-05-08_14h16.38.759,Slot Machine Game,2023.1.3,MacIntel,60.60606061,,,,,,,,,,,,,,,,,,,,,,,,,,,30,,,,,,,,,,,,,,,,,,,,,,7,10,,,508.1235,3,right,0.0435,,1.5,0.3,"[3,1,2]",0.293320073,stimuli/card_10_transparent.png,10,3,0,3,0,1,,,,,,,,,
,,,,ember,A,2024-05-08_14h16.38.759,Slot Machine Game,2023.1.3,MacIntel,60.60606061,,,,,,,,,,,,,,,,,,,,,,,,,,,40,,,,,,,,,,,,,,,,,,,,,,7,10,,,510.4748,4,right,0.0442,,0.5,0.3,"[3,1,2]",0.223096278,stimuli/card_10_transparent.png,10,4,0,4,0,1,,,,,,,,,
,,,,ember,A,2024-05-08_14h16.38.759,Slot Machine Game,2023.1.3,MacIntel,60.60606061,,,,,,,,,,,,,,,,,,,,,,,,,,,50,,,,,,,,,,,,,,,,,,,,,,7,10,,,511.8432,5,right,0.0426,,1,0.3,"[3,1,2]",0.717377549,stimuli/card_10_transparent.png,10,5,0,5,0,1,,,,,,,,,
,,,,ember,A,2024-05-08_14h16.38.759,Slot Machine Game,2023.1.3,MacIntel,60.60606061,,,,,,,,,,,,,,,,,,,,,,,,,,,60,,,,,,,,,,,,,,,,,,,,,,7,10,,,513.7112,6,right,0.0642,,1.5,0.3,"[3,1,2]",0.349645383,stimuli/card_10_transparent.png,10,6,0,6,0,1,,,,,,,,,
,,,,ember,A,2024-05-08_14h16.38.759,Slot Machine Game,2023.1.3,MacIntel,60.60606061,,,,,,,,,,,,,,,,,,,,,,,,,,,70,,,,,,,,,,,,,,,,,,,,,,7,10,,,516.0953,7,right,0.0261,,1.5,0.3,"[3,1,2]",0.863538068,stimuli/card_10_transparent.png,10,7,0,7,0,1,,,,,,,,,
,,,,ember,A,2024-05-08_14h16.38.759,Slot Machine Game,2023.1.3,MacIntel,60.60606061,,,,,,,,,,,,,,,,,,,,,,,,,,,70,,,,,,,,,,,,,,,,,,,,,,7,10,,,518.4309,8,right,0.0767,,1.5,0.3,"[3,1,2]",0.054313689,stimuli/card_0_transparent.png,0,8,0,8,0,1,,,,,,,,,
,,,,ember,A,2024-05-08_14h16.38.759,Slot Machine Game,2023.1.3,MacIntel,60.60606061,,,,,,,,,,,,,,,,,,,,,,,,,,,80,,,,,,,,,,,,,,,,,,,,,,7,10,,,520.8154,9,right,0.2175,,0.5,0.3,"[3,1,2]",0.342572841,stimuli/card_10_transparent.png,10,9,0,9,0,1,,,,,,,,,
,,,,ember,A,2024-05-08_14h16.38.759,Slot Machine Game,2023.1.3,MacIntel,60.60606061,,,,,,,,,,,,,,,,,,,,,,,,,,,180,,,,,,,,,,,,,,,,,,,,,,7,10,,,522.367,10,left,0.0647,,1.5,0.3,"[1,3,2]",0.678066621,stimuli/card_100_transparent.png,100,10,0,10,0,1,,,,,,,,,
,,,,ember,A,2024-05-08_14h16.38.759,Slot Machine Game,2023.1.3,MacIntel,60.60606061,,,,,,,,,,,,,,,,,,,,,,,,,,,,,,,,,,,,,,,,,,,,,,,,,7,10,,,524.7504,11,,,,1,0.3,,,,,11,0,11,0,1,,,,,,,,,
,,,,ember,A,2024-05-08_14h16.38.759,Slot Machine Game,2023.1.3,MacIntel,60.60606061,,,,,,,,,,,,,,,,,,,,,,,,,,,,,,,,,,,,,,,,,,,,,,,,,7,10,,,530.2565,12,,,,1.5,0.3,,,,,12,0,12,0,1,,,,,,,,,
,,,,ember,A,2024-05-08_14h16.38.759,Slot Machine Game,2023.1.3,MacIntel,60.60606061,,,,,,,,,,,,,,,,,,,,,,,,,,,,,,,,,,,,,,,,,,,,,,,,,7,10,,,535.7579,13,,,,1.5,0.3,,,,,13,0,13,0,1,,,,,,,,,
,,,,ember,A,2024-05-08_14h16.38.759,Slot Machine Game,2023.1.3,MacIntel,60.60606061,,,,,,,,,,,,,,,,,,,,,,,,,,,,,,,,,,,,,,,,,,,,,,,,,7,10,,,541.2612,14,,,,1,0.3,,,,,14,0,14,0,1,,,,,,,,,
,,,,ember,A,2024-05-08_14h16.38.759,Slot Machine Game,2023.1.3,MacIntel,60.60606061,,,,,,,,,,,,,,,,,,,,,,,,,,,,,,,,,,,546.7643,"[290,770,1220,380,150,490,290,430,180]",,,,,,,,,,,,,,,,,,,,,,,,,,,,,,,,,6,0,6,0,1,,,,
,,,,ember,A,2024-05-08_14h16.38.759,Slot Machine Game,2023.1.3,MacIntel,60.60606061,,,,,,,,,,,,,,,,,,,,,,,,,,,,,,,,,,,,,,,,,,,,,,,,,8,7,"[9,15]","[[1,3,2],[2,3,1]]",551.7668,0,,,,1.5,0.3,,,,,0,0,0,0,1,,,,,,,,,
,,,,ember,A,2024-05-08_14h16.38.759,Slot Machine Game,2023.1.3,MacIntel,60.60606061,,,,,,,,,,,,,,,,,,,,,,,,,,,,,,,,,,,,,,,,,,,,,,,,,8,7,,,557.2726,1,,,,0.5,0.3,,,,,1,0,1,0,1,,,,,,,,,
,,,,ember,A,2024-05-08_14h16.38.759,Slot Machine Game,2023.1.3,MacIntel,60.60606061,,,,,,,,,,,,,,,,,,,,,,,,,,,,,,,,,,,,,,,,,,,,,,,,,8,7,,,562.7907,2,,,,1,0.3,,,,,2,0,2,0,1,,,,,,,,,
,,,,ember,A,2024-05-08_14h16.38.759,Slot Machine Game,2023.1.3,MacIntel,60.60606061,,,,,,,,,,,,,,,,,,,,,,,,,,,,,,,,,,,,,,,,,,,,,,,,,8,7,,,568.2922,3,,,,1.5,0.3,,,,,3,0,3,0,1,,,,,,,,,
,,,,ember,A,2024-05-08_14h16.38.759,Slot Machine Game,2023.1.3,MacIntel,60.60606061,,,,,,,,,,,,,,,,,,,,,,,,,,,,,,,,,,,,,,,,,,,,,,,,,8,7,,,573.7971,4,,,,1.5,0.3,,,,,4,0,4,0,1,,,,,,,,,
,,,,ember,A,2024-05-08_14h16.38.759,Slot Machine Game,2023.1.3,MacIntel,60.60606061,,,,,,,,,,,,,,,,,,,,,,,,,,,,,,,,,,,,,,,,,,,,,,,,,8,7,,,579.3148,5,,,,1,0.3,,,,,5,0,5,0,1,,,,,,,,,
,,,,ember,A,2024-05-08_14h16.38.759,Slot Machine Game,2023.1.3,MacIntel,60.60606061,,,,,,,,,,,,,,,,,,,,,,,,,,,,,,,,,,,,,,,,,,,,,,,,,8,7,,,584.8191,6,,,,0.5,0.3,,,,,6,0,6,0,1,,,,,,,,,
,,,,ember,A,2024-05-08_14h16.38.759,Slot Machine Game,2023.1.3,MacIntel,60.60606061,,,,,,,,,,,,,,,,,,,,,,,,,,,,,,,,,,,,,,,,,,,,,,,,,8,7,,,590.3226,7,,,,1,0.3,,,,,7,0,7,0,1,,,,,,,,,
,,,,ember,A,2024-05-08_14h16.38.759,Slot Machine Game,2023.1.3,MacIntel,60.60606061,,,,,,,,,,,,,,,,,,,,,,,,,,,,,,,,,,,,,,,,,,,,,,,,,8,7,,,595.8263,8,,,,1.5,0.3,,,,,8,0,8,0,1,,,,,,,,,
,,,,ember,A,2024-05-08_14h16.38.759,Slot Machine Game,2023.1.3,MacIntel,60.60606061,,,,,,,,,,,,,,,,,,,,,,,,,,,,,,,,,,,,,,,,,,,,,,,,,8,7,,,601.3284,9,,,,1.5,0.3,,,,,9,0,9,0,1,,,,,,,,,
,,,,ember,A,2024-05-08_14h16.38.759,Slot Machine Game,2023.1.3,MacIntel,60.60606061,,,,,,,,,,,,,,,,,,,,,,,,,,,,,,,,,,,,,,,,,,,,,,,,,8,7,,,606.8301,10,,,,1,0.3,,,,,10,0,10,0,1,,,,,,,,,
,,,,ember,A,2024-05-08_14h16.38.759,Slot Machine Game,2023.1.3,MacIntel,60.60606061,,,,,,,,,,,,,,,,,,,,,,,,,,,,,,,,,,,,,,,,,,,,,,,,,8,7,,,612.3347,11,,,,1,0.3,,,,,11,0,11,0,1,,,,,,,,,
,,,,ember,A,2024-05-08_14h16.38.759,Slot Machine Game,2023.1.3,MacIntel,60.60606061,,,,,,,,,,,,,,,,,,,,,,,,,,,,,,,,,,,,,,,,,,,,,,,,,8,7,,,617.8383,12,,,,1.5,0.3,,,,,12,0,12,0,1,,,,,,,,,
,,,,ember,A,2024-05-08_14h16.38.759,Slot Machine Game,2023.1.3,MacIntel,60.60606061,,,,,,,,,,,,,,,,,,,,,,,,,,,,,,,,,,,,,,,,,,,,,,,,,8,7,,,623.3414,13,,,,1.5,0.3,,,,,13,0,13,0,1,,,,,,,,,
,,,,ember,A,2024-05-08_14h16.38.759,Slot Machine Game,2023.1.3,MacIntel,60.60606061,,,,,,,,,,,,,,,,,,,,,,,,,,,,,,,,,,,,,,,,,,,,,,,,,8,7,,,628.8439,14,,,,1.5,0.3,,,,,14,0,14,0,1,,,,,,,,,
,,,,ember,A,2024-05-08_14h16.38.759,Slot Machine Game,2023.1.3,MacIntel,60.60606061,,,,,,,,,,,,,,,,,,,,,,,,,,,,,,,,,,,634.3459,"[290,770,1220,380,150,490,290,430,180,0]",,,,,,,,,,,,,,,,,,,,,,,,,,,,,,,,,7,0,7,0,1,,,,
,,,,ember,A,2024-05-08_14h16.38.759,Slot Machine Game,2023.1.3,MacIntel,60.60606061,,,,,,,,,,,,,,,,,,,,,,,,,,,,,,,,,,,,,,,,,,,,,,,,,9,9,[15],"[[3,1,2]]",639.3495,0,,,,1,0.3,,,,,0,0,0,0,1,,,,,,,,,
,,,,ember,A,2024-05-08_14h16.38.759,Slot Machine Game,2023.1.3,MacIntel,60.60606061,,,,,,,,,,,,,,,,,,,,,,,,,,,,,,,,,,,,,,,,,,,,,,,,,9,9,,,644.8531,1,,,,0.5,0.3,,,,,1,0,1,0,1,,,,,,,,,
,,,,ember,A,2024-05-08_14h16.38.759,Slot Machine Game,2023.1.3,MacIntel,60.60606061,,,,,,,,,,,,,,,,,,,,,,,,,,,,,,,,,,,,,,,,,,,,,,,,,9,9,,,650.3558,2,,,,0.5,0.3,,,,,2,0,2,0,1,,,,,,,,,
,,,,ember,A,2024-05-08_14h16.38.759,Slot Machine Game,2023.1.3,MacIntel,60.60606061,,,,,,,,,,,,,,,,,,,,,,,,,,,,,,,,,,,,,,,,,,,,,,,,,9,9,,,655.8599,3,,,,0.5,0.3,,,,,3,0,3,0,1,,,,,,,,,
,,,,ember,A,2024-05-08_14h16.38.759,Slot Machine Game,2023.1.3,MacIntel,60.60606061,,,,,,,,,,,,,,,,,,,,,,,,,,,,,,,,,,,,,,,,,,,,,,,,,9,9,,,661.3612,4,,,,0.5,0.3,,,,,4,0,4,0,1,,,,,,,,,
,,,,ember,A,2024-05-08_14h16.38.759,Slot Machine Game,2023.1.3,MacIntel,60.60606061,,,,,,,,,,,,,,,,,,,,,,,,,,,,,,,,,,,,,,,,,,,,,,,,,9,9,,,666.8638,5,,,,0.5,0.3,,,,,5,0,5,0,1,,,,,,,,,
,,,,ember,A,2024-05-08_14h16.38.759,Slot Machine Game,2023.1.3,MacIntel,60.60606061,,,,,,,,,,,,,,,,,,,,,,,,,,,,,,,,,,,,,,,,,,,,,,,,,9,9,,,672.3689,6,,,,0.5,0.3,,,,,6,0,6,0,1,,,,,,,,,
,,,,ember,A,2024-05-08_14h16.38.759,Slot Machine Game,2023.1.3,MacIntel,60.60606061,,,,,,,,,,,,,,,,,,,,,,,,,,,,,,,,,,,,,,,,,,,,,,,,,9,9,,,677.8716,7,,,,0.5,0.3,,,,,7,0,7,0,1,,,,,,,,,
,,,,ember,A,2024-05-08_14h16.38.759,Slot Machine Game,2023.1.3,MacIntel,60.60606061,,,,,,,,,,,,,,,,,,,,,,,,,,,,,,,,,,,,,,,,,,,,,,,,,9,9,,,683.3749,8,,,,1,0.3,,,,,8,0,8,0,1,,,,,,,,,
,,,,ember,A,2024-05-08_14h16.38.759,Slot Machine Game,2023.1.3,MacIntel,60.60606061,,,,,,,,,,,,,,,,,,,,,,,,,,,,,,,,,,,,,,,,,,,,,,,,,9,9,,,688.8779,9,,,,0.5,0.3,,,,,9,0,9,0,1,,,,,,,,,
,,,,ember,A,2024-05-08_14h16.38.759,Slot Machine Game,2023.1.3,MacIntel,60.60606061,,,,,,,,,,,,,,,,,,,,,,,,,,,,,,,,,,,,,,,,,,,,,,,,,9,9,,,694.3794,10,,,,1,0.3,,,,,10,0,10,0,1,,,,,,,,,
,,,,ember,A,2024-05-08_14h16.38.759,Slot Machine Game,2023.1.3,MacIntel,60.60606061,,,,,,,,,,,,,,,,,,,,,,,,,,,,,,,,,,,,,,,,,,,,,,,,,9,9,,,699.882,11,,,,1,0.3,,,,,11,0,11,0,1,,,,,,,,,
,,,,ember,A,2024-05-08_14h16.38.759,Slot Machine Game,2023.1.3,MacIntel,60.60606061,,,,,,,,,,,,,,,,,,,,,,,,,,,,,,,,,,,,,,,,,,,,,,,,,9,9,,,705.3866,12,,,,1,0.3,,,,,12,0,12,0,1,,,,,,,,,
,,,,ember,A,2024-05-08_14h16.38.759,Slot Machine Game,2023.1.3,MacIntel,60.60606061,,,,,,,,,,,,,,,,,,,,,,,,,,,,,,,,,,,,,,,,,,,,,,,,,9,9,,,710.8902,13,,,,1.5,0.3,,,,,13,0,13,0,1,,,,,,,,,
,,,,ember,A,2024-05-08_14h16.38.759,Slot Machine Game,2023.1.3,MacIntel,60.60606061,,,,,,,,,,,,,,,,,,,,,,,,,,,,,,,,,,,,,,,,,,,,,,,,,9,9,,,716.3935,14,,,,1,0.3,,,,,14,0,14,0,1,,,,,,,,,
,,,,ember,A,2024-05-08_14h16.38.759,Slot Machine Game,2023.1.3,MacIntel,60.60606061,,,,,,,,,,,,,,,,,,,,,,,,,,,,,,,,,,,721.8964,"[290,770,1220,380,150,490,290,430,180,0,0]",,,,,,,,,,,,,,,,,,,,,,,,,,,,,,,,,8,0,8,0,1,,,,
,,,,ember,A,2024-05-08_14h16.38.759,Slot Machine Game,2023.1.3,MacIntel,60.60606061,,,,,,,,,,,,,,,,,,,,,,,,,,,,,,,,,,,,,,,,,,,,,,,,,10,6,"[4,10,15]","[[2,3,1],[1,3,2],[3,2,1]]",726.8983,0,,,,0.5,0.3,,,,,0,0,0,0,1,,,,,,,,,
,,,,ember,A,2024-05-08_14h16.38.759,Slot Machine Game,2023.1.3,MacIntel,60.60606061,,,,,,,,,,,,,,,,,,,,,,,,,,,,,,,,,,,,,,,,,,,,,,,,,10,6,,,732.4008,1,,,,1.5,0.3,,,,,1,0,1,0,1,,,,,,,,,
,,,,ember,A,2024-05-08_14h16.38.759,Slot Machine Game,2023.1.3,MacIntel,60.60606061,,,,,,,,,,,,,,,,,,,,,,,,,,,,,,,,,,,,,,,,,,,,,,,,,10,6,,,737.9038,2,,,,0.5,0.3,,,,,2,0,2,0,1,,,,,,,,,
,,,,ember,A,2024-05-08_14h16.38.759,Slot Machine Game,2023.1.3,MacIntel,60.60606061,,,,,,,,,,,,,,,,,,,,,,,,,,,,,,,,,,,,,,,,,,,,,,,,,10,6,,,743.4058,3,,,,1.5,0.3,,,,,3,0,3,0,1,,,,,,,,,
,,,,ember,A,2024-05-08_14h16.38.759,Slot Machine Game,2023.1.3,MacIntel,60.60606061,,,,,,,,,,,,,,,,,,,,,,,,,,,,,,,,,,,,,,,,,,,,,,,,,10,6,,,748.9089,4,,,,1.5,0.3,,,,,4,0,4,0,1,,,,,,,,,
,,,,ember,A,2024-05-08_14h16.38.759,Slot Machine Game,2023.1.3,MacIntel,60.60606061,,,,,,,,,,,,,,,,,,,,,,,,,,,,,,,,,,,,,,,,,,,,,,,,,10,6,,,754.4127,5,,,,0.5,0.3,,,,,5,0,5,0,1,,,,,,,,,
,,,,ember,A,2024-05-08_14h16.38.759,Slot Machine Game,2023.1.3,MacIntel,60.60606061,,,,,,,,,,,,,,,,,,,,,,,,,,,,,,,,,,,,,,,,,,,,,,,,,10,6,,,759.9157,6,,,,1.5,0.3,,,,,6,0,6,0,1,,,,,,,,,
,,,,ember,A,2024-05-08_14h16.38.759,Slot Machine Game,2023.1.3,MacIntel,60.60606061,,,,,,,,,,,,,,,,,,,,,,,,,,,,,,,,,,,,,,,,,,,,,,,,,10,6,,,765.4187,7,,,,1.5,0.3,,,,,7,0,7,0,1,,,,,,,,,
,,,,ember,A,2024-05-08_14h16.38.759,Slot Machine Game,2023.1.3,MacIntel,60.60606061,,,,,,,,,,,,,,,,,,,,,,,,,,,,,,,,,,,,,,,,,,,,,,,,,10,6,,,770.9213,8,,,,0.5,0.3,,,,,8,0,8,0,1,,,,,,,,,
,,,,ember,A,2024-05-08_14h16.38.759,Slot Machine Game,2023.1.3,MacIntel,60.60606061,,,,,,,,,,,,,,,,,,,,,,,,,,,,,,,,,,,,,,,,,,,,,,,,,10,6,,,776.4266,9,,,,1.5,0.3,,,,,9,0,9,0,1,,,,,,,,,
,,,,ember,A,2024-05-08_14h16.38.759,Slot Machine Game,2023.1.3,MacIntel,60.60606061,,,,,,,,,,,,,,,,,,,,,,,,,,,,,,,,,,,,,,,,,,,,,,,,,10,6,,,781.9289,10,,,,1,0.3,,,,,10,0,10,0,1,,,,,,,,,
,,,,ember,A,2024-05-08_14h16.38.759,Slot Machine Game,2023.1.3,MacIntel,60.60606061,,,,,,,,,,,,,,,,,,,,,,,,,,,,,,,,,,,,,,,,,,,,,,,,,10,6,,,787.4315,11,,,,0.5,0.3,,,,,11,0,11,0,1,,,,,,,,,
,,,,ember,A,2024-05-08_14h16.38.759,Slot Machine Game,2023.1.3,MacIntel,60.60606061,,,,,,,,,,,,,,,,,,,,,,,,,,,,,,,,,,,,,,,,,,,,,,,,,10,6,,,792.9351,12,,,,1,0.3,,,,,12,0,12,0,1,,,,,,,,,
,,,,ember,A,2024-05-08_14h16.38.759,Slot Machine Game,2023.1.3,MacIntel,60.60606061,,,,,,,,,,,,,,,,,,,,,,,,,,,,,,,,,,,,,,,,,,,,,,,,,10,6,,,798.4396,13,,,,1.5,0.3,,,,,13,0,13,0,1,,,,,,,,,
,,,,ember,A,2024-05-08_14h16.38.759,Slot Machine Game,2023.1.3,MacIntel,60.60606061,,,,,,,,,,,,,,,,,,,,,,,,,,,,,,,,,,,,,,,,,,,,,,,,,10,6,,,803.9571,14,,,,1,0.3,,,,,14,0,14,0,1,,,,,,,,,
,,,,ember,A,2024-05-08_14h16.38.759,Slot Machine Game,2023.1.3,MacIntel,60.60606061,,,,,,,,,,,,,,,,,,,,,,,,,,,,,,,,,,,809.4623,"[290,770,1220,380,150,490,290,430,180,0,0,0]",,,,,,,,,,,,,,,,,,,,,,,,,,,,,,,,,9,0,9,0,1,,,,
,,,,ember,A,2024-05-08_14h16.38.759,Slot Machine Game,2023.1.3,MacIntel,60.60606061,,,,,,,,,,,,,,,,,,,,,,,,,,,,,,,,,,,,,,,,,,,,,,,,,,,,,,,,,,,,,,,,,,,,,,,,,,11,"[290,770,1220,380,150,490,290,430,180,0,0,0]",1220,2024-05-08_14h30.17.432
