key_resp_welcome_started,key_resp_welcome_keys,key_resp_welcome_rt,key_resp_welcome_duration,prolific_pid,path_id,date,expName,psychopyVersion,OS,frameRate,key_resp_instruction1_started,key_resp_instruction1_keys,key_resp_instruction1_rt,key_resp_instruction1_duration,key_resp_instruction2_started,key_resp_instruction2_keys,key_resp_instruction2_rt,key_resp_instruction2_duration,key_resp_instruction3_started,key_resp_instruction3_keys,key_resp_instruction3_rt,key_resp_instruction3_duration,key_resp_instruction4_started,key_resp_instruction4_keys,key_resp_instruction4_rt,key_resp_instruction4_duration,practiceCondition,practice_reward_seqs,practice_trial_started,practice_trial_num,practice_resp_rt,practice_keypress_time,practice_resp_keys,prac_presentationInterval,"practice_reward_seq: 2,1,3",reward_img,cumulative_reward,trial_reward,practice_trials.thisRepN,practice_trials.thisTrialN,practice_trials.thisN,practice_trials.thisIndex,practice_trials.ran,"practice_reward_seq: 2,3,1",block_break_started,"practice_reward_seq: 1,3,2","practice_reward_seq: 3,1,2",practice_end_time,practice_end_keys,practice_end_rt,practice_end_duration,main_instruction_text_started,block_condition,block_order_indices,main_instruction_keys,main_instruction_rt,main_instruction_duration,block_number,block_assignment,current_condition,main_reward_seqs,main_trial_started,main_trial_num,main_trial_keys,main_trial_rt,main_trial_keypress_time,main_presentationInterval,reward_presentation_time,main_reward_seq,reward_rand_val,main_reward_img,current_reward,main_trials.thisRepN,main_trials.thisTrialN,main_trials.thisN,main_trials.thisIndex,main_trials.ran,block_reward,block.thisRepN,block.thisTrialN,block.thisN,block.thisIndex,block.ran
0.0004,space,1.0133,,emberlasttest,B,2024-08-15_15h30.12.753,Slot Machine Game,2023.1.3,MacIntel,59.88023952,,,,,,,,,,,,,,,,,,,,,,,,,,,,,,,,,,,,,,,,,,,,,,,,,,,,,,,,,,,,,,,,,,,,,,,,,
,,,,emberlasttest,B,2024-08-15_15h30.12.753,Slot Machine Game,2023.1.3,MacIntel,59.88023952,1.0333,space,0.1328,,,,,,,,,,,,,,,,,,,,,,,,,,,,,,,,,,,,,,,,,,,,,,,,,,,,,,,,,,,,,,,,,,,,,,
,,,,emberlasttest,B,2024-08-15_15h30.12.753,Slot Machine Game,2023.1.3,MacIntel,59.88023952,,,,,1.2003,space,0.1,,,,,,,,,,,,,,,,,,,,,,,,,,,,,,,,,,,,,,,,,,,,,,,,,,,,,,,,,,,,,,,,,,
,,,,emberlasttest,B,2024-08-15_15h30.12.753,Slot Machine Game,2023.1.3,MacIntel,59.88023952,,,,,,,,,1.3341,space,0.7181,,,,,,,,,,,,,,,,,,,,,,,,,,,,,,,,,,,,,,,,,,,,,,,,,,,,,,,,,,,,,,
,,,,emberlasttest,B,2024-08-15_15h30.12.753,Slot Machine Game,2023.1.3,MacIntel,59.88023952,,,,,,,,,,,,,,,,,,,,,,,,,,,,,,,,,,,,,,,,,,,,,,,,,,,,,,,,,,,,,,,,,,,,,,,,,
,,,,emberlasttest,B,2024-08-15_15h30.12.753,Slot Machine Game,2023.1.3,MacIntel,59.88023952,,,,,,,,,,,,,143.8286,space,2.5057,,,,,,,,,,,,,,,,,,,,,,,,,,,,,,,,,,,,,,,,,,,,,,,,,,,,,,,,,,
,,,,emberlasttest,B,2024-08-15_15h30.12.753,Slot Machine Game,2023.1.3,MacIntel,59.88023952,,,,,,,,,,,,,,,,,"[9,15]","[[2,1,3],[2,3,1]]",146.4151,0,1.4746,147.9102,up,1,,stimuli/card_100_transparent.png,100,100,0,0,0,0,1,,,,,,,,,,,,,,,,,,,,,,,,,,,,,,,,,,,,,,,,
,,,,emberlasttest,B,2024-08-15_15h30.12.753,Slot Machine Game,2023.1.3,MacIntel,59.88023952,,,,,,,,,,,,,,,,,,,149.2107,1,0.5998,149.8272,up,1.5,,stimuli/card_0_transparent.png,100,0,1,0,1,0,1,,,,,,,,,,,,,,,,,,,,,,,,,,,,,,,,,,,,,,,,
,,,,emberlasttest,B,2024-08-15_15h30.12.753,Slot Machine Game,2023.1.3,MacIntel,59.88023952,,,,,,,,,,,,,,,,,,,151.6272,2,0.512,152.1589,up,0.5,,stimuli/card_10_transparent.png,110,10,2,0,2,0,1,,,,,,,,,,,,,,,,,,,,,,,,,,,,,,,,,,,,,,,,
,,,,emberlasttest,B,2024-08-15_15h30.12.753,Slot Machine Game,2023.1.3,MacIntel,59.88023952,,,,,,,,,,,,,,,,,,,152.9608,3,0.5731,153.5587,up,1,,stimuli/card_100_transparent.png,210,100,3,0,3,0,1,,,,,,,,,,,,,,,,,,,,,,,,,,,,,,,,,,,,,,,,
,,,,emberlasttest,B,2024-08-15_15h30.12.753,Slot Machine Game,2023.1.3,MacIntel,59.88023952,,,,,,,,,,,,,,,,,,,154.8587,4,0.6184,155.508,up,0.5,,stimuli/card_100_transparent.png,310,100,4,0,4,0,1,,,,,,,,,,,,,,,,,,,,,,,,,,,,,,,,,,,,,,,,
,,,,emberlasttest,B,2024-08-15_15h30.12.753,Slot Machine Game,2023.1.3,MacIntel,59.88023952,,,,,,,,,,,,,,,,,,,156.3083,5,0.5441,156.8582,up,1,,stimuli/card_100_transparent.png,410,100,5,0,5,0,1,,,,,,,,,,,,,,,,,,,,,,,,,,,,,,,,,,,,,,,,
,,,,emberlasttest,B,2024-08-15_15h30.12.753,Slot Machine Game,2023.1.3,MacIntel,59.88023952,,,,,,,,,,,,,,,,,,,158.1576,6,0.6356,158.8234,up,1,,stimuli/card_100_transparent.png,510,100,6,0,6,0,1,,,,,,,,,,,,,,,,,,,,,,,,,,,,,,,,,,,,,,,,
,,,,emberlasttest,B,2024-08-15_15h30.12.753,Slot Machine Game,2023.1.3,MacIntel,59.88023952,,,,,,,,,,,,,,,,,,,160.1234,7,0.6226,160.7576,left,1.5,,stimuli/card_10_transparent.png,520,10,7,0,7,0,1,,,,,,,,,,,,,,,,,,,,,,,,,,,,,,,,,,,,,,,,
,,,,emberlasttest,B,2024-08-15_15h30.12.753,Slot Machine Game,2023.1.3,MacIntel,59.88023952,,,,,,,,,,,,,,,,,,,162.558,8,0.5421,163.1235,left,1,,stimuli/card_10_transparent.png,530,10,8,0,8,0,1,,,,,,,,,,,,,,,,,,,,,,,,,,,,,,,,,,,,,,,,
,,,,emberlasttest,B,2024-08-15_15h30.12.753,Slot Machine Game,2023.1.3,MacIntel,59.88023952,,,,,,,,,,,,,,,,,,,164.4225,9,0.5797,165.0227,up,1,,stimuli/card_0_transparent.png,530,0,9,0,9,0,1,,,,,,,,,,,,,,,,,,,,,,,,,,,,,,,,,,,,,,,,
,,,,emberlasttest,B,2024-08-15_15h30.12.753,Slot Machine Game,2023.1.3,MacIntel,59.88023952,,,,,,,,,,,,,,,,,,,166.3223,10,0.7431,167.0886,up,1.5,,stimuli/card_100_transparent.png,630,100,10,0,10,0,1,,,,,,,,,,,,,,,,,,,,,,,,,,,,,,,,,,,,,,,,
,,,,emberlasttest,B,2024-08-15_15h30.12.753,Slot Machine Game,2023.1.3,MacIntel,59.88023952,,,,,,,,,,,,,,,,,,,168.888,11,1.3278,170.2375,up,1,,stimuli/card_100_transparent.png,730,100,11,0,11,0,1,,,,,,,,,,,,,,,,,,,,,,,,,,,,,,,,,,,,,,,,
,,,,emberlasttest,B,2024-08-15_15h30.12.753,Slot Machine Game,2023.1.3,MacIntel,59.88023952,,,,,,,,,,,,,,,,,,,171.5374,12,0.568,172.1209,up,1.5,,stimuli/card_10_transparent.png,740,10,12,0,12,0,1,,,,,,,,,,,,,,,,,,,,,,,,,,,,,,,,,,,,,,,,
,,,,emberlasttest,B,2024-08-15_15h30.12.753,Slot Machine Game,2023.1.3,MacIntel,59.88023952,,,,,,,,,,,,,,,,,,,173.9209,13,1.095,175.054,right,1.5,,stimuli/card_100_transparent.png,840,100,13,0,13,0,1,,,,,,,,,,,,,,,,,,,,,,,,,,,,,,,,,,,,,,,,
,,,,emberlasttest,B,2024-08-15_15h30.12.753,Slot Machine Game,2023.1.3,MacIntel,59.88023952,,,,,,,,,,,,,,,,,,,176.8534,14,0.5485,177.4363,right,1.5,,stimuli/card_100_transparent.png,940,100,14,0,14,0,1,,,,,,,,,,,,,,,,,,,,,,,,,,,,,,,,,,,,,,,,
,,,,emberlasttest,B,2024-08-15_15h30.12.753,Slot Machine Game,2023.1.3,MacIntel,59.88023952,,,,,,,,,,,,,,,,,"[6,15]","[[1,3,2],[3,1,2]]",184.2382,0,0.685,184.9475,left,1,,stimuli/card_100_transparent.png,100,100,0,0,0,0,1,,179.2364,,,,,,,,,,,,,,,,,,,,,,,,,,,,,,,,,,,,,,
,,,,emberlasttest,B,2024-08-15_15h30.12.753,Slot Machine Game,2023.1.3,MacIntel,59.88023952,,,,,,,,,,,,,,,,,,,186.2517,1,0.5447,186.8082,left,1,,stimuli/card_0_transparent.png,100,0,1,0,1,0,1,,,,,,,,,,,,,,,,,,,,,,,,,,,,,,,,,,,,,,,,
,,,,emberlasttest,B,2024-08-15_15h30.12.753,Slot Machine Game,2023.1.3,MacIntel,59.88023952,,,,,,,,,,,,,,,,,,,188.1006,2,0.5047,188.6329,left,1,,stimuli/card_100_transparent.png,200,100,2,0,2,0,1,,,,,,,,,,,,,,,,,,,,,,,,,,,,,,,,,,,,,,,,
,,,,emberlasttest,B,2024-08-15_15h30.12.753,Slot Machine Game,2023.1.3,MacIntel,59.88023952,,,,,,,,,,,,,,,,,,,189.933,3,0.53,190.4833,left,1,,stimuli/card_100_transparent.png,300,100,3,0,3,0,1,,,,,,,,,,,,,,,,,,,,,,,,,,,,,,,,,,,,,,,,
,,,,emberlasttest,B,2024-08-15_15h30.12.753,Slot Machine Game,2023.1.3,MacIntel,59.88023952,,,,,,,,,,,,,,,,,,,191.7825,4,0.5721,192.3752,left,1.5,,stimuli/card_10_transparent.png,310,10,4,0,4,0,1,,,,,,,,,,,,,,,,,,,,,,,,,,,,,,,,,,,,,,,,
,,,,emberlasttest,B,2024-08-15_15h30.12.753,Slot Machine Game,2023.1.3,MacIntel,59.88023952,,,,,,,,,,,,,,,,,,,194.1653,5,0.7454,194.9411,left,1,,stimuli/card_100_transparent.png,410,100,5,0,5,0,1,,,,,,,,,,,,,,,,,,,,,,,,,,,,,,,,,,,,,,,,
,,,,emberlasttest,B,2024-08-15_15h30.12.753,Slot Machine Game,2023.1.3,MacIntel,59.88023952,,,,,,,,,,,,,,,,,,,196.2313,6,0.5593,196.8283,left,0.5,,stimuli/card_0_transparent.png,410,0,6,0,6,0,1,,,,,,,,,,,,,,,,,,,,,,,,,,,,,,,,,,,,,,,,
,,,,emberlasttest,B,2024-08-15_15h30.12.753,Slot Machine Game,2023.1.3,MacIntel,59.88023952,,,,,,,,,,,,,,,,,,,197.6315,7,0.6085,198.2631,left,0.5,,stimuli/card_0_transparent.png,410,0,7,0,7,0,1,,,,,,,,,,,,,,,,,,,,,,,,,,,,,,,,,,,,,,,,
,,,,emberlasttest,B,2024-08-15_15h30.12.753,Slot Machine Game,2023.1.3,MacIntel,59.88023952,,,,,,,,,,,,,,,,,,,199.0644,8,0.6664,199.7469,left,0.5,,stimuli/card_10_transparent.png,420,10,8,0,8,0,1,,,,,,,,,,,,,,,,,,,,,,,,,,,,,,,,,,,,,,,,
,,,,emberlasttest,B,2024-08-15_15h30.12.753,Slot Machine Game,2023.1.3,MacIntel,59.88023952,,,,,,,,,,,,,,,,,,,200.5474,9,0.6924,201.2566,left,1.5,,stimuli/card_0_transparent.png,420,0,9,0,9,0,1,,,,,,,,,,,,,,,,,,,,,,,,,,,,,,,,,,,,,,,,
,,,,emberlasttest,B,2024-08-15_15h30.12.753,Slot Machine Game,2023.1.3,MacIntel,59.88023952,,,,,,,,,,,,,,,,,,,203.0462,10,0.7351,203.8096,up,1,,stimuli/card_100_transparent.png,520,100,10,0,10,0,1,,,,,,,,,,,,,,,,,,,,,,,,,,,,,,,,,,,,,,,,
,,,,emberlasttest,B,2024-08-15_15h30.12.753,Slot Machine Game,2023.1.3,MacIntel,59.88023952,,,,,,,,,,,,,,,,,,,205.1122,11,0.5143,205.6408,up,1,,stimuli/card_100_transparent.png,620,100,11,0,11,0,1,,,,,,,,,,,,,,,,,,,,,,,,,,,,,,,,,,,,,,,,
,,,,emberlasttest,B,2024-08-15_15h30.12.753,Slot Machine Game,2023.1.3,MacIntel,59.88023952,,,,,,,,,,,,,,,,,,,206.9447,12,0.8638,207.8306,up,1.5,,stimuli/card_10_transparent.png,630,10,12,0,12,0,1,,,,,,,,,,,,,,,,,,,,,,,,,,,,,,,,,,,,,,,,
,,,,emberlasttest,B,2024-08-15_15h30.12.753,Slot Machine Game,2023.1.3,MacIntel,59.88023952,,,,,,,,,,,,,,,,,,,209.6289,13,0.7504,210.4042,right,1,,stimuli/card_10_transparent.png,640,10,13,0,13,0,1,,,,,,,,,,,,,,,,,,,,,,,,,,,,,,,,,,,,,,,,
,,,,emberlasttest,B,2024-08-15_15h30.12.753,Slot Machine Game,2023.1.3,MacIntel,59.88023952,,,,,,,,,,,,,,,,,,,211.6929,14,0.7778,212.51,up,0.5,,stimuli/card_100_transparent.png,740,100,14,0,14,0,1,,,,,,,,,,,,,,,,,,,,,,,,,,,,,,,,,,,,,,,,
,,,,emberlasttest,B,2024-08-15_15h30.12.753,Slot Machine Game,2023.1.3,MacIntel,59.88023952,,,,,,,,,,,,,,,,,,,,,,,,,,,,,,,,,,,213.3101,,,218.31,space,222.7687,,,,,,,,,,,,,,,,,,,,,,,,,,,,,,,,,
,,,,emberlasttest,B,2024-08-15_15h30.12.753,Slot Machine Game,2023.1.3,MacIntel,59.88023952,,,,,,,,,,,,,,,,,,,,,,,,,,,,,,,,,,,,,,,,,,441.1011,3,"[0,4,6,3,5,7,8,1,9,2]",space,0.8398,,,,,,,,,,,,,,,,,,,,,,,,,,,
,,,,emberlasttest,B,2024-08-15_15h30.12.753,Slot Machine Game,2023.1.3,MacIntel,59.88023952,,,,,,,,,,,,,,,,,,,,,,,,,,,10,,,,,,,,,,,,,,,,,,,,,1,1,"[12,15]","[[2,1,3],[2,3,1]]",441.9704,0,left,0.8571,442.8484,1.5,0.3,"[2,1,3]",0.589720957,stimuli/card_10_transparent.png,10,0,0,0,0,1,,,,,,
,,,,emberlasttest,B,2024-08-15_15h30.12.753,Slot Machine Game,2023.1.3,MacIntel,59.88023952,,,,,,,,,,,,,,,,,,,,,,,,,,,10,,,,,,,,,,,,,,,,,,,,,1,1,,,444.6471,1,up,0.8141,445.4819,1.5,0.3,"[2,1,3]",0.002933096,stimuli/card_0_transparent.png,0,1,0,1,0,1,,,,,,
,,,,emberlasttest,B,2024-08-15_15h30.12.753,Slot Machine Game,2023.1.3,MacIntel,59.88023952,,,,,,,,,,,,,,,,,,,,,,,,,,,10,,,,,,,,,,,,,,,,,,,,,1,1,,,447.2809,2,right,0.7934,448.0971,1.5,0.3,"[2,1,3]",0.291817148,stimuli/card_0_transparent.png,0,2,0,2,0,1,,,,,,
,,,,emberlasttest,B,2024-08-15_15h30.12.753,Slot Machine Game,2023.1.3,MacIntel,59.88023952,,,,,,,,,,,,,,,,,,,,,,,,,,,110,,,,,,,,,,,,,,,,,,,,,1,1,,,449.8967,3,up,1.3668,451.2961,1.5,0.3,"[2,1,3]",0.843176882,stimuli/card_100_transparent.png,100,3,0,3,0,1,,,,,,
,,,,emberlasttest,B,2024-08-15_15h30.12.753,Slot Machine Game,2023.1.3,MacIntel,59.88023952,,,,,,,,,,,,,,,,,,,,,,,,,,,210,,,,,,,,,,,,,,,,,,,,,1,1,,,453.0966,4,up,0.5268,453.6459,1,0.3,"[2,1,3]",0.561977044,stimuli/card_100_transparent.png,100,4,0,4,0,1,,,,,,
,,,,emberlasttest,B,2024-08-15_15h30.12.753,Slot Machine Game,2023.1.3,MacIntel,59.88023952,,,,,,,,,,,,,,,,,,,,,,,,,,,310,,,,,,,,,,,,,,,,,,,,,1,1,,,454.9448,5,up,0.5502,455.5283,0.5,0.3,"[2,1,3]",0.555921458,stimuli/card_100_transparent.png,100,5,0,5,0,1,,,,,,
,,,,emberlasttest,B,2024-08-15_15h30.12.753,Slot Machine Game,2023.1.3,MacIntel,59.88023952,,,,,,,,,,,,,,,,,,,,,,,,,,,410,,,,,,,,,,,,,,,,,,,,,1,1,,,456.3284,6,up,0.5991,456.9611,1.5,0.3,"[2,1,3]",0.474407572,stimuli/card_100_transparent.png,100,6,0,6,0,1,,,,,,
,,,,emberlasttest,B,2024-08-15_15h30.12.753,Slot Machine Game,2023.1.3,MacIntel,59.88023952,,,,,,,,,,,,,,,,,,,,,,,,,,,510,,,,,,,,,,,,,,,,,,,,,1,1,,,458.7611,7,up,0.6002,459.394,0.5,0.3,"[2,1,3]",0.284783033,stimuli/card_100_transparent.png,100,7,0,7,0,1,,,,,,
,,,,emberlasttest,B,2024-08-15_15h30.12.753,Slot Machine Game,2023.1.3,MacIntel,59.88023952,,,,,,,,,,,,,,,,,,,,,,,,,,,610,,,,,,,,,,,,,,,,,,,,,1,1,,,460.1927,8,up,0.8664,461.0776,1.5,0.3,"[2,1,3]",0.440472474,stimuli/card_100_transparent.png,100,8,0,8,0,1,,,,,,
,,,,emberlasttest,B,2024-08-15_15h30.12.753,Slot Machine Game,2023.1.3,MacIntel,59.88023952,,,,,,,,,,,,,,,,,,,,,,,,,,,710,,,,,,,,,,,,,,,,,,,,,1,1,,,462.8763,9,up,1.0045,463.909,1.5,0.3,"[2,1,3]",0.522542848,stimuli/card_100_transparent.png,100,9,0,9,0,1,,,,,,
,,,,emberlasttest,B,2024-08-15_15h30.12.753,Slot Machine Game,2023.1.3,MacIntel,59.88023952,,,,,,,,,,,,,,,,,,,,,,,,,,,810,,,,,,,,,,,,,,,,,,,,,1,1,,,465.7099,10,up,0.7237,466.4582,1,0.3,"[2,1,3]",0.607458303,stimuli/card_100_transparent.png,100,10,0,10,0,1,,,,,,
,,,,emberlasttest,B,2024-08-15_15h30.12.753,Slot Machine Game,2023.1.3,MacIntel,59.88023952,,,,,,,,,,,,,,,,,,,,,,,,,,,910,,,,,,,,,,,,,,,,,,,,,1,1,,,467.7593,11,up,0.7605,468.5409,1,0.3,"[2,1,3]",0.708578652,stimuli/card_100_transparent.png,100,11,0,11,0,1,,,,,,
,,,,emberlasttest,B,2024-08-15_15h30.12.753,Slot Machine Game,2023.1.3,MacIntel,59.88023952,,,,,,,,,,,,,,,,,,,,,,,,,,,910,,,,,,,,,,,,,,,,,,,,,1,1,,,469.842,12,up,1.3349,471.2068,0.5,0.3,"[2,3,1]",0.50272542,stimuli/card_0_transparent.png,0,12,0,12,0,1,,,,,,
,,,,emberlasttest,B,2024-08-15_15h30.12.753,Slot Machine Game,2023.1.3,MacIntel,59.88023952,,,,,,,,,,,,,,,,,,,,,,,,,,,910,,,,,,,,,,,,,,,,,,,,,1,1,,,472.0079,13,up,0.5837,472.6248,0.5,0.3,"[2,3,1]",0.264990064,stimuli/card_0_transparent.png,0,13,0,13,0,1,,,,,,
,,,,emberlasttest,B,2024-08-15_15h30.12.753,Slot Machine Game,2023.1.3,MacIntel,59.88023952,,,,,,,,,,,,,,,,,,,,,,,,,,,910,,,,,,,,,,,,,,,,,,,,,1,1,,,473.4249,14,up,2.9469,476.4061,0.5,0.3,"[2,3,1]",0.746234265,stimuli/card_0_transparent.png,0,14,0,14,0,1,,,,,,
,,,,emberlasttest,B,2024-08-15_15h30.12.753,Slot Machine Game,2023.1.3,MacIntel,59.88023952,,,,,,,,,,,,,,,,,,,,,,,,,,,,,,,,,,,477.2069,,,,,,,,,,,,,,,,,,,,,,,,,,,,,,,,,[910],0,0,0,0,1
,,,,emberlasttest,B,2024-08-15_15h30.12.753,Slot Machine Game,2023.1.3,MacIntel,59.88023952,,,,,,,,,,,,,,,,,,,,,,,,,,,,,,,,,,,,,,,,,,,,,,,,2,5,"[5,15]","[[1,2,3],[3,1,2]]",482.2063,0,,,,1,0.3,,,,,0,0,0,0,1,,,,,,
,,,,emberlasttest,B,2024-08-15_15h30.12.753,Slot Machine Game,2023.1.3,MacIntel,59.88023952,,,,,,,,,,,,,,,,,,,,,,,,,,,,,,,,,,,,,,,,,,,,,,,,2,5,,,487.7236,1,,,,1.5,0.3,,,,,1,0,1,0,1,,,,,,
,,,,emberlasttest,B,2024-08-15_15h30.12.753,Slot Machine Game,2023.1.3,MacIntel,59.88023952,,,,,,,,,,,,,,,,,,,,,,,,,,,,,,,,,,,,,,,,,,,,,,,,2,5,,,493.2354,2,,,,1.5,0.3,,,,,2,0,2,0,1,,,,,,
,,,,emberlasttest,B,2024-08-15_15h30.12.753,Slot Machine Game,2023.1.3,MacIntel,59.88023952,,,,,,,,,,,,,,,,,,,,,,,,,,,,,,,,,,,,,,,,,,,,,,,,2,5,,,498.7497,3,,,,1.5,0.3,,,,,3,0,3,0,1,,,,,,
,,,,emberlasttest,B,2024-08-15_15h30.12.753,Slot Machine Game,2023.1.3,MacIntel,59.88023952,,,,,,,,,,,,,,,,,,,,,,,,,,,,,,,,,,,,,,,,,,,,,,,,2,5,,,504.2654,4,,,,0.5,0.3,,,,,4,0,4,0,1,,,,,,
,,,,emberlasttest,B,2024-08-15_15h30.12.753,Slot Machine Game,2023.1.3,MacIntel,59.88023952,,,,,,,,,,,,,,,,,,,,,,,,,,,,,,,,,,,,,,,,,,,,,,,,2,5,,,509.782,5,,,,0.5,0.3,,,,,5,0,5,0,1,,,,,,
,,,,emberlasttest,B,2024-08-15_15h30.12.753,Slot Machine Game,2023.1.3,MacIntel,59.88023952,,,,,,,,,,,,,,,,,,,,,,,,,,,,,,,,,,,,,,,,,,,,,,,,2,5,,,515.2959,6,,,,1,0.3,,,,,6,0,6,0,1,,,,,,
,,,,emberlasttest,B,2024-08-15_15h30.12.753,Slot Machine Game,2023.1.3,MacIntel,59.88023952,,,,,,,,,,,,,,,,,,,,,,,,,,,,,,,,,,,,,,,,,,,,,,,,2,5,,,520.8119,7,,,,1.5,0.3,,,,,7,0,7,0,1,,,,,,
,,,,emberlasttest,B,2024-08-15_15h30.12.753,Slot Machine Game,2023.1.3,MacIntel,59.88023952,,,,,,,,,,,,,,,,,,,,,,,,,,,,,,,,,,,,,,,,,,,,,,,,2,5,,,526.3254,8,,,,0.5,0.3,,,,,8,0,8,0,1,,,,,,
,,,,emberlasttest,B,2024-08-15_15h30.12.753,Slot Machine Game,2023.1.3,MacIntel,59.88023952,,,,,,,,,,,,,,,,,,,,,,,,,,,,,,,,,,,,,,,,,,,,,,,,2,5,,,531.8419,9,,,,0.5,0.3,,,,,9,0,9,0,1,,,,,,
,,,,emberlasttest,B,2024-08-15_15h30.12.753,Slot Machine Game,2023.1.3,MacIntel,59.88023952,,,,,,,,,,,,,,,,,,,,,,,,,,,,,,,,,,,,,,,,,,,,,,,,2,5,,,537.3555,10,,,,0.5,0.3,,,,,10,0,10,0,1,,,,,,
,,,,emberlasttest,B,2024-08-15_15h30.12.753,Slot Machine Game,2023.1.3,MacIntel,59.88023952,,,,,,,,,,,,,,,,,,,,,,,,,,,,,,,,,,,,,,,,,,,,,,,,2,5,,,702.9648,11,,,,1.5,0.3,,,,,11,0,11,0,1,,,,,,
