participant,date,expName,psychopyVersion,OS,frameRate,key_resp_instruction1.started,key_resp_instruction1.keys,key_resp_instruction1.rt,key_resp_instruction1.duration,key_resp_instruction2.started,key_resp_instruction2.keys,key_resp_instruction2.rt,key_resp_instruction2.duration,key_resp_instruction3.started,key_resp_instruction3.keys,key_resp_instruction3.rt,key_resp_instruction3.duration,practiceCondition,practice_reward_seqs,key_resp_practice_slots.started,key_resp_practice_slots.keys,key_resp_practice_slots.rt,key_resp_practice_slots.duration,presentationInterval,"practice_reward_seq: 2,1,3",reward_Img,Cuml_rew,currentPracticeTrialReward,practice_trials.thisRepN,practice_trials.thisTrialN,practice_trials.thisN,practice_trials.thisIndex,practice_trials.ran,"practice_reward_seq: 2,3,1",text_block_break.started,practice_block.thisRepN,practice_block.thisTrialN,practice_block.thisN,practice_block.thisIndex,practice_block.ran,"practice_reward_seq: 1,3,2","practice_reward_seq: 3,1,2",key_resp_practice_end.started,key_resp_practice_end.keys,key_resp_practice_end.rt,key_resp_practice_end.duration,text_main_instruction.started,BlockCondition,BlockOrderIndices,key_resp_main_instruction.started,key_resp_main_instruction.keys,key_resp_main_instruction.rt,key_resp_main_instruction.duration,currentCondition,main_reward_seqs,key_resp_slots_presentation.started,key_resp_slots_presentation.keys,key_resp_slots_presentation.rt,key_resp_slots_presentation.duration,Main_presentationInterval,rewardPresentationTime,Main_reward_seq,Random value generated,Main_reward_Img,Main_Cumul_Reward,Main_currentTrialReward,main_trials.thisRepN,main_trials.thisTrialN,main_trials.thisN,main_trials.thisIndex,main_trials.ran,block.thisRepN,block.thisTrialN,block.thisN,block.thisIndex,block.ran
Kelsey,2023-10-02_13h21.10.805,slotMachine_updated,2023.1.3,MacIntel,59.99880002,,,,,,,,,,,,,,,,,,,,,,,,,,,,,,,,,,,,,,,,,,,,,,,,,,,,,,,,,,,,,,,,,,,,,,,
Kelsey,2023-10-02_13h21.10.805,slotMachine_updated,2023.1.3,MacIntel,59.99880002,125.9872,space,7.5249,,,,,,,,,,,,,,,,,,,,,,,,,,,,,,,,,,,,,,,,,,,,,,,,,,,,,,,,,,,,,,,,,,,,
Kelsey,2023-10-02_13h21.10.805,slotMachine_updated,2023.1.3,MacIntel,59.99880002,,,,,133.5949,space,16.3194,,,,,,,,,,,,,,,,,,,,,,,,,,,,,,,,,,,,,,,,,,,,,,,,,,,,,,,,,,,,,,,,
Kelsey,2023-10-02_13h21.10.805,slotMachine_updated,2023.1.3,MacIntel,59.99880002,,,,,,,,,149.9315,space,14.7847,,,,,,,,,,,,,,,,,,,,,,,,,,,,,,,,,,,,,,,,,,,,,,,,,,,,,,,,,,,,
Kelsey,2023-10-02_13h21.10.805,slotMachine_updated,2023.1.3,MacIntel,59.99880002,,,,,,,,,,,,,"[9,15]","[[2,1,3],[2,3,1]]",164.7378,left,1.2259,,1,,stimuli/card_100_transparent.png,100,100,0,0,0,0,1,,,,,,,,,,,,,,,,,,,,,,,,,,,,,,,,,,,,,,,,,,,
Kelsey,2023-10-02_13h21.10.805,slotMachine_updated,2023.1.3,MacIntel,59.99880002,,,,,,,,,,,,,,,167.3328,left,4.575,,1,,stimuli/card_10_transparent.png,110,10,1,0,1,0,1,,,,,,,,,,,,,,,,,,,,,,,,,,,,,,,,,,,,,,,,,,,
Kelsey,2023-10-02_13h21.10.805,slotMachine_updated,2023.1.3,MacIntel,59.99880002,,,,,,,,,,,,,,,173.2331,left,1.7121,,0.5,,stimuli/card_10_transparent.png,120,10,2,0,2,0,1,,,,,,,,,,,,,,,,,,,,,,,,,,,,,,,,,,,,,,,,,,,
Kelsey,2023-10-02_13h21.10.805,slotMachine_updated,2023.1.3,MacIntel,59.99880002,,,,,,,,,,,,,,,175.7648,left,1.9972,,1,,stimuli/card_10_transparent.png,130,10,3,0,3,0,1,,,,,,,,,,,,,,,,,,,,,,,,,,,,,,,,,,,,,,,,,,,
Kelsey,2023-10-02_13h21.10.805,slotMachine_updated,2023.1.3,MacIntel,59.99880002,,,,,,,,,,,,,,,179.0802,left,3.199,,1,,stimuli/card_10_transparent.png,140,10,4,0,4,0,1,,,,,,,,,,,,,,,,,,,,,,,,,,,,,,,,,,,,,,,,,,,
Kelsey,2023-10-02_13h21.10.805,slotMachine_updated,2023.1.3,MacIntel,59.99880002,,,,,,,,,,,,,,,183.6001,up,0.2957,,0.5,,stimuli/card_100_transparent.png,240,100,5,0,5,0,1,,,,,,,,,,,,,,,,,,,,,,,,,,,,,,,,,,,,,,,,,,,
Kelsey,2023-10-02_13h21.10.805,slotMachine_updated,2023.1.3,MacIntel,59.99880002,,,,,,,,,,,,,,,184.7144,up,2.3588,,0.5,,stimuli/card_100_transparent.png,340,100,6,0,6,0,1,,,,,,,,,,,,,,,,,,,,,,,,,,,,,,,,,,,,,,,,,,,
Kelsey,2023-10-02_13h21.10.805,slotMachine_updated,2023.1.3,MacIntel,59.99880002,,,,,,,,,,,,,,,187.8994,up,1.1283,,0.5,,stimuli/card_100_transparent.png,440,100,7,0,7,0,1,,,,,,,,,,,,,,,,,,,,,,,,,,,,,,,,,,,,,,,,,,,
Kelsey,2023-10-02_13h21.10.805,slotMachine_updated,2023.1.3,MacIntel,59.99880002,,,,,,,,,,,,,,,189.848,up,1.173,,0.5,,stimuli/card_100_transparent.png,540,100,8,0,8,0,1,,,,,,,,,,,,,,,,,,,,,,,,,,,,,,,,,,,,,,,,,,,
Kelsey,2023-10-02_13h21.10.805,slotMachine_updated,2023.1.3,MacIntel,59.99880002,,,,,,,,,,,,,,,191.8487,up,1.2316,,1,,stimuli/card_0_transparent.png,540,0,9,0,9,0,1,,,,,,,,,,,,,,,,,,,,,,,,,,,,,,,,,,,,,,,,,,,
Kelsey,2023-10-02_13h21.10.805,slotMachine_updated,2023.1.3,MacIntel,59.99880002,,,,,,,,,,,,,,,194.4004,right,0.6635,,1,,stimuli/card_10_transparent.png,550,10,10,0,10,0,1,,,,,,,,,,,,,,,,,,,,,,,,,,,,,,,,,,,,,,,,,,,
Kelsey,2023-10-02_13h21.10.805,slotMachine_updated,2023.1.3,MacIntel,59.99880002,,,,,,,,,,,,,,,196.3815,right,2.3389,,0.5,,stimuli/card_100_transparent.png,650,100,11,0,11,0,1,,,,,,,,,,,,,,,,,,,,,,,,,,,,,,,,,,,,,,,,,,,
Kelsey,2023-10-02_13h21.10.805,slotMachine_updated,2023.1.3,MacIntel,59.99880002,,,,,,,,,,,,,,,199.5485,right,1.0477,,1.5,,stimuli/card_100_transparent.png,750,100,12,0,12,0,1,,,,,,,,,,,,,,,,,,,,,,,,,,,,,,,,,,,,,,,,,,,
Kelsey,2023-10-02_13h21.10.805,slotMachine_updated,2023.1.3,MacIntel,59.99880002,,,,,,,,,,,,,,,202.4182,right,0.8044,,1,,stimuli/card_100_transparent.png,850,100,13,0,13,0,1,,,,,,,,,,,,,,,,,,,,,,,,,,,,,,,,,,,,,,,,,,,
Kelsey,2023-10-02_13h21.10.805,slotMachine_updated,2023.1.3,MacIntel,59.99880002,,,,,,,,,,,,,,,204.5494,right,0.7819,,1,,stimuli/card_100_transparent.png,950,100,14,0,14,0,1,,,,,,,,,,,,,,,,,,,,,,,,,,,,,,,,,,,,,,,,,,,
Kelsey,2023-10-02_13h21.10.805,slotMachine_updated,2023.1.3,MacIntel,59.99880002,,,,,,,,,,,,,,,,,,,,,,,,,,,,,,206.6535,0,0,0,0,1,,,,,,,,,,,,,,,,,,,,,,,,,,,,,,,,,,,,
Kelsey,2023-10-02_13h21.10.805,slotMachine_updated,2023.1.3,MacIntel,59.99880002,,,,,,,,,,,,,"[6,15]","[[1,3,2],[3,1,2]]",,,,,,,,,,,,,,,,,,,,,,,,,,,,,,,,,,,,,,,,,,,,,,,,,,,,,,,,,
Kelsey,2023-10-02_13h21.10.805,slotMachine_updated,2023.1.3,MacIntel,59.99880002,,,,,,,,,,,,,,,211.6521,up,1.2917,,1.5,,stimuli/card_0_transparent.png,0,0,0,0,0,0,1,,,,,,,,,,,,,,,,,,,,,,,,,,,,,,,,,,,,,,,,,,,
Kelsey,2023-10-02_13h21.10.805,slotMachine_updated,2023.1.3,MacIntel,59.99880002,,,,,,,,,,,,,,,214.7784,left,0.5529,,1.5,,stimuli/card_100_transparent.png,100,100,1,0,1,0,1,,,,,,,,,,,,,,,,,,,,,,,,,,,,,,,,,,,,,,,,,,,
Kelsey,2023-10-02_13h21.10.805,slotMachine_updated,2023.1.3,MacIntel,59.99880002,,,,,,,,,,,,,,,217.1661,left,0.3599,,0.5,,stimuli/card_100_transparent.png,200,100,2,0,2,0,1,,,,,,,,,,,,,,,,,,,,,,,,,,,,,,,,,,,,,,,,,,,
Kelsey,2023-10-02_13h21.10.805,slotMachine_updated,2023.1.3,MacIntel,59.99880002,,,,,,,,,,,,,,,218.35,left,0.6571,,0.5,,stimuli/card_100_transparent.png,300,100,3,0,3,0,1,,,,,,,,,,,,,,,,,,,,,,,,,,,,,,,,,,,,,,,,,,,
Kelsey,2023-10-02_13h21.10.805,slotMachine_updated,2023.1.3,MacIntel,59.99880002,,,,,,,,,,,,,,,219.8346,left,0.2395,,0.5,,stimuli/card_100_transparent.png,400,100,4,0,4,0,1,,,,,,,,,,,,,,,,,,,,,,,,,,,,,,,,,,,,,,,,,,,
Kelsey,2023-10-02_13h21.10.805,slotMachine_updated,2023.1.3,MacIntel,59.99880002,,,,,,,,,,,,,,,220.9026,left,0.4278,,1.5,,stimuli/card_10_transparent.png,410,10,5,0,5,0,1,,,,,,,,,,,,,,,,,,,,,,,,,,,,,,,,,,,,,,,,,,,
Kelsey,2023-10-02_13h21.10.805,slotMachine_updated,2023.1.3,MacIntel,59.99880002,,,,,,,,,,,,,,,223.1518,left,2.1897,,1,,stimuli/card_0_transparent.png,410,0,6,0,6,0,1,,,,,,,,,,,,,,,,,,,,,,,,,,,,,,,,,,,,,,,,,,,
Kelsey,2023-10-02_13h21.10.805,slotMachine_updated,2023.1.3,MacIntel,59.99880002,,,,,,,,,,,,,,,226.6712,right,0.8352,,1.5,,stimuli/card_10_transparent.png,420,10,7,0,7,0,1,,,,,,,,,,,,,,,,,,,,,,,,,,,,,,,,,,,,,,,,,,,
Kelsey,2023-10-02_13h21.10.805,slotMachine_updated,2023.1.3,MacIntel,59.99880002,,,,,,,,,,,,,,,229.3201,right,0.5091,,1,,stimuli/card_0_transparent.png,420,0,8,0,8,0,1,,,,,,,,,,,,,,,,,,,,,,,,,,,,,,,,,,,,,,,,,,,
Kelsey,2023-10-02_13h21.10.805,slotMachine_updated,2023.1.3,MacIntel,59.99880002,,,,,,,,,,,,,,,231.1521,up,0.5025,,0.5,,stimuli/card_100_transparent.png,520,100,9,0,9,0,1,,,,,,,,,,,,,,,,,,,,,,,,,,,,,,,,,,,,,,,,,,,
Kelsey,2023-10-02_13h21.10.805,slotMachine_updated,2023.1.3,MacIntel,59.99880002,,,,,,,,,,,,,,,232.467,up,0.3954,,1.5,,stimuli/card_100_transparent.png,620,100,10,0,10,0,1,,,,,,,,,,,,,,,,,,,,,,,,,,,,,,,,,,,,,,,,,,,
Kelsey,2023-10-02_13h21.10.805,slotMachine_updated,2023.1.3,MacIntel,59.99880002,,,,,,,,,,,,,,,234.6876,up,0.2278,,0.5,,stimuli/card_100_transparent.png,720,100,11,0,11,0,1,,,,,,,,,,,,,,,,,,,,,,,,,,,,,,,,,,,,,,,,,,,
Kelsey,2023-10-02_13h21.10.805,slotMachine_updated,2023.1.3,MacIntel,59.99880002,,,,,,,,,,,,,,,235.7373,up,0.2597,,1,,stimuli/card_100_transparent.png,820,100,12,0,12,0,1,,,,,,,,,,,,,,,,,,,,,,,,,,,,,,,,,,,,,,,,,,,
Kelsey,2023-10-02_13h21.10.805,slotMachine_updated,2023.1.3,MacIntel,59.99880002,,,,,,,,,,,,,,,237.3181,up,0.0007,,1.5,,stimuli/card_100_transparent.png,920,100,13,0,13,0,1,,,,,,,,,,,,,,,,,,,,,,,,,,,,,,,,,,,,,,,,,,,
Kelsey,2023-10-02_13h21.10.805,slotMachine_updated,2023.1.3,MacIntel,59.99880002,,,,,,,,,,,,,,,239.1373,up,0.0291,,0.5,,stimuli/card_10_transparent.png,930,10,14,0,14,0,1,,,,,,,,,,,,,,,,,,,,,,,,,,,,,,,,,,,,,,,,,,,
Kelsey,2023-10-02_13h21.10.805,slotMachine_updated,2023.1.3,MacIntel,59.99880002,,,,,,,,,,,,,,,,,,,,,,,,,,,,,,,,,,,,,,239.985,space,2.3184,,,,,,,,,,,,,,,,,,,,,,,,,,,,,,,
Kelsey,2023-10-02_13h21.10.805,slotMachine_updated,2023.1.3,MacIntel,59.99880002,,,,,,,,,,,,,,,,,,,,,,,,,,,,,,,,,,,,,,,,,,242.3199,2,"[2,4,8,0,1,3,9,6,8,5]",242.3199,space,1.8014,,,,,,,,,,,,,,,,,,,,,,,,
Kelsey,2023-10-02_13h21.10.805,slotMachine_updated,2023.1.3,MacIntel,59.99880002,,,,,,,,,,,,,,,,,,,,,,,,,,,,,,,,,,,,,,,,,,,,,,,,,"[15,15]","[[3,1,2],[3,1,2]]",244.1395,left,1.0381,,1,0.3,"[3,1,2]",0.963321716,stimuli/card_0_transparent.png,0,0,0,0,0,0,1,,,,,
Kelsey,2023-10-02_13h21.10.805,slotMachine_updated,2023.1.3,MacIntel,59.99880002,,,,,,,,,,,,,,,,,,,,,,,,,,,,,,,,,,,,,,,,,,,,,,,,,,,246.5023,left,0.6399,,1.5,0.3,"[3,1,2]",0.925427335,stimuli/card_0_transparent.png,0,0,1,0,1,0,1,,,,,
Kelsey,2023-10-02_13h21.10.805,slotMachine_updated,2023.1.3,MacIntel,59.99880002,,,,,,,,,,,,,,,,,,,,,,,,,,,,,,,,,,,,,,,,,,,,,,,,,,,248.9518,up,2.1181,,0.5,0.3,"[3,1,2]",0.894814038,stimuli/card_100_transparent.png,100,100,2,0,2,0,1,,,,,
Kelsey,2023-10-02_13h21.10.805,slotMachine_updated,2023.1.3,MacIntel,59.99880002,,,,,,,,,,,,,,,,,,,,,,,,,,,,,,,,,,,,,,,,,,,,,,,,,,,251.8854,up,0.5232,,0.5,0.3,"[3,1,2]",0.526480726,stimuli/card_100_transparent.png,200,100,3,0,3,0,1,,,,,
Kelsey,2023-10-02_13h21.10.805,slotMachine_updated,2023.1.3,MacIntel,59.99880002,,,,,,,,,,,,,,,,,,,,,,,,,,,,,,,,,,,,,,,,,,,,,,,,,,,253.2389,up,0.1218,,1,0.3,"[3,1,2]",0.333595099,stimuli/card_100_transparent.png,300,100,4,0,4,0,1,,,,,
Kelsey,2023-10-02_13h21.10.805,slotMachine_updated,2023.1.3,MacIntel,59.99880002,,,,,,,,,,,,,,,,,,,,,,,,,,,,,,,,,,,,,,,,,,,,,,,,,,,254.688,up,0.0009,,1.5,0.3,"[3,1,2]",0.343898175,stimuli/card_100_transparent.png,400,100,5,0,5,0,1,,,,,
Kelsey,2023-10-02_13h21.10.805,slotMachine_updated,2023.1.3,MacIntel,59.99880002,,,,,,,,,,,,,,,,,,,,,,,,,,,,,,,,,,,,,,,,,,,,,,,,,,,256.5054,up,0.3881,,1.5,0.3,"[3,1,2]",0.562593754,stimuli/card_100_transparent.png,500,100,6,0,6,0,1,,,,,
Kelsey,2023-10-02_13h21.10.805,slotMachine_updated,2023.1.3,MacIntel,59.99880002,,,,,,,,,,,,,,,,,,,,,,,,,,,,,,,,,,,,,,,,,,,,,,,,,,,258.7209,up,0.0605,,0.5,0.3,"[3,1,2]",0.026153515,stimuli/card_0_transparent.png,500,0,7,0,7,0,1,,,,,
Kelsey,2023-10-02_13h21.10.805,slotMachine_updated,2023.1.3,MacIntel,59.99880002,,,,,,,,,,,,,,,,,,,,,,,,,,,,,,,,,,,,,,,,,,,,,,,,,,,259.6054,right,0.8343,,1.5,0.3,"[3,1,2]",0.38878507,stimuli/card_10_transparent.png,510,10,8,0,8,0,1,,,,,
Kelsey,2023-10-02_13h21.10.805,slotMachine_updated,2023.1.3,MacIntel,59.99880002,,,,,,,,,,,,,,,,,,,,,,,,,,,,,,,,,,,,,,,,,,,,,,,,,,,262.2555,right,0.3702,,1.5,0.3,"[3,1,2]",0.128965223,stimuli/card_100_transparent.png,610,100,9,0,9,0,1,,,,,
Kelsey,2023-10-02_13h21.10.805,slotMachine_updated,2023.1.3,MacIntel,59.99880002,,,,,,,,,,,,,,,,,,,,,,,,,,,,,,,,,,,,,,,,,,,,,,,,,,,264.4536,right,0.2461,,1,0.3,"[3,1,2]",0.448816925,stimuli/card_10_transparent.png,620,10,10,0,10,0,1,,,,,
Kelsey,2023-10-02_13h21.10.805,slotMachine_updated,2023.1.3,MacIntel,59.99880002,,,,,,,,,,,,,,,,,,,,,,,,,,,,,,,,,,,,,,,,,,,,,,,,,,,266.0227,right,2.6631,,1.5,0.3,"[3,1,2]",0.928450966,stimuli/card_10_transparent.png,630,10,11,0,11,0,1,,,,,
Kelsey,2023-10-02_13h21.10.805,slotMachine_updated,2023.1.3,MacIntel,59.99880002,,,,,,,,,,,,,,,,,,,,,,,,,,,,,,,,,,,,,,,,,,,,,,,,,,,270.5052,left,0.4811,,0.5,0.3,"[3,1,2]",0.991723568,stimuli/card_0_transparent.png,630,0,12,0,12,0,1,,,,,
Kelsey,2023-10-02_13h21.10.805,slotMachine_updated,2023.1.3,MacIntel,59.99880002,,,,,,,,,,,,,,,,,,,,,,,,,,,,,,,,,,,,,,,,,,,,,,,,,,,271.8052,up,2.272,,1,0.3,"[3,1,2]",0.623008247,stimuli/card_100_transparent.png,730,100,13,0,13,0,1,,,,,
Kelsey,2023-10-02_13h21.10.805,slotMachine_updated,2023.1.3,MacIntel,59.99880002,,,,,,,,,,,,,,,,,,,,,,,,,,,,,,,,,,,,,,,,,,,,,,,,,,,275.3893,up,0.5876,,1.5,0.3,"[3,1,2]",0.172516349,stimuli/card_10_transparent.png,740,10,14,0,14,0,1,,,,,
Kelsey,2023-10-02_13h21.10.805,slotMachine_updated,2023.1.3,MacIntel,59.99880002,,,,,,,,,,,,,,,,,,,,,,,,,,,,,,277.8037,,,,,,,,,,,,,,,,,,,,,,,,,,,,,,,,,,,,,0,0,0,0,1
Kelsey,2023-10-02_13h21.10.805,slotMachine_updated,2023.1.3,MacIntel,59.99880002,,,,,,,,,,,,,,,,,,,,,,,,,,,,,,,,,,,,,,,,,,,,,,,,,"[5,15]","[[1,2,3],[3,1,2]]",282.8076,up,1.3774,,1,0.3,"[1,2,3]",0.774873445,stimuli/card_10_transparent.png,10,10,0,0,0,0,1,,,,,
Kelsey,2023-10-02_13h21.10.805,slotMachine_updated,2023.1.3,MacIntel,59.99880002,,,,,,,,,,,,,,,,,,,,,,,,,,,,,,,,,,,,,,,,,,,,,,,,,,,285.5247,right,0.5158,,1,0.3,"[1,2,3]",0.741546761,stimuli/card_0_transparent.png,10,0,1,0,1,0,1,,,,,
Kelsey,2023-10-02_13h21.10.805,slotMachine_updated,2023.1.3,MacIntel,59.99880002,,,,,,,,,,,,,,,,,,,,,,,,,,,,,,,,,,,,,,,,,,,,,,,,,,,287.3567,left,0.3121,,1.5,0.3,"[1,2,3]",0.729329793,stimuli/card_100_transparent.png,110,100,2,0,2,0,1,,,,,
Kelsey,2023-10-02_13h21.10.805,slotMachine_updated,2023.1.3,MacIntel,59.99880002,,,,,,,,,,,,,,,,,,,,,,,,,,,,,,,,,,,,,,,,,,,,,,,,,,,289.4885,left,0.3461,,1,0.3,"[1,2,3]",0.883129097,stimuli/card_100_transparent.png,210,100,3,0,3,0,1,,,,,
Kelsey,2023-10-02_13h21.10.805,slotMachine_updated,2023.1.3,MacIntel,59.99880002,,,,,,,,,,,,,,,,,,,,,,,,,,,,,,,,,,,,,,,,,,,,,,,,,,,291.1583,left,0.3912,,1.5,0.3,"[1,2,3]",0.309687176,stimuli/card_100_transparent.png,310,100,4,0,4,0,1,,,,,
Kelsey,2023-10-02_13h21.10.805,slotMachine_updated,2023.1.3,MacIntel,59.99880002,,,,,,,,,,,,,,,,,,,,,,,,,,,,,,,,,,,,,,,,,,,,,,,,,,,293.3718,left,0.0233,,1,0.3,"[3,1,2]",0.14900125,stimuli/card_10_transparent.png,320,10,5,0,5,0,1,,,,,
Kelsey,2023-10-02_13h21.10.805,slotMachine_updated,2023.1.3,MacIntel,59.99880002,,,,,,,,,,,,,,,,,,,,,,,,,,,,,,,,,,,,,,,,,,,,,,,,,,,294.7236,left,1.186,,0.5,0.3,"[3,1,2]",0.964426021,stimuli/card_0_transparent.png,320,0,6,0,6,0,1,,,,,
Kelsey,2023-10-02_13h21.10.805,slotMachine_updated,2023.1.3,MacIntel,59.99880002,,,,,,,,,,,,,,,,,,,,,,,,,,,,,,,,,,,,,,,,,,,,,,,,,,,296.7398,up,0.3514,,1.5,0.3,"[3,1,2]",0.920497622,stimuli/card_100_transparent.png,420,100,7,0,7,0,1,,,,,
Kelsey,2023-10-02_13h21.10.805,slotMachine_updated,2023.1.3,MacIntel,59.99880002,,,,,,,,,,,,,,,,,,,,,,,,,,,,,,,,,,,,,,,,,,,,,,,,,,,298.9051,up,0.3443,,1,0.3,"[3,1,2]",0.380703704,stimuli/card_100_transparent.png,520,100,8,0,8,0,1,,,,,
Kelsey,2023-10-02_13h21.10.805,slotMachine_updated,2023.1.3,MacIntel,59.99880002,,,,,,,,,,,,,,,,,,,,,,,,,,,,,,,,,,,,,,,,,,,,,,,,,,,300.5744,up,0.242,,1.5,0.3,"[3,1,2]",0.329627251,stimuli/card_100_transparent.png,620,100,9,0,9,0,1,,,,,
Kelsey,2023-10-02_13h21.10.805,slotMachine_updated,2023.1.3,MacIntel,59.99880002,,,,,,,,,,,,,,,,,,,,,,,,,,,,,,,,,,,,,,,,,,,,,,,,,,,302.6411,up,0.2882,,1.5,0.3,"[3,1,2]",0.748391752,stimuli/card_100_transparent.png,720,100,10,0,10,0,1,,,,,
Kelsey,2023-10-02_13h21.10.805,slotMachine_updated,2023.1.3,MacIntel,59.99880002,,,,,,,,,,,,,,,,,,,,,,,,,,,,,,,,,,,,,,,,,,,,,,,,,,,304.7585,up,0.1297,,1.5,0.3,"[3,1,2]",0.642928705,stimuli/card_100_transparent.png,820,100,11,0,11,0,1,,,,,
Kelsey,2023-10-02_13h21.10.805,slotMachine_updated,2023.1.3,MacIntel,59.99880002,,,,,,,,,,,,,,,,,,,,,,,,,,,,,,,,,,,,,,,,,,,,,,,,,,,306.7058,up,0.24,,0.5,0.3,"[3,1,2]",0.918624196,stimuli/card_100_transparent.png,920,100,12,0,12,0,1,,,,,
Kelsey,2023-10-02_13h21.10.805,slotMachine_updated,2023.1.3,MacIntel,59.99880002,,,,,,,,,,,,,,,,,,,,,,,,,,,,,,,,,,,,,,,,,,,,,,,,,,,307.7724,up,1.185,,1.5,0.3,"[3,1,2]",0.133634221,stimuli/card_10_transparent.png,930,10,13,0,13,0,1,,,,,
Kelsey,2023-10-02_13h21.10.805,slotMachine_updated,2023.1.3,MacIntel,59.99880002,,,,,,,,,,,,,,,,,,,,,,,,,,,,,,,,,,,,,,,,,,,,,,,,,,,310.7727,right,0.7662,,1,0.3,"[3,1,2]",0.137054743,stimuli/card_100_transparent.png,1030,100,14,0,14,0,1,,,,,
Kelsey,2023-10-02_13h21.10.805,slotMachine_updated,2023.1.3,MacIntel,59.99880002,,,,,,,,,,,,,,,,,,,,,,,,,,,,,,312.8576,,,,,,,,,,,,,,,,,,,,,,,,,,,,,,,,,,,,,1,0,1,0,1
Kelsey,2023-10-02_13h21.10.805,slotMachine_updated,2023.1.3,MacIntel,59.99880002,,,,,,,,,,,,,,,,,,,,,,,,,,,,,,,,,,,,,,,,,,,,,,,,,"[8,15]","[[3,2,1],[3,1,2]]",317.8609,up,1.4578,,1,0.3,"[3,2,1]",0.771453684,stimuli/card_10_transparent.png,10,10,0,0,0,0,1,,,,,
Kelsey,2023-10-02_13h21.10.805,slotMachine_updated,2023.1.3,MacIntel,59.99880002,,,,,,,,,,,,,,,,,,,,,,,,,,,,,,,,,,,,,,,,,,,,,,,,,,,320.6423,left,0.5257,,1,0.3,"[3,2,1]",0.6820867,stimuli/card_0_transparent.png,10,0,1,0,1,0,1,,,,,
Kelsey,2023-10-02_13h21.10.805,slotMachine_updated,2023.1.3,MacIntel,59.99880002,,,,,,,,,,,,,,,,,,,,,,,,,,,,,,,,,,,,,,,,,,,,,,,,,,,322.4914,right,1.4055,,1,0.3,"[3,2,1]",0.449670953,stimuli/card_100_transparent.png,110,100,2,0,2,0,1,,,,,
Kelsey,2023-10-02_13h21.10.805,slotMachine_updated,2023.1.3,MacIntel,59.99880002,,,,,,,,,,,,,,,,,,,,,,,,,,,,,,,,,,,,,,,,,,,,,,,,,,,325.2073,right,0.4736,,0.5,0.3,"[3,2,1]",0.153825249,stimuli/card_10_transparent.png,120,10,3,0,3,0,1,,,,,
Kelsey,2023-10-02_13h21.10.805,slotMachine_updated,2023.1.3,MacIntel,59.99880002,,,,,,,,,,,,,,,,,,,,,,,,,,,,,,,,,,,,,,,,,,,,,,,,,,,326.5068,right,0.5812,,1.5,0.3,"[3,2,1]",0.622474348,stimuli/card_100_transparent.png,220,100,4,0,4,0,1,,,,,
Kelsey,2023-10-02_13h21.10.805,slotMachine_updated,2023.1.3,MacIntel,59.99880002,,,,,,,,,,,,,,,,,,,,,,,,,,,,,,,,,,,,,,,,,,,,,,,,,,,328.9099,right,0.3198,,1,0.3,"[3,2,1]",0.678307566,stimuli/card_100_transparent.png,320,100,5,0,5,0,1,,,,,
Kelsey,2023-10-02_13h21.10.805,slotMachine_updated,2023.1.3,MacIntel,59.99880002,,,,,,,,,,,,,,,,,,,,,,,,,,,,,,,,,,,,,,,,,,,,,,,,,,,330.5573,right,0.3404,,1.5,0.3,"[3,2,1]",0.899222929,stimuli/card_100_transparent.png,420,100,6,0,6,0,1,,,,,
Kelsey,2023-10-02_13h21.10.805,slotMachine_updated,2023.1.3,MacIntel,59.99880002,,,,,,,,,,,,,,,,,,,,,,,,,,,,,,,,,,,,,,,,,,,,,,,,,,,332.7281,right,0.1455,,1,0.3,"[3,2,1]",0.14978131,stimuli/card_10_transparent.png,430,10,7,0,7,0,1,,,,,
Kelsey,2023-10-02_13h21.10.805,slotMachine_updated,2023.1.3,MacIntel,59.99880002,,,,,,,,,,,,,,,,,,,,,,,,,,,,,,,,,,,,,,,,,,,,,,,,,,,334.191,right,0.6479,,1.5,0.3,"[3,1,2]",0.662227207,stimuli/card_10_transparent.png,440,10,8,0,8,0,1,,,,,
Kelsey,2023-10-02_13h21.10.805,slotMachine_updated,2023.1.3,MacIntel,59.99880002,,,,,,,,,,,,,,,,,,,,,,,,,,,,,,,,,,,,,,,,,,,,,,,,,,,336.6608,up,1.2038,,1,0.3,"[3,1,2]",0.015275835,stimuli/card_0_transparent.png,440,0,9,0,9,0,1,,,,,
Kelsey,2023-10-02_13h21.10.805,slotMachine_updated,2023.1.3,MacIntel,59.99880002,,,,,,,,,,,,,,,,,,,,,,,,,,,,,,,,,,,,,,,,,,,,,,,,,,,339.1962,right,0.4045,,1.5,0.3,"[3,1,2]",0.710211081,stimuli/card_10_transparent.png,450,10,10,0,10,0,1,,,,,
Kelsey,2023-10-02_13h21.10.805,slotMachine_updated,2023.1.3,MacIntel,59.99880002,,,,,,,,,,,,,,,,,,,,,,,,,,,,,,,,,,,,,,,,,,,,,,,,,,,341.4287,left,0.3431,,1.5,0.3,"[3,1,2]",0.738675346,stimuli/card_0_transparent.png,450,0,11,0,11,0,1,,,,,
Kelsey,2023-10-02_13h21.10.805,slotMachine_updated,2023.1.3,MacIntel,59.99880002,,,,,,,,,,,,,,,,,,,,,,,,,,,,,,,,,,,,,,,,,,,,,,,,,,,343.5917,right,0.6639,,1,0.3,"[3,1,2]",0.415993009,stimuli/card_10_transparent.png,460,10,12,0,12,0,1,,,,,
Kelsey,2023-10-02_13h21.10.805,slotMachine_updated,2023.1.3,MacIntel,59.99880002,,,,,,,,,,,,,,,,,,,,,,,,,,,,,,,,,,,,,,,,,,,,,,,,,,,345.5754,right,0.4975,,1.5,0.3,"[3,1,2]",0.441561187,stimuli/card_10_transparent.png,470,10,13,0,13,0,1,,,,,
Kelsey,2023-10-02_13h21.10.805,slotMachine_updated,2023.1.3,MacIntel,59.99880002,,,,,,,,,,,,,,,,,,,,,,,,,,,,,,,,,,,,,,,,,,,,,,,,,,,347.8924,right,0.355,,1,0.3,"[3,1,2]",0.313030563,stimuli/card_10_transparent.png,480,10,14,0,14,0,1,,,,,
Kelsey,2023-10-02_13h21.10.805,slotMachine_updated,2023.1.3,MacIntel,59.99880002,,,,,,,,,,,,,,,,,,,,,,,,,,,,,,349.5793,,,,,,,,,,,,,,,,,,,,,,,,,,,,,,,,,,,,,2,0,2,0,1
Kelsey,2023-10-02_13h21.10.805,slotMachine_updated,2023.1.3,MacIntel,59.99880002,,,,,,,,,,,,,,,,,,,,,,,,,,,,,,,,,,,,,,,,,,,,,,,,,"[12,15]","[[2,1,3],[2,3,1]]",354.5816,up,2.5988,,1,0.3,"[2,1,3]",0.149149306,stimuli/card_10_transparent.png,10,10,0,0,0,0,1,,,,,
Kelsey,2023-10-02_13h21.10.805,slotMachine_updated,2023.1.3,MacIntel,59.99880002,,,,,,,,,,,,,,,,,,,,,,,,,,,,,,,,,,,,,,,,,,,,,,,,,,,358.5136,right,0.4259,,1,0.3,"[2,1,3]",0.873836335,stimuli/card_0_transparent.png,10,0,1,0,1,0,1,,,,,
Kelsey,2023-10-02_13h21.10.805,slotMachine_updated,2023.1.3,MacIntel,59.99880002,,,,,,,,,,,,,,,,,,,,,,,,,,,,,,,,,,,,,,,,,,,,,,,,,,,360.2615,left,0.4542,,1.5,0.3,"[2,1,3]",0.501229004,stimuli/card_10_transparent.png,20,10,2,0,2,0,1,,,,,
Kelsey,2023-10-02_13h21.10.805,slotMachine_updated,2023.1.3,MacIntel,59.99880002,,,,,,,,,,,,,,,,,,,,,,,,,,,,,,,,,,,,,,,,,,,,,,,,,,,362.5304,left,0.4938,,1,0.3,"[2,1,3]",0.835604328,stimuli/card_10_transparent.png,30,10,3,0,3,0,1,,,,,
Kelsey,2023-10-02_13h21.10.805,slotMachine_updated,2023.1.3,MacIntel,59.99880002,,,,,,,,,,,,,,,,,,,,,,,,,,,,,,,,,,,,,,,,,,,,,,,,,,,364.3435,up,0.5571,,0.5,0.3,"[2,1,3]",0.670625133,stimuli/card_100_transparent.png,130,100,4,0,4,0,1,,,,,
Kelsey,2023-10-02_13h21.10.805,slotMachine_updated,2023.1.3,MacIntel,59.99880002,,,,,,,,,,,,,,,,,,,,,,,,,,,,,,,,,,,,,,,,,,,,,,,,,,,365.7293,up,0.3375,,0.5,0.3,"[2,1,3]",0.331325988,stimuli/card_100_transparent.png,230,100,5,0,5,0,1,,,,,
Kelsey,2023-10-02_13h21.10.805,slotMachine_updated,2023.1.3,MacIntel,59.99880002,,,,,,,,,,,,,,,,,,,,,,,,,,,,,,,,,,,,,,,,,,,,,,,,,,,366.8961,up,0.0702,,1.5,0.3,"[2,1,3]",0.704249511,stimuli/card_100_transparent.png,330,100,6,0,6,0,1,,,,,
Kelsey,2023-10-02_13h21.10.805,slotMachine_updated,2023.1.3,MacIntel,59.99880002,,,,,,,,,,,,,,,,,,,,,,,,,,,,,,,,,,,,,,,,,,,,,,,,,,,368.7936,up,0.095,,1.5,0.3,"[2,1,3]",0.110429298,stimuli/card_10_transparent.png,340,10,7,0,7,0,1,,,,,
Kelsey,2023-10-02_13h21.10.805,slotMachine_updated,2023.1.3,MacIntel,59.99880002,,,,,,,,,,,,,,,,,,,,,,,,,,,,,,,,,,,,,,,,,,,,,,,,,,,370.7144,up,1.4605,,1,0.3,"[2,1,3]",0.872894209,stimuli/card_100_transparent.png,440,100,8,0,8,0,1,,,,,
Kelsey,2023-10-02_13h21.10.805,slotMachine_updated,2023.1.3,MacIntel,59.99880002,,,,,,,,,,,,,,,,,,,,,,,,,,,,,,,,,,,,,,,,,,,,,,,,,,,373.4973,up,0.2935,,0.5,0.3,"[2,1,3]",0.782875076,stimuli/card_100_transparent.png,540,100,9,0,9,0,1,,,,,
Kelsey,2023-10-02_13h21.10.805,slotMachine_updated,2023.1.3,MacIntel,59.99880002,,,,,,,,,,,,,,,,,,,,,,,,,,,,,,,,,,,,,,,,,,,,,,,,,,,374.6106,up,0.4295,,1.5,0.3,"[2,1,3]",0.636133502,stimuli/card_100_transparent.png,640,100,10,0,10,0,1,,,,,
Kelsey,2023-10-02_13h21.10.805,slotMachine_updated,2023.1.3,MacIntel,59.99880002,,,,,,,,,,,,,,,,,,,,,,,,,,,,,,,,,,,,,,,,,,,,,,,,,,,376.8608,up,0.2344,,0.5,0.3,"[2,1,3]",0.422289962,stimuli/card_100_transparent.png,740,100,11,0,11,0,1,,,,,
Kelsey,2023-10-02_13h21.10.805,slotMachine_updated,2023.1.3,MacIntel,59.99880002,,,,,,,,,,,,,,,,,,,,,,,,,,,,,,,,,,,,,,,,,,,,,,,,,,,377.911,up,0.5745,,1.5,0.3,"[2,3,1]",0.602325561,stimuli/card_0_transparent.png,740,0,12,0,12,0,1,,,,,
Kelsey,2023-10-02_13h21.10.805,slotMachine_updated,2023.1.3,MacIntel,59.99880002,,,,,,,,,,,,,,,,,,,,,,,,,,,,,,,,,,,,,,,,,,,,,,,,,,,380.315,left,0.5822,,1.5,0.3,"[2,3,1]",0.513287769,stimuli/card_10_transparent.png,750,10,13,0,13,0,1,,,,,
Kelsey,2023-10-02_13h21.10.805,slotMachine_updated,2023.1.3,MacIntel,59.99880002,,,,,,,,,,,,,,,,,,,,,,,,,,,,,,,,,,,,,,,,,,,,,,,,,,,382.7133,left,0.393,,0.5,0.3,"[2,3,1]",0.088620484,stimuli/card_0_transparent.png,750,0,14,0,14,0,1,,,,,
Kelsey,2023-10-02_13h21.10.805,slotMachine_updated,2023.1.3,MacIntel,59.99880002,,,,,,,,,,,,,,,,,,,,,,,,,,,,,,383.9283,,,,,,,,,,,,,,,,,,,,,,,,,,,,,,,,,,,,,3,0,3,0,1
Kelsey,2023-10-02_13h21.10.805,slotMachine_updated,2023.1.3,MacIntel,59.99880002,,,,,,,,,,,,,,,,,,,,,,,,,,,,,,,,,,,,,,,,,,,,,,,,,"[6,15]","[[1,3,2],[3,2,1]]",388.9319,up,1.8583,,0.5,0.3,"[1,3,2]",0.762664411,stimuli/card_0_transparent.png,0,0,0,0,0,0,1,,,,,
Kelsey,2023-10-02_13h21.10.805,slotMachine_updated,2023.1.3,MacIntel,59.99880002,,,,,,,,,,,,,,,,,,,,,,,,,,,,,,,,,,,,,,,,,,,,,,,,,,,391.6116,right,0.3882,,0.5,0.3,"[1,3,2]",0.309119539,stimuli/card_10_transparent.png,10,10,1,0,1,0,1,,,,,
Kelsey,2023-10-02_13h21.10.805,slotMachine_updated,2023.1.3,MacIntel,59.99880002,,,,,,,,,,,,,,,,,,,,,,,,,,,,,,,,,,,,,,,,,,,,,,,,,,,392.8116,left,0.3221,,0.5,0.3,"[1,3,2]",0.86816974,stimuli/card_100_transparent.png,110,100,2,0,2,0,1,,,,,
Kelsey,2023-10-02_13h21.10.805,slotMachine_updated,2023.1.3,MacIntel,59.99880002,,,,,,,,,,,,,,,,,,,,,,,,,,,,,,,,,,,,,,,,,,,,,,,,,,,393.963,left,0.3618,,1,0.3,"[1,3,2]",0.774132908,stimuli/card_100_transparent.png,210,100,3,0,3,0,1,,,,,
Kelsey,2023-10-02_13h21.10.805,slotMachine_updated,2023.1.3,MacIntel,59.99880002,,,,,,,,,,,,,,,,,,,,,,,,,,,,,,,,,,,,,,,,,,,,,,,,,,,395.6451,left,0.1008,,0.5,0.3,"[1,3,2]",0.458380422,stimuli/card_100_transparent.png,310,100,4,0,4,0,1,,,,,
Kelsey,2023-10-02_13h21.10.805,slotMachine_updated,2023.1.3,MacIntel,59.99880002,,,,,,,,,,,,,,,,,,,,,,,,,,,,,,,,,,,,,,,,,,,,,,,,,,,396.5662,left,0.2122,,1.5,0.3,"[1,3,2]",0.165209541,stimuli/card_10_transparent.png,320,10,5,0,5,0,1,,,,,
Kelsey,2023-10-02_13h21.10.805,slotMachine_updated,2023.1.3,MacIntel,59.99880002,,,,,,,,,,,,,,,,,,,,,,,,,,,,,,,,,,,,,,,,,,,,,,,,,,,398.5975,left,1.0296,,1.5,0.3,"[3,2,1]",0.096197959,stimuli/card_100_transparent.png,420,100,6,0,6,0,1,,,,,
Kelsey,2023-10-02_13h21.10.805,slotMachine_updated,2023.1.3,MacIntel,59.99880002,,,,,,,,,,,,,,,,,,,,,,,,,,,,,,,,,,,,,,,,,,,,,,,,,,,401.448,left,0.0651,,0.5,0.3,"[3,2,1]",0.897976504,stimuli/card_0_transparent.png,420,0,7,0,7,0,1,,,,,
Kelsey,2023-10-02_13h21.10.805,slotMachine_updated,2023.1.3,MacIntel,59.99880002,,,,,,,,,,,,,,,,,,,,,,,,,,,,,,,,,,,,,,,,,,,,,,,,,,,402.3314,left,0.4287,,1.5,0.3,"[3,2,1]",0.988310774,stimuli/card_0_transparent.png,420,0,8,0,8,0,1,,,,,
Kelsey,2023-10-02_13h21.10.805,slotMachine_updated,2023.1.3,MacIntel,59.99880002,,,,,,,,,,,,,,,,,,,,,,,,,,,,,,,,,,,,,,,,,,,,,,,,,,,404.5788,up,0.5629,,1.5,0.3,"[3,2,1]",0.686916793,stimuli/card_10_transparent.png,430,10,9,0,9,0,1,,,,,
Kelsey,2023-10-02_13h21.10.805,slotMachine_updated,2023.1.3,MacIntel,59.99880002,,,,,,,,,,,,,,,,,,,,,,,,,,,,,,,,,,,,,,,,,,,,,,,,,,,406.9524,right,0.2319,,0.5,0.3,"[3,2,1]",0.291481489,stimuli/card_100_transparent.png,530,100,10,0,10,0,1,,,,,
Kelsey,2023-10-02_13h21.10.805,slotMachine_updated,2023.1.3,MacIntel,59.99880002,,,,,,,,,,,,,,,,,,,,,,,,,,,,,,,,,,,,,,,,,,,,,,,,,,,407.9979,right,0.3855,,1,0.3,"[3,2,1]",0.77574743,stimuli/card_100_transparent.png,630,100,11,0,11,0,1,,,,,
Kelsey,2023-10-02_13h21.10.805,slotMachine_updated,2023.1.3,MacIntel,59.99880002,,,,,,,,,,,,,,,,,,,,,,,,,,,,,,,,,,,,,,,,,,,,,,,,,,,409.7456,right,0.1548,,0.5,0.3,"[3,2,1]",0.864392196,stimuli/card_100_transparent.png,730,100,12,0,12,0,1,,,,,
Kelsey,2023-10-02_13h21.10.805,slotMachine_updated,2023.1.3,MacIntel,59.99880002,,,,,,,,,,,,,,,,,,,,,,,,,,,,,,,,,,,,,,,,,,,,,,,,,,,410.7293,right,0.3165,,1,0.3,"[3,2,1]",0.902196918,stimuli/card_100_transparent.png,830,100,13,0,13,0,1,,,,,
Kelsey,2023-10-02_13h21.10.805,slotMachine_updated,2023.1.3,MacIntel,59.99880002,,,,,,,,,,,,,,,,,,,,,,,,,,,,,,,,,,,,,,,,,,,,,,,,,,,412.3655,right,0.0394,,1.5,0.3,"[3,2,1]",0.002244006,stimuli/card_0_transparent.png,830,0,14,0,14,0,1,,,,,
Kelsey,2023-10-02_13h21.10.805,slotMachine_updated,2023.1.3,MacIntel,59.99880002,,,,,,,,,,,,,,,,,,,,,,,,,,,,,,414.235,,,,,,,,,,,,,,,,,,,,,,,,,,,,,,,,,,,,,4,0,4,0,1
Kelsey,2023-10-02_13h21.10.805,slotMachine_updated,2023.1.3,MacIntel,59.99880002,,,,,,,,,,,,,,,,,,,,,,,,,,,,,,,,,,,,,,,,,,,,,,,,,"[7,15]","[[2,3,1],[1,2,3]]",419.2325,up,0.6926,,1.5,0.3,"[2,3,1]",0.240161398,stimuli/card_0_transparent.png,0,0,0,0,0,0,1,,,,,
Kelsey,2023-10-02_13h21.10.805,slotMachine_updated,2023.1.3,MacIntel,59.99880002,,,,,,,,,,,,,,,,,,,,,,,,,,,,,,,,,,,,,,,,,,,,,,,,,,,421.7473,left,0.1067,,0.5,0.3,"[2,3,1]",0.897853835,stimuli/card_10_transparent.png,10,10,1,0,1,0,1,,,,,
Kelsey,2023-10-02_13h21.10.805,slotMachine_updated,2023.1.3,MacIntel,59.99880002,,,,,,,,,,,,,,,,,,,,,,,,,,,,,,,,,,,,,,,,,,,,,,,,,,,422.6638,right,0.2298,,1.5,0.3,"[2,3,1]",0.868328036,stimuli/card_100_transparent.png,110,100,2,0,2,0,1,,,,,
Kelsey,2023-10-02_13h21.10.805,slotMachine_updated,2023.1.3,MacIntel,59.99880002,,,,,,,,,,,,,,,,,,,,,,,,,,,,,,,,,,,,,,,,,,,,,,,,,,,424.7177,right,0.3843,0.0005,1.5,0.3,"[2,3,1]",0.186912539,stimuli/card_10_transparent.png,120,10,3,0,3,0,1,,,,,
Kelsey,2023-10-02_13h21.10.805,slotMachine_updated,2023.1.3,MacIntel,59.99880002,,,,,,,,,,,,,,,,,,,,,,,,,,,,,,,,,,,,,,,,,,,,,,,,,,,426.9147,right,0.1844,,1.5,0.3,"[2,3,1]",0.99934174,stimuli/card_100_transparent.png,220,100,4,0,4,0,1,,,,,
Kelsey,2023-10-02_13h21.10.805,slotMachine_updated,2023.1.3,MacIntel,59.99880002,,,,,,,,,,,,,,,,,,,,,,,,,,,,,,,,,,,,,,,,,,,,,,,,,,,428.9138,right,0.2658,,1.5,0.3,"[2,3,1]",0.968861686,stimuli/card_100_transparent.png,320,100,5,0,5,0,1,,,,,
Kelsey,2023-10-02_13h21.10.805,slotMachine_updated,2023.1.3,MacIntel,59.99880002,,,,,,,,,,,,,,,,,,,,,,,,,,,,,,,,,,,,,,,,,,,,,,,,,,,430.9993,right,0.3228,,0.5,0.3,"[2,3,1]",0.963690425,stimuli/card_100_transparent.png,420,100,6,0,6,0,1,,,,,
Kelsey,2023-10-02_13h21.10.805,slotMachine_updated,2023.1.3,MacIntel,59.99880002,,,,,,,,,,,,,,,,,,,,,,,,,,,,,,,,,,,,,,,,,,,,,,,,,,,432.1504,right,0.2533,,1,0.3,"[1,2,3]",0.448505618,stimuli/card_0_transparent.png,420,0,7,0,7,0,1,,,,,
Kelsey,2023-10-02_13h21.10.805,slotMachine_updated,2023.1.3,MacIntel,59.99880002,,,,,,,,,,,,,,,,,,,,,,,,,,,,,,,,,,,,,,,,,,,,,,,,,,,433.7315,right,2.5156,,1.5,0.3,"[1,2,3]",0.872933313,stimuli/card_0_transparent.png,420,0,8,0,8,0,1,,,,,
Kelsey,2023-10-02_13h21.10.805,slotMachine_updated,2023.1.3,MacIntel,59.99880002,,,,,,,,,,,,,,,,,,,,,,,,,,,,,,,,,,,,,,,,,,,,,,,,,,,438.0647,left,0.6705,,1,0.3,"[1,2,3]",0.074338632,stimuli/card_0_transparent.png,420,0,9,0,9,0,1,,,,,
Kelsey,2023-10-02_13h21.10.805,slotMachine_updated,2023.1.3,MacIntel,59.99880002,,,,,,,,,,,,,,,,,,,,,,,,,,,,,,,,,,,,,,,,,,,,,,,,,,,440.0502,up,0.4958,,1.5,0.3,"[1,2,3]",0.06640944,stimuli/card_0_transparent.png,420,0,10,0,10,0,1,,,,,
Kelsey,2023-10-02_13h21.10.805,slotMachine_updated,2023.1.3,MacIntel,59.99880002,,,,,,,,,,,,,,,,,,,,,,,,,,,,,,,,,,,,,,,,,,,,,,,,,,,442.3649,left,0.5907,,0.5,0.3,"[1,2,3]",0.812398166,stimuli/card_100_transparent.png,520,100,11,0,11,0,1,,,,,
Kelsey,2023-10-02_13h21.10.805,slotMachine_updated,2023.1.3,MacIntel,59.99880002,,,,,,,,,,,,,,,,,,,,,,,,,,,,,,,,,,,,,,,,,,,,,,,,,,,443.7652,left,0.4634,,0.5,0.3,"[1,2,3]",0.15283203,stimuli/card_10_transparent.png,530,10,12,0,12,0,1,,,,,
Kelsey,2023-10-02_13h21.10.805,slotMachine_updated,2023.1.3,MacIntel,59.99880002,,,,,,,,,,,,,,,,,,,,,,,,,,,,,,,,,,,,,,,,,,,,,,,,,,,445.0506,left,0.7253,,1.5,0.3,"[1,2,3]",0.001489626,stimuli/card_0_transparent.png,530,0,13,0,13,0,1,,,,,
Kelsey,2023-10-02_13h21.10.805,slotMachine_updated,2023.1.3,MacIntel,59.99880002,,,,,,,,,,,,,,,,,,,,,,,,,,,,,,,,,,,,,,,,,,,,,,,,,,,447.5985,left,0.3846,,1,0.3,"[1,2,3]",0.092029183,stimuli/card_0_transparent.png,530,0,14,0,14,0,1,,,,,
Kelsey,2023-10-02_13h21.10.805,slotMachine_updated,2023.1.3,MacIntel,59.99880002,,,,,,,,,,,,,,,,,,,,,,,,,,,,,,449.3004,,,,,,,,,,,,,,,,,,,,,,,,,,,,,,,,,,,,,5,0,5,0,1
Kelsey,2023-10-02_13h21.10.805,slotMachine_updated,2023.1.3,MacIntel,59.99880002,,,,,,,,,,,,,,,,,,,,,,,,,,,,,,,,,,,,,,,,,,,,,,,,,"[10,15]","[[3,1,2],[1,3,2]]",454.3027,up,0.8016,,1.5,0.3,"[3,1,2]",0.842962874,stimuli/card_100_transparent.png,100,100,0,0,0,0,1,,,,,
Kelsey,2023-10-02_13h21.10.805,slotMachine_updated,2023.1.3,MacIntel,59.99880002,,,,,,,,,,,,,,,,,,,,,,,,,,,,,,,,,,,,,,,,,,,,,,,,,,,456.9325,up,0.3554,,1,0.3,"[3,1,2]",0.846282171,stimuli/card_100_transparent.png,200,100,1,0,1,0,1,,,,,
Kelsey,2023-10-02_13h21.10.805,slotMachine_updated,2023.1.3,MacIntel,59.99880002,,,,,,,,,,,,,,,,,,,,,,,,,,,,,,,,,,,,,,,,,,,,,,,,,,,458.6164,up,0.2071,,1.5,0.3,"[3,1,2]",0.598721688,stimuli/card_100_transparent.png,300,100,2,0,2,0,1,,,,,
Kelsey,2023-10-02_13h21.10.805,slotMachine_updated,2023.1.3,MacIntel,59.99880002,,,,,,,,,,,,,,,,,,,,,,,,,,,,,,,,,,,,,,,,,,,,,,,,,,,460.6519,up,0.1275,,0.5,0.3,"[3,1,2]",0.87331263,stimuli/card_100_transparent.png,400,100,3,0,3,0,1,,,,,
Kelsey,2023-10-02_13h21.10.805,slotMachine_updated,2023.1.3,MacIntel,59.99880002,,,,,,,,,,,,,,,,,,,,,,,,,,,,,,,,,,,,,,,,,,,,,,,,,,,461.6008,up,0.4087,,1.5,0.3,"[3,1,2]",0.905787209,stimuli/card_100_transparent.png,500,100,4,0,4,0,1,,,,,
Kelsey,2023-10-02_13h21.10.805,slotMachine_updated,2023.1.3,MacIntel,59.99880002,,,,,,,,,,,,,,,,,,,,,,,,,,,,,,,,,,,,,,,,,,,,,,,,,,,463.8332,up,0.0493,,1.5,0.3,"[3,1,2]",0.140439521,stimuli/card_10_transparent.png,510,10,5,0,5,0,1,,,,,
Kelsey,2023-10-02_13h21.10.805,slotMachine_updated,2023.1.3,MacIntel,59.99880002,,,,,,,,,,,,,,,,,,,,,,,,,,,,,,,,,,,,,,,,,,,,,,,,,,,465.6998,up,0.0402,,1.5,0.3,"[3,1,2]",0.557593715,stimuli/card_100_transparent.png,610,100,6,0,6,0,1,,,,,
Kelsey,2023-10-02_13h21.10.805,slotMachine_updated,2023.1.3,MacIntel,59.99880002,,,,,,,,,,,,,,,,,,,,,,,,,,,,,,,,,,,,,,,,,,,,,,,,,,,467.5667,up,0.2595,,1,0.3,"[3,1,2]",0.263591472,stimuli/card_100_transparent.png,710,100,7,0,7,0,1,,,,,
Kelsey,2023-10-02_13h21.10.805,slotMachine_updated,2023.1.3,MacIntel,59.99880002,,,,,,,,,,,,,,,,,,,,,,,,,,,,,,,,,,,,,,,,,,,,,,,,,,,469.15,up,0.172,,0.5,0.3,"[3,1,2]",0.304081472,stimuli/card_100_transparent.png,810,100,8,0,8,0,1,,,,,
Kelsey,2023-10-02_13h21.10.805,slotMachine_updated,2023.1.3,MacIntel,59.99880002,,,,,,,,,,,,,,,,,,,,,,,,,,,,,,,,,,,,,,,,,,,,,,,,,,,470.1502,up,0.5575,,1.5,0.3,"[3,1,2]",0.400530684,stimuli/card_100_transparent.png,910,100,9,0,9,0,1,,,,,
Kelsey,2023-10-02_13h21.10.805,slotMachine_updated,2023.1.3,MacIntel,59.99880002,,,,,,,,,,,,,,,,,,,,,,,,,,,,,,,,,,,,,,,,,,,,,,,,,,,472.5343,up,0.13,,1,0.3,"[1,3,2]",0.971122052,stimuli/card_0_transparent.png,910,0,10,0,10,0,1,,,,,
Kelsey,2023-10-02_13h21.10.805,slotMachine_updated,2023.1.3,MacIntel,59.99880002,,,,,,,,,,,,,,,,,,,,,,,,,,,,,,,,,,,,,,,,,,,,,,,,,,,473.9867,up,0.1281,,0.5,0.3,"[1,3,2]",0.050854055,stimuli/card_100_transparent.png,1010,100,11,0,11,0,1,,,,,
Kelsey,2023-10-02_13h21.10.805,slotMachine_updated,2023.1.3,MacIntel,59.99880002,,,,,,,,,,,,,,,,,,,,,,,,,,,,,,,,,,,,,,,,,,,,,,,,,,,474.9336,up,0.6744,,1,0.3,"[1,3,2]",0.186850151,stimuli/card_10_transparent.png,1020,10,12,0,12,0,1,,,,,
Kelsey,2023-10-02_13h21.10.805,slotMachine_updated,2023.1.3,MacIntel,59.99880002,,,,,,,,,,,,,,,,,,,,,,,,,,,,,,,,,,,,,,,,,,,,,,,,,,,476.9352,up,0.273,,1.5,0.3,"[1,3,2]",0.893102531,stimuli/card_0_transparent.png,1020,0,13,0,13,0,1,,,,,
Kelsey,2023-10-02_13h21.10.805,slotMachine_updated,2023.1.3,MacIntel,59.99880002,,,,,,,,,,,,,,,,,,,,,,,,,,,,,,,,,,,,,,,,,,,,,,,,,,,479.0339,right,1.0529,,1.5,0.3,"[1,3,2]",0.185003887,stimuli/card_100_transparent.png,1120,100,14,0,14,0,1,,,,,
Kelsey,2023-10-02_13h21.10.805,slotMachine_updated,2023.1.3,MacIntel,59.99880002,,,,,,,,,,,,,,,,,,,,,,,,,,,,,,481.9011,,,,,,,,,,,,,,,,,,,,,,,,,,,,,,,,,,,,,6,0,6,0,1
Kelsey,2023-10-02_13h21.10.805,slotMachine_updated,2023.1.3,MacIntel,59.99880002,,,,,,,,,,,,,,,,,,,,,,,,,,,,,,,,,,,,,,,,,,,,,,,,,"[9,15]","[[1,3,2],[2,3,1]]",486.9044,up,0.9791,,1.5,0.3,"[1,3,2]",0.48204516,stimuli/card_0_transparent.png,0,0,0,0,0,0,1,,,,,
Kelsey,2023-10-02_13h21.10.805,slotMachine_updated,2023.1.3,MacIntel,59.99880002,,,,,,,,,,,,,,,,,,,,,,,,,,,,,,,,,,,,,,,,,,,,,,,,,,,489.705,left,0.3333,,0.5,0.3,"[1,3,2]",0.560558425,stimuli/card_100_transparent.png,100,100,1,0,1,0,1,,,,,
Kelsey,2023-10-02_13h21.10.805,slotMachine_updated,2023.1.3,MacIntel,59.99880002,,,,,,,,,,,,,,,,,,,,,,,,,,,,,,,,,,,,,,,,,,,,,,,,,,,490.852,left,0.4916,,1,0.3,"[1,3,2]",0.873211011,stimuli/card_100_transparent.png,200,100,2,0,2,0,1,,,,,
Kelsey,2023-10-02_13h21.10.805,slotMachine_updated,2023.1.3,MacIntel,59.99880002,,,,,,,,,,,,,,,,,,,,,,,,,,,,,,,,,,,,,,,,,,,,,,,,,,,492.6682,left,0.1385,,1,0.3,"[1,3,2]",0.572341431,stimuli/card_100_transparent.png,300,100,3,0,3,0,1,,,,,
Kelsey,2023-10-02_13h21.10.805,slotMachine_updated,2023.1.3,MacIntel,59.99880002,,,,,,,,,,,,,,,,,,,,,,,,,,,,,,,,,,,,,,,,,,,,,,,,,,,494.1352,left,0.5079,,1.5,0.3,"[1,3,2]",0.651185458,stimuli/card_100_transparent.png,400,100,4,0,4,0,1,,,,,
Kelsey,2023-10-02_13h21.10.805,slotMachine_updated,2023.1.3,MacIntel,59.99880002,,,,,,,,,,,,,,,,,,,,,,,,,,,,,,,,,,,,,,,,,,,,,,,,,,,496.4688,left,0.1456,,1,0.3,"[1,3,2]",0.829546084,stimuli/card_100_transparent.png,500,100,5,0,5,0,1,,,,,
Kelsey,2023-10-02_13h21.10.805,slotMachine_updated,2023.1.3,MacIntel,59.99880002,,,,,,,,,,,,,,,,,,,,,,,,,,,,,,,,,,,,,,,,,,,,,,,,,,,497.9354,left,0.3134,,0.5,0.3,"[1,3,2]",0.068042499,stimuli/card_0_transparent.png,500,0,6,0,6,0,1,,,,,
Kelsey,2023-10-02_13h21.10.805,slotMachine_updated,2023.1.3,MacIntel,59.99880002,,,,,,,,,,,,,,,,,,,,,,,,,,,,,,,,,,,,,,,,,,,,,,,,,,,499.0701,left,1.0332,,1.5,0.3,"[1,3,2]",0.294051047,stimuli/card_100_transparent.png,600,100,7,0,7,0,1,,,,,
Kelsey,2023-10-02_13h21.10.805,slotMachine_updated,2023.1.3,MacIntel,59.99880002,,,,,,,,,,,,,,,,,,,,,,,,,,,,,,,,,,,,,,,,,,,,,,,,,,,501.8853,left,0.399,,1,0.3,"[1,3,2]",0.110447173,stimuli/card_10_transparent.png,610,10,8,0,8,0,1,,,,,
Kelsey,2023-10-02_13h21.10.805,slotMachine_updated,2023.1.3,MacIntel,59.99880002,,,,,,,,,,,,,,,,,,,,,,,,,,,,,,,,,,,,,,,,,,,,,,,,,,,503.6041,right,0.3549,,1,0.3,"[2,3,1]",0.23340054,stimuli/card_100_transparent.png,710,100,9,0,9,0,1,,,,,
Kelsey,2023-10-02_13h21.10.805,slotMachine_updated,2023.1.3,MacIntel,59.99880002,,,,,,,,,,,,,,,,,,,,,,,,,,,,,,,,,,,,,,,,,,,,,,,,,,,505.2875,right,0.4466,,1.5,0.3,"[2,3,1]",0.786864205,stimuli/card_100_transparent.png,810,100,10,0,10,0,1,,,,,
Kelsey,2023-10-02_13h21.10.805,slotMachine_updated,2023.1.3,MacIntel,59.99880002,,,,,,,,,,,,,,,,,,,,,,,,,,,,,,,,,,,,,,,,,,,,,,,,,,,507.5553,right,0.1619,,1,0.3,"[2,3,1]",0.875370708,stimuli/card_100_transparent.png,910,100,11,0,11,0,1,,,,,
Kelsey,2023-10-02_13h21.10.805,slotMachine_updated,2023.1.3,MacIntel,59.99880002,,,,,,,,,,,,,,,,,,,,,,,,,,,,,,,,,,,,,,,,,,,,,,,,,,,509.0382,right,0.0987,,0.5,0.3,"[2,3,1]",0.754532389,stimuli/card_100_transparent.png,1010,100,12,0,12,0,1,,,,,
Kelsey,2023-10-02_13h21.10.805,slotMachine_updated,2023.1.3,MacIntel,59.99880002,,,,,,,,,,,,,,,,,,,,,,,,,,,,,,,,,,,,,,,,,,,,,,,,,,,509.9546,right,0.5485,,1,0.3,"[2,3,1]",0.517871008,stimuli/card_100_transparent.png,1110,100,13,0,13,0,1,,,,,
Kelsey,2023-10-02_13h21.10.805,slotMachine_updated,2023.1.3,MacIntel,59.99880002,,,,,,,,,,,,,,,,,,,,,,,,,,,,,,,,,,,,,,,,,,,,,,,,,,,511.8221,right,0.0405,,1,0.3,"[2,3,1]",0.807189723,stimuli/card_100_transparent.png,1210,100,14,0,14,0,1,,,,,
Kelsey,2023-10-02_13h21.10.805,slotMachine_updated,2023.1.3,MacIntel,59.99880002,,,,,,,,,,,,,,,,,,,,,,,,,,,,,,513.1877,,,,,,,,,,,,,,,,,,,,,,,,,,,,,,,,,,,,,7,0,7,0,1
Kelsey,2023-10-02_13h21.10.805,slotMachine_updated,2023.1.3,MacIntel,59.99880002,,,,,,,,,,,,,,,,,,,,,,,,,,,,,,,,,,,,,,,,,,,,,,,,,[15],"[[3,1,2]]",518.1889,up,1.0536,,1.5,0.3,"[3,1,2]",0.039074313,stimuli/card_0_transparent.png,0,0,0,0,0,0,1,,,,,
Kelsey,2023-10-02_13h21.10.805,slotMachine_updated,2023.1.3,MacIntel,59.99880002,,,,,,,,,,,,,,,,,,,,,,,,,,,,,,,,,,,,,,,,,,,,,,,,,,,521.0709,right,0.1208,,0.5,0.3,"[3,1,2]",0.629984088,stimuli/card_10_transparent.png,10,10,1,0,1,0,1,,,,,
Kelsey,2023-10-02_13h21.10.805,slotMachine_updated,2023.1.3,MacIntel,59.99880002,,,,,,,,,,,,,,,,,,,,,,,,,,,,,,,,,,,,,,,,,,,,,,,,,,,522.0078,right,0.3896,,1,0.3,"[3,1,2]",0.471841488,stimuli/card_10_transparent.png,20,10,2,0,2,0,1,,,,,
Kelsey,2023-10-02_13h21.10.805,slotMachine_updated,2023.1.3,MacIntel,59.99880002,,,,,,,,,,,,,,,,,,,,,,,,,,,,,,,,,,,,,,,,,,,,,,,,,,,523.7202,left,0.3621,,1.5,0.3,"[3,1,2]",0.098322004,stimuli/card_100_transparent.png,120,100,3,0,3,0,1,,,,,
Kelsey,2023-10-02_13h21.10.805,slotMachine_updated,2023.1.3,MacIntel,59.99880002,,,,,,,,,,,,,,,,,,,,,,,,,,,,,,,,,,,,,,,,,,,,,,,,,,,525.8893,left,0.2882,,0.5,0.3,"[3,1,2]",0.260891132,stimuli/card_0_transparent.png,120,0,4,0,4,0,1,,,,,
Kelsey,2023-10-02_13h21.10.805,slotMachine_updated,2023.1.3,MacIntel,59.99880002,,,,,,,,,,,,,,,,,,,,,,,,,,,,,,,,,,,,,,,,,,,,,,,,,,,527.004,left,0.9771,,1,0.3,"[3,1,2]",0.186696895,stimuli/card_10_transparent.png,130,10,5,0,5,0,1,,,,,
Kelsey,2023-10-02_13h21.10.805,slotMachine_updated,2023.1.3,MacIntel,59.99880002,,,,,,,,,,,,,,,,,,,,,,,,,,,,,,,,,,,,,,,,,,,,,,,,,,,529.3053,left,0.4386,,0.5,0.3,"[3,1,2]",0.413125678,stimuli/card_0_transparent.png,130,0,6,0,6,0,1,,,,,
Kelsey,2023-10-02_13h21.10.805,slotMachine_updated,2023.1.3,MacIntel,59.99880002,,,,,,,,,,,,,,,,,,,,,,,,,,,,,,,,,,,,,,,,,,,,,,,,,,,530.5707,right,0.516,,1,0.3,"[3,1,2]",0.068931477,stimuli/card_0_transparent.png,130,0,7,0,7,0,1,,,,,
Kelsey,2023-10-02_13h21.10.805,slotMachine_updated,2023.1.3,MacIntel,59.99880002,,,,,,,,,,,,,,,,,,,,,,,,,,,,,,,,,,,,,,,,,,,,,,,,,,,532.3902,left,0.7652,,1,0.3,"[3,1,2]",0.811366122,stimuli/card_0_transparent.png,130,0,8,0,8,0,1,,,,,
Kelsey,2023-10-02_13h21.10.805,slotMachine_updated,2023.1.3,MacIntel,59.99880002,,,,,,,,,,,,,,,,,,,,,,,,,,,,,,,,,,,,,,,,,,,,,,,,,,,534.4744,left,0.1765,,1,0.3,"[3,1,2]",0.623779899,stimuli/card_0_transparent.png,130,0,9,0,9,0,1,,,,,
Kelsey,2023-10-02_13h21.10.805,slotMachine_updated,2023.1.3,MacIntel,59.99880002,,,,,,,,,,,,,,,,,,,,,,,,,,,,,,,,,,,,,,,,,,,,,,,,,,,535.9714,right,0.338,,0.5,0.3,"[3,1,2]",0.446068484,stimuli/card_10_transparent.png,140,10,10,0,10,0,1,,,,,
Kelsey,2023-10-02_13h21.10.805,slotMachine_updated,2023.1.3,MacIntel,59.99880002,,,,,,,,,,,,,,,,,,,,,,,,,,,,,,,,,,,,,,,,,,,,,,,,,,,537.1213,right,0.3959,,0.5,0.3,"[3,1,2]",0.889660339,stimuli/card_10_transparent.png,150,10,11,0,11,0,1,,,,,
Kelsey,2023-10-02_13h21.10.805,slotMachine_updated,2023.1.3,MacIntel,59.99880002,,,,,,,,,,,,,,,,,,,,,,,,,,,,,,,,,,,,,,,,,,,,,,,,,,,538.3381,right,0.5324,,1,0.3,"[3,1,2]",0.457687389,stimuli/card_10_transparent.png,160,10,12,0,12,0,1,,,,,
Kelsey,2023-10-02_13h21.10.805,slotMachine_updated,2023.1.3,MacIntel,59.99880002,,,,,,,,,,,,,,,,,,,,,,,,,,,,,,,,,,,,,,,,,,,,,,,,,,,540.1881,right,0.2589,,1,0.3,"[3,1,2]",0.565323982,stimuli/card_10_transparent.png,170,10,13,0,13,0,1,,,,,
Kelsey,2023-10-02_13h21.10.805,slotMachine_updated,2023.1.3,MacIntel,59.99880002,,,,,,,,,,,,,,,,,,,,,,,,,,,,,,,,,,,,,,,,,,,,,,,,,,,541.7744,up,0.0647,,1.5,0.3,"[3,1,2]",0.607712626,stimuli/card_100_transparent.png,270,100,14,0,14,0,1,,,,,
Kelsey,2023-10-02_13h21.10.805,slotMachine_updated,2023.1.3,MacIntel,59.99880002,,,,,,,,,,,,,,,,,,,,,,,,,,,,,,543.6569,,,,,,,,,,,,,,,,,,,,,,,,,,,,,,,,,,,,,8,0,8,0,1
Kelsey,2023-10-02_13h21.10.805,slotMachine_updated,2023.1.3,MacIntel,59.99880002,,,,,,,,,,,,,,,,,,,,,,,,,,,,,,,,,,,,,,,,,,,,,,,,,"[4,10,15]","[[2,3,1],[1,3,2],[3,2,1]]",548.6576,up,0.6019,,1.5,0.3,"[2,3,1]",0.693669189,stimuli/card_0_transparent.png,0,0,0,0,0,0,1,,,,,
Kelsey,2023-10-02_13h21.10.805,slotMachine_updated,2023.1.3,MacIntel,59.99880002,,,,,,,,,,,,,,,,,,,,,,,,,,,,,,,,,,,,,,,,,,,,,,,,,,,551.0888,left,0.099,,0.5,0.3,"[2,3,1]",0.032648635,stimuli/card_0_transparent.png,0,0,1,0,1,0,1,,,,,
Kelsey,2023-10-02_13h21.10.805,slotMachine_updated,2023.1.3,MacIntel,59.99880002,,,,,,,,,,,,,,,,,,,,,,,,,,,,,,,,,,,,,,,,,,,,,,,,,,,552.0091,right,0.3787,,1,0.3,"[2,3,1]",0.022670187,stimuli/card_0_transparent.png,0,0,2,0,2,0,1,,,,,
Kelsey,2023-10-02_13h21.10.805,slotMachine_updated,2023.1.3,MacIntel,59.99880002,,,,,,,,,,,,,,,,,,,,,,,,,,,,,,,,,,,,,,,,,,,,,,,,,,,553.7088,right,0.482,,1.5,0.3,"[2,3,1]",0.643108293,stimuli/card_100_transparent.png,100,100,3,0,3,0,1,,,,,
Kelsey,2023-10-02_13h21.10.805,slotMachine_updated,2023.1.3,MacIntel,59.99880002,,,,,,,,,,,,,,,,,,,,,,,,,,,,,,,,,,,,,,,,,,,,,,,,,,,556.0074,right,0.2622,,1,0.3,"[1,3,2]",0.650195533,stimuli/card_10_transparent.png,110,10,4,0,4,0,1,,,,,
Kelsey,2023-10-02_13h21.10.805,slotMachine_updated,2023.1.3,MacIntel,59.99880002,,,,,,,,,,,,,,,,,,,,,,,,,,,,,,,,,,,,,,,,,,,,,,,,,,,557.5918,right,0.111,,0.5,0.3,"[1,3,2]",0.397285318,stimuli/card_10_transparent.png,120,10,5,0,5,0,1,,,,,
Kelsey,2023-10-02_13h21.10.805,slotMachine_updated,2023.1.3,MacIntel,59.99880002,,,,,,,,,,,,,,,,,,,,,,,,,,,,,,,,,,,,,,,,,,,,,,,,,,,558.5251,up,0.5234,,1,0.3,"[1,3,2]",0.423622768,stimuli/card_0_transparent.png,120,0,6,0,6,0,1,,,,,
Kelsey,2023-10-02_13h21.10.805,slotMachine_updated,2023.1.3,MacIntel,59.99880002,,,,,,,,,,,,,,,,,,,,,,,,,,,,,,,,,,,,,,,,,,,,,,,,,,,560.3757,up,0.4577,,1.5,0.3,"[1,3,2]",0.743445901,stimuli/card_0_transparent.png,120,0,7,0,7,0,1,,,,,
Kelsey,2023-10-02_13h21.10.805,slotMachine_updated,2023.1.3,MacIntel,59.99880002,,,,,,,,,,,,,,,,,,,,,,,,,,,,,,,,,,,,,,,,,,,,,,,,,,,562.6581,left,0.1675,,1,0.3,"[1,3,2]",0.013928992,stimuli/card_0_transparent.png,120,0,8,0,8,0,1,,,,,
Kelsey,2023-10-02_13h21.10.805,slotMachine_updated,2023.1.3,MacIntel,59.99880002,,,,,,,,,,,,,,,,,,,,,,,,,,,,,,,,,,,,,,,,,,,,,,,,,,,564.14,left,0.3495,,0.5,0.3,"[1,3,2]",0.086282268,stimuli/card_0_transparent.png,120,0,9,0,9,0,1,,,,,
Kelsey,2023-10-02_13h21.10.805,slotMachine_updated,2023.1.3,MacIntel,59.99880002,,,,,,,,,,,,,,,,,,,,,,,,,,,,,,,,,,,,,,,,,,,,,,,,,,,565.3081,right,0.2207,,1,0.3,"[3,2,1]",0.930261329,stimuli/card_100_transparent.png,220,100,10,0,10,0,1,,,,,
Kelsey,2023-10-02_13h21.10.805,slotMachine_updated,2023.1.3,MacIntel,59.99880002,,,,,,,,,,,,,,,,,,,,,,,,,,,,,,,,,,,,,,,,,,,,,,,,,,,566.8415,right,0.001,,1,0.3,"[3,2,1]",0.487170568,stimuli/card_100_transparent.png,320,100,11,0,11,0,1,,,,,
Kelsey,2023-10-02_13h21.10.805,slotMachine_updated,2023.1.3,MacIntel,59.99880002,,,,,,,,,,,,,,,,,,,,,,,,,,,,,,,,,,,,,,,,,,,,,,,,,,,568.1566,right,0.1248,,0.5,0.3,"[3,2,1]",0.274197831,stimuli/card_100_transparent.png,420,100,12,0,12,0,1,,,,,
Kelsey,2023-10-02_13h21.10.805,slotMachine_updated,2023.1.3,MacIntel,59.99880002,,,,,,,,,,,,,,,,,,,,,,,,,,,,,,,,,,,,,,,,,,,,,,,,,,,569.1104,right,0.1915,,0.5,0.3,"[3,2,1]",0.801991674,stimuli/card_100_transparent.png,520,100,13,0,13,0,1,,,,,
Kelsey,2023-10-02_13h21.10.805,slotMachine_updated,2023.1.3,MacIntel,59.99880002,,,,,,,,,,,,,,,,,,,,,,,,,,,,,,,,,,,,,,,,,,,,,,,,,,,570.1234,right,0.4653,,1.5,0.3,"[3,2,1]",0.422182599,stimuli/card_100_transparent.png,620,100,14,0,14,0,1,,,,,
Kelsey,2023-10-02_13h21.10.805,slotMachine_updated,2023.1.3,MacIntel,59.99880002,,,,,,,,,,,,,,,,,,,,,,,,,,,,,,572.4079,,,,,,,,,,,,,,,,,,,,,,,,,,,,,,,,,,,,,9,0,9,0,1
Kelsey,2023-10-02_13h21.10.805,slotMachine_updated,2023.1.3,MacIntel,59.99880002,,,,,,,,,,,,,,,,,,,,,,,,,,,,,,,,,,,,,,,,,,,,,,,,,,,,,,,,,,,,,,,,,,,,,,,
