key_resp_welcome_started,key_resp_welcome_keys,key_resp_welcome_rt,key_resp_welcome_duration,prolific_id,path_id,date,expName,psychopyVersion,OS,frameRate,key_resp_instruction1_started,key_resp_instruction1_keys,key_resp_instruction1_rt,key_resp_instruction1_duration,key_resp_instruction2_started,key_resp_instruction2_keys,key_resp_instruction2_rt,key_resp_instruction2_duration,key_resp_instruction3_started,key_resp_instruction3_keys,key_resp_instruction3_rt,key_resp_instruction3_duration,key_resp_instruction4_started,key_resp_instruction4_keys,key_resp_instruction4_rt,key_resp_instruction4_duration,practiceCondition,practice_reward_seqs,practice_trial_started,practice_trial_num,practice_resp_rt,practice_resp_duration,practice_resp_keys,prac_presentationInterval,"practice_reward_seq: 2,1,3",reward_img,cumulative_reward,trial_reward,practice_trials.thisRepN,practice_trials.thisTrialN,practice_trials.thisN,practice_trials.thisIndex,practice_trials.ran,"practice_reward_seq: 2,3,1",block_break_started,"practice_reward_seq: 1,3,2","practice_reward_seq: 3,1,2",practice_end_time,practice_end_keys,practice_end_rt,practice_end_duration,main_instruction_text_started,block_condition,block_order_indices,main_instruction_keys,main_instruction_rt,main_instruction_duration,block_number,block_assignment,current_condition,main_reward_seqs,main_trial_started,main_trial_num,main_trial_keys,main_trial_rt,main_trial_duration,main_presentationInterval,reward_presentation_time,main_reward_seq,reward_rand_val,main_reward_img,current_reward,main_trials.thisRepN,main_trials.thisTrialN,main_trials.thisN,main_trials.thisIndex,main_trials.ran,block_reward,block.thisRepN,block.thisTrialN,block.thisN,block.thisIndex,block.ran,block_reward.length,block_reward_all,reward_amount,date_end_task
0.0002,space,1.5663,,,A,2024-07-11_01h31.23.289,Slot Machine Game,2023.1.3,Win32,142.8571429,,,,,,,,,,,,,,,,,,,,,,,,,,,,,,,,,,,,,,,,,,,,,,,,,,,,,,,,,,,,,,,,,,,,,,,,,,,,,
,,,,,A,2024-07-11_01h31.23.289,Slot Machine Game,2023.1.3,Win32,142.8571429,1.5737,space,4.3059,,,,,,,,,,,,,,,,,,,,,,,,,,,,,,,,,,,,,,,,,,,,,,,,,,,,,,,,,,,,,,,,,,,,,,,,,,
,,,,,A,2024-07-11_01h31.23.289,Slot Machine Game,2023.1.3,Win32,142.8571429,,,,,5.8872,space,19.355,,,,,,,,,,,,,,,,,,,,,,,,,,,,,,,,,,,,,,,,,,,,,,,,,,,,,,,,,,,,,,,,,,,,,,
,,,,,A,2024-07-11_01h31.23.289,Slot Machine Game,2023.1.3,Win32,142.8571429,,,,,,,,,25.2656,space,3.5454,,,,,,,,,,,,,,,,,,,,,,,,,,,,,,,,,,,,,,,,,,,,,,,,,,,,,,,,,,,,,,,,,,
,,,,,A,2024-07-11_01h31.23.289,Slot Machine Game,2023.1.3,Win32,142.8571429,,,,,,,,,,,,,,,,,,,,,,,,,,,,,,,,,,,,,,,,,,,,,,,,,,,,,,,,,,,,,,,,,,,,,,,,,,,,,
,,,,,A,2024-07-11_01h31.23.289,Slot Machine Game,2023.1.3,Win32,142.8571429,,,,,,,,,,,,,170.458,right,1.4678,,,,,,,,,,,,,,,,,,,,,,,,,,,,,,,,,,,,,,,,,,,,,,,,,,,,,,,,,,,,,,
,,,,,A,2024-07-11_01h31.23.289,Slot Machine Game,2023.1.3,Win32,142.8571429,,,,,,,,,,,,,,,,,"[9,15]","[[2,1,3],[2,3,1]]",171.9378,0,0.2987,,left,1,,stimuli/card_10_transparent.png,10,10,0,0,0,0,1,,,,,,,,,,,,,,,,,,,,,,,,,,,,,,,,,,,,,,,,,,,,
,,,,,A,2024-07-11_01h31.23.289,Slot Machine Game,2023.1.3,Win32,142.8571429,,,,,,,,,,,,,,,,,,,174.0548,1,0.2899,,up,1,,stimuli/card_100_transparent.png,110,100,1,0,1,0,1,,,,,,,,,,,,,,,,,,,,,,,,,,,,,,,,,,,,,,,,,,,,
,,,,,A,2024-07-11_01h31.23.289,Slot Machine Game,2023.1.3,Win32,142.8571429,,,,,,,,,,,,,,,,,,,176.155,2,0.1049,,up,0.5,,stimuli/card_100_transparent.png,210,100,2,0,2,0,1,,,,,,,,,,,,,,,,,,,,,,,,,,,,,,,,,,,,,,,,,,,,
,,,,,A,2024-07-11_01h31.23.289,Slot Machine Game,2023.1.3,Win32,142.8571429,,,,,,,,,,,,,,,,,,,177.5691,3,0.0789,,up,1.5,,stimuli/card_100_transparent.png,310,100,3,0,3,0,1,,,,,,,,,,,,,,,,,,,,,,,,,,,,,,,,,,,,,,,,,,,,
,,,,,A,2024-07-11_01h31.23.289,Slot Machine Game,2023.1.3,Win32,142.8571429,,,,,,,,,,,,,,,,,,,179.9515,4,0.2795,,up,1.5,,stimuli/card_100_transparent.png,410,100,4,0,4,0,1,,,,,,,,,,,,,,,,,,,,,,,,,,,,,,,,,,,,,,,,,,,,
,,,,,A,2024-07-11_01h31.23.289,Slot Machine Game,2023.1.3,Win32,142.8571429,,,,,,,,,,,,,,,,,,,182.5353,5,0.2291,,up,0.5,,stimuli/card_100_transparent.png,510,100,5,0,5,0,1,,,,,,,,,,,,,,,,,,,,,,,,,,,,,,,,,,,,,,,,,,,,
,,,,,A,2024-07-11_01h31.23.289,Slot Machine Game,2023.1.3,Win32,142.8571429,,,,,,,,,,,,,,,,,,,184.0702,6,0.1062,,up,0.5,,stimuli/card_100_transparent.png,610,100,6,0,6,0,1,,,,,,,,,,,,,,,,,,,,,,,,,,,,,,,,,,,,,,,,,,,,
,,,,,A,2024-07-11_01h31.23.289,Slot Machine Game,2023.1.3,Win32,142.8571429,,,,,,,,,,,,,,,,,,,185.4802,7,0.2915,,up,0.5,,stimuli/card_100_transparent.png,710,100,7,0,7,0,1,,,,,,,,,,,,,,,,,,,,,,,,,,,,,,,,,,,,,,,,,,,,
,,,,,A,2024-07-11_01h31.23.289,Slot Machine Game,2023.1.3,Win32,142.8571429,,,,,,,,,,,,,,,,,,,187.0777,8,0.1365,,up,0.5,,stimuli/card_100_transparent.png,810,100,8,0,8,0,1,,,,,,,,,,,,,,,,,,,,,,,,,,,,,,,,,,,,,,,,,,,,
,,,,,A,2024-07-11_01h31.23.289,Slot Machine Game,2023.1.3,Win32,142.8571429,,,,,,,,,,,,,,,,,,,188.5254,9,0.1317,,up,1,,stimuli/card_0_transparent.png,810,0,9,0,9,0,1,,,,,,,,,,,,,,,,,,,,,,,,,,,,,,,,,,,,,,,,,,,,
,,,,,A,2024-07-11_01h31.23.289,Slot Machine Game,2023.1.3,Win32,142.8571429,,,,,,,,,,,,,,,,,,,190.4672,10,0.1071,,right,0.5,,stimuli/card_100_transparent.png,910,100,10,0,10,0,1,,,,,,,,,,,,,,,,,,,,,,,,,,,,,,,,,,,,,,,,,,,,
,,,,,A,2024-07-11_01h31.23.289,Slot Machine Game,2023.1.3,Win32,142.8571429,,,,,,,,,,,,,,,,,,,191.879,11,0.0869,,right,1,,stimuli/card_100_transparent.png,1010,100,11,0,11,0,1,,,,,,,,,,,,,,,,,,,,,,,,,,,,,,,,,,,,,,,,,,,,
,,,,,A,2024-07-11_01h31.23.289,Slot Machine Game,2023.1.3,Win32,142.8571429,,,,,,,,,,,,,,,,,,,193.7733,12,0.0454,,right,1.5,,stimuli/card_100_transparent.png,1110,100,12,0,12,0,1,,,,,,,,,,,,,,,,,,,,,,,,,,,,,,,,,,,,,,,,,,,,
,,,,,A,2024-07-11_01h31.23.289,Slot Machine Game,2023.1.3,Win32,142.8571429,,,,,,,,,,,,,,,,,,,196.1209,13,0.0223,,right,1,,stimuli/card_0_transparent.png,1110,0,13,0,13,0,1,,,,,,,,,,,,,,,,,,,,,,,,,,,,,,,,,,,,,,,,,,,,
,,,,,A,2024-07-11_01h31.23.289,Slot Machine Game,2023.1.3,Win32,142.8571429,,,,,,,,,,,,,,,,,,,197.9476,14,0.2545,,right,0.5,,stimuli/card_100_transparent.png,1210,100,14,0,14,0,1,,,,,,,,,,,,,,,,,,,,,,,,,,,,,,,,,,,,,,,,,,,,
,,,,,A,2024-07-11_01h31.23.289,Slot Machine Game,2023.1.3,Win32,142.8571429,,,,,,,,,,,,,,,,,"[6,15]","[[1,3,2],[3,1,2]]",204.5092,0,0.4265,,left,0.5,,stimuli/card_100_transparent.png,100,100,0,0,0,0,1,,199.5081,,,,,,,,,,,,,,,,,,,,,,,,,,,,,,,,,,,,,,,,,,
,,,,,A,2024-07-11_01h31.23.289,Slot Machine Game,2023.1.3,Win32,142.8571429,,,,,,,,,,,,,,,,,,,206.2477,1,0.0973,,left,1.5,,stimuli/card_100_transparent.png,200,100,1,0,1,0,1,,,,,,,,,,,,,,,,,,,,,,,,,,,,,,,,,,,,,,,,,,,,
,,,,,A,2024-07-11_01h31.23.289,Slot Machine Game,2023.1.3,Win32,142.8571429,,,,,,,,,,,,,,,,,,,208.6509,2,0.2217,,left,1,,stimuli/card_0_transparent.png,200,0,2,0,2,0,1,,,,,,,,,,,,,,,,,,,,,,,,,,,,,,,,,,,,,,,,,,,,
,,,,,A,2024-07-11_01h31.23.289,Slot Machine Game,2023.1.3,Win32,142.8571429,,,,,,,,,,,,,,,,,,,210.6721,3,0.0775,,left,0.5,,stimuli/card_100_transparent.png,300,100,3,0,3,0,1,,,,,,,,,,,,,,,,,,,,,,,,,,,,,,,,,,,,,,,,,,,,
,,,,,A,2024-07-11_01h31.23.289,Slot Machine Game,2023.1.3,Win32,142.8571429,,,,,,,,,,,,,,,,,,,212.0542,4,0.0349,,left,0.5,,stimuli/card_100_transparent.png,400,100,4,0,4,0,1,,,,,,,,,,,,,,,,,,,,,,,,,,,,,,,,,,,,,,,,,,,,
,,,,,A,2024-07-11_01h31.23.289,Slot Machine Game,2023.1.3,Win32,142.8571429,,,,,,,,,,,,,,,,,,,213.3947,5,0.2375,,left,1.5,,stimuli/card_100_transparent.png,500,100,5,0,5,0,1,,,,,,,,,,,,,,,,,,,,,,,,,,,,,,,,,,,,,,,,,,,,
,,,,,A,2024-07-11_01h31.23.289,Slot Machine Game,2023.1.3,Win32,142.8571429,,,,,,,,,,,,,,,,,,,215.9385,6,0.1122,,left,1.5,,stimuli/card_0_transparent.png,500,0,6,0,6,0,1,,,,,,,,,,,,,,,,,,,,,,,,,,,,,,,,,,,,,,,,,,,,
,,,,,A,2024-07-11_01h31.23.289,Slot Machine Game,2023.1.3,Win32,142.8571429,,,,,,,,,,,,,,,,,,,218.3539,7,0.2782,,right,0.5,,stimuli/card_10_transparent.png,510,10,7,0,7,0,1,,,,,,,,,,,,,,,,,,,,,,,,,,,,,,,,,,,,,,,,,,,,
,,,,,A,2024-07-11_01h31.23.289,Slot Machine Game,2023.1.3,Win32,142.8571429,,,,,,,,,,,,,,,,,,,219.9306,8,0.2223,,up,1,,stimuli/card_100_transparent.png,610,100,8,0,8,0,1,,,,,,,,,,,,,,,,,,,,,,,,,,,,,,,,,,,,,,,,,,,,
,,,,,A,2024-07-11_01h31.23.289,Slot Machine Game,2023.1.3,Win32,142.8571429,,,,,,,,,,,,,,,,,,,221.9518,9,0.1609,,up,1,,stimuli/card_100_transparent.png,710,100,9,0,9,0,1,,,,,,,,,,,,,,,,,,,,,,,,,,,,,,,,,,,,,,,,,,,,
,,,,,A,2024-07-11_01h31.23.289,Slot Machine Game,2023.1.3,Win32,142.8571429,,,,,,,,,,,,,,,,,,,223.9174,10,0.2078,,up,1,,stimuli/card_100_transparent.png,810,100,10,0,10,0,1,,,,,,,,,,,,,,,,,,,,,,,,,,,,,,,,,,,,,,,,,,,,
,,,,,A,2024-07-11_01h31.23.289,Slot Machine Game,2023.1.3,Win32,142.8571429,,,,,,,,,,,,,,,,,,,225.9316,11,0.1598,,up,1.5,,stimuli/card_100_transparent.png,910,100,11,0,11,0,1,,,,,,,,,,,,,,,,,,,,,,,,,,,,,,,,,,,,,,,,,,,,
,,,,,A,2024-07-11_01h31.23.289,Slot Machine Game,2023.1.3,Win32,142.8571429,,,,,,,,,,,,,,,,,,,228.3973,12,0.0499,,up,0.5,,stimuli/card_100_transparent.png,1010,100,12,0,12,0,1,,,,,,,,,,,,,,,,,,,,,,,,,,,,,,,,,,,,,,,,,,,,
,,,,,A,2024-07-11_01h31.23.289,Slot Machine Game,2023.1.3,Win32,142.8571429,,,,,,,,,,,,,,,,,,,229.7548,13,0.0487,,up,1.5,,stimuli/card_100_transparent.png,1110,100,13,0,13,0,1,,,,,,,,,,,,,,,,,,,,,,,,,,,,,,,,,,,,,,,,,,,,
,,,,,A,2024-07-11_01h31.23.289,Slot Machine Game,2023.1.3,Win32,142.8571429,,,,,,,,,,,,,,,,,,,232.1133,14,0.2028,,up,0.5,,stimuli/card_100_transparent.png,1210,100,14,0,14,0,1,,,,,,,,,,,,,,,,,,,,,,,,,,,,,,,,,,,,,,,,,,,,
,,,,,A,2024-07-11_01h31.23.289,Slot Machine Game,2023.1.3,Win32,142.8571429,,,,,,,,,,,,,,,,,,,,,,,,,,,,,,,,,,,233.6274,,,238.6307,space,8.0145,,,,,,,,,,,,,,,,,,,,,,,,,,,,,,,,,,,,,
,,,,,A,2024-07-11_01h31.23.289,Slot Machine Game,2023.1.3,Win32,142.8571429,,,,,,,,,,,,,,,,,,,,,,,,,,,,,,,,,,,,,,,,,,246.6579,2,"[2,4,8,0,1,3,9,6,8,5]",space,1.9607,,,,,,,,,,,,,,,,,,,,,,,,,,,,,,,
,,,,,A,2024-07-11_01h31.23.289,Slot Machine Game,2023.1.3,Win32,142.8571429,,,,,,,,,,,,,,,,,,,,,,,,,,,0,,,,,,,,,,,,,,,,,,,,,1,3,"[15,15]","[[3,1,2],[3,1,2]]",248.6355,0,left,0.1498,,0.5,0.3,"[3,1,2]",0.410520566,stimuli/card_0_transparent.png,0,0,0,0,0,1,,,,,,,,,,
,,,,,A,2024-07-11_01h31.23.289,Slot Machine Game,2023.1.3,Win32,142.8571429,,,,,,,,,,,,,,,,,,,,,,,,,,,10,,,,,,,,,,,,,,,,,,,,,1,3,,,250.0887,1,up,0.1479,,1.5,0.3,"[3,1,2]",0.139737385,stimuli/card_10_transparent.png,10,1,0,1,0,1,,,,,,,,,,
,,,,,A,2024-07-11_01h31.23.289,Slot Machine Game,2023.1.3,Win32,142.8571429,,,,,,,,,,,,,,,,,,,,,,,,,,,20,,,,,,,,,,,,,,,,,,,,,1,3,,,252.5473,2,right,0.2151,,0.5,0.3,"[3,1,2]",0.731104326,stimuli/card_10_transparent.png,10,2,0,2,0,1,,,,,,,,,,
,,,,,A,2024-07-11_01h31.23.289,Slot Machine Game,2023.1.3,Win32,142.8571429,,,,,,,,,,,,,,,,,,,,,,,,,,,30,,,,,,,,,,,,,,,,,,,,,1,3,,,254.0685,3,up,0.0636,,1,0.3,"[3,1,2]",0.19622741,stimuli/card_10_transparent.png,10,3,0,3,0,1,,,,,,,,,,
,,,,,A,2024-07-11_01h31.23.289,Slot Machine Game,2023.1.3,Win32,142.8571429,,,,,,,,,,,,,,,,,,,,,,,,,,,40,,,,,,,,,,,,,,,,,,,,,1,3,,,255.9368,4,right,0.2996,,1.5,0.3,"[3,1,2]",0.576464064,stimuli/card_10_transparent.png,10,4,0,4,0,1,,,,,,,,,,
,,,,,A,2024-07-11_01h31.23.289,Slot Machine Game,2023.1.3,Win32,142.8571429,,,,,,,,,,,,,,,,,,,,,,,,,,,40,,,,,,,,,,,,,,,,,,,,,1,3,,,258.5414,5,left,0.1262,,1,0.3,"[3,1,2]",0.859598783,stimuli/card_0_transparent.png,0,5,0,5,0,1,,,,,,,,,,
,,,,,A,2024-07-11_01h31.23.289,Slot Machine Game,2023.1.3,Win32,142.8571429,,,,,,,,,,,,,,,,,,,,,,,,,,,50,,,,,,,,,,,,,,,,,,,,,1,3,,,260.4723,6,right,0.2245,,0.5,0.3,"[3,1,2]",0.907638251,stimuli/card_10_transparent.png,10,6,0,6,0,1,,,,,,,,,,
,,,,,A,2024-07-11_01h31.23.289,Slot Machine Game,2023.1.3,Win32,142.8571429,,,,,,,,,,,,,,,,,,,,,,,,,,,60,,,,,,,,,,,,,,,,,,,,,1,3,,,262.0003,7,right,0.0279,,1,0.3,"[3,1,2]",0.862483176,stimuli/card_10_transparent.png,10,7,0,7,0,1,,,,,,,,,,
,,,,,A,2024-07-11_01h31.23.289,Slot Machine Game,2023.1.3,Win32,142.8571429,,,,,,,,,,,,,,,,,,,,,,,,,,,60,,,,,,,,,,,,,,,,,,,,,1,3,,,263.834,8,up,0.3265,,1,0.3,"[3,1,2]",0.061897477,stimuli/card_0_transparent.png,0,8,0,8,0,1,,,,,,,,,,
,,,,,A,2024-07-11_01h31.23.289,Slot Machine Game,2023.1.3,Win32,142.8571429,,,,,,,,,,,,,,,,,,,,,,,,,,,160,,,,,,,,,,,,,,,,,,,,,1,3,,,265.9663,9,up,0.153,,0.5,0.3,"[3,1,2]",0.896965475,stimuli/card_100_transparent.png,100,9,0,9,0,1,,,,,,,,,,
,,,,,A,2024-07-11_01h31.23.289,Slot Machine Game,2023.1.3,Win32,142.8571429,,,,,,,,,,,,,,,,,,,,,,,,,,,160,,,,,,,,,,,,,,,,,,,,,1,3,,,267.4249,10,up,0.0294,,1.5,0.3,"[3,1,2]",0.082673221,stimuli/card_0_transparent.png,0,10,0,10,0,1,,,,,,,,,,
,,,,,A,2024-07-11_01h31.23.289,Slot Machine Game,2023.1.3,Win32,142.8571429,,,,,,,,,,,,,,,,,,,,,,,,,,,160,,,,,,,,,,,,,,,,,,,,,1,3,,,269.7587,11,up,0.0243,,1,0.3,"[3,1,2]",0.005349589,stimuli/card_0_transparent.png,0,11,0,11,0,1,,,,,,,,,,
,,,,,A,2024-07-11_01h31.23.289,Slot Machine Game,2023.1.3,Win32,142.8571429,,,,,,,,,,,,,,,,,,,,,,,,,,,160,,,,,,,,,,,,,,,,,,,,,1,3,,,271.5854,12,left,0.0165,,1.5,0.3,"[3,1,2]",0.609218519,stimuli/card_0_transparent.png,0,12,0,12,0,1,,,,,,,,,,
,,,,,A,2024-07-11_01h31.23.289,Slot Machine Game,2023.1.3,Win32,142.8571429,,,,,,,,,,,,,,,,,,,,,,,,,,,160,,,,,,,,,,,,,,,,,,,,,1,3,,,273.9052,13,left,0.0279,,1.5,0.3,"[3,1,2]",0.354275371,stimuli/card_0_transparent.png,0,13,0,13,0,1,,,,,,,,,,
,,,,,A,2024-07-11_01h31.23.289,Slot Machine Game,2023.1.3,Win32,142.8571429,,,,,,,,,,,,,,,,,,,,,,,,,,,260,,,,,,,,,,,,,,,,,,,,,1,3,,,276.239,14,up,0.1279,,1,0.3,"[3,1,2]",0.496633679,stimuli/card_100_transparent.png,100,14,0,14,0,1,,,,,,,,,,
,,,,,A,2024-07-11_01h31.23.289,Slot Machine Game,2023.1.3,Win32,142.8571429,,,,,,,,,,,,,,,,,,,,,,,,,,,,,,,,,,,278.1768,,,,,,,,,,,,,,,,,,,,,,,,,,,,,,,,,[260],0,0,0,0,1,,,,
,,,,,A,2024-07-11_01h31.23.289,Slot Machine Game,2023.1.3,Win32,142.8571429,,,,,,,,,,,,,,,,,,,,,,,,,,,0,,,,,,,,,,,,,,,,,,,,,2,5,"[5,15]","[[1,2,3],[3,1,2]]",283.1827,0,right,0.4725,,0.5,0.3,"[1,2,3]",0.708009334,stimuli/card_0_transparent.png,0,0,0,0,0,1,,,,,,,,,,
,,,,,A,2024-07-11_01h31.23.289,Slot Machine Game,2023.1.3,Win32,142.8571429,,,,,,,,,,,,,,,,,,,,,,,,,,,0,,,,,,,,,,,,,,,,,,,,,2,5,,,284.9626,1,right,0.1946,,0.5,0.3,"[1,2,3]",0.925384055,stimuli/card_0_transparent.png,0,1,0,1,0,1,,,,,,,,,,
,,,,,A,2024-07-11_01h31.23.289,Slot Machine Game,2023.1.3,Win32,142.8571429,,,,,,,,,,,,,,,,,,,,,,,,,,,100,,,,,,,,,,,,,,,,,,,,,2,5,,,286.4629,2,left,0.1352,,1.5,0.3,"[1,2,3]",0.860503614,stimuli/card_100_transparent.png,100,2,0,2,0,1,,,,,,,,,,
,,,,,A,2024-07-11_01h31.23.289,Slot Machine Game,2023.1.3,Win32,142.8571429,,,,,,,,,,,,,,,,,,,,,,,,,,,200,,,,,,,,,,,,,,,,,,,,,2,5,,,288.9008,3,left,0.0834,,1,0.3,"[1,2,3]",0.27550042,stimuli/card_100_transparent.png,100,3,0,3,0,1,,,,,,,,,,
,,,,,A,2024-07-11_01h31.23.289,Slot Machine Game,2023.1.3,Win32,142.8571429,,,,,,,,,,,,,,,,,,,,,,,,,,,300,,,,,,,,,,,,,,,,,,,,,2,5,,,290.7901,4,left,0.1183,,1.5,0.3,"[1,2,3]",0.455178116,stimuli/card_100_transparent.png,100,4,0,4,0,1,,,,,,,,,,
,,,,,A,2024-07-11_01h31.23.289,Slot Machine Game,2023.1.3,Win32,142.8571429,,,,,,,,,,,,,,,,,,,,,,,,,,,300,,,,,,,,,,,,,,,,,,,,,2,5,,,293.2141,5,left,0.0644,,1.5,0.3,"[3,1,2]",0.595419788,stimuli/card_0_transparent.png,0,5,0,5,0,1,,,,,,,,,,
,,,,,A,2024-07-11_01h31.23.289,Slot Machine Game,2023.1.3,Win32,142.8571429,,,,,,,,,,,,,,,,,,,,,,,,,,,300,,,,,,,,,,,,,,,,,,,,,2,5,,,295.5825,6,left,0.1139,,1,0.3,"[3,1,2]",0.77924548,stimuli/card_0_transparent.png,0,6,0,6,0,1,,,,,,,,,,
,,,,,A,2024-07-11_01h31.23.289,Slot Machine Game,2023.1.3,Win32,142.8571429,,,,,,,,,,,,,,,,,,,,,,,,,,,400,,,,,,,,,,,,,,,,,,,,,2,5,,,297.4995,7,up,0.0002,,1,0.3,"[3,1,2]",0.573534947,stimuli/card_100_transparent.png,100,7,0,7,0,1,,,,,,,,,,
,,,,,A,2024-07-11_01h31.23.289,Slot Machine Game,2023.1.3,Win32,142.8571429,,,,,,,,,,,,,,,,,,,,,,,,,,,500,,,,,,,,,,,,,,,,,,,,,2,5,,,299.3054,8,up,0.2041,,1.5,0.3,"[3,1,2]",0.423765082,stimuli/card_100_transparent.png,100,8,0,8,0,1,,,,,,,,,,
,,,,,A,2024-07-11_01h31.23.289,Slot Machine Game,2023.1.3,Win32,142.8571429,,,,,,,,,,,,,,,,,,,,,,,,,,,600,,,,,,,,,,,,,,,,,,,,,2,5,,,301.8128,9,up,0.1413,,0.5,0.3,"[3,1,2]",0.948923437,stimuli/card_100_transparent.png,100,9,0,9,0,1,,,,,,,,,,
,,,,,A,2024-07-11_01h31.23.289,Slot Machine Game,2023.1.3,Win32,142.8571429,,,,,,,,,,,,,,,,,,,,,,,,,,,700,,,,,,,,,,,,,,,,,,,,,2,5,,,303.2575,10,up,0.0643,,0.5,0.3,"[3,1,2]",0.304244358,stimuli/card_100_transparent.png,100,10,0,10,0,1,,,,,,,,,,
,,,,,A,2024-07-11_01h31.23.289,Slot Machine Game,2023.1.3,Win32,142.8571429,,,,,,,,,,,,,,,,,,,,,,,,,,,800,,,,,,,,,,,,,,,,,,,,,2,5,,,304.6258,11,up,0.0574,,0.5,0.3,"[3,1,2]",0.301998282,stimuli/card_100_transparent.png,100,11,0,11,0,1,,,,,,,,,,
,,,,,A,2024-07-11_01h31.23.289,Slot Machine Game,2023.1.3,Win32,142.8571429,,,,,,,,,,,,,,,,,,,,,,,,,,,900,,,,,,,,,,,,,,,,,,,,,2,5,,,305.9871,12,up,0.0556,,1.5,0.3,"[3,1,2]",0.538126282,stimuli/card_100_transparent.png,100,12,0,12,0,1,,,,,,,,,,
,,,,,A,2024-07-11_01h31.23.289,Slot Machine Game,2023.1.3,Win32,142.8571429,,,,,,,,,,,,,,,,,,,,,,,,,,,1000,,,,,,,,,,,,,,,,,,,,,2,5,,,308.3487,13,up,0.0103,,1.5,0.3,"[3,1,2]",0.336765197,stimuli/card_100_transparent.png,100,13,0,13,0,1,,,,,,,,,,
,,,,,A,2024-07-11_01h31.23.289,Slot Machine Game,2023.1.3,Win32,142.8571429,,,,,,,,,,,,,,,,,,,,,,,,,,,1000,,,,,,,,,,,,,,,,,,,,,2,5,,,310.6685,14,up,0.3077,,1.5,0.3,"[3,1,2]",0.008511303,stimuli/card_0_transparent.png,0,14,0,14,0,1,,,,,,,,,,
,,,,,A,2024-07-11_01h31.23.289,Slot Machine Game,2023.1.3,Win32,142.8571429,,,,,,,,,,,,,,,,,,,,,,,,,,,,,,,,,,,313.28,,,,,,,,,,,,,,,,,,,,,,,,,,,,,,,,,"[260,1000]",1,0,1,0,1,,,,
,,,,,A,2024-07-11_01h31.23.289,Slot Machine Game,2023.1.3,Win32,142.8571429,,,,,,,,,,,,,,,,,,,,,,,,,,,0,,,,,,,,,,,,,,,,,,,,,3,9,"[8,15]","[[3,2,1],[3,1,2]]",318.2859,0,left,1.5025,,1.5,0.3,"[3,2,1]",0.496331673,stimuli/card_0_transparent.png,0,0,0,0,0,1,,,,,,,,,,
,,,,,A,2024-07-11_01h31.23.289,Slot Machine Game,2023.1.3,Win32,142.8571429,,,,,,,,,,,,,,,,,,,,,,,,,,,100,,,,,,,,,,,,,,,,,,,,,3,9,,,322.0941,1,right,0.3126,,1.5,0.3,"[3,2,1]",0.61962738,stimuli/card_100_transparent.png,100,1,0,1,0,1,,,,,,,,,,
,,,,,A,2024-07-11_01h31.23.289,Slot Machine Game,2023.1.3,Win32,142.8571429,,,,,,,,,,,,,,,,,,,,,,,,,,,200,,,,,,,,,,,,,,,,,,,,,3,9,,,324.7126,2,right,0.0174,,1,0.3,"[3,2,1]",0.743867429,stimuli/card_100_transparent.png,100,2,0,2,0,1,,,,,,,,,,
,,,,,A,2024-07-11_01h31.23.289,Slot Machine Game,2023.1.3,Win32,142.8571429,,,,,,,,,,,,,,,,,,,,,,,,,,,300,,,,,,,,,,,,,,,,,,,,,3,9,,,326.5323,3,right,0.285,,0.5,0.3,"[3,2,1]",0.673573285,stimuli/card_100_transparent.png,100,3,0,3,0,1,,,,,,,,,,
,,,,,A,2024-07-11_01h31.23.289,Slot Machine Game,2023.1.3,Win32,142.8571429,,,,,,,,,,,,,,,,,,,,,,,,,,,400,,,,,,,,,,,,,,,,,,,,,3,9,,,328.1229,4,right,0.1425,,1,0.3,"[3,2,1]",0.354086556,stimuli/card_100_transparent.png,100,4,0,4,0,1,,,,,,,,,,
,,,,,A,2024-07-11_01h31.23.289,Slot Machine Game,2023.1.3,Win32,142.8571429,,,,,,,,,,,,,,,,,,,,,,,,,,,410,,,,,,,,,,,,,,,,,,,,,3,9,,,330.0676,5,right,0.132,,1,0.3,"[3,2,1]",0.123604921,stimuli/card_10_transparent.png,10,5,0,5,0,1,,,,,,,,,,
,,,,,A,2024-07-11_01h31.23.289,Slot Machine Game,2023.1.3,Win32,142.8571429,,,,,,,,,,,,,,,,,,,,,,,,,,,510,,,,,,,,,,,,,,,,,,,,,3,9,,,332.0055,6,right,0.0765,,1,0.3,"[3,2,1]",0.893050503,stimuli/card_100_transparent.png,100,6,0,6,0,1,,,,,,,,,,
,,,,,A,2024-07-11_01h31.23.289,Slot Machine Game,2023.1.3,Win32,142.8571429,,,,,,,,,,,,,,,,,,,,,,,,,,,610,,,,,,,,,,,,,,,,,,,,,3,9,,,333.8878,7,right,0.3543,,1.5,0.3,"[3,2,1]",0.903337918,stimuli/card_100_transparent.png,100,7,0,7,0,1,,,,,,,,,,
,,,,,A,2024-07-11_01h31.23.289,Slot Machine Game,2023.1.3,Win32,142.8571429,,,,,,,,,,,,,,,,,,,,,,,,,,,620,,,,,,,,,,,,,,,,,,,,,3,9,,,336.548,8,right,0.0556,,1.5,0.3,"[3,1,2]",0.995234097,stimuli/card_10_transparent.png,10,8,0,8,0,1,,,,,,,,,,
,,,,,A,2024-07-11_01h31.23.289,Slot Machine Game,2023.1.3,Win32,142.8571429,,,,,,,,,,,,,,,,,,,,,,,,,,,720,,,,,,,,,,,,,,,,,,,,,3,9,,,338.9164,9,up,0.0139,,1.5,0.3,"[3,1,2]",0.729327402,stimuli/card_100_transparent.png,100,9,0,9,0,1,,,,,,,,,,
,,,,,A,2024-07-11_01h31.23.289,Slot Machine Game,2023.1.3,Win32,142.8571429,,,,,,,,,,,,,,,,,,,,,,,,,,,820,,,,,,,,,,,,,,,,,,,,,3,9,,,341.2363,10,up,0.1403,,0.5,0.3,"[3,1,2]",0.94753747,stimuli/card_100_transparent.png,100,10,0,10,0,1,,,,,,,,,,
,,,,,A,2024-07-11_01h31.23.289,Slot Machine Game,2023.1.3,Win32,142.8571429,,,,,,,,,,,,,,,,,,,,,,,,,,,920,,,,,,,,,,,,,,,,,,,,,3,9,,,342.681,11,up,0.0776,,1.5,0.3,"[3,1,2]",0.388590254,stimuli/card_100_transparent.png,100,11,0,11,0,1,,,,,,,,,,
,,,,,A,2024-07-11_01h31.23.289,Slot Machine Game,2023.1.3,Win32,142.8571429,,,,,,,,,,,,,,,,,,,,,,,,,,,1020,,,,,,,,,,,,,,,,,,,,,3,9,,,345.0703,12,up,0.0418,,1,0.3,"[3,1,2]",0.746966397,stimuli/card_100_transparent.png,100,12,0,12,0,1,,,,,,,,,,
,,,,,A,2024-07-11_01h31.23.289,Slot Machine Game,2023.1.3,Win32,142.8571429,,,,,,,,,,,,,,,,,,,,,,,,,,,1120,,,,,,,,,,,,,,,,,,,,,3,9,,,346.9247,13,up,0.2015,,0.5,0.3,"[3,1,2]",0.331102095,stimuli/card_100_transparent.png,100,13,0,13,0,1,,,,,,,,,,
,,,,,A,2024-07-11_01h31.23.289,Slot Machine Game,2023.1.3,Win32,142.8571429,,,,,,,,,,,,,,,,,,,,,,,,,,,1220,,,,,,,,,,,,,,,,,,,,,3,9,,,348.4319,14,up,0.1737,,1,0.3,"[3,1,2]",0.508308249,stimuli/card_100_transparent.png,100,14,0,14,0,1,,,,,,,,,,
,,,,,A,2024-07-11_01h31.23.289,Slot Machine Game,2023.1.3,Win32,142.8571429,,,,,,,,,,,,,,,,,,,,,,,,,,,,,,,,,,,350.4114,,,,,,,,,,,,,,,,,,,,,,,,,,,,,,,,,"[260,1000,1220]",2,0,2,0,1,,,,
,,,,,A,2024-07-11_01h31.23.289,Slot Machine Game,2023.1.3,Win32,142.8571429,,,,,,,,,,,,,,,,,,,,,,,,,,,100,,,,,,,,,,,,,,,,,,,,,4,1,"[12,15]","[[2,1,3],[2,3,1]]",355.4173,0,right,0.4053,,0.5,0.3,"[2,1,3]",0.081004111,stimuli/card_100_transparent.png,100,0,0,0,0,1,,,,,,,,,,
,,,,,A,2024-07-11_01h31.23.289,Slot Machine Game,2023.1.3,Win32,142.8571429,,,,,,,,,,,,,,,,,,,,,,,,,,,100,,,,,,,,,,,,,,,,,,,,,4,1,,,357.1279,1,right,0.0487,,1.5,0.3,"[2,1,3]",0.886505738,stimuli/card_0_transparent.png,0,1,0,1,0,1,,,,,,,,,,
,,,,,A,2024-07-11_01h31.23.289,Slot Machine Game,2023.1.3,Win32,142.8571429,,,,,,,,,,,,,,,,,,,,,,,,,,,100,,,,,,,,,,,,,,,,,,,,,4,1,,,359.4824,2,right,0.0041,,0.5,0.3,"[2,1,3]",0.22816441,stimuli/card_0_transparent.png,0,2,0,2,0,1,,,,,,,,,,
,,,,,A,2024-07-11_01h31.23.289,Slot Machine Game,2023.1.3,Win32,142.8571429,,,,,,,,,,,,,,,,,,,,,,,,,,,110,,,,,,,,,,,,,,,,,,,,,4,1,,,360.7882,3,left,0.2241,,1,0.3,"[2,1,3]",0.463176737,stimuli/card_10_transparent.png,10,3,0,3,0,1,,,,,,,,,,
,,,,,A,2024-07-11_01h31.23.289,Slot Machine Game,2023.1.3,Win32,142.8571429,,,,,,,,,,,,,,,,,,,,,,,,,,,210,,,,,,,,,,,,,,,,,,,,,4,1,,,362.8163,4,up,0.4325,,1.5,0.3,"[2,1,3]",0.621823355,stimuli/card_100_transparent.png,100,4,0,4,0,1,,,,,,,,,,
,,,,,A,2024-07-11_01h31.23.289,Slot Machine Game,2023.1.3,Win32,142.8571429,,,,,,,,,,,,,,,,,,,,,,,,,,,310,,,,,,,,,,,,,,,,,,,,,4,1,,,365.553,5,up,0.1124,,0.5,0.3,"[2,1,3]",0.37665543,stimuli/card_100_transparent.png,100,5,0,5,0,1,,,,,,,,,,
,,,,,A,2024-07-11_01h31.23.289,Slot Machine Game,2023.1.3,Win32,142.8571429,,,,,,,,,,,,,,,,,,,,,,,,,,,410,,,,,,,,,,,,,,,,,,,,,4,1,,,366.9768,6,up,0.1252,,1,0.3,"[2,1,3]",0.720708676,stimuli/card_100_transparent.png,100,6,0,6,0,1,,,,,,,,,,
,,,,,A,2024-07-11_01h31.23.289,Slot Machine Game,2023.1.3,Win32,142.8571429,,,,,,,,,,,,,,,,,,,,,,,,,,,420,,,,,,,,,,,,,,,,,,,,,4,1,,,368.9077,7,up,0.0554,,1,0.3,"[2,1,3]",0.128583074,stimuli/card_10_transparent.png,10,7,0,7,0,1,,,,,,,,,,
,,,,,A,2024-07-11_01h31.23.289,Slot Machine Game,2023.1.3,Win32,142.8571429,,,,,,,,,,,,,,,,,,,,,,,,,,,520,,,,,,,,,,,,,,,,,,,,,4,1,,,370.7691,8,up,0.0052,,1,0.3,"[2,1,3]",0.541649716,stimuli/card_100_transparent.png,100,8,0,8,0,1,,,,,,,,,,
,,,,,A,2024-07-11_01h31.23.289,Slot Machine Game,2023.1.3,Win32,142.8571429,,,,,,,,,,,,,,,,,,,,,,,,,,,530,,,,,,,,,,,,,,,,,,,,,4,1,,,372.575,9,up,0.021,,1,0.3,"[2,1,3]",0.14423931,stimuli/card_10_transparent.png,10,9,0,9,0,1,,,,,,,,,,
,,,,,A,2024-07-11_01h31.23.289,Slot Machine Game,2023.1.3,Win32,142.8571429,,,,,,,,,,,,,,,,,,,,,,,,,,,530,,,,,,,,,,,,,,,,,,,,,4,1,,,374.4017,10,right,0.3431,,1,0.3,"[2,1,3]",0.582622675,stimuli/card_0_transparent.png,0,10,0,10,0,1,,,,,,,,,,
,,,,,A,2024-07-11_01h31.23.289,Slot Machine Game,2023.1.3,Win32,142.8571429,,,,,,,,,,,,,,,,,,,,,,,,,,,540,,,,,,,,,,,,,,,,,,,,,4,1,,,376.5478,11,left,0.0872,,1.5,0.3,"[2,1,3]",0.20465284,stimuli/card_10_transparent.png,10,11,0,11,0,1,,,,,,,,,,
,,,,,A,2024-07-11_01h31.23.289,Slot Machine Game,2023.1.3,Win32,142.8571429,,,,,,,,,,,,,,,,,,,,,,,,,,,550,,,,,,,,,,,,,,,,,,,,,4,1,,,378.9372,12,left,0.6412,,1,0.3,"[2,3,1]",0.386783334,stimuli/card_10_transparent.png,10,12,0,12,0,1,,,,,,,,,,
,,,,,A,2024-07-11_01h31.23.289,Slot Machine Game,2023.1.3,Win32,142.8571429,,,,,,,,,,,,,,,,,,,,,,,,,,,650,,,,,,,,,,,,,,,,,,,,,4,1,,,381.3821,13,right,0.0973,,1.5,0.3,"[2,3,1]",0.687018044,stimuli/card_100_transparent.png,100,13,0,13,0,1,,,,,,,,,,
,,,,,A,2024-07-11_01h31.23.289,Slot Machine Game,2023.1.3,Win32,142.8571429,,,,,,,,,,,,,,,,,,,,,,,,,,,650,,,,,,,,,,,,,,,,,,,,,4,1,,,383.7852,14,right,0.0928,,1.5,0.3,"[2,3,1]",0.068869636,stimuli/card_0_transparent.png,0,14,0,14,0,1,,,,,,,,,,
,,,,,A,2024-07-11_01h31.23.289,Slot Machine Game,2023.1.3,Win32,142.8571429,,,,,,,,,,,,,,,,,,,,,,,,,,,,,,,,,,,386.1815,,,,,,,,,,,,,,,,,,,,,,,,,,,,,,,,,"[260,1000,1220,650]",3,0,3,0,1,,,,
,,,,,A,2024-07-11_01h31.23.289,Slot Machine Game,2023.1.3,Win32,142.8571429,,,,,,,,,,,,,,,,,,,,,,,,,,,0,,,,,,,,,,,,,,,,,,,,,5,2,"[6,15]","[[1,3,2],[3,2,1]]",391.1874,0,up,0.4945,,1.5,0.3,"[1,3,2]",0.290264797,stimuli/card_0_transparent.png,0,0,0,0,0,1,,,,,,,,,,
,,,,,A,2024-07-11_01h31.23.289,Slot Machine Game,2023.1.3,Win32,142.8571429,,,,,,,,,,,,,,,,,,,,,,,,,,,0,,,,,,,,,,,,,,,,,,,,,5,2,,,393.9884,1,right,0.3021,,1,0.3,"[1,3,2]",0.000664211,stimuli/card_0_transparent.png,0,1,0,1,0,1,,,,,,,,,,
,,,,,A,2024-07-11_01h31.23.289,Slot Machine Game,2023.1.3,Win32,142.8571429,,,,,,,,,,,,,,,,,,,,,,,,,,,100,,,,,,,,,,,,,,,,,,,,,5,2,,,396.093,2,left,0.4119,,0.5,0.3,"[1,3,2]",0.902849792,stimuli/card_100_transparent.png,100,2,0,2,0,1,,,,,,,,,,
,,,,,A,2024-07-11_01h31.23.289,Slot Machine Game,2023.1.3,Win32,142.8571429,,,,,,,,,,,,,,,,,,,,,,,,,,,200,,,,,,,,,,,,,,,,,,,,,5,2,,,397.8085,3,left,0.0021,,0.5,0.3,"[1,3,2]",0.252902334,stimuli/card_100_transparent.png,100,3,0,3,0,1,,,,,,,,,,
,,,,,A,2024-07-11_01h31.23.289,Slot Machine Game,2023.1.3,Win32,142.8571429,,,,,,,,,,,,,,,,,,,,,,,,,,,300,,,,,,,,,,,,,,,,,,,,,5,2,,,399.1143,4,left,0.0031,,1,0.3,"[1,3,2]",0.867197527,stimuli/card_100_transparent.png,100,4,0,4,0,1,,,,,,,,,,
,,,,,A,2024-07-11_01h31.23.289,Slot Machine Game,2023.1.3,Win32,142.8571429,,,,,,,,,,,,,,,,,,,,,,,,,,,400,,,,,,,,,,,,,,,,,,,,,5,2,,,400.9202,5,left,0.4248,,0.5,0.3,"[1,3,2]",0.349818437,stimuli/card_100_transparent.png,100,5,0,5,0,1,,,,,,,,,,
,,,,,A,2024-07-11_01h31.23.289,Slot Machine Game,2023.1.3,Win32,142.8571429,,,,,,,,,,,,,,,,,,,,,,,,,,,400,,,,,,,,,,,,,,,,,,,,,5,2,,,402.6496,6,left,0.064,,1.5,0.3,"[3,2,1]",0.36956892,stimuli/card_0_transparent.png,0,6,0,6,0,1,,,,,,,,,,
,,,,,A,2024-07-11_01h31.23.289,Slot Machine Game,2023.1.3,Win32,142.8571429,,,,,,,,,,,,,,,,,,,,,,,,,,,400,,,,,,,,,,,,,,,,,,,,,5,2,,,405.018,7,left,1.1692,,1.5,0.3,"[3,2,1]",0.474698419,stimuli/card_0_transparent.png,0,7,0,7,0,1,,,,,,,,,,
,,,,,A,2024-07-11_01h31.23.289,Slot Machine Game,2023.1.3,Win32,142.8571429,,,,,,,,,,,,,,,,,,,,,,,,,,,410,,,,,,,,,,,,,,,,,,,,,5,2,,,408.4909,8,up,0.3088,,1,0.3,"[3,2,1]",0.566472831,stimuli/card_10_transparent.png,10,8,0,8,0,1,,,,,,,,,,
,,,,,A,2024-07-11_01h31.23.289,Slot Machine Game,2023.1.3,Win32,142.8571429,,,,,,,,,,,,,,,,,,,,,,,,,,,410,,,,,,,,,,,,,,,,,,,,,5,2,,,410.6024,9,right,0.0159,,1.5,0.3,"[3,2,1]",0.024054907,stimuli/card_0_transparent.png,0,9,0,9,0,1,,,,,,,,,,
,,,,,A,2024-07-11_01h31.23.289,Slot Machine Game,2023.1.3,Win32,142.8571429,,,,,,,,,,,,,,,,,,,,,,,,,,,420,,,,,,,,,,,,,,,,,,,,,5,2,,,412.9222,10,up,0.1473,,1.5,0.3,"[3,2,1]",0.820104411,stimuli/card_10_transparent.png,10,10,0,10,0,1,,,,,,,,,,
,,,,,A,2024-07-11_01h31.23.289,Slot Machine Game,2023.1.3,Win32,142.8571429,,,,,,,,,,,,,,,,,,,,,,,,,,,520,,,,,,,,,,,,,,,,,,,,,5,2,,,415.374,11,right,0.0232,,0.5,0.3,"[3,2,1]",0.749431997,stimuli/card_100_transparent.png,100,11,0,11,0,1,,,,,,,,,,
,,,,,A,2024-07-11_01h31.23.289,Slot Machine Game,2023.1.3,Win32,142.8571429,,,,,,,,,,,,,,,,,,,,,,,,,,,620,,,,,,,,,,,,,,,,,,,,,5,2,,,416.7007,12,right,0.1064,,0.5,0.3,"[3,2,1]",0.259338935,stimuli/card_100_transparent.png,100,12,0,12,0,1,,,,,,,,,,
,,,,,A,2024-07-11_01h31.23.289,Slot Machine Game,2023.1.3,Win32,142.8571429,,,,,,,,,,,,,,,,,,,,,,,,,,,630,,,,,,,,,,,,,,,,,,,,,5,2,,,418.1106,13,right,0.1688,,1.5,0.3,"[3,2,1]",0.185841662,stimuli/card_10_transparent.png,10,13,0,13,0,1,,,,,,,,,,
,,,,,A,2024-07-11_01h31.23.289,Slot Machine Game,2023.1.3,Win32,142.8571429,,,,,,,,,,,,,,,,,,,,,,,,,,,640,,,,,,,,,,,,,,,,,,,,,5,2,,,420.5832,14,right,0.2295,,0.5,0.3,"[3,2,1]",0.153138645,stimuli/card_10_transparent.png,10,14,0,14,0,1,,,,,,,,,,
,,,,,A,2024-07-11_01h31.23.289,Slot Machine Game,2023.1.3,Win32,142.8571429,,,,,,,,,,,,,,,,,,,,,,,,,,,,,,,,,,,422.1183,,,,,,,,,,,,,,,,,,,,,,,,,,,,,,,,,"[260,1000,1220,650,640]",4,0,4,0,1,,,,
,,,,,A,2024-07-11_01h31.23.289,Slot Machine Game,2023.1.3,Win32,142.8571429,,,,,,,,,,,,,,,,,,,,,,,,,,,100,,,,,,,,,,,,,,,,,,,,,6,4,"[7,15]","[[2,3,1],[1,2,3]]",427.1241,0,right,0.4592,,1.5,0.3,"[2,3,1]",0.290610265,stimuli/card_100_transparent.png,100,0,0,0,0,1,,,,,,,,,,
,,,,,A,2024-07-11_01h31.23.289,Slot Machine Game,2023.1.3,Win32,142.8571429,,,,,,,,,,,,,,,,,,,,,,,,,,,200,,,,,,,,,,,,,,,,,,,,,6,4,,,429.8904,1,right,0.1277,,0.5,0.3,"[2,3,1]",0.339917818,stimuli/card_100_transparent.png,100,1,0,1,0,1,,,,,,,,,,
,,,,,A,2024-07-11_01h31.23.289,Slot Machine Game,2023.1.3,Win32,142.8571429,,,,,,,,,,,,,,,,,,,,,,,,,,,300,,,,,,,,,,,,,,,,,,,,,6,4,,,431.3212,2,right,0.0348,,0.5,0.3,"[2,3,1]",0.953221744,stimuli/card_100_transparent.png,100,2,0,2,0,1,,,,,,,,,,
,,,,,A,2024-07-11_01h31.23.289,Slot Machine Game,2023.1.3,Win32,142.8571429,,,,,,,,,,,,,,,,,,,,,,,,,,,400,,,,,,,,,,,,,,,,,,,,,6,4,,,432.6617,3,right,0.0214,,0.5,0.3,"[2,3,1]",0.311083386,stimuli/card_100_transparent.png,100,3,0,3,0,1,,,,,,,,,,
,,,,,A,2024-07-11_01h31.23.289,Slot Machine Game,2023.1.3,Win32,142.8571429,,,,,,,,,,,,,,,,,,,,,,,,,,,500,,,,,,,,,,,,,,,,,,,,,6,4,,,433.9884,4,right,0.5836,,0.5,0.3,"[2,3,1]",0.533994298,stimuli/card_100_transparent.png,100,4,0,4,0,1,,,,,,,,,,
,,,,,A,2024-07-11_01h31.23.289,Slot Machine Game,2023.1.3,Win32,142.8571429,,,,,,,,,,,,,,,,,,,,,,,,,,,600,,,,,,,,,,,,,,,,,,,,,6,4,,,435.8776,5,right,1.0018,,1,0.3,"[2,3,1]",0.226679102,stimuli/card_100_transparent.png,100,5,0,5,0,1,,,,,,,,,,
,,,,,A,2024-07-11_01h31.23.289,Slot Machine Game,2023.1.3,Win32,142.8571429,,,,,,,,,,,,,,,,,,,,,,,,,,,700,,,,,,,,,,,,,,,,,,,,,6,4,,,438.6836,6,right,0.5143,,1.5,0.3,"[2,3,1]",0.621323862,stimuli/card_100_transparent.png,100,6,0,6,0,1,,,,,,,,,,
,,,,,A,2024-07-11_01h31.23.289,Slot Machine Game,2023.1.3,Win32,142.8571429,,,,,,,,,,,,,,,,,,,,,,,,,,,700,,,,,,,,,,,,,,,,,,,,,6,4,,,441.5036,7,right,0.5937,,1.5,0.3,"[1,2,3]",0.372637873,stimuli/card_0_transparent.png,0,7,0,7,0,1,,,,,,,,,,
,,,,,A,2024-07-11_01h31.23.289,Slot Machine Game,2023.1.3,Win32,142.8571429,,,,,,,,,,,,,,,,,,,,,,,,,,,710,,,,,,,,,,,,,,,,,,,,,6,4,,,444.3998,8,up,0.1842,,1.5,0.3,"[1,2,3]",0.772044317,stimuli/card_10_transparent.png,10,8,0,8,0,1,,,,,,,,,,
,,,,,A,2024-07-11_01h31.23.289,Slot Machine Game,2023.1.3,Win32,142.8571429,,,,,,,,,,,,,,,,,,,,,,,,,,,810,,,,,,,,,,,,,,,,,,,,,6,4,,,446.8864,9,left,0.056,,1.5,0.3,"[1,2,3]",0.83584507,stimuli/card_100_transparent.png,100,9,0,9,0,1,,,,,,,,,,
,,,,,A,2024-07-11_01h31.23.289,Slot Machine Game,2023.1.3,Win32,142.8571429,,,,,,,,,,,,,,,,,,,,,,,,,,,820,,,,,,,,,,,,,,,,,,,,,6,4,,,449.2479,10,left,0.148,,1,0.3,"[1,2,3]",0.144904436,stimuli/card_10_transparent.png,10,10,0,10,0,1,,,,,,,,,,
,,,,,A,2024-07-11_01h31.23.289,Slot Machine Game,2023.1.3,Win32,142.8571429,,,,,,,,,,,,,,,,,,,,,,,,,,,830,,,,,,,,,,,,,,,,,,,,,6,4,,,451.1996,11,left,0.634,,1,0.3,"[1,2,3]",0.123114789,stimuli/card_10_transparent.png,10,11,0,11,0,1,,,,,,,,,,
,,,,,A,2024-07-11_01h31.23.289,Slot Machine Game,2023.1.3,Win32,142.8571429,,,,,,,,,,,,,,,,,,,,,,,,,,,830,,,,,,,,,,,,,,,,,,,,,6,4,,,453.6376,12,left,0.1903,,1.5,0.3,"[1,2,3]",0.091029266,stimuli/card_0_transparent.png,0,12,0,12,0,1,,,,,,,,,,
,,,,,A,2024-07-11_01h31.23.289,Slot Machine Game,2023.1.3,Win32,142.8571429,,,,,,,,,,,,,,,,,,,,,,,,,,,840,,,,,,,,,,,,,,,,,,,,,6,4,,,456.1311,13,up,0.393,,0.5,0.3,"[1,2,3]",0.932209954,stimuli/card_10_transparent.png,10,13,0,13,0,1,,,,,,,,,,
,,,,,A,2024-07-11_01h31.23.289,Slot Machine Game,2023.1.3,Win32,142.8571429,,,,,,,,,,,,,,,,,,,,,,,,,,,940,,,,,,,,,,,,,,,,,,,,,6,4,,,457.8258,14,left,0.0139,,1,0.3,"[1,2,3]",0.704204681,stimuli/card_100_transparent.png,100,14,0,14,0,1,,,,,,,,,,
,,,,,A,2024-07-11_01h31.23.289,Slot Machine Game,2023.1.3,Win32,142.8571429,,,,,,,,,,,,,,,,,,,,,,,,,,,,,,,,,,,459.6456,,,,,,,,,,,,,,,,,,,,,,,,,,,,,,,,,"[260,1000,1220,650,640,940]",5,0,5,0,1,,,,
,,,,,A,2024-07-11_01h31.23.289,Slot Machine Game,2023.1.3,Win32,142.8571429,,,,,,,,,,,,,,,,,,,,,,,,,,,100,,,,,,,,,,,,,,,,,,,,,7,10,"[10,15]","[[3,1,2],[1,3,2]]",464.6515,0,up,0.0973,,1.5,0.3,"[3,1,2]",0.45339471,stimuli/card_100_transparent.png,100,0,0,0,0,1,,,,,,,,,,
,,,,,A,2024-07-11_01h31.23.289,Slot Machine Game,2023.1.3,Win32,142.8571429,,,,,,,,,,,,,,,,,,,,,,,,,,,200,,,,,,,,,,,,,,,,,,,,,7,10,,,467.0566,1,up,0.1877,,1.5,0.3,"[3,1,2]",0.74068433,stimuli/card_100_transparent.png,100,1,0,1,0,1,,,,,,,,,,
,,,,,A,2024-07-11_01h31.23.289,Slot Machine Game,2023.1.3,Win32,142.8571429,,,,,,,,,,,,,,,,,,,,,,,,,,,300,,,,,,,,,,,,,,,,,,,,,7,10,,,469.55,2,up,0.3683,,1,0.3,"[3,1,2]",0.578079074,stimuli/card_100_transparent.png,100,2,0,2,0,1,,,,,,,,,,
,,,,,A,2024-07-11_01h31.23.289,Slot Machine Game,2023.1.3,Win32,142.8571429,,,,,,,,,,,,,,,,,,,,,,,,,,,400,,,,,,,,,,,,,,,,,,,,,7,10,,,471.724,3,up,0.0348,,1,0.3,"[3,1,2]",0.55594258,stimuli/card_100_transparent.png,100,3,0,3,0,1,,,,,,,,,,
,,,,,A,2024-07-11_01h31.23.289,Slot Machine Game,2023.1.3,Win32,142.8571429,,,,,,,,,,,,,,,,,,,,,,,,,,,500,,,,,,,,,,,,,,,,,,,,,7,10,,,473.5647,4,up,0.0243,,1,0.3,"[3,1,2]",0.559966611,stimuli/card_100_transparent.png,100,4,0,4,0,1,,,,,,,,,,
,,,,,A,2024-07-11_01h31.23.289,Slot Machine Game,2023.1.3,Win32,142.8571429,,,,,,,,,,,,,,,,,,,,,,,,,,,500,,,,,,,,,,,,,,,,,,,,,7,10,,,475.3982,5,up,0.1599,,0.5,0.3,"[3,1,2]",0.059046943,stimuli/card_0_transparent.png,0,5,0,5,0,1,,,,,,,,,,
,,,,,A,2024-07-11_01h31.23.289,Slot Machine Game,2023.1.3,Win32,142.8571429,,,,,,,,,,,,,,,,,,,,,,,,,,,600,,,,,,,,,,,,,,,,,,,,,7,10,,,476.8639,6,up,0.014,,1,0.3,"[3,1,2]",0.612810159,stimuli/card_100_transparent.png,100,6,0,6,0,1,,,,,,,,,,
,,,,,A,2024-07-11_01h31.23.289,Slot Machine Game,2023.1.3,Win32,142.8571429,,,,,,,,,,,,,,,,,,,,,,,,,,,700,,,,,,,,,,,,,,,,,,,,,7,10,,,478.6836,7,up,0.3543,,1,0.3,"[3,1,2]",0.769366172,stimuli/card_100_transparent.png,100,7,0,7,0,1,,,,,,,,,,
,,,,,A,2024-07-11_01h31.23.289,Slot Machine Game,2023.1.3,Win32,142.8571429,,,,,,,,,,,,,,,,,,,,,,,,,,,800,,,,,,,,,,,,,,,,,,,,,7,10,,,480.8437,8,up,0.1957,,1.5,0.3,"[3,1,2]",0.70977959,stimuli/card_100_transparent.png,100,8,0,8,0,1,,,,,,,,,,
,,,,,A,2024-07-11_01h31.23.289,Slot Machine Game,2023.1.3,Win32,142.8571429,,,,,,,,,,,,,,,,,,,,,,,,,,,810,,,,,,,,,,,,,,,,,,,,,7,10,,,483.3441,9,right,0.1181,,1.5,0.3,"[3,1,2]",0.879209715,stimuli/card_10_transparent.png,10,9,0,9,0,1,,,,,,,,,,
,,,,,A,2024-07-11_01h31.23.289,Slot Machine Game,2023.1.3,Win32,142.8571429,,,,,,,,,,,,,,,,,,,,,,,,,,,820,,,,,,,,,,,,,,,,,,,,,7,10,,,485.7681,10,left,0.1833,,0.5,0.3,"[1,3,2]",0.113260835,stimuli/card_10_transparent.png,10,10,0,10,0,1,,,,,,,,,,
,,,,,A,2024-07-11_01h31.23.289,Slot Machine Game,2023.1.3,Win32,142.8571429,,,,,,,,,,,,,,,,,,,,,,,,,,,820,,,,,,,,,,,,,,,,,,,,,7,10,,,487.2545,11,left,0.0225,,0.5,0.3,"[1,3,2]",0.052024152,stimuli/card_0_transparent.png,0,11,0,11,0,1,,,,,,,,,,
,,,,,A,2024-07-11_01h31.23.289,Slot Machine Game,2023.1.3,Win32,142.8571429,,,,,,,,,,,,,,,,,,,,,,,,,,,820,,,,,,,,,,,,,,,,,,,,,7,10,,,488.5811,12,up,0.0059,,0.5,0.3,"[1,3,2]",0.537185382,stimuli/card_0_transparent.png,0,12,0,12,0,1,,,,,,,,,,
,,,,,A,2024-07-11_01h31.23.289,Slot Machine Game,2023.1.3,Win32,142.8571429,,,,,,,,,,,,,,,,,,,,,,,,,,,830,,,,,,,,,,,,,,,,,,,,,7,10,,,489.8939,13,right,0.0209,,1.5,0.3,"[1,3,2]",0.777382611,stimuli/card_10_transparent.png,10,13,0,13,0,1,,,,,,,,,,
,,,,,A,2024-07-11_01h31.23.289,Slot Machine Game,2023.1.3,Win32,142.8571429,,,,,,,,,,,,,,,,,,,,,,,,,,,840,,,,,,,,,,,,,,,,,,,,,7,10,,,492.2207,14,right,0.2849,,1.5,0.3,"[1,3,2]",0.676288787,stimuli/card_10_transparent.png,10,14,0,14,0,1,,,,,,,,,,
,,,,,A,2024-07-11_01h31.23.289,Slot Machine Game,2023.1.3,Win32,142.8571429,,,,,,,,,,,,,,,,,,,,,,,,,,,,,,,,,,,494.8183,,,,,,,,,,,,,,,,,,,,,,,,,,,,,,,,,"[260,1000,1220,650,640,940,840]",6,0,6,0,1,,,,
,,,,,A,2024-07-11_01h31.23.289,Slot Machine Game,2023.1.3,Win32,142.8571429,,,,,,,,,,,,,,,,,,,,,,,,,,,10,,,,,,,,,,,,,,,,,,,,,8,7,"[9,15]","[[1,3,2],[2,3,1]]",499.824,0,right,0.2433,,0.5,0.3,"[1,3,2]",0.7508605,stimuli/card_10_transparent.png,10,0,0,0,0,1,,,,,,,,,,
,,,,,A,2024-07-11_01h31.23.289,Slot Machine Game,2023.1.3,Win32,142.8571429,,,,,,,,,,,,,,,,,,,,,,,,,,,110,,,,,,,,,,,,,,,,,,,,,8,7,,,501.375,1,left,0.2896,,1.5,0.3,"[1,3,2]",0.663652124,stimuli/card_100_transparent.png,100,1,0,1,0,1,,,,,,,,,,
,,,,,A,2024-07-11_01h31.23.289,Slot Machine Game,2023.1.3,Win32,142.8571429,,,,,,,,,,,,,,,,,,,,,,,,,,,210,,,,,,,,,,,,,,,,,,,,,8,7,,,503.9657,2,left,0.0226,,1,0.3,"[1,3,2]",0.510465199,stimuli/card_100_transparent.png,100,2,0,2,0,1,,,,,,,,,,
,,,,,A,2024-07-11_01h31.23.289,Slot Machine Game,2023.1.3,Win32,142.8571429,,,,,,,,,,,,,,,,,,,,,,,,,,,310,,,,,,,,,,,,,,,,,,,,,8,7,,,505.7924,3,left,0.0071,,1.5,0.3,"[1,3,2]",0.440216559,stimuli/card_100_transparent.png,100,3,0,3,0,1,,,,,,,,,,
,,,,,A,2024-07-11_01h31.23.289,Slot Machine Game,2023.1.3,Win32,142.8571429,,,,,,,,,,,,,,,,,,,,,,,,,,,410,,,,,,,,,,,,,,,,,,,,,8,7,,,508.1053,4,left,0.0161,,1.5,0.3,"[1,3,2]",0.702366619,stimuli/card_100_transparent.png,100,4,0,4,0,1,,,,,,,,,,
,,,,,A,2024-07-11_01h31.23.289,Slot Machine Game,2023.1.3,Win32,142.8571429,,,,,,,,,,,,,,,,,,,,,,,,,,,510,,,,,,,,,,,,,,,,,,,,,8,7,,,510.4252,5,left,0.2709,,1,0.3,"[1,3,2]",0.768831001,stimuli/card_100_transparent.png,100,5,0,5,0,1,,,,,,,,,,
,,,,,A,2024-07-11_01h31.23.289,Slot Machine Game,2023.1.3,Win32,142.8571429,,,,,,,,,,,,,,,,,,,,,,,,,,,610,,,,,,,,,,,,,,,,,,,,,8,7,,,512.502,6,left,0.0071,,0.5,0.3,"[1,3,2]",0.587121069,stimuli/card_100_transparent.png,100,6,0,6,0,1,,,,,,,,,,
,,,,,A,2024-07-11_01h31.23.289,Slot Machine Game,2023.1.3,Win32,142.8571429,,,,,,,,,,,,,,,,,,,,,,,,,,,610,,,,,,,,,,,,,,,,,,,,,8,7,,,513.8216,7,left,0.0864,,0.5,0.3,"[1,3,2]",0.054635828,stimuli/card_0_transparent.png,0,7,0,7,0,1,,,,,,,,,,
,,,,,A,2024-07-11_01h31.23.289,Slot Machine Game,2023.1.3,Win32,142.8571429,,,,,,,,,,,,,,,,,,,,,,,,,,,710,,,,,,,,,,,,,,,,,,,,,8,7,,,515.2107,8,left,0.139,,0.5,0.3,"[1,3,2]",0.76119191,stimuli/card_100_transparent.png,100,8,0,8,0,1,,,,,,,,,,
,,,,,A,2024-07-11_01h31.23.289,Slot Machine Game,2023.1.3,Win32,142.8571429,,,,,,,,,,,,,,,,,,,,,,,,,,,720,,,,,,,,,,,,,,,,,,,,,8,7,,,516.6554,9,left,0.0556,,1.5,0.3,"[2,3,1]",0.411867619,stimuli/card_10_transparent.png,10,9,0,9,0,1,,,,,,,,,,
,,,,,A,2024-07-11_01h31.23.289,Slot Machine Game,2023.1.3,Win32,142.8571429,,,,,,,,,,,,,,,,,,,,,,,,,,,720,,,,,,,,,,,,,,,,,,,,,8,7,,,519.0169,10,up,0.3142,,1,0.3,"[2,3,1]",0.476432016,stimuli/card_0_transparent.png,0,10,0,10,0,1,,,,,,,,,,
,,,,,A,2024-07-11_01h31.23.289,Slot Machine Game,2023.1.3,Win32,142.8571429,,,,,,,,,,,,,,,,,,,,,,,,,,,820,,,,,,,,,,,,,,,,,,,,,8,7,,,521.1354,11,right,0.0488,,1.5,0.3,"[2,3,1]",0.397988787,stimuli/card_100_transparent.png,100,11,0,11,0,1,,,,,,,,,,
,,,,,A,2024-07-11_01h31.23.289,Slot Machine Game,2023.1.3,Win32,142.8571429,,,,,,,,,,,,,,,,,,,,,,,,,,,820,,,,,,,,,,,,,,,,,,,,,8,7,,,523.4968,12,right,0.0565,,1.5,0.3,"[2,3,1]",0.066304547,stimuli/card_0_transparent.png,0,12,0,12,0,1,,,,,,,,,,
,,,,,A,2024-07-11_01h31.23.289,Slot Machine Game,2023.1.3,Win32,142.8571429,,,,,,,,,,,,,,,,,,,,,,,,,,,920,,,,,,,,,,,,,,,,,,,,,8,7,,,525.8583,13,right,0.4766,,1,0.3,"[2,3,1]",0.961950215,stimuli/card_100_transparent.png,100,13,0,13,0,1,,,,,,,,,,
,,,,,A,2024-07-11_01h31.23.289,Slot Machine Game,2023.1.3,Win32,142.8571429,,,,,,,,,,,,,,,,,,,,,,,,,,,930,,,,,,,,,,,,,,,,,,,,,8,7,,,528.1365,14,right,0.0212,,1,0.3,"[2,3,1]",0.131124444,stimuli/card_10_transparent.png,10,14,0,14,0,1,,,,,,,,,,
,,,,,A,2024-07-11_01h31.23.289,Slot Machine Game,2023.1.3,Win32,142.8571429,,,,,,,,,,,,,,,,,,,,,,,,,,,,,,,,,,,529.9633,,,,,,,,,,,,,,,,,,,,,,,,,,,,,,,,,"[260,1000,1220,650,640,940,840,930]",7,0,7,0,1,,,,
,,,,,A,2024-07-11_01h31.23.289,Slot Machine Game,2023.1.3,Win32,142.8571429,,,,,,,,,,,,,,,,,,,,,,,,,,,10,,,,,,,,,,,,,,,,,,,,,9,9,[15],"[[3,1,2]]",534.9691,0,up,0.6667,,1.5,0.3,"[3,1,2]",0.197261451,stimuli/card_10_transparent.png,10,0,0,0,0,1,,,,,,,,,,
,,,,,A,2024-07-11_01h31.23.289,Slot Machine Game,2023.1.3,Win32,142.8571429,,,,,,,,,,,,,,,,,,,,,,,,,,,10,,,,,,,,,,,,,,,,,,,,,9,9,,,537.9439,1,left,0.1412,,1.5,0.3,"[3,1,2]",0.229529695,stimuli/card_0_transparent.png,0,1,0,1,0,1,,,,,,,,,,
,,,,,A,2024-07-11_01h31.23.289,Slot Machine Game,2023.1.3,Win32,142.8571429,,,,,,,,,,,,,,,,,,,,,,,,,,,20,,,,,,,,,,,,,,,,,,,,,9,9,,,540.3956,2,right,0.1477,,1.5,0.3,"[3,1,2]",0.2701722,stimuli/card_10_transparent.png,10,2,0,2,0,1,,,,,,,,,,
,,,,,A,2024-07-11_01h31.23.289,Slot Machine Game,2023.1.3,Win32,142.8571429,,,,,,,,,,,,,,,,,,,,,,,,,,,20,,,,,,,,,,,,,,,,,,,,,9,9,,,542.8474,3,up,0.0773,,1,0.3,"[3,1,2]",0.038532007,stimuli/card_0_transparent.png,0,3,0,3,0,1,,,,,,,,,,
,,,,,A,2024-07-11_01h31.23.289,Slot Machine Game,2023.1.3,Win32,142.8571429,,,,,,,,,,,,,,,,,,,,,,,,,,,120,,,,,,,,,,,,,,,,,,,,,9,9,,,544.7297,4,up,0.4099,,1,0.3,"[3,1,2]",0.250817875,stimuli/card_100_transparent.png,100,4,0,4,0,1,,,,,,,,,,
,,,,,A,2024-07-11_01h31.23.289,Slot Machine Game,2023.1.3,Win32,142.8571429,,,,,,,,,,,,,,,,,,,,,,,,,,,220,,,,,,,,,,,,,,,,,,,,,9,9,,,546.9453,5,up,0.0921,,1,0.3,"[3,1,2]",0.232509367,stimuli/card_100_transparent.png,100,5,0,5,0,1,,,,,,,,,,
,,,,,A,2024-07-11_01h31.23.289,Slot Machine Game,2023.1.3,Win32,142.8571429,,,,,,,,,,,,,,,,,,,,,,,,,,,320,,,,,,,,,,,,,,,,,,,,,9,9,,,548.8415,6,up,0.8127,,0.5,0.3,"[3,1,2]",0.391616972,stimuli/card_100_transparent.png,100,6,0,6,0,1,,,,,,,,,,
,,,,,A,2024-07-11_01h31.23.289,Slot Machine Game,2023.1.3,Win32,142.8571429,,,,,,,,,,,,,,,,,,,,,,,,,,,420,,,,,,,,,,,,,,,,,,,,,9,9,,,550.9599,7,up,0.1737,,1,0.3,"[3,1,2]",0.669998717,stimuli/card_100_transparent.png,100,7,0,7,0,1,,,,,,,,,,
,,,,,A,2024-07-11_01h31.23.289,Slot Machine Game,2023.1.3,Win32,142.8571429,,,,,,,,,,,,,,,,,,,,,,,,,,,520,,,,,,,,,,,,,,,,,,,,,9,9,,,552.9395,8,up,0.0417,,1.5,0.3,"[3,1,2]",0.835813138,stimuli/card_100_transparent.png,100,8,0,8,0,1,,,,,,,,,,
,,,,,A,2024-07-11_01h31.23.289,Slot Machine Game,2023.1.3,Win32,142.8571429,,,,,,,,,,,,,,,,,,,,,,,,,,,530,,,,,,,,,,,,,,,,,,,,,9,9,,,555.294,9,up,0.0075,,1.5,0.3,"[3,1,2]",0.135786441,stimuli/card_10_transparent.png,10,9,0,9,0,1,,,,,,,,,,
,,,,,A,2024-07-11_01h31.23.289,Slot Machine Game,2023.1.3,Win32,142.8571429,,,,,,,,,,,,,,,,,,,,,,,,,,,630,,,,,,,,,,,,,,,,,,,,,9,9,,,557.6069,10,up,0.0765,,1.5,0.3,"[3,1,2]",0.929297814,stimuli/card_100_transparent.png,100,10,0,10,0,1,,,,,,,,,,
,,,,,A,2024-07-11_01h31.23.289,Slot Machine Game,2023.1.3,Win32,142.8571429,,,,,,,,,,,,,,,,,,,,,,,,,,,730,,,,,,,,,,,,,,,,,,,,,9,9,,,559.9893,11,up,0.0006,,1,0.3,"[3,1,2]",0.88444513,stimuli/card_100_transparent.png,100,11,0,11,0,1,,,,,,,,,,
,,,,,A,2024-07-11_01h31.23.289,Slot Machine Game,2023.1.3,Win32,142.8571429,,,,,,,,,,,,,,,,,,,,,,,,,,,830,,,,,,,,,,,,,,,,,,,,,9,9,,,561.7952,12,up,0.0442,,1.5,0.3,"[3,1,2]",0.564379885,stimuli/card_100_transparent.png,100,12,0,12,0,1,,,,,,,,,,
,,,,,A,2024-07-11_01h31.23.289,Slot Machine Game,2023.1.3,Win32,142.8571429,,,,,,,,,,,,,,,,,,,,,,,,,,,930,,,,,,,,,,,,,,,,,,,,,9,9,,,564.1497,13,up,0.0453,,0.5,0.3,"[3,1,2]",0.970513138,stimuli/card_100_transparent.png,100,13,0,13,0,1,,,,,,,,,,
,,,,,A,2024-07-11_01h31.23.289,Slot Machine Game,2023.1.3,Win32,142.8571429,,,,,,,,,,,,,,,,,,,,,,,,,,,930,,,,,,,,,,,,,,,,,,,,,9,9,,,565.4972,14,up,0.0425,,0.5,0.3,"[3,1,2]",0.012693732,stimuli/card_0_transparent.png,0,14,0,14,0,1,,,,,,,,,,
,,,,,A,2024-07-11_01h31.23.289,Slot Machine Game,2023.1.3,Win32,142.8571429,,,,,,,,,,,,,,,,,,,,,,,,,,,,,,,,,,,566.8446,,,,,,,,,,,,,,,,,,,,,,,,,,,,,,,,,"[260,1000,1220,650,640,940,840,930,930]",8,0,8,0,1,,,,
,,,,,A,2024-07-11_01h31.23.289,Slot Machine Game,2023.1.3,Win32,142.8571429,,,,,,,,,,,,,,,,,,,,,,,,,,,100,,,,,,,,,,,,,,,,,,,,,10,6,"[4,10,15]","[[2,3,1],[1,3,2],[3,2,1]]",571.8507,0,right,0.0626,,0.5,0.3,"[2,3,1]",0.32766037,stimuli/card_100_transparent.png,100,0,0,0,0,1,,,,,,,,,,
,,,,,A,2024-07-11_01h31.23.289,Slot Machine Game,2023.1.3,Win32,142.8571429,,,,,,,,,,,,,,,,,,,,,,,,,,,100,,,,,,,,,,,,,,,,,,,,,10,6,,,573.2208,1,right,0.1136,,1,0.3,"[2,3,1]",0.007719256,stimuli/card_0_transparent.png,0,1,0,1,0,1,,,,,,,,,,
,,,,,A,2024-07-11_01h31.23.289,Slot Machine Game,2023.1.3,Win32,142.8571429,,,,,,,,,,,,,,,,,,,,,,,,,,,200,,,,,,,,,,,,,,,,,,,,,10,6,,,575.1446,2,right,0.3962,,1.5,0.3,"[2,3,1]",0.340195843,stimuli/card_100_transparent.png,100,2,0,2,0,1,,,,,,,,,,
,,,,,A,2024-07-11_01h31.23.289,Slot Machine Game,2023.1.3,Win32,142.8571429,,,,,,,,,,,,,,,,,,,,,,,,,,,300,,,,,,,,,,,,,,,,,,,,,10,6,,,577.8466,3,right,0.1297,,0.5,0.3,"[2,3,1]",0.914557637,stimuli/card_100_transparent.png,100,3,0,3,0,1,,,,,,,,,,
,,,,,A,2024-07-11_01h31.23.289,Slot Machine Game,2023.1.3,Win32,142.8571429,,,,,,,,,,,,,,,,,,,,,,,,,,,310,,,,,,,,,,,,,,,,,,,,,10,6,,,579.2773,4,right,0.6403,,1,0.3,"[1,3,2]",0.598870767,stimuli/card_10_transparent.png,10,4,0,4,0,1,,,,,,,,,,
,,,,,A,2024-07-11_01h31.23.289,Slot Machine Game,2023.1.3,Win32,142.8571429,,,,,,,,,,,,,,,,,,,,,,,,,,,320,,,,,,,,,,,,,,,,,,,,,10,6,,,581.7221,5,right,0.1137,,1,0.3,"[1,3,2]",0.300628739,stimuli/card_10_transparent.png,10,5,0,5,0,1,,,,,,,,,,
,,,,,A,2024-07-11_01h31.23.289,Slot Machine Game,2023.1.3,Win32,142.8571429,,,,,,,,,,,,,,,,,,,,,,,,,,,330,,,,,,,,,,,,,,,,,,,,,10,6,,,583.6391,6,right,0.3959,,0.5,0.3,"[1,3,2]",0.763684725,stimuli/card_10_transparent.png,10,6,0,6,0,1,,,,,,,,,,
,,,,,A,2024-07-11_01h31.23.289,Slot Machine Game,2023.1.3,Win32,142.8571429,,,,,,,,,,,,,,,,,,,,,,,,,,,330,,,,,,,,,,,,,,,,,,,,,10,6,,,585.3409,7,left,0.1622,,1.5,0.3,"[1,3,2]",0.066827077,stimuli/card_0_transparent.png,0,7,0,7,0,1,,,,,,,,,,
,,,,,A,2024-07-11_01h31.23.289,Slot Machine Game,2023.1.3,Win32,142.8571429,,,,,,,,,,,,,,,,,,,,,,,,,,,430,,,,,,,,,,,,,,,,,,,,,10,6,,,587.8065,8,up,0.014,,1,0.3,"[1,3,2]",0.080506139,stimuli/card_100_transparent.png,100,8,0,8,0,1,,,,,,,,,,
,,,,,A,2024-07-11_01h31.23.289,Slot Machine Game,2023.1.3,Win32,142.8571429,,,,,,,,,,,,,,,,,,,,,,,,,,,430,,,,,,,,,,,,,,,,,,,,,10,6,,,589.6263,9,up,0.0001,,0.5,0.3,"[1,3,2]",0.775997147,stimuli/card_0_transparent.png,0,9,0,9,0,1,,,,,,,,,,
,,,,,A,2024-07-11_01h31.23.289,Slot Machine Game,2023.1.3,Win32,142.8571429,,,,,,,,,,,,,,,,,,,,,,,,,,,440,,,,,,,,,,,,,,,,,,,,,10,6,,,590.9321,10,up,0.087,,1.5,0.3,"[3,2,1]",0.937122055,stimuli/card_10_transparent.png,10,10,0,10,0,1,,,,,,,,,,
,,,,,A,2024-07-11_01h31.23.289,Slot Machine Game,2023.1.3,Win32,142.8571429,,,,,,,,,,,,,,,,,,,,,,,,,,,450,,,,,,,,,,,,,,,,,,,,,10,6,,,593.3214,11,up,0.0782,,1,0.3,"[3,2,1]",0.387524504,stimuli/card_10_transparent.png,10,11,0,11,0,1,,,,,,,,,,
,,,,,A,2024-07-11_01h31.23.289,Slot Machine Game,2023.1.3,Win32,142.8571429,,,,,,,,,,,,,,,,,,,,,,,,,,,460,,,,,,,,,,,,,,,,,,,,,10,6,,,595.2037,12,up,0.1112,,1,0.3,"[3,2,1]",0.223522692,stimuli/card_10_transparent.png,10,12,0,12,0,1,,,,,,,,,,
,,,,,A,2024-07-11_01h31.23.289,Slot Machine Game,2023.1.3,Win32,142.8571429,,,,,,,,,,,,,,,,,,,,,,,,,,,560,,,,,,,,,,,,,,,,,,,,,10,6,,,597.1206,13,right,0.1043,,0.5,0.3,"[3,2,1]",0.500119416,stimuli/card_100_transparent.png,100,13,0,13,0,1,,,,,,,,,,
,,,,,A,2024-07-11_01h31.23.289,Slot Machine Game,2023.1.3,Win32,142.8571429,,,,,,,,,,,,,,,,,,,,,,,,,,,660,,,,,,,,,,,,,,,,,,,,,10,6,,,598.5306,14,right,0.0172,,1,0.3,"[3,2,1]",0.461153317,stimuli/card_100_transparent.png,100,14,0,14,0,1,,,,,,,,,,
,,,,,A,2024-07-11_01h31.23.289,Slot Machine Game,2023.1.3,Win32,142.8571429,,,,,,,,,,,,,,,,,,,,,,,,,,,,,,,,,,,600.3504,,,,,,,,,,,,,,,,,,,,,,,,,,,,,,,,,"[260,1000,1220,650,640,940,840,930,930,660]",9,0,9,0,1,,,,
,,,,,A,2024-07-11_01h31.23.289,Slot Machine Game,2023.1.3,Win32,142.8571429,,,,,,,,,,,,,,,,,,,,,,,,,,,,,,,,,,,,,,,,,,,,,,,,,,,,,,,,,,,,,,,,,,,,,,,,,,9,"[260,1000,1220,650,640,940,840,930,930,660]",9.3,2024-07-11_01h41.32.680
