key_resp_welcome_started,key_resp_welcome_keys,key_resp_welcome_rt,key_resp_welcome_duration,prolific_pid,path_id,date,expName,psychopyVersion,OS,frameRate,key_resp_instruction1_started,key_resp_instruction1_keys,key_resp_instruction1_rt,key_resp_instruction1_duration,key_resp_instruction2_started,key_resp_instruction2_keys,key_resp_instruction2_rt,key_resp_instruction2_duration,key_resp_instruction3_started,key_resp_instruction3_keys,key_resp_instruction3_rt,key_resp_instruction3_duration,key_resp_instruction4_started,key_resp_instruction4_keys,key_resp_instruction4_rt,key_resp_instruction4_duration,practiceCondition,practice_reward_seqs,practice_trial_started,practice_trial_num,practice_resp_rt,practice_keypress_time,practice_resp_keys,prac_presentationInterval,practice_reward_seq,reward_img,cumulative_reward,trial_reward,practice_trials.thisRepN,practice_trials.thisTrialN,practice_trials.thisN,practice_trials.thisIndex,practice_trials.ran,block_break_started,practice_end_time,practice_end_keys,practice_end_rt,practice_end_duration,main_instruction_text_started,block_condition,block_order_indices,main_instruction_keys,main_instruction_rt,main_instruction_duration,block_number,block_assignment,current_condition,main_reward_seqs,main_trial_started,main_trial_num,main_trial_keys,main_trial_rt,main_trial_keypress_time,main_presentationInterval,reward_presentation_time,main_reward_seq,reward_rand_val,main_reward_img,current_reward,main_trials.thisRepN,main_trials.thisTrialN,main_trials.thisN,main_trials.thisIndex,main_trials.ran,block_reward,block.thisRepN,block.thisTrialN,block.thisN,block.thisIndex,block.ran,block_reward.length,block_reward_all,reward_amount,date_end_task
0.0006,space,1.8678,,63d6e094b8a428e66ef567f7,B,2024-08-21_16h44.04.655,Slot Machine Game,2023.1.3,Win32,60.24096386,,,,,,,,,,,,,,,,,,,,,,,,,,,,,,,,,,,,,,,,,,,,,,,,,,,,,,,,,,,,,,,,,,,,,,,,,,
,,,,63d6e094b8a428e66ef567f7,B,2024-08-21_16h44.04.655,Slot Machine Game,2023.1.3,Win32,60.24096386,1.8987,space,12.9899,,,,,,,,,,,,,,,,,,,,,,,,,,,,,,,,,,,,,,,,,,,,,,,,,,,,,,,,,,,,,,,,,,,,,,,
,,,,63d6e094b8a428e66ef567f7,B,2024-08-21_16h44.04.655,Slot Machine Game,2023.1.3,Win32,60.24096386,,,,,14.9228,space,14.3406,,,,,,,,,,,,,,,,,,,,,,,,,,,,,,,,,,,,,,,,,,,,,,,,,,,,,,,,,,,,,,,,,,,
,,,,63d6e094b8a428e66ef567f7,B,2024-08-21_16h44.04.655,Slot Machine Game,2023.1.3,Win32,60.24096386,,,,,,,,,29.3569,space,5.1745,,,,,,,,,,,,,,,,,,,,,,,,,,,,,,,,,,,,,,,,,,,,,,,,,,,,,,,,,,,,,,,
,,,,63d6e094b8a428e66ef567f7,B,2024-08-21_16h44.04.655,Slot Machine Game,2023.1.3,Win32,60.24096386,,,,,,,,,,,,,,,,,,,,,,,,,,,,,,,,,,,,,,,,,,,,,,,,,,,,,,,,,,,,,,,,,,,,,,,,,,
,,,,63d6e094b8a428e66ef567f7,B,2024-08-21_16h44.04.655,Slot Machine Game,2023.1.3,Win32,60.24096386,,,,,,,,,,,,,176.3804,left,0.1985,,,,,,,,,,,,,,,,,,,,,,,,,,,,,,,,,,,,,,,,,,,,,,,,,,,,,,,,,,,
,,,,63d6e094b8a428e66ef567f7,B,2024-08-21_16h44.04.655,Slot Machine Game,2023.1.3,Win32,60.24096386,,,,,,,,,,,,,,,,,"[9,15]","[[2,1,3],[2,3,1]]",176.6192,0,1.7519,178.3888,up,1,"[2,1,3]",stimuli/card_100_transparent.png,100,100,0,0,0,0,1,,,,,,,,,,,,,,,,,,,,,,,,,,,,,,,,,,,,,,,,,
,,,,63d6e094b8a428e66ef567f7,B,2024-08-21_16h44.04.655,Slot Machine Game,2023.1.3,Win32,60.24096386,,,,,,,,,,,,,,,,,,,179.6892,1,1.9144,181.6358,right,1,"[2,1,3]",stimuli/card_0_transparent.png,100,0,1,0,1,0,1,,,,,,,,,,,,,,,,,,,,,,,,,,,,,,,,,,,,,,,,,
,,,,63d6e094b8a428e66ef567f7,B,2024-08-21_16h44.04.655,Slot Machine Game,2023.1.3,Win32,60.24096386,,,,,,,,,,,,,,,,,,,182.9354,2,1.016,183.9707,left,1,"[2,1,3]",stimuli/card_10_transparent.png,110,10,2,0,2,0,1,,,,,,,,,,,,,,,,,,,,,,,,,,,,,,,,,,,,,,,,,
,,,,63d6e094b8a428e66ef567f7,B,2024-08-21_16h44.04.655,Slot Machine Game,2023.1.3,Win32,60.24096386,,,,,,,,,,,,,,,,,,,185.2657,3,1.1322,186.4314,left,1.5,"[2,1,3]",stimuli/card_100_transparent.png,210,100,3,0,3,0,1,,,,,,,,,,,,,,,,,,,,,,,,,,,,,,,,,,,,,,,,,
,,,,63d6e094b8a428e66ef567f7,B,2024-08-21_16h44.04.655,Slot Machine Game,2023.1.3,Win32,60.24096386,,,,,,,,,,,,,,,,,,,188.2292,4,1.5468,189.8123,right,1,"[2,1,3]",stimuli/card_0_transparent.png,210,0,4,0,4,0,1,,,,,,,,,,,,,,,,,,,,,,,,,,,,,,,,,,,,,,,,,
,,,,63d6e094b8a428e66ef567f7,B,2024-08-21_16h44.04.655,Slot Machine Game,2023.1.3,Win32,60.24096386,,,,,,,,,,,,,,,,,,,191.1103,5,2.4247,193.5583,left,0.5,"[2,1,3]",stimuli/card_10_transparent.png,220,10,5,0,5,0,1,,,,,,,,,,,,,,,,,,,,,,,,,,,,,,,,,,,,,,,,,
,,,,63d6e094b8a428e66ef567f7,B,2024-08-21_16h44.04.655,Slot Machine Game,2023.1.3,Win32,60.24096386,,,,,,,,,,,,,,,,,,,194.3562,6,1.518,195.8948,up,1.5,"[2,1,3]",stimuli/card_100_transparent.png,320,100,6,0,6,0,1,,,,,,,,,,,,,,,,,,,,,,,,,,,,,,,,,,,,,,,,,
,,,,63d6e094b8a428e66ef567f7,B,2024-08-21_16h44.04.655,Slot Machine Game,2023.1.3,Win32,60.24096386,,,,,,,,,,,,,,,,,,,197.6914,7,1.0184,198.7418,up,1.5,"[2,1,3]",stimuli/card_0_transparent.png,320,0,7,0,7,0,1,,,,,,,,,,,,,,,,,,,,,,,,,,,,,,,,,,,,,,,,,
,,,,63d6e094b8a428e66ef567f7,B,2024-08-21_16h44.04.655,Slot Machine Game,2023.1.3,Win32,60.24096386,,,,,,,,,,,,,,,,,,,200.538,8,0.6009,201.1725,up,1.5,"[2,1,3]",stimuli/card_100_transparent.png,420,100,8,0,8,0,1,,,,,,,,,,,,,,,,,,,,,,,,,,,,,,,,,,,,,,,,,
,,,,63d6e094b8a428e66ef567f7,B,2024-08-21_16h44.04.655,Slot Machine Game,2023.1.3,Win32,60.24096386,,,,,,,,,,,,,,,,,,,202.9692,9,3.3326,206.3339,right,1,"[2,3,1]",stimuli/card_100_transparent.png,520,100,9,0,9,0,1,,,,,,,,,,,,,,,,,,,,,,,,,,,,,,,,,,,,,,,,,
,,,,63d6e094b8a428e66ef567f7,B,2024-08-21_16h44.04.655,Slot Machine Game,2023.1.3,Win32,60.24096386,,,,,,,,,,,,,,,,,,,207.6312,10,0.803,208.4661,up,1.5,"[2,3,1]",stimuli/card_0_transparent.png,520,0,10,0,10,0,1,,,,,,,,,,,,,,,,,,,,,,,,,,,,,,,,,,,,,,,,,
,,,,63d6e094b8a428e66ef567f7,B,2024-08-21_16h44.04.655,Slot Machine Game,2023.1.3,Win32,60.24096386,,,,,,,,,,,,,,,,,,,210.2625,11,0.6026,210.8971,up,1.5,"[2,3,1]",stimuli/card_0_transparent.png,520,0,11,0,11,0,1,,,,,,,,,,,,,,,,,,,,,,,,,,,,,,,,,,,,,,,,,
,,,,63d6e094b8a428e66ef567f7,B,2024-08-21_16h44.04.655,Slot Machine Game,2023.1.3,Win32,60.24096386,,,,,,,,,,,,,,,,,,,212.693,12,0.9177,213.6432,left,0.5,"[2,3,1]",stimuli/card_10_transparent.png,530,10,12,0,12,0,1,,,,,,,,,,,,,,,,,,,,,,,,,,,,,,,,,,,,,,,,,
,,,,63d6e094b8a428e66ef567f7,B,2024-08-21_16h44.04.655,Slot Machine Game,2023.1.3,Win32,60.24096386,,,,,,,,,,,,,,,,,,,214.437,13,1.7228,216.1696,up,0.5,"[2,3,1]",stimuli/card_10_transparent.png,540,10,13,0,13,0,1,,,,,,,,,,,,,,,,,,,,,,,,,,,,,,,,,,,,,,,,,
,,,,63d6e094b8a428e66ef567f7,B,2024-08-21_16h44.04.655,Slot Machine Game,2023.1.3,Win32,60.24096386,,,,,,,,,,,,,,,,,,,216.968,14,1.1346,218.134,right,1,"[2,3,1]",stimuli/card_100_transparent.png,640,100,14,0,14,0,1,,,,,,,,,,,,,,,,,,,,,,,,,,,,,,,,,,,,,,,,,
,,,,63d6e094b8a428e66ef567f7,B,2024-08-21_16h44.04.655,Slot Machine Game,2023.1.3,Win32,60.24096386,,,,,,,,,,,,,,,,,"[6,15]","[[1,3,2],[3,1,2]]",224.5039,0,0.652,225.1774,up,1,"[1,3,2]",stimuli/card_0_transparent.png,0,0,0,0,0,0,1,219.4854,,,,,,,,,,,,,,,,,,,,,,,,,,,,,,,,,,,,,,,,
,,,,63d6e094b8a428e66ef567f7,B,2024-08-21_16h44.04.655,Slot Machine Game,2023.1.3,Win32,60.24096386,,,,,,,,,,,,,,,,,,,226.4754,1,1.2345,227.7422,left,1.5,"[1,3,2]",stimuli/card_100_transparent.png,100,100,1,0,1,0,1,,,,,,,,,,,,,,,,,,,,,,,,,,,,,,,,,,,,,,,,,
,,,,63d6e094b8a428e66ef567f7,B,2024-08-21_16h44.04.655,Slot Machine Game,2023.1.3,Win32,60.24096386,,,,,,,,,,,,,,,,,,,229.5391,2,0.6356,230.2058,left,0.5,"[1,3,2]",stimuli/card_100_transparent.png,200,100,2,0,2,0,1,,,,,,,,,,,,,,,,,,,,,,,,,,,,,,,,,,,,,,,,,
,,,,63d6e094b8a428e66ef567f7,B,2024-08-21_16h44.04.655,Slot Machine Game,2023.1.3,Win32,60.24096386,,,,,,,,,,,,,,,,,,,231.0042,3,0.8058,231.8382,right,1,"[1,3,2]",stimuli/card_10_transparent.png,210,10,3,0,3,0,1,,,,,,,,,,,,,,,,,,,,,,,,,,,,,,,,,,,,,,,,,
,,,,63d6e094b8a428e66ef567f7,B,2024-08-21_16h44.04.655,Slot Machine Game,2023.1.3,Win32,60.24096386,,,,,,,,,,,,,,,,,,,233.1358,4,2.433,235.6016,up,1.5,"[1,3,2]",stimuli/card_0_transparent.png,210,0,4,0,4,0,1,,,,,,,,,,,,,,,,,,,,,,,,,,,,,,,,,,,,,,,,,
,,,,63d6e094b8a428e66ef567f7,B,2024-08-21_16h44.04.655,Slot Machine Game,2023.1.3,Win32,60.24096386,,,,,,,,,,,,,,,,,,,237.3985,5,0.7017,238.1318,left,1.5,"[1,3,2]",stimuli/card_100_transparent.png,310,100,5,0,5,0,1,,,,,,,,,,,,,,,,,,,,,,,,,,,,,,,,,,,,,,,,,
,,,,63d6e094b8a428e66ef567f7,B,2024-08-21_16h44.04.655,Slot Machine Game,2023.1.3,Win32,60.24096386,,,,,,,,,,,,,,,,,,,239.9291,6,2.2677,242.2272,left,0.5,"[3,1,2]",stimuli/card_0_transparent.png,310,0,6,0,6,0,1,,,,,,,,,,,,,,,,,,,,,,,,,,,,,,,,,,,,,,,,,
,,,,63d6e094b8a428e66ef567f7,B,2024-08-21_16h44.04.655,Slot Machine Game,2023.1.3,Win32,60.24096386,,,,,,,,,,,,,,,,,,,243.026,7,1.0662,244.1254,right,1,"[3,1,2]",stimuli/card_100_transparent.png,410,100,7,0,7,0,1,,,,,,,,,,,,,,,,,,,,,,,,,,,,,,,,,,,,,,,,,
,,,,63d6e094b8a428e66ef567f7,B,2024-08-21_16h44.04.655,Slot Machine Game,2023.1.3,Win32,60.24096386,,,,,,,,,,,,,,,,,,,245.4237,8,1.8846,247.339,up,1.5,"[3,1,2]",stimuli/card_100_transparent.png,510,100,8,0,8,0,1,,,,,,,,,,,,,,,,,,,,,,,,,,,,,,,,,,,,,,,,,
,,,,63d6e094b8a428e66ef567f7,B,2024-08-21_16h44.04.655,Slot Machine Game,2023.1.3,Win32,60.24096386,,,,,,,,,,,,,,,,,,,249.1367,9,1.6375,250.8019,right,1.5,"[3,1,2]",stimuli/card_10_transparent.png,520,10,9,0,9,0,1,,,,,,,,,,,,,,,,,,,,,,,,,,,,,,,,,,,,,,,,,
,,,,63d6e094b8a428e66ef567f7,B,2024-08-21_16h44.04.655,Slot Machine Game,2023.1.3,Win32,60.24096386,,,,,,,,,,,,,,,,,,,252.6002,10,0.5691,253.2004,right,0.5,"[3,1,2]",stimuli/card_10_transparent.png,530,10,10,0,10,0,1,,,,,,,,,,,,,,,,,,,,,,,,,,,,,,,,,,,,,,,,,
,,,,63d6e094b8a428e66ef567f7,B,2024-08-21_16h44.04.655,Slot Machine Game,2023.1.3,Win32,60.24096386,,,,,,,,,,,,,,,,,,,253.9983,11,0.61,254.6334,up,0.5,"[3,1,2]",stimuli/card_100_transparent.png,630,100,11,0,11,0,1,,,,,,,,,,,,,,,,,,,,,,,,,,,,,,,,,,,,,,,,,
,,,,63d6e094b8a428e66ef567f7,B,2024-08-21_16h44.04.655,Slot Machine Game,2023.1.3,Win32,60.24096386,,,,,,,,,,,,,,,,,,,255.4304,12,1.0032,256.4639,up,1,"[3,1,2]",stimuli/card_100_transparent.png,730,100,12,0,12,0,1,,,,,,,,,,,,,,,,,,,,,,,,,,,,,,,,,,,,,,,,,
,,,,63d6e094b8a428e66ef567f7,B,2024-08-21_16h44.04.655,Slot Machine Game,2023.1.3,Win32,60.24096386,,,,,,,,,,,,,,,,,,,257.762,13,0.5588,258.3455,left,0.5,"[3,1,2]",stimuli/card_0_transparent.png,730,0,13,0,13,0,1,,,,,,,,,,,,,,,,,,,,,,,,,,,,,,,,,,,,,,,,,
,,,,63d6e094b8a428e66ef567f7,B,2024-08-21_16h44.04.655,Slot Machine Game,2023.1.3,Win32,60.24096386,,,,,,,,,,,,,,,,,,,259.1436,14,1.0181,260.1928,left,1.5,"[3,1,2]",stimuli/card_100_transparent.png,830,100,14,0,14,0,1,,,,,,,,,,,,,,,,,,,,,,,,,,,,,,,,,,,,,,,,,
,,,,63d6e094b8a428e66ef567f7,B,2024-08-21_16h44.04.655,Slot Machine Game,2023.1.3,Win32,60.24096386,,,,,,,,,,,,,,,,,,,,,,,,,,,,,,,,,,261.9909,266.9906,space,3.929,,,,,,,,,,,,,,,,,,,,,,,,,,,,,,,,,,,,,
,,,,63d6e094b8a428e66ef567f7,B,2024-08-21_16h44.04.655,Slot Machine Game,2023.1.3,Win32,60.24096386,,,,,,,,,,,,,,,,,,,,,,,,,,,,,,,,,,,,,,,270.9536,1,"[0,1,2,3,4,5,6,7,8,9]",space,3.1917,,,,,,,,,,,,,,,,,,,,,,,,,,,,,,,
,,,,63d6e094b8a428e66ef567f7,B,2024-08-21_16h44.04.655,Slot Machine Game,2023.1.3,Win32,60.24096386,,,,,,,,,,,,,,,,,,,,,,,,,,,10,,,,,,,,,,,,,,,,,,1,1,"[12,15]","[[2,1,3],[2,3,1]]",274.2449,0,left,0.5352,274.8136,0.5,0.3,"[2,1,3]",0.836050103,stimuli/card_10_transparent.png,10,0,0,0,0,1,,,,,,,,,,
,,,,63d6e094b8a428e66ef567f7,B,2024-08-21_16h44.04.655,Slot Machine Game,2023.1.3,Win32,60.24096386,,,,,,,,,,,,,,,,,,,,,,,,,,,110,,,,,,,,,,,,,,,,,,1,1,,,275.6115,1,up,1.1558,276.7932,0.5,0.3,"[2,1,3]",0.805022403,stimuli/card_100_transparent.png,100,1,0,1,0,1,,,,,,,,,,
,,,,63d6e094b8a428e66ef567f7,B,2024-08-21_16h44.04.655,Slot Machine Game,2023.1.3,Win32,60.24096386,,,,,,,,,,,,,,,,,,,,,,,,,,,210,,,,,,,,,,,,,,,,,,1,1,,,277.5916,2,up,0.935,278.5573,1.5,0.3,"[2,1,3]",0.683144056,stimuli/card_100_transparent.png,100,2,0,2,0,1,,,,,,,,,,
,,,,63d6e094b8a428e66ef567f7,B,2024-08-21_16h44.04.655,Slot Machine Game,2023.1.3,Win32,60.24096386,,,,,,,,,,,,,,,,,,,,,,,,,,,220,,,,,,,,,,,,,,,,,,1,1,,,280.3555,3,left,0.8362,281.222,0.5,0.3,"[2,1,3]",0.465524503,stimuli/card_10_transparent.png,10,3,0,3,0,1,,,,,,,,,,
,,,,63d6e094b8a428e66ef567f7,B,2024-08-21_16h44.04.655,Slot Machine Game,2023.1.3,Win32,60.24096386,,,,,,,,,,,,,,,,,,,,,,,,,,,220,,,,,,,,,,,,,,,,,,1,1,,,282.0215,4,right,0.8774,282.9215,0.5,0.3,"[2,1,3]",0.747868523,stimuli/card_0_transparent.png,0,4,0,4,0,1,,,,,,,,,,
,,,,63d6e094b8a428e66ef567f7,B,2024-08-21_16h44.04.655,Slot Machine Game,2023.1.3,Win32,60.24096386,,,,,,,,,,,,,,,,,,,,,,,,,,,320,,,,,,,,,,,,,,,,,,1,1,,,283.7236,5,left,1.2855,285.0354,1.5,0.3,"[2,1,3]",0.10130659,stimuli/card_100_transparent.png,100,5,0,5,0,1,,,,,,,,,,
,,,,63d6e094b8a428e66ef567f7,B,2024-08-21_16h44.04.655,Slot Machine Game,2023.1.3,Win32,60.24096386,,,,,,,,,,,,,,,,,,,,,,,,,,,420,,,,,,,,,,,,,,,,,,1,1,,,286.8325,6,up,2.9005,289.7676,1,0.3,"[2,1,3]",0.479353437,stimuli/card_100_transparent.png,100,6,0,6,0,1,,,,,,,,,,
,,,,63d6e094b8a428e66ef567f7,B,2024-08-21_16h44.04.655,Slot Machine Game,2023.1.3,Win32,60.24096386,,,,,,,,,,,,,,,,,,,,,,,,,,,430,,,,,,,,,,,,,,,,,,1,1,,,291.0506,7,left,0.8518,291.933,0.5,0.3,"[2,1,3]",0.501828663,stimuli/card_10_transparent.png,10,7,0,7,0,1,,,,,,,,,,
,,,,63d6e094b8a428e66ef567f7,B,2024-08-21_16h44.04.655,Slot Machine Game,2023.1.3,Win32,60.24096386,,,,,,,,,,,,,,,,,,,,,,,,,,,440,,,,,,,,,,,,,,,,,,1,1,,,292.7308,8,left,1.7839,294.5475,1,0.3,"[2,1,3]",0.848007825,stimuli/card_10_transparent.png,10,8,0,8,0,1,,,,,,,,,,
,,,,63d6e094b8a428e66ef567f7,B,2024-08-21_16h44.04.655,Slot Machine Game,2023.1.3,Win32,60.24096386,,,,,,,,,,,,,,,,,,,,,,,,,,,440,,,,,,,,,,,,,,,,,,1,1,,,295.8446,9,up,1.2014,297.0788,1,0.3,"[2,1,3]",0.007853348,stimuli/card_0_transparent.png,0,9,0,9,0,1,,,,,,,,,,
,,,,63d6e094b8a428e66ef567f7,B,2024-08-21_16h44.04.655,Slot Machine Game,2023.1.3,Win32,60.24096386,,,,,,,,,,,,,,,,,,,,,,,,,,,440,,,,,,,,,,,,,,,,,,1,1,,,298.3712,10,right,1.09,299.5043,1.5,0.3,"[2,1,3]",0.372679665,stimuli/card_0_transparent.png,0,10,0,10,0,1,,,,,,,,,,
,,,,63d6e094b8a428e66ef567f7,B,2024-08-21_16h44.04.655,Slot Machine Game,2023.1.3,Win32,60.24096386,,,,,,,,,,,,,,,,,,,,,,,,,,,540,,,,,,,,,,,,,,,,,,1,1,,,301.3019,11,up,1.958,303.2849,1,0.3,"[2,1,3]",0.856741055,stimuli/card_100_transparent.png,100,11,0,11,0,1,,,,,,,,,,
,,,,63d6e094b8a428e66ef567f7,B,2024-08-21_16h44.04.655,Slot Machine Game,2023.1.3,Win32,60.24096386,,,,,,,,,,,,,,,,,,,,,,,,,,,550,,,,,,,,,,,,,,,,,,1,1,,,304.5822,12,left,0.7979,305.4151,1.5,0.3,"[2,3,1]",0.525183869,stimuli/card_10_transparent.png,10,12,0,12,0,1,,,,,,,,,,
,,,,63d6e094b8a428e66ef567f7,B,2024-08-21_16h44.04.655,Slot Machine Game,2023.1.3,Win32,60.24096386,,,,,,,,,,,,,,,,,,,,,,,,,,,560,,,,,,,,,,,,,,,,,,1,1,,,307.2129,13,left,1.3175,308.5619,0.5,0.3,"[2,3,1]",0.241650193,stimuli/card_10_transparent.png,10,13,0,13,0,1,,,,,,,,,,
,,,,63d6e094b8a428e66ef567f7,B,2024-08-21_16h44.04.655,Slot Machine Game,2023.1.3,Win32,60.24096386,,,,,,,,,,,,,,,,,,,,,,,,,,,660,,,,,,,,,,,,,,,,,,1,1,,,309.3607,14,right,1.2188,310.5935,1.5,0.3,"[2,3,1]",0.267954072,stimuli/card_100_transparent.png,100,14,0,14,0,1,,,,,,,,,,
,,,,63d6e094b8a428e66ef567f7,B,2024-08-21_16h44.04.655,Slot Machine Game,2023.1.3,Win32,60.24096386,,,,,,,,,,,,,,,,,,,,,,,,,,,,,,,,,,312.3914,,,,,,,,,,,,,,,,,,,,,,,,,,,,,,,[660],0,0,0,0,1,,,,
,,,,63d6e094b8a428e66ef567f7,B,2024-08-21_16h44.04.655,Slot Machine Game,2023.1.3,Win32,60.24096386,,,,,,,,,,,,,,,,,,,,,,,,,,,100,,,,,,,,,,,,,,,,,,2,2,"[6,15]","[[1,3,2],[3,2,1]]",317.447,0,right,0.9566,318.4188,1,0.3,"[1,3,2]",0.136226387,stimuli/card_100_transparent.png,100,0,0,0,0,1,,,,,,,,,,
,,,,63d6e094b8a428e66ef567f7,B,2024-08-21_16h44.04.655,Slot Machine Game,2023.1.3,Win32,60.24096386,,,,,,,,,,,,,,,,,,,,,,,,,,,200,,,,,,,,,,,,,,,,,,2,2,,,319.7169,1,right,0.9075,320.6501,0.5,0.3,"[1,3,2]",0.198078301,stimuli/card_100_transparent.png,100,1,0,1,0,1,,,,,,,,,,
,,,,63d6e094b8a428e66ef567f7,B,2024-08-21_16h44.04.655,Slot Machine Game,2023.1.3,Win32,60.24096386,,,,,,,,,,,,,,,,,,,,,,,,,,,200,,,,,,,,,,,,,,,,,,2,2,,,321.4491,2,up,0.5458,322.0177,1,0.3,"[1,3,2]",0.243455345,stimuli/card_0_transparent.png,0,2,0,2,0,1,,,,,,,,,,
,,,,63d6e094b8a428e66ef567f7,B,2024-08-21_16h44.04.655,Slot Machine Game,2023.1.3,Win32,60.24096386,,,,,,,,,,,,,,,,,,,,,,,,,,,300,,,,,,,,,,,,,,,,,,2,2,,,323.3136,3,left,0.9184,324.2635,0.5,0.3,"[1,3,2]",0.941574208,stimuli/card_100_transparent.png,100,3,0,3,0,1,,,,,,,,,,
,,,,63d6e094b8a428e66ef567f7,B,2024-08-21_16h44.04.655,Slot Machine Game,2023.1.3,Win32,60.24096386,,,,,,,,,,,,,,,,,,,,,,,,,,,310,,,,,,,,,,,,,,,,,,2,2,,,325.0626,4,right,1.0847,326.1785,1.5,0.3,"[1,3,2]",0.317937055,stimuli/card_10_transparent.png,10,4,0,4,0,1,,,,,,,,,,
,,,,63d6e094b8a428e66ef567f7,B,2024-08-21_16h44.04.655,Slot Machine Game,2023.1.3,Win32,60.24096386,,,,,,,,,,,,,,,,,,,,,,,,,,,310,,,,,,,,,,,,,,,,,,2,2,,,327.9762,5,up,2.183,330.1907,1,0.3,"[1,3,2]",0.726817417,stimuli/card_0_transparent.png,0,5,0,5,0,1,,,,,,,,,,
,,,,63d6e094b8a428e66ef567f7,B,2024-08-21_16h44.04.655,Slot Machine Game,2023.1.3,Win32,60.24096386,,,,,,,,,,,,,,,,,,,,,,,,,,,320,,,,,,,,,,,,,,,,,,2,2,,,331.4891,6,left,1.0439,332.5606,1.5,0.3,"[3,2,1]",0.121037181,stimuli/card_10_transparent.png,10,6,0,6,0,1,,,,,,,,,,
,,,,63d6e094b8a428e66ef567f7,B,2024-08-21_16h44.04.655,Slot Machine Game,2023.1.3,Win32,60.24096386,,,,,,,,,,,,,,,,,,,,,,,,,,,420,,,,,,,,,,,,,,,,,,2,2,,,334.3535,7,right,0.9396,335.3189,1,0.3,"[3,2,1]",0.638055778,stimuli/card_100_transparent.png,100,7,0,7,0,1,,,,,,,,,,
,,,,63d6e094b8a428e66ef567f7,B,2024-08-21_16h44.04.655,Slot Machine Game,2023.1.3,Win32,60.24096386,,,,,,,,,,,,,,,,,,,,,,,,,,,520,,,,,,,,,,,,,,,,,,2,2,,,336.6011,8,right,1.4174,338.0499,1,0.3,"[3,2,1]",0.867607246,stimuli/card_100_transparent.png,100,8,0,8,0,1,,,,,,,,,,
,,,,63d6e094b8a428e66ef567f7,B,2024-08-21_16h44.04.655,Slot Machine Game,2023.1.3,Win32,60.24096386,,,,,,,,,,,,,,,,,,,,,,,,,,,620,,,,,,,,,,,,,,,,,,2,2,,,339.3484,9,right,0.5357,339.9154,1.5,0.3,"[3,2,1]",0.783520205,stimuli/card_100_transparent.png,100,9,0,9,0,1,,,,,,,,,,
,,,,63d6e094b8a428e66ef567f7,B,2024-08-21_16h44.04.655,Slot Machine Game,2023.1.3,Win32,60.24096386,,,,,,,,,,,,,,,,,,,,,,,,,,,720,,,,,,,,,,,,,,,,,,2,2,,,341.7129,10,right,0.5373,342.2798,1.5,0.3,"[3,2,1]",0.731671655,stimuli/card_100_transparent.png,100,10,0,10,0,1,,,,,,,,,,
,,,,63d6e094b8a428e66ef567f7,B,2024-08-21_16h44.04.655,Slot Machine Game,2023.1.3,Win32,60.24096386,,,,,,,,,,,,,,,,,,,,,,,,,,,730,,,,,,,,,,,,,,,,,,2,2,,,344.0768,11,up,0.5555,344.6603,0.5,0.3,"[3,2,1]",0.646131893,stimuli/card_10_transparent.png,10,11,0,11,0,1,,,,,,,,,,
,,,,63d6e094b8a428e66ef567f7,B,2024-08-21_16h44.04.655,Slot Machine Game,2023.1.3,Win32,60.24096386,,,,,,,,,,,,,,,,,,,,,,,,,,,730,,,,,,,,,,,,,,,,,,2,2,,,345.4592,12,left,0.7539,346.2416,0.5,0.3,"[3,2,1]",0.574569467,stimuli/card_0_transparent.png,0,12,0,12,0,1,,,,,,,,,,
,,,,63d6e094b8a428e66ef567f7,B,2024-08-21_16h44.04.655,Slot Machine Game,2023.1.3,Win32,60.24096386,,,,,,,,,,,,,,,,,,,,,,,,,,,830,,,,,,,,,,,,,,,,,,2,2,,,347.0408,13,right,1.0339,348.1065,0.5,0.3,"[3,2,1]",0.721273555,stimuli/card_100_transparent.png,100,13,0,13,0,1,,,,,,,,,,
,,,,63d6e094b8a428e66ef567f7,B,2024-08-21_16h44.04.655,Slot Machine Game,2023.1.3,Win32,60.24096386,,,,,,,,,,,,,,,,,,,,,,,,,,,840,,,,,,,,,,,,,,,,,,2,2,,,348.9056,14,up,0.5674,349.5051,1,0.3,"[3,2,1]",0.231825721,stimuli/card_10_transparent.png,10,14,0,14,0,1,,,,,,,,,,
,,,,63d6e094b8a428e66ef567f7,B,2024-08-21_16h44.04.655,Slot Machine Game,2023.1.3,Win32,60.24096386,,,,,,,,,,,,,,,,,,,,,,,,,,,,,,,,,,350.8038,,,,,,,,,,,,,,,,,,,,,,,,,,,,,,,"[660,840]",1,0,1,0,1,,,,
,,,,63d6e094b8a428e66ef567f7,B,2024-08-21_16h44.04.655,Slot Machine Game,2023.1.3,Win32,60.24096386,,,,,,,,,,,,,,,,,,,,,,,,,,,100,,,,,,,,,,,,,,,,,,3,3,"[15,15]","[[3,1,2],[3,1,2]]",355.8581,0,up,1.067,356.9485,1.5,0.3,"[3,1,2]",0.346299736,stimuli/card_100_transparent.png,100,0,0,0,0,1,,,,,,,,,,
,,,,63d6e094b8a428e66ef567f7,B,2024-08-21_16h44.04.655,Slot Machine Game,2023.1.3,Win32,60.24096386,,,,,,,,,,,,,,,,,,,,,,,,,,,110,,,,,,,,,,,,,,,,,,3,3,,,358.7459,1,up,0.9353,359.7119,0.5,0.3,"[3,1,2]",0.177216677,stimuli/card_10_transparent.png,10,1,0,1,0,1,,,,,,,,,,
,,,,63d6e094b8a428e66ef567f7,B,2024-08-21_16h44.04.655,Slot Machine Game,2023.1.3,Win32,60.24096386,,,,,,,,,,,,,,,,,,,,,,,,,,,210,,,,,,,,,,,,,,,,,,3,3,,,360.512,2,up,1.2849,361.8262,0.5,0.3,"[3,1,2]",0.766857823,stimuli/card_100_transparent.png,100,2,0,2,0,1,,,,,,,,,,
,,,,63d6e094b8a428e66ef567f7,B,2024-08-21_16h44.04.655,Slot Machine Game,2023.1.3,Win32,60.24096386,,,,,,,,,,,,,,,,,,,,,,,,,,,310,,,,,,,,,,,,,,,,,,3,3,,,362.6256,3,up,2.2516,364.9372,1.5,0.3,"[3,1,2]",0.575438318,stimuli/card_100_transparent.png,100,3,0,3,0,1,,,,,,,,,,
,,,,63d6e094b8a428e66ef567f7,B,2024-08-21_16h44.04.655,Slot Machine Game,2023.1.3,Win32,60.24096386,,,,,,,,,,,,,,,,,,,,,,,,,,,410,,,,,,,,,,,,,,,,,,3,3,,,366.7379,4,up,0.9675,367.7255,1.5,0.3,"[3,1,2]",0.541324243,stimuli/card_100_transparent.png,100,4,0,4,0,1,,,,,,,,,,
,,,,63d6e094b8a428e66ef567f7,B,2024-08-21_16h44.04.655,Slot Machine Game,2023.1.3,Win32,60.24096386,,,,,,,,,,,,,,,,,,,,,,,,,,,410,,,,,,,,,,,,,,,,,,3,3,,,369.523,5,left,1.4345,370.9899,1.5,0.3,"[3,1,2]",0.2129213,stimuli/card_0_transparent.png,0,5,0,5,0,1,,,,,,,,,,
,,,,63d6e094b8a428e66ef567f7,B,2024-08-21_16h44.04.655,Slot Machine Game,2023.1.3,Win32,60.24096386,,,,,,,,,,,,,,,,,,,,,,,,,,,510,,,,,,,,,,,,,,,,,,3,3,,,372.7865,6,up,0.5014,373.3203,1,0.3,"[3,1,2]",0.724581975,stimuli/card_100_transparent.png,100,6,0,6,0,1,,,,,,,,,,
,,,,63d6e094b8a428e66ef567f7,B,2024-08-21_16h44.04.655,Slot Machine Game,2023.1.3,Win32,60.24096386,,,,,,,,,,,,,,,,,,,,,,,,,,,610,,,,,,,,,,,,,,,,,,3,3,,,374.6139,7,up,0.5308,375.1642,1,0.3,"[3,1,2]",0.906559805,stimuli/card_100_transparent.png,100,7,0,7,0,1,,,,,,,,,,
,,,,63d6e094b8a428e66ef567f7,B,2024-08-21_16h44.04.655,Slot Machine Game,2023.1.3,Win32,60.24096386,,,,,,,,,,,,,,,,,,,,,,,,,,,620,,,,,,,,,,,,,,,,,,3,3,,,376.4623,8,right,0.5196,377.0115,0.5,0.3,"[3,1,2]",0.868974119,stimuli/card_10_transparent.png,10,8,0,8,0,1,,,,,,,,,,
,,,,63d6e094b8a428e66ef567f7,B,2024-08-21_16h44.04.655,Slot Machine Game,2023.1.3,Win32,60.24096386,,,,,,,,,,,,,,,,,,,,,,,,,,,720,,,,,,,,,,,,,,,,,,3,3,,,377.8104,9,up,0.959,378.7937,1.5,0.3,"[3,1,2]",0.547098364,stimuli/card_100_transparent.png,100,9,0,9,0,1,,,,,,,,,,
,,,,63d6e094b8a428e66ef567f7,B,2024-08-21_16h44.04.655,Slot Machine Game,2023.1.3,Win32,60.24096386,,,,,,,,,,,,,,,,,,,,,,,,,,,720,,,,,,,,,,,,,,,,,,3,3,,,380.5909,10,left,0.6218,381.2404,0.5,0.3,"[3,1,2]",0.821889406,stimuli/card_0_transparent.png,0,10,0,10,0,1,,,,,,,,,,
,,,,63d6e094b8a428e66ef567f7,B,2024-08-21_16h44.04.655,Slot Machine Game,2023.1.3,Win32,60.24096386,,,,,,,,,,,,,,,,,,,,,,,,,,,820,,,,,,,,,,,,,,,,,,3,3,,,382.0396,11,up,0.7683,382.8393,0.5,0.3,"[3,1,2]",0.785181652,stimuli/card_100_transparent.png,100,11,0,11,0,1,,,,,,,,,,
,,,,63d6e094b8a428e66ef567f7,B,2024-08-21_16h44.04.655,Slot Machine Game,2023.1.3,Win32,60.24096386,,,,,,,,,,,,,,,,,,,,,,,,,,,920,,,,,,,,,,,,,,,,,,3,3,,,383.638,12,up,0.9521,384.6032,0.5,0.3,"[3,1,2]",0.809415707,stimuli/card_100_transparent.png,100,12,0,12,0,1,,,,,,,,,,
,,,,63d6e094b8a428e66ef567f7,B,2024-08-21_16h44.04.655,Slot Machine Game,2023.1.3,Win32,60.24096386,,,,,,,,,,,,,,,,,,,,,,,,,,,930,,,,,,,,,,,,,,,,,,3,3,,,385.4037,13,right,0.5813,386.0083,0.5,0.3,"[3,1,2]",0.688183006,stimuli/card_10_transparent.png,10,13,0,13,0,1,,,,,,,,,,
,,,,63d6e094b8a428e66ef567f7,B,2024-08-21_16h44.04.655,Slot Machine Game,2023.1.3,Win32,60.24096386,,,,,,,,,,,,,,,,,,,,,,,,,,,1030,,,,,,,,,,,,,,,,,,3,3,,,386.8031,14,up,0.9333,387.7516,1,0.3,"[3,1,2]",0.927658941,stimuli/card_100_transparent.png,100,14,0,14,0,1,,,,,,,,,,
,,,,63d6e094b8a428e66ef567f7,B,2024-08-21_16h44.04.655,Slot Machine Game,2023.1.3,Win32,60.24096386,,,,,,,,,,,,,,,,,,,,,,,,,,,,,,,,,,389.0492,,,,,,,,,,,,,,,,,,,,,,,,,,,,,,,"[660,840,1030]",2,0,2,0,1,,,,
,,,,63d6e094b8a428e66ef567f7,B,2024-08-21_16h44.04.655,Slot Machine Game,2023.1.3,Win32,60.24096386,,,,,,,,,,,,,,,,,,,,,,,,,,,100,,,,,,,,,,,,,,,,,,4,4,"[7,15]","[[2,3,1],[1,2,3]]",394.1025,0,up,0.5726,394.6941,1,0.3,"[2,3,1]",0.045926541,stimuli/card_100_transparent.png,100,0,0,0,0,1,,,,,,,,,,
,,,,63d6e094b8a428e66ef567f7,B,2024-08-21_16h44.04.655,Slot Machine Game,2023.1.3,Win32,60.24096386,,,,,,,,,,,,,,,,,,,,,,,,,,,110,,,,,,,,,,,,,,,,,,4,4,,,395.9927,1,left,1.4027,397.4249,1.5,0.3,"[2,3,1]",0.33714162,stimuli/card_10_transparent.png,10,1,0,1,0,1,,,,,,,,,,
,,,,63d6e094b8a428e66ef567f7,B,2024-08-21_16h44.04.655,Slot Machine Game,2023.1.3,Win32,60.24096386,,,,,,,,,,,,,,,,,,,,,,,,,,,210,,,,,,,,,,,,,,,,,,4,4,,,399.223,2,right,0.9495,400.1924,0.5,0.3,"[2,3,1]",0.410373358,stimuli/card_100_transparent.png,100,2,0,2,0,1,,,,,,,,,,
,,,,63d6e094b8a428e66ef567f7,B,2024-08-21_16h44.04.655,Slot Machine Game,2023.1.3,Win32,60.24096386,,,,,,,,,,,,,,,,,,,,,,,,,,,310,,,,,,,,,,,,,,,,,,4,4,,,400.988,3,right,0.8184,401.8372,0.5,0.3,"[2,3,1]",0.476270348,stimuli/card_100_transparent.png,100,3,0,3,0,1,,,,,,,,,,
,,,,63d6e094b8a428e66ef567f7,B,2024-08-21_16h44.04.655,Slot Machine Game,2023.1.3,Win32,60.24096386,,,,,,,,,,,,,,,,,,,,,,,,,,,310,,,,,,,,,,,,,,,,,,4,4,,,402.6361,4,up,1.4555,404.1183,1.5,0.3,"[2,3,1]",0.902683913,stimuli/card_0_transparent.png,0,4,0,4,0,1,,,,,,,,,,
,,,,63d6e094b8a428e66ef567f7,B,2024-08-21_16h44.04.655,Slot Machine Game,2023.1.3,Win32,60.24096386,,,,,,,,,,,,,,,,,,,,,,,,,,,310,,,,,,,,,,,,,,,,,,4,4,,,405.9163,5,up,1.8714,407.8152,1,0.3,"[2,3,1]",0.462917574,stimuli/card_0_transparent.png,0,5,0,5,0,1,,,,,,,,,,
,,,,63d6e094b8a428e66ef567f7,B,2024-08-21_16h44.04.655,Slot Machine Game,2023.1.3,Win32,60.24096386,,,,,,,,,,,,,,,,,,,,,,,,,,,310,,,,,,,,,,,,,,,,,,4,4,,,409.1133,6,up,1.2911,410.429,1.5,0.3,"[2,3,1]",0.899302886,stimuli/card_0_transparent.png,0,6,0,6,0,1,,,,,,,,,,
,,,,63d6e094b8a428e66ef567f7,B,2024-08-21_16h44.04.655,Slot Machine Game,2023.1.3,Win32,60.24096386,,,,,,,,,,,,,,,,,,,,,,,,,,,410,,,,,,,,,,,,,,,,,,4,4,,,412.2269,7,left,0.9641,413.2274,1.5,0.3,"[1,2,3]",0.685405096,stimuli/card_100_transparent.png,100,7,0,7,0,1,,,,,,,,,,
,,,,63d6e094b8a428e66ef567f7,B,2024-08-21_16h44.04.655,Slot Machine Game,2023.1.3,Win32,60.24096386,,,,,,,,,,,,,,,,,,,,,,,,,,,420,,,,,,,,,,,,,,,,,,4,4,,,415.0239,8,up,0.7194,415.7742,1.5,0.3,"[1,2,3]",0.846459821,stimuli/card_10_transparent.png,10,8,0,8,0,1,,,,,,,,,,
,,,,63d6e094b8a428e66ef567f7,B,2024-08-21_16h44.04.655,Slot Machine Game,2023.1.3,Win32,60.24096386,,,,,,,,,,,,,,,,,,,,,,,,,,,430,,,,,,,,,,,,,,,,,,4,4,,,417.5716,9,up,1.472,419.0716,1,0.3,"[1,2,3]",0.970314822,stimuli/card_10_transparent.png,10,9,0,9,0,1,,,,,,,,,,
,,,,63d6e094b8a428e66ef567f7,B,2024-08-21_16h44.04.655,Slot Machine Game,2023.1.3,Win32,60.24096386,,,,,,,,,,,,,,,,,,,,,,,,,,,440,,,,,,,,,,,,,,,,,,4,4,,,420.3692,10,up,0.5203,420.9194,1.5,0.3,"[1,2,3]",0.925773597,stimuli/card_10_transparent.png,10,10,0,10,0,1,,,,,,,,,,
,,,,63d6e094b8a428e66ef567f7,B,2024-08-21_16h44.04.655,Slot Machine Game,2023.1.3,Win32,60.24096386,,,,,,,,,,,,,,,,,,,,,,,,,,,440,,,,,,,,,,,,,,,,,,4,4,,,422.7165,11,right,1.324,424.0654,1.5,0.3,"[1,2,3]",0.612594111,stimuli/card_0_transparent.png,0,11,0,11,0,1,,,,,,,,,,
,,,,63d6e094b8a428e66ef567f7,B,2024-08-21_16h44.04.655,Slot Machine Game,2023.1.3,Win32,60.24096386,,,,,,,,,,,,,,,,,,,,,,,,,,,450,,,,,,,,,,,,,,,,,,4,4,,,425.8631,12,up,0.9022,426.8028,1.5,0.3,"[1,2,3]",0.633580029,stimuli/card_10_transparent.png,10,12,0,12,0,1,,,,,,,,,,
,,,,63d6e094b8a428e66ef567f7,B,2024-08-21_16h44.04.655,Slot Machine Game,2023.1.3,Win32,60.24096386,,,,,,,,,,,,,,,,,,,,,,,,,,,460,,,,,,,,,,,,,,,,,,4,4,,,428.5938,13,up,1.0367,429.6606,1,0.3,"[1,2,3]",0.928435784,stimuli/card_10_transparent.png,10,13,0,13,0,1,,,,,,,,,,
,,,,63d6e094b8a428e66ef567f7,B,2024-08-21_16h44.04.655,Slot Machine Game,2023.1.3,Win32,60.24096386,,,,,,,,,,,,,,,,,,,,,,,,,,,560,,,,,,,,,,,,,,,,,,4,4,,,430.9584,14,left,0.8303,431.8123,1.5,0.3,"[1,2,3]",0.22826581,stimuli/card_100_transparent.png,100,14,0,14,0,1,,,,,,,,,,
,,,,63d6e094b8a428e66ef567f7,B,2024-08-21_16h44.04.655,Slot Machine Game,2023.1.3,Win32,60.24096386,,,,,,,,,,,,,,,,,,,,,,,,,,,,,,,,,,433.6059,,,,,,,,,,,,,,,,,,,,,,,,,,,,,,,"[660,840,1030,560]",3,0,3,0,1,,,,
,,,,63d6e094b8a428e66ef567f7,B,2024-08-21_16h44.04.655,Slot Machine Game,2023.1.3,Win32,60.24096386,,,,,,,,,,,,,,,,,,,,,,,,,,,0,,,,,,,,,,,,,,,,,,5,5,"[5,15]","[[1,2,3],[3,1,2]]",438.6244,0,right,0.9877,439.6319,1.5,0.3,"[1,2,3]",0.269600008,stimuli/card_0_transparent.png,0,0,0,0,0,1,,,,,,,,,,
,,,,63d6e094b8a428e66ef567f7,B,2024-08-21_16h44.04.655,Slot Machine Game,2023.1.3,Win32,60.24096386,,,,,,,,,,,,,,,,,,,,,,,,,,,10,,,,,,,,,,,,,,,,,,5,5,,,441.4299,1,up,1.3125,442.7622,1.5,0.3,"[1,2,3]",0.786822108,stimuli/card_10_transparent.png,10,1,0,1,0,1,,,,,,,,,,
,,,,63d6e094b8a428e66ef567f7,B,2024-08-21_16h44.04.655,Slot Machine Game,2023.1.3,Win32,60.24096386,,,,,,,,,,,,,,,,,,,,,,,,,,,20,,,,,,,,,,,,,,,,,,5,5,,,444.5601,2,up,0.5837,445.1762,0.5,0.3,"[1,2,3]",0.348026223,stimuli/card_10_transparent.png,10,2,0,2,0,1,,,,,,,,,,
,,,,63d6e094b8a428e66ef567f7,B,2024-08-21_16h44.04.655,Slot Machine Game,2023.1.3,Win32,60.24096386,,,,,,,,,,,,,,,,,,,,,,,,,,,20,,,,,,,,,,,,,,,,,,5,5,,,445.9753,3,right,0.6937,446.6913,1,0.3,"[1,2,3]",0.897904253,stimuli/card_0_transparent.png,0,3,0,3,0,1,,,,,,,,,,
,,,,63d6e094b8a428e66ef567f7,B,2024-08-21_16h44.04.655,Slot Machine Game,2023.1.3,Win32,60.24096386,,,,,,,,,,,,,,,,,,,,,,,,,,,30,,,,,,,,,,,,,,,,,,5,5,,,447.9901,4,up,1.1522,449.1724,1.5,0.3,"[1,2,3]",0.711284229,stimuli/card_10_transparent.png,10,4,0,4,0,1,,,,,,,,,,
,,,,63d6e094b8a428e66ef567f7,B,2024-08-21_16h44.04.655,Slot Machine Game,2023.1.3,Win32,60.24096386,,,,,,,,,,,,,,,,,,,,,,,,,,,130,,,,,,,,,,,,,,,,,,5,5,,,450.9706,5,right,0.5183,451.52,1.5,0.3,"[3,1,2]",0.178570405,stimuli/card_100_transparent.png,100,5,0,5,0,1,,,,,,,,,,
,,,,63d6e094b8a428e66ef567f7,B,2024-08-21_16h44.04.655,Slot Machine Game,2023.1.3,Win32,60.24096386,,,,,,,,,,,,,,,,,,,,,,,,,,,140,,,,,,,,,,,,,,,,,,5,5,,,453.3183,6,right,1.1755,454.5182,1,0.3,"[3,1,2]",0.957991643,stimuli/card_10_transparent.png,10,6,0,6,0,1,,,,,,,,,,
,,,,63d6e094b8a428e66ef567f7,B,2024-08-21_16h44.04.655,Slot Machine Game,2023.1.3,Win32,60.24096386,,,,,,,,,,,,,,,,,,,,,,,,,,,240,,,,,,,,,,,,,,,,,,5,5,,,455.8168,7,right,1.2514,457.1,1,0.3,"[3,1,2]",0.191126181,stimuli/card_100_transparent.png,100,7,0,7,0,1,,,,,,,,,,
,,,,63d6e094b8a428e66ef567f7,B,2024-08-21_16h44.04.655,Slot Machine Game,2023.1.3,Win32,60.24096386,,,,,,,,,,,,,,,,,,,,,,,,,,,340,,,,,,,,,,,,,,,,,,5,5,,,458.3985,8,up,2.2622,460.6955,1,0.3,"[3,1,2]",0.842649998,stimuli/card_100_transparent.png,100,8,0,8,0,1,,,,,,,,,,
,,,,63d6e094b8a428e66ef567f7,B,2024-08-21_16h44.04.655,Slot Machine Game,2023.1.3,Win32,60.24096386,,,,,,,,,,,,,,,,,,,,,,,,,,,340,,,,,,,,,,,,,,,,,,5,5,,,461.9948,9,left,1.7975,463.816,0.5,0.3,"[3,1,2]",0.350966067,stimuli/card_0_transparent.png,0,9,0,9,0,1,,,,,,,,,,
,,,,63d6e094b8a428e66ef567f7,B,2024-08-21_16h44.04.655,Slot Machine Game,2023.1.3,Win32,60.24096386,,,,,,,,,,,,,,,,,,,,,,,,,,,340,,,,,,,,,,,,,,,,,,5,5,,,464.611,10,left,0.5213,465.1587,1.5,0.3,"[3,1,2]",0.626816659,stimuli/card_0_transparent.png,0,10,0,10,0,1,,,,,,,,,,
,,,,63d6e094b8a428e66ef567f7,B,2024-08-21_16h44.04.655,Slot Machine Game,2023.1.3,Win32,60.24096386,,,,,,,,,,,,,,,,,,,,,,,,,,,350,,,,,,,,,,,,,,,,,,5,5,,,466.9477,11,right,0.8177,467.7895,0.5,0.3,"[3,1,2]",0.42303561,stimuli/card_10_transparent.png,10,11,0,11,0,1,,,,,,,,,,
,,,,63d6e094b8a428e66ef567f7,B,2024-08-21_16h44.04.655,Slot Machine Game,2023.1.3,Win32,60.24096386,,,,,,,,,,,,,,,,,,,,,,,,,,,450,,,,,,,,,,,,,,,,,,5,5,,,468.5883,12,up,0.8084,469.4215,1,0.3,"[3,1,2]",0.200598984,stimuli/card_100_transparent.png,100,12,0,12,0,1,,,,,,,,,,
,,,,63d6e094b8a428e66ef567f7,B,2024-08-21_16h44.04.655,Slot Machine Game,2023.1.3,Win32,60.24096386,,,,,,,,,,,,,,,,,,,,,,,,,,,460,,,,,,,,,,,,,,,,,,5,5,,,470.7194,13,right,0.8389,471.5861,0.5,0.3,"[3,1,2]",0.638473359,stimuli/card_10_transparent.png,10,13,0,13,0,1,,,,,,,,,,
,,,,63d6e094b8a428e66ef567f7,B,2024-08-21_16h44.04.655,Slot Machine Game,2023.1.3,Win32,60.24096386,,,,,,,,,,,,,,,,,,,,,,,,,,,460,,,,,,,,,,,,,,,,,,5,5,,,472.3844,14,left,0.7351,473.1508,0.5,0.3,"[3,1,2]",0.761268041,stimuli/card_0_transparent.png,0,14,0,14,0,1,,,,,,,,,,
,,,,63d6e094b8a428e66ef567f7,B,2024-08-21_16h44.04.655,Slot Machine Game,2023.1.3,Win32,60.24096386,,,,,,,,,,,,,,,,,,,,,,,,,,,,,,,,,,473.9498,,,,,,,,,,,,,,,,,,,,,,,,,,,,,,,"[660,840,1030,560,460]",4,0,4,0,1,,,,
,,,,63d6e094b8a428e66ef567f7,B,2024-08-21_16h44.04.655,Slot Machine Game,2023.1.3,Win32,60.24096386,,,,,,,,,,,,,,,,,,,,,,,,,,,100,,,,,,,,,,,,,,,,,,6,6,"[4,10,15]","[[2,3,1],[1,3,2],[3,2,1]]",479.0196,0,right,1.4551,480.4938,1,0.3,"[2,3,1]",0.716567775,stimuli/card_100_transparent.png,100,0,0,0,0,1,,,,,,,,,,
,,,,63d6e094b8a428e66ef567f7,B,2024-08-21_16h44.04.655,Slot Machine Game,2023.1.3,Win32,60.24096386,,,,,,,,,,,,,,,,,,,,,,,,,,,100,,,,,,,,,,,,,,,,,,6,6,,,481.7921,1,up,1.6536,483.4742,1,0.3,"[2,3,1]",0.418867912,stimuli/card_0_transparent.png,0,1,0,1,0,1,,,,,,,,,,
,,,,63d6e094b8a428e66ef567f7,B,2024-08-21_16h44.04.655,Slot Machine Game,2023.1.3,Win32,60.24096386,,,,,,,,,,,,,,,,,,,,,,,,,,,100,,,,,,,,,,,,,,,,,,6,6,,,484.7725,2,up,1.3196,486.1214,0.5,0.3,"[2,3,1]",0.73758836,stimuli/card_0_transparent.png,0,2,0,2,0,1,,,,,,,,,,
,,,,63d6e094b8a428e66ef567f7,B,2024-08-21_16h44.04.655,Slot Machine Game,2023.1.3,Win32,60.24096386,,,,,,,,,,,,,,,,,,,,,,,,,,,200,,,,,,,,,,,,,,,,,,6,6,,,486.9216,3,right,1.0506,488.007,1.5,0.3,"[2,3,1]",0.51524315,stimuli/card_100_transparent.png,100,3,0,3,0,1,,,,,,,,,,
,,,,63d6e094b8a428e66ef567f7,B,2024-08-21_16h44.04.655,Slot Machine Game,2023.1.3,Win32,60.24096386,,,,,,,,,,,,,,,,,,,,,,,,,,,210,,,,,,,,,,,,,,,,,,6,6,,,489.801,4,right,0.9866,490.817,0.5,0.3,"[1,3,2]",0.562940516,stimuli/card_10_transparent.png,10,4,0,4,0,1,,,,,,,,,,
,,,,63d6e094b8a428e66ef567f7,B,2024-08-21_16h44.04.655,Slot Machine Game,2023.1.3,Win32,60.24096386,,,,,,,,,,,,,,,,,,,,,,,,,,,210,,,,,,,,,,,,,,,,,,6,6,,,491.6157,5,up,1.9871,493.6476,1,0.3,"[1,3,2]",0.343808736,stimuli/card_0_transparent.png,0,5,0,5,0,1,,,,,,,,,,
,,,,63d6e094b8a428e66ef567f7,B,2024-08-21_16h44.04.655,Slot Machine Game,2023.1.3,Win32,60.24096386,,,,,,,,,,,,,,,,,,,,,,,,,,,220,,,,,,,,,,,,,,,,,,6,6,,,494.946,6,right,0.9028,495.8785,1.5,0.3,"[1,3,2]",0.817771819,stimuli/card_10_transparent.png,10,6,0,6,0,1,,,,,,,,,,
,,,,63d6e094b8a428e66ef567f7,B,2024-08-21_16h44.04.655,Slot Machine Game,2023.1.3,Win32,60.24096386,,,,,,,,,,,,,,,,,,,,,,,,,,,230,,,,,,,,,,,,,,,,,,6,6,,,497.6765,7,up,0.8202,498.5271,1,0.3,"[1,3,2]",0.144199445,stimuli/card_10_transparent.png,10,7,0,7,0,1,,,,,,,,,,
,,,,63d6e094b8a428e66ef567f7,B,2024-08-21_16h44.04.655,Slot Machine Game,2023.1.3,Win32,60.24096386,,,,,,,,,,,,,,,,,,,,,,,,,,,230,,,,,,,,,,,,,,,,,,6,6,,,499.824,8,left,0.652,500.5073,0.5,0.3,"[1,3,2]",0.021660826,stimuli/card_0_transparent.png,0,8,0,8,0,1,,,,,,,,,,
,,,,63d6e094b8a428e66ef567f7,B,2024-08-21_16h44.04.655,Slot Machine Game,2023.1.3,Win32,60.24096386,,,,,,,,,,,,,,,,,,,,,,,,,,,230,,,,,,,,,,,,,,,,,,6,6,,,501.3063,9,up,1.516,502.8555,1,0.3,"[1,3,2]",0.689363258,stimuli/card_0_transparent.png,0,9,0,9,0,1,,,,,,,,,,
,,,,63d6e094b8a428e66ef567f7,B,2024-08-21_16h44.04.655,Slot Machine Game,2023.1.3,Win32,60.24096386,,,,,,,,,,,,,,,,,,,,,,,,,,,330,,,,,,,,,,,,,,,,,,6,6,,,504.1541,10,right,0.6643,504.8532,0.5,0.3,"[3,2,1]",0.673572464,stimuli/card_100_transparent.png,100,10,0,10,0,1,,,,,,,,,,
,,,,63d6e094b8a428e66ef567f7,B,2024-08-21_16h44.04.655,Slot Machine Game,2023.1.3,Win32,60.24096386,,,,,,,,,,,,,,,,,,,,,,,,,,,340,,,,,,,,,,,,,,,,,,6,6,,,505.6517,11,up,1.7684,507.4506,1,0.3,"[3,2,1]",0.724533632,stimuli/card_10_transparent.png,10,11,0,11,0,1,,,,,,,,,,
,,,,63d6e094b8a428e66ef567f7,B,2024-08-21_16h44.04.655,Slot Machine Game,2023.1.3,Win32,60.24096386,,,,,,,,,,,,,,,,,,,,,,,,,,,340,,,,,,,,,,,,,,,,,,6,6,,,508.7489,12,left,0.8567,509.6318,1.5,0.3,"[3,2,1]",0.298391233,stimuli/card_0_transparent.png,0,12,0,12,0,1,,,,,,,,,,
,,,,63d6e094b8a428e66ef567f7,B,2024-08-21_16h44.04.655,Slot Machine Game,2023.1.3,Win32,60.24096386,,,,,,,,,,,,,,,,,,,,,,,,,,,340,,,,,,,,,,,,,,,,,,6,6,,,511.4298,13,left,1.2072,512.6625,1,0.3,"[3,2,1]",0.806320422,stimuli/card_0_transparent.png,0,13,0,13,0,1,,,,,,,,,,
,,,,63d6e094b8a428e66ef567f7,B,2024-08-21_16h44.04.655,Slot Machine Game,2023.1.3,Win32,60.24096386,,,,,,,,,,,,,,,,,,,,,,,,,,,350,,,,,,,,,,,,,,,,,,6,6,,,513.9611,14,up,0.9016,514.8995,1,0.3,"[3,2,1]",0.953401611,stimuli/card_10_transparent.png,10,14,0,14,0,1,,,,,,,,,,
,,,,63d6e094b8a428e66ef567f7,B,2024-08-21_16h44.04.655,Slot Machine Game,2023.1.3,Win32,60.24096386,,,,,,,,,,,,,,,,,,,,,,,,,,,,,,,,,,516.1918,,,,,,,,,,,,,,,,,,,,,,,,,,,,,,,"[660,840,1030,560,460,350]",5,0,5,0,1,,,,
,,,,63d6e094b8a428e66ef567f7,B,2024-08-21_16h44.04.655,Slot Machine Game,2023.1.3,Win32,60.24096386,,,,,,,,,,,,,,,,,,,,,,,,,,,10,,,,,,,,,,,,,,,,,,7,7,"[9,15]","[[1,3,2],[2,3,1]]",521.2475,0,right,1.4339,522.7026,1,0.3,"[1,3,2]",0.298711791,stimuli/card_10_transparent.png,10,0,0,0,0,1,,,,,,,,,,
,,,,63d6e094b8a428e66ef567f7,B,2024-08-21_16h44.04.655,Slot Machine Game,2023.1.3,Win32,60.24096386,,,,,,,,,,,,,,,,,,,,,,,,,,,110,,,,,,,,,,,,,,,,,,7,7,,,524.0004,1,left,4.8485,528.8835,1,0.3,"[1,3,2]",0.457618912,stimuli/card_100_transparent.png,100,1,0,1,0,1,,,,,,,,,,
,,,,63d6e094b8a428e66ef567f7,B,2024-08-21_16h44.04.655,Slot Machine Game,2023.1.3,Win32,60.24096386,,,,,,,,,,,,,,,,,,,,,,,,,,,210,,,,,,,,,,,,,,,,,,7,7,,,530.1782,2,left,0.981,531.1833,0.5,0.3,"[1,3,2]",0.426307685,stimuli/card_100_transparent.png,100,2,0,2,0,1,,,,,,,,,,
,,,,63d6e094b8a428e66ef567f7,B,2024-08-21_16h44.04.655,Slot Machine Game,2023.1.3,Win32,60.24096386,,,,,,,,,,,,,,,,,,,,,,,,,,,310,,,,,,,,,,,,,,,,,,7,7,,,531.9759,3,left,0.7766,532.7757,0.5,0.3,"[1,3,2]",0.211217647,stimuli/card_100_transparent.png,100,3,0,3,0,1,,,,,,,,,,
,,,,63d6e094b8a428e66ef567f7,B,2024-08-21_16h44.04.655,Slot Machine Game,2023.1.3,Win32,60.24096386,,,,,,,,,,,,,,,,,,,,,,,,,,,410,,,,,,,,,,,,,,,,,,7,7,,,533.5752,4,left,2.7071,536.3096,1,0.3,"[1,3,2]",0.989292778,stimuli/card_100_transparent.png,100,4,0,4,0,1,,,,,,,,,,
,,,,63d6e094b8a428e66ef567f7,B,2024-08-21_16h44.04.655,Slot Machine Game,2023.1.3,Win32,60.24096386,,,,,,,,,,,,,,,,,,,,,,,,,,,410,,,,,,,,,,,,,,,,,,7,7,,,537.6041,5,right,0.9815,538.6035,1.5,0.3,"[1,3,2]",0.045757772,stimuli/card_0_transparent.png,0,5,0,5,0,1,,,,,,,,,,
,,,,63d6e094b8a428e66ef567f7,B,2024-08-21_16h44.04.655,Slot Machine Game,2023.1.3,Win32,60.24096386,,,,,,,,,,,,,,,,,,,,,,,,,,,510,,,,,,,,,,,,,,,,,,7,7,,,540.4009,6,left,1.6993,542.1176,1.5,0.3,"[1,3,2]",0.274522962,stimuli/card_100_transparent.png,100,6,0,6,0,1,,,,,,,,,,
,,,,63d6e094b8a428e66ef567f7,B,2024-08-21_16h44.04.655,Slot Machine Game,2023.1.3,Win32,60.24096386,,,,,,,,,,,,,,,,,,,,,,,,,,,610,,,,,,,,,,,,,,,,,,7,7,,,543.9143,7,up,1.3999,545.3464,1.5,0.3,"[1,3,2]",0.003712742,stimuli/card_100_transparent.png,100,7,0,7,0,1,,,,,,,,,,
,,,,63d6e094b8a428e66ef567f7,B,2024-08-21_16h44.04.655,Slot Machine Game,2023.1.3,Win32,60.24096386,,,,,,,,,,,,,,,,,,,,,,,,,,,620,,,,,,,,,,,,,,,,,,7,7,,,547.1445,8,right,1.0344,548.2109,1.5,0.3,"[1,3,2]",0.60290234,stimuli/card_10_transparent.png,10,8,0,8,0,1,,,,,,,,,,
,,,,63d6e094b8a428e66ef567f7,B,2024-08-21_16h44.04.655,Slot Machine Game,2023.1.3,Win32,60.24096386,,,,,,,,,,,,,,,,,,,,,,,,,,,630,,,,,,,,,,,,,,,,,,7,7,,,550.0087,9,left,0.5185,550.5583,1,0.3,"[2,3,1]",0.274650496,stimuli/card_10_transparent.png,10,9,0,9,0,1,,,,,,,,,,
,,,,63d6e094b8a428e66ef567f7,B,2024-08-21_16h44.04.655,Slot Machine Game,2023.1.3,Win32,60.24096386,,,,,,,,,,,,,,,,,,,,,,,,,,,630,,,,,,,,,,,,,,,,,,7,7,,,551.8565,10,up,0.7718,552.6565,1,0.3,"[2,3,1]",0.583411749,stimuli/card_0_transparent.png,0,10,0,10,0,1,,,,,,,,,,
,,,,63d6e094b8a428e66ef567f7,B,2024-08-21_16h44.04.655,Slot Machine Game,2023.1.3,Win32,60.24096386,,,,,,,,,,,,,,,,,,,,,,,,,,,630,,,,,,,,,,,,,,,,,,7,7,,,553.946,11,up,1.4043,555.3709,1.5,0.3,"[2,3,1]",0.841373284,stimuli/card_0_transparent.png,0,11,0,11,0,1,,,,,,,,,,
,,,,63d6e094b8a428e66ef567f7,B,2024-08-21_16h44.04.655,Slot Machine Game,2023.1.3,Win32,60.24096386,,,,,,,,,,,,,,,,,,,,,,,,,,,640,,,,,,,,,,,,,,,,,,7,7,,,557.1683,12,left,0.5114,557.7029,1,0.3,"[2,3,1]",0.330920355,stimuli/card_10_transparent.png,10,12,0,12,0,1,,,,,,,,,,
,,,,63d6e094b8a428e66ef567f7,B,2024-08-21_16h44.04.655,Slot Machine Game,2023.1.3,Win32,60.24096386,,,,,,,,,,,,,,,,,,,,,,,,,,,640,,,,,,,,,,,,,,,,,,7,7,,,559,13,left,0.968,559.9997,0.5,0.3,"[2,3,1]",0.049513107,stimuli/card_0_transparent.png,0,13,0,13,0,1,,,,,,,,,,
,,,,63d6e094b8a428e66ef567f7,B,2024-08-21_16h44.04.655,Slot Machine Game,2023.1.3,Win32,60.24096386,,,,,,,,,,,,,,,,,,,,,,,,,,,740,,,,,,,,,,,,,,,,,,7,7,,,560.7986,14,left,1.7464,562.5783,0.5,0.3,"[2,3,1]",0.127599169,stimuli/card_100_transparent.png,100,14,0,14,0,1,,,,,,,,,,
,,,,63d6e094b8a428e66ef567f7,B,2024-08-21_16h44.04.655,Slot Machine Game,2023.1.3,Win32,60.24096386,,,,,,,,,,,,,,,,,,,,,,,,,,,,,,,,,,563.3782,,,,,,,,,,,,,,,,,,,,,,,,,,,,,,,"[660,840,1030,560,460,350,740]",6,0,6,0,1,,,,
,,,,63d6e094b8a428e66ef567f7,B,2024-08-21_16h44.04.655,Slot Machine Game,2023.1.3,Win32,60.24096386,,,,,,,,,,,,,,,,,,,,,,,,,,,0,,,,,,,,,,,,,,,,,,8,8,"[11,15]","[[2,1,3],[1,2,3]]",568.4375,0,right,0.7177,569.1732,1,0.3,"[2,1,3]",0.208593906,stimuli/card_0_transparent.png,0,0,0,0,0,1,,,,,,,,,,
,,,,63d6e094b8a428e66ef567f7,B,2024-08-21_16h44.04.655,Slot Machine Game,2023.1.3,Win32,60.24096386,,,,,,,,,,,,,,,,,,,,,,,,,,,10,,,,,,,,,,,,,,,,,,8,8,,,570.4716,1,left,1.4208,571.9217,1,0.3,"[2,1,3]",0.604336955,stimuli/card_10_transparent.png,10,1,0,1,0,1,,,,,,,,,,
,,,,63d6e094b8a428e66ef567f7,B,2024-08-21_16h44.04.655,Slot Machine Game,2023.1.3,Win32,60.24096386,,,,,,,,,,,,,,,,,,,,,,,,,,,20,,,,,,,,,,,,,,,,,,8,8,,,573.2192,2,right,1.2572,574.5183,1,0.3,"[2,1,3]",0.103286627,stimuli/card_10_transparent.png,10,2,0,2,0,1,,,,,,,,,,
,,,,63d6e094b8a428e66ef567f7,B,2024-08-21_16h44.04.655,Slot Machine Game,2023.1.3,Win32,60.24096386,,,,,,,,,,,,,,,,,,,,,,,,,,,30,,,,,,,,,,,,,,,,,,8,8,,,575.8167,3,left,1.3907,577.2327,1,0.3,"[2,1,3]",0.856674281,stimuli/card_10_transparent.png,10,3,0,3,0,1,,,,,,,,,,
,,,,63d6e094b8a428e66ef567f7,B,2024-08-21_16h44.04.655,Slot Machine Game,2023.1.3,Win32,60.24096386,,,,,,,,,,,,,,,,,,,,,,,,,,,40,,,,,,,,,,,,,,,,,,8,8,,,578.5303,4,left,2.4519,581.0123,1.5,0.3,"[2,1,3]",0.483695157,stimuli/card_10_transparent.png,10,4,0,4,0,1,,,,,,,,,,
,,,,63d6e094b8a428e66ef567f7,B,2024-08-21_16h44.04.655,Slot Machine Game,2023.1.3,Win32,60.24096386,,,,,,,,,,,,,,,,,,,,,,,,,,,40,,,,,,,,,,,,,,,,,,8,8,,,582.8102,5,right,0.9433,583.7806,1.5,0.3,"[2,1,3]",0.36129353,stimuli/card_0_transparent.png,0,5,0,5,0,1,,,,,,,,,,
,,,,63d6e094b8a428e66ef567f7,B,2024-08-21_16h44.04.655,Slot Machine Game,2023.1.3,Win32,60.24096386,,,,,,,,,,,,,,,,,,,,,,,,,,,140,,,,,,,,,,,,,,,,,,8,8,,,585.5738,6,up,1.1007,586.7068,0.5,0.3,"[2,1,3]",0.819985582,stimuli/card_100_transparent.png,100,6,0,6,0,1,,,,,,,,,,
,,,,63d6e094b8a428e66ef567f7,B,2024-08-21_16h44.04.655,Slot Machine Game,2023.1.3,Win32,60.24096386,,,,,,,,,,,,,,,,,,,,,,,,,,,150,,,,,,,,,,,,,,,,,,8,8,,,587.5053,7,left,0.8678,588.4053,0.5,0.3,"[2,1,3]",0.801983144,stimuli/card_10_transparent.png,10,7,0,7,0,1,,,,,,,,,,
,,,,63d6e094b8a428e66ef567f7,B,2024-08-21_16h44.04.655,Slot Machine Game,2023.1.3,Win32,60.24096386,,,,,,,,,,,,,,,,,,,,,,,,,,,150,,,,,,,,,,,,,,,,,,8,8,,,589.2037,8,right,0.5854,589.8199,1,0.3,"[2,1,3]",0.689697387,stimuli/card_0_transparent.png,0,8,0,8,0,1,,,,,,,,,,
,,,,63d6e094b8a428e66ef567f7,B,2024-08-21_16h44.04.655,Slot Machine Game,2023.1.3,Win32,60.24096386,,,,,,,,,,,,,,,,,,,,,,,,,,,250,,,,,,,,,,,,,,,,,,8,8,,,591.1188,9,up,0.7432,591.9014,1.5,0.3,"[2,1,3]",0.216371576,stimuli/card_100_transparent.png,100,9,0,9,0,1,,,,,,,,,,
,,,,63d6e094b8a428e66ef567f7,B,2024-08-21_16h44.04.655,Slot Machine Game,2023.1.3,Win32,60.24096386,,,,,,,,,,,,,,,,,,,,,,,,,,,260,,,,,,,,,,,,,,,,,,8,8,,,593.6989,10,right,0.8516,594.5812,1.5,0.3,"[2,1,3]",0.188115214,stimuli/card_10_transparent.png,10,10,0,10,0,1,,,,,,,,,,
,,,,63d6e094b8a428e66ef567f7,B,2024-08-21_16h44.04.655,Slot Machine Game,2023.1.3,Win32,60.24096386,,,,,,,,,,,,,,,,,,,,,,,,,,,270,,,,,,,,,,,,,,,,,,8,8,,,596.3801,11,up,0.8662,597.2818,1.5,0.3,"[1,2,3]",0.316009953,stimuli/card_10_transparent.png,10,11,0,11,0,1,,,,,,,,,,
,,,,63d6e094b8a428e66ef567f7,B,2024-08-21_16h44.04.655,Slot Machine Game,2023.1.3,Win32,60.24096386,,,,,,,,,,,,,,,,,,,,,,,,,,,280,,,,,,,,,,,,,,,,,,8,8,,,599.0772,12,left,0.6701,599.777,1.5,0.3,"[1,2,3]",0.164513906,stimuli/card_10_transparent.png,10,12,0,12,0,1,,,,,,,,,,
,,,,63d6e094b8a428e66ef567f7,B,2024-08-21_16h44.04.655,Slot Machine Game,2023.1.3,Win32,60.24096386,,,,,,,,,,,,,,,,,,,,,,,,,,,380,,,,,,,,,,,,,,,,,,8,8,,,601.5753,13,right,0.7221,602.341,1.5,0.3,"[1,2,3]",0.026114799,stimuli/card_100_transparent.png,100,13,0,13,0,1,,,,,,,,,,
,,,,63d6e094b8a428e66ef567f7,B,2024-08-21_16h44.04.655,Slot Machine Game,2023.1.3,Win32,60.24096386,,,,,,,,,,,,,,,,,,,,,,,,,,,390,,,,,,,,,,,,,,,,,,8,8,,,604.139,14,up,0.5561,604.7225,1,0.3,"[1,2,3]",0.679516891,stimuli/card_10_transparent.png,10,14,0,14,0,1,,,,,,,,,,
,,,,63d6e094b8a428e66ef567f7,B,2024-08-21_16h44.04.655,Slot Machine Game,2023.1.3,Win32,60.24096386,,,,,,,,,,,,,,,,,,,,,,,,,,,,,,,,,,606.0201,,,,,,,,,,,,,,,,,,,,,,,,,,,,,,,"[660,840,1030,560,460,350,740,390]",7,0,7,0,1,,,,
,,,,63d6e094b8a428e66ef567f7,B,2024-08-21_16h44.04.655,Slot Machine Game,2023.1.3,Win32,60.24096386,,,,,,,,,,,,,,,,,,,,,,,,,,,10,,,,,,,,,,,,,,,,,,9,9,"[8,15]","[[3,2,1],[3,1,2]]",611.0832,0,left,0.7875,611.8982,0.5,0.3,"[3,2,1]",0.130161584,stimuli/card_10_transparent.png,10,0,0,0,0,1,,,,,,,,,,
,,,,63d6e094b8a428e66ef567f7,B,2024-08-21_16h44.04.655,Slot Machine Game,2023.1.3,Win32,60.24096386,,,,,,,,,,,,,,,,,,,,,,,,,,,20,,,,,,,,,,,,,,,,,,9,9,,,612.6968,1,up,1.2707,613.9961,0.5,0.3,"[3,2,1]",0.849112247,stimuli/card_10_transparent.png,10,1,0,1,0,1,,,,,,,,,,
,,,,63d6e094b8a428e66ef567f7,B,2024-08-21_16h44.04.655,Slot Machine Game,2023.1.3,Win32,60.24096386,,,,,,,,,,,,,,,,,,,,,,,,,,,120,,,,,,,,,,,,,,,,,,9,9,,,614.7948,2,right,0.8684,615.6944,0.5,0.3,"[3,2,1]",0.744234131,stimuli/card_100_transparent.png,100,2,0,2,0,1,,,,,,,,,,
,,,,63d6e094b8a428e66ef567f7,B,2024-08-21_16h44.04.655,Slot Machine Game,2023.1.3,Win32,60.24096386,,,,,,,,,,,,,,,,,,,,,,,,,,,220,,,,,,,,,,,,,,,,,,9,9,,,616.4931,3,left,0.62,617.1431,1,0.3,"[3,2,1]",0.005930675,stimuli/card_100_transparent.png,100,3,0,3,0,1,,,,,,,,,,
,,,,63d6e094b8a428e66ef567f7,B,2024-08-21_16h44.04.655,Slot Machine Game,2023.1.3,Win32,60.24096386,,,,,,,,,,,,,,,,,,,,,,,,,,,220,,,,,,,,,,,,,,,,,,9,9,,,618.4412,4,right,0.6386,619.1075,0.5,0.3,"[3,2,1]",0.097473053,stimuli/card_0_transparent.png,0,4,0,4,0,1,,,,,,,,,,
,,,,63d6e094b8a428e66ef567f7,B,2024-08-21_16h44.04.655,Slot Machine Game,2023.1.3,Win32,60.24096386,,,,,,,,,,,,,,,,,,,,,,,,,,,230,,,,,,,,,,,,,,,,,,9,9,,,619.9066,5,up,1.0679,621.006,0.5,0.3,"[3,2,1]",0.747477999,stimuli/card_10_transparent.png,10,5,0,5,0,1,,,,,,,,,,
,,,,63d6e094b8a428e66ef567f7,B,2024-08-21_16h44.04.655,Slot Machine Game,2023.1.3,Win32,60.24096386,,,,,,,,,,,,,,,,,,,,,,,,,,,330,,,,,,,,,,,,,,,,,,9,9,,,621.8048,6,left,1.6849,623.521,1,0.3,"[3,2,1]",0.009716021,stimuli/card_100_transparent.png,100,6,0,6,0,1,,,,,,,,,,
,,,,63d6e094b8a428e66ef567f7,B,2024-08-21_16h44.04.655,Slot Machine Game,2023.1.3,Win32,60.24096386,,,,,,,,,,,,,,,,,,,,,,,,,,,340,,,,,,,,,,,,,,,,,,9,9,,,624.8184,7,up,1.4014,626.2397,0.5,0.3,"[3,2,1]",0.946666214,stimuli/card_10_transparent.png,10,7,0,7,0,1,,,,,,,,,,
,,,,63d6e094b8a428e66ef567f7,B,2024-08-21_16h44.04.655,Slot Machine Game,2023.1.3,Win32,60.24096386,,,,,,,,,,,,,,,,,,,,,,,,,,,350,,,,,,,,,,,,,,,,,,9,9,,,627.0373,8,right,2.2188,629.2881,1.5,0.3,"[3,1,2]",0.850573483,stimuli/card_10_transparent.png,10,8,0,8,0,1,,,,,,,,,,
,,,,63d6e094b8a428e66ef567f7,B,2024-08-21_16h44.04.655,Slot Machine Game,2023.1.3,Win32,60.24096386,,,,,,,,,,,,,,,,,,,,,,,,,,,450,,,,,,,,,,,,,,,,,,9,9,,,631.0834,9,up,1.1839,632.2958,0.5,0.3,"[3,1,2]",0.93589031,stimuli/card_100_transparent.png,100,9,0,9,0,1,,,,,,,,,,
,,,,63d6e094b8a428e66ef567f7,B,2024-08-21_16h44.04.655,Slot Machine Game,2023.1.3,Win32,60.24096386,,,,,,,,,,,,,,,,,,,,,,,,,,,460,,,,,,,,,,,,,,,,,,9,9,,,633.0944,10,right,0.7354,633.8599,1,0.3,"[3,1,2]",0.95096226,stimuli/card_10_transparent.png,10,10,0,10,0,1,,,,,,,,,,
,,,,63d6e094b8a428e66ef567f7,B,2024-08-21_16h44.04.655,Slot Machine Game,2023.1.3,Win32,60.24096386,,,,,,,,,,,,,,,,,,,,,,,,,,,460,,,,,,,,,,,,,,,,,,9,9,,,635.1585,11,left,0.5609,635.7428,1,0.3,"[3,1,2]",0.857647029,stimuli/card_0_transparent.png,0,11,0,11,0,1,,,,,,,,,,
,,,,63d6e094b8a428e66ef567f7,B,2024-08-21_16h44.04.655,Slot Machine Game,2023.1.3,Win32,60.24096386,,,,,,,,,,,,,,,,,,,,,,,,,,,560,,,,,,,,,,,,,,,,,,9,9,,,637.0405,12,up,0.6916,637.7565,1.5,0.3,"[3,1,2]",0.548076337,stimuli/card_100_transparent.png,100,12,0,12,0,1,,,,,,,,,,
,,,,63d6e094b8a428e66ef567f7,B,2024-08-21_16h44.04.655,Slot Machine Game,2023.1.3,Win32,60.24096386,,,,,,,,,,,,,,,,,,,,,,,,,,,560,,,,,,,,,,,,,,,,,,9,9,,,639.5565,13,left,1.7939,641.3861,1.5,0.3,"[3,1,2]",0.56478464,stimuli/card_0_transparent.png,0,13,0,13,0,1,,,,,,,,,,
,,,,63d6e094b8a428e66ef567f7,B,2024-08-21_16h44.04.655,Slot Machine Game,2023.1.3,Win32,60.24096386,,,,,,,,,,,,,,,,,,,,,,,,,,,560,,,,,,,,,,,,,,,,,,9,9,,,643.1845,14,left,0.8014,644.0177,1,0.3,"[3,1,2]",0.973524237,stimuli/card_0_transparent.png,0,14,0,14,0,1,,,,,,,,,,
,,,,63d6e094b8a428e66ef567f7,B,2024-08-21_16h44.04.655,Slot Machine Game,2023.1.3,Win32,60.24096386,,,,,,,,,,,,,,,,,,,,,,,,,,,,,,,,,,645.3158,,,,,,,,,,,,,,,,,,,,,,,,,,,,,,,"[660,840,1030,560,460,350,740,390,560]",8,0,8,0,1,,,,
,,,,63d6e094b8a428e66ef567f7,B,2024-08-21_16h44.04.655,Slot Machine Game,2023.1.3,Win32,60.24096386,,,,,,,,,,,,,,,,,,,,,,,,,,,10,,,,,,,,,,,,,,,,,,10,10,"[10,15]","[[3,1,2],[1,3,2]]",650.3704,0,right,0.5197,650.9101,0.5,0.3,"[3,1,2]",0.875552914,stimuli/card_10_transparent.png,10,0,0,0,0,1,,,,,,,,,,
,,,,63d6e094b8a428e66ef567f7,B,2024-08-21_16h44.04.655,Slot Machine Game,2023.1.3,Win32,60.24096386,,,,,,,,,,,,,,,,,,,,,,,,,,,110,,,,,,,,,,,,,,,,,,10,10,,,651.7094,1,up,2.0917,653.8405,0.5,0.3,"[3,1,2]",0.698973347,stimuli/card_100_transparent.png,100,1,0,1,0,1,,,,,,,,,,
,,,,63d6e094b8a428e66ef567f7,B,2024-08-21_16h44.04.655,Slot Machine Game,2023.1.3,Win32,60.24096386,,,,,,,,,,,,,,,,,,,,,,,,,,,120,,,,,,,,,,,,,,,,,,10,10,,,654.6395,2,left,0.8851,655.5559,1.5,0.3,"[3,1,2]",0.184976498,stimuli/card_10_transparent.png,10,2,0,2,0,1,,,,,,,,,,
,,,,63d6e094b8a428e66ef567f7,B,2024-08-21_16h44.04.655,Slot Machine Game,2023.1.3,Win32,60.24096386,,,,,,,,,,,,,,,,,,,,,,,,,,,220,,,,,,,,,,,,,,,,,,10,10,,,657.3534,3,up,1.1638,658.5417,1.5,0.3,"[3,1,2]",0.607526693,stimuli/card_100_transparent.png,100,3,0,3,0,1,,,,,,,,,,
,,,,63d6e094b8a428e66ef567f7,B,2024-08-21_16h44.04.655,Slot Machine Game,2023.1.3,Win32,60.24096386,,,,,,,,,,,,,,,,,,,,,,,,,,,220,,,,,,,,,,,,,,,,,,10,10,,,660.334,4,left,0.7095,661.0667,1.5,0.3,"[3,1,2]",0.522851909,stimuli/card_0_transparent.png,0,4,0,4,0,1,,,,,,,,,,
,,,,63d6e094b8a428e66ef567f7,B,2024-08-21_16h44.04.655,Slot Machine Game,2023.1.3,Win32,60.24096386,,,,,,,,,,,,,,,,,,,,,,,,,,,220,,,,,,,,,,,,,,,,,,10,10,,,662.8649,5,up,0.7973,663.6813,1,0.3,"[3,1,2]",0.083727004,stimuli/card_0_transparent.png,0,5,0,5,0,1,,,,,,,,,,
,,,,63d6e094b8a428e66ef567f7,B,2024-08-21_16h44.04.655,Slot Machine Game,2023.1.3,Win32,60.24096386,,,,,,,,,,,,,,,,,,,,,,,,,,,220,,,,,,,,,,,,,,,,,,10,10,,,664.9796,6,right,0.7597,665.7626,1,0.3,"[3,1,2]",0.08647091,stimuli/card_0_transparent.png,0,6,0,6,0,1,,,,,,,,,,
,,,,63d6e094b8a428e66ef567f7,B,2024-08-21_16h44.04.655,Slot Machine Game,2023.1.3,Win32,60.24096386,,,,,,,,,,,,,,,,,,,,,,,,,,,320,,,,,,,,,,,,,,,,,,10,10,,,667.0607,7,left,0.5233,667.6121,1,0.3,"[3,1,2]",0.002969092,stimuli/card_100_transparent.png,100,7,0,7,0,1,,,,,,,,,,
,,,,63d6e094b8a428e66ef567f7,B,2024-08-21_16h44.04.655,Slot Machine Game,2023.1.3,Win32,60.24096386,,,,,,,,,,,,,,,,,,,,,,,,,,,320,,,,,,,,,,,,,,,,,,10,10,,,668.9089,8,left,0.5754,669.4949,0.5,0.3,"[3,1,2]",0.834216347,stimuli/card_0_transparent.png,0,8,0,8,0,1,,,,,,,,,,
,,,,63d6e094b8a428e66ef567f7,B,2024-08-21_16h44.04.655,Slot Machine Game,2023.1.3,Win32,60.24096386,,,,,,,,,,,,,,,,,,,,,,,,,,,330,,,,,,,,,,,,,,,,,,10,10,,,670.2907,9,right,0.9076,671.2235,1.5,0.3,"[3,1,2]",0.720148033,stimuli/card_10_transparent.png,10,9,0,9,0,1,,,,,,,,,,
,,,,63d6e094b8a428e66ef567f7,B,2024-08-21_16h44.04.655,Slot Machine Game,2023.1.3,Win32,60.24096386,,,,,,,,,,,,,,,,,,,,,,,,,,,430,,,,,,,,,,,,,,,,,,10,10,,,673.0216,10,up,2.5165,675.5698,1.5,0.3,"[1,3,2]",0.000713232,stimuli/card_100_transparent.png,100,10,0,10,0,1,,,,,,,,,,
,,,,63d6e094b8a428e66ef567f7,B,2024-08-21_16h44.04.655,Slot Machine Game,2023.1.3,Win32,60.24096386,,,,,,,,,,,,,,,,,,,,,,,,,,,430,,,,,,,,,,,,,,,,,,10,10,,,677.3668,11,up,3.3612,680.7539,0.5,0.3,"[1,3,2]",0.879673714,stimuli/card_0_transparent.png,0,11,0,11,0,1,,,,,,,,,,
,,,,63d6e094b8a428e66ef567f7,B,2024-08-21_16h44.04.655,Slot Machine Game,2023.1.3,Win32,60.24096386,,,,,,,,,,,,,,,,,,,,,,,,,,,530,,,,,,,,,,,,,,,,,,10,10,,,681.5469,12,left,0.7512,682.3304,1,0.3,"[1,3,2]",0.291201836,stimuli/card_100_transparent.png,100,12,0,12,0,1,,,,,,,,,,
,,,,63d6e094b8a428e66ef567f7,B,2024-08-21_16h44.04.655,Slot Machine Game,2023.1.3,Win32,60.24096386,,,,,,,,,,,,,,,,,,,,,,,,,,,540,,,,,,,,,,,,,,,,,,10,10,,,683.6279,13,right,2.2584,685.926,1,0.3,"[1,3,2]",0.509707264,stimuli/card_10_transparent.png,10,13,0,13,0,1,,,,,,,,,,
,,,,63d6e094b8a428e66ef567f7,B,2024-08-21_16h44.04.655,Slot Machine Game,2023.1.3,Win32,60.24096386,,,,,,,,,,,,,,,,,,,,,,,,,,,640,,,,,,,,,,,,,,,,,,10,10,,,687.2243,14,left,0.7685,688.0241,1.5,0.3,"[1,3,2]",0.598407622,stimuli/card_100_transparent.png,100,14,0,14,0,1,,,,,,,,,,
,,,,63d6e094b8a428e66ef567f7,B,2024-08-21_16h44.04.655,Slot Machine Game,2023.1.3,Win32,60.24096386,,,,,,,,,,,,,,,,,,,,,,,,,,,,,,,,,,689.8218,,,,,,,,,,,,,,,,,,,,,,,,,,,,,,,"[660,840,1030,560,460,350,740,390,560,640]",9,0,9,0,1,,,,
,,,,63d6e094b8a428e66ef567f7,B,2024-08-21_16h44.04.655,Slot Machine Game,2023.1.3,Win32,60.24096386,,,,,,,,,,,,,,,,,,,,,,,,,,,,,,,,,,,,,,,,,,,,,,,,,,,,,,,,,,,,,,,,,,,,,,,9,"[660,840,1030,560,460,350,740,390,560,640]",4.6,2024-08-21_16h55.44.058
