participant,date,expName,psychopyVersion,OS,frameRate,key_resp_instruction1.started,key_resp_instruction1.keys,key_resp_instruction1.rt,key_resp_instruction1.duration,key_resp_instruction2.started,key_resp_instruction2.keys,key_resp_instruction2.rt,key_resp_instruction2.duration,key_resp_instruction3.started,key_resp_instruction3.keys,key_resp_instruction3.rt,key_resp_instruction3.duration,practiceCondition,practice_reward_seqs,key_resp_practice_slots.started,key_resp_practice_slots.keys,key_resp_practice_slots.rt,key_resp_practice_slots.duration,presentationInterval,"practice_reward_seq: 2,1,3",reward_Img,Cuml_rew,currentPracticeTrialReward,practice_trials.thisRepN,practice_trials.thisTrialN,practice_trials.thisN,practice_trials.thisIndex,practice_trials.ran,"practice_reward_seq: 2,3,1",text_block_break.started,practice_block.thisRepN,practice_block.thisTrialN,practice_block.thisN,practice_block.thisIndex,practice_block.ran,"practice_reward_seq: 1,3,2","practice_reward_seq: 3,1,2",key_resp_practice_end.started,key_resp_practice_end.keys,key_resp_practice_end.rt,key_resp_practice_end.duration,text_main_instruction.started,BlockCondition,BlockOrderIndices,key_resp_main_instruction.started,key_resp_main_instruction.keys,key_resp_main_instruction.rt,key_resp_main_instruction.duration
,2023-09-27_18h01.39.508,slotMachine_updated,2023.1.3,MacIntel,60.06006007,,,,,,,,,,,,,,,,,,,,,,,,,,,,,,,,,,,,,,,,,,,,,,,,
,2023-09-27_18h01.39.508,slotMachine_updated,2023.1.3,MacIntel,60.06006007,125.0646,space,3.6276,,,,,,,,,,,,,,,,,,,,,,,,,,,,,,,,,,,,,,,,,,,,,
,2023-09-27_18h01.39.508,slotMachine_updated,2023.1.3,MacIntel,60.06006007,,,,,128.7149,space,0.4943,,,,,,,,,,,,,,,,,,,,,,,,,,,,,,,,,,,,,,,,,
,2023-09-27_18h01.39.508,slotMachine_updated,2023.1.3,MacIntel,60.06006007,,,,,,,,,129.2299,space,0.4818,,,,,,,,,,,,,,,,,,,,,,,,,,,,,,,,,,,,,
,2023-09-27_18h01.39.508,slotMachine_updated,2023.1.3,MacIntel,60.06006007,,,,,,,,,,,,,"[9,15]","[[2,1,3],[2,3,1]]",129.7359,up,2.7688,,0.5,,stimuli/card_100_transparent.png,100,100,0,0,0,0,1,,,,,,,,,,,,,,,,,,,,
,2023-09-27_18h01.39.508,slotMachine_updated,2023.1.3,MacIntel,60.06006007,,,,,,,,,,,,,,,133.3608,up,2.1045,,1.5,,stimuli/card_10_transparent.png,110,10,1,0,1,0,1,,,,,,,,,,,,,,,,,,,,
,2023-09-27_18h01.39.508,slotMachine_updated,2023.1.3,MacIntel,60.06006007,,,,,,,,,,,,,,,137.2938,,,,1.5,,,,,2,0,2,0,1,,,,,,,,,,,,,,,,,,,,
,2023-09-27_18h01.39.508,slotMachine_updated,2023.1.3,MacIntel,60.06006007,,,,,,,,,,,,,,,142.8201,right,1.8073,,0.5,,stimuli/card_0_transparent.png,110,0,3,0,3,0,1,,,,,,,,,,,,,,,,,,,,
,2023-09-27_18h01.39.508,slotMachine_updated,2023.1.3,MacIntel,60.06006007,,,,,,,,,,,,,,,145.4515,up,1.6651,,1,,stimuli/card_100_transparent.png,210,100,4,0,4,0,1,,,,,,,,,,,,,,,,,,,,
,2023-09-27_18h01.39.508,slotMachine_updated,2023.1.3,MacIntel,60.06006007,,,,,,,,,,,,,,,148.4354,up,1.2607,,1.5,,stimuli/card_100_transparent.png,310,100,5,0,5,0,1,,,,,,,,,,,,,,,,,,,,
,2023-09-27_18h01.39.508,slotMachine_updated,2023.1.3,MacIntel,60.06006007,,,,,,,,,,,,,,,151.5158,up,2.6682,,1,,stimuli/card_100_transparent.png,410,100,6,0,6,0,1,,,,,,,,,,,,,,,,,,,,
,2023-09-27_18h01.39.508,slotMachine_updated,2023.1.3,MacIntel,60.06006007,,,,,,,,,,,,,,,155.5119,,,,1,,,,,7,0,7,0,1,,,,,,,,,,,,,,,,,,,,
,2023-09-27_18h01.39.508,slotMachine_updated,2023.1.3,MacIntel,60.06006007,,,,,,,,,,,,,,,161.0249,up,3.3824,,0.5,,stimuli/card_100_transparent.png,510,100,8,0,8,0,1,,,,,,,,,,,,,,,,,,,,
,2023-09-27_18h01.39.508,slotMachine_updated,2023.1.3,MacIntel,60.06006007,,,,,,,,,,,,,,,165.2272,left,0.7514,,1.5,,stimuli/card_10_transparent.png,520,10,9,0,9,0,1,,,,,,,,,,,,,,,,,,,,
,2023-09-27_18h01.39.508,slotMachine_updated,2023.1.3,MacIntel,60.06006007,,,,,,,,,,,,,,,167.8105,left,1.351,,0.5,,stimuli/card_10_transparent.png,530,10,10,0,10,0,1,,,,,,,,,,,,,,,,,,,,
,2023-09-27_18h01.39.508,slotMachine_updated,2023.1.3,MacIntel,60.06006007,,,,,,,,,,,,,,,169.991,left,2.4237,,1.5,,stimuli/card_10_transparent.png,540,10,11,0,11,0,1,,,,,,,,,,,,,,,,,,,,
,2023-09-27_18h01.39.508,slotMachine_updated,2023.1.3,MacIntel,60.06006007,,,,,,,,,,,,,,,174.2355,,,,1,,,,,12,0,12,0,1,,,,,,,,,,,,,,,,,,,,
,2023-09-27_18h01.39.508,slotMachine_updated,2023.1.3,MacIntel,60.06006007,,,,,,,,,,,,,,,179.762,up,0.4605,,0.5,,stimuli/card_0_transparent.png,540,0,13,0,13,0,1,,,,,,,,,,,,,,,,,,,,
,2023-09-27_18h01.39.508,slotMachine_updated,2023.1.3,MacIntel,60.06006007,,,,,,,,,,,,,,,181.0506,up,0.4825,,1.5,,stimuli/card_0_transparent.png,540,0,14,0,14,0,1,,,,,,,,,,,,,,,,,,,,
,2023-09-27_18h01.39.508,slotMachine_updated,2023.1.3,MacIntel,60.06006007,,,,,,,,,,,,,,,,,,,,,,,,,,,,,,183.3462,0,0,0,0,1,,,,,,,,,,,,,
,2023-09-27_18h01.39.508,slotMachine_updated,2023.1.3,MacIntel,60.06006007,,,,,,,,,,,,,"[6,15]","[[1,3,2],[3,1,2]]",188.3532,up,0.5375,,0.5,,stimuli/card_100_transparent.png,100,100,0,0,0,0,1,,,,,,,,,,,,,,,,,,,,
,2023-09-27_18h01.39.508,slotMachine_updated,2023.1.3,MacIntel,60.06006007,,,,,,,,,,,,,,,189.7143,left,0.8457,,0.5,,stimuli/card_100_transparent.png,200,100,1,0,1,0,1,,,,,,,,,,,,,,,,,,,,
,2023-09-27_18h01.39.508,slotMachine_updated,2023.1.3,MacIntel,60.06006007,,,,,,,,,,,,,,,191.3781,left,1.1948,,1,,stimuli/card_100_transparent.png,300,100,2,0,2,0,1,,,,,,,,,,,,,,,,,,,,
,2023-09-27_18h01.39.508,slotMachine_updated,2023.1.3,MacIntel,60.06006007,,,,,,,,,,,,,,,193.8941,left,0.4252,,1,,stimuli/card_100_transparent.png,400,100,3,0,3,0,1,,,,,,,,,,,,,,,,,,,,
,2023-09-27_18h01.39.508,slotMachine_updated,2023.1.3,MacIntel,60.06006007,,,,,,,,,,,,,,,195.6435,left,0.5701,,1.5,,stimuli/card_100_transparent.png,500,100,4,0,4,0,1,,,,,,,,,,,,,,,,,,,,
,2023-09-27_18h01.39.508,slotMachine_updated,2023.1.3,MacIntel,60.06006007,,,,,,,,,,,,,,,198.0445,left,0.1726,,1.5,,stimuli/card_100_transparent.png,600,100,5,0,5,0,1,,,,,,,,,,,,,,,,,,,,
,2023-09-27_18h01.39.508,slotMachine_updated,2023.1.3,MacIntel,60.06006007,,,,,,,,,,,,,,,200.0417,left,0.0063,,0.5,,stimuli/card_0_transparent.png,600,0,6,0,6,0,1,,,,,,,,,,,,,,,,,,,,
,2023-09-27_18h01.39.508,slotMachine_updated,2023.1.3,MacIntel,60.06006007,,,,,,,,,,,,,,,200.8762,up,1.0748,,0.5,,stimuli/card_10_transparent.png,610,10,7,0,7,0,1,,,,,,,,,,,,,,,,,,,,
,2023-09-27_18h01.39.508,slotMachine_updated,2023.1.3,MacIntel,60.06006007,,,,,,,,,,,,,,,202.7714,up,0.5126,,1,,stimuli/card_100_transparent.png,710,100,8,0,8,0,1,,,,,,,,,,,,,,,,,,,,
,2023-09-27_18h01.39.508,slotMachine_updated,2023.1.3,MacIntel,60.06006007,,,,,,,,,,,,,,,204.6048,up,0.4307,,1.5,,stimuli/card_100_transparent.png,810,100,9,0,9,0,1,,,,,,,,,,,,,,,,,,,,
,2023-09-27_18h01.39.508,slotMachine_updated,2023.1.3,MacIntel,60.06006007,,,,,,,,,,,,,,,206.8759,up,0.2167,,1.5,,stimuli/card_100_transparent.png,910,100,10,0,10,0,1,,,,,,,,,,,,,,,,,,,,
,2023-09-27_18h01.39.508,slotMachine_updated,2023.1.3,MacIntel,60.06006007,,,,,,,,,,,,,,,208.9196,up,0.6342,,0.5,,stimuli/card_10_transparent.png,920,10,11,0,11,0,1,,,,,,,,,,,,,,,,,,,,
,2023-09-27_18h01.39.508,slotMachine_updated,2023.1.3,MacIntel,60.06006007,,,,,,,,,,,,,,,210.3703,up,1.0189,,1.5,,stimuli/card_10_transparent.png,930,10,12,0,12,0,1,,,,,,,,,,,,,,,,,,,,
,2023-09-27_18h01.39.508,slotMachine_updated,2023.1.3,MacIntel,60.06006007,,,,,,,,,,,,,,,213.2154,up,0.4715,,1,,stimuli/card_100_transparent.png,1030,100,13,0,13,0,1,,,,,,,,,,,,,,,,,,,,
,2023-09-27_18h01.39.508,slotMachine_updated,2023.1.3,MacIntel,60.06006007,,,,,,,,,,,,,,,215.0143,up,0.4442,,1.5,,stimuli/card_100_transparent.png,1130,100,14,0,14,0,1,,,,,,,,,,,,,,,,,,,,
,2023-09-27_18h01.39.508,slotMachine_updated,2023.1.3,MacIntel,60.06006007,,,,,,,,,,,,,,,,,,,,,,,,,,,,,,217.2671,1,0,1,0,1,,,,,,,,,,,,,
,2023-09-27_18h01.39.508,slotMachine_updated,2023.1.3,MacIntel,60.06006007,,,,,,,,,,,,,[15],"[[3,1,2]]",,,,,,,,,,,,,,,,,,,,,,,,,,,,,,,,,,
,2023-09-27_18h01.39.508,slotMachine_updated,2023.1.3,MacIntel,60.06006007,,,,,,,,,,,,,,,222.2642,up,1.5766,,1,,stimuli/card_0_transparent.png,0,0,0,0,0,0,1,,,,,,,,,,,,,,,,,,,,
,2023-09-27_18h01.39.508,slotMachine_updated,2023.1.3,MacIntel,60.06006007,,,,,,,,,,,,,,,225.1596,right,2.0503,,1.5,,stimuli/card_10_transparent.png,10,10,1,0,1,0,1,,,,,,,,,,,,,,,,,,,,
,2023-09-27_18h01.39.508,slotMachine_updated,2023.1.3,MacIntel,60.06006007,,,,,,,,,,,,,,,229.025,up,0.7668,,1,,stimuli/card_100_transparent.png,110,100,2,0,2,0,1,,,,,,,,,,,,,,,,,,,,
,2023-09-27_18h01.39.508,slotMachine_updated,2023.1.3,MacIntel,60.06006007,,,,,,,,,,,,,,,231.1241,left,0.5454,,1.5,,stimuli/card_0_transparent.png,110,0,3,0,3,0,1,,,,,,,,,,,,,,,,,,,,
,2023-09-27_18h01.39.508,slotMachine_updated,2023.1.3,MacIntel,60.06006007,,,,,,,,,,,,,,,233.4895,right,0.5314,,0.5,,stimuli/card_10_transparent.png,120,10,4,0,4,0,1,,,,,,,,,,,,,,,,,,,,
,2023-09-27_18h01.39.508,slotMachine_updated,2023.1.3,MacIntel,60.06006007,,,,,,,,,,,,,,,234.834,right,0.3689,,1,,stimuli/card_10_transparent.png,130,10,5,0,5,0,1,,,,,,,,,,,,,,,,,,,,
,2023-09-27_18h01.39.508,slotMachine_updated,2023.1.3,MacIntel,60.06006007,,,,,,,,,,,,,,,236.5346,right,0.4241,,0.5,,stimuli/card_10_transparent.png,140,10,6,0,6,0,1,,,,,,,,,,,,,,,,,,,,
,2023-09-27_18h01.39.508,slotMachine_updated,2023.1.3,MacIntel,60.06006007,,,,,,,,,,,,,,,237.7717,up,0.6641,,1.5,,stimuli/card_0_transparent.png,140,0,7,0,7,0,1,,,,,,,,,,,,,,,,,,,,
,2023-09-27_18h01.39.508,slotMachine_updated,2023.1.3,MacIntel,60.06006007,,,,,,,,,,,,,,,240.2527,up,0.6774,,1,,stimuli/card_100_transparent.png,240,100,8,0,8,0,1,,,,,,,,,,,,,,,,,,,,
,2023-09-27_18h01.39.508,slotMachine_updated,2023.1.3,MacIntel,60.06006007,,,,,,,,,,,,,,,242.2501,up,0.7197,,1.5,,stimuli/card_100_transparent.png,340,100,9,0,9,0,1,,,,,,,,,,,,,,,,,,,,
,2023-09-27_18h01.39.508,slotMachine_updated,2023.1.3,MacIntel,60.06006007,,,,,,,,,,,,,,,244.7963,up,0.6142,,1,,stimuli/card_0_transparent.png,340,0,10,0,10,0,1,,,,,,,,,,,,,,,,,,,,
,2023-09-27_18h01.39.508,slotMachine_updated,2023.1.3,MacIntel,60.06006007,,,,,,,,,,,,,,,246.7275,up,0.3668,,0.5,,stimuli/card_10_transparent.png,350,10,11,0,11,0,1,,,,,,,,,,,,,,,,,,,,
,2023-09-27_18h01.39.508,slotMachine_updated,2023.1.3,MacIntel,60.06006007,,,,,,,,,,,,,,,247.9169,up,0.4234,,1.5,,stimuli/card_10_transparent.png,360,10,12,0,12,0,1,,,,,,,,,,,,,,,,,,,,
,2023-09-27_18h01.39.508,slotMachine_updated,2023.1.3,MacIntel,60.06006007,,,,,,,,,,,,,,,250.1634,up,0.2943,,0.5,,stimuli/card_100_transparent.png,460,100,13,0,13,0,1,,,,,,,,,,,,,,,,,,,,
,2023-09-27_18h01.39.508,slotMachine_updated,2023.1.3,MacIntel,60.06006007,,,,,,,,,,,,,,,251.2784,up,0.4248,,1,,stimuli/card_0_transparent.png,460,0,14,0,14,0,1,,,,,,,,,,,,,,,,,,,,
,2023-09-27_18h01.39.508,slotMachine_updated,2023.1.3,MacIntel,60.06006007,,,,,,,,,,,,,,,,,,,,,,,,,,,,,,,,,,,,,,253.0264,space,6.3467,,,,,,,,
,2023-09-27_18h01.39.508,slotMachine_updated,2023.1.3,MacIntel,60.06006007,,,,,,,,,,,,,,,,,,,,,,,,,,,,,,,,,,,,,,,,,,259.391,2,"[2,4,8,0,1,3,9,6,8,5]",259.391,space,1.8487,
