key_resp_welcome_started,key_resp_welcome_keys,key_resp_welcome_rt,key_resp_welcome_duration,prolific_pid,path_id,date,expName,psychopyVersion,OS,frameRate,key_resp_instruction1_started,key_resp_instruction1_keys,key_resp_instruction1_rt,key_resp_instruction1_duration,key_resp_instruction2_started,key_resp_instruction2_keys,key_resp_instruction2_rt,key_resp_instruction2_duration,key_resp_instruction3_started,key_resp_instruction3_keys,key_resp_instruction3_rt,key_resp_instruction3_duration,key_resp_instruction4_started,key_resp_instruction4_keys,key_resp_instruction4_rt,key_resp_instruction4_duration,practiceCondition,practice_reward_seqs,practice_trial_started,practice_trial_num,practice_resp_rt,practice_keypress_time,practice_resp_keys,prac_presentationInterval,practice_reward_seq,reward_img,cumulative_reward,trial_reward,practice_trials.thisRepN,practice_trials.thisTrialN,practice_trials.thisN,practice_trials.thisIndex,practice_trials.ran,block_break_started,practice_end_time,practice_end_keys,practice_end_rt,practice_end_duration,main_instruction_text_started,block_condition,block_order_indices,main_instruction_keys,main_instruction_rt,main_instruction_duration,block_number,block_assignment,current_condition,main_reward_seqs,main_trial_started,main_trial_num,main_trial_keys,main_trial_rt,main_trial_keypress_time,main_presentationInterval,reward_presentation_time,main_reward_seq,reward_rand_val,main_reward_img,current_reward,main_trials.thisRepN,main_trials.thisTrialN,main_trials.thisN,main_trials.thisIndex,main_trials.ran,block_reward,block.thisRepN,block.thisTrialN,block.thisN,block.thisIndex,block.ran,block_reward.length,block_reward_all,reward_amount,date_end_task
0.0002,space,3.672,,6630f0dc60e431bb28ab7e31,B,2024-08-16_15h41.17.827,Slot Machine Game,2023.1.3,Win32,60.97560976,,,,,,,,,,,,,,,,,,,,,,,,,,,,,,,,,,,,,,,,,,,,,,,,,,,,,,,,,,,,,,,,,,,,,,,,,,
,,,,6630f0dc60e431bb28ab7e31,B,2024-08-16_15h41.17.827,Slot Machine Game,2023.1.3,Win32,60.97560976,3.692,space,12.4295,,,,,,,,,,,,,,,,,,,,,,,,,,,,,,,,,,,,,,,,,,,,,,,,,,,,,,,,,,,,,,,,,,,,,,,
,,,,6630f0dc60e431bb28ab7e31,B,2024-08-16_15h41.17.827,Slot Machine Game,2023.1.3,Win32,60.97560976,,,,,16.1598,space,21.8758,,,,,,,,,,,,,,,,,,,,,,,,,,,,,,,,,,,,,,,,,,,,,,,,,,,,,,,,,,,,,,,,,,,
,,,,6630f0dc60e431bb28ab7e31,B,2024-08-16_15h41.17.827,Slot Machine Game,2023.1.3,Win32,60.97560976,,,,,,,,,38.11,space,16.6236,,,,,,,,,,,,,,,,,,,,,,,,,,,,,,,,,,,,,,,,,,,,,,,,,,,,,,,,,,,,,,,
,,,,6630f0dc60e431bb28ab7e31,B,2024-08-16_15h41.17.827,Slot Machine Game,2023.1.3,Win32,60.97560976,,,,,,,,,,,,,,,,,,,,,,,,,,,,,,,,,,,,,,,,,,,,,,,,,,,,,,,,,,,,,,,,,,,,,,,,,,
,,,,6630f0dc60e431bb28ab7e31,B,2024-08-16_15h41.17.827,Slot Machine Game,2023.1.3,Win32,60.97560976,,,,,,,,,,,,,196.4733,space,2.4295,,,,,,,,,,,,,,,,,,,,,,,,,,,,,,,,,,,,,,,,,,,,,,,,,,,,,,,,,,,
,,,,6630f0dc60e431bb28ab7e31,B,2024-08-16_15h41.17.827,Slot Machine Game,2023.1.3,Win32,60.97560976,,,,,,,,,,,,,,,,,"[9,15]","[[2,1,3],[2,3,1]]",198.9249,0,1.8376,200.7865,right,1.5,"[2,1,3]",stimuli/card_0_transparent.png,0,0,0,0,0,0,1,,,,,,,,,,,,,,,,,,,,,,,,,,,,,,,,,,,,,,,,,
,,,,6630f0dc60e431bb28ab7e31,B,2024-08-16_15h41.17.827,Slot Machine Game,2023.1.3,Win32,60.97560976,,,,,,,,,,,,,,,,,,,202.5871,1,2.9879,205.6034,right,1,"[2,1,3]",stimuli/card_0_transparent.png,0,0,1,0,1,0,1,,,,,,,,,,,,,,,,,,,,,,,,,,,,,,,,,,,,,,,,,
,,,,6630f0dc60e431bb28ab7e31,B,2024-08-16_15h41.17.827,Slot Machine Game,2023.1.3,Win32,60.97560976,,,,,,,,,,,,,,,,,,,206.9031,2,1.4271,208.3532,up,0.5,"[2,1,3]",stimuli/card_100_transparent.png,100,100,2,0,2,0,1,,,,,,,,,,,,,,,,,,,,,,,,,,,,,,,,,,,,,,,,,
,,,,6630f0dc60e431bb28ab7e31,B,2024-08-16_15h41.17.827,Slot Machine Game,2023.1.3,Win32,60.97560976,,,,,,,,,,,,,,,,,,,209.1531,3,0.7841,209.9534,up,1.5,"[2,1,3]",stimuli/card_100_transparent.png,200,100,3,0,3,0,1,,,,,,,,,,,,,,,,,,,,,,,,,,,,,,,,,,,,,,,,,
,,,,6630f0dc60e431bb28ab7e31,B,2024-08-16_15h41.17.827,Slot Machine Game,2023.1.3,Win32,60.97560976,,,,,,,,,,,,,,,,,,,211.7535,4,3.6316,215.4206,up,1,"[2,1,3]",stimuli/card_100_transparent.png,300,100,4,0,4,0,1,,,,,,,,,,,,,,,,,,,,,,,,,,,,,,,,,,,,,,,,,
,,,,6630f0dc60e431bb28ab7e31,B,2024-08-16_15h41.17.827,Slot Machine Game,2023.1.3,Win32,60.97560976,,,,,,,,,,,,,,,,,,,216.7197,5,0.5669,217.3039,up,1.5,"[2,1,3]",stimuli/card_100_transparent.png,400,100,5,0,5,0,1,,,,,,,,,,,,,,,,,,,,,,,,,,,,,,,,,,,,,,,,,
,,,,6630f0dc60e431bb28ab7e31,B,2024-08-16_15h41.17.827,Slot Machine Game,2023.1.3,Win32,60.97560976,,,,,,,,,,,,,,,,,,,219.1041,6,0.6616,219.7872,up,1,"[2,1,3]",stimuli/card_0_transparent.png,400,0,6,0,6,0,1,,,,,,,,,,,,,,,,,,,,,,,,,,,,,,,,,,,,,,,,,
,,,,6630f0dc60e431bb28ab7e31,B,2024-08-16_15h41.17.827,Slot Machine Game,2023.1.3,Win32,60.97560976,,,,,,,,,,,,,,,,,,,221.0875,7,0.7557,221.871,up,1.5,"[2,1,3]",stimuli/card_100_transparent.png,500,100,7,0,7,0,1,,,,,,,,,,,,,,,,,,,,,,,,,,,,,,,,,,,,,,,,,
,,,,6630f0dc60e431bb28ab7e31,B,2024-08-16_15h41.17.827,Slot Machine Game,2023.1.3,Win32,60.97560976,,,,,,,,,,,,,,,,,,,223.6707,8,0.5182,224.221,up,1.5,"[2,1,3]",stimuli/card_0_transparent.png,500,0,8,0,8,0,1,,,,,,,,,,,,,,,,,,,,,,,,,,,,,,,,,,,,,,,,,
,,,,6630f0dc60e431bb28ab7e31,B,2024-08-16_15h41.17.827,Slot Machine Game,2023.1.3,Win32,60.97560976,,,,,,,,,,,,,,,,,,,226.0212,9,0.6884,226.7376,up,1,"[2,3,1]",stimuli/card_0_transparent.png,500,0,9,0,9,0,1,,,,,,,,,,,,,,,,,,,,,,,,,,,,,,,,,,,,,,,,,
,,,,6630f0dc60e431bb28ab7e31,B,2024-08-16_15h41.17.827,Slot Machine Game,2023.1.3,Win32,60.97560976,,,,,,,,,,,,,,,,,,,228.0374,10,0.6272,228.671,up,0.5,"[2,3,1]",stimuli/card_0_transparent.png,500,0,10,0,10,0,1,,,,,,,,,,,,,,,,,,,,,,,,,,,,,,,,,,,,,,,,,
,,,,6630f0dc60e431bb28ab7e31,B,2024-08-16_15h41.17.827,Slot Machine Game,2023.1.3,Win32,60.97560976,,,,,,,,,,,,,,,,,,,229.4708,11,1.1484,230.6546,left,1.5,"[2,3,1]",stimuli/card_100_transparent.png,600,100,11,0,11,0,1,,,,,,,,,,,,,,,,,,,,,,,,,,,,,,,,,,,,,,,,,
,,,,6630f0dc60e431bb28ab7e31,B,2024-08-16_15h41.17.827,Slot Machine Game,2023.1.3,Win32,60.97560976,,,,,,,,,,,,,,,,,,,232.4548,12,2.9175,235.4049,left,1.5,"[2,3,1]",stimuli/card_0_transparent.png,600,0,12,0,12,0,1,,,,,,,,,,,,,,,,,,,,,,,,,,,,,,,,,,,,,,,,,
,,,,6630f0dc60e431bb28ab7e31,B,2024-08-16_15h41.17.827,Slot Machine Game,2023.1.3,Win32,60.97560976,,,,,,,,,,,,,,,,,,,237.2051,13,0.5677,237.8051,left,0.5,"[2,3,1]",stimuli/card_100_transparent.png,700,100,13,0,13,0,1,,,,,,,,,,,,,,,,,,,,,,,,,,,,,,,,,,,,,,,,,
,,,,6630f0dc60e431bb28ab7e31,B,2024-08-16_15h41.17.827,Slot Machine Game,2023.1.3,Win32,60.97560976,,,,,,,,,,,,,,,,,,,238.6052,14,2.9103,241.5379,left,1,"[2,3,1]",stimuli/card_10_transparent.png,710,10,14,0,14,0,1,,,,,,,,,,,,,,,,,,,,,,,,,,,,,,,,,,,,,,,,,
,,,,6630f0dc60e431bb28ab7e31,B,2024-08-16_15h41.17.827,Slot Machine Game,2023.1.3,Win32,60.97560976,,,,,,,,,,,,,,,,,"[6,15]","[[1,3,2],[3,1,2]]",247.8733,0,2.0672,249.9727,right,1,"[1,3,2]",stimuli/card_10_transparent.png,10,10,0,0,0,0,1,242.863,,,,,,,,,,,,,,,,,,,,,,,,,,,,,,,,,,,,,,,,
,,,,6630f0dc60e431bb28ab7e31,B,2024-08-16_15h41.17.827,Slot Machine Game,2023.1.3,Win32,60.97560976,,,,,,,,,,,,,,,,,,,251.2716,1,0.6224,251.9053,right,0.5,"[1,3,2]",stimuli/card_10_transparent.png,20,10,1,0,1,0,1,,,,,,,,,,,,,,,,,,,,,,,,,,,,,,,,,,,,,,,,,
,,,,6630f0dc60e431bb28ab7e31,B,2024-08-16_15h41.17.827,Slot Machine Game,2023.1.3,Win32,60.97560976,,,,,,,,,,,,,,,,,,,252.7059,2,3.4004,256.1388,right,1.5,"[1,3,2]",stimuli/card_10_transparent.png,30,10,2,0,2,0,1,,,,,,,,,,,,,,,,,,,,,,,,,,,,,,,,,,,,,,,,,
,,,,6630f0dc60e431bb28ab7e31,B,2024-08-16_15h41.17.827,Slot Machine Game,2023.1.3,Win32,60.97560976,,,,,,,,,,,,,,,,,,,257.9394,3,0.5509,258.5229,up,1.5,"[1,3,2]",stimuli/card_0_transparent.png,30,0,3,0,3,0,1,,,,,,,,,,,,,,,,,,,,,,,,,,,,,,,,,,,,,,,,,
,,,,6630f0dc60e431bb28ab7e31,B,2024-08-16_15h41.17.827,Slot Machine Game,2023.1.3,Win32,60.97560976,,,,,,,,,,,,,,,,,,,260.323,4,3.75,264.1061,left,1,"[1,3,2]",stimuli/card_100_transparent.png,130,100,4,0,4,0,1,,,,,,,,,,,,,,,,,,,,,,,,,,,,,,,,,,,,,,,,,
,,,,6630f0dc60e431bb28ab7e31,B,2024-08-16_15h41.17.827,Slot Machine Game,2023.1.3,Win32,60.97560976,,,,,,,,,,,,,,,,,,,265.3962,5,2.2565,267.6735,left,1,"[1,3,2]",stimuli/card_100_transparent.png,230,100,5,0,5,0,1,,,,,,,,,,,,,,,,,,,,,,,,,,,,,,,,,,,,,,,,,
,,,,6630f0dc60e431bb28ab7e31,B,2024-08-16_15h41.17.827,Slot Machine Game,2023.1.3,Win32,60.97560976,,,,,,,,,,,,,,,,,,,268.9731,6,2.7271,271.7237,left,1.5,"[3,1,2]",stimuli/card_10_transparent.png,240,10,6,0,6,0,1,,,,,,,,,,,,,,,,,,,,,,,,,,,,,,,,,,,,,,,,,
,,,,6630f0dc60e431bb28ab7e31,B,2024-08-16_15h41.17.827,Slot Machine Game,2023.1.3,Win32,60.97560976,,,,,,,,,,,,,,,,,,,273.5238,7,1.9841,275.5405,left,0.5,"[3,1,2]",stimuli/card_0_transparent.png,240,0,7,0,7,0,1,,,,,,,,,,,,,,,,,,,,,,,,,,,,,,,,,,,,,,,,,
,,,,6630f0dc60e431bb28ab7e31,B,2024-08-16_15h41.17.827,Slot Machine Game,2023.1.3,Win32,60.97560976,,,,,,,,,,,,,,,,,,,276.3399,8,1.534,277.8903,up,0.5,"[3,1,2]",stimuli/card_100_transparent.png,340,100,8,0,8,0,1,,,,,,,,,,,,,,,,,,,,,,,,,,,,,,,,,,,,,,,,,
,,,,6630f0dc60e431bb28ab7e31,B,2024-08-16_15h41.17.827,Slot Machine Game,2023.1.3,Win32,60.97560976,,,,,,,,,,,,,,,,,,,278.6905,9,1.5838,280.3078,up,1.5,"[3,1,2]",stimuli/card_100_transparent.png,440,100,9,0,9,0,1,,,,,,,,,,,,,,,,,,,,,,,,,,,,,,,,,,,,,,,,,
,,,,6630f0dc60e431bb28ab7e31,B,2024-08-16_15h41.17.827,Slot Machine Game,2023.1.3,Win32,60.97560976,,,,,,,,,,,,,,,,,,,282.1075,10,0.917,283.0576,up,1,"[3,1,2]",stimuli/card_100_transparent.png,540,100,10,0,10,0,1,,,,,,,,,,,,,,,,,,,,,,,,,,,,,,,,,,,,,,,,,
,,,,6630f0dc60e431bb28ab7e31,B,2024-08-16_15h41.17.827,Slot Machine Game,2023.1.3,Win32,60.97560976,,,,,,,,,,,,,,,,,,,284.3577,11,0.9553,285.3411,up,0.5,"[3,1,2]",stimuli/card_10_transparent.png,550,10,11,0,11,0,1,,,,,,,,,,,,,,,,,,,,,,,,,,,,,,,,,,,,,,,,,
,,,,6630f0dc60e431bb28ab7e31,B,2024-08-16_15h41.17.827,Slot Machine Game,2023.1.3,Win32,60.97560976,,,,,,,,,,,,,,,,,,,286.1405,12,2.3682,288.5247,up,1.5,"[3,1,2]",stimuli/card_100_transparent.png,650,100,12,0,12,0,1,,,,,,,,,,,,,,,,,,,,,,,,,,,,,,,,,,,,,,,,,
,,,,6630f0dc60e431bb28ab7e31,B,2024-08-16_15h41.17.827,Slot Machine Game,2023.1.3,Win32,60.97560976,,,,,,,,,,,,,,,,,,,290.3245,13,0.8552,291.2081,up,0.5,"[3,1,2]",stimuli/card_100_transparent.png,750,100,13,0,13,0,1,,,,,,,,,,,,,,,,,,,,,,,,,,,,,,,,,,,,,,,,,
,,,,6630f0dc60e431bb28ab7e31,B,2024-08-16_15h41.17.827,Slot Machine Game,2023.1.3,Win32,60.97560976,,,,,,,,,,,,,,,,,,,292.0074,14,0.7065,292.7245,up,1.5,"[3,1,2]",stimuli/card_100_transparent.png,850,100,14,0,14,0,1,,,,,,,,,,,,,,,,,,,,,,,,,,,,,,,,,,,,,,,,,
,,,,6630f0dc60e431bb28ab7e31,B,2024-08-16_15h41.17.827,Slot Machine Game,2023.1.3,Win32,60.97560976,,,,,,,,,,,,,,,,,,,,,,,,,,,,,,,,,,294.5249,299.527,space,2.1869,,,,,,,,,,,,,,,,,,,,,,,,,,,,,,,,,,,,,
,,,,6630f0dc60e431bb28ab7e31,B,2024-08-16_15h41.17.827,Slot Machine Game,2023.1.3,Win32,60.97560976,,,,,,,,,,,,,,,,,,,,,,,,,,,,,,,,,,,,,,,301.7422,1,"[0,1,2,3,4,5,6,7,8,9]",space,1.8406,,,,,,,,,,,,,,,,,,,,,,,,,,,,,,,
,,,,6630f0dc60e431bb28ab7e31,B,2024-08-16_15h41.17.827,Slot Machine Game,2023.1.3,Win32,60.97560976,,,,,,,,,,,,,,,,,,,,,,,,,,,0,,,,,,,,,,,,,,,,,,1,1,"[12,15]","[[2,1,3],[2,3,1]]",303.6385,0,right,1.2523,304.9087,1,0.3,"[2,1,3]",0.819475753,stimuli/card_0_transparent.png,0,0,0,0,0,1,,,,,,,,,,
,,,,6630f0dc60e431bb28ab7e31,B,2024-08-16_15h41.17.827,Slot Machine Game,2023.1.3,Win32,60.97560976,,,,,,,,,,,,,,,,,,,,,,,,,,,10,,,,,,,,,,,,,,,,,,1,1,,,306.2093,1,up,0.5095,306.7423,0.5,0.3,"[2,1,3]",0.142670696,stimuli/card_10_transparent.png,10,1,0,1,0,1,,,,,,,,,,
,,,,6630f0dc60e431bb28ab7e31,B,2024-08-16_15h41.17.827,Slot Machine Game,2023.1.3,Win32,60.97560976,,,,,,,,,,,,,,,,,,,,,,,,,,,110,,,,,,,,,,,,,,,,,,1,1,,,307.5419,2,up,0.517,308.0917,1.5,0.3,"[2,1,3]",0.440051639,stimuli/card_100_transparent.png,100,2,0,2,0,1,,,,,,,,,,
,,,,6630f0dc60e431bb28ab7e31,B,2024-08-16_15h41.17.827,Slot Machine Game,2023.1.3,Win32,60.97560976,,,,,,,,,,,,,,,,,,,,,,,,,,,210,,,,,,,,,,,,,,,,,,1,1,,,309.8924,3,up,2.3933,312.3087,1,0.3,"[2,1,3]",0.280814441,stimuli/card_100_transparent.png,100,3,0,3,0,1,,,,,,,,,,
,,,,6630f0dc60e431bb28ab7e31,B,2024-08-16_15h41.17.827,Slot Machine Game,2023.1.3,Win32,60.97560976,,,,,,,,,,,,,,,,,,,,,,,,,,,310,,,,,,,,,,,,,,,,,,1,1,,,313.6094,4,up,2.1206,315.7592,1,0.3,"[2,1,3]",0.255931791,stimuli/card_100_transparent.png,100,4,0,4,0,1,,,,,,,,,,
,,,,6630f0dc60e431bb28ab7e31,B,2024-08-16_15h41.17.827,Slot Machine Game,2023.1.3,Win32,60.97560976,,,,,,,,,,,,,,,,,,,,,,,,,,,410,,,,,,,,,,,,,,,,,,1,1,,,317.059,5,up,1.1928,318.2755,0.5,0.3,"[2,1,3]",0.889800026,stimuli/card_100_transparent.png,100,5,0,5,0,1,,,,,,,,,,
,,,,6630f0dc60e431bb28ab7e31,B,2024-08-16_15h41.17.827,Slot Machine Game,2023.1.3,Win32,60.97560976,,,,,,,,,,,,,,,,,,,,,,,,,,,510,,,,,,,,,,,,,,,,,,1,1,,,319.076,6,up,1.434,320.5264,1.5,0.3,"[2,1,3]",0.496267137,stimuli/card_100_transparent.png,100,6,0,6,0,1,,,,,,,,,,
,,,,6630f0dc60e431bb28ab7e31,B,2024-08-16_15h41.17.827,Slot Machine Game,2023.1.3,Win32,60.97560976,,,,,,,,,,,,,,,,,,,,,,,,,,,520,,,,,,,,,,,,,,,,,,1,1,,,322.3269,7,up,0.6914,323.0426,1.5,0.3,"[2,1,3]",0.117028669,stimuli/card_10_transparent.png,10,7,0,7,0,1,,,,,,,,,,
,,,,6630f0dc60e431bb28ab7e31,B,2024-08-16_15h41.17.827,Slot Machine Game,2023.1.3,Win32,60.97560976,,,,,,,,,,,,,,,,,,,,,,,,,,,620,,,,,,,,,,,,,,,,,,1,1,,,324.8429,8,up,1.7866,326.6599,0.5,0.3,"[2,1,3]",0.356903604,stimuli/card_100_transparent.png,100,8,0,8,0,1,,,,,,,,,,
,,,,6630f0dc60e431bb28ab7e31,B,2024-08-16_15h41.17.827,Slot Machine Game,2023.1.3,Win32,60.97560976,,,,,,,,,,,,,,,,,,,,,,,,,,,720,,,,,,,,,,,,,,,,,,1,1,,,327.4599,9,up,1.7905,329.2769,1,0.3,"[2,1,3]",0.813734168,stimuli/card_100_transparent.png,100,9,0,9,0,1,,,,,,,,,,
,,,,6630f0dc60e431bb28ab7e31,B,2024-08-16_15h41.17.827,Slot Machine Game,2023.1.3,Win32,60.97560976,,,,,,,,,,,,,,,,,,,,,,,,,,,820,,,,,,,,,,,,,,,,,,1,1,,,330.577,10,up,1.2109,331.8101,0.5,0.3,"[2,1,3]",0.446260086,stimuli/card_100_transparent.png,100,10,0,10,0,1,,,,,,,,,,
,,,,6630f0dc60e431bb28ab7e31,B,2024-08-16_15h41.17.827,Slot Machine Game,2023.1.3,Win32,60.97560976,,,,,,,,,,,,,,,,,,,,,,,,,,,920,,,,,,,,,,,,,,,,,,1,1,,,332.6096,11,up,0.8834,333.5265,1.5,0.3,"[2,1,3]",0.960482509,stimuli/card_100_transparent.png,100,11,0,11,0,1,,,,,,,,,,
,,,,6630f0dc60e431bb28ab7e31,B,2024-08-16_15h41.17.827,Slot Machine Game,2023.1.3,Win32,60.97560976,,,,,,,,,,,,,,,,,,,,,,,,,,,930,,,,,,,,,,,,,,,,,,1,1,,,335.3272,12,up,1.2287,336.5772,1.5,0.3,"[2,3,1]",0.148177413,stimuli/card_10_transparent.png,10,12,0,12,0,1,,,,,,,,,,
,,,,6630f0dc60e431bb28ab7e31,B,2024-08-16_15h41.17.827,Slot Machine Game,2023.1.3,Win32,60.97560976,,,,,,,,,,,,,,,,,,,,,,,,,,,930,,,,,,,,,,,,,,,,,,1,1,,,338.3774,13,up,0.7586,339.16,1.5,0.3,"[2,3,1]",0.347867337,stimuli/card_0_transparent.png,0,13,0,13,0,1,,,,,,,,,,
,,,,6630f0dc60e431bb28ab7e31,B,2024-08-16_15h41.17.827,Slot Machine Game,2023.1.3,Win32,60.97560976,,,,,,,,,,,,,,,,,,,,,,,,,,,1030,,,,,,,,,,,,,,,,,,1,1,,,340.9608,14,left,0.6173,341.6102,1.5,0.3,"[2,3,1]",0.171739554,stimuli/card_100_transparent.png,100,14,0,14,0,1,,,,,,,,,,
,,,,6630f0dc60e431bb28ab7e31,B,2024-08-16_15h41.17.827,Slot Machine Game,2023.1.3,Win32,60.97560976,,,,,,,,,,,,,,,,,,,,,,,,,,,,,,,,,,343.4106,,,,,,,,,,,,,,,,,,,,,,,,,,,,,,,[1030],0,0,0,0,1,,,,
,,,,6630f0dc60e431bb28ab7e31,B,2024-08-16_15h41.17.827,Slot Machine Game,2023.1.3,Win32,60.97560976,,,,,,,,,,,,,,,,,,,,,,,,,,,10,,,,,,,,,,,,,,,,,,2,2,"[6,15]","[[1,3,2],[3,2,1]]",348.4227,0,right,1.1839,349.6279,0.5,0.3,"[1,3,2]",0.935551633,stimuli/card_10_transparent.png,10,0,0,0,0,1,,,,,,,,,,
,,,,6630f0dc60e431bb28ab7e31,B,2024-08-16_15h41.17.827,Slot Machine Game,2023.1.3,Win32,60.97560976,,,,,,,,,,,,,,,,,,,,,,,,,,,20,,,,,,,,,,,,,,,,,,2,2,,,350.4276,1,right,2.1675,352.6116,0.5,0.3,"[1,3,2]",0.647148898,stimuli/card_10_transparent.png,10,1,0,1,0,1,,,,,,,,,,
,,,,6630f0dc60e431bb28ab7e31,B,2024-08-16_15h41.17.827,Slot Machine Game,2023.1.3,Win32,60.97560976,,,,,,,,,,,,,,,,,,,,,,,,,,,30,,,,,,,,,,,,,,,,,,2,2,,,353.4107,2,right,1.2855,354.7117,1,0.3,"[1,3,2]",0.464859782,stimuli/card_10_transparent.png,10,2,0,2,0,1,,,,,,,,,,
,,,,6630f0dc60e431bb28ab7e31,B,2024-08-16_15h41.17.827,Slot Machine Game,2023.1.3,Win32,60.97560976,,,,,,,,,,,,,,,,,,,,,,,,,,,130,,,,,,,,,,,,,,,,,,2,2,,,356.0116,3,left,1.1898,357.2284,1,0.3,"[1,3,2]",0.321404377,stimuli/card_100_transparent.png,100,3,0,3,0,1,,,,,,,,,,
,,,,6630f0dc60e431bb28ab7e31,B,2024-08-16_15h41.17.827,Slot Machine Game,2023.1.3,Win32,60.97560976,,,,,,,,,,,,,,,,,,,,,,,,,,,230,,,,,,,,,,,,,,,,,,2,2,,,358.5286,4,left,1.4846,360.0455,1,0.3,"[1,3,2]",0.684526634,stimuli/card_100_transparent.png,100,4,0,4,0,1,,,,,,,,,,
,,,,6630f0dc60e431bb28ab7e31,B,2024-08-16_15h41.17.827,Slot Machine Game,2023.1.3,Win32,60.97560976,,,,,,,,,,,,,,,,,,,,,,,,,,,330,,,,,,,,,,,,,,,,,,2,2,,,361.3453,5,left,1.3025,362.6786,1.5,0.3,"[1,3,2]",0.502708422,stimuli/card_100_transparent.png,100,5,0,5,0,1,,,,,,,,,,
,,,,6630f0dc60e431bb28ab7e31,B,2024-08-16_15h41.17.827,Slot Machine Game,2023.1.3,Win32,60.97560976,,,,,,,,,,,,,,,,,,,,,,,,,,,330,,,,,,,,,,,,,,,,,,2,2,,,364.4788,6,left,1.1707,365.6785,1.5,0.3,"[3,2,1]",0.234074396,stimuli/card_0_transparent.png,0,6,0,6,0,1,,,,,,,,,,
,,,,6630f0dc60e431bb28ab7e31,B,2024-08-16_15h41.17.827,Slot Machine Game,2023.1.3,Win32,60.97560976,,,,,,,,,,,,,,,,,,,,,,,,,,,330,,,,,,,,,,,,,,,,,,2,2,,,367.4782,7,left,0.6101,368.0953,1,0.3,"[3,2,1]",0.337711228,stimuli/card_0_transparent.png,0,7,0,7,0,1,,,,,,,,,,
,,,,6630f0dc60e431bb28ab7e31,B,2024-08-16_15h41.17.827,Slot Machine Game,2023.1.3,Win32,60.97560976,,,,,,,,,,,,,,,,,,,,,,,,,,,430,,,,,,,,,,,,,,,,,,2,2,,,369.3953,8,up,0.7705,370.1785,0.5,0.3,"[3,2,1]",0.104007891,stimuli/card_100_transparent.png,100,8,0,8,0,1,,,,,,,,,,
,,,,6630f0dc60e431bb28ab7e31,B,2024-08-16_15h41.17.827,Slot Machine Game,2023.1.3,Win32,60.97560976,,,,,,,,,,,,,,,,,,,,,,,,,,,440,,,,,,,,,,,,,,,,,,2,2,,,370.9787,9,up,2.142,373.1456,1,0.3,"[3,2,1]",0.675013551,stimuli/card_10_transparent.png,10,9,0,9,0,1,,,,,,,,,,
,,,,6630f0dc60e431bb28ab7e31,B,2024-08-16_15h41.17.827,Slot Machine Game,2023.1.3,Win32,60.97560976,,,,,,,,,,,,,,,,,,,,,,,,,,,450,,,,,,,,,,,,,,,,,,2,2,,,374.4461,10,up,0.7508,375.2288,0.5,0.3,"[3,2,1]",0.501340556,stimuli/card_10_transparent.png,10,10,0,10,0,1,,,,,,,,,,
,,,,6630f0dc60e431bb28ab7e31,B,2024-08-16_15h41.17.827,Slot Machine Game,2023.1.3,Win32,60.97560976,,,,,,,,,,,,,,,,,,,,,,,,,,,550,,,,,,,,,,,,,,,,,,2,2,,,376.0294,11,right,1.8711,377.9295,1,0.3,"[3,2,1]",0.795203904,stimuli/card_100_transparent.png,100,11,0,11,0,1,,,,,,,,,,
,,,,6630f0dc60e431bb28ab7e31,B,2024-08-16_15h41.17.827,Slot Machine Game,2023.1.3,Win32,60.97560976,,,,,,,,,,,,,,,,,,,,,,,,,,,650,,,,,,,,,,,,,,,,,,2,2,,,379.2295,12,right,1.5846,380.8464,1,0.3,"[3,2,1]",0.972676236,stimuli/card_100_transparent.png,100,12,0,12,0,1,,,,,,,,,,
,,,,6630f0dc60e431bb28ab7e31,B,2024-08-16_15h41.17.827,Slot Machine Game,2023.1.3,Win32,60.97560976,,,,,,,,,,,,,,,,,,,,,,,,,,,750,,,,,,,,,,,,,,,,,,2,2,,,382.1466,13,right,0.5006,382.6798,1,0.3,"[3,2,1]",0.73201993,stimuli/card_100_transparent.png,100,13,0,13,0,1,,,,,,,,,,
,,,,6630f0dc60e431bb28ab7e31,B,2024-08-16_15h41.17.827,Slot Machine Game,2023.1.3,Win32,60.97560976,,,,,,,,,,,,,,,,,,,,,,,,,,,850,,,,,,,,,,,,,,,,,,2,2,,,383.9796,14,right,1.2769,385.2803,1,0.3,"[3,2,1]",0.848233336,stimuli/card_100_transparent.png,100,14,0,14,0,1,,,,,,,,,,
,,,,6630f0dc60e431bb28ab7e31,B,2024-08-16_15h41.17.827,Slot Machine Game,2023.1.3,Win32,60.97560976,,,,,,,,,,,,,,,,,,,,,,,,,,,,,,,,,,386.5795,,,,,,,,,,,,,,,,,,,,,,,,,,,,,,,"[1030,850]",1,0,1,0,1,,,,
,,,,6630f0dc60e431bb28ab7e31,B,2024-08-16_15h41.17.827,Slot Machine Game,2023.1.3,Win32,60.97560976,,,,,,,,,,,,,,,,,,,,,,,,,,,10,,,,,,,,,,,,,,,,,,3,3,"[15,15]","[[3,1,2],[3,1,2]]",391.5978,0,right,1.7216,393.3471,1,0.3,"[3,1,2]",0.608371348,stimuli/card_10_transparent.png,10,0,0,0,0,1,,,,,,,,,,
,,,,6630f0dc60e431bb28ab7e31,B,2024-08-16_15h41.17.827,Slot Machine Game,2023.1.3,Win32,60.97560976,,,,,,,,,,,,,,,,,,,,,,,,,,,20,,,,,,,,,,,,,,,,,,3,3,,,394.6469,1,right,2.9247,397.5804,1,0.3,"[3,1,2]",0.667885261,stimuli/card_10_transparent.png,10,1,0,1,0,1,,,,,,,,,,
,,,,6630f0dc60e431bb28ab7e31,B,2024-08-16_15h41.17.827,Slot Machine Game,2023.1.3,Win32,60.97560976,,,,,,,,,,,,,,,,,,,,,,,,,,,20,,,,,,,,,,,,,,,,,,3,3,,,398.8808,2,left,0.9897,399.8973,1,0.3,"[3,1,2]",0.465524109,stimuli/card_0_transparent.png,0,2,0,2,0,1,,,,,,,,,,
,,,,6630f0dc60e431bb28ab7e31,B,2024-08-16_15h41.17.827,Slot Machine Game,2023.1.3,Win32,60.97560976,,,,,,,,,,,,,,,,,,,,,,,,,,,120,,,,,,,,,,,,,,,,,,3,3,,,401.2004,3,up,0.8232,402.0468,0.5,0.3,"[3,1,2]",0.554080616,stimuli/card_100_transparent.png,100,3,0,3,0,1,,,,,,,,,,
,,,,6630f0dc60e431bb28ab7e31,B,2024-08-16_15h41.17.827,Slot Machine Game,2023.1.3,Win32,60.97560976,,,,,,,,,,,,,,,,,,,,,,,,,,,220,,,,,,,,,,,,,,,,,,3,3,,,402.8474,4,up,1.1939,404.0642,1.5,0.3,"[3,1,2]",0.752657608,stimuli/card_100_transparent.png,100,4,0,4,0,1,,,,,,,,,,
,,,,6630f0dc60e431bb28ab7e31,B,2024-08-16_15h41.17.827,Slot Machine Game,2023.1.3,Win32,60.97560976,,,,,,,,,,,,,,,,,,,,,,,,,,,320,,,,,,,,,,,,,,,,,,3,3,,,405.8643,5,up,0.8066,406.6973,1,0.3,"[3,1,2]",0.76292045,stimuli/card_100_transparent.png,100,5,0,5,0,1,,,,,,,,,,
,,,,6630f0dc60e431bb28ab7e31,B,2024-08-16_15h41.17.827,Slot Machine Game,2023.1.3,Win32,60.97560976,,,,,,,,,,,,,,,,,,,,,,,,,,,420,,,,,,,,,,,,,,,,,,3,3,,,407.9974,6,up,0.9894,409.0139,0.5,0.3,"[3,1,2]",0.298696362,stimuli/card_100_transparent.png,100,6,0,6,0,1,,,,,,,,,,
,,,,6630f0dc60e431bb28ab7e31,B,2024-08-16_15h41.17.827,Slot Machine Game,2023.1.3,Win32,60.97560976,,,,,,,,,,,,,,,,,,,,,,,,,,,520,,,,,,,,,,,,,,,,,,3,3,,,409.8148,7,up,0.778,410.6146,1.5,0.3,"[3,1,2]",0.91376558,stimuli/card_100_transparent.png,100,7,0,7,0,1,,,,,,,,,,
,,,,6630f0dc60e431bb28ab7e31,B,2024-08-16_15h41.17.827,Slot Machine Game,2023.1.3,Win32,60.97560976,,,,,,,,,,,,,,,,,,,,,,,,,,,620,,,,,,,,,,,,,,,,,,3,3,,,412.4148,8,up,0.6194,413.0645,0.5,0.3,"[3,1,2]",0.386122899,stimuli/card_100_transparent.png,100,8,0,8,0,1,,,,,,,,,,
,,,,6630f0dc60e431bb28ab7e31,B,2024-08-16_15h41.17.827,Slot Machine Game,2023.1.3,Win32,60.97560976,,,,,,,,,,,,,,,,,,,,,,,,,,,720,,,,,,,,,,,,,,,,,,3,3,,,413.8649,9,up,0.5663,414.4641,1,0.3,"[3,1,2]",0.975554233,stimuli/card_100_transparent.png,100,9,0,9,0,1,,,,,,,,,,
,,,,6630f0dc60e431bb28ab7e31,B,2024-08-16_15h41.17.827,Slot Machine Game,2023.1.3,Win32,60.97560976,,,,,,,,,,,,,,,,,,,,,,,,,,,730,,,,,,,,,,,,,,,,,,3,3,,,415.7645,10,up,0.9689,416.7485,1,0.3,"[3,1,2]",0.158972423,stimuli/card_10_transparent.png,10,10,0,10,0,1,,,,,,,,,,
,,,,6630f0dc60e431bb28ab7e31,B,2024-08-16_15h41.17.827,Slot Machine Game,2023.1.3,Win32,60.97560976,,,,,,,,,,,,,,,,,,,,,,,,,,,740,,,,,,,,,,,,,,,,,,3,3,,,418.0483,11,right,0.7733,418.8485,0.5,0.3,"[3,1,2]",0.819077102,stimuli/card_10_transparent.png,10,11,0,11,0,1,,,,,,,,,,
,,,,6630f0dc60e431bb28ab7e31,B,2024-08-16_15h41.17.827,Slot Machine Game,2023.1.3,Win32,60.97560976,,,,,,,,,,,,,,,,,,,,,,,,,,,740,,,,,,,,,,,,,,,,,,3,3,,,419.6477,12,right,0.9531,420.6148,0.5,0.3,"[3,1,2]",0.016535344,stimuli/card_0_transparent.png,0,12,0,12,0,1,,,,,,,,,,
,,,,6630f0dc60e431bb28ab7e31,B,2024-08-16_15h41.17.827,Slot Machine Game,2023.1.3,Win32,60.97560976,,,,,,,,,,,,,,,,,,,,,,,,,,,740,,,,,,,,,,,,,,,,,,3,3,,,421.4151,13,left,0.5671,422.0153,1.5,0.3,"[3,1,2]",0.331836782,stimuli/card_0_transparent.png,0,13,0,13,0,1,,,,,,,,,,
,,,,6630f0dc60e431bb28ab7e31,B,2024-08-16_15h41.17.827,Slot Machine Game,2023.1.3,Win32,60.97560976,,,,,,,,,,,,,,,,,,,,,,,,,,,840,,,,,,,,,,,,,,,,,,3,3,,,423.8155,14,up,2.2422,426.082,1.5,0.3,"[3,1,2]",0.32939694,stimuli/card_100_transparent.png,100,14,0,14,0,1,,,,,,,,,,
,,,,6630f0dc60e431bb28ab7e31,B,2024-08-16_15h41.17.827,Slot Machine Game,2023.1.3,Win32,60.97560976,,,,,,,,,,,,,,,,,,,,,,,,,,,,,,,,,,427.8819,,,,,,,,,,,,,,,,,,,,,,,,,,,,,,,"[1030,850,840]",2,0,2,0,1,,,,
,,,,6630f0dc60e431bb28ab7e31,B,2024-08-16_15h41.17.827,Slot Machine Game,2023.1.3,Win32,60.97560976,,,,,,,,,,,,,,,,,,,,,,,,,,,100,,,,,,,,,,,,,,,,,,4,4,"[7,15]","[[2,3,1],[1,2,3]]",432.9077,0,right,0.5005,433.4328,1.5,0.3,"[2,3,1]",0.635907558,stimuli/card_100_transparent.png,100,0,0,0,0,1,,,,,,,,,,
,,,,6630f0dc60e431bb28ab7e31,B,2024-08-16_15h41.17.827,Slot Machine Game,2023.1.3,Win32,60.97560976,,,,,,,,,,,,,,,,,,,,,,,,,,,100,,,,,,,,,,,,,,,,,,4,4,,,435.233,1,right,1.3505,436.6163,1,0.3,"[2,3,1]",0.063153522,stimuli/card_0_transparent.png,0,1,0,1,0,1,,,,,,,,,,
,,,,6630f0dc60e431bb28ab7e31,B,2024-08-16_15h41.17.827,Slot Machine Game,2023.1.3,Win32,60.97560976,,,,,,,,,,,,,,,,,,,,,,,,,,,200,,,,,,,,,,,,,,,,,,4,4,,,437.9164,2,right,1.1693,439.1165,1.5,0.3,"[2,3,1]",0.217251039,stimuli/card_100_transparent.png,100,2,0,2,0,1,,,,,,,,,,
,,,,6630f0dc60e431bb28ab7e31,B,2024-08-16_15h41.17.827,Slot Machine Game,2023.1.3,Win32,60.97560976,,,,,,,,,,,,,,,,,,,,,,,,,,,300,,,,,,,,,,,,,,,,,,4,4,,,440.9165,3,right,0.7518,441.6997,0.5,0.3,"[2,3,1]",0.402171187,stimuli/card_100_transparent.png,100,3,0,3,0,1,,,,,,,,,,
,,,,6630f0dc60e431bb28ab7e31,B,2024-08-16_15h41.17.827,Slot Machine Game,2023.1.3,Win32,60.97560976,,,,,,,,,,,,,,,,,,,,,,,,,,,310,,,,,,,,,,,,,,,,,,4,4,,,442.4999,4,right,1.3671,443.8998,0.5,0.3,"[2,3,1]",0.108122288,stimuli/card_10_transparent.png,10,4,0,4,0,1,,,,,,,,,,
,,,,6630f0dc60e431bb28ab7e31,B,2024-08-16_15h41.17.827,Slot Machine Game,2023.1.3,Win32,60.97560976,,,,,,,,,,,,,,,,,,,,,,,,,,,410,,,,,,,,,,,,,,,,,,4,4,,,444.6995,5,right,1.2663,445.983,1.5,0.3,"[2,3,1]",0.891860979,stimuli/card_100_transparent.png,100,5,0,5,0,1,,,,,,,,,,
,,,,6630f0dc60e431bb28ab7e31,B,2024-08-16_15h41.17.827,Slot Machine Game,2023.1.3,Win32,60.97560976,,,,,,,,,,,,,,,,,,,,,,,,,,,410,,,,,,,,,,,,,,,,,,4,4,,,447.7829,6,right,1.5181,449.3165,0.5,0.3,"[2,3,1]",0.079359501,stimuli/card_0_transparent.png,0,6,0,6,0,1,,,,,,,,,,
,,,,6630f0dc60e431bb28ab7e31,B,2024-08-16_15h41.17.827,Slot Machine Game,2023.1.3,Win32,60.97560976,,,,,,,,,,,,,,,,,,,,,,,,,,,410,,,,,,,,,,,,,,,,,,4,4,,,450.117,7,right,1.0887,451.2332,1,0.3,"[1,2,3]",0.434827702,stimuli/card_0_transparent.png,0,7,0,7,0,1,,,,,,,,,,
,,,,6630f0dc60e431bb28ab7e31,B,2024-08-16_15h41.17.827,Slot Machine Game,2023.1.3,Win32,60.97560976,,,,,,,,,,,,,,,,,,,,,,,,,,,420,,,,,,,,,,,,,,,,,,4,4,,,452.5339,8,up,0.7678,453.3331,1,0.3,"[1,2,3]",0.641306808,stimuli/card_10_transparent.png,10,8,0,8,0,1,,,,,,,,,,
,,,,6630f0dc60e431bb28ab7e31,B,2024-08-16_15h41.17.827,Slot Machine Game,2023.1.3,Win32,60.97560976,,,,,,,,,,,,,,,,,,,,,,,,,,,430,,,,,,,,,,,,,,,,,,4,4,,,454.6341,9,left,0.7006,455.3674,1.5,0.3,"[1,2,3]",0.10157494,stimuli/card_10_transparent.png,10,9,0,9,0,1,,,,,,,,,,
,,,,6630f0dc60e431bb28ab7e31,B,2024-08-16_15h41.17.827,Slot Machine Game,2023.1.3,Win32,60.97560976,,,,,,,,,,,,,,,,,,,,,,,,,,,530,,,,,,,,,,,,,,,,,,4,4,,,457.1674,10,left,1.6896,458.8843,0.5,0.3,"[1,2,3]",0.520793179,stimuli/card_100_transparent.png,100,10,0,10,0,1,,,,,,,,,,
,,,,6630f0dc60e431bb28ab7e31,B,2024-08-16_15h41.17.827,Slot Machine Game,2023.1.3,Win32,60.97560976,,,,,,,,,,,,,,,,,,,,,,,,,,,630,,,,,,,,,,,,,,,,,,4,4,,,459.6843,11,left,1.2691,460.9843,1.5,0.3,"[1,2,3]",0.628449151,stimuli/card_100_transparent.png,100,11,0,11,0,1,,,,,,,,,,
,,,,6630f0dc60e431bb28ab7e31,B,2024-08-16_15h41.17.827,Slot Machine Game,2023.1.3,Win32,60.97560976,,,,,,,,,,,,,,,,,,,,,,,,,,,730,,,,,,,,,,,,,,,,,,4,4,,,462.7839,12,left,0.5002,463.3172,0.5,0.3,"[1,2,3]",0.423931831,stimuli/card_100_transparent.png,100,12,0,12,0,1,,,,,,,,,,
,,,,6630f0dc60e431bb28ab7e31,B,2024-08-16_15h41.17.827,Slot Machine Game,2023.1.3,Win32,60.97560976,,,,,,,,,,,,,,,,,,,,,,,,,,,830,,,,,,,,,,,,,,,,,,4,4,,,464.1177,13,left,0.9648,465.1169,0.5,0.3,"[1,2,3]",0.923753221,stimuli/card_100_transparent.png,100,13,0,13,0,1,,,,,,,,,,
,,,,6630f0dc60e431bb28ab7e31,B,2024-08-16_15h41.17.827,Slot Machine Game,2023.1.3,Win32,60.97560976,,,,,,,,,,,,,,,,,,,,,,,,,,,840,,,,,,,,,,,,,,,,,,4,4,,,465.9179,14,left,0.7374,466.6846,1,0.3,"[1,2,3]",0.117041515,stimuli/card_10_transparent.png,10,14,0,14,0,1,,,,,,,,,,
,,,,6630f0dc60e431bb28ab7e31,B,2024-08-16_15h41.17.827,Slot Machine Game,2023.1.3,Win32,60.97560976,,,,,,,,,,,,,,,,,,,,,,,,,,,,,,,,,,467.9847,,,,,,,,,,,,,,,,,,,,,,,,,,,,,,,"[1030,850,840,840]",3,0,3,0,1,,,,
,,,,6630f0dc60e431bb28ab7e31,B,2024-08-16_15h41.17.827,Slot Machine Game,2023.1.3,Win32,60.97560976,,,,,,,,,,,,,,,,,,,,,,,,,,,10,,,,,,,,,,,,,,,,,,5,5,"[5,15]","[[1,2,3],[3,1,2]]",472.9912,0,right,0.9172,473.9349,1,0.3,"[1,2,3]",0.119421182,stimuli/card_10_transparent.png,10,0,0,0,0,1,,,,,,,,,,
,,,,6630f0dc60e431bb28ab7e31,B,2024-08-16_15h41.17.827,Slot Machine Game,2023.1.3,Win32,60.97560976,,,,,,,,,,,,,,,,,,,,,,,,,,,10,,,,,,,,,,,,,,,,,,5,5,,,475.2346,1,right,0.5684,475.8186,1.5,0.3,"[1,2,3]",0.238671167,stimuli/card_0_transparent.png,0,1,0,1,0,1,,,,,,,,,,
,,,,6630f0dc60e431bb28ab7e31,B,2024-08-16_15h41.17.827,Slot Machine Game,2023.1.3,Win32,60.97560976,,,,,,,,,,,,,,,,,,,,,,,,,,,20,,,,,,,,,,,,,,,,,,5,5,,,477.6185,2,up,1.6732,479.302,0.5,0.3,"[1,2,3]",0.554166073,stimuli/card_10_transparent.png,10,2,0,2,0,1,,,,,,,,,,
,,,,6630f0dc60e431bb28ab7e31,B,2024-08-16_15h41.17.827,Slot Machine Game,2023.1.3,Win32,60.97560976,,,,,,,,,,,,,,,,,,,,,,,,,,,30,,,,,,,,,,,,,,,,,,5,5,,,480.102,3,up,1.2266,481.3521,1.5,0.3,"[1,2,3]",0.741628513,stimuli/card_10_transparent.png,10,3,0,3,0,1,,,,,,,,,,
,,,,6630f0dc60e431bb28ab7e31,B,2024-08-16_15h41.17.827,Slot Machine Game,2023.1.3,Win32,60.97560976,,,,,,,,,,,,,,,,,,,,,,,,,,,130,,,,,,,,,,,,,,,,,,5,5,,,483.1525,4,left,1.0007,484.1856,1,0.3,"[1,2,3]",0.904882434,stimuli/card_100_transparent.png,100,4,0,4,0,1,,,,,,,,,,
,,,,6630f0dc60e431bb28ab7e31,B,2024-08-16_15h41.17.827,Slot Machine Game,2023.1.3,Win32,60.97560976,,,,,,,,,,,,,,,,,,,,,,,,,,,130,,,,,,,,,,,,,,,,,,5,5,,,485.4857,5,left,0.5678,486.0857,1,0.3,"[3,1,2]",0.672674306,stimuli/card_0_transparent.png,0,5,0,5,0,1,,,,,,,,,,
,,,,6630f0dc60e431bb28ab7e31,B,2024-08-16_15h41.17.827,Slot Machine Game,2023.1.3,Win32,60.97560976,,,,,,,,,,,,,,,,,,,,,,,,,,,130,,,,,,,,,,,,,,,,,,5,5,,,487.3858,6,left,1.3338,488.7526,1,0.3,"[3,1,2]",0.236419329,stimuli/card_0_transparent.png,0,6,0,6,0,1,,,,,,,,,,
,,,,6630f0dc60e431bb28ab7e31,B,2024-08-16_15h41.17.827,Slot Machine Game,2023.1.3,Win32,60.97560976,,,,,,,,,,,,,,,,,,,,,,,,,,,140,,,,,,,,,,,,,,,,,,5,5,,,490.0518,7,right,2.4268,492.4858,1,0.3,"[3,1,2]",0.809952087,stimuli/card_10_transparent.png,10,7,0,7,0,1,,,,,,,,,,
,,,,6630f0dc60e431bb28ab7e31,B,2024-08-16_15h41.17.827,Slot Machine Game,2023.1.3,Win32,60.97560976,,,,,,,,,,,,,,,,,,,,,,,,,,,150,,,,,,,,,,,,,,,,,,5,5,,,493.7862,8,right,0.5338,494.353,1,0.3,"[3,1,2]",0.6148087,stimuli/card_10_transparent.png,10,8,0,8,0,1,,,,,,,,,,
,,,,6630f0dc60e431bb28ab7e31,B,2024-08-16_15h41.17.827,Slot Machine Game,2023.1.3,Win32,60.97560976,,,,,,,,,,,,,,,,,,,,,,,,,,,150,,,,,,,,,,,,,,,,,,5,5,,,495.6529,9,up,2.0713,497.7525,1,0.3,"[3,1,2]",0.090816878,stimuli/card_0_transparent.png,0,9,0,9,0,1,,,,,,,,,,
,,,,6630f0dc60e431bb28ab7e31,B,2024-08-16_15h41.17.827,Slot Machine Game,2023.1.3,Win32,60.97560976,,,,,,,,,,,,,,,,,,,,,,,,,,,150,,,,,,,,,,,,,,,,,,5,5,,,499.0525,10,right,1.9523,501.0369,0.5,0.3,"[3,1,2]",0.086179283,stimuli/card_0_transparent.png,0,10,0,10,0,1,,,,,,,,,,
,,,,6630f0dc60e431bb28ab7e31,B,2024-08-16_15h41.17.827,Slot Machine Game,2023.1.3,Win32,60.97560976,,,,,,,,,,,,,,,,,,,,,,,,,,,150,,,,,,,,,,,,,,,,,,5,5,,,501.8367,11,left,1.4371,503.3032,0.5,0.3,"[3,1,2]",0.552862256,stimuli/card_0_transparent.png,0,11,0,11,0,1,,,,,,,,,,
,,,,6630f0dc60e431bb28ab7e31,B,2024-08-16_15h41.17.827,Slot Machine Game,2023.1.3,Win32,60.97560976,,,,,,,,,,,,,,,,,,,,,,,,,,,250,,,,,,,,,,,,,,,,,,5,5,,,504.1034,12,up,1.2721,505.4034,1.5,0.3,"[3,1,2]",0.445630332,stimuli/card_100_transparent.png,100,12,0,12,0,1,,,,,,,,,,
,,,,6630f0dc60e431bb28ab7e31,B,2024-08-16_15h41.17.827,Slot Machine Game,2023.1.3,Win32,60.97560976,,,,,,,,,,,,,,,,,,,,,,,,,,,350,,,,,,,,,,,,,,,,,,5,5,,,507.2036,13,up,1.2005,508.4367,1,0.3,"[3,1,2]",0.295089287,stimuli/card_100_transparent.png,100,13,0,13,0,1,,,,,,,,,,
,,,,6630f0dc60e431bb28ab7e31,B,2024-08-16_15h41.17.827,Slot Machine Game,2023.1.3,Win32,60.97560976,,,,,,,,,,,,,,,,,,,,,,,,,,,450,,,,,,,,,,,,,,,,,,5,5,,,509.7371,14,up,1.1673,510.9372,0.5,0.3,"[3,1,2]",0.58516927,stimuli/card_100_transparent.png,100,14,0,14,0,1,,,,,,,,,,
,,,,6630f0dc60e431bb28ab7e31,B,2024-08-16_15h41.17.827,Slot Machine Game,2023.1.3,Win32,60.97560976,,,,,,,,,,,,,,,,,,,,,,,,,,,,,,,,,,511.7371,,,,,,,,,,,,,,,,,,,,,,,,,,,,,,,"[1030,850,840,840,450]",4,0,4,0,1,,,,
,,,,6630f0dc60e431bb28ab7e31,B,2024-08-16_15h41.17.827,Slot Machine Game,2023.1.3,Win32,60.97560976,,,,,,,,,,,,,,,,,,,,,,,,,,,100,,,,,,,,,,,,,,,,,,6,6,"[4,10,15]","[[2,3,1],[1,3,2],[3,2,1]]",516.7633,0,right,0.7992,517.5868,1.5,0.3,"[2,3,1]",0.892286727,stimuli/card_100_transparent.png,100,0,0,0,0,1,,,,,,,,,,
,,,,6630f0dc60e431bb28ab7e31,B,2024-08-16_15h41.17.827,Slot Machine Game,2023.1.3,Win32,60.97560976,,,,,,,,,,,,,,,,,,,,,,,,,,,200,,,,,,,,,,,,,,,,,,6,6,,,519.3875,1,right,2.5045,521.9205,0.5,0.3,"[2,3,1]",0.501691375,stimuli/card_100_transparent.png,100,1,0,1,0,1,,,,,,,,,,
,,,,6630f0dc60e431bb28ab7e31,B,2024-08-16_15h41.17.827,Slot Machine Game,2023.1.3,Win32,60.97560976,,,,,,,,,,,,,,,,,,,,,,,,,,,300,,,,,,,,,,,,,,,,,,6,6,,,522.7209,2,right,0.5213,523.2711,1,0.3,"[2,3,1]",0.3129588,stimuli/card_100_transparent.png,100,2,0,2,0,1,,,,,,,,,,
,,,,6630f0dc60e431bb28ab7e31,B,2024-08-16_15h41.17.827,Slot Machine Game,2023.1.3,Win32,60.97560976,,,,,,,,,,,,,,,,,,,,,,,,,,,400,,,,,,,,,,,,,,,,,,6,6,,,524.571,3,right,1.6671,526.2713,1.5,0.3,"[2,3,1]",0.473978115,stimuli/card_100_transparent.png,100,3,0,3,0,1,,,,,,,,,,
,,,,6630f0dc60e431bb28ab7e31,B,2024-08-16_15h41.17.827,Slot Machine Game,2023.1.3,Win32,60.97560976,,,,,,,,,,,,,,,,,,,,,,,,,,,410,,,,,,,,,,,,,,,,,,6,6,,,528.0707,4,right,1.4107,529.5043,0.5,0.3,"[1,3,2]",0.822666955,stimuli/card_10_transparent.png,10,4,0,4,0,1,,,,,,,,,,
,,,,6630f0dc60e431bb28ab7e31,B,2024-08-16_15h41.17.827,Slot Machine Game,2023.1.3,Win32,60.97560976,,,,,,,,,,,,,,,,,,,,,,,,,,,420,,,,,,,,,,,,,,,,,,6,6,,,530.3048,5,right,1.0031,531.3381,1,0.3,"[1,3,2]",0.886844595,stimuli/card_10_transparent.png,10,5,0,5,0,1,,,,,,,,,,
,,,,6630f0dc60e431bb28ab7e31,B,2024-08-16_15h41.17.827,Slot Machine Game,2023.1.3,Win32,60.97560976,,,,,,,,,,,,,,,,,,,,,,,,,,,430,,,,,,,,,,,,,,,,,,6,6,,,532.6382,6,right,0.9925,533.6546,0.5,0.3,"[1,3,2]",0.573011446,stimuli/card_10_transparent.png,10,6,0,6,0,1,,,,,,,,,,
,,,,6630f0dc60e431bb28ab7e31,B,2024-08-16_15h41.17.827,Slot Machine Game,2023.1.3,Win32,60.97560976,,,,,,,,,,,,,,,,,,,,,,,,,,,430,,,,,,,,,,,,,,,,,,6,6,,,534.4548,7,up,1.2707,535.7383,0.5,0.3,"[1,3,2]",0.483699418,stimuli/card_0_transparent.png,0,7,0,7,0,1,,,,,,,,,,
,,,,6630f0dc60e431bb28ab7e31,B,2024-08-16_15h41.17.827,Slot Machine Game,2023.1.3,Win32,60.97560976,,,,,,,,,,,,,,,,,,,,,,,,,,,440,,,,,,,,,,,,,,,,,,6,6,,,536.5384,8,right,2.3504,538.922,1.5,0.3,"[1,3,2]",0.943313258,stimuli/card_10_transparent.png,10,8,0,8,0,1,,,,,,,,,,
,,,,6630f0dc60e431bb28ab7e31,B,2024-08-16_15h41.17.827,Slot Machine Game,2023.1.3,Win32,60.97560976,,,,,,,,,,,,,,,,,,,,,,,,,,,540,,,,,,,,,,,,,,,,,,6,6,,,540.722,9,left,0.5173,541.2715,1,0.3,"[1,3,2]",0.501868367,stimuli/card_100_transparent.png,100,9,0,9,0,1,,,,,,,,,,
,,,,6630f0dc60e431bb28ab7e31,B,2024-08-16_15h41.17.827,Slot Machine Game,2023.1.3,Win32,60.97560976,,,,,,,,,,,,,,,,,,,,,,,,,,,540,,,,,,,,,,,,,,,,,,6,6,,,542.5722,10,left,1.5854,544.1889,1.5,0.3,"[3,2,1]",0.895016985,stimuli/card_0_transparent.png,0,10,0,10,0,1,,,,,,,,,,
,,,,6630f0dc60e431bb28ab7e31,B,2024-08-16_15h41.17.827,Slot Machine Game,2023.1.3,Win32,60.97560976,,,,,,,,,,,,,,,,,,,,,,,,,,,640,,,,,,,,,,,,,,,,,,6,6,,,545.9887,11,right,0.583,546.6053,1.5,0.3,"[3,2,1]",0.554595076,stimuli/card_100_transparent.png,100,11,0,11,0,1,,,,,,,,,,
,,,,6630f0dc60e431bb28ab7e31,B,2024-08-16_15h41.17.827,Slot Machine Game,2023.1.3,Win32,60.97560976,,,,,,,,,,,,,,,,,,,,,,,,,,,740,,,,,,,,,,,,,,,,,,6,6,,,548.4058,12,right,0.6072,549.0392,1,0.3,"[3,2,1]",0.208722933,stimuli/card_100_transparent.png,100,12,0,12,0,1,,,,,,,,,,
,,,,6630f0dc60e431bb28ab7e31,B,2024-08-16_15h41.17.827,Slot Machine Game,2023.1.3,Win32,60.97560976,,,,,,,,,,,,,,,,,,,,,,,,,,,840,,,,,,,,,,,,,,,,,,6,6,,,550.3392,13,right,0.634,551.0054,1.5,0.3,"[3,2,1]",0.889375471,stimuli/card_100_transparent.png,100,13,0,13,0,1,,,,,,,,,,
,,,,6630f0dc60e431bb28ab7e31,B,2024-08-16_15h41.17.827,Slot Machine Game,2023.1.3,Win32,60.97560976,,,,,,,,,,,,,,,,,,,,,,,,,,,940,,,,,,,,,,,,,,,,,,6,6,,,552.8061,14,right,1.4528,554.2893,0.5,0.3,"[3,2,1]",0.645719094,stimuli/card_100_transparent.png,100,14,0,14,0,1,,,,,,,,,,
,,,,6630f0dc60e431bb28ab7e31,B,2024-08-16_15h41.17.827,Slot Machine Game,2023.1.3,Win32,60.97560976,,,,,,,,,,,,,,,,,,,,,,,,,,,,,,,,,,555.0893,,,,,,,,,,,,,,,,,,,,,,,,,,,,,,,"[1030,850,840,840,450,940]",5,0,5,0,1,,,,
,,,,6630f0dc60e431bb28ab7e31,B,2024-08-16_15h41.17.827,Slot Machine Game,2023.1.3,Win32,60.97560976,,,,,,,,,,,,,,,,,,,,,,,,,,,10,,,,,,,,,,,,,,,,,,7,7,"[9,15]","[[1,3,2],[2,3,1]]",560.1197,0,right,1.293,561.4229,1.5,0.3,"[1,3,2]",0.926054239,stimuli/card_10_transparent.png,10,0,0,0,0,1,,,,,,,,,,
,,,,6630f0dc60e431bb28ab7e31,B,2024-08-16_15h41.17.827,Slot Machine Game,2023.1.3,Win32,60.97560976,,,,,,,,,,,,,,,,,,,,,,,,,,,20,,,,,,,,,,,,,,,,,,7,7,,,563.2233,1,right,0.7698,564.0227,1,0.3,"[1,3,2]",0.947219919,stimuli/card_10_transparent.png,10,1,0,1,0,1,,,,,,,,,,
,,,,6630f0dc60e431bb28ab7e31,B,2024-08-16_15h41.17.827,Slot Machine Game,2023.1.3,Win32,60.97560976,,,,,,,,,,,,,,,,,,,,,,,,,,,120,,,,,,,,,,,,,,,,,,7,7,,,565.3229,2,left,0.95,566.2898,1.5,0.3,"[1,3,2]",0.290632406,stimuli/card_100_transparent.png,100,2,0,2,0,1,,,,,,,,,,
,,,,6630f0dc60e431bb28ab7e31,B,2024-08-16_15h41.17.827,Slot Machine Game,2023.1.3,Win32,60.97560976,,,,,,,,,,,,,,,,,,,,,,,,,,,220,,,,,,,,,,,,,,,,,,7,7,,,568.0896,3,left,1.4266,569.5401,1.5,0.3,"[1,3,2]",0.723031057,stimuli/card_100_transparent.png,100,3,0,3,0,1,,,,,,,,,,
,,,,6630f0dc60e431bb28ab7e31,B,2024-08-16_15h41.17.827,Slot Machine Game,2023.1.3,Win32,60.97560976,,,,,,,,,,,,,,,,,,,,,,,,,,,220,,,,,,,,,,,,,,,,,,7,7,,,571.3403,4,left,1.3734,572.7405,1.5,0.3,"[1,3,2]",0.023645672,stimuli/card_0_transparent.png,0,4,0,4,0,1,,,,,,,,,,
,,,,6630f0dc60e431bb28ab7e31,B,2024-08-16_15h41.17.827,Slot Machine Game,2023.1.3,Win32,60.97560976,,,,,,,,,,,,,,,,,,,,,,,,,,,320,,,,,,,,,,,,,,,,,,7,7,,,574.5403,5,left,1.0701,575.6406,0.5,0.3,"[1,3,2]",0.906787491,stimuli/card_100_transparent.png,100,5,0,5,0,1,,,,,,,,,,
,,,,6630f0dc60e431bb28ab7e31,B,2024-08-16_15h41.17.827,Slot Machine Game,2023.1.3,Win32,60.97560976,,,,,,,,,,,,,,,,,,,,,,,,,,,420,,,,,,,,,,,,,,,,,,7,7,,,576.4403,6,left,1.1673,577.624,1.5,0.3,"[1,3,2]",0.860280252,stimuli/card_100_transparent.png,100,6,0,6,0,1,,,,,,,,,,
,,,,6630f0dc60e431bb28ab7e31,B,2024-08-16_15h41.17.827,Slot Machine Game,2023.1.3,Win32,60.97560976,,,,,,,,,,,,,,,,,,,,,,,,,,,520,,,,,,,,,,,,,,,,,,7,7,,,579.4234,7,left,1.5579,580.9908,0.5,0.3,"[1,3,2]",0.421777446,stimuli/card_100_transparent.png,100,7,0,7,0,1,,,,,,,,,,
,,,,6630f0dc60e431bb28ab7e31,B,2024-08-16_15h41.17.827,Slot Machine Game,2023.1.3,Win32,60.97560976,,,,,,,,,,,,,,,,,,,,,,,,,,,620,,,,,,,,,,,,,,,,,,7,7,,,581.791,8,left,0.7106,582.5242,0.5,0.3,"[1,3,2]",0.694449498,stimuli/card_100_transparent.png,100,8,0,8,0,1,,,,,,,,,,
,,,,6630f0dc60e431bb28ab7e31,B,2024-08-16_15h41.17.827,Slot Machine Game,2023.1.3,Win32,60.97560976,,,,,,,,,,,,,,,,,,,,,,,,,,,630,,,,,,,,,,,,,,,,,,7,7,,,583.3244,9,left,1.4107,584.7576,0.5,0.3,"[2,3,1]",0.842069307,stimuli/card_10_transparent.png,10,9,0,9,0,1,,,,,,,,,,
,,,,6630f0dc60e431bb28ab7e31,B,2024-08-16_15h41.17.827,Slot Machine Game,2023.1.3,Win32,60.97560976,,,,,,,,,,,,,,,,,,,,,,,,,,,640,,,,,,,,,,,,,,,,,,7,7,,,585.5578,10,left,1.1257,586.7076,1.5,0.3,"[2,3,1]",0.73017844,stimuli/card_10_transparent.png,10,10,0,10,0,1,,,,,,,,,,
,,,,6630f0dc60e431bb28ab7e31,B,2024-08-16_15h41.17.827,Slot Machine Game,2023.1.3,Win32,60.97560976,,,,,,,,,,,,,,,,,,,,,,,,,,,740,,,,,,,,,,,,,,,,,,7,7,,,588.5078,11,right,2.2167,590.7582,0.5,0.3,"[2,3,1]",0.266554692,stimuli/card_100_transparent.png,100,11,0,11,0,1,,,,,,,,,,
,,,,6630f0dc60e431bb28ab7e31,B,2024-08-16_15h41.17.827,Slot Machine Game,2023.1.3,Win32,60.97560976,,,,,,,,,,,,,,,,,,,,,,,,,,,840,,,,,,,,,,,,,,,,,,7,7,,,591.5578,12,right,1.2903,592.8581,1,0.3,"[2,3,1]",0.363620725,stimuli/card_100_transparent.png,100,12,0,12,0,1,,,,,,,,,,
,,,,6630f0dc60e431bb28ab7e31,B,2024-08-16_15h41.17.827,Slot Machine Game,2023.1.3,Win32,60.97560976,,,,,,,,,,,,,,,,,,,,,,,,,,,940,,,,,,,,,,,,,,,,,,7,7,,,594.1581,13,right,1.4666,595.6577,1,0.3,"[2,3,1]",0.31151826,stimuli/card_100_transparent.png,100,13,0,13,0,1,,,,,,,,,,
,,,,6630f0dc60e431bb28ab7e31,B,2024-08-16_15h41.17.827,Slot Machine Game,2023.1.3,Win32,60.97560976,,,,,,,,,,,,,,,,,,,,,,,,,,,950,,,,,,,,,,,,,,,,,,7,7,,,596.9576,14,right,2.1024,599.077,1,0.3,"[2,3,1]",0.143519042,stimuli/card_10_transparent.png,10,14,0,14,0,1,,,,,,,,,,
,,,,6630f0dc60e431bb28ab7e31,B,2024-08-16_15h41.17.827,Slot Machine Game,2023.1.3,Win32,60.97560976,,,,,,,,,,,,,,,,,,,,,,,,,,,,,,,,,,600.3754,,,,,,,,,,,,,,,,,,,,,,,,,,,,,,,"[1030,850,840,840,450,940,950]",6,0,6,0,1,,,,
,,,,6630f0dc60e431bb28ab7e31,B,2024-08-16_15h41.17.827,Slot Machine Game,2023.1.3,Win32,60.97560976,,,,,,,,,,,,,,,,,,,,,,,,,,,100,,,,,,,,,,,,,,,,,,8,8,"[11,15]","[[2,1,3],[1,2,3]]",605.3827,0,up,1.9675,607.3754,1,0.3,"[2,1,3]",0.707802629,stimuli/card_100_transparent.png,100,0,0,0,0,1,,,,,,,,,,
,,,,6630f0dc60e431bb28ab7e31,B,2024-08-16_15h41.17.827,Slot Machine Game,2023.1.3,Win32,60.97560976,,,,,,,,,,,,,,,,,,,,,,,,,,,200,,,,,,,,,,,,,,,,,,8,8,,,608.6754,1,up,0.5339,609.2259,1.5,0.3,"[2,1,3]",0.534591654,stimuli/card_100_transparent.png,100,1,0,1,0,1,,,,,,,,,,
,,,,6630f0dc60e431bb28ab7e31,B,2024-08-16_15h41.17.827,Slot Machine Game,2023.1.3,Win32,60.97560976,,,,,,,,,,,,,,,,,,,,,,,,,,,300,,,,,,,,,,,,,,,,,,8,8,,,611.026,2,up,0.8671,611.9257,1.5,0.3,"[2,1,3]",0.95092209,stimuli/card_100_transparent.png,100,2,0,2,0,1,,,,,,,,,,
,,,,6630f0dc60e431bb28ab7e31,B,2024-08-16_15h41.17.827,Slot Machine Game,2023.1.3,Win32,60.97560976,,,,,,,,,,,,,,,,,,,,,,,,,,,400,,,,,,,,,,,,,,,,,,8,8,,,613.7261,3,up,1.3181,615.0763,0.5,0.3,"[2,1,3]",0.680357229,stimuli/card_100_transparent.png,100,3,0,3,0,1,,,,,,,,,,
,,,,6630f0dc60e431bb28ab7e31,B,2024-08-16_15h41.17.827,Slot Machine Game,2023.1.3,Win32,60.97560976,,,,,,,,,,,,,,,,,,,,,,,,,,,500,,,,,,,,,,,,,,,,,,8,8,,,615.876,4,up,0.641,616.5426,1.5,0.3,"[2,1,3]",0.856540162,stimuli/card_100_transparent.png,100,4,0,4,0,1,,,,,,,,,,
,,,,6630f0dc60e431bb28ab7e31,B,2024-08-16_15h41.17.827,Slot Machine Game,2023.1.3,Win32,60.97560976,,,,,,,,,,,,,,,,,,,,,,,,,,,600,,,,,,,,,,,,,,,,,,8,8,,,618.343,5,up,1.2848,619.6598,1.5,0.3,"[2,1,3]",0.679653954,stimuli/card_100_transparent.png,100,5,0,5,0,1,,,,,,,,,,
,,,,6630f0dc60e431bb28ab7e31,B,2024-08-16_15h41.17.827,Slot Machine Game,2023.1.3,Win32,60.97560976,,,,,,,,,,,,,,,,,,,,,,,,,,,700,,,,,,,,,,,,,,,,,,8,8,,,621.4597,6,up,1.6054,623.0927,0.5,0.3,"[2,1,3]",0.463592355,stimuli/card_100_transparent.png,100,6,0,6,0,1,,,,,,,,,,
,,,,6630f0dc60e431bb28ab7e31,B,2024-08-16_15h41.17.827,Slot Machine Game,2023.1.3,Win32,60.97560976,,,,,,,,,,,,,,,,,,,,,,,,,,,800,,,,,,,,,,,,,,,,,,8,8,,,623.8929,7,up,0.6381,624.5597,0.5,0.3,"[2,1,3]",0.250707155,stimuli/card_100_transparent.png,100,7,0,7,0,1,,,,,,,,,,
,,,,6630f0dc60e431bb28ab7e31,B,2024-08-16_15h41.17.827,Slot Machine Game,2023.1.3,Win32,60.97560976,,,,,,,,,,,,,,,,,,,,,,,,,,,900,,,,,,,,,,,,,,,,,,8,8,,,625.3599,8,up,1.308,626.6935,1,0.3,"[2,1,3]",0.563216649,stimuli/card_100_transparent.png,100,8,0,8,0,1,,,,,,,,,,
,,,,6630f0dc60e431bb28ab7e31,B,2024-08-16_15h41.17.827,Slot Machine Game,2023.1.3,Win32,60.97560976,,,,,,,,,,,,,,,,,,,,,,,,,,,900,,,,,,,,,,,,,,,,,,8,8,,,627.9935,9,up,0.8935,628.9099,1.5,0.3,"[2,1,3]",0.063542997,stimuli/card_0_transparent.png,0,9,0,9,0,1,,,,,,,,,,
,,,,6630f0dc60e431bb28ab7e31,B,2024-08-16_15h41.17.827,Slot Machine Game,2023.1.3,Win32,60.97560976,,,,,,,,,,,,,,,,,,,,,,,,,,,910,,,,,,,,,,,,,,,,,,8,8,,,630.7169,10,up,0.5176,631.2605,0.5,0.3,"[2,1,3]",0.164997228,stimuli/card_10_transparent.png,10,10,0,10,0,1,,,,,,,,,,
,,,,6630f0dc60e431bb28ab7e31,B,2024-08-16_15h41.17.827,Slot Machine Game,2023.1.3,Win32,60.97560976,,,,,,,,,,,,,,,,,,,,,,,,,,,920,,,,,,,,,,,,,,,,,,8,8,,,632.0604,11,up,0.535,632.6273,1,0.3,"[1,2,3]",0.689280855,stimuli/card_10_transparent.png,10,11,0,11,0,1,,,,,,,,,,
,,,,6630f0dc60e431bb28ab7e31,B,2024-08-16_15h41.17.827,Slot Machine Game,2023.1.3,Win32,60.97560976,,,,,,,,,,,,,,,,,,,,,,,,,,,920,,,,,,,,,,,,,,,,,,8,8,,,633.9273,12,right,0.7586,634.7104,0.5,0.3,"[1,2,3]",0.58412626,stimuli/card_0_transparent.png,0,12,0,12,0,1,,,,,,,,,,
,,,,6630f0dc60e431bb28ab7e31,B,2024-08-16_15h41.17.827,Slot Machine Game,2023.1.3,Win32,60.97560976,,,,,,,,,,,,,,,,,,,,,,,,,,,1020,,,,,,,,,,,,,,,,,,8,8,,,635.5107,13,left,2.2443,637.7773,0.5,0.3,"[1,2,3]",0.359897233,stimuli/card_100_transparent.png,100,13,0,13,0,1,,,,,,,,,,
,,,,6630f0dc60e431bb28ab7e31,B,2024-08-16_15h41.17.827,Slot Machine Game,2023.1.3,Win32,60.97560976,,,,,,,,,,,,,,,,,,,,,,,,,,,1120,,,,,,,,,,,,,,,,,,8,8,,,638.5774,14,left,1.2687,639.877,1.5,0.3,"[1,2,3]",0.83637827,stimuli/card_100_transparent.png,100,14,0,14,0,1,,,,,,,,,,
,,,,6630f0dc60e431bb28ab7e31,B,2024-08-16_15h41.17.827,Slot Machine Game,2023.1.3,Win32,60.97560976,,,,,,,,,,,,,,,,,,,,,,,,,,,,,,,,,,641.6776,,,,,,,,,,,,,,,,,,,,,,,,,,,,,,,"[1030,850,840,840,450,940,950,1120]",7,0,7,0,1,,,,
,,,,6630f0dc60e431bb28ab7e31,B,2024-08-16_15h41.17.827,Slot Machine Game,2023.1.3,Win32,60.97560976,,,,,,,,,,,,,,,,,,,,,,,,,,,10,,,,,,,,,,,,,,,,,,9,9,"[8,15]","[[3,2,1],[3,1,2]]",646.7076,0,right,0.7847,647.5113,1,0.3,"[3,2,1]",0.156976879,stimuli/card_10_transparent.png,10,0,0,0,0,1,,,,,,,,,,
,,,,6630f0dc60e431bb28ab7e31,B,2024-08-16_15h41.17.827,Slot Machine Game,2023.1.3,Win32,60.97560976,,,,,,,,,,,,,,,,,,,,,,,,,,,20,,,,,,,,,,,,,,,,,,9,9,,,648.8108,1,right,0.5188,649.3446,0.5,0.3,"[3,2,1]",0.143632083,stimuli/card_10_transparent.png,10,1,0,1,0,1,,,,,,,,,,
,,,,6630f0dc60e431bb28ab7e31,B,2024-08-16_15h41.17.827,Slot Machine Game,2023.1.3,Win32,60.97560976,,,,,,,,,,,,,,,,,,,,,,,,,,,30,,,,,,,,,,,,,,,,,,9,9,,,650.1448,2,up,3.845,654.0133,1,0.3,"[3,2,1]",0.462140771,stimuli/card_10_transparent.png,10,2,0,2,0,1,,,,,,,,,,
,,,,6630f0dc60e431bb28ab7e31,B,2024-08-16_15h41.17.827,Slot Machine Game,2023.1.3,Win32,60.97560976,,,,,,,,,,,,,,,,,,,,,,,,,,,,,,,,,,,,,,,,,,,,,9,9,,,655.3114,3,,,,1,0.3,,,,,3,0,3,0,1,,,,,,,,,,
,,,,6630f0dc60e431bb28ab7e31,B,2024-08-16_15h41.17.827,Slot Machine Game,2023.1.3,Win32,60.97560976,,,,,,,,,,,,,,,,,,,,,,,,,,,30,,,,,,,,,,,,,,,,,,9,9,,,660.8291,4,left,3.7239,664.5796,0.5,0.3,"[3,2,1]",0.215148273,stimuli/card_0_transparent.png,0,4,0,4,0,1,,,,,,,,,,
,,,,6630f0dc60e431bb28ab7e31,B,2024-08-16_15h41.17.827,Slot Machine Game,2023.1.3,Win32,60.97560976,,,,,,,,,,,,,,,,,,,,,,,,,,,40,,,,,,,,,,,,,,,,,,9,9,,,665.3791,5,up,2.508,667.9118,1.5,0.3,"[3,2,1]",0.514016446,stimuli/card_10_transparent.png,10,5,0,5,0,1,,,,,,,,,,
,,,,6630f0dc60e431bb28ab7e31,B,2024-08-16_15h41.17.827,Slot Machine Game,2023.1.3,Win32,60.97560976,,,,,,,,,,,,,,,,,,,,,,,,,,,140,,,,,,,,,,,,,,,,,,9,9,,,669.7125,6,right,2.3212,672.0627,0.5,0.3,"[3,2,1]",0.513832363,stimuli/card_100_transparent.png,100,6,0,6,0,1,,,,,,,,,,
,,,,6630f0dc60e431bb28ab7e31,B,2024-08-16_15h41.17.827,Slot Machine Game,2023.1.3,Win32,60.97560976,,,,,,,,,,,,,,,,,,,,,,,,,,,240,,,,,,,,,,,,,,,,,,9,9,,,672.8623,7,right,1.632,674.5123,1.5,0.3,"[3,2,1]",0.86098379,stimuli/card_100_transparent.png,100,7,0,7,0,1,,,,,,,,,,
,,,,6630f0dc60e431bb28ab7e31,B,2024-08-16_15h41.17.827,Slot Machine Game,2023.1.3,Win32,60.97560976,,,,,,,,,,,,,,,,,,,,,,,,,,,250,,,,,,,,,,,,,,,,,,9,9,,,676.313,8,right,0.7767,677.113,1.5,0.3,"[3,1,2]",0.954211823,stimuli/card_10_transparent.png,10,8,0,8,0,1,,,,,,,,,,
,,,,6630f0dc60e431bb28ab7e31,B,2024-08-16_15h41.17.827,Slot Machine Game,2023.1.3,Win32,60.97560976,,,,,,,,,,,,,,,,,,,,,,,,,,,260,,,,,,,,,,,,,,,,,,9,9,,,678.9131,9,right,1.7338,680.6798,0.5,0.3,"[3,1,2]",0.737457575,stimuli/card_10_transparent.png,10,9,0,9,0,1,,,,,,,,,,
,,,,6630f0dc60e431bb28ab7e31,B,2024-08-16_15h41.17.827,Slot Machine Game,2023.1.3,Win32,60.97560976,,,,,,,,,,,,,,,,,,,,,,,,,,,360,,,,,,,,,,,,,,,,,,9,9,,,681.4796,10,right,1.1567,682.6625,0.5,0.3,"[3,1,2]",0.125978569,stimuli/card_100_transparent.png,100,10,0,10,0,1,,,,,,,,,,
,,,,6630f0dc60e431bb28ab7e31,B,2024-08-16_15h41.17.827,Slot Machine Game,2023.1.3,Win32,60.97560976,,,,,,,,,,,,,,,,,,,,,,,,,,,370,,,,,,,,,,,,,,,,,,9,9,,,683.4634,11,right,0.5265,684.0131,0.5,0.3,"[3,1,2]",0.843467091,stimuli/card_10_transparent.png,10,11,0,11,0,1,,,,,,,,,,
,,,,6630f0dc60e431bb28ab7e31,B,2024-08-16_15h41.17.827,Slot Machine Game,2023.1.3,Win32,60.97560976,,,,,,,,,,,,,,,,,,,,,,,,,,,380,,,,,,,,,,,,,,,,,,9,9,,,684.8127,12,up,1.2546,686.0796,1,0.3,"[3,1,2]",0.186746907,stimuli/card_10_transparent.png,10,12,0,12,0,1,,,,,,,,,,
,,,,6630f0dc60e431bb28ab7e31,B,2024-08-16_15h41.17.827,Slot Machine Game,2023.1.3,Win32,60.97560976,,,,,,,,,,,,,,,,,,,,,,,,,,,480,,,,,,,,,,,,,,,,,,9,9,,,687.3803,13,left,0.6555,688.0633,1,0.3,"[3,1,2]",0.058157951,stimuli/card_100_transparent.png,100,13,0,13,0,1,,,,,,,,,,
,,,,6630f0dc60e431bb28ab7e31,B,2024-08-16_15h41.17.827,Slot Machine Game,2023.1.3,Win32,60.97560976,,,,,,,,,,,,,,,,,,,,,,,,,,,480,,,,,,,,,,,,,,,,,,9,9,,,689.3638,14,left,0.7011,690.0969,1.5,0.3,"[3,1,2]",0.209555689,stimuli/card_0_transparent.png,0,14,0,14,0,1,,,,,,,,,,
,,,,6630f0dc60e431bb28ab7e31,B,2024-08-16_15h41.17.827,Slot Machine Game,2023.1.3,Win32,60.97560976,,,,,,,,,,,,,,,,,,,,,,,,,,,,,,,,,,691.8966,,,,,,,,,,,,,,,,,,,,,,,,,,,,,,,"[1030,850,840,840,450,940,950,1120,480]",8,0,8,0,1,,,,
,,,,6630f0dc60e431bb28ab7e31,B,2024-08-16_15h41.17.827,Slot Machine Game,2023.1.3,Win32,60.97560976,,,,,,,,,,,,,,,,,,,,,,,,,,,10,,,,,,,,,,,,,,,,,,10,10,"[10,15]","[[3,1,2],[1,3,2]]",696.9282,0,right,0.6009,697.5476,1.5,0.3,"[3,1,2]",0.330578883,stimuli/card_10_transparent.png,10,0,0,0,0,1,,,,,,,,,,
,,,,6630f0dc60e431bb28ab7e31,B,2024-08-16_15h41.17.827,Slot Machine Game,2023.1.3,Win32,60.97560976,,,,,,,,,,,,,,,,,,,,,,,,,,,20,,,,,,,,,,,,,,,,,,10,10,,,699.3475,1,right,0.8988,700.2976,0.5,0.3,"[3,1,2]",0.998176655,stimuli/card_10_transparent.png,10,1,0,1,0,1,,,,,,,,,,
,,,,6630f0dc60e431bb28ab7e31,B,2024-08-16_15h41.17.827,Slot Machine Game,2023.1.3,Win32,60.97560976,,,,,,,,,,,,,,,,,,,,,,,,,,,120,,,,,,,,,,,,,,,,,,10,10,,,701.0809,2,up,1.8501,702.9639,0.5,0.3,"[3,1,2]",0.749532229,stimuli/card_100_transparent.png,100,2,0,2,0,1,,,,,,,,,,
,,,,6630f0dc60e431bb28ab7e31,B,2024-08-16_15h41.17.827,Slot Machine Game,2023.1.3,Win32,60.97560976,,,,,,,,,,,,,,,,,,,,,,,,,,,220,,,,,,,,,,,,,,,,,,10,10,,,703.7646,3,up,2.8562,706.6481,0.5,0.3,"[3,1,2]",0.653970855,stimuli/card_100_transparent.png,100,3,0,3,0,1,,,,,,,,,,
,,,,6630f0dc60e431bb28ab7e31,B,2024-08-16_15h41.17.827,Slot Machine Game,2023.1.3,Win32,60.97560976,,,,,,,,,,,,,,,,,,,,,,,,,,,320,,,,,,,,,,,,,,,,,,10,10,,,707.4481,4,up,0.8782,708.3479,0.5,0.3,"[3,1,2]",0.594766402,stimuli/card_100_transparent.png,100,4,0,4,0,1,,,,,,,,,,
,,,,6630f0dc60e431bb28ab7e31,B,2024-08-16_15h41.17.827,Slot Machine Game,2023.1.3,Win32,60.97560976,,,,,,,,,,,,,,,,,,,,,,,,,,,420,,,,,,,,,,,,,,,,,,10,10,,,709.1474,5,up,0.7047,709.8648,0.5,0.3,"[3,1,2]",0.465838652,stimuli/card_100_transparent.png,100,5,0,5,0,1,,,,,,,,,,
,,,,6630f0dc60e431bb28ab7e31,B,2024-08-16_15h41.17.827,Slot Machine Game,2023.1.3,Win32,60.97560976,,,,,,,,,,,,,,,,,,,,,,,,,,,520,,,,,,,,,,,,,,,,,,10,10,,,710.6647,6,up,1.7916,712.481,0.5,0.3,"[3,1,2]",0.988827555,stimuli/card_100_transparent.png,100,6,0,6,0,1,,,,,,,,,,
,,,,6630f0dc60e431bb28ab7e31,B,2024-08-16_15h41.17.827,Slot Machine Game,2023.1.3,Win32,60.97560976,,,,,,,,,,,,,,,,,,,,,,,,,,,620,,,,,,,,,,,,,,,,,,10,10,,,713.2816,7,up,0.7339,714.0478,1.5,0.3,"[3,1,2]",0.607515421,stimuli/card_100_transparent.png,100,7,0,7,0,1,,,,,,,,,,
,,,,6630f0dc60e431bb28ab7e31,B,2024-08-16_15h41.17.827,Slot Machine Game,2023.1.3,Win32,60.97560976,,,,,,,,,,,,,,,,,,,,,,,,,,,720,,,,,,,,,,,,,,,,,,10,10,,,715.8483,8,up,0.7168,716.5979,1,0.3,"[3,1,2]",0.635765143,stimuli/card_100_transparent.png,100,8,0,8,0,1,,,,,,,,,,
,,,,6630f0dc60e431bb28ab7e31,B,2024-08-16_15h41.17.827,Slot Machine Game,2023.1.3,Win32,60.97560976,,,,,,,,,,,,,,,,,,,,,,,,,,,820,,,,,,,,,,,,,,,,,,10,10,,,717.898,9,up,0.7386,718.6488,1,0.3,"[3,1,2]",0.336402128,stimuli/card_100_transparent.png,100,9,0,9,0,1,,,,,,,,,,
,,,,6630f0dc60e431bb28ab7e31,B,2024-08-16_15h41.17.827,Slot Machine Game,2023.1.3,Win32,60.97560976,,,,,,,,,,,,,,,,,,,,,,,,,,,820,,,,,,,,,,,,,,,,,,10,10,,,719.9488,10,up,1.1163,721.0983,1,0.3,"[1,3,2]",0.533767622,stimuli/card_0_transparent.png,0,10,0,10,0,1,,,,,,,,,,
,,,,6630f0dc60e431bb28ab7e31,B,2024-08-16_15h41.17.827,Slot Machine Game,2023.1.3,Win32,60.97560976,,,,,,,,,,,,,,,,,,,,,,,,,,,820,,,,,,,,,,,,,,,,,,10,10,,,722.3988,11,left,0.6342,723.0655,0.5,0.3,"[1,3,2]",0.08105964,stimuli/card_0_transparent.png,0,11,0,11,0,1,,,,,,,,,,
,,,,6630f0dc60e431bb28ab7e31,B,2024-08-16_15h41.17.827,Slot Machine Game,2023.1.3,Win32,60.97560976,,,,,,,,,,,,,,,,,,,,,,,,,,,920,,,,,,,,,,,,,,,,,,10,10,,,723.8653,12,right,0.5099,724.3823,1,0.3,"[1,3,2]",0.114471862,stimuli/card_100_transparent.png,100,12,0,12,0,1,,,,,,,,,,
,,,,6630f0dc60e431bb28ab7e31,B,2024-08-16_15h41.17.827,Slot Machine Game,2023.1.3,Win32,60.97560976,,,,,,,,,,,,,,,,,,,,,,,,,,,930,,,,,,,,,,,,,,,,,,10,10,,,725.6822,13,right,1.1007,726.8155,1,0.3,"[1,3,2]",0.459716446,stimuli/card_10_transparent.png,10,13,0,13,0,1,,,,,,,,,,
,,,,6630f0dc60e431bb28ab7e31,B,2024-08-16_15h41.17.827,Slot Machine Game,2023.1.3,Win32,60.97560976,,,,,,,,,,,,,,,,,,,,,,,,,,,930,,,,,,,,,,,,,,,,,,10,10,,,728.1155,14,up,0.5171,728.6491,0.5,0.3,"[1,3,2]",0.923204618,stimuli/card_0_transparent.png,0,14,0,14,0,1,,,,,,,,,,
,,,,6630f0dc60e431bb28ab7e31,B,2024-08-16_15h41.17.827,Slot Machine Game,2023.1.3,Win32,60.97560976,,,,,,,,,,,,,,,,,,,,,,,,,,,,,,,,,,729.4486,,,,,,,,,,,,,,,,,,,,,,,,,,,,,,,"[1030,850,840,840,450,940,950,1120,480,930]",9,0,9,0,1,,,,
,,,,6630f0dc60e431bb28ab7e31,B,2024-08-16_15h41.17.827,Slot Machine Game,2023.1.3,Win32,60.97560976,,,,,,,,,,,,,,,,,,,,,,,,,,,,,,,,,,,,,,,,,,,,,,,,,,,,,,,,,,,,,,,,,,,,,,,9,"[1030,850,840,840,450,940,950,1120,480,930]",8.4,2024-08-16_15h53.36.381
