key_resp_welcome_started,key_resp_welcome_keys,key_resp_welcome_rt,key_resp_welcome_duration,prolific_id,path_id,date,expName,psychopyVersion,OS,frameRate,key_resp_instruction1_started,key_resp_instruction1_keys,key_resp_instruction1_rt,key_resp_instruction1_duration,key_resp_instruction2_started,key_resp_instruction2_keys,key_resp_instruction2_rt,key_resp_instruction2_duration,key_resp_instruction3_started,key_resp_instruction3_keys,key_resp_instruction3_rt,key_resp_instruction3_duration,key_resp_instruction4_started,key_resp_instruction4_keys,key_resp_instruction4_rt,key_resp_instruction4_duration,practiceCondition,practice_reward_seqs,practice_trial_started,practice_trial_num,practice_resp_rt,practice_resp_duration,practice_resp_keys,prac_presentationInterval,"practice_reward_seq: 2,1,3",reward_img,cumulative_reward,trial_reward,practice_trials.thisRepN,practice_trials.thisTrialN,practice_trials.thisN,practice_trials.thisIndex,practice_trials.ran,"practice_reward_seq: 2,3,1",block_break_started,"practice_reward_seq: 1,3,2","practice_reward_seq: 3,1,2",practice_end_time,practice_end_keys,practice_end_rt,practice_end_duration,main_instruction_text_started,block_condition,block_order_indices,main_instruction_keys,main_instruction_rt,main_instruction_duration,block_number,block_assignment,current_condition,main_reward_seqs,main_trial_started,main_trial_num,main_trial_keys,main_trial_rt,main_trial_duration,main_presentationInterval,reward_presentation_time,main_reward_seq,reward_rand_val,main_reward_img,current_reward,main_trials.thisRepN,main_trials.thisTrialN,main_trials.thisN,main_trials.thisIndex,main_trials.ran,block_reward,block.thisRepN,block.thisTrialN,block.thisN,block.thisIndex,block.ran,block_reward.length,block_reward_all,reward_amount,date_end_task
0.0003,right,8.8962,,5f53ffa9a0830d765571ef78,A,2024-05-23_20h52.31.988,Slot Machine Game,2023.1.3,MacIntel,59.97361161,,,,,,,,,,,,,,,,,,,,,,,,,,,,,,,,,,,,,,,,,,,,,,,,,,,,,,,,,,,,,,,,,,,,,,,,,,,,,
,,,,5f53ffa9a0830d765571ef78,A,2024-05-23_20h52.31.988,Slot Machine Game,2023.1.3,MacIntel,59.97361161,8.9153,right,17.1262,,,,,,,,,,,,,,,,,,,,,,,,,,,,,,,,,,,,,,,,,,,,,,,,,,,,,,,,,,,,,,,,,,,,,,,,,,
,,,,5f53ffa9a0830d765571ef78,A,2024-05-23_20h52.31.988,Slot Machine Game,2023.1.3,MacIntel,59.97361161,,,,,26.0708,right,26.1622,,,,,,,,,,,,,,,,,,,,,,,,,,,,,,,,,,,,,,,,,,,,,,,,,,,,,,,,,,,,,,,,,,,,,,
,,,,5f53ffa9a0830d765571ef78,A,2024-05-23_20h52.31.988,Slot Machine Game,2023.1.3,MacIntel,59.97361161,,,,,,,,,52.2664,right,7.5673,,,,,,,,,,,,,,,,,,,,,,,,,,,,,,,,,,,,,,,,,,,,,,,,,,,,,,,,,,,,,,,,,,
,,,,5f53ffa9a0830d765571ef78,A,2024-05-23_20h52.31.988,Slot Machine Game,2023.1.3,MacIntel,59.97361161,,,,,,,,,,,,,,,,,,,,,,,,,,,,,,,,,,,,,,,,,,,,,,,,,,,,,,,,,,,,,,,,,,,,,,,,,,,,,
,,,,5f53ffa9a0830d765571ef78,A,2024-05-23_20h52.31.988,Slot Machine Game,2023.1.3,MacIntel,59.97361161,,,,,,,,,,,,,201.6964,space,3.2732,,,,,,,,,,,,,,,,,,,,,,,,,,,,,,,,,,,,,,,,,,,,,,,,,,,,,,,,,,,,,,
,,,,5f53ffa9a0830d765571ef78,A,2024-05-23_20h52.31.988,Slot Machine Game,2023.1.3,MacIntel,59.97361161,,,,,,,,,,,,,,,,,"[9,15]","[[2,1,3],[2,3,1]]",205.0048,0,0.2835,,left,1.5,,stimuli/card_10_transparent.png,10,10,0,0,0,0,1,,,,,,,,,,,,,,,,,,,,,,,,,,,,,,,,,,,,,,,,,,,,
,,,,5f53ffa9a0830d765571ef78,A,2024-05-23_20h52.31.988,Slot Machine Game,2023.1.3,MacIntel,59.97361161,,,,,,,,,,,,,,,,,,,207.6172,1,0.0788,,left,1.5,,stimuli/card_10_transparent.png,20,10,1,0,1,0,1,,,,,,,,,,,,,,,,,,,,,,,,,,,,,,,,,,,,,,,,,,,,
,,,,5f53ffa9a0830d765571ef78,A,2024-05-23_20h52.31.988,Slot Machine Game,2023.1.3,MacIntel,59.97361161,,,,,,,,,,,,,,,,,,,210.0339,2,0.8009,,up,1,,stimuli/card_100_transparent.png,120,100,2,0,2,0,1,,,,,,,,,,,,,,,,,,,,,,,,,,,,,,,,,,,,,,,,,,,,
,,,,5f53ffa9a0830d765571ef78,A,2024-05-23_20h52.31.988,Slot Machine Game,2023.1.3,MacIntel,59.97361161,,,,,,,,,,,,,,,,,,,212.652,3,0.0342,,up,0.5,,stimuli/card_100_transparent.png,220,100,3,0,3,0,1,,,,,,,,,,,,,,,,,,,,,,,,,,,,,,,,,,,,,,,,,,,,
,,,,5f53ffa9a0830d765571ef78,A,2024-05-23_20h52.31.988,Slot Machine Game,2023.1.3,MacIntel,59.97361161,,,,,,,,,,,,,,,,,,,214.0027,4,0.6012,,up,1,,stimuli/card_100_transparent.png,320,100,4,0,4,0,1,,,,,,,,,,,,,,,,,,,,,,,,,,,,,,,,,,,,,,,,,,,,
,,,,5f53ffa9a0830d765571ef78,A,2024-05-23_20h52.31.988,Slot Machine Game,2023.1.3,MacIntel,59.97361161,,,,,,,,,,,,,,,,,,,216.4369,5,0.3862,,up,0.5,,stimuli/card_0_transparent.png,320,0,5,0,5,0,1,,,,,,,,,,,,,,,,,,,,,,,,,,,,,,,,,,,,,,,,,,,,
,,,,5f53ffa9a0830d765571ef78,A,2024-05-23_20h52.31.988,Slot Machine Game,2023.1.3,MacIntel,59.97361161,,,,,,,,,,,,,,,,,,,218.155,6,0.0752,,up,1,,stimuli/card_100_transparent.png,420,100,6,0,6,0,1,,,,,,,,,,,,,,,,,,,,,,,,,,,,,,,,,,,,,,,,,,,,
,,,,5f53ffa9a0830d765571ef78,A,2024-05-23_20h52.31.988,Slot Machine Game,2023.1.3,MacIntel,59.97361161,,,,,,,,,,,,,,,,,,,220.0553,7,0.371,,up,1.5,,stimuli/card_100_transparent.png,520,100,7,0,7,0,1,,,,,,,,,,,,,,,,,,,,,,,,,,,,,,,,,,,,,,,,,,,,
,,,,5f53ffa9a0830d765571ef78,A,2024-05-23_20h52.31.988,Slot Machine Game,2023.1.3,MacIntel,59.97361161,,,,,,,,,,,,,,,,,,,222.756,8,0.1016,,up,1.5,,stimuli/card_100_transparent.png,620,100,8,0,8,0,1,,,,,,,,,,,,,,,,,,,,,,,,,,,,,,,,,,,,,,,,,,,,
,,,,5f53ffa9a0830d765571ef78,A,2024-05-23_20h52.31.988,Slot Machine Game,2023.1.3,MacIntel,59.97361161,,,,,,,,,,,,,,,,,,,225.191,9,0.307,,up,1,,stimuli/card_0_transparent.png,620,0,9,0,9,0,1,,,,,,,,,,,,,,,,,,,,,,,,,,,,,,,,,,,,,,,,,,,,
,,,,5f53ffa9a0830d765571ef78,A,2024-05-23_20h52.31.988,Slot Machine Game,2023.1.3,MacIntel,59.97361161,,,,,,,,,,,,,,,,,,,227.3252,10,0.4828,,up,0.5,,stimuli/card_0_transparent.png,620,0,10,0,10,0,1,,,,,,,,,,,,,,,,,,,,,,,,,,,,,,,,,,,,,,,,,,,,
,,,,5f53ffa9a0830d765571ef78,A,2024-05-23_20h52.31.988,Slot Machine Game,2023.1.3,MacIntel,59.97361161,,,,,,,,,,,,,,,,,,,229.1423,11,0.2845,,right,1.5,,stimuli/card_100_transparent.png,720,100,11,0,11,0,1,,,,,,,,,,,,,,,,,,,,,,,,,,,,,,,,,,,,,,,,,,,,
,,,,5f53ffa9a0830d765571ef78,A,2024-05-23_20h52.31.988,Slot Machine Game,2023.1.3,MacIntel,59.97361161,,,,,,,,,,,,,,,,,,,231.7598,12,0.1357,,right,1,,stimuli/card_10_transparent.png,730,10,12,0,12,0,1,,,,,,,,,,,,,,,,,,,,,,,,,,,,,,,,,,,,,,,,,,,,
,,,,5f53ffa9a0830d765571ef78,A,2024-05-23_20h52.31.988,Slot Machine Game,2023.1.3,MacIntel,59.97361161,,,,,,,,,,,,,,,,,,,233.7109,13,0.2635,,right,0.5,,stimuli/card_100_transparent.png,830,100,13,0,13,0,1,,,,,,,,,,,,,,,,,,,,,,,,,,,,,,,,,,,,,,,,,,,,
,,,,5f53ffa9a0830d765571ef78,A,2024-05-23_20h52.31.988,Slot Machine Game,2023.1.3,MacIntel,59.97361161,,,,,,,,,,,,,,,,,,,235.2953,14,0.397,,right,1.5,,stimuli/card_10_transparent.png,840,10,14,0,14,0,1,,,,,,,,,,,,,,,,,,,,,,,,,,,,,,,,,,,,,,,,,,,,
,,,,5f53ffa9a0830d765571ef78,A,2024-05-23_20h52.31.988,Slot Machine Game,2023.1.3,MacIntel,59.97361161,,,,,,,,,,,,,,,,,"[6,15]","[[1,3,2],[3,1,2]]",243.045,0,0.3843,,left,1.5,,stimuli/card_100_transparent.png,100,100,0,0,0,0,1,,238.0411,,,,,,,,,,,,,,,,,,,,,,,,,,,,,,,,,,,,,,,,,,
,,,,5f53ffa9a0830d765571ef78,A,2024-05-23_20h52.31.988,Slot Machine Game,2023.1.3,MacIntel,59.97361161,,,,,,,,,,,,,,,,,,,245.7499,1,0.6227,,left,1,,stimuli/card_100_transparent.png,200,100,1,0,1,0,1,,,,,,,,,,,,,,,,,,,,,,,,,,,,,,,,,,,,,,,,,,,,
,,,,5f53ffa9a0830d765571ef78,A,2024-05-23_20h52.31.988,Slot Machine Game,2023.1.3,MacIntel,59.97361161,,,,,,,,,,,,,,,,,,,248.1837,2,0.549,,left,1.5,,stimuli/card_10_transparent.png,210,10,2,0,2,0,1,,,,,,,,,,,,,,,,,,,,,,,,,,,,,,,,,,,,,,,,,,,,
,,,,5f53ffa9a0830d765571ef78,A,2024-05-23_20h52.31.988,Slot Machine Game,2023.1.3,MacIntel,59.97361161,,,,,,,,,,,,,,,,,,,251.0524,3,2.4713,,left,1.5,,stimuli/card_0_transparent.png,210,0,3,0,3,0,1,,,,,,,,,,,,,,,,,,,,,,,,,,,,,,,,,,,,,,,,,,,,
,,,,5f53ffa9a0830d765571ef78,A,2024-05-23_20h52.31.988,Slot Machine Game,2023.1.3,MacIntel,59.97361161,,,,,,,,,,,,,,,,,,,255.8544,4,1.4166,,up,1.5,,stimuli/card_0_transparent.png,210,0,4,0,4,0,1,,,,,,,,,,,,,,,,,,,,,,,,,,,,,,,,,,,,,,,,,,,,
,,,,5f53ffa9a0830d765571ef78,A,2024-05-23_20h52.31.988,Slot Machine Game,2023.1.3,MacIntel,59.97361161,,,,,,,,,,,,,,,,,,,259.5902,5,0.2684,,right,1,,stimuli/card_10_transparent.png,220,10,5,0,5,0,1,,,,,,,,,,,,,,,,,,,,,,,,,,,,,,,,,,,,,,,,,,,,
,,,,5f53ffa9a0830d765571ef78,A,2024-05-23_20h52.31.988,Slot Machine Game,2023.1.3,MacIntel,59.97361161,,,,,,,,,,,,,,,,,,,261.6907,6,0.2861,,left,1.5,,stimuli/card_0_transparent.png,220,0,6,0,6,0,1,,,,,,,,,,,,,,,,,,,,,,,,,,,,,,,,,,,,,,,,,,,,
,,,,5f53ffa9a0830d765571ef78,A,2024-05-23_20h52.31.988,Slot Machine Game,2023.1.3,MacIntel,59.97361161,,,,,,,,,,,,,,,,,,,264.3076,7,0.1836,,right,1.5,,stimuli/card_0_transparent.png,220,0,7,0,7,0,1,,,,,,,,,,,,,,,,,,,,,,,,,,,,,,,,,,,,,,,,,,,,
,,,,5f53ffa9a0830d765571ef78,A,2024-05-23_20h52.31.988,Slot Machine Game,2023.1.3,MacIntel,59.97361161,,,,,,,,,,,,,,,,,,,266.8246,8,0.0655,,up,1.5,,stimuli/card_100_transparent.png,320,100,8,0,8,0,1,,,,,,,,,,,,,,,,,,,,,,,,,,,,,,,,,,,,,,,,,,,,
,,,,5f53ffa9a0830d765571ef78,A,2024-05-23_20h52.31.988,Slot Machine Game,2023.1.3,MacIntel,59.97361161,,,,,,,,,,,,,,,,,,,269.21,9,0.3016,,up,1.5,,stimuli/card_100_transparent.png,420,100,9,0,9,0,1,,,,,,,,,,,,,,,,,,,,,,,,,,,,,,,,,,,,,,,,,,,,
,,,,5f53ffa9a0830d765571ef78,A,2024-05-23_20h52.31.988,Slot Machine Game,2023.1.3,MacIntel,59.97361161,,,,,,,,,,,,,,,,,,,271.8447,10,0.2385,,up,1.5,,stimuli/card_100_transparent.png,520,100,10,0,10,0,1,,,,,,,,,,,,,,,,,,,,,,,,,,,,,,,,,,,,,,,,,,,,
,,,,5f53ffa9a0830d765571ef78,A,2024-05-23_20h52.31.988,Slot Machine Game,2023.1.3,MacIntel,59.97361161,,,,,,,,,,,,,,,,,,,274.3967,11,0.0202,,up,1,,stimuli/card_100_transparent.png,620,100,11,0,11,0,1,,,,,,,,,,,,,,,,,,,,,,,,,,,,,,,,,,,,,,,,,,,,
,,,,5f53ffa9a0830d765571ef78,A,2024-05-23_20h52.31.988,Slot Machine Game,2023.1.3,MacIntel,59.97361161,,,,,,,,,,,,,,,,,,,276.2465,12,0.0858,,up,1,,stimuli/card_100_transparent.png,720,100,12,0,12,0,1,,,,,,,,,,,,,,,,,,,,,,,,,,,,,,,,,,,,,,,,,,,,
,,,,5f53ffa9a0830d765571ef78,A,2024-05-23_20h52.31.988,Slot Machine Game,2023.1.3,MacIntel,59.97361161,,,,,,,,,,,,,,,,,,,278.163,13,0.3491,,up,0.5,,stimuli/card_100_transparent.png,820,100,13,0,13,0,1,,,,,,,,,,,,,,,,,,,,,,,,,,,,,,,,,,,,,,,,,,,,
,,,,5f53ffa9a0830d765571ef78,A,2024-05-23_20h52.31.988,Slot Machine Game,2023.1.3,MacIntel,59.97361161,,,,,,,,,,,,,,,,,,,279.8314,14,0.7214,,up,1,,stimuli/card_0_transparent.png,820,0,14,0,14,0,1,,,,,,,,,,,,,,,,,,,,,,,,,,,,,,,,,,,,,,,,,,,,
,,,,5f53ffa9a0830d765571ef78,A,2024-05-23_20h52.31.988,Slot Machine Game,2023.1.3,MacIntel,59.97361161,,,,,,,,,,,,,,,,,,,,,,,,,,,,,,,,,,,282.3657,,,287.3691,space,1.6591,,,,,,,,,,,,,,,,,,,,,,,,,,,,,,,,,,,,,
,,,,5f53ffa9a0830d765571ef78,A,2024-05-23_20h52.31.988,Slot Machine Game,2023.1.3,MacIntel,59.97361161,,,,,,,,,,,,,,,,,,,,,,,,,,,,,,,,,,,,,,,,,,289.0531,1,"[0,1,2,3,4,5,6,7,8,9]",space,1.9976,,,,,,,,,,,,,,,,,,,,,,,,,,,,,,,
,,,,5f53ffa9a0830d765571ef78,A,2024-05-23_20h52.31.988,Slot Machine Game,2023.1.3,MacIntel,59.97361161,,,,,,,,,,,,,,,,,,,,,,,,,,,10,,,,,,,,,,,,,,,,,,,,,1,1,"[12,15]","[[2,1,3],[2,3,1]]",291.084,0,right,0.0724,,1,0.3,"[2,1,3]",0.107402622,stimuli/card_10_transparent.png,10,0,0,0,0,1,,,,,,,,,,
,,,,5f53ffa9a0830d765571ef78,A,2024-05-23_20h52.31.988,Slot Machine Game,2023.1.3,MacIntel,59.97361161,,,,,,,,,,,,,,,,,,,,,,,,,,,110,,,,,,,,,,,,,,,,,,,,,1,1,,,292.9713,1,up,0.5532,,1.5,0.3,"[2,1,3]",0.276734653,stimuli/card_100_transparent.png,100,1,0,1,0,1,,,,,,,,,,
,,,,5f53ffa9a0830d765571ef78,A,2024-05-23_20h52.31.988,Slot Machine Game,2023.1.3,MacIntel,59.97361161,,,,,,,,,,,,,,,,,,,,,,,,,,,210,,,,,,,,,,,,,,,,,,,,,1,1,,,295.8557,2,up,0.2607,,1,0.3,"[2,1,3]",0.416607663,stimuli/card_100_transparent.png,100,2,0,2,0,1,,,,,,,,,,
,,,,5f53ffa9a0830d765571ef78,A,2024-05-23_20h52.31.988,Slot Machine Game,2023.1.3,MacIntel,59.97361161,,,,,,,,,,,,,,,,,,,,,,,,,,,310,,,,,,,,,,,,,,,,,,,,,1,1,,,297.9561,3,up,0.0496,,1,0.3,"[2,1,3]",0.69457119,stimuli/card_100_transparent.png,100,3,0,3,0,1,,,,,,,,,,
,,,,5f53ffa9a0830d765571ef78,A,2024-05-23_20h52.31.988,Slot Machine Game,2023.1.3,MacIntel,59.97361161,,,,,,,,,,,,,,,,,,,,,,,,,,,410,,,,,,,,,,,,,,,,,,,,,1,1,,,299.8238,4,up,0.3012,,1,0.3,"[2,1,3]",0.202321661,stimuli/card_100_transparent.png,100,4,0,4,0,1,,,,,,,,,,
,,,,5f53ffa9a0830d765571ef78,A,2024-05-23_20h52.31.988,Slot Machine Game,2023.1.3,MacIntel,59.97361161,,,,,,,,,,,,,,,,,,,,,,,,,,,510,,,,,,,,,,,,,,,,,,,,,1,1,,,301.9578,5,up,0.2515,,1.5,0.3,"[2,1,3]",0.546379498,stimuli/card_100_transparent.png,100,5,0,5,0,1,,,,,,,,,,
,,,,5f53ffa9a0830d765571ef78,A,2024-05-23_20h52.31.988,Slot Machine Game,2023.1.3,MacIntel,59.97361161,,,,,,,,,,,,,,,,,,,,,,,,,,,610,,,,,,,,,,,,,,,,,,,,,1,1,,,304.5259,6,up,0.0267,,1.5,0.3,"[2,1,3]",0.58422336,stimuli/card_100_transparent.png,100,6,0,6,0,1,,,,,,,,,,
,,,,5f53ffa9a0830d765571ef78,A,2024-05-23_20h52.31.988,Slot Machine Game,2023.1.3,MacIntel,59.97361161,,,,,,,,,,,,,,,,,,,,,,,,,,,710,,,,,,,,,,,,,,,,,,,,,1,1,,,306.8937,7,up,0.2837,,1.5,0.3,"[2,1,3]",0.877652736,stimuli/card_100_transparent.png,100,7,0,7,0,1,,,,,,,,,,
,,,,5f53ffa9a0830d765571ef78,A,2024-05-23_20h52.31.988,Slot Machine Game,2023.1.3,MacIntel,59.97361161,,,,,,,,,,,,,,,,,,,,,,,,,,,810,,,,,,,,,,,,,,,,,,,,,1,1,,,309.4939,8,up,0.0166,,1,0.3,"[2,1,3]",0.902410695,stimuli/card_100_transparent.png,100,8,0,8,0,1,,,,,,,,,,
,,,,5f53ffa9a0830d765571ef78,A,2024-05-23_20h52.31.988,Slot Machine Game,2023.1.3,MacIntel,59.97361161,,,,,,,,,,,,,,,,,,,,,,,,,,,910,,,,,,,,,,,,,,,,,,,,,1,1,,,311.3283,9,up,0.1775,,0.5,0.3,"[2,1,3]",0.803876766,stimuli/card_100_transparent.png,100,9,0,9,0,1,,,,,,,,,,
,,,,5f53ffa9a0830d765571ef78,A,2024-05-23_20h52.31.988,Slot Machine Game,2023.1.3,MacIntel,59.97361161,,,,,,,,,,,,,,,,,,,,,,,,,,,1010,,,,,,,,,,,,,,,,,,,,,1,1,,,312.8289,10,up,0.4015,,1,0.3,"[2,1,3]",0.593203187,stimuli/card_100_transparent.png,100,10,0,10,0,1,,,,,,,,,,
,,,,5f53ffa9a0830d765571ef78,A,2024-05-23_20h52.31.988,Slot Machine Game,2023.1.3,MacIntel,59.97361161,,,,,,,,,,,,,,,,,,,,,,,,,,,1110,,,,,,,,,,,,,,,,,,,,,1,1,,,315.0479,11,up,0.0221,,1.5,0.3,"[2,1,3]",0.884826866,stimuli/card_100_transparent.png,100,11,0,11,0,1,,,,,,,,,,
,,,,5f53ffa9a0830d765571ef78,A,2024-05-23_20h52.31.988,Slot Machine Game,2023.1.3,MacIntel,59.97361161,,,,,,,,,,,,,,,,,,,,,,,,,,,1210,,,,,,,,,,,,,,,,,,,,,1,1,,,317.3979,12,up,0.3627,,1,0.3,"[2,3,1]",0.052398359,stimuli/card_100_transparent.png,100,12,0,12,0,1,,,,,,,,,,
,,,,5f53ffa9a0830d765571ef78,A,2024-05-23_20h52.31.988,Slot Machine Game,2023.1.3,MacIntel,59.97361161,,,,,,,,,,,,,,,,,,,,,,,,,,,1210,,,,,,,,,,,,,,,,,,,,,1,1,,,319.5828,13,up,0.256,,1,0.3,"[2,3,1]",0.534783487,stimuli/card_0_transparent.png,0,13,0,13,0,1,,,,,,,,,,
,,,,5f53ffa9a0830d765571ef78,A,2024-05-23_20h52.31.988,Slot Machine Game,2023.1.3,MacIntel,59.97361161,,,,,,,,,,,,,,,,,,,,,,,,,,,1210,,,,,,,,,,,,,,,,,,,,,1,1,,,321.6666,14,up,0.6516,,1.5,0.3,"[2,3,1]",0.460556169,stimuli/card_0_transparent.png,0,14,0,14,0,1,,,,,,,,,,
,,,,5f53ffa9a0830d765571ef78,A,2024-05-23_20h52.31.988,Slot Machine Game,2023.1.3,MacIntel,59.97361161,,,,,,,,,,,,,,,,,,,,,,,,,,,,,,,,,,,324.6504,,,,,,,,,,,,,,,,,,,,,,,,,,,,,,,,,[1210],0,0,0,0,1,,,,
,,,,5f53ffa9a0830d765571ef78,A,2024-05-23_20h52.31.988,Slot Machine Game,2023.1.3,MacIntel,59.97361161,,,,,,,,,,,,,,,,,,,,,,,,,,,10,,,,,,,,,,,,,,,,,,,,,2,2,"[6,15]","[[1,3,2],[3,2,1]]",329.6652,0,right,0.24,,1,0.3,"[1,3,2]",0.401523436,stimuli/card_10_transparent.png,10,0,0,0,0,1,,,,,,,,,,
,,,,5f53ffa9a0830d765571ef78,A,2024-05-23_20h52.31.988,Slot Machine Game,2023.1.3,MacIntel,59.97361161,,,,,,,,,,,,,,,,,,,,,,,,,,,10,,,,,,,,,,,,,,,,,,,,,2,2,,,331.7206,1,left,0.3992,,1,0.3,"[1,3,2]",0.010801224,stimuli/card_0_transparent.png,0,1,0,1,0,1,,,,,,,,,,
,,,,5f53ffa9a0830d765571ef78,A,2024-05-23_20h52.31.988,Slot Machine Game,2023.1.3,MacIntel,59.97361161,,,,,,,,,,,,,,,,,,,,,,,,,,,10,,,,,,,,,,,,,,,,,,,,,2,2,,,333.9394,2,up,0.3209,,1.5,0.3,"[1,3,2]",0.348288255,stimuli/card_0_transparent.png,0,2,0,2,0,1,,,,,,,,,,
,,,,5f53ffa9a0830d765571ef78,A,2024-05-23_20h52.31.988,Slot Machine Game,2023.1.3,MacIntel,59.97361161,,,,,,,,,,,,,,,,,,,,,,,,,,,20,,,,,,,,,,,,,,,,,,,,,2,2,,,336.5907,3,right,0.2671,,1,0.3,"[1,3,2]",0.431155885,stimuli/card_10_transparent.png,10,3,0,3,0,1,,,,,,,,,,
,,,,5f53ffa9a0830d765571ef78,A,2024-05-23_20h52.31.988,Slot Machine Game,2023.1.3,MacIntel,59.97361161,,,,,,,,,,,,,,,,,,,,,,,,,,,120,,,,,,,,,,,,,,,,,,,,,2,2,,,338.6902,4,left,0.4016,,1,0.3,"[1,3,2]",0.281699375,stimuli/card_100_transparent.png,100,4,0,4,0,1,,,,,,,,,,
,,,,5f53ffa9a0830d765571ef78,A,2024-05-23_20h52.31.988,Slot Machine Game,2023.1.3,MacIntel,59.97361161,,,,,,,,,,,,,,,,,,,,,,,,,,,220,,,,,,,,,,,,,,,,,,,,,2,2,,,340.9104,5,left,0.1659,,1.5,0.3,"[1,3,2]",0.319587943,stimuli/card_100_transparent.png,100,5,0,5,0,1,,,,,,,,,,
,,,,5f53ffa9a0830d765571ef78,A,2024-05-23_20h52.31.988,Slot Machine Game,2023.1.3,MacIntel,59.97361161,,,,,,,,,,,,,,,,,,,,,,,,,,,220,,,,,,,,,,,,,,,,,,,,,2,2,,,343.4098,6,left,0.3519,,0.5,0.3,"[3,2,1]",0.811569555,stimuli/card_0_transparent.png,0,6,0,6,0,1,,,,,,,,,,
,,,,5f53ffa9a0830d765571ef78,A,2024-05-23_20h52.31.988,Slot Machine Game,2023.1.3,MacIntel,59.97361161,,,,,,,,,,,,,,,,,,,,,,,,,,,220,,,,,,,,,,,,,,,,,,,,,2,2,,,345.0766,7,left,1.4353,,0.5,0.3,"[3,2,1]",0.820885101,stimuli/card_0_transparent.png,0,7,0,7,0,1,,,,,,,,,,
,,,,5f53ffa9a0830d765571ef78,A,2024-05-23_20h52.31.988,Slot Machine Game,2023.1.3,MacIntel,59.97361161,,,,,,,,,,,,,,,,,,,,,,,,,,,220,,,,,,,,,,,,,,,,,,,,,2,2,,,347.8277,8,left,0.4221,,1.5,0.3,"[3,2,1]",0.309842249,stimuli/card_0_transparent.png,0,8,0,8,0,1,,,,,,,,,,
,,,,5f53ffa9a0830d765571ef78,A,2024-05-23_20h52.31.988,Slot Machine Game,2023.1.3,MacIntel,59.97361161,,,,,,,,,,,,,,,,,,,,,,,,,,,230,,,,,,,,,,,,,,,,,,,,,2,2,,,350.5634,9,up,0.4027,,1,0.3,"[3,2,1]",0.879334115,stimuli/card_10_transparent.png,10,9,0,9,0,1,,,,,,,,,,
,,,,5f53ffa9a0830d765571ef78,A,2024-05-23_20h52.31.988,Slot Machine Game,2023.1.3,MacIntel,59.97361161,,,,,,,,,,,,,,,,,,,,,,,,,,,330,,,,,,,,,,,,,,,,,,,,,2,2,,,352.797,10,right,0.22,,1,0.3,"[3,2,1]",0.524328943,stimuli/card_100_transparent.png,100,10,0,10,0,1,,,,,,,,,,
,,,,5f53ffa9a0830d765571ef78,A,2024-05-23_20h52.31.988,Slot Machine Game,2023.1.3,MacIntel,59.97361161,,,,,,,,,,,,,,,,,,,,,,,,,,,430,,,,,,,,,,,,,,,,,,,,,2,2,,,354.8308,11,right,0.1232,,1.5,0.3,"[3,2,1]",0.310090668,stimuli/card_100_transparent.png,100,11,0,11,0,1,,,,,,,,,,
,,,,5f53ffa9a0830d765571ef78,A,2024-05-23_20h52.31.988,Slot Machine Game,2023.1.3,MacIntel,59.97361161,,,,,,,,,,,,,,,,,,,,,,,,,,,440,,,,,,,,,,,,,,,,,,,,,2,2,,,357.265,12,right,0.2185,,1.5,0.3,"[3,2,1]",0.133019042,stimuli/card_10_transparent.png,10,12,0,12,0,1,,,,,,,,,,
,,,,5f53ffa9a0830d765571ef78,A,2024-05-23_20h52.31.988,Slot Machine Game,2023.1.3,MacIntel,59.97361161,,,,,,,,,,,,,,,,,,,,,,,,,,,540,,,,,,,,,,,,,,,,,,,,,2,2,,,359.7996,13,right,0.4031,,1,0.3,"[3,2,1]",0.496338825,stimuli/card_100_transparent.png,100,13,0,13,0,1,,,,,,,,,,
,,,,5f53ffa9a0830d765571ef78,A,2024-05-23_20h52.31.988,Slot Machine Game,2023.1.3,MacIntel,59.97361161,,,,,,,,,,,,,,,,,,,,,,,,,,,640,,,,,,,,,,,,,,,,,,,,,2,2,,,362.018,14,right,0.289,,1.5,0.3,"[3,2,1]",0.818801452,stimuli/card_100_transparent.png,100,14,0,14,0,1,,,,,,,,,,
,,,,5f53ffa9a0830d765571ef78,A,2024-05-23_20h52.31.988,Slot Machine Game,2023.1.3,MacIntel,59.97361161,,,,,,,,,,,,,,,,,,,,,,,,,,,,,,,,,,,364.6364,,,,,,,,,,,,,,,,,,,,,,,,,,,,,,,,,"[1210,640]",1,0,1,0,1,,,,
,,,,5f53ffa9a0830d765571ef78,A,2024-05-23_20h52.31.988,Slot Machine Game,2023.1.3,MacIntel,59.97361161,,,,,,,,,,,,,,,,,,,,,,,,,,,10,,,,,,,,,,,,,,,,,,,,,3,3,"[15,15]","[[3,1,2],[3,1,2]]",369.6513,0,right,0.2738,,1,0.3,"[3,1,2]",0.829618173,stimuli/card_10_transparent.png,10,0,0,0,0,1,,,,,,,,,,
,,,,5f53ffa9a0830d765571ef78,A,2024-05-23_20h52.31.988,Slot Machine Game,2023.1.3,MacIntel,59.97361161,,,,,,,,,,,,,,,,,,,,,,,,,,,10,,,,,,,,,,,,,,,,,,,,,3,3,,,371.7386,1,left,0.0004,,1.5,0.3,"[3,1,2]",0.695669497,stimuli/card_0_transparent.png,0,1,0,1,0,1,,,,,,,,,,
,,,,5f53ffa9a0830d765571ef78,A,2024-05-23_20h52.31.988,Slot Machine Game,2023.1.3,MacIntel,59.97361161,,,,,,,,,,,,,,,,,,,,,,,,,,,110,,,,,,,,,,,,,,,,,,,,,3,3,,,374.0561,2,up,0.0578,,1,0.3,"[3,1,2]",0.970006449,stimuli/card_100_transparent.png,100,2,0,2,0,1,,,,,,,,,,
,,,,5f53ffa9a0830d765571ef78,A,2024-05-23_20h52.31.988,Slot Machine Game,2023.1.3,MacIntel,59.97361161,,,,,,,,,,,,,,,,,,,,,,,,,,,210,,,,,,,,,,,,,,,,,,,,,3,3,,,375.9245,3,up,0.3176,,1,0.3,"[3,1,2]",0.606777274,stimuli/card_100_transparent.png,100,3,0,3,0,1,,,,,,,,,,
,,,,5f53ffa9a0830d765571ef78,A,2024-05-23_20h52.31.988,Slot Machine Game,2023.1.3,MacIntel,59.97361161,,,,,,,,,,,,,,,,,,,,,,,,,,,310,,,,,,,,,,,,,,,,,,,,,3,3,,,378.0751,4,up,0.0873,,1,0.3,"[3,1,2]",0.805642394,stimuli/card_100_transparent.png,100,4,0,4,0,1,,,,,,,,,,
,,,,5f53ffa9a0830d765571ef78,A,2024-05-23_20h52.31.988,Slot Machine Game,2023.1.3,MacIntel,59.97361161,,,,,,,,,,,,,,,,,,,,,,,,,,,410,,,,,,,,,,,,,,,,,,,,,3,3,,,379.9913,5,up,0.1179,,1,0.3,"[3,1,2]",0.50695919,stimuli/card_100_transparent.png,100,5,0,5,0,1,,,,,,,,,,
,,,,5f53ffa9a0830d765571ef78,A,2024-05-23_20h52.31.988,Slot Machine Game,2023.1.3,MacIntel,59.97361161,,,,,,,,,,,,,,,,,,,,,,,,,,,420,,,,,,,,,,,,,,,,,,,,,3,3,,,381.9269,6,up,0.0518,,0.5,0.3,"[3,1,2]",0.128679483,stimuli/card_10_transparent.png,10,6,0,6,0,1,,,,,,,,,,
,,,,5f53ffa9a0830d765571ef78,A,2024-05-23_20h52.31.988,Slot Machine Game,2023.1.3,MacIntel,59.97361161,,,,,,,,,,,,,,,,,,,,,,,,,,,520,,,,,,,,,,,,,,,,,,,,,3,3,,,383.3108,7,up,0.0178,,0.5,0.3,"[3,1,2]",0.502903193,stimuli/card_100_transparent.png,100,7,0,7,0,1,,,,,,,,,,
,,,,5f53ffa9a0830d765571ef78,A,2024-05-23_20h52.31.988,Slot Machine Game,2023.1.3,MacIntel,59.97361161,,,,,,,,,,,,,,,,,,,,,,,,,,,620,,,,,,,,,,,,,,,,,,,,,3,3,,,384.6434,8,up,0.4733,,0.5,0.3,"[3,1,2]",0.958700234,stimuli/card_100_transparent.png,100,8,0,8,0,1,,,,,,,,,,
,,,,5f53ffa9a0830d765571ef78,A,2024-05-23_20h52.31.988,Slot Machine Game,2023.1.3,MacIntel,59.97361161,,,,,,,,,,,,,,,,,,,,,,,,,,,720,,,,,,,,,,,,,,,,,,,,,3,3,,,386.4283,9,up,0.3337,,0.5,0.3,"[3,1,2]",0.934333602,stimuli/card_100_transparent.png,100,9,0,9,0,1,,,,,,,,,,
,,,,5f53ffa9a0830d765571ef78,A,2024-05-23_20h52.31.988,Slot Machine Game,2023.1.3,MacIntel,59.97361161,,,,,,,,,,,,,,,,,,,,,,,,,,,820,,,,,,,,,,,,,,,,,,,,,3,3,,,388.0953,10,up,0.0047,,1,0.3,"[3,1,2]",0.704635841,stimuli/card_100_transparent.png,100,10,0,10,0,1,,,,,,,,,,
,,,,5f53ffa9a0830d765571ef78,A,2024-05-23_20h52.31.988,Slot Machine Game,2023.1.3,MacIntel,59.97361161,,,,,,,,,,,,,,,,,,,,,,,,,,,830,,,,,,,,,,,,,,,,,,,,,3,3,,,389.9136,11,up,0.4,,0.5,0.3,"[3,1,2]",0.104130975,stimuli/card_10_transparent.png,10,11,0,11,0,1,,,,,,,,,,
,,,,5f53ffa9a0830d765571ef78,A,2024-05-23_20h52.31.988,Slot Machine Game,2023.1.3,MacIntel,59.97361161,,,,,,,,,,,,,,,,,,,,,,,,,,,930,,,,,,,,,,,,,,,,,,,,,3,3,,,391.6476,12,up,0.2851,,1.5,0.3,"[3,1,2]",0.681401191,stimuli/card_100_transparent.png,100,12,0,12,0,1,,,,,,,,,,
,,,,5f53ffa9a0830d765571ef78,A,2024-05-23_20h52.31.988,Slot Machine Game,2023.1.3,MacIntel,59.97361161,,,,,,,,,,,,,,,,,,,,,,,,,,,940,,,,,,,,,,,,,,,,,,,,,3,3,,,394.2656,13,up,0.002,,1.5,0.3,"[3,1,2]",0.19007257,stimuli/card_10_transparent.png,10,13,0,13,0,1,,,,,,,,,,
,,,,5f53ffa9a0830d765571ef78,A,2024-05-23_20h52.31.988,Slot Machine Game,2023.1.3,MacIntel,59.97361161,,,,,,,,,,,,,,,,,,,,,,,,,,,1040,,,,,,,,,,,,,,,,,,,,,3,3,,,396.5994,14,up,0.1848,,1.5,0.3,"[3,1,2]",0.985614687,stimuli/card_100_transparent.png,100,14,0,14,0,1,,,,,,,,,,
,,,,5f53ffa9a0830d765571ef78,A,2024-05-23_20h52.31.988,Slot Machine Game,2023.1.3,MacIntel,59.97361161,,,,,,,,,,,,,,,,,,,,,,,,,,,,,,,,,,,399.1006,,,,,,,,,,,,,,,,,,,,,,,,,,,,,,,,,"[1210,640,1040]",2,0,2,0,1,,,,
,,,,5f53ffa9a0830d765571ef78,A,2024-05-23_20h52.31.988,Slot Machine Game,2023.1.3,MacIntel,59.97361161,,,,,,,,,,,,,,,,,,,,,,,,,,,100,,,,,,,,,,,,,,,,,,,,,4,4,"[7,15]","[[2,3,1],[1,2,3]]",404.1163,0,right,0.0161,,1.5,0.3,"[2,3,1]",0.436787763,stimuli/card_100_transparent.png,100,0,0,0,0,1,,,,,,,,,,
,,,,5f53ffa9a0830d765571ef78,A,2024-05-23_20h52.31.988,Slot Machine Game,2023.1.3,MacIntel,59.97361161,,,,,,,,,,,,,,,,,,,,,,,,,,,200,,,,,,,,,,,,,,,,,,,,,4,4,,,406.454,1,right,0.2823,,1.5,0.3,"[2,3,1]",0.351746511,stimuli/card_100_transparent.png,100,1,0,1,0,1,,,,,,,,,,
,,,,5f53ffa9a0830d765571ef78,A,2024-05-23_20h52.31.988,Slot Machine Game,2023.1.3,MacIntel,59.97361161,,,,,,,,,,,,,,,,,,,,,,,,,,,300,,,,,,,,,,,,,,,,,,,,,4,4,,,409.0547,2,right,0.0163,,1.5,0.3,"[2,3,1]",0.754802982,stimuli/card_100_transparent.png,100,2,0,2,0,1,,,,,,,,,,
,,,,5f53ffa9a0830d765571ef78,A,2024-05-23_20h52.31.988,Slot Machine Game,2023.1.3,MacIntel,59.97361161,,,,,,,,,,,,,,,,,,,,,,,,,,,400,,,,,,,,,,,,,,,,,,,,,4,4,,,411.4061,3,right,0.1635,,1.5,0.3,"[2,3,1]",0.908525804,stimuli/card_100_transparent.png,100,3,0,3,0,1,,,,,,,,,,
,,,,5f53ffa9a0830d765571ef78,A,2024-05-23_20h52.31.988,Slot Machine Game,2023.1.3,MacIntel,59.97361161,,,,,,,,,,,,,,,,,,,,,,,,,,,500,,,,,,,,,,,,,,,,,,,,,4,4,,,413.8907,4,right,0.4687,,1,0.3,"[2,3,1]",0.573413142,stimuli/card_100_transparent.png,100,4,0,4,0,1,,,,,,,,,,
,,,,5f53ffa9a0830d765571ef78,A,2024-05-23_20h52.31.988,Slot Machine Game,2023.1.3,MacIntel,59.97361161,,,,,,,,,,,,,,,,,,,,,,,,,,,600,,,,,,,,,,,,,,,,,,,,,4,4,,,416.1921,5,right,0.2241,,1,0.3,"[2,3,1]",0.419809856,stimuli/card_100_transparent.png,100,5,0,5,0,1,,,,,,,,,,
,,,,5f53ffa9a0830d765571ef78,A,2024-05-23_20h52.31.988,Slot Machine Game,2023.1.3,MacIntel,59.97361161,,,,,,,,,,,,,,,,,,,,,,,,,,,600,,,,,,,,,,,,,,,,,,,,,4,4,,,418.2423,6,right,1.0553,,1.5,0.3,"[2,3,1]",0.002015916,stimuli/card_0_transparent.png,0,6,0,6,0,1,,,,,,,,,,
,,,,5f53ffa9a0830d765571ef78,A,2024-05-23_20h52.31.988,Slot Machine Game,2023.1.3,MacIntel,59.97361161,,,,,,,,,,,,,,,,,,,,,,,,,,,600,,,,,,,,,,,,,,,,,,,,,4,4,,,421.611,7,right,0.4171,,0.5,0.3,"[1,2,3]",0.93767212,stimuli/card_0_transparent.png,0,7,0,7,0,1,,,,,,,,,,
,,,,5f53ffa9a0830d765571ef78,A,2024-05-23_20h52.31.988,Slot Machine Game,2023.1.3,MacIntel,59.97361161,,,,,,,,,,,,,,,,,,,,,,,,,,,700,,,,,,,,,,,,,,,,,,,,,4,4,,,423.3605,8,left,0.0685,,0.5,0.3,"[1,2,3]",0.687249478,stimuli/card_100_transparent.png,100,8,0,8,0,1,,,,,,,,,,
,,,,5f53ffa9a0830d765571ef78,A,2024-05-23_20h52.31.988,Slot Machine Game,2023.1.3,MacIntel,59.97361161,,,,,,,,,,,,,,,,,,,,,,,,,,,800,,,,,,,,,,,,,,,,,,,,,4,4,,,424.745,9,left,0.0495,,1,0.3,"[1,2,3]",0.969688984,stimuli/card_100_transparent.png,100,9,0,9,0,1,,,,,,,,,,
,,,,5f53ffa9a0830d765571ef78,A,2024-05-23_20h52.31.988,Slot Machine Game,2023.1.3,MacIntel,59.97361161,,,,,,,,,,,,,,,,,,,,,,,,,,,800,,,,,,,,,,,,,,,,,,,,,4,4,,,426.6132,10,left,0.1509,,1.5,0.3,"[1,2,3]",0.033183246,stimuli/card_0_transparent.png,0,10,0,10,0,1,,,,,,,,,,
,,,,5f53ffa9a0830d765571ef78,A,2024-05-23_20h52.31.988,Slot Machine Game,2023.1.3,MacIntel,59.97361161,,,,,,,,,,,,,,,,,,,,,,,,,,,900,,,,,,,,,,,,,,,,,,,,,4,4,,,429.097,11,left,0.3887,,1.5,0.3,"[1,2,3]",0.924394051,stimuli/card_100_transparent.png,100,11,0,11,0,1,,,,,,,,,,
,,,,5f53ffa9a0830d765571ef78,A,2024-05-23_20h52.31.988,Slot Machine Game,2023.1.3,MacIntel,59.97361161,,,,,,,,,,,,,,,,,,,,,,,,,,,1000,,,,,,,,,,,,,,,,,,,,,4,4,,,431.7984,12,left,0.2243,,1.5,0.3,"[1,2,3]",0.47700967,stimuli/card_100_transparent.png,100,12,0,12,0,1,,,,,,,,,,
,,,,5f53ffa9a0830d765571ef78,A,2024-05-23_20h52.31.988,Slot Machine Game,2023.1.3,MacIntel,59.97361161,,,,,,,,,,,,,,,,,,,,,,,,,,,1100,,,,,,,,,,,,,,,,,,,,,4,4,,,434.3489,13,left,0.3826,,1.5,0.3,"[1,2,3]",0.942551791,stimuli/card_100_transparent.png,100,13,0,13,0,1,,,,,,,,,,
,,,,5f53ffa9a0830d765571ef78,A,2024-05-23_20h52.31.988,Slot Machine Game,2023.1.3,MacIntel,59.97361161,,,,,,,,,,,,,,,,,,,,,,,,,,,1200,,,,,,,,,,,,,,,,,,,,,4,4,,,437.0507,14,left,0.2674,,1.5,0.3,"[1,2,3]",0.622609951,stimuli/card_100_transparent.png,100,14,0,14,0,1,,,,,,,,,,
,,,,5f53ffa9a0830d765571ef78,A,2024-05-23_20h52.31.988,Slot Machine Game,2023.1.3,MacIntel,59.97361161,,,,,,,,,,,,,,,,,,,,,,,,,,,,,,,,,,,439.6359,,,,,,,,,,,,,,,,,,,,,,,,,,,,,,,,,"[1210,640,1040,1200]",3,0,3,0,1,,,,
,,,,5f53ffa9a0830d765571ef78,A,2024-05-23_20h52.31.988,Slot Machine Game,2023.1.3,MacIntel,59.97361161,,,,,,,,,,,,,,,,,,,,,,,,,,,100,,,,,,,,,,,,,,,,,,,,,5,5,"[5,15]","[[1,2,3],[3,1,2]]",444.6523,0,left,0.0156,,1.5,0.3,"[1,2,3]",0.24702767,stimuli/card_100_transparent.png,100,0,0,0,0,1,,,,,,,,,,
,,,,5f53ffa9a0830d765571ef78,A,2024-05-23_20h52.31.988,Slot Machine Game,2023.1.3,MacIntel,59.97361161,,,,,,,,,,,,,,,,,,,,,,,,,,,200,,,,,,,,,,,,,,,,,,,,,5,5,,,446.988,1,left,0.3023,,1.5,0.3,"[1,2,3]",0.483405178,stimuli/card_100_transparent.png,100,1,0,1,0,1,,,,,,,,,,
,,,,5f53ffa9a0830d765571ef78,A,2024-05-23_20h52.31.988,Slot Machine Game,2023.1.3,MacIntel,59.97361161,,,,,,,,,,,,,,,,,,,,,,,,,,,200,,,,,,,,,,,,,,,,,,,,,5,5,,,449.6068,2,left,0.317,,1,0.3,"[1,2,3]",0.066898586,stimuli/card_0_transparent.png,0,2,0,2,0,1,,,,,,,,,,
,,,,5f53ffa9a0830d765571ef78,A,2024-05-23_20h52.31.988,Slot Machine Game,2023.1.3,MacIntel,59.97361161,,,,,,,,,,,,,,,,,,,,,,,,,,,300,,,,,,,,,,,,,,,,,,,,,5,5,,,451.7562,3,left,0.0841,,0.5,0.3,"[1,2,3]",0.862902262,stimuli/card_100_transparent.png,100,3,0,3,0,1,,,,,,,,,,
,,,,5f53ffa9a0830d765571ef78,A,2024-05-23_20h52.31.988,Slot Machine Game,2023.1.3,MacIntel,59.97361161,,,,,,,,,,,,,,,,,,,,,,,,,,,310,,,,,,,,,,,,,,,,,,,,,5,5,,,453.1573,4,left,0.2818,,1.5,0.3,"[1,2,3]",0.173826594,stimuli/card_10_transparent.png,10,4,0,4,0,1,,,,,,,,,,
,,,,5f53ffa9a0830d765571ef78,A,2024-05-23_20h52.31.988,Slot Machine Game,2023.1.3,MacIntel,59.97361161,,,,,,,,,,,,,,,,,,,,,,,,,,,310,,,,,,,,,,,,,,,,,,,,,5,5,,,455.7755,5,left,0.6986,,0.5,0.3,"[3,1,2]",0.712334367,stimuli/card_0_transparent.png,0,5,0,5,0,1,,,,,,,,,,
,,,,5f53ffa9a0830d765571ef78,A,2024-05-23_20h52.31.988,Slot Machine Game,2023.1.3,MacIntel,59.97361161,,,,,,,,,,,,,,,,,,,,,,,,,,,320,,,,,,,,,,,,,,,,,,,,,5,5,,,457.7927,6,right,0.3485,,1,0.3,"[3,1,2]",0.77705897,stimuli/card_10_transparent.png,10,6,0,6,0,1,,,,,,,,,,
,,,,5f53ffa9a0830d765571ef78,A,2024-05-23_20h52.31.988,Slot Machine Game,2023.1.3,MacIntel,59.97361161,,,,,,,,,,,,,,,,,,,,,,,,,,,420,,,,,,,,,,,,,,,,,,,,,5,5,,,459.9608,7,up,0.219,,1.5,0.3,"[3,1,2]",0.838337503,stimuli/card_100_transparent.png,100,7,0,7,0,1,,,,,,,,,,
,,,,5f53ffa9a0830d765571ef78,A,2024-05-23_20h52.31.988,Slot Machine Game,2023.1.3,MacIntel,59.97361161,,,,,,,,,,,,,,,,,,,,,,,,,,,520,,,,,,,,,,,,,,,,,,,,,5,5,,,462.5118,8,up,0.051,,1.5,0.3,"[3,1,2]",0.712145425,stimuli/card_100_transparent.png,100,8,0,8,0,1,,,,,,,,,,
,,,,5f53ffa9a0830d765571ef78,A,2024-05-23_20h52.31.988,Slot Machine Game,2023.1.3,MacIntel,59.97361161,,,,,,,,,,,,,,,,,,,,,,,,,,,620,,,,,,,,,,,,,,,,,,,,,5,5,,,464.8797,9,up,0.3848,,0.5,0.3,"[3,1,2]",0.236573425,stimuli/card_100_transparent.png,100,9,0,9,0,1,,,,,,,,,,
,,,,5f53ffa9a0830d765571ef78,A,2024-05-23_20h52.31.988,Slot Machine Game,2023.1.3,MacIntel,59.97361161,,,,,,,,,,,,,,,,,,,,,,,,,,,620,,,,,,,,,,,,,,,,,,,,,5,5,,,466.5967,10,up,0.0176,,0.5,0.3,"[3,1,2]",0.013794679,stimuli/card_0_transparent.png,0,10,0,10,0,1,,,,,,,,,,
,,,,5f53ffa9a0830d765571ef78,A,2024-05-23_20h52.31.988,Slot Machine Game,2023.1.3,MacIntel,59.97361161,,,,,,,,,,,,,,,,,,,,,,,,,,,720,,,,,,,,,,,,,,,,,,,,,5,5,,,467.9304,11,up,0.1074,,1.5,0.3,"[3,1,2]",0.66862932,stimuli/card_100_transparent.png,100,11,0,11,0,1,,,,,,,,,,
,,,,5f53ffa9a0830d765571ef78,A,2024-05-23_20h52.31.988,Slot Machine Game,2023.1.3,MacIntel,59.97361161,,,,,,,,,,,,,,,,,,,,,,,,,,,820,,,,,,,,,,,,,,,,,,,,,5,5,,,470.348,12,up,0.5038,,0.5,0.3,"[3,1,2]",0.398021806,stimuli/card_100_transparent.png,100,12,0,12,0,1,,,,,,,,,,
,,,,5f53ffa9a0830d765571ef78,A,2024-05-23_20h52.31.988,Slot Machine Game,2023.1.3,MacIntel,59.97361161,,,,,,,,,,,,,,,,,,,,,,,,,,,820,,,,,,,,,,,,,,,,,,,,,5,5,,,472.1662,13,up,0.0068,,1.5,0.3,"[3,1,2]",0.045858566,stimuli/card_0_transparent.png,0,13,0,13,0,1,,,,,,,,,,
,,,,5f53ffa9a0830d765571ef78,A,2024-05-23_20h52.31.988,Slot Machine Game,2023.1.3,MacIntel,59.97361161,,,,,,,,,,,,,,,,,,,,,,,,,,,920,,,,,,,,,,,,,,,,,,,,,5,5,,,474.4837,14,up,0.2708,,1,0.3,"[3,1,2]",0.667518601,stimuli/card_100_transparent.png,100,14,0,14,0,1,,,,,,,,,,
,,,,5f53ffa9a0830d765571ef78,A,2024-05-23_20h52.31.988,Slot Machine Game,2023.1.3,MacIntel,59.97361161,,,,,,,,,,,,,,,,,,,,,,,,,,,,,,,,,,,476.5845,,,,,,,,,,,,,,,,,,,,,,,,,,,,,,,,,"[1210,640,1040,1200,920]",4,0,4,0,1,,,,
,,,,5f53ffa9a0830d765571ef78,A,2024-05-23_20h52.31.988,Slot Machine Game,2023.1.3,MacIntel,59.97361161,,,,,,,,,,,,,,,,,,,,,,,,,,,0,,,,,,,,,,,,,,,,,,,,,6,6,"[4,10,15]","[[2,3,1],[1,3,2],[3,2,1]]",481.5996,0,up,0.6982,,1.5,0.3,"[2,3,1]",0.550667618,stimuli/card_0_transparent.png,0,0,0,0,0,1,,,,,,,,,,
,,,,5f53ffa9a0830d765571ef78,A,2024-05-23_20h52.31.988,Slot Machine Game,2023.1.3,MacIntel,59.97361161,,,,,,,,,,,,,,,,,,,,,,,,,,,100,,,,,,,,,,,,,,,,,,,,,6,6,,,484.6221,1,right,0.3685,,0.5,0.3,"[2,3,1]",0.344049647,stimuli/card_100_transparent.png,100,1,0,1,0,1,,,,,,,,,,
,,,,5f53ffa9a0830d765571ef78,A,2024-05-23_20h52.31.988,Slot Machine Game,2023.1.3,MacIntel,59.97361161,,,,,,,,,,,,,,,,,,,,,,,,,,,110,,,,,,,,,,,,,,,,,,,,,6,6,,,486.3224,2,right,2.3674,,0.5,0.3,"[2,3,1]",0.17327338,stimuli/card_10_transparent.png,10,2,0,2,0,1,,,,,,,,,,
,,,,5f53ffa9a0830d765571ef78,A,2024-05-23_20h52.31.988,Slot Machine Game,2023.1.3,MacIntel,59.97361161,,,,,,,,,,,,,,,,,,,,,,,,,,,110,,,,,,,,,,,,,,,,,,,,,6,6,,,490.0075,3,right,0.6173,,1.5,0.3,"[2,3,1]",0.030132983,stimuli/card_0_transparent.png,0,3,0,3,0,1,,,,,,,,,,
,,,,5f53ffa9a0830d765571ef78,A,2024-05-23_20h52.31.988,Slot Machine Game,2023.1.3,MacIntel,59.97361161,,,,,,,,,,,,,,,,,,,,,,,,,,,210,,,,,,,,,,,,,,,,,,,,,6,6,,,492.9587,4,left,2.1499,,0.5,0.3,"[1,3,2]",0.916868169,stimuli/card_100_transparent.png,100,4,0,4,0,1,,,,,,,,,,
,,,,5f53ffa9a0830d765571ef78,A,2024-05-23_20h52.31.988,Slot Machine Game,2023.1.3,MacIntel,59.97361161,,,,,,,,,,,,,,,,,,,,,,,,,,,310,,,,,,,,,,,,,,,,,,,,,6,6,,,496.4276,5,left,0.4195,,0.5,0.3,"[1,3,2]",0.960685626,stimuli/card_100_transparent.png,100,5,0,5,0,1,,,,,,,,,,
,,,,5f53ffa9a0830d765571ef78,A,2024-05-23_20h52.31.988,Slot Machine Game,2023.1.3,MacIntel,59.97361161,,,,,,,,,,,,,,,,,,,,,,,,,,,410,,,,,,,,,,,,,,,,,,,,,6,6,,,498.1782,6,left,0.3554,,1.5,0.3,"[1,3,2]",0.721531458,stimuli/card_100_transparent.png,100,6,0,6,0,1,,,,,,,,,,
,,,,5f53ffa9a0830d765571ef78,A,2024-05-23_20h52.31.988,Slot Machine Game,2023.1.3,MacIntel,59.97361161,,,,,,,,,,,,,,,,,,,,,,,,,,,510,,,,,,,,,,,,,,,,,,,,,6,6,,,500.8616,7,left,1.3349,,1.5,0.3,"[1,3,2]",0.396250393,stimuli/card_100_transparent.png,100,7,0,7,0,1,,,,,,,,,,
,,,,5f53ffa9a0830d765571ef78,A,2024-05-23_20h52.31.988,Slot Machine Game,2023.1.3,MacIntel,59.97361161,,,,,,,,,,,,,,,,,,,,,,,,,,,510,,,,,,,,,,,,,,,,,,,,,6,6,,,504.5308,8,left,0.974,,1.5,0.3,"[1,3,2]",0.088935241,stimuli/card_0_transparent.png,0,8,0,8,0,1,,,,,,,,,,
,,,,5f53ffa9a0830d765571ef78,A,2024-05-23_20h52.31.988,Slot Machine Game,2023.1.3,MacIntel,59.97361161,,,,,,,,,,,,,,,,,,,,,,,,,,,610,,,,,,,,,,,,,,,,,,,,,6,6,,,507.8316,9,left,0.2999,,1.5,0.3,"[1,3,2]",0.507985163,stimuli/card_100_transparent.png,100,9,0,9,0,1,,,,,,,,,,
,,,,5f53ffa9a0830d765571ef78,A,2024-05-23_20h52.31.988,Slot Machine Game,2023.1.3,MacIntel,59.97361161,,,,,,,,,,,,,,,,,,,,,,,,,,,610,,,,,,,,,,,,,,,,,,,,,6,6,,,510.4495,10,left,0.3201,,1.5,0.3,"[3,2,1]",0.767832941,stimuli/card_0_transparent.png,0,10,0,10,0,1,,,,,,,,,,
,,,,5f53ffa9a0830d765571ef78,A,2024-05-23_20h52.31.988,Slot Machine Game,2023.1.3,MacIntel,59.97361161,,,,,,,,,,,,,,,,,,,,,,,,,,,610,,,,,,,,,,,,,,,,,,,,,6,6,,,513.084,11,left,0.0519,,1.5,0.3,"[3,2,1]",0.561392425,stimuli/card_0_transparent.png,0,11,0,11,0,1,,,,,,,,,,
,,,,5f53ffa9a0830d765571ef78,A,2024-05-23_20h52.31.988,Slot Machine Game,2023.1.3,MacIntel,59.97361161,,,,,,,,,,,,,,,,,,,,,,,,,,,620,,,,,,,,,,,,,,,,,,,,,6,6,,,515.4517,12,up,0.0656,,0.5,0.3,"[3,2,1]",0.229323824,stimuli/card_10_transparent.png,10,12,0,12,0,1,,,,,,,,,,
,,,,5f53ffa9a0830d765571ef78,A,2024-05-23_20h52.31.988,Slot Machine Game,2023.1.3,MacIntel,59.97361161,,,,,,,,,,,,,,,,,,,,,,,,,,,720,,,,,,,,,,,,,,,,,,,,,6,6,,,516.8362,13,right,0.0661,,1,0.3,"[3,2,1]",0.510181045,stimuli/card_100_transparent.png,100,13,0,13,0,1,,,,,,,,,,
,,,,5f53ffa9a0830d765571ef78,A,2024-05-23_20h52.31.988,Slot Machine Game,2023.1.3,MacIntel,59.97361161,,,,,,,,,,,,,,,,,,,,,,,,,,,820,,,,,,,,,,,,,,,,,,,,,6,6,,,518.7371,14,right,0.3327,,1,0.3,"[3,2,1]",0.830920714,stimuli/card_100_transparent.png,100,14,0,14,0,1,,,,,,,,,,
,,,,5f53ffa9a0830d765571ef78,A,2024-05-23_20h52.31.988,Slot Machine Game,2023.1.3,MacIntel,59.97361161,,,,,,,,,,,,,,,,,,,,,,,,,,,,,,,,,,,520.9047,,,,,,,,,,,,,,,,,,,,,,,,,,,,,,,,,"[1210,640,1040,1200,920,820]",5,0,5,0,1,,,,
,,,,5f53ffa9a0830d765571ef78,A,2024-05-23_20h52.31.988,Slot Machine Game,2023.1.3,MacIntel,59.97361161,,,,,,,,,,,,,,,,,,,,,,,,,,,0,,,,,,,,,,,,,,,,,,,,,7,7,"[9,15]","[[1,3,2],[2,3,1]]",525.9196,0,up,0.4051,,1,0.3,"[1,3,2]",0.802797848,stimuli/card_0_transparent.png,0,0,0,0,0,1,,,,,,,,,,
,,,,5f53ffa9a0830d765571ef78,A,2024-05-23_20h52.31.988,Slot Machine Game,2023.1.3,MacIntel,59.97361161,,,,,,,,,,,,,,,,,,,,,,,,,,,10,,,,,,,,,,,,,,,,,,,,,7,7,,,528.1412,1,right,0.0664,,1.5,0.3,"[1,3,2]",0.75105236,stimuli/card_10_transparent.png,10,1,0,1,0,1,,,,,,,,,,
,,,,5f53ffa9a0830d765571ef78,A,2024-05-23_20h52.31.988,Slot Machine Game,2023.1.3,MacIntel,59.97361161,,,,,,,,,,,,,,,,,,,,,,,,,,,110,,,,,,,,,,,,,,,,,,,,,7,7,,,530.5257,2,left,0.3175,,0.5,0.3,"[1,3,2]",0.274093094,stimuli/card_100_transparent.png,100,2,0,2,0,1,,,,,,,,,,
,,,,5f53ffa9a0830d765571ef78,A,2024-05-23_20h52.31.988,Slot Machine Game,2023.1.3,MacIntel,59.97361161,,,,,,,,,,,,,,,,,,,,,,,,,,,210,,,,,,,,,,,,,,,,,,,,,7,7,,,532.1771,3,left,0.3063,,1,0.3,"[1,3,2]",0.253816801,stimuli/card_100_transparent.png,100,3,0,3,0,1,,,,,,,,,,
,,,,5f53ffa9a0830d765571ef78,A,2024-05-23_20h52.31.988,Slot Machine Game,2023.1.3,MacIntel,59.97361161,,,,,,,,,,,,,,,,,,,,,,,,,,,310,,,,,,,,,,,,,,,,,,,,,7,7,,,534.3109,4,left,0.4512,,0.5,0.3,"[1,3,2]",0.540563084,stimuli/card_100_transparent.png,100,4,0,4,0,1,,,,,,,,,,
,,,,5f53ffa9a0830d765571ef78,A,2024-05-23_20h52.31.988,Slot Machine Game,2023.1.3,MacIntel,59.97361161,,,,,,,,,,,,,,,,,,,,,,,,,,,410,,,,,,,,,,,,,,,,,,,,,7,7,,,536.0941,5,left,0.0003,,0.5,0.3,"[1,3,2]",0.781043572,stimuli/card_100_transparent.png,100,5,0,5,0,1,,,,,,,,,,
,,,,5f53ffa9a0830d765571ef78,A,2024-05-23_20h52.31.988,Slot Machine Game,2023.1.3,MacIntel,59.97361161,,,,,,,,,,,,,,,,,,,,,,,,,,,510,,,,,,,,,,,,,,,,,,,,,7,7,,,537.412,6,left,0.4348,,0.5,0.3,"[1,3,2]",0.634850554,stimuli/card_100_transparent.png,100,6,0,6,0,1,,,,,,,,,,
,,,,5f53ffa9a0830d765571ef78,A,2024-05-23_20h52.31.988,Slot Machine Game,2023.1.3,MacIntel,59.97361161,,,,,,,,,,,,,,,,,,,,,,,,,,,510,,,,,,,,,,,,,,,,,,,,,7,7,,,539.179,7,left,0.0663,,1.5,0.3,"[1,3,2]",0.002945228,stimuli/card_0_transparent.png,0,7,0,7,0,1,,,,,,,,,,
,,,,5f53ffa9a0830d765571ef78,A,2024-05-23_20h52.31.988,Slot Machine Game,2023.1.3,MacIntel,59.97361161,,,,,,,,,,,,,,,,,,,,,,,,,,,610,,,,,,,,,,,,,,,,,,,,,7,7,,,541.5634,8,left,0.6501,,0.5,0.3,"[1,3,2]",0.930097075,stimuli/card_100_transparent.png,100,8,0,8,0,1,,,,,,,,,,
,,,,5f53ffa9a0830d765571ef78,A,2024-05-23_20h52.31.988,Slot Machine Game,2023.1.3,MacIntel,59.97361161,,,,,,,,,,,,,,,,,,,,,,,,,,,620,,,,,,,,,,,,,,,,,,,,,7,7,,,543.5314,9,left,0.1672,,0.5,0.3,"[2,3,1]",0.715713184,stimuli/card_10_transparent.png,10,9,0,9,0,1,,,,,,,,,,
,,,,5f53ffa9a0830d765571ef78,A,2024-05-23_20h52.31.988,Slot Machine Game,2023.1.3,MacIntel,59.97361161,,,,,,,,,,,,,,,,,,,,,,,,,,,630,,,,,,,,,,,,,,,,,,,,,7,7,,,545.0158,10,left,0.5357,,1.5,0.3,"[2,3,1]",0.771453006,stimuli/card_10_transparent.png,10,10,0,10,0,1,,,,,,,,,,
,,,,5f53ffa9a0830d765571ef78,A,2024-05-23_20h52.31.988,Slot Machine Game,2023.1.3,MacIntel,59.97361161,,,,,,,,,,,,,,,,,,,,,,,,,,,730,,,,,,,,,,,,,,,,,,,,,7,7,,,547.8832,11,right,0.0682,,1,0.3,"[2,3,1]",0.958048157,stimuli/card_100_transparent.png,100,11,0,11,0,1,,,,,,,,,,
,,,,5f53ffa9a0830d765571ef78,A,2024-05-23_20h52.31.988,Slot Machine Game,2023.1.3,MacIntel,59.97361161,,,,,,,,,,,,,,,,,,,,,,,,,,,830,,,,,,,,,,,,,,,,,,,,,7,7,,,549.7844,12,right,0.4152,,0.5,0.3,"[2,3,1]",0.964111805,stimuli/card_100_transparent.png,100,12,0,12,0,1,,,,,,,,,,
,,,,5f53ffa9a0830d765571ef78,A,2024-05-23_20h52.31.988,Slot Machine Game,2023.1.3,MacIntel,59.97361161,,,,,,,,,,,,,,,,,,,,,,,,,,,930,,,,,,,,,,,,,,,,,,,,,7,7,,,551.5349,13,right,0.2504,,1,0.3,"[2,3,1]",0.722311834,stimuli/card_100_transparent.png,100,13,0,13,0,1,,,,,,,,,,
,,,,5f53ffa9a0830d765571ef78,A,2024-05-23_20h52.31.988,Slot Machine Game,2023.1.3,MacIntel,59.97361161,,,,,,,,,,,,,,,,,,,,,,,,,,,1030,,,,,,,,,,,,,,,,,,,,,7,7,,,553.6194,14,right,0.0697,,1.5,0.3,"[2,3,1]",0.752402755,stimuli/card_100_transparent.png,100,14,0,14,0,1,,,,,,,,,,
,,,,5f53ffa9a0830d765571ef78,A,2024-05-23_20h52.31.988,Slot Machine Game,2023.1.3,MacIntel,59.97361161,,,,,,,,,,,,,,,,,,,,,,,,,,,,,,,,,,,556.0037,,,,,,,,,,,,,,,,,,,,,,,,,,,,,,,,,"[1210,640,1040,1200,920,820,1030]",6,0,6,0,1,,,,
,,,,5f53ffa9a0830d765571ef78,A,2024-05-23_20h52.31.988,Slot Machine Game,2023.1.3,MacIntel,59.97361161,,,,,,,,,,,,,,,,,,,,,,,,,,,0,,,,,,,,,,,,,,,,,,,,,8,8,"[11,15]","[[2,1,3],[1,2,3]]",561.0175,0,right,0.2855,,0.5,0.3,"[2,1,3]",0.931844975,stimuli/card_0_transparent.png,0,0,0,0,0,1,,,,,,,,,,
,,,,5f53ffa9a0830d765571ef78,A,2024-05-23_20h52.31.988,Slot Machine Game,2023.1.3,MacIntel,59.97361161,,,,,,,,,,,,,,,,,,,,,,,,,,,10,,,,,,,,,,,,,,,,,,,,,8,8,,,562.6222,1,left,0.0341,,1.5,0.3,"[2,1,3]",0.451643618,stimuli/card_10_transparent.png,10,1,0,1,0,1,,,,,,,,,,
,,,,5f53ffa9a0830d765571ef78,A,2024-05-23_20h52.31.988,Slot Machine Game,2023.1.3,MacIntel,59.97361161,,,,,,,,,,,,,,,,,,,,,,,,,,,110,,,,,,,,,,,,,,,,,,,,,8,8,,,564.9752,2,up,0.2181,,1.5,0.3,"[2,1,3]",0.935802042,stimuli/card_100_transparent.png,100,2,0,2,0,1,,,,,,,,,,
,,,,5f53ffa9a0830d765571ef78,A,2024-05-23_20h52.31.988,Slot Machine Game,2023.1.3,MacIntel,59.97361161,,,,,,,,,,,,,,,,,,,,,,,,,,,210,,,,,,,,,,,,,,,,,,,,,8,8,,,567.5251,3,up,0.3668,,0.5,0.3,"[2,1,3]",0.430464238,stimuli/card_100_transparent.png,100,3,0,3,0,1,,,,,,,,,,
,,,,5f53ffa9a0830d765571ef78,A,2024-05-23_20h52.31.988,Slot Machine Game,2023.1.3,MacIntel,59.97361161,,,,,,,,,,,,,,,,,,,,,,,,,,,310,,,,,,,,,,,,,,,,,,,,,8,8,,,569.2102,4,up,0.1387,,0.5,0.3,"[2,1,3]",0.897912207,stimuli/card_100_transparent.png,100,4,0,4,0,1,,,,,,,,,,
,,,,5f53ffa9a0830d765571ef78,A,2024-05-23_20h52.31.988,Slot Machine Game,2023.1.3,MacIntel,59.97361161,,,,,,,,,,,,,,,,,,,,,,,,,,,410,,,,,,,,,,,,,,,,,,,,,8,8,,,570.6768,5,up,0.0844,,1,0.3,"[2,1,3]",0.623669257,stimuli/card_100_transparent.png,100,5,0,5,0,1,,,,,,,,,,
,,,,5f53ffa9a0830d765571ef78,A,2024-05-23_20h52.31.988,Slot Machine Game,2023.1.3,MacIntel,59.97361161,,,,,,,,,,,,,,,,,,,,,,,,,,,510,,,,,,,,,,,,,,,,,,,,,8,8,,,572.5949,6,up,0.0841,,0.5,0.3,"[2,1,3]",0.694159173,stimuli/card_100_transparent.png,100,6,0,6,0,1,,,,,,,,,,
,,,,5f53ffa9a0830d765571ef78,A,2024-05-23_20h52.31.988,Slot Machine Game,2023.1.3,MacIntel,59.97361161,,,,,,,,,,,,,,,,,,,,,,,,,,,610,,,,,,,,,,,,,,,,,,,,,8,8,,,574.0119,7,up,0.3502,,1,0.3,"[2,1,3]",0.279322561,stimuli/card_100_transparent.png,100,7,0,7,0,1,,,,,,,,,,
,,,,5f53ffa9a0830d765571ef78,A,2024-05-23_20h52.31.988,Slot Machine Game,2023.1.3,MacIntel,59.97361161,,,,,,,,,,,,,,,,,,,,,,,,,,,710,,,,,,,,,,,,,,,,,,,,,8,8,,,576.1971,8,up,0.4543,,0.5,0.3,"[2,1,3]",0.85003228,stimuli/card_100_transparent.png,100,8,0,8,0,1,,,,,,,,,,
,,,,5f53ffa9a0830d765571ef78,A,2024-05-23_20h52.31.988,Slot Machine Game,2023.1.3,MacIntel,59.97361161,,,,,,,,,,,,,,,,,,,,,,,,,,,810,,,,,,,,,,,,,,,,,,,,,8,8,,,577.9788,9,up,0.1489,,0.5,0.3,"[2,1,3]",0.298693144,stimuli/card_100_transparent.png,100,9,0,9,0,1,,,,,,,,,,
,,,,5f53ffa9a0830d765571ef78,A,2024-05-23_20h52.31.988,Slot Machine Game,2023.1.3,MacIntel,59.97361161,,,,,,,,,,,,,,,,,,,,,,,,,,,910,,,,,,,,,,,,,,,,,,,,,8,8,,,579.4461,10,up,0.1404,,1.5,0.3,"[2,1,3]",0.246839596,stimuli/card_100_transparent.png,100,10,0,10,0,1,,,,,,,,,,
,,,,5f53ffa9a0830d765571ef78,A,2024-05-23_20h52.31.988,Slot Machine Game,2023.1.3,MacIntel,59.97361161,,,,,,,,,,,,,,,,,,,,,,,,,,,920,,,,,,,,,,,,,,,,,,,,,8,8,,,581.8984,11,up,0.3515,,1,0.3,"[1,2,3]",0.355499629,stimuli/card_10_transparent.png,10,11,0,11,0,1,,,,,,,,,,
,,,,5f53ffa9a0830d765571ef78,A,2024-05-23_20h52.31.988,Slot Machine Game,2023.1.3,MacIntel,59.97361161,,,,,,,,,,,,,,,,,,,,,,,,,,,930,,,,,,,,,,,,,,,,,,,,,8,8,,,584.0656,12,up,0.0068,,0.5,0.3,"[1,2,3]",0.997357212,stimuli/card_10_transparent.png,10,12,0,12,0,1,,,,,,,,,,
,,,,5f53ffa9a0830d765571ef78,A,2024-05-23_20h52.31.988,Slot Machine Game,2023.1.3,MacIntel,59.97361161,,,,,,,,,,,,,,,,,,,,,,,,,,,930,,,,,,,,,,,,,,,,,,,,,8,8,,,585.3841,13,right,0.4028,,1.5,0.3,"[1,2,3]",0.849153134,stimuli/card_0_transparent.png,0,13,0,13,0,1,,,,,,,,,,
,,,,5f53ffa9a0830d765571ef78,A,2024-05-23_20h52.31.988,Slot Machine Game,2023.1.3,MacIntel,59.97361161,,,,,,,,,,,,,,,,,,,,,,,,,,,1030,,,,,,,,,,,,,,,,,,,,,8,8,,,588.1166,14,left,0.07,,0.5,0.3,"[1,2,3]",0.20819494,stimuli/card_100_transparent.png,100,14,0,14,0,1,,,,,,,,,,
,,,,5f53ffa9a0830d765571ef78,A,2024-05-23_20h52.31.988,Slot Machine Game,2023.1.3,MacIntel,59.97361161,,,,,,,,,,,,,,,,,,,,,,,,,,,,,,,,,,,589.5188,,,,,,,,,,,,,,,,,,,,,,,,,,,,,,,,,"[1210,640,1040,1200,920,820,1030,1030]",7,0,7,0,1,,,,
,,,,5f53ffa9a0830d765571ef78,A,2024-05-23_20h52.31.988,Slot Machine Game,2023.1.3,MacIntel,59.97361161,,,,,,,,,,,,,,,,,,,,,,,,,,,0,,,,,,,,,,,,,,,,,,,,,9,9,"[8,15]","[[3,2,1],[3,1,2]]",594.5328,0,left,0.0512,,0.5,0.3,"[3,2,1]",0.839304205,stimuli/card_0_transparent.png,0,0,0,0,0,1,,,,,,,,,,
,,,,5f53ffa9a0830d765571ef78,A,2024-05-23_20h52.31.988,Slot Machine Game,2023.1.3,MacIntel,59.97361161,,,,,,,,,,,,,,,,,,,,,,,,,,,10,,,,,,,,,,,,,,,,,,,,,9,9,,,595.9035,1,up,0.2175,,0.5,0.3,"[3,2,1]",0.757204442,stimuli/card_10_transparent.png,10,1,0,1,0,1,,,,,,,,,,
,,,,5f53ffa9a0830d765571ef78,A,2024-05-23_20h52.31.988,Slot Machine Game,2023.1.3,MacIntel,59.97361161,,,,,,,,,,,,,,,,,,,,,,,,,,,110,,,,,,,,,,,,,,,,,,,,,9,9,,,597.4548,2,right,0.0354,,0.5,0.3,"[3,2,1]",0.861613042,stimuli/card_100_transparent.png,100,2,0,2,0,1,,,,,,,,,,
,,,,5f53ffa9a0830d765571ef78,A,2024-05-23_20h52.31.988,Slot Machine Game,2023.1.3,MacIntel,59.97361161,,,,,,,,,,,,,,,,,,,,,,,,,,,210,,,,,,,,,,,,,,,,,,,,,9,9,,,598.8212,3,right,0.1168,,1,0.3,"[3,2,1]",0.956576434,stimuli/card_100_transparent.png,100,3,0,3,0,1,,,,,,,,,,
,,,,5f53ffa9a0830d765571ef78,A,2024-05-23_20h52.31.988,Slot Machine Game,2023.1.3,MacIntel,59.97361161,,,,,,,,,,,,,,,,,,,,,,,,,,,310,,,,,,,,,,,,,,,,,,,,,9,9,,,600.7556,4,right,0.0671,,1.5,0.3,"[3,2,1]",0.261355758,stimuli/card_100_transparent.png,100,4,0,4,0,1,,,,,,,,,,
,,,,5f53ffa9a0830d765571ef78,A,2024-05-23_20h52.31.988,Slot Machine Game,2023.1.3,MacIntel,59.97361161,,,,,,,,,,,,,,,,,,,,,,,,,,,410,,,,,,,,,,,,,,,,,,,,,9,9,,,603.1408,5,right,0.0562,,1.5,0.3,"[3,2,1]",0.619150532,stimuli/card_100_transparent.png,100,5,0,5,0,1,,,,,,,,,,
,,,,5f53ffa9a0830d765571ef78,A,2024-05-23_20h52.31.988,Slot Machine Game,2023.1.3,MacIntel,59.97361161,,,,,,,,,,,,,,,,,,,,,,,,,,,410,,,,,,,,,,,,,,,,,,,,,9,9,,,605.5082,6,right,0.1499,,1,0.3,"[3,2,1]",0.024674035,stimuli/card_0_transparent.png,0,6,0,6,0,1,,,,,,,,,,
,,,,5f53ffa9a0830d765571ef78,A,2024-05-23_20h52.31.988,Slot Machine Game,2023.1.3,MacIntel,59.97361161,,,,,,,,,,,,,,,,,,,,,,,,,,,510,,,,,,,,,,,,,,,,,,,,,9,9,,,607.4922,7,right,0.4165,,0.5,0.3,"[3,2,1]",0.357889683,stimuli/card_100_transparent.png,100,7,0,7,0,1,,,,,,,,,,
,,,,5f53ffa9a0830d765571ef78,A,2024-05-23_20h52.31.988,Slot Machine Game,2023.1.3,MacIntel,59.97361161,,,,,,,,,,,,,,,,,,,,,,,,,,,520,,,,,,,,,,,,,,,,,,,,,9,9,,,609.2422,8,right,0.0511,,1,0.3,"[3,1,2]",0.292621764,stimuli/card_10_transparent.png,10,8,0,8,0,1,,,,,,,,,,
,,,,5f53ffa9a0830d765571ef78,A,2024-05-23_20h52.31.988,Slot Machine Game,2023.1.3,MacIntel,59.97361161,,,,,,,,,,,,,,,,,,,,,,,,,,,530,,,,,,,,,,,,,,,,,,,,,9,9,,,611.1109,9,right,0.1682,,1,0.3,"[3,1,2]",0.888536885,stimuli/card_10_transparent.png,10,9,0,9,0,1,,,,,,,,,,
,,,,5f53ffa9a0830d765571ef78,A,2024-05-23_20h52.31.988,Slot Machine Game,2023.1.3,MacIntel,59.97361161,,,,,,,,,,,,,,,,,,,,,,,,,,,630,,,,,,,,,,,,,,,,,,,,,9,9,,,613.1105,10,left,0.0843,,1.5,0.3,"[3,1,2]",0.057721165,stimuli/card_100_transparent.png,100,10,0,10,0,1,,,,,,,,,,
,,,,5f53ffa9a0830d765571ef78,A,2024-05-23_20h52.31.988,Slot Machine Game,2023.1.3,MacIntel,59.97361161,,,,,,,,,,,,,,,,,,,,,,,,,,,640,,,,,,,,,,,,,,,,,,,,,9,9,,,615.5118,11,left,0.1555,,1,0.3,"[3,1,2]",0.100150299,stimuli/card_10_transparent.png,10,11,0,11,0,1,,,,,,,,,,
,,,,5f53ffa9a0830d765571ef78,A,2024-05-23_20h52.31.988,Slot Machine Game,2023.1.3,MacIntel,59.97361161,,,,,,,,,,,,,,,,,,,,,,,,,,,740,,,,,,,,,,,,,,,,,,,,,9,9,,,617.4797,12,up,0.0851,,0.5,0.3,"[3,1,2]",0.351520457,stimuli/card_100_transparent.png,100,12,0,12,0,1,,,,,,,,,,
,,,,5f53ffa9a0830d765571ef78,A,2024-05-23_20h52.31.988,Slot Machine Game,2023.1.3,MacIntel,59.97361161,,,,,,,,,,,,,,,,,,,,,,,,,,,840,,,,,,,,,,,,,,,,,,,,,9,9,,,618.8811,13,up,0.1369,,1.5,0.3,"[3,1,2]",0.895909718,stimuli/card_100_transparent.png,100,13,0,13,0,1,,,,,,,,,,
,,,,5f53ffa9a0830d765571ef78,A,2024-05-23_20h52.31.988,Slot Machine Game,2023.1.3,MacIntel,59.97361161,,,,,,,,,,,,,,,,,,,,,,,,,,,850,,,,,,,,,,,,,,,,,,,,,9,9,,,621.3482,14,up,0.0842,,0.5,0.3,"[3,1,2]",0.101041188,stimuli/card_10_transparent.png,10,14,0,14,0,1,,,,,,,,,,
,,,,5f53ffa9a0830d765571ef78,A,2024-05-23_20h52.31.988,Slot Machine Game,2023.1.3,MacIntel,59.97361161,,,,,,,,,,,,,,,,,,,,,,,,,,,,,,,,,,,622.7493,,,,,,,,,,,,,,,,,,,,,,,,,,,,,,,,,"[1210,640,1040,1200,920,820,1030,1030,850]",8,0,8,0,1,,,,
,,,,5f53ffa9a0830d765571ef78,A,2024-05-23_20h52.31.988,Slot Machine Game,2023.1.3,MacIntel,59.97361161,,,,,,,,,,,,,,,,,,,,,,,,,,,100,,,,,,,,,,,,,,,,,,,,,10,10,"[10,15]","[[3,1,2],[1,3,2]]",627.7634,0,up,0.3188,,1.5,0.3,"[3,1,2]",0.536393102,stimuli/card_100_transparent.png,100,0,0,0,0,1,,,,,,,,,,
,,,,5f53ffa9a0830d765571ef78,A,2024-05-23_20h52.31.988,Slot Machine Game,2023.1.3,MacIntel,59.97361161,,,,,,,,,,,,,,,,,,,,,,,,,,,110,,,,,,,,,,,,,,,,,,,,,10,10,,,630.4028,1,up,0.0365,,1.5,0.3,"[3,1,2]",0.198746979,stimuli/card_10_transparent.png,10,1,0,1,0,1,,,,,,,,,,
,,,,5f53ffa9a0830d765571ef78,A,2024-05-23_20h52.31.988,Slot Machine Game,2023.1.3,MacIntel,59.97361161,,,,,,,,,,,,,,,,,,,,,,,,,,,120,,,,,,,,,,,,,,,,,,,,,10,10,,,632.7701,2,up,0.2508,,0.5,0.3,"[3,1,2]",0.159717574,stimuli/card_10_transparent.png,10,2,0,2,0,1,,,,,,,,,,
,,,,5f53ffa9a0830d765571ef78,A,2024-05-23_20h52.31.988,Slot Machine Game,2023.1.3,MacIntel,59.97361161,,,,,,,,,,,,,,,,,,,,,,,,,,,130,,,,,,,,,,,,,,,,,,,,,10,10,,,634.3375,3,right,0.418,,1,0.3,"[3,1,2]",0.331833021,stimuli/card_10_transparent.png,10,3,0,3,0,1,,,,,,,,,,
,,,,5f53ffa9a0830d765571ef78,A,2024-05-23_20h52.31.988,Slot Machine Game,2023.1.3,MacIntel,59.97361161,,,,,,,,,,,,,,,,,,,,,,,,,,,130,,,,,,,,,,,,,,,,,,,,,10,10,,,636.5885,4,left,0.2005,,1,0.3,"[3,1,2]",0.782019708,stimuli/card_0_transparent.png,0,4,0,4,0,1,,,,,,,,,,
,,,,5f53ffa9a0830d765571ef78,A,2024-05-23_20h52.31.988,Slot Machine Game,2023.1.3,MacIntel,59.97361161,,,,,,,,,,,,,,,,,,,,,,,,,,,130,,,,,,,,,,,,,,,,,,,,,10,10,,,638.606,5,up,0.1174,,1.5,0.3,"[3,1,2]",0.048209209,stimuli/card_0_transparent.png,0,5,0,5,0,1,,,,,,,,,,
,,,,5f53ffa9a0830d765571ef78,A,2024-05-23_20h52.31.988,Slot Machine Game,2023.1.3,MacIntel,59.97361161,,,,,,,,,,,,,,,,,,,,,,,,,,,140,,,,,,,,,,,,,,,,,,,,,10,10,,,641.0409,6,right,0.0172,,1.5,0.3,"[3,1,2]",0.831682464,stimuli/card_10_transparent.png,10,6,0,6,0,1,,,,,,,,,,
,,,,5f53ffa9a0830d765571ef78,A,2024-05-23_20h52.31.988,Slot Machine Game,2023.1.3,MacIntel,59.97361161,,,,,,,,,,,,,,,,,,,,,,,,,,,240,,,,,,,,,,,,,,,,,,,,,10,10,,,643.3914,7,up,0.1673,,1,0.3,"[3,1,2]",0.952328287,stimuli/card_100_transparent.png,100,7,0,7,0,1,,,,,,,,,,
,,,,5f53ffa9a0830d765571ef78,A,2024-05-23_20h52.31.988,Slot Machine Game,2023.1.3,MacIntel,59.97361161,,,,,,,,,,,,,,,,,,,,,,,,,,,340,,,,,,,,,,,,,,,,,,,,,10,10,,,645.393,8,up,0.034,,1.5,0.3,"[3,1,2]",0.615573148,stimuli/card_100_transparent.png,100,8,0,8,0,1,,,,,,,,,,
,,,,5f53ffa9a0830d765571ef78,A,2024-05-23_20h52.31.988,Slot Machine Game,2023.1.3,MacIntel,59.97361161,,,,,,,,,,,,,,,,,,,,,,,,,,,440,,,,,,,,,,,,,,,,,,,,,10,10,,,647.761,9,up,0.0024,,1.5,0.3,"[3,1,2]",0.797676551,stimuli/card_100_transparent.png,100,9,0,9,0,1,,,,,,,,,,
,,,,5f53ffa9a0830d765571ef78,A,2024-05-23_20h52.31.988,Slot Machine Game,2023.1.3,MacIntel,59.97361161,,,,,,,,,,,,,,,,,,,,,,,,,,,440,,,,,,,,,,,,,,,,,,,,,10,10,,,650.0945,10,up,0.1678,,0.5,0.3,"[1,3,2]",0.376386843,stimuli/card_0_transparent.png,0,10,0,10,0,1,,,,,,,,,,
,,,,5f53ffa9a0830d765571ef78,A,2024-05-23_20h52.31.988,Slot Machine Game,2023.1.3,MacIntel,59.97361161,,,,,,,,,,,,,,,,,,,,,,,,,,,540,,,,,,,,,,,,,,,,,,,,,10,10,,,651.5781,11,up,0.6529,,1.5,0.3,"[1,3,2]",0.059715471,stimuli/card_100_transparent.png,100,11,0,11,0,1,,,,,,,,,,
,,,,5f53ffa9a0830d765571ef78,A,2024-05-23_20h52.31.988,Slot Machine Game,2023.1.3,MacIntel,59.97361161,,,,,,,,,,,,,,,,,,,,,,,,,,,540,,,,,,,,,,,,,,,,,,,,,10,10,,,654.5465,12,up,0.0512,,1,0.3,"[1,3,2]",0.630778071,stimuli/card_0_transparent.png,0,12,0,12,0,1,,,,,,,,,,
,,,,5f53ffa9a0830d765571ef78,A,2024-05-23_20h52.31.988,Slot Machine Game,2023.1.3,MacIntel,59.97361161,,,,,,,,,,,,,,,,,,,,,,,,,,,540,,,,,,,,,,,,,,,,,,,,,10,10,,,656.43,13,up,0.0004,,1,0.3,"[1,3,2]",0.865870105,stimuli/card_0_transparent.png,0,13,0,13,0,1,,,,,,,,,,
,,,,5f53ffa9a0830d765571ef78,A,2024-05-23_20h52.31.988,Slot Machine Game,2023.1.3,MacIntel,59.97361161,,,,,,,,,,,,,,,,,,,,,,,,,,,550,,,,,,,,,,,,,,,,,,,,,10,10,,,658.2647,14,left,0.1026,,1.5,0.3,"[1,3,2]",0.131034138,stimuli/card_10_transparent.png,10,14,0,14,0,1,,,,,,,,,,
,,,,5f53ffa9a0830d765571ef78,A,2024-05-23_20h52.31.988,Slot Machine Game,2023.1.3,MacIntel,59.97361161,,,,,,,,,,,,,,,,,,,,,,,,,,,,,,,,,,,660.6988,,,,,,,,,,,,,,,,,,,,,,,,,,,,,,,,,"[1210,640,1040,1200,920,820,1030,1030,850,550]",9,0,9,0,1,,,,
,,,,5f53ffa9a0830d765571ef78,A,2024-05-23_20h52.31.988,Slot Machine Game,2023.1.3,MacIntel,59.97361161,,,,,,,,,,,,,,,,,,,,,,,,,,,,,,,,,,,,,,,,,,,,,,,,,,,,,,,,,,,,,,,,,,,,,,,,,,9,"[1210,640,1040,1200,920,820,1030,1030,850,550]",12.1,2024-05-23_21h03.41.846
