key_resp_welcome.started,key_resp_welcome.keys,key_resp_welcome.rt,key_resp_welcome.duration,participant,date,expName,psychopyVersion,OS,frameRate,key_resp_instruction1.started,key_resp_instruction1.keys,key_resp_instruction1.rt,key_resp_instruction1.duration,key_resp_instruction2.started,key_resp_instruction2.keys,key_resp_instruction2.rt,key_resp_instruction2.duration,key_resp_instruction3.started,key_resp_instruction3.keys,key_resp_instruction3.rt,key_resp_instruction3.duration,practiceCondition,practice_reward_seqs,key_resp_practice_slots.started,key_resp_practice_slots.keys,key_resp_practice_slots.rt,key_resp_practice_slots.duration,presentationInterval,"practice_reward_seq: 2,1,3",reward_Img,Cuml_rew,currentPracticeTrialReward,practice_trials.thisRepN,practice_trials.thisTrialN,practice_trials.thisN,practice_trials.thisIndex,practice_trials.ran,"practice_reward_seq: 2,3,1",text_block_break.started,practice_block.thisRepN,practice_block.thisTrialN,practice_block.thisN,practice_block.thisIndex,practice_block.ran,"practice_reward_seq: 1,3,2","practice_reward_seq: 3,1,2",key_resp_practice_end.started,key_resp_practice_end.keys,key_resp_practice_end.rt,key_resp_practice_end.duration,text_main_instruction.started,BlockCondition,BlockOrderIndices,key_resp_main_instruction.started,key_resp_main_instruction.keys,key_resp_main_instruction.rt,key_resp_main_instruction.duration,blockNumber,blockAssignment,currentCondition,main_reward_seqs,key_resp_slots_presentation.started,key_resp_slots_presentation.keys,key_resp_slots_presentation.rt,key_resp_slots_presentation.duration,Main_presentationInterval,rewardPresentationTime,Main_reward_seq,Random value generated,Main_reward_Img,Main_Cumul_Reward,Main_currentTrialReward,main_trials.thisRepN,main_trials.thisTrialN,main_trials.thisN,main_trials.thisIndex,main_trials.ran,block.thisRepN,block.thisTrialN,block.thisN,block.thisIndex,block.ran
0.0008,space,2.4292,,,2023-10-09_16h09.43.991,SlotMachine_updated,2023.1.3,MacIntel,60.06006006,,,,,,,,,,,,,,,,,,,,,,,,,,,,,,,,,,,,,,,,,,,,,,,,,,,,,,,,,,,,,,,,,,,,,,,,,
,,,,,2023-10-09_16h09.43.991,SlotMachine_updated,2023.1.3,MacIntel,60.06006006,,,,,,,,,,,,,,,,,,,,,,,,,,,,,,,,,,,,,,,,,,,,,,,,,,,,,,,,,,,,,,,,,,,,,,,,,
,,,,,2023-10-09_16h09.43.991,SlotMachine_updated,2023.1.3,MacIntel,60.06006006,144.156,space,32.6275,,,,,,,,,,,,,,,,,,,,,,,,,,,,,,,,,,,,,,,,,,,,,,,,,,,,,,,,,,,,,,,,,,,,,,
,,,,,2023-10-09_16h09.43.991,SlotMachine_updated,2023.1.3,MacIntel,60.06006006,,,,,176.8031,space,1.8507,,,,,,,,,,,,,,,,,,,,,,,,,,,,,,,,,,,,,,,,,,,,,,,,,,,,,,,,,,,,,,,,,,
,,,,,2023-10-09_16h09.43.991,SlotMachine_updated,2023.1.3,MacIntel,60.06006006,,,,,,,,,178.6669,space,0.6098,,,,,,,,,,,,,,,,,,,,,,,,,,,,,,,,,,,,,,,,,,,,,,,,,,,,,,,,,,,,,,
,,,,,2023-10-09_16h09.43.991,SlotMachine_updated,2023.1.3,MacIntel,60.06006006,,,,,,,,,,,,,"[9,15]","[[2,1,3],[2,3,1]]",179.3083,up,1.272,,1,,stimuli/card_100_transparent.png,100,100,0,0,0,0,1,,,,,,,,,,,,,,,,,,,,,,,,,,,,,,,,,,,,,,,,,,,,,
,,,,,2023-10-09_16h09.43.991,SlotMachine_updated,2023.1.3,MacIntel,60.06006006,,,,,,,,,,,,,,,181.9149,up,0.5172,,1,,stimuli/card_100_transparent.png,200,100,1,0,1,0,1,,,,,,,,,,,,,,,,,,,,,,,,,,,,,,,,,,,,,,,,,,,,,
,,,,,2023-10-09_16h09.43.991,SlotMachine_updated,2023.1.3,MacIntel,60.06006006,,,,,,,,,,,,,,,183.7475,up,0.167,,1.5,,stimuli/card_100_transparent.png,300,100,2,0,2,0,1,,,,,,,,,,,,,,,,,,,,,,,,,,,,,,,,,,,,,,,,,,,,,
,,,,,2023-10-09_16h09.43.991,SlotMachine_updated,2023.1.3,MacIntel,60.06006006,,,,,,,,,,,,,,,185.7315,up,0.213,,1,,stimuli/card_0_transparent.png,300,0,3,0,3,0,1,,,,,,,,,,,,,,,,,,,,,,,,,,,,,,,,,,,,,,,,,,,,,
,,,,,2023-10-09_16h09.43.991,SlotMachine_updated,2023.1.3,MacIntel,60.06006006,,,,,,,,,,,,,,,187.2622,up,0.3504,,1.5,,stimuli/card_100_transparent.png,400,100,4,0,4,0,1,,,,,,,,,,,,,,,,,,,,,,,,,,,,,,,,,,,,,,,,,,,,,
,,,,,2023-10-09_16h09.43.991,SlotMachine_updated,2023.1.3,MacIntel,60.06006006,,,,,,,,,,,,,,,189.4285,up,0.0278,,1.5,,stimuli/card_100_transparent.png,500,100,5,0,5,0,1,,,,,,,,,,,,,,,,,,,,,,,,,,,,,,,,,,,,,,,,,,,,,
,,,,,2023-10-09_16h09.43.991,SlotMachine_updated,2023.1.3,MacIntel,60.06006006,,,,,,,,,,,,,,,191.275,up,0.006,,1.5,,stimuli/card_100_transparent.png,600,100,6,0,6,0,1,,,,,,,,,,,,,,,,,,,,,,,,,,,,,,,,,,,,,,,,,,,,,
,,,,,2023-10-09_16h09.43.991,SlotMachine_updated,2023.1.3,MacIntel,60.06006006,,,,,,,,,,,,,,,193.0882,up,0.0022,,1.5,,stimuli/card_100_transparent.png,700,100,7,0,7,0,1,,,,,,,,,,,,,,,,,,,,,,,,,,,,,,,,,,,,,,,,,,,,,
,,,,,2023-10-09_16h09.43.991,SlotMachine_updated,2023.1.3,MacIntel,60.06006006,,,,,,,,,,,,,,,194.9048,up,0.2963,,0.5,,stimuli/card_100_transparent.png,800,100,8,0,8,0,1,,,,,,,,,,,,,,,,,,,,,,,,,,,,,,,,,,,,,,,,,,,,,
,,,,,2023-10-09_16h09.43.991,SlotMachine_updated,2023.1.3,MacIntel,60.06006006,,,,,,,,,,,,,,,196.02,up,0.3634,,1.5,,stimuli/card_0_transparent.png,800,0,9,0,9,0,1,,,,,,,,,,,,,,,,,,,,,,,,,,,,,,,,,,,,,,,,,,,,,
,,,,,2023-10-09_16h09.43.991,SlotMachine_updated,2023.1.3,MacIntel,60.06006006,,,,,,,,,,,,,,,198.1924,up,0.3533,,0.5,,stimuli/card_0_transparent.png,800,0,10,0,10,0,1,,,,,,,,,,,,,,,,,,,,,,,,,,,,,,,,,,,,,,,,,,,,,
,,,,,2023-10-09_16h09.43.991,SlotMachine_updated,2023.1.3,MacIntel,60.06006006,,,,,,,,,,,,,,,199.3847,left,0.7361,,1.5,,stimuli/card_0_transparent.png,800,0,11,0,11,0,1,,,,,,,,,,,,,,,,,,,,,,,,,,,,,,,,,,,,,,,,,,,,,
,,,,,2023-10-09_16h09.43.991,SlotMachine_updated,2023.1.3,MacIntel,60.06006006,,,,,,,,,,,,,,,201.9336,right,0.1198,,1.5,,stimuli/card_100_transparent.png,900,100,12,0,12,0,1,,,,,,,,,,,,,,,,,,,,,,,,,,,,,,,,,,,,,,,,,,,,,
,,,,,2023-10-09_16h09.43.991,SlotMachine_updated,2023.1.3,MacIntel,60.06006006,,,,,,,,,,,,,,,203.8633,right,0.3038,,1.5,,stimuli/card_100_transparent.png,1000,100,13,0,13,0,1,,,,,,,,,,,,,,,,,,,,,,,,,,,,,,,,,,,,,,,,,,,,,
,,,,,2023-10-09_16h09.43.991,SlotMachine_updated,2023.1.3,MacIntel,60.06006006,,,,,,,,,,,,,,,205.9822,right,0.2144,,1.5,,stimuli/card_100_transparent.png,1100,100,14,0,14,0,1,,,,,,,,,,,,,,,,,,,,,,,,,,,,,,,,,,,,,,,,,,,,,
,,,,,2023-10-09_16h09.43.991,SlotMachine_updated,2023.1.3,MacIntel,60.06006006,,,,,,,,,,,,,,,,,,,,,,,,,,,,,,208.0142,0,0,0,0,1,,,,,,,,,,,,,,,,,,,,,,,,,,,,,,,,,,,,,,
,,,,,2023-10-09_16h09.43.991,SlotMachine_updated,2023.1.3,MacIntel,60.06006006,,,,,,,,,,,,,"[6,15]","[[1,3,2],[3,1,2]]",213.0103,right,0.5978,,1,,stimuli/card_10_transparent.png,10,10,0,0,0,0,1,,,,,,,,,,,,,,,,,,,,,,,,,,,,,,,,,,,,,,,,,,,,,
,,,,,2023-10-09_16h09.43.991,SlotMachine_updated,2023.1.3,MacIntel,60.06006006,,,,,,,,,,,,,,,214.9229,up,0.5009,,1.5,,stimuli/card_0_transparent.png,10,0,1,0,1,0,1,,,,,,,,,,,,,,,,,,,,,,,,,,,,,,,,,,,,,,,,,,,,,
,,,,,2023-10-09_16h09.43.991,SlotMachine_updated,2023.1.3,MacIntel,60.06006006,,,,,,,,,,,,,,,217.2374,left,0.297,,0.5,,stimuli/card_100_transparent.png,110,100,2,0,2,0,1,,,,,,,,,,,,,,,,,,,,,,,,,,,,,,,,,,,,,,,,,,,,,
,,,,,2023-10-09_16h09.43.991,SlotMachine_updated,2023.1.3,MacIntel,60.06006006,,,,,,,,,,,,,,,218.3549,left,0.4018,,1.5,,stimuli/card_0_transparent.png,110,0,3,0,3,0,1,,,,,,,,,,,,,,,,,,,,,,,,,,,,,,,,,,,,,,,,,,,,,
,,,,,2023-10-09_16h09.43.991,SlotMachine_updated,2023.1.3,MacIntel,60.06006006,,,,,,,,,,,,,,,220.5682,right,0.5537,,1,,stimuli/card_10_transparent.png,120,10,4,0,4,0,1,,,,,,,,,,,,,,,,,,,,,,,,,,,,,,,,,,,,,,,,,,,,,
,,,,,2023-10-09_16h09.43.991,SlotMachine_updated,2023.1.3,MacIntel,60.06006006,,,,,,,,,,,,,,,222.4326,up,0.5339,,1,,stimuli/card_0_transparent.png,120,0,5,0,5,0,1,,,,,,,,,,,,,,,,,,,,,,,,,,,,,,,,,,,,,,,,,,,,,
,,,,,2023-10-09_16h09.43.991,SlotMachine_updated,2023.1.3,MacIntel,60.06006006,,,,,,,,,,,,,,,224.2809,left,0.404,,0.5,,stimuli/card_0_transparent.png,120,0,6,0,6,0,1,,,,,,,,,,,,,,,,,,,,,,,,,,,,,,,,,,,,,,,,,,,,,
,,,,,2023-10-09_16h09.43.991,SlotMachine_updated,2023.1.3,MacIntel,60.06006006,,,,,,,,,,,,,,,225.4992,left,0.3755,,0.5,,stimuli/card_0_transparent.png,120,0,7,0,7,0,1,,,,,,,,,,,,,,,,,,,,,,,,,,,,,,,,,,,,,,,,,,,,,
,,,,,2023-10-09_16h09.43.991,SlotMachine_updated,2023.1.3,MacIntel,60.06006006,,,,,,,,,,,,,,,226.6795,up,1.7502,,0.5,,stimuli/card_100_transparent.png,220,100,8,0,8,0,1,,,,,,,,,,,,,,,,,,,,,,,,,,,,,,,,,,,,,,,,,,,,,
,,,,,2023-10-09_16h09.43.991,SlotMachine_updated,2023.1.3,MacIntel,60.06006006,,,,,,,,,,,,,,,229.2443,up,0.2508,,1,,stimuli/card_100_transparent.png,320,100,9,0,9,0,1,,,,,,,,,,,,,,,,,,,,,,,,,,,,,,,,,,,,,,,,,,,,,
,,,,,2023-10-09_16h09.43.991,SlotMachine_updated,2023.1.3,MacIntel,60.06006006,,,,,,,,,,,,,,,230.8099,up,0.3432,,1,,stimuli/card_10_transparent.png,330,10,10,0,10,0,1,,,,,,,,,,,,,,,,,,,,,,,,,,,,,,,,,,,,,,,,,,,,,
,,,,,2023-10-09_16h09.43.991,SlotMachine_updated,2023.1.3,MacIntel,60.06006006,,,,,,,,,,,,,,,232.4735,up,0.3147,,0.5,,stimuli/card_100_transparent.png,430,100,11,0,11,0,1,,,,,,,,,,,,,,,,,,,,,,,,,,,,,,,,,,,,,,,,,,,,,
,,,,,2023-10-09_16h09.43.991,SlotMachine_updated,2023.1.3,MacIntel,60.06006006,,,,,,,,,,,,,,,233.607,up,0.2955,,0.5,,stimuli/card_100_transparent.png,530,100,12,0,12,0,1,,,,,,,,,,,,,,,,,,,,,,,,,,,,,,,,,,,,,,,,,,,,,
,,,,,2023-10-09_16h09.43.991,SlotMachine_updated,2023.1.3,MacIntel,60.06006006,,,,,,,,,,,,,,,234.722,up,0.3475,,1,,stimuli/card_100_transparent.png,630,100,13,0,13,0,1,,,,,,,,,,,,,,,,,,,,,,,,,,,,,,,,,,,,,,,,,,,,,
,,,,,2023-10-09_16h09.43.991,SlotMachine_updated,2023.1.3,MacIntel,60.06006006,,,,,,,,,,,,,,,236.3884,up,0.4145,,1.5,,stimuli/card_100_transparent.png,730,100,14,0,14,0,1,,,,,,,,,,,,,,,,,,,,,,,,,,,,,,,,,,,,,,,,,,,,,
,,,,,2023-10-09_16h09.43.991,SlotMachine_updated,2023.1.3,MacIntel,60.06006006,,,,,,,,,,,,,,,,,,,,,,,,,,,,,,238.6203,1,0,1,0,1,,,,,,,,,,,,,,,,,,,,,,,,,,,,,,,,,,,,,,
,,,,,2023-10-09_16h09.43.991,SlotMachine_updated,2023.1.3,MacIntel,60.06006006,,,,,,,,,,,,,,,,,,,,,,,,,,,,,,,,,,,,,,243.6142,space,6.8046,,,,,,,,,,,,,,,,,,,,,,,,,,,,,,,,,
,,,,,2023-10-09_16h09.43.991,SlotMachine_updated,2023.1.3,MacIntel,60.06006006,,,,,,,,,,,,,,,,,,,,,,,,,,,,,,,,,,,,,,,,,,250.4325,2,"[2,4,8,0,1,3,9,6,8,5]",250.4325,space,2.9157,,,,,,,,,,,,,,,,,,,,,,,,,,
,,,,,2023-10-09_16h09.43.991,SlotMachine_updated,2023.1.3,MacIntel,60.06006006,,,,,,,,,,,,,,,,,,,,,,,,,,,,,,,,,,,,,,,,,,,,,,,,,1,3,"[15,15]","[[3,1,2],[3,1,2]]",253.3717,left,1.0699,,0.5,0.3,"[3,1,2]",0.621092811,stimuli/card_0_transparent.png,0,0,0,0,0,0,1,,,,,
,,,,,2023-10-09_16h09.43.991,SlotMachine_updated,2023.1.3,MacIntel,60.06006006,,,,,,,,,,,,,,,,,,,,,,,,,,,,,,,,,,,,,,,,,,,,,,,,,,,,,255.2639,up,0.3417,,0.5,0.3,"[3,1,2]",0.220013706,stimuli/card_100_transparent.png,100,100,1,0,1,0,1,,,,,
,,,,,2023-10-09_16h09.43.991,SlotMachine_updated,2023.1.3,MacIntel,60.06006006,,,,,,,,,,,,,,,,,,,,,,,,,,,,,,,,,,,,,,,,,,,,,,,,,,,,,256.4131,up,0.2953,,1,0.3,"[3,1,2]",0.807475859,stimuli/card_100_transparent.png,200,100,2,0,2,0,1,,,,,
,,,,,2023-10-09_16h09.43.991,SlotMachine_updated,2023.1.3,MacIntel,60.06006006,,,,,,,,,,,,,,,,,,,,,,,,,,,,,,,,,,,,,,,,,,,,,,,,,,,,,258.0298,up,0.4855,,1,0.3,"[3,1,2]",0.980607661,stimuli/card_100_transparent.png,300,100,3,0,3,0,1,,,,,
,,,,,2023-10-09_16h09.43.991,SlotMachine_updated,2023.1.3,MacIntel,60.06006006,,,,,,,,,,,,,,,,,,,,,,,,,,,,,,,,,,,,,,,,,,,,,,,,,,,,,259.8265,right,0.0736,,1.5,0.3,"[3,1,2]",0.241843988,stimuli/card_10_transparent.png,310,10,4,0,4,0,1,,,,,
,,,,,2023-10-09_16h09.43.991,SlotMachine_updated,2023.1.3,MacIntel,60.06006006,,,,,,,,,,,,,,,,,,,,,,,,,,,,,,,,,,,,,,,,,,,,,,,,,,,,,261.7099,up,0.0079,,1,0.3,"[3,1,2]",0.135593945,stimuli/card_10_transparent.png,320,10,5,0,5,0,1,,,,,
,,,,,2023-10-09_16h09.43.991,SlotMachine_updated,2023.1.3,MacIntel,60.06006006,,,,,,,,,,,,,,,,,,,,,,,,,,,,,,,,,,,,,,,,,,,,,,,,,,,,,263.0409,up,0.0295,,0.5,0.3,"[3,1,2]",0.048722313,stimuli/card_0_transparent.png,320,0,6,0,6,0,1,,,,,
,,,,,2023-10-09_16h09.43.991,SlotMachine_updated,2023.1.3,MacIntel,60.06006006,,,,,,,,,,,,,,,,,,,,,,,,,,,,,,,,,,,,,,,,,,,,,,,,,,,,,263.8907,up,0.185,,1,0.3,"[3,1,2]",0.274660689,stimuli/card_100_transparent.png,420,100,7,0,7,0,1,,,,,
,,,,,2023-10-09_16h09.43.991,SlotMachine_updated,2023.1.3,MacIntel,60.06006006,,,,,,,,,,,,,,,,,,,,,,,,,,,,,,,,,,,,,,,,,,,,,,,,,,,,,265.3908,up,0.2725,,0.5,0.3,"[3,1,2]",0.325159353,stimuli/card_100_transparent.png,520,100,8,0,8,0,1,,,,,
,,,,,2023-10-09_16h09.43.991,SlotMachine_updated,2023.1.3,MacIntel,60.06006006,,,,,,,,,,,,,,,,,,,,,,,,,,,,,,,,,,,,,,,,,,,,,,,,,,,,,266.4724,up,0.2485,,0.5,0.3,"[3,1,2]",0.174256124,stimuli/card_10_transparent.png,530,10,9,0,9,0,1,,,,,
,,,,,2023-10-09_16h09.43.991,SlotMachine_updated,2023.1.3,MacIntel,60.06006006,,,,,,,,,,,,,,,,,,,,,,,,,,,,,,,,,,,,,,,,,,,,,,,,,,,,,267.5377,up,0.3407,,0.5,0.3,"[3,1,2]",0.669823731,stimuli/card_100_transparent.png,630,100,10,0,10,0,1,,,,,
,,,,,2023-10-09_16h09.43.991,SlotMachine_updated,2023.1.3,MacIntel,60.06006006,,,,,,,,,,,,,,,,,,,,,,,,,,,,,,,,,,,,,,,,,,,,,,,,,,,,,268.6871,up,0.2828,,1,0.3,"[3,1,2]",0.098205914,stimuli/card_0_transparent.png,630,0,11,0,11,0,1,,,,,
,,,,,2023-10-09_16h09.43.991,SlotMachine_updated,2023.1.3,MacIntel,60.06006006,,,,,,,,,,,,,,,,,,,,,,,,,,,,,,,,,,,,,,,,,,,,,,,,,,,,,270.2855,up,0.4194,,1,0.3,"[3,1,2]",0.388826018,stimuli/card_100_transparent.png,730,100,12,0,12,0,1,,,,,
,,,,,2023-10-09_16h09.43.991,SlotMachine_updated,2023.1.3,MacIntel,60.06006006,,,,,,,,,,,,,,,,,,,,,,,,,,,,,,,,,,,,,,,,,,,,,,,,,,,,,272.0166,up,0.3686,,1.5,0.3,"[3,1,2]",0.603625202,stimuli/card_100_transparent.png,830,100,13,0,13,0,1,,,,,
,,,,,2023-10-09_16h09.43.991,SlotMachine_updated,2023.1.3,MacIntel,60.06006006,,,,,,,,,,,,,,,,,,,,,,,,,,,,,,,,,,,,,,,,,,,,,,,,,,,,,274.1985,up,0.3133,,0.5,0.3,"[3,1,2]",0.846064728,stimuli/card_100_transparent.png,930,100,14,0,14,0,1,,,,,
,,,,,2023-10-09_16h09.43.991,SlotMachine_updated,2023.1.3,MacIntel,60.06006006,,,,,,,,,,,,,,,,,,,,,,,,,,,,,,275.3315,,,,,,,,,,,,,,,,,,,,,,,,,,,,,,,,,,,,,,,0,0,0,0,1
,,,,,2023-10-09_16h09.43.991,SlotMachine_updated,2023.1.3,MacIntel,60.06006006,,,,,,,,,,,,,,,,,,,,,,,,,,,,,,,,,,,,,,,,,,,,,,,,,2,5,"[5,15]","[[1,2,3],[3,1,2]]",280.3322,right,0.4911,,1.5,0.3,"[1,2,3]",0.004261383,stimuli/card_100_transparent.png,100,100,0,0,0,0,1,,,,,
,,,,,2023-10-09_16h09.43.991,SlotMachine_updated,2023.1.3,MacIntel,60.06006006,,,,,,,,,,,,,,,,,,,,,,,,,,,,,,,,,,,,,,,,,,,,,,,,,,,,,282.6439,right,0.3509,,0.5,0.3,"[1,2,3]",0.936051205,stimuli/card_0_transparent.png,100,0,1,0,1,0,1,,,,,
,,,,,2023-10-09_16h09.43.991,SlotMachine_updated,2023.1.3,MacIntel,60.06006006,,,,,,,,,,,,,,,,,,,,,,,,,,,,,,,,,,,,,,,,,,,,,,,,,,,,,283.8085,right,0.1507,,1,0.3,"[1,2,3]",0.38299595,stimuli/card_0_transparent.png,100,0,2,0,2,0,1,,,,,
,,,,,2023-10-09_16h09.43.991,SlotMachine_updated,2023.1.3,MacIntel,60.06006006,,,,,,,,,,,,,,,,,,,,,,,,,,,,,,,,,,,,,,,,,,,,,,,,,,,,,285.2621,left,0.4091,,1.5,0.3,"[1,2,3]",0.869364501,stimuli/card_100_transparent.png,200,100,3,0,3,0,1,,,,,
,,,,,2023-10-09_16h09.43.991,SlotMachine_updated,2023.1.3,MacIntel,60.06006006,,,,,,,,,,,,,,,,,,,,,,,,,,,,,,,,,,,,,,,,,,,,,,,,,,,,,287.4757,left,0.128,,0.5,0.3,"[1,2,3]",0.757367766,stimuli/card_100_transparent.png,300,100,4,0,4,0,1,,,,,
,,,,,2023-10-09_16h09.43.991,SlotMachine_updated,2023.1.3,MacIntel,60.06006006,,,,,,,,,,,,,,,,,,,,,,,,,,,,,,,,,,,,,,,,,,,,,,,,,,,,,288.4245,left,0.2058,,1.5,0.3,"[3,1,2]",0.204792626,stimuli/card_0_transparent.png,300,0,5,0,5,0,1,,,,,
,,,,,2023-10-09_16h09.43.991,SlotMachine_updated,2023.1.3,MacIntel,60.06006006,,,,,,,,,,,,,,,,,,,,,,,,,,,,,,,,,,,,,,,,,,,,,,,,,,,,,290.4376,left,0.0398,,1,0.3,"[3,1,2]",0.05515793,stimuli/card_100_transparent.png,400,100,6,0,6,0,1,,,,,
,,,,,2023-10-09_16h09.43.991,SlotMachine_updated,2023.1.3,MacIntel,60.06006006,,,,,,,,,,,,,,,,,,,,,,,,,,,,,,,,,,,,,,,,,,,,,,,,,,,,,291.7868,left,0.2653,,1.5,0.3,"[3,1,2]",0.297653498,stimuli/card_0_transparent.png,400,0,7,0,7,0,1,,,,,
,,,,,2023-10-09_16h09.43.991,SlotMachine_updated,2023.1.3,MacIntel,60.06006006,,,,,,,,,,,,,,,,,,,,,,,,,,,,,,,,,,,,,,,,,,,,,,,,,,,,,293.8675,left,0.0882,,0.5,0.3,"[3,1,2]",0.956224048,stimuli/card_0_transparent.png,400,0,8,0,8,0,1,,,,,
,,,,,2023-10-09_16h09.43.991,SlotMachine_updated,2023.1.3,MacIntel,60.06006006,,,,,,,,,,,,,,,,,,,,,,,,,,,,,,,,,,,,,,,,,,,,,,,,,,,,,294.7669,up,0.1727,,1,0.3,"[3,1,2]",0.073617608,stimuli/card_0_transparent.png,400,0,9,0,9,0,1,,,,,
,,,,,2023-10-09_16h09.43.991,SlotMachine_updated,2023.1.3,MacIntel,60.06006006,,,,,,,,,,,,,,,,,,,,,,,,,,,,,,,,,,,,,,,,,,,,,,,,,,,,,296.2545,up,0.0821,,1,0.3,"[3,1,2]",0.60432984,stimuli/card_100_transparent.png,500,100,10,0,10,0,1,,,,,
,,,,,2023-10-09_16h09.43.991,SlotMachine_updated,2023.1.3,MacIntel,60.06006006,,,,,,,,,,,,,,,,,,,,,,,,,,,,,,,,,,,,,,,,,,,,,,,,,,,,,297.6528,up,0.0792,,1,0.3,"[3,1,2]",0.619928169,stimuli/card_100_transparent.png,600,100,11,0,11,0,1,,,,,
,,,,,2023-10-09_16h09.43.991,SlotMachine_updated,2023.1.3,MacIntel,60.06006006,,,,,,,,,,,,,,,,,,,,,,,,,,,,,,,,,,,,,,,,,,,,,,,,,,,,,299.0522,up,0.7136,,1,0.3,"[3,1,2]",0.272019949,stimuli/card_100_transparent.png,700,100,12,0,12,0,1,,,,,
,,,,,2023-10-09_16h09.43.991,SlotMachine_updated,2023.1.3,MacIntel,60.06006006,,,,,,,,,,,,,,,,,,,,,,,,,,,,,,,,,,,,,,,,,,,,,,,,,,,,,301.0838,up,0.1164,,0.5,0.3,"[3,1,2]",0.033818889,stimuli/card_0_transparent.png,700,0,13,0,13,0,1,,,,,
,,,,,2023-10-09_16h09.43.991,SlotMachine_updated,2023.1.3,MacIntel,60.06006006,,,,,,,,,,,,,,,,,,,,,,,,,,,,,,,,,,,,,,,,,,,,,,,,,,,,,302.0149,up,0.1174,,0.5,0.3,"[3,1,2]",0.744325039,stimuli/card_100_transparent.png,800,100,14,0,14,0,1,,,,,
,,,,,2023-10-09_16h09.43.991,SlotMachine_updated,2023.1.3,MacIntel,60.06006006,,,,,,,,,,,,,,,,,,,,,,,,,,,,,,302.9479,,,,,,,,,,,,,,,,,,,,,,,,,,,,,,,,,,,,,,,1,0,1,0,1
,,,,,2023-10-09_16h09.43.991,SlotMachine_updated,2023.1.3,MacIntel,60.06006006,,,,,,,,,,,,,,,,,,,,,,,,,,,,,,,,,,,,,,,,,,,,,,,,,3,9,"[8,15]","[[3,2,1],[3,1,2]]",307.9458,left,0.567,,0.5,0.3,"[3,2,1]",0.085154261,stimuli/card_100_transparent.png,100,100,0,0,0,0,1,,,,,
,,,,,2023-10-09_16h09.43.991,SlotMachine_updated,2023.1.3,MacIntel,60.06006006,,,,,,,,,,,,,,,,,,,,,,,,,,,,,,,,,,,,,,,,,,,,,,,,,,,,,309.3251,up,0.8108,,0.5,0.3,"[3,2,1]",0.901064619,stimuli/card_10_transparent.png,110,10,1,0,1,0,1,,,,,
,,,,,2023-10-09_16h09.43.991,SlotMachine_updated,2023.1.3,MacIntel,60.06006006,,,,,,,,,,,,,,,,,,,,,,,,,,,,,,,,,,,,,,,,,,,,,,,,,,,,,310.9576,right,0.384,,1,0.3,"[3,2,1]",0.667473048,stimuli/card_100_transparent.png,210,100,2,0,2,0,1,,,,,
,,,,,2023-10-09_16h09.43.991,SlotMachine_updated,2023.1.3,MacIntel,60.06006006,,,,,,,,,,,,,,,,,,,,,,,,,,,,,,,,,,,,,,,,,,,,,,,,,,,,,312.6554,right,0.2633,,1,0.3,"[3,2,1]",0.341585242,stimuli/card_100_transparent.png,310,100,3,0,3,0,1,,,,,
,,,,,2023-10-09_16h09.43.991,SlotMachine_updated,2023.1.3,MacIntel,60.06006006,,,,,,,,,,,,,,,,,,,,,,,,,,,,,,,,,,,,,,,,,,,,,,,,,,,,,314.2368,right,0.3306,,0.5,0.3,"[3,2,1]",0.661046022,stimuli/card_100_transparent.png,410,100,4,0,4,0,1,,,,,
,,,,,2023-10-09_16h09.43.991,SlotMachine_updated,2023.1.3,MacIntel,60.06006006,,,,,,,,,,,,,,,,,,,,,,,,,,,,,,,,,,,,,,,,,,,,,,,,,,,,,315.3894,right,0.5144,,0.5,0.3,"[3,2,1]",0.733086723,stimuli/card_100_transparent.png,510,100,5,0,5,0,1,,,,,
,,,,,2023-10-09_16h09.43.991,SlotMachine_updated,2023.1.3,MacIntel,60.06006006,,,,,,,,,,,,,,,,,,,,,,,,,,,,,,,,,,,,,,,,,,,,,,,,,,,,,316.7195,right,0.2653,,1,0.3,"[3,2,1]",0.783282032,stimuli/card_100_transparent.png,610,100,6,0,6,0,1,,,,,
,,,,,2023-10-09_16h09.43.991,SlotMachine_updated,2023.1.3,MacIntel,60.06006006,,,,,,,,,,,,,,,,,,,,,,,,,,,,,,,,,,,,,,,,,,,,,,,,,,,,,318.3011,right,0.2345,,0.5,0.3,"[3,2,1]",0.721686507,stimuli/card_100_transparent.png,710,100,7,0,7,0,1,,,,,
,,,,,2023-10-09_16h09.43.991,SlotMachine_updated,2023.1.3,MacIntel,60.06006006,,,,,,,,,,,,,,,,,,,,,,,,,,,,,,,,,,,,,,,,,,,,,,,,,,,,,319.3498,right,1.1473,,1,0.3,"[3,1,2]",0.752544782,stimuli/card_10_transparent.png,720,10,8,0,8,0,1,,,,,
,,,,,2023-10-09_16h09.43.991,SlotMachine_updated,2023.1.3,MacIntel,60.06006006,,,,,,,,,,,,,,,,,,,,,,,,,,,,,,,,,,,,,,,,,,,,,,,,,,,,,321.8165,left,0.4505,,0.5,0.3,"[3,1,2]",0.047689293,stimuli/card_100_transparent.png,820,100,9,0,9,0,1,,,,,
,,,,,2023-10-09_16h09.43.991,SlotMachine_updated,2023.1.3,MacIntel,60.06006006,,,,,,,,,,,,,,,,,,,,,,,,,,,,,,,,,,,,,,,,,,,,,,,,,,,,,323.0813,left,0.2696,,1.5,0.3,"[3,1,2]",0.4422614,stimuli/card_0_transparent.png,820,0,10,0,10,0,1,,,,,
,,,,,2023-10-09_16h09.43.991,SlotMachine_updated,2023.1.3,MacIntel,60.06006006,,,,,,,,,,,,,,,,,,,,,,,,,,,,,,,,,,,,,,,,,,,,,,,,,,,,,325.1819,up,0.7656,,0.5,0.3,"[3,1,2]",0.530366295,stimuli/card_100_transparent.png,920,100,11,0,11,0,1,,,,,
,,,,,2023-10-09_16h09.43.991,SlotMachine_updated,2023.1.3,MacIntel,60.06006006,,,,,,,,,,,,,,,,,,,,,,,,,,,,,,,,,,,,,,,,,,,,,,,,,,,,,326.7623,up,0.2698,,1,0.3,"[3,1,2]",0.615494549,stimuli/card_100_transparent.png,1020,100,12,0,12,0,1,,,,,
,,,,,2023-10-09_16h09.43.991,SlotMachine_updated,2023.1.3,MacIntel,60.06006006,,,,,,,,,,,,,,,,,,,,,,,,,,,,,,,,,,,,,,,,,,,,,,,,,,,,,328.3461,up,0.2999,,1,0.3,"[3,1,2]",0.828647587,stimuli/card_100_transparent.png,1120,100,13,0,13,0,1,,,,,
,,,,,2023-10-09_16h09.43.991,SlotMachine_updated,2023.1.3,MacIntel,60.06006006,,,,,,,,,,,,,,,,,,,,,,,,,,,,,,,,,,,,,,,,,,,,,,,,,,,,,329.96,up,0.3903,,0.5,0.3,"[3,1,2]",0.937153604,stimuli/card_100_transparent.png,1220,100,14,0,14,0,1,,,,,
,,,,,2023-10-09_16h09.43.991,SlotMachine_updated,2023.1.3,MacIntel,60.06006006,,,,,,,,,,,,,,,,,,,,,,,,,,,,,,331.1572,,,,,,,,,,,,,,,,,,,,,,,,,,,,,,,,,,,,,,,2,0,2,0,1
,,,,,2023-10-09_16h09.43.991,SlotMachine_updated,2023.1.3,MacIntel,60.06006006,,,,,,,,,,,,,,,,,,,,,,,,,,,,,,,,,,,,,,,,,,,,,,,,,4,1,"[12,15]","[[2,1,3],[2,3,1]]",336.1592,left,0.6749,,1.5,0.3,"[2,1,3]",0.367553985,stimuli/card_10_transparent.png,10,10,0,0,0,0,1,,,,,
,,,,,2023-10-09_16h09.43.991,SlotMachine_updated,2023.1.3,MacIntel,60.06006006,,,,,,,,,,,,,,,,,,,,,,,,,,,,,,,,,,,,,,,,,,,,,,,,,,,,,338.6527,up,0.4055,,1,0.3,"[2,1,3]",0.179654618,stimuli/card_10_transparent.png,20,10,1,0,1,0,1,,,,,
,,,,,2023-10-09_16h09.43.991,SlotMachine_updated,2023.1.3,MacIntel,60.06006006,,,,,,,,,,,,,,,,,,,,,,,,,,,,,,,,,,,,,,,,,,,,,,,,,,,,,340.367,right,0.7843,,1.5,0.3,"[2,1,3]",0.246002191,stimuli/card_0_transparent.png,20,0,2,0,2,0,1,,,,,
,,,,,2023-10-09_16h09.43.991,SlotMachine_updated,2023.1.3,MacIntel,60.06006006,,,,,,,,,,,,,,,,,,,,,,,,,,,,,,,,,,,,,,,,,,,,,,,,,,,,,342.9658,up,0.3222,,1,0.3,"[2,1,3]",0.650370483,stimuli/card_100_transparent.png,120,100,3,0,3,0,1,,,,,
,,,,,2023-10-09_16h09.43.991,SlotMachine_updated,2023.1.3,MacIntel,60.06006006,,,,,,,,,,,,,,,,,,,,,,,,,,,,,,,,,,,,,,,,,,,,,,,,,,,,,344.5955,up,0.4515,,1,0.3,"[2,1,3]",0.435550282,stimuli/card_100_transparent.png,220,100,4,0,4,0,1,,,,,
,,,,,2023-10-09_16h09.43.991,SlotMachine_updated,2023.1.3,MacIntel,60.06006006,,,,,,,,,,,,,,,,,,,,,,,,,,,,,,,,,,,,,,,,,,,,,,,,,,,,,346.3648,up,0.3193,,1,0.3,"[2,1,3]",0.824342159,stimuli/card_100_transparent.png,320,100,5,0,5,0,1,,,,,
,,,,,2023-10-09_16h09.43.991,SlotMachine_updated,2023.1.3,MacIntel,60.06006006,,,,,,,,,,,,,,,,,,,,,,,,,,,,,,,,,,,,,,,,,,,,,,,,,,,,,347.9965,up,0.4149,,1,0.3,"[2,1,3]",0.136070897,stimuli/card_10_transparent.png,330,10,6,0,6,0,1,,,,,
,,,,,2023-10-09_16h09.43.991,SlotMachine_updated,2023.1.3,MacIntel,60.06006006,,,,,,,,,,,,,,,,,,,,,,,,,,,,,,,,,,,,,,,,,,,,,,,,,,,,,349.7271,left,0.5115,,1,0.3,"[2,1,3]",0.143894369,stimuli/card_100_transparent.png,430,100,7,0,7,0,1,,,,,
,,,,,2023-10-09_16h09.43.991,SlotMachine_updated,2023.1.3,MacIntel,60.06006006,,,,,,,,,,,,,,,,,,,,,,,,,,,,,,,,,,,,,,,,,,,,,,,,,,,,,351.5602,left,0.4363,,1.5,0.3,"[2,1,3]",0.553176679,stimuli/card_10_transparent.png,440,10,8,0,8,0,1,,,,,
,,,,,2023-10-09_16h09.43.991,SlotMachine_updated,2023.1.3,MacIntel,60.06006006,,,,,,,,,,,,,,,,,,,,,,,,,,,,,,,,,,,,,,,,,,,,,,,,,,,,,353.8066,right,0.4146,,1,0.3,"[2,1,3]",0.363892276,stimuli/card_0_transparent.png,440,0,9,0,9,0,1,,,,,
,,,,,2023-10-09_16h09.43.991,SlotMachine_updated,2023.1.3,MacIntel,60.06006006,,,,,,,,,,,,,,,,,,,,,,,,,,,,,,,,,,,,,,,,,,,,,,,,,,,,,355.5383,up,0.454,,1.5,0.3,"[2,1,3]",0.244720548,stimuli/card_100_transparent.png,540,100,10,0,10,0,1,,,,,
,,,,,2023-10-09_16h09.43.991,SlotMachine_updated,2023.1.3,MacIntel,60.06006006,,,,,,,,,,,,,,,,,,,,,,,,,,,,,,,,,,,,,,,,,,,,,,,,,,,,,357.8037,up,0.3803,,1,0.3,"[2,1,3]",0.854205078,stimuli/card_100_transparent.png,640,100,11,0,11,0,1,,,,,
,,,,,2023-10-09_16h09.43.991,SlotMachine_updated,2023.1.3,MacIntel,60.06006006,,,,,,,,,,,,,,,,,,,,,,,,,,,,,,,,,,,,,,,,,,,,,,,,,,,,,359.5024,up,0.6288,,0.5,0.3,"[2,3,1]",0.009121034,stimuli/card_100_transparent.png,740,100,12,0,12,0,1,,,,,
,,,,,2023-10-09_16h09.43.991,SlotMachine_updated,2023.1.3,MacIntel,60.06006006,,,,,,,,,,,,,,,,,,,,,,,,,,,,,,,,,,,,,,,,,,,,,,,,,,,,,360.9519,up,0.6841,,0.5,0.3,"[2,3,1]",0.486631214,stimuli/card_0_transparent.png,740,0,13,0,13,0,1,,,,,
,,,,,2023-10-09_16h09.43.991,SlotMachine_updated,2023.1.3,MacIntel,60.06006006,,,,,,,,,,,,,,,,,,,,,,,,,,,,,,,,,,,,,,,,,,,,,,,,,,,,,362.4155,left,1.0182,,1.5,0.3,"[2,3,1]",0.493286096,stimuli/card_10_transparent.png,750,10,14,0,14,0,1,,,,,
,,,,,2023-10-09_16h09.43.991,SlotMachine_updated,2023.1.3,MacIntel,60.06006006,,,,,,,,,,,,,,,,,,,,,,,,,,,,,,365.2469,,,,,,,,,,,,,,,,,,,,,,,,,,,,,,,,,,,,,,,3,0,3,0,1
,,,,,2023-10-09_16h09.43.991,SlotMachine_updated,2023.1.3,MacIntel,60.06006006,,,,,,,,,,,,,,,,,,,,,,,,,,,,,,,,,,,,,,,,,,,,,,,,,5,2,"[6,15]","[[1,3,2],[3,2,1]]",370.2465,right,0.6019,,1.5,0.3,"[1,3,2]",0.118799432,stimuli/card_100_transparent.png,100,100,0,0,0,0,1,,,,,
,,,,,2023-10-09_16h09.43.991,SlotMachine_updated,2023.1.3,MacIntel,60.06006006,,,,,,,,,,,,,,,,,,,,,,,,,,,,,,,,,,,,,,,,,,,,,,,,,,,,,372.6568,right,0.445,,0.5,0.3,"[1,3,2]",0.576183402,stimuli/card_10_transparent.png,110,10,1,0,1,0,1,,,,,
,,,,,2023-10-09_16h09.43.991,SlotMachine_updated,2023.1.3,MacIntel,60.06006006,,,,,,,,,,,,,,,,,,,,,,,,,,,,,,,,,,,,,,,,,,,,,,,,,,,,,373.9241,up,0.4466,,1.5,0.3,"[1,3,2]",0.275250213,stimuli/card_0_transparent.png,110,0,2,0,2,0,1,,,,,
,,,,,2023-10-09_16h09.43.991,SlotMachine_updated,2023.1.3,MacIntel,60.06006006,,,,,,,,,,,,,,,,,,,,,,,,,,,,,,,,,,,,,,,,,,,,,,,,,,,,,376.1906,left,0.2804,,0.5,0.3,"[1,3,2]",0.431315332,stimuli/card_100_transparent.png,210,100,3,0,3,0,1,,,,,
,,,,,2023-10-09_16h09.43.991,SlotMachine_updated,2023.1.3,MacIntel,60.06006006,,,,,,,,,,,,,,,,,,,,,,,,,,,,,,,,,,,,,,,,,,,,,,,,,,,,,377.2879,left,0.3608,,1,0.3,"[1,3,2]",0.528303218,stimuli/card_100_transparent.png,310,100,4,0,4,0,1,,,,,
,,,,,2023-10-09_16h09.43.991,SlotMachine_updated,2023.1.3,MacIntel,60.06006006,,,,,,,,,,,,,,,,,,,,,,,,,,,,,,,,,,,,,,,,,,,,,,,,,,,,,378.9695,left,0.4356,,1,0.3,"[1,3,2]",0.650657078,stimuli/card_100_transparent.png,410,100,5,0,5,0,1,,,,,
,,,,,2023-10-09_16h09.43.991,SlotMachine_updated,2023.1.3,MacIntel,60.06006006,,,,,,,,,,,,,,,,,,,,,,,,,,,,,,,,,,,,,,,,,,,,,,,,,,,,,380.7188,left,0.3782,,1.5,0.3,"[3,2,1]",0.133160284,stimuli/card_10_transparent.png,420,10,6,0,6,0,1,,,,,
,,,,,2023-10-09_16h09.43.991,SlotMachine_updated,2023.1.3,MacIntel,60.06006006,,,,,,,,,,,,,,,,,,,,,,,,,,,,,,,,,,,,,,,,,,,,,,,,,,,,,382.9162,up,0.3183,,1,0.3,"[3,2,1]",0.371548911,stimuli/card_10_transparent.png,430,10,7,0,7,0,1,,,,,
,,,,,2023-10-09_16h09.43.991,SlotMachine_updated,2023.1.3,MacIntel,60.06006006,,,,,,,,,,,,,,,,,,,,,,,,,,,,,,,,,,,,,,,,,,,,,,,,,,,,,384.549,right,0.2286,,1.5,0.3,"[3,2,1]",0.256392342,stimuli/card_100_transparent.png,530,100,8,0,8,0,1,,,,,
,,,,,2023-10-09_16h09.43.991,SlotMachine_updated,2023.1.3,MacIntel,60.06006006,,,,,,,,,,,,,,,,,,,,,,,,,,,,,,,,,,,,,,,,,,,,,,,,,,,,,386.6441,right,0.3434,,1,0.3,"[3,2,1]",0.838158143,stimuli/card_100_transparent.png,630,100,9,0,9,0,1,,,,,
,,,,,2023-10-09_16h09.43.991,SlotMachine_updated,2023.1.3,MacIntel,60.06006006,,,,,,,,,,,,,,,,,,,,,,,,,,,,,,,,,,,,,,,,,,,,,,,,,,,,,388.2975,right,0.4515,,1,0.3,"[3,2,1]",0.998457638,stimuli/card_100_transparent.png,730,100,10,0,10,0,1,,,,,
,,,,,2023-10-09_16h09.43.991,SlotMachine_updated,2023.1.3,MacIntel,60.06006006,,,,,,,,,,,,,,,,,,,,,,,,,,,,,,,,,,,,,,,,,,,,,,,,,,,,,390.0629,right,0.8424,,1,0.3,"[3,2,1]",0.932349528,stimuli/card_100_transparent.png,830,100,11,0,11,0,1,,,,,
,,,,,2023-10-09_16h09.43.991,SlotMachine_updated,2023.1.3,MacIntel,60.06006006,,,,,,,,,,,,,,,,,,,,,,,,,,,,,,,,,,,,,,,,,,,,,,,,,,,,,392.2256,right,0.5888,,1,0.3,"[3,2,1]",0.156836897,stimuli/card_10_transparent.png,840,10,12,0,12,0,1,,,,,
,,,,,2023-10-09_16h09.43.991,SlotMachine_updated,2023.1.3,MacIntel,60.06006006,,,,,,,,,,,,,,,,,,,,,,,,,,,,,,,,,,,,,,,,,,,,,,,,,,,,,394.1248,up,0.3207,,1.5,0.3,"[3,2,1]",0.770532742,stimuli/card_10_transparent.png,850,10,13,0,13,0,1,,,,,
,,,,,2023-10-09_16h09.43.991,SlotMachine_updated,2023.1.3,MacIntel,60.06006006,,,,,,,,,,,,,,,,,,,,,,,,,,,,,,,,,,,,,,,,,,,,,,,,,,,,,396.259,left,0.179,,0.5,0.3,"[3,2,1]",0.976514603,stimuli/card_0_transparent.png,850,0,14,0,14,0,1,,,,,
,,,,,2023-10-09_16h09.43.991,SlotMachine_updated,2023.1.3,MacIntel,60.06006006,,,,,,,,,,,,,,,,,,,,,,,,,,,,,,397.2581,,,,,,,,,,,,,,,,,,,,,,,,,,,,,,,,,,,,,,,4,0,4,0,1
,,,,,2023-10-09_16h09.43.991,SlotMachine_updated,2023.1.3,MacIntel,60.06006006,,,,,,,,,,,,,,,,,,,,,,,,,,,,,,,,,,,,,,,,,,,,,,,,,6,4,"[7,15]","[[2,3,1],[1,2,3]]",402.2548,up,0.7589,,0.5,0.3,"[2,3,1]",0.06886289,stimuli/card_100_transparent.png,100,100,0,0,0,0,1,,,,,
,,,,,2023-10-09_16h09.43.991,SlotMachine_updated,2023.1.3,MacIntel,60.06006006,,,,,,,,,,,,,,,,,,,,,,,,,,,,,,,,,,,,,,,,,,,,,,,,,,,,,403.8347,up,0.3827,,1,0.3,"[2,3,1]",0.926642609,stimuli/card_0_transparent.png,100,0,1,0,1,0,1,,,,,
,,,,,2023-10-09_16h09.43.991,SlotMachine_updated,2023.1.3,MacIntel,60.06006006,,,,,,,,,,,,,,,,,,,,,,,,,,,,,,,,,,,,,,,,,,,,,,,,,,,,,405.5246,right,0.499,,1,0.3,"[2,3,1]",0.798389228,stimuli/card_100_transparent.png,200,100,2,0,2,0,1,,,,,
,,,,,2023-10-09_16h09.43.991,SlotMachine_updated,2023.1.3,MacIntel,60.06006006,,,,,,,,,,,,,,,,,,,,,,,,,,,,,,,,,,,,,,,,,,,,,,,,,,,,,407.3387,right,0.2669,,0.5,0.3,"[2,3,1]",0.985637669,stimuli/card_100_transparent.png,300,100,3,0,3,0,1,,,,,
,,,,,2023-10-09_16h09.43.991,SlotMachine_updated,2023.1.3,MacIntel,60.06006006,,,,,,,,,,,,,,,,,,,,,,,,,,,,,,,,,,,,,,,,,,,,,,,,,,,,,408.4215,right,0.5295,,0.5,0.3,"[2,3,1]",0.371807047,stimuli/card_100_transparent.png,400,100,4,0,4,0,1,,,,,
,,,,,2023-10-09_16h09.43.991,SlotMachine_updated,2023.1.3,MacIntel,60.06006006,,,,,,,,,,,,,,,,,,,,,,,,,,,,,,,,,,,,,,,,,,,,,,,,,,,,,409.7674,right,0.3337,,0.5,0.3,"[2,3,1]",0.120784671,stimuli/card_10_transparent.png,410,10,5,0,5,0,1,,,,,
,,,,,2023-10-09_16h09.43.991,SlotMachine_updated,2023.1.3,MacIntel,60.06006006,,,,,,,,,,,,,,,,,,,,,,,,,,,,,,,,,,,,,,,,,,,,,,,,,,,,,410.9198,right,0.4621,,1,0.3,"[2,3,1]",0.394234077,stimuli/card_100_transparent.png,510,100,6,0,6,0,1,,,,,
,,,,,2023-10-09_16h09.43.991,SlotMachine_updated,2023.1.3,MacIntel,60.06006006,,,,,,,,,,,,,,,,,,,,,,,,,,,,,,,,,,,,,,,,,,,,,,,,,,,,,412.7005,up,0.0631,,1,0.3,"[1,2,3]",0.460105239,stimuli/card_10_transparent.png,520,10,7,0,7,0,1,,,,,
,,,,,2023-10-09_16h09.43.991,SlotMachine_updated,2023.1.3,MacIntel,60.06006006,,,,,,,,,,,,,,,,,,,,,,,,,,,,,,,,,,,,,,,,,,,,,,,,,,,,,414.082,right,0.0015,,0.5,0.3,"[1,2,3]",0.876319631,stimuli/card_0_transparent.png,520,0,8,0,8,0,1,,,,,
,,,,,2023-10-09_16h09.43.991,SlotMachine_updated,2023.1.3,MacIntel,60.06006006,,,,,,,,,,,,,,,,,,,,,,,,,,,,,,,,,,,,,,,,,,,,,,,,,,,,,414.899,right,0.1553,,1,0.3,"[1,2,3]",0.065197293,stimuli/card_100_transparent.png,620,100,9,0,9,0,1,,,,,
,,,,,2023-10-09_16h09.43.991,SlotMachine_updated,2023.1.3,MacIntel,60.06006006,,,,,,,,,,,,,,,,,,,,,,,,,,,,,,,,,,,,,,,,,,,,,,,,,,,,,416.3494,right,0.3486,,1.5,0.3,"[1,2,3]",0.071945882,stimuli/card_100_transparent.png,720,100,10,0,10,0,1,,,,,
,,,,,2023-10-09_16h09.43.991,SlotMachine_updated,2023.1.3,MacIntel,60.06006006,,,,,,,,,,,,,,,,,,,,,,,,,,,,,,,,,,,,,,,,,,,,,,,,,,,,,418.5128,right,0.2206,,1.5,0.3,"[1,2,3]",0.464795309,stimuli/card_0_transparent.png,720,0,11,0,11,0,1,,,,,
,,,,,2023-10-09_16h09.43.991,SlotMachine_updated,2023.1.3,MacIntel,60.06006006,,,,,,,,,,,,,,,,,,,,,,,,,,,,,,,,,,,,,,,,,,,,,,,,,,,,,420.5449,left,0.4488,,1,0.3,"[1,2,3]",0.620192813,stimuli/card_100_transparent.png,820,100,12,0,12,0,1,,,,,
,,,,,2023-10-09_16h09.43.991,SlotMachine_updated,2023.1.3,MacIntel,60.06006006,,,,,,,,,,,,,,,,,,,,,,,,,,,,,,,,,,,,,,,,,,,,,,,,,,,,,422.3091,left,0.3907,,1.5,0.3,"[1,2,3]",0.527918203,stimuli/card_100_transparent.png,920,100,13,0,13,0,1,,,,,
,,,,,2023-10-09_16h09.43.991,SlotMachine_updated,2023.1.3,MacIntel,60.06006006,,,,,,,,,,,,,,,,,,,,,,,,,,,,,,,,,,,,,,,,,,,,,,,,,,,,,424.5075,left,0.3722,,1,0.3,"[1,2,3]",0.463946177,stimuli/card_100_transparent.png,1020,100,14,0,14,0,1,,,,,
,,,,,2023-10-09_16h09.43.991,SlotMachine_updated,2023.1.3,MacIntel,60.06006006,,,,,,,,,,,,,,,,,,,,,,,,,,,,,,426.1917,,,,,,,,,,,,,,,,,,,,,,,,,,,,,,,,,,,,,,,5,0,5,0,1
,,,,,2023-10-09_16h09.43.991,SlotMachine_updated,2023.1.3,MacIntel,60.06006006,,,,,,,,,,,,,,,,,,,,,,,,,,,,,,,,,,,,,,,,,,,,,,,,,7,10,"[10,15]","[[3,1,2],[1,3,2]]",431.1896,left,0.5518,,1,0.3,"[3,1,2]",0.887416946,stimuli/card_0_transparent.png,0,0,0,0,0,0,1,,,,,
,,,,,2023-10-09_16h09.43.991,SlotMachine_updated,2023.1.3,MacIntel,60.06006006,,,,,,,,,,,,,,,,,,,,,,,,,,,,,,,,,,,,,,,,,,,,,,,,,,,,,433.052,up,0.2149,,0.5,0.3,"[3,1,2]",0.157882195,stimuli/card_10_transparent.png,10,10,1,0,1,0,1,,,,,
,,,,,2023-10-09_16h09.43.991,SlotMachine_updated,2023.1.3,MacIntel,60.06006006,,,,,,,,,,,,,,,,,,,,,,,,,,,,,,,,,,,,,,,,,,,,,,,,,,,,,434.084,right,0.3317,,1,0.3,"[3,1,2]",0.913146331,stimuli/card_10_transparent.png,20,10,2,0,2,0,1,,,,,
,,,,,2023-10-09_16h09.43.991,SlotMachine_updated,2023.1.3,MacIntel,60.06006006,,,,,,,,,,,,,,,,,,,,,,,,,,,,,,,,,,,,,,,,,,,,,,,,,,,,,435.7245,up,0.5739,,1,0.3,"[3,1,2]",0.362559814,stimuli/card_100_transparent.png,120,100,3,0,3,0,1,,,,,
,,,,,2023-10-09_16h09.43.991,SlotMachine_updated,2023.1.3,MacIntel,60.06006006,,,,,,,,,,,,,,,,,,,,,,,,,,,,,,,,,,,,,,,,,,,,,,,,,,,,,437.6199,up,0.3977,,1.5,0.3,"[3,1,2]",0.521007951,stimuli/card_100_transparent.png,220,100,4,0,4,0,1,,,,,
,,,,,2023-10-09_16h09.43.991,SlotMachine_updated,2023.1.3,MacIntel,60.06006006,,,,,,,,,,,,,,,,,,,,,,,,,,,,,,,,,,,,,,,,,,,,,,,,,,,,,439.8348,up,0.0479,,1,0.3,"[3,1,2]",0.920574798,stimuli/card_100_transparent.png,320,100,5,0,5,0,1,,,,,
,,,,,2023-10-09_16h09.43.991,SlotMachine_updated,2023.1.3,MacIntel,60.06006006,,,,,,,,,,,,,,,,,,,,,,,,,,,,,,,,,,,,,,,,,,,,,,,,,,,,,441.1998,up,0.1208,,0.5,0.3,"[3,1,2]",0.470275344,stimuli/card_100_transparent.png,420,100,6,0,6,0,1,,,,,
,,,,,2023-10-09_16h09.43.991,SlotMachine_updated,2023.1.3,MacIntel,60.06006006,,,,,,,,,,,,,,,,,,,,,,,,,,,,,,,,,,,,,,,,,,,,,,,,,,,,,442.1335,up,0.5524,,1,0.3,"[3,1,2]",0.918606158,stimuli/card_100_transparent.png,520,100,7,0,7,0,1,,,,,
,,,,,2023-10-09_16h09.43.991,SlotMachine_updated,2023.1.3,MacIntel,60.06006006,,,,,,,,,,,,,,,,,,,,,,,,,,,,,,,,,,,,,,,,,,,,,,,,,,,,,443.9972,up,0.3726,,0.5,0.3,"[3,1,2]",0.059419945,stimuli/card_0_transparent.png,520,0,8,0,8,0,1,,,,,
,,,,,2023-10-09_16h09.43.991,SlotMachine_updated,2023.1.3,MacIntel,60.06006006,,,,,,,,,,,,,,,,,,,,,,,,,,,,,,,,,,,,,,,,,,,,,,,,,,,,,445.1788,left,0.5944,,1,0.3,"[3,1,2]",0.618234744,stimuli/card_0_transparent.png,520,0,9,0,9,0,1,,,,,
,,,,,2023-10-09_16h09.43.991,SlotMachine_updated,2023.1.3,MacIntel,60.06006006,,,,,,,,,,,,,,,,,,,,,,,,,,,,,,,,,,,,,,,,,,,,,,,,,,,,,447.0808,up,0.288,,1.5,0.3,"[1,3,2]",0.967453342,stimuli/card_0_transparent.png,520,0,10,0,10,0,1,,,,,
,,,,,2023-10-09_16h09.43.991,SlotMachine_updated,2023.1.3,MacIntel,60.06006006,,,,,,,,,,,,,,,,,,,,,,,,,,,,,,,,,,,,,,,,,,,,,,,,,,,,,449.1784,right,0.1594,,0.5,0.3,"[1,3,2]",0.253457501,stimuli/card_10_transparent.png,530,10,11,0,11,0,1,,,,,
,,,,,2023-10-09_16h09.43.991,SlotMachine_updated,2023.1.3,MacIntel,60.06006006,,,,,,,,,,,,,,,,,,,,,,,,,,,,,,,,,,,,,,,,,,,,,,,,,,,,,450.1445,up,0.392,,0.5,0.3,"[1,3,2]",0.83804936,stimuli/card_0_transparent.png,530,0,12,0,12,0,1,,,,,
,,,,,2023-10-09_16h09.43.991,SlotMachine_updated,2023.1.3,MacIntel,60.06006006,,,,,,,,,,,,,,,,,,,,,,,,,,,,,,,,,,,,,,,,,,,,,,,,,,,,,451.3434,left,0.3428,,1,0.3,"[1,3,2]",0.525920267,stimuli/card_100_transparent.png,630,100,13,0,13,0,1,,,,,
,,,,,2023-10-09_16h09.43.991,SlotMachine_updated,2023.1.3,MacIntel,60.06006006,,,,,,,,,,,,,,,,,,,,,,,,,,,,,,,,,,,,,,,,,,,,,,,,,,,,,453.0019,left,0.2735,,1.5,0.3,"[1,3,2]",0.763008544,stimuli/card_100_transparent.png,730,100,14,0,14,0,1,,,,,
,,,,,2023-10-09_16h09.43.991,SlotMachine_updated,2023.1.3,MacIntel,60.06006006,,,,,,,,,,,,,,,,,,,,,,,,,,,,,,455.089,,,,,,,,,,,,,,,,,,,,,,,,,,,,,,,,,,,,,,,6,0,6,0,1
,,,,,2023-10-09_16h09.43.991,SlotMachine_updated,2023.1.3,MacIntel,60.06006006,,,,,,,,,,,,,,,,,,,,,,,,,,,,,,,,,,,,,,,,,,,,,,,,,8,7,"[9,15]","[[1,3,2],[2,3,1]]",460.0869,left,0.5836,,1,0.3,"[1,3,2]",0.580829244,stimuli/card_100_transparent.png,100,100,0,0,0,0,1,,,,,
,,,,,2023-10-09_16h09.43.991,SlotMachine_updated,2023.1.3,MacIntel,60.06006006,,,,,,,,,,,,,,,,,,,,,,,,,,,,,,,,,,,,,,,,,,,,,,,,,,,,,461.9854,left,0.2995,,1.5,0.3,"[1,3,2]",0.010712906,stimuli/card_0_transparent.png,100,0,1,0,1,0,1,,,,,
,,,,,2023-10-09_16h09.43.991,SlotMachine_updated,2023.1.3,MacIntel,60.06006006,,,,,,,,,,,,,,,,,,,,,,,,,,,,,,,,,,,,,,,,,,,,,,,,,,,,,464.1,up,0.2936,,1,0.3,"[1,3,2]",0.612418145,stimuli/card_0_transparent.png,100,0,2,0,2,0,1,,,,,
,,,,,2023-10-09_16h09.43.991,SlotMachine_updated,2023.1.3,MacIntel,60.06006006,,,,,,,,,,,,,,,,,,,,,,,,,,,,,,,,,,,,,,,,,,,,,,,,,,,,,465.6985,right,0.2527,,0.5,0.3,"[1,3,2]",0.946090745,stimuli/card_10_transparent.png,110,10,3,0,3,0,1,,,,,
,,,,,2023-10-09_16h09.43.991,SlotMachine_updated,2023.1.3,MacIntel,60.06006006,,,,,,,,,,,,,,,,,,,,,,,,,,,,,,,,,,,,,,,,,,,,,,,,,,,,,466.7582,up,0.4437,,1,0.3,"[1,3,2]",0.484087579,stimuli/card_0_transparent.png,110,0,4,0,4,0,1,,,,,
,,,,,2023-10-09_16h09.43.991,SlotMachine_updated,2023.1.3,MacIntel,60.06006006,,,,,,,,,,,,,,,,,,,,,,,,,,,,,,,,,,,,,,,,,,,,,,,,,,,,,468.5077,left,0.2746,,1,0.3,"[1,3,2]",0.668011722,stimuli/card_100_transparent.png,210,100,5,0,5,0,1,,,,,
,,,,,2023-10-09_16h09.43.991,SlotMachine_updated,2023.1.3,MacIntel,60.06006006,,,,,,,,,,,,,,,,,,,,,,,,,,,,,,,,,,,,,,,,,,,,,,,,,,,,,470.0902,left,0.3615,,1.5,0.3,"[1,3,2]",0.716043698,stimuli/card_100_transparent.png,310,100,6,0,6,0,1,,,,,
,,,,,2023-10-09_16h09.43.991,SlotMachine_updated,2023.1.3,MacIntel,60.06006006,,,,,,,,,,,,,,,,,,,,,,,,,,,,,,,,,,,,,,,,,,,,,,,,,,,,,472.2702,left,0.132,,1.5,0.3,"[1,3,2]",0.263553542,stimuli/card_100_transparent.png,410,100,7,0,7,0,1,,,,,
,,,,,2023-10-09_16h09.43.991,SlotMachine_updated,2023.1.3,MacIntel,60.06006006,,,,,,,,,,,,,,,,,,,,,,,,,,,,,,,,,,,,,,,,,,,,,,,,,,,,,474.2199,left,0.2992,,1.5,0.3,"[1,3,2]",0.214281184,stimuli/card_100_transparent.png,510,100,8,0,8,0,1,,,,,
,,,,,2023-10-09_16h09.43.991,SlotMachine_updated,2023.1.3,MacIntel,60.06006006,,,,,,,,,,,,,,,,,,,,,,,,,,,,,,,,,,,,,,,,,,,,,,,,,,,,,476.3415,left,0.4444,,0.5,0.3,"[2,3,1]",0.900888273,stimuli/card_10_transparent.png,520,10,9,0,9,0,1,,,,,
,,,,,2023-10-09_16h09.43.991,SlotMachine_updated,2023.1.3,MacIntel,60.06006006,,,,,,,,,,,,,,,,,,,,,,,,,,,,,,,,,,,,,,,,,,,,,,,,,,,,,477.6038,right,0.6499,,1,0.3,"[2,3,1]",0.710532881,stimuli/card_100_transparent.png,620,100,10,0,10,0,1,,,,,
,,,,,2023-10-09_16h09.43.991,SlotMachine_updated,2023.1.3,MacIntel,60.06006006,,,,,,,,,,,,,,,,,,,,,,,,,,,,,,,,,,,,,,,,,,,,,,,,,,,,,479.5704,right,0.1982,,1.5,0.3,"[2,3,1]",0.724868158,stimuli/card_100_transparent.png,720,100,11,0,11,0,1,,,,,
,,,,,2023-10-09_16h09.43.991,SlotMachine_updated,2023.1.3,MacIntel,60.06006006,,,,,,,,,,,,,,,,,,,,,,,,,,,,,,,,,,,,,,,,,,,,,,,,,,,,,481.585,right,0.2979,,1,0.3,"[2,3,1]",0.319511713,stimuli/card_100_transparent.png,820,100,12,0,12,0,1,,,,,
,,,,,2023-10-09_16h09.43.991,SlotMachine_updated,2023.1.3,MacIntel,60.06006006,,,,,,,,,,,,,,,,,,,,,,,,,,,,,,,,,,,,,,,,,,,,,,,,,,,,,483.199,right,0.3518,,0.5,0.3,"[2,3,1]",0.97487218,stimuli/card_100_transparent.png,920,100,13,0,13,0,1,,,,,
,,,,,2023-10-09_16h09.43.991,SlotMachine_updated,2023.1.3,MacIntel,60.06006006,,,,,,,,,,,,,,,,,,,,,,,,,,,,,,,,,,,,,,,,,,,,,,,,,,,,,484.3654,right,0.4003,,1.5,0.3,"[2,3,1]",0.032799496,stimuli/card_0_transparent.png,920,0,14,0,14,0,1,,,,,
,,,,,2023-10-09_16h09.43.991,SlotMachine_updated,2023.1.3,MacIntel,60.06006006,,,,,,,,,,,,,,,,,,,,,,,,,,,,,,486.5814,,,,,,,,,,,,,,,,,,,,,,,,,,,,,,,,,,,,,,,7,0,7,0,1
,,,,,2023-10-09_16h09.43.991,SlotMachine_updated,2023.1.3,MacIntel,60.06006006,,,,,,,,,,,,,,,,,,,,,,,,,,,,,,,,,,,,,,,,,,,,,,,,,9,9,[15],"[[3,1,2]]",491.5766,up,0.4327,,0.5,0.3,"[3,1,2]",0.437524361,stimuli/card_100_transparent.png,100,100,0,0,0,0,1,,,,,
,,,,,2023-10-09_16h09.43.991,SlotMachine_updated,2023.1.3,MacIntel,60.06006006,,,,,,,,,,,,,,,,,,,,,,,,,,,,,,,,,,,,,,,,,,,,,,,,,,,,,492.824,up,0.354,,0.5,0.3,"[3,1,2]",0.540752159,stimuli/card_100_transparent.png,200,100,1,0,1,0,1,,,,,
,,,,,2023-10-09_16h09.43.991,SlotMachine_updated,2023.1.3,MacIntel,60.06006006,,,,,,,,,,,,,,,,,,,,,,,,,,,,,,,,,,,,,,,,,,,,,,,,,,,,,493.9898,up,0.5898,,0.5,0.3,"[3,1,2]",0.391907552,stimuli/card_100_transparent.png,300,100,2,0,2,0,1,,,,,
,,,,,2023-10-09_16h09.43.991,SlotMachine_updated,2023.1.3,MacIntel,60.06006006,,,,,,,,,,,,,,,,,,,,,,,,,,,,,,,,,,,,,,,,,,,,,,,,,,,,,495.3885,up,0.3145,,1.5,0.3,"[3,1,2]",0.648815519,stimuli/card_100_transparent.png,400,100,3,0,3,0,1,,,,,
,,,,,2023-10-09_16h09.43.991,SlotMachine_updated,2023.1.3,MacIntel,60.06006006,,,,,,,,,,,,,,,,,,,,,,,,,,,,,,,,,,,,,,,,,,,,,,,,,,,,,497.5229,up,0.3976,,1.5,0.3,"[3,1,2]",0.788270177,stimuli/card_100_transparent.png,500,100,4,0,4,0,1,,,,,
,,,,,2023-10-09_16h09.43.991,SlotMachine_updated,2023.1.3,MacIntel,60.06006006,,,,,,,,,,,,,,,,,,,,,,,,,,,,,,,,,,,,,,,,,,,,,,,,,,,,,499.7365,up,0.1304,,1.5,0.3,"[3,1,2]",0.915980907,stimuli/card_100_transparent.png,600,100,5,0,5,0,1,,,,,
,,,,,2023-10-09_16h09.43.991,SlotMachine_updated,2023.1.3,MacIntel,60.06006006,,,,,,,,,,,,,,,,,,,,,,,,,,,,,,,,,,,,,,,,,,,,,,,,,,,,,501.687,up,0.2806,,1.5,0.3,"[3,1,2]",0.466431761,stimuli/card_100_transparent.png,700,100,6,0,6,0,1,,,,,
,,,,,2023-10-09_16h09.43.991,SlotMachine_updated,2023.1.3,MacIntel,60.06006006,,,,,,,,,,,,,,,,,,,,,,,,,,,,,,,,,,,,,,,,,,,,,,,,,,,,,503.7834,up,0.1953,,1,0.3,"[3,1,2]",0.362005915,stimuli/card_100_transparent.png,800,100,7,0,7,0,1,,,,,
,,,,,2023-10-09_16h09.43.991,SlotMachine_updated,2023.1.3,MacIntel,60.06006006,,,,,,,,,,,,,,,,,,,,,,,,,,,,,,,,,,,,,,,,,,,,,,,,,,,,,505.2996,up,0.312,,0.5,0.3,"[3,1,2]",0.891826027,stimuli/card_100_transparent.png,900,100,8,0,8,0,1,,,,,
,,,,,2023-10-09_16h09.43.991,SlotMachine_updated,2023.1.3,MacIntel,60.06006006,,,,,,,,,,,,,,,,,,,,,,,,,,,,,,,,,,,,,,,,,,,,,,,,,,,,,506.4303,up,0.4389,,1,0.3,"[3,1,2]",0.03843083,stimuli/card_0_transparent.png,900,0,9,0,9,0,1,,,,,
,,,,,2023-10-09_16h09.43.991,SlotMachine_updated,2023.1.3,MacIntel,60.06006006,,,,,,,,,,,,,,,,,,,,,,,,,,,,,,,,,,,,,,,,,,,,,,,,,,,,,508.1793,left,0.3602,,0.5,0.3,"[3,1,2]",0.798402282,stimuli/card_0_transparent.png,900,0,10,0,10,0,1,,,,,
,,,,,2023-10-09_16h09.43.991,SlotMachine_updated,2023.1.3,MacIntel,60.06006006,,,,,,,,,,,,,,,,,,,,,,,,,,,,,,,,,,,,,,,,,,,,,,,,,,,,,509.3456,right,0.3475,,0.5,0.3,"[3,1,2]",0.571074182,stimuli/card_10_transparent.png,910,10,11,0,11,0,1,,,,,
,,,,,2023-10-09_16h09.43.991,SlotMachine_updated,2023.1.3,MacIntel,60.06006006,,,,,,,,,,,,,,,,,,,,,,,,,,,,,,,,,,,,,,,,,,,,,,,,,,,,,510.5121,up,0.3449,,1.5,0.3,"[3,1,2]",0.711941594,stimuli/card_100_transparent.png,1010,100,12,0,12,0,1,,,,,
,,,,,2023-10-09_16h09.43.991,SlotMachine_updated,2023.1.3,MacIntel,60.06006006,,,,,,,,,,,,,,,,,,,,,,,,,,,,,,,,,,,,,,,,,,,,,,,,,,,,,512.6765,up,0.4109,,1.5,0.3,"[3,1,2]",0.510644026,stimuli/card_100_transparent.png,1110,100,13,0,13,0,1,,,,,
,,,,,2023-10-09_16h09.43.991,SlotMachine_updated,2023.1.3,MacIntel,60.06006006,,,,,,,,,,,,,,,,,,,,,,,,,,,,,,,,,,,,,,,,,,,,,,,,,,,,,514.9071,up,0.28,,1,0.3,"[3,1,2]",0.895131804,stimuli/card_100_transparent.png,1210,100,14,0,14,0,1,,,,,
,,,,,2023-10-09_16h09.43.991,SlotMachine_updated,2023.1.3,MacIntel,60.06006006,,,,,,,,,,,,,,,,,,,,,,,,,,,,,,516.5073,,,,,,,,,,,,,,,,,,,,,,,,,,,,,,,,,,,,,,,8,0,8,0,1
,,,,,2023-10-09_16h09.43.991,SlotMachine_updated,2023.1.3,MacIntel,60.06006006,,,,,,,,,,,,,,,,,,,,,,,,,,,,,,,,,,,,,,,,,,,,,,,,,10,6,"[4,10,15]","[[2,3,1],[1,3,2],[3,2,1]]",521.5074,right,0.6915,,1,0.3,"[2,3,1]",0.481065026,stimuli/card_100_transparent.png,100,100,0,0,0,0,1,,,,,
,,,,,2023-10-09_16h09.43.991,SlotMachine_updated,2023.1.3,MacIntel,60.06006006,,,,,,,,,,,,,,,,,,,,,,,,,,,,,,,,,,,,,,,,,,,,,,,,,,,,,523.5185,right,0.296,,1.5,0.3,"[2,3,1]",0.458916278,stimuli/card_100_transparent.png,200,100,1,0,1,0,1,,,,,
,,,,,2023-10-09_16h09.43.991,SlotMachine_updated,2023.1.3,MacIntel,60.06006006,,,,,,,,,,,,,,,,,,,,,,,,,,,,,,,,,,,,,,,,,,,,,,,,,,,,,525.6325,right,0.2841,,1,0.3,"[2,3,1]",0.750859151,stimuli/card_100_transparent.png,300,100,2,0,2,0,1,,,,,
,,,,,2023-10-09_16h09.43.991,SlotMachine_updated,2023.1.3,MacIntel,60.06006006,,,,,,,,,,,,,,,,,,,,,,,,,,,,,,,,,,,,,,,,,,,,,,,,,,,,,527.2342,right,0.4181,,1.5,0.3,"[2,3,1]",0.776226038,stimuli/card_100_transparent.png,400,100,3,0,3,0,1,,,,,
,,,,,2023-10-09_16h09.43.991,SlotMachine_updated,2023.1.3,MacIntel,60.06006006,,,,,,,,,,,,,,,,,,,,,,,,,,,,,,,,,,,,,,,,,,,,,,,,,,,,,529.4656,right,0.1364,,1.5,0.3,"[1,3,2]",0.348782341,stimuli/card_10_transparent.png,410,10,4,0,4,0,1,,,,,
,,,,,2023-10-09_16h09.43.991,SlotMachine_updated,2023.1.3,MacIntel,60.06006006,,,,,,,,,,,,,,,,,,,,,,,,,,,,,,,,,,,,,,,,,,,,,,,,,,,,,531.4152,left,0.3993,,0.5,0.3,"[1,3,2]",0.490620071,stimuli/card_100_transparent.png,510,100,5,0,5,0,1,,,,,
,,,,,2023-10-09_16h09.43.991,SlotMachine_updated,2023.1.3,MacIntel,60.06006006,,,,,,,,,,,,,,,,,,,,,,,,,,,,,,,,,,,,,,,,,,,,,,,,,,,,,532.63,left,0.4078,,0.5,0.3,"[1,3,2]",0.585787644,stimuli/card_100_transparent.png,610,100,6,0,6,0,1,,,,,
,,,,,2023-10-09_16h09.43.991,SlotMachine_updated,2023.1.3,MacIntel,60.06006006,,,,,,,,,,,,,,,,,,,,,,,,,,,,,,,,,,,,,,,,,,,,,,,,,,,,,533.8622,left,0.4033,,1,0.3,"[1,3,2]",0.746973481,stimuli/card_100_transparent.png,710,100,7,0,7,0,1,,,,,
,,,,,2023-10-09_16h09.43.991,SlotMachine_updated,2023.1.3,MacIntel,60.06006006,,,,,,,,,,,,,,,,,,,,,,,,,,,,,,,,,,,,,,,,,,,,,,,,,,,,,535.5778,left,0.7682,,0.5,0.3,"[1,3,2]",0.396957737,stimuli/card_100_transparent.png,810,100,8,0,8,0,1,,,,,
,,,,,2023-10-09_16h09.43.991,SlotMachine_updated,2023.1.3,MacIntel,60.06006006,,,,,,,,,,,,,,,,,,,,,,,,,,,,,,,,,,,,,,,,,,,,,,,,,,,,,537.1457,left,0.5552,,0.5,0.3,"[1,3,2]",0.830412925,stimuli/card_100_transparent.png,910,100,9,0,9,0,1,,,,,
,,,,,2023-10-09_16h09.43.991,SlotMachine_updated,2023.1.3,MacIntel,60.06006006,,,,,,,,,,,,,,,,,,,,,,,,,,,,,,,,,,,,,,,,,,,,,,,,,,,,,538.5118,left,0.451,,0.5,0.3,"[3,2,1]",0.356211158,stimuli/card_0_transparent.png,910,0,10,0,10,0,1,,,,,
,,,,,2023-10-09_16h09.43.991,SlotMachine_updated,2023.1.3,MacIntel,60.06006006,,,,,,,,,,,,,,,,,,,,,,,,,,,,,,,,,,,,,,,,,,,,,,,,,,,,,539.7775,up,0.3573,,0.5,0.3,"[3,2,1]",0.864210444,stimuli/card_10_transparent.png,920,10,11,0,11,0,1,,,,,
,,,,,2023-10-09_16h09.43.991,SlotMachine_updated,2023.1.3,MacIntel,60.06006006,,,,,,,,,,,,,,,,,,,,,,,,,,,,,,,,,,,,,,,,,,,,,,,,,,,,,540.9431,up,0.2885,,1.5,0.3,"[3,2,1]",0.13916329,stimuli/card_100_transparent.png,1020,100,12,0,12,0,1,,,,,
,,,,,2023-10-09_16h09.43.991,SlotMachine_updated,2023.1.3,MacIntel,60.06006006,,,,,,,,,,,,,,,,,,,,,,,,,,,,,,,,,,,,,,,,,,,,,,,,,,,,,543.0417,up,0.4827,,1.5,0.3,"[3,2,1]",0.255481909,stimuli/card_10_transparent.png,1030,10,13,0,13,0,1,,,,,
,,,,,2023-10-09_16h09.43.991,SlotMachine_updated,2023.1.3,MacIntel,60.06006006,,,,,,,,,,,,,,,,,,,,,,,,,,,,,,,,,,,,,,,,,,,,,,,,,,,,,545.3369,up,0.8933,,1.5,0.3,"[3,2,1]",0.03862914,stimuli/card_0_transparent.png,1030,0,14,0,14,0,1,,,,,
,,,,,2023-10-09_16h09.43.991,SlotMachine_updated,2023.1.3,MacIntel,60.06006006,,,,,,,,,,,,,,,,,,,,,,,,,,,,,,548.0377,,,,,,,,,,,,,,,,,,,,,,,,,,,,,,,,,,,,,,,9,0,9,0,1
,,,,,2023-10-09_16h09.43.991,SlotMachine_updated,2023.1.3,MacIntel,60.06006006,,,,,,,,,,,,,,,,,,,,,,,,,,,,,,,,,,,,,,,,,,,,,,,,,,,,,,,,,,,,,,,,,,,,,,,,,
