key_resp_welcome_started,key_resp_welcome_keys,key_resp_welcome_rt,key_resp_welcome_duration,prolific_pid,path_id,date,expName,psychopyVersion,OS,frameRate,key_resp_instruction1_started,key_resp_instruction1_keys,key_resp_instruction1_rt,key_resp_instruction1_duration,key_resp_instruction2_started,key_resp_instruction2_keys,key_resp_instruction2_rt,key_resp_instruction2_duration,key_resp_instruction3_started,key_resp_instruction3_keys,key_resp_instruction3_rt,key_resp_instruction3_duration,key_resp_instruction4_started,key_resp_instruction4_keys,key_resp_instruction4_rt,key_resp_instruction4_duration,practiceCondition,practice_reward_seqs,practice_trial_started,practice_trial_num,practice_resp_rt,practice_keypress_time,practice_resp_keys,prac_presentationInterval,practice_reward_seq,reward_img,cumulative_reward,trial_reward,practice_trials.thisRepN,practice_trials.thisTrialN,practice_trials.thisN,practice_trials.thisIndex,practice_trials.ran,block_break_started,practice_end_time,practice_end_keys,practice_end_rt,practice_end_duration,main_instruction_text_started,block_condition,block_order_indices,main_instruction_keys,main_instruction_rt,main_instruction_duration,block_number,block_assignment,current_condition,main_reward_seqs,main_trial_started,main_trial_num,main_trial_keys,main_trial_rt,main_trial_keypress_time,main_presentationInterval,reward_presentation_time,main_reward_seq,reward_rand_val,main_reward_img,current_reward,main_trials.thisRepN,main_trials.thisTrialN,main_trials.thisN,main_trials.thisIndex,main_trials.ran,block_reward,block.thisRepN,block.thisTrialN,block.thisN,block.thisIndex,block.ran,block_reward.length,block_reward_all,reward_amount,date_end_task
0.001,h,21.3942,0.0008,667698fb3d4df0117e5b279d,B,2024-08-16_19h23.46.234,Slot Machine Game,2023.1.3,Win32,4.614674665,,,,,,,,,,,,,,,,,,,,,,,,,,,,,,,,,,,,,,,,,,,,,,,,,,,,,,,,,,,,,,,,,,,,,,,,,,
,,,,667698fb3d4df0117e5b279d,B,2024-08-16_19h23.46.234,Slot Machine Game,2023.1.3,Win32,4.614674665,21.653,h,14.2416,,,,,,,,,,,,,,,,,,,,,,,,,,,,,,,,,,,,,,,,,,,,,,,,,,,,,,,,,,,,,,,,,,,,,,,
,,,,667698fb3d4df0117e5b279d,B,2024-08-16_19h23.46.234,Slot Machine Game,2023.1.3,Win32,4.614674665,,,,,36.2347,space,44.0083,0.0006,,,,,,,,,,,,,,,,,,,,,,,,,,,,,,,,,,,,,,,,,,,,,,,,,,,,,,,,,,,,,,,,,,
,,,,667698fb3d4df0117e5b279d,B,2024-08-16_19h23.46.234,Slot Machine Game,2023.1.3,Win32,4.614674665,,,,,,,,,80.6365,h,18.5856,0.0004,,,,,,,,,,,,,,,,,,,,,,,,,,,,,,,,,,,,,,,,,,,,,,,,,,,,,,,,,,,,,,
,,,,667698fb3d4df0117e5b279d,B,2024-08-16_19h23.46.234,Slot Machine Game,2023.1.3,Win32,4.614674665,,,,,,,,,,,,,,,,,,,,,,,,,,,,,,,,,,,,,,,,,,,,,,,,,,,,,,,,,,,,,,,,,,,,,,,,,,
,,,,667698fb3d4df0117e5b279d,B,2024-08-16_19h23.46.234,Slot Machine Game,2023.1.3,Win32,4.614674665,,,,,,,,,,,,,294.9463,space,4.9324,,,,,,,,,,,,,,,,,,,,,,,,,,,,,,,,,,,,,,,,,,,,,,,,,,,,,,,,,,,
,,,,667698fb3d4df0117e5b279d,B,2024-08-16_19h23.46.234,Slot Machine Game,2023.1.3,Win32,4.614674665,,,,,,,,,,,,,,,,,"[9,15]","[[2,1,3],[2,3,1]]",300.2327,0,1.5917,302.3916,left,0.5,"[2,1,3]",stimuli/card_10_transparent.png,10,10,0,0,0,0,1,,,,,,,,,,,,,,,,,,,,,,,,,,,,,,,,,,,,,,,,,
,,,,667698fb3d4df0117e5b279d,B,2024-08-16_19h23.46.234,Slot Machine Game,2023.1.3,Win32,4.614674665,,,,,,,,,,,,,,,,,,,303.1589,1,1.9143,305.6245,up,1.5,"[2,1,3]",stimuli/card_100_transparent.png,110,100,1,0,1,0,1,,,,,,,,,,,,,,,,,,,,,,,,,,,,,,,,,,,,,,,,,
,,,,667698fb3d4df0117e5b279d,B,2024-08-16_19h23.46.234,Slot Machine Game,2023.1.3,Win32,4.614674665,,,,,,,,,,,,,,,,,,,307.532,2,1.9113,309.9479,up,1.5,"[2,1,3]",stimuli/card_100_transparent.png,210,100,2,0,2,0,1,,,,,,,,,,,,,,,,,,,,,,,,,,,,,,,,,,,,,,,,,
,,,,667698fb3d4df0117e5b279d,B,2024-08-16_19h23.46.234,Slot Machine Game,2023.1.3,Win32,4.614674665,,,,,,,,,,,,,,,,,,,311.7559,3,1.5637,313.8226,up,1,"[2,1,3]",stimuli/card_100_transparent.png,310,100,3,0,3,0,1,,,,,,,,,,,,,,,,,,,,,,,,,,,,,,,,,,,,,,,,,
,,,,667698fb3d4df0117e5b279d,B,2024-08-16_19h23.46.234,Slot Machine Game,2023.1.3,Win32,4.614674665,,,,,,,,,,,,,,,,,,,315.2354,4,0.8656,316.6006,up,0.5,"[2,1,3]",stimuli/card_100_transparent.png,410,100,4,0,4,0,1,,,,,,,,,,,,,,,,,,,,,,,,,,,,,,,,,,,,,,,,,
,,,,667698fb3d4df0117e5b279d,B,2024-08-16_19h23.46.234,Slot Machine Game,2023.1.3,Win32,4.614674665,,,,,,,,,,,,,,,,,,,317.3303,5,0.5133,318.3509,up,1,"[2,1,3]",stimuli/card_100_transparent.png,510,100,5,0,5,0,1,,,,,,,,,,,,,,,,,,,,,,,,,,,,,,,,,,,,,,,,,
,,,,667698fb3d4df0117e5b279d,B,2024-08-16_19h23.46.234,Slot Machine Game,2023.1.3,Win32,4.614674665,,,,,,,,,,,,,,,,,,,319.7481,6,0.5133,320.7617,up,1.5,"[2,1,3]",stimuli/card_100_transparent.png,610,100,6,0,6,0,1,,,,,,,,,,,,,,,,,,,,,,,,,,,,,,,,,,,,,,,,,
,,,,667698fb3d4df0117e5b279d,B,2024-08-16_19h23.46.234,Slot Machine Game,2023.1.3,Win32,4.614674665,,,,,,,,,,,,,,,,,,,322.5212,7,,,,1.5,"[2,1,3]",,,,7,0,7,0,1,,,,,,,,,,,,,,,,,,,,,,,,,,,,,,,,,,,,,,,,,
,,,,667698fb3d4df0117e5b279d,B,2024-08-16_19h23.46.234,Slot Machine Game,2023.1.3,Win32,4.614674665,,,,,,,,,,,,,,,,,,,328.2912,8,0.5136,329.3119,up,0.5,"[2,1,3]",stimuli/card_100_transparent.png,710,100,8,0,8,0,1,,,,,,,,,,,,,,,,,,,,,,,,,,,,,,,,,,,,,,,,,
,,,,667698fb3d4df0117e5b279d,B,2024-08-16_19h23.46.234,Slot Machine Game,2023.1.3,Win32,4.614674665,,,,,,,,,,,,,,,,,,,330.0108,9,0.5137,331.0173,up,1,"[2,3,1]",stimuli/card_0_transparent.png,710,0,9,0,9,0,1,,,,,,,,,,,,,,,,,,,,,,,,,,,,,,,,,,,,,,,,,
,,,,667698fb3d4df0117e5b279d,B,2024-08-16_19h23.46.234,Slot Machine Game,2023.1.3,Win32,4.614674665,,,,,,,,,,,,,,,,,,,332.0868,10,0.8697,333.4951,up,0.5,"[2,3,1]",stimuli/card_0_transparent.png,710,0,10,0,10,0,1,,,,,,,,,,,,,,,,,,,,,,,,,,,,,,,,,,,,,,,,,
,,,,667698fb3d4df0117e5b279d,B,2024-08-16_19h23.46.234,Slot Machine Game,2023.1.3,Win32,4.614674665,,,,,,,,,,,,,,,,,,,334.2109,11,3.2386,337.9597,up,1,"[2,3,1]",stimuli/card_0_transparent.png,710,0,11,0,11,0,1,,,,,,,,,,,,,,,,,,,,,,,,,,,,,,,,,,,,,,,,,
,,,,667698fb3d4df0117e5b279d,B,2024-08-16_19h23.46.234,Slot Machine Game,2023.1.3,Win32,4.614674665,,,,,,,,,,,,,,,,,,,339.4127,12,1.1967,341.1184,right,1.5,"[2,3,1]",stimuli/card_100_transparent.png,810,100,12,0,12,0,1,,,,,,,,,,,,,,,,,,,,,,,,,,,,,,,,,,,,,,,,,
,,,,667698fb3d4df0117e5b279d,B,2024-08-16_19h23.46.234,Slot Machine Game,2023.1.3,Win32,4.614674665,,,,,,,,,,,,,,,,,,,342.8948,13,1.5203,344.9118,right,0.5,"[2,3,1]",stimuli/card_100_transparent.png,910,100,13,0,13,0,1,,,,,,,,,,,,,,,,,,,,,,,,,,,,,,,,,,,,,,,,,
,,,,667698fb3d4df0117e5b279d,B,2024-08-16_19h23.46.234,Slot Machine Game,2023.1.3,Win32,4.614674665,,,,,,,,,,,,,,,,,,,345.6412,14,0.5135,346.6573,right,1,"[2,3,1]",stimuli/card_100_transparent.png,1010,100,14,0,14,0,1,,,,,,,,,,,,,,,,,,,,,,,,,,,,,,,,,,,,,,,,,
,,,,667698fb3d4df0117e5b279d,B,2024-08-16_19h23.46.234,Slot Machine Game,2023.1.3,Win32,4.614674665,,,,,,,,,,,,,,,,,"[6,15]","[[1,3,2],[3,1,2]]",352.9129,0,1.1799,354.5704,left,1.5,"[1,3,2]",stimuli/card_100_transparent.png,100,100,0,0,0,0,1,348.0981,,,,,,,,,,,,,,,,,,,,,,,,,,,,,,,,,,,,,,,,
,,,,667698fb3d4df0117e5b279d,B,2024-08-16_19h23.46.234,Slot Machine Game,2023.1.3,Win32,4.614674665,,,,,,,,,,,,,,,,,,,356.3523,1,0.8445,357.6842,left,1,"[1,3,2]",stimuli/card_100_transparent.png,200,100,1,0,1,0,1,,,,,,,,,,,,,,,,,,,,,,,,,,,,,,,,,,,,,,,,,
,,,,667698fb3d4df0117e5b279d,B,2024-08-16_19h23.46.234,Slot Machine Game,2023.1.3,Win32,4.614674665,,,,,,,,,,,,,,,,,,,359.1657,2,0.5134,360.1771,left,0.5,"[1,3,2]",stimuli/card_100_transparent.png,300,100,2,0,2,0,1,,,,,,,,,,,,,,,,,,,,,,,,,,,,,,,,,,,,,,,,,
,,,,667698fb3d4df0117e5b279d,B,2024-08-16_19h23.46.234,Slot Machine Game,2023.1.3,Win32,4.614674665,,,,,,,,,,,,,,,,,,,360.8679,3,0.5134,361.867,left,0.5,"[1,3,2]",stimuli/card_10_transparent.png,310,10,3,0,3,0,1,,,,,,,,,,,,,,,,,,,,,,,,,,,,,,,,,,,,,,,,,
,,,,667698fb3d4df0117e5b279d,B,2024-08-16_19h23.46.234,Slot Machine Game,2023.1.3,Win32,4.614674665,,,,,,,,,,,,,,,,,,,362.6431,4,0.5137,363.6651,right,1.5,"[1,3,2]",stimuli/card_0_transparent.png,310,0,4,0,4,0,1,,,,,,,,,,,,,,,,,,,,,,,,,,,,,,,,,,,,,,,,,
,,,,667698fb3d4df0117e5b279d,B,2024-08-16_19h23.46.234,Slot Machine Game,2023.1.3,Win32,4.614674665,,,,,,,,,,,,,,,,,,,365.4201,5,0.5148,366.4164,left,1,"[1,3,2]",stimuli/card_100_transparent.png,410,100,5,0,5,0,1,,,,,,,,,,,,,,,,,,,,,,,,,,,,,,,,,,,,,,,,,
,,,,667698fb3d4df0117e5b279d,B,2024-08-16_19h23.46.234,Slot Machine Game,2023.1.3,Win32,4.614674665,,,,,,,,,,,,,,,,,,,367.1926,6,1.8503,369.5289,left,1.5,"[3,1,2]",stimuli/card_0_transparent.png,410,0,6,0,6,0,1,,,,,,,,,,,,,,,,,,,,,,,,,,,,,,,,,,,,,,,,,
,,,,667698fb3d4df0117e5b279d,B,2024-08-16_19h23.46.234,Slot Machine Game,2023.1.3,Win32,4.614674665,,,,,,,,,,,,,,,,,,,371.2793,7,0.5139,372.2882,left,1,"[3,1,2]",stimuli/card_0_transparent.png,410,0,7,0,7,0,1,,,,,,,,,,,,,,,,,,,,,,,,,,,,,,,,,,,,,,,,,
,,,,667698fb3d4df0117e5b279d,B,2024-08-16_19h23.46.234,Slot Machine Game,2023.1.3,Win32,4.614674665,,,,,,,,,,,,,,,,,,,373.6887,8,2.2538,376.4843,right,0.5,"[3,1,2]",stimuli/card_0_transparent.png,410,0,8,0,8,0,1,,,,,,,,,,,,,,,,,,,,,,,,,,,,,,,,,,,,,,,,,
,,,,667698fb3d4df0117e5b279d,B,2024-08-16_19h23.46.234,Slot Machine Game,2023.1.3,Win32,4.614674665,,,,,,,,,,,,,,,,,,,377.1944,9,1.2021,378.9303,up,1,"[3,1,2]",stimuli/card_100_transparent.png,510,100,9,0,9,0,1,,,,,,,,,,,,,,,,,,,,,,,,,,,,,,,,,,,,,,,,,
,,,,667698fb3d4df0117e5b279d,B,2024-08-16_19h23.46.234,Slot Machine Game,2023.1.3,Win32,4.614674665,,,,,,,,,,,,,,,,,,,379.7125,10,0.8675,381.1067,up,1.5,"[3,1,2]",stimuli/card_10_transparent.png,520,10,10,0,10,0,1,,,,,,,,,,,,,,,,,,,,,,,,,,,,,,,,,,,,,,,,,
,,,,667698fb3d4df0117e5b279d,B,2024-08-16_19h23.46.234,Slot Machine Game,2023.1.3,Win32,4.614674665,,,,,,,,,,,,,,,,,,,382.9462,11,2.9658,386.4422,up,1,"[3,1,2]",stimuli/card_100_transparent.png,620,100,11,0,11,0,1,,,,,,,,,,,,,,,,,,,,,,,,,,,,,,,,,,,,,,,,,
,,,,667698fb3d4df0117e5b279d,B,2024-08-16_19h23.46.234,Slot Machine Game,2023.1.3,Win32,4.614674665,,,,,,,,,,,,,,,,,,,387.5433,12,0.5151,388.6337,up,0.5,"[3,1,2]",stimuli/card_100_transparent.png,720,100,12,0,12,0,1,,,,,,,,,,,,,,,,,,,,,,,,,,,,,,,,,,,,,,,,,
,,,,667698fb3d4df0117e5b279d,B,2024-08-16_19h23.46.234,Slot Machine Game,2023.1.3,Win32,4.614674665,,,,,,,,,,,,,,,,,,,389.3464,13,1.5745,391.4555,up,1.5,"[3,1,2]",stimuli/card_0_transparent.png,720,0,13,0,13,0,1,,,,,,,,,,,,,,,,,,,,,,,,,,,,,,,,,,,,,,,,,
,,,,667698fb3d4df0117e5b279d,B,2024-08-16_19h23.46.234,Slot Machine Game,2023.1.3,Win32,4.614674665,,,,,,,,,,,,,,,,,,,393.2778,14,2.1893,395.9689,up,0.5,"[3,1,2]",stimuli/card_100_transparent.png,820,100,14,0,14,0,1,,,,,,,,,,,,,,,,,,,,,,,,,,,,,,,,,,,,,,,,,
,,,,667698fb3d4df0117e5b279d,B,2024-08-16_19h23.46.234,Slot Machine Game,2023.1.3,Win32,4.614674665,,,,,,,,,,,,,,,,,,,,,,,,,,,,,,,,,,396.7261,401.7978,space,3.1542,,,,,,,,,,,,,,,,,,,,,,,,,,,,,,,,,,,,,
,,,,667698fb3d4df0117e5b279d,B,2024-08-16_19h23.46.234,Slot Machine Game,2023.1.3,Win32,4.614674665,,,,,,,,,,,,,,,,,,,,,,,,,,,,,,,,,,,,,,,405.2522,2,"[2,4,7,0,1,3,9,6,8,5]",space,3.2235,,,,,,,,,,,,,,,,,,,,,,,,,,,,,,,
,,,,667698fb3d4df0117e5b279d,B,2024-08-16_19h23.46.234,Slot Machine Game,2023.1.3,Win32,4.614674665,,,,,,,,,,,,,,,,,,,,,,,,,,,0,,,,,,,,,,,,,,,,,,1,3,"[15,15]","[[3,1,2],[3,1,2]]",408.8142,0,left,0.8463,410.1963,1.5,0.3,"[3,1,2]",0.518653174,stimuli/card_0_transparent.png,0,0,0,0,0,1,,,,,,,,,,
,,,,667698fb3d4df0117e5b279d,B,2024-08-16_19h23.46.234,Slot Machine Game,2023.1.3,Win32,4.614674665,,,,,,,,,,,,,,,,,,,,,,,,,,,0,,,,,,,,,,,,,,,,,,1,3,,,412.0481,1,left,0.514,413.0368,1.5,0.3,"[3,1,2]",0.330179539,stimuli/card_0_transparent.png,0,1,0,1,0,1,,,,,,,,,,
,,,,667698fb3d4df0117e5b279d,B,2024-08-16_19h23.46.234,Slot Machine Game,2023.1.3,Win32,4.614674665,,,,,,,,,,,,,,,,,,,,,,,,,,,10,,,,,,,,,,,,,,,,,,1,3,,,414.8222,2,up,2.2231,417.5434,0.5,0.3,"[3,1,2]",0.130014223,stimuli/card_10_transparent.png,10,2,0,2,0,1,,,,,,,,,,
,,,,667698fb3d4df0117e5b279d,B,2024-08-16_19h23.46.234,Slot Machine Game,2023.1.3,Win32,4.614674665,,,,,,,,,,,,,,,,,,,,,,,,,,,20,,,,,,,,,,,,,,,,,,1,3,,,418.2678,3,up,0.5139,419.2674,0.5,0.3,"[3,1,2]",0.160076878,stimuli/card_10_transparent.png,10,3,0,3,0,1,,,,,,,,,,
,,,,667698fb3d4df0117e5b279d,B,2024-08-16_19h23.46.234,Slot Machine Game,2023.1.3,Win32,4.614674665,,,,,,,,,,,,,,,,,,,,,,,,,,,120,,,,,,,,,,,,,,,,,,1,3,,,419.9602,4,up,1.8863,422.3352,1.5,0.3,"[3,1,2]",0.745838323,stimuli/card_100_transparent.png,100,4,0,4,0,1,,,,,,,,,,
,,,,667698fb3d4df0117e5b279d,B,2024-08-16_19h23.46.234,Slot Machine Game,2023.1.3,Win32,4.614674665,,,,,,,,,,,,,,,,,,,,,,,,,,,220,,,,,,,,,,,,,,,,,,1,3,,,424.2011,5,up,0.5146,425.2165,0.5,0.3,"[3,1,2]",0.526524682,stimuli/card_100_transparent.png,100,5,0,5,0,1,,,,,,,,,,
,,,,667698fb3d4df0117e5b279d,B,2024-08-16_19h23.46.234,Slot Machine Game,2023.1.3,Win32,4.614674665,,,,,,,,,,,,,,,,,,,,,,,,,,,320,,,,,,,,,,,,,,,,,,1,3,,,425.9352,6,up,1.8911,428.3468,1,0.3,"[3,1,2]",0.367532908,stimuli/card_100_transparent.png,100,6,0,6,0,1,,,,,,,,,,
,,,,667698fb3d4df0117e5b279d,B,2024-08-16_19h23.46.234,Slot Machine Game,2023.1.3,Win32,4.614674665,,,,,,,,,,,,,,,,,,,,,,,,,,,320,,,,,,,,,,,,,,,,,,1,3,,,429.7645,7,up,0.8474,431.1367,1.5,0.3,"[3,1,2]",0.009882414,stimuli/card_0_transparent.png,0,7,0,7,0,1,,,,,,,,,,
,,,,667698fb3d4df0117e5b279d,B,2024-08-16_19h23.46.234,Slot Machine Game,2023.1.3,Win32,4.614674665,,,,,,,,,,,,,,,,,,,,,,,,,,,320,,,,,,,,,,,,,,,,,,1,3,,,432.8981,8,up,0.8469,434.2544,1,0.3,"[3,1,2]",0.011583263,stimuli/card_0_transparent.png,0,8,0,8,0,1,,,,,,,,,,
,,,,667698fb3d4df0117e5b279d,B,2024-08-16_19h23.46.234,Slot Machine Game,2023.1.3,Win32,4.614674665,,,,,,,,,,,,,,,,,,,,,,,,,,,420,,,,,,,,,,,,,,,,,,1,3,,,435.6649,9,right,1.2302,437.4043,0.5,0.3,"[3,1,2]",0.147910487,stimuli/card_100_transparent.png,100,9,0,9,0,1,,,,,,,,,,
,,,,667698fb3d4df0117e5b279d,B,2024-08-16_19h23.46.234,Slot Machine Game,2023.1.3,Win32,4.614674665,,,,,,,,,,,,,,,,,,,,,,,,,,,430,,,,,,,,,,,,,,,,,,1,3,,,438.1155,10,right,0.5138,439.1327,0.5,0.3,"[3,1,2]",0.792927004,stimuli/card_10_transparent.png,10,10,0,10,0,1,,,,,,,,,,
,,,,667698fb3d4df0117e5b279d,B,2024-08-16_19h23.46.234,Slot Machine Game,2023.1.3,Win32,4.614674665,,,,,,,,,,,,,,,,,,,,,,,,,,,440,,,,,,,,,,,,,,,,,,1,3,,,439.8282,11,right,1.8649,442.1835,0.5,0.3,"[3,1,2]",0.664305942,stimuli/card_10_transparent.png,10,11,0,11,0,1,,,,,,,,,,
,,,,667698fb3d4df0117e5b279d,B,2024-08-16_19h23.46.234,Slot Machine Game,2023.1.3,Win32,4.614674665,,,,,,,,,,,,,,,,,,,,,,,,,,,540,,,,,,,,,,,,,,,,,,1,3,,,442.8892,12,up,0.5138,443.8931,1.5,0.3,"[3,1,2]",0.212443748,stimuli/card_100_transparent.png,100,12,0,12,0,1,,,,,,,,,,
,,,,667698fb3d4df0117e5b279d,B,2024-08-16_19h23.46.234,Slot Machine Game,2023.1.3,Win32,4.614674665,,,,,,,,,,,,,,,,,,,,,,,,,,,640,,,,,,,,,,,,,,,,,,1,3,,,445.6822,13,up,1.5154,447.6907,1,0.3,"[3,1,2]",0.284275163,stimuli/card_100_transparent.png,100,13,0,13,0,1,,,,,,,,,,
,,,,667698fb3d4df0117e5b279d,B,2024-08-16_19h23.46.234,Slot Machine Game,2023.1.3,Win32,4.614674665,,,,,,,,,,,,,,,,,,,,,,,,,,,640,,,,,,,,,,,,,,,,,,1,3,,,449.1038,14,up,0.8506,450.4452,1,0.3,"[3,1,2]",0.045955683,stimuli/card_0_transparent.png,0,14,0,14,0,1,,,,,,,,,,
,,,,667698fb3d4df0117e5b279d,B,2024-08-16_19h23.46.234,Slot Machine Game,2023.1.3,Win32,4.614674665,,,,,,,,,,,,,,,,,,,,,,,,,,,,,,,,,,451.8531,,,,,,,,,,,,,,,,,,,,,,,,,,,,,,,[640],0,0,0,0,1,,,,
,,,,667698fb3d4df0117e5b279d,B,2024-08-16_19h23.46.234,Slot Machine Game,2023.1.3,Win32,4.614674665,,,,,,,,,,,,,,,,,,,,,,,,,,,100,,,,,,,,,,,,,,,,,,2,5,"[5,15]","[[1,2,3],[3,1,2]]",456.9346,0,left,0.8445,458.2601,1.5,0.3,"[1,2,3]",0.238817671,stimuli/card_100_transparent.png,100,0,0,0,0,1,,,,,,,,,,
,,,,667698fb3d4df0117e5b279d,B,2024-08-16_19h23.46.234,Slot Machine Game,2023.1.3,Win32,4.614674665,,,,,,,,,,,,,,,,,,,,,,,,,,,200,,,,,,,,,,,,,,,,,,2,5,,,460.0414,1,left,0.8602,461.4113,1.5,0.3,"[1,2,3]",0.299393517,stimuli/card_100_transparent.png,100,1,0,1,0,1,,,,,,,,,,
,,,,667698fb3d4df0117e5b279d,B,2024-08-16_19h23.46.234,Slot Machine Game,2023.1.3,Win32,4.614674665,,,,,,,,,,,,,,,,,,,,,,,,,,,300,,,,,,,,,,,,,,,,,,2,5,,,463.179,2,left,0.5138,464.1848,1.5,0.3,"[1,2,3]",0.524944905,stimuli/card_100_transparent.png,100,2,0,2,0,1,,,,,,,,,,
,,,,667698fb3d4df0117e5b279d,B,2024-08-16_19h23.46.234,Slot Machine Game,2023.1.3,Win32,4.614674665,,,,,,,,,,,,,,,,,,,,,,,,,,,400,,,,,,,,,,,,,,,,,,2,5,,,465.9918,3,left,0.5138,466.9931,0.5,0.3,"[1,2,3]",0.457883584,stimuli/card_100_transparent.png,100,3,0,3,0,1,,,,,,,,,,
,,,,667698fb3d4df0117e5b279d,B,2024-08-16_19h23.46.234,Slot Machine Game,2023.1.3,Win32,4.614674665,,,,,,,,,,,,,,,,,,,,,,,,,,,500,,,,,,,,,,,,,,,,,,2,5,,,467.6938,4,left,2.2058,470.3806,0.5,0.3,"[1,2,3]",0.497641123,stimuli/card_100_transparent.png,100,4,0,4,0,1,,,,,,,,,,
,,,,667698fb3d4df0117e5b279d,B,2024-08-16_19h23.46.234,Slot Machine Game,2023.1.3,Win32,4.614674665,,,,,,,,,,,,,,,,,,,,,,,,,,,500,,,,,,,,,,,,,,,,,,2,5,,,471.079,5,left,1.5207,473.0872,1.5,0.3,"[3,1,2]",0.237481201,stimuli/card_0_transparent.png,0,5,0,5,0,1,,,,,,,,,,
,,,,667698fb3d4df0117e5b279d,B,2024-08-16_19h23.46.234,Slot Machine Game,2023.1.3,Win32,4.614674665,,,,,,,,,,,,,,,,,,,,,,,,,,,500,,,,,,,,,,,,,,,,,,2,5,,,474.8791,6,left,0.5132,475.8709,1.5,0.3,"[3,1,2]",0.307403175,stimuli/card_0_transparent.png,0,6,0,6,0,1,,,,,,,,,,
,,,,667698fb3d4df0117e5b279d,B,2024-08-16_19h23.46.234,Slot Machine Game,2023.1.3,Win32,4.614674665,,,,,,,,,,,,,,,,,,,,,,,,,,,500,,,,,,,,,,,,,,,,,,2,5,,,477.6474,7,left,1.541,479.7045,1,0.3,"[3,1,2]",0.495579525,stimuli/card_0_transparent.png,0,7,0,7,0,1,,,,,,,,,,
,,,,667698fb3d4df0117e5b279d,B,2024-08-16_19h23.46.234,Slot Machine Game,2023.1.3,Win32,4.614674665,,,,,,,,,,,,,,,,,,,,,,,,,,,510,,,,,,,,,,,,,,,,,,2,5,,,481.1159,8,right,1.8607,483.4666,1,0.3,"[3,1,2]",0.455204082,stimuli/card_10_transparent.png,10,8,0,8,0,1,,,,,,,,,,
,,,,667698fb3d4df0117e5b279d,B,2024-08-16_19h23.46.234,Slot Machine Game,2023.1.3,Win32,4.614674665,,,,,,,,,,,,,,,,,,,,,,,,,,,610,,,,,,,,,,,,,,,,,,2,5,,,484.904,9,up,1.5341,486.9302,0.5,0.3,"[3,1,2]",0.764792073,stimuli/card_100_transparent.png,100,9,0,9,0,1,,,,,,,,,,
,,,,667698fb3d4df0117e5b279d,B,2024-08-16_19h23.46.234,Slot Machine Game,2023.1.3,Win32,4.614674665,,,,,,,,,,,,,,,,,,,,,,,,,,,710,,,,,,,,,,,,,,,,,,2,5,,,487.6443,10,up,1.2028,489.3358,1.5,0.3,"[3,1,2]",0.362930474,stimuli/card_100_transparent.png,100,10,0,10,0,1,,,,,,,,,,
,,,,667698fb3d4df0117e5b279d,B,2024-08-16_19h23.46.234,Slot Machine Game,2023.1.3,Win32,4.614674665,,,,,,,,,,,,,,,,,,,,,,,,,,,810,,,,,,,,,,,,,,,,,,2,5,,,491.084,11,up,0.514,492.0918,0.5,0.3,"[3,1,2]",0.938292803,stimuli/card_100_transparent.png,100,11,0,11,0,1,,,,,,,,,,
,,,,667698fb3d4df0117e5b279d,B,2024-08-16_19h23.46.234,Slot Machine Game,2023.1.3,Win32,4.614674665,,,,,,,,,,,,,,,,,,,,,,,,,,,910,,,,,,,,,,,,,,,,,,2,5,,,492.7924,12,up,0.8519,494.1461,1,0.3,"[3,1,2]",0.412326207,stimuli/card_100_transparent.png,100,12,0,12,0,1,,,,,,,,,,
,,,,667698fb3d4df0117e5b279d,B,2024-08-16_19h23.46.234,Slot Machine Game,2023.1.3,Win32,4.614674665,,,,,,,,,,,,,,,,,,,,,,,,,,,1010,,,,,,,,,,,,,,,,,,2,5,,,495.5637,13,up,0.8482,496.9073,1,0.3,"[3,1,2]",0.901037433,stimuli/card_100_transparent.png,100,13,0,13,0,1,,,,,,,,,,
,,,,667698fb3d4df0117e5b279d,B,2024-08-16_19h23.46.234,Slot Machine Game,2023.1.3,Win32,4.614674665,,,,,,,,,,,,,,,,,,,,,,,,,,,1110,,,,,,,,,,,,,,,,,,2,5,,,498.3283,14,up,0.5137,499.3428,0.5,0.3,"[3,1,2]",0.937695665,stimuli/card_100_transparent.png,100,14,0,14,0,1,,,,,,,,,,
,,,,667698fb3d4df0117e5b279d,B,2024-08-16_19h23.46.234,Slot Machine Game,2023.1.3,Win32,4.614674665,,,,,,,,,,,,,,,,,,,,,,,,,,,,,,,,,,500.0382,,,,,,,,,,,,,,,,,,,,,,,,,,,,,,,"[640,1110]",1,0,1,0,1,,,,
,,,,667698fb3d4df0117e5b279d,B,2024-08-16_19h23.46.234,Slot Machine Game,2023.1.3,Win32,4.614674665,,,,,,,,,,,,,,,,,,,,,,,,,,,0,,,,,,,,,,,,,,,,,,3,8,"[11,15]","[[2,1,3],[1,2,3]]",504.8408,0,right,0.5141,505.8394,1,0.3,"[2,1,3]",0.782698107,stimuli/card_0_transparent.png,0,0,0,0,0,1,,,,,,,,,,
,,,,667698fb3d4df0117e5b279d,B,2024-08-16_19h23.46.234,Slot Machine Game,2023.1.3,Win32,4.614674665,,,,,,,,,,,,,,,,,,,,,,,,,,,10,,,,,,,,,,,,,,,,,,3,8,,,507.2456,1,left,0.5138,508.2544,1,0.3,"[2,1,3]",0.539974584,stimuli/card_10_transparent.png,10,1,0,1,0,1,,,,,,,,,,
,,,,667698fb3d4df0117e5b279d,B,2024-08-16_19h23.46.234,Slot Machine Game,2023.1.3,Win32,4.614674665,,,,,,,,,,,,,,,,,,,,,,,,,,,20,,,,,,,,,,,,,,,,,,3,8,,,509.3896,2,left,0.5148,510.3875,0.5,0.3,"[2,1,3]",0.331243141,stimuli/card_10_transparent.png,10,2,0,2,0,1,,,,,,,,,,
,,,,667698fb3d4df0117e5b279d,B,2024-08-16_19h23.46.234,Slot Machine Game,2023.1.3,Win32,4.614674665,,,,,,,,,,,,,,,,,,,,,,,,,,,30,,,,,,,,,,,,,,,,,,3,8,,,511.0743,3,left,1.8716,513.4322,1,0.3,"[2,1,3]",0.238975241,stimuli/card_10_transparent.png,10,3,0,3,0,1,,,,,,,,,,
,,,,667698fb3d4df0117e5b279d,B,2024-08-16_19h23.46.234,Slot Machine Game,2023.1.3,Win32,4.614674665,,,,,,,,,,,,,,,,,,,,,,,,,,,40,,,,,,,,,,,,,,,,,,3,8,,,514.1859,4,left,0.5145,515.1999,1,0.3,"[2,1,3]",0.413716573,stimuli/card_10_transparent.png,10,4,0,4,0,1,,,,,,,,,,
,,,,667698fb3d4df0117e5b279d,B,2024-08-16_19h23.46.234,Slot Machine Game,2023.1.3,Win32,4.614674665,,,,,,,,,,,,,,,,,,,,,,,,,,,40,,,,,,,,,,,,,,,,,,3,8,,,516.2681,5,right,1.525,518.3043,1,0.3,"[2,1,3]",0.714428263,stimuli/card_0_transparent.png,0,5,0,5,0,1,,,,,,,,,,
,,,,667698fb3d4df0117e5b279d,B,2024-08-16_19h23.46.234,Slot Machine Game,2023.1.3,Win32,4.614674665,,,,,,,,,,,,,,,,,,,,,,,,,,,40,,,,,,,,,,,,,,,,,,3,8,,,519.7034,6,right,1.5186,521.7116,0.5,0.3,"[2,1,3]",0.35722386,stimuli/card_0_transparent.png,0,6,0,6,0,1,,,,,,,,,,
,,,,667698fb3d4df0117e5b279d,B,2024-08-16_19h23.46.234,Slot Machine Game,2023.1.3,Win32,4.614674665,,,,,,,,,,,,,,,,,,,,,,,,,,,140,,,,,,,,,,,,,,,,,,3,8,,,522.4253,7,up,1.5116,524.4662,0.5,0.3,"[2,1,3]",0.381845118,stimuli/card_100_transparent.png,100,7,0,7,0,1,,,,,,,,,,
,,,,667698fb3d4df0117e5b279d,B,2024-08-16_19h23.46.234,Slot Machine Game,2023.1.3,Win32,4.614674665,,,,,,,,,,,,,,,,,,,,,,,,,,,150,,,,,,,,,,,,,,,,,,3,8,,,525.161,8,up,1.54,527.2004,1,0.3,"[2,1,3]",0.154150627,stimuli/card_10_transparent.png,10,8,0,8,0,1,,,,,,,,,,
,,,,667698fb3d4df0117e5b279d,B,2024-08-16_19h23.46.234,Slot Machine Game,2023.1.3,Win32,4.614674665,,,,,,,,,,,,,,,,,,,,,,,,,,,250,,,,,,,,,,,,,,,,,,3,8,,,528.6065,9,up,0.5155,529.6877,0.5,0.3,"[2,1,3]",0.247392556,stimuli/card_100_transparent.png,100,9,0,9,0,1,,,,,,,,,,
,,,,667698fb3d4df0117e5b279d,B,2024-08-16_19h23.46.234,Slot Machine Game,2023.1.3,Win32,4.614674665,,,,,,,,,,,,,,,,,,,,,,,,,,,260,,,,,,,,,,,,,,,,,,3,8,,,530.3872,10,up,0.516,531.4322,1.5,0.3,"[2,1,3]",0.114843676,stimuli/card_10_transparent.png,10,10,0,10,0,1,,,,,,,,,,
,,,,667698fb3d4df0117e5b279d,B,2024-08-16_19h23.46.234,Slot Machine Game,2023.1.3,Win32,4.614674665,,,,,,,,,,,,,,,,,,,,,,,,,,,270,,,,,,,,,,,,,,,,,,3,8,,,533.2197,11,up,0.5136,534.2313,1.5,0.3,"[1,2,3]",0.932101149,stimuli/card_10_transparent.png,10,11,0,11,0,1,,,,,,,,,,
,,,,667698fb3d4df0117e5b279d,B,2024-08-16_19h23.46.234,Slot Machine Game,2023.1.3,Win32,4.614674665,,,,,,,,,,,,,,,,,,,,,,,,,,,370,,,,,,,,,,,,,,,,,,3,8,,,536.0738,12,left,2.5632,539.1879,1.5,0.3,"[1,2,3]",0.814327709,stimuli/card_100_transparent.png,100,12,0,12,0,1,,,,,,,,,,
,,,,667698fb3d4df0117e5b279d,B,2024-08-16_19h23.46.234,Slot Machine Game,2023.1.3,Win32,4.614674665,,,,,,,,,,,,,,,,,,,,,,,,,,,470,,,,,,,,,,,,,,,,,,3,8,,,541.1475,13,left,0.5272,542.2026,1.5,0.3,"[1,2,3]",0.918602453,stimuli/card_100_transparent.png,100,13,0,13,0,1,,,,,,,,,,
,,,,667698fb3d4df0117e5b279d,B,2024-08-16_19h23.46.234,Slot Machine Game,2023.1.3,Win32,4.614674665,,,,,,,,,,,,,,,,,,,,,,,,,,,570,,,,,,,,,,,,,,,,,,3,8,,,544.047,14,left,1.94,546.5108,0.5,0.3,"[1,2,3]",0.69338516,stimuli/card_100_transparent.png,100,14,0,14,0,1,,,,,,,,,,
,,,,667698fb3d4df0117e5b279d,B,2024-08-16_19h23.46.234,Slot Machine Game,2023.1.3,Win32,4.614674665,,,,,,,,,,,,,,,,,,,,,,,,,,,,,,,,,,547.2272,,,,,,,,,,,,,,,,,,,,,,,,,,,,,,,"[640,1110,570]",2,0,2,0,1,,,,
,,,,667698fb3d4df0117e5b279d,B,2024-08-16_19h23.46.234,Slot Machine Game,2023.1.3,Win32,4.614674665,,,,,,,,,,,,,,,,,,,,,,,,,,,100,,,,,,,,,,,,,,,,,,4,1,"[12,15]","[[2,1,3],[2,3,1]]",552.1724,0,right,0.8528,553.5053,1.5,0.3,"[2,1,3]",0.099854386,stimuli/card_100_transparent.png,100,0,0,0,0,1,,,,,,,,,,
,,,,667698fb3d4df0117e5b279d,B,2024-08-16_19h23.46.234,Slot Machine Game,2023.1.3,Win32,4.614674665,,,,,,,,,,,,,,,,,,,,,,,,,,,100,,,,,,,,,,,,,,,,,,4,1,,,555.3181,1,right,2.5446,558.3534,0.5,0.3,"[2,1,3]",0.607201279,stimuli/card_0_transparent.png,0,1,0,1,0,1,,,,,,,,,,
,,,,667698fb3d4df0117e5b279d,B,2024-08-16_19h23.46.234,Slot Machine Game,2023.1.3,Win32,4.614674665,,,,,,,,,,,,,,,,,,,,,,,,,,,100,,,,,,,,,,,,,,,,,,4,1,,,559.0699,2,right,0.514,560.1,1.5,0.3,"[2,1,3]",0.520029039,stimuli/card_0_transparent.png,0,2,0,2,0,1,,,,,,,,,,
,,,,667698fb3d4df0117e5b279d,B,2024-08-16_19h23.46.234,Slot Machine Game,2023.1.3,Win32,4.614674665,,,,,,,,,,,,,,,,,,,,,,,,,,,200,,,,,,,,,,,,,,,,,,4,1,,,561.9261,3,left,0.5135,562.9357,1,0.3,"[2,1,3]",0.104876271,stimuli/card_100_transparent.png,100,3,0,3,0,1,,,,,,,,,,
,,,,667698fb3d4df0117e5b279d,B,2024-08-16_19h23.46.234,Slot Machine Game,2023.1.3,Win32,4.614674665,,,,,,,,,,,,,,,,,,,,,,,,,,,210,,,,,,,,,,,,,,,,,,4,1,,,564.352,4,left,2.2128,567.0893,1,0.3,"[2,1,3]",0.335639621,stimuli/card_10_transparent.png,10,4,0,4,0,1,,,,,,,,,,
,,,,667698fb3d4df0117e5b279d,B,2024-08-16_19h23.46.234,Slot Machine Game,2023.1.3,Win32,4.614674665,,,,,,,,,,,,,,,,,,,,,,,,,,,220,,,,,,,,,,,,,,,,,,4,1,,,568.5031,5,left,1.8691,570.8694,1.5,0.3,"[2,1,3]",0.962622096,stimuli/card_10_transparent.png,10,5,0,5,0,1,,,,,,,,,,
,,,,667698fb3d4df0117e5b279d,B,2024-08-16_19h23.46.234,Slot Machine Game,2023.1.3,Win32,4.614674665,,,,,,,,,,,,,,,,,,,,,,,,,,,320,,,,,,,,,,,,,,,,,,4,1,,,572.6279,6,up,0.5133,573.6668,1.5,0.3,"[2,1,3]",0.548633057,stimuli/card_100_transparent.png,100,6,0,6,0,1,,,,,,,,,,
,,,,667698fb3d4df0117e5b279d,B,2024-08-16_19h23.46.234,Slot Machine Game,2023.1.3,Win32,4.614674665,,,,,,,,,,,,,,,,,,,,,,,,,,,330,,,,,,,,,,,,,,,,,,4,1,,,575.1271,7,up,1.1854,576.797,0.5,0.3,"[2,1,3]",0.113702005,stimuli/card_10_transparent.png,10,7,0,7,0,1,,,,,,,,,,
,,,,667698fb3d4df0117e5b279d,B,2024-08-16_19h23.46.234,Slot Machine Game,2023.1.3,Win32,4.614674665,,,,,,,,,,,,,,,,,,,,,,,,,,,430,,,,,,,,,,,,,,,,,,4,1,,,577.503,8,up,0.5136,578.5057,0.5,0.3,"[2,1,3]",0.589481777,stimuli/card_100_transparent.png,100,8,0,8,0,1,,,,,,,,,,
,,,,667698fb3d4df0117e5b279d,B,2024-08-16_19h23.46.234,Slot Machine Game,2023.1.3,Win32,4.614674665,,,,,,,,,,,,,,,,,,,,,,,,,,,430,,,,,,,,,,,,,,,,,,4,1,,,579.2082,9,up,1.5563,581.2774,1.5,0.3,"[2,1,3]",0.02688485,stimuli/card_0_transparent.png,0,9,0,9,0,1,,,,,,,,,,
,,,,667698fb3d4df0117e5b279d,B,2024-08-16_19h23.46.234,Slot Machine Game,2023.1.3,Win32,4.614674665,,,,,,,,,,,,,,,,,,,,,,,,,,,440,,,,,,,,,,,,,,,,,,4,1,,,583.0577,10,left,1.5229,585.0699,0.5,0.3,"[2,1,3]",0.949886191,stimuli/card_10_transparent.png,10,10,0,10,0,1,,,,,,,,,,
,,,,667698fb3d4df0117e5b279d,B,2024-08-16_19h23.46.234,Slot Machine Game,2023.1.3,Win32,4.614674665,,,,,,,,,,,,,,,,,,,,,,,,,,,450,,,,,,,,,,,,,,,,,,4,1,,,585.7904,11,up,0.8485,587.1703,1.5,0.3,"[2,1,3]",0.100624333,stimuli/card_10_transparent.png,10,11,0,11,0,1,,,,,,,,,,
,,,,667698fb3d4df0117e5b279d,B,2024-08-16_19h23.46.234,Slot Machine Game,2023.1.3,Win32,4.614674665,,,,,,,,,,,,,,,,,,,,,,,,,,,460,,,,,,,,,,,,,,,,,,4,1,,,588.928,12,up,0.8587,590.2742,1,0.3,"[2,3,1]",0.119888863,stimuli/card_10_transparent.png,10,12,0,12,0,1,,,,,,,,,,
,,,,667698fb3d4df0117e5b279d,B,2024-08-16_19h23.46.234,Slot Machine Game,2023.1.3,Win32,4.614674665,,,,,,,,,,,,,,,,,,,,,,,,,,,560,,,,,,,,,,,,,,,,,,4,1,,,591.676,13,right,0.8401,593.0243,1.5,0.3,"[2,3,1]",0.429234813,stimuli/card_100_transparent.png,100,13,0,13,0,1,,,,,,,,,,
,,,,667698fb3d4df0117e5b279d,B,2024-08-16_19h23.46.234,Slot Machine Game,2023.1.3,Win32,4.614674665,,,,,,,,,,,,,,,,,,,,,,,,,,,560,,,,,,,,,,,,,,,,,,4,1,,,594.7998,14,right,0.5134,595.821,0.5,0.3,"[2,3,1]",0.028853104,stimuli/card_0_transparent.png,0,14,0,14,0,1,,,,,,,,,,
,,,,667698fb3d4df0117e5b279d,B,2024-08-16_19h23.46.234,Slot Machine Game,2023.1.3,Win32,4.614674665,,,,,,,,,,,,,,,,,,,,,,,,,,,,,,,,,,596.5192,,,,,,,,,,,,,,,,,,,,,,,,,,,,,,,"[640,1110,570,560]",3,0,3,0,1,,,,
,,,,667698fb3d4df0117e5b279d,B,2024-08-16_19h23.46.234,Slot Machine Game,2023.1.3,Win32,4.614674665,,,,,,,,,,,,,,,,,,,,,,,,,,,10,,,,,,,,,,,,,,,,,,5,2,"[6,15]","[[1,3,2],[3,2,1]]",601.6073,0,right,0.5137,602.6095,1,0.3,"[1,3,2]",0.935154353,stimuli/card_10_transparent.png,10,0,0,0,0,1,,,,,,,,,,
,,,,667698fb3d4df0117e5b279d,B,2024-08-16_19h23.46.234,Slot Machine Game,2023.1.3,Win32,4.614674665,,,,,,,,,,,,,,,,,,,,,,,,,,,20,,,,,,,,,,,,,,,,,,5,2,,,604.0185,1,right,1.5408,606.0743,0.5,0.3,"[1,3,2]",0.69033663,stimuli/card_10_transparent.png,10,1,0,1,0,1,,,,,,,,,,
,,,,667698fb3d4df0117e5b279d,B,2024-08-16_19h23.46.234,Slot Machine Game,2023.1.3,Win32,4.614674665,,,,,,,,,,,,,,,,,,,,,,,,,,,120,,,,,,,,,,,,,,,,,,5,2,,,606.7794,2,right,0.8442,608.149,1.5,0.3,"[1,3,2]",0.127822539,stimuli/card_100_transparent.png,100,2,0,2,0,1,,,,,,,,,,
,,,,667698fb3d4df0117e5b279d,B,2024-08-16_19h23.46.234,Slot Machine Game,2023.1.3,Win32,4.614674665,,,,,,,,,,,,,,,,,,,,,,,,,,,130,,,,,,,,,,,,,,,,,,5,2,,,609.913,3,right,0.8622,611.284,0.5,0.3,"[1,3,2]",0.239449867,stimuli/card_10_transparent.png,10,3,0,3,0,1,,,,,,,,,,
,,,,667698fb3d4df0117e5b279d,B,2024-08-16_19h23.46.234,Slot Machine Game,2023.1.3,Win32,4.614674665,,,,,,,,,,,,,,,,,,,,,,,,,,,140,,,,,,,,,,,,,,,,,,5,2,,,611.9798,4,right,1.2232,613.7196,0.5,0.3,"[1,3,2]",0.62587854,stimuli/card_10_transparent.png,10,4,0,4,0,1,,,,,,,,,,
,,,,667698fb3d4df0117e5b279d,B,2024-08-16_19h23.46.234,Slot Machine Game,2023.1.3,Win32,4.614674665,,,,,,,,,,,,,,,,,,,,,,,,,,,240,,,,,,,,,,,,,,,,,,5,2,,,614.4362,5,left,1.2079,616.1386,0.5,0.3,"[1,3,2]",0.72263801,stimuli/card_100_transparent.png,100,5,0,5,0,1,,,,,,,,,,
,,,,667698fb3d4df0117e5b279d,B,2024-08-16_19h23.46.234,Slot Machine Game,2023.1.3,Win32,4.614674665,,,,,,,,,,,,,,,,,,,,,,,,,,,240,,,,,,,,,,,,,,,,,,5,2,,,616.8323,6,left,0.5139,617.8314,1.5,0.3,"[3,2,1]",0.602962953,stimuli/card_0_transparent.png,0,6,0,6,0,1,,,,,,,,,,
,,,,667698fb3d4df0117e5b279d,B,2024-08-16_19h23.46.234,Slot Machine Game,2023.1.3,Win32,4.614674665,,,,,,,,,,,,,,,,,,,,,,,,,,,240,,,,,,,,,,,,,,,,,,5,2,,,619.6474,7,left,0.5143,620.657,1,0.3,"[3,2,1]",0.825315017,stimuli/card_0_transparent.png,0,7,0,7,0,1,,,,,,,,,,
,,,,667698fb3d4df0117e5b279d,B,2024-08-16_19h23.46.234,Slot Machine Game,2023.1.3,Win32,4.614674665,,,,,,,,,,,,,,,,,,,,,,,,,,,240,,,,,,,,,,,,,,,,,,5,2,,,621.7325,8,left,0.5138,622.7365,1,0.3,"[3,2,1]",0.83552187,stimuli/card_0_transparent.png,0,8,0,8,0,1,,,,,,,,,,
,,,,667698fb3d4df0117e5b279d,B,2024-08-16_19h23.46.234,Slot Machine Game,2023.1.3,Win32,4.614674665,,,,,,,,,,,,,,,,,,,,,,,,,,,250,,,,,,,,,,,,,,,,,,5,2,,,623.8131,9,up,1.5269,625.8413,0.5,0.3,"[3,2,1]",0.763028784,stimuli/card_10_transparent.png,10,9,0,9,0,1,,,,,,,,,,
,,,,667698fb3d4df0117e5b279d,B,2024-08-16_19h23.46.234,Slot Machine Game,2023.1.3,Win32,4.614674665,,,,,,,,,,,,,,,,,,,,,,,,,,,250,,,,,,,,,,,,,,,,,,5,2,,,626.5703,10,up,0.5139,627.5903,0.5,0.3,"[3,2,1]",0.077729682,stimuli/card_0_transparent.png,0,10,0,10,0,1,,,,,,,,,,
,,,,667698fb3d4df0117e5b279d,B,2024-08-16_19h23.46.234,Slot Machine Game,2023.1.3,Win32,4.614674665,,,,,,,,,,,,,,,,,,,,,,,,,,,260,,,,,,,,,,,,,,,,,,5,2,,,628.2743,11,up,0.5136,629.3394,0.5,0.3,"[3,2,1]",0.469323299,stimuli/card_10_transparent.png,10,11,0,11,0,1,,,,,,,,,,
,,,,667698fb3d4df0117e5b279d,B,2024-08-16_19h23.46.234,Slot Machine Game,2023.1.3,Win32,4.614674665,,,,,,,,,,,,,,,,,,,,,,,,,,,270,,,,,,,,,,,,,,,,,,5,2,,,630.0376,12,up,0.5144,631.0281,1,0.3,"[3,2,1]",0.744456376,stimuli/card_10_transparent.png,10,12,0,12,0,1,,,,,,,,,,
,,,,667698fb3d4df0117e5b279d,B,2024-08-16_19h23.46.234,Slot Machine Game,2023.1.3,Win32,4.614674665,,,,,,,,,,,,,,,,,,,,,,,,,,,370,,,,,,,,,,,,,,,,,,5,2,,,631.7703,13,right,0.5136,632.7707,1.5,0.3,"[3,2,1]",0.914554676,stimuli/card_100_transparent.png,100,13,0,13,0,1,,,,,,,,,,
,,,,667698fb3d4df0117e5b279d,B,2024-08-16_19h23.46.234,Slot Machine Game,2023.1.3,Win32,4.614674665,,,,,,,,,,,,,,,,,,,,,,,,,,,370,,,,,,,,,,,,,,,,,,5,2,,,634.6232,14,right,0.5155,635.6205,1.5,0.3,"[3,2,1]",0.036412718,stimuli/card_0_transparent.png,0,14,0,14,0,1,,,,,,,,,,
,,,,667698fb3d4df0117e5b279d,B,2024-08-16_19h23.46.234,Slot Machine Game,2023.1.3,Win32,4.614674665,,,,,,,,,,,,,,,,,,,,,,,,,,,,,,,,,,637.3738,,,,,,,,,,,,,,,,,,,,,,,,,,,,,,,"[640,1110,570,560,370]",4,0,4,0,1,,,,
,,,,667698fb3d4df0117e5b279d,B,2024-08-16_19h23.46.234,Slot Machine Game,2023.1.3,Win32,4.614674665,,,,,,,,,,,,,,,,,,,,,,,,,,,100,,,,,,,,,,,,,,,,,,6,4,"[7,15]","[[2,3,1],[1,2,3]]",642.4239,0,right,0.5132,643.4302,1.5,0.3,"[2,3,1]",0.843412773,stimuli/card_100_transparent.png,100,0,0,0,0,1,,,,,,,,,,
,,,,667698fb3d4df0117e5b279d,B,2024-08-16_19h23.46.234,Slot Machine Game,2023.1.3,Win32,4.614674665,,,,,,,,,,,,,,,,,,,,,,,,,,,200,,,,,,,,,,,,,,,,,,6,4,,,645.211,1,right,0.5139,646.2182,1,0.3,"[2,3,1]",0.295623198,stimuli/card_100_transparent.png,100,1,0,1,0,1,,,,,,,,,,
,,,,667698fb3d4df0117e5b279d,B,2024-08-16_19h23.46.234,Slot Machine Game,2023.1.3,Win32,4.614674665,,,,,,,,,,,,,,,,,,,,,,,,,,,300,,,,,,,,,,,,,,,,,,6,4,,,647.0093,2,right,0.515,648.0146,1.5,0.3,"[2,3,1]",0.935043366,stimuli/card_100_transparent.png,100,2,0,2,0,1,,,,,,,,,,
,,,,667698fb3d4df0117e5b279d,B,2024-08-16_19h23.46.234,Slot Machine Game,2023.1.3,Win32,4.614674665,,,,,,,,,,,,,,,,,,,,,,,,,,,400,,,,,,,,,,,,,,,,,,6,4,,,649.8387,3,right,0.5169,650.8942,1.5,0.3,"[2,3,1]",0.585990746,stimuli/card_100_transparent.png,100,3,0,3,0,1,,,,,,,,,,
,,,,667698fb3d4df0117e5b279d,B,2024-08-16_19h23.46.234,Slot Machine Game,2023.1.3,Win32,4.614674665,,,,,,,,,,,,,,,,,,,,,,,,,,,410,,,,,,,,,,,,,,,,,,6,4,,,652.7371,4,right,0.5163,653.8059,1,0.3,"[2,3,1]",0.190739896,stimuli/card_10_transparent.png,10,4,0,4,0,1,,,,,,,,,,
,,,,667698fb3d4df0117e5b279d,B,2024-08-16_19h23.46.234,Slot Machine Game,2023.1.3,Win32,4.614674665,,,,,,,,,,,,,,,,,,,,,,,,,,,510,,,,,,,,,,,,,,,,,,6,4,,,655.2332,5,right,0.5182,656.3103,1,0.3,"[2,3,1]",0.572597264,stimuli/card_100_transparent.png,100,5,0,5,0,1,,,,,,,,,,
,,,,667698fb3d4df0117e5b279d,B,2024-08-16_19h23.46.234,Slot Machine Game,2023.1.3,Win32,4.614674665,,,,,,,,,,,,,,,,,,,,,,,,,,,510,,,,,,,,,,,,,,,,,,6,4,,,657.4349,6,right,0.5155,658.4537,0.5,0.3,"[2,3,1]",0.090398994,stimuli/card_0_transparent.png,0,6,0,6,0,1,,,,,,,,,,
,,,,667698fb3d4df0117e5b279d,B,2024-08-16_19h23.46.234,Slot Machine Game,2023.1.3,Win32,4.614674665,,,,,,,,,,,,,,,,,,,,,,,,,,,510,,,,,,,,,,,,,,,,,,6,4,,,659.1703,7,right,0.5143,660.2119,0.5,0.3,"[1,2,3]",0.32844203,stimuli/card_0_transparent.png,0,7,0,7,0,1,,,,,,,,,,
,,,,667698fb3d4df0117e5b279d,B,2024-08-16_19h23.46.234,Slot Machine Game,2023.1.3,Win32,4.614674665,,,,,,,,,,,,,,,,,,,,,,,,,,,610,,,,,,,,,,,,,,,,,,6,4,,,660.9155,8,right,0.5141,661.9375,0.5,0.3,"[1,2,3]",0.066953934,stimuli/card_100_transparent.png,100,8,0,8,0,1,,,,,,,,,,
,,,,667698fb3d4df0117e5b279d,B,2024-08-16_19h23.46.234,Slot Machine Game,2023.1.3,Win32,4.614674665,,,,,,,,,,,,,,,,,,,,,,,,,,,610,,,,,,,,,,,,,,,,,,6,4,,,662.6438,9,right,0.5147,663.6503,1.5,0.3,"[1,2,3]",0.899481447,stimuli/card_0_transparent.png,0,9,0,9,0,1,,,,,,,,,,
,,,,667698fb3d4df0117e5b279d,B,2024-08-16_19h23.46.234,Slot Machine Game,2023.1.3,Win32,4.614674665,,,,,,,,,,,,,,,,,,,,,,,,,,,610,,,,,,,,,,,,,,,,,,6,4,,,665.4297,10,right,0.5155,666.4321,1.5,0.3,"[1,2,3]",0.522211036,stimuli/card_0_transparent.png,0,10,0,10,0,1,,,,,,,,,,
,,,,667698fb3d4df0117e5b279d,B,2024-08-16_19h23.46.234,Slot Machine Game,2023.1.3,Win32,4.614674665,,,,,,,,,,,,,,,,,,,,,,,,,,,710,,,,,,,,,,,,,,,,,,6,4,,,668.2011,11,right,0.514,669.2458,1.5,0.3,"[1,2,3]",0.069017101,stimuli/card_100_transparent.png,100,11,0,11,0,1,,,,,,,,,,
,,,,667698fb3d4df0117e5b279d,B,2024-08-16_19h23.46.234,Slot Machine Game,2023.1.3,Win32,4.614674665,,,,,,,,,,,,,,,,,,,,,,,,,,,710,,,,,,,,,,,,,,,,,,6,4,,,671.0334,12,right,0.515,672.0357,1,0.3,"[1,2,3]",0.397570363,stimuli/card_0_transparent.png,0,12,0,12,0,1,,,,,,,,,,
,,,,667698fb3d4df0117e5b279d,B,2024-08-16_19h23.46.234,Slot Machine Game,2023.1.3,Win32,4.614674665,,,,,,,,,,,,,,,,,,,,,,,,,,,710,,,,,,,,,,,,,,,,,,6,4,,,673.4437,13,right,0.5142,674.4696,0.5,0.3,"[1,2,3]",0.608933792,stimuli/card_0_transparent.png,0,13,0,13,0,1,,,,,,,,,,
,,,,667698fb3d4df0117e5b279d,B,2024-08-16_19h23.46.234,Slot Machine Game,2023.1.3,Win32,4.614674665,,,,,,,,,,,,,,,,,,,,,,,,,,,810,,,,,,,,,,,,,,,,,,6,4,,,675.1716,14,left,0.5137,676.1722,0.5,0.3,"[1,2,3]",0.31330059,stimuli/card_100_transparent.png,100,14,0,14,0,1,,,,,,,,,,
,,,,667698fb3d4df0117e5b279d,B,2024-08-16_19h23.46.234,Slot Machine Game,2023.1.3,Win32,4.614674665,,,,,,,,,,,,,,,,,,,,,,,,,,,,,,,,,,676.8702,,,,,,,,,,,,,,,,,,,,,,,,,,,,,,,"[640,1110,570,560,370,810]",5,0,5,0,1,,,,
,,,,667698fb3d4df0117e5b279d,B,2024-08-16_19h23.46.234,Slot Machine Game,2023.1.3,Win32,4.614674665,,,,,,,,,,,,,,,,,,,,,,,,,,,10,,,,,,,,,,,,,,,,,,7,10,"[10,15]","[[3,1,2],[1,3,2]]",681.687,0,up,0.5142,682.6818,1.5,0.3,"[3,1,2]",0.182509744,stimuli/card_10_transparent.png,10,0,0,0,0,1,,,,,,,,,,
,,,,667698fb3d4df0117e5b279d,B,2024-08-16_19h23.46.234,Slot Machine Game,2023.1.3,Win32,4.614674665,,,,,,,,,,,,,,,,,,,,,,,,,,,110,,,,,,,,,,,,,,,,,,7,10,,,684.4466,1,up,0.5159,685.4823,1,0.3,"[3,1,2]",0.860362704,stimuli/card_100_transparent.png,100,1,0,1,0,1,,,,,,,,,,
,,,,667698fb3d4df0117e5b279d,B,2024-08-16_19h23.46.234,Slot Machine Game,2023.1.3,Win32,4.614674665,,,,,,,,,,,,,,,,,,,,,,,,,,,210,,,,,,,,,,,,,,,,,,7,10,,,686.5499,2,up,0.514,687.5605,0.5,0.3,"[3,1,2]",0.616416936,stimuli/card_100_transparent.png,100,2,0,2,0,1,,,,,,,,,,
,,,,667698fb3d4df0117e5b279d,B,2024-08-16_19h23.46.234,Slot Machine Game,2023.1.3,Win32,4.614674665,,,,,,,,,,,,,,,,,,,,,,,,,,,310,,,,,,,,,,,,,,,,,,7,10,,,688.2542,3,up,0.5136,689.256,1.5,0.3,"[3,1,2]",0.250423961,stimuli/card_100_transparent.png,100,3,0,3,0,1,,,,,,,,,,
,,,,667698fb3d4df0117e5b279d,B,2024-08-16_19h23.46.234,Slot Machine Game,2023.1.3,Win32,4.614674665,,,,,,,,,,,,,,,,,,,,,,,,,,,410,,,,,,,,,,,,,,,,,,7,10,,,691.0122,4,up,0.5145,692.0215,0.5,0.3,"[3,1,2]",0.948150272,stimuli/card_100_transparent.png,100,4,0,4,0,1,,,,,,,,,,
,,,,667698fb3d4df0117e5b279d,B,2024-08-16_19h23.46.234,Slot Machine Game,2023.1.3,Win32,4.614674665,,,,,,,,,,,,,,,,,,,,,,,,,,,420,,,,,,,,,,,,,,,,,,7,10,,,692.7199,5,up,0.5157,693.7472,1.5,0.3,"[3,1,2]",0.129268059,stimuli/card_10_transparent.png,10,5,0,5,0,1,,,,,,,,,,
,,,,667698fb3d4df0117e5b279d,B,2024-08-16_19h23.46.234,Slot Machine Game,2023.1.3,Win32,4.614674665,,,,,,,,,,,,,,,,,,,,,,,,,,,520,,,,,,,,,,,,,,,,,,7,10,,,695.5161,6,up,0.5141,696.5255,0.5,0.3,"[3,1,2]",0.54457969,stimuli/card_100_transparent.png,100,6,0,6,0,1,,,,,,,,,,
,,,,667698fb3d4df0117e5b279d,B,2024-08-16_19h23.46.234,Slot Machine Game,2023.1.3,Win32,4.614674665,,,,,,,,,,,,,,,,,,,,,,,,,,,620,,,,,,,,,,,,,,,,,,7,10,,,697.2177,7,up,0.5149,698.2635,0.5,0.3,"[3,1,2]",0.683913052,stimuli/card_100_transparent.png,100,7,0,7,0,1,,,,,,,,,,
,,,,667698fb3d4df0117e5b279d,B,2024-08-16_19h23.46.234,Slot Machine Game,2023.1.3,Win32,4.614674665,,,,,,,,,,,,,,,,,,,,,,,,,,,720,,,,,,,,,,,,,,,,,,7,10,,,698.9603,8,up,0.5151,699.982,1.5,0.3,"[3,1,2]",0.814414462,stimuli/card_100_transparent.png,100,8,0,8,0,1,,,,,,,,,,
,,,,667698fb3d4df0117e5b279d,B,2024-08-16_19h23.46.234,Slot Machine Game,2023.1.3,Win32,4.614674665,,,,,,,,,,,,,,,,,,,,,,,,,,,820,,,,,,,,,,,,,,,,,,7,10,,,701.7451,9,up,0.5144,702.7774,1.5,0.3,"[3,1,2]",0.479809456,stimuli/card_100_transparent.png,100,9,0,9,0,1,,,,,,,,,,
,,,,667698fb3d4df0117e5b279d,B,2024-08-16_19h23.46.234,Slot Machine Game,2023.1.3,Win32,4.614674665,,,,,,,,,,,,,,,,,,,,,,,,,,,830,,,,,,,,,,,,,,,,,,7,10,,,704.5433,10,up,0.5154,705.5895,1,0.3,"[1,3,2]",0.17892573,stimuli/card_10_transparent.png,10,10,0,10,0,1,,,,,,,,,,
,,,,667698fb3d4df0117e5b279d,B,2024-08-16_19h23.46.234,Slot Machine Game,2023.1.3,Win32,4.614674665,,,,,,,,,,,,,,,,,,,,,,,,,,,830,,,,,,,,,,,,,,,,,,7,10,,,706.7016,11,up,0.5142,707.7114,1,0.3,"[1,3,2]",0.644232502,stimuli/card_0_transparent.png,0,11,0,11,0,1,,,,,,,,,,
,,,,667698fb3d4df0117e5b279d,B,2024-08-16_19h23.46.234,Slot Machine Game,2023.1.3,Win32,4.614674665,,,,,,,,,,,,,,,,,,,,,,,,,,,830,,,,,,,,,,,,,,,,,,7,10,,,709.1258,12,up,0.8676,710.4761,0.5,0.3,"[1,3,2]",0.464408249,stimuli/card_0_transparent.png,0,12,0,12,0,1,,,,,,,,,,
,,,,667698fb3d4df0117e5b279d,B,2024-08-16_19h23.46.234,Slot Machine Game,2023.1.3,Win32,4.614674665,,,,,,,,,,,,,,,,,,,,,,,,,,,840,,,,,,,,,,,,,,,,,,7,10,,,711.1699,13,left,0.5135,712.1665,0.5,0.3,"[1,3,2]",0.129112636,stimuli/card_10_transparent.png,10,13,0,13,0,1,,,,,,,,,,
,,,,667698fb3d4df0117e5b279d,B,2024-08-16_19h23.46.234,Slot Machine Game,2023.1.3,Win32,4.614674665,,,,,,,,,,,,,,,,,,,,,,,,,,,850,,,,,,,,,,,,,,,,,,7,10,,,712.8701,14,left,0.514,713.8881,0.5,0.3,"[1,3,2]",0.146458402,stimuli/card_10_transparent.png,10,14,0,14,0,1,,,,,,,,,,
,,,,667698fb3d4df0117e5b279d,B,2024-08-16_19h23.46.234,Slot Machine Game,2023.1.3,Win32,4.614674665,,,,,,,,,,,,,,,,,,,,,,,,,,,,,,,,,,714.5939,,,,,,,,,,,,,,,,,,,,,,,,,,,,,,,"[640,1110,570,560,370,810,850]",6,0,6,0,1,,,,
,,,,667698fb3d4df0117e5b279d,B,2024-08-16_19h23.46.234,Slot Machine Game,2023.1.3,Win32,4.614674665,,,,,,,,,,,,,,,,,,,,,,,,,,,0,,,,,,,,,,,,,,,,,,8,7,"[9,15]","[[1,3,2],[2,3,1]]",719.6553,0,right,0.8485,721.0018,1,0.3,"[1,3,2]",0.026096195,stimuli/card_0_transparent.png,0,0,0,0,0,1,,,,,,,,,,
,,,,667698fb3d4df0117e5b279d,B,2024-08-16_19h23.46.234,Slot Machine Game,2023.1.3,Win32,4.614674665,,,,,,,,,,,,,,,,,,,,,,,,,,,100,,,,,,,,,,,,,,,,,,8,7,,,722.0722,1,right,0.5135,723.0785,1.5,0.3,"[1,3,2]",0.168795457,stimuli/card_100_transparent.png,100,1,0,1,0,1,,,,,,,,,,
,,,,667698fb3d4df0117e5b279d,B,2024-08-16_19h23.46.234,Slot Machine Game,2023.1.3,Win32,4.614674665,,,,,,,,,,,,,,,,,,,,,,,,,,,110,,,,,,,,,,,,,,,,,,8,7,,,724.9048,2,right,2.8791,728.2841,1,0.3,"[1,3,2]",0.305239945,stimuli/card_10_transparent.png,10,2,0,2,0,1,,,,,,,,,,
,,,,667698fb3d4df0117e5b279d,B,2024-08-16_19h23.46.234,Slot Machine Game,2023.1.3,Win32,4.614674665,,,,,,,,,,,,,,,,,,,,,,,,,,,120,,,,,,,,,,,,,,,,,,8,7,,,729.3499,3,right,0.5148,730.3797,1,0.3,"[1,3,2]",0.736048034,stimuli/card_10_transparent.png,10,3,0,3,0,1,,,,,,,,,,
,,,,667698fb3d4df0117e5b279d,B,2024-08-16_19h23.46.234,Slot Machine Game,2023.1.3,Win32,4.614674665,,,,,,,,,,,,,,,,,,,,,,,,,,,130,,,,,,,,,,,,,,,,,,8,7,,,731.787,4,right,2.2663,734.5605,1.5,0.3,"[1,3,2]",0.289495372,stimuli/card_10_transparent.png,10,4,0,4,0,1,,,,,,,,,,
,,,,667698fb3d4df0117e5b279d,B,2024-08-16_19h23.46.234,Slot Machine Game,2023.1.3,Win32,4.614674665,,,,,,,,,,,,,,,,,,,,,,,,,,,140,,,,,,,,,,,,,,,,,,8,7,,,736.3433,5,right,0.5161,737.3597,1,0.3,"[1,3,2]",0.915367125,stimuli/card_10_transparent.png,10,5,0,5,0,1,,,,,,,,,,
,,,,667698fb3d4df0117e5b279d,B,2024-08-16_19h23.46.234,Slot Machine Game,2023.1.3,Win32,4.614674665,,,,,,,,,,,,,,,,,,,,,,,,,,,150,,,,,,,,,,,,,,,,,,8,7,,,738.7924,6,right,0.5154,739.8669,1.5,0.3,"[1,3,2]",0.813871606,stimuli/card_10_transparent.png,10,6,0,6,0,1,,,,,,,,,,
,,,,667698fb3d4df0117e5b279d,B,2024-08-16_19h23.46.234,Slot Machine Game,2023.1.3,Win32,4.614674665,,,,,,,,,,,,,,,,,,,,,,,,,,,250,,,,,,,,,,,,,,,,,,8,7,,,741.6861,7,left,1.8631,744.0468,1.5,0.3,"[1,3,2]",0.737235263,stimuli/card_100_transparent.png,100,7,0,7,0,1,,,,,,,,,,
,,,,667698fb3d4df0117e5b279d,B,2024-08-16_19h23.46.234,Slot Machine Game,2023.1.3,Win32,4.614674665,,,,,,,,,,,,,,,,,,,,,,,,,,,350,,,,,,,,,,,,,,,,,,8,7,,,745.8046,8,left,0.5135,746.8077,1.5,0.3,"[1,3,2]",0.866792881,stimuli/card_100_transparent.png,100,8,0,8,0,1,,,,,,,,,,
,,,,667698fb3d4df0117e5b279d,B,2024-08-16_19h23.46.234,Slot Machine Game,2023.1.3,Win32,4.614674665,,,,,,,,,,,,,,,,,,,,,,,,,,,450,,,,,,,,,,,,,,,,,,8,7,,,748.6072,9,left,0.8625,749.9577,1.5,0.3,"[2,3,1]",0.172288786,stimuli/card_100_transparent.png,100,9,0,9,0,1,,,,,,,,,,
,,,,667698fb3d4df0117e5b279d,B,2024-08-16_19h23.46.234,Slot Machine Game,2023.1.3,Win32,4.614674665,,,,,,,,,,,,,,,,,,,,,,,,,,,450,,,,,,,,,,,,,,,,,,8,7,,,751.721,10,left,0.5136,752.7259,0.5,0.3,"[2,3,1]",0.015731594,stimuli/card_0_transparent.png,0,10,0,10,0,1,,,,,,,,,,
,,,,667698fb3d4df0117e5b279d,B,2024-08-16_19h23.46.234,Slot Machine Game,2023.1.3,Win32,4.614674665,,,,,,,,,,,,,,,,,,,,,,,,,,,460,,,,,,,,,,,,,,,,,,8,7,,,753.4343,11,left,0.5137,754.4451,0.5,0.3,"[2,3,1]",0.793844457,stimuli/card_10_transparent.png,10,11,0,11,0,1,,,,,,,,,,
,,,,667698fb3d4df0117e5b279d,B,2024-08-16_19h23.46.234,Slot Machine Game,2023.1.3,Win32,4.614674665,,,,,,,,,,,,,,,,,,,,,,,,,,,470,,,,,,,,,,,,,,,,,,8,7,,,755.1784,12,left,1.5102,757.187,1,0.3,"[2,3,1]",0.462044933,stimuli/card_10_transparent.png,10,12,0,12,0,1,,,,,,,,,,
,,,,667698fb3d4df0117e5b279d,B,2024-08-16_19h23.46.234,Slot Machine Game,2023.1.3,Win32,4.614674665,,,,,,,,,,,,,,,,,,,,,,,,,,,480,,,,,,,,,,,,,,,,,,8,7,,,758.6082,13,left,1.8551,760.9615,0.5,0.3,"[2,3,1]",0.807152822,stimuli/card_10_transparent.png,10,13,0,13,0,1,,,,,,,,,,
,,,,667698fb3d4df0117e5b279d,B,2024-08-16_19h23.46.234,Slot Machine Game,2023.1.3,Win32,4.614674665,,,,,,,,,,,,,,,,,,,,,,,,,,,490,,,,,,,,,,,,,,,,,,8,7,,,761.6597,14,left,0.5138,762.6699,1.5,0.3,"[2,3,1]",0.396664145,stimuli/card_10_transparent.png,10,14,0,14,0,1,,,,,,,,,,
,,,,667698fb3d4df0117e5b279d,B,2024-08-16_19h23.46.234,Slot Machine Game,2023.1.3,Win32,4.614674665,,,,,,,,,,,,,,,,,,,,,,,,,,,,,,,,,,764.4257,,,,,,,,,,,,,,,,,,,,,,,,,,,,,,,"[640,1110,570,560,370,810,850,490]",7,0,7,0,1,,,,
,,,,667698fb3d4df0117e5b279d,B,2024-08-16_19h23.46.234,Slot Machine Game,2023.1.3,Win32,4.614674665,,,,,,,,,,,,,,,,,,,,,,,,,,,0,,,,,,,,,,,,,,,,,,9,9,"[8,15]","[[3,2,1],[3,1,2]]",769.5078,0,right,1.181,771.1681,1.5,0.3,"[3,2,1]",0.047170366,stimuli/card_0_transparent.png,0,0,0,0,0,1,,,,,,,,,,
,,,,667698fb3d4df0117e5b279d,B,2024-08-16_19h23.46.234,Slot Machine Game,2023.1.3,Win32,4.614674665,,,,,,,,,,,,,,,,,,,,,,,,,,,100,,,,,,,,,,,,,,,,,,9,9,,,772.9499,1,right,2.2434,775.6837,1,0.3,"[3,2,1]",0.96419735,stimuli/card_100_transparent.png,100,1,0,1,0,1,,,,,,,,,,
,,,,667698fb3d4df0117e5b279d,B,2024-08-16_19h23.46.234,Slot Machine Game,2023.1.3,Win32,4.614674665,,,,,,,,,,,,,,,,,,,,,,,,,,,110,,,,,,,,,,,,,,,,,,9,9,,,777.0903,2,up,1.1966,778.8046,1.5,0.3,"[3,2,1]",0.587011415,stimuli/card_10_transparent.png,10,2,0,2,0,1,,,,,,,,,,
,,,,667698fb3d4df0117e5b279d,B,2024-08-16_19h23.46.234,Slot Machine Game,2023.1.3,Win32,4.614674665,,,,,,,,,,,,,,,,,,,,,,,,,,,110,,,,,,,,,,,,,,,,,,9,9,,,780.5971,3,up,0.5157,781.6094,0.5,0.3,"[3,2,1]",0.021454165,stimuli/card_0_transparent.png,0,3,0,3,0,1,,,,,,,,,,
,,,,667698fb3d4df0117e5b279d,B,2024-08-16_19h23.46.234,Slot Machine Game,2023.1.3,Win32,4.614674665,,,,,,,,,,,,,,,,,,,,,,,,,,,210,,,,,,,,,,,,,,,,,,9,9,,,782.3187,4,right,0.5137,783.34,1.5,0.3,"[3,2,1]",0.603307993,stimuli/card_100_transparent.png,100,4,0,4,0,1,,,,,,,,,,
,,,,667698fb3d4df0117e5b279d,B,2024-08-16_19h23.46.234,Slot Machine Game,2023.1.3,Win32,4.614674665,,,,,,,,,,,,,,,,,,,,,,,,,,,310,,,,,,,,,,,,,,,,,,9,9,,,785.1474,5,right,1.8671,787.5593,0.5,0.3,"[3,2,1]",0.297143671,stimuli/card_100_transparent.png,100,5,0,5,0,1,,,,,,,,,,
,,,,667698fb3d4df0117e5b279d,B,2024-08-16_19h23.46.234,Slot Machine Game,2023.1.3,Win32,4.614674665,,,,,,,,,,,,,,,,,,,,,,,,,,,410,,,,,,,,,,,,,,,,,,9,9,,,788.2651,6,right,0.5169,789.2833,1,0.3,"[3,2,1]",0.75023676,stimuli/card_100_transparent.png,100,6,0,6,0,1,,,,,,,,,,
,,,,667698fb3d4df0117e5b279d,B,2024-08-16_19h23.46.234,Slot Machine Game,2023.1.3,Win32,4.614674665,,,,,,,,,,,,,,,,,,,,,,,,,,,420,,,,,,,,,,,,,,,,,,9,9,,,790.6813,7,right,0.5148,791.6935,1.5,0.3,"[3,2,1]",0.163142231,stimuli/card_10_transparent.png,10,7,0,7,0,1,,,,,,,,,,
,,,,667698fb3d4df0117e5b279d,B,2024-08-16_19h23.46.234,Slot Machine Game,2023.1.3,Win32,4.614674665,,,,,,,,,,,,,,,,,,,,,,,,,,,430,,,,,,,,,,,,,,,,,,9,9,,,793.5259,8,right,0.5139,794.5504,0.5,0.3,"[3,1,2]",0.909764354,stimuli/card_10_transparent.png,10,8,0,8,0,1,,,,,,,,,,
,,,,667698fb3d4df0117e5b279d,B,2024-08-16_19h23.46.234,Slot Machine Game,2023.1.3,Win32,4.614674665,,,,,,,,,,,,,,,,,,,,,,,,,,,530,,,,,,,,,,,,,,,,,,9,9,,,795.242,9,right,0.5137,796.3404,1.5,0.3,"[3,1,2]",0.148371339,stimuli/card_100_transparent.png,100,9,0,9,0,1,,,,,,,,,,
,,,,667698fb3d4df0117e5b279d,B,2024-08-16_19h23.46.234,Slot Machine Game,2023.1.3,Win32,4.614674665,,,,,,,,,,,,,,,,,,,,,,,,,,,540,,,,,,,,,,,,,,,,,,9,9,,,798.1244,10,right,0.8561,799.4981,0.5,0.3,"[3,1,2]",0.989293069,stimuli/card_10_transparent.png,10,10,0,10,0,1,,,,,,,,,,
,,,,667698fb3d4df0117e5b279d,B,2024-08-16_19h23.46.234,Slot Machine Game,2023.1.3,Win32,4.614674665,,,,,,,,,,,,,,,,,,,,,,,,,,,550,,,,,,,,,,,,,,,,,,9,9,,,800.1932,11,right,1.1885,801.8604,1,0.3,"[3,1,2]",0.417756316,stimuli/card_10_transparent.png,10,11,0,11,0,1,,,,,,,,,,
,,,,667698fb3d4df0117e5b279d,B,2024-08-16_19h23.46.234,Slot Machine Game,2023.1.3,Win32,4.614674665,,,,,,,,,,,,,,,,,,,,,,,,,,,560,,,,,,,,,,,,,,,,,,9,9,,,803.2604,12,right,0.5148,804.2779,0.5,0.3,"[3,1,2]",0.301187799,stimuli/card_10_transparent.png,10,12,0,12,0,1,,,,,,,,,,
,,,,667698fb3d4df0117e5b279d,B,2024-08-16_19h23.46.234,Slot Machine Game,2023.1.3,Win32,4.614674665,,,,,,,,,,,,,,,,,,,,,,,,,,,570,,,,,,,,,,,,,,,,,,9,9,,,804.988,13,right,0.9218,806.4002,1,0.3,"[3,1,2]",0.274492329,stimuli/card_10_transparent.png,10,13,0,13,0,1,,,,,,,,,,
,,,,667698fb3d4df0117e5b279d,B,2024-08-16_19h23.46.234,Slot Machine Game,2023.1.3,Win32,4.614674665,,,,,,,,,,,,,,,,,,,,,,,,,,,580,,,,,,,,,,,,,,,,,,9,9,,,807.8115,14,right,0.5156,808.8892,1,0.3,"[3,1,2]",0.833795639,stimuli/card_10_transparent.png,10,14,0,14,0,1,,,,,,,,,,
,,,,667698fb3d4df0117e5b279d,B,2024-08-16_19h23.46.234,Slot Machine Game,2023.1.3,Win32,4.614674665,,,,,,,,,,,,,,,,,,,,,,,,,,,,,,,,,,809.9969,,,,,,,,,,,,,,,,,,,,,,,,,,,,,,,"[640,1110,570,560,370,810,850,490,580]",8,0,8,0,1,,,,
,,,,667698fb3d4df0117e5b279d,B,2024-08-16_19h23.46.234,Slot Machine Game,2023.1.3,Win32,4.614674665,,,,,,,,,,,,,,,,,,,,,,,,,,,100,,,,,,,,,,,,,,,,,,10,6,"[4,10,15]","[[2,3,1],[1,3,2],[3,2,1]]",815.0792,0,right,0.8671,816.4377,1,0.3,"[2,3,1]",0.61603512,stimuli/card_100_transparent.png,100,0,0,0,0,1,,,,,,,,,,
,,,,667698fb3d4df0117e5b279d,B,2024-08-16_19h23.46.234,Slot Machine Game,2023.1.3,Win32,4.614674665,,,,,,,,,,,,,,,,,,,,,,,,,,,200,,,,,,,,,,,,,,,,,,10,6,,,817.8266,1,right,0.5136,818.8548,1.5,0.3,"[2,3,1]",0.991321278,stimuli/card_100_transparent.png,100,1,0,1,0,1,,,,,,,,,,
,,,,667698fb3d4df0117e5b279d,B,2024-08-16_19h23.46.234,Slot Machine Game,2023.1.3,Win32,4.614674665,,,,,,,,,,,,,,,,,,,,,,,,,,,300,,,,,,,,,,,,,,,,,,10,6,,,820.6206,2,right,0.5138,821.6401,1.5,0.3,"[2,3,1]",0.33454804,stimuli/card_100_transparent.png,100,2,0,2,0,1,,,,,,,,,,
,,,,667698fb3d4df0117e5b279d,B,2024-08-16_19h23.46.234,Slot Machine Game,2023.1.3,Win32,4.614674665,,,,,,,,,,,,,,,,,,,,,,,,,,,400,,,,,,,,,,,,,,,,,,10,6,,,823.4713,3,right,0.514,824.465,1,0.3,"[2,3,1]",0.779476529,stimuli/card_100_transparent.png,100,3,0,3,0,1,,,,,,,,,,
,,,,667698fb3d4df0117e5b279d,B,2024-08-16_19h23.46.234,Slot Machine Game,2023.1.3,Win32,4.614674665,,,,,,,,,,,,,,,,,,,,,,,,,,,410,,,,,,,,,,,,,,,,,,10,6,,,825.8841,4,right,0.5141,826.8967,1.5,0.3,"[1,3,2]",0.729522778,stimuli/card_10_transparent.png,10,4,0,4,0,1,,,,,,,,,,
,,,,667698fb3d4df0117e5b279d,B,2024-08-16_19h23.46.234,Slot Machine Game,2023.1.3,Win32,4.614674665,,,,,,,,,,,,,,,,,,,,,,,,,,,420,,,,,,,,,,,,,,,,,,10,6,,,828.7073,5,right,0.8952,830.1375,0.5,0.3,"[1,3,2]",0.91046505,stimuli/card_10_transparent.png,10,5,0,5,0,1,,,,,,,,,,
,,,,667698fb3d4df0117e5b279d,B,2024-08-16_19h23.46.234,Slot Machine Game,2023.1.3,Win32,4.614674665,,,,,,,,,,,,,,,,,,,,,,,,,,,430,,,,,,,,,,,,,,,,,,10,6,,,830.8819,6,right,0.5136,831.8992,1,0.3,"[1,3,2]",0.568914315,stimuli/card_10_transparent.png,10,6,0,6,0,1,,,,,,,,,,
,,,,667698fb3d4df0117e5b279d,B,2024-08-16_19h23.46.234,Slot Machine Game,2023.1.3,Win32,4.614674665,,,,,,,,,,,,,,,,,,,,,,,,,,,440,,,,,,,,,,,,,,,,,,10,6,,,832.9854,7,right,0.5135,833.9867,0.5,0.3,"[1,3,2]",0.941577459,stimuli/card_10_transparent.png,10,7,0,7,0,1,,,,,,,,,,
,,,,667698fb3d4df0117e5b279d,B,2024-08-16_19h23.46.234,Slot Machine Game,2023.1.3,Win32,4.614674665,,,,,,,,,,,,,,,,,,,,,,,,,,,440,,,,,,,,,,,,,,,,,,10,6,,,834.7036,8,right,1.5749,836.7774,1.5,0.3,"[1,3,2]",0.013109469,stimuli/card_0_transparent.png,0,8,0,8,0,1,,,,,,,,,,
,,,,667698fb3d4df0117e5b279d,B,2024-08-16_19h23.46.234,Slot Machine Game,2023.1.3,Win32,4.614674665,,,,,,,,,,,,,,,,,,,,,,,,,,,540,,,,,,,,,,,,,,,,,,10,6,,,838.5717,9,left,0.5138,839.612,1,0.3,"[1,3,2]",0.46468151,stimuli/card_100_transparent.png,100,9,0,9,0,1,,,,,,,,,,
,,,,667698fb3d4df0117e5b279d,B,2024-08-16_19h23.46.234,Slot Machine Game,2023.1.3,Win32,4.614674665,,,,,,,,,,,,,,,,,,,,,,,,,,,540,,,,,,,,,,,,,,,,,,10,6,,,841.0188,10,left,0.5133,842.0492,0.5,0.3,"[3,2,1]",0.51870152,stimuli/card_0_transparent.png,0,10,0,10,0,1,,,,,,,,,,
,,,,667698fb3d4df0117e5b279d,B,2024-08-16_19h23.46.234,Slot Machine Game,2023.1.3,Win32,4.614674665,,,,,,,,,,,,,,,,,,,,,,,,,,,540,,,,,,,,,,,,,,,,,,10,6,,,842.7563,11,left,0.5137,843.7974,0.5,0.3,"[3,2,1]",0.325416185,stimuli/card_0_transparent.png,0,11,0,11,0,1,,,,,,,,,,
,,,,667698fb3d4df0117e5b279d,B,2024-08-16_19h23.46.234,Slot Machine Game,2023.1.3,Win32,4.614674665,,,,,,,,,,,,,,,,,,,,,,,,,,,640,,,,,,,,,,,,,,,,,,10,6,,,844.5786,12,left,0.5134,845.5931,1,0.3,"[3,2,1]",0.045745475,stimuli/card_100_transparent.png,100,12,0,12,0,1,,,,,,,,,,
,,,,667698fb3d4df0117e5b279d,B,2024-08-16_19h23.46.234,Slot Machine Game,2023.1.3,Win32,4.614674665,,,,,,,,,,,,,,,,,,,,,,,,,,,640,,,,,,,,,,,,,,,,,,10,6,,,846.6723,13,left,0.5133,847.6893,0.5,0.3,"[3,2,1]",0.40526729,stimuli/card_0_transparent.png,0,13,0,13,0,1,,,,,,,,,,
,,,,667698fb3d4df0117e5b279d,B,2024-08-16_19h23.46.234,Slot Machine Game,2023.1.3,Win32,4.614674665,,,,,,,,,,,,,,,,,,,,,,,,,,,640,,,,,,,,,,,,,,,,,,10,6,,,848.3897,14,left,0.5152,849.3881,1,0.3,"[3,2,1]",0.81447146,stimuli/card_0_transparent.png,0,14,0,14,0,1,,,,,,,,,,
,,,,667698fb3d4df0117e5b279d,B,2024-08-16_19h23.46.234,Slot Machine Game,2023.1.3,Win32,4.614674665,,,,,,,,,,,,,,,,,,,,,,,,,,,,,,,,,,850.8003,,,,,,,,,,,,,,,,,,,,,,,,,,,,,,,"[640,1110,570,560,370,810,850,490,580,640]",9,0,9,0,1,,,,
,,,,667698fb3d4df0117e5b279d,B,2024-08-16_19h23.46.234,Slot Machine Game,2023.1.3,Win32,4.614674665,,,,,,,,,,,,,,,,,,,,,,,,,,,,,,,,,,,,,,,,,,,,,,,,,,,,,,,,,,,,,,,,,,,,,,,9,"[640,1110,570,560,370,810,850,490,580,640]",5.8,2024-08-16_19h38.06.000
