key_resp_welcome_started,key_resp_welcome_keys,key_resp_welcome_rt,key_resp_welcome_duration,prolific_id,path_id,date,expName,psychopyVersion,OS,frameRate,key_resp_instruction1_started,key_resp_instruction1_keys,key_resp_instruction1_rt,key_resp_instruction1_duration,key_resp_instruction2_started,key_resp_instruction2_keys,key_resp_instruction2_rt,key_resp_instruction2_duration,key_resp_instruction3_started,key_resp_instruction3_keys,key_resp_instruction3_rt,key_resp_instruction3_duration,key_resp_instruction4_started,key_resp_instruction4_keys,key_resp_instruction4_rt,key_resp_instruction4_duration,practiceCondition,practice_reward_seqs,practice_trial_started,practice_trial_num,practice_resp_rt,practice_resp_duration,practice_resp_keys,prac_presentationInterval,"practice_reward_seq: 2,1,3",reward_img,cumulative_reward,trial_reward,practice_trials.thisRepN,practice_trials.thisTrialN,practice_trials.thisN,practice_trials.thisIndex,practice_trials.ran,"practice_reward_seq: 2,3,1",block_break_started,"practice_reward_seq: 1,3,2","practice_reward_seq: 3,1,2",practice_end_time,practice_end_keys,practice_end_rt,practice_end_duration,main_instruction_text_started,block_condition,block_order_indices,main_instruction_keys,main_instruction_rt,main_instruction_duration,block_number,block_assignment,current_condition,main_reward_seqs,main_trial_started,main_trial_num,main_trial_keys,main_trial_rt,main_trial_duration,main_presentationInterval,reward_presentation_time,main_reward_seq,reward_rand_val,main_reward_img,current_reward,main_trials.thisRepN,main_trials.thisTrialN,main_trials.thisN,main_trials.thisIndex,main_trials.ran,block_reward,block.thisRepN,block.thisTrialN,block.thisN,block.thisIndex,block.ran,block_reward.length,block_reward_all,reward_amount,date_end_task
0.0004,space,2.3895,,6508626da81a2fc20dd4aa54,A,2024-05-26_15h37.58.791,Slot Machine Game,2023.1.3,MacIntel,60.97560976,,,,,,,,,,,,,,,,,,,,,,,,,,,,,,,,,,,,,,,,,,,,,,,,,,,,,,,,,,,,,,,,,,,,,,,,,,,,,
,,,,6508626da81a2fc20dd4aa54,A,2024-05-26_15h37.58.791,Slot Machine Game,2023.1.3,MacIntel,60.97560976,2.4051,space,6.4031,,,,,,,,,,,,,,,,,,,,,,,,,,,,,,,,,,,,,,,,,,,,,,,,,,,,,,,,,,,,,,,,,,,,,,,,,,
,,,,6508626da81a2fc20dd4aa54,A,2024-05-26_15h37.58.791,Slot Machine Game,2023.1.3,MacIntel,60.97560976,,,,,8.8214,space,12.5317,,,,,,,,,,,,,,,,,,,,,,,,,,,,,,,,,,,,,,,,,,,,,,,,,,,,,,,,,,,,,,,,,,,,,,
,,,,6508626da81a2fc20dd4aa54,A,2024-05-26_15h37.58.791,Slot Machine Game,2023.1.3,MacIntel,60.97560976,,,,,,,,,21.3724,space,4.5716,,,,,,,,,,,,,,,,,,,,,,,,,,,,,,,,,,,,,,,,,,,,,,,,,,,,,,,,,,,,,,,,,,
,,,,6508626da81a2fc20dd4aa54,A,2024-05-26_15h37.58.791,Slot Machine Game,2023.1.3,MacIntel,60.97560976,,,,,,,,,,,,,,,,,,,,,,,,,,,,,,,,,,,,,,,,,,,,,,,,,,,,,,,,,,,,,,,,,,,,,,,,,,,,,
,,,,6508626da81a2fc20dd4aa54,A,2024-05-26_15h37.58.791,Slot Machine Game,2023.1.3,MacIntel,60.97560976,,,,,,,,,,,,,167.8744,space,3.8104,,,,,,,,,,,,,,,,,,,,,,,,,,,,,,,,,,,,,,,,,,,,,,,,,,,,,,,,,,,,,,
,,,,6508626da81a2fc20dd4aa54,A,2024-05-26_15h37.58.791,Slot Machine Game,2023.1.3,MacIntel,60.97560976,,,,,,,,,,,,,,,,,"[9,15]","[[2,1,3],[2,3,1]]",171.7016,0,3.5021,,up,1,,stimuli/card_100_transparent.png,100,100,0,0,0,0,1,,,,,,,,,,,,,,,,,,,,,,,,,,,,,,,,,,,,,,,,,,,,
,,,,6508626da81a2fc20dd4aa54,A,2024-05-26_15h37.58.791,Slot Machine Game,2023.1.3,MacIntel,60.97560976,,,,,,,,,,,,,,,,,,,177.0324,1,2.3584,,up,1.5,,stimuli/card_100_transparent.png,200,100,1,0,1,0,1,,,,,,,,,,,,,,,,,,,,,,,,,,,,,,,,,,,,,,,,,,,,
,,,,6508626da81a2fc20dd4aa54,A,2024-05-26_15h37.58.791,Slot Machine Game,2023.1.3,MacIntel,60.97560976,,,,,,,,,,,,,,,,,,,181.7169,2,0.9178,,up,0.5,,stimuli/card_100_transparent.png,300,100,2,0,2,0,1,,,,,,,,,,,,,,,,,,,,,,,,,,,,,,,,,,,,,,,,,,,,
,,,,6508626da81a2fc20dd4aa54,A,2024-05-26_15h37.58.791,Slot Machine Game,2023.1.3,MacIntel,60.97560976,,,,,,,,,,,,,,,,,,,183.9666,3,0.4209,,up,0.5,,stimuli/card_100_transparent.png,400,100,3,0,3,0,1,,,,,,,,,,,,,,,,,,,,,,,,,,,,,,,,,,,,,,,,,,,,
,,,,6508626da81a2fc20dd4aa54,A,2024-05-26_15h37.58.791,Slot Machine Game,2023.1.3,MacIntel,60.97560976,,,,,,,,,,,,,,,,,,,185.7167,4,0.3542,,up,1.5,,stimuli/card_100_transparent.png,500,100,4,0,4,0,1,,,,,,,,,,,,,,,,,,,,,,,,,,,,,,,,,,,,,,,,,,,,
,,,,6508626da81a2fc20dd4aa54,A,2024-05-26_15h37.58.791,Slot Machine Game,2023.1.3,MacIntel,60.97560976,,,,,,,,,,,,,,,,,,,188.4,5,1.2834,,up,1.5,,stimuli/card_100_transparent.png,600,100,5,0,5,0,1,,,,,,,,,,,,,,,,,,,,,,,,,,,,,,,,,,,,,,,,,,,,
,,,,6508626da81a2fc20dd4aa54,A,2024-05-26_15h37.58.791,Slot Machine Game,2023.1.3,MacIntel,60.97560976,,,,,,,,,,,,,,,,,,,192.0166,6,0.1501,,up,1,,stimuli/card_100_transparent.png,700,100,6,0,6,0,1,,,,,,,,,,,,,,,,,,,,,,,,,,,,,,,,,,,,,,,,,,,,
,,,,6508626da81a2fc20dd4aa54,A,2024-05-26_15h37.58.791,Slot Machine Game,2023.1.3,MacIntel,60.97560976,,,,,,,,,,,,,,,,,,,194.0004,7,0.5405,,up,1.5,,stimuli/card_100_transparent.png,800,100,7,0,7,0,1,,,,,,,,,,,,,,,,,,,,,,,,,,,,,,,,,,,,,,,,,,,,
,,,,6508626da81a2fc20dd4aa54,A,2024-05-26_15h37.58.791,Slot Machine Game,2023.1.3,MacIntel,60.97560976,,,,,,,,,,,,,,,,,,,196.8667,8,0.4369,,up,0.5,,stimuli/card_100_transparent.png,900,100,8,0,8,0,1,,,,,,,,,,,,,,,,,,,,,,,,,,,,,,,,,,,,,,,,,,,,
,,,,6508626da81a2fc20dd4aa54,A,2024-05-26_15h37.58.791,Slot Machine Game,2023.1.3,MacIntel,60.97560976,,,,,,,,,,,,,,,,,,,198.6341,9,1.1243,,up,1,,stimuli/card_0_transparent.png,900,0,9,0,9,0,1,,,,,,,,,,,,,,,,,,,,,,,,,,,,,,,,,,,,,,,,,,,,
,,,,6508626da81a2fc20dd4aa54,A,2024-05-26_15h37.58.791,Slot Machine Game,2023.1.3,MacIntel,60.97560976,,,,,,,,,,,,,,,,,,,201.5842,10,0.6772,,left,1,,stimuli/card_10_transparent.png,910,10,10,0,10,0,1,,,,,,,,,,,,,,,,,,,,,,,,,,,,,,,,,,,,,,,,,,,,
,,,,6508626da81a2fc20dd4aa54,A,2024-05-26_15h37.58.791,Slot Machine Game,2023.1.3,MacIntel,60.97560976,,,,,,,,,,,,,,,,,,,204.0846,11,0.0059,,right,1.5,,stimuli/card_100_transparent.png,1010,100,11,0,11,0,1,,,,,,,,,,,,,,,,,,,,,,,,,,,,,,,,,,,,,,,,,,,,
,,,,6508626da81a2fc20dd4aa54,A,2024-05-26_15h37.58.791,Slot Machine Game,2023.1.3,MacIntel,60.97560976,,,,,,,,,,,,,,,,,,,206.4179,12,2.1529,,right,1,,stimuli/card_100_transparent.png,1110,100,12,0,12,0,1,,,,,,,,,,,,,,,,,,,,,,,,,,,,,,,,,,,,,,,,,,,,
,,,,6508626da81a2fc20dd4aa54,A,2024-05-26_15h37.58.791,Slot Machine Game,2023.1.3,MacIntel,60.97560976,,,,,,,,,,,,,,,,,,,210.4018,13,,,,1,,,,,13,0,13,0,1,,,,,,,,,,,,,,,,,,,,,,,,,,,,,,,,,,,,,,,,,,,,
,,,,6508626da81a2fc20dd4aa54,A,2024-05-26_15h37.58.791,Slot Machine Game,2023.1.3,MacIntel,60.97560976,,,,,,,,,,,,,,,,,,,215.9217,14,0.3158,,up,1,,stimuli/card_0_transparent.png,1110,0,14,0,14,0,1,,,,,,,,,,,,,,,,,,,,,,,,,,,,,,,,,,,,,,,,,,,,
,,,,6508626da81a2fc20dd4aa54,A,2024-05-26_15h37.58.791,Slot Machine Game,2023.1.3,MacIntel,60.97560976,,,,,,,,,,,,,,,,,"[6,15]","[[1,3,2],[3,1,2]]",223.0789,0,,,,0.5,,,,,0,0,0,0,1,,218.0814,,,,,,,,,,,,,,,,,,,,,,,,,,,,,,,,,,,,,,,,,,
,,,,6508626da81a2fc20dd4aa54,A,2024-05-26_15h37.58.791,Slot Machine Game,2023.1.3,MacIntel,60.97560976,,,,,,,,,,,,,,,,,,,228.5906,1,0.3565,,right,1,,stimuli/card_0_transparent.png,0,0,1,0,1,0,1,,,,,,,,,,,,,,,,,,,,,,,,,,,,,,,,,,,,,,,,,,,,
,,,,6508626da81a2fc20dd4aa54,A,2024-05-26_15h37.58.791,Slot Machine Game,2023.1.3,MacIntel,60.97560976,,,,,,,,,,,,,,,,,,,230.7697,2,0.3727,,left,1,,stimuli/card_100_transparent.png,100,100,2,0,2,0,1,,,,,,,,,,,,,,,,,,,,,,,,,,,,,,,,,,,,,,,,,,,,
,,,,6508626da81a2fc20dd4aa54,A,2024-05-26_15h37.58.791,Slot Machine Game,2023.1.3,MacIntel,60.97560976,,,,,,,,,,,,,,,,,,,232.9697,3,0.6742,,left,0.5,,stimuli/card_10_transparent.png,110,10,3,0,3,0,1,,,,,,,,,,,,,,,,,,,,,,,,,,,,,,,,,,,,,,,,,,,,
,,,,6508626da81a2fc20dd4aa54,A,2024-05-26_15h37.58.791,Slot Machine Game,2023.1.3,MacIntel,60.97560976,,,,,,,,,,,,,,,,,,,234.9699,4,0.0089,,up,1.5,,stimuli/card_0_transparent.png,110,0,4,0,4,0,1,,,,,,,,,,,,,,,,,,,,,,,,,,,,,,,,,,,,,,,,,,,,
,,,,6508626da81a2fc20dd4aa54,A,2024-05-26_15h37.58.791,Slot Machine Game,2023.1.3,MacIntel,60.97560976,,,,,,,,,,,,,,,,,,,237.3034,5,0.1872,,left,1,,stimuli/card_100_transparent.png,210,100,5,0,5,0,1,,,,,,,,,,,,,,,,,,,,,,,,,,,,,,,,,,,,,,,,,,,,
,,,,6508626da81a2fc20dd4aa54,A,2024-05-26_15h37.58.791,Slot Machine Game,2023.1.3,MacIntel,60.97560976,,,,,,,,,,,,,,,,,,,239.32,6,1.0203,,right,0.5,,stimuli/card_10_transparent.png,220,10,6,0,6,0,1,,,,,,,,,,,,,,,,,,,,,,,,,,,,,,,,,,,,,,,,,,,,
,,,,6508626da81a2fc20dd4aa54,A,2024-05-26_15h37.58.791,Slot Machine Game,2023.1.3,MacIntel,60.97560976,,,,,,,,,,,,,,,,,,,241.6704,7,0.3405,,left,1,,stimuli/card_0_transparent.png,220,0,7,0,7,0,1,,,,,,,,,,,,,,,,,,,,,,,,,,,,,,,,,,,,,,,,,,,,
,,,,6508626da81a2fc20dd4aa54,A,2024-05-26_15h37.58.791,Slot Machine Game,2023.1.3,MacIntel,60.97560976,,,,,,,,,,,,,,,,,,,243.8367,8,0.1408,,left,1.5,,stimuli/card_100_transparent.png,320,100,8,0,8,0,1,,,,,,,,,,,,,,,,,,,,,,,,,,,,,,,,,,,,,,,,,,,,
,,,,6508626da81a2fc20dd4aa54,A,2024-05-26_15h37.58.791,Slot Machine Game,2023.1.3,MacIntel,60.97560976,,,,,,,,,,,,,,,,,,,246.3038,9,0.3665,,left,1.5,,stimuli/card_0_transparent.png,320,0,9,0,9,0,1,,,,,,,,,,,,,,,,,,,,,,,,,,,,,,,,,,,,,,,,,,,,
,,,,6508626da81a2fc20dd4aa54,A,2024-05-26_15h37.58.791,Slot Machine Game,2023.1.3,MacIntel,60.97560976,,,,,,,,,,,,,,,,,,,249.0042,10,0.1711,,up,1,,stimuli/card_10_transparent.png,330,10,10,0,10,0,1,,,,,,,,,,,,,,,,,,,,,,,,,,,,,,,,,,,,,,,,,,,,
,,,,6508626da81a2fc20dd4aa54,A,2024-05-26_15h37.58.791,Slot Machine Game,2023.1.3,MacIntel,60.97560976,,,,,,,,,,,,,,,,,,,251.0043,11,0.1896,,up,0.5,,stimuli/card_10_transparent.png,340,10,11,0,11,0,1,,,,,,,,,,,,,,,,,,,,,,,,,,,,,,,,,,,,,,,,,,,,
,,,,6508626da81a2fc20dd4aa54,A,2024-05-26_15h37.58.791,Slot Machine Game,2023.1.3,MacIntel,60.97560976,,,,,,,,,,,,,,,,,,,252.5199,12,0.2254,,up,0.5,,stimuli/card_100_transparent.png,440,100,12,0,12,0,1,,,,,,,,,,,,,,,,,,,,,,,,,,,,,,,,,,,,,,,,,,,,
,,,,6508626da81a2fc20dd4aa54,A,2024-05-26_15h37.58.791,Slot Machine Game,2023.1.3,MacIntel,60.97560976,,,,,,,,,,,,,,,,,,,254.0543,13,1.5244,,right,0.5,,stimuli/card_10_transparent.png,450,10,13,0,13,0,1,,,,,,,,,,,,,,,,,,,,,,,,,,,,,,,,,,,,,,,,,,,,
,,,,6508626da81a2fc20dd4aa54,A,2024-05-26_15h37.58.791,Slot Machine Game,2023.1.3,MacIntel,60.97560976,,,,,,,,,,,,,,,,,,,256.8868,14,0.1722,,right,0.5,,stimuli/card_100_transparent.png,550,100,14,0,14,0,1,,,,,,,,,,,,,,,,,,,,,,,,,,,,,,,,,,,,,,,,,,,,
,,,,6508626da81a2fc20dd4aa54,A,2024-05-26_15h37.58.791,Slot Machine Game,2023.1.3,MacIntel,60.97560976,,,,,,,,,,,,,,,,,,,,,,,,,,,,,,,,,,,258.3714,,,263.3728,space,1.6175,,,,,,,,,,,,,,,,,,,,,,,,,,,,,,,,,,,,,
,,,,6508626da81a2fc20dd4aa54,A,2024-05-26_15h37.58.791,Slot Machine Game,2023.1.3,MacIntel,60.97560976,,,,,,,,,,,,,,,,,,,,,,,,,,,,,,,,,,,,,,,,,,265.0068,1,"[0,1,2,3,4,5,6,7,8,9]",space,2.4125,,,,,,,,,,,,,,,,,,,,,,,,,,,,,,,
,,,,6508626da81a2fc20dd4aa54,A,2024-05-26_15h37.58.791,Slot Machine Game,2023.1.3,MacIntel,60.97560976,,,,,,,,,,,,,,,,,,,,,,,,,,,0,,,,,,,,,,,,,,,,,,,,,1,1,"[12,15]","[[2,1,3],[2,3,1]]",267.4538,0,right,1.3016,,1,0.3,"[2,1,3]",0.480022285,stimuli/card_0_transparent.png,0,0,0,0,0,1,,,,,,,,,,
,,,,6508626da81a2fc20dd4aa54,A,2024-05-26_15h37.58.791,Slot Machine Game,2023.1.3,MacIntel,60.97560976,,,,,,,,,,,,,,,,,,,,,,,,,,,10,,,,,,,,,,,,,,,,,,,,,1,1,,,270.5726,1,left,0.2439,,0.5,0.3,"[2,1,3]",0.71552884,stimuli/card_10_transparent.png,10,1,0,1,0,1,,,,,,,,,,
,,,,6508626da81a2fc20dd4aa54,A,2024-05-26_15h37.58.791,Slot Machine Game,2023.1.3,MacIntel,60.97560976,,,,,,,,,,,,,,,,,,,,,,,,,,,110,,,,,,,,,,,,,,,,,,,,,1,1,,,272.1392,2,up,0.2863,,1,0.3,"[2,1,3]",0.862743789,stimuli/card_100_transparent.png,100,2,0,2,0,1,,,,,,,,,,
,,,,6508626da81a2fc20dd4aa54,A,2024-05-26_15h37.58.791,Slot Machine Game,2023.1.3,MacIntel,60.97560976,,,,,,,,,,,,,,,,,,,,,,,,,,,120,,,,,,,,,,,,,,,,,,,,,1,1,,,274.2565,3,up,0.102,,0.5,0.3,"[2,1,3]",0.162650577,stimuli/card_10_transparent.png,10,3,0,3,0,1,,,,,,,,,,
,,,,6508626da81a2fc20dd4aa54,A,2024-05-26_15h37.58.791,Slot Machine Game,2023.1.3,MacIntel,60.97560976,,,,,,,,,,,,,,,,,,,,,,,,,,,220,,,,,,,,,,,,,,,,,,,,,1,1,,,275.6894,4,up,0.7361,,1.5,0.3,"[2,1,3]",0.689322972,stimuli/card_100_transparent.png,100,4,0,4,0,1,,,,,,,,,,
,,,,6508626da81a2fc20dd4aa54,A,2024-05-26_15h37.58.791,Slot Machine Game,2023.1.3,MacIntel,60.97560976,,,,,,,,,,,,,,,,,,,,,,,,,,,220,,,,,,,,,,,,,,,,,,,,,1,1,,,278.7566,5,left,0.2354,,1,0.3,"[2,1,3]",0.079286337,stimuli/card_0_transparent.png,0,5,0,5,0,1,,,,,,,,,,
,,,,6508626da81a2fc20dd4aa54,A,2024-05-26_15h37.58.791,Slot Machine Game,2023.1.3,MacIntel,60.97560976,,,,,,,,,,,,,,,,,,,,,,,,,,,230,,,,,,,,,,,,,,,,,,,,,1,1,,,280.823,6,right,0.2399,,0.5,0.3,"[2,1,3]",0.138721725,stimuli/card_10_transparent.png,10,6,0,6,0,1,,,,,,,,,,
,,,,6508626da81a2fc20dd4aa54,A,2024-05-26_15h37.58.791,Slot Machine Game,2023.1.3,MacIntel,60.97560976,,,,,,,,,,,,,,,,,,,,,,,,,,,330,,,,,,,,,,,,,,,,,,,,,1,1,,,282.3731,7,up,0.0387,,0.5,0.3,"[2,1,3]",0.768518167,stimuli/card_100_transparent.png,100,7,0,7,0,1,,,,,,,,,,
,,,,6508626da81a2fc20dd4aa54,A,2024-05-26_15h37.58.791,Slot Machine Game,2023.1.3,MacIntel,60.97560976,,,,,,,,,,,,,,,,,,,,,,,,,,,330,,,,,,,,,,,,,,,,,,,,,1,1,,,283.7387,8,up,0.034,,1.5,0.3,"[2,1,3]",0.040762679,stimuli/card_0_transparent.png,0,8,0,8,0,1,,,,,,,,,,
,,,,6508626da81a2fc20dd4aa54,A,2024-05-26_15h37.58.791,Slot Machine Game,2023.1.3,MacIntel,60.97560976,,,,,,,,,,,,,,,,,,,,,,,,,,,430,,,,,,,,,,,,,,,,,,,,,1,1,,,286.09,9,up,0.0734,,0.5,0.3,"[2,1,3]",0.814497068,stimuli/card_100_transparent.png,100,9,0,9,0,1,,,,,,,,,,
,,,,6508626da81a2fc20dd4aa54,A,2024-05-26_15h37.58.791,Slot Machine Game,2023.1.3,MacIntel,60.97560976,,,,,,,,,,,,,,,,,,,,,,,,,,,530,,,,,,,,,,,,,,,,,,,,,1,1,,,287.4902,10,up,0.0201,,0.5,0.3,"[2,1,3]",0.677907752,stimuli/card_100_transparent.png,100,10,0,10,0,1,,,,,,,,,,
,,,,6508626da81a2fc20dd4aa54,A,2024-05-26_15h37.58.791,Slot Machine Game,2023.1.3,MacIntel,60.97560976,,,,,,,,,,,,,,,,,,,,,,,,,,,630,,,,,,,,,,,,,,,,,,,,,1,1,,,288.84,11,up,0.2339,,0.5,0.3,"[2,1,3]",0.588540924,stimuli/card_100_transparent.png,100,11,0,11,0,1,,,,,,,,,,
,,,,6508626da81a2fc20dd4aa54,A,2024-05-26_15h37.58.791,Slot Machine Game,2023.1.3,MacIntel,60.97560976,,,,,,,,,,,,,,,,,,,,,,,,,,,630,,,,,,,,,,,,,,,,,,,,,1,1,,,290.4065,12,up,0.1509,,0.5,0.3,"[2,3,1]",0.373871445,stimuli/card_0_transparent.png,0,12,0,12,0,1,,,,,,,,,,
,,,,6508626da81a2fc20dd4aa54,A,2024-05-26_15h37.58.791,Slot Machine Game,2023.1.3,MacIntel,60.97560976,,,,,,,,,,,,,,,,,,,,,,,,,,,640,,,,,,,,,,,,,,,,,,,,,1,1,,,291.8737,13,up,0.2409,,1.5,0.3,"[2,3,1]",0.146081781,stimuli/card_10_transparent.png,10,13,0,13,0,1,,,,,,,,,,
,,,,6508626da81a2fc20dd4aa54,A,2024-05-26_15h37.58.791,Slot Machine Game,2023.1.3,MacIntel,60.97560976,,,,,,,,,,,,,,,,,,,,,,,,,,,740,,,,,,,,,,,,,,,,,,,,,1,1,,,294.4402,14,up,0.05,,1,0.3,"[2,3,1]",0.013787118,stimuli/card_100_transparent.png,100,14,0,14,0,1,,,,,,,,,,
,,,,6508626da81a2fc20dd4aa54,A,2024-05-26_15h37.58.791,Slot Machine Game,2023.1.3,MacIntel,60.97560976,,,,,,,,,,,,,,,,,,,,,,,,,,,,,,,,,,,296.3069,,,,,,,,,,,,,,,,,,,,,,,,,,,,,,,,,[740],0,0,0,0,1,,,,
,,,,6508626da81a2fc20dd4aa54,A,2024-05-26_15h37.58.791,Slot Machine Game,2023.1.3,MacIntel,60.97560976,,,,,,,,,,,,,,,,,,,,,,,,,,,10,,,,,,,,,,,,,,,,,,,,,2,2,"[6,15]","[[1,3,2],[3,2,1]]",301.3188,0,right,0.2364,,1,0.3,"[1,3,2]",0.595239164,stimuli/card_10_transparent.png,10,0,0,0,0,1,,,,,,,,,,
,,,,6508626da81a2fc20dd4aa54,A,2024-05-26_15h37.58.791,Slot Machine Game,2023.1.3,MacIntel,60.97560976,,,,,,,,,,,,,,,,,,,,,,,,,,,110,,,,,,,,,,,,,,,,,,,,,2,2,,,303.3736,1,left,0.7598,,1.5,0.3,"[1,3,2]",0.659257043,stimuli/card_100_transparent.png,100,1,0,1,0,1,,,,,,,,,,
,,,,6508626da81a2fc20dd4aa54,A,2024-05-26_15h37.58.791,Slot Machine Game,2023.1.3,MacIntel,60.97560976,,,,,,,,,,,,,,,,,,,,,,,,,,,210,,,,,,,,,,,,,,,,,,,,,2,2,,,306.4415,2,left,0.1773,,1,0.3,"[1,3,2]",0.663762616,stimuli/card_100_transparent.png,100,2,0,2,0,1,,,,,,,,,,
,,,,6508626da81a2fc20dd4aa54,A,2024-05-26_15h37.58.791,Slot Machine Game,2023.1.3,MacIntel,60.97560976,,,,,,,,,,,,,,,,,,,,,,,,,,,310,,,,,,,,,,,,,,,,,,,,,2,2,,,308.4411,3,left,0.3838,,1.5,0.3,"[1,3,2]",0.544307462,stimuli/card_100_transparent.png,100,3,0,3,0,1,,,,,,,,,,
,,,,6508626da81a2fc20dd4aa54,A,2024-05-26_15h37.58.791,Slot Machine Game,2023.1.3,MacIntel,60.97560976,,,,,,,,,,,,,,,,,,,,,,,,,,,410,,,,,,,,,,,,,,,,,,,,,2,2,,,311.1416,4,left,0.2233,,1,0.3,"[1,3,2]",0.464905571,stimuli/card_100_transparent.png,100,4,0,4,0,1,,,,,,,,,,
,,,,6508626da81a2fc20dd4aa54,A,2024-05-26_15h37.58.791,Slot Machine Game,2023.1.3,MacIntel,60.97560976,,,,,,,,,,,,,,,,,,,,,,,,,,,510,,,,,,,,,,,,,,,,,,,,,2,2,,,313.1754,5,left,0.0401,,1,0.3,"[1,3,2]",0.886921645,stimuli/card_100_transparent.png,100,5,0,5,0,1,,,,,,,,,,
,,,,6508626da81a2fc20dd4aa54,A,2024-05-26_15h37.58.791,Slot Machine Game,2023.1.3,MacIntel,60.97560976,,,,,,,,,,,,,,,,,,,,,,,,,,,510,,,,,,,,,,,,,,,,,,,,,2,2,,,315.042,6,left,0.1394,,1.5,0.3,"[3,2,1]",0.741291722,stimuli/card_0_transparent.png,0,6,0,6,0,1,,,,,,,,,,
,,,,6508626da81a2fc20dd4aa54,A,2024-05-26_15h37.58.791,Slot Machine Game,2023.1.3,MacIntel,60.97560976,,,,,,,,,,,,,,,,,,,,,,,,,,,510,,,,,,,,,,,,,,,,,,,,,2,2,,,317.5076,7,left,0.0058,,1.5,0.3,"[3,2,1]",0.599962461,stimuli/card_0_transparent.png,0,7,0,7,0,1,,,,,,,,,,
,,,,6508626da81a2fc20dd4aa54,A,2024-05-26_15h37.58.791,Slot Machine Game,2023.1.3,MacIntel,60.97560976,,,,,,,,,,,,,,,,,,,,,,,,,,,610,,,,,,,,,,,,,,,,,,,,,2,2,,,319.8261,8,up,0.3495,,1,0.3,"[3,2,1]",0.176160554,stimuli/card_100_transparent.png,100,8,0,8,0,1,,,,,,,,,,
,,,,6508626da81a2fc20dd4aa54,A,2024-05-26_15h37.58.791,Slot Machine Game,2023.1.3,MacIntel,60.97560976,,,,,,,,,,,,,,,,,,,,,,,,,,,620,,,,,,,,,,,,,,,,,,,,,2,2,,,322.008,9,up,0.0741,,0.5,0.3,"[3,2,1]",0.272797015,stimuli/card_10_transparent.png,10,9,0,9,0,1,,,,,,,,,,
,,,,6508626da81a2fc20dd4aa54,A,2024-05-26_15h37.58.791,Slot Machine Game,2023.1.3,MacIntel,60.97560976,,,,,,,,,,,,,,,,,,,,,,,,,,,630,,,,,,,,,,,,,,,,,,,,,2,2,,,323.3918,10,up,0.2241,,1.5,0.3,"[3,2,1]",0.951977764,stimuli/card_10_transparent.png,10,10,0,10,0,1,,,,,,,,,,
,,,,6508626da81a2fc20dd4aa54,A,2024-05-26_15h37.58.791,Slot Machine Game,2023.1.3,MacIntel,60.97560976,,,,,,,,,,,,,,,,,,,,,,,,,,,630,,,,,,,,,,,,,,,,,,,,,2,2,,,325.9266,11,up,0.1903,,1.5,0.3,"[3,2,1]",0.079393041,stimuli/card_0_transparent.png,0,11,0,11,0,1,,,,,,,,,,
,,,,6508626da81a2fc20dd4aa54,A,2024-05-26_15h37.58.791,Slot Machine Game,2023.1.3,MacIntel,60.97560976,,,,,,,,,,,,,,,,,,,,,,,,,,,640,,,,,,,,,,,,,,,,,,,,,2,2,,,328.4429,12,up,0.1004,,0.5,0.3,"[3,2,1]",0.851424915,stimuli/card_10_transparent.png,10,12,0,12,0,1,,,,,,,,,,
,,,,6508626da81a2fc20dd4aa54,A,2024-05-26_15h37.58.791,Slot Machine Game,2023.1.3,MacIntel,60.97560976,,,,,,,,,,,,,,,,,,,,,,,,,,,650,,,,,,,,,,,,,,,,,,,,,2,2,,,329.8768,13,up,0.2232,,1.5,0.3,"[3,2,1]",0.29735581,stimuli/card_10_transparent.png,10,13,0,13,0,1,,,,,,,,,,
,,,,6508626da81a2fc20dd4aa54,A,2024-05-26_15h37.58.791,Slot Machine Game,2023.1.3,MacIntel,60.97560976,,,,,,,,,,,,,,,,,,,,,,,,,,,750,,,,,,,,,,,,,,,,,,,,,2,2,,,332.4267,14,right,0.1402,,1.5,0.3,"[3,2,1]",0.815033216,stimuli/card_100_transparent.png,100,14,0,14,0,1,,,,,,,,,,
,,,,6508626da81a2fc20dd4aa54,A,2024-05-26_15h37.58.791,Slot Machine Game,2023.1.3,MacIntel,60.97560976,,,,,,,,,,,,,,,,,,,,,,,,,,,,,,,,,,,334.8935,,,,,,,,,,,,,,,,,,,,,,,,,,,,,,,,,"[740,750]",1,0,1,0,1,,,,
,,,,6508626da81a2fc20dd4aa54,A,2024-05-26_15h37.58.791,Slot Machine Game,2023.1.3,MacIntel,60.97560976,,,,,,,,,,,,,,,,,,,,,,,,,,,10,,,,,,,,,,,,,,,,,,,,,3,3,"[15,15]","[[3,1,2],[3,1,2]]",339.9096,0,right,0.7019,,0.5,0.3,"[3,1,2]",0.538552324,stimuli/card_10_transparent.png,10,0,0,0,0,1,,,,,,,,,,
,,,,6508626da81a2fc20dd4aa54,A,2024-05-26_15h37.58.791,Slot Machine Game,2023.1.3,MacIntel,60.97560976,,,,,,,,,,,,,,,,,,,,,,,,,,,20,,,,,,,,,,,,,,,,,,,,,3,3,,,341.9437,1,right,0.1861,,0.5,0.3,"[3,1,2]",0.397546761,stimuli/card_10_transparent.png,10,1,0,1,0,1,,,,,,,,,,
,,,,6508626da81a2fc20dd4aa54,A,2024-05-26_15h37.58.791,Slot Machine Game,2023.1.3,MacIntel,60.97560976,,,,,,,,,,,,,,,,,,,,,,,,,,,30,,,,,,,,,,,,,,,,,,,,,3,3,,,343.4428,2,right,0.2096,,1.5,0.3,"[3,1,2]",0.701528596,stimuli/card_10_transparent.png,10,2,0,2,0,1,,,,,,,,,,
,,,,6508626da81a2fc20dd4aa54,A,2024-05-26_15h37.58.791,Slot Machine Game,2023.1.3,MacIntel,60.97560976,,,,,,,,,,,,,,,,,,,,,,,,,,,130,,,,,,,,,,,,,,,,,,,,,3,3,,,345.9602,3,up,0.1243,,0.5,0.3,"[3,1,2]",0.800875479,stimuli/card_100_transparent.png,100,3,0,3,0,1,,,,,,,,,,
,,,,6508626da81a2fc20dd4aa54,A,2024-05-26_15h37.58.791,Slot Machine Game,2023.1.3,MacIntel,60.97560976,,,,,,,,,,,,,,,,,,,,,,,,,,,230,,,,,,,,,,,,,,,,,,,,,3,3,,,347.3943,4,up,0.3933,,1.5,0.3,"[3,1,2]",0.245362809,stimuli/card_100_transparent.png,100,4,0,4,0,1,,,,,,,,,,
,,,,6508626da81a2fc20dd4aa54,A,2024-05-26_15h37.58.791,Slot Machine Game,2023.1.3,MacIntel,60.97560976,,,,,,,,,,,,,,,,,,,,,,,,,,,330,,,,,,,,,,,,,,,,,,,,,3,3,,,350.1105,5,up,0.0334,,1.5,0.3,"[3,1,2]",0.581984796,stimuli/card_100_transparent.png,100,5,0,5,0,1,,,,,,,,,,
,,,,6508626da81a2fc20dd4aa54,A,2024-05-26_15h37.58.791,Slot Machine Game,2023.1.3,MacIntel,60.97560976,,,,,,,,,,,,,,,,,,,,,,,,,,,340,,,,,,,,,,,,,,,,,,,,,3,3,,,352.4613,6,up,0.2503,,0.5,0.3,"[3,1,2]",0.125770519,stimuli/card_10_transparent.png,10,6,0,6,0,1,,,,,,,,,,
,,,,6508626da81a2fc20dd4aa54,A,2024-05-26_15h37.58.791,Slot Machine Game,2023.1.3,MacIntel,60.97560976,,,,,,,,,,,,,,,,,,,,,,,,,,,440,,,,,,,,,,,,,,,,,,,,,3,3,,,354.0448,7,up,0.0904,,1.5,0.3,"[3,1,2]",0.522136745,stimuli/card_100_transparent.png,100,7,0,7,0,1,,,,,,,,,,
,,,,6508626da81a2fc20dd4aa54,A,2024-05-26_15h37.58.791,Slot Machine Game,2023.1.3,MacIntel,60.97560976,,,,,,,,,,,,,,,,,,,,,,,,,,,440,,,,,,,,,,,,,,,,,,,,,3,3,,,356.4611,8,up,0.3732,,1.5,0.3,"[3,1,2]",0.052187975,stimuli/card_0_transparent.png,0,8,0,8,0,1,,,,,,,,,,
,,,,6508626da81a2fc20dd4aa54,A,2024-05-26_15h37.58.791,Slot Machine Game,2023.1.3,MacIntel,60.97560976,,,,,,,,,,,,,,,,,,,,,,,,,,,440,,,,,,,,,,,,,,,,,,,,,3,3,,,359.1617,9,left,0.9254,,1,0.3,"[3,1,2]",0.569655785,stimuli/card_0_transparent.png,0,9,0,9,0,1,,,,,,,,,,
,,,,6508626da81a2fc20dd4aa54,A,2024-05-26_15h37.58.791,Slot Machine Game,2023.1.3,MacIntel,60.97560976,,,,,,,,,,,,,,,,,,,,,,,,,,,540,,,,,,,,,,,,,,,,,,,,,3,3,,,361.911,10,up,0.6591,,0.5,0.3,"[3,1,2]",0.937958418,stimuli/card_100_transparent.png,100,10,0,10,0,1,,,,,,,,,,
,,,,6508626da81a2fc20dd4aa54,A,2024-05-26_15h37.58.791,Slot Machine Game,2023.1.3,MacIntel,60.97560976,,,,,,,,,,,,,,,,,,,,,,,,,,,640,,,,,,,,,,,,,,,,,,,,,3,3,,,363.8787,11,up,0.3603,,1.5,0.3,"[3,1,2]",0.477106608,stimuli/card_100_transparent.png,100,11,0,11,0,1,,,,,,,,,,
,,,,6508626da81a2fc20dd4aa54,A,2024-05-26_15h37.58.791,Slot Machine Game,2023.1.3,MacIntel,60.97560976,,,,,,,,,,,,,,,,,,,,,,,,,,,740,,,,,,,,,,,,,,,,,,,,,3,3,,,366.5622,12,up,0.0843,,1,0.3,"[3,1,2]",0.557214563,stimuli/card_100_transparent.png,100,12,0,12,0,1,,,,,,,,,,
,,,,6508626da81a2fc20dd4aa54,A,2024-05-26_15h37.58.791,Slot Machine Game,2023.1.3,MacIntel,60.97560976,,,,,,,,,,,,,,,,,,,,,,,,,,,840,,,,,,,,,,,,,,,,,,,,,3,3,,,368.479,13,up,0.1335,,0.5,0.3,"[3,1,2]",0.240564664,stimuli/card_100_transparent.png,100,13,0,13,0,1,,,,,,,,,,
,,,,6508626da81a2fc20dd4aa54,A,2024-05-26_15h37.58.791,Slot Machine Game,2023.1.3,MacIntel,60.97560976,,,,,,,,,,,,,,,,,,,,,,,,,,,940,,,,,,,,,,,,,,,,,,,,,3,3,,,369.9466,14,up,0.1513,,1,0.3,"[3,1,2]",0.649381414,stimuli/card_100_transparent.png,100,14,0,14,0,1,,,,,,,,,,
,,,,6508626da81a2fc20dd4aa54,A,2024-05-26_15h37.58.791,Slot Machine Game,2023.1.3,MacIntel,60.97560976,,,,,,,,,,,,,,,,,,,,,,,,,,,,,,,,,,,371.9283,,,,,,,,,,,,,,,,,,,,,,,,,,,,,,,,,"[740,750,940]",2,0,2,0,1,,,,
,,,,6508626da81a2fc20dd4aa54,A,2024-05-26_15h37.58.791,Slot Machine Game,2023.1.3,MacIntel,60.97560976,,,,,,,,,,,,,,,,,,,,,,,,,,,0,,,,,,,,,,,,,,,,,,,,,4,4,"[7,15]","[[2,3,1],[1,2,3]]",376.9456,0,up,1.5866,,1.5,0.3,"[2,3,1]",0.679138754,stimuli/card_0_transparent.png,0,0,0,0,0,1,,,,,,,,,,
,,,,6508626da81a2fc20dd4aa54,A,2024-05-26_15h37.58.791,Slot Machine Game,2023.1.3,MacIntel,60.97560976,,,,,,,,,,,,,,,,,,,,,,,,,,,0,,,,,,,,,,,,,,,,,,,,,4,4,,,380.8467,1,left,0.9239,,1,0.3,"[2,3,1]",0.006932405,stimuli/card_0_transparent.png,0,1,0,1,0,1,,,,,,,,,,
,,,,6508626da81a2fc20dd4aa54,A,2024-05-26_15h37.58.791,Slot Machine Game,2023.1.3,MacIntel,60.97560976,,,,,,,,,,,,,,,,,,,,,,,,,,,100,,,,,,,,,,,,,,,,,,,,,4,4,,,383.5964,2,right,0.3092,,1.5,0.3,"[2,3,1]",0.564580971,stimuli/card_100_transparent.png,100,2,0,2,0,1,,,,,,,,,,
,,,,6508626da81a2fc20dd4aa54,A,2024-05-26_15h37.58.791,Slot Machine Game,2023.1.3,MacIntel,60.97560976,,,,,,,,,,,,,,,,,,,,,,,,,,,100,,,,,,,,,,,,,,,,,,,,,4,4,,,386.2136,3,right,0.02,,1,0.3,"[2,3,1]",0.099285742,stimuli/card_0_transparent.png,0,3,0,3,0,1,,,,,,,,,,
,,,,6508626da81a2fc20dd4aa54,A,2024-05-26_15h37.58.791,Slot Machine Game,2023.1.3,MacIntel,60.97560976,,,,,,,,,,,,,,,,,,,,,,,,,,,200,,,,,,,,,,,,,,,,,,,,,4,4,,,388.0643,4,right,0.0548,,0.5,0.3,"[2,3,1]",0.925776362,stimuli/card_100_transparent.png,100,4,0,4,0,1,,,,,,,,,,
,,,,6508626da81a2fc20dd4aa54,A,2024-05-26_15h37.58.791,Slot Machine Game,2023.1.3,MacIntel,60.97560976,,,,,,,,,,,,,,,,,,,,,,,,,,,300,,,,,,,,,,,,,,,,,,,,,4,4,,,389.4467,5,right,0.17,,1.5,0.3,"[2,3,1]",0.386206663,stimuli/card_100_transparent.png,100,5,0,5,0,1,,,,,,,,,,
,,,,6508626da81a2fc20dd4aa54,A,2024-05-26_15h37.58.791,Slot Machine Game,2023.1.3,MacIntel,60.97560976,,,,,,,,,,,,,,,,,,,,,,,,,,,400,,,,,,,,,,,,,,,,,,,,,4,4,,,391.9469,6,right,0.3232,,1.5,0.3,"[2,3,1]",0.682080396,stimuli/card_100_transparent.png,100,6,0,6,0,1,,,,,,,,,,
,,,,6508626da81a2fc20dd4aa54,A,2024-05-26_15h37.58.791,Slot Machine Game,2023.1.3,MacIntel,60.97560976,,,,,,,,,,,,,,,,,,,,,,,,,,,410,,,,,,,,,,,,,,,,,,,,,4,4,,,394.5965,7,up,1.3222,,1.5,0.3,"[1,2,3]",0.4422008,stimuli/card_10_transparent.png,10,7,0,7,0,1,,,,,,,,,,
,,,,6508626da81a2fc20dd4aa54,A,2024-05-26_15h37.58.791,Slot Machine Game,2023.1.3,MacIntel,60.97560976,,,,,,,,,,,,,,,,,,,,,,,,,,,410,,,,,,,,,,,,,,,,,,,,,4,4,,,398.2312,8,right,0.3881,,0.5,0.3,"[1,2,3]",0.550404289,stimuli/card_0_transparent.png,0,8,0,8,0,1,,,,,,,,,,
,,,,6508626da81a2fc20dd4aa54,A,2024-05-26_15h37.58.791,Slot Machine Game,2023.1.3,MacIntel,60.97560976,,,,,,,,,,,,,,,,,,,,,,,,,,,510,,,,,,,,,,,,,,,,,,,,,4,4,,,399.948,9,right,0.4229,,1.5,0.3,"[1,2,3]",0.057490619,stimuli/card_100_transparent.png,100,9,0,9,0,1,,,,,,,,,,
,,,,6508626da81a2fc20dd4aa54,A,2024-05-26_15h37.58.791,Slot Machine Game,2023.1.3,MacIntel,60.97560976,,,,,,,,,,,,,,,,,,,,,,,,,,,510,,,,,,,,,,,,,,,,,,,,,4,4,,,402.6982,10,right,0.2383,,1.5,0.3,"[1,2,3]",0.729287298,stimuli/card_0_transparent.png,0,10,0,10,0,1,,,,,,,,,,
,,,,6508626da81a2fc20dd4aa54,A,2024-05-26_15h37.58.791,Slot Machine Game,2023.1.3,MacIntel,60.97560976,,,,,,,,,,,,,,,,,,,,,,,,,,,510,,,,,,,,,,,,,,,,,,,,,4,4,,,405.2648,11,right,0.0895,,0.5,0.3,"[1,2,3]",0.696400684,stimuli/card_0_transparent.png,0,11,0,11,0,1,,,,,,,,,,
,,,,6508626da81a2fc20dd4aa54,A,2024-05-26_15h37.58.791,Slot Machine Game,2023.1.3,MacIntel,60.97560976,,,,,,,,,,,,,,,,,,,,,,,,,,,510,,,,,,,,,,,,,,,,,,,,,4,4,,,406.6816,12,right,0.1882,,1.5,0.3,"[1,2,3]",0.55052156,stimuli/card_0_transparent.png,0,12,0,12,0,1,,,,,,,,,,
,,,,6508626da81a2fc20dd4aa54,A,2024-05-26_15h37.58.791,Slot Machine Game,2023.1.3,MacIntel,60.97560976,,,,,,,,,,,,,,,,,,,,,,,,,,,510,,,,,,,,,,,,,,,,,,,,,4,4,,,409.1986,13,right,0.1226,,0.5,0.3,"[1,2,3]",0.457040762,stimuli/card_0_transparent.png,0,13,0,13,0,1,,,,,,,,,,
,,,,6508626da81a2fc20dd4aa54,A,2024-05-26_15h37.58.791,Slot Machine Game,2023.1.3,MacIntel,60.97560976,,,,,,,,,,,,,,,,,,,,,,,,,,,510,,,,,,,,,,,,,,,,,,,,,4,4,,,410.6482,14,right,0.1734,,0.5,0.3,"[1,2,3]",0.790053794,stimuli/card_0_transparent.png,0,14,0,14,0,1,,,,,,,,,,
,,,,6508626da81a2fc20dd4aa54,A,2024-05-26_15h37.58.791,Slot Machine Game,2023.1.3,MacIntel,60.97560976,,,,,,,,,,,,,,,,,,,,,,,,,,,,,,,,,,,412.131,,,,,,,,,,,,,,,,,,,,,,,,,,,,,,,,,"[740,750,940,510]",3,0,3,0,1,,,,
,,,,6508626da81a2fc20dd4aa54,A,2024-05-26_15h37.58.791,Slot Machine Game,2023.1.3,MacIntel,60.97560976,,,,,,,,,,,,,,,,,,,,,,,,,,,100,,,,,,,,,,,,,,,,,,,,,5,5,"[5,15]","[[1,2,3],[3,1,2]]",417.1492,0,left,0.6018,,1,0.3,"[1,2,3]",0.409917566,stimuli/card_100_transparent.png,100,0,0,0,0,1,,,,,,,,,,
,,,,6508626da81a2fc20dd4aa54,A,2024-05-26_15h37.58.791,Slot Machine Game,2023.1.3,MacIntel,60.97560976,,,,,,,,,,,,,,,,,,,,,,,,,,,200,,,,,,,,,,,,,,,,,,,,,5,5,,,419.5814,1,left,0.1739,,1.5,0.3,"[1,2,3]",0.362347335,stimuli/card_100_transparent.png,100,1,0,1,0,1,,,,,,,,,,
,,,,6508626da81a2fc20dd4aa54,A,2024-05-26_15h37.58.791,Slot Machine Game,2023.1.3,MacIntel,60.97560976,,,,,,,,,,,,,,,,,,,,,,,,,,,300,,,,,,,,,,,,,,,,,,,,,5,5,,,422.0827,2,left,1.9,,1,0.3,"[1,2,3]",0.278887924,stimuli/card_100_transparent.png,100,2,0,2,0,1,,,,,,,,,,
,,,,6508626da81a2fc20dd4aa54,A,2024-05-26_15h37.58.791,Slot Machine Game,2023.1.3,MacIntel,60.97560976,,,,,,,,,,,,,,,,,,,,,,,,,,,310,,,,,,,,,,,,,,,,,,,,,5,5,,,425.817,3,left,0.0229,,1.5,0.3,"[1,2,3]",0.150882797,stimuli/card_10_transparent.png,10,3,0,3,0,1,,,,,,,,,,
,,,,6508626da81a2fc20dd4aa54,A,2024-05-26_15h37.58.791,Slot Machine Game,2023.1.3,MacIntel,60.97560976,,,,,,,,,,,,,,,,,,,,,,,,,,,410,,,,,,,,,,,,,,,,,,,,,5,5,,,428.1665,4,left,0.2335,,1,0.3,"[1,2,3]",0.50963399,stimuli/card_100_transparent.png,100,4,0,4,0,1,,,,,,,,,,
,,,,6508626da81a2fc20dd4aa54,A,2024-05-26_15h37.58.791,Slot Machine Game,2023.1.3,MacIntel,60.97560976,,,,,,,,,,,,,,,,,,,,,,,,,,,410,,,,,,,,,,,,,,,,,,,,,5,5,,,430.2168,5,left,0.1737,,0.5,0.3,"[3,1,2]",0.853593526,stimuli/card_0_transparent.png,0,5,0,5,0,1,,,,,,,,,,
,,,,6508626da81a2fc20dd4aa54,A,2024-05-26_15h37.58.791,Slot Machine Game,2023.1.3,MacIntel,60.97560976,,,,,,,,,,,,,,,,,,,,,,,,,,,410,,,,,,,,,,,,,,,,,,,,,5,5,,,431.7165,6,left,0.5204,,0.5,0.3,"[3,1,2]",0.247336436,stimuli/card_0_transparent.png,0,6,0,6,0,1,,,,,,,,,,
,,,,6508626da81a2fc20dd4aa54,A,2024-05-26_15h37.58.791,Slot Machine Game,2023.1.3,MacIntel,60.97560976,,,,,,,,,,,,,,,,,,,,,,,,,,,510,,,,,,,,,,,,,,,,,,,,,5,5,,,433.5664,7,up,0.0513,,0.5,0.3,"[3,1,2]",0.967737672,stimuli/card_100_transparent.png,100,7,0,7,0,1,,,,,,,,,,
,,,,6508626da81a2fc20dd4aa54,A,2024-05-26_15h37.58.791,Slot Machine Game,2023.1.3,MacIntel,60.97560976,,,,,,,,,,,,,,,,,,,,,,,,,,,610,,,,,,,,,,,,,,,,,,,,,5,5,,,434.9336,8,up,0.0233,,0.5,0.3,"[3,1,2]",0.59783357,stimuli/card_100_transparent.png,100,8,0,8,0,1,,,,,,,,,,
,,,,6508626da81a2fc20dd4aa54,A,2024-05-26_15h37.58.791,Slot Machine Game,2023.1.3,MacIntel,60.97560976,,,,,,,,,,,,,,,,,,,,,,,,,,,710,,,,,,,,,,,,,,,,,,,,,5,5,,,436.2827,9,up,0.0569,,1,0.3,"[3,1,2]",0.436416558,stimuli/card_100_transparent.png,100,9,0,9,0,1,,,,,,,,,,
,,,,6508626da81a2fc20dd4aa54,A,2024-05-26_15h37.58.791,Slot Machine Game,2023.1.3,MacIntel,60.97560976,,,,,,,,,,,,,,,,,,,,,,,,,,,710,,,,,,,,,,,,,,,,,,,,,5,5,,,438.1501,10,up,0.1678,,1,0.3,"[3,1,2]",0.044565439,stimuli/card_0_transparent.png,0,10,0,10,0,1,,,,,,,,,,
,,,,6508626da81a2fc20dd4aa54,A,2024-05-26_15h37.58.791,Slot Machine Game,2023.1.3,MacIntel,60.97560976,,,,,,,,,,,,,,,,,,,,,,,,,,,810,,,,,,,,,,,,,,,,,,,,,5,5,,,440.134,11,up,0.0745,,1.5,0.3,"[3,1,2]",0.606649797,stimuli/card_100_transparent.png,100,11,0,11,0,1,,,,,,,,,,
,,,,6508626da81a2fc20dd4aa54,A,2024-05-26_15h37.58.791,Slot Machine Game,2023.1.3,MacIntel,60.97560976,,,,,,,,,,,,,,,,,,,,,,,,,,,910,,,,,,,,,,,,,,,,,,,,,5,5,,,442.5342,12,up,0.1391,,1,0.3,"[3,1,2]",0.329838323,stimuli/card_100_transparent.png,100,12,0,12,0,1,,,,,,,,,,
,,,,6508626da81a2fc20dd4aa54,A,2024-05-26_15h37.58.791,Slot Machine Game,2023.1.3,MacIntel,60.97560976,,,,,,,,,,,,,,,,,,,,,,,,,,,1010,,,,,,,,,,,,,,,,,,,,,5,5,,,444.501,13,up,0.2372,,0.5,0.3,"[3,1,2]",0.799310154,stimuli/card_100_transparent.png,100,13,0,13,0,1,,,,,,,,,,
,,,,6508626da81a2fc20dd4aa54,A,2024-05-26_15h37.58.791,Slot Machine Game,2023.1.3,MacIntel,60.97560976,,,,,,,,,,,,,,,,,,,,,,,,,,,1010,,,,,,,,,,,,,,,,,,,,,5,5,,,446.0669,14,up,0.0378,,0.5,0.3,"[3,1,2]",0.093658312,stimuli/card_0_transparent.png,0,14,0,14,0,1,,,,,,,,,,
,,,,6508626da81a2fc20dd4aa54,A,2024-05-26_15h37.58.791,Slot Machine Game,2023.1.3,MacIntel,60.97560976,,,,,,,,,,,,,,,,,,,,,,,,,,,,,,,,,,,447.4174,,,,,,,,,,,,,,,,,,,,,,,,,,,,,,,,,"[740,750,940,510,1010]",4,0,4,0,1,,,,
,,,,6508626da81a2fc20dd4aa54,A,2024-05-26_15h37.58.791,Slot Machine Game,2023.1.3,MacIntel,60.97560976,,,,,,,,,,,,,,,,,,,,,,,,,,,0,,,,,,,,,,,,,,,,,,,,,6,6,"[4,10,15]","[[2,3,1],[1,3,2],[3,2,1]]",452.4347,0,up,2.9599,,1,0.3,"[2,3,1]",0.74179783,stimuli/card_0_transparent.png,0,0,0,0,0,1,,,,,,,,,,
,,,,6508626da81a2fc20dd4aa54,A,2024-05-26_15h37.58.791,Slot Machine Game,2023.1.3,MacIntel,60.97560976,,,,,,,,,,,,,,,,,,,,,,,,,,,100,,,,,,,,,,,,,,,,,,,,,6,6,,,457.2019,1,right,0.1679,,1,0.3,"[2,3,1]",0.454738448,stimuli/card_100_transparent.png,100,1,0,1,0,1,,,,,,,,,,
,,,,6508626da81a2fc20dd4aa54,A,2024-05-26_15h37.58.791,Slot Machine Game,2023.1.3,MacIntel,60.97560976,,,,,,,,,,,,,,,,,,,,,,,,,,,200,,,,,,,,,,,,,,,,,,,,,6,6,,,459.2013,2,right,0.0507,,0.5,0.3,"[2,3,1]",0.631247939,stimuli/card_100_transparent.png,100,2,0,2,0,1,,,,,,,,,,
,,,,6508626da81a2fc20dd4aa54,A,2024-05-26_15h37.58.791,Slot Machine Game,2023.1.3,MacIntel,60.97560976,,,,,,,,,,,,,,,,,,,,,,,,,,,300,,,,,,,,,,,,,,,,,,,,,6,6,,,460.5687,3,right,0.2025,,1.5,0.3,"[2,3,1]",0.736473894,stimuli/card_100_transparent.png,100,3,0,3,0,1,,,,,,,,,,
,,,,6508626da81a2fc20dd4aa54,A,2024-05-26_15h37.58.791,Slot Machine Game,2023.1.3,MacIntel,60.97560976,,,,,,,,,,,,,,,,,,,,,,,,,,,310,,,,,,,,,,,,,,,,,,,,,6,6,,,463.1016,4,right,0.0734,,1,0.3,"[1,3,2]",0.498809298,stimuli/card_10_transparent.png,10,4,0,4,0,1,,,,,,,,,,
,,,,6508626da81a2fc20dd4aa54,A,2024-05-26_15h37.58.791,Slot Machine Game,2023.1.3,MacIntel,60.97560976,,,,,,,,,,,,,,,,,,,,,,,,,,,310,,,,,,,,,,,,,,,,,,,,,6,6,,,464.9846,5,right,0.7899,,0.5,0.3,"[1,3,2]",0.044752653,stimuli/card_0_transparent.png,0,5,0,5,0,1,,,,,,,,,,
,,,,6508626da81a2fc20dd4aa54,A,2024-05-26_15h37.58.791,Slot Machine Game,2023.1.3,MacIntel,60.97560976,,,,,,,,,,,,,,,,,,,,,,,,,,,320,,,,,,,,,,,,,,,,,,,,,6,6,,,467.0855,6,right,0.0224,,1.5,0.3,"[1,3,2]",0.705294069,stimuli/card_10_transparent.png,10,6,0,6,0,1,,,,,,,,,,
,,,,6508626da81a2fc20dd4aa54,A,2024-05-26_15h37.58.791,Slot Machine Game,2023.1.3,MacIntel,60.97560976,,,,,,,,,,,,,,,,,,,,,,,,,,,320,,,,,,,,,,,,,,,,,,,,,6,6,,,469.4193,7,left,0.6269,,0.5,0.3,"[1,3,2]",0.098211246,stimuli/card_0_transparent.png,0,7,0,7,0,1,,,,,,,,,,
,,,,6508626da81a2fc20dd4aa54,A,2024-05-26_15h37.58.791,Slot Machine Game,2023.1.3,MacIntel,60.97560976,,,,,,,,,,,,,,,,,,,,,,,,,,,420,,,,,,,,,,,,,,,,,,,,,6,6,,,471.3695,8,left,0.3872,,1,0.3,"[1,3,2]",0.308133511,stimuli/card_100_transparent.png,100,8,0,8,0,1,,,,,,,,,,
,,,,6508626da81a2fc20dd4aa54,A,2024-05-26_15h37.58.791,Slot Machine Game,2023.1.3,MacIntel,60.97560976,,,,,,,,,,,,,,,,,,,,,,,,,,,520,,,,,,,,,,,,,,,,,,,,,6,6,,,473.5866,9,left,0.1088,,1.5,0.3,"[1,3,2]",0.367976026,stimuli/card_100_transparent.png,100,9,0,9,0,1,,,,,,,,,,
,,,,6508626da81a2fc20dd4aa54,A,2024-05-26_15h37.58.791,Slot Machine Game,2023.1.3,MacIntel,60.97560976,,,,,,,,,,,,,,,,,,,,,,,,,,,520,,,,,,,,,,,,,,,,,,,,,6,6,,,476.0029,10,left,0.0017,,1.5,0.3,"[3,2,1]",0.666647099,stimuli/card_0_transparent.png,0,10,0,10,0,1,,,,,,,,,,
,,,,6508626da81a2fc20dd4aa54,A,2024-05-26_15h37.58.791,Slot Machine Game,2023.1.3,MacIntel,60.97560976,,,,,,,,,,,,,,,,,,,,,,,,,,,620,,,,,,,,,,,,,,,,,,,,,6,6,,,478.3199,11,left,0.2064,,1.5,0.3,"[3,2,1]",0.058093462,stimuli/card_100_transparent.png,100,11,0,11,0,1,,,,,,,,,,
,,,,6508626da81a2fc20dd4aa54,A,2024-05-26_15h37.58.791,Slot Machine Game,2023.1.3,MacIntel,60.97560976,,,,,,,,,,,,,,,,,,,,,,,,,,,620,,,,,,,,,,,,,,,,,,,,,6,6,,,480.8534,12,left,0.0365,,0.5,0.3,"[3,2,1]",0.302231795,stimuli/card_0_transparent.png,0,12,0,12,0,1,,,,,,,,,,
,,,,6508626da81a2fc20dd4aa54,A,2024-05-26_15h37.58.791,Slot Machine Game,2023.1.3,MacIntel,60.97560976,,,,,,,,,,,,,,,,,,,,,,,,,,,720,,,,,,,,,,,,,,,,,,,,,6,6,,,482.2196,13,left,0.1171,,0.5,0.3,"[3,2,1]",0.08505992,stimuli/card_100_transparent.png,100,13,0,13,0,1,,,,,,,,,,
,,,,6508626da81a2fc20dd4aa54,A,2024-05-26_15h37.58.791,Slot Machine Game,2023.1.3,MacIntel,60.97560976,,,,,,,,,,,,,,,,,,,,,,,,,,,720,,,,,,,,,,,,,,,,,,,,,6,6,,,483.6536,14,left,0.2071,,1.5,0.3,"[3,2,1]",0.741676844,stimuli/card_0_transparent.png,0,14,0,14,0,1,,,,,,,,,,
,,,,6508626da81a2fc20dd4aa54,A,2024-05-26_15h37.58.791,Slot Machine Game,2023.1.3,MacIntel,60.97560976,,,,,,,,,,,,,,,,,,,,,,,,,,,,,,,,,,,486.1866,,,,,,,,,,,,,,,,,,,,,,,,,,,,,,,,,"[740,750,940,510,1010,720]",5,0,5,0,1,,,,
,,,,6508626da81a2fc20dd4aa54,A,2024-05-26_15h37.58.791,Slot Machine Game,2023.1.3,MacIntel,60.97560976,,,,,,,,,,,,,,,,,,,,,,,,,,,0,,,,,,,,,,,,,,,,,,,,,7,7,"[9,15]","[[1,3,2],[2,3,1]]",491.1996,0,up,1.2025,,1.5,0.3,"[1,3,2]",0.567658278,stimuli/card_0_transparent.png,0,0,0,0,0,1,,,,,,,,,,
,,,,6508626da81a2fc20dd4aa54,A,2024-05-26_15h37.58.791,Slot Machine Game,2023.1.3,MacIntel,60.97560976,,,,,,,,,,,,,,,,,,,,,,,,,,,0,,,,,,,,,,,,,,,,,,,,,7,7,,,494.7199,1,right,1.8332,,1,0.3,"[1,3,2]",0.09935107,stimuli/card_0_transparent.png,0,1,0,1,0,1,,,,,,,,,,
,,,,6508626da81a2fc20dd4aa54,A,2024-05-26_15h37.58.791,Slot Machine Game,2023.1.3,MacIntel,60.97560976,,,,,,,,,,,,,,,,,,,,,,,,,,,100,,,,,,,,,,,,,,,,,,,,,7,7,,,498.3709,2,up,0.6202,,1,0.3,"[1,3,2]",0.014063534,stimuli/card_100_transparent.png,100,2,0,2,0,1,,,,,,,,,,
,,,,6508626da81a2fc20dd4aa54,A,2024-05-26_15h37.58.791,Slot Machine Game,2023.1.3,MacIntel,60.97560976,,,,,,,,,,,,,,,,,,,,,,,,,,,100,,,,,,,,,,,,,,,,,,,,,7,7,,,500.804,3,up,0.0744,,1,0.3,"[1,3,2]",0.671393519,stimuli/card_0_transparent.png,0,3,0,3,0,1,,,,,,,,,,
,,,,6508626da81a2fc20dd4aa54,A,2024-05-26_15h37.58.791,Slot Machine Game,2023.1.3,MacIntel,60.97560976,,,,,,,,,,,,,,,,,,,,,,,,,,,100,,,,,,,,,,,,,,,,,,,,,7,7,,,502.706,4,up,0.2577,,0.5,0.3,"[1,3,2]",0.812021552,stimuli/card_0_transparent.png,0,4,0,4,0,1,,,,,,,,,,
,,,,6508626da81a2fc20dd4aa54,A,2024-05-26_15h37.58.791,Slot Machine Game,2023.1.3,MacIntel,60.97560976,,,,,,,,,,,,,,,,,,,,,,,,,,,200,,,,,,,,,,,,,,,,,,,,,7,7,,,504.2884,5,left,0.8158,,1.5,0.3,"[1,3,2]",0.998142697,stimuli/card_100_transparent.png,100,5,0,5,0,1,,,,,,,,,,
,,,,6508626da81a2fc20dd4aa54,A,2024-05-26_15h37.58.791,Slot Machine Game,2023.1.3,MacIntel,60.97560976,,,,,,,,,,,,,,,,,,,,,,,,,,,300,,,,,,,,,,,,,,,,,,,,,7,7,,,507.4387,6,left,0.4847,,0.5,0.3,"[1,3,2]",0.911547554,stimuli/card_100_transparent.png,100,6,0,6,0,1,,,,,,,,,,
,,,,6508626da81a2fc20dd4aa54,A,2024-05-26_15h37.58.791,Slot Machine Game,2023.1.3,MacIntel,60.97560976,,,,,,,,,,,,,,,,,,,,,,,,,,,400,,,,,,,,,,,,,,,,,,,,,7,7,,,509.2556,7,left,0.0005,,0.5,0.3,"[1,3,2]",0.636615806,stimuli/card_100_transparent.png,100,7,0,7,0,1,,,,,,,,,,
,,,,6508626da81a2fc20dd4aa54,A,2024-05-26_15h37.58.791,Slot Machine Game,2023.1.3,MacIntel,60.97560976,,,,,,,,,,,,,,,,,,,,,,,,,,,500,,,,,,,,,,,,,,,,,,,,,7,7,,,510.589,8,left,0.1054,,1.5,0.3,"[1,3,2]",0.625341356,stimuli/card_100_transparent.png,100,8,0,8,0,1,,,,,,,,,,
,,,,6508626da81a2fc20dd4aa54,A,2024-05-26_15h37.58.791,Slot Machine Game,2023.1.3,MacIntel,60.97560976,,,,,,,,,,,,,,,,,,,,,,,,,,,510,,,,,,,,,,,,,,,,,,,,,7,7,,,513.0214,9,left,0.1351,,1,0.3,"[2,3,1]",0.934559131,stimuli/card_10_transparent.png,10,9,0,9,0,1,,,,,,,,,,
,,,,6508626da81a2fc20dd4aa54,A,2024-05-26_15h37.58.791,Slot Machine Game,2023.1.3,MacIntel,60.97560976,,,,,,,,,,,,,,,,,,,,,,,,,,,520,,,,,,,,,,,,,,,,,,,,,7,7,,,514.9725,10,left,0.2838,,0.5,0.3,"[2,3,1]",0.902104869,stimuli/card_10_transparent.png,10,10,0,10,0,1,,,,,,,,,,
,,,,6508626da81a2fc20dd4aa54,A,2024-05-26_15h37.58.791,Slot Machine Game,2023.1.3,MacIntel,60.97560976,,,,,,,,,,,,,,,,,,,,,,,,,,,530,,,,,,,,,,,,,,,,,,,,,7,7,,,516.5893,11,left,0.0177,,0.5,0.3,"[2,3,1]",0.421866967,stimuli/card_10_transparent.png,10,11,0,11,0,1,,,,,,,,,,
,,,,6508626da81a2fc20dd4aa54,A,2024-05-26_15h37.58.791,Slot Machine Game,2023.1.3,MacIntel,60.97560976,,,,,,,,,,,,,,,,,,,,,,,,,,,540,,,,,,,,,,,,,,,,,,,,,7,7,,,517.9382,12,left,0.9671,,0.5,0.3,"[2,3,1]",0.466423644,stimuli/card_10_transparent.png,10,12,0,12,0,1,,,,,,,,,,
,,,,6508626da81a2fc20dd4aa54,A,2024-05-26_15h37.58.791,Slot Machine Game,2023.1.3,MacIntel,60.97560976,,,,,,,,,,,,,,,,,,,,,,,,,,,540,,,,,,,,,,,,,,,,,,,,,7,7,,,520.2219,13,up,0.1999,,0.5,0.3,"[2,3,1]",0.840882409,stimuli/card_0_transparent.png,0,13,0,13,0,1,,,,,,,,,,
,,,,6508626da81a2fc20dd4aa54,A,2024-05-26_15h37.58.791,Slot Machine Game,2023.1.3,MacIntel,60.97560976,,,,,,,,,,,,,,,,,,,,,,,,,,,550,,,,,,,,,,,,,,,,,,,,,7,7,,,521.7397,14,left,0.0193,,0.5,0.3,"[2,3,1]",0.884046805,stimuli/card_10_transparent.png,10,14,0,14,0,1,,,,,,,,,,
,,,,6508626da81a2fc20dd4aa54,A,2024-05-26_15h37.58.791,Slot Machine Game,2023.1.3,MacIntel,60.97560976,,,,,,,,,,,,,,,,,,,,,,,,,,,,,,,,,,,523.0907,,,,,,,,,,,,,,,,,,,,,,,,,,,,,,,,,"[740,750,940,510,1010,720,550]",6,0,6,0,1,,,,
,,,,6508626da81a2fc20dd4aa54,A,2024-05-26_15h37.58.791,Slot Machine Game,2023.1.3,MacIntel,60.97560976,,,,,,,,,,,,,,,,,,,,,,,,,,,100,,,,,,,,,,,,,,,,,,,,,8,8,"[11,15]","[[2,1,3],[1,2,3]]",528.1059,0,up,0.1719,,1,0.3,"[2,1,3]",0.938264673,stimuli/card_100_transparent.png,100,0,0,0,0,1,,,,,,,,,,
,,,,6508626da81a2fc20dd4aa54,A,2024-05-26_15h37.58.791,Slot Machine Game,2023.1.3,MacIntel,60.97560976,,,,,,,,,,,,,,,,,,,,,,,,,,,200,,,,,,,,,,,,,,,,,,,,,8,8,,,530.0903,1,up,0.1498,,1.5,0.3,"[2,1,3]",0.3178616,stimuli/card_100_transparent.png,100,1,0,1,0,1,,,,,,,,,,
,,,,6508626da81a2fc20dd4aa54,A,2024-05-26_15h37.58.791,Slot Machine Game,2023.1.3,MacIntel,60.97560976,,,,,,,,,,,,,,,,,,,,,,,,,,,210,,,,,,,,,,,,,,,,,,,,,8,8,,,532.5735,2,up,1.4,,1,0.3,"[2,1,3]",0.127443199,stimuli/card_10_transparent.png,10,2,0,2,0,1,,,,,,,,,,
,,,,6508626da81a2fc20dd4aa54,A,2024-05-26_15h37.58.791,Slot Machine Game,2023.1.3,MacIntel,60.97560976,,,,,,,,,,,,,,,,,,,,,,,,,,,220,,,,,,,,,,,,,,,,,,,,,8,8,,,535.8065,3,left,0.1234,,0.5,0.3,"[2,1,3]",0.787470776,stimuli/card_10_transparent.png,10,3,0,3,0,1,,,,,,,,,,
,,,,6508626da81a2fc20dd4aa54,A,2024-05-26_15h37.58.791,Slot Machine Game,2023.1.3,MacIntel,60.97560976,,,,,,,,,,,,,,,,,,,,,,,,,,,230,,,,,,,,,,,,,,,,,,,,,8,8,,,537.2402,4,left,0.1674,,1.5,0.3,"[2,1,3]",0.598114717,stimuli/card_10_transparent.png,10,4,0,4,0,1,,,,,,,,,,
,,,,6508626da81a2fc20dd4aa54,A,2024-05-26_15h37.58.791,Slot Machine Game,2023.1.3,MacIntel,60.97560976,,,,,,,,,,,,,,,,,,,,,,,,,,,230,,,,,,,,,,,,,,,,,,,,,8,8,,,539.7409,5,right,0.5764,,0.5,0.3,"[2,1,3]",0.65681625,stimuli/card_0_transparent.png,0,5,0,5,0,1,,,,,,,,,,
,,,,6508626da81a2fc20dd4aa54,A,2024-05-26_15h37.58.791,Slot Machine Game,2023.1.3,MacIntel,60.97560976,,,,,,,,,,,,,,,,,,,,,,,,,,,230,,,,,,,,,,,,,,,,,,,,,8,8,,,541.6397,6,right,0.3667,,1.5,0.3,"[2,1,3]",0.380413787,stimuli/card_0_transparent.png,0,6,0,6,0,1,,,,,,,,,,
,,,,6508626da81a2fc20dd4aa54,A,2024-05-26_15h37.58.791,Slot Machine Game,2023.1.3,MacIntel,60.97560976,,,,,,,,,,,,,,,,,,,,,,,,,,,230,,,,,,,,,,,,,,,,,,,,,8,8,,,544.3245,7,right,0.2369,,1,0.3,"[2,1,3]",0.478560383,stimuli/card_0_transparent.png,0,7,0,7,0,1,,,,,,,,,,
,,,,6508626da81a2fc20dd4aa54,A,2024-05-26_15h37.58.791,Slot Machine Game,2023.1.3,MacIntel,60.97560976,,,,,,,,,,,,,,,,,,,,,,,,,,,330,,,,,,,,,,,,,,,,,,,,,8,8,,,546.3913,8,up,0.2997,,1.5,0.3,"[2,1,3]",0.716881407,stimuli/card_100_transparent.png,100,8,0,8,0,1,,,,,,,,,,
,,,,6508626da81a2fc20dd4aa54,A,2024-05-26_15h37.58.791,Slot Machine Game,2023.1.3,MacIntel,60.97560976,,,,,,,,,,,,,,,,,,,,,,,,,,,330,,,,,,,,,,,,,,,,,,,,,8,8,,,549.0082,9,up,0.0401,,1.5,0.3,"[2,1,3]",0.024913551,stimuli/card_0_transparent.png,0,9,0,9,0,1,,,,,,,,,,
,,,,6508626da81a2fc20dd4aa54,A,2024-05-26_15h37.58.791,Slot Machine Game,2023.1.3,MacIntel,60.97560976,,,,,,,,,,,,,,,,,,,,,,,,,,,430,,,,,,,,,,,,,,,,,,,,,8,8,,,551.3752,10,up,0.0507,,1,0.3,"[2,1,3]",0.82470842,stimuli/card_100_transparent.png,100,10,0,10,0,1,,,,,,,,,,
,,,,6508626da81a2fc20dd4aa54,A,2024-05-26_15h37.58.791,Slot Machine Game,2023.1.3,MacIntel,60.97560976,,,,,,,,,,,,,,,,,,,,,,,,,,,530,,,,,,,,,,,,,,,,,,,,,8,8,,,553.2584,11,up,0.032,,0.5,0.3,"[1,2,3]",0.149515379,stimuli/card_100_transparent.png,100,11,0,11,0,1,,,,,,,,,,
,,,,6508626da81a2fc20dd4aa54,A,2024-05-26_15h37.58.791,Slot Machine Game,2023.1.3,MacIntel,60.97560976,,,,,,,,,,,,,,,,,,,,,,,,,,,530,,,,,,,,,,,,,,,,,,,,,8,8,,,554.6239,12,up,0.0846,,1.5,0.3,"[1,2,3]",0.031697253,stimuli/card_0_transparent.png,0,12,0,12,0,1,,,,,,,,,,
,,,,6508626da81a2fc20dd4aa54,A,2024-05-26_15h37.58.791,Slot Machine Game,2023.1.3,MacIntel,60.97560976,,,,,,,,,,,,,,,,,,,,,,,,,,,630,,,,,,,,,,,,,,,,,,,,,8,8,,,557.0413,13,up,0.189,,1.5,0.3,"[1,2,3]",0.11001559,stimuli/card_100_transparent.png,100,13,0,13,0,1,,,,,,,,,,
,,,,6508626da81a2fc20dd4aa54,A,2024-05-26_15h37.58.791,Slot Machine Game,2023.1.3,MacIntel,60.97560976,,,,,,,,,,,,,,,,,,,,,,,,,,,640,,,,,,,,,,,,,,,,,,,,,8,8,,,559.542,14,up,0.091,,1.5,0.3,"[1,2,3]",0.315962754,stimuli/card_10_transparent.png,10,14,0,14,0,1,,,,,,,,,,
,,,,6508626da81a2fc20dd4aa54,A,2024-05-26_15h37.58.791,Slot Machine Game,2023.1.3,MacIntel,60.97560976,,,,,,,,,,,,,,,,,,,,,,,,,,,,,,,,,,,561.9585,,,,,,,,,,,,,,,,,,,,,,,,,,,,,,,,,"[740,750,940,510,1010,720,550,640]",7,0,7,0,1,,,,
,,,,6508626da81a2fc20dd4aa54,A,2024-05-26_15h37.58.791,Slot Machine Game,2023.1.3,MacIntel,60.97560976,,,,,,,,,,,,,,,,,,,,,,,,,,,10,,,,,,,,,,,,,,,,,,,,,9,9,"[8,15]","[[3,2,1],[3,1,2]]",566.9755,0,up,1.2322,,1.5,0.3,"[3,2,1]",0.871779219,stimuli/card_10_transparent.png,10,0,0,0,0,1,,,,,,,,,,
,,,,6508626da81a2fc20dd4aa54,A,2024-05-26_15h37.58.791,Slot Machine Game,2023.1.3,MacIntel,60.97560976,,,,,,,,,,,,,,,,,,,,,,,,,,,10,,,,,,,,,,,,,,,,,,,,,9,9,,,570.5266,1,left,0.9736,,1.5,0.3,"[3,2,1]",0.374325333,stimuli/card_0_transparent.png,0,1,0,1,0,1,,,,,,,,,,
,,,,6508626da81a2fc20dd4aa54,A,2024-05-26_15h37.58.791,Slot Machine Game,2023.1.3,MacIntel,60.97560976,,,,,,,,,,,,,,,,,,,,,,,,,,,10,,,,,,,,,,,,,,,,,,,,,9,9,,,573.8265,2,left,0.0091,,1,0.3,"[3,2,1]",0.733139925,stimuli/card_0_transparent.png,0,2,0,2,0,1,,,,,,,,,,
,,,,6508626da81a2fc20dd4aa54,A,2024-05-26_15h37.58.791,Slot Machine Game,2023.1.3,MacIntel,60.97560976,,,,,,,,,,,,,,,,,,,,,,,,,,,110,,,,,,,,,,,,,,,,,,,,,9,9,,,575.6601,3,right,0.3069,,1.5,0.3,"[3,2,1]",0.99437185,stimuli/card_100_transparent.png,100,3,0,3,0,1,,,,,,,,,,
,,,,6508626da81a2fc20dd4aa54,A,2024-05-26_15h37.58.791,Slot Machine Game,2023.1.3,MacIntel,60.97560976,,,,,,,,,,,,,,,,,,,,,,,,,,,210,,,,,,,,,,,,,,,,,,,,,9,9,,,578.2931,4,right,0.2344,,1,0.3,"[3,2,1]",0.372098331,stimuli/card_100_transparent.png,100,4,0,4,0,1,,,,,,,,,,
,,,,6508626da81a2fc20dd4aa54,A,2024-05-26_15h37.58.791,Slot Machine Game,2023.1.3,MacIntel,60.97560976,,,,,,,,,,,,,,,,,,,,,,,,,,,310,,,,,,,,,,,,,,,,,,,,,9,9,,,580.3437,5,right,0.1721,,1.5,0.3,"[3,2,1]",0.897605352,stimuli/card_100_transparent.png,100,5,0,5,0,1,,,,,,,,,,
,,,,6508626da81a2fc20dd4aa54,A,2024-05-26_15h37.58.791,Slot Machine Game,2023.1.3,MacIntel,60.97560976,,,,,,,,,,,,,,,,,,,,,,,,,,,410,,,,,,,,,,,,,,,,,,,,,9,9,,,582.8439,6,right,0.075,,1,0.3,"[3,2,1]",0.934191659,stimuli/card_100_transparent.png,100,6,0,6,0,1,,,,,,,,,,
,,,,6508626da81a2fc20dd4aa54,A,2024-05-26_15h37.58.791,Slot Machine Game,2023.1.3,MacIntel,60.97560976,,,,,,,,,,,,,,,,,,,,,,,,,,,510,,,,,,,,,,,,,,,,,,,,,9,9,,,584.7441,7,right,0.1432,,1.5,0.3,"[3,2,1]",0.227541698,stimuli/card_100_transparent.png,100,7,0,7,0,1,,,,,,,,,,
,,,,6508626da81a2fc20dd4aa54,A,2024-05-26_15h37.58.791,Slot Machine Game,2023.1.3,MacIntel,60.97560976,,,,,,,,,,,,,,,,,,,,,,,,,,,520,,,,,,,,,,,,,,,,,,,,,9,9,,,587.2107,8,right,0.1055,,0.5,0.3,"[3,1,2]",0.666775188,stimuli/card_10_transparent.png,10,8,0,8,0,1,,,,,,,,,,
,,,,6508626da81a2fc20dd4aa54,A,2024-05-26_15h37.58.791,Slot Machine Game,2023.1.3,MacIntel,60.97560976,,,,,,,,,,,,,,,,,,,,,,,,,,,530,,,,,,,,,,,,,,,,,,,,,9,9,,,588.6439,9,right,0.2741,,1.5,0.3,"[3,1,2]",0.320358902,stimuli/card_10_transparent.png,10,9,0,9,0,1,,,,,,,,,,
,,,,6508626da81a2fc20dd4aa54,A,2024-05-26_15h37.58.791,Slot Machine Game,2023.1.3,MacIntel,60.97560976,,,,,,,,,,,,,,,,,,,,,,,,,,,540,,,,,,,,,,,,,,,,,,,,,9,9,,,591.2278,10,right,1.315,,0.5,0.3,"[3,1,2]",0.559412372,stimuli/card_10_transparent.png,10,10,0,10,0,1,,,,,,,,,,
,,,,6508626da81a2fc20dd4aa54,A,2024-05-26_15h37.58.791,Slot Machine Game,2023.1.3,MacIntel,60.97560976,,,,,,,,,,,,,,,,,,,,,,,,,,,540,,,,,,,,,,,,,,,,,,,,,9,9,,,593.8778,11,left,0.0537,,1,0.3,"[3,1,2]",0.387818994,stimuli/card_0_transparent.png,0,11,0,11,0,1,,,,,,,,,,
,,,,6508626da81a2fc20dd4aa54,A,2024-05-26_15h37.58.791,Slot Machine Game,2023.1.3,MacIntel,60.97560976,,,,,,,,,,,,,,,,,,,,,,,,,,,540,,,,,,,,,,,,,,,,,,,,,9,9,,,595.7613,12,left,0.09,,0.5,0.3,"[3,1,2]",0.710842947,stimuli/card_0_transparent.png,0,12,0,12,0,1,,,,,,,,,,
,,,,6508626da81a2fc20dd4aa54,A,2024-05-26_15h37.58.791,Slot Machine Game,2023.1.3,MacIntel,60.97560976,,,,,,,,,,,,,,,,,,,,,,,,,,,540,,,,,,,,,,,,,,,,,,,,,9,9,,,597.1615,13,left,0.185,,0.5,0.3,"[3,1,2]",0.623255304,stimuli/card_0_transparent.png,0,13,0,13,0,1,,,,,,,,,,
,,,,6508626da81a2fc20dd4aa54,A,2024-05-26_15h37.58.791,Slot Machine Game,2023.1.3,MacIntel,60.97560976,,,,,,,,,,,,,,,,,,,,,,,,,,,640,,,,,,,,,,,,,,,,,,,,,9,9,,,598.6772,14,up,0.1898,,0.5,0.3,"[3,1,2]",0.383091676,stimuli/card_100_transparent.png,100,14,0,14,0,1,,,,,,,,,,
,,,,6508626da81a2fc20dd4aa54,A,2024-05-26_15h37.58.791,Slot Machine Game,2023.1.3,MacIntel,60.97560976,,,,,,,,,,,,,,,,,,,,,,,,,,,,,,,,,,,600.1786,,,,,,,,,,,,,,,,,,,,,,,,,,,,,,,,,"[740,750,940,510,1010,720,550,640,640]",8,0,8,0,1,,,,
,,,,6508626da81a2fc20dd4aa54,A,2024-05-26_15h37.58.791,Slot Machine Game,2023.1.3,MacIntel,60.97560976,,,,,,,,,,,,,,,,,,,,,,,,,,,100,,,,,,,,,,,,,,,,,,,,,10,10,"[10,15]","[[3,1,2],[1,3,2]]",605.1941,0,right,4.039,,1.5,0.3,"[3,1,2]",0.192851607,stimuli/card_100_transparent.png,100,0,0,0,0,1,,,,,,,,,,
,,,,6508626da81a2fc20dd4aa54,A,2024-05-26_15h37.58.791,Slot Machine Game,2023.1.3,MacIntel,60.97560976,,,,,,,,,,,,,,,,,,,,,,,,,,,100,,,,,,,,,,,,,,,,,,,,,10,10,,,611.5464,1,right,0.0931,,0.5,0.3,"[3,1,2]",0.050295491,stimuli/card_0_transparent.png,0,1,0,1,0,1,,,,,,,,,,
,,,,6508626da81a2fc20dd4aa54,A,2024-05-26_15h37.58.791,Slot Machine Game,2023.1.3,MacIntel,60.97560976,,,,,,,,,,,,,,,,,,,,,,,,,,,110,,,,,,,,,,,,,,,,,,,,,10,10,,,612.9626,2,right,0.2667,,1.5,0.3,"[3,1,2]",0.64272872,stimuli/card_10_transparent.png,10,2,0,2,0,1,,,,,,,,,,
,,,,6508626da81a2fc20dd4aa54,A,2024-05-26_15h37.58.791,Slot Machine Game,2023.1.3,MacIntel,60.97560976,,,,,,,,,,,,,,,,,,,,,,,,,,,120,,,,,,,,,,,,,,,,,,,,,10,10,,,615.5628,3,right,0.0838,,1.5,0.3,"[3,1,2]",0.492452763,stimuli/card_10_transparent.png,10,3,0,3,0,1,,,,,,,,,,
,,,,6508626da81a2fc20dd4aa54,A,2024-05-26_15h37.58.791,Slot Machine Game,2023.1.3,MacIntel,60.97560976,,,,,,,,,,,,,,,,,,,,,,,,,,,220,,,,,,,,,,,,,,,,,,,,,10,10,,,617.9795,4,up,0.0889,,1,0.3,"[3,1,2]",0.726812211,stimuli/card_100_transparent.png,100,4,0,4,0,1,,,,,,,,,,
,,,,6508626da81a2fc20dd4aa54,A,2024-05-26_15h37.58.791,Slot Machine Game,2023.1.3,MacIntel,60.97560976,,,,,,,,,,,,,,,,,,,,,,,,,,,320,,,,,,,,,,,,,,,,,,,,,10,10,,,619.8966,5,up,0.0886,,0.5,0.3,"[3,1,2]",0.667052881,stimuli/card_100_transparent.png,100,5,0,5,0,1,,,,,,,,,,
,,,,6508626da81a2fc20dd4aa54,A,2024-05-26_15h37.58.791,Slot Machine Game,2023.1.3,MacIntel,60.97560976,,,,,,,,,,,,,,,,,,,,,,,,,,,420,,,,,,,,,,,,,,,,,,,,,10,10,,,621.3132,6,up,0.2898,,1.5,0.3,"[3,1,2]",0.251726789,stimuli/card_100_transparent.png,100,6,0,6,0,1,,,,,,,,,,
,,,,6508626da81a2fc20dd4aa54,A,2024-05-26_15h37.58.791,Slot Machine Game,2023.1.3,MacIntel,60.97560976,,,,,,,,,,,,,,,,,,,,,,,,,,,520,,,,,,,,,,,,,,,,,,,,,10,10,,,623.93,7,up,0.1397,,1.5,0.3,"[3,1,2]",0.573565376,stimuli/card_100_transparent.png,100,7,0,7,0,1,,,,,,,,,,
,,,,6508626da81a2fc20dd4aa54,A,2024-05-26_15h37.58.791,Slot Machine Game,2023.1.3,MacIntel,60.97560976,,,,,,,,,,,,,,,,,,,,,,,,,,,620,,,,,,,,,,,,,,,,,,,,,10,10,,,626.3968,8,up,0.1993,,1,0.3,"[3,1,2]",0.625678607,stimuli/card_100_transparent.png,100,8,0,8,0,1,,,,,,,,,,
,,,,6508626da81a2fc20dd4aa54,A,2024-05-26_15h37.58.791,Slot Machine Game,2023.1.3,MacIntel,60.97560976,,,,,,,,,,,,,,,,,,,,,,,,,,,630,,,,,,,,,,,,,,,,,,,,,10,10,,,628.4295,9,up,0.1069,,1.5,0.3,"[3,1,2]",0.128113653,stimuli/card_10_transparent.png,10,9,0,9,0,1,,,,,,,,,,
,,,,6508626da81a2fc20dd4aa54,A,2024-05-26_15h37.58.791,Slot Machine Game,2023.1.3,MacIntel,60.97560976,,,,,,,,,,,,,,,,,,,,,,,,,,,630,,,,,,,,,,,,,,,,,,,,,10,10,,,630.8467,10,up,0.0064,,1.5,0.3,"[1,3,2]",0.421594691,stimuli/card_0_transparent.png,0,10,0,10,0,1,,,,,,,,,,
,,,,6508626da81a2fc20dd4aa54,A,2024-05-26_15h37.58.791,Slot Machine Game,2023.1.3,MacIntel,60.97560976,,,,,,,,,,,,,,,,,,,,,,,,,,,640,,,,,,,,,,,,,,,,,,,,,10,10,,,633.1806,11,up,0.1931,,0.5,0.3,"[1,3,2]",0.148552334,stimuli/card_10_transparent.png,10,11,0,11,0,1,,,,,,,,,,
,,,,6508626da81a2fc20dd4aa54,A,2024-05-26_15h37.58.791,Slot Machine Game,2023.1.3,MacIntel,60.97560976,,,,,,,,,,,,,,,,,,,,,,,,,,,640,,,,,,,,,,,,,,,,,,,,,10,10,,,634.6968,12,up,0.2508,,1,0.3,"[1,3,2]",0.744709733,stimuli/card_0_transparent.png,0,12,0,12,0,1,,,,,,,,,,
,,,,6508626da81a2fc20dd4aa54,A,2024-05-26_15h37.58.791,Slot Machine Game,2023.1.3,MacIntel,60.97560976,,,,,,,,,,,,,,,,,,,,,,,,,,,640,,,,,,,,,,,,,,,,,,,,,10,10,,,636.781,13,up,1.0768,,0.5,0.3,"[1,3,2]",0.689588105,stimuli/card_0_transparent.png,0,13,0,13,0,1,,,,,,,,,,
,,,,6508626da81a2fc20dd4aa54,A,2024-05-26_15h37.58.791,Slot Machine Game,2023.1.3,MacIntel,60.97560976,,,,,,,,,,,,,,,,,,,,,,,,,,,640,,,,,,,,,,,,,,,,,,,,,10,10,,,639.181,14,up,0.0492,,1.5,0.3,"[1,3,2]",0.675324081,stimuli/card_0_transparent.png,0,14,0,14,0,1,,,,,,,,,,
,,,,6508626da81a2fc20dd4aa54,A,2024-05-26_15h37.58.791,Slot Machine Game,2023.1.3,MacIntel,60.97560976,,,,,,,,,,,,,,,,,,,,,,,,,,,,,,,,,,,641.5646,,,,,,,,,,,,,,,,,,,,,,,,,,,,,,,,,"[740,750,940,510,1010,720,550,640,640,640]",9,0,9,0,1,,,,
,,,,6508626da81a2fc20dd4aa54,A,2024-05-26_15h37.58.791,Slot Machine Game,2023.1.3,MacIntel,60.97560976,,,,,,,,,,,,,,,,,,,,,,,,,,,,,,,,,,,,,,,,,,,,,,,,,,,,,,,,,,,,,,,,,,,,,,,,,,9,"[740,750,940,510,1010,720,550,640,640,640]",10.1,2024-05-26_15h48.49.535
