key_resp_welcome_started,key_resp_welcome_keys,key_resp_welcome_rt,key_resp_welcome_duration,prolific_pid,path_id,date,expName,psychopyVersion,OS,frameRate,key_resp_instruction1_started,key_resp_instruction1_keys,key_resp_instruction1_rt,key_resp_instruction1_duration,key_resp_instruction2_started,key_resp_instruction2_keys,key_resp_instruction2_rt,key_resp_instruction2_duration,key_resp_instruction3_started,key_resp_instruction3_keys,key_resp_instruction3_rt,key_resp_instruction3_duration,key_resp_instruction4_started,key_resp_instruction4_keys,key_resp_instruction4_rt,key_resp_instruction4_duration,practiceCondition,practice_reward_seqs,practice_trial_started,practice_trial_num,practice_resp_rt,practice_keypress_time,practice_resp_keys,prac_presentationInterval,practice_reward_seq,reward_img,cumulative_reward,trial_reward,practice_trials.thisRepN,practice_trials.thisTrialN,practice_trials.thisN,practice_trials.thisIndex,practice_trials.ran,block_break_started,practice_end_time,practice_end_keys,practice_end_rt,practice_end_duration,main_instruction_text_started,block_condition,block_order_indices,main_instruction_keys,main_instruction_rt,main_instruction_duration,block_number,block_assignment,current_condition,main_reward_seqs,main_trial_started,main_trial_num,main_trial_keys,main_trial_rt,main_trial_keypress_time,main_presentationInterval,reward_presentation_time,main_reward_seq,reward_rand_val,main_reward_img,current_reward,main_trials.thisRepN,main_trials.thisTrialN,main_trials.thisN,main_trials.thisIndex,main_trials.ran,block_reward,block.thisRepN,block.thisTrialN,block.thisN,block.thisIndex,block.ran,block_reward.length,block_reward_all,reward_amount,date_end_task
0.0005,space,4.5028,,5ed68cac121a540dfb82f4ea,B,2024-08-25_11h41.27.285,Slot Machine Game,2023.1.3,Win32,59.88023952,,,,,,,,,,,,,,,,,,,,,,,,,,,,,,,,,,,,,,,,,,,,,,,,,,,,,,,,,,,,,,,,,,,,,,,,,,
,,,,5ed68cac121a540dfb82f4ea,B,2024-08-25_11h41.27.285,Slot Machine Game,2023.1.3,Win32,59.88023952,4.5248,space,9.5208,,,,,,,,,,,,,,,,,,,,,,,,,,,,,,,,,,,,,,,,,,,,,,,,,,,,,,,,,,,,,,,,,,,,,,,
,,,,5ed68cac121a540dfb82f4ea,B,2024-08-25_11h41.27.285,Slot Machine Game,2023.1.3,Win32,59.88023952,,,,,14.0792,space,27.9714,,,,,,,,,,,,,,,,,,,,,,,,,,,,,,,,,,,,,,,,,,,,,,,,,,,,,,,,,,,,,,,,,,,
,,,,5ed68cac121a540dfb82f4ea,B,2024-08-25_11h41.27.285,Slot Machine Game,2023.1.3,Win32,59.88023952,,,,,,,,,42.111,space,7.6245,,,,,,,,,,,,,,,,,,,,,,,,,,,,,,,,,,,,,,,,,,,,,,,,,,,,,,,,,,,,,,,
,,,,5ed68cac121a540dfb82f4ea,B,2024-08-25_11h41.27.285,Slot Machine Game,2023.1.3,Win32,59.88023952,,,,,,,,,,,,,,,,,,,,,,,,,,,,,,,,,,,,,,,,,,,,,,,,,,,,,,,,,,,,,,,,,,,,,,,,,,
,,,,5ed68cac121a540dfb82f4ea,B,2024-08-25_11h41.27.285,Slot Machine Game,2023.1.3,Win32,59.88023952,,,,,,,,,,,,,191.8614,space,4.452,,,,,,,,,,,,,,,,,,,,,,,,,,,,,,,,,,,,,,,,,,,,,,,,,,,,,,,,,,,
,,,,5ed68cac121a540dfb82f4ea,B,2024-08-25_11h41.27.285,Slot Machine Game,2023.1.3,Win32,59.88023952,,,,,,,,,,,,,,,,,"[9,15]","[[2,1,3],[2,3,1]]",196.3709,0,1.5016,197.9012,left,0.5,"[2,1,3]",stimuli/card_10_transparent.png,10,10,0,0,0,0,1,,,,,,,,,,,,,,,,,,,,,,,,,,,,,,,,,,,,,,,,,
,,,,5ed68cac121a540dfb82f4ea,B,2024-08-25_11h41.27.285,Slot Machine Game,2023.1.3,Win32,59.88023952,,,,,,,,,,,,,,,,,,,198.7047,1,0.5655,199.2994,left,0.5,"[2,1,3]",stimuli/card_10_transparent.png,20,10,1,0,1,0,1,,,,,,,,,,,,,,,,,,,,,,,,,,,,,,,,,,,,,,,,,
,,,,5ed68cac121a540dfb82f4ea,B,2024-08-25_11h41.27.285,Slot Machine Game,2023.1.3,Win32,59.88023952,,,,,,,,,,,,,,,,,,,200.1045,2,1.6073,201.7362,up,1,"[2,1,3]",stimuli/card_0_transparent.png,20,0,2,0,2,0,1,,,,,,,,,,,,,,,,,,,,,,,,,,,,,,,,,,,,,,,,,
,,,,5ed68cac121a540dfb82f4ea,B,2024-08-25_11h41.27.285,Slot Machine Game,2023.1.3,Win32,59.88023952,,,,,,,,,,,,,,,,,,,203.0389,3,0.8942,203.9631,up,1.5,"[2,1,3]",stimuli/card_100_transparent.png,120,100,3,0,3,0,1,,,,,,,,,,,,,,,,,,,,,,,,,,,,,,,,,,,,,,,,,
,,,,5ed68cac121a540dfb82f4ea,B,2024-08-25_11h41.27.285,Slot Machine Game,2023.1.3,Win32,59.88023952,,,,,,,,,,,,,,,,,,,205.7571,4,0.5354,206.3246,up,1.5,"[2,1,3]",stimuli/card_100_transparent.png,220,100,4,0,4,0,1,,,,,,,,,,,,,,,,,,,,,,,,,,,,,,,,,,,,,,,,,
,,,,5ed68cac121a540dfb82f4ea,B,2024-08-25_11h41.27.285,Slot Machine Game,2023.1.3,Win32,59.88023952,,,,,,,,,,,,,,,,,,,208.1249,5,3.1325,211.282,up,1.5,"[2,1,3]",stimuli/card_0_transparent.png,220,0,5,0,5,0,1,,,,,,,,,,,,,,,,,,,,,,,,,,,,,,,,,,,,,,,,,
,,,,5ed68cac121a540dfb82f4ea,B,2024-08-25_11h41.27.285,Slot Machine Game,2023.1.3,Win32,59.88023952,,,,,,,,,,,,,,,,,,,213.0771,6,1.4594,214.5593,up,1,"[2,1,3]",stimuli/card_100_transparent.png,320,100,6,0,6,0,1,,,,,,,,,,,,,,,,,,,,,,,,,,,,,,,,,,,,,,,,,
,,,,5ed68cac121a540dfb82f4ea,B,2024-08-25_11h41.27.285,Slot Machine Game,2023.1.3,Win32,59.88023952,,,,,,,,,,,,,,,,,,,215.862,7,0.5842,216.4765,up,1.5,"[2,1,3]",stimuli/card_100_transparent.png,420,100,7,0,7,0,1,,,,,,,,,,,,,,,,,,,,,,,,,,,,,,,,,,,,,,,,,
,,,,5ed68cac121a540dfb82f4ea,B,2024-08-25_11h41.27.285,Slot Machine Game,2023.1.3,Win32,59.88023952,,,,,,,,,,,,,,,,,,,218.2798,8,0.9345,219.2448,up,1,"[2,1,3]",stimuli/card_100_transparent.png,520,100,8,0,8,0,1,,,,,,,,,,,,,,,,,,,,,,,,,,,,,,,,,,,,,,,,,
,,,,5ed68cac121a540dfb82f4ea,B,2024-08-25_11h41.27.285,Slot Machine Game,2023.1.3,Win32,59.88023952,,,,,,,,,,,,,,,,,,,220.5479,9,1.7444,222.3224,up,1.5,"[2,3,1]",stimuli/card_0_transparent.png,520,0,9,0,9,0,1,,,,,,,,,,,,,,,,,,,,,,,,,,,,,,,,,,,,,,,,,
,,,,5ed68cac121a540dfb82f4ea,B,2024-08-25_11h41.27.285,Slot Machine Game,2023.1.3,Win32,59.88023952,,,,,,,,,,,,,,,,,,,224.1156,10,1.1011,225.2313,up,1,"[2,3,1]",stimuli/card_100_transparent.png,620,100,10,0,10,0,1,,,,,,,,,,,,,,,,,,,,,,,,,,,,,,,,,,,,,,,,,
,,,,5ed68cac121a540dfb82f4ea,B,2024-08-25_11h41.27.285,Slot Machine Game,2023.1.3,Win32,59.88023952,,,,,,,,,,,,,,,,,,,226.5346,11,0.6866,227.2682,up,1.5,"[2,3,1]",stimuli/card_0_transparent.png,620,0,11,0,11,0,1,,,,,,,,,,,,,,,,,,,,,,,,,,,,,,,,,,,,,,,,,
,,,,5ed68cac121a540dfb82f4ea,B,2024-08-25_11h41.27.285,Slot Machine Game,2023.1.3,Win32,59.88023952,,,,,,,,,,,,,,,,,,,229.0684,12,0.7514,229.8529,up,1,"[2,3,1]",stimuli/card_0_transparent.png,620,0,12,0,12,0,1,,,,,,,,,,,,,,,,,,,,,,,,,,,,,,,,,,,,,,,,,
,,,,5ed68cac121a540dfb82f4ea,B,2024-08-25_11h41.27.285,Slot Machine Game,2023.1.3,Win32,59.88023952,,,,,,,,,,,,,,,,,,,231.153,13,0.6845,231.8705,right,1.5,"[2,3,1]",stimuli/card_100_transparent.png,720,100,13,0,13,0,1,,,,,,,,,,,,,,,,,,,,,,,,,,,,,,,,,,,,,,,,,
,,,,5ed68cac121a540dfb82f4ea,B,2024-08-25_11h41.27.285,Slot Machine Game,2023.1.3,Win32,59.88023952,,,,,,,,,,,,,,,,,,,233.6707,14,0.6843,234.3855,right,1,"[2,3,1]",stimuli/card_100_transparent.png,820,100,14,0,14,0,1,,,,,,,,,,,,,,,,,,,,,,,,,,,,,,,,,,,,,,,,,
,,,,5ed68cac121a540dfb82f4ea,B,2024-08-25_11h41.27.285,Slot Machine Game,2023.1.3,Win32,59.88023952,,,,,,,,,,,,,,,,,"[6,15]","[[1,3,2],[3,1,2]]",240.7235,0,2.2685,243.0227,up,1,"[1,3,2]",stimuli/card_0_transparent.png,0,0,0,0,0,0,1,235.7199,,,,,,,,,,,,,,,,,,,,,,,,,,,,,,,,,,,,,,,,
,,,,5ed68cac121a540dfb82f4ea,B,2024-08-25_11h41.27.285,Slot Machine Game,2023.1.3,Win32,59.88023952,,,,,,,,,,,,,,,,,,,244.326,1,0.5674,244.9416,up,1,"[1,3,2]",stimuli/card_0_transparent.png,0,0,1,0,1,0,1,,,,,,,,,,,,,,,,,,,,,,,,,,,,,,,,,,,,,,,,,
,,,,5ed68cac121a540dfb82f4ea,B,2024-08-25_11h41.27.285,Slot Machine Game,2023.1.3,Win32,59.88023952,,,,,,,,,,,,,,,,,,,246.2437,2,3.2525,249.529,right,0.5,"[1,3,2]",stimuli/card_100_transparent.png,100,100,2,0,2,0,1,,,,,,,,,,,,,,,,,,,,,,,,,,,,,,,,,,,,,,,,,
,,,,5ed68cac121a540dfb82f4ea,B,2024-08-25_11h41.27.285,Slot Machine Game,2023.1.3,Win32,59.88023952,,,,,,,,,,,,,,,,,,,250.3289,3,0.6683,251.0302,right,0.5,"[1,3,2]",stimuli/card_0_transparent.png,100,0,3,0,3,0,1,,,,,,,,,,,,,,,,,,,,,,,,,,,,,,,,,,,,,,,,,
,,,,5ed68cac121a540dfb82f4ea,B,2024-08-25_11h41.27.285,Slot Machine Game,2023.1.3,Win32,59.88023952,,,,,,,,,,,,,,,,,,,251.8301,4,0.5279,252.3878,right,1,"[1,3,2]",stimuli/card_10_transparent.png,110,10,4,0,4,0,1,,,,,,,,,,,,,,,,,,,,,,,,,,,,,,,,,,,,,,,,,
,,,,5ed68cac121a540dfb82f4ea,B,2024-08-25_11h41.27.285,Slot Machine Game,2023.1.3,Win32,59.88023952,,,,,,,,,,,,,,,,,,,253.6806,5,0.5015,254.2151,left,0.5,"[1,3,2]",stimuli/card_100_transparent.png,210,100,5,0,5,0,1,,,,,,,,,,,,,,,,,,,,,,,,,,,,,,,,,,,,,,,,,
,,,,5ed68cac121a540dfb82f4ea,B,2024-08-25_11h41.27.285,Slot Machine Game,2023.1.3,Win32,59.88023952,,,,,,,,,,,,,,,,,,,255.0145,6,0.6441,255.672,left,1,"[3,1,2]",stimuli/card_100_transparent.png,310,100,6,0,6,0,1,,,,,,,,,,,,,,,,,,,,,,,,,,,,,,,,,,,,,,,,,
,,,,5ed68cac121a540dfb82f4ea,B,2024-08-25_11h41.27.285,Slot Machine Game,2023.1.3,Win32,59.88023952,,,,,,,,,,,,,,,,,,,256.9657,7,2.1189,259.1174,left,0.5,"[3,1,2]",stimuli/card_10_transparent.png,320,10,7,0,7,0,1,,,,,,,,,,,,,,,,,,,,,,,,,,,,,,,,,,,,,,,,,
,,,,5ed68cac121a540dfb82f4ea,B,2024-08-25_11h41.27.285,Slot Machine Game,2023.1.3,Win32,59.88023952,,,,,,,,,,,,,,,,,,,259.917,8,0.5746,260.5152,left,1.5,"[3,1,2]",stimuli/card_0_transparent.png,320,0,8,0,8,0,1,,,,,,,,,,,,,,,,,,,,,,,,,,,,,,,,,,,,,,,,,
,,,,5ed68cac121a540dfb82f4ea,B,2024-08-25_11h41.27.285,Slot Machine Game,2023.1.3,Win32,59.88023952,,,,,,,,,,,,,,,,,,,262.3182,9,2.5024,264.8514,left,0.5,"[3,1,2]",stimuli/card_10_transparent.png,330,10,9,0,9,0,1,,,,,,,,,,,,,,,,,,,,,,,,,,,,,,,,,,,,,,,,,
,,,,5ed68cac121a540dfb82f4ea,B,2024-08-25_11h41.27.285,Slot Machine Game,2023.1.3,Win32,59.88023952,,,,,,,,,,,,,,,,,,,265.6532,10,0.7322,266.4258,left,1,"[3,1,2]",stimuli/card_0_transparent.png,330,0,10,0,10,0,1,,,,,,,,,,,,,,,,,,,,,,,,,,,,,,,,,,,,,,,,,
,,,,5ed68cac121a540dfb82f4ea,B,2024-08-25_11h41.27.285,Slot Machine Game,2023.1.3,Win32,59.88023952,,,,,,,,,,,,,,,,,,,267.721,11,1.9189,269.6726,right,1.5,"[3,1,2]",stimuli/card_10_transparent.png,340,10,11,0,11,0,1,,,,,,,,,,,,,,,,,,,,,,,,,,,,,,,,,,,,,,,,,
,,,,5ed68cac121a540dfb82f4ea,B,2024-08-25_11h41.27.285,Slot Machine Game,2023.1.3,Win32,59.88023952,,,,,,,,,,,,,,,,,,,271.4728,12,0.6006,272.1037,right,0.5,"[3,1,2]",stimuli/card_10_transparent.png,350,10,12,0,12,0,1,,,,,,,,,,,,,,,,,,,,,,,,,,,,,,,,,,,,,,,,,
,,,,5ed68cac121a540dfb82f4ea,B,2024-08-25_11h41.27.285,Slot Machine Game,2023.1.3,Win32,59.88023952,,,,,,,,,,,,,,,,,,,272.9068,13,0.5854,273.5416,right,1,"[3,1,2]",stimuli/card_10_transparent.png,360,10,13,0,13,0,1,,,,,,,,,,,,,,,,,,,,,,,,,,,,,,,,,,,,,,,,,
,,,,5ed68cac121a540dfb82f4ea,B,2024-08-25_11h41.27.285,Slot Machine Game,2023.1.3,Win32,59.88023952,,,,,,,,,,,,,,,,,,,274.8411,14,0.5008,275.3884,up,1,"[3,1,2]",stimuli/card_100_transparent.png,460,100,14,0,14,0,1,,,,,,,,,,,,,,,,,,,,,,,,,,,,,,,,,,,,,,,,,
,,,,5ed68cac121a540dfb82f4ea,B,2024-08-25_11h41.27.285,Slot Machine Game,2023.1.3,Win32,59.88023952,,,,,,,,,,,,,,,,,,,,,,,,,,,,,,,,,,276.6923,281.6983,space,2.2678,,,,,,,,,,,,,,,,,,,,,,,,,,,,,,,,,,,,,
,,,,5ed68cac121a540dfb82f4ea,B,2024-08-25_11h41.27.285,Slot Machine Game,2023.1.3,Win32,59.88023952,,,,,,,,,,,,,,,,,,,,,,,,,,,,,,,,,,,,,,,283.9976,2,"[2,4,7,0,1,3,9,6,8,5]",space,1.3008,,,,,,,,,,,,,,,,,,,,,,,,,,,,,,,
,,,,5ed68cac121a540dfb82f4ea,B,2024-08-25_11h41.27.285,Slot Machine Game,2023.1.3,Win32,59.88023952,,,,,,,,,,,,,,,,,,,,,,,,,,,0,,,,,,,,,,,,,,,,,,1,3,"[15,15]","[[3,1,2],[3,1,2]]",285.3681,0,left,1.1691,286.5663,1.5,0.3,"[3,1,2]",0.314160402,stimuli/card_0_transparent.png,0,0,0,0,0,1,,,,,,,,,,
,,,,5ed68cac121a540dfb82f4ea,B,2024-08-25_11h41.27.285,Slot Machine Game,2023.1.3,Win32,59.88023952,,,,,,,,,,,,,,,,,,,,,,,,,,,0,,,,,,,,,,,,,,,,,,1,3,,,288.3652,1,left,2.3353,290.7328,0.5,0.3,"[3,1,2]",0.447149051,stimuli/card_0_transparent.png,0,1,0,1,0,1,,,,,,,,,,
,,,,5ed68cac121a540dfb82f4ea,B,2024-08-25_11h41.27.285,Slot Machine Game,2023.1.3,Win32,59.88023952,,,,,,,,,,,,,,,,,,,,,,,,,,,0,,,,,,,,,,,,,,,,,,1,3,,,291.5327,2,up,0.501,292.0667,0.5,0.3,"[3,1,2]",0.078686163,stimuli/card_0_transparent.png,0,2,0,2,0,1,,,,,,,,,,
,,,,5ed68cac121a540dfb82f4ea,B,2024-08-25_11h41.27.285,Slot Machine Game,2023.1.3,Win32,59.88023952,,,,,,,,,,,,,,,,,,,,,,,,,,,10,,,,,,,,,,,,,,,,,,1,3,,,292.8667,3,right,0.7538,293.6516,1,0.3,"[3,1,2]",0.256305904,stimuli/card_10_transparent.png,10,3,0,3,0,1,,,,,,,,,,
,,,,5ed68cac121a540dfb82f4ea,B,2024-08-25_11h41.27.285,Slot Machine Game,2023.1.3,Win32,59.88023952,,,,,,,,,,,,,,,,,,,,,,,,,,,110,,,,,,,,,,,,,,,,,,1,3,,,294.9511,4,up,0.9347,295.9186,1,0.3,"[3,1,2]",0.756316553,stimuli/card_100_transparent.png,100,4,0,4,0,1,,,,,,,,,,
,,,,5ed68cac121a540dfb82f4ea,B,2024-08-25_11h41.27.285,Slot Machine Game,2023.1.3,Win32,59.88023952,,,,,,,,,,,,,,,,,,,,,,,,,,,210,,,,,,,,,,,,,,,,,,1,3,,,297.219,5,up,0.6845,297.934,1.5,0.3,"[3,1,2]",0.602491583,stimuli/card_100_transparent.png,100,5,0,5,0,1,,,,,,,,,,
,,,,5ed68cac121a540dfb82f4ea,B,2024-08-25_11h41.27.285,Slot Machine Game,2023.1.3,Win32,59.88023952,,,,,,,,,,,,,,,,,,,,,,,,,,,210,,,,,,,,,,,,,,,,,,1,3,,,299.7371,6,up,1.1274,300.8879,1.5,0.3,"[3,1,2]",0.089160117,stimuli/card_0_transparent.png,0,6,0,6,0,1,,,,,,,,,,
,,,,5ed68cac121a540dfb82f4ea,B,2024-08-25_11h41.27.285,Slot Machine Game,2023.1.3,Win32,59.88023952,,,,,,,,,,,,,,,,,,,,,,,,,,,310,,,,,,,,,,,,,,,,,,1,3,,,302.6882,7,up,0.5343,303.2563,0.5,0.3,"[3,1,2]",0.430695565,stimuli/card_100_transparent.png,100,7,0,7,0,1,,,,,,,,,,
,,,,5ed68cac121a540dfb82f4ea,B,2024-08-25_11h41.27.285,Slot Machine Game,2023.1.3,Win32,59.88023952,,,,,,,,,,,,,,,,,,,,,,,,,,,410,,,,,,,,,,,,,,,,,,1,3,,,304.0557,8,up,0.5179,304.6068,1,0.3,"[3,1,2]",0.879770164,stimuli/card_100_transparent.png,100,8,0,8,0,1,,,,,,,,,,
,,,,5ed68cac121a540dfb82f4ea,B,2024-08-25_11h41.27.285,Slot Machine Game,2023.1.3,Win32,59.88023952,,,,,,,,,,,,,,,,,,,,,,,,,,,510,,,,,,,,,,,,,,,,,,1,3,,,305.9065,9,up,0.9013,306.8407,1.5,0.3,"[3,1,2]",0.66843255,stimuli/card_100_transparent.png,100,9,0,9,0,1,,,,,,,,,,
,,,,5ed68cac121a540dfb82f4ea,B,2024-08-25_11h41.27.285,Slot Machine Game,2023.1.3,Win32,59.88023952,,,,,,,,,,,,,,,,,,,,,,,,,,,610,,,,,,,,,,,,,,,,,,1,3,,,308.6412,10,up,0.7606,309.4322,1,0.3,"[3,1,2]",0.437243613,stimuli/card_100_transparent.png,100,10,0,10,0,1,,,,,,,,,,
,,,,5ed68cac121a540dfb82f4ea,B,2024-08-25_11h41.27.285,Slot Machine Game,2023.1.3,Win32,59.88023952,,,,,,,,,,,,,,,,,,,,,,,,,,,710,,,,,,,,,,,,,,,,,,1,3,,,310.7256,11,up,0.7185,311.4767,1.5,0.3,"[3,1,2]",0.405440433,stimuli/card_100_transparent.png,100,11,0,11,0,1,,,,,,,,,,
,,,,5ed68cac121a540dfb82f4ea,B,2024-08-25_11h41.27.285,Slot Machine Game,2023.1.3,Win32,59.88023952,,,,,,,,,,,,,,,,,,,,,,,,,,,810,,,,,,,,,,,,,,,,,,1,3,,,313.2768,12,up,0.6005,313.911,0.5,0.3,"[3,1,2]",0.711341085,stimuli/card_100_transparent.png,100,12,0,12,0,1,,,,,,,,,,
,,,,5ed68cac121a540dfb82f4ea,B,2024-08-25_11h41.27.285,Slot Machine Game,2023.1.3,Win32,59.88023952,,,,,,,,,,,,,,,,,,,,,,,,,,,910,,,,,,,,,,,,,,,,,,1,3,,,314.7111,13,up,0.5011,315.2452,1.5,0.3,"[3,1,2]",0.636024579,stimuli/card_100_transparent.png,100,13,0,13,0,1,,,,,,,,,,
,,,,5ed68cac121a540dfb82f4ea,B,2024-08-25_11h41.27.285,Slot Machine Game,2023.1.3,Win32,59.88023952,,,,,,,,,,,,,,,,,,,,,,,,,,,920,,,,,,,,,,,,,,,,,,1,3,,,317.0453,14,up,0.5846,317.663,1,0.3,"[3,1,2]",0.18744292,stimuli/card_10_transparent.png,10,14,0,14,0,1,,,,,,,,,,
,,,,5ed68cac121a540dfb82f4ea,B,2024-08-25_11h41.27.285,Slot Machine Game,2023.1.3,Win32,59.88023952,,,,,,,,,,,,,,,,,,,,,,,,,,,,,,,,,,318.9634,,,,,,,,,,,,,,,,,,,,,,,,,,,,,,,[920],0,0,0,0,1,,,,
,,,,5ed68cac121a540dfb82f4ea,B,2024-08-25_11h41.27.285,Slot Machine Game,2023.1.3,Win32,59.88023952,,,,,,,,,,,,,,,,,,,,,,,,,,,100,,,,,,,,,,,,,,,,,,2,5,"[5,15]","[[1,2,3],[3,1,2]]",324.0002,0,left,0.8534,324.8836,1,0.3,"[1,2,3]",0.810903479,stimuli/card_100_transparent.png,100,0,0,0,0,1,,,,,,,,,,
,,,,5ed68cac121a540dfb82f4ea,B,2024-08-25_11h41.27.285,Slot Machine Game,2023.1.3,Win32,59.88023952,,,,,,,,,,,,,,,,,,,,,,,,,,,200,,,,,,,,,,,,,,,,,,2,5,,,326.1832,1,left,0.5845,326.7844,1,0.3,"[1,2,3]",0.601780032,stimuli/card_100_transparent.png,100,1,0,1,0,1,,,,,,,,,,
,,,,5ed68cac121a540dfb82f4ea,B,2024-08-25_11h41.27.285,Slot Machine Game,2023.1.3,Win32,59.88023952,,,,,,,,,,,,,,,,,,,,,,,,,,,300,,,,,,,,,,,,,,,,,,2,5,,,328.0842,2,left,1.2515,329.3687,0.5,0.3,"[1,2,3]",0.761927401,stimuli/card_100_transparent.png,100,2,0,2,0,1,,,,,,,,,,
,,,,5ed68cac121a540dfb82f4ea,B,2024-08-25_11h41.27.285,Slot Machine Game,2023.1.3,Win32,59.88023952,,,,,,,,,,,,,,,,,,,,,,,,,,,400,,,,,,,,,,,,,,,,,,2,5,,,330.1687,3,left,1.0845,331.2861,1,0.3,"[1,2,3]",0.930672204,stimuli/card_100_transparent.png,100,3,0,3,0,1,,,,,,,,,,
,,,,5ed68cac121a540dfb82f4ea,B,2024-08-25_11h41.27.285,Slot Machine Game,2023.1.3,Win32,59.88023952,,,,,,,,,,,,,,,,,,,,,,,,,,,500,,,,,,,,,,,,,,,,,,2,5,,,332.586,4,left,0.5681,333.1704,0.5,0.3,"[1,2,3]",0.617439447,stimuli/card_100_transparent.png,100,4,0,4,0,1,,,,,,,,,,
,,,,5ed68cac121a540dfb82f4ea,B,2024-08-25_11h41.27.285,Slot Machine Game,2023.1.3,Win32,59.88023952,,,,,,,,,,,,,,,,,,,,,,,,,,,500,,,,,,,,,,,,,,,,,,2,5,,,333.9705,5,left,0.5512,334.555,1.5,0.3,"[3,1,2]",0.866263114,stimuli/card_0_transparent.png,0,5,0,5,0,1,,,,,,,,,,
,,,,5ed68cac121a540dfb82f4ea,B,2024-08-25_11h41.27.285,Slot Machine Game,2023.1.3,Win32,59.88023952,,,,,,,,,,,,,,,,,,,,,,,,,,,500,,,,,,,,,,,,,,,,,,2,5,,,336.355,6,left,0.9013,337.2892,1,0.3,"[3,1,2]",0.428145512,stimuli/card_0_transparent.png,0,6,0,6,0,1,,,,,,,,,,
,,,,5ed68cac121a540dfb82f4ea,B,2024-08-25_11h41.27.285,Slot Machine Game,2023.1.3,Win32,59.88023952,,,,,,,,,,,,,,,,,,,,,,,,,,,600,,,,,,,,,,,,,,,,,,2,5,,,338.5893,7,up,0.9032,339.5239,1.5,0.3,"[3,1,2]",0.734711068,stimuli/card_100_transparent.png,100,7,0,7,0,1,,,,,,,,,,
,,,,5ed68cac121a540dfb82f4ea,B,2024-08-25_11h41.27.285,Slot Machine Game,2023.1.3,Win32,59.88023952,,,,,,,,,,,,,,,,,,,,,,,,,,,700,,,,,,,,,,,,,,,,,,2,5,,,341.3242,8,up,0.7513,342.109,1,0.3,"[3,1,2]",0.462762879,stimuli/card_100_transparent.png,100,8,0,8,0,1,,,,,,,,,,
,,,,5ed68cac121a540dfb82f4ea,B,2024-08-25_11h41.27.285,Slot Machine Game,2023.1.3,Win32,59.88023952,,,,,,,,,,,,,,,,,,,,,,,,,,,800,,,,,,,,,,,,,,,,,,2,5,,,343.4085,9,up,0.5845,344.0261,0.5,0.3,"[3,1,2]",0.590731497,stimuli/card_100_transparent.png,100,9,0,9,0,1,,,,,,,,,,
,,,,5ed68cac121a540dfb82f4ea,B,2024-08-25_11h41.27.285,Slot Machine Game,2023.1.3,Win32,59.88023952,,,,,,,,,,,,,,,,,,,,,,,,,,,810,,,,,,,,,,,,,,,,,,2,5,,,344.8257,10,up,0.501,345.3599,1,0.3,"[3,1,2]",0.176292165,stimuli/card_10_transparent.png,10,10,0,10,0,1,,,,,,,,,,
,,,,5ed68cac121a540dfb82f4ea,B,2024-08-25_11h41.27.285,Slot Machine Game,2023.1.3,Win32,59.88023952,,,,,,,,,,,,,,,,,,,,,,,,,,,910,,,,,,,,,,,,,,,,,,2,5,,,346.6603,11,up,0.9177,347.6111,1.5,0.3,"[3,1,2]",0.790515685,stimuli/card_100_transparent.png,100,11,0,11,0,1,,,,,,,,,,
,,,,5ed68cac121a540dfb82f4ea,B,2024-08-25_11h41.27.285,Slot Machine Game,2023.1.3,Win32,59.88023952,,,,,,,,,,,,,,,,,,,,,,,,,,,1010,,,,,,,,,,,,,,,,,,2,5,,,349.4114,12,up,0.7534,350.1959,0.5,0.3,"[3,1,2]",0.830040837,stimuli/card_100_transparent.png,100,12,0,12,0,1,,,,,,,,,,
,,,,5ed68cac121a540dfb82f4ea,B,2024-08-25_11h41.27.285,Slot Machine Game,2023.1.3,Win32,59.88023952,,,,,,,,,,,,,,,,,,,,,,,,,,,1110,,,,,,,,,,,,,,,,,,2,5,,,350.9959,13,up,0.6509,351.6797,0.5,0.3,"[3,1,2]",0.791500927,stimuli/card_100_transparent.png,100,13,0,13,0,1,,,,,,,,,,
,,,,5ed68cac121a540dfb82f4ea,B,2024-08-25_11h41.27.285,Slot Machine Game,2023.1.3,Win32,59.88023952,,,,,,,,,,,,,,,,,,,,,,,,,,,1210,,,,,,,,,,,,,,,,,,2,5,,,352.4796,14,up,0.5678,353.0804,1,0.3,"[3,1,2]",0.272697938,stimuli/card_100_transparent.png,100,14,0,14,0,1,,,,,,,,,,
,,,,5ed68cac121a540dfb82f4ea,B,2024-08-25_11h41.27.285,Slot Machine Game,2023.1.3,Win32,59.88023952,,,,,,,,,,,,,,,,,,,,,,,,,,,,,,,,,,354.3807,,,,,,,,,,,,,,,,,,,,,,,,,,,,,,,"[920,1210]",1,0,1,0,1,,,,
,,,,5ed68cac121a540dfb82f4ea,B,2024-08-25_11h41.27.285,Slot Machine Game,2023.1.3,Win32,59.88023952,,,,,,,,,,,,,,,,,,,,,,,,,,,0,,,,,,,,,,,,,,,,,,3,8,"[11,15]","[[2,1,3],[1,2,3]]",359.4188,0,right,0.8834,360.3334,0.5,0.3,"[2,1,3]",0.850289899,stimuli/card_0_transparent.png,0,0,0,0,0,1,,,,,,,,,,
,,,,5ed68cac121a540dfb82f4ea,B,2024-08-25_11h41.27.285,Slot Machine Game,2023.1.3,Win32,59.88023952,,,,,,,,,,,,,,,,,,,,,,,,,,,100,,,,,,,,,,,,,,,,,,3,8,,,361.1173,1,up,1.0013,362.1518,1,0.3,"[2,1,3]",0.659698374,stimuli/card_100_transparent.png,100,1,0,1,0,1,,,,,,,,,,
,,,,5ed68cac121a540dfb82f4ea,B,2024-08-25_11h41.27.285,Slot Machine Game,2023.1.3,Win32,59.88023952,,,,,,,,,,,,,,,,,,,,,,,,,,,200,,,,,,,,,,,,,,,,,,3,8,,,363.4517,2,up,0.5682,364.0531,1.5,0.3,"[2,1,3]",0.604725347,stimuli/card_100_transparent.png,100,2,0,2,0,1,,,,,,,,,,
,,,,5ed68cac121a540dfb82f4ea,B,2024-08-25_11h41.27.285,Slot Machine Game,2023.1.3,Win32,59.88023952,,,,,,,,,,,,,,,,,,,,,,,,,,,300,,,,,,,,,,,,,,,,,,3,8,,,365.8531,3,up,1.2513,367.1373,1.5,0.3,"[2,1,3]",0.794143437,stimuli/card_100_transparent.png,100,3,0,3,0,1,,,,,,,,,,
,,,,5ed68cac121a540dfb82f4ea,B,2024-08-25_11h41.27.285,Slot Machine Game,2023.1.3,Win32,59.88023952,,,,,,,,,,,,,,,,,,,,,,,,,,,310,,,,,,,,,,,,,,,,,,3,8,,,368.9377,4,up,0.5854,369.5554,1.5,0.3,"[2,1,3]",0.17049817,stimuli/card_10_transparent.png,10,4,0,4,0,1,,,,,,,,,,
,,,,5ed68cac121a540dfb82f4ea,B,2024-08-25_11h41.27.285,Slot Machine Game,2023.1.3,Win32,59.88023952,,,,,,,,,,,,,,,,,,,,,,,,,,,410,,,,,,,,,,,,,,,,,,3,8,,,371.3556,5,up,0.5757,371.9731,1.5,0.3,"[2,1,3]",0.793161196,stimuli/card_100_transparent.png,100,5,0,5,0,1,,,,,,,,,,
,,,,5ed68cac121a540dfb82f4ea,B,2024-08-25_11h41.27.285,Slot Machine Game,2023.1.3,Win32,59.88023952,,,,,,,,,,,,,,,,,,,,,,,,,,,420,,,,,,,,,,,,,,,,,,3,8,,,373.7736,6,up,0.6011,374.4076,0.5,0.3,"[2,1,3]",0.155503007,stimuli/card_10_transparent.png,10,6,0,6,0,1,,,,,,,,,,
,,,,5ed68cac121a540dfb82f4ea,B,2024-08-25_11h41.27.285,Slot Machine Game,2023.1.3,Win32,59.88023952,,,,,,,,,,,,,,,,,,,,,,,,,,,520,,,,,,,,,,,,,,,,,,3,8,,,375.1911,7,up,0.5343,375.7585,1.5,0.3,"[2,1,3]",0.73591678,stimuli/card_100_transparent.png,100,7,0,7,0,1,,,,,,,,,,
,,,,5ed68cac121a540dfb82f4ea,B,2024-08-25_11h41.27.285,Slot Machine Game,2023.1.3,Win32,59.88023952,,,,,,,,,,,,,,,,,,,,,,,,,,,620,,,,,,,,,,,,,,,,,,3,8,,,377.5588,8,up,0.5178,378.1097,0.5,0.3,"[2,1,3]",0.946806604,stimuli/card_100_transparent.png,100,8,0,8,0,1,,,,,,,,,,
,,,,5ed68cac121a540dfb82f4ea,B,2024-08-25_11h41.27.285,Slot Machine Game,2023.1.3,Win32,59.88023952,,,,,,,,,,,,,,,,,,,,,,,,,,,720,,,,,,,,,,,,,,,,,,3,8,,,378.9094,9,up,0.6347,379.5769,0.5,0.3,"[2,1,3]",0.223716835,stimuli/card_100_transparent.png,100,9,0,9,0,1,,,,,,,,,,
,,,,5ed68cac121a540dfb82f4ea,B,2024-08-25_11h41.27.285,Slot Machine Game,2023.1.3,Win32,59.88023952,,,,,,,,,,,,,,,,,,,,,,,,,,,720,,,,,,,,,,,,,,,,,,3,8,,,380.3768,10,up,0.8515,381.261,0.5,0.3,"[2,1,3]",0.074435141,stimuli/card_0_transparent.png,0,10,0,10,0,1,,,,,,,,,,
,,,,5ed68cac121a540dfb82f4ea,B,2024-08-25_11h41.27.285,Slot Machine Game,2023.1.3,Win32,59.88023952,,,,,,,,,,,,,,,,,,,,,,,,,,,820,,,,,,,,,,,,,,,,,,3,8,,,382.0614,11,up,0.5014,382.5918,0.5,0.3,"[1,2,3]",0.115991257,stimuli/card_100_transparent.png,100,11,0,11,0,1,,,,,,,,,,
,,,,5ed68cac121a540dfb82f4ea,B,2024-08-25_11h41.27.285,Slot Machine Game,2023.1.3,Win32,59.88023952,,,,,,,,,,,,,,,,,,,,,,,,,,,830,,,,,,,,,,,,,,,,,,3,8,,,383.3949,12,up,0.5178,383.9458,1.5,0.3,"[1,2,3]",0.474293694,stimuli/card_10_transparent.png,10,12,0,12,0,1,,,,,,,,,,
,,,,5ed68cac121a540dfb82f4ea,B,2024-08-25_11h41.27.285,Slot Machine Game,2023.1.3,Win32,59.88023952,,,,,,,,,,,,,,,,,,,,,,,,,,,930,,,,,,,,,,,,,,,,,,3,8,,,385.7463,13,up,0.9349,386.714,1,0.3,"[1,2,3]",0.138322495,stimuli/card_100_transparent.png,100,13,0,13,0,1,,,,,,,,,,
,,,,5ed68cac121a540dfb82f4ea,B,2024-08-25_11h41.27.285,Slot Machine Game,2023.1.3,Win32,59.88023952,,,,,,,,,,,,,,,,,,,,,,,,,,,940,,,,,,,,,,,,,,,,,,3,8,,,388.014,14,up,0.7178,388.7649,1,0.3,"[1,2,3]",0.769346644,stimuli/card_10_transparent.png,10,14,0,14,0,1,,,,,,,,,,
,,,,5ed68cac121a540dfb82f4ea,B,2024-08-25_11h41.27.285,Slot Machine Game,2023.1.3,Win32,59.88023952,,,,,,,,,,,,,,,,,,,,,,,,,,,,,,,,,,390.065,,,,,,,,,,,,,,,,,,,,,,,,,,,,,,,"[920,1210,940]",2,0,2,0,1,,,,
,,,,5ed68cac121a540dfb82f4ea,B,2024-08-25_11h41.27.285,Slot Machine Game,2023.1.3,Win32,59.88023952,,,,,,,,,,,,,,,,,,,,,,,,,,,10,,,,,,,,,,,,,,,,,,4,1,"[12,15]","[[2,1,3],[2,3,1]]",395.1038,0,left,1.1014,396.2352,0.5,0.3,"[2,1,3]",0.746023445,stimuli/card_10_transparent.png,10,0,0,0,0,1,,,,,,,,,,
,,,,5ed68cac121a540dfb82f4ea,B,2024-08-25_11h41.27.285,Slot Machine Game,2023.1.3,Win32,59.88023952,,,,,,,,,,,,,,,,,,,,,,,,,,,20,,,,,,,,,,,,,,,,,,4,1,,,397.0352,1,left,0.6178,397.6858,1,0.3,"[2,1,3]",0.831685807,stimuli/card_10_transparent.png,10,1,0,1,0,1,,,,,,,,,,
,,,,5ed68cac121a540dfb82f4ea,B,2024-08-25_11h41.27.285,Slot Machine Game,2023.1.3,Win32,59.88023952,,,,,,,,,,,,,,,,,,,,,,,,,,,120,,,,,,,,,,,,,,,,,,4,1,,,398.986,2,up,0.5011,399.5203,0.5,0.3,"[2,1,3]",0.88354732,stimuli/card_100_transparent.png,100,2,0,2,0,1,,,,,,,,,,
,,,,5ed68cac121a540dfb82f4ea,B,2024-08-25_11h41.27.285,Slot Machine Game,2023.1.3,Win32,59.88023952,,,,,,,,,,,,,,,,,,,,,,,,,,,220,,,,,,,,,,,,,,,,,,4,1,,,400.32,3,up,0.5177,400.8711,1,0.3,"[2,1,3]",0.595968736,stimuli/card_100_transparent.png,100,3,0,3,0,1,,,,,,,,,,
,,,,5ed68cac121a540dfb82f4ea,B,2024-08-25_11h41.27.285,Slot Machine Game,2023.1.3,Win32,59.88023952,,,,,,,,,,,,,,,,,,,,,,,,,,,320,,,,,,,,,,,,,,,,,,4,1,,,402.1709,4,up,1.0127,403.2056,1.5,0.3,"[2,1,3]",0.777714196,stimuli/card_100_transparent.png,100,4,0,4,0,1,,,,,,,,,,
,,,,5ed68cac121a540dfb82f4ea,B,2024-08-25_11h41.27.285,Slot Machine Game,2023.1.3,Win32,59.88023952,,,,,,,,,,,,,,,,,,,,,,,,,,,420,,,,,,,,,,,,,,,,,,4,1,,,405.0059,5,up,0.551,405.5903,1.5,0.3,"[2,1,3]",0.611924967,stimuli/card_100_transparent.png,100,5,0,5,0,1,,,,,,,,,,
,,,,5ed68cac121a540dfb82f4ea,B,2024-08-25_11h41.27.285,Slot Machine Game,2023.1.3,Win32,59.88023952,,,,,,,,,,,,,,,,,,,,,,,,,,,520,,,,,,,,,,,,,,,,,,4,1,,,407.3901,6,up,0.7099,408.1243,0.5,0.3,"[2,1,3]",0.368956918,stimuli/card_100_transparent.png,100,6,0,6,0,1,,,,,,,,,,
,,,,5ed68cac121a540dfb82f4ea,B,2024-08-25_11h41.27.285,Slot Machine Game,2023.1.3,Win32,59.88023952,,,,,,,,,,,,,,,,,,,,,,,,,,,520,,,,,,,,,,,,,,,,,,4,1,,,408.9244,7,up,0.5848,409.5419,0.5,0.3,"[2,1,3]",0.035620971,stimuli/card_0_transparent.png,0,7,0,7,0,1,,,,,,,,,,
,,,,5ed68cac121a540dfb82f4ea,B,2024-08-25_11h41.27.285,Slot Machine Game,2023.1.3,Win32,59.88023952,,,,,,,,,,,,,,,,,,,,,,,,,,,520,,,,,,,,,,,,,,,,,,4,1,,,410.3417,8,up,0.9345,411.3094,1.5,0.3,"[2,1,3]",0.009095885,stimuli/card_0_transparent.png,0,8,0,8,0,1,,,,,,,,,,
,,,,5ed68cac121a540dfb82f4ea,B,2024-08-25_11h41.27.285,Slot Machine Game,2023.1.3,Win32,59.88023952,,,,,,,,,,,,,,,,,,,,,,,,,,,520,,,,,,,,,,,,,,,,,,4,1,,,413.1103,9,right,0.9407,414.0775,0.5,0.3,"[2,1,3]",0.3496192,stimuli/card_0_transparent.png,0,9,0,9,0,1,,,,,,,,,,
,,,,5ed68cac121a540dfb82f4ea,B,2024-08-25_11h41.27.285,Slot Machine Game,2023.1.3,Win32,59.88023952,,,,,,,,,,,,,,,,,,,,,,,,,,,520,,,,,,,,,,,,,,,,,,4,1,,,414.8775,10,right,1.0346,415.945,1,0.3,"[2,1,3]",0.276151347,stimuli/card_0_transparent.png,0,10,0,10,0,1,,,,,,,,,,
,,,,5ed68cac121a540dfb82f4ea,B,2024-08-25_11h41.27.285,Slot Machine Game,2023.1.3,Win32,59.88023952,,,,,,,,,,,,,,,,,,,,,,,,,,,530,,,,,,,,,,,,,,,,,,4,1,,,417.2451,11,left,1.1682,418.4463,1,0.3,"[2,1,3]",0.321206037,stimuli/card_10_transparent.png,10,11,0,11,0,1,,,,,,,,,,
,,,,5ed68cac121a540dfb82f4ea,B,2024-08-25_11h41.27.285,Slot Machine Game,2023.1.3,Win32,59.88023952,,,,,,,,,,,,,,,,,,,,,,,,,,,630,,,,,,,,,,,,,,,,,,4,1,,,419.7436,12,left,0.5011,420.2637,1.5,0.3,"[2,3,1]",0.121854843,stimuli/card_100_transparent.png,100,12,0,12,0,1,,,,,,,,,,
,,,,5ed68cac121a540dfb82f4ea,B,2024-08-25_11h41.27.285,Slot Machine Game,2023.1.3,Win32,59.88023952,,,,,,,,,,,,,,,,,,,,,,,,,,,630,,,,,,,,,,,,,,,,,,4,1,,,422.0642,13,left,0.8008,422.8981,1.5,0.3,"[2,3,1]",0.054061159,stimuli/card_0_transparent.png,0,13,0,13,0,1,,,,,,,,,,
,,,,5ed68cac121a540dfb82f4ea,B,2024-08-25_11h41.27.285,Slot Machine Game,2023.1.3,Win32,59.88023952,,,,,,,,,,,,,,,,,,,,,,,,,,,640,,,,,,,,,,,,,,,,,,4,1,,,424.6989,14,left,0.651,425.3836,1,0.3,"[2,3,1]",0.61372862,stimuli/card_10_transparent.png,10,14,0,14,0,1,,,,,,,,,,
,,,,5ed68cac121a540dfb82f4ea,B,2024-08-25_11h41.27.285,Slot Machine Game,2023.1.3,Win32,59.88023952,,,,,,,,,,,,,,,,,,,,,,,,,,,,,,,,,,426.6831,,,,,,,,,,,,,,,,,,,,,,,,,,,,,,,"[920,1210,940,640]",3,0,3,0,1,,,,
,,,,5ed68cac121a540dfb82f4ea,B,2024-08-25_11h41.27.285,Slot Machine Game,2023.1.3,Win32,59.88023952,,,,,,,,,,,,,,,,,,,,,,,,,,,100,,,,,,,,,,,,,,,,,,5,2,"[6,15]","[[1,3,2],[3,2,1]]",431.7143,0,left,1.4013,433.1368,1.5,0.3,"[1,3,2]",0.222983539,stimuli/card_100_transparent.png,100,0,0,0,0,1,,,,,,,,,,
,,,,5ed68cac121a540dfb82f4ea,B,2024-08-25_11h41.27.285,Slot Machine Game,2023.1.3,Win32,59.88023952,,,,,,,,,,,,,,,,,,,,,,,,,,,100,,,,,,,,,,,,,,,,,,5,2,,,434.9374,1,left,0.801,435.7717,1.5,0.3,"[1,3,2]",0.055422044,stimuli/card_0_transparent.png,0,1,0,1,0,1,,,,,,,,,,
,,,,5ed68cac121a540dfb82f4ea,B,2024-08-25_11h41.27.285,Slot Machine Game,2023.1.3,Win32,59.88023952,,,,,,,,,,,,,,,,,,,,,,,,,,,200,,,,,,,,,,,,,,,,,,5,2,,,437.5717,2,left,0.7012,438.2894,0.5,0.3,"[1,3,2]",0.42057495,stimuli/card_100_transparent.png,100,2,0,2,0,1,,,,,,,,,,
,,,,5ed68cac121a540dfb82f4ea,B,2024-08-25_11h41.27.285,Slot Machine Game,2023.1.3,Win32,59.88023952,,,,,,,,,,,,,,,,,,,,,,,,,,,300,,,,,,,,,,,,,,,,,,5,2,,,439.0892,3,left,0.8512,439.9735,0.5,0.3,"[1,3,2]",0.690947478,stimuli/card_100_transparent.png,100,3,0,3,0,1,,,,,,,,,,
,,,,5ed68cac121a540dfb82f4ea,B,2024-08-25_11h41.27.285,Slot Machine Game,2023.1.3,Win32,59.88023952,,,,,,,,,,,,,,,,,,,,,,,,,,,400,,,,,,,,,,,,,,,,,,5,2,,,440.7736,4,left,0.702,441.5077,1,0.3,"[1,3,2]",0.466733255,stimuli/card_100_transparent.png,100,4,0,4,0,1,,,,,,,,,,
,,,,5ed68cac121a540dfb82f4ea,B,2024-08-25_11h41.27.285,Slot Machine Game,2023.1.3,Win32,59.88023952,,,,,,,,,,,,,,,,,,,,,,,,,,,410,,,,,,,,,,,,,,,,,,5,2,,,442.7911,5,left,0.5179,443.3418,0.5,0.3,"[1,3,2]",0.104030679,stimuli/card_10_transparent.png,10,5,0,5,0,1,,,,,,,,,,
,,,,5ed68cac121a540dfb82f4ea,B,2024-08-25_11h41.27.285,Slot Machine Game,2023.1.3,Win32,59.88023952,,,,,,,,,,,,,,,,,,,,,,,,,,,410,,,,,,,,,,,,,,,,,,5,2,,,444.142,6,left,1.8315,446.0098,1.5,0.3,"[3,2,1]",0.961062563,stimuli/card_0_transparent.png,0,6,0,6,0,1,,,,,,,,,,
,,,,5ed68cac121a540dfb82f4ea,B,2024-08-25_11h41.27.285,Slot Machine Game,2023.1.3,Win32,59.88023952,,,,,,,,,,,,,,,,,,,,,,,,,,,410,,,,,,,,,,,,,,,,,,5,2,,,447.8103,7,left,1.6939,449.5285,0.5,0.3,"[3,2,1]",0.58516675,stimuli/card_0_transparent.png,0,7,0,7,0,1,,,,,,,,,,
,,,,5ed68cac121a540dfb82f4ea,B,2024-08-25_11h41.27.285,Slot Machine Game,2023.1.3,Win32,59.88023952,,,,,,,,,,,,,,,,,,,,,,,,,,,420,,,,,,,,,,,,,,,,,,5,2,,,450.3281,8,up,0.5345,450.8955,0.5,0.3,"[3,2,1]",0.242194861,stimuli/card_10_transparent.png,10,8,0,8,0,1,,,,,,,,,,
,,,,5ed68cac121a540dfb82f4ea,B,2024-08-25_11h41.27.285,Slot Machine Game,2023.1.3,Win32,59.88023952,,,,,,,,,,,,,,,,,,,,,,,,,,,430,,,,,,,,,,,,,,,,,,5,2,,,451.6955,9,up,0.6511,452.3796,1,0.3,"[3,2,1]",0.364866862,stimuli/card_10_transparent.png,10,9,0,9,0,1,,,,,,,,,,
,,,,5ed68cac121a540dfb82f4ea,B,2024-08-25_11h41.27.285,Slot Machine Game,2023.1.3,Win32,59.88023952,,,,,,,,,,,,,,,,,,,,,,,,,,,430,,,,,,,,,,,,,,,,,,5,2,,,453.6798,10,right,1.0348,454.7641,1,0.3,"[3,2,1]",0.044358108,stimuli/card_0_transparent.png,0,10,0,10,0,1,,,,,,,,,,
,,,,5ed68cac121a540dfb82f4ea,B,2024-08-25_11h41.27.285,Slot Machine Game,2023.1.3,Win32,59.88023952,,,,,,,,,,,,,,,,,,,,,,,,,,,530,,,,,,,,,,,,,,,,,,5,2,,,456.0644,11,right,0.5679,456.6655,0.5,0.3,"[3,2,1]",0.242252286,stimuli/card_100_transparent.png,100,11,0,11,0,1,,,,,,,,,,
,,,,5ed68cac121a540dfb82f4ea,B,2024-08-25_11h41.27.285,Slot Machine Game,2023.1.3,Win32,59.88023952,,,,,,,,,,,,,,,,,,,,,,,,,,,630,,,,,,,,,,,,,,,,,,5,2,,,457.465,12,right,0.9014,458.3993,1,0.3,"[3,2,1]",0.883114012,stimuli/card_100_transparent.png,100,12,0,12,0,1,,,,,,,,,,
,,,,5ed68cac121a540dfb82f4ea,B,2024-08-25_11h41.27.285,Slot Machine Game,2023.1.3,Win32,59.88023952,,,,,,,,,,,,,,,,,,,,,,,,,,,640,,,,,,,,,,,,,,,,,,5,2,,,459.6995,13,right,0.7363,460.4671,1,0.3,"[3,2,1]",0.100949599,stimuli/card_10_transparent.png,10,13,0,13,0,1,,,,,,,,,,
,,,,5ed68cac121a540dfb82f4ea,B,2024-08-25_11h41.27.285,Slot Machine Game,2023.1.3,Win32,59.88023952,,,,,,,,,,,,,,,,,,,,,,,,,,,740,,,,,,,,,,,,,,,,,,5,2,,,461.7673,14,right,0.6688,462.468,1,0.3,"[3,2,1]",0.232526359,stimuli/card_100_transparent.png,100,14,0,14,0,1,,,,,,,,,,
,,,,5ed68cac121a540dfb82f4ea,B,2024-08-25_11h41.27.285,Slot Machine Game,2023.1.3,Win32,59.88023952,,,,,,,,,,,,,,,,,,,,,,,,,,,,,,,,,,463.7681,,,,,,,,,,,,,,,,,,,,,,,,,,,,,,,"[920,1210,940,640,740]",4,0,4,0,1,,,,
,,,,5ed68cac121a540dfb82f4ea,B,2024-08-25_11h41.27.285,Slot Machine Game,2023.1.3,Win32,59.88023952,,,,,,,,,,,,,,,,,,,,,,,,,,,10,,,,,,,,,,,,,,,,,,6,4,"[7,15]","[[2,3,1],[1,2,3]]",468.8001,0,left,1.2682,470.0887,1,0.3,"[2,3,1]",0.411747676,stimuli/card_10_transparent.png,10,0,0,0,0,1,,,,,,,,,,
,,,,5ed68cac121a540dfb82f4ea,B,2024-08-25_11h41.27.285,Slot Machine Game,2023.1.3,Win32,59.88023952,,,,,,,,,,,,,,,,,,,,,,,,,,,20,,,,,,,,,,,,,,,,,,6,4,,,471.3886,1,left,0.8848,472.3063,1,0.3,"[2,3,1]",0.784722899,stimuli/card_10_transparent.png,10,1,0,1,0,1,,,,,,,,,,
,,,,5ed68cac121a540dfb82f4ea,B,2024-08-25_11h41.27.285,Slot Machine Game,2023.1.3,Win32,59.88023952,,,,,,,,,,,,,,,,,,,,,,,,,,,20,,,,,,,,,,,,,,,,,,6,4,,,473.6063,2,up,0.5679,474.207,0.5,0.3,"[2,3,1]",0.695415053,stimuli/card_0_transparent.png,0,2,0,2,0,1,,,,,,,,,,
,,,,5ed68cac121a540dfb82f4ea,B,2024-08-25_11h41.27.285,Slot Machine Game,2023.1.3,Win32,59.88023952,,,,,,,,,,,,,,,,,,,,,,,,,,,120,,,,,,,,,,,,,,,,,,6,4,,,475.007,3,up,1.0182,476.0582,0.5,0.3,"[2,3,1]",0.098373477,stimuli/card_100_transparent.png,100,3,0,3,0,1,,,,,,,,,,
,,,,5ed68cac121a540dfb82f4ea,B,2024-08-25_11h41.27.285,Slot Machine Game,2023.1.3,Win32,59.88023952,,,,,,,,,,,,,,,,,,,,,,,,,,,120,,,,,,,,,,,,,,,,,,6,4,,,476.8581,4,up,0.954,477.8433,1.5,0.3,"[2,3,1]",0.641068494,stimuli/card_0_transparent.png,0,4,0,4,0,1,,,,,,,,,,
,,,,5ed68cac121a540dfb82f4ea,B,2024-08-25_11h41.27.285,Slot Machine Game,2023.1.3,Win32,59.88023952,,,,,,,,,,,,,,,,,,,,,,,,,,,120,,,,,,,,,,,,,,,,,,6,4,,,479.6428,5,up,0.8013,480.477,1.5,0.3,"[2,3,1]",0.303264404,stimuli/card_0_transparent.png,0,5,0,5,0,1,,,,,,,,,,
,,,,5ed68cac121a540dfb82f4ea,B,2024-08-25_11h41.27.285,Slot Machine Game,2023.1.3,Win32,59.88023952,,,,,,,,,,,,,,,,,,,,,,,,,,,220,,,,,,,,,,,,,,,,,,6,4,,,482.2772,6,right,0.501,482.7948,0.5,0.3,"[2,3,1]",0.664186464,stimuli/card_100_transparent.png,100,6,0,6,0,1,,,,,,,,,,
,,,,5ed68cac121a540dfb82f4ea,B,2024-08-25_11h41.27.285,Slot Machine Game,2023.1.3,Win32,59.88023952,,,,,,,,,,,,,,,,,,,,,,,,,,,220,,,,,,,,,,,,,,,,,,6,4,,,483.5948,7,right,0.5853,484.2126,1,0.3,"[1,2,3]",0.91400002,stimuli/card_0_transparent.png,0,7,0,7,0,1,,,,,,,,,,
,,,,5ed68cac121a540dfb82f4ea,B,2024-08-25_11h41.27.285,Slot Machine Game,2023.1.3,Win32,59.88023952,,,,,,,,,,,,,,,,,,,,,,,,,,,230,,,,,,,,,,,,,,,,,,6,4,,,485.5122,8,right,0.8012,486.3464,1,0.3,"[1,2,3]",0.187149793,stimuli/card_10_transparent.png,10,8,0,8,0,1,,,,,,,,,,
,,,,5ed68cac121a540dfb82f4ea,B,2024-08-25_11h41.27.285,Slot Machine Game,2023.1.3,Win32,59.88023952,,,,,,,,,,,,,,,,,,,,,,,,,,,240,,,,,,,,,,,,,,,,,,6,4,,,487.6466,9,up,1.1015,488.781,0.5,0.3,"[1,2,3]",0.65372941,stimuli/card_10_transparent.png,10,9,0,9,0,1,,,,,,,,,,
,,,,5ed68cac121a540dfb82f4ea,B,2024-08-25_11h41.27.285,Slot Machine Game,2023.1.3,Win32,59.88023952,,,,,,,,,,,,,,,,,,,,,,,,,,,340,,,,,,,,,,,,,,,,,,6,4,,,489.581,10,left,0.6175,490.2319,0.5,0.3,"[1,2,3]",0.869926119,stimuli/card_100_transparent.png,100,10,0,10,0,1,,,,,,,,,,
,,,,5ed68cac121a540dfb82f4ea,B,2024-08-25_11h41.27.285,Slot Machine Game,2023.1.3,Win32,59.88023952,,,,,,,,,,,,,,,,,,,,,,,,,,,440,,,,,,,,,,,,,,,,,,6,4,,,491.0317,11,left,0.9996,492.0622,0.5,0.3,"[1,2,3]",0.732569022,stimuli/card_100_transparent.png,100,11,0,11,0,1,,,,,,,,,,
,,,,5ed68cac121a540dfb82f4ea,B,2024-08-25_11h41.27.285,Slot Machine Game,2023.1.3,Win32,59.88023952,,,,,,,,,,,,,,,,,,,,,,,,,,,540,,,,,,,,,,,,,,,,,,6,4,,,492.866,12,left,0.7857,493.6836,0.5,0.3,"[1,2,3]",0.36960216,stimuli/card_100_transparent.png,100,12,0,12,0,1,,,,,,,,,,
,,,,5ed68cac121a540dfb82f4ea,B,2024-08-25_11h41.27.285,Slot Machine Game,2023.1.3,Win32,59.88023952,,,,,,,,,,,,,,,,,,,,,,,,,,,540,,,,,,,,,,,,,,,,,,6,4,,,494.4833,13,left,0.7686,495.2845,1.5,0.3,"[1,2,3]",0.090704626,stimuli/card_0_transparent.png,0,13,0,13,0,1,,,,,,,,,,
,,,,5ed68cac121a540dfb82f4ea,B,2024-08-25_11h41.27.285,Slot Machine Game,2023.1.3,Win32,59.88023952,,,,,,,,,,,,,,,,,,,,,,,,,,,640,,,,,,,,,,,,,,,,,,6,4,,,497.0846,14,left,0.6346,497.7357,1,0.3,"[1,2,3]",0.585288394,stimuli/card_100_transparent.png,100,14,0,14,0,1,,,,,,,,,,
,,,,5ed68cac121a540dfb82f4ea,B,2024-08-25_11h41.27.285,Slot Machine Game,2023.1.3,Win32,59.88023952,,,,,,,,,,,,,,,,,,,,,,,,,,,,,,,,,,499.0357,,,,,,,,,,,,,,,,,,,,,,,,,,,,,,,"[920,1210,940,640,740,640]",5,0,5,0,1,,,,
,,,,5ed68cac121a540dfb82f4ea,B,2024-08-25_11h41.27.285,Slot Machine Game,2023.1.3,Win32,59.88023952,,,,,,,,,,,,,,,,,,,,,,,,,,,0,,,,,,,,,,,,,,,,,,7,10,"[10,15]","[[3,1,2],[1,3,2]]",504.0719,0,left,1.2687,505.3736,1,0.3,"[3,1,2]",0.898770689,stimuli/card_0_transparent.png,0,0,0,0,0,1,,,,,,,,,,
,,,,5ed68cac121a540dfb82f4ea,B,2024-08-25_11h41.27.285,Slot Machine Game,2023.1.3,Win32,59.88023952,,,,,,,,,,,,,,,,,,,,,,,,,,,0,,,,,,,,,,,,,,,,,,7,10,,,506.6705,1,left,0.7845,507.4899,1,0.3,"[3,1,2]",0.524186242,stimuli/card_0_transparent.png,0,1,0,1,0,1,,,,,,,,,,
,,,,5ed68cac121a540dfb82f4ea,B,2024-08-25_11h41.27.285,Slot Machine Game,2023.1.3,Win32,59.88023952,,,,,,,,,,,,,,,,,,,,,,,,,,,100,,,,,,,,,,,,,,,,,,7,10,,,508.7904,2,up,0.7339,509.5553,1,0.3,"[3,1,2]",0.607800689,stimuli/card_100_transparent.png,100,2,0,2,0,1,,,,,,,,,,
,,,,5ed68cac121a540dfb82f4ea,B,2024-08-25_11h41.27.285,Slot Machine Game,2023.1.3,Win32,59.88023952,,,,,,,,,,,,,,,,,,,,,,,,,,,200,,,,,,,,,,,,,,,,,,7,10,,,510.8586,3,up,0.7245,511.609,1,0.3,"[3,1,2]",0.769564511,stimuli/card_100_transparent.png,100,3,0,3,0,1,,,,,,,,,,
,,,,5ed68cac121a540dfb82f4ea,B,2024-08-25_11h41.27.285,Slot Machine Game,2023.1.3,Win32,59.88023952,,,,,,,,,,,,,,,,,,,,,,,,,,,300,,,,,,,,,,,,,,,,,,7,10,,,512.9094,4,up,1.118,514.0601,0.5,0.3,"[3,1,2]",0.771006949,stimuli/card_100_transparent.png,100,4,0,4,0,1,,,,,,,,,,
,,,,5ed68cac121a540dfb82f4ea,B,2024-08-25_11h41.27.285,Slot Machine Game,2023.1.3,Win32,59.88023952,,,,,,,,,,,,,,,,,,,,,,,,,,,400,,,,,,,,,,,,,,,,,,7,10,,,514.8601,5,up,0.5363,515.4279,0.5,0.3,"[3,1,2]",0.478743037,stimuli/card_100_transparent.png,100,5,0,5,0,1,,,,,,,,,,
,,,,5ed68cac121a540dfb82f4ea,B,2024-08-25_11h41.27.285,Slot Machine Game,2023.1.3,Win32,59.88023952,,,,,,,,,,,,,,,,,,,,,,,,,,,500,,,,,,,,,,,,,,,,,,7,10,,,516.2274,6,up,0.6012,516.8618,0.5,0.3,"[3,1,2]",0.997082792,stimuli/card_100_transparent.png,100,6,0,6,0,1,,,,,,,,,,
,,,,5ed68cac121a540dfb82f4ea,B,2024-08-25_11h41.27.285,Slot Machine Game,2023.1.3,Win32,59.88023952,,,,,,,,,,,,,,,,,,,,,,,,,,,600,,,,,,,,,,,,,,,,,,7,10,,,517.6788,7,up,1.0339,518.7459,0.5,0.3,"[3,1,2]",0.543105213,stimuli/card_100_transparent.png,100,7,0,7,0,1,,,,,,,,,,
,,,,5ed68cac121a540dfb82f4ea,B,2024-08-25_11h41.27.285,Slot Machine Game,2023.1.3,Win32,59.88023952,,,,,,,,,,,,,,,,,,,,,,,,,,,700,,,,,,,,,,,,,,,,,,7,10,,,519.5458,8,up,0.7512,520.3302,1.5,0.3,"[3,1,2]",0.634554256,stimuli/card_100_transparent.png,100,8,0,8,0,1,,,,,,,,,,
,,,,5ed68cac121a540dfb82f4ea,B,2024-08-25_11h41.27.285,Slot Machine Game,2023.1.3,Win32,59.88023952,,,,,,,,,,,,,,,,,,,,,,,,,,,710,,,,,,,,,,,,,,,,,,7,10,,,522.1304,9,up,0.8678,523.0313,1.5,0.3,"[3,1,2]",0.120227937,stimuli/card_10_transparent.png,10,9,0,9,0,1,,,,,,,,,,
,,,,5ed68cac121a540dfb82f4ea,B,2024-08-25_11h41.27.285,Slot Machine Game,2023.1.3,Win32,59.88023952,,,,,,,,,,,,,,,,,,,,,,,,,,,710,,,,,,,,,,,,,,,,,,7,10,,,524.8318,10,up,0.9347,525.7997,1,0.3,"[1,3,2]",0.479097716,stimuli/card_0_transparent.png,0,10,0,10,0,1,,,,,,,,,,
,,,,5ed68cac121a540dfb82f4ea,B,2024-08-25_11h41.27.285,Slot Machine Game,2023.1.3,Win32,59.88023952,,,,,,,,,,,,,,,,,,,,,,,,,,,710,,,,,,,,,,,,,,,,,,7,10,,,527.0996,11,up,0.7848,527.9173,0.5,0.3,"[1,3,2]",0.680791236,stimuli/card_0_transparent.png,0,11,0,11,0,1,,,,,,,,,,
,,,,5ed68cac121a540dfb82f4ea,B,2024-08-25_11h41.27.285,Slot Machine Game,2023.1.3,Win32,59.88023952,,,,,,,,,,,,,,,,,,,,,,,,,,,810,,,,,,,,,,,,,,,,,,7,10,,,528.7172,12,left,3.2876,532.039,1.5,0.3,"[1,3,2]",0.928770058,stimuli/card_100_transparent.png,100,12,0,12,0,1,,,,,,,,,,
,,,,5ed68cac121a540dfb82f4ea,B,2024-08-25_11h41.27.285,Slot Machine Game,2023.1.3,Win32,59.88023952,,,,,,,,,,,,,,,,,,,,,,,,,,,910,,,,,,,,,,,,,,,,,,7,10,,,533.8363,13,left,0.8182,534.6872,1.5,0.3,"[1,3,2]",0.327513631,stimuli/card_100_transparent.png,100,13,0,13,0,1,,,,,,,,,,
,,,,5ed68cac121a540dfb82f4ea,B,2024-08-25_11h41.27.285,Slot Machine Game,2023.1.3,Win32,59.88023952,,,,,,,,,,,,,,,,,,,,,,,,,,,910,,,,,,,,,,,,,,,,,,7,10,,,536.4876,14,left,0.5345,537.0549,1.5,0.3,"[1,3,2]",0.041110505,stimuli/card_0_transparent.png,0,14,0,14,0,1,,,,,,,,,,
,,,,5ed68cac121a540dfb82f4ea,B,2024-08-25_11h41.27.285,Slot Machine Game,2023.1.3,Win32,59.88023952,,,,,,,,,,,,,,,,,,,,,,,,,,,,,,,,,,538.8556,,,,,,,,,,,,,,,,,,,,,,,,,,,,,,,"[920,1210,940,640,740,640,910]",6,0,6,0,1,,,,
,,,,5ed68cac121a540dfb82f4ea,B,2024-08-25_11h41.27.285,Slot Machine Game,2023.1.3,Win32,59.88023952,,,,,,,,,,,,,,,,,,,,,,,,,,,,,,,,,,,,,,,,,,,,,8,7,"[9,15]","[[1,3,2],[2,3,1]]",543.8868,0,,,,1,0.3,,,,,0,0,0,0,1,,,,,,,,,,
,,,,5ed68cac121a540dfb82f4ea,B,2024-08-25_11h41.27.285,Slot Machine Game,2023.1.3,Win32,59.88023952,,,,,,,,,,,,,,,,,,,,,,,,,,,100,,,,,,,,,,,,,,,,,,8,7,,,549.4013,1,left,0.8022,550.2307,1.5,0.3,"[1,3,2]",0.257993102,stimuli/card_100_transparent.png,100,1,0,1,0,1,,,,,,,,,,
,,,,5ed68cac121a540dfb82f4ea,B,2024-08-25_11h41.27.285,Slot Machine Game,2023.1.3,Win32,59.88023952,,,,,,,,,,,,,,,,,,,,,,,,,,,200,,,,,,,,,,,,,,,,,,8,7,,,552.0452,2,left,0.5513,552.6296,0.5,0.3,"[1,3,2]",0.359163288,stimuli/card_100_transparent.png,100,2,0,2,0,1,,,,,,,,,,
,,,,5ed68cac121a540dfb82f4ea,B,2024-08-25_11h41.27.285,Slot Machine Game,2023.1.3,Win32,59.88023952,,,,,,,,,,,,,,,,,,,,,,,,,,,210,,,,,,,,,,,,,,,,,,8,7,,,553.4293,3,left,0.5845,554.0301,1,0.3,"[1,3,2]",0.106562391,stimuli/card_10_transparent.png,10,3,0,3,0,1,,,,,,,,,,
,,,,5ed68cac121a540dfb82f4ea,B,2024-08-25_11h41.27.285,Slot Machine Game,2023.1.3,Win32,59.88023952,,,,,,,,,,,,,,,,,,,,,,,,,,,310,,,,,,,,,,,,,,,,,,8,7,,,555.3302,4,left,0.618,555.9812,1,0.3,"[1,3,2]",0.728854272,stimuli/card_100_transparent.png,100,4,0,4,0,1,,,,,,,,,,
,,,,5ed68cac121a540dfb82f4ea,B,2024-08-25_11h41.27.285,Slot Machine Game,2023.1.3,Win32,59.88023952,,,,,,,,,,,,,,,,,,,,,,,,,,,410,,,,,,,,,,,,,,,,,,8,7,,,557.2812,5,left,0.9514,558.2656,0.5,0.3,"[1,3,2]",0.300160884,stimuli/card_100_transparent.png,100,5,0,5,0,1,,,,,,,,,,
,,,,5ed68cac121a540dfb82f4ea,B,2024-08-25_11h41.27.285,Slot Machine Game,2023.1.3,Win32,59.88023952,,,,,,,,,,,,,,,,,,,,,,,,,,,510,,,,,,,,,,,,,,,,,,8,7,,,559.0654,6,left,0.7786,559.8664,0.5,0.3,"[1,3,2]",0.623915026,stimuli/card_100_transparent.png,100,6,0,6,0,1,,,,,,,,,,
,,,,5ed68cac121a540dfb82f4ea,B,2024-08-25_11h41.27.285,Slot Machine Game,2023.1.3,Win32,59.88023952,,,,,,,,,,,,,,,,,,,,,,,,,,,610,,,,,,,,,,,,,,,,,,8,7,,,560.6663,7,left,0.5855,561.2839,1.5,0.3,"[1,3,2]",0.950406744,stimuli/card_100_transparent.png,100,7,0,7,0,1,,,,,,,,,,
,,,,5ed68cac121a540dfb82f4ea,B,2024-08-25_11h41.27.285,Slot Machine Game,2023.1.3,Win32,59.88023952,,,,,,,,,,,,,,,,,,,,,,,,,,,710,,,,,,,,,,,,,,,,,,8,7,,,563.0843,8,left,0.9195,564.0349,0.5,0.3,"[1,3,2]",0.844695576,stimuli/card_100_transparent.png,100,8,0,8,0,1,,,,,,,,,,
,,,,5ed68cac121a540dfb82f4ea,B,2024-08-25_11h41.27.285,Slot Machine Game,2023.1.3,Win32,59.88023952,,,,,,,,,,,,,,,,,,,,,,,,,,,720,,,,,,,,,,,,,,,,,,8,7,,,564.8349,9,left,0.7009,565.5693,0.5,0.3,"[2,3,1]",0.737789913,stimuli/card_10_transparent.png,10,9,0,9,0,1,,,,,,,,,,
,,,,5ed68cac121a540dfb82f4ea,B,2024-08-25_11h41.27.285,Slot Machine Game,2023.1.3,Win32,59.88023952,,,,,,,,,,,,,,,,,,,,,,,,,,,820,,,,,,,,,,,,,,,,,,8,7,,,566.3689,10,left,0.5848,566.9869,1,0.3,"[2,3,1]",0.158430943,stimuli/card_100_transparent.png,100,10,0,10,0,1,,,,,,,,,,
,,,,5ed68cac121a540dfb82f4ea,B,2024-08-25_11h41.27.285,Slot Machine Game,2023.1.3,Win32,59.88023952,,,,,,,,,,,,,,,,,,,,,,,,,,,830,,,,,,,,,,,,,,,,,,8,7,,,568.2866,11,left,0.7013,569.0209,1.5,0.3,"[2,3,1]",0.224056582,stimuli/card_10_transparent.png,10,11,0,11,0,1,,,,,,,,,,
,,,,5ed68cac121a540dfb82f4ea,B,2024-08-25_11h41.27.285,Slot Machine Game,2023.1.3,Win32,59.88023952,,,,,,,,,,,,,,,,,,,,,,,,,,,840,,,,,,,,,,,,,,,,,,8,7,,,570.8213,12,left,0.5844,571.4389,1.5,0.3,"[2,3,1]",0.347394564,stimuli/card_10_transparent.png,10,12,0,12,0,1,,,,,,,,,,
,,,,5ed68cac121a540dfb82f4ea,B,2024-08-25_11h41.27.285,Slot Machine Game,2023.1.3,Win32,59.88023952,,,,,,,,,,,,,,,,,,,,,,,,,,,850,,,,,,,,,,,,,,,,,,8,7,,,573.2394,13,left,0.8339,574.09,1,0.3,"[2,3,1]",0.340774475,stimuli/card_10_transparent.png,10,13,0,13,0,1,,,,,,,,,,
,,,,5ed68cac121a540dfb82f4ea,B,2024-08-25_11h41.27.285,Slot Machine Game,2023.1.3,Win32,59.88023952,,,,,,,,,,,,,,,,,,,,,,,,,,,950,,,,,,,,,,,,,,,,,,8,7,,,575.3904,14,right,0.8348,576.2578,0.5,0.3,"[2,3,1]",0.792235683,stimuli/card_100_transparent.png,100,14,0,14,0,1,,,,,,,,,,
,,,,5ed68cac121a540dfb82f4ea,B,2024-08-25_11h41.27.285,Slot Machine Game,2023.1.3,Win32,59.88023952,,,,,,,,,,,,,,,,,,,,,,,,,,,,,,,,,,577.0578,,,,,,,,,,,,,,,,,,,,,,,,,,,,,,,"[920,1210,940,640,740,640,910,950]",7,0,7,0,1,,,,
,,,,5ed68cac121a540dfb82f4ea,B,2024-08-25_11h41.27.285,Slot Machine Game,2023.1.3,Win32,59.88023952,,,,,,,,,,,,,,,,,,,,,,,,,,,100,,,,,,,,,,,,,,,,,,9,9,"[8,15]","[[3,2,1],[3,1,2]]",582.0946,0,left,1.3023,583.4279,1.5,0.3,"[3,2,1]",0.009340316,stimuli/card_100_transparent.png,100,0,0,0,0,1,,,,,,,,,,
,,,,5ed68cac121a540dfb82f4ea,B,2024-08-25_11h41.27.285,Slot Machine Game,2023.1.3,Win32,59.88023952,,,,,,,,,,,,,,,,,,,,,,,,,,,100,,,,,,,,,,,,,,,,,,9,9,,,585.2284,1,left,0.8179,586.0794,1,0.3,"[3,2,1]",0.554647213,stimuli/card_0_transparent.png,0,1,0,1,0,1,,,,,,,,,,
,,,,5ed68cac121a540dfb82f4ea,B,2024-08-25_11h41.27.285,Slot Machine Game,2023.1.3,Win32,59.88023952,,,,,,,,,,,,,,,,,,,,,,,,,,,110,,,,,,,,,,,,,,,,,,9,9,,,587.3794,2,up,0.6011,588.014,1.5,0.3,"[3,2,1]",0.786216206,stimuli/card_10_transparent.png,10,2,0,2,0,1,,,,,,,,,,
,,,,5ed68cac121a540dfb82f4ea,B,2024-08-25_11h41.27.285,Slot Machine Game,2023.1.3,Win32,59.88023952,,,,,,,,,,,,,,,,,,,,,,,,,,,120,,,,,,,,,,,,,,,,,,9,9,,,589.8143,3,left,1.3018,591.1488,1,0.3,"[3,2,1]",0.130783497,stimuli/card_10_transparent.png,10,3,0,3,0,1,,,,,,,,,,
,,,,5ed68cac121a540dfb82f4ea,B,2024-08-25_11h41.27.285,Slot Machine Game,2023.1.3,Win32,59.88023952,,,,,,,,,,,,,,,,,,,,,,,,,,,120,,,,,,,,,,,,,,,,,,9,9,,,592.4487,4,left,0.6514,593.1329,1,0.3,"[3,2,1]",0.397055278,stimuli/card_0_transparent.png,0,4,0,4,0,1,,,,,,,,,,
,,,,5ed68cac121a540dfb82f4ea,B,2024-08-25_11h41.27.285,Slot Machine Game,2023.1.3,Win32,59.88023952,,,,,,,,,,,,,,,,,,,,,,,,,,,220,,,,,,,,,,,,,,,,,,9,9,,,594.4343,5,right,0.7514,595.2171,1,0.3,"[3,2,1]",0.95206511,stimuli/card_100_transparent.png,100,5,0,5,0,1,,,,,,,,,,
,,,,5ed68cac121a540dfb82f4ea,B,2024-08-25_11h41.27.285,Slot Machine Game,2023.1.3,Win32,59.88023952,,,,,,,,,,,,,,,,,,,,,,,,,,,320,,,,,,,,,,,,,,,,,,9,9,,,596.5173,6,right,1.0014,597.5353,0.5,0.3,"[3,2,1]",0.591849252,stimuli/card_100_transparent.png,100,6,0,6,0,1,,,,,,,,,,
,,,,5ed68cac121a540dfb82f4ea,B,2024-08-25_11h41.27.285,Slot Machine Game,2023.1.3,Win32,59.88023952,,,,,,,,,,,,,,,,,,,,,,,,,,,420,,,,,,,,,,,,,,,,,,9,9,,,598.3349,7,right,0.551,598.9194,0.5,0.3,"[3,2,1]",0.220079244,stimuli/card_100_transparent.png,100,7,0,7,0,1,,,,,,,,,,
,,,,5ed68cac121a540dfb82f4ea,B,2024-08-25_11h41.27.285,Slot Machine Game,2023.1.3,Win32,59.88023952,,,,,,,,,,,,,,,,,,,,,,,,,,,430,,,,,,,,,,,,,,,,,,9,9,,,599.7189,8,right,1.2016,600.9533,0.5,0.3,"[3,1,2]",0.235453386,stimuli/card_10_transparent.png,10,8,0,8,0,1,,,,,,,,,,
,,,,5ed68cac121a540dfb82f4ea,B,2024-08-25_11h41.27.285,Slot Machine Game,2023.1.3,Win32,59.88023952,,,,,,,,,,,,,,,,,,,,,,,,,,,440,,,,,,,,,,,,,,,,,,9,9,,,601.7533,9,right,0.5866,602.3707,1,0.3,"[3,1,2]",0.346561823,stimuli/card_10_transparent.png,10,9,0,9,0,1,,,,,,,,,,
,,,,5ed68cac121a540dfb82f4ea,B,2024-08-25_11h41.27.285,Slot Machine Game,2023.1.3,Win32,59.88023952,,,,,,,,,,,,,,,,,,,,,,,,,,,450,,,,,,,,,,,,,,,,,,9,9,,,603.671,10,right,0.8849,604.5885,0.5,0.3,"[3,1,2]",0.762081213,stimuli/card_10_transparent.png,10,10,0,10,0,1,,,,,,,,,,
,,,,5ed68cac121a540dfb82f4ea,B,2024-08-25_11h41.27.285,Slot Machine Game,2023.1.3,Win32,59.88023952,,,,,,,,,,,,,,,,,,,,,,,,,,,550,,,,,,,,,,,,,,,,,,9,9,,,605.3885,11,up,0.718,606.1395,1.5,0.3,"[3,1,2]",0.394373714,stimuli/card_100_transparent.png,100,11,0,11,0,1,,,,,,,,,,
,,,,5ed68cac121a540dfb82f4ea,B,2024-08-25_11h41.27.285,Slot Machine Game,2023.1.3,Win32,59.88023952,,,,,,,,,,,,,,,,,,,,,,,,,,,650,,,,,,,,,,,,,,,,,,9,9,,,607.9396,12,up,0.6944,608.6642,0.5,0.3,"[3,1,2]",0.899921852,stimuli/card_100_transparent.png,100,12,0,12,0,1,,,,,,,,,,
,,,,5ed68cac121a540dfb82f4ea,B,2024-08-25_11h41.27.285,Slot Machine Game,2023.1.3,Win32,59.88023952,,,,,,,,,,,,,,,,,,,,,,,,,,,660,,,,,,,,,,,,,,,,,,9,9,,,609.4573,13,up,0.6513,610.1417,0.5,0.3,"[3,1,2]",0.170839405,stimuli/card_10_transparent.png,10,13,0,13,0,1,,,,,,,,,,
,,,,5ed68cac121a540dfb82f4ea,B,2024-08-25_11h41.27.285,Slot Machine Game,2023.1.3,Win32,59.88023952,,,,,,,,,,,,,,,,,,,,,,,,,,,760,,,,,,,,,,,,,,,,,,9,9,,,610.9412,14,up,0.5025,611.4753,1.5,0.3,"[3,1,2]",0.22264528,stimuli/card_100_transparent.png,100,14,0,14,0,1,,,,,,,,,,
,,,,5ed68cac121a540dfb82f4ea,B,2024-08-25_11h41.27.285,Slot Machine Game,2023.1.3,Win32,59.88023952,,,,,,,,,,,,,,,,,,,,,,,,,,,,,,,,,,613.2757,,,,,,,,,,,,,,,,,,,,,,,,,,,,,,,"[920,1210,940,640,740,640,910,950,760]",8,0,8,0,1,,,,
,,,,5ed68cac121a540dfb82f4ea,B,2024-08-25_11h41.27.285,Slot Machine Game,2023.1.3,Win32,59.88023952,,,,,,,,,,,,,,,,,,,,,,,,,,,100,,,,,,,,,,,,,,,,,,10,6,"[4,10,15]","[[2,3,1],[1,3,2],[3,2,1]]",618.3117,0,left,1.0685,619.4126,0.5,0.3,"[2,3,1]",0.195957207,stimuli/card_100_transparent.png,100,0,0,0,0,1,,,,,,,,,,
,,,,5ed68cac121a540dfb82f4ea,B,2024-08-25_11h41.27.285,Slot Machine Game,2023.1.3,Win32,59.88023952,,,,,,,,,,,,,,,,,,,,,,,,,,,110,,,,,,,,,,,,,,,,,,10,6,,,620.2125,1,left,0.6344,620.8801,1,0.3,"[2,3,1]",0.473642459,stimuli/card_10_transparent.png,10,1,0,1,0,1,,,,,,,,,,
,,,,5ed68cac121a540dfb82f4ea,B,2024-08-25_11h41.27.285,Slot Machine Game,2023.1.3,Win32,59.88023952,,,,,,,,,,,,,,,,,,,,,,,,,,,120,,,,,,,,,,,,,,,,,,10,6,,,622.1802,2,left,0.8297,623.031,0.5,0.3,"[2,3,1]",0.266864441,stimuli/card_10_transparent.png,10,2,0,2,0,1,,,,,,,,,,
,,,,5ed68cac121a540dfb82f4ea,B,2024-08-25_11h41.27.285,Slot Machine Game,2023.1.3,Win32,59.88023952,,,,,,,,,,,,,,,,,,,,,,,,,,,130,,,,,,,,,,,,,,,,,,10,6,,,623.831,3,left,0.818,624.6818,0.5,0.3,"[2,3,1]",0.312624135,stimuli/card_10_transparent.png,10,3,0,3,0,1,,,,,,,,,,
,,,,5ed68cac121a540dfb82f4ea,B,2024-08-25_11h41.27.285,Slot Machine Game,2023.1.3,Win32,59.88023952,,,,,,,,,,,,,,,,,,,,,,,,,,,130,,,,,,,,,,,,,,,,,,10,6,,,625.4817,4,up,0.5012,626.017,1.5,0.3,"[1,3,2]",0.750424079,stimuli/card_0_transparent.png,0,4,0,4,0,1,,,,,,,,,,
,,,,5ed68cac121a540dfb82f4ea,B,2024-08-25_11h41.27.285,Slot Machine Game,2023.1.3,Win32,59.88023952,,,,,,,,,,,,,,,,,,,,,,,,,,,130,,,,,,,,,,,,,,,,,,10,6,,,627.8163,5,up,1.0193,628.8671,1.5,0.3,"[1,3,2]",0.360536265,stimuli/card_0_transparent.png,0,5,0,5,0,1,,,,,,,,,,
,,,,5ed68cac121a540dfb82f4ea,B,2024-08-25_11h41.27.285,Slot Machine Game,2023.1.3,Win32,59.88023952,,,,,,,,,,,,,,,,,,,,,,,,,,,130,,,,,,,,,,,,,,,,,,10,6,,,630.6677,6,right,1.496,632.1857,0.5,0.3,"[1,3,2]",0.079630647,stimuli/card_0_transparent.png,0,6,0,6,0,1,,,,,,,,,,
,,,,5ed68cac121a540dfb82f4ea,B,2024-08-25_11h41.27.285,Slot Machine Game,2023.1.3,Win32,59.88023952,,,,,,,,,,,,,,,,,,,,,,,,,,,140,,,,,,,,,,,,,,,,,,10,6,,,632.9854,7,right,0.8515,633.8701,1,0.3,"[1,3,2]",0.556891552,stimuli/card_10_transparent.png,10,7,0,7,0,1,,,,,,,,,,
,,,,5ed68cac121a540dfb82f4ea,B,2024-08-25_11h41.27.285,Slot Machine Game,2023.1.3,Win32,59.88023952,,,,,,,,,,,,,,,,,,,,,,,,,,,140,,,,,,,,,,,,,,,,,,10,6,,,635.1701,8,left,0.5176,635.7206,0.5,0.3,"[1,3,2]",0.014256085,stimuli/card_0_transparent.png,0,8,0,8,0,1,,,,,,,,,,
,,,,5ed68cac121a540dfb82f4ea,B,2024-08-25_11h41.27.285,Slot Machine Game,2023.1.3,Win32,59.88023952,,,,,,,,,,,,,,,,,,,,,,,,,,,240,,,,,,,,,,,,,,,,,,10,6,,,636.5205,9,left,0.6514,637.2048,1,0.3,"[1,3,2]",0.989956187,stimuli/card_100_transparent.png,100,9,0,9,0,1,,,,,,,,,,
,,,,5ed68cac121a540dfb82f4ea,B,2024-08-25_11h41.27.285,Slot Machine Game,2023.1.3,Win32,59.88023952,,,,,,,,,,,,,,,,,,,,,,,,,,,240,,,,,,,,,,,,,,,,,,10,6,,,638.5052,10,left,0.8606,639.3962,1.5,0.3,"[3,2,1]",0.637146323,stimuli/card_0_transparent.png,0,10,0,10,0,1,,,,,,,,,,
,,,,5ed68cac121a540dfb82f4ea,B,2024-08-25_11h41.27.285,Slot Machine Game,2023.1.3,Win32,59.88023952,,,,,,,,,,,,,,,,,,,,,,,,,,,240,,,,,,,,,,,,,,,,,,10,6,,,641.1894,11,left,0.5679,641.7737,1,0.3,"[3,2,1]",0.836947559,stimuli/card_0_transparent.png,0,11,0,11,0,1,,,,,,,,,,
,,,,5ed68cac121a540dfb82f4ea,B,2024-08-25_11h41.27.285,Slot Machine Game,2023.1.3,Win32,59.88023952,,,,,,,,,,,,,,,,,,,,,,,,,,,250,,,,,,,,,,,,,,,,,,10,6,,,643.0738,12,up,0.601,643.7079,1,0.3,"[3,2,1]",0.875707437,stimuli/card_10_transparent.png,10,12,0,12,0,1,,,,,,,,,,
,,,,5ed68cac121a540dfb82f4ea,B,2024-08-25_11h41.27.285,Slot Machine Game,2023.1.3,Win32,59.88023952,,,,,,,,,,,,,,,,,,,,,,,,,,,260,,,,,,,,,,,,,,,,,,10,6,,,645.0083,13,up,0.7845,645.8259,1,0.3,"[3,2,1]",0.583032963,stimuli/card_10_transparent.png,10,13,0,13,0,1,,,,,,,,,,
,,,,5ed68cac121a540dfb82f4ea,B,2024-08-25_11h41.27.285,Slot Machine Game,2023.1.3,Win32,59.88023952,,,,,,,,,,,,,,,,,,,,,,,,,,,360,,,,,,,,,,,,,,,,,,10,6,,,647.1258,14,right,0.6177,647.7768,0.5,0.3,"[3,2,1]",0.465967376,stimuli/card_100_transparent.png,100,14,0,14,0,1,,,,,,,,,,
,,,,5ed68cac121a540dfb82f4ea,B,2024-08-25_11h41.27.285,Slot Machine Game,2023.1.3,Win32,59.88023952,,,,,,,,,,,,,,,,,,,,,,,,,,,,,,,,,,648.5766,,,,,,,,,,,,,,,,,,,,,,,,,,,,,,,"[920,1210,940,640,740,640,910,950,760,360]",9,0,9,0,1,,,,
,,,,5ed68cac121a540dfb82f4ea,B,2024-08-25_11h41.27.285,Slot Machine Game,2023.1.3,Win32,59.88023952,,,,,,,,,,,,,,,,,,,,,,,,,,,,,,,,,,,,,,,,,,,,,,,,,,,,,,,,,,,,,,,,,,,,,,,9,"[920,1210,940,640,740,640,910,950,760,360]",12.1,2024-08-25_11h52.25.099
