key_resp_welcome_started,key_resp_welcome_keys,key_resp_welcome_rt,key_resp_welcome_duration,prolific_pid,path_id,date,expName,psychopyVersion,OS,frameRate,key_resp_instruction1_started,key_resp_instruction1_keys,key_resp_instruction1_rt,key_resp_instruction1_duration,key_resp_instruction2_started,key_resp_instruction2_keys,key_resp_instruction2_rt,key_resp_instruction2_duration,key_resp_instruction3_started,key_resp_instruction3_keys,key_resp_instruction3_rt,key_resp_instruction3_duration,key_resp_instruction4_started,key_resp_instruction4_keys,key_resp_instruction4_rt,key_resp_instruction4_duration,practiceCondition,practice_reward_seqs,practice_trial_started,practice_trial_num,practice_resp_rt,practice_keypress_time,practice_resp_keys,prac_presentationInterval,practice_reward_seq,reward_img,cumulative_reward,trial_reward,practice_trials.thisRepN,practice_trials.thisTrialN,practice_trials.thisN,practice_trials.thisIndex,practice_trials.ran,block_break_started,practice_end_time,practice_end_keys,practice_end_rt,practice_end_duration,main_instruction_text_started,block_condition,block_order_indices,main_instruction_keys,main_instruction_rt,main_instruction_duration,block_number,block_assignment,current_condition,main_reward_seqs,main_trial_started,main_trial_num,main_trial_keys,main_trial_rt,main_trial_keypress_time,main_presentationInterval,reward_presentation_time,main_reward_seq,reward_rand_val,main_reward_img,current_reward,main_trials.thisRepN,main_trials.thisTrialN,main_trials.thisN,main_trials.thisIndex,main_trials.ran,block_reward,block.thisRepN,block.thisTrialN,block.thisN,block.thisIndex,block.ran,block_reward.length,block_reward_all,reward_amount,date_end_task
0.0002,m,5.9815,,66088c59814ba8c63957669b,B,2024-08-16_18h07.32.225,Slot Machine Game,2023.1.3,Win32,147.0588235,,,,,,,,,,,,,,,,,,,,,,,,,,,,,,,,,,,,,,,,,,,,,,,,,,,,,,,,,,,,,,,,,,,,,,,,,,
,,,,66088c59814ba8c63957669b,B,2024-08-16_18h07.32.225,Slot Machine Game,2023.1.3,Win32,147.0588235,5.9922,m,5.671,,,,,,,,,,,,,,,,,,,,,,,,,,,,,,,,,,,,,,,,,,,,,,,,,,,,,,,,,,,,,,,,,,,,,,,
,,,,66088c59814ba8c63957669b,B,2024-08-16_18h07.32.225,Slot Machine Game,2023.1.3,Win32,147.0588235,,,,,11.6784,space,24.7378,,,,,,,,,,,,,,,,,,,,,,,,,,,,,,,,,,,,,,,,,,,,,,,,,,,,,,,,,,,,,,,,,,,
,,,,66088c59814ba8c63957669b,B,2024-08-16_18h07.32.225,Slot Machine Game,2023.1.3,Win32,147.0588235,,,,,,,,,36.4447,space,5.9368,,,,,,,,,,,,,,,,,,,,,,,,,,,,,,,,,,,,,,,,,,,,,,,,,,,,,,,,,,,,,,,
,,,,66088c59814ba8c63957669b,B,2024-08-16_18h07.32.225,Slot Machine Game,2023.1.3,Win32,147.0588235,,,,,,,,,,,,,,,,,,,,,,,,,,,,,,,,,,,,,,,,,,,,,,,,,,,,,,,,,,,,,,,,,,,,,,,,,,
,,,,66088c59814ba8c63957669b,B,2024-08-16_18h07.32.225,Slot Machine Game,2023.1.3,Win32,147.0588235,,,,,,,,,,,,,184.0681,space,33.8821,,,,,,,,,,,,,,,,,,,,,,,,,,,,,,,,,,,,,,,,,,,,,,,,,,,,,,,,,,,
,,,,66088c59814ba8c63957669b,B,2024-08-16_18h07.32.225,Slot Machine Game,2023.1.3,Win32,147.0588235,,,,,,,,,,,,,,,,,"[9,15]","[[2,1,3],[2,3,1]]",217.968,0,1.6482,219.6243,left,1.5,"[2,1,3]",stimuli/card_10_transparent.png,10,10,0,0,0,0,1,,,,,,,,,,,,,,,,,,,,,,,,,,,,,,,,,,,,,,,,,
,,,,66088c59814ba8c63957669b,B,2024-08-16_18h07.32.225,Slot Machine Game,2023.1.3,Win32,147.0588235,,,,,,,,,,,,,,,,,,,221.4232,1,0.9473,222.3807,right,1.5,"[2,1,3]",stimuli/card_0_transparent.png,10,0,1,0,1,0,1,,,,,,,,,,,,,,,,,,,,,,,,,,,,,,,,,,,,,,,,,
,,,,66088c59814ba8c63957669b,B,2024-08-16_18h07.32.225,Slot Machine Game,2023.1.3,Win32,147.0588235,,,,,,,,,,,,,,,,,,,224.1793,2,0.6283,224.8176,up,1.5,"[2,1,3]",stimuli/card_100_transparent.png,110,100,2,0,2,0,1,,,,,,,,,,,,,,,,,,,,,,,,,,,,,,,,,,,,,,,,,
,,,,66088c59814ba8c63957669b,B,2024-08-16_18h07.32.225,Slot Machine Game,2023.1.3,Win32,147.0588235,,,,,,,,,,,,,,,,,,,226.6164,3,2.0284,228.6576,up,1.5,"[2,1,3]",stimuli/card_100_transparent.png,210,100,3,0,3,0,1,,,,,,,,,,,,,,,,,,,,,,,,,,,,,,,,,,,,,,,,,
,,,,66088c59814ba8c63957669b,B,2024-08-16_18h07.32.225,Slot Machine Game,2023.1.3,Win32,147.0588235,,,,,,,,,,,,,,,,,,,230.4561,4,3.1701,233.6362,up,1.5,"[2,1,3]",stimuli/card_100_transparent.png,310,100,4,0,4,0,1,,,,,,,,,,,,,,,,,,,,,,,,,,,,,,,,,,,,,,,,,
,,,,66088c59814ba8c63957669b,B,2024-08-16_18h07.32.225,Slot Machine Game,2023.1.3,Win32,147.0588235,,,,,,,,,,,,,,,,,,,235.4341,5,0.5918,236.0384,up,0.5,"[2,1,3]",stimuli/card_100_transparent.png,410,100,5,0,5,0,1,,,,,,,,,,,,,,,,,,,,,,,,,,,,,,,,,,,,,,,,,
,,,,66088c59814ba8c63957669b,B,2024-08-16_18h07.32.225,Slot Machine Game,2023.1.3,Win32,147.0588235,,,,,,,,,,,,,,,,,,,236.8366,6,1.5693,238.4195,up,0.5,"[2,1,3]",stimuli/card_100_transparent.png,510,100,6,0,6,0,1,,,,,,,,,,,,,,,,,,,,,,,,,,,,,,,,,,,,,,,,,
,,,,66088c59814ba8c63957669b,B,2024-08-16_18h07.32.225,Slot Machine Game,2023.1.3,Win32,147.0588235,,,,,,,,,,,,,,,,,,,239.2181,7,0.6948,239.9261,up,1,"[2,1,3]",stimuli/card_100_transparent.png,610,100,7,0,7,0,1,,,,,,,,,,,,,,,,,,,,,,,,,,,,,,,,,,,,,,,,,
,,,,66088c59814ba8c63957669b,B,2024-08-16_18h07.32.225,Slot Machine Game,2023.1.3,Win32,147.0588235,,,,,,,,,,,,,,,,,,,241.2249,8,0.7431,241.9811,up,0.5,"[2,1,3]",stimuli/card_100_transparent.png,710,100,8,0,8,0,1,,,,,,,,,,,,,,,,,,,,,,,,,,,,,,,,,,,,,,,,,
,,,,66088c59814ba8c63957669b,B,2024-08-16_18h07.32.225,Slot Machine Game,2023.1.3,Win32,147.0588235,,,,,,,,,,,,,,,,,,,242.7799,9,0.7369,243.5297,up,1.5,"[2,3,1]",stimuli/card_0_transparent.png,710,0,9,0,9,0,1,,,,,,,,,,,,,,,,,,,,,,,,,,,,,,,,,,,,,,,,,
,,,,66088c59814ba8c63957669b,B,2024-08-16_18h07.32.225,Slot Machine Game,2023.1.3,Win32,147.0588235,,,,,,,,,,,,,,,,,,,245.3282,10,0.7045,246.0428,up,0.5,"[2,3,1]",stimuli/card_100_transparent.png,810,100,10,0,10,0,1,,,,,,,,,,,,,,,,,,,,,,,,,,,,,,,,,,,,,,,,,
,,,,66088c59814ba8c63957669b,B,2024-08-16_18h07.32.225,Slot Machine Game,2023.1.3,Win32,147.0588235,,,,,,,,,,,,,,,,,,,246.8415,11,0.6671,247.5217,up,1.5,"[2,3,1]",stimuli/card_10_transparent.png,820,10,11,0,11,0,1,,,,,,,,,,,,,,,,,,,,,,,,,,,,,,,,,,,,,,,,,
,,,,66088c59814ba8c63957669b,B,2024-08-16_18h07.32.225,Slot Machine Game,2023.1.3,Win32,147.0588235,,,,,,,,,,,,,,,,,,,249.3199,12,0.8367,250.16,up,0.5,"[2,3,1]",stimuli/card_0_transparent.png,820,0,12,0,12,0,1,,,,,,,,,,,,,,,,,,,,,,,,,,,,,,,,,,,,,,,,,
,,,,66088c59814ba8c63957669b,B,2024-08-16_18h07.32.225,Slot Machine Game,2023.1.3,Win32,147.0588235,,,,,,,,,,,,,,,,,,,250.9591,13,2.0484,253.0209,left,0.5,"[2,3,1]",stimuli/card_10_transparent.png,830,10,13,0,13,0,1,,,,,,,,,,,,,,,,,,,,,,,,,,,,,,,,,,,,,,,,,
,,,,66088c59814ba8c63957669b,B,2024-08-16_18h07.32.225,Slot Machine Game,2023.1.3,Win32,147.0588235,,,,,,,,,,,,,,,,,,,253.8194,14,0.5489,254.3819,left,1.5,"[2,3,1]",stimuli/card_10_transparent.png,840,10,14,0,14,0,1,,,,,,,,,,,,,,,,,,,,,,,,,,,,,,,,,,,,,,,,,
,,,,66088c59814ba8c63957669b,B,2024-08-16_18h07.32.225,Slot Machine Game,2023.1.3,Win32,147.0588235,,,,,,,,,,,,,,,,,"[6,15]","[[1,3,2],[3,1,2]]",261.1942,0,1.7872,262.9911,up,1,"[1,3,2]",stimuli/card_0_transparent.png,0,0,0,0,0,0,1,256.188,,,,,,,,,,,,,,,,,,,,,,,,,,,,,,,,,,,,,,,,
,,,,66088c59814ba8c63957669b,B,2024-08-16_18h07.32.225,Slot Machine Game,2023.1.3,Win32,147.0588235,,,,,,,,,,,,,,,,,,,264.2894,1,0.7595,265.0601,left,0.5,"[1,3,2]",stimuli/card_100_transparent.png,100,100,1,0,1,0,1,,,,,,,,,,,,,,,,,,,,,,,,,,,,,,,,,,,,,,,,,
,,,,66088c59814ba8c63957669b,B,2024-08-16_18h07.32.225,Slot Machine Game,2023.1.3,Win32,147.0588235,,,,,,,,,,,,,,,,,,,265.8587,2,0.6811,266.5529,left,1.5,"[1,3,2]",stimuli/card_100_transparent.png,200,100,2,0,2,0,1,,,,,,,,,,,,,,,,,,,,,,,,,,,,,,,,,,,,,,,,,
,,,,66088c59814ba8c63957669b,B,2024-08-16_18h07.32.225,Slot Machine Game,2023.1.3,Win32,147.0588235,,,,,,,,,,,,,,,,,,,268.3512,3,0.7432,269.1081,left,1,"[1,3,2]",stimuli/card_100_transparent.png,300,100,3,0,3,0,1,,,,,,,,,,,,,,,,,,,,,,,,,,,,,,,,,,,,,,,,,
,,,,66088c59814ba8c63957669b,B,2024-08-16_18h07.32.225,Slot Machine Game,2023.1.3,Win32,147.0588235,,,,,,,,,,,,,,,,,,,270.4066,4,0.6948,271.1145,left,1.5,"[1,3,2]",stimuli/card_100_transparent.png,400,100,4,0,4,0,1,,,,,,,,,,,,,,,,,,,,,,,,,,,,,,,,,,,,,,,,,
,,,,66088c59814ba8c63957669b,B,2024-08-16_18h07.32.225,Slot Machine Game,2023.1.3,Win32,147.0588235,,,,,,,,,,,,,,,,,,,272.9126,5,0.6754,273.6002,left,1,"[1,3,2]",stimuli/card_10_transparent.png,410,10,5,0,5,0,1,,,,,,,,,,,,,,,,,,,,,,,,,,,,,,,,,,,,,,,,,
,,,,66088c59814ba8c63957669b,B,2024-08-16_18h07.32.225,Slot Machine Game,2023.1.3,Win32,147.0588235,,,,,,,,,,,,,,,,,,,274.8985,6,0.5699,275.4821,left,1,"[3,1,2]",stimuli/card_0_transparent.png,410,0,6,0,6,0,1,,,,,,,,,,,,,,,,,,,,,,,,,,,,,,,,,,,,,,,,,
,,,,66088c59814ba8c63957669b,B,2024-08-16_18h07.32.225,Slot Machine Game,2023.1.3,Win32,147.0588235,,,,,,,,,,,,,,,,,,,276.7799,7,0.7578,277.5437,left,1,"[3,1,2]",stimuli/card_0_transparent.png,410,0,7,0,7,0,1,,,,,,,,,,,,,,,,,,,,,,,,,,,,,,,,,,,,,,,,,
,,,,66088c59814ba8c63957669b,B,2024-08-16_18h07.32.225,Slot Machine Game,2023.1.3,Win32,147.0588235,,,,,,,,,,,,,,,,,,,278.8429,8,0.7516,279.6057,right,0.5,"[3,1,2]",stimuli/card_10_transparent.png,420,10,8,0,8,0,1,,,,,,,,,,,,,,,,,,,,,,,,,,,,,,,,,,,,,,,,,
,,,,66088c59814ba8c63957669b,B,2024-08-16_18h07.32.225,Slot Machine Game,2023.1.3,Win32,147.0588235,,,,,,,,,,,,,,,,,,,280.4045,9,0.6408,281.0568,up,1.5,"[3,1,2]",stimuli/card_100_transparent.png,520,100,9,0,9,0,1,,,,,,,,,,,,,,,,,,,,,,,,,,,,,,,,,,,,,,,,,
,,,,66088c59814ba8c63957669b,B,2024-08-16_18h07.32.225,Slot Machine Game,2023.1.3,Win32,147.0588235,,,,,,,,,,,,,,,,,,,282.855,10,0.6166,283.48,up,1,"[3,1,2]",stimuli/card_10_transparent.png,530,10,10,0,10,0,1,,,,,,,,,,,,,,,,,,,,,,,,,,,,,,,,,,,,,,,,,
,,,,66088c59814ba8c63957669b,B,2024-08-16_18h07.32.225,Slot Machine Game,2023.1.3,Win32,147.0588235,,,,,,,,,,,,,,,,,,,284.7785,11,0.6269,285.4103,up,0.5,"[3,1,2]",stimuli/card_100_transparent.png,630,100,11,0,11,0,1,,,,,,,,,,,,,,,,,,,,,,,,,,,,,,,,,,,,,,,,,
,,,,66088c59814ba8c63957669b,B,2024-08-16_18h07.32.225,Slot Machine Game,2023.1.3,Win32,147.0588235,,,,,,,,,,,,,,,,,,,286.2091,12,0.6043,286.8267,up,1,"[3,1,2]",stimuli/card_0_transparent.png,630,0,12,0,12,0,1,,,,,,,,,,,,,,,,,,,,,,,,,,,,,,,,,,,,,,,,,
,,,,66088c59814ba8c63957669b,B,2024-08-16_18h07.32.225,Slot Machine Game,2023.1.3,Win32,147.0588235,,,,,,,,,,,,,,,,,,,288.1252,13,0.5974,288.7363,up,1.5,"[3,1,2]",stimuli/card_100_transparent.png,730,100,13,0,13,0,1,,,,,,,,,,,,,,,,,,,,,,,,,,,,,,,,,,,,,,,,,
,,,,66088c59814ba8c63957669b,B,2024-08-16_18h07.32.225,Slot Machine Game,2023.1.3,Win32,147.0588235,,,,,,,,,,,,,,,,,,,290.5347,14,0.5487,291.0969,up,0.5,"[3,1,2]",stimuli/card_100_transparent.png,830,100,14,0,14,0,1,,,,,,,,,,,,,,,,,,,,,,,,,,,,,,,,,,,,,,,,,
,,,,66088c59814ba8c63957669b,B,2024-08-16_18h07.32.225,Slot Machine Game,2023.1.3,Win32,147.0588235,,,,,,,,,,,,,,,,,,,,,,,,,,,,,,,,,,291.8953,296.8954,space,2.5231,,,,,,,,,,,,,,,,,,,,,,,,,,,,,,,,,,,,,
,,,,66088c59814ba8c63957669b,B,2024-08-16_18h07.32.225,Slot Machine Game,2023.1.3,Win32,147.0588235,,,,,,,,,,,,,,,,,,,,,,,,,,,,,,,,,,,,,,,299.4287,1,"[0,1,2,3,4,5,6,7,8,9]",space,1.7228,,,,,,,,,,,,,,,,,,,,,,,,,,,,,,,
,,,,66088c59814ba8c63957669b,B,2024-08-16_18h07.32.225,Slot Machine Game,2023.1.3,Win32,147.0588235,,,,,,,,,,,,,,,,,,,,,,,,,,,100,,,,,,,,,,,,,,,,,,1,1,"[12,15]","[[2,1,3],[2,3,1]]",301.1735,0,up,0.7506,301.9352,1,0.3,"[2,1,3]",0.301612873,stimuli/card_100_transparent.png,100,0,0,0,0,1,,,,,,,,,,
,,,,66088c59814ba8c63957669b,B,2024-08-16_18h07.32.225,Slot Machine Game,2023.1.3,Win32,147.0588235,,,,,,,,,,,,,,,,,,,,,,,,,,,200,,,,,,,,,,,,,,,,,,1,1,,,303.2334,1,up,0.6463,303.8927,1.5,0.3,"[2,1,3]",0.230700702,stimuli/card_100_transparent.png,100,1,0,1,0,1,,,,,,,,,,
,,,,66088c59814ba8c63957669b,B,2024-08-16_18h07.32.225,Slot Machine Game,2023.1.3,Win32,147.0588235,,,,,,,,,,,,,,,,,,,,,,,,,,,300,,,,,,,,,,,,,,,,,,1,1,,,305.691,2,up,0.6434,306.3439,1.5,0.3,"[2,1,3]",0.493059753,stimuli/card_100_transparent.png,100,2,0,2,0,1,,,,,,,,,,
,,,,66088c59814ba8c63957669b,B,2024-08-16_18h07.32.225,Slot Machine Game,2023.1.3,Win32,147.0588235,,,,,,,,,,,,,,,,,,,,,,,,,,,300,,,,,,,,,,,,,,,,,,1,1,,,308.1421,3,up,0.8058,308.9612,1.5,0.3,"[2,1,3]",0.030998428,stimuli/card_0_transparent.png,0,3,0,3,0,1,,,,,,,,,,
,,,,66088c59814ba8c63957669b,B,2024-08-16_18h07.32.225,Slot Machine Game,2023.1.3,Win32,147.0588235,,,,,,,,,,,,,,,,,,,,,,,,,,,400,,,,,,,,,,,,,,,,,,1,1,,,310.7595,4,up,0.5445,311.3148,0.5,0.3,"[2,1,3]",0.587298591,stimuli/card_100_transparent.png,100,4,0,4,0,1,,,,,,,,,,
,,,,66088c59814ba8c63957669b,B,2024-08-16_18h07.32.225,Slot Machine Game,2023.1.3,Win32,147.0588235,,,,,,,,,,,,,,,,,,,,,,,,,,,500,,,,,,,,,,,,,,,,,,1,1,,,312.1135,5,up,0.5142,312.6412,1.5,0.3,"[2,1,3]",0.702009275,stimuli/card_100_transparent.png,100,5,0,5,0,1,,,,,,,,,,
,,,,66088c59814ba8c63957669b,B,2024-08-16_18h07.32.225,Slot Machine Game,2023.1.3,Win32,147.0588235,,,,,,,,,,,,,,,,,,,,,,,,,,,600,,,,,,,,,,,,,,,,,,1,1,,,314.4395,6,up,0.6269,315.0782,0.5,0.3,"[2,1,3]",0.815847779,stimuli/card_100_transparent.png,100,6,0,6,0,1,,,,,,,,,,
,,,,66088c59814ba8c63957669b,B,2024-08-16_18h07.32.225,Slot Machine Game,2023.1.3,Win32,147.0588235,,,,,,,,,,,,,,,,,,,,,,,,,,,700,,,,,,,,,,,,,,,,,,1,1,,,315.8768,7,up,0.5625,316.4528,1.5,0.3,"[2,1,3]",0.596526709,stimuli/card_100_transparent.png,100,7,0,7,0,1,,,,,,,,,,
,,,,66088c59814ba8c63957669b,B,2024-08-16_18h07.32.225,Slot Machine Game,2023.1.3,Win32,147.0588235,,,,,,,,,,,,,,,,,,,,,,,,,,,800,,,,,,,,,,,,,,,,,,1,1,,,318.2511,8,up,0.5015,318.7649,1,0.3,"[2,1,3]",0.665636497,stimuli/card_100_transparent.png,100,8,0,8,0,1,,,,,,,,,,
,,,,66088c59814ba8c63957669b,B,2024-08-16_18h07.32.225,Slot Machine Game,2023.1.3,Win32,147.0588235,,,,,,,,,,,,,,,,,,,,,,,,,,,810,,,,,,,,,,,,,,,,,,1,1,,,320.0634,9,up,0.5295,320.6047,0.5,0.3,"[2,1,3]",0.131674375,stimuli/card_10_transparent.png,10,9,0,9,0,1,,,,,,,,,,
,,,,66088c59814ba8c63957669b,B,2024-08-16_18h07.32.225,Slot Machine Game,2023.1.3,Win32,147.0588235,,,,,,,,,,,,,,,,,,,,,,,,,,,910,,,,,,,,,,,,,,,,,,1,1,,,321.4034,10,up,0.523,321.9379,1,0.3,"[2,1,3]",0.430376908,stimuli/card_100_transparent.png,100,10,0,10,0,1,,,,,,,,,,
,,,,66088c59814ba8c63957669b,B,2024-08-16_18h07.32.225,Slot Machine Game,2023.1.3,Win32,147.0588235,,,,,,,,,,,,,,,,,,,,,,,,,,,1010,,,,,,,,,,,,,,,,,,1,1,,,323.2363,11,up,0.5765,323.8264,1.5,0.3,"[2,1,3]",0.272844622,stimuli/card_100_transparent.png,100,11,0,11,0,1,,,,,,,,,,
,,,,66088c59814ba8c63957669b,B,2024-08-16_18h07.32.225,Slot Machine Game,2023.1.3,Win32,147.0588235,,,,,,,,,,,,,,,,,,,,,,,,,,,1010,,,,,,,,,,,,,,,,,,1,1,,,325.6247,12,up,0.8697,326.4996,1.5,0.3,"[2,3,1]",0.786402034,stimuli/card_0_transparent.png,0,12,0,12,0,1,,,,,,,,,,
,,,,66088c59814ba8c63957669b,B,2024-08-16_18h07.32.225,Slot Machine Game,2023.1.3,Win32,147.0588235,,,,,,,,,,,,,,,,,,,,,,,,,,,1010,,,,,,,,,,,,,,,,,,1,1,,,328.2979,13,up,0.8956,329.2072,1,0.3,"[2,3,1]",0.370410567,stimuli/card_0_transparent.png,0,13,0,13,0,1,,,,,,,,,,
,,,,66088c59814ba8c63957669b,B,2024-08-16_18h07.32.225,Slot Machine Game,2023.1.3,Win32,147.0588235,,,,,,,,,,,,,,,,,,,,,,,,,,,1020,,,,,,,,,,,,,,,,,,1,1,,,330.5056,14,left,0.6611,331.1792,0.5,0.3,"[2,3,1]",0.243655839,stimuli/card_10_transparent.png,10,14,0,14,0,1,,,,,,,,,,
,,,,66088c59814ba8c63957669b,B,2024-08-16_18h07.32.225,Slot Machine Game,2023.1.3,Win32,147.0588235,,,,,,,,,,,,,,,,,,,,,,,,,,,,,,,,,,331.9777,,,,,,,,,,,,,,,,,,,,,,,,,,,,,,,[1020],0,0,0,0,1,,,,
,,,,66088c59814ba8c63957669b,B,2024-08-16_18h07.32.225,Slot Machine Game,2023.1.3,Win32,147.0588235,,,,,,,,,,,,,,,,,,,,,,,,,,,0,,,,,,,,,,,,,,,,,,2,2,"[6,15]","[[1,3,2],[3,2,1]]",336.9843,0,up,0.6669,337.6643,0.5,0.3,"[1,3,2]",0.649590202,stimuli/card_0_transparent.png,0,0,0,0,0,1,,,,,,,,,,
,,,,66088c59814ba8c63957669b,B,2024-08-16_18h07.32.225,Slot Machine Game,2023.1.3,Win32,147.0588235,,,,,,,,,,,,,,,,,,,,,,,,,,,10,,,,,,,,,,,,,,,,,,2,2,,,338.4629,1,right,0.5643,339.0387,0.5,0.3,"[1,3,2]",0.267112729,stimuli/card_10_transparent.png,10,1,0,1,0,1,,,,,,,,,,
,,,,66088c59814ba8c63957669b,B,2024-08-16_18h07.32.225,Slot Machine Game,2023.1.3,Win32,147.0588235,,,,,,,,,,,,,,,,,,,,,,,,,,,20,,,,,,,,,,,,,,,,,,2,2,,,339.8377,2,left,0.528,340.3788,1,0.3,"[1,3,2]",0.165798074,stimuli/card_10_transparent.png,10,2,0,2,0,1,,,,,,,,,,
,,,,66088c59814ba8c63957669b,B,2024-08-16_18h07.32.225,Slot Machine Game,2023.1.3,Win32,147.0588235,,,,,,,,,,,,,,,,,,,,,,,,,,,30,,,,,,,,,,,,,,,,,,2,2,,,341.6777,3,right,0.5073,342.1981,1,0.3,"[1,3,2]",0.722071437,stimuli/card_10_transparent.png,10,3,0,3,0,1,,,,,,,,,,
,,,,66088c59814ba8c63957669b,B,2024-08-16_18h07.32.225,Slot Machine Game,2023.1.3,Win32,147.0588235,,,,,,,,,,,,,,,,,,,,,,,,,,,40,,,,,,,,,,,,,,,,,,2,2,,,343.4966,4,left,0.5284,344.0377,1,0.3,"[1,3,2]",0.189521199,stimuli/card_10_transparent.png,10,4,0,4,0,1,,,,,,,,,,
,,,,66088c59814ba8c63957669b,B,2024-08-16_18h07.32.225,Slot Machine Game,2023.1.3,Win32,147.0588235,,,,,,,,,,,,,,,,,,,,,,,,,,,40,,,,,,,,,,,,,,,,,,2,2,,,345.3366,5,up,0.5767,345.9263,1,0.3,"[1,3,2]",0.872016487,stimuli/card_0_transparent.png,0,5,0,5,0,1,,,,,,,,,,
,,,,66088c59814ba8c63957669b,B,2024-08-16_18h07.32.225,Slot Machine Game,2023.1.3,Win32,147.0588235,,,,,,,,,,,,,,,,,,,,,,,,,,,50,,,,,,,,,,,,,,,,,,2,2,,,347.2252,6,left,0.5721,347.808,0.5,0.3,"[3,2,1]",0.163325049,stimuli/card_10_transparent.png,10,6,0,6,0,1,,,,,,,,,,
,,,,66088c59814ba8c63957669b,B,2024-08-16_18h07.32.225,Slot Machine Game,2023.1.3,Win32,147.0588235,,,,,,,,,,,,,,,,,,,,,,,,,,,150,,,,,,,,,,,,,,,,,,2,2,,,348.6068,7,right,0.5412,349.1578,1.5,0.3,"[3,2,1]",0.753165845,stimuli/card_100_transparent.png,100,7,0,7,0,1,,,,,,,,,,
,,,,66088c59814ba8c63957669b,B,2024-08-16_18h07.32.225,Slot Machine Game,2023.1.3,Win32,147.0588235,,,,,,,,,,,,,,,,,,,,,,,,,,,150,,,,,,,,,,,,,,,,,,2,2,,,350.9536,8,right,0.5772,351.5435,1.5,0.3,"[3,2,1]",0.010372887,stimuli/card_0_transparent.png,0,8,0,8,0,1,,,,,,,,,,
,,,,66088c59814ba8c63957669b,B,2024-08-16_18h07.32.225,Slot Machine Game,2023.1.3,Win32,147.0588235,,,,,,,,,,,,,,,,,,,,,,,,,,,250,,,,,,,,,,,,,,,,,,2,2,,,353.3417,9,right,0.681,354.0361,1.5,0.3,"[3,2,1]",0.371012417,stimuli/card_100_transparent.png,100,9,0,9,0,1,,,,,,,,,,
,,,,66088c59814ba8c63957669b,B,2024-08-16_18h07.32.225,Slot Machine Game,2023.1.3,Win32,147.0588235,,,,,,,,,,,,,,,,,,,,,,,,,,,350,,,,,,,,,,,,,,,,,,2,2,,,355.8346,10,right,0.5296,356.3758,1,0.3,"[3,2,1]",0.893415117,stimuli/card_100_transparent.png,100,10,0,10,0,1,,,,,,,,,,
,,,,66088c59814ba8c63957669b,B,2024-08-16_18h07.32.225,Slot Machine Game,2023.1.3,Win32,147.0588235,,,,,,,,,,,,,,,,,,,,,,,,,,,450,,,,,,,,,,,,,,,,,,2,2,,,357.6743,11,right,0.5629,358.2435,1.5,0.3,"[3,2,1]",0.617512068,stimuli/card_100_transparent.png,100,11,0,11,0,1,,,,,,,,,,
,,,,66088c59814ba8c63957669b,B,2024-08-16_18h07.32.225,Slot Machine Game,2023.1.3,Win32,147.0588235,,,,,,,,,,,,,,,,,,,,,,,,,,,550,,,,,,,,,,,,,,,,,,2,2,,,360.0419,12,right,1.322,361.375,1.5,0.3,"[3,2,1]",0.943722318,stimuli/card_100_transparent.png,100,12,0,12,0,1,,,,,,,,,,
,,,,66088c59814ba8c63957669b,B,2024-08-16_18h07.32.225,Slot Machine Game,2023.1.3,Win32,147.0588235,,,,,,,,,,,,,,,,,,,,,,,,,,,560,,,,,,,,,,,,,,,,,,2,2,,,363.1735,13,right,1.6882,364.8745,1,0.3,"[3,2,1]",0.106704761,stimuli/card_10_transparent.png,10,13,0,13,0,1,,,,,,,,,,
,,,,66088c59814ba8c63957669b,B,2024-08-16_18h07.32.225,Slot Machine Game,2023.1.3,Win32,147.0588235,,,,,,,,,,,,,,,,,,,,,,,,,,,660,,,,,,,,,,,,,,,,,,2,2,,,366.1728,14,right,0.9515,367.1377,1.5,0.3,"[3,2,1]",0.387548765,stimuli/card_100_transparent.png,100,14,0,14,0,1,,,,,,,,,,
,,,,66088c59814ba8c63957669b,B,2024-08-16_18h07.32.225,Slot Machine Game,2023.1.3,Win32,147.0588235,,,,,,,,,,,,,,,,,,,,,,,,,,,,,,,,,,368.9364,,,,,,,,,,,,,,,,,,,,,,,,,,,,,,,"[1020,660]",1,0,1,0,1,,,,
,,,,66088c59814ba8c63957669b,B,2024-08-16_18h07.32.225,Slot Machine Game,2023.1.3,Win32,147.0588235,,,,,,,,,,,,,,,,,,,,,,,,,,,10,,,,,,,,,,,,,,,,,,3,3,"[15,15]","[[3,1,2],[3,1,2]]",373.9435,0,right,0.696,374.6498,0.5,0.3,"[3,1,2]",0.905841328,stimuli/card_10_transparent.png,10,0,0,0,0,1,,,,,,,,,,
,,,,66088c59814ba8c63957669b,B,2024-08-16_18h07.32.225,Slot Machine Game,2023.1.3,Win32,147.0588235,,,,,,,,,,,,,,,,,,,,,,,,,,,20,,,,,,,,,,,,,,,,,,3,3,,,375.4488,1,left,0.7248,376.1847,0.5,0.3,"[3,1,2]",0.159221044,stimuli/card_10_transparent.png,10,1,0,1,0,1,,,,,,,,,,
,,,,66088c59814ba8c63957669b,B,2024-08-16_18h07.32.225,Slot Machine Game,2023.1.3,Win32,147.0588235,,,,,,,,,,,,,,,,,,,,,,,,,,,120,,,,,,,,,,,,,,,,,,3,3,,,376.9829,2,up,0.7739,377.7673,1.5,0.3,"[3,1,2]",0.310295548,stimuli/card_100_transparent.png,100,2,0,2,0,1,,,,,,,,,,
,,,,66088c59814ba8c63957669b,B,2024-08-16_18h07.32.225,Slot Machine Game,2023.1.3,Win32,147.0588235,,,,,,,,,,,,,,,,,,,,,,,,,,,220,,,,,,,,,,,,,,,,,,3,3,,,379.5663,3,up,0.5353,380.1144,0.5,0.3,"[3,1,2]",0.70173919,stimuli/card_100_transparent.png,100,3,0,3,0,1,,,,,,,,,,
,,,,66088c59814ba8c63957669b,B,2024-08-16_18h07.32.225,Slot Machine Game,2023.1.3,Win32,147.0588235,,,,,,,,,,,,,,,,,,,,,,,,,,,320,,,,,,,,,,,,,,,,,,3,3,,,380.9132,4,up,0.6123,381.5379,1.5,0.3,"[3,1,2]",0.877950786,stimuli/card_100_transparent.png,100,4,0,4,0,1,,,,,,,,,,
,,,,66088c59814ba8c63957669b,B,2024-08-16_18h07.32.225,Slot Machine Game,2023.1.3,Win32,147.0588235,,,,,,,,,,,,,,,,,,,,,,,,,,,420,,,,,,,,,,,,,,,,,,3,3,,,383.3361,5,up,0.5859,383.9329,1,0.3,"[3,1,2]",0.739482616,stimuli/card_100_transparent.png,100,5,0,5,0,1,,,,,,,,,,
,,,,66088c59814ba8c63957669b,B,2024-08-16_18h07.32.225,Slot Machine Game,2023.1.3,Win32,147.0588235,,,,,,,,,,,,,,,,,,,,,,,,,,,520,,,,,,,,,,,,,,,,,,3,3,,,385.2316,6,up,0.6252,385.8702,0.5,0.3,"[3,1,2]",0.694324141,stimuli/card_100_transparent.png,100,6,0,6,0,1,,,,,,,,,,
,,,,66088c59814ba8c63957669b,B,2024-08-16_18h07.32.225,Slot Machine Game,2023.1.3,Win32,147.0588235,,,,,,,,,,,,,,,,,,,,,,,,,,,620,,,,,,,,,,,,,,,,,,3,3,,,386.669,7,up,0.6392,387.3215,1,0.3,"[3,1,2]",0.680329744,stimuli/card_100_transparent.png,100,7,0,7,0,1,,,,,,,,,,
,,,,66088c59814ba8c63957669b,B,2024-08-16_18h07.32.225,Slot Machine Game,2023.1.3,Win32,147.0588235,,,,,,,,,,,,,,,,,,,,,,,,,,,630,,,,,,,,,,,,,,,,,,3,3,,,388.6199,8,up,0.676,389.307,0.5,0.3,"[3,1,2]",0.143934799,stimuli/card_10_transparent.png,10,8,0,8,0,1,,,,,,,,,,
,,,,66088c59814ba8c63957669b,B,2024-08-16_18h07.32.225,Slot Machine Game,2023.1.3,Win32,147.0588235,,,,,,,,,,,,,,,,,,,,,,,,,,,730,,,,,,,,,,,,,,,,,,3,3,,,390.1058,9,up,0.5214,390.6403,1.5,0.3,"[3,1,2]",0.778374931,stimuli/card_100_transparent.png,100,9,0,9,0,1,,,,,,,,,,
,,,,66088c59814ba8c63957669b,B,2024-08-16_18h07.32.225,Slot Machine Game,2023.1.3,Win32,147.0588235,,,,,,,,,,,,,,,,,,,,,,,,,,,830,,,,,,,,,,,,,,,,,,3,3,,,392.4386,10,up,0.5141,392.9661,1,0.3,"[3,1,2]",0.548359142,stimuli/card_100_transparent.png,100,10,0,10,0,1,,,,,,,,,,
,,,,66088c59814ba8c63957669b,B,2024-08-16_18h07.32.225,Slot Machine Game,2023.1.3,Win32,147.0588235,,,,,,,,,,,,,,,,,,,,,,,,,,,930,,,,,,,,,,,,,,,,,,3,3,,,394.2647,11,up,0.5423,394.8199,0.5,0.3,"[3,1,2]",0.788528326,stimuli/card_100_transparent.png,100,11,0,11,0,1,,,,,,,,,,
,,,,66088c59814ba8c63957669b,B,2024-08-16_18h07.32.225,Slot Machine Game,2023.1.3,Win32,147.0588235,,,,,,,,,,,,,,,,,,,,,,,,,,,1030,,,,,,,,,,,,,,,,,,3,3,,,395.6185,12,up,0.5509,396.1806,0.5,0.3,"[3,1,2]",0.482797948,stimuli/card_100_transparent.png,100,12,0,12,0,1,,,,,,,,,,
,,,,66088c59814ba8c63957669b,B,2024-08-16_18h07.32.225,Slot Machine Game,2023.1.3,Win32,147.0588235,,,,,,,,,,,,,,,,,,,,,,,,,,,1130,,,,,,,,,,,,,,,,,,3,3,,,396.9795,13,up,0.9447,397.9375,1,0.3,"[3,1,2]",0.880235082,stimuli/card_100_transparent.png,100,13,0,13,0,1,,,,,,,,,,
,,,,66088c59814ba8c63957669b,B,2024-08-16_18h07.32.225,Slot Machine Game,2023.1.3,Win32,147.0588235,,,,,,,,,,,,,,,,,,,,,,,,,,,1230,,,,,,,,,,,,,,,,,,3,3,,,399.236,14,up,0.8471,400.0968,0.5,0.3,"[3,1,2]",0.902708895,stimuli/card_100_transparent.png,100,14,0,14,0,1,,,,,,,,,,
,,,,66088c59814ba8c63957669b,B,2024-08-16_18h07.32.225,Slot Machine Game,2023.1.3,Win32,147.0588235,,,,,,,,,,,,,,,,,,,,,,,,,,,,,,,,,,400.8953,,,,,,,,,,,,,,,,,,,,,,,,,,,,,,,"[1020,660,1230]",2,0,2,0,1,,,,
,,,,66088c59814ba8c63957669b,B,2024-08-16_18h07.32.225,Slot Machine Game,2023.1.3,Win32,147.0588235,,,,,,,,,,,,,,,,,,,,,,,,,,,10,,,,,,,,,,,,,,,,,,4,4,"[7,15]","[[2,3,1],[1,2,3]]",405.9024,0,left,1.4122,407.3246,0.5,0.3,"[2,3,1]",0.985504172,stimuli/card_10_transparent.png,10,0,0,0,0,1,,,,,,,,,,
,,,,66088c59814ba8c63957669b,B,2024-08-16_18h07.32.225,Slot Machine Game,2023.1.3,Win32,147.0588235,,,,,,,,,,,,,,,,,,,,,,,,,,,10,,,,,,,,,,,,,,,,,,4,4,,,408.123,1,up,1.0979,409.234,0.5,0.3,"[2,3,1]",0.94095123,stimuli/card_0_transparent.png,0,1,0,1,0,1,,,,,,,,,,
,,,,66088c59814ba8c63957669b,B,2024-08-16_18h07.32.225,Slot Machine Game,2023.1.3,Win32,147.0588235,,,,,,,,,,,,,,,,,,,,,,,,,,,110,,,,,,,,,,,,,,,,,,4,4,,,410.0323,2,right,0.5448,410.5876,0.5,0.3,"[2,3,1]",0.903063307,stimuli/card_100_transparent.png,100,2,0,2,0,1,,,,,,,,,,
,,,,66088c59814ba8c63957669b,B,2024-08-16_18h07.32.225,Slot Machine Game,2023.1.3,Win32,147.0588235,,,,,,,,,,,,,,,,,,,,,,,,,,,210,,,,,,,,,,,,,,,,,,4,4,,,411.3864,3,right,0.695,412.0944,1,0.3,"[2,3,1]",0.378682746,stimuli/card_100_transparent.png,100,3,0,3,0,1,,,,,,,,,,
,,,,66088c59814ba8c63957669b,B,2024-08-16_18h07.32.225,Slot Machine Game,2023.1.3,Win32,147.0588235,,,,,,,,,,,,,,,,,,,,,,,,,,,310,,,,,,,,,,,,,,,,,,4,4,,,413.3932,4,right,0.5003,413.9066,1,0.3,"[2,3,1]",0.725822607,stimuli/card_100_transparent.png,100,4,0,4,0,1,,,,,,,,,,
,,,,66088c59814ba8c63957669b,B,2024-08-16_18h07.32.225,Slot Machine Game,2023.1.3,Win32,147.0588235,,,,,,,,,,,,,,,,,,,,,,,,,,,320,,,,,,,,,,,,,,,,,,4,4,,,415.205,5,right,0.7652,415.9824,1,0.3,"[2,3,1]",0.145690311,stimuli/card_10_transparent.png,10,5,0,5,0,1,,,,,,,,,,
,,,,66088c59814ba8c63957669b,B,2024-08-16_18h07.32.225,Slot Machine Game,2023.1.3,Win32,147.0588235,,,,,,,,,,,,,,,,,,,,,,,,,,,420,,,,,,,,,,,,,,,,,,4,4,,,417.2811,6,right,0.9099,418.2047,1.5,0.3,"[2,3,1]",0.814791926,stimuli/card_100_transparent.png,100,6,0,6,0,1,,,,,,,,,,
,,,,66088c59814ba8c63957669b,B,2024-08-16_18h07.32.225,Slot Machine Game,2023.1.3,Win32,147.0588235,,,,,,,,,,,,,,,,,,,,,,,,,,,430,,,,,,,,,,,,,,,,,,4,4,,,420.0028,7,right,0.6463,420.6623,0.5,0.3,"[1,2,3]",0.178456047,stimuli/card_10_transparent.png,10,7,0,7,0,1,,,,,,,,,,
,,,,66088c59814ba8c63957669b,B,2024-08-16_18h07.32.225,Slot Machine Game,2023.1.3,Win32,147.0588235,,,,,,,,,,,,,,,,,,,,,,,,,,,430,,,,,,,,,,,,,,,,,,4,4,,,421.4609,8,right,0.563,422.0369,0.5,0.3,"[1,2,3]",0.510125031,stimuli/card_0_transparent.png,0,8,0,8,0,1,,,,,,,,,,
,,,,66088c59814ba8c63957669b,B,2024-08-16_18h07.32.225,Slot Machine Game,2023.1.3,Win32,147.0588235,,,,,,,,,,,,,,,,,,,,,,,,,,,430,,,,,,,,,,,,,,,,,,4,4,,,422.8357,9,right,0.662,423.5089,1,0.3,"[1,2,3]",0.350298942,stimuli/card_0_transparent.png,0,9,0,9,0,1,,,,,,,,,,
,,,,66088c59814ba8c63957669b,B,2024-08-16_18h07.32.225,Slot Machine Game,2023.1.3,Win32,147.0588235,,,,,,,,,,,,,,,,,,,,,,,,,,,530,,,,,,,,,,,,,,,,,,4,4,,,424.8074,10,left,0.5975,425.4185,0.5,0.3,"[1,2,3]",0.857971884,stimuli/card_100_transparent.png,100,10,0,10,0,1,,,,,,,,,,
,,,,66088c59814ba8c63957669b,B,2024-08-16_18h07.32.225,Slot Machine Game,2023.1.3,Win32,147.0588235,,,,,,,,,,,,,,,,,,,,,,,,,,,540,,,,,,,,,,,,,,,,,,4,4,,,426.2166,11,left,0.6882,426.9108,0.5,0.3,"[1,2,3]",0.12008077,stimuli/card_10_transparent.png,10,11,0,11,0,1,,,,,,,,,,
,,,,66088c59814ba8c63957669b,B,2024-08-16_18h07.32.225,Slot Machine Game,2023.1.3,Win32,147.0588235,,,,,,,,,,,,,,,,,,,,,,,,,,,640,,,,,,,,,,,,,,,,,,4,4,,,427.7098,12,left,0.5362,428.2578,1,0.3,"[1,2,3]",0.425060012,stimuli/card_100_transparent.png,100,12,0,12,0,1,,,,,,,,,,
,,,,66088c59814ba8c63957669b,B,2024-08-16_18h07.32.225,Slot Machine Game,2023.1.3,Win32,147.0588235,,,,,,,,,,,,,,,,,,,,,,,,,,,740,,,,,,,,,,,,,,,,,,4,4,,,429.5563,13,left,0.6457,430.2161,1,0.3,"[1,2,3]",0.739475926,stimuli/card_100_transparent.png,100,13,0,13,0,1,,,,,,,,,,
,,,,66088c59814ba8c63957669b,B,2024-08-16_18h07.32.225,Slot Machine Game,2023.1.3,Win32,147.0588235,,,,,,,,,,,,,,,,,,,,,,,,,,,840,,,,,,,,,,,,,,,,,,4,4,,,431.5146,14,left,0.607,432.132,0.5,0.3,"[1,2,3]",0.948118599,stimuli/card_100_transparent.png,100,14,0,14,0,1,,,,,,,,,,
,,,,66088c59814ba8c63957669b,B,2024-08-16_18h07.32.225,Slot Machine Game,2023.1.3,Win32,147.0588235,,,,,,,,,,,,,,,,,,,,,,,,,,,,,,,,,,432.9308,,,,,,,,,,,,,,,,,,,,,,,,,,,,,,,"[1020,660,1230,840]",3,0,3,0,1,,,,
,,,,66088c59814ba8c63957669b,B,2024-08-16_18h07.32.225,Slot Machine Game,2023.1.3,Win32,147.0588235,,,,,,,,,,,,,,,,,,,,,,,,,,,100,,,,,,,,,,,,,,,,,,5,5,"[5,15]","[[1,2,3],[3,1,2]]",437.9379,0,left,0.6601,438.61,0.5,0.3,"[1,2,3]",0.430725657,stimuli/card_100_transparent.png,100,0,0,0,0,1,,,,,,,,,,
,,,,66088c59814ba8c63957669b,B,2024-08-16_18h07.32.225,Slot Machine Game,2023.1.3,Win32,147.0588235,,,,,,,,,,,,,,,,,,,,,,,,,,,200,,,,,,,,,,,,,,,,,,5,5,,,439.4087,1,left,0.6121,440.0333,1,0.3,"[1,2,3]",0.538156182,stimuli/card_100_transparent.png,100,1,0,1,0,1,,,,,,,,,,
,,,,66088c59814ba8c63957669b,B,2024-08-16_18h07.32.225,Slot Machine Game,2023.1.3,Win32,147.0588235,,,,,,,,,,,,,,,,,,,,,,,,,,,300,,,,,,,,,,,,,,,,,,5,5,,,441.332,2,left,0.5497,441.8945,1,0.3,"[1,2,3]",0.713604888,stimuli/card_100_transparent.png,100,2,0,2,0,1,,,,,,,,,,
,,,,66088c59814ba8c63957669b,B,2024-08-16_18h07.32.225,Slot Machine Game,2023.1.3,Win32,147.0588235,,,,,,,,,,,,,,,,,,,,,,,,,,,400,,,,,,,,,,,,,,,,,,5,5,,,443.1928,3,left,0.7188,443.9216,1,0.3,"[1,2,3]",0.716773339,stimuli/card_100_transparent.png,100,3,0,3,0,1,,,,,,,,,,
,,,,66088c59814ba8c63957669b,B,2024-08-16_18h07.32.225,Slot Machine Game,2023.1.3,Win32,147.0588235,,,,,,,,,,,,,,,,,,,,,,,,,,,500,,,,,,,,,,,,,,,,,,5,5,,,445.2198,4,left,0.5776,445.8099,0.5,0.3,"[1,2,3]",0.273192763,stimuli/card_100_transparent.png,100,4,0,4,0,1,,,,,,,,,,
,,,,66088c59814ba8c63957669b,B,2024-08-16_18h07.32.225,Slot Machine Game,2023.1.3,Win32,147.0588235,,,,,,,,,,,,,,,,,,,,,,,,,,,500,,,,,,,,,,,,,,,,,,5,5,,,446.6088,5,left,0.5559,447.1783,1.5,0.3,"[3,1,2]",0.757670024,stimuli/card_0_transparent.png,0,5,0,5,0,1,,,,,,,,,,
,,,,66088c59814ba8c63957669b,B,2024-08-16_18h07.32.225,Slot Machine Game,2023.1.3,Win32,147.0588235,,,,,,,,,,,,,,,,,,,,,,,,,,,510,,,,,,,,,,,,,,,,,,5,5,,,448.9765,6,left,0.6469,449.6357,1,0.3,"[3,1,2]",0.123128814,stimuli/card_10_transparent.png,10,6,0,6,0,1,,,,,,,,,,
,,,,66088c59814ba8c63957669b,B,2024-08-16_18h07.32.225,Slot Machine Game,2023.1.3,Win32,147.0588235,,,,,,,,,,,,,,,,,,,,,,,,,,,510,,,,,,,,,,,,,,,,,,5,5,,,450.9344,7,left,0.5003,451.448,0.5,0.3,"[3,1,2]",0.653089107,stimuli/card_0_transparent.png,0,7,0,7,0,1,,,,,,,,,,
,,,,66088c59814ba8c63957669b,B,2024-08-16_18h07.32.225,Slot Machine Game,2023.1.3,Win32,147.0588235,,,,,,,,,,,,,,,,,,,,,,,,,,,510,,,,,,,,,,,,,,,,,,5,5,,,452.2466,8,right,0.7109,452.9686,1,0.3,"[3,1,2]",0.058324933,stimuli/card_0_transparent.png,0,8,0,8,0,1,,,,,,,,,,
,,,,66088c59814ba8c63957669b,B,2024-08-16_18h07.32.225,Slot Machine Game,2023.1.3,Win32,147.0588235,,,,,,,,,,,,,,,,,,,,,,,,,,,510,,,,,,,,,,,,,,,,,,5,5,,,454.267,9,up,0.5419,454.8226,0.5,0.3,"[3,1,2]",0.044331339,stimuli/card_0_transparent.png,0,9,0,9,0,1,,,,,,,,,,
,,,,66088c59814ba8c63957669b,B,2024-08-16_18h07.32.225,Slot Machine Game,2023.1.3,Win32,147.0588235,,,,,,,,,,,,,,,,,,,,,,,,,,,610,,,,,,,,,,,,,,,,,,5,5,,,455.6208,10,up,0.5101,456.1413,1.5,0.3,"[3,1,2]",0.638122829,stimuli/card_100_transparent.png,100,10,0,10,0,1,,,,,,,,,,
,,,,66088c59814ba8c63957669b,B,2024-08-16_18h07.32.225,Slot Machine Game,2023.1.3,Win32,147.0588235,,,,,,,,,,,,,,,,,,,,,,,,,,,710,,,,,,,,,,,,,,,,,,5,5,,,457.9401,11,up,0.5568,458.5088,0.5,0.3,"[3,1,2]",0.680427814,stimuli/card_100_transparent.png,100,11,0,11,0,1,,,,,,,,,,
,,,,66088c59814ba8c63957669b,B,2024-08-16_18h07.32.225,Slot Machine Game,2023.1.3,Win32,147.0588235,,,,,,,,,,,,,,,,,,,,,,,,,,,810,,,,,,,,,,,,,,,,,,5,5,,,459.3078,12,up,0.5628,459.8839,1,0.3,"[3,1,2]",0.960877181,stimuli/card_100_transparent.png,100,12,0,12,0,1,,,,,,,,,,
,,,,66088c59814ba8c63957669b,B,2024-08-16_18h07.32.225,Slot Machine Game,2023.1.3,Win32,147.0588235,,,,,,,,,,,,,,,,,,,,,,,,,,,820,,,,,,,,,,,,,,,,,,5,5,,,461.1826,13,up,0.6688,461.8626,0.5,0.3,"[3,1,2]",0.191220518,stimuli/card_10_transparent.png,10,13,0,13,0,1,,,,,,,,,,
,,,,66088c59814ba8c63957669b,B,2024-08-16_18h07.32.225,Slot Machine Game,2023.1.3,Win32,147.0588235,,,,,,,,,,,,,,,,,,,,,,,,,,,920,,,,,,,,,,,,,,,,,,5,5,,,462.6612,14,up,0.6218,463.2929,0.5,0.3,"[3,1,2]",0.900486102,stimuli/card_100_transparent.png,100,14,0,14,0,1,,,,,,,,,,
,,,,66088c59814ba8c63957669b,B,2024-08-16_18h07.32.225,Slot Machine Game,2023.1.3,Win32,147.0588235,,,,,,,,,,,,,,,,,,,,,,,,,,,,,,,,,,464.0916,,,,,,,,,,,,,,,,,,,,,,,,,,,,,,,"[1020,660,1230,840,920]",4,0,4,0,1,,,,
,,,,66088c59814ba8c63957669b,B,2024-08-16_18h07.32.225,Slot Machine Game,2023.1.3,Win32,147.0588235,,,,,,,,,,,,,,,,,,,,,,,,,,,10,,,,,,,,,,,,,,,,,,6,6,"[4,10,15]","[[2,3,1],[1,3,2],[3,2,1]]",469.0987,0,left,0.5022,469.611,1.5,0.3,"[2,3,1]",0.315826353,stimuli/card_10_transparent.png,10,0,0,0,0,1,,,,,,,,,,
,,,,66088c59814ba8c63957669b,B,2024-08-16_18h07.32.225,Slot Machine Game,2023.1.3,Win32,147.0588235,,,,,,,,,,,,,,,,,,,,,,,,,,,10,,,,,,,,,,,,,,,,,,6,6,,,471.4095,1,up,0.5489,471.972,0.5,0.3,"[2,3,1]",0.49314823,stimuli/card_0_transparent.png,0,1,0,1,0,1,,,,,,,,,,
,,,,66088c59814ba8c63957669b,B,2024-08-16_18h07.32.225,Slot Machine Game,2023.1.3,Win32,147.0588235,,,,,,,,,,,,,,,,,,,,,,,,,,,110,,,,,,,,,,,,,,,,,,6,6,,,472.7703,2,right,0.6184,473.4022,1,0.3,"[2,3,1]",0.953614852,stimuli/card_100_transparent.png,100,2,0,2,0,1,,,,,,,,,,
,,,,66088c59814ba8c63957669b,B,2024-08-16_18h07.32.225,Slot Machine Game,2023.1.3,Win32,147.0588235,,,,,,,,,,,,,,,,,,,,,,,,,,,210,,,,,,,,,,,,,,,,,,6,6,,,474.7003,3,right,0.765,475.478,0.5,0.3,"[2,3,1]",0.55509858,stimuli/card_100_transparent.png,100,3,0,3,0,1,,,,,,,,,,
,,,,66088c59814ba8c63957669b,B,2024-08-16_18h07.32.225,Slot Machine Game,2023.1.3,Win32,147.0588235,,,,,,,,,,,,,,,,,,,,,,,,,,,220,,,,,,,,,,,,,,,,,,6,6,,,476.2764,4,right,0.6205,476.9084,1.5,0.3,"[1,3,2]",0.570452889,stimuli/card_10_transparent.png,10,4,0,4,0,1,,,,,,,,,,
,,,,66088c59814ba8c63957669b,B,2024-08-16_18h07.32.225,Slot Machine Game,2023.1.3,Win32,147.0588235,,,,,,,,,,,,,,,,,,,,,,,,,,,230,,,,,,,,,,,,,,,,,,6,6,,,478.7065,5,right,0.5024,479.2134,1.5,0.3,"[1,3,2]",0.467574371,stimuli/card_10_transparent.png,10,5,0,5,0,1,,,,,,,,,,
,,,,66088c59814ba8c63957669b,B,2024-08-16_18h07.32.225,Slot Machine Game,2023.1.3,Win32,147.0588235,,,,,,,,,,,,,,,,,,,,,,,,,,,330,,,,,,,,,,,,,,,,,,6,6,,,481.012,6,left,0.521,481.5464,1,0.3,"[1,3,2]",0.777552989,stimuli/card_100_transparent.png,100,6,0,6,0,1,,,,,,,,,,
,,,,66088c59814ba8c63957669b,B,2024-08-16_18h07.32.225,Slot Machine Game,2023.1.3,Win32,147.0588235,,,,,,,,,,,,,,,,,,,,,,,,,,,340,,,,,,,,,,,,,,,,,,6,6,,,482.8447,7,left,0.5285,483.3863,1.5,0.3,"[1,3,2]",0.177165058,stimuli/card_10_transparent.png,10,7,0,7,0,1,,,,,,,,,,
,,,,66088c59814ba8c63957669b,B,2024-08-16_18h07.32.225,Slot Machine Game,2023.1.3,Win32,147.0588235,,,,,,,,,,,,,,,,,,,,,,,,,,,440,,,,,,,,,,,,,,,,,,6,6,,,485.1846,8,left,0.5279,485.7263,1.5,0.3,"[1,3,2]",0.794091967,stimuli/card_100_transparent.png,100,8,0,8,0,1,,,,,,,,,,
,,,,66088c59814ba8c63957669b,B,2024-08-16_18h07.32.225,Slot Machine Game,2023.1.3,Win32,147.0588235,,,,,,,,,,,,,,,,,,,,,,,,,,,540,,,,,,,,,,,,,,,,,,6,6,,,487.5246,9,left,0.592,488.1283,0.5,0.3,"[1,3,2]",0.750185736,stimuli/card_100_transparent.png,100,9,0,9,0,1,,,,,,,,,,
,,,,66088c59814ba8c63957669b,B,2024-08-16_18h07.32.225,Slot Machine Game,2023.1.3,Win32,147.0588235,,,,,,,,,,,,,,,,,,,,,,,,,,,640,,,,,,,,,,,,,,,,,,6,6,,,488.927,10,left,0.5764,489.5169,1.5,0.3,"[3,2,1]",0.035270468,stimuli/card_100_transparent.png,100,10,0,10,0,1,,,,,,,,,,
,,,,66088c59814ba8c63957669b,B,2024-08-16_18h07.32.225,Slot Machine Game,2023.1.3,Win32,147.0588235,,,,,,,,,,,,,,,,,,,,,,,,,,,640,,,,,,,,,,,,,,,,,,6,6,,,491.3155,11,left,0.5715,491.8983,1,0.3,"[3,2,1]",0.394132745,stimuli/card_0_transparent.png,0,11,0,11,0,1,,,,,,,,,,
,,,,66088c59814ba8c63957669b,B,2024-08-16_18h07.32.225,Slot Machine Game,2023.1.3,Win32,147.0588235,,,,,,,,,,,,,,,,,,,,,,,,,,,650,,,,,,,,,,,,,,,,,,6,6,,,493.197,12,up,0.7363,493.9467,0.5,0.3,"[3,2,1]",0.920025194,stimuli/card_10_transparent.png,10,12,0,12,0,1,,,,,,,,,,
,,,,66088c59814ba8c63957669b,B,2024-08-16_18h07.32.225,Slot Machine Game,2023.1.3,Win32,147.0588235,,,,,,,,,,,,,,,,,,,,,,,,,,,650,,,,,,,,,,,,,,,,,,6,6,,,494.7455,13,left,1.1052,495.8628,1,0.3,"[3,2,1]",0.995858978,stimuli/card_0_transparent.png,0,13,0,13,0,1,,,,,,,,,,
,,,,66088c59814ba8c63957669b,B,2024-08-16_18h07.32.225,Slot Machine Game,2023.1.3,Win32,147.0588235,,,,,,,,,,,,,,,,,,,,,,,,,,,750,,,,,,,,,,,,,,,,,,6,6,,,497.1616,14,right,0.6392,497.8142,1.5,0.3,"[3,2,1]",0.215462828,stimuli/card_100_transparent.png,100,14,0,14,0,1,,,,,,,,,,
,,,,66088c59814ba8c63957669b,B,2024-08-16_18h07.32.225,Slot Machine Game,2023.1.3,Win32,147.0588235,,,,,,,,,,,,,,,,,,,,,,,,,,,,,,,,,,499.6124,,,,,,,,,,,,,,,,,,,,,,,,,,,,,,,"[1020,660,1230,840,920,750]",5,0,5,0,1,,,,
,,,,66088c59814ba8c63957669b,B,2024-08-16_18h07.32.225,Slot Machine Game,2023.1.3,Win32,147.0588235,,,,,,,,,,,,,,,,,,,,,,,,,,,0,,,,,,,,,,,,,,,,,,7,7,"[9,15]","[[1,3,2],[2,3,1]]",504.6196,0,right,0.7249,505.3541,1,0.3,"[1,3,2]",0.059765071,stimuli/card_0_transparent.png,0,0,0,0,0,1,,,,,,,,,,
,,,,66088c59814ba8c63957669b,B,2024-08-16_18h07.32.225,Slot Machine Game,2023.1.3,Win32,147.0588235,,,,,,,,,,,,,,,,,,,,,,,,,,,0,,,,,,,,,,,,,,,,,,7,7,,,506.6529,1,up,0.8611,507.5276,1,0.3,"[1,3,2]",0.710315365,stimuli/card_0_transparent.png,0,1,0,1,0,1,,,,,,,,,,
,,,,66088c59814ba8c63957669b,B,2024-08-16_18h07.32.225,Slot Machine Game,2023.1.3,Win32,147.0588235,,,,,,,,,,,,,,,,,,,,,,,,,,,100,,,,,,,,,,,,,,,,,,7,7,,,508.826,2,left,0.646,509.4853,1,0.3,"[1,3,2]",0.33050329,stimuli/card_100_transparent.png,100,2,0,2,0,1,,,,,,,,,,
,,,,66088c59814ba8c63957669b,B,2024-08-16_18h07.32.225,Slot Machine Game,2023.1.3,Win32,147.0588235,,,,,,,,,,,,,,,,,,,,,,,,,,,200,,,,,,,,,,,,,,,,,,7,7,,,510.7841,3,left,0.5146,511.3114,0.5,0.3,"[1,3,2]",0.456870369,stimuli/card_100_transparent.png,100,3,0,3,0,1,,,,,,,,,,
,,,,66088c59814ba8c63957669b,B,2024-08-16_18h07.32.225,Slot Machine Game,2023.1.3,Win32,147.0588235,,,,,,,,,,,,,,,,,,,,,,,,,,,300,,,,,,,,,,,,,,,,,,7,7,,,512.11,4,left,0.9235,513.0473,0.5,0.3,"[1,3,2]",0.307782774,stimuli/card_100_transparent.png,100,4,0,4,0,1,,,,,,,,,,
,,,,66088c59814ba8c63957669b,B,2024-08-16_18h07.32.225,Slot Machine Game,2023.1.3,Win32,147.0588235,,,,,,,,,,,,,,,,,,,,,,,,,,,400,,,,,,,,,,,,,,,,,,7,7,,,513.8457,5,left,0.704,514.5607,1,0.3,"[1,3,2]",0.581236186,stimuli/card_100_transparent.png,100,5,0,5,0,1,,,,,,,,,,
,,,,66088c59814ba8c63957669b,B,2024-08-16_18h07.32.225,Slot Machine Game,2023.1.3,Win32,147.0588235,,,,,,,,,,,,,,,,,,,,,,,,,,,500,,,,,,,,,,,,,,,,,,7,7,,,515.8592,6,left,0.6462,516.519,0.5,0.3,"[1,3,2]",0.384445635,stimuli/card_100_transparent.png,100,6,0,6,0,1,,,,,,,,,,
,,,,66088c59814ba8c63957669b,B,2024-08-16_18h07.32.225,Slot Machine Game,2023.1.3,Win32,147.0588235,,,,,,,,,,,,,,,,,,,,,,,,,,,600,,,,,,,,,,,,,,,,,,7,7,,,517.3173,7,left,0.9106,518.2408,1.5,0.3,"[1,3,2]",0.289709706,stimuli/card_100_transparent.png,100,7,0,7,0,1,,,,,,,,,,
,,,,66088c59814ba8c63957669b,B,2024-08-16_18h07.32.225,Slot Machine Game,2023.1.3,Win32,147.0588235,,,,,,,,,,,,,,,,,,,,,,,,,,,700,,,,,,,,,,,,,,,,,,7,7,,,520.0387,8,left,0.6205,520.6635,1.5,0.3,"[1,3,2]",0.350562073,stimuli/card_100_transparent.png,100,8,0,8,0,1,,,,,,,,,,
,,,,66088c59814ba8c63957669b,B,2024-08-16_18h07.32.225,Slot Machine Game,2023.1.3,Win32,147.0588235,,,,,,,,,,,,,,,,,,,,,,,,,,,700,,,,,,,,,,,,,,,,,,7,7,,,522.4625,9,left,0.7991,523.2745,1.5,0.3,"[2,3,1]",0.09070599,stimuli/card_0_transparent.png,0,9,0,9,0,1,,,,,,,,,,
,,,,66088c59814ba8c63957669b,B,2024-08-16_18h07.32.225,Slot Machine Game,2023.1.3,Win32,147.0588235,,,,,,,,,,,,,,,,,,,,,,,,,,,710,,,,,,,,,,,,,,,,,,7,7,,,525.0724,10,left,0.5075,525.5868,1,0.3,"[2,3,1]",0.557507267,stimuli/card_10_transparent.png,10,10,0,10,0,1,,,,,,,,,,
,,,,66088c59814ba8c63957669b,B,2024-08-16_18h07.32.225,Slot Machine Game,2023.1.3,Win32,147.0588235,,,,,,,,,,,,,,,,,,,,,,,,,,,710,,,,,,,,,,,,,,,,,,7,7,,,526.8848,11,up,0.6324,527.5303,1.5,0.3,"[2,3,1]",0.487527867,stimuli/card_0_transparent.png,0,11,0,11,0,1,,,,,,,,,,
,,,,66088c59814ba8c63957669b,B,2024-08-16_18h07.32.225,Slot Machine Game,2023.1.3,Win32,147.0588235,,,,,,,,,,,,,,,,,,,,,,,,,,,720,,,,,,,,,,,,,,,,,,7,7,,,529.3291,12,left,1.7571,531.0993,1.5,0.3,"[2,3,1]",0.978099261,stimuli/card_10_transparent.png,10,12,0,12,0,1,,,,,,,,,,
,,,,66088c59814ba8c63957669b,B,2024-08-16_18h07.32.225,Slot Machine Game,2023.1.3,Win32,147.0588235,,,,,,,,,,,,,,,,,,,,,,,,,,,730,,,,,,,,,,,,,,,,,,7,7,,,532.8979,13,right,0.6188,533.5297,1.5,0.3,"[2,3,1]",0.155079487,stimuli/card_10_transparent.png,10,13,0,13,0,1,,,,,,,,,,
,,,,66088c59814ba8c63957669b,B,2024-08-16_18h07.32.225,Slot Machine Game,2023.1.3,Win32,147.0588235,,,,,,,,,,,,,,,,,,,,,,,,,,,730,,,,,,,,,,,,,,,,,,7,7,,,535.328,14,right,0.5417,535.8832,1.5,0.3,"[2,3,1]",0.07245826,stimuli/card_0_transparent.png,0,14,0,14,0,1,,,,,,,,,,
,,,,66088c59814ba8c63957669b,B,2024-08-16_18h07.32.225,Slot Machine Game,2023.1.3,Win32,147.0588235,,,,,,,,,,,,,,,,,,,,,,,,,,,,,,,,,,537.6817,,,,,,,,,,,,,,,,,,,,,,,,,,,,,,,"[1020,660,1230,840,920,750,730]",6,0,6,0,1,,,,
,,,,66088c59814ba8c63957669b,B,2024-08-16_18h07.32.225,Slot Machine Game,2023.1.3,Win32,147.0588235,,,,,,,,,,,,,,,,,,,,,,,,,,,10,,,,,,,,,,,,,,,,,,8,8,"[11,15]","[[2,1,3],[1,2,3]]",542.6885,0,left,0.5295,543.2288,1.5,0.3,"[2,1,3]",0.317682831,stimuli/card_10_transparent.png,10,0,0,0,0,1,,,,,,,,,,
,,,,66088c59814ba8c63957669b,B,2024-08-16_18h07.32.225,Slot Machine Game,2023.1.3,Win32,147.0588235,,,,,,,,,,,,,,,,,,,,,,,,,,,110,,,,,,,,,,,,,,,,,,8,8,,,545.0274,1,up,0.5772,545.6175,0.5,0.3,"[2,1,3]",0.493765238,stimuli/card_100_transparent.png,100,1,0,1,0,1,,,,,,,,,,
,,,,66088c59814ba8c63957669b,B,2024-08-16_18h07.32.225,Slot Machine Game,2023.1.3,Win32,147.0588235,,,,,,,,,,,,,,,,,,,,,,,,,,,210,,,,,,,,,,,,,,,,,,8,8,,,546.4161,2,up,0.5901,547.0198,1,0.3,"[2,1,3]",0.779024226,stimuli/card_100_transparent.png,100,2,0,2,0,1,,,,,,,,,,
,,,,66088c59814ba8c63957669b,B,2024-08-16_18h07.32.225,Slot Machine Game,2023.1.3,Win32,147.0588235,,,,,,,,,,,,,,,,,,,,,,,,,,,310,,,,,,,,,,,,,,,,,,8,8,,,548.3186,3,up,0.6048,548.9363,1.5,0.3,"[2,1,3]",0.98816478,stimuli/card_100_transparent.png,100,3,0,3,0,1,,,,,,,,,,
,,,,66088c59814ba8c63957669b,B,2024-08-16_18h07.32.225,Slot Machine Game,2023.1.3,Win32,147.0588235,,,,,,,,,,,,,,,,,,,,,,,,,,,310,,,,,,,,,,,,,,,,,,8,8,,,550.7344,4,up,0.5945,551.3391,0.5,0.3,"[2,1,3]",0.075469962,stimuli/card_0_transparent.png,0,4,0,4,0,1,,,,,,,,,,
,,,,66088c59814ba8c63957669b,B,2024-08-16_18h07.32.225,Slot Machine Game,2023.1.3,Win32,147.0588235,,,,,,,,,,,,,,,,,,,,,,,,,,,410,,,,,,,,,,,,,,,,,,8,8,,,552.137,5,up,0.6285,552.7756,1.5,0.3,"[2,1,3]",0.393197958,stimuli/card_100_transparent.png,100,5,0,5,0,1,,,,,,,,,,
,,,,66088c59814ba8c63957669b,B,2024-08-16_18h07.32.225,Slot Machine Game,2023.1.3,Win32,147.0588235,,,,,,,,,,,,,,,,,,,,,,,,,,,510,,,,,,,,,,,,,,,,,,8,8,,,554.5742,6,up,0.5934,555.1778,1,0.3,"[2,1,3]",0.278677642,stimuli/card_100_transparent.png,100,6,0,6,0,1,,,,,,,,,,
,,,,66088c59814ba8c63957669b,B,2024-08-16_18h07.32.225,Slot Machine Game,2023.1.3,Win32,147.0588235,,,,,,,,,,,,,,,,,,,,,,,,,,,520,,,,,,,,,,,,,,,,,,8,8,,,556.4766,7,up,0.5732,557.0595,1,0.3,"[2,1,3]",0.167470103,stimuli/card_10_transparent.png,10,7,0,7,0,1,,,,,,,,,,
,,,,66088c59814ba8c63957669b,B,2024-08-16_18h07.32.225,Slot Machine Game,2023.1.3,Win32,147.0588235,,,,,,,,,,,,,,,,,,,,,,,,,,,620,,,,,,,,,,,,,,,,,,8,8,,,558.3582,8,up,0.7082,559.0802,1,0.3,"[2,1,3]",0.449514985,stimuli/card_100_transparent.png,100,8,0,8,0,1,,,,,,,,,,
,,,,66088c59814ba8c63957669b,B,2024-08-16_18h07.32.225,Slot Machine Game,2023.1.3,Win32,147.0588235,,,,,,,,,,,,,,,,,,,,,,,,,,,620,,,,,,,,,,,,,,,,,,8,8,,,560.3786,9,up,0.5353,560.9269,0.5,0.3,"[2,1,3]",0.025850692,stimuli/card_0_transparent.png,0,9,0,9,0,1,,,,,,,,,,
,,,,66088c59814ba8c63957669b,B,2024-08-16_18h07.32.225,Slot Machine Game,2023.1.3,Win32,147.0588235,,,,,,,,,,,,,,,,,,,,,,,,,,,720,,,,,,,,,,,,,,,,,,8,8,,,561.7256,10,up,0.813,562.5516,0.5,0.3,"[2,1,3]",0.924523911,stimuli/card_100_transparent.png,100,10,0,10,0,1,,,,,,,,,,
,,,,66088c59814ba8c63957669b,B,2024-08-16_18h07.32.225,Slot Machine Game,2023.1.3,Win32,147.0588235,,,,,,,,,,,,,,,,,,,,,,,,,,,720,,,,,,,,,,,,,,,,,,8,8,,,563.3501,11,up,0.5447,563.9054,0.5,0.3,"[1,2,3]",0.007967826,stimuli/card_0_transparent.png,0,11,0,11,0,1,,,,,,,,,,
,,,,66088c59814ba8c63957669b,B,2024-08-16_18h07.32.225,Slot Machine Game,2023.1.3,Win32,147.0588235,,,,,,,,,,,,,,,,,,,,,,,,,,,730,,,,,,,,,,,,,,,,,,8,8,,,564.7043,12,up,0.7852,565.5023,1,0.3,"[1,2,3]",0.96156151,stimuli/card_10_transparent.png,10,12,0,12,0,1,,,,,,,,,,
,,,,66088c59814ba8c63957669b,B,2024-08-16_18h07.32.225,Slot Machine Game,2023.1.3,Win32,147.0588235,,,,,,,,,,,,,,,,,,,,,,,,,,,740,,,,,,,,,,,,,,,,,,8,8,,,566.801,13,up,0.6257,567.4398,0.5,0.3,"[1,2,3]",0.358174532,stimuli/card_10_transparent.png,10,13,0,13,0,1,,,,,,,,,,
,,,,66088c59814ba8c63957669b,B,2024-08-16_18h07.32.225,Slot Machine Game,2023.1.3,Win32,147.0588235,,,,,,,,,,,,,,,,,,,,,,,,,,,740,,,,,,,,,,,,,,,,,,8,8,,,568.2383,14,right,0.6331,568.8836,1.5,0.3,"[1,2,3]",0.801953724,stimuli/card_0_transparent.png,0,14,0,14,0,1,,,,,,,,,,
,,,,66088c59814ba8c63957669b,B,2024-08-16_18h07.32.225,Slot Machine Game,2023.1.3,Win32,147.0588235,,,,,,,,,,,,,,,,,,,,,,,,,,,,,,,,,,570.6824,,,,,,,,,,,,,,,,,,,,,,,,,,,,,,,"[1020,660,1230,840,920,750,730,740]",7,0,7,0,1,,,,
,,,,66088c59814ba8c63957669b,B,2024-08-16_18h07.32.225,Slot Machine Game,2023.1.3,Win32,147.0588235,,,,,,,,,,,,,,,,,,,,,,,,,,,0,,,,,,,,,,,,,,,,,,9,9,"[8,15]","[[3,2,1],[3,1,2]]",575.6894,0,left,0.5906,576.2921,1.5,0.3,"[3,2,1]",0.215443745,stimuli/card_0_transparent.png,0,0,0,0,0,1,,,,,,,,,,
,,,,66088c59814ba8c63957669b,B,2024-08-16_18h07.32.225,Slot Machine Game,2023.1.3,Win32,147.0588235,,,,,,,,,,,,,,,,,,,,,,,,,,,100,,,,,,,,,,,,,,,,,,9,9,,,578.0907,1,up,0.6476,578.7497,0.5,0.3,"[3,2,1]",0.167249,stimuli/card_100_transparent.png,100,1,0,1,0,1,,,,,,,,,,
,,,,66088c59814ba8c63957669b,B,2024-08-16_18h07.32.225,Slot Machine Game,2023.1.3,Win32,147.0588235,,,,,,,,,,,,,,,,,,,,,,,,,,,110,,,,,,,,,,,,,,,,,,9,9,,,579.5486,2,up,0.5717,580.1315,1.5,0.3,"[3,2,1]",0.899915394,stimuli/card_10_transparent.png,10,2,0,2,0,1,,,,,,,,,,
,,,,66088c59814ba8c63957669b,B,2024-08-16_18h07.32.225,Slot Machine Game,2023.1.3,Win32,147.0588235,,,,,,,,,,,,,,,,,,,,,,,,,,,110,,,,,,,,,,,,,,,,,,9,9,,,581.9301,3,up,1.1251,583.0683,1,0.3,"[3,2,1]",0.032343915,stimuli/card_0_transparent.png,0,3,0,3,0,1,,,,,,,,,,
,,,,66088c59814ba8c63957669b,B,2024-08-16_18h07.32.225,Slot Machine Game,2023.1.3,Win32,147.0588235,,,,,,,,,,,,,,,,,,,,,,,,,,,120,,,,,,,,,,,,,,,,,,9,9,,,584.3671,4,up,1.0014,585.3804,0.5,0.3,"[3,2,1]",0.275147919,stimuli/card_10_transparent.png,10,4,0,4,0,1,,,,,,,,,,
,,,,66088c59814ba8c63957669b,B,2024-08-16_18h07.32.225,Slot Machine Game,2023.1.3,Win32,147.0588235,,,,,,,,,,,,,,,,,,,,,,,,,,,120,,,,,,,,,,,,,,,,,,9,9,,,586.1791,5,right,0.5451,586.7342,1,0.3,"[3,2,1]",0.045857557,stimuli/card_0_transparent.png,0,5,0,5,0,1,,,,,,,,,,
,,,,66088c59814ba8c63957669b,B,2024-08-16_18h07.32.225,Slot Machine Game,2023.1.3,Win32,147.0588235,,,,,,,,,,,,,,,,,,,,,,,,,,,130,,,,,,,,,,,,,,,,,,9,9,,,588.0329,6,up,0.6323,588.6787,1.5,0.3,"[3,2,1]",0.84464801,stimuli/card_10_transparent.png,10,6,0,6,0,1,,,,,,,,,,
,,,,66088c59814ba8c63957669b,B,2024-08-16_18h07.32.225,Slot Machine Game,2023.1.3,Win32,147.0588235,,,,,,,,,,,,,,,,,,,,,,,,,,,140,,,,,,,,,,,,,,,,,,9,9,,,590.4771,7,left,0.6257,591.1156,0.5,0.3,"[3,2,1]",0.149550637,stimuli/card_10_transparent.png,10,7,0,7,0,1,,,,,,,,,,
,,,,66088c59814ba8c63957669b,B,2024-08-16_18h07.32.225,Slot Machine Game,2023.1.3,Win32,147.0588235,,,,,,,,,,,,,,,,,,,,,,,,,,,140,,,,,,,,,,,,,,,,,,9,9,,,591.9144,8,left,0.6113,592.5388,0.5,0.3,"[3,1,2]",0.984852054,stimuli/card_0_transparent.png,0,8,0,8,0,1,,,,,,,,,,
,,,,66088c59814ba8c63957669b,B,2024-08-16_18h07.32.225,Slot Machine Game,2023.1.3,Win32,147.0588235,,,,,,,,,,,,,,,,,,,,,,,,,,,150,,,,,,,,,,,,,,,,,,9,9,,,593.3374,9,right,0.6461,593.9969,0.5,0.3,"[3,1,2]",0.666309948,stimuli/card_10_transparent.png,10,9,0,9,0,1,,,,,,,,,,
,,,,66088c59814ba8c63957669b,B,2024-08-16_18h07.32.225,Slot Machine Game,2023.1.3,Win32,147.0588235,,,,,,,,,,,,,,,,,,,,,,,,,,,160,,,,,,,,,,,,,,,,,,9,9,,,594.7957,10,right,0.5003,595.3095,1.5,0.3,"[3,1,2]",0.373051782,stimuli/card_10_transparent.png,10,10,0,10,0,1,,,,,,,,,,
,,,,66088c59814ba8c63957669b,B,2024-08-16_18h07.32.225,Slot Machine Game,2023.1.3,Win32,147.0588235,,,,,,,,,,,,,,,,,,,,,,,,,,,260,,,,,,,,,,,,,,,,,,9,9,,,597.1078,11,up,0.5219,597.6422,1.5,0.3,"[3,1,2]",0.870153094,stimuli/card_100_transparent.png,100,11,0,11,0,1,,,,,,,,,,
,,,,66088c59814ba8c63957669b,B,2024-08-16_18h07.32.225,Slot Machine Game,2023.1.3,Win32,147.0588235,,,,,,,,,,,,,,,,,,,,,,,,,,,270,,,,,,,,,,,,,,,,,,9,9,,,599.4404,12,up,0.5785,600.0305,1,0.3,"[3,1,2]",0.170556711,stimuli/card_10_transparent.png,10,12,0,12,0,1,,,,,,,,,,
,,,,66088c59814ba8c63957669b,B,2024-08-16_18h07.32.225,Slot Machine Game,2023.1.3,Win32,147.0588235,,,,,,,,,,,,,,,,,,,,,,,,,,,370,,,,,,,,,,,,,,,,,,9,9,,,601.3292,13,up,0.514,601.8567,0.5,0.3,"[3,1,2]",0.435630022,stimuli/card_100_transparent.png,100,13,0,13,0,1,,,,,,,,,,
,,,,66088c59814ba8c63957669b,B,2024-08-16_18h07.32.225,Slot Machine Game,2023.1.3,Win32,147.0588235,,,,,,,,,,,,,,,,,,,,,,,,,,,470,,,,,,,,,,,,,,,,,,9,9,,,602.6551,14,up,0.5561,603.2244,1,0.3,"[3,1,2]",0.91529204,stimuli/card_100_transparent.png,100,14,0,14,0,1,,,,,,,,,,
,,,,66088c59814ba8c63957669b,B,2024-08-16_18h07.32.225,Slot Machine Game,2023.1.3,Win32,147.0588235,,,,,,,,,,,,,,,,,,,,,,,,,,,,,,,,,,604.5229,,,,,,,,,,,,,,,,,,,,,,,,,,,,,,,"[1020,660,1230,840,920,750,730,740,470]",8,0,8,0,1,,,,
,,,,66088c59814ba8c63957669b,B,2024-08-16_18h07.32.225,Slot Machine Game,2023.1.3,Win32,147.0588235,,,,,,,,,,,,,,,,,,,,,,,,,,,10,,,,,,,,,,,,,,,,,,10,10,"[10,15]","[[3,1,2],[1,3,2]]",609.53,0,left,0.6042,610.1467,1.5,0.3,"[3,1,2]",0.127563139,stimuli/card_10_transparent.png,10,0,0,0,0,1,,,,,,,,,,
,,,,66088c59814ba8c63957669b,B,2024-08-16_18h07.32.225,Slot Machine Game,2023.1.3,Win32,147.0588235,,,,,,,,,,,,,,,,,,,,,,,,,,,20,,,,,,,,,,,,,,,,,,10,10,,,611.9451,1,up,0.5306,612.4863,1,0.3,"[3,1,2]",0.12524088,stimuli/card_10_transparent.png,10,1,0,1,0,1,,,,,,,,,,
,,,,66088c59814ba8c63957669b,B,2024-08-16_18h07.32.225,Slot Machine Game,2023.1.3,Win32,147.0588235,,,,,,,,,,,,,,,,,,,,,,,,,,,30,,,,,,,,,,,,,,,,,,10,10,,,613.7851,2,right,0.5351,614.3333,1,0.3,"[3,1,2]",0.334576486,stimuli/card_10_transparent.png,10,2,0,2,0,1,,,,,,,,,,
,,,,66088c59814ba8c63957669b,B,2024-08-16_18h07.32.225,Slot Machine Game,2023.1.3,Win32,147.0588235,,,,,,,,,,,,,,,,,,,,,,,,,,,30,,,,,,,,,,,,,,,,,,10,10,,,615.632,3,left,0.6058,616.2495,0.5,0.3,"[3,1,2]",0.845176548,stimuli/card_0_transparent.png,0,3,0,3,0,1,,,,,,,,,,
,,,,66088c59814ba8c63957669b,B,2024-08-16_18h07.32.225,Slot Machine Game,2023.1.3,Win32,147.0588235,,,,,,,,,,,,,,,,,,,,,,,,,,,130,,,,,,,,,,,,,,,,,,10,10,,,617.0481,4,up,0.5302,617.5894,0.5,0.3,"[3,1,2]",0.60116342,stimuli/card_100_transparent.png,100,4,0,4,0,1,,,,,,,,,,
,,,,66088c59814ba8c63957669b,B,2024-08-16_18h07.32.225,Slot Machine Game,2023.1.3,Win32,147.0588235,,,,,,,,,,,,,,,,,,,,,,,,,,,230,,,,,,,,,,,,,,,,,,10,10,,,618.3884,5,up,0.7085,619.1101,1.5,0.3,"[3,1,2]",0.662700715,stimuli/card_100_transparent.png,100,5,0,5,0,1,,,,,,,,,,
,,,,66088c59814ba8c63957669b,B,2024-08-16_18h07.32.225,Slot Machine Game,2023.1.3,Win32,147.0588235,,,,,,,,,,,,,,,,,,,,,,,,,,,330,,,,,,,,,,,,,,,,,,10,10,,,620.9084,6,up,0.6394,621.5614,1,0.3,"[3,1,2]",0.368787825,stimuli/card_100_transparent.png,100,6,0,6,0,1,,,,,,,,,,
,,,,66088c59814ba8c63957669b,B,2024-08-16_18h07.32.225,Slot Machine Game,2023.1.3,Win32,147.0588235,,,,,,,,,,,,,,,,,,,,,,,,,,,330,,,,,,,,,,,,,,,,,,10,10,,,622.8598,7,up,0.7257,623.5954,0.5,0.3,"[3,1,2]",0.055450719,stimuli/card_0_transparent.png,0,7,0,7,0,1,,,,,,,,,,
,,,,66088c59814ba8c63957669b,B,2024-08-16_18h07.32.225,Slot Machine Game,2023.1.3,Win32,147.0588235,,,,,,,,,,,,,,,,,,,,,,,,,,,430,,,,,,,,,,,,,,,,,,10,10,,,624.3939,8,up,0.6186,625.0256,1.5,0.3,"[3,1,2]",0.275281781,stimuli/card_100_transparent.png,100,8,0,8,0,1,,,,,,,,,,
,,,,66088c59814ba8c63957669b,B,2024-08-16_18h07.32.225,Slot Machine Game,2023.1.3,Win32,147.0588235,,,,,,,,,,,,,,,,,,,,,,,,,,,530,,,,,,,,,,,,,,,,,,10,10,,,626.8243,9,up,0.674,627.5113,0.5,0.3,"[3,1,2]",0.236718083,stimuli/card_100_transparent.png,100,9,0,9,0,1,,,,,,,,,,
,,,,66088c59814ba8c63957669b,B,2024-08-16_18h07.32.225,Slot Machine Game,2023.1.3,Win32,147.0588235,,,,,,,,,,,,,,,,,,,,,,,,,,,530,,,,,,,,,,,,,,,,,,10,10,,,628.3101,10,up,0.7295,629.053,1,0.3,"[1,3,2]",0.676645406,stimuli/card_0_transparent.png,0,10,0,10,0,1,,,,,,,,,,
,,,,66088c59814ba8c63957669b,B,2024-08-16_18h07.32.225,Slot Machine Game,2023.1.3,Win32,147.0588235,,,,,,,,,,,,,,,,,,,,,,,,,,,530,,,,,,,,,,,,,,,,,,10,10,,,630.3512,11,up,0.7732,631.1355,0.5,0.3,"[1,3,2]",0.541582366,stimuli/card_0_transparent.png,0,11,0,11,0,1,,,,,,,,,,
,,,,66088c59814ba8c63957669b,B,2024-08-16_18h07.32.225,Slot Machine Game,2023.1.3,Win32,147.0588235,,,,,,,,,,,,,,,,,,,,,,,,,,,540,,,,,,,,,,,,,,,,,,10,10,,,631.9343,12,right,0.5313,632.4754,0.5,0.3,"[1,3,2]",0.473185414,stimuli/card_10_transparent.png,10,12,0,12,0,1,,,,,,,,,,
,,,,66088c59814ba8c63957669b,B,2024-08-16_18h07.32.225,Slot Machine Game,2023.1.3,Win32,147.0588235,,,,,,,,,,,,,,,,,,,,,,,,,,,640,,,,,,,,,,,,,,,,,,10,10,,,633.2741,13,left,0.6472,633.9336,0.5,0.3,"[1,3,2]",0.79682227,stimuli/card_100_transparent.png,100,13,0,13,0,1,,,,,,,,,,
,,,,66088c59814ba8c63957669b,B,2024-08-16_18h07.32.225,Slot Machine Game,2023.1.3,Win32,147.0588235,,,,,,,,,,,,,,,,,,,,,,,,,,,650,,,,,,,,,,,,,,,,,,10,10,,,634.7326,14,left,0.5003,635.2459,1,0.3,"[1,3,2]",0.195625382,stimuli/card_10_transparent.png,10,14,0,14,0,1,,,,,,,,,,
,,,,66088c59814ba8c63957669b,B,2024-08-16_18h07.32.225,Slot Machine Game,2023.1.3,Win32,147.0588235,,,,,,,,,,,,,,,,,,,,,,,,,,,,,,,,,,636.5444,,,,,,,,,,,,,,,,,,,,,,,,,,,,,,,"[1020,660,1230,840,920,750,730,740,470,650]",9,0,9,0,1,,,,
,,,,66088c59814ba8c63957669b,B,2024-08-16_18h07.32.225,Slot Machine Game,2023.1.3,Win32,147.0588235,,,,,,,,,,,,,,,,,,,,,,,,,,,,,,,,,,,,,,,,,,,,,,,,,,,,,,,,,,,,,,,,,,,,,,,9,"[1020,660,1230,840,920,750,730,740,470,650]",10.2,2024-08-16_18h18.17.839
