key_resp_welcome_started,key_resp_welcome_keys,key_resp_welcome_rt,key_resp_welcome_duration,prolific_pid,path_id,date,expName,psychopyVersion,OS,frameRate,PROLIFIC_PID,STUDY_ID,SESSION_ID,key_resp_instruction1_started,key_resp_instruction1_keys,key_resp_instruction1_rt,key_resp_instruction1_duration,key_resp_instruction2_started,key_resp_instruction2_keys,key_resp_instruction2_rt,key_resp_instruction2_duration,key_resp_instruction3_started,key_resp_instruction3_keys,key_resp_instruction3_rt,key_resp_instruction3_duration,key_resp_instruction4_started,key_resp_instruction4_keys,key_resp_instruction4_rt,key_resp_instruction4_duration,practiceCondition,practice_reward_seqs,practice_trial_started,practice_trial_num,prac_presentationInterval,practice_reward_seq,practice_trials.thisRepN,practice_trials.thisTrialN,practice_trials.thisN,practice_trials.thisIndex,practice_trials.ran,practice_resp_rt,practice_keypress_time,practice_resp_keys,reward_img,cumulative_reward,trial_reward,block_break_started,practice_end_time,practice_end_keys,practice_end_rt,practice_end_duration,main_instruction_text_started,block_condition,block_order_indices,main_instruction_keys,main_instruction_rt,main_instruction_duration,block_number,block_assignment,current_condition,main_reward_seqs,main_trial_started,main_trial_num,main_trial_keys,main_trial_rt,main_trial_keypress_time,main_presentationInterval,reward_presentation_time,main_reward_seq,reward_rand_val,main_reward_img,current_reward,main_trials.thisRepN,main_trials.thisTrialN,main_trials.thisN,main_trials.thisIndex,main_trials.ran,block_reward,block.thisRepN,block.thisTrialN,block.thisN,block.thisIndex,block.ran,block_reward.length,block_reward_all,reward_amount,date_end_task
0,space,15.593,,5e3e54f69e51f80b67c1cc06,C,2024-10-23_20h59.25.753,Slot Machine Game,2023.1.3,Win32,60.0240096,5e3e54f69e51f80b67c1cc06,67167c13dd87566d3602e731,67199bc52fd7b11fb70346a1,,,,,,,,,,,,,,,,,,,,,,,,,,,,,,,,,,,,,,,,,,,,,,,,,,,,,,,,,,,,,,,,,,,,,,,,,,
,,,,5e3e54f69e51f80b67c1cc06,C,2024-10-23_20h59.25.753,Slot Machine Game,2023.1.3,Win32,60.0240096,5e3e54f69e51f80b67c1cc06,67167c13dd87566d3602e731,67199bc52fd7b11fb70346a1,15.621,space,4.145,,,,,,,,,,,,,,,,,,,,,,,,,,,,,,,,,,,,,,,,,,,,,,,,,,,,,,,,,,,,,,,,,,,,,,,
,,,,5e3e54f69e51f80b67c1cc06,C,2024-10-23_20h59.25.753,Slot Machine Game,2023.1.3,Win32,60.0240096,5e3e54f69e51f80b67c1cc06,67167c13dd87566d3602e731,67199bc52fd7b11fb70346a1,,,,,19.786,space,15.289,,,,,,,,,,,,,,,,,,,,,,,,,,,,,,,,,,,,,,,,,,,,,,,,,,,,,,,,,,,,,,,,,,,
,,,,5e3e54f69e51f80b67c1cc06,C,2024-10-23_20h59.25.753,Slot Machine Game,2023.1.3,Win32,60.0240096,5e3e54f69e51f80b67c1cc06,67167c13dd87566d3602e731,67199bc52fd7b11fb70346a1,,,,,,,,,35.116,space,8.415,,,,,,,,,,,,,,,,,,,,,,,,,,,,,,,,,,,,,,,,,,,,,,,,,,,,,,,,,,,,,,,
,,,,5e3e54f69e51f80b67c1cc06,C,2024-10-23_20h59.25.753,Slot Machine Game,2023.1.3,Win32,60.0240096,5e3e54f69e51f80b67c1cc06,67167c13dd87566d3602e731,67199bc52fd7b11fb70346a1,,,,,,,,,,,,,,,,,,,,,,,,,,,,,,,,,,,,,,,,,,,,,,,,,,,,,,,,,,,,,,,,,,,,,,,,,,
,,,,5e3e54f69e51f80b67c1cc06,C,2024-10-23_20h59.25.753,Slot Machine Game,2023.1.3,Win32,60.0240096,5e3e54f69e51f80b67c1cc06,67167c13dd87566d3602e731,67199bc52fd7b11fb70346a1,,,,,,,,,,,,,185.337,space,19.941,,,,,,,,,,,,,,,,,,,,,,,,,,,,,,,,,,,,,,,,,,,,,,,,,,,,,,,,,,,
,,,,5e3e54f69e51f80b67c1cc06,C,2024-10-23_20h59.25.753,Slot Machine Game,2023.1.3,Win32,60.0240096,5e3e54f69e51f80b67c1cc06,67167c13dd87566d3602e731,67199bc52fd7b11fb70346a1,,,,,,,,,,,,,,,,,"[9,15]","[[2,1,3],[2,3,1]]",205.306,0,1.5,"[2,1,3]",0,0,0,0,1,,,,,,,,,,,,,,,,,,,,,,,,,,,,,,,,,,,,,,,,,,,,,,,
,,,,5e3e54f69e51f80b67c1cc06,C,2024-10-23_20h59.25.753,Slot Machine Game,2023.1.3,Win32,60.0240096,5e3e54f69e51f80b67c1cc06,67167c13dd87566d3602e731,67199bc52fd7b11fb70346a1,,,,,,,,,,,,,,,,,,,210.823,1,1.5,"[2,1,3]",1,0,1,0,1,1.983,212.83,left,stimuli/card_100_transparent.png,100,100,,,,,,,,,,,,,,,,,,,,,,,,,,,,,,,,,,,,,,,,,
,,,,5e3e54f69e51f80b67c1cc06,C,2024-10-23_20h59.25.753,Slot Machine Game,2023.1.3,Win32,60.0240096,5e3e54f69e51f80b67c1cc06,67167c13dd87566d3602e731,67199bc52fd7b11fb70346a1,,,,,,,,,,,,,,,,,,,214.633,2,0.5,"[2,1,3]",2,0,2,0,1,0.835,215.497,left,stimuli/card_10_transparent.png,110,10,,,,,,,,,,,,,,,,,,,,,,,,,,,,,,,,,,,,,,,,,
,,,,5e3e54f69e51f80b67c1cc06,C,2024-10-23_20h59.25.753,Slot Machine Game,2023.1.3,Win32,60.0240096,5e3e54f69e51f80b67c1cc06,67167c13dd87566d3602e731,67199bc52fd7b11fb70346a1,,,,,,,,,,,,,,,,,,,216.297,3,0.5,"[2,1,3]",3,0,3,0,1,1.149,217.48,left,stimuli/card_0_transparent.png,110,0,,,,,,,,,,,,,,,,,,,,,,,,,,,,,,,,,,,,,,,,,
,,,,5e3e54f69e51f80b67c1cc06,C,2024-10-23_20h59.25.753,Slot Machine Game,2023.1.3,Win32,60.0240096,5e3e54f69e51f80b67c1cc06,67167c13dd87566d3602e731,67199bc52fd7b11fb70346a1,,,,,,,,,,,,,,,,,,,218.279,4,0.5,"[2,1,3]",4,0,4,0,1,1.069,219.362,up,stimuli/card_100_transparent.png,210,100,,,,,,,,,,,,,,,,,,,,,,,,,,,,,,,,,,,,,,,,,
,,,,5e3e54f69e51f80b67c1cc06,C,2024-10-23_20h59.25.753,Slot Machine Game,2023.1.3,Win32,60.0240096,5e3e54f69e51f80b67c1cc06,67167c13dd87566d3602e731,67199bc52fd7b11fb70346a1,,,,,,,,,,,,,,,,,,,220.162,5,0.5,"[2,1,3]",5,0,5,0,1,1.038,221.213,up,stimuli/card_100_transparent.png,310,100,,,,,,,,,,,,,,,,,,,,,,,,,,,,,,,,,,,,,,,,,
,,,,5e3e54f69e51f80b67c1cc06,C,2024-10-23_20h59.25.753,Slot Machine Game,2023.1.3,Win32,60.0240096,5e3e54f69e51f80b67c1cc06,67167c13dd87566d3602e731,67199bc52fd7b11fb70346a1,,,,,,,,,,,,,,,,,,,222.012,6,1.5,"[2,1,3]",6,0,6,0,1,0.906,222.928,up,stimuli/card_100_transparent.png,410,100,,,,,,,,,,,,,,,,,,,,,,,,,,,,,,,,,,,,,,,,,
,,,,5e3e54f69e51f80b67c1cc06,C,2024-10-23_20h59.25.753,Slot Machine Game,2023.1.3,Win32,60.0240096,5e3e54f69e51f80b67c1cc06,67167c13dd87566d3602e731,67199bc52fd7b11fb70346a1,,,,,,,,,,,,,,,,,,,224.728,7,0.5,"[2,1,3]",7,0,7,0,1,1.55,226.295,up,stimuli/card_100_transparent.png,510,100,,,,,,,,,,,,,,,,,,,,,,,,,,,,,,,,,,,,,,,,,
,,,,5e3e54f69e51f80b67c1cc06,C,2024-10-23_20h59.25.753,Slot Machine Game,2023.1.3,Win32,60.0240096,5e3e54f69e51f80b67c1cc06,67167c13dd87566d3602e731,67199bc52fd7b11fb70346a1,,,,,,,,,,,,,,,,,,,227.096,8,1,"[2,1,3]",8,0,8,0,1,0.65,227.777,up,stimuli/card_10_transparent.png,520,10,,,,,,,,,,,,,,,,,,,,,,,,,,,,,,,,,,,,,,,,,
,,,,5e3e54f69e51f80b67c1cc06,C,2024-10-23_20h59.25.753,Slot Machine Game,2023.1.3,Win32,60.0240096,5e3e54f69e51f80b67c1cc06,67167c13dd87566d3602e731,67199bc52fd7b11fb70346a1,,,,,,,,,,,,,,,,,,,229.078,9,1.5,"[2,3,1]",9,0,9,0,1,0.983,230.094,up,stimuli/card_100_transparent.png,620,100,,,,,,,,,,,,,,,,,,,,,,,,,,,,,,,,,,,,,,,,,
,,,,5e3e54f69e51f80b67c1cc06,C,2024-10-23_20h59.25.753,Slot Machine Game,2023.1.3,Win32,60.0240096,5e3e54f69e51f80b67c1cc06,67167c13dd87566d3602e731,67199bc52fd7b11fb70346a1,,,,,,,,,,,,,,,,,,,231.894,10,0.5,"[2,3,1]",10,0,10,0,1,0.586,232.493,up,stimuli/card_10_transparent.png,630,10,,,,,,,,,,,,,,,,,,,,,,,,,,,,,,,,,,,,,,,,,
,,,,5e3e54f69e51f80b67c1cc06,C,2024-10-23_20h59.25.753,Slot Machine Game,2023.1.3,Win32,60.0240096,5e3e54f69e51f80b67c1cc06,67167c13dd87566d3602e731,67199bc52fd7b11fb70346a1,,,,,,,,,,,,,,,,,,,233.293,11,1.5,"[2,3,1]",11,0,11,0,1,1.087,234.393,up,stimuli/card_0_transparent.png,630,0,,,,,,,,,,,,,,,,,,,,,,,,,,,,,,,,,,,,,,,,,
,,,,5e3e54f69e51f80b67c1cc06,C,2024-10-23_20h59.25.753,Slot Machine Game,2023.1.3,Win32,60.0240096,5e3e54f69e51f80b67c1cc06,67167c13dd87566d3602e731,67199bc52fd7b11fb70346a1,,,,,,,,,,,,,,,,,,,236.193,12,1,"[2,3,1]",12,0,12,0,1,1.201,237.425,up,stimuli/card_0_transparent.png,630,0,,,,,,,,,,,,,,,,,,,,,,,,,,,,,,,,,,,,,,,,,
,,,,5e3e54f69e51f80b67c1cc06,C,2024-10-23_20h59.25.753,Slot Machine Game,2023.1.3,Win32,60.0240096,5e3e54f69e51f80b67c1cc06,67167c13dd87566d3602e731,67199bc52fd7b11fb70346a1,,,,,,,,,,,,,,,,,,,238.726,13,0.5,"[2,3,1]",13,0,13,0,1,1.001,239.758,right,stimuli/card_100_transparent.png,730,100,,,,,,,,,,,,,,,,,,,,,,,,,,,,,,,,,,,,,,,,,
,,,,5e3e54f69e51f80b67c1cc06,C,2024-10-23_20h59.25.753,Slot Machine Game,2023.1.3,Win32,60.0240096,5e3e54f69e51f80b67c1cc06,67167c13dd87566d3602e731,67199bc52fd7b11fb70346a1,,,,,,,,,,,,,,,,,,,240.558,14,1,"[2,3,1]",14,0,14,0,1,0.921,241.492,right,stimuli/card_100_transparent.png,830,100,,,,,,,,,,,,,,,,,,,,,,,,,,,,,,,,,,,,,,,,,
,,,,5e3e54f69e51f80b67c1cc06,C,2024-10-23_20h59.25.753,Slot Machine Game,2023.1.3,Win32,60.0240096,5e3e54f69e51f80b67c1cc06,67167c13dd87566d3602e731,67199bc52fd7b11fb70346a1,,,,,,,,,,,,,,,,,"[6,15]","[[1,3,2],[3,1,2]]",247.794,0,0.5,"[1,3,2]",0,0,0,0,1,1.325,249.14,left,stimuli/card_100_transparent.png,100,100,242.792,,,,,,,,,,,,,,,,,,,,,,,,,,,,,,,,,,,,,,,,
,,,,5e3e54f69e51f80b67c1cc06,C,2024-10-23_20h59.25.753,Slot Machine Game,2023.1.3,Win32,60.0240096,5e3e54f69e51f80b67c1cc06,67167c13dd87566d3602e731,67199bc52fd7b11fb70346a1,,,,,,,,,,,,,,,,,,,249.94,1,1.5,"[1,3,2]",1,0,1,0,1,0.75,250.706,left,stimuli/card_10_transparent.png,110,10,,,,,,,,,,,,,,,,,,,,,,,,,,,,,,,,,,,,,,,,,
,,,,5e3e54f69e51f80b67c1cc06,C,2024-10-23_20h59.25.753,Slot Machine Game,2023.1.3,Win32,60.0240096,5e3e54f69e51f80b67c1cc06,67167c13dd87566d3602e731,67199bc52fd7b11fb70346a1,,,,,,,,,,,,,,,,,,,252.506,2,1,"[1,3,2]",2,0,2,0,1,0.809,253.323,left,stimuli/card_100_transparent.png,210,100,,,,,,,,,,,,,,,,,,,,,,,,,,,,,,,,,,,,,,,,,
,,,,5e3e54f69e51f80b67c1cc06,C,2024-10-23_20h59.25.753,Slot Machine Game,2023.1.3,Win32,60.0240096,5e3e54f69e51f80b67c1cc06,67167c13dd87566d3602e731,67199bc52fd7b11fb70346a1,,,,,,,,,,,,,,,,,,,254.623,3,0.5,"[1,3,2]",3,0,3,0,1,0.704,255.356,left,stimuli/card_100_transparent.png,310,100,,,,,,,,,,,,,,,,,,,,,,,,,,,,,,,,,,,,,,,,,
,,,,5e3e54f69e51f80b67c1cc06,C,2024-10-23_20h59.25.753,Slot Machine Game,2023.1.3,Win32,60.0240096,5e3e54f69e51f80b67c1cc06,67167c13dd87566d3602e731,67199bc52fd7b11fb70346a1,,,,,,,,,,,,,,,,,,,256.155,4,1.5,"[1,3,2]",4,0,4,0,1,1.06,257.221,left,stimuli/card_100_transparent.png,410,100,,,,,,,,,,,,,,,,,,,,,,,,,,,,,,,,,,,,,,,,,
,,,,5e3e54f69e51f80b67c1cc06,C,2024-10-23_20h59.25.753,Slot Machine Game,2023.1.3,Win32,60.0240096,5e3e54f69e51f80b67c1cc06,67167c13dd87566d3602e731,67199bc52fd7b11fb70346a1,,,,,,,,,,,,,,,,,,,259.022,5,0.5,"[1,3,2]",5,0,5,0,1,0.917,259.971,left,stimuli/card_100_transparent.png,510,100,,,,,,,,,,,,,,,,,,,,,,,,,,,,,,,,,,,,,,,,,
,,,,5e3e54f69e51f80b67c1cc06,C,2024-10-23_20h59.25.753,Slot Machine Game,2023.1.3,Win32,60.0240096,5e3e54f69e51f80b67c1cc06,67167c13dd87566d3602e731,67199bc52fd7b11fb70346a1,,,,,,,,,,,,,,,,,,,260.772,6,0.5,"[3,1,2]",6,0,6,0,1,0.816,261.621,left,stimuli/card_0_transparent.png,510,0,,,,,,,,,,,,,,,,,,,,,,,,,,,,,,,,,,,,,,,,,
,,,,5e3e54f69e51f80b67c1cc06,C,2024-10-23_20h59.25.753,Slot Machine Game,2023.1.3,Win32,60.0240096,5e3e54f69e51f80b67c1cc06,67167c13dd87566d3602e731,67199bc52fd7b11fb70346a1,,,,,,,,,,,,,,,,,,,262.421,7,1,"[3,1,2]",7,0,7,0,1,1.3,263.754,left,stimuli/card_0_transparent.png,510,0,,,,,,,,,,,,,,,,,,,,,,,,,,,,,,,,,,,,,,,,,
,,,,5e3e54f69e51f80b67c1cc06,C,2024-10-23_20h59.25.753,Slot Machine Game,2023.1.3,Win32,60.0240096,5e3e54f69e51f80b67c1cc06,67167c13dd87566d3602e731,67199bc52fd7b11fb70346a1,,,,,,,,,,,,,,,,,,,265.053,8,0.5,"[3,1,2]",8,0,8,0,1,1.268,266.337,up,stimuli/card_100_transparent.png,610,100,,,,,,,,,,,,,,,,,,,,,,,,,,,,,,,,,,,,,,,,,
,,,,5e3e54f69e51f80b67c1cc06,C,2024-10-23_20h59.25.753,Slot Machine Game,2023.1.3,Win32,60.0240096,5e3e54f69e51f80b67c1cc06,67167c13dd87566d3602e731,67199bc52fd7b11fb70346a1,,,,,,,,,,,,,,,,,,,267.137,9,1,"[3,1,2]",9,0,9,0,1,0.875,268.036,up,stimuli/card_0_transparent.png,610,0,,,,,,,,,,,,,,,,,,,,,,,,,,,,,,,,,,,,,,,,,
,,,,5e3e54f69e51f80b67c1cc06,C,2024-10-23_20h59.25.753,Slot Machine Game,2023.1.3,Win32,60.0240096,5e3e54f69e51f80b67c1cc06,67167c13dd87566d3602e731,67199bc52fd7b11fb70346a1,,,,,,,,,,,,,,,,,,,269.337,10,1.5,"[3,1,2]",10,0,10,0,1,1.234,270.602,up,stimuli/card_100_transparent.png,710,100,,,,,,,,,,,,,,,,,,,,,,,,,,,,,,,,,,,,,,,,,
,,,,5e3e54f69e51f80b67c1cc06,C,2024-10-23_20h59.25.753,Slot Machine Game,2023.1.3,Win32,60.0240096,5e3e54f69e51f80b67c1cc06,67167c13dd87566d3602e731,67199bc52fd7b11fb70346a1,,,,,,,,,,,,,,,,,,,272.402,11,1.5,"[3,1,2]",11,0,11,0,1,1.059,273.485,up,stimuli/card_100_transparent.png,810,100,,,,,,,,,,,,,,,,,,,,,,,,,,,,,,,,,,,,,,,,,
,,,,5e3e54f69e51f80b67c1cc06,C,2024-10-23_20h59.25.753,Slot Machine Game,2023.1.3,Win32,60.0240096,5e3e54f69e51f80b67c1cc06,67167c13dd87566d3602e731,67199bc52fd7b11fb70346a1,,,,,,,,,,,,,,,,,,,275.285,12,0.5,"[3,1,2]",12,0,12,0,1,0.574,275.867,up,stimuli/card_100_transparent.png,910,100,,,,,,,,,,,,,,,,,,,,,,,,,,,,,,,,,,,,,,,,,
,,,,5e3e54f69e51f80b67c1cc06,C,2024-10-23_20h59.25.753,Slot Machine Game,2023.1.3,Win32,60.0240096,5e3e54f69e51f80b67c1cc06,67167c13dd87566d3602e731,67199bc52fd7b11fb70346a1,,,,,,,,,,,,,,,,,,,276.668,13,1,"[3,1,2]",13,0,13,0,1,1.853,278.534,up,stimuli/card_100_transparent.png,1010,100,,,,,,,,,,,,,,,,,,,,,,,,,,,,,,,,,,,,,,,,,
,,,,5e3e54f69e51f80b67c1cc06,C,2024-10-23_20h59.25.753,Slot Machine Game,2023.1.3,Win32,60.0240096,5e3e54f69e51f80b67c1cc06,67167c13dd87566d3602e731,67199bc52fd7b11fb70346a1,,,,,,,,,,,,,,,,,,,279.834,14,1.5,"[3,1,2]",14,0,14,0,1,0.527,280.368,up,stimuli/card_10_transparent.png,1020,10,,,,,,,,,,,,,,,,,,,,,,,,,,,,,,,,,,,,,,,,,
,,,,5e3e54f69e51f80b67c1cc06,C,2024-10-23_20h59.25.753,Slot Machine Game,2023.1.3,Win32,60.0240096,5e3e54f69e51f80b67c1cc06,67167c13dd87566d3602e731,67199bc52fd7b11fb70346a1,,,,,,,,,,,,,,,,,,,,,,,,,,,,,,,,,,282.167,287.166,space,2.014,,,,,,,,,,,,,,,,,,,,,,,,,,,,,,,,,,,,,
,,,,5e3e54f69e51f80b67c1cc06,C,2024-10-23_20h59.25.753,Slot Machine Game,2023.1.3,Win32,60.0240096,5e3e54f69e51f80b67c1cc06,67167c13dd87566d3602e731,67199bc52fd7b11fb70346a1,,,,,,,,,,,,,,,,,,,,,,,,,,,,,,,,,,,,,,,289.2,3,"[0,4,6,3,5,7,8,1,9,2]",space,7.031,,,,,,,,,,,,,,,,,,,,,,,,,,,,,,,
,,,,5e3e54f69e51f80b67c1cc06,C,2024-10-23_20h59.25.753,Slot Machine Game,2023.1.3,Win32,60.0240096,5e3e54f69e51f80b67c1cc06,67167c13dd87566d3602e731,67199bc52fd7b11fb70346a1,,,,,,,,,,,,,,,,,,,,,,,,,,,,,,,,10,,,,,,,,,,,,,1,1,"[12,15]","[[2,1,3],[2,3,1]]",296.254,0,left,1.234,297.514,1,0.3,"[2,1,3]",0.783078829,stimuli/card_10_transparent.png,10,0,0,0,0,1,,,,,,,,,,
,,,,5e3e54f69e51f80b67c1cc06,C,2024-10-23_20h59.25.753,Slot Machine Game,2023.1.3,Win32,60.0240096,5e3e54f69e51f80b67c1cc06,67167c13dd87566d3602e731,67199bc52fd7b11fb70346a1,,,,,,,,,,,,,,,,,,,,,,,,,,,,,,,,10,,,,,,,,,,,,,1,1,,,298.814,1,left,0.834,299.68,1,0.3,"[2,1,3]",0.058038165,stimuli/card_0_transparent.png,0,1,0,1,0,1,,,,,,,,,,
,,,,5e3e54f69e51f80b67c1cc06,C,2024-10-23_20h59.25.753,Slot Machine Game,2023.1.3,Win32,60.0240096,5e3e54f69e51f80b67c1cc06,67167c13dd87566d3602e731,67199bc52fd7b11fb70346a1,,,,,,,,,,,,,,,,,,,,,,,,,,,,,,,,110,,,,,,,,,,,,,1,1,,,300.98,2,up,1.334,302.33,1.5,0.3,"[2,1,3]",0.78080927,stimuli/card_100_transparent.png,100,2,0,2,0,1,,,,,,,,,,
,,,,5e3e54f69e51f80b67c1cc06,C,2024-10-23_20h59.25.753,Slot Machine Game,2023.1.3,Win32,60.0240096,5e3e54f69e51f80b67c1cc06,67167c13dd87566d3602e731,67199bc52fd7b11fb70346a1,,,,,,,,,,,,,,,,,,,,,,,,,,,,,,,,210,,,,,,,,,,,,,1,1,,,304.13,3,up,1.051,305.214,0.5,0.3,"[2,1,3]",0.940754965,stimuli/card_100_transparent.png,100,3,0,3,0,1,,,,,,,,,,
,,,,5e3e54f69e51f80b67c1cc06,C,2024-10-23_20h59.25.753,Slot Machine Game,2023.1.3,Win32,60.0240096,5e3e54f69e51f80b67c1cc06,67167c13dd87566d3602e731,67199bc52fd7b11fb70346a1,,,,,,,,,,,,,,,,,,,,,,,,,,,,,,,,310,,,,,,,,,,,,,1,1,,,306.012,4,up,1.139,307.162,0.5,0.3,"[2,1,3]",0.316564078,stimuli/card_100_transparent.png,100,4,0,4,0,1,,,,,,,,,,
,,,,5e3e54f69e51f80b67c1cc06,C,2024-10-23_20h59.25.753,Slot Machine Game,2023.1.3,Win32,60.0240096,5e3e54f69e51f80b67c1cc06,67167c13dd87566d3602e731,67199bc52fd7b11fb70346a1,,,,,,,,,,,,,,,,,,,,,,,,,,,,,,,,410,,,,,,,,,,,,,1,1,,,307.962,5,up,0.843,308.812,1,0.3,"[2,1,3]",0.462010644,stimuli/card_100_transparent.png,100,5,0,5,0,1,,,,,,,,,,
,,,,5e3e54f69e51f80b67c1cc06,C,2024-10-23_20h59.25.753,Slot Machine Game,2023.1.3,Win32,60.0240096,5e3e54f69e51f80b67c1cc06,67167c13dd87566d3602e731,67199bc52fd7b11fb70346a1,,,,,,,,,,,,,,,,,,,,,,,,,,,,,,,,510,,,,,,,,,,,,,1,1,,,310.112,6,up,0.616,310.764,0.5,0.3,"[2,1,3]",0.910587721,stimuli/card_100_transparent.png,100,6,0,6,0,1,,,,,,,,,,
,,,,5e3e54f69e51f80b67c1cc06,C,2024-10-23_20h59.25.753,Slot Machine Game,2023.1.3,Win32,60.0240096,5e3e54f69e51f80b67c1cc06,67167c13dd87566d3602e731,67199bc52fd7b11fb70346a1,,,,,,,,,,,,,,,,,,,,,,,,,,,,,,,,610,,,,,,,,,,,,,1,1,,,311.561,7,up,0.822,312.394,1,0.3,"[2,1,3]",0.306604999,stimuli/card_100_transparent.png,100,7,0,7,0,1,,,,,,,,,,
,,,,5e3e54f69e51f80b67c1cc06,C,2024-10-23_20h59.25.753,Slot Machine Game,2023.1.3,Win32,60.0240096,5e3e54f69e51f80b67c1cc06,67167c13dd87566d3602e731,67199bc52fd7b11fb70346a1,,,,,,,,,,,,,,,,,,,,,,,,,,,,,,,,710,,,,,,,,,,,,,1,1,,,313.694,8,up,0.533,314.26,0.5,0.3,"[2,1,3]",0.777632456,stimuli/card_100_transparent.png,100,8,0,8,0,1,,,,,,,,,,
,,,,5e3e54f69e51f80b67c1cc06,C,2024-10-23_20h59.25.753,Slot Machine Game,2023.1.3,Win32,60.0240096,5e3e54f69e51f80b67c1cc06,67167c13dd87566d3602e731,67199bc52fd7b11fb70346a1,,,,,,,,,,,,,,,,,,,,,,,,,,,,,,,,810,,,,,,,,,,,,,1,1,,,315.06,9,up,0.699,315.776,1.5,0.3,"[2,1,3]",0.437346904,stimuli/card_100_transparent.png,100,9,0,9,0,1,,,,,,,,,,
,,,,5e3e54f69e51f80b67c1cc06,C,2024-10-23_20h59.25.753,Slot Machine Game,2023.1.3,Win32,60.0240096,5e3e54f69e51f80b67c1cc06,67167c13dd87566d3602e731,67199bc52fd7b11fb70346a1,,,,,,,,,,,,,,,,,,,,,,,,,,,,,,,,910,,,,,,,,,,,,,1,1,,,317.576,10,up,2.507,320.094,0.5,0.3,"[2,1,3]",0.419512049,stimuli/card_100_transparent.png,100,10,0,10,0,1,,,,,,,,,,
,,,,5e3e54f69e51f80b67c1cc06,C,2024-10-23_20h59.25.753,Slot Machine Game,2023.1.3,Win32,60.0240096,5e3e54f69e51f80b67c1cc06,67167c13dd87566d3602e731,67199bc52fd7b11fb70346a1,,,,,,,,,,,,,,,,,,,,,,,,,,,,,,,,1010,,,,,,,,,,,,,1,1,,,320.893,11,up,1.05,321.976,0.5,0.3,"[2,1,3]",0.75110217,stimuli/card_100_transparent.png,100,11,0,11,0,1,,,,,,,,,,
,,,,5e3e54f69e51f80b67c1cc06,C,2024-10-23_20h59.25.753,Slot Machine Game,2023.1.3,Win32,60.0240096,5e3e54f69e51f80b67c1cc06,67167c13dd87566d3602e731,67199bc52fd7b11fb70346a1,,,,,,,,,,,,,,,,,,,,,,,,,,,,,,,,1010,,,,,,,,,,,,,1,1,,,322.776,12,up,0.94,323.742,1.5,0.3,"[2,3,1]",0.59007788,stimuli/card_0_transparent.png,0,12,0,12,0,1,,,,,,,,,,
,,,,5e3e54f69e51f80b67c1cc06,C,2024-10-23_20h59.25.753,Slot Machine Game,2023.1.3,Win32,60.0240096,5e3e54f69e51f80b67c1cc06,67167c13dd87566d3602e731,67199bc52fd7b11fb70346a1,,,,,,,,,,,,,,,,,,,,,,,,,,,,,,,,1010,,,,,,,,,,,,,1,1,,,325.542,13,up,1.057,326.641,1.5,0.3,"[2,3,1]",0.225719769,stimuli/card_0_transparent.png,0,13,0,13,0,1,,,,,,,,,,
,,,,5e3e54f69e51f80b67c1cc06,C,2024-10-23_20h59.25.753,Slot Machine Game,2023.1.3,Win32,60.0240096,5e3e54f69e51f80b67c1cc06,67167c13dd87566d3602e731,67199bc52fd7b11fb70346a1,,,,,,,,,,,,,,,,,,,,,,,,,,,,,,,,1110,,,,,,,,,,,,,1,1,,,328.442,14,right,1.008,329.474,1,0.3,"[2,3,1]",0.744555797,stimuli/card_100_transparent.png,100,14,0,14,0,1,,,,,,,,,,
,,,,5e3e54f69e51f80b67c1cc06,C,2024-10-23_20h59.25.753,Slot Machine Game,2023.1.3,Win32,60.0240096,5e3e54f69e51f80b67c1cc06,67167c13dd87566d3602e731,67199bc52fd7b11fb70346a1,,,,,,,,,,,,,,,,,,,,,,,,,,,,,,,,,,330.775,,,,,,,,,,,,,,,,,,,,,,,,,,,,,,,[1110],0,0,0,0,1,,,,
,,,,5e3e54f69e51f80b67c1cc06,C,2024-10-23_20h59.25.753,Slot Machine Game,2023.1.3,Win32,60.0240096,5e3e54f69e51f80b67c1cc06,67167c13dd87566d3602e731,67199bc52fd7b11fb70346a1,,,,,,,,,,,,,,,,,,,,,,,,,,,,,,,,100,,,,,,,,,,,,,2,5,"[5,15]","[[1,2,3],[3,1,2]]",335.776,0,left,1.484,337.29,0.5,0.3,"[1,2,3]",0.578643943,stimuli/card_100_transparent.png,100,0,0,0,0,1,,,,,,,,,,
,,,,5e3e54f69e51f80b67c1cc06,C,2024-10-23_20h59.25.753,Slot Machine Game,2023.1.3,Win32,60.0240096,5e3e54f69e51f80b67c1cc06,67167c13dd87566d3602e731,67199bc52fd7b11fb70346a1,,,,,,,,,,,,,,,,,,,,,,,,,,,,,,,,200,,,,,,,,,,,,,2,5,,,338.09,1,left,0.633,338.739,1.5,0.3,"[1,2,3]",0.589212314,stimuli/card_100_transparent.png,100,1,0,1,0,1,,,,,,,,,,
,,,,5e3e54f69e51f80b67c1cc06,C,2024-10-23_20h59.25.753,Slot Machine Game,2023.1.3,Win32,60.0240096,5e3e54f69e51f80b67c1cc06,67167c13dd87566d3602e731,67199bc52fd7b11fb70346a1,,,,,,,,,,,,,,,,,,,,,,,,,,,,,,,,210,,,,,,,,,,,,,2,5,,,340.539,2,left,0.569,341.139,0.5,0.3,"[1,2,3]",0.115422515,stimuli/card_10_transparent.png,10,2,0,2,0,1,,,,,,,,,,
,,,,5e3e54f69e51f80b67c1cc06,C,2024-10-23_20h59.25.753,Slot Machine Game,2023.1.3,Win32,60.0240096,5e3e54f69e51f80b67c1cc06,67167c13dd87566d3602e731,67199bc52fd7b11fb70346a1,,,,,,,,,,,,,,,,,,,,,,,,,,,,,,,,310,,,,,,,,,,,,,2,5,,,341.939,3,left,0.721,342.691,1.5,0.3,"[1,2,3]",0.915747971,stimuli/card_100_transparent.png,100,3,0,3,0,1,,,,,,,,,,
,,,,5e3e54f69e51f80b67c1cc06,C,2024-10-23_20h59.25.753,Slot Machine Game,2023.1.3,Win32,60.0240096,5e3e54f69e51f80b67c1cc06,67167c13dd87566d3602e731,67199bc52fd7b11fb70346a1,,,,,,,,,,,,,,,,,,,,,,,,,,,,,,,,410,,,,,,,,,,,,,2,5,,,344.488,4,left,0.567,345.071,0.5,0.3,"[1,2,3]",0.934658817,stimuli/card_100_transparent.png,100,4,0,4,0,1,,,,,,,,,,
,,,,5e3e54f69e51f80b67c1cc06,C,2024-10-23_20h59.25.753,Slot Machine Game,2023.1.3,Win32,60.0240096,5e3e54f69e51f80b67c1cc06,67167c13dd87566d3602e731,67199bc52fd7b11fb70346a1,,,,,,,,,,,,,,,,,,,,,,,,,,,,,,,,410,,,,,,,,,,,,,2,5,,,345.871,5,left,0.634,346.521,0.5,0.3,"[3,1,2]",0.584312864,stimuli/card_0_transparent.png,0,5,0,5,0,1,,,,,,,,,,
,,,,5e3e54f69e51f80b67c1cc06,C,2024-10-23_20h59.25.753,Slot Machine Game,2023.1.3,Win32,60.0240096,5e3e54f69e51f80b67c1cc06,67167c13dd87566d3602e731,67199bc52fd7b11fb70346a1,,,,,,,,,,,,,,,,,,,,,,,,,,,,,,,,410,,,,,,,,,,,,,2,5,,,347.321,6,left,0.823,348.171,1.5,0.3,"[3,1,2]",0.691103516,stimuli/card_0_transparent.png,0,6,0,6,0,1,,,,,,,,,,
,,,,5e3e54f69e51f80b67c1cc06,C,2024-10-23_20h59.25.753,Slot Machine Game,2023.1.3,Win32,60.0240096,5e3e54f69e51f80b67c1cc06,67167c13dd87566d3602e731,67199bc52fd7b11fb70346a1,,,,,,,,,,,,,,,,,,,,,,,,,,,,,,,,420,,,,,,,,,,,,,2,5,,,349.971,7,right,0.706,350.703,1.5,0.3,"[3,1,2]",0.727544943,stimuli/card_10_transparent.png,10,7,0,7,0,1,,,,,,,,,,
,,,,5e3e54f69e51f80b67c1cc06,C,2024-10-23_20h59.25.753,Slot Machine Game,2023.1.3,Win32,60.0240096,5e3e54f69e51f80b67c1cc06,67167c13dd87566d3602e731,67199bc52fd7b11fb70346a1,,,,,,,,,,,,,,,,,,,,,,,,,,,,,,,,430,,,,,,,,,,,,,2,5,,,352.503,8,right,0.869,353.386,1.5,0.3,"[3,1,2]",0.285807243,stimuli/card_10_transparent.png,10,8,0,8,0,1,,,,,,,,,,
,,,,5e3e54f69e51f80b67c1cc06,C,2024-10-23_20h59.25.753,Slot Machine Game,2023.1.3,Win32,60.0240096,5e3e54f69e51f80b67c1cc06,67167c13dd87566d3602e731,67199bc52fd7b11fb70346a1,,,,,,,,,,,,,,,,,,,,,,,,,,,,,,,,530,,,,,,,,,,,,,2,5,,,355.186,9,up,0.508,355.719,0.5,0.3,"[3,1,2]",0.718813662,stimuli/card_100_transparent.png,100,9,0,9,0,1,,,,,,,,,,
,,,,5e3e54f69e51f80b67c1cc06,C,2024-10-23_20h59.25.753,Slot Machine Game,2023.1.3,Win32,60.0240096,5e3e54f69e51f80b67c1cc06,67167c13dd87566d3602e731,67199bc52fd7b11fb70346a1,,,,,,,,,,,,,,,,,,,,,,,,,,,,,,,,630,,,,,,,,,,,,,2,5,,,356.519,10,up,0.672,357.202,1,0.3,"[3,1,2]",0.745758871,stimuli/card_100_transparent.png,100,10,0,10,0,1,,,,,,,,,,
,,,,5e3e54f69e51f80b67c1cc06,C,2024-10-23_20h59.25.753,Slot Machine Game,2023.1.3,Win32,60.0240096,5e3e54f69e51f80b67c1cc06,67167c13dd87566d3602e731,67199bc52fd7b11fb70346a1,,,,,,,,,,,,,,,,,,,,,,,,,,,,,,,,730,,,,,,,,,,,,,2,5,,,358.502,11,up,4.305,362.834,1,0.3,"[3,1,2]",0.836536086,stimuli/card_100_transparent.png,100,11,0,11,0,1,,,,,,,,,,
,,,,5e3e54f69e51f80b67c1cc06,C,2024-10-23_20h59.25.753,Slot Machine Game,2023.1.3,Win32,60.0240096,5e3e54f69e51f80b67c1cc06,67167c13dd87566d3602e731,67199bc52fd7b11fb70346a1,,,,,,,,,,,,,,,,,,,,,,,,,,,,,,,,740,,,,,,,,,,,,,2,5,,,364.135,12,up,0.522,364.684,1,0.3,"[3,1,2]",0.190633518,stimuli/card_10_transparent.png,10,12,0,12,0,1,,,,,,,,,,
,,,,5e3e54f69e51f80b67c1cc06,C,2024-10-23_20h59.25.753,Slot Machine Game,2023.1.3,Win32,60.0240096,5e3e54f69e51f80b67c1cc06,67167c13dd87566d3602e731,67199bc52fd7b11fb70346a1,,,,,,,,,,,,,,,,,,,,,,,,,,,,,,,,840,,,,,,,,,,,,,2,5,,,365.984,13,up,0.586,366.601,0.5,0.3,"[3,1,2]",0.785674061,stimuli/card_100_transparent.png,100,13,0,13,0,1,,,,,,,,,,
,,,,5e3e54f69e51f80b67c1cc06,C,2024-10-23_20h59.25.753,Slot Machine Game,2023.1.3,Win32,60.0240096,5e3e54f69e51f80b67c1cc06,67167c13dd87566d3602e731,67199bc52fd7b11fb70346a1,,,,,,,,,,,,,,,,,,,,,,,,,,,,,,,,940,,,,,,,,,,,,,2,5,,,367.401,14,up,0.519,367.933,1.5,0.3,"[3,1,2]",0.810761351,stimuli/card_100_transparent.png,100,14,0,14,0,1,,,,,,,,,,
,,,,5e3e54f69e51f80b67c1cc06,C,2024-10-23_20h59.25.753,Slot Machine Game,2023.1.3,Win32,60.0240096,5e3e54f69e51f80b67c1cc06,67167c13dd87566d3602e731,67199bc52fd7b11fb70346a1,,,,,,,,,,,,,,,,,,,,,,,,,,,,,,,,,,369.733,,,,,,,,,,,,,,,,,,,,,,,,,,,,,,,"[1110,940]",1,0,1,0,1,,,,
,,,,5e3e54f69e51f80b67c1cc06,C,2024-10-23_20h59.25.753,Slot Machine Game,2023.1.3,Win32,60.0240096,5e3e54f69e51f80b67c1cc06,67167c13dd87566d3602e731,67199bc52fd7b11fb70346a1,,,,,,,,,,,,,,,,,,,,,,,,,,,,,,,,0,,,,,,,,,,,,,3,7,"[9,15]","[[1,3,2],[2,3,1]]",374.736,0,up,1.102,375.865,1,0.3,"[1,3,2]",0.547633182,stimuli/card_0_transparent.png,0,0,0,0,0,1,,,,,,,,,,
,,,,5e3e54f69e51f80b67c1cc06,C,2024-10-23_20h59.25.753,Slot Machine Game,2023.1.3,Win32,60.0240096,5e3e54f69e51f80b67c1cc06,67167c13dd87566d3602e731,67199bc52fd7b11fb70346a1,,,,,,,,,,,,,,,,,,,,,,,,,,,,,,,,100,,,,,,,,,,,,,3,7,,,377.166,1,left,2.004,379.198,1,0.3,"[1,3,2]",0.709958967,stimuli/card_100_transparent.png,100,1,0,1,0,1,,,,,,,,,,
,,,,5e3e54f69e51f80b67c1cc06,C,2024-10-23_20h59.25.753,Slot Machine Game,2023.1.3,Win32,60.0240096,5e3e54f69e51f80b67c1cc06,67167c13dd87566d3602e731,67199bc52fd7b11fb70346a1,,,,,,,,,,,,,,,,,,,,,,,,,,,,,,,,110,,,,,,,,,,,,,3,7,,,380.498,2,left,0.785,381.297,1,0.3,"[1,3,2]",0.171188141,stimuli/card_10_transparent.png,10,2,0,2,0,1,,,,,,,,,,
,,,,5e3e54f69e51f80b67c1cc06,C,2024-10-23_20h59.25.753,Slot Machine Game,2023.1.3,Win32,60.0240096,5e3e54f69e51f80b67c1cc06,67167c13dd87566d3602e731,67199bc52fd7b11fb70346a1,,,,,,,,,,,,,,,,,,,,,,,,,,,,,,,,210,,,,,,,,,,,,,3,7,,,382.597,3,left,0.918,383.547,1.5,0.3,"[1,3,2]",0.720911797,stimuli/card_100_transparent.png,100,3,0,3,0,1,,,,,,,,,,
,,,,5e3e54f69e51f80b67c1cc06,C,2024-10-23_20h59.25.753,Slot Machine Game,2023.1.3,Win32,60.0240096,5e3e54f69e51f80b67c1cc06,67167c13dd87566d3602e731,67199bc52fd7b11fb70346a1,,,,,,,,,,,,,,,,,,,,,,,,,,,,,,,,310,,,,,,,,,,,,,3,7,,,385.347,4,left,0.984,386.346,1,0.3,"[1,3,2]",0.310128808,stimuli/card_100_transparent.png,100,4,0,4,0,1,,,,,,,,,,
,,,,5e3e54f69e51f80b67c1cc06,C,2024-10-23_20h59.25.753,Slot Machine Game,2023.1.3,Win32,60.0240096,5e3e54f69e51f80b67c1cc06,67167c13dd87566d3602e731,67199bc52fd7b11fb70346a1,,,,,,,,,,,,,,,,,,,,,,,,,,,,,,,,410,,,,,,,,,,,,,3,7,,,387.646,5,left,0.851,388.513,1.5,0.3,"[1,3,2]",0.67599329,stimuli/card_100_transparent.png,100,5,0,5,0,1,,,,,,,,,,
,,,,5e3e54f69e51f80b67c1cc06,C,2024-10-23_20h59.25.753,Slot Machine Game,2023.1.3,Win32,60.0240096,5e3e54f69e51f80b67c1cc06,67167c13dd87566d3602e731,67199bc52fd7b11fb70346a1,,,,,,,,,,,,,,,,,,,,,,,,,,,,,,,,510,,,,,,,,,,,,,3,7,,,390.313,6,left,1.584,391.929,1,0.3,"[1,3,2]",0.230316252,stimuli/card_100_transparent.png,100,6,0,6,0,1,,,,,,,,,,
,,,,5e3e54f69e51f80b67c1cc06,C,2024-10-23_20h59.25.753,Slot Machine Game,2023.1.3,Win32,60.0240096,5e3e54f69e51f80b67c1cc06,67167c13dd87566d3602e731,67199bc52fd7b11fb70346a1,,,,,,,,,,,,,,,,,,,,,,,,,,,,,,,,610,,,,,,,,,,,,,3,7,,,393.229,7,left,1.623,394.878,0.5,0.3,"[1,3,2]",0.625460255,stimuli/card_100_transparent.png,100,7,0,7,0,1,,,,,,,,,,
,,,,5e3e54f69e51f80b67c1cc06,C,2024-10-23_20h59.25.753,Slot Machine Game,2023.1.3,Win32,60.0240096,5e3e54f69e51f80b67c1cc06,67167c13dd87566d3602e731,67199bc52fd7b11fb70346a1,,,,,,,,,,,,,,,,,,,,,,,,,,,,,,,,710,,,,,,,,,,,,,3,7,,,395.68,8,left,1.036,396.744,1.5,0.3,"[1,3,2]",0.710930013,stimuli/card_100_transparent.png,100,8,0,8,0,1,,,,,,,,,,
,,,,5e3e54f69e51f80b67c1cc06,C,2024-10-23_20h59.25.753,Slot Machine Game,2023.1.3,Win32,60.0240096,5e3e54f69e51f80b67c1cc06,67167c13dd87566d3602e731,67199bc52fd7b11fb70346a1,,,,,,,,,,,,,,,,,,,,,,,,,,,,,,,,710,,,,,,,,,,,,,3,7,,,398.544,9,left,1.586,400.16,1,0.3,"[2,3,1]",0.034439531,stimuli/card_0_transparent.png,0,9,0,9,0,1,,,,,,,,,,
,,,,5e3e54f69e51f80b67c1cc06,C,2024-10-23_20h59.25.753,Slot Machine Game,2023.1.3,Win32,60.0240096,5e3e54f69e51f80b67c1cc06,67167c13dd87566d3602e731,67199bc52fd7b11fb70346a1,,,,,,,,,,,,,,,,,,,,,,,,,,,,,,,,710,,,,,,,,,,,,,3,7,,,401.46,10,up,2.167,403.643,1.5,0.3,"[2,3,1]",0.696606253,stimuli/card_0_transparent.png,0,10,0,10,0,1,,,,,,,,,,
,,,,5e3e54f69e51f80b67c1cc06,C,2024-10-23_20h59.25.753,Slot Machine Game,2023.1.3,Win32,60.0240096,5e3e54f69e51f80b67c1cc06,67167c13dd87566d3602e731,67199bc52fd7b11fb70346a1,,,,,,,,,,,,,,,,,,,,,,,,,,,,,,,,720,,,,,,,,,,,,,3,7,,,405.445,11,left,1.176,406.644,0.5,0.3,"[2,3,1]",0.269775686,stimuli/card_10_transparent.png,10,11,0,11,0,1,,,,,,,,,,
,,,,5e3e54f69e51f80b67c1cc06,C,2024-10-23_20h59.25.753,Slot Machine Game,2023.1.3,Win32,60.0240096,5e3e54f69e51f80b67c1cc06,67167c13dd87566d3602e731,67199bc52fd7b11fb70346a1,,,,,,,,,,,,,,,,,,,,,,,,,,,,,,,,730,,,,,,,,,,,,,3,7,,,407.443,12,right,1.452,408.926,0.5,0.3,"[2,3,1]",0.127196094,stimuli/card_10_transparent.png,10,12,0,12,0,1,,,,,,,,,,
,,,,5e3e54f69e51f80b67c1cc06,C,2024-10-23_20h59.25.753,Slot Machine Game,2023.1.3,Win32,60.0240096,5e3e54f69e51f80b67c1cc06,67167c13dd87566d3602e731,67199bc52fd7b11fb70346a1,,,,,,,,,,,,,,,,,,,,,,,,,,,,,,,,830,,,,,,,,,,,,,3,7,,,409.726,13,right,1.168,410.925,1,0.3,"[2,3,1]",0.608096845,stimuli/card_100_transparent.png,100,13,0,13,0,1,,,,,,,,,,
,,,,5e3e54f69e51f80b67c1cc06,C,2024-10-23_20h59.25.753,Slot Machine Game,2023.1.3,Win32,60.0240096,5e3e54f69e51f80b67c1cc06,67167c13dd87566d3602e731,67199bc52fd7b11fb70346a1,,,,,,,,,,,,,,,,,,,,,,,,,,,,,,,,930,,,,,,,,,,,,,3,7,,,412.225,14,right,1.001,413.242,1,0.3,"[2,3,1]",0.950671102,stimuli/card_100_transparent.png,100,14,0,14,0,1,,,,,,,,,,
,,,,5e3e54f69e51f80b67c1cc06,C,2024-10-23_20h59.25.753,Slot Machine Game,2023.1.3,Win32,60.0240096,5e3e54f69e51f80b67c1cc06,67167c13dd87566d3602e731,67199bc52fd7b11fb70346a1,,,,,,,,,,,,,,,,,,,,,,,,,,,,,,,,,,414.541,,,,,,,,,,,,,,,,,,,,,,,,,,,,,,,"[1110,940,930]",2,0,2,0,1,,,,
,,,,5e3e54f69e51f80b67c1cc06,C,2024-10-23_20h59.25.753,Slot Machine Game,2023.1.3,Win32,60.0240096,5e3e54f69e51f80b67c1cc06,67167c13dd87566d3602e731,67199bc52fd7b11fb70346a1,,,,,,,,,,,,,,,,,,,,,,,,,,,,,,,,0,,,,,,,,,,,,,4,4,"[7,15]","[[2,3,1],[1,2,3]]",419.545,0,left,0.871,420.439,1.5,0.3,"[2,3,1]",0.028554947,stimuli/card_0_transparent.png,0,0,0,0,0,1,,,,,,,,,,
,,,,5e3e54f69e51f80b67c1cc06,C,2024-10-23_20h59.25.753,Slot Machine Game,2023.1.3,Win32,60.0240096,5e3e54f69e51f80b67c1cc06,67167c13dd87566d3602e731,67199bc52fd7b11fb70346a1,,,,,,,,,,,,,,,,,,,,,,,,,,,,,,,,10,,,,,,,,,,,,,4,4,,,422.24,1,up,1.6,423.872,1,0.3,"[2,3,1]",0.135854088,stimuli/card_10_transparent.png,10,1,0,1,0,1,,,,,,,,,,
,,,,5e3e54f69e51f80b67c1cc06,C,2024-10-23_20h59.25.753,Slot Machine Game,2023.1.3,Win32,60.0240096,5e3e54f69e51f80b67c1cc06,67167c13dd87566d3602e731,67199bc52fd7b11fb70346a1,,,,,,,,,,,,,,,,,,,,,,,,,,,,,,,,110,,,,,,,,,,,,,4,4,,,425.172,2,right,0.675,425.873,1,0.3,"[2,3,1]",0.887976077,stimuli/card_100_transparent.png,100,2,0,2,0,1,,,,,,,,,,
,,,,5e3e54f69e51f80b67c1cc06,C,2024-10-23_20h59.25.753,Slot Machine Game,2023.1.3,Win32,60.0240096,5e3e54f69e51f80b67c1cc06,67167c13dd87566d3602e731,67199bc52fd7b11fb70346a1,,,,,,,,,,,,,,,,,,,,,,,,,,,,,,,,120,,,,,,,,,,,,,4,4,,,427.172,3,right,0.77,427.972,1.5,0.3,"[2,3,1]",0.155784622,stimuli/card_10_transparent.png,10,3,0,3,0,1,,,,,,,,,,
,,,,5e3e54f69e51f80b67c1cc06,C,2024-10-23_20h59.25.753,Slot Machine Game,2023.1.3,Win32,60.0240096,5e3e54f69e51f80b67c1cc06,67167c13dd87566d3602e731,67199bc52fd7b11fb70346a1,,,,,,,,,,,,,,,,,,,,,,,,,,,,,,,,220,,,,,,,,,,,,,4,4,,,429.772,4,right,0.6,430.405,1.5,0.3,"[2,3,1]",0.430278106,stimuli/card_100_transparent.png,100,4,0,4,0,1,,,,,,,,,,
,,,,5e3e54f69e51f80b67c1cc06,C,2024-10-23_20h59.25.753,Slot Machine Game,2023.1.3,Win32,60.0240096,5e3e54f69e51f80b67c1cc06,67167c13dd87566d3602e731,67199bc52fd7b11fb70346a1,,,,,,,,,,,,,,,,,,,,,,,,,,,,,,,,320,,,,,,,,,,,,,4,4,,,432.204,5,right,1.624,433.854,1,0.3,"[2,3,1]",0.517482597,stimuli/card_100_transparent.png,100,5,0,5,0,1,,,,,,,,,,
,,,,5e3e54f69e51f80b67c1cc06,C,2024-10-23_20h59.25.753,Slot Machine Game,2023.1.3,Win32,60.0240096,5e3e54f69e51f80b67c1cc06,67167c13dd87566d3602e731,67199bc52fd7b11fb70346a1,,,,,,,,,,,,,,,,,,,,,,,,,,,,,,,,420,,,,,,,,,,,,,4,4,,,435.154,6,right,0.872,436.054,1,0.3,"[2,3,1]",0.607386343,stimuli/card_100_transparent.png,100,6,0,6,0,1,,,,,,,,,,
,,,,5e3e54f69e51f80b67c1cc06,C,2024-10-23_20h59.25.753,Slot Machine Game,2023.1.3,Win32,60.0240096,5e3e54f69e51f80b67c1cc06,67167c13dd87566d3602e731,67199bc52fd7b11fb70346a1,,,,,,,,,,,,,,,,,,,,,,,,,,,,,,,,420,,,,,,,,,,,,,4,4,,,437.353,7,right,0.738,438.103,0.5,0.3,"[1,2,3]",0.35149409,stimuli/card_0_transparent.png,0,7,0,7,0,1,,,,,,,,,,
,,,,5e3e54f69e51f80b67c1cc06,C,2024-10-23_20h59.25.753,Slot Machine Game,2023.1.3,Win32,60.0240096,5e3e54f69e51f80b67c1cc06,67167c13dd87566d3602e731,67199bc52fd7b11fb70346a1,,,,,,,,,,,,,,,,,,,,,,,,,,,,,,,,420,,,,,,,,,,,,,4,4,,,438.902,8,right,1.403,440.319,1,0.3,"[1,2,3]",0.377063751,stimuli/card_0_transparent.png,0,8,0,8,0,1,,,,,,,,,,
,,,,5e3e54f69e51f80b67c1cc06,C,2024-10-23_20h59.25.753,Slot Machine Game,2023.1.3,Win32,60.0240096,5e3e54f69e51f80b67c1cc06,67167c13dd87566d3602e731,67199bc52fd7b11fb70346a1,,,,,,,,,,,,,,,,,,,,,,,,,,,,,,,,520,,,,,,,,,,,,,4,4,,,441.618,9,up,0.91,442.535,1,0.3,"[1,2,3]",0.164445779,stimuli/card_100_transparent.png,100,9,0,9,0,1,,,,,,,,,,
,,,,5e3e54f69e51f80b67c1cc06,C,2024-10-23_20h59.25.753,Slot Machine Game,2023.1.3,Win32,60.0240096,5e3e54f69e51f80b67c1cc06,67167c13dd87566d3602e731,67199bc52fd7b11fb70346a1,,,,,,,,,,,,,,,,,,,,,,,,,,,,,,,,520,,,,,,,,,,,,,4,4,,,443.835,10,up,0.788,444.635,1,0.3,"[1,2,3]",0.000315502,stimuli/card_0_transparent.png,0,10,0,10,0,1,,,,,,,,,,
,,,,5e3e54f69e51f80b67c1cc06,C,2024-10-23_20h59.25.753,Slot Machine Game,2023.1.3,Win32,60.0240096,5e3e54f69e51f80b67c1cc06,67167c13dd87566d3602e731,67199bc52fd7b11fb70346a1,,,,,,,,,,,,,,,,,,,,,,,,,,,,,,,,620,,,,,,,,,,,,,4,4,,,445.935,11,up,1.069,447.018,0.5,0.3,"[1,2,3]",0.125377212,stimuli/card_100_transparent.png,100,11,0,11,0,1,,,,,,,,,,
,,,,5e3e54f69e51f80b67c1cc06,C,2024-10-23_20h59.25.753,Slot Machine Game,2023.1.3,Win32,60.0240096,5e3e54f69e51f80b67c1cc06,67167c13dd87566d3602e731,67199bc52fd7b11fb70346a1,,,,,,,,,,,,,,,,,,,,,,,,,,,,,,,,630,,,,,,,,,,,,,4,4,,,447.817,12,up,0.817,448.651,1.5,0.3,"[1,2,3]",0.638078765,stimuli/card_10_transparent.png,10,12,0,12,0,1,,,,,,,,,,
,,,,5e3e54f69e51f80b67c1cc06,C,2024-10-23_20h59.25.753,Slot Machine Game,2023.1.3,Win32,60.0240096,5e3e54f69e51f80b67c1cc06,67167c13dd87566d3602e731,67199bc52fd7b11fb70346a1,,,,,,,,,,,,,,,,,,,,,,,,,,,,,,,,640,,,,,,,,,,,,,4,4,,,450.451,13,up,1.036,451.517,1.5,0.3,"[1,2,3]",0.473356624,stimuli/card_10_transparent.png,10,13,0,13,0,1,,,,,,,,,,
,,,,5e3e54f69e51f80b67c1cc06,C,2024-10-23_20h59.25.753,Slot Machine Game,2023.1.3,Win32,60.0240096,5e3e54f69e51f80b67c1cc06,67167c13dd87566d3602e731,67199bc52fd7b11fb70346a1,,,,,,,,,,,,,,,,,,,,,,,,,,,,,,,,740,,,,,,,,,,,,,4,4,,,453.317,14,left,1.07,454.4,0.5,0.3,"[1,2,3]",0.830536502,stimuli/card_100_transparent.png,100,14,0,14,0,1,,,,,,,,,,
,,,,5e3e54f69e51f80b67c1cc06,C,2024-10-23_20h59.25.753,Slot Machine Game,2023.1.3,Win32,60.0240096,5e3e54f69e51f80b67c1cc06,67167c13dd87566d3602e731,67199bc52fd7b11fb70346a1,,,,,,,,,,,,,,,,,,,,,,,,,,,,,,,,,,455.2,,,,,,,,,,,,,,,,,,,,,,,,,,,,,,,"[1110,940,930,740]",3,0,3,0,1,,,,
,,,,5e3e54f69e51f80b67c1cc06,C,2024-10-23_20h59.25.753,Slot Machine Game,2023.1.3,Win32,60.0240096,5e3e54f69e51f80b67c1cc06,67167c13dd87566d3602e731,67199bc52fd7b11fb70346a1,,,,,,,,,,,,,,,,,,,,,,,,,,,,,,,,10,,,,,,,,,,,,,5,6,"[4,10,15]","[[2,3,1],[1,3,2],[3,2,1]]",460.203,0,left,1.334,461.566,1,0.3,"[2,3,1]",0.805312431,stimuli/card_10_transparent.png,10,0,0,0,0,1,,,,,,,,,,
,,,,5e3e54f69e51f80b67c1cc06,C,2024-10-23_20h59.25.753,Slot Machine Game,2023.1.3,Win32,60.0240096,5e3e54f69e51f80b67c1cc06,67167c13dd87566d3602e731,67199bc52fd7b11fb70346a1,,,,,,,,,,,,,,,,,,,,,,,,,,,,,,,,20,,,,,,,,,,,,,5,6,,,462.866,1,left,0.751,463.648,1.5,0.3,"[2,3,1]",0.623062516,stimuli/card_10_transparent.png,10,1,0,1,0,1,,,,,,,,,,
,,,,5e3e54f69e51f80b67c1cc06,C,2024-10-23_20h59.25.753,Slot Machine Game,2023.1.3,Win32,60.0240096,5e3e54f69e51f80b67c1cc06,67167c13dd87566d3602e731,67199bc52fd7b11fb70346a1,,,,,,,,,,,,,,,,,,,,,,,,,,,,,,,,30,,,,,,,,,,,,,5,6,,,465.448,2,left,0.96,466.431,1,0.3,"[2,3,1]",0.975370754,stimuli/card_10_transparent.png,10,2,0,2,0,1,,,,,,,,,,
,,,,5e3e54f69e51f80b67c1cc06,C,2024-10-23_20h59.25.753,Slot Machine Game,2023.1.3,Win32,60.0240096,5e3e54f69e51f80b67c1cc06,67167c13dd87566d3602e731,67199bc52fd7b11fb70346a1,,,,,,,,,,,,,,,,,,,,,,,,,,,,,,,,30,,,,,,,,,,,,,5,6,,,467.73,3,up,0.935,468.681,1,0.3,"[2,3,1]",0.442704621,stimuli/card_0_transparent.png,0,3,0,3,0,1,,,,,,,,,,
,,,,5e3e54f69e51f80b67c1cc06,C,2024-10-23_20h59.25.753,Slot Machine Game,2023.1.3,Win32,60.0240096,5e3e54f69e51f80b67c1cc06,67167c13dd87566d3602e731,67199bc52fd7b11fb70346a1,,,,,,,,,,,,,,,,,,,,,,,,,,,,,,,,40,,,,,,,,,,,,,5,6,,,469.98,4,right,1.084,471.08,1,0.3,"[1,3,2]",0.623663145,stimuli/card_10_transparent.png,10,4,0,4,0,1,,,,,,,,,,
,,,,5e3e54f69e51f80b67c1cc06,C,2024-10-23_20h59.25.753,Slot Machine Game,2023.1.3,Win32,60.0240096,5e3e54f69e51f80b67c1cc06,67167c13dd87566d3602e731,67199bc52fd7b11fb70346a1,,,,,,,,,,,,,,,,,,,,,,,,,,,,,,,,50,,,,,,,,,,,,,5,6,,,472.38,5,right,0.918,473.33,0.5,0.3,"[1,3,2]",0.76564178,stimuli/card_10_transparent.png,10,5,0,5,0,1,,,,,,,,,,
,,,,5e3e54f69e51f80b67c1cc06,C,2024-10-23_20h59.25.753,Slot Machine Game,2023.1.3,Win32,60.0240096,5e3e54f69e51f80b67c1cc06,67167c13dd87566d3602e731,67199bc52fd7b11fb70346a1,,,,,,,,,,,,,,,,,,,,,,,,,,,,,,,,60,,,,,,,,,,,,,5,6,,,474.13,6,up,1.317,475.481,0.5,0.3,"[1,3,2]",0.184153946,stimuli/card_10_transparent.png,10,6,0,6,0,1,,,,,,,,,,
,,,,5e3e54f69e51f80b67c1cc06,C,2024-10-23_20h59.25.753,Slot Machine Game,2023.1.3,Win32,60.0240096,5e3e54f69e51f80b67c1cc06,67167c13dd87566d3602e731,67199bc52fd7b11fb70346a1,,,,,,,,,,,,,,,,,,,,,,,,,,,,,,,,60,,,,,,,,,,,,,5,6,,,476.279,7,up,0.735,477.045,1.5,0.3,"[1,3,2]",0.504710686,stimuli/card_0_transparent.png,0,7,0,7,0,1,,,,,,,,,,
,,,,5e3e54f69e51f80b67c1cc06,C,2024-10-23_20h59.25.753,Slot Machine Game,2023.1.3,Win32,60.0240096,5e3e54f69e51f80b67c1cc06,67167c13dd87566d3602e731,67199bc52fd7b11fb70346a1,,,,,,,,,,,,,,,,,,,,,,,,,,,,,,,,70,,,,,,,,,,,,,5,6,,,478.845,8,right,2.016,480.878,1,0.3,"[1,3,2]",0.880451018,stimuli/card_10_transparent.png,10,8,0,8,0,1,,,,,,,,,,
,,,,5e3e54f69e51f80b67c1cc06,C,2024-10-23_20h59.25.753,Slot Machine Game,2023.1.3,Win32,60.0240096,5e3e54f69e51f80b67c1cc06,67167c13dd87566d3602e731,67199bc52fd7b11fb70346a1,,,,,,,,,,,,,,,,,,,,,,,,,,,,,,,,170,,,,,,,,,,,,,5,6,,,482.178,9,left,1.301,483.511,1,0.3,"[1,3,2]",0.981629322,stimuli/card_100_transparent.png,100,9,0,9,0,1,,,,,,,,,,
,,,,5e3e54f69e51f80b67c1cc06,C,2024-10-23_20h59.25.753,Slot Machine Game,2023.1.3,Win32,60.0240096,5e3e54f69e51f80b67c1cc06,67167c13dd87566d3602e731,67199bc52fd7b11fb70346a1,,,,,,,,,,,,,,,,,,,,,,,,,,,,,,,,170,,,,,,,,,,,,,5,6,,,484.811,10,left,0.801,485.644,1,0.3,"[3,2,1]",0.82311541,stimuli/card_0_transparent.png,0,10,0,10,0,1,,,,,,,,,,
,,,,5e3e54f69e51f80b67c1cc06,C,2024-10-23_20h59.25.753,Slot Machine Game,2023.1.3,Win32,60.0240096,5e3e54f69e51f80b67c1cc06,67167c13dd87566d3602e731,67199bc52fd7b11fb70346a1,,,,,,,,,,,,,,,,,,,,,,,,,,,,,,,,170,,,,,,,,,,,,,5,6,,,486.943,11,left,0.908,487.859,1,0.3,"[3,2,1]",0.229917207,stimuli/card_0_transparent.png,0,11,0,11,0,1,,,,,,,,,,
,,,,5e3e54f69e51f80b67c1cc06,C,2024-10-23_20h59.25.753,Slot Machine Game,2023.1.3,Win32,60.0240096,5e3e54f69e51f80b67c1cc06,67167c13dd87566d3602e731,67199bc52fd7b11fb70346a1,,,,,,,,,,,,,,,,,,,,,,,,,,,,,,,,180,,,,,,,,,,,,,5,6,,,489.16,12,up,1.467,490.642,0.5,0.3,"[3,2,1]",0.60997244,stimuli/card_10_transparent.png,10,12,0,12,0,1,,,,,,,,,,
,,,,5e3e54f69e51f80b67c1cc06,C,2024-10-23_20h59.25.753,Slot Machine Game,2023.1.3,Win32,60.0240096,5e3e54f69e51f80b67c1cc06,67167c13dd87566d3602e731,67199bc52fd7b11fb70346a1,,,,,,,,,,,,,,,,,,,,,,,,,,,,,,,,280,,,,,,,,,,,,,5,6,,,491.443,13,right,0.869,492.325,0.5,0.3,"[3,2,1]",0.414036716,stimuli/card_100_transparent.png,100,13,0,13,0,1,,,,,,,,,,
,,,,5e3e54f69e51f80b67c1cc06,C,2024-10-23_20h59.25.753,Slot Machine Game,2023.1.3,Win32,60.0240096,5e3e54f69e51f80b67c1cc06,67167c13dd87566d3602e731,67199bc52fd7b11fb70346a1,,,,,,,,,,,,,,,,,,,,,,,,,,,,,,,,290,,,,,,,,,,,,,5,6,,,493.125,14,right,0.975,494.109,1,0.3,"[3,2,1]",0.199976297,stimuli/card_10_transparent.png,10,14,0,14,0,1,,,,,,,,,,
,,,,5e3e54f69e51f80b67c1cc06,C,2024-10-23_20h59.25.753,Slot Machine Game,2023.1.3,Win32,60.0240096,5e3e54f69e51f80b67c1cc06,67167c13dd87566d3602e731,67199bc52fd7b11fb70346a1,,,,,,,,,,,,,,,,,,,,,,,,,,,,,,,,,,495.412,,,,,,,,,,,,,,,,,,,,,,,,,,,,,,,"[1110,940,930,740,290]",4,0,4,0,1,,,,
,,,,5e3e54f69e51f80b67c1cc06,C,2024-10-23_20h59.25.753,Slot Machine Game,2023.1.3,Win32,60.0240096,5e3e54f69e51f80b67c1cc06,67167c13dd87566d3602e731,67199bc52fd7b11fb70346a1,,,,,,,,,,,,,,,,,,,,,,,,,,,,,,,,100,,,,,,,,,,,,,6,8,"[11,15]","[[2,1,3],[1,2,3]]",500.412,0,left,1.295,501.726,0.5,0.3,"[2,1,3]",0.12174849,stimuli/card_100_transparent.png,100,0,0,0,0,1,,,,,,,,,,
,,,,5e3e54f69e51f80b67c1cc06,C,2024-10-23_20h59.25.753,Slot Machine Game,2023.1.3,Win32,60.0240096,5e3e54f69e51f80b67c1cc06,67167c13dd87566d3602e731,67199bc52fd7b11fb70346a1,,,,,,,,,,,,,,,,,,,,,,,,,,,,,,,,110,,,,,,,,,,,,,6,8,,,502.524,1,left,2.083,504.623,1.5,0.3,"[2,1,3]",0.250434214,stimuli/card_10_transparent.png,10,1,0,1,0,1,,,,,,,,,,
,,,,5e3e54f69e51f80b67c1cc06,C,2024-10-23_20h59.25.753,Slot Machine Game,2023.1.3,Win32,60.0240096,5e3e54f69e51f80b67c1cc06,67167c13dd87566d3602e731,67199bc52fd7b11fb70346a1,,,,,,,,,,,,,,,,,,,,,,,,,,,,,,,,120,,,,,,,,,,,,,6,8,,,506.424,2,left,0.806,507.256,1.5,0.3,"[2,1,3]",0.557848708,stimuli/card_10_transparent.png,10,2,0,2,0,1,,,,,,,,,,
,,,,5e3e54f69e51f80b67c1cc06,C,2024-10-23_20h59.25.753,Slot Machine Game,2023.1.3,Win32,60.0240096,5e3e54f69e51f80b67c1cc06,67167c13dd87566d3602e731,67199bc52fd7b11fb70346a1,,,,,,,,,,,,,,,,,,,,,,,,,,,,,,,,130,,,,,,,,,,,,,6,8,,,509.056,3,left,0.744,509.824,0.5,0.3,"[2,1,3]",0.644275025,stimuli/card_10_transparent.png,10,3,0,3,0,1,,,,,,,,,,
,,,,5e3e54f69e51f80b67c1cc06,C,2024-10-23_20h59.25.753,Slot Machine Game,2023.1.3,Win32,60.0240096,5e3e54f69e51f80b67c1cc06,67167c13dd87566d3602e731,67199bc52fd7b11fb70346a1,,,,,,,,,,,,,,,,,,,,,,,,,,,,,,,,130,,,,,,,,,,,,,6,8,,,510.622,4,right,1.136,511.789,1,0.3,"[2,1,3]",0.22411498,stimuli/card_0_transparent.png,0,4,0,4,0,1,,,,,,,,,,
,,,,5e3e54f69e51f80b67c1cc06,C,2024-10-23_20h59.25.753,Slot Machine Game,2023.1.3,Win32,60.0240096,5e3e54f69e51f80b67c1cc06,67167c13dd87566d3602e731,67199bc52fd7b11fb70346a1,,,,,,,,,,,,,,,,,,,,,,,,,,,,,,,,130,,,,,,,,,,,,,6,8,,,513.088,5,right,0.7,513.805,1,0.3,"[2,1,3]",0.950368076,stimuli/card_0_transparent.png,0,5,0,5,0,1,,,,,,,,,,
,,,,5e3e54f69e51f80b67c1cc06,C,2024-10-23_20h59.25.753,Slot Machine Game,2023.1.3,Win32,60.0240096,5e3e54f69e51f80b67c1cc06,67167c13dd87566d3602e731,67199bc52fd7b11fb70346a1,,,,,,,,,,,,,,,,,,,,,,,,,,,,,,,,230,,,,,,,,,,,,,6,8,,,515.105,6,up,0.741,515.871,1,0.3,"[2,1,3]",0.339351442,stimuli/card_100_transparent.png,100,6,0,6,0,1,,,,,,,,,,
,,,,5e3e54f69e51f80b67c1cc06,C,2024-10-23_20h59.25.753,Slot Machine Game,2023.1.3,Win32,60.0240096,5e3e54f69e51f80b67c1cc06,67167c13dd87566d3602e731,67199bc52fd7b11fb70346a1,,,,,,,,,,,,,,,,,,,,,,,,,,,,,,,,330,,,,,,,,,,,,,6,8,,,517.171,7,up,0.6,517.804,0.5,0.3,"[2,1,3]",0.533838277,stimuli/card_100_transparent.png,100,7,0,7,0,1,,,,,,,,,,
,,,,5e3e54f69e51f80b67c1cc06,C,2024-10-23_20h59.25.753,Slot Machine Game,2023.1.3,Win32,60.0240096,5e3e54f69e51f80b67c1cc06,67167c13dd87566d3602e731,67199bc52fd7b11fb70346a1,,,,,,,,,,,,,,,,,,,,,,,,,,,,,,,,430,,,,,,,,,,,,,6,8,,,518.604,8,up,0.768,519.403,1,0.3,"[2,1,3]",0.948371489,stimuli/card_100_transparent.png,100,8,0,8,0,1,,,,,,,,,,
,,,,5e3e54f69e51f80b67c1cc06,C,2024-10-23_20h59.25.753,Slot Machine Game,2023.1.3,Win32,60.0240096,5e3e54f69e51f80b67c1cc06,67167c13dd87566d3602e731,67199bc52fd7b11fb70346a1,,,,,,,,,,,,,,,,,,,,,,,,,,,,,,,,440,,,,,,,,,,,,,6,8,,,520.704,9,up,0.656,521.387,1.5,0.3,"[2,1,3]",0.186786477,stimuli/card_10_transparent.png,10,9,0,9,0,1,,,,,,,,,,
,,,,5e3e54f69e51f80b67c1cc06,C,2024-10-23_20h59.25.753,Slot Machine Game,2023.1.3,Win32,60.0240096,5e3e54f69e51f80b67c1cc06,67167c13dd87566d3602e731,67199bc52fd7b11fb70346a1,,,,,,,,,,,,,,,,,,,,,,,,,,,,,,,,540,,,,,,,,,,,,,6,8,,,523.187,10,up,0.67,523.887,0.5,0.3,"[2,1,3]",0.427979933,stimuli/card_100_transparent.png,100,10,0,10,0,1,,,,,,,,,,
,,,,5e3e54f69e51f80b67c1cc06,C,2024-10-23_20h59.25.753,Slot Machine Game,2023.1.3,Win32,60.0240096,5e3e54f69e51f80b67c1cc06,67167c13dd87566d3602e731,67199bc52fd7b11fb70346a1,,,,,,,,,,,,,,,,,,,,,,,,,,,,,,,,550,,,,,,,,,,,,,6,8,,,524.686,11,up,0.567,525.271,1.5,0.3,"[1,2,3]",0.886243379,stimuli/card_10_transparent.png,10,11,0,11,0,1,,,,,,,,,,
,,,,5e3e54f69e51f80b67c1cc06,C,2024-10-23_20h59.25.753,Slot Machine Game,2023.1.3,Win32,60.0240096,5e3e54f69e51f80b67c1cc06,67167c13dd87566d3602e731,67199bc52fd7b11fb70346a1,,,,,,,,,,,,,,,,,,,,,,,,,,,,,,,,560,,,,,,,,,,,,,6,8,,,527.069,12,up,0.518,527.602,0.5,0.3,"[1,2,3]",0.250903267,stimuli/card_10_transparent.png,10,12,0,12,0,1,,,,,,,,,,
,,,,5e3e54f69e51f80b67c1cc06,C,2024-10-23_20h59.25.753,Slot Machine Game,2023.1.3,Win32,60.0240096,5e3e54f69e51f80b67c1cc06,67167c13dd87566d3602e731,67199bc52fd7b11fb70346a1,,,,,,,,,,,,,,,,,,,,,,,,,,,,,,,,570,,,,,,,,,,,,,6,8,,,528.402,13,up,0.571,528.985,1.5,0.3,"[1,2,3]",0.602514749,stimuli/card_10_transparent.png,10,13,0,13,0,1,,,,,,,,,,
,,,,5e3e54f69e51f80b67c1cc06,C,2024-10-23_20h59.25.753,Slot Machine Game,2023.1.3,Win32,60.0240096,5e3e54f69e51f80b67c1cc06,67167c13dd87566d3602e731,67199bc52fd7b11fb70346a1,,,,,,,,,,,,,,,,,,,,,,,,,,,,,,,,580,,,,,,,,,,,,,6,8,,,530.786,14,up,0.568,531.384,1.5,0.3,"[1,2,3]",0.302101905,stimuli/card_10_transparent.png,10,14,0,14,0,1,,,,,,,,,,
,,,,5e3e54f69e51f80b67c1cc06,C,2024-10-23_20h59.25.753,Slot Machine Game,2023.1.3,Win32,60.0240096,5e3e54f69e51f80b67c1cc06,67167c13dd87566d3602e731,67199bc52fd7b11fb70346a1,,,,,,,,,,,,,,,,,,,,,,,,,,,,,,,,,,533.184,,,,,,,,,,,,,,,,,,,,,,,,,,,,,,,"[1110,940,930,740,290,580]",5,0,5,0,1,,,,
,,,,5e3e54f69e51f80b67c1cc06,C,2024-10-23_20h59.25.753,Slot Machine Game,2023.1.3,Win32,60.0240096,5e3e54f69e51f80b67c1cc06,67167c13dd87566d3602e731,67199bc52fd7b11fb70346a1,,,,,,,,,,,,,,,,,,,,,,,,,,,,,,,,0,,,,,,,,,,,,,7,9,"[8,15]","[[3,2,1],[3,1,2]]",538.188,0,left,1.755,539.966,0.5,0.3,"[3,2,1]",0.204959413,stimuli/card_0_transparent.png,0,0,0,0,0,1,,,,,,,,,,
,,,,5e3e54f69e51f80b67c1cc06,C,2024-10-23_20h59.25.753,Slot Machine Game,2023.1.3,Win32,60.0240096,5e3e54f69e51f80b67c1cc06,67167c13dd87566d3602e731,67199bc52fd7b11fb70346a1,,,,,,,,,,,,,,,,,,,,,,,,,,,,,,,,10,,,,,,,,,,,,,7,9,,,540.766,1,up,0.967,541.749,0.5,0.3,"[3,2,1]",0.211935988,stimuli/card_10_transparent.png,10,1,0,1,0,1,,,,,,,,,,
,,,,5e3e54f69e51f80b67c1cc06,C,2024-10-23_20h59.25.753,Slot Machine Game,2023.1.3,Win32,60.0240096,5e3e54f69e51f80b67c1cc06,67167c13dd87566d3602e731,67199bc52fd7b11fb70346a1,,,,,,,,,,,,,,,,,,,,,,,,,,,,,,,,110,,,,,,,,,,,,,7,9,,,542.55,2,right,0.584,543.166,0.5,0.3,"[3,2,1]",0.912043039,stimuli/card_100_transparent.png,100,2,0,2,0,1,,,,,,,,,,
,,,,5e3e54f69e51f80b67c1cc06,C,2024-10-23_20h59.25.753,Slot Machine Game,2023.1.3,Win32,60.0240096,5e3e54f69e51f80b67c1cc06,67167c13dd87566d3602e731,67199bc52fd7b11fb70346a1,,,,,,,,,,,,,,,,,,,,,,,,,,,,,,,,210,,,,,,,,,,,,,7,9,,,543.965,3,right,1.011,544.984,1,0.3,"[3,2,1]",0.929301065,stimuli/card_100_transparent.png,100,3,0,3,0,1,,,,,,,,,,
,,,,5e3e54f69e51f80b67c1cc06,C,2024-10-23_20h59.25.753,Slot Machine Game,2023.1.3,Win32,60.0240096,5e3e54f69e51f80b67c1cc06,67167c13dd87566d3602e731,67199bc52fd7b11fb70346a1,,,,,,,,,,,,,,,,,,,,,,,,,,,,,,,,310,,,,,,,,,,,,,7,9,,,546.282,4,right,0.735,547.049,1.5,0.3,"[3,2,1]",0.689399827,stimuli/card_100_transparent.png,100,4,0,4,0,1,,,,,,,,,,
,,,,5e3e54f69e51f80b67c1cc06,C,2024-10-23_20h59.25.753,Slot Machine Game,2023.1.3,Win32,60.0240096,5e3e54f69e51f80b67c1cc06,67167c13dd87566d3602e731,67199bc52fd7b11fb70346a1,,,,,,,,,,,,,,,,,,,,,,,,,,,,,,,,310,,,,,,,,,,,,,7,9,,,548.848,5,right,0.501,549.382,1.5,0.3,"[3,2,1]",0.053070817,stimuli/card_0_transparent.png,0,5,0,5,0,1,,,,,,,,,,
,,,,5e3e54f69e51f80b67c1cc06,C,2024-10-23_20h59.25.753,Slot Machine Game,2023.1.3,Win32,60.0240096,5e3e54f69e51f80b67c1cc06,67167c13dd87566d3602e731,67199bc52fd7b11fb70346a1,,,,,,,,,,,,,,,,,,,,,,,,,,,,,,,,410,,,,,,,,,,,,,7,9,,,551.18,6,right,0.583,551.78,1,0.3,"[3,2,1]",0.824413275,stimuli/card_100_transparent.png,100,6,0,6,0,1,,,,,,,,,,
,,,,5e3e54f69e51f80b67c1cc06,C,2024-10-23_20h59.25.753,Slot Machine Game,2023.1.3,Win32,60.0240096,5e3e54f69e51f80b67c1cc06,67167c13dd87566d3602e731,67199bc52fd7b11fb70346a1,,,,,,,,,,,,,,,,,,,,,,,,,,,,,,,,410,,,,,,,,,,,,,7,9,,,553.081,7,right,1.044,554.147,0.5,0.3,"[3,2,1]",0.001309605,stimuli/card_0_transparent.png,0,7,0,7,0,1,,,,,,,,,,
,,,,5e3e54f69e51f80b67c1cc06,C,2024-10-23_20h59.25.753,Slot Machine Game,2023.1.3,Win32,60.0240096,5e3e54f69e51f80b67c1cc06,67167c13dd87566d3602e731,67199bc52fd7b11fb70346a1,,,,,,,,,,,,,,,,,,,,,,,,,,,,,,,,510,,,,,,,,,,,,,7,9,,,554.947,8,up,1.8,556.78,1,0.3,"[3,1,2]",0.799115542,stimuli/card_100_transparent.png,100,8,0,8,0,1,,,,,,,,,,
,,,,5e3e54f69e51f80b67c1cc06,C,2024-10-23_20h59.25.753,Slot Machine Game,2023.1.3,Win32,60.0240096,5e3e54f69e51f80b67c1cc06,67167c13dd87566d3602e731,67199bc52fd7b11fb70346a1,,,,,,,,,,,,,,,,,,,,,,,,,,,,,,,,510,,,,,,,,,,,,,7,9,,,558.081,9,up,0.851,558.963,1.5,0.3,"[3,1,2]",0.093183067,stimuli/card_0_transparent.png,0,9,0,9,0,1,,,,,,,,,,
,,,,5e3e54f69e51f80b67c1cc06,C,2024-10-23_20h59.25.753,Slot Machine Game,2023.1.3,Win32,60.0240096,5e3e54f69e51f80b67c1cc06,67167c13dd87566d3602e731,67199bc52fd7b11fb70346a1,,,,,,,,,,,,,,,,,,,,,,,,,,,,,,,,610,,,,,,,,,,,,,7,9,,,560.763,10,up,0.656,561.445,1,0.3,"[3,1,2]",0.225416554,stimuli/card_100_transparent.png,100,10,0,10,0,1,,,,,,,,,,
,,,,5e3e54f69e51f80b67c1cc06,C,2024-10-23_20h59.25.753,Slot Machine Game,2023.1.3,Win32,60.0240096,5e3e54f69e51f80b67c1cc06,67167c13dd87566d3602e731,67199bc52fd7b11fb70346a1,,,,,,,,,,,,,,,,,,,,,,,,,,,,,,,,710,,,,,,,,,,,,,7,9,,,562.745,11,up,0.668,563.445,0.5,0.3,"[3,1,2]",0.81619003,stimuli/card_100_transparent.png,100,11,0,11,0,1,,,,,,,,,,
,,,,5e3e54f69e51f80b67c1cc06,C,2024-10-23_20h59.25.753,Slot Machine Game,2023.1.3,Win32,60.0240096,5e3e54f69e51f80b67c1cc06,67167c13dd87566d3602e731,67199bc52fd7b11fb70346a1,,,,,,,,,,,,,,,,,,,,,,,,,,,,,,,,710,,,,,,,,,,,,,7,9,,,564.246,12,up,0.952,565.228,1.5,0.3,"[3,1,2]",0.008747163,stimuli/card_0_transparent.png,0,12,0,12,0,1,,,,,,,,,,
,,,,5e3e54f69e51f80b67c1cc06,C,2024-10-23_20h59.25.753,Slot Machine Game,2023.1.3,Win32,60.0240096,5e3e54f69e51f80b67c1cc06,67167c13dd87566d3602e731,67199bc52fd7b11fb70346a1,,,,,,,,,,,,,,,,,,,,,,,,,,,,,,,,720,,,,,,,,,,,,,7,9,,,567.027,13,up,0.872,567.911,1,0.3,"[3,1,2]",0.176356835,stimuli/card_10_transparent.png,10,13,0,13,0,1,,,,,,,,,,
,,,,5e3e54f69e51f80b67c1cc06,C,2024-10-23_20h59.25.753,Slot Machine Game,2023.1.3,Win32,60.0240096,5e3e54f69e51f80b67c1cc06,67167c13dd87566d3602e731,67199bc52fd7b11fb70346a1,,,,,,,,,,,,,,,,,,,,,,,,,,,,,,,,820,,,,,,,,,,,,,7,9,,,569.211,14,up,1.9,571.144,1.5,0.3,"[3,1,2]",0.20338497,stimuli/card_100_transparent.png,100,14,0,14,0,1,,,,,,,,,,
,,,,5e3e54f69e51f80b67c1cc06,C,2024-10-23_20h59.25.753,Slot Machine Game,2023.1.3,Win32,60.0240096,5e3e54f69e51f80b67c1cc06,67167c13dd87566d3602e731,67199bc52fd7b11fb70346a1,,,,,,,,,,,,,,,,,,,,,,,,,,,,,,,,,,572.943,,,,,,,,,,,,,,,,,,,,,,,,,,,,,,,"[1110,940,930,740,290,580,820]",6,0,6,0,1,,,,
,,,,5e3e54f69e51f80b67c1cc06,C,2024-10-23_20h59.25.753,Slot Machine Game,2023.1.3,Win32,60.0240096,5e3e54f69e51f80b67c1cc06,67167c13dd87566d3602e731,67199bc52fd7b11fb70346a1,,,,,,,,,,,,,,,,,,,,,,,,,,,,,,,,0,,,,,,,,,,,,,8,2,"[6,15]","[[1,3,2],[3,2,1]]",577.945,0,up,1.808,579.775,1,0.3,"[1,3,2]",0.518763936,stimuli/card_0_transparent.png,0,0,0,0,0,1,,,,,,,,,,
,,,,5e3e54f69e51f80b67c1cc06,C,2024-10-23_20h59.25.753,Slot Machine Game,2023.1.3,Win32,60.0240096,5e3e54f69e51f80b67c1cc06,67167c13dd87566d3602e731,67199bc52fd7b11fb70346a1,,,,,,,,,,,,,,,,,,,,,,,,,,,,,,,,100,,,,,,,,,,,,,8,2,,,581.076,1,left,0.688,581.791,0.5,0.3,"[1,3,2]",0.879986874,stimuli/card_100_transparent.png,100,1,0,1,0,1,,,,,,,,,,
,,,,5e3e54f69e51f80b67c1cc06,C,2024-10-23_20h59.25.753,Slot Machine Game,2023.1.3,Win32,60.0240096,5e3e54f69e51f80b67c1cc06,67167c13dd87566d3602e731,67199bc52fd7b11fb70346a1,,,,,,,,,,,,,,,,,,,,,,,,,,,,,,,,100,,,,,,,,,,,,,8,2,,,582.591,2,left,0.755,583.357,0.5,0.3,"[1,3,2]",0.023460719,stimuli/card_0_transparent.png,0,2,0,2,0,1,,,,,,,,,,
,,,,5e3e54f69e51f80b67c1cc06,C,2024-10-23_20h59.25.753,Slot Machine Game,2023.1.3,Win32,60.0240096,5e3e54f69e51f80b67c1cc06,67167c13dd87566d3602e731,67199bc52fd7b11fb70346a1,,,,,,,,,,,,,,,,,,,,,,,,,,,,,,,,200,,,,,,,,,,,,,8,2,,,584.158,3,left,0.817,584.991,1,0.3,"[1,3,2]",0.754300505,stimuli/card_100_transparent.png,100,3,0,3,0,1,,,,,,,,,,
,,,,5e3e54f69e51f80b67c1cc06,C,2024-10-23_20h59.25.753,Slot Machine Game,2023.1.3,Win32,60.0240096,5e3e54f69e51f80b67c1cc06,67167c13dd87566d3602e731,67199bc52fd7b11fb70346a1,,,,,,,,,,,,,,,,,,,,,,,,,,,,,,,,210,,,,,,,,,,,,,8,2,,,586.29,4,left,0.953,587.256,1.5,0.3,"[1,3,2]",0.186472893,stimuli/card_10_transparent.png,10,4,0,4,0,1,,,,,,,,,,
,,,,5e3e54f69e51f80b67c1cc06,C,2024-10-23_20h59.25.753,Slot Machine Game,2023.1.3,Win32,60.0240096,5e3e54f69e51f80b67c1cc06,67167c13dd87566d3602e731,67199bc52fd7b11fb70346a1,,,,,,,,,,,,,,,,,,,,,,,,,,,,,,,,310,,,,,,,,,,,,,8,2,,,589.056,5,left,0.557,589.623,1.5,0.3,"[1,3,2]",0.707850008,stimuli/card_100_transparent.png,100,5,0,5,0,1,,,,,,,,,,
,,,,5e3e54f69e51f80b67c1cc06,C,2024-10-23_20h59.25.753,Slot Machine Game,2023.1.3,Win32,60.0240096,5e3e54f69e51f80b67c1cc06,67167c13dd87566d3602e731,67199bc52fd7b11fb70346a1,,,,,,,,,,,,,,,,,,,,,,,,,,,,,,,,310,,,,,,,,,,,,,8,2,,,591.423,6,left,0.767,592.223,1,0.3,"[3,2,1]",0.544923809,stimuli/card_0_transparent.png,0,6,0,6,0,1,,,,,,,,,,
,,,,5e3e54f69e51f80b67c1cc06,C,2024-10-23_20h59.25.753,Slot Machine Game,2023.1.3,Win32,60.0240096,5e3e54f69e51f80b67c1cc06,67167c13dd87566d3602e731,67199bc52fd7b11fb70346a1,,,,,,,,,,,,,,,,,,,,,,,,,,,,,,,,310,,,,,,,,,,,,,8,2,,,593.523,7,left,0.551,594.106,1.5,0.3,"[3,2,1]",0.684445184,stimuli/card_0_transparent.png,0,7,0,7,0,1,,,,,,,,,,
,,,,5e3e54f69e51f80b67c1cc06,C,2024-10-23_20h59.25.753,Slot Machine Game,2023.1.3,Win32,60.0240096,5e3e54f69e51f80b67c1cc06,67167c13dd87566d3602e731,67199bc52fd7b11fb70346a1,,,,,,,,,,,,,,,,,,,,,,,,,,,,,,,,310,,,,,,,,,,,,,8,2,,,595.906,8,left,1.601,597.539,1,0.3,"[3,2,1]",0.716952346,stimuli/card_0_transparent.png,0,8,0,8,0,1,,,,,,,,,,
,,,,5e3e54f69e51f80b67c1cc06,C,2024-10-23_20h59.25.753,Slot Machine Game,2023.1.3,Win32,60.0240096,5e3e54f69e51f80b67c1cc06,67167c13dd87566d3602e731,67199bc52fd7b11fb70346a1,,,,,,,,,,,,,,,,,,,,,,,,,,,,,,,,410,,,,,,,,,,,,,8,2,,,598.838,9,right,0.567,599.421,1.5,0.3,"[3,2,1]",0.366596417,stimuli/card_100_transparent.png,100,9,0,9,0,1,,,,,,,,,,
,,,,5e3e54f69e51f80b67c1cc06,C,2024-10-23_20h59.25.753,Slot Machine Game,2023.1.3,Win32,60.0240096,5e3e54f69e51f80b67c1cc06,67167c13dd87566d3602e731,67199bc52fd7b11fb70346a1,,,,,,,,,,,,,,,,,,,,,,,,,,,,,,,,420,,,,,,,,,,,,,8,2,,,601.221,10,right,0.876,602.121,1.5,0.3,"[3,2,1]",0.188083057,stimuli/card_10_transparent.png,10,10,0,10,0,1,,,,,,,,,,
,,,,5e3e54f69e51f80b67c1cc06,C,2024-10-23_20h59.25.753,Slot Machine Game,2023.1.3,Win32,60.0240096,5e3e54f69e51f80b67c1cc06,67167c13dd87566d3602e731,67199bc52fd7b11fb70346a1,,,,,,,,,,,,,,,,,,,,,,,,,,,,,,,,430,,,,,,,,,,,,,8,2,,,603.921,11,right,0.652,604.604,0.5,0.3,"[3,2,1]",0.101321725,stimuli/card_10_transparent.png,10,11,0,11,0,1,,,,,,,,,,
,,,,5e3e54f69e51f80b67c1cc06,C,2024-10-23_20h59.25.753,Slot Machine Game,2023.1.3,Win32,60.0240096,5e3e54f69e51f80b67c1cc06,67167c13dd87566d3602e731,67199bc52fd7b11fb70346a1,,,,,,,,,,,,,,,,,,,,,,,,,,,,,,,,530,,,,,,,,,,,,,8,2,,,605.404,12,right,1.354,606.787,1.5,0.3,"[3,2,1]",0.930880968,stimuli/card_100_transparent.png,100,12,0,12,0,1,,,,,,,,,,
,,,,5e3e54f69e51f80b67c1cc06,C,2024-10-23_20h59.25.753,Slot Machine Game,2023.1.3,Win32,60.0240096,5e3e54f69e51f80b67c1cc06,67167c13dd87566d3602e731,67199bc52fd7b11fb70346a1,,,,,,,,,,,,,,,,,,,,,,,,,,,,,,,,630,,,,,,,,,,,,,8,2,,,608.587,13,right,0.933,609.554,1.5,0.3,"[3,2,1]",0.307044924,stimuli/card_100_transparent.png,100,13,0,13,0,1,,,,,,,,,,
,,,,5e3e54f69e51f80b67c1cc06,C,2024-10-23_20h59.25.753,Slot Machine Game,2023.1.3,Win32,60.0240096,5e3e54f69e51f80b67c1cc06,67167c13dd87566d3602e731,67199bc52fd7b11fb70346a1,,,,,,,,,,,,,,,,,,,,,,,,,,,,,,,,730,,,,,,,,,,,,,8,2,,,611.352,14,right,0.751,612.135,0.5,0.3,"[3,2,1]",0.204553375,stimuli/card_100_transparent.png,100,14,0,14,0,1,,,,,,,,,,
,,,,5e3e54f69e51f80b67c1cc06,C,2024-10-23_20h59.25.753,Slot Machine Game,2023.1.3,Win32,60.0240096,5e3e54f69e51f80b67c1cc06,67167c13dd87566d3602e731,67199bc52fd7b11fb70346a1,,,,,,,,,,,,,,,,,,,,,,,,,,,,,,,,,,612.936,,,,,,,,,,,,,,,,,,,,,,,,,,,,,,,"[1110,940,930,740,290,580,820,730]",7,0,7,0,1,,,,
,,,,5e3e54f69e51f80b67c1cc06,C,2024-10-23_20h59.25.753,Slot Machine Game,2023.1.3,Win32,60.0240096,5e3e54f69e51f80b67c1cc06,67167c13dd87566d3602e731,67199bc52fd7b11fb70346a1,,,,,,,,,,,,,,,,,,,,,,,,,,,,,,,,0,,,,,,,,,,,,,9,10,"[10,15]","[[3,1,2],[1,3,2]]",617.94,0,left,3.368,621.334,0.5,0.3,"[3,1,2]",0.537150461,stimuli/card_0_transparent.png,0,0,0,0,0,1,,,,,,,,,,
,,,,5e3e54f69e51f80b67c1cc06,C,2024-10-23_20h59.25.753,Slot Machine Game,2023.1.3,Win32,60.0240096,5e3e54f69e51f80b67c1cc06,67167c13dd87566d3602e731,67199bc52fd7b11fb70346a1,,,,,,,,,,,,,,,,,,,,,,,,,,,,,,,,10,,,,,,,,,,,,,9,10,,,622.133,1,right,1.52,623.666,1,0.3,"[3,1,2]",0.303064816,stimuli/card_10_transparent.png,10,1,0,1,0,1,,,,,,,,,,
,,,,5e3e54f69e51f80b67c1cc06,C,2024-10-23_20h59.25.753,Slot Machine Game,2023.1.3,Win32,60.0240096,5e3e54f69e51f80b67c1cc06,67167c13dd87566d3602e731,67199bc52fd7b11fb70346a1,,,,,,,,,,,,,,,,,,,,,,,,,,,,,,,,20,,,,,,,,,,,,,9,10,,,624.966,2,right,0.668,625.649,1,0.3,"[3,1,2]",0.434066978,stimuli/card_10_transparent.png,10,2,0,2,0,1,,,,,,,,,,
,,,,5e3e54f69e51f80b67c1cc06,C,2024-10-23_20h59.25.753,Slot Machine Game,2023.1.3,Win32,60.0240096,5e3e54f69e51f80b67c1cc06,67167c13dd87566d3602e731,67199bc52fd7b11fb70346a1,,,,,,,,,,,,,,,,,,,,,,,,,,,,,,,,30,,,,,,,,,,,,,9,10,,,626.95,3,right,0.901,627.882,0.5,0.3,"[3,1,2]",0.827203885,stimuli/card_10_transparent.png,10,3,0,3,0,1,,,,,,,,,,
,,,,5e3e54f69e51f80b67c1cc06,C,2024-10-23_20h59.25.753,Slot Machine Game,2023.1.3,Win32,60.0240096,5e3e54f69e51f80b67c1cc06,67167c13dd87566d3602e731,67199bc52fd7b11fb70346a1,,,,,,,,,,,,,,,,,,,,,,,,,,,,,,,,130,,,,,,,,,,,,,9,10,,,628.682,4,up,0.889,629.582,1,0.3,"[3,1,2]",0.922765544,stimuli/card_100_transparent.png,100,4,0,4,0,1,,,,,,,,,,
,,,,5e3e54f69e51f80b67c1cc06,C,2024-10-23_20h59.25.753,Slot Machine Game,2023.1.3,Win32,60.0240096,5e3e54f69e51f80b67c1cc06,67167c13dd87566d3602e731,67199bc52fd7b11fb70346a1,,,,,,,,,,,,,,,,,,,,,,,,,,,,,,,,230,,,,,,,,,,,,,9,10,,,630.882,5,up,0.807,631.698,0.5,0.3,"[3,1,2]",0.881290257,stimuli/card_100_transparent.png,100,5,0,5,0,1,,,,,,,,,,
,,,,5e3e54f69e51f80b67c1cc06,C,2024-10-23_20h59.25.753,Slot Machine Game,2023.1.3,Win32,60.0240096,5e3e54f69e51f80b67c1cc06,67167c13dd87566d3602e731,67199bc52fd7b11fb70346a1,,,,,,,,,,,,,,,,,,,,,,,,,,,,,,,,330,,,,,,,,,,,,,9,10,,,632.498,6,up,0.852,633.365,0.5,0.3,"[3,1,2]",0.654601202,stimuli/card_100_transparent.png,100,6,0,6,0,1,,,,,,,,,,
,,,,5e3e54f69e51f80b67c1cc06,C,2024-10-23_20h59.25.753,Slot Machine Game,2023.1.3,Win32,60.0240096,5e3e54f69e51f80b67c1cc06,67167c13dd87566d3602e731,67199bc52fd7b11fb70346a1,,,,,,,,,,,,,,,,,,,,,,,,,,,,,,,,340,,,,,,,,,,,,,9,10,,,634.164,7,up,0.584,634.764,1.5,0.3,"[3,1,2]",0.168346761,stimuli/card_10_transparent.png,10,7,0,7,0,1,,,,,,,,,,
,,,,5e3e54f69e51f80b67c1cc06,C,2024-10-23_20h59.25.753,Slot Machine Game,2023.1.3,Win32,60.0240096,5e3e54f69e51f80b67c1cc06,67167c13dd87566d3602e731,67199bc52fd7b11fb70346a1,,,,,,,,,,,,,,,,,,,,,,,,,,,,,,,,440,,,,,,,,,,,,,9,10,,,636.564,8,up,0.567,637.163,1.5,0.3,"[3,1,2]",0.65142715,stimuli/card_100_transparent.png,100,8,0,8,0,1,,,,,,,,,,
,,,,5e3e54f69e51f80b67c1cc06,C,2024-10-23_20h59.25.753,Slot Machine Game,2023.1.3,Win32,60.0240096,5e3e54f69e51f80b67c1cc06,67167c13dd87566d3602e731,67199bc52fd7b11fb70346a1,,,,,,,,,,,,,,,,,,,,,,,,,,,,,,,,540,,,,,,,,,,,,,9,10,,,638.964,9,up,0.672,639.663,1.5,0.3,"[3,1,2]",0.300328018,stimuli/card_100_transparent.png,100,9,0,9,0,1,,,,,,,,,,
,,,,5e3e54f69e51f80b67c1cc06,C,2024-10-23_20h59.25.753,Slot Machine Game,2023.1.3,Win32,60.0240096,5e3e54f69e51f80b67c1cc06,67167c13dd87566d3602e731,67199bc52fd7b11fb70346a1,,,,,,,,,,,,,,,,,,,,,,,,,,,,,,,,550,,,,,,,,,,,,,9,10,,,641.463,10,up,0.567,642.063,1,0.3,"[1,3,2]",0.159675814,stimuli/card_10_transparent.png,10,10,0,10,0,1,,,,,,,,,,
,,,,5e3e54f69e51f80b67c1cc06,C,2024-10-23_20h59.25.753,Slot Machine Game,2023.1.3,Win32,60.0240096,5e3e54f69e51f80b67c1cc06,67167c13dd87566d3602e731,67199bc52fd7b11fb70346a1,,,,,,,,,,,,,,,,,,,,,,,,,,,,,,,,550,,,,,,,,,,,,,9,10,,,643.362,11,up,0.938,644.312,0.5,0.3,"[1,3,2]",0.73888213,stimuli/card_0_transparent.png,0,11,0,11,0,1,,,,,,,,,,
,,,,5e3e54f69e51f80b67c1cc06,C,2024-10-23_20h59.25.753,Slot Machine Game,2023.1.3,Win32,60.0240096,5e3e54f69e51f80b67c1cc06,67167c13dd87566d3602e731,67199bc52fd7b11fb70346a1,,,,,,,,,,,,,,,,,,,,,,,,,,,,,,,,550,,,,,,,,,,,,,9,10,,,645.112,12,up,0.758,645.895,1.5,0.3,"[1,3,2]",0.527960374,stimuli/card_0_transparent.png,0,12,0,12,0,1,,,,,,,,,,
,,,,5e3e54f69e51f80b67c1cc06,C,2024-10-23_20h59.25.753,Slot Machine Game,2023.1.3,Win32,60.0240096,5e3e54f69e51f80b67c1cc06,67167c13dd87566d3602e731,67199bc52fd7b11fb70346a1,,,,,,,,,,,,,,,,,,,,,,,,,,,,,,,,650,,,,,,,,,,,,,9,10,,,647.695,13,left,1.304,649.028,1,0.3,"[1,3,2]",0.624896797,stimuli/card_100_transparent.png,100,13,0,13,0,1,,,,,,,,,,
,,,,5e3e54f69e51f80b67c1cc06,C,2024-10-23_20h59.25.753,Slot Machine Game,2023.1.3,Win32,60.0240096,5e3e54f69e51f80b67c1cc06,67167c13dd87566d3602e731,67199bc52fd7b11fb70346a1,,,,,,,,,,,,,,,,,,,,,,,,,,,,,,,,650,,,,,,,,,,,,,9,10,,,650.328,14,left,1.118,651.478,0.5,0.3,"[1,3,2]",0.012962341,stimuli/card_0_transparent.png,0,14,0,14,0,1,,,,,,,,,,
,,,,5e3e54f69e51f80b67c1cc06,C,2024-10-23_20h59.25.753,Slot Machine Game,2023.1.3,Win32,60.0240096,5e3e54f69e51f80b67c1cc06,67167c13dd87566d3602e731,67199bc52fd7b11fb70346a1,,,,,,,,,,,,,,,,,,,,,,,,,,,,,,,,,,652.278,,,,,,,,,,,,,,,,,,,,,,,,,,,,,,,"[1110,940,930,740,290,580,820,730,650]",8,0,8,0,1,,,,
,,,,5e3e54f69e51f80b67c1cc06,C,2024-10-23_20h59.25.753,Slot Machine Game,2023.1.3,Win32,60.0240096,5e3e54f69e51f80b67c1cc06,67167c13dd87566d3602e731,67199bc52fd7b11fb70346a1,,,,,,,,,,,,,,,,,,,,,,,,,,,,,,,,0,,,,,,,,,,,,,10,3,"[15,15]","[[3,1,2],[3,1,2]]",657.28,0,left,1.274,658.577,1,0.3,"[3,1,2]",0.508570095,stimuli/card_0_transparent.png,0,0,0,0,0,1,,,,,,,,,,
,,,,5e3e54f69e51f80b67c1cc06,C,2024-10-23_20h59.25.753,Slot Machine Game,2023.1.3,Win32,60.0240096,5e3e54f69e51f80b67c1cc06,67167c13dd87566d3602e731,67199bc52fd7b11fb70346a1,,,,,,,,,,,,,,,,,,,,,,,,,,,,,,,,0,,,,,,,,,,,,,10,3,,,659.877,1,up,0.785,660.692,0.5,0.3,"[3,1,2]",0.017117271,stimuli/card_0_transparent.png,0,1,0,1,0,1,,,,,,,,,,
,,,,5e3e54f69e51f80b67c1cc06,C,2024-10-23_20h59.25.753,Slot Machine Game,2023.1.3,Win32,60.0240096,5e3e54f69e51f80b67c1cc06,67167c13dd87566d3602e731,67199bc52fd7b11fb70346a1,,,,,,,,,,,,,,,,,,,,,,,,,,,,,,,,0,,,,,,,,,,,,,10,3,,,661.493,2,right,2.45,663.975,1.5,0.3,"[3,1,2]",0.006516982,stimuli/card_0_transparent.png,0,2,0,2,0,1,,,,,,,,,,
,,,,5e3e54f69e51f80b67c1cc06,C,2024-10-23_20h59.25.753,Slot Machine Game,2023.1.3,Win32,60.0240096,5e3e54f69e51f80b67c1cc06,67167c13dd87566d3602e731,67199bc52fd7b11fb70346a1,,,,,,,,,,,,,,,,,,,,,,,,,,,,,,,,100,,,,,,,,,,,,,10,3,,,665.776,3,left,2.334,668.141,1,0.3,"[3,1,2]",0.006009348,stimuli/card_100_transparent.png,100,3,0,3,0,1,,,,,,,,,,
,,,,5e3e54f69e51f80b67c1cc06,C,2024-10-23_20h59.25.753,Slot Machine Game,2023.1.3,Win32,60.0240096,5e3e54f69e51f80b67c1cc06,67167c13dd87566d3602e731,67199bc52fd7b11fb70346a1,,,,,,,,,,,,,,,,,,,,,,,,,,,,,,,,100,,,,,,,,,,,,,10,3,,,669.441,4,left,1.217,670.69,0.5,0.3,"[3,1,2]",0.975642065,stimuli/card_0_transparent.png,0,4,0,4,0,1,,,,,,,,,,
,,,,5e3e54f69e51f80b67c1cc06,C,2024-10-23_20h59.25.753,Slot Machine Game,2023.1.3,Win32,60.0240096,5e3e54f69e51f80b67c1cc06,67167c13dd87566d3602e731,67199bc52fd7b11fb70346a1,,,,,,,,,,,,,,,,,,,,,,,,,,,,,,,,100,,,,,,,,,,,,,10,3,,,671.49,5,left,0.9,672.406,0.5,0.3,"[3,1,2]",0.481117771,stimuli/card_0_transparent.png,0,5,0,5,0,1,,,,,,,,,,
,,,,5e3e54f69e51f80b67c1cc06,C,2024-10-23_20h59.25.753,Slot Machine Game,2023.1.3,Win32,60.0240096,5e3e54f69e51f80b67c1cc06,67167c13dd87566d3602e731,67199bc52fd7b11fb70346a1,,,,,,,,,,,,,,,,,,,,,,,,,,,,,,,,200,,,,,,,,,,,,,10,3,,,673.207,6,up,0.901,674.14,1,0.3,"[3,1,2]",0.320793671,stimuli/card_100_transparent.png,100,6,0,6,0,1,,,,,,,,,,
,,,,5e3e54f69e51f80b67c1cc06,C,2024-10-23_20h59.25.753,Slot Machine Game,2023.1.3,Win32,60.0240096,5e3e54f69e51f80b67c1cc06,67167c13dd87566d3602e731,67199bc52fd7b11fb70346a1,,,,,,,,,,,,,,,,,,,,,,,,,,,,,,,,300,,,,,,,,,,,,,10,3,,,675.44,7,up,0.989,676.44,1,0.3,"[3,1,2]",0.793261216,stimuli/card_100_transparent.png,100,7,0,7,0,1,,,,,,,,,,
,,,,5e3e54f69e51f80b67c1cc06,C,2024-10-23_20h59.25.753,Slot Machine Game,2023.1.3,Win32,60.0240096,5e3e54f69e51f80b67c1cc06,67167c13dd87566d3602e731,67199bc52fd7b11fb70346a1,,,,,,,,,,,,,,,,,,,,,,,,,,,,,,,,400,,,,,,,,,,,,,10,3,,,677.74,8,up,0.94,678.705,0.5,0.3,"[3,1,2]",0.75302572,stimuli/card_100_transparent.png,100,8,0,8,0,1,,,,,,,,,,
,,,,5e3e54f69e51f80b67c1cc06,C,2024-10-23_20h59.25.753,Slot Machine Game,2023.1.3,Win32,60.0240096,5e3e54f69e51f80b67c1cc06,67167c13dd87566d3602e731,67199bc52fd7b11fb70346a1,,,,,,,,,,,,,,,,,,,,,,,,,,,,,,,,500,,,,,,,,,,,,,10,3,,,679.506,9,up,0.984,680.522,1.5,0.3,"[3,1,2]",0.79170516,stimuli/card_100_transparent.png,100,9,0,9,0,1,,,,,,,,,,
,,,,5e3e54f69e51f80b67c1cc06,C,2024-10-23_20h59.25.753,Slot Machine Game,2023.1.3,Win32,60.0240096,5e3e54f69e51f80b67c1cc06,67167c13dd87566d3602e731,67199bc52fd7b11fb70346a1,,,,,,,,,,,,,,,,,,,,,,,,,,,,,,,,600,,,,,,,,,,,,,10,3,,,682.321,10,up,0.568,682.905,1.5,0.3,"[3,1,2]",0.317516229,stimuli/card_100_transparent.png,100,10,0,10,0,1,,,,,,,,,,
,,,,5e3e54f69e51f80b67c1cc06,C,2024-10-23_20h59.25.753,Slot Machine Game,2023.1.3,Win32,60.0240096,5e3e54f69e51f80b67c1cc06,67167c13dd87566d3602e731,67199bc52fd7b11fb70346a1,,,,,,,,,,,,,,,,,,,,,,,,,,,,,,,,700,,,,,,,,,,,,,10,3,,,684.704,11,up,0.605,685.32,1.5,0.3,"[3,1,2]",0.877479144,stimuli/card_100_transparent.png,100,11,0,11,0,1,,,,,,,,,,
,,,,5e3e54f69e51f80b67c1cc06,C,2024-10-23_20h59.25.753,Slot Machine Game,2023.1.3,Win32,60.0240096,5e3e54f69e51f80b67c1cc06,67167c13dd87566d3602e731,67199bc52fd7b11fb70346a1,,,,,,,,,,,,,,,,,,,,,,,,,,,,,,,,710,,,,,,,,,,,,,10,3,,,687.121,12,up,0.533,687.688,1,0.3,"[3,1,2]",0.132868941,stimuli/card_10_transparent.png,10,12,0,12,0,1,,,,,,,,,,
,,,,5e3e54f69e51f80b67c1cc06,C,2024-10-23_20h59.25.753,Slot Machine Game,2023.1.3,Win32,60.0240096,5e3e54f69e51f80b67c1cc06,67167c13dd87566d3602e731,67199bc52fd7b11fb70346a1,,,,,,,,,,,,,,,,,,,,,,,,,,,,,,,,810,,,,,,,,,,,,,10,3,,,688.911,13,up,0.909,689.836,1,0.3,"[3,1,2]",0.709143195,stimuli/card_100_transparent.png,100,13,0,13,0,1,,,,,,,,,,
,,,,5e3e54f69e51f80b67c1cc06,C,2024-10-23_20h59.25.753,Slot Machine Game,2023.1.3,Win32,60.0240096,5e3e54f69e51f80b67c1cc06,67167c13dd87566d3602e731,67199bc52fd7b11fb70346a1,,,,,,,,,,,,,,,,,,,,,,,,,,,,,,,,910,,,,,,,,,,,,,10,3,,,691.137,14,up,1.004,692.17,1,0.3,"[3,1,2]",0.510814104,stimuli/card_100_transparent.png,100,14,0,14,0,1,,,,,,,,,,
,,,,5e3e54f69e51f80b67c1cc06,C,2024-10-23_20h59.25.753,Slot Machine Game,2023.1.3,Win32,60.0240096,5e3e54f69e51f80b67c1cc06,67167c13dd87566d3602e731,67199bc52fd7b11fb70346a1,,,,,,,,,,,,,,,,,,,,,,,,,,,,,,,,,,693.47,,,,,,,,,,,,,,,,,,,,,,,,,,,,,,,"[1110,940,930,740,290,580,820,730,650,910]",9,0,9,0,1,,,,
,,,,5e3e54f69e51f80b67c1cc06,C,2024-10-23_20h59.25.753,Slot Machine Game,2023.1.3,Win32,60.0240096,5e3e54f69e51f80b67c1cc06,67167c13dd87566d3602e731,67199bc52fd7b11fb70346a1,,,,,,,,,,,,,,,,,,,,,,,,,,,,,,,,,,,,,,,,,,,,,,,,,,,,,,,,,,,,,,,,,,,,,,,9,"[1110,940,930,740,290,580,820,730,650,910]",9.4,2024-10-23_21h11.08.288
