key_resp_welcome_started,key_resp_welcome_keys,key_resp_welcome_rt,key_resp_welcome_duration,prolific_pid,path_id,date,expName,psychopyVersion,OS,frameRate,key_resp_instruction1_started,key_resp_instruction1_keys,key_resp_instruction1_rt,key_resp_instruction1_duration,key_resp_instruction2_started,key_resp_instruction2_keys,key_resp_instruction2_rt,key_resp_instruction2_duration,key_resp_instruction3_started,key_resp_instruction3_keys,key_resp_instruction3_rt,key_resp_instruction3_duration,key_resp_instruction4_started,key_resp_instruction4_keys,key_resp_instruction4_rt,key_resp_instruction4_duration,practiceCondition,practice_reward_seqs,practice_trial_started,practice_trial_num,practice_resp_rt,practice_keypress_time,practice_resp_keys,prac_presentationInterval,practice_reward_seq,reward_img,cumulative_reward,trial_reward,practice_trials.thisRepN,practice_trials.thisTrialN,practice_trials.thisN,practice_trials.thisIndex,practice_trials.ran,block_break_started,practice_end_time,practice_end_keys,practice_end_rt,practice_end_duration,main_instruction_text_started,block_condition,block_order_indices,main_instruction_keys,main_instruction_rt,main_instruction_duration,mainConditions,block_number,block_assignment,current_condition,main_reward_seqs,main_trial_started,main_trial_num,main_trial_keys,main_trial_rt,main_trial_keypress_time,main_presentationInterval,reward_presentation_time,main_reward_seq,reward_rand_val,main_reward_img,current_reward,main_trials.thisRepN,main_trials.thisTrialN,main_trials.thisN,main_trials.thisIndex,main_trials.ran,block_reward,block.thisRepN,block.thisTrialN,block.thisN,block.thisIndex,block.ran
0.0005,space,1.6147,,mainrewardseqtest,C,2024-12-19_19h19.25.164,Slot Machine Game,2023.1.3,MacIntel,60.24096386,,,,,,,,,,,,,,,,,,,,,,,,,,,,,,,,,,,,,,,,,,,,,,,,,,,,,,,,,,,,,,,,,,,,,,,
,,,,mainrewardseqtest,C,2024-12-19_19h19.25.164,Slot Machine Game,2023.1.3,MacIntel,60.24096386,1.6353,space,0.5977,,,,,,,,,,,,,,,,,,,,,,,,,,,,,,,,,,,,,,,,,,,,,,,,,,,,,,,,,,,,,,,,,,,,
,,,,mainrewardseqtest,C,2024-12-19_19h19.25.164,Slot Machine Game,2023.1.3,MacIntel,60.24096386,,,,,2.2515,space,0.4778,,,,,,,,,,,,,,,,,,,,,,,,,,,,,,,,,,,,,,,,,,,,,,,,,,,,,,,,,,,,,,,,
,,,,mainrewardseqtest,C,2024-12-19_19h19.25.164,Slot Machine Game,2023.1.3,MacIntel,60.24096386,,,,,,,,,2.7515,space,0.5115,,,,,,,,,,,,,,,,,,,,,,,,,,,,,,,,,,,,,,,,,,,,,,,,,,,,,,,,,,,,
,,,,mainrewardseqtest,C,2024-12-19_19h19.25.164,Slot Machine Game,2023.1.3,MacIntel,60.24096386,,,,,,,,,,,,,,,,,,,,,,,,,,,,,,,,,,,,,,,,,,,,,,,,,,,,,,,,,,,,,,,,,,,,,,,
,,,,mainrewardseqtest,C,2024-12-19_19h19.25.164,Slot Machine Game,2023.1.3,MacIntel,60.24096386,,,,,,,,,,,,,158.5001,space,1.2746,0.0101,,,,,,,,,,,,,,,,,,,,,,,,,,,,,,,,,,,,,,,,,,,,,,,,,,,,,,,
,,,,mainrewardseqtest,C,2024-12-19_19h19.25.164,Slot Machine Game,2023.1.3,MacIntel,60.24096386,,,,,,,,,,,,,,,,,"[9,15]","[[2,1,3],[2,3,1]]",159.8054,0,1.1096,160.9352,right,0.5,"[2,1,3]",stimuli/card_0_transparent.png,0,0,0,0,0,0,1,,,,,,,,,,,,,,,,,,,,,,,,,,,,,,,,,,,,,,
,,,,mainrewardseqtest,C,2024-12-19_19h19.25.164,Slot Machine Game,2023.1.3,MacIntel,60.24096386,,,,,,,,,,,,,,,,,,,161.7348,1,0.739,162.5009,right,1,"[2,1,3]",stimuli/card_10_transparent.png,10,10,1,0,1,0,1,,,,,,,,,,,,,,,,,,,,,,,,,,,,,,,,,,,,,,
,,,,mainrewardseqtest,C,2024-12-19_19h19.25.164,Slot Machine Game,2023.1.3,MacIntel,60.24096386,,,,,,,,,,,,,,,,,,,163.844,2,0.5739,164.4319,up,1.5,"[2,1,3]",stimuli/card_0_transparent.png,10,0,2,0,2,0,1,,,,,,,,,,,,,,,,,,,,,,,,,,,,,,,,,,,,,,
,,,,mainrewardseqtest,C,2024-12-19_19h19.25.164,Slot Machine Game,2023.1.3,MacIntel,60.24096386,,,,,,,,,,,,,,,,,,,166.2307,3,0.5857,166.8457,left,1.5,"[2,1,3]",stimuli/card_10_transparent.png,20,10,3,0,3,0,1,,,,,,,,,,,,,,,,,,,,,,,,,,,,,,,,,,,,,,
,,,,mainrewardseqtest,C,2024-12-19_19h19.25.164,Slot Machine Game,2023.1.3,MacIntel,60.24096386,,,,,,,,,,,,,,,,,,,168.6445,4,0.52,169.1938,up,1,"[2,1,3]",stimuli/card_100_transparent.png,120,100,4,0,4,0,1,,,,,,,,,,,,,,,,,,,,,,,,,,,,,,,,,,,,,,
,,,,mainrewardseqtest,C,2024-12-19_19h19.25.164,Slot Machine Game,2023.1.3,MacIntel,60.24096386,,,,,,,,,,,,,,,,,,,170.4928,5,,,,1.5,"[2,1,3]",,,,5,0,5,0,1,,,,,,,,,,,,,,,,,,,,,,,,,,,,,,,,,,,,,,
,,,,mainrewardseqtest,C,2024-12-19_19h19.25.164,Slot Machine Game,2023.1.3,MacIntel,60.24096386,,,,,,,,,,,,,,,,,,,176.0074,6,,,,1,"[2,1,3]",,,,6,0,6,0,1,,,,,,,,,,,,,,,,,,,,,,,,,,,,,,,,,,,,,,
,,,,mainrewardseqtest,C,2024-12-19_19h19.25.164,Slot Machine Game,2023.1.3,MacIntel,60.24096386,,,,,,,,,,,,,,,,,,,181.5184,7,,,,0.5,"[2,1,3]",,,,7,0,7,0,1,,,,,,,,,,,,,,,,,,,,,,,,,,,,,,,,,,,,,,
,,,,mainrewardseqtest,C,2024-12-19_19h19.25.164,Slot Machine Game,2023.1.3,MacIntel,60.24096386,,,,,,,,,,,,,,,,,,,187.0275,8,,,,0.5,"[2,1,3]",,,,8,0,8,0,1,,,,,,,,,,,,,,,,,,,,,,,,,,,,,,,,,,,,,,
,,,,mainrewardseqtest,C,2024-12-19_19h19.25.164,Slot Machine Game,2023.1.3,MacIntel,60.24096386,,,,,,,,,,,,,,,,,,,192.5381,9,,,,1.5,"[2,3,1]",,,,9,0,9,0,1,,,,,,,,,,,,,,,,,,,,,,,,,,,,,,,,,,,,,,
,,,,mainrewardseqtest,C,2024-12-19_19h19.25.164,Slot Machine Game,2023.1.3,MacIntel,60.24096386,,,,,,,,,,,,,,,,,,,198.0505,10,,,,1.5,"[2,3,1]",,,,10,0,10,0,1,,,,,,,,,,,,,,,,,,,,,,,,,,,,,,,,,,,,,,
,,,,mainrewardseqtest,C,2024-12-19_19h19.25.164,Slot Machine Game,2023.1.3,MacIntel,60.24096386,,,,,,,,,,,,,,,,,,,203.5627,11,,,,0.5,"[2,3,1]",,,,11,0,11,0,1,,,,,,,,,,,,,,,,,,,,,,,,,,,,,,,,,,,,,,
,,,,mainrewardseqtest,C,2024-12-19_19h19.25.164,Slot Machine Game,2023.1.3,MacIntel,60.24096386,,,,,,,,,,,,,,,,,,,209.0726,12,,,,0.5,"[2,3,1]",,,,12,0,12,0,1,,,,,,,,,,,,,,,,,,,,,,,,,,,,,,,,,,,,,,
,,,,mainrewardseqtest,C,2024-12-19_19h19.25.164,Slot Machine Game,2023.1.3,MacIntel,60.24096386,,,,,,,,,,,,,,,,,,,214.5858,13,,,,0.5,"[2,3,1]",,,,13,0,13,0,1,,,,,,,,,,,,,,,,,,,,,,,,,,,,,,,,,,,,,,
,,,,mainrewardseqtest,C,2024-12-19_19h19.25.164,Slot Machine Game,2023.1.3,MacIntel,60.24096386,,,,,,,,,,,,,,,,,,,220.0952,14,,,,0.5,"[2,3,1]",,,,14,0,14,0,1,,,,,,,,,,,,,,,,,,,,,,,,,,,,,,,,,,,,,,
,,,,mainrewardseqtest,C,2024-12-19_19h19.25.164,Slot Machine Game,2023.1.3,MacIntel,60.24096386,,,,,,,,,,,,,,,,,"[6,15]","[[1,3,2],[3,1,2]]",230.64,0,1.2047,231.868,left,1,"[1,3,2]",stimuli/card_100_transparent.png,100,100,0,0,0,0,1,225.6257,,,,,,,,,,,,,,,,,,,,,,,,,,,,,,,,,,,,,
,,,,mainrewardseqtest,C,2024-12-19_19h19.25.164,Slot Machine Game,2023.1.3,MacIntel,60.24096386,,,,,,,,,,,,,,,,,,,233.1675,1,0.5921,233.7821,up,0.5,"[1,3,2]",stimuli/card_0_transparent.png,100,0,1,0,1,0,1,,,,,,,,,,,,,,,,,,,,,,,,,,,,,,,,,,,,,,
,,,,mainrewardseqtest,C,2024-12-19_19h19.25.164,Slot Machine Game,2023.1.3,MacIntel,60.24096386,,,,,,,,,,,,,,,,,,,234.5831,2,,,,0.5,"[1,3,2]",,,,2,0,2,0,1,,,,,,,,,,,,,,,,,,,,,,,,,,,,,,,,,,,,,,
,,,,mainrewardseqtest,C,2024-12-19_19h19.25.164,Slot Machine Game,2023.1.3,MacIntel,60.24096386,,,,,,,,,,,,,,,,,,,240.0941,3,,,,0.5,"[1,3,2]",,,,3,0,3,0,1,,,,,,,,,,,,,,,,,,,,,,,,,,,,,,,,,,,,,,
,,,,mainrewardseqtest,C,2024-12-19_19h19.25.164,Slot Machine Game,2023.1.3,MacIntel,60.24096386,,,,,,,,,,,,,,,,,,,245.605,4,,,,1,"[1,3,2]",,,,4,0,4,0,1,,,,,,,,,,,,,,,,,,,,,,,,,,,,,,,,,,,,,,
,,,,mainrewardseqtest,C,2024-12-19_19h19.25.164,Slot Machine Game,2023.1.3,MacIntel,60.24096386,,,,,,,,,,,,,,,,,,,251.1174,5,,,,0.5,"[1,3,2]",,,,5,0,5,0,1,,,,,,,,,,,,,,,,,,,,,,,,,,,,,,,,,,,,,,
,,,,mainrewardseqtest,C,2024-12-19_19h19.25.164,Slot Machine Game,2023.1.3,MacIntel,60.24096386,,,,,,,,,,,,,,,,,,,256.6295,6,,,,0.5,"[3,1,2]",,,,6,0,6,0,1,,,,,,,,,,,,,,,,,,,,,,,,,,,,,,,,,,,,,,
,,,,mainrewardseqtest,C,2024-12-19_19h19.25.164,Slot Machine Game,2023.1.3,MacIntel,60.24096386,,,,,,,,,,,,,,,,,,,262.1409,7,,,,1,"[3,1,2]",,,,7,0,7,0,1,,,,,,,,,,,,,,,,,,,,,,,,,,,,,,,,,,,,,,
,,,,mainrewardseqtest,C,2024-12-19_19h19.25.164,Slot Machine Game,2023.1.3,MacIntel,60.24096386,,,,,,,,,,,,,,,,,,,267.6507,8,,,,0.5,"[3,1,2]",,,,8,0,8,0,1,,,,,,,,,,,,,,,,,,,,,,,,,,,,,,,,,,,,,,
,,,,mainrewardseqtest,C,2024-12-19_19h19.25.164,Slot Machine Game,2023.1.3,MacIntel,60.24096386,,,,,,,,,,,,,,,,,,,273.1619,9,,,,1,"[3,1,2]",,,,9,0,9,0,1,,,,,,,,,,,,,,,,,,,,,,,,,,,,,,,,,,,,,,
,,,,mainrewardseqtest,C,2024-12-19_19h19.25.164,Slot Machine Game,2023.1.3,MacIntel,60.24096386,,,,,,,,,,,,,,,,,,,278.6754,10,,,,1.5,"[3,1,2]",,,,10,0,10,0,1,,,,,,,,,,,,,,,,,,,,,,,,,,,,,,,,,,,,,,
,,,,mainrewardseqtest,C,2024-12-19_19h19.25.164,Slot Machine Game,2023.1.3,MacIntel,60.24096386,,,,,,,,,,,,,,,,,,,284.1866,11,,,,0.5,"[3,1,2]",,,,11,0,11,0,1,,,,,,,,,,,,,,,,,,,,,,,,,,,,,,,,,,,,,,
,,,,mainrewardseqtest,C,2024-12-19_19h19.25.164,Slot Machine Game,2023.1.3,MacIntel,60.24096386,,,,,,,,,,,,,,,,,,,289.698,12,,,,1.5,"[3,1,2]",,,,12,0,12,0,1,,,,,,,,,,,,,,,,,,,,,,,,,,,,,,,,,,,,,,
,,,,mainrewardseqtest,C,2024-12-19_19h19.25.164,Slot Machine Game,2023.1.3,MacIntel,60.24096386,,,,,,,,,,,,,,,,,,,295.2079,13,,,,1.5,"[3,1,2]",,,,13,0,13,0,1,,,,,,,,,,,,,,,,,,,,,,,,,,,,,,,,,,,,,,
,,,,mainrewardseqtest,C,2024-12-19_19h19.25.164,Slot Machine Game,2023.1.3,MacIntel,60.24096386,,,,,,,,,,,,,,,,,,,300.7203,14,,,,1,"[3,1,2]",,,,14,0,14,0,1,,,,,,,,,,,,,,,,,,,,,,,,,,,,,,,,,,,,,,
,,,,mainrewardseqtest,C,2024-12-19_19h19.25.164,Slot Machine Game,2023.1.3,MacIntel,60.24096386,,,,,,,,,,,,,,,,,,,,,,,,,,,,,,,,,,306.2326,311.2284,space,17.9148,,,,,,,,,,,,,,,,,,,,,,,,,,,,,,,,,,
,,,,mainrewardseqtest,C,2024-12-19_19h19.25.164,Slot Machine Game,2023.1.3,MacIntel,60.24096386,,,,,,,,,,,,,,,,,,,,,,,,,,,,,,,,,,,,,,,329.16,2,"[2,4,7,0,1,3,9,6,8,5]",space,1.46,,,,,,,,,,,,,,,,,,,,,,,,,,,,
,,,,mainrewardseqtest,C,2024-12-19_19h19.25.164,Slot Machine Game,2023.1.3,MacIntel,60.24096386,,,,,,,,,,,,,,,,,,,,,,,,,,,100,,,,,,,,,,,,,,,,,,"[[12,15],[6,15],[15,15],[7,15],[5,15],[4,10,15],[9,15],[11,15],[8,15],[10,15]]",1,3,"[15,15]","[[3,1,2],[3,1,2]]",330.6572,0,up,0.7243,331.4076,0.5,0.3,"[3,1,2]",0.745688195,stimuli/card_100_transparent.png,100,0,0,0,0,1,,,,,,
,,,,mainrewardseqtest,C,2024-12-19_19h19.25.164,Slot Machine Game,2023.1.3,MacIntel,60.24096386,,,,,,,,,,,,,,,,,,,,,,,,,,,100,,,,,,,,,,,,,,,,,,,1,3,,,332.2065,1,,,,1,0.3,"[3,1,2]",0.017460248,stimuli/card_100_transparent.png,0,1,0,1,0,1,,,,,,
,,,,mainrewardseqtest,C,2024-12-19_19h19.25.164,Slot Machine Game,2023.1.3,MacIntel,60.24096386,,,,,,,,,,,,,,,,,,,,,,,,,,,110,,,,,,,,,,,,,,,,,,,1,3,,,337.7223,2,right,0.833,338.5833,1.5,0.3,"[3,1,2]",0.402903505,stimuli/card_10_transparent.png,10,2,0,2,0,1,,,,,,
,,,,mainrewardseqtest,C,2024-12-19_19h19.25.164,Slot Machine Game,2023.1.3,MacIntel,60.24096386,,,,,,,,,,,,,,,,,,,,,,,,,,,110,,,,,,,,,,,,,,,,,,,1,3,,,340.3822,3,up,0.6708,341.0808,1.5,0.3,"[3,1,2]",0.000418143,stimuli/card_0_transparent.png,0,3,0,3,0,1,,,,,,
,,,,mainrewardseqtest,C,2024-12-19_19h19.25.164,Slot Machine Game,2023.1.3,MacIntel,60.24096386,,,,,,,,,,,,,,,,,,,,,,,,,,,110,,,,,,,,,,,,,,,,,,,1,3,,,342.8801,4,left,0.5067,343.4118,1,0.3,"[3,1,2]",0.727700851,stimuli/card_0_transparent.png,0,4,0,4,0,1,,,,,,
,,,,mainrewardseqtest,C,2024-12-19_19h19.25.164,Slot Machine Game,2023.1.3,MacIntel,60.24096386,,,,,,,,,,,,,,,,,,,,,,,,,,,110,,,,,,,,,,,,,,,,,,,1,3,,,344.7109,5,,,,1,0.3,"[3,1,2]",0.152001831,stimuli/card_0_transparent.png,0,5,0,5,0,1,,,,,,
,,,,mainrewardseqtest,C,2024-12-19_19h19.25.164,Slot Machine Game,2023.1.3,MacIntel,60.24096386,,,,,,,,,,,,,,,,,,,,,,,,,,,110,,,,,,,,,,,,,,,,,,,1,3,,,350.2253,6,,,,1,0.3,"[3,1,2]",0.218927456,stimuli/card_0_transparent.png,0,6,0,6,0,1,,,,,,
,,,,mainrewardseqtest,C,2024-12-19_19h19.25.164,Slot Machine Game,2023.1.3,MacIntel,60.24096386,,,,,,,,,,,,,,,,,,,,,,,,,,,110,,,,,,,,,,,,,,,,,,,1,3,,,355.7375,7,,,,1,0.3,"[3,1,2]",0.105744164,stimuli/card_0_transparent.png,0,7,0,7,0,1,,,,,,
,,,,mainrewardseqtest,C,2024-12-19_19h19.25.164,Slot Machine Game,2023.1.3,MacIntel,60.24096386,,,,,,,,,,,,,,,,,,,,,,,,,,,110,,,,,,,,,,,,,,,,,,,1,3,,,361.2466,8,,,,0.5,0.3,"[3,1,2]",0.402840426,stimuli/card_0_transparent.png,0,8,0,8,0,1,,,,,,
,,,,mainrewardseqtest,C,2024-12-19_19h19.25.164,Slot Machine Game,2023.1.3,MacIntel,60.24096386,,,,,,,,,,,,,,,,,,,,,,,,,,,110,,,,,,,,,,,,,,,,,,,1,3,,,366.7586,9,,,,0.5,0.3,"[3,1,2]",0.840780927,stimuli/card_0_transparent.png,0,9,0,9,0,1,,,,,,
,,,,mainrewardseqtest,C,2024-12-19_19h19.25.164,Slot Machine Game,2023.1.3,MacIntel,60.24096386,,,,,,,,,,,,,,,,,,,,,,,,,,,110,,,,,,,,,,,,,,,,,,,1,3,,,372.2703,10,,,,0.5,0.3,"[3,1,2]",0.457268105,stimuli/card_0_transparent.png,0,10,0,10,0,1,,,,,,
,,,,mainrewardseqtest,C,2024-12-19_19h19.25.164,Slot Machine Game,2023.1.3,MacIntel,60.24096386,,,,,,,,,,,,,,,,,,,,,,,,,,,110,,,,,,,,,,,,,,,,,,,1,3,,,377.7829,11,,,,1.5,0.3,"[3,1,2]",0.149908176,stimuli/card_0_transparent.png,0,11,0,11,0,1,,,,,,
,,,,mainrewardseqtest,C,2024-12-19_19h19.25.164,Slot Machine Game,2023.1.3,MacIntel,60.24096386,,,,,,,,,,,,,,,,,,,,,,,,,,,110,,,,,,,,,,,,,,,,,,,1,3,,,383.2939,12,,,,1.5,0.3,"[3,1,2]",0.79246462,stimuli/card_0_transparent.png,0,12,0,12,0,1,,,,,,
,,,,mainrewardseqtest,C,2024-12-19_19h19.25.164,Slot Machine Game,2023.1.3,MacIntel,60.24096386,,,,,,,,,,,,,,,,,,,,,,,,,,,110,,,,,,,,,,,,,,,,,,,1,3,,,388.8054,13,,,,0.5,0.3,"[3,1,2]",0.661623854,stimuli/card_0_transparent.png,0,13,0,13,0,1,,,,,,
,,,,mainrewardseqtest,C,2024-12-19_19h19.25.164,Slot Machine Game,2023.1.3,MacIntel,60.24096386,,,,,,,,,,,,,,,,,,,,,,,,,,,110,,,,,,,,,,,,,,,,,,,1,3,,,394.3154,14,,,,1,0.3,"[3,1,2]",0.90288686,stimuli/card_0_transparent.png,0,14,0,14,0,1,,,,,,
,,,,mainrewardseqtest,C,2024-12-19_19h19.25.164,Slot Machine Game,2023.1.3,MacIntel,60.24096386,,,,,,,,,,,,,,,,,,,,,,,,,,,,,,,,,,399.8277,,,,,,,,,,,,,,,,,,,,,,,,,,,,,,,,[110],0,0,0,0,1
,,,,mainrewardseqtest,C,2024-12-19_19h19.25.164,Slot Machine Game,2023.1.3,MacIntel,60.24096386,,,,,,,,,,,,,,,,,,,,,,,,,,,0,,,,,,,,,,,,,,,,,,"[[12,15],[6,15],[15,15],[7,15],[5,15],[4,10,15],[9,15],[11,15],[8,15],[10,15]]",2,5,"[5,15]","[[1,2,3],[3,1,2]]",404.8359,0,,,,1.5,0.3,"[1,2,3]",0.222737101,stimuli/card_0_transparent.png,0,0,0,0,0,1,,,,,,
,,,,mainrewardseqtest,C,2024-12-19_19h19.25.164,Slot Machine Game,2023.1.3,MacIntel,60.24096386,,,,,,,,,,,,,,,,,,,,,,,,,,,0,,,,,,,,,,,,,,,,,,,2,5,,,410.354,1,,,,0.5,0.3,"[1,2,3]",0.31277136,stimuli/card_0_transparent.png,0,1,0,1,0,1,,,,,,
,,,,mainrewardseqtest,C,2024-12-19_19h19.25.164,Slot Machine Game,2023.1.3,MacIntel,60.24096386,,,,,,,,,,,,,,,,,,,,,,,,,,,0,,,,,,,,,,,,,,,,,,,2,5,,,415.8604,2,,,,1,0.3,"[1,2,3]",0.71069521,stimuli/card_0_transparent.png,0,2,0,2,0,1,,,,,,
,,,,mainrewardseqtest,C,2024-12-19_19h19.25.164,Slot Machine Game,2023.1.3,MacIntel,60.24096386,,,,,,,,,,,,,,,,,,,,,,,,,,,0,,,,,,,,,,,,,,,,,,,2,5,,,421.374,3,,,,1.5,0.3,"[1,2,3]",0.673235168,stimuli/card_0_transparent.png,0,3,0,3,0,1,,,,,,
,,,,mainrewardseqtest,C,2024-12-19_19h19.25.164,Slot Machine Game,2023.1.3,MacIntel,60.24096386,,,,,,,,,,,,,,,,,,,,,,,,,,,0,,,,,,,,,,,,,,,,,,,2,5,,,426.8862,4,,,,1.5,0.3,"[1,2,3]",0.852615698,stimuli/card_0_transparent.png,0,4,0,4,0,1,,,,,,
,,,,mainrewardseqtest,C,2024-12-19_19h19.25.164,Slot Machine Game,2023.1.3,MacIntel,60.24096386,,,,,,,,,,,,,,,,,,,,,,,,,,,0,,,,,,,,,,,,,,,,,,,2,5,,,432.3977,5,,,,1,0.3,"[3,1,2]",0.667719487,stimuli/card_0_transparent.png,0,5,0,5,0,1,,,,,,
,,,,mainrewardseqtest,C,2024-12-19_19h19.25.164,Slot Machine Game,2023.1.3,MacIntel,60.24096386,,,,,,,,,,,,,,,,,,,,,,,,,,,0,,,,,,,,,,,,,,,,,,,2,5,,,437.9084,6,,,,0.5,0.3,"[3,1,2]",0.091696576,stimuli/card_0_transparent.png,0,6,0,6,0,1,,,,,,
,,,,mainrewardseqtest,C,2024-12-19_19h19.25.164,Slot Machine Game,2023.1.3,MacIntel,60.24096386,,,,,,,,,,,,,,,,,,,,,,,,,,,0,,,,,,,,,,,,,,,,,,,2,5,,,443.4193,7,,,,1.5,0.3,"[3,1,2]",0.674945038,stimuli/card_0_transparent.png,0,7,0,7,0,1,,,,,,
,,,,mainrewardseqtest,C,2024-12-19_19h19.25.164,Slot Machine Game,2023.1.3,MacIntel,60.24096386,,,,,,,,,,,,,,,,,,,,,,,,,,,0,,,,,,,,,,,,,,,,,,,2,5,,,448.9321,8,,,,0.5,0.3,"[3,1,2]",0.958901105,stimuli/card_0_transparent.png,0,8,0,8,0,1,,,,,,
,,,,mainrewardseqtest,C,2024-12-19_19h19.25.164,Slot Machine Game,2023.1.3,MacIntel,60.24096386,,,,,,,,,,,,,,,,,,,,,,,,,,,0,,,,,,,,,,,,,,,,,,,2,5,,,454.4421,9,,,,1.5,0.3,"[3,1,2]",0.654404462,stimuli/card_0_transparent.png,0,9,0,9,0,1,,,,,,
,,,,mainrewardseqtest,C,2024-12-19_19h19.25.164,Slot Machine Game,2023.1.3,MacIntel,60.24096386,,,,,,,,,,,,,,,,,,,,,,,,,,,0,,,,,,,,,,,,,,,,,,,2,5,,,459.953,10,,,,1,0.3,"[3,1,2]",0.824480155,stimuli/card_0_transparent.png,0,10,0,10,0,1,,,,,,
,,,,mainrewardseqtest,C,2024-12-19_19h19.25.164,Slot Machine Game,2023.1.3,MacIntel,60.24096386,,,,,,,,,,,,,,,,,,,,,,,,,,,0,,,,,,,,,,,,,,,,,,,2,5,,,465.4656,11,,,,1,0.3,"[3,1,2]",0.357960943,stimuli/card_0_transparent.png,0,11,0,11,0,1,,,,,,
,,,,mainrewardseqtest,C,2024-12-19_19h19.25.164,Slot Machine Game,2023.1.3,MacIntel,60.24096386,,,,,,,,,,,,,,,,,,,,,,,,,,,0,,,,,,,,,,,,,,,,,,,2,5,,,470.9776,12,,,,1,0.3,"[3,1,2]",0.194751644,stimuli/card_0_transparent.png,0,12,0,12,0,1,,,,,,
,,,,mainrewardseqtest,C,2024-12-19_19h19.25.164,Slot Machine Game,2023.1.3,MacIntel,60.24096386,,,,,,,,,,,,,,,,,,,,,,,,,,,0,,,,,,,,,,,,,,,,,,,2,5,,,476.4898,13,,,,1,0.3,"[3,1,2]",0.840602217,stimuli/card_0_transparent.png,0,13,0,13,0,1,,,,,,
,,,,mainrewardseqtest,C,2024-12-19_19h19.25.164,Slot Machine Game,2023.1.3,MacIntel,60.24096386,,,,,,,,,,,,,,,,,,,,,,,,,,,0,,,,,,,,,,,,,,,,,,,2,5,,,482.0004,14,,,,0.5,0.3,"[3,1,2]",0.979844573,stimuli/card_0_transparent.png,0,14,0,14,0,1,,,,,,
,,,,mainrewardseqtest,C,2024-12-19_19h19.25.164,Slot Machine Game,2023.1.3,MacIntel,60.24096386,,,,,,,,,,,,,,,,,,,,,,,,,,,,,,,,,,487.5125,,,,,,,,,,,,,,,,,,,,,,,,,,,,,,,,"[110,0]",1,0,1,0,1
