key_resp_welcome_started,key_resp_welcome_keys,key_resp_welcome_rt,key_resp_welcome_duration,prolific_pid,path_id,date,expName,psychopyVersion,OS,frameRate,key_resp_instruction1_started,key_resp_instruction1_keys,key_resp_instruction1_rt,key_resp_instruction1_duration,key_resp_instruction2_started,key_resp_instruction2_keys,key_resp_instruction2_rt,key_resp_instruction2_duration,key_resp_instruction3_started,key_resp_instruction3_keys,key_resp_instruction3_rt,key_resp_instruction3_duration,key_resp_instruction4_started,key_resp_instruction4_keys,key_resp_instruction4_rt,key_resp_instruction4_duration,practiceCondition,practice_reward_seqs,practice_trial_started,practice_trial_num,practice_resp_rt,practice_keypress_time,practice_resp_keys,prac_presentationInterval,practice_reward_seq,reward_img,cumulative_reward,trial_reward,practice_trials.thisRepN,practice_trials.thisTrialN,practice_trials.thisN,practice_trials.thisIndex,practice_trials.ran,block_break_started,practice_end_time,practice_end_keys,practice_end_rt,practice_end_duration,main_instruction_text_started,block_condition,block_order_indices,main_instruction_keys,main_instruction_rt,main_instruction_duration,block_number,block_assignment,current_condition,main_reward_seqs,main_trial_started,main_trial_num,main_trial_keys,main_trial_rt,main_trial_keypress_time,main_presentationInterval,reward_presentation_time,main_reward_seq,reward_rand_val,main_reward_img,current_reward,main_trials.thisRepN,main_trials.thisTrialN,main_trials.thisN,main_trials.thisIndex,main_trials.ran,block_reward,block.thisRepN,block.thisTrialN,block.thisN,block.thisIndex,block.ran,block_reward.length,block_reward_all,reward_amount,date_end_task
0,s,1.284,,652044c7e76a0e2c9f6f5e94,B,2024-08-28_14h41.10.416,Slot Machine Game,2023.1.3,Win32,59.95203837,,,,,,,,,,,,,,,,,,,,,,,,,,,,,,,,,,,,,,,,,,,,,,,,,,,,,,,,,,,,,,,,,,,,,,,,,,
,,,,652044c7e76a0e2c9f6f5e94,B,2024-08-28_14h41.10.416,Slot Machine Game,2023.1.3,Win32,59.95203837,1.306,s,0.887,,,,,,,,,,,,,,,,,,,,,,,,,,,,,,,,,,,,,,,,,,,,,,,,,,,,,,,,,,,,,,,,,,,,,,,
,,,,652044c7e76a0e2c9f6f5e94,B,2024-08-28_14h41.10.416,Slot Machine Game,2023.1.3,Win32,59.95203837,,,,,2.225,s,0.454,,,,,,,,,,,,,,,,,,,,,,,,,,,,,,,,,,,,,,,,,,,,,,,,,,,,,,,,,,,,,,,,,,,
,,,,652044c7e76a0e2c9f6f5e94,B,2024-08-28_14h41.10.416,Slot Machine Game,2023.1.3,Win32,59.95203837,,,,,,,,,2.709,s,0.509,,,,,,,,,,,,,,,,,,,,,,,,,,,,,,,,,,,,,,,,,,,,,,,,,,,,,,,,,,,,,,,
,,,,652044c7e76a0e2c9f6f5e94,B,2024-08-28_14h41.10.416,Slot Machine Game,2023.1.3,Win32,59.95203837,,,,,,,,,,,,,,,,,,,,,,,,,,,,,,,,,,,,,,,,,,,,,,,,,,,,,,,,,,,,,,,,,,,,,,,,,,
,,,,652044c7e76a0e2c9f6f5e94,B,2024-08-28_14h41.10.416,Slot Machine Game,2023.1.3,Win32,59.95203837,,,,,,,,,,,,,144.844,w,2.162,,,,,,,,,,,,,,,,,,,,,,,,,,,,,,,,,,,,,,,,,,,,,,,,,,,,,,,,,,,
,,,,652044c7e76a0e2c9f6f5e94,B,2024-08-28_14h41.10.416,Slot Machine Game,2023.1.3,Win32,59.95203837,,,,,,,,,,,,,,,,,"[9,15]","[[2,1,3],[2,3,1]]",147.036,0,1.229,148.284,right,0.5,"[2,1,3]",stimuli/card_0_transparent.png,0,0,0,0,0,0,1,,,,,,,,,,,,,,,,,,,,,,,,,,,,,,,,,,,,,,,,,
,,,,652044c7e76a0e2c9f6f5e94,B,2024-08-28_14h41.10.416,Slot Machine Game,2023.1.3,Win32,59.95203837,,,,,,,,,,,,,,,,,,,149.087,1,4.495,153.595,left,1,"[2,1,3]",stimuli/card_10_transparent.png,10,10,1,0,1,0,1,,,,,,,,,,,,,,,,,,,,,,,,,,,,,,,,,,,,,,,,,
,,,,652044c7e76a0e2c9f6f5e94,B,2024-08-28_14h41.10.416,Slot Machine Game,2023.1.3,Win32,59.95203837,,,,,,,,,,,,,,,,,,,154.898,2,0.834,155.749,up,0.5,"[2,1,3]",stimuli/card_100_transparent.png,110,100,2,0,2,0,1,,,,,,,,,,,,,,,,,,,,,,,,,,,,,,,,,,,,,,,,,
,,,,652044c7e76a0e2c9f6f5e94,B,2024-08-28_14h41.10.416,Slot Machine Game,2023.1.3,Win32,59.95203837,,,,,,,,,,,,,,,,,,,156.551,3,0.622,157.186,up,1,"[2,1,3]",stimuli/card_100_transparent.png,210,100,3,0,3,0,1,,,,,,,,,,,,,,,,,,,,,,,,,,,,,,,,,,,,,,,,,
,,,,652044c7e76a0e2c9f6f5e94,B,2024-08-28_14h41.10.416,Slot Machine Game,2023.1.3,Win32,59.95203837,,,,,,,,,,,,,,,,,,,158.487,4,2.868,161.359,up,0.5,"[2,1,3]",stimuli/card_100_transparent.png,310,100,4,0,4,0,1,,,,,,,,,,,,,,,,,,,,,,,,,,,,,,,,,,,,,,,,,
,,,,652044c7e76a0e2c9f6f5e94,B,2024-08-28_14h41.10.416,Slot Machine Game,2023.1.3,Win32,59.95203837,,,,,,,,,,,,,,,,,,,162.162,5,2.207,164.383,up,0.5,"[2,1,3]",stimuli/card_100_transparent.png,410,100,5,0,5,0,1,,,,,,,,,,,,,,,,,,,,,,,,,,,,,,,,,,,,,,,,,
,,,,652044c7e76a0e2c9f6f5e94,B,2024-08-28_14h41.10.416,Slot Machine Game,2023.1.3,Win32,59.95203837,,,,,,,,,,,,,,,,,,,165.185,6,0.888,166.102,up,0.5,"[2,1,3]",stimuli/card_100_transparent.png,510,100,6,0,6,0,1,,,,,,,,,,,,,,,,,,,,,,,,,,,,,,,,,,,,,,,,,
,,,,652044c7e76a0e2c9f6f5e94,B,2024-08-28_14h41.10.416,Slot Machine Game,2023.1.3,Win32,59.95203837,,,,,,,,,,,,,,,,,,,166.904,7,1.146,168.071,up,1,"[2,1,3]",stimuli/card_100_transparent.png,610,100,7,0,7,0,1,,,,,,,,,,,,,,,,,,,,,,,,,,,,,,,,,,,,,,,,,
,,,,652044c7e76a0e2c9f6f5e94,B,2024-08-28_14h41.10.416,Slot Machine Game,2023.1.3,Win32,59.95203837,,,,,,,,,,,,,,,,,,,169.375,8,0.945,170.326,up,1,"[2,1,3]",stimuli/card_100_transparent.png,710,100,8,0,8,0,1,,,,,,,,,,,,,,,,,,,,,,,,,,,,,,,,,,,,,,,,,
,,,,652044c7e76a0e2c9f6f5e94,B,2024-08-28_14h41.10.416,Slot Machine Game,2023.1.3,Win32,59.95203837,,,,,,,,,,,,,,,,,,,171.629,9,0.978,172.613,up,0.5,"[2,3,1]",stimuli/card_0_transparent.png,710,0,9,0,9,0,1,,,,,,,,,,,,,,,,,,,,,,,,,,,,,,,,,,,,,,,,,
,,,,652044c7e76a0e2c9f6f5e94,B,2024-08-28_14h41.10.416,Slot Machine Game,2023.1.3,Win32,59.95203837,,,,,,,,,,,,,,,,,,,173.416,10,0.545,173.967,up,1,"[2,3,1]",stimuli/card_0_transparent.png,710,0,10,0,10,0,1,,,,,,,,,,,,,,,,,,,,,,,,,,,,,,,,,,,,,,,,,
,,,,652044c7e76a0e2c9f6f5e94,B,2024-08-28_14h41.10.416,Slot Machine Game,2023.1.3,Win32,59.95203837,,,,,,,,,,,,,,,,,,,175.269,11,1.167,176.455,right,0.5,"[2,3,1]",stimuli/card_100_transparent.png,810,100,11,0,11,0,1,,,,,,,,,,,,,,,,,,,,,,,,,,,,,,,,,,,,,,,,,
,,,,652044c7e76a0e2c9f6f5e94,B,2024-08-28_14h41.10.416,Slot Machine Game,2023.1.3,Win32,59.95203837,,,,,,,,,,,,,,,,,,,177.256,12,0.718,177.991,right,1,"[2,3,1]",stimuli/card_100_transparent.png,910,100,12,0,12,0,1,,,,,,,,,,,,,,,,,,,,,,,,,,,,,,,,,,,,,,,,,
,,,,652044c7e76a0e2c9f6f5e94,B,2024-08-28_14h41.10.416,Slot Machine Game,2023.1.3,Win32,59.95203837,,,,,,,,,,,,,,,,,,,179.293,13,0.563,179.861,right,0.5,"[2,3,1]",stimuli/card_10_transparent.png,920,10,13,0,13,0,1,,,,,,,,,,,,,,,,,,,,,,,,,,,,,,,,,,,,,,,,,
,,,,652044c7e76a0e2c9f6f5e94,B,2024-08-28_14h41.10.416,Slot Machine Game,2023.1.3,Win32,59.95203837,,,,,,,,,,,,,,,,,,,180.663,14,0.807,181.481,up,0.5,"[2,3,1]",stimuli/card_0_transparent.png,920,0,14,0,14,0,1,,,,,,,,,,,,,,,,,,,,,,,,,,,,,,,,,,,,,,,,,
,,,,652044c7e76a0e2c9f6f5e94,B,2024-08-28_14h41.10.416,Slot Machine Game,2023.1.3,Win32,59.95203837,,,,,,,,,,,,,,,,,"[6,15]","[[1,3,2],[3,1,2]]",187.277,0,1.519,188.828,right,1.5,"[1,3,2]",stimuli/card_10_transparent.png,10,10,0,0,0,0,1,182.283,,,,,,,,,,,,,,,,,,,,,,,,,,,,,,,,,,,,,,,,
,,,,652044c7e76a0e2c9f6f5e94,B,2024-08-28_14h41.10.416,Slot Machine Game,2023.1.3,Win32,59.95203837,,,,,,,,,,,,,,,,,,,190.632,1,1.888,192.535,left,1,"[1,3,2]",stimuli/card_100_transparent.png,110,100,1,0,1,0,1,,,,,,,,,,,,,,,,,,,,,,,,,,,,,,,,,,,,,,,,,
,,,,652044c7e76a0e2c9f6f5e94,B,2024-08-28_14h41.10.416,Slot Machine Game,2023.1.3,Win32,59.95203837,,,,,,,,,,,,,,,,,,,193.838,2,0.692,194.539,left,0.5,"[1,3,2]",stimuli/card_100_transparent.png,210,100,2,0,2,0,1,,,,,,,,,,,,,,,,,,,,,,,,,,,,,,,,,,,,,,,,,
,,,,652044c7e76a0e2c9f6f5e94,B,2024-08-28_14h41.10.416,Slot Machine Game,2023.1.3,Win32,59.95203837,,,,,,,,,,,,,,,,,,,195.341,3,0.838,196.192,left,1.5,"[1,3,2]",stimuli/card_100_transparent.png,310,100,3,0,3,0,1,,,,,,,,,,,,,,,,,,,,,,,,,,,,,,,,,,,,,,,,,
,,,,652044c7e76a0e2c9f6f5e94,B,2024-08-28_14h41.10.416,Slot Machine Game,2023.1.3,Win32,59.95203837,,,,,,,,,,,,,,,,,,,197.996,4,2.207,200.217,left,1,"[1,3,2]",stimuli/card_100_transparent.png,410,100,4,0,4,0,1,,,,,,,,,,,,,,,,,,,,,,,,,,,,,,,,,,,,,,,,,
,,,,652044c7e76a0e2c9f6f5e94,B,2024-08-28_14h41.10.416,Slot Machine Game,2023.1.3,Win32,59.95203837,,,,,,,,,,,,,,,,,,,201.519,5,1.236,202.771,left,1,"[1,3,2]",stimuli/card_100_transparent.png,510,100,5,0,5,0,1,,,,,,,,,,,,,,,,,,,,,,,,,,,,,,,,,,,,,,,,,
,,,,652044c7e76a0e2c9f6f5e94,B,2024-08-28_14h41.10.416,Slot Machine Game,2023.1.3,Win32,59.95203837,,,,,,,,,,,,,,,,,,,204.073,6,1.067,205.16,left,0.5,"[3,1,2]",stimuli/card_0_transparent.png,510,0,6,0,6,0,1,,,,,,,,,,,,,,,,,,,,,,,,,,,,,,,,,,,,,,,,,
,,,,652044c7e76a0e2c9f6f5e94,B,2024-08-28_14h41.10.416,Slot Machine Game,2023.1.3,Win32,59.95203837,,,,,,,,,,,,,,,,,,,205.962,7,1.114,207.097,left,1,"[3,1,2]",stimuli/card_0_transparent.png,510,0,7,0,7,0,1,,,,,,,,,,,,,,,,,,,,,,,,,,,,,,,,,,,,,,,,,
,,,,652044c7e76a0e2c9f6f5e94,B,2024-08-28_14h41.10.416,Slot Machine Game,2023.1.3,Win32,59.95203837,,,,,,,,,,,,,,,,,,,208.399,8,0.626,209.034,up,1.5,"[3,1,2]",stimuli/card_0_transparent.png,510,0,8,0,8,0,1,,,,,,,,,,,,,,,,,,,,,,,,,,,,,,,,,,,,,,,,,
,,,,652044c7e76a0e2c9f6f5e94,B,2024-08-28_14h41.10.416,Slot Machine Game,2023.1.3,Win32,59.95203837,,,,,,,,,,,,,,,,,,,210.836,9,0.741,211.589,right,1,"[3,1,2]",stimuli/card_10_transparent.png,520,10,9,0,9,0,1,,,,,,,,,,,,,,,,,,,,,,,,,,,,,,,,,,,,,,,,,
,,,,652044c7e76a0e2c9f6f5e94,B,2024-08-28_14h41.10.416,Slot Machine Game,2023.1.3,Win32,59.95203837,,,,,,,,,,,,,,,,,,,212.891,10,1.229,214.127,left,1,"[3,1,2]",stimuli/card_100_transparent.png,620,100,10,0,10,0,1,,,,,,,,,,,,,,,,,,,,,,,,,,,,,,,,,,,,,,,,,
,,,,652044c7e76a0e2c9f6f5e94,B,2024-08-28_14h41.10.416,Slot Machine Game,2023.1.3,Win32,59.95203837,,,,,,,,,,,,,,,,,,,215.429,11,1.144,216.581,left,0.5,"[3,1,2]",stimuli/card_0_transparent.png,620,0,11,0,11,0,1,,,,,,,,,,,,,,,,,,,,,,,,,,,,,,,,,,,,,,,,,
,,,,652044c7e76a0e2c9f6f5e94,B,2024-08-28_14h41.10.416,Slot Machine Game,2023.1.3,Win32,59.95203837,,,,,,,,,,,,,,,,,,,217.383,12,0.637,218.034,up,1.5,"[3,1,2]",stimuli/card_10_transparent.png,630,10,12,0,12,0,1,,,,,,,,,,,,,,,,,,,,,,,,,,,,,,,,,,,,,,,,,
,,,,652044c7e76a0e2c9f6f5e94,B,2024-08-28_14h41.10.416,Slot Machine Game,2023.1.3,Win32,59.95203837,,,,,,,,,,,,,,,,,,,219.837,13,1.464,221.306,right,0.5,"[3,1,2]",stimuli/card_10_transparent.png,640,10,13,0,13,0,1,,,,,,,,,,,,,,,,,,,,,,,,,,,,,,,,,,,,,,,,,
,,,,652044c7e76a0e2c9f6f5e94,B,2024-08-28_14h41.10.416,Slot Machine Game,2023.1.3,Win32,59.95203837,,,,,,,,,,,,,,,,,,,222.108,14,0.664,222.776,left,0.5,"[3,1,2]",stimuli/card_0_transparent.png,640,0,14,0,14,0,1,,,,,,,,,,,,,,,,,,,,,,,,,,,,,,,,,,,,,,,,,
,,,,652044c7e76a0e2c9f6f5e94,B,2024-08-28_14h41.10.416,Slot Machine Game,2023.1.3,Win32,59.95203837,,,,,,,,,,,,,,,,,,,,,,,,,,,,,,,,,,223.578,228.57,space,1.831,,,,,,,,,,,,,,,,,,,,,,,,,,,,,,,,,,,,,
,,,,652044c7e76a0e2c9f6f5e94,B,2024-08-28_14h41.10.416,Slot Machine Game,2023.1.3,Win32,59.95203837,,,,,,,,,,,,,,,,,,,,,,,,,,,,,,,,,,,,,,,230.424,2,"[2,4,7,0,1,3,9,6,8,5]",space,1.623,,,,,,,,,,,,,,,,,,,,,,,,,,,,,,,
,,,,652044c7e76a0e2c9f6f5e94,B,2024-08-28_14h41.10.416,Slot Machine Game,2023.1.3,Win32,59.95203837,,,,,,,,,,,,,,,,,,,,,,,,,,,10,,,,,,,,,,,,,,,,,,1,3,"[15,15]","[[3,1,2],[3,1,2]]",232.08,0,right,1.19,233.296,1.5,0.3,"[3,1,2]",0.956554486,stimuli/card_10_transparent.png,10,0,0,0,0,1,,,,,,,,,,
,,,,652044c7e76a0e2c9f6f5e94,B,2024-08-28_14h41.10.416,Slot Machine Game,2023.1.3,Win32,59.95203837,,,,,,,,,,,,,,,,,,,,,,,,,,,110,,,,,,,,,,,,,,,,,,1,3,,,235.101,1,up,0.974,236.101,1.5,0.3,"[3,1,2]",0.580298023,stimuli/card_100_transparent.png,100,1,0,1,0,1,,,,,,,,,,
,,,,652044c7e76a0e2c9f6f5e94,B,2024-08-28_14h41.10.416,Slot Machine Game,2023.1.3,Win32,59.95203837,,,,,,,,,,,,,,,,,,,,,,,,,,,210,,,,,,,,,,,,,,,,,,1,3,,,237.905,2,up,3.082,240.994,1,0.3,"[3,1,2]",0.66899615,stimuli/card_100_transparent.png,100,2,0,2,0,1,,,,,,,,,,
,,,,652044c7e76a0e2c9f6f5e94,B,2024-08-28_14h41.10.416,Slot Machine Game,2023.1.3,Win32,59.95203837,,,,,,,,,,,,,,,,,,,,,,,,,,,310,,,,,,,,,,,,,,,,,,1,3,,,242.298,3,up,1.767,244.083,1.5,0.3,"[3,1,2]",0.552640235,stimuli/card_100_transparent.png,100,3,0,3,0,1,,,,,,,,,,
,,,,652044c7e76a0e2c9f6f5e94,B,2024-08-28_14h41.10.416,Slot Machine Game,2023.1.3,Win32,59.95203837,,,,,,,,,,,,,,,,,,,,,,,,,,,410,,,,,,,,,,,,,,,,,,1,3,,,245.887,4,up,0.687,246.588,0.5,0.3,"[3,1,2]",0.926051861,stimuli/card_100_transparent.png,100,4,0,4,0,1,,,,,,,,,,
,,,,652044c7e76a0e2c9f6f5e94,B,2024-08-28_14h41.10.416,Slot Machine Game,2023.1.3,Win32,59.95203837,,,,,,,,,,,,,,,,,,,,,,,,,,,510,,,,,,,,,,,,,,,,,,1,3,,,247.39,5,up,0.884,248.291,1,0.3,"[3,1,2]",0.408760799,stimuli/card_100_transparent.png,100,5,0,5,0,1,,,,,,,,,,
,,,,652044c7e76a0e2c9f6f5e94,B,2024-08-28_14h41.10.416,Slot Machine Game,2023.1.3,Win32,59.95203837,,,,,,,,,,,,,,,,,,,,,,,,,,,520,,,,,,,,,,,,,,,,,,1,3,,,249.594,6,up,1.803,251.414,1.5,0.3,"[3,1,2]",0.191238762,stimuli/card_10_transparent.png,10,6,0,6,0,1,,,,,,,,,,
,,,,652044c7e76a0e2c9f6f5e94,B,2024-08-28_14h41.10.416,Slot Machine Game,2023.1.3,Win32,59.95203837,,,,,,,,,,,,,,,,,,,,,,,,,,,620,,,,,,,,,,,,,,,,,,1,3,,,253.217,7,up,0.984,254.219,0.5,0.3,"[3,1,2]",0.777985495,stimuli/card_100_transparent.png,100,7,0,7,0,1,,,,,,,,,,
,,,,652044c7e76a0e2c9f6f5e94,B,2024-08-28_14h41.10.416,Slot Machine Game,2023.1.3,Win32,59.95203837,,,,,,,,,,,,,,,,,,,,,,,,,,,720,,,,,,,,,,,,,,,,,,1,3,,,255.02,8,up,0.677,255.705,0.5,0.3,"[3,1,2]",0.232872933,stimuli/card_100_transparent.png,100,8,0,8,0,1,,,,,,,,,,
,,,,652044c7e76a0e2c9f6f5e94,B,2024-08-28_14h41.10.416,Slot Machine Game,2023.1.3,Win32,59.95203837,,,,,,,,,,,,,,,,,,,,,,,,,,,820,,,,,,,,,,,,,,,,,,1,3,,,256.508,9,up,1.259,257.776,0.5,0.3,"[3,1,2]",0.230626122,stimuli/card_100_transparent.png,100,9,0,9,0,1,,,,,,,,,,
,,,,652044c7e76a0e2c9f6f5e94,B,2024-08-28_14h41.10.416,Slot Machine Game,2023.1.3,Win32,59.95203837,,,,,,,,,,,,,,,,,,,,,,,,,,,920,,,,,,,,,,,,,,,,,,1,3,,,258.578,10,up,0.517,259.111,1,0.3,"[3,1,2]",0.523786761,stimuli/card_100_transparent.png,100,10,0,10,0,1,,,,,,,,,,
,,,,652044c7e76a0e2c9f6f5e94,B,2024-08-28_14h41.10.416,Slot Machine Game,2023.1.3,Win32,59.95203837,,,,,,,,,,,,,,,,,,,,,,,,,,,920,,,,,,,,,,,,,,,,,,1,3,,,260.415,11,up,0.66,261.082,1.5,0.3,"[3,1,2]",0.006594193,stimuli/card_0_transparent.png,0,11,0,11,0,1,,,,,,,,,,
,,,,652044c7e76a0e2c9f6f5e94,B,2024-08-28_14h41.10.416,Slot Machine Game,2023.1.3,Win32,59.95203837,,,,,,,,,,,,,,,,,,,,,,,,,,,1020,,,,,,,,,,,,,,,,,,1,3,,,262.885,12,up,0.628,263.52,1,0.3,"[3,1,2]",0.706073941,stimuli/card_100_transparent.png,100,12,0,12,0,1,,,,,,,,,,
,,,,652044c7e76a0e2c9f6f5e94,B,2024-08-28_14h41.10.416,Slot Machine Game,2023.1.3,Win32,59.95203837,,,,,,,,,,,,,,,,,,,,,,,,,,,1120,,,,,,,,,,,,,,,,,,1,3,,,264.823,13,up,1.3,266.141,0.5,0.3,"[3,1,2]",0.973794168,stimuli/card_100_transparent.png,100,13,0,13,0,1,,,,,,,,,,
,,,,652044c7e76a0e2c9f6f5e94,B,2024-08-28_14h41.10.416,Slot Machine Game,2023.1.3,Win32,59.95203837,,,,,,,,,,,,,,,,,,,,,,,,,,,1220,,,,,,,,,,,,,,,,,,1,3,,,266.944,14,up,0.802,267.761,1,0.3,"[3,1,2]",0.924207675,stimuli/card_100_transparent.png,100,14,0,14,0,1,,,,,,,,,,
,,,,652044c7e76a0e2c9f6f5e94,B,2024-08-28_14h41.10.416,Slot Machine Game,2023.1.3,Win32,59.95203837,,,,,,,,,,,,,,,,,,,,,,,,,,,,,,,,,,269.064,,,,,,,,,,,,,,,,,,,,,,,,,,,,,,,[1220],0,0,0,0,1,,,,
,,,,652044c7e76a0e2c9f6f5e94,B,2024-08-28_14h41.10.416,Slot Machine Game,2023.1.3,Win32,59.95203837,,,,,,,,,,,,,,,,,,,,,,,,,,,100,,,,,,,,,,,,,,,,,,2,5,"[5,15]","[[1,2,3],[3,1,2]]",274.06,0,left,1.77,275.86,0.5,0.3,"[1,2,3]",0.500158342,stimuli/card_100_transparent.png,100,0,0,0,0,1,,,,,,,,,,
,,,,652044c7e76a0e2c9f6f5e94,B,2024-08-28_14h41.10.416,Slot Machine Game,2023.1.3,Win32,59.95203837,,,,,,,,,,,,,,,,,,,,,,,,,,,200,,,,,,,,,,,,,,,,,,2,5,,,276.662,1,left,0.783,277.463,1.5,0.3,"[1,2,3]",0.262237066,stimuli/card_100_transparent.png,100,1,0,1,0,1,,,,,,,,,,
,,,,652044c7e76a0e2c9f6f5e94,B,2024-08-28_14h41.10.416,Slot Machine Game,2023.1.3,Win32,59.95203837,,,,,,,,,,,,,,,,,,,,,,,,,,,300,,,,,,,,,,,,,,,,,,2,5,,,279.267,2,left,0.533,279.818,1.5,0.3,"[1,2,3]",0.605944875,stimuli/card_100_transparent.png,100,2,0,2,0,1,,,,,,,,,,
,,,,652044c7e76a0e2c9f6f5e94,B,2024-08-28_14h41.10.416,Slot Machine Game,2023.1.3,Win32,59.95203837,,,,,,,,,,,,,,,,,,,,,,,,,,,400,,,,,,,,,,,,,,,,,,2,5,,,281.621,3,left,0.532,282.172,0.5,0.3,"[1,2,3]",0.48626699,stimuli/card_100_transparent.png,100,3,0,3,0,1,,,,,,,,,,
,,,,652044c7e76a0e2c9f6f5e94,B,2024-08-28_14h41.10.416,Slot Machine Game,2023.1.3,Win32,59.95203837,,,,,,,,,,,,,,,,,,,,,,,,,,,400,,,,,,,,,,,,,,,,,,2,5,,,282.973,4,left,1.244,284.226,0.5,0.3,"[1,2,3]",0.08525589,stimuli/card_0_transparent.png,0,4,0,4,0,1,,,,,,,,,,
,,,,652044c7e76a0e2c9f6f5e94,B,2024-08-28_14h41.10.416,Slot Machine Game,2023.1.3,Win32,59.95203837,,,,,,,,,,,,,,,,,,,,,,,,,,,500,,,,,,,,,,,,,,,,,,2,5,,,285.028,5,left,0.667,285.712,1,0.3,"[3,1,2]",0.011174819,stimuli/card_100_transparent.png,100,5,0,5,0,1,,,,,,,,,,
,,,,652044c7e76a0e2c9f6f5e94,B,2024-08-28_14h41.10.416,Slot Machine Game,2023.1.3,Win32,59.95203837,,,,,,,,,,,,,,,,,,,,,,,,,,,500,,,,,,,,,,,,,,,,,,2,5,,,287.015,6,left,0.856,287.9,1.5,0.3,"[3,1,2]",0.529093846,stimuli/card_0_transparent.png,0,6,0,6,0,1,,,,,,,,,,
,,,,652044c7e76a0e2c9f6f5e94,B,2024-08-28_14h41.10.416,Slot Machine Game,2023.1.3,Win32,59.95203837,,,,,,,,,,,,,,,,,,,,,,,,,,,600,,,,,,,,,,,,,,,,,,2,5,,,289.703,7,right,1.252,290.972,1.5,0.3,"[3,1,2]",0.186892445,stimuli/card_100_transparent.png,100,7,0,7,0,1,,,,,,,,,,
,,,,652044c7e76a0e2c9f6f5e94,B,2024-08-28_14h41.10.416,Slot Machine Game,2023.1.3,Win32,59.95203837,,,,,,,,,,,,,,,,,,,,,,,,,,,610,,,,,,,,,,,,,,,,,,2,5,,,292.775,8,right,0.832,293.61,0.5,0.3,"[3,1,2]",0.313070423,stimuli/card_10_transparent.png,10,8,0,8,0,1,,,,,,,,,,
,,,,652044c7e76a0e2c9f6f5e94,B,2024-08-28_14h41.10.416,Slot Machine Game,2023.1.3,Win32,59.95203837,,,,,,,,,,,,,,,,,,,,,,,,,,,620,,,,,,,,,,,,,,,,,,2,5,,,294.412,9,right,1.886,296.316,0.5,0.3,"[3,1,2]",0.594962335,stimuli/card_10_transparent.png,10,9,0,9,0,1,,,,,,,,,,
,,,,652044c7e76a0e2c9f6f5e94,B,2024-08-28_14h41.10.416,Slot Machine Game,2023.1.3,Win32,59.95203837,,,,,,,,,,,,,,,,,,,,,,,,,,,720,,,,,,,,,,,,,,,,,,2,5,,,297.117,10,up,0.673,297.802,1.5,0.3,"[3,1,2]",0.871287166,stimuli/card_100_transparent.png,100,10,0,10,0,1,,,,,,,,,,
,,,,652044c7e76a0e2c9f6f5e94,B,2024-08-28_14h41.10.416,Slot Machine Game,2023.1.3,Win32,59.95203837,,,,,,,,,,,,,,,,,,,,,,,,,,,820,,,,,,,,,,,,,,,,,,2,5,,,299.605,11,up,0.885,300.507,1.5,0.3,"[3,1,2]",0.46281133,stimuli/card_100_transparent.png,100,11,0,11,0,1,,,,,,,,,,
,,,,652044c7e76a0e2c9f6f5e94,B,2024-08-28_14h41.10.416,Slot Machine Game,2023.1.3,Win32,59.95203837,,,,,,,,,,,,,,,,,,,,,,,,,,,830,,,,,,,,,,,,,,,,,,2,5,,,302.311,12,up,0.817,303.145,1,0.3,"[3,1,2]",0.162533156,stimuli/card_10_transparent.png,10,12,0,12,0,1,,,,,,,,,,
,,,,652044c7e76a0e2c9f6f5e94,B,2024-08-28_14h41.10.416,Slot Machine Game,2023.1.3,Win32,59.95203837,,,,,,,,,,,,,,,,,,,,,,,,,,,840,,,,,,,,,,,,,,,,,,2,5,,,304.448,13,up,0.583,305.049,0.5,0.3,"[3,1,2]",0.150772298,stimuli/card_10_transparent.png,10,13,0,13,0,1,,,,,,,,,,
,,,,652044c7e76a0e2c9f6f5e94,B,2024-08-28_14h41.10.416,Slot Machine Game,2023.1.3,Win32,59.95203837,,,,,,,,,,,,,,,,,,,,,,,,,,,850,,,,,,,,,,,,,,,,,,2,5,,,305.85,14,right,0.788,306.652,1.5,0.3,"[3,1,2]",0.203988279,stimuli/card_10_transparent.png,10,14,0,14,0,1,,,,,,,,,,
,,,,652044c7e76a0e2c9f6f5e94,B,2024-08-28_14h41.10.416,Slot Machine Game,2023.1.3,Win32,59.95203837,,,,,,,,,,,,,,,,,,,,,,,,,,,,,,,,,,308.456,,,,,,,,,,,,,,,,,,,,,,,,,,,,,,,"[1220,850]",1,0,1,0,1,,,,
,,,,652044c7e76a0e2c9f6f5e94,B,2024-08-28_14h41.10.416,Slot Machine Game,2023.1.3,Win32,59.95203837,,,,,,,,,,,,,,,,,,,,,,,,,,,100,,,,,,,,,,,,,,,,,,3,8,"[11,15]","[[2,1,3],[1,2,3]]",313.45,0,up,1.169,314.651,1.5,0.3,"[2,1,3]",0.510493404,stimuli/card_100_transparent.png,100,0,0,0,0,1,,,,,,,,,,
,,,,652044c7e76a0e2c9f6f5e94,B,2024-08-28_14h41.10.416,Slot Machine Game,2023.1.3,Win32,59.95203837,,,,,,,,,,,,,,,,,,,,,,,,,,,200,,,,,,,,,,,,,,,,,,3,8,,,316.454,1,up,0.789,317.256,1,0.3,"[2,1,3]",0.877419479,stimuli/card_100_transparent.png,100,1,0,1,0,1,,,,,,,,,,
,,,,652044c7e76a0e2c9f6f5e94,B,2024-08-28_14h41.10.416,Slot Machine Game,2023.1.3,Win32,59.95203837,,,,,,,,,,,,,,,,,,,,,,,,,,,300,,,,,,,,,,,,,,,,,,3,8,,,318.558,2,up,0.511,319.075,1,0.3,"[2,1,3]",0.718261051,stimuli/card_100_transparent.png,100,2,0,2,0,1,,,,,,,,,,
,,,,652044c7e76a0e2c9f6f5e94,B,2024-08-28_14h41.10.416,Slot Machine Game,2023.1.3,Win32,59.95203837,,,,,,,,,,,,,,,,,,,,,,,,,,,400,,,,,,,,,,,,,,,,,,3,8,,,320.378,3,up,0.754,321.147,1.5,0.3,"[2,1,3]",0.627775224,stimuli/card_100_transparent.png,100,3,0,3,0,1,,,,,,,,,,
,,,,652044c7e76a0e2c9f6f5e94,B,2024-08-28_14h41.10.416,Slot Machine Game,2023.1.3,Win32,59.95203837,,,,,,,,,,,,,,,,,,,,,,,,,,,500,,,,,,,,,,,,,,,,,,3,8,,,322.95,4,up,0.571,323.534,0.5,0.3,"[2,1,3]",0.816153467,stimuli/card_100_transparent.png,100,4,0,4,0,1,,,,,,,,,,
,,,,652044c7e76a0e2c9f6f5e94,B,2024-08-28_14h41.10.416,Slot Machine Game,2023.1.3,Win32,59.95203837,,,,,,,,,,,,,,,,,,,,,,,,,,,600,,,,,,,,,,,,,,,,,,3,8,,,324.335,5,up,0.853,325.204,0.5,0.3,"[2,1,3]",0.877628225,stimuli/card_100_transparent.png,100,5,0,5,0,1,,,,,,,,,,
,,,,652044c7e76a0e2c9f6f5e94,B,2024-08-28_14h41.10.416,Slot Machine Game,2023.1.3,Win32,59.95203837,,,,,,,,,,,,,,,,,,,,,,,,,,,610,,,,,,,,,,,,,,,,,,3,8,,,326.005,6,up,0.627,326.64,1.5,0.3,"[2,1,3]",0.142333178,stimuli/card_10_transparent.png,10,6,0,6,0,1,,,,,,,,,,
,,,,652044c7e76a0e2c9f6f5e94,B,2024-08-28_14h41.10.416,Slot Machine Game,2023.1.3,Win32,59.95203837,,,,,,,,,,,,,,,,,,,,,,,,,,,710,,,,,,,,,,,,,,,,,,3,8,,,328.443,7,up,0.911,329.362,0.5,0.3,"[2,1,3]",0.363315641,stimuli/card_100_transparent.png,100,7,0,7,0,1,,,,,,,,,,
,,,,652044c7e76a0e2c9f6f5e94,B,2024-08-28_14h41.10.416,Slot Machine Game,2023.1.3,Win32,59.95203837,,,,,,,,,,,,,,,,,,,,,,,,,,,810,,,,,,,,,,,,,,,,,,3,8,,,330.164,8,up,0.7,330.88,1,0.3,"[2,1,3]",0.50216298,stimuli/card_100_transparent.png,100,8,0,8,0,1,,,,,,,,,,
,,,,652044c7e76a0e2c9f6f5e94,B,2024-08-28_14h41.10.416,Slot Machine Game,2023.1.3,Win32,59.95203837,,,,,,,,,,,,,,,,,,,,,,,,,,,910,,,,,,,,,,,,,,,,,,3,8,,,332.184,9,up,0.604,332.802,0.5,0.3,"[2,1,3]",0.437913728,stimuli/card_100_transparent.png,100,9,0,9,0,1,,,,,,,,,,
,,,,652044c7e76a0e2c9f6f5e94,B,2024-08-28_14h41.10.416,Slot Machine Game,2023.1.3,Win32,59.95203837,,,,,,,,,,,,,,,,,,,,,,,,,,,1010,,,,,,,,,,,,,,,,,,3,8,,,333.604,10,up,0.596,334.221,1,0.3,"[2,1,3]",0.608986045,stimuli/card_100_transparent.png,100,10,0,10,0,1,,,,,,,,,,
,,,,652044c7e76a0e2c9f6f5e94,B,2024-08-28_14h41.10.416,Slot Machine Game,2023.1.3,Win32,59.95203837,,,,,,,,,,,,,,,,,,,,,,,,,,,1020,,,,,,,,,,,,,,,,,,3,8,,,335.523,11,up,0.896,336.425,0.5,0.3,"[1,2,3]",0.876713126,stimuli/card_10_transparent.png,10,11,0,11,0,1,,,,,,,,,,
,,,,652044c7e76a0e2c9f6f5e94,B,2024-08-28_14h41.10.416,Slot Machine Game,2023.1.3,Win32,59.95203837,,,,,,,,,,,,,,,,,,,,,,,,,,,1030,,,,,,,,,,,,,,,,,,3,8,,,337.227,12,up,0.608,337.844,1.5,0.3,"[1,2,3]",0.602831047,stimuli/card_10_transparent.png,10,12,0,12,0,1,,,,,,,,,,
,,,,652044c7e76a0e2c9f6f5e94,B,2024-08-28_14h41.10.416,Slot Machine Game,2023.1.3,Win32,59.95203837,,,,,,,,,,,,,,,,,,,,,,,,,,,1130,,,,,,,,,,,,,,,,,,3,8,,,339.648,13,left,1.045,340.7,1.5,0.3,"[1,2,3]",0.749142562,stimuli/card_100_transparent.png,100,13,0,13,0,1,,,,,,,,,,
,,,,652044c7e76a0e2c9f6f5e94,B,2024-08-28_14h41.10.416,Slot Machine Game,2023.1.3,Win32,59.95203837,,,,,,,,,,,,,,,,,,,,,,,,,,,1140,,,,,,,,,,,,,,,,,,3,8,,,342.504,14,left,0.772,343.289,1,0.3,"[1,2,3]",0.132396288,stimuli/card_10_transparent.png,10,14,0,14,0,1,,,,,,,,,,
,,,,652044c7e76a0e2c9f6f5e94,B,2024-08-28_14h41.10.416,Slot Machine Game,2023.1.3,Win32,59.95203837,,,,,,,,,,,,,,,,,,,,,,,,,,,,,,,,,,344.591,,,,,,,,,,,,,,,,,,,,,,,,,,,,,,,"[1220,850,1140]",2,0,2,0,1,,,,
,,,,652044c7e76a0e2c9f6f5e94,B,2024-08-28_14h41.10.416,Slot Machine Game,2023.1.3,Win32,59.95203837,,,,,,,,,,,,,,,,,,,,,,,,,,,0,,,,,,,,,,,,,,,,,,4,1,"[12,15]","[[2,1,3],[2,3,1]]",349.585,0,right,1.535,351.154,1,0.3,"[2,1,3]",0.704360189,stimuli/card_0_transparent.png,0,0,0,0,0,1,,,,,,,,,,
,,,,652044c7e76a0e2c9f6f5e94,B,2024-08-28_14h41.10.416,Slot Machine Game,2023.1.3,Win32,59.95203837,,,,,,,,,,,,,,,,,,,,,,,,,,,100,,,,,,,,,,,,,,,,,,4,1,,,352.455,1,up,1.475,353.942,1,0.3,"[2,1,3]",0.216374938,stimuli/card_100_transparent.png,100,1,0,1,0,1,,,,,,,,,,
,,,,652044c7e76a0e2c9f6f5e94,B,2024-08-28_14h41.10.416,Slot Machine Game,2023.1.3,Win32,59.95203837,,,,,,,,,,,,,,,,,,,,,,,,,,,200,,,,,,,,,,,,,,,,,,4,1,,,355.244,2,up,0.719,355.979,0.5,0.3,"[2,1,3]",0.440715064,stimuli/card_100_transparent.png,100,2,0,2,0,1,,,,,,,,,,
,,,,652044c7e76a0e2c9f6f5e94,B,2024-08-28_14h41.10.416,Slot Machine Game,2023.1.3,Win32,59.95203837,,,,,,,,,,,,,,,,,,,,,,,,,,,300,,,,,,,,,,,,,,,,,,4,1,,,356.78,3,up,0.52,357.316,0.5,0.3,"[2,1,3]",0.379597112,stimuli/card_100_transparent.png,100,3,0,3,0,1,,,,,,,,,,
,,,,652044c7e76a0e2c9f6f5e94,B,2024-08-28_14h41.10.416,Slot Machine Game,2023.1.3,Win32,59.95203837,,,,,,,,,,,,,,,,,,,,,,,,,,,400,,,,,,,,,,,,,,,,,,4,1,,,358.117,4,up,0.965,359.102,0.5,0.3,"[2,1,3]",0.331043986,stimuli/card_100_transparent.png,100,4,0,4,0,1,,,,,,,,,,
,,,,652044c7e76a0e2c9f6f5e94,B,2024-08-28_14h41.10.416,Slot Machine Game,2023.1.3,Win32,59.95203837,,,,,,,,,,,,,,,,,,,,,,,,,,,500,,,,,,,,,,,,,,,,,,4,1,,,359.903,5,up,1.046,360.954,0.5,0.3,"[2,1,3]",0.963763688,stimuli/card_100_transparent.png,100,5,0,5,0,1,,,,,,,,,,
,,,,652044c7e76a0e2c9f6f5e94,B,2024-08-28_14h41.10.416,Slot Machine Game,2023.1.3,Win32,59.95203837,,,,,,,,,,,,,,,,,,,,,,,,,,,600,,,,,,,,,,,,,,,,,,4,1,,,361.757,6,up,1.552,363.327,1,0.3,"[2,1,3]",0.863934846,stimuli/card_100_transparent.png,100,6,0,6,0,1,,,,,,,,,,
,,,,652044c7e76a0e2c9f6f5e94,B,2024-08-28_14h41.10.416,Slot Machine Game,2023.1.3,Win32,59.95203837,,,,,,,,,,,,,,,,,,,,,,,,,,,610,,,,,,,,,,,,,,,,,,4,1,,,364.629,7,up,0.721,365.364,0.5,0.3,"[2,1,3]",0.144993662,stimuli/card_10_transparent.png,10,7,0,7,0,1,,,,,,,,,,
,,,,652044c7e76a0e2c9f6f5e94,B,2024-08-28_14h41.10.416,Slot Machine Game,2023.1.3,Win32,59.95203837,,,,,,,,,,,,,,,,,,,,,,,,,,,710,,,,,,,,,,,,,,,,,,4,1,,,366.165,8,up,0.784,366.967,1.5,0.3,"[2,1,3]",0.872847057,stimuli/card_100_transparent.png,100,8,0,8,0,1,,,,,,,,,,
,,,,652044c7e76a0e2c9f6f5e94,B,2024-08-28_14h41.10.416,Slot Machine Game,2023.1.3,Win32,59.95203837,,,,,,,,,,,,,,,,,,,,,,,,,,,810,,,,,,,,,,,,,,,,,,4,1,,,368.769,9,up,0.747,369.521,0.5,0.3,"[2,1,3]",0.334261826,stimuli/card_100_transparent.png,100,9,0,9,0,1,,,,,,,,,,
,,,,652044c7e76a0e2c9f6f5e94,B,2024-08-28_14h41.10.416,Slot Machine Game,2023.1.3,Win32,59.95203837,,,,,,,,,,,,,,,,,,,,,,,,,,,910,,,,,,,,,,,,,,,,,,4,1,,,370.323,10,up,0.756,371.091,1.5,0.3,"[2,1,3]",0.479246075,stimuli/card_100_transparent.png,100,10,0,10,0,1,,,,,,,,,,
,,,,652044c7e76a0e2c9f6f5e94,B,2024-08-28_14h41.10.416,Slot Machine Game,2023.1.3,Win32,59.95203837,,,,,,,,,,,,,,,,,,,,,,,,,,,1010,,,,,,,,,,,,,,,,,,4,1,,,372.894,11,up,0.743,373.646,1.5,0.3,"[2,1,3]",0.929883778,stimuli/card_100_transparent.png,100,11,0,11,0,1,,,,,,,,,,
,,,,652044c7e76a0e2c9f6f5e94,B,2024-08-28_14h41.10.416,Slot Machine Game,2023.1.3,Win32,59.95203837,,,,,,,,,,,,,,,,,,,,,,,,,,,1010,,,,,,,,,,,,,,,,,,4,1,,,375.449,12,up,0.733,376.2,1.5,0.3,"[2,3,1]",0.379762558,stimuli/card_0_transparent.png,0,12,0,12,0,1,,,,,,,,,,
,,,,652044c7e76a0e2c9f6f5e94,B,2024-08-28_14h41.10.416,Slot Machine Game,2023.1.3,Win32,59.95203837,,,,,,,,,,,,,,,,,,,,,,,,,,,1110,,,,,,,,,,,,,,,,,,4,1,,,378.004,13,right,0.678,378.688,1,0.3,"[2,3,1]",0.911508932,stimuli/card_100_transparent.png,100,13,0,13,0,1,,,,,,,,,,
,,,,652044c7e76a0e2c9f6f5e94,B,2024-08-28_14h41.10.416,Slot Machine Game,2023.1.3,Win32,59.95203837,,,,,,,,,,,,,,,,,,,,,,,,,,,1120,,,,,,,,,,,,,,,,,,4,1,,,379.991,14,right,0.52,380.525,1.5,0.3,"[2,3,1]",0.182323479,stimuli/card_10_transparent.png,10,14,0,14,0,1,,,,,,,,,,
,,,,652044c7e76a0e2c9f6f5e94,B,2024-08-28_14h41.10.416,Slot Machine Game,2023.1.3,Win32,59.95203837,,,,,,,,,,,,,,,,,,,,,,,,,,,,,,,,,,382.329,,,,,,,,,,,,,,,,,,,,,,,,,,,,,,,"[1220,850,1140,1120]",3,0,3,0,1,,,,
,,,,652044c7e76a0e2c9f6f5e94,B,2024-08-28_14h41.10.416,Slot Machine Game,2023.1.3,Win32,59.95203837,,,,,,,,,,,,,,,,,,,,,,,,,,,100,,,,,,,,,,,,,,,,,,5,2,"[6,15]","[[1,3,2],[3,2,1]]",387.324,0,right,1.669,389.025,1,0.3,"[1,3,2]",0.159193425,stimuli/card_100_transparent.png,100,0,0,0,0,1,,,,,,,,,,
,,,,652044c7e76a0e2c9f6f5e94,B,2024-08-28_14h41.10.416,Slot Machine Game,2023.1.3,Win32,59.95203837,,,,,,,,,,,,,,,,,,,,,,,,,,,110,,,,,,,,,,,,,,,,,,5,2,,,390.328,1,right,0.697,391.028,1,0.3,"[1,3,2]",0.444044783,stimuli/card_10_transparent.png,10,1,0,1,0,1,,,,,,,,,,
,,,,652044c7e76a0e2c9f6f5e94,B,2024-08-28_14h41.10.416,Slot Machine Game,2023.1.3,Win32,59.95203837,,,,,,,,,,,,,,,,,,,,,,,,,,,120,,,,,,,,,,,,,,,,,,5,2,,,392.332,2,right,0.506,392.849,1.5,0.3,"[1,3,2]",0.928818882,stimuli/card_10_transparent.png,10,2,0,2,0,1,,,,,,,,,,
,,,,652044c7e76a0e2c9f6f5e94,B,2024-08-28_14h41.10.416,Slot Machine Game,2023.1.3,Win32,59.95203837,,,,,,,,,,,,,,,,,,,,,,,,,,,220,,,,,,,,,,,,,,,,,,5,2,,,394.653,3,left,1.104,395.771,1.5,0.3,"[1,3,2]",0.319106109,stimuli/card_100_transparent.png,100,3,0,3,0,1,,,,,,,,,,
,,,,652044c7e76a0e2c9f6f5e94,B,2024-08-28_14h41.10.416,Slot Machine Game,2023.1.3,Win32,59.95203837,,,,,,,,,,,,,,,,,,,,,,,,,,,320,,,,,,,,,,,,,,,,,,5,2,,,397.574,4,left,0.589,398.176,0.5,0.3,"[1,3,2]",0.827165252,stimuli/card_100_transparent.png,100,4,0,4,0,1,,,,,,,,,,
,,,,652044c7e76a0e2c9f6f5e94,B,2024-08-28_14h41.10.416,Slot Machine Game,2023.1.3,Win32,59.95203837,,,,,,,,,,,,,,,,,,,,,,,,,,,420,,,,,,,,,,,,,,,,,,5,2,,,398.977,5,left,2.692,401.682,0.5,0.3,"[1,3,2]",0.416233682,stimuli/card_100_transparent.png,100,5,0,5,0,1,,,,,,,,,,
,,,,652044c7e76a0e2c9f6f5e94,B,2024-08-28_14h41.10.416,Slot Machine Game,2023.1.3,Win32,59.95203837,,,,,,,,,,,,,,,,,,,,,,,,,,,520,,,,,,,,,,,,,,,,,,5,2,,,402.484,6,left,0.78,403.268,1,0.3,"[3,2,1]",0.074077635,stimuli/card_100_transparent.png,100,6,0,6,0,1,,,,,,,,,,
,,,,652044c7e76a0e2c9f6f5e94,B,2024-08-28_14h41.10.416,Slot Machine Game,2023.1.3,Win32,59.95203837,,,,,,,,,,,,,,,,,,,,,,,,,,,520,,,,,,,,,,,,,,,,,,5,2,,,404.571,7,left,1.937,406.524,1,0.3,"[3,2,1]",0.255752601,stimuli/card_0_transparent.png,0,7,0,7,0,1,,,,,,,,,,
,,,,652044c7e76a0e2c9f6f5e94,B,2024-08-28_14h41.10.416,Slot Machine Game,2023.1.3,Win32,59.95203837,,,,,,,,,,,,,,,,,,,,,,,,,,,620,,,,,,,,,,,,,,,,,,5,2,,,407.827,8,right,0.506,408.346,0.5,0.3,"[3,2,1]",0.314834622,stimuli/card_100_transparent.png,100,8,0,8,0,1,,,,,,,,,,
,,,,652044c7e76a0e2c9f6f5e94,B,2024-08-28_14h41.10.416,Slot Machine Game,2023.1.3,Win32,59.95203837,,,,,,,,,,,,,,,,,,,,,,,,,,,620,,,,,,,,,,,,,,,,,,5,2,,,409.147,9,right,1.043,410.199,1.5,0.3,"[3,2,1]",0.085845771,stimuli/card_0_transparent.png,0,9,0,9,0,1,,,,,,,,,,
,,,,652044c7e76a0e2c9f6f5e94,B,2024-08-28_14h41.10.416,Slot Machine Game,2023.1.3,Win32,59.95203837,,,,,,,,,,,,,,,,,,,,,,,,,,,630,,,,,,,,,,,,,,,,,,5,2,,,412.002,10,up,0.925,412.937,1,0.3,"[3,2,1]",0.238659671,stimuli/card_10_transparent.png,10,10,0,10,0,1,,,,,,,,,,
,,,,652044c7e76a0e2c9f6f5e94,B,2024-08-28_14h41.10.416,Slot Machine Game,2023.1.3,Win32,59.95203837,,,,,,,,,,,,,,,,,,,,,,,,,,,640,,,,,,,,,,,,,,,,,,5,2,,,414.239,11,left,0.535,414.791,0.5,0.3,"[3,2,1]",0.195330661,stimuli/card_10_transparent.png,10,11,0,11,0,1,,,,,,,,,,
,,,,652044c7e76a0e2c9f6f5e94,B,2024-08-28_14h41.10.416,Slot Machine Game,2023.1.3,Win32,59.95203837,,,,,,,,,,,,,,,,,,,,,,,,,,,740,,,,,,,,,,,,,,,,,,5,2,,,415.591,12,right,1.159,416.761,0.5,0.3,"[3,2,1]",0.219522533,stimuli/card_100_transparent.png,100,12,0,12,0,1,,,,,,,,,,
,,,,652044c7e76a0e2c9f6f5e94,B,2024-08-28_14h41.10.416,Slot Machine Game,2023.1.3,Win32,59.95203837,,,,,,,,,,,,,,,,,,,,,,,,,,,840,,,,,,,,,,,,,,,,,,5,2,,,417.562,13,right,0.838,418.414,1,0.3,"[3,2,1]",0.530097664,stimuli/card_100_transparent.png,100,13,0,13,0,1,,,,,,,,,,
,,,,652044c7e76a0e2c9f6f5e94,B,2024-08-28_14h41.10.416,Slot Machine Game,2023.1.3,Win32,59.95203837,,,,,,,,,,,,,,,,,,,,,,,,,,,940,,,,,,,,,,,,,,,,,,5,2,,,419.717,14,right,0.683,420.418,1,0.3,"[3,2,1]",0.443499725,stimuli/card_100_transparent.png,100,14,0,14,0,1,,,,,,,,,,
,,,,652044c7e76a0e2c9f6f5e94,B,2024-08-28_14h41.10.416,Slot Machine Game,2023.1.3,Win32,59.95203837,,,,,,,,,,,,,,,,,,,,,,,,,,,,,,,,,,421.721,,,,,,,,,,,,,,,,,,,,,,,,,,,,,,,"[1220,850,1140,1120,940]",4,0,4,0,1,,,,
,,,,652044c7e76a0e2c9f6f5e94,B,2024-08-28_14h41.10.416,Slot Machine Game,2023.1.3,Win32,59.95203837,,,,,,,,,,,,,,,,,,,,,,,,,,,100,,,,,,,,,,,,,,,,,,6,4,"[7,15]","[[2,3,1],[1,2,3]]",426.714,0,up,1.216,427.949,1.5,0.3,"[2,3,1]",0.093776934,stimuli/card_100_transparent.png,100,0,0,0,0,1,,,,,,,,,,
,,,,652044c7e76a0e2c9f6f5e94,B,2024-08-28_14h41.10.416,Slot Machine Game,2023.1.3,Win32,59.95203837,,,,,,,,,,,,,,,,,,,,,,,,,,,100,,,,,,,,,,,,,,,,,,6,4,,,429.752,1,up,1.545,431.306,1.5,0.3,"[2,3,1]",0.655465938,stimuli/card_0_transparent.png,0,1,0,1,0,1,,,,,,,,,,
,,,,652044c7e76a0e2c9f6f5e94,B,2024-08-28_14h41.10.416,Slot Machine Game,2023.1.3,Win32,59.95203837,,,,,,,,,,,,,,,,,,,,,,,,,,,200,,,,,,,,,,,,,,,,,,6,4,,,433.108,2,right,2.706,435.83,0.5,0.3,"[2,3,1]",0.808197549,stimuli/card_100_transparent.png,100,2,0,2,0,1,,,,,,,,,,
,,,,652044c7e76a0e2c9f6f5e94,B,2024-08-28_14h41.10.416,Slot Machine Game,2023.1.3,Win32,59.95203837,,,,,,,,,,,,,,,,,,,,,,,,,,,300,,,,,,,,,,,,,,,,,,6,4,,,436.632,3,right,0.601,437.25,1.5,0.3,"[2,3,1]",0.607507448,stimuli/card_100_transparent.png,100,3,0,3,0,1,,,,,,,,,,
,,,,652044c7e76a0e2c9f6f5e94,B,2024-08-28_14h41.10.416,Slot Machine Game,2023.1.3,Win32,59.95203837,,,,,,,,,,,,,,,,,,,,,,,,,,,400,,,,,,,,,,,,,,,,,,6,4,,,439.053,4,right,1.493,440.556,1,0.3,"[2,3,1]",0.982868813,stimuli/card_100_transparent.png,100,4,0,4,0,1,,,,,,,,,,
,,,,652044c7e76a0e2c9f6f5e94,B,2024-08-28_14h41.10.416,Slot Machine Game,2023.1.3,Win32,59.95203837,,,,,,,,,,,,,,,,,,,,,,,,,,,500,,,,,,,,,,,,,,,,,,6,4,,,441.859,5,right,1.18,443.044,0.5,0.3,"[2,3,1]",0.641213745,stimuli/card_100_transparent.png,100,5,0,5,0,1,,,,,,,,,,
,,,,652044c7e76a0e2c9f6f5e94,B,2024-08-28_14h41.10.416,Slot Machine Game,2023.1.3,Win32,59.95203837,,,,,,,,,,,,,,,,,,,,,,,,,,,510,,,,,,,,,,,,,,,,,,6,4,,,443.845,6,right,0.755,444.613,1,0.3,"[2,3,1]",0.129092911,stimuli/card_10_transparent.png,10,6,0,6,0,1,,,,,,,,,,
,,,,652044c7e76a0e2c9f6f5e94,B,2024-08-28_14h41.10.416,Slot Machine Game,2023.1.3,Win32,59.95203837,,,,,,,,,,,,,,,,,,,,,,,,,,,610,,,,,,,,,,,,,,,,,,6,4,,,445.916,7,right,0.709,446.634,1.5,0.3,"[1,2,3]",0.04814948,stimuli/card_100_transparent.png,100,7,0,7,0,1,,,,,,,,,,
,,,,652044c7e76a0e2c9f6f5e94,B,2024-08-28_14h41.10.416,Slot Machine Game,2023.1.3,Win32,59.95203837,,,,,,,,,,,,,,,,,,,,,,,,,,,610,,,,,,,,,,,,,,,,,,6,4,,,448.438,8,right,0.535,448.989,1,0.3,"[1,2,3]",0.454271735,stimuli/card_0_transparent.png,0,8,0,8,0,1,,,,,,,,,,
,,,,652044c7e76a0e2c9f6f5e94,B,2024-08-28_14h41.10.416,Slot Machine Game,2023.1.3,Win32,59.95203837,,,,,,,,,,,,,,,,,,,,,,,,,,,610,,,,,,,,,,,,,,,,,,6,4,,,450.292,9,right,0.585,450.892,1.5,0.3,"[1,2,3]",0.273527605,stimuli/card_0_transparent.png,0,9,0,9,0,1,,,,,,,,,,
,,,,652044c7e76a0e2c9f6f5e94,B,2024-08-28_14h41.10.416,Slot Machine Game,2023.1.3,Win32,59.95203837,,,,,,,,,,,,,,,,,,,,,,,,,,,710,,,,,,,,,,,,,,,,,,6,4,,,452.696,10,left,0.795,453.497,1.5,0.3,"[1,2,3]",0.286917316,stimuli/card_100_transparent.png,100,10,0,10,0,1,,,,,,,,,,
,,,,652044c7e76a0e2c9f6f5e94,B,2024-08-28_14h41.10.416,Slot Machine Game,2023.1.3,Win32,59.95203837,,,,,,,,,,,,,,,,,,,,,,,,,,,810,,,,,,,,,,,,,,,,,,6,4,,,455.301,11,left,0.78,456.085,0.5,0.3,"[1,2,3]",0.877342926,stimuli/card_100_transparent.png,100,11,0,11,0,1,,,,,,,,,,
,,,,652044c7e76a0e2c9f6f5e94,B,2024-08-28_14h41.10.416,Slot Machine Game,2023.1.3,Win32,59.95203837,,,,,,,,,,,,,,,,,,,,,,,,,,,910,,,,,,,,,,,,,,,,,,6,4,,,456.888,12,left,0.519,457.422,1,0.3,"[1,2,3]",0.383101137,stimuli/card_100_transparent.png,100,12,0,12,0,1,,,,,,,,,,
,,,,652044c7e76a0e2c9f6f5e94,B,2024-08-28_14h41.10.416,Slot Machine Game,2023.1.3,Win32,59.95203837,,,,,,,,,,,,,,,,,,,,,,,,,,,1010,,,,,,,,,,,,,,,,,,6,4,,,458.724,13,left,1.296,460.025,1,0.3,"[1,2,3]",0.835907695,stimuli/card_100_transparent.png,100,13,0,13,0,1,,,,,,,,,,
,,,,652044c7e76a0e2c9f6f5e94,B,2024-08-28_14h41.10.416,Slot Machine Game,2023.1.3,Win32,59.95203837,,,,,,,,,,,,,,,,,,,,,,,,,,,1110,,,,,,,,,,,,,,,,,,6,4,,,461.328,14,left,0.93,462.263,0.5,0.3,"[1,2,3]",0.331970671,stimuli/card_100_transparent.png,100,14,0,14,0,1,,,,,,,,,,
,,,,652044c7e76a0e2c9f6f5e94,B,2024-08-28_14h41.10.416,Slot Machine Game,2023.1.3,Win32,59.95203837,,,,,,,,,,,,,,,,,,,,,,,,,,,,,,,,,,463.066,,,,,,,,,,,,,,,,,,,,,,,,,,,,,,,"[1220,850,1140,1120,940,1110]",5,0,5,0,1,,,,
,,,,652044c7e76a0e2c9f6f5e94,B,2024-08-28_14h41.10.416,Slot Machine Game,2023.1.3,Win32,59.95203837,,,,,,,,,,,,,,,,,,,,,,,,,,,100,,,,,,,,,,,,,,,,,,7,10,"[10,15]","[[3,1,2],[1,3,2]]",468.061,0,up,1.403,469.494,0.5,0.3,"[3,1,2]",0.601934013,stimuli/card_100_transparent.png,100,0,0,0,0,1,,,,,,,,,,
,,,,652044c7e76a0e2c9f6f5e94,B,2024-08-28_14h41.10.416,Slot Machine Game,2023.1.3,Win32,59.95203837,,,,,,,,,,,,,,,,,,,,,,,,,,,200,,,,,,,,,,,,,,,,,,7,10,,,470.296,1,up,1.098,471.397,1,0.3,"[3,1,2]",0.333024932,stimuli/card_100_transparent.png,100,1,0,1,0,1,,,,,,,,,,
,,,,652044c7e76a0e2c9f6f5e94,B,2024-08-28_14h41.10.416,Slot Machine Game,2023.1.3,Win32,59.95203837,,,,,,,,,,,,,,,,,,,,,,,,,,,300,,,,,,,,,,,,,,,,,,7,10,,,472.701,2,up,0.701,473.418,0.5,0.3,"[3,1,2]",0.420654851,stimuli/card_100_transparent.png,100,2,0,2,0,1,,,,,,,,,,
,,,,652044c7e76a0e2c9f6f5e94,B,2024-08-28_14h41.10.416,Slot Machine Game,2023.1.3,Win32,59.95203837,,,,,,,,,,,,,,,,,,,,,,,,,,,400,,,,,,,,,,,,,,,,,,7,10,,,474.22,3,up,0.668,474.904,1.5,0.3,"[3,1,2]",0.692622985,stimuli/card_100_transparent.png,100,3,0,3,0,1,,,,,,,,,,
,,,,652044c7e76a0e2c9f6f5e94,B,2024-08-28_14h41.10.416,Slot Machine Game,2023.1.3,Win32,59.95203837,,,,,,,,,,,,,,,,,,,,,,,,,,,410,,,,,,,,,,,,,,,,,,7,10,,,476.709,4,up,0.611,477.325,1,0.3,"[3,1,2]",0.127148347,stimuli/card_10_transparent.png,10,4,0,4,0,1,,,,,,,,,,
,,,,652044c7e76a0e2c9f6f5e94,B,2024-08-28_14h41.10.416,Slot Machine Game,2023.1.3,Win32,59.95203837,,,,,,,,,,,,,,,,,,,,,,,,,,,510,,,,,,,,,,,,,,,,,,7,10,,,478.629,5,up,0.77,479.414,0.5,0.3,"[3,1,2]",0.243906028,stimuli/card_100_transparent.png,100,5,0,5,0,1,,,,,,,,,,
,,,,652044c7e76a0e2c9f6f5e94,B,2024-08-28_14h41.10.416,Slot Machine Game,2023.1.3,Win32,59.95203837,,,,,,,,,,,,,,,,,,,,,,,,,,,510,,,,,,,,,,,,,,,,,,7,10,,,480.215,6,up,0.691,480.916,1,0.3,"[3,1,2]",0.098349322,stimuli/card_0_transparent.png,0,6,0,6,0,1,,,,,,,,,,
,,,,652044c7e76a0e2c9f6f5e94,B,2024-08-28_14h41.10.416,Slot Machine Game,2023.1.3,Win32,59.95203837,,,,,,,,,,,,,,,,,,,,,,,,,,,610,,,,,,,,,,,,,,,,,,7,10,,,482.219,7,up,0.777,483.004,1.5,0.3,"[3,1,2]",0.768080748,stimuli/card_100_transparent.png,100,7,0,7,0,1,,,,,,,,,,
,,,,652044c7e76a0e2c9f6f5e94,B,2024-08-28_14h41.10.416,Slot Machine Game,2023.1.3,Win32,59.95203837,,,,,,,,,,,,,,,,,,,,,,,,,,,710,,,,,,,,,,,,,,,,,,7,10,,,484.807,8,up,1.05,485.875,0.5,0.3,"[3,1,2]",0.895792135,stimuli/card_100_transparent.png,100,8,0,8,0,1,,,,,,,,,,
,,,,652044c7e76a0e2c9f6f5e94,B,2024-08-28_14h41.10.416,Slot Machine Game,2023.1.3,Win32,59.95203837,,,,,,,,,,,,,,,,,,,,,,,,,,,810,,,,,,,,,,,,,,,,,,7,10,,,486.677,9,up,0.705,487.395,0.5,0.3,"[3,1,2]",0.430567341,stimuli/card_100_transparent.png,100,9,0,9,0,1,,,,,,,,,,
,,,,652044c7e76a0e2c9f6f5e94,B,2024-08-28_14h41.10.416,Slot Machine Game,2023.1.3,Win32,59.95203837,,,,,,,,,,,,,,,,,,,,,,,,,,,810,,,,,,,,,,,,,,,,,,7,10,,,488.197,10,up,0.931,489.131,1.5,0.3,"[1,3,2]",0.202521652,stimuli/card_0_transparent.png,0,10,0,10,0,1,,,,,,,,,,
,,,,652044c7e76a0e2c9f6f5e94,B,2024-08-28_14h41.10.416,Slot Machine Game,2023.1.3,Win32,59.95203837,,,,,,,,,,,,,,,,,,,,,,,,,,,810,,,,,,,,,,,,,,,,,,7,10,,,490.935,11,up,0.943,491.887,1,0.3,"[1,3,2]",0.920187308,stimuli/card_0_transparent.png,0,11,0,11,0,1,,,,,,,,,,
,,,,652044c7e76a0e2c9f6f5e94,B,2024-08-28_14h41.10.416,Slot Machine Game,2023.1.3,Win32,59.95203837,,,,,,,,,,,,,,,,,,,,,,,,,,,810,,,,,,,,,,,,,,,,,,7,10,,,493.189,12,up,0.553,493.757,1.5,0.3,"[1,3,2]",0.644235131,stimuli/card_0_transparent.png,0,12,0,12,0,1,,,,,,,,,,
,,,,652044c7e76a0e2c9f6f5e94,B,2024-08-28_14h41.10.416,Slot Machine Game,2023.1.3,Win32,59.95203837,,,,,,,,,,,,,,,,,,,,,,,,,,,810,,,,,,,,,,,,,,,,,,7,10,,,495.561,13,up,0.538,496.112,1,0.3,"[1,3,2]",0.992388539,stimuli/card_0_transparent.png,0,13,0,13,0,1,,,,,,,,,,
,,,,652044c7e76a0e2c9f6f5e94,B,2024-08-28_14h41.10.416,Slot Machine Game,2023.1.3,Win32,59.95203837,,,,,,,,,,,,,,,,,,,,,,,,,,,820,,,,,,,,,,,,,,,,,,7,10,,,497.414,14,right,0.684,498.116,0.5,0.3,"[1,3,2]",0.724981524,stimuli/card_10_transparent.png,10,14,0,14,0,1,,,,,,,,,,
,,,,652044c7e76a0e2c9f6f5e94,B,2024-08-28_14h41.10.416,Slot Machine Game,2023.1.3,Win32,59.95203837,,,,,,,,,,,,,,,,,,,,,,,,,,,,,,,,,,498.917,,,,,,,,,,,,,,,,,,,,,,,,,,,,,,,"[1220,850,1140,1120,940,1110,820]",6,0,6,0,1,,,,
,,,,652044c7e76a0e2c9f6f5e94,B,2024-08-28_14h41.10.416,Slot Machine Game,2023.1.3,Win32,59.95203837,,,,,,,,,,,,,,,,,,,,,,,,,,,100,,,,,,,,,,,,,,,,,,8,7,"[9,15]","[[1,3,2],[2,3,1]]",503.912,0,left,1.144,505.077,1.5,0.3,"[1,3,2]",0.697118954,stimuli/card_100_transparent.png,100,0,0,0,0,1,,,,,,,,,,
,,,,652044c7e76a0e2c9f6f5e94,B,2024-08-28_14h41.10.416,Slot Machine Game,2023.1.3,Win32,59.95203837,,,,,,,,,,,,,,,,,,,,,,,,,,,110,,,,,,,,,,,,,,,,,,8,7,,,506.882,1,left,0.763,507.649,1,0.3,"[1,3,2]",0.187369551,stimuli/card_10_transparent.png,10,1,0,1,0,1,,,,,,,,,,
,,,,652044c7e76a0e2c9f6f5e94,B,2024-08-28_14h41.10.416,Slot Machine Game,2023.1.3,Win32,59.95203837,,,,,,,,,,,,,,,,,,,,,,,,,,,110,,,,,,,,,,,,,,,,,,8,7,,,508.954,2,up,0.845,509.821,1,0.3,"[1,3,2]",0.609846404,stimuli/card_0_transparent.png,0,2,0,2,0,1,,,,,,,,,,
,,,,652044c7e76a0e2c9f6f5e94,B,2024-08-28_14h41.10.416,Slot Machine Game,2023.1.3,Win32,59.95203837,,,,,,,,,,,,,,,,,,,,,,,,,,,120,,,,,,,,,,,,,,,,,,8,7,,,511.124,3,right,0.864,511.991,1.5,0.3,"[1,3,2]",0.957303112,stimuli/card_10_transparent.png,10,3,0,3,0,1,,,,,,,,,,
,,,,652044c7e76a0e2c9f6f5e94,B,2024-08-28_14h41.10.416,Slot Machine Game,2023.1.3,Win32,59.95203837,,,,,,,,,,,,,,,,,,,,,,,,,,,120,,,,,,,,,,,,,,,,,,8,7,,,513.796,4,up,0.676,514.496,1.5,0.3,"[1,3,2]",0.411400475,stimuli/card_0_transparent.png,0,4,0,4,0,1,,,,,,,,,,
,,,,652044c7e76a0e2c9f6f5e94,B,2024-08-28_14h41.10.416,Slot Machine Game,2023.1.3,Win32,59.95203837,,,,,,,,,,,,,,,,,,,,,,,,,,,120,,,,,,,,,,,,,,,,,,8,7,,,516.3,5,left,0.723,517.035,0.5,0.3,"[1,3,2]",0.089759274,stimuli/card_0_transparent.png,0,5,0,5,0,1,,,,,,,,,,
,,,,652044c7e76a0e2c9f6f5e94,B,2024-08-28_14h41.10.416,Slot Machine Game,2023.1.3,Win32,59.95203837,,,,,,,,,,,,,,,,,,,,,,,,,,,130,,,,,,,,,,,,,,,,,,8,7,,,517.836,6,right,0.758,518.604,1.5,0.3,"[1,3,2]",0.511801298,stimuli/card_10_transparent.png,10,6,0,6,0,1,,,,,,,,,,
,,,,652044c7e76a0e2c9f6f5e94,B,2024-08-28_14h41.10.416,Slot Machine Game,2023.1.3,Win32,59.95203837,,,,,,,,,,,,,,,,,,,,,,,,,,,130,,,,,,,,,,,,,,,,,,8,7,,,520.408,7,up,0.634,521.059,1,0.3,"[1,3,2]",0.532578988,stimuli/card_0_transparent.png,0,7,0,7,0,1,,,,,,,,,,
,,,,652044c7e76a0e2c9f6f5e94,B,2024-08-28_14h41.10.416,Slot Machine Game,2023.1.3,Win32,59.95203837,,,,,,,,,,,,,,,,,,,,,,,,,,,140,,,,,,,,,,,,,,,,,,8,7,,,522.361,8,right,0.878,523.246,0.5,0.3,"[1,3,2]",0.872534923,stimuli/card_10_transparent.png,10,8,0,8,0,1,,,,,,,,,,
,,,,652044c7e76a0e2c9f6f5e94,B,2024-08-28_14h41.10.416,Slot Machine Game,2023.1.3,Win32,59.95203837,,,,,,,,,,,,,,,,,,,,,,,,,,,140,,,,,,,,,,,,,,,,,,8,7,,,524.047,9,right,0.517,524.582,1.5,0.3,"[2,3,1]",0.097189879,stimuli/card_0_transparent.png,0,9,0,9,0,1,,,,,,,,,,
,,,,652044c7e76a0e2c9f6f5e94,B,2024-08-28_14h41.10.416,Slot Machine Game,2023.1.3,Win32,59.95203837,,,,,,,,,,,,,,,,,,,,,,,,,,,140,,,,,,,,,,,,,,,,,,8,7,,,526.385,10,left,1.018,527.421,0.5,0.3,"[2,3,1]",0.043247595,stimuli/card_0_transparent.png,0,10,0,10,0,1,,,,,,,,,,
,,,,652044c7e76a0e2c9f6f5e94,B,2024-08-28_14h41.10.416,Slot Machine Game,2023.1.3,Win32,59.95203837,,,,,,,,,,,,,,,,,,,,,,,,,,,140,,,,,,,,,,,,,,,,,,8,7,,,528.222,11,up,0.822,529.057,1,0.3,"[2,3,1]",0.582940535,stimuli/card_0_transparent.png,0,11,0,11,0,1,,,,,,,,,,
,,,,652044c7e76a0e2c9f6f5e94,B,2024-08-28_14h41.10.416,Slot Machine Game,2023.1.3,Win32,59.95203837,,,,,,,,,,,,,,,,,,,,,,,,,,,140,,,,,,,,,,,,,,,,,,8,7,,,530.36,12,up,0.541,530.911,1,0.3,"[2,3,1]",0.532128773,stimuli/card_0_transparent.png,0,12,0,12,0,1,,,,,,,,,,
,,,,652044c7e76a0e2c9f6f5e94,B,2024-08-28_14h41.10.416,Slot Machine Game,2023.1.3,Win32,59.95203837,,,,,,,,,,,,,,,,,,,,,,,,,,,140,,,,,,,,,,,,,,,,,,8,7,,,532.213,13,up,1.045,533.265,1.5,0.3,"[2,3,1]",0.36438169,stimuli/card_0_transparent.png,0,13,0,13,0,1,,,,,,,,,,
,,,,652044c7e76a0e2c9f6f5e94,B,2024-08-28_14h41.10.416,Slot Machine Game,2023.1.3,Win32,59.95203837,,,,,,,,,,,,,,,,,,,,,,,,,,,140,,,,,,,,,,,,,,,,,,8,7,,,535.068,14,up,0.578,535.653,1,0.3,"[2,3,1]",0.821441375,stimuli/card_0_transparent.png,0,14,0,14,0,1,,,,,,,,,,
,,,,652044c7e76a0e2c9f6f5e94,B,2024-08-28_14h41.10.416,Slot Machine Game,2023.1.3,Win32,59.95203837,,,,,,,,,,,,,,,,,,,,,,,,,,,,,,,,,,536.956,,,,,,,,,,,,,,,,,,,,,,,,,,,,,,,"[1220,850,1140,1120,940,1110,820,140]",7,0,7,0,1,,,,
,,,,652044c7e76a0e2c9f6f5e94,B,2024-08-28_14h41.10.416,Slot Machine Game,2023.1.3,Win32,59.95203837,,,,,,,,,,,,,,,,,,,,,,,,,,,100,,,,,,,,,,,,,,,,,,9,9,"[8,15]","[[3,2,1],[3,1,2]]",541.951,0,right,1.03,543.001,1,0.3,"[3,2,1]",0.976650446,stimuli/card_100_transparent.png,100,0,0,0,0,1,,,,,,,,,,
,,,,652044c7e76a0e2c9f6f5e94,B,2024-08-28_14h41.10.416,Slot Machine Game,2023.1.3,Win32,59.95203837,,,,,,,,,,,,,,,,,,,,,,,,,,,200,,,,,,,,,,,,,,,,,,9,9,,,544.303,1,right,2.926,547.242,0.5,0.3,"[3,2,1]",0.967510831,stimuli/card_100_transparent.png,100,1,0,1,0,1,,,,,,,,,,
,,,,652044c7e76a0e2c9f6f5e94,B,2024-08-28_14h41.10.416,Slot Machine Game,2023.1.3,Win32,59.95203837,,,,,,,,,,,,,,,,,,,,,,,,,,,300,,,,,,,,,,,,,,,,,,9,9,,,548.043,2,right,0.801,548.861,1,0.3,"[3,2,1]",0.331081456,stimuli/card_100_transparent.png,100,2,0,2,0,1,,,,,,,,,,
,,,,652044c7e76a0e2c9f6f5e94,B,2024-08-28_14h41.10.416,Slot Machine Game,2023.1.3,Win32,59.95203837,,,,,,,,,,,,,,,,,,,,,,,,,,,400,,,,,,,,,,,,,,,,,,9,9,,,550.164,3,right,0.722,550.898,1,0.3,"[3,2,1]",0.822317735,stimuli/card_100_transparent.png,100,3,0,3,0,1,,,,,,,,,,
,,,,652044c7e76a0e2c9f6f5e94,B,2024-08-28_14h41.10.416,Slot Machine Game,2023.1.3,Win32,59.95203837,,,,,,,,,,,,,,,,,,,,,,,,,,,500,,,,,,,,,,,,,,,,,,9,9,,,552.201,4,right,0.624,552.836,1.5,0.3,"[3,2,1]",0.352134966,stimuli/card_100_transparent.png,100,4,0,4,0,1,,,,,,,,,,
,,,,652044c7e76a0e2c9f6f5e94,B,2024-08-28_14h41.10.416,Slot Machine Game,2023.1.3,Win32,59.95203837,,,,,,,,,,,,,,,,,,,,,,,,,,,600,,,,,,,,,,,,,,,,,,9,9,,,554.639,5,right,1.197,555.841,1.5,0.3,"[3,2,1]",0.790964782,stimuli/card_100_transparent.png,100,5,0,5,0,1,,,,,,,,,,
,,,,652044c7e76a0e2c9f6f5e94,B,2024-08-28_14h41.10.416,Slot Machine Game,2023.1.3,Win32,59.95203837,,,,,,,,,,,,,,,,,,,,,,,,,,,700,,,,,,,,,,,,,,,,,,9,9,,,557.645,6,right,1.381,559.03,1,0.3,"[3,2,1]",0.342817168,stimuli/card_100_transparent.png,100,6,0,6,0,1,,,,,,,,,,
,,,,652044c7e76a0e2c9f6f5e94,B,2024-08-28_14h41.10.416,Slot Machine Game,2023.1.3,Win32,59.95203837,,,,,,,,,,,,,,,,,,,,,,,,,,,700,,,,,,,,,,,,,,,,,,9,9,,,560.333,7,right,1.017,561.368,0.5,0.3,"[3,2,1]",0.026844286,stimuli/card_0_transparent.png,0,7,0,7,0,1,,,,,,,,,,
,,,,652044c7e76a0e2c9f6f5e94,B,2024-08-28_14h41.10.416,Slot Machine Game,2023.1.3,Win32,59.95203837,,,,,,,,,,,,,,,,,,,,,,,,,,,710,,,,,,,,,,,,,,,,,,9,9,,,562.17,8,right,0.672,562.855,1,0.3,"[3,1,2]",0.28287821,stimuli/card_10_transparent.png,10,8,0,8,0,1,,,,,,,,,,
,,,,652044c7e76a0e2c9f6f5e94,B,2024-08-28_14h41.10.416,Slot Machine Game,2023.1.3,Win32,59.95203837,,,,,,,,,,,,,,,,,,,,,,,,,,,810,,,,,,,,,,,,,,,,,,9,9,,,564.157,9,up,1.004,565.176,1,0.3,"[3,1,2]",0.803530888,stimuli/card_100_transparent.png,100,9,0,9,0,1,,,,,,,,,,
,,,,652044c7e76a0e2c9f6f5e94,B,2024-08-28_14h41.10.416,Slot Machine Game,2023.1.3,Win32,59.95203837,,,,,,,,,,,,,,,,,,,,,,,,,,,910,,,,,,,,,,,,,,,,,,9,9,,,566.479,10,up,0.75,567.246,1.5,0.3,"[3,1,2]",0.209404072,stimuli/card_100_transparent.png,100,10,0,10,0,1,,,,,,,,,,
,,,,652044c7e76a0e2c9f6f5e94,B,2024-08-28_14h41.10.416,Slot Machine Game,2023.1.3,Win32,59.95203837,,,,,,,,,,,,,,,,,,,,,,,,,,,910,,,,,,,,,,,,,,,,,,9,9,,,569.05,11,up,0.512,569.567,1.5,0.3,"[3,1,2]",0.004941208,stimuli/card_0_transparent.png,0,11,0,11,0,1,,,,,,,,,,
,,,,652044c7e76a0e2c9f6f5e94,B,2024-08-28_14h41.10.416,Slot Machine Game,2023.1.3,Win32,59.95203837,,,,,,,,,,,,,,,,,,,,,,,,,,,920,,,,,,,,,,,,,,,,,,9,9,,,571.37,12,up,1.291,572.673,0.5,0.3,"[3,1,2]",0.140093982,stimuli/card_10_transparent.png,10,12,0,12,0,1,,,,,,,,,,
,,,,652044c7e76a0e2c9f6f5e94,B,2024-08-28_14h41.10.416,Slot Machine Game,2023.1.3,Win32,59.95203837,,,,,,,,,,,,,,,,,,,,,,,,,,,930,,,,,,,,,,,,,,,,,,9,9,,,573.475,13,right,0.595,574.075,1,0.3,"[3,1,2]",0.811365605,stimuli/card_10_transparent.png,10,13,0,13,0,1,,,,,,,,,,
,,,,652044c7e76a0e2c9f6f5e94,B,2024-08-28_14h41.10.416,Slot Machine Game,2023.1.3,Win32,59.95203837,,,,,,,,,,,,,,,,,,,,,,,,,,,930,,,,,,,,,,,,,,,,,,9,9,,,575.379,14,left,0.539,575.929,0.5,0.3,"[3,1,2]",0.413448443,stimuli/card_0_transparent.png,0,14,0,14,0,1,,,,,,,,,,
,,,,652044c7e76a0e2c9f6f5e94,B,2024-08-28_14h41.10.416,Slot Machine Game,2023.1.3,Win32,59.95203837,,,,,,,,,,,,,,,,,,,,,,,,,,,,,,,,,,576.731,,,,,,,,,,,,,,,,,,,,,,,,,,,,,,,"[1220,850,1140,1120,940,1110,820,140,930]",8,0,8,0,1,,,,
,,,,652044c7e76a0e2c9f6f5e94,B,2024-08-28_14h41.10.416,Slot Machine Game,2023.1.3,Win32,59.95203837,,,,,,,,,,,,,,,,,,,,,,,,,,,100,,,,,,,,,,,,,,,,,,10,6,"[4,10,15]","[[2,3,1],[1,3,2],[3,2,1]]",581.726,0,right,1.008,582.759,0.5,0.3,"[2,3,1]",0.898186386,stimuli/card_100_transparent.png,100,0,0,0,0,1,,,,,,,,,,
,,,,652044c7e76a0e2c9f6f5e94,B,2024-08-28_14h41.10.416,Slot Machine Game,2023.1.3,Win32,59.95203837,,,,,,,,,,,,,,,,,,,,,,,,,,,200,,,,,,,,,,,,,,,,,,10,6,,,583.561,1,right,0.792,584.362,1.5,0.3,"[2,3,1]",0.466308691,stimuli/card_100_transparent.png,100,1,0,1,0,1,,,,,,,,,,
,,,,652044c7e76a0e2c9f6f5e94,B,2024-08-28_14h41.10.416,Slot Machine Game,2023.1.3,Win32,59.95203837,,,,,,,,,,,,,,,,,,,,,,,,,,,300,,,,,,,,,,,,,,,,,,10,6,,,586.166,2,right,1.562,587.735,1.5,0.3,"[2,3,1]",0.688855318,stimuli/card_100_transparent.png,100,2,0,2,0,1,,,,,,,,,,
,,,,652044c7e76a0e2c9f6f5e94,B,2024-08-28_14h41.10.416,Slot Machine Game,2023.1.3,Win32,59.95203837,,,,,,,,,,,,,,,,,,,,,,,,,,,400,,,,,,,,,,,,,,,,,,10,6,,,589.539,3,right,1.773,591.326,0.5,0.3,"[2,3,1]",0.672243442,stimuli/card_100_transparent.png,100,3,0,3,0,1,,,,,,,,,,
,,,,652044c7e76a0e2c9f6f5e94,B,2024-08-28_14h41.10.416,Slot Machine Game,2023.1.3,Win32,59.95203837,,,,,,,,,,,,,,,,,,,,,,,,,,,400,,,,,,,,,,,,,,,,,,10,6,,,592.127,4,right,4.208,596.352,1,0.3,"[1,3,2]",0.091900709,stimuli/card_0_transparent.png,0,4,0,4,0,1,,,,,,,,,,
,,,,652044c7e76a0e2c9f6f5e94,B,2024-08-28_14h41.10.416,Slot Machine Game,2023.1.3,Win32,59.95203837,,,,,,,,,,,,,,,,,,,,,,,,,,,410,,,,,,,,,,,,,,,,,,10,6,,,597.654,5,right,2.036,599.708,1.5,0.3,"[1,3,2]",0.849942323,stimuli/card_10_transparent.png,10,5,0,5,0,1,,,,,,,,,,
,,,,652044c7e76a0e2c9f6f5e94,B,2024-08-28_14h41.10.416,Slot Machine Game,2023.1.3,Win32,59.95203837,,,,,,,,,,,,,,,,,,,,,,,,,,,420,,,,,,,,,,,,,,,,,,10,6,,,601.511,6,right,0.814,602.33,1,0.3,"[1,3,2]",0.650839797,stimuli/card_10_transparent.png,10,6,0,6,0,1,,,,,,,,,,
,,,,652044c7e76a0e2c9f6f5e94,B,2024-08-28_14h41.10.416,Slot Machine Game,2023.1.3,Win32,59.95203837,,,,,,,,,,,,,,,,,,,,,,,,,,,520,,,,,,,,,,,,,,,,,,10,6,,,603.632,7,right,1.939,605.586,1.5,0.3,"[1,3,2]",0.106196465,stimuli/card_100_transparent.png,100,7,0,7,0,1,,,,,,,,,,
,,,,652044c7e76a0e2c9f6f5e94,B,2024-08-28_14h41.10.416,Slot Machine Game,2023.1.3,Win32,59.95203837,,,,,,,,,,,,,,,,,,,,,,,,,,,,,,,,,,,,,,,,,,,,,10,6,,,607.389,8,,,,1.5,0.3,,,,,8,0,8,0,1,,,,,,,,,,
,,,,652044c7e76a0e2c9f6f5e94,B,2024-08-28_14h41.10.416,Slot Machine Game,2023.1.3,Win32,59.95203837,,,,,,,,,,,,,,,,,,,,,,,,,,,530,,,,,,,,,,,,,,,,,,10,6,,,612.905,9,right,0.688,613.618,1,0.3,"[1,3,2]",0.277231359,stimuli/card_10_transparent.png,10,9,0,9,0,1,,,,,,,,,,
,,,,652044c7e76a0e2c9f6f5e94,B,2024-08-28_14h41.10.416,Slot Machine Game,2023.1.3,Win32,59.95203837,,,,,,,,,,,,,,,,,,,,,,,,,,,540,,,,,,,,,,,,,,,,,,10,6,,,614.921,10,up,0.627,615.571,1.5,0.3,"[3,2,1]",0.706941076,stimuli/card_10_transparent.png,10,10,0,10,0,1,,,,,,,,,,
,,,,652044c7e76a0e2c9f6f5e94,B,2024-08-28_14h41.10.416,Slot Machine Game,2023.1.3,Win32,59.95203837,,,,,,,,,,,,,,,,,,,,,,,,,,,540,,,,,,,,,,,,,,,,,,10,6,,,617.375,11,left,1.365,618.743,0.5,0.3,"[3,2,1]",0.742110365,stimuli/card_0_transparent.png,0,11,0,11,0,1,,,,,,,,,,
,,,,652044c7e76a0e2c9f6f5e94,B,2024-08-28_14h41.10.416,Slot Machine Game,2023.1.3,Win32,59.95203837,,,,,,,,,,,,,,,,,,,,,,,,,,,,,,,,,,,,,,,,,,,,,10,6,,,619.546,12,,,,1.5,0.3,,,,,12,0,12,0,1,,,,,,,,,,
,,,,652044c7e76a0e2c9f6f5e94,B,2024-08-28_14h41.10.416,Slot Machine Game,2023.1.3,Win32,59.95203837,,,,,,,,,,,,,,,,,,,,,,,,,,,540,,,,,,,,,,,,,,,,,,10,6,,,625.056,13,left,0.8,625.875,1,0.3,"[3,2,1]",0.297730805,stimuli/card_0_transparent.png,0,13,0,13,0,1,,,,,,,,,,
,,,,652044c7e76a0e2c9f6f5e94,B,2024-08-28_14h41.10.416,Slot Machine Game,2023.1.3,Win32,59.95203837,,,,,,,,,,,,,,,,,,,,,,,,,,,550,,,,,,,,,,,,,,,,,,10,6,,,627.177,14,left,0.502,627.694,1,0.3,"[3,2,1]",0.16388091,stimuli/card_10_transparent.png,10,14,0,14,0,1,,,,,,,,,,
,,,,652044c7e76a0e2c9f6f5e94,B,2024-08-28_14h41.10.416,Slot Machine Game,2023.1.3,Win32,59.95203837,,,,,,,,,,,,,,,,,,,,,,,,,,,,,,,,,,628.997,,,,,,,,,,,,,,,,,,,,,,,,,,,,,,,"[1220,850,1140,1120,940,1110,820,140,930,550]",9,0,9,0,1,,,,
,,,,652044c7e76a0e2c9f6f5e94,B,2024-08-28_14h41.10.416,Slot Machine Game,2023.1.3,Win32,59.95203837,,,,,,,,,,,,,,,,,,,,,,,,,,,,,,,,,,,,,,,,,,,,,,,,,,,,,,,,,,,,,,,,,,,,,,,9,"[1220,850,1140,1120,940,1110,820,140,930,550]",1.4,2024-08-28_14h51.48.494
