key_resp_welcome_started,key_resp_welcome_keys,key_resp_welcome_rt,key_resp_welcome_duration,prolific_pid,path_id,date,expName,psychopyVersion,OS,frameRate,key_resp_instruction1_started,key_resp_instruction1_keys,key_resp_instruction1_rt,key_resp_instruction1_duration,key_resp_instruction2_started,key_resp_instruction2_keys,key_resp_instruction2_rt,key_resp_instruction2_duration,key_resp_instruction3_started,key_resp_instruction3_keys,key_resp_instruction3_rt,key_resp_instruction3_duration,key_resp_instruction4_started,key_resp_instruction4_keys,key_resp_instruction4_rt,key_resp_instruction4_duration,practiceCondition,practice_reward_seqs,practice_trial_started,practice_trial_num,practice_resp_rt,practice_keypress_time,practice_resp_keys,prac_presentationInterval,practice_reward_seq,reward_img,cumulative_reward,trial_reward,practice_trials.thisRepN,practice_trials.thisTrialN,practice_trials.thisN,practice_trials.thisIndex,practice_trials.ran,block_break_started,practice_end_time,practice_end_keys,practice_end_rt,practice_end_duration,main_instruction_text_started,block_condition,block_order_indices,main_instruction_keys,main_instruction_rt,main_instruction_duration,block_number,block_assignment,current_condition,main_reward_seqs,main_trial_started,main_trial_num,main_trial_keys,main_trial_rt,main_trial_keypress_time,main_presentationInterval,reward_presentation_time,main_reward_seq,reward_rand_val,main_reward_img,current_reward,main_trials.thisRepN,main_trials.thisTrialN,main_trials.thisN,main_trials.thisIndex,main_trials.ran,block_reward,block.thisRepN,block.thisTrialN,block.thisN,block.thisIndex,block.ran,block_reward.length,block_reward_all,reward_amount,date_end_task
0,right,2.043,,607eba3149bb09e39019b9ae,B,2024-08-22_08h56.17.845,Slot Machine Game,2023.1.3,Win32,62.5,,,,,,,,,,,,,,,,,,,,,,,,,,,,,,,,,,,,,,,,,,,,,,,,,,,,,,,,,,,,,,,,,,,,,,,,,,
,,,,607eba3149bb09e39019b9ae,B,2024-08-22_08h56.17.845,Slot Machine Game,2023.1.3,Win32,62.5,2.064,right,6.084,,,,,,,,,,,,,,,,,,,,,,,,,,,,,,,,,,,,,,,,,,,,,,,,,,,,,,,,,,,,,,,,,,,,,,,
,,,,607eba3149bb09e39019b9ae,B,2024-08-22_08h56.17.845,Slot Machine Game,2023.1.3,Win32,62.5,,,,,8.179,right,26.385,,,,,,,,,,,,,,,,,,,,,,,,,,,,,,,,,,,,,,,,,,,,,,,,,,,,,,,,,,,,,,,,,,,
,,,,607eba3149bb09e39019b9ae,B,2024-08-22_08h56.17.845,Slot Machine Game,2023.1.3,Win32,62.5,,,,,,,,,34.613,right,6.377,,,,,,,,,,,,,,,,,,,,,,,,,,,,,,,,,,,,,,,,,,,,,,,,,,,,,,,,,,,,,,,
,,,,607eba3149bb09e39019b9ae,B,2024-08-22_08h56.17.845,Slot Machine Game,2023.1.3,Win32,62.5,,,,,,,,,,,,,,,,,,,,,,,,,,,,,,,,,,,,,,,,,,,,,,,,,,,,,,,,,,,,,,,,,,,,,,,,,,
,,,,607eba3149bb09e39019b9ae,B,2024-08-22_08h56.17.845,Slot Machine Game,2023.1.3,Win32,62.5,,,,,,,,,,,,,182.796,left,3.295,,,,,,,,,,,,,,,,,,,,,,,,,,,,,,,,,,,,,,,,,,,,,,,,,,,,,,,,,,,
,,,,607eba3149bb09e39019b9ae,B,2024-08-22_08h56.17.845,Slot Machine Game,2023.1.3,Win32,62.5,,,,,,,,,,,,,,,,,"[9,15]","[[2,1,3],[2,3,1]]",186.115,0,2.034,188.179,left,1.5,"[2,1,3]",stimuli/card_10_transparent.png,10,10,0,0,0,0,1,,,,,,,,,,,,,,,,,,,,,,,,,,,,,,,,,,,,,,,,,
,,,,607eba3149bb09e39019b9ae,B,2024-08-22_08h56.17.845,Slot Machine Game,2023.1.3,Win32,62.5,,,,,,,,,,,,,,,,,,,189.979,1,0.99,190.995,left,1.5,"[2,1,3]",stimuli/card_10_transparent.png,20,10,1,0,1,0,1,,,,,,,,,,,,,,,,,,,,,,,,,,,,,,,,,,,,,,,,,
,,,,607eba3149bb09e39019b9ae,B,2024-08-22_08h56.17.845,Slot Machine Game,2023.1.3,Win32,62.5,,,,,,,,,,,,,,,,,,,192.795,2,0.535,193.345,up,1.5,"[2,1,3]",stimuli/card_100_transparent.png,120,100,2,0,2,0,1,,,,,,,,,,,,,,,,,,,,,,,,,,,,,,,,,,,,,,,,,
,,,,607eba3149bb09e39019b9ae,B,2024-08-22_08h56.17.845,Slot Machine Game,2023.1.3,Win32,62.5,,,,,,,,,,,,,,,,,,,195.145,3,0.688,195.845,up,1,"[2,1,3]",stimuli/card_100_transparent.png,220,100,3,0,3,0,1,,,,,,,,,,,,,,,,,,,,,,,,,,,,,,,,,,,,,,,,,
,,,,607eba3149bb09e39019b9ae,B,2024-08-22_08h56.17.845,Slot Machine Game,2023.1.3,Win32,62.5,,,,,,,,,,,,,,,,,,,197.145,4,0.544,197.695,up,0.5,"[2,1,3]",stimuli/card_0_transparent.png,220,0,4,0,4,0,1,,,,,,,,,,,,,,,,,,,,,,,,,,,,,,,,,,,,,,,,,
,,,,607eba3149bb09e39019b9ae,B,2024-08-22_08h56.17.845,Slot Machine Game,2023.1.3,Win32,62.5,,,,,,,,,,,,,,,,,,,198.495,5,0.524,199.045,up,1,"[2,1,3]",stimuli/card_100_transparent.png,320,100,5,0,5,0,1,,,,,,,,,,,,,,,,,,,,,,,,,,,,,,,,,,,,,,,,,
,,,,607eba3149bb09e39019b9ae,B,2024-08-22_08h56.17.845,Slot Machine Game,2023.1.3,Win32,62.5,,,,,,,,,,,,,,,,,,,200.345,6,0.521,200.879,up,1,"[2,1,3]",stimuli/card_100_transparent.png,420,100,6,0,6,0,1,,,,,,,,,,,,,,,,,,,,,,,,,,,,,,,,,,,,,,,,,
,,,,607eba3149bb09e39019b9ae,B,2024-08-22_08h56.17.845,Slot Machine Game,2023.1.3,Win32,62.5,,,,,,,,,,,,,,,,,,,202.179,7,2.586,204.795,up,1.5,"[2,1,3]",stimuli/card_100_transparent.png,520,100,7,0,7,0,1,,,,,,,,,,,,,,,,,,,,,,,,,,,,,,,,,,,,,,,,,
,,,,607eba3149bb09e39019b9ae,B,2024-08-22_08h56.17.845,Slot Machine Game,2023.1.3,Win32,62.5,,,,,,,,,,,,,,,,,,,206.595,8,0.667,207.278,up,1,"[2,1,3]",stimuli/card_100_transparent.png,620,100,8,0,8,0,1,,,,,,,,,,,,,,,,,,,,,,,,,,,,,,,,,,,,,,,,,
,,,,607eba3149bb09e39019b9ae,B,2024-08-22_08h56.17.845,Slot Machine Game,2023.1.3,Win32,62.5,,,,,,,,,,,,,,,,,,,208.579,9,2.144,210.745,up,1,"[2,3,1]",stimuli/card_0_transparent.png,620,0,9,0,9,0,1,,,,,,,,,,,,,,,,,,,,,,,,,,,,,,,,,,,,,,,,,
,,,,607eba3149bb09e39019b9ae,B,2024-08-22_08h56.17.845,Slot Machine Game,2023.1.3,Win32,62.5,,,,,,,,,,,,,,,,,,,212.045,10,0.737,212.811,up,1,"[2,3,1]",stimuli/card_0_transparent.png,620,0,10,0,10,0,1,,,,,,,,,,,,,,,,,,,,,,,,,,,,,,,,,,,,,,,,,
,,,,607eba3149bb09e39019b9ae,B,2024-08-22_08h56.17.845,Slot Machine Game,2023.1.3,Win32,62.5,,,,,,,,,,,,,,,,,,,214.112,11,0.81,214.945,up,1,"[2,3,1]",stimuli/card_0_transparent.png,620,0,11,0,11,0,1,,,,,,,,,,,,,,,,,,,,,,,,,,,,,,,,,,,,,,,,,
,,,,607eba3149bb09e39019b9ae,B,2024-08-22_08h56.17.845,Slot Machine Game,2023.1.3,Win32,62.5,,,,,,,,,,,,,,,,,,,216.245,12,2.542,218.812,right,0.5,"[2,3,1]",stimuli/card_100_transparent.png,720,100,12,0,12,0,1,,,,,,,,,,,,,,,,,,,,,,,,,,,,,,,,,,,,,,,,,
,,,,607eba3149bb09e39019b9ae,B,2024-08-22_08h56.17.845,Slot Machine Game,2023.1.3,Win32,62.5,,,,,,,,,,,,,,,,,,,219.612,13,1.247,220.878,right,1,"[2,3,1]",stimuli/card_100_transparent.png,820,100,13,0,13,0,1,,,,,,,,,,,,,,,,,,,,,,,,,,,,,,,,,,,,,,,,,
,,,,607eba3149bb09e39019b9ae,B,2024-08-22_08h56.17.845,Slot Machine Game,2023.1.3,Win32,62.5,,,,,,,,,,,,,,,,,,,222.178,14,0.873,223.061,right,1.5,"[2,3,1]",stimuli/card_100_transparent.png,920,100,14,0,14,0,1,,,,,,,,,,,,,,,,,,,,,,,,,,,,,,,,,,,,,,,,,
,,,,607eba3149bb09e39019b9ae,B,2024-08-22_08h56.17.845,Slot Machine Game,2023.1.3,Win32,62.5,,,,,,,,,,,,,,,,,"[6,15]","[[1,3,2],[3,1,2]]",229.869,0,2.27,232.161,up,1.5,"[1,3,2]",stimuli/card_10_transparent.png,10,10,0,0,0,0,1,224.869,,,,,,,,,,,,,,,,,,,,,,,,,,,,,,,,,,,,,,,,
,,,,607eba3149bb09e39019b9ae,B,2024-08-22_08h56.17.845,Slot Machine Game,2023.1.3,Win32,62.5,,,,,,,,,,,,,,,,,,,233.961,1,1.974,235.945,up,0.5,"[1,3,2]",stimuli/card_0_transparent.png,10,0,1,0,1,0,1,,,,,,,,,,,,,,,,,,,,,,,,,,,,,,,,,,,,,,,,,
,,,,607eba3149bb09e39019b9ae,B,2024-08-22_08h56.17.845,Slot Machine Game,2023.1.3,Win32,62.5,,,,,,,,,,,,,,,,,,,236.745,2,1.52,238.278,right,0.5,"[1,3,2]",stimuli/card_10_transparent.png,20,10,2,0,2,0,1,,,,,,,,,,,,,,,,,,,,,,,,,,,,,,,,,,,,,,,,,
,,,,607eba3149bb09e39019b9ae,B,2024-08-22_08h56.17.845,Slot Machine Game,2023.1.3,Win32,62.5,,,,,,,,,,,,,,,,,,,239.078,3,1.228,240.328,right,1,"[1,3,2]",stimuli/card_10_transparent.png,30,10,3,0,3,0,1,,,,,,,,,,,,,,,,,,,,,,,,,,,,,,,,,,,,,,,,,
,,,,607eba3149bb09e39019b9ae,B,2024-08-22_08h56.17.845,Slot Machine Game,2023.1.3,Win32,62.5,,,,,,,,,,,,,,,,,,,241.628,4,0.543,242.179,right,1.5,"[1,3,2]",stimuli/card_10_transparent.png,40,10,4,0,4,0,1,,,,,,,,,,,,,,,,,,,,,,,,,,,,,,,,,,,,,,,,,
,,,,607eba3149bb09e39019b9ae,B,2024-08-22_08h56.17.845,Slot Machine Game,2023.1.3,Win32,62.5,,,,,,,,,,,,,,,,,,,243.978,5,1.096,245.078,left,1,"[1,3,2]",stimuli/card_100_transparent.png,140,100,5,0,5,0,1,,,,,,,,,,,,,,,,,,,,,,,,,,,,,,,,,,,,,,,,,
,,,,607eba3149bb09e39019b9ae,B,2024-08-22_08h56.17.845,Slot Machine Game,2023.1.3,Win32,62.5,,,,,,,,,,,,,,,,,,,246.378,6,0.905,247.294,left,1,"[3,1,2]",stimuli/card_0_transparent.png,140,0,6,0,6,0,1,,,,,,,,,,,,,,,,,,,,,,,,,,,,,,,,,,,,,,,,,
,,,,607eba3149bb09e39019b9ae,B,2024-08-22_08h56.17.845,Slot Machine Game,2023.1.3,Win32,62.5,,,,,,,,,,,,,,,,,,,248.594,7,0.574,249.178,left,1.5,"[3,1,2]",stimuli/card_0_transparent.png,140,0,7,0,7,0,1,,,,,,,,,,,,,,,,,,,,,,,,,,,,,,,,,,,,,,,,,
,,,,607eba3149bb09e39019b9ae,B,2024-08-22_08h56.17.845,Slot Machine Game,2023.1.3,Win32,62.5,,,,,,,,,,,,,,,,,,,250.979,8,1.22,252.229,up,1.5,"[3,1,2]",stimuli/card_10_transparent.png,150,10,8,0,8,0,1,,,,,,,,,,,,,,,,,,,,,,,,,,,,,,,,,,,,,,,,,
,,,,607eba3149bb09e39019b9ae,B,2024-08-22_08h56.17.845,Slot Machine Game,2023.1.3,Win32,62.5,,,,,,,,,,,,,,,,,,,254.028,9,0.704,254.745,left,1.5,"[3,1,2]",stimuli/card_0_transparent.png,150,0,9,0,9,0,1,,,,,,,,,,,,,,,,,,,,,,,,,,,,,,,,,,,,,,,,,
,,,,607eba3149bb09e39019b9ae,B,2024-08-22_08h56.17.845,Slot Machine Game,2023.1.3,Win32,62.5,,,,,,,,,,,,,,,,,,,256.545,10,1.203,257.761,up,0.5,"[3,1,2]",stimuli/card_100_transparent.png,250,100,10,0,10,0,1,,,,,,,,,,,,,,,,,,,,,,,,,,,,,,,,,,,,,,,,,
,,,,607eba3149bb09e39019b9ae,B,2024-08-22_08h56.17.845,Slot Machine Game,2023.1.3,Win32,62.5,,,,,,,,,,,,,,,,,,,258.562,11,0.697,259.279,up,1,"[3,1,2]",stimuli/card_100_transparent.png,350,100,11,0,11,0,1,,,,,,,,,,,,,,,,,,,,,,,,,,,,,,,,,,,,,,,,,
,,,,607eba3149bb09e39019b9ae,B,2024-08-22_08h56.17.845,Slot Machine Game,2023.1.3,Win32,62.5,,,,,,,,,,,,,,,,,,,260.578,12,0.911,261.494,up,1,"[3,1,2]",stimuli/card_100_transparent.png,450,100,12,0,12,0,1,,,,,,,,,,,,,,,,,,,,,,,,,,,,,,,,,,,,,,,,,
,,,,607eba3149bb09e39019b9ae,B,2024-08-22_08h56.17.845,Slot Machine Game,2023.1.3,Win32,62.5,,,,,,,,,,,,,,,,,,,262.795,13,0.751,263.578,up,1.5,"[3,1,2]",stimuli/card_100_transparent.png,550,100,13,0,13,0,1,,,,,,,,,,,,,,,,,,,,,,,,,,,,,,,,,,,,,,,,,
,,,,607eba3149bb09e39019b9ae,B,2024-08-22_08h56.17.845,Slot Machine Game,2023.1.3,Win32,62.5,,,,,,,,,,,,,,,,,,,265.378,14,0.688,266.078,up,0.5,"[3,1,2]",stimuli/card_100_transparent.png,650,100,14,0,14,0,1,,,,,,,,,,,,,,,,,,,,,,,,,,,,,,,,,,,,,,,,,
,,,,607eba3149bb09e39019b9ae,B,2024-08-22_08h56.17.845,Slot Machine Game,2023.1.3,Win32,62.5,,,,,,,,,,,,,,,,,,,,,,,,,,,,,,,,,,266.878,271.879,space,3.367,,,,,,,,,,,,,,,,,,,,,,,,,,,,,,,,,,,,,
,,,,607eba3149bb09e39019b9ae,B,2024-08-22_08h56.17.845,Slot Machine Game,2023.1.3,Win32,62.5,,,,,,,,,,,,,,,,,,,,,,,,,,,,,,,,,,,,,,,275.263,2,"[2,4,7,0,1,3,9,6,8,5]",space,2.238,,,,,,,,,,,,,,,,,,,,,,,,,,,,,,,
,,,,607eba3149bb09e39019b9ae,B,2024-08-22_08h56.17.845,Slot Machine Game,2023.1.3,Win32,62.5,,,,,,,,,,,,,,,,,,,,,,,,,,,0,,,,,,,,,,,,,,,,,,1,3,"[15,15]","[[3,1,2],[3,1,2]]",277.521,0,left,0.643,278.179,1,0.3,"[3,1,2]",0.538115272,stimuli/card_0_transparent.png,0,0,0,0,0,1,,,,,,,,,,
,,,,607eba3149bb09e39019b9ae,B,2024-08-22_08h56.17.845,Slot Machine Game,2023.1.3,Win32,62.5,,,,,,,,,,,,,,,,,,,,,,,,,,,100,,,,,,,,,,,,,,,,,,1,3,,,279.478,1,up,0.886,280.378,1.5,0.3,"[3,1,2]",0.709797617,stimuli/card_100_transparent.png,100,1,0,1,0,1,,,,,,,,,,
,,,,607eba3149bb09e39019b9ae,B,2024-08-22_08h56.17.845,Slot Machine Game,2023.1.3,Win32,62.5,,,,,,,,,,,,,,,,,,,,,,,,,,,200,,,,,,,,,,,,,,,,,,1,3,,,282.178,2,up,0.712,282.911,1.5,0.3,"[3,1,2]",0.888891162,stimuli/card_100_transparent.png,100,2,0,2,0,1,,,,,,,,,,
,,,,607eba3149bb09e39019b9ae,B,2024-08-22_08h56.17.845,Slot Machine Game,2023.1.3,Win32,62.5,,,,,,,,,,,,,,,,,,,,,,,,,,,300,,,,,,,,,,,,,,,,,,1,3,,,284.712,3,up,0.554,285.295,1,0.3,"[3,1,2]",0.676125193,stimuli/card_100_transparent.png,100,3,0,3,0,1,,,,,,,,,,
,,,,607eba3149bb09e39019b9ae,B,2024-08-22_08h56.17.845,Slot Machine Game,2023.1.3,Win32,62.5,,,,,,,,,,,,,,,,,,,,,,,,,,,400,,,,,,,,,,,,,,,,,,1,3,,,286.594,4,up,0.651,287.261,1,0.3,"[3,1,2]",0.630219278,stimuli/card_100_transparent.png,100,4,0,4,0,1,,,,,,,,,,
,,,,607eba3149bb09e39019b9ae,B,2024-08-22_08h56.17.845,Slot Machine Game,2023.1.3,Win32,62.5,,,,,,,,,,,,,,,,,,,,,,,,,,,500,,,,,,,,,,,,,,,,,,1,3,,,288.561,5,up,0.825,289.394,1,0.3,"[3,1,2]",0.418546864,stimuli/card_100_transparent.png,100,5,0,5,0,1,,,,,,,,,,
,,,,607eba3149bb09e39019b9ae,B,2024-08-22_08h56.17.845,Slot Machine Game,2023.1.3,Win32,62.5,,,,,,,,,,,,,,,,,,,,,,,,,,,600,,,,,,,,,,,,,,,,,,1,3,,,290.695,6,up,0.637,291.362,0.5,0.3,"[3,1,2]",0.509151206,stimuli/card_100_transparent.png,100,6,0,6,0,1,,,,,,,,,,
,,,,607eba3149bb09e39019b9ae,B,2024-08-22_08h56.17.845,Slot Machine Game,2023.1.3,Win32,62.5,,,,,,,,,,,,,,,,,,,,,,,,,,,600,,,,,,,,,,,,,,,,,,1,3,,,292.162,7,up,0.513,292.694,1.5,0.3,"[3,1,2]",0.056049624,stimuli/card_0_transparent.png,0,7,0,7,0,1,,,,,,,,,,
,,,,607eba3149bb09e39019b9ae,B,2024-08-22_08h56.17.845,Slot Machine Game,2023.1.3,Win32,62.5,,,,,,,,,,,,,,,,,,,,,,,,,,,600,,,,,,,,,,,,,,,,,,1,3,,,294.495,8,up,0.692,295.195,1,0.3,"[3,1,2]",0.007736128,stimuli/card_0_transparent.png,0,8,0,8,0,1,,,,,,,,,,
,,,,607eba3149bb09e39019b9ae,B,2024-08-22_08h56.17.845,Slot Machine Game,2023.1.3,Win32,62.5,,,,,,,,,,,,,,,,,,,,,,,,,,,610,,,,,,,,,,,,,,,,,,1,3,,,296.495,9,right,0.718,297.245,0.5,0.3,"[3,1,2]",0.290028456,stimuli/card_10_transparent.png,10,9,0,9,0,1,,,,,,,,,,
,,,,607eba3149bb09e39019b9ae,B,2024-08-22_08h56.17.845,Slot Machine Game,2023.1.3,Win32,62.5,,,,,,,,,,,,,,,,,,,,,,,,,,,610,,,,,,,,,,,,,,,,,,1,3,,,298.045,10,left,0.709,298.762,1,0.3,"[3,1,2]",0.285678192,stimuli/card_0_transparent.png,0,10,0,10,0,1,,,,,,,,,,
,,,,607eba3149bb09e39019b9ae,B,2024-08-22_08h56.17.845,Slot Machine Game,2023.1.3,Win32,62.5,,,,,,,,,,,,,,,,,,,,,,,,,,,710,,,,,,,,,,,,,,,,,,1,3,,,300.061,11,up,0.518,300.594,0.5,0.3,"[3,1,2]",0.569875076,stimuli/card_100_transparent.png,100,11,0,11,0,1,,,,,,,,,,
,,,,607eba3149bb09e39019b9ae,B,2024-08-22_08h56.17.845,Slot Machine Game,2023.1.3,Win32,62.5,,,,,,,,,,,,,,,,,,,,,,,,,,,810,,,,,,,,,,,,,,,,,,1,3,,,301.394,12,up,0.712,302.111,1.5,0.3,"[3,1,2]",0.866026277,stimuli/card_100_transparent.png,100,12,0,12,0,1,,,,,,,,,,
,,,,607eba3149bb09e39019b9ae,B,2024-08-22_08h56.17.845,Slot Machine Game,2023.1.3,Win32,62.5,,,,,,,,,,,,,,,,,,,,,,,,,,,910,,,,,,,,,,,,,,,,,,1,3,,,303.912,13,up,0.604,304.544,0.5,0.3,"[3,1,2]",0.968169351,stimuli/card_100_transparent.png,100,13,0,13,0,1,,,,,,,,,,
,,,,607eba3149bb09e39019b9ae,B,2024-08-22_08h56.17.845,Slot Machine Game,2023.1.3,Win32,62.5,,,,,,,,,,,,,,,,,,,,,,,,,,,1010,,,,,,,,,,,,,,,,,,1,3,,,305.345,14,up,0.531,305.878,1,0.3,"[3,1,2]",0.63543127,stimuli/card_100_transparent.png,100,14,0,14,0,1,,,,,,,,,,
,,,,607eba3149bb09e39019b9ae,B,2024-08-22_08h56.17.845,Slot Machine Game,2023.1.3,Win32,62.5,,,,,,,,,,,,,,,,,,,,,,,,,,,,,,,,,,307.178,,,,,,,,,,,,,,,,,,,,,,,,,,,,,,,[1010],0,0,0,0,1,,,,
,,,,607eba3149bb09e39019b9ae,B,2024-08-22_08h56.17.845,Slot Machine Game,2023.1.3,Win32,62.5,,,,,,,,,,,,,,,,,,,,,,,,,,,10,,,,,,,,,,,,,,,,,,2,5,"[5,15]","[[1,2,3],[3,1,2]]",312.187,0,up,1.154,313.362,0.5,0.3,"[1,2,3]",0.748966953,stimuli/card_10_transparent.png,10,0,0,0,0,1,,,,,,,,,,
,,,,607eba3149bb09e39019b9ae,B,2024-08-22_08h56.17.845,Slot Machine Game,2023.1.3,Win32,62.5,,,,,,,,,,,,,,,,,,,,,,,,,,,110,,,,,,,,,,,,,,,,,,2,5,,,314.161,1,left,0.804,314.978,1.5,0.3,"[1,2,3]",0.860454032,stimuli/card_100_transparent.png,100,1,0,1,0,1,,,,,,,,,,
,,,,607eba3149bb09e39019b9ae,B,2024-08-22_08h56.17.845,Slot Machine Game,2023.1.3,Win32,62.5,,,,,,,,,,,,,,,,,,,,,,,,,,,210,,,,,,,,,,,,,,,,,,2,5,,,316.778,2,left,0.607,317.412,1,0.3,"[1,2,3]",0.292923306,stimuli/card_100_transparent.png,100,2,0,2,0,1,,,,,,,,,,
,,,,607eba3149bb09e39019b9ae,B,2024-08-22_08h56.17.845,Slot Machine Game,2023.1.3,Win32,62.5,,,,,,,,,,,,,,,,,,,,,,,,,,,310,,,,,,,,,,,,,,,,,,2,5,,,318.712,3,left,0.571,319.311,1,0.3,"[1,2,3]",0.920227556,stimuli/card_100_transparent.png,100,3,0,3,0,1,,,,,,,,,,
,,,,607eba3149bb09e39019b9ae,B,2024-08-22_08h56.17.845,Slot Machine Game,2023.1.3,Win32,62.5,,,,,,,,,,,,,,,,,,,,,,,,,,,320,,,,,,,,,,,,,,,,,,2,5,,,320.611,4,left,0.792,321.411,1.5,0.3,"[1,2,3]",0.109156737,stimuli/card_10_transparent.png,10,4,0,4,0,1,,,,,,,,,,
,,,,607eba3149bb09e39019b9ae,B,2024-08-22_08h56.17.845,Slot Machine Game,2023.1.3,Win32,62.5,,,,,,,,,,,,,,,,,,,,,,,,,,,320,,,,,,,,,,,,,,,,,,2,5,,,323.211,5,left,0.712,323.928,1,0.3,"[3,1,2]",0.979401543,stimuli/card_0_transparent.png,0,5,0,5,0,1,,,,,,,,,,
,,,,607eba3149bb09e39019b9ae,B,2024-08-22_08h56.17.845,Slot Machine Game,2023.1.3,Win32,62.5,,,,,,,,,,,,,,,,,,,,,,,,,,,320,,,,,,,,,,,,,,,,,,2,5,,,325.228,6,left,0.526,325.778,1.5,0.3,"[3,1,2]",0.650312254,stimuli/card_0_transparent.png,0,6,0,6,0,1,,,,,,,,,,
,,,,607eba3149bb09e39019b9ae,B,2024-08-22_08h56.17.845,Slot Machine Game,2023.1.3,Win32,62.5,,,,,,,,,,,,,,,,,,,,,,,,,,,420,,,,,,,,,,,,,,,,,,2,5,,,327.578,7,up,0.553,328.144,1.5,0.3,"[3,1,2]",0.74777126,stimuli/card_100_transparent.png,100,7,0,7,0,1,,,,,,,,,,
,,,,607eba3149bb09e39019b9ae,B,2024-08-22_08h56.17.845,Slot Machine Game,2023.1.3,Win32,62.5,,,,,,,,,,,,,,,,,,,,,,,,,,,520,,,,,,,,,,,,,,,,,,2,5,,,329.944,8,up,0.554,330.511,0.5,0.3,"[3,1,2]",0.484270664,stimuli/card_100_transparent.png,100,8,0,8,0,1,,,,,,,,,,
,,,,607eba3149bb09e39019b9ae,B,2024-08-22_08h56.17.845,Slot Machine Game,2023.1.3,Win32,62.5,,,,,,,,,,,,,,,,,,,,,,,,,,,520,,,,,,,,,,,,,,,,,,2,5,,,331.311,9,up,0.868,332.195,0.5,0.3,"[3,1,2]",0.006341242,stimuli/card_0_transparent.png,0,9,0,9,0,1,,,,,,,,,,
,,,,607eba3149bb09e39019b9ae,B,2024-08-22_08h56.17.845,Slot Machine Game,2023.1.3,Win32,62.5,,,,,,,,,,,,,,,,,,,,,,,,,,,620,,,,,,,,,,,,,,,,,,2,5,,,332.995,10,up,0.543,333.562,1,0.3,"[3,1,2]",0.60943841,stimuli/card_100_transparent.png,100,10,0,10,0,1,,,,,,,,,,
,,,,607eba3149bb09e39019b9ae,B,2024-08-22_08h56.17.845,Slot Machine Game,2023.1.3,Win32,62.5,,,,,,,,,,,,,,,,,,,,,,,,,,,720,,,,,,,,,,,,,,,,,,2,5,,,334.861,11,up,0.567,335.445,1.5,0.3,"[3,1,2]",0.834525425,stimuli/card_100_transparent.png,100,11,0,11,0,1,,,,,,,,,,
,,,,607eba3149bb09e39019b9ae,B,2024-08-22_08h56.17.845,Slot Machine Game,2023.1.3,Win32,62.5,,,,,,,,,,,,,,,,,,,,,,,,,,,820,,,,,,,,,,,,,,,,,,2,5,,,337.245,12,up,0.734,338.012,1,0.3,"[3,1,2]",0.340913767,stimuli/card_100_transparent.png,100,12,0,12,0,1,,,,,,,,,,
,,,,607eba3149bb09e39019b9ae,B,2024-08-22_08h56.17.845,Slot Machine Game,2023.1.3,Win32,62.5,,,,,,,,,,,,,,,,,,,,,,,,,,,920,,,,,,,,,,,,,,,,,,2,5,,,339.311,13,up,0.517,339.844,0.5,0.3,"[3,1,2]",0.416704202,stimuli/card_100_transparent.png,100,13,0,13,0,1,,,,,,,,,,
,,,,607eba3149bb09e39019b9ae,B,2024-08-22_08h56.17.845,Slot Machine Game,2023.1.3,Win32,62.5,,,,,,,,,,,,,,,,,,,,,,,,,,,920,,,,,,,,,,,,,,,,,,2,5,,,340.645,14,up,0.551,341.228,1.5,0.3,"[3,1,2]",0.013110475,stimuli/card_0_transparent.png,0,14,0,14,0,1,,,,,,,,,,
,,,,607eba3149bb09e39019b9ae,B,2024-08-22_08h56.17.845,Slot Machine Game,2023.1.3,Win32,62.5,,,,,,,,,,,,,,,,,,,,,,,,,,,,,,,,,,343.028,,,,,,,,,,,,,,,,,,,,,,,,,,,,,,,"[1010,920]",1,0,1,0,1,,,,
,,,,607eba3149bb09e39019b9ae,B,2024-08-22_08h56.17.845,Slot Machine Game,2023.1.3,Win32,62.5,,,,,,,,,,,,,,,,,,,,,,,,,,,10,,,,,,,,,,,,,,,,,,3,8,"[11,15]","[[2,1,3],[1,2,3]]",348.037,0,right,0.951,349.012,1,0.3,"[2,1,3]",0.116628584,stimuli/card_10_transparent.png,10,0,0,0,0,1,,,,,,,,,,
,,,,607eba3149bb09e39019b9ae,B,2024-08-22_08h56.17.845,Slot Machine Game,2023.1.3,Win32,62.5,,,,,,,,,,,,,,,,,,,,,,,,,,,10,,,,,,,,,,,,,,,,,,3,8,,,350.312,1,up,0.522,350.861,1,0.3,"[2,1,3]",0.030908761,stimuli/card_0_transparent.png,0,1,0,1,0,1,,,,,,,,,,
,,,,607eba3149bb09e39019b9ae,B,2024-08-22_08h56.17.845,Slot Machine Game,2023.1.3,Win32,62.5,,,,,,,,,,,,,,,,,,,,,,,,,,,20,,,,,,,,,,,,,,,,,,3,8,,,352.162,2,left,0.668,352.861,1,0.3,"[2,1,3]",0.579739803,stimuli/card_10_transparent.png,10,2,0,2,0,1,,,,,,,,,,
,,,,607eba3149bb09e39019b9ae,B,2024-08-22_08h56.17.845,Slot Machine Game,2023.1.3,Win32,62.5,,,,,,,,,,,,,,,,,,,,,,,,,,,30,,,,,,,,,,,,,,,,,,3,8,,,354.162,3,left,0.809,354.995,1.5,0.3,"[2,1,3]",0.740367343,stimuli/card_10_transparent.png,10,3,0,3,0,1,,,,,,,,,,
,,,,607eba3149bb09e39019b9ae,B,2024-08-22_08h56.17.845,Slot Machine Game,2023.1.3,Win32,62.5,,,,,,,,,,,,,,,,,,,,,,,,,,,30,,,,,,,,,,,,,,,,,,3,8,,,356.794,4,right,0.656,357.461,1,0.3,"[2,1,3]",0.633246592,stimuli/card_0_transparent.png,0,4,0,4,0,1,,,,,,,,,,
,,,,607eba3149bb09e39019b9ae,B,2024-08-22_08h56.17.845,Slot Machine Game,2023.1.3,Win32,62.5,,,,,,,,,,,,,,,,,,,,,,,,,,,40,,,,,,,,,,,,,,,,,,3,8,,,358.761,5,up,0.834,359.611,0.5,0.3,"[2,1,3]",0.193742577,stimuli/card_10_transparent.png,10,5,0,5,0,1,,,,,,,,,,
,,,,607eba3149bb09e39019b9ae,B,2024-08-22_08h56.17.845,Slot Machine Game,2023.1.3,Win32,62.5,,,,,,,,,,,,,,,,,,,,,,,,,,,40,,,,,,,,,,,,,,,,,,3,8,,,360.411,6,right,0.504,360.927,0.5,0.3,"[2,1,3]",0.971842992,stimuli/card_0_transparent.png,0,6,0,6,0,1,,,,,,,,,,
,,,,607eba3149bb09e39019b9ae,B,2024-08-22_08h56.17.845,Slot Machine Game,2023.1.3,Win32,62.5,,,,,,,,,,,,,,,,,,,,,,,,,,,140,,,,,,,,,,,,,,,,,,3,8,,,361.728,7,up,0.836,362.578,1,0.3,"[2,1,3]",0.597966761,stimuli/card_100_transparent.png,100,7,0,7,0,1,,,,,,,,,,
,,,,607eba3149bb09e39019b9ae,B,2024-08-22_08h56.17.845,Slot Machine Game,2023.1.3,Win32,62.5,,,,,,,,,,,,,,,,,,,,,,,,,,,240,,,,,,,,,,,,,,,,,,3,8,,,363.878,8,up,0.734,364.628,0.5,0.3,"[2,1,3]",0.907339036,stimuli/card_100_transparent.png,100,8,0,8,0,1,,,,,,,,,,
,,,,607eba3149bb09e39019b9ae,B,2024-08-22_08h56.17.845,Slot Machine Game,2023.1.3,Win32,62.5,,,,,,,,,,,,,,,,,,,,,,,,,,,340,,,,,,,,,,,,,,,,,,3,8,,,365.428,9,up,0.639,366.078,0.5,0.3,"[2,1,3]",0.790509118,stimuli/card_100_transparent.png,100,9,0,9,0,1,,,,,,,,,,
,,,,607eba3149bb09e39019b9ae,B,2024-08-22_08h56.17.845,Slot Machine Game,2023.1.3,Win32,62.5,,,,,,,,,,,,,,,,,,,,,,,,,,,440,,,,,,,,,,,,,,,,,,3,8,,,366.877,10,up,0.568,367.461,1.5,0.3,"[2,1,3]",0.347795882,stimuli/card_100_transparent.png,100,10,0,10,0,1,,,,,,,,,,
,,,,607eba3149bb09e39019b9ae,B,2024-08-22_08h56.17.845,Slot Machine Game,2023.1.3,Win32,62.5,,,,,,,,,,,,,,,,,,,,,,,,,,,450,,,,,,,,,,,,,,,,,,3,8,,,369.262,11,up,0.67,369.961,1.5,0.3,"[1,2,3]",0.807153746,stimuli/card_10_transparent.png,10,11,0,11,0,1,,,,,,,,,,
,,,,607eba3149bb09e39019b9ae,B,2024-08-22_08h56.17.845,Slot Machine Game,2023.1.3,Win32,62.5,,,,,,,,,,,,,,,,,,,,,,,,,,,460,,,,,,,,,,,,,,,,,,3,8,,,371.761,12,up,0.529,372.295,1,0.3,"[1,2,3]",0.296772942,stimuli/card_10_transparent.png,10,12,0,12,0,1,,,,,,,,,,
,,,,607eba3149bb09e39019b9ae,B,2024-08-22_08h56.17.845,Slot Machine Game,2023.1.3,Win32,62.5,,,,,,,,,,,,,,,,,,,,,,,,,,,560,,,,,,,,,,,,,,,,,,3,8,,,373.595,13,left,0.56,374.162,1.5,0.3,"[1,2,3]",0.63423613,stimuli/card_100_transparent.png,100,13,0,13,0,1,,,,,,,,,,
,,,,607eba3149bb09e39019b9ae,B,2024-08-22_08h56.17.845,Slot Machine Game,2023.1.3,Win32,62.5,,,,,,,,,,,,,,,,,,,,,,,,,,,560,,,,,,,,,,,,,,,,,,3,8,,,375.961,14,left,0.627,376.594,1.5,0.3,"[1,2,3]",0.088651825,stimuli/card_0_transparent.png,0,14,0,14,0,1,,,,,,,,,,
,,,,607eba3149bb09e39019b9ae,B,2024-08-22_08h56.17.845,Slot Machine Game,2023.1.3,Win32,62.5,,,,,,,,,,,,,,,,,,,,,,,,,,,,,,,,,,378.394,,,,,,,,,,,,,,,,,,,,,,,,,,,,,,,"[1010,920,560]",2,0,2,0,1,,,,
,,,,607eba3149bb09e39019b9ae,B,2024-08-22_08h56.17.845,Slot Machine Game,2023.1.3,Win32,62.5,,,,,,,,,,,,,,,,,,,,,,,,,,,100,,,,,,,,,,,,,,,,,,4,1,"[12,15]","[[2,1,3],[2,3,1]]",383.403,0,up,0.624,384.045,1.5,0.3,"[2,1,3]",0.380515888,stimuli/card_100_transparent.png,100,0,0,0,0,1,,,,,,,,,,
,,,,607eba3149bb09e39019b9ae,B,2024-08-22_08h56.17.845,Slot Machine Game,2023.1.3,Win32,62.5,,,,,,,,,,,,,,,,,,,,,,,,,,,200,,,,,,,,,,,,,,,,,,4,1,,,385.844,1,up,0.502,386.361,1.5,0.3,"[2,1,3]",0.506921074,stimuli/card_100_transparent.png,100,1,0,1,0,1,,,,,,,,,,
,,,,607eba3149bb09e39019b9ae,B,2024-08-22_08h56.17.845,Slot Machine Game,2023.1.3,Win32,62.5,,,,,,,,,,,,,,,,,,,,,,,,,,,200,,,,,,,,,,,,,,,,,,4,1,,,388.161,2,up,0.641,388.812,1,0.3,"[2,1,3]",0.067848556,stimuli/card_0_transparent.png,0,2,0,2,0,1,,,,,,,,,,
,,,,607eba3149bb09e39019b9ae,B,2024-08-22_08h56.17.845,Slot Machine Game,2023.1.3,Win32,62.5,,,,,,,,,,,,,,,,,,,,,,,,,,,300,,,,,,,,,,,,,,,,,,4,1,,,390.111,3,up,0.676,390.811,0.5,0.3,"[2,1,3]",0.497593212,stimuli/card_100_transparent.png,100,3,0,3,0,1,,,,,,,,,,
,,,,607eba3149bb09e39019b9ae,B,2024-08-22_08h56.17.845,Slot Machine Game,2023.1.3,Win32,62.5,,,,,,,,,,,,,,,,,,,,,,,,,,,400,,,,,,,,,,,,,,,,,,4,1,,,391.611,4,up,0.639,392.261,0.5,0.3,"[2,1,3]",0.246019522,stimuli/card_100_transparent.png,100,4,0,4,0,1,,,,,,,,,,
,,,,607eba3149bb09e39019b9ae,B,2024-08-22_08h56.17.845,Slot Machine Game,2023.1.3,Win32,62.5,,,,,,,,,,,,,,,,,,,,,,,,,,,500,,,,,,,,,,,,,,,,,,4,1,,,393.061,5,up,0.718,393.795,1,0.3,"[2,1,3]",0.659679162,stimuli/card_100_transparent.png,100,5,0,5,0,1,,,,,,,,,,
,,,,607eba3149bb09e39019b9ae,B,2024-08-22_08h56.17.845,Slot Machine Game,2023.1.3,Win32,62.5,,,,,,,,,,,,,,,,,,,,,,,,,,,600,,,,,,,,,,,,,,,,,,4,1,,,395.094,6,up,0.54,395.645,1,0.3,"[2,1,3]",0.437413614,stimuli/card_100_transparent.png,100,6,0,6,0,1,,,,,,,,,,
,,,,607eba3149bb09e39019b9ae,B,2024-08-22_08h56.17.845,Slot Machine Game,2023.1.3,Win32,62.5,,,,,,,,,,,,,,,,,,,,,,,,,,,700,,,,,,,,,,,,,,,,,,4,1,,,396.944,7,up,0.553,397.511,1,0.3,"[2,1,3]",0.844780778,stimuli/card_100_transparent.png,100,7,0,7,0,1,,,,,,,,,,
,,,,607eba3149bb09e39019b9ae,B,2024-08-22_08h56.17.845,Slot Machine Game,2023.1.3,Win32,62.5,,,,,,,,,,,,,,,,,,,,,,,,,,,710,,,,,,,,,,,,,,,,,,4,1,,,398.812,8,up,0.503,399.345,1,0.3,"[2,1,3]",0.133702351,stimuli/card_10_transparent.png,10,8,0,8,0,1,,,,,,,,,,
,,,,607eba3149bb09e39019b9ae,B,2024-08-22_08h56.17.845,Slot Machine Game,2023.1.3,Win32,62.5,,,,,,,,,,,,,,,,,,,,,,,,,,,710,,,,,,,,,,,,,,,,,,4,1,,,400.644,9,up,0.644,401.294,0.5,0.3,"[2,1,3]",0.057795575,stimuli/card_0_transparent.png,0,9,0,9,0,1,,,,,,,,,,
,,,,607eba3149bb09e39019b9ae,B,2024-08-22_08h56.17.845,Slot Machine Game,2023.1.3,Win32,62.5,,,,,,,,,,,,,,,,,,,,,,,,,,,810,,,,,,,,,,,,,,,,,,4,1,,,402.095,10,up,0.605,402.727,1.5,0.3,"[2,1,3]",0.866715198,stimuli/card_100_transparent.png,100,10,0,10,0,1,,,,,,,,,,
,,,,607eba3149bb09e39019b9ae,B,2024-08-22_08h56.17.845,Slot Machine Game,2023.1.3,Win32,62.5,,,,,,,,,,,,,,,,,,,,,,,,,,,910,,,,,,,,,,,,,,,,,,4,1,,,404.528,11,up,0.54,405.078,0.5,0.3,"[2,1,3]",0.485599356,stimuli/card_100_transparent.png,100,11,0,11,0,1,,,,,,,,,,
,,,,607eba3149bb09e39019b9ae,B,2024-08-22_08h56.17.845,Slot Machine Game,2023.1.3,Win32,62.5,,,,,,,,,,,,,,,,,,,,,,,,,,,910,,,,,,,,,,,,,,,,,,4,1,,,405.878,12,up,0.501,406.394,1.5,0.3,"[2,3,1]",0.947395019,stimuli/card_0_transparent.png,0,12,0,12,0,1,,,,,,,,,,
,,,,607eba3149bb09e39019b9ae,B,2024-08-22_08h56.17.845,Slot Machine Game,2023.1.3,Win32,62.5,,,,,,,,,,,,,,,,,,,,,,,,,,,910,,,,,,,,,,,,,,,,,,4,1,,,408.194,13,up,0.728,408.928,1.5,0.3,"[2,3,1]",0.311186467,stimuli/card_0_transparent.png,0,13,0,13,0,1,,,,,,,,,,
,,,,607eba3149bb09e39019b9ae,B,2024-08-22_08h56.17.845,Slot Machine Game,2023.1.3,Win32,62.5,,,,,,,,,,,,,,,,,,,,,,,,,,,920,,,,,,,,,,,,,,,,,,4,1,,,410.728,14,left,1.106,411.844,1,0.3,"[2,3,1]",0.287596747,stimuli/card_10_transparent.png,10,14,0,14,0,1,,,,,,,,,,
,,,,607eba3149bb09e39019b9ae,B,2024-08-22_08h56.17.845,Slot Machine Game,2023.1.3,Win32,62.5,,,,,,,,,,,,,,,,,,,,,,,,,,,,,,,,,,413.144,,,,,,,,,,,,,,,,,,,,,,,,,,,,,,,"[1010,920,560,920]",3,0,3,0,1,,,,
,,,,607eba3149bb09e39019b9ae,B,2024-08-22_08h56.17.845,Slot Machine Game,2023.1.3,Win32,62.5,,,,,,,,,,,,,,,,,,,,,,,,,,,10,,,,,,,,,,,,,,,,,,5,2,"[6,15]","[[1,3,2],[3,2,1]]",418.154,0,right,0.834,419.011,1.5,0.3,"[1,3,2]",0.944690476,stimuli/card_10_transparent.png,10,0,0,0,0,1,,,,,,,,,,
,,,,607eba3149bb09e39019b9ae,B,2024-08-22_08h56.17.845,Slot Machine Game,2023.1.3,Win32,62.5,,,,,,,,,,,,,,,,,,,,,,,,,,,20,,,,,,,,,,,,,,,,,,5,2,,,420.811,1,up,0.504,421.327,1,0.3,"[1,3,2]",0.16083876,stimuli/card_10_transparent.png,10,1,0,1,0,1,,,,,,,,,,
,,,,607eba3149bb09e39019b9ae,B,2024-08-22_08h56.17.845,Slot Machine Game,2023.1.3,Win32,62.5,,,,,,,,,,,,,,,,,,,,,,,,,,,120,,,,,,,,,,,,,,,,,,5,2,,,422.628,2,left,0.662,423.295,1.5,0.3,"[1,3,2]",0.97337955,stimuli/card_100_transparent.png,100,2,0,2,0,1,,,,,,,,,,
,,,,607eba3149bb09e39019b9ae,B,2024-08-22_08h56.17.845,Slot Machine Game,2023.1.3,Win32,62.5,,,,,,,,,,,,,,,,,,,,,,,,,,,220,,,,,,,,,,,,,,,,,,5,2,,,425.095,3,left,0.555,425.677,0.5,0.3,"[1,3,2]",0.838821073,stimuli/card_100_transparent.png,100,3,0,3,0,1,,,,,,,,,,
,,,,607eba3149bb09e39019b9ae,B,2024-08-22_08h56.17.845,Slot Machine Game,2023.1.3,Win32,62.5,,,,,,,,,,,,,,,,,,,,,,,,,,,320,,,,,,,,,,,,,,,,,,5,2,,,426.478,4,left,0.584,427.077,1,0.3,"[1,3,2]",0.638414762,stimuli/card_100_transparent.png,100,4,0,4,0,1,,,,,,,,,,
,,,,607eba3149bb09e39019b9ae,B,2024-08-22_08h56.17.845,Slot Machine Game,2023.1.3,Win32,62.5,,,,,,,,,,,,,,,,,,,,,,,,,,,330,,,,,,,,,,,,,,,,,,5,2,,,428.377,5,left,0.652,429.044,1,0.3,"[1,3,2]",0.146910874,stimuli/card_10_transparent.png,10,5,0,5,0,1,,,,,,,,,,
,,,,607eba3149bb09e39019b9ae,B,2024-08-22_08h56.17.845,Slot Machine Game,2023.1.3,Win32,62.5,,,,,,,,,,,,,,,,,,,,,,,,,,,330,,,,,,,,,,,,,,,,,,5,2,,,430.344,6,left,0.554,430.911,1.5,0.3,"[3,2,1]",0.891818578,stimuli/card_0_transparent.png,0,6,0,6,0,1,,,,,,,,,,
,,,,607eba3149bb09e39019b9ae,B,2024-08-22_08h56.17.845,Slot Machine Game,2023.1.3,Win32,62.5,,,,,,,,,,,,,,,,,,,,,,,,,,,330,,,,,,,,,,,,,,,,,,5,2,,,432.711,7,left,1.02,433.744,0.5,0.3,"[3,2,1]",0.828560962,stimuli/card_0_transparent.png,0,7,0,7,0,1,,,,,,,,,,
,,,,607eba3149bb09e39019b9ae,B,2024-08-22_08h56.17.845,Slot Machine Game,2023.1.3,Win32,62.5,,,,,,,,,,,,,,,,,,,,,,,,,,,330,,,,,,,,,,,,,,,,,,5,2,,,434.545,8,up,0.546,435.111,1.5,0.3,"[3,2,1]",0.080342797,stimuli/card_0_transparent.png,0,8,0,8,0,1,,,,,,,,,,
,,,,607eba3149bb09e39019b9ae,B,2024-08-22_08h56.17.845,Slot Machine Game,2023.1.3,Win32,62.5,,,,,,,,,,,,,,,,,,,,,,,,,,,430,,,,,,,,,,,,,,,,,,5,2,,,436.911,9,right,0.771,437.694,1.5,0.3,"[3,2,1]",0.894647606,stimuli/card_100_transparent.png,100,9,0,9,0,1,,,,,,,,,,
,,,,607eba3149bb09e39019b9ae,B,2024-08-22_08h56.17.845,Slot Machine Game,2023.1.3,Win32,62.5,,,,,,,,,,,,,,,,,,,,,,,,,,,530,,,,,,,,,,,,,,,,,,5,2,,,439.495,10,right,0.5,440.028,0.5,0.3,"[3,2,1]",0.78938478,stimuli/card_100_transparent.png,100,10,0,10,0,1,,,,,,,,,,
,,,,607eba3149bb09e39019b9ae,B,2024-08-22_08h56.17.845,Slot Machine Game,2023.1.3,Win32,62.5,,,,,,,,,,,,,,,,,,,,,,,,,,,630,,,,,,,,,,,,,,,,,,5,2,,,440.828,11,right,0.584,441.428,1,0.3,"[3,2,1]",0.355017796,stimuli/card_100_transparent.png,100,11,0,11,0,1,,,,,,,,,,
,,,,607eba3149bb09e39019b9ae,B,2024-08-22_08h56.17.845,Slot Machine Game,2023.1.3,Win32,62.5,,,,,,,,,,,,,,,,,,,,,,,,,,,730,,,,,,,,,,,,,,,,,,5,2,,,442.728,12,right,0.69,443.428,1.5,0.3,"[3,2,1]",0.642277989,stimuli/card_100_transparent.png,100,12,0,12,0,1,,,,,,,,,,
,,,,607eba3149bb09e39019b9ae,B,2024-08-22_08h56.17.845,Slot Machine Game,2023.1.3,Win32,62.5,,,,,,,,,,,,,,,,,,,,,,,,,,,830,,,,,,,,,,,,,,,,,,5,2,,,445.228,13,right,0.678,445.911,1.5,0.3,"[3,2,1]",0.601173619,stimuli/card_100_transparent.png,100,13,0,13,0,1,,,,,,,,,,
,,,,607eba3149bb09e39019b9ae,B,2024-08-22_08h56.17.845,Slot Machine Game,2023.1.3,Win32,62.5,,,,,,,,,,,,,,,,,,,,,,,,,,,830,,,,,,,,,,,,,,,,,,5,2,,,447.711,14,right,0.62,448.344,1.5,0.3,"[3,2,1]",0.084996389,stimuli/card_0_transparent.png,0,14,0,14,0,1,,,,,,,,,,
,,,,607eba3149bb09e39019b9ae,B,2024-08-22_08h56.17.845,Slot Machine Game,2023.1.3,Win32,62.5,,,,,,,,,,,,,,,,,,,,,,,,,,,,,,,,,,450.144,,,,,,,,,,,,,,,,,,,,,,,,,,,,,,,"[1010,920,560,920,830]",4,0,4,0,1,,,,
,,,,607eba3149bb09e39019b9ae,B,2024-08-22_08h56.17.845,Slot Machine Game,2023.1.3,Win32,62.5,,,,,,,,,,,,,,,,,,,,,,,,,,,0,,,,,,,,,,,,,,,,,,6,4,"[7,15]","[[2,3,1],[1,2,3]]",455.153,0,up,0.77,455.944,1.5,0.3,"[2,3,1]",0.30826147,stimuli/card_0_transparent.png,0,0,0,0,0,1,,,,,,,,,,
,,,,607eba3149bb09e39019b9ae,B,2024-08-22_08h56.17.845,Slot Machine Game,2023.1.3,Win32,62.5,,,,,,,,,,,,,,,,,,,,,,,,,,,10,,,,,,,,,,,,,,,,,,6,4,,,457.744,1,left,0.787,458.545,1.5,0.3,"[2,3,1]",0.995963613,stimuli/card_10_transparent.png,10,1,0,1,0,1,,,,,,,,,,
,,,,607eba3149bb09e39019b9ae,B,2024-08-22_08h56.17.845,Slot Machine Game,2023.1.3,Win32,62.5,,,,,,,,,,,,,,,,,,,,,,,,,,,110,,,,,,,,,,,,,,,,,,6,4,,,460.344,2,right,0.987,461.344,1.5,0.3,"[2,3,1]",0.531646431,stimuli/card_100_transparent.png,100,2,0,2,0,1,,,,,,,,,,
,,,,607eba3149bb09e39019b9ae,B,2024-08-22_08h56.17.845,Slot Machine Game,2023.1.3,Win32,62.5,,,,,,,,,,,,,,,,,,,,,,,,,,,210,,,,,,,,,,,,,,,,,,6,4,,,463.144,3,right,0.555,463.711,1.5,0.3,"[2,3,1]",0.534769378,stimuli/card_100_transparent.png,100,3,0,3,0,1,,,,,,,,,,
,,,,607eba3149bb09e39019b9ae,B,2024-08-22_08h56.17.845,Slot Machine Game,2023.1.3,Win32,62.5,,,,,,,,,,,,,,,,,,,,,,,,,,,310,,,,,,,,,,,,,,,,,,6,4,,,465.51,4,right,0.621,466.144,1,0.3,"[2,3,1]",0.40520162,stimuli/card_100_transparent.png,100,4,0,4,0,1,,,,,,,,,,
,,,,607eba3149bb09e39019b9ae,B,2024-08-22_08h56.17.845,Slot Machine Game,2023.1.3,Win32,62.5,,,,,,,,,,,,,,,,,,,,,,,,,,,410,,,,,,,,,,,,,,,,,,6,4,,,467.445,5,right,0.557,468.028,0.5,0.3,"[2,3,1]",0.787794531,stimuli/card_100_transparent.png,100,5,0,5,0,1,,,,,,,,,,
,,,,607eba3149bb09e39019b9ae,B,2024-08-22_08h56.17.845,Slot Machine Game,2023.1.3,Win32,62.5,,,,,,,,,,,,,,,,,,,,,,,,,,,510,,,,,,,,,,,,,,,,,,6,4,,,468.828,6,right,0.534,469.395,0.5,0.3,"[2,3,1]",0.83018808,stimuli/card_100_transparent.png,100,6,0,6,0,1,,,,,,,,,,
,,,,607eba3149bb09e39019b9ae,B,2024-08-22_08h56.17.845,Slot Machine Game,2023.1.3,Win32,62.5,,,,,,,,,,,,,,,,,,,,,,,,,,,510,,,,,,,,,,,,,,,,,,6,4,,,470.194,7,right,0.64,470.844,0.5,0.3,"[1,2,3]",0.702545696,stimuli/card_0_transparent.png,0,7,0,7,0,1,,,,,,,,,,
,,,,607eba3149bb09e39019b9ae,B,2024-08-22_08h56.17.845,Slot Machine Game,2023.1.3,Win32,62.5,,,,,,,,,,,,,,,,,,,,,,,,,,,510,,,,,,,,,,,,,,,,,,6,4,,,471.644,8,right,0.663,472.311,1.5,0.3,"[1,2,3]",0.323525568,stimuli/card_0_transparent.png,0,8,0,8,0,1,,,,,,,,,,
,,,,607eba3149bb09e39019b9ae,B,2024-08-22_08h56.17.845,Slot Machine Game,2023.1.3,Win32,62.5,,,,,,,,,,,,,,,,,,,,,,,,,,,510,,,,,,,,,,,,,,,,,,6,4,,,474.111,9,right,1.659,475.778,0.5,0.3,"[1,2,3]",0.930092058,stimuli/card_0_transparent.png,0,9,0,9,0,1,,,,,,,,,,
,,,,607eba3149bb09e39019b9ae,B,2024-08-22_08h56.17.845,Slot Machine Game,2023.1.3,Win32,62.5,,,,,,,,,,,,,,,,,,,,,,,,,,,610,,,,,,,,,,,,,,,,,,6,4,,,476.577,10,up,0.618,477.211,1,0.3,"[1,2,3]",0.140763206,stimuli/card_100_transparent.png,100,10,0,10,0,1,,,,,,,,,,
,,,,607eba3149bb09e39019b9ae,B,2024-08-22_08h56.17.845,Slot Machine Game,2023.1.3,Win32,62.5,,,,,,,,,,,,,,,,,,,,,,,,,,,620,,,,,,,,,,,,,,,,,,6,4,,,478.511,11,up,0.517,479.045,1.5,0.3,"[1,2,3]",0.490844475,stimuli/card_10_transparent.png,10,11,0,11,0,1,,,,,,,,,,
,,,,607eba3149bb09e39019b9ae,B,2024-08-22_08h56.17.845,Slot Machine Game,2023.1.3,Win32,62.5,,,,,,,,,,,,,,,,,,,,,,,,,,,630,,,,,,,,,,,,,,,,,,6,4,,,480.844,12,up,0.693,481.544,0.5,0.3,"[1,2,3]",0.555413688,stimuli/card_10_transparent.png,10,12,0,12,0,1,,,,,,,,,,
,,,,607eba3149bb09e39019b9ae,B,2024-08-22_08h56.17.845,Slot Machine Game,2023.1.3,Win32,62.5,,,,,,,,,,,,,,,,,,,,,,,,,,,640,,,,,,,,,,,,,,,,,,6,4,,,482.344,13,up,0.5,482.861,1.5,0.3,"[1,2,3]",0.535885414,stimuli/card_10_transparent.png,10,13,0,13,0,1,,,,,,,,,,
,,,,607eba3149bb09e39019b9ae,B,2024-08-22_08h56.17.845,Slot Machine Game,2023.1.3,Win32,62.5,,,,,,,,,,,,,,,,,,,,,,,,,,,640,,,,,,,,,,,,,,,,,,6,4,,,484.661,14,left,0.7,485.394,0.5,0.3,"[1,2,3]",0.093180493,stimuli/card_0_transparent.png,0,14,0,14,0,1,,,,,,,,,,
,,,,607eba3149bb09e39019b9ae,B,2024-08-22_08h56.17.845,Slot Machine Game,2023.1.3,Win32,62.5,,,,,,,,,,,,,,,,,,,,,,,,,,,,,,,,,,486.195,,,,,,,,,,,,,,,,,,,,,,,,,,,,,,,"[1010,920,560,920,830,640]",5,0,5,0,1,,,,
,,,,607eba3149bb09e39019b9ae,B,2024-08-22_08h56.17.845,Slot Machine Game,2023.1.3,Win32,62.5,,,,,,,,,,,,,,,,,,,,,,,,,,,0,,,,,,,,,,,,,,,,,,7,10,"[10,15]","[[3,1,2],[1,3,2]]",491.203,0,left,1.129,492.344,1,0.3,"[3,1,2]",0.441939977,stimuli/card_0_transparent.png,0,0,0,0,0,1,,,,,,,,,,
,,,,607eba3149bb09e39019b9ae,B,2024-08-22_08h56.17.845,Slot Machine Game,2023.1.3,Win32,62.5,,,,,,,,,,,,,,,,,,,,,,,,,,,0,,,,,,,,,,,,,,,,,,7,10,,,493.644,1,up,0.769,494.427,1.5,0.3,"[3,1,2]",0.046180813,stimuli/card_0_transparent.png,0,1,0,1,0,1,,,,,,,,,,
,,,,607eba3149bb09e39019b9ae,B,2024-08-22_08h56.17.845,Slot Machine Game,2023.1.3,Win32,62.5,,,,,,,,,,,,,,,,,,,,,,,,,,,10,,,,,,,,,,,,,,,,,,7,10,,,496.227,2,right,0.864,497.094,0.5,0.3,"[3,1,2]",0.847589366,stimuli/card_10_transparent.png,10,2,0,2,0,1,,,,,,,,,,
,,,,607eba3149bb09e39019b9ae,B,2024-08-22_08h56.17.845,Slot Machine Game,2023.1.3,Win32,62.5,,,,,,,,,,,,,,,,,,,,,,,,,,,20,,,,,,,,,,,,,,,,,,7,10,,,497.894,3,right,0.589,498.494,1,0.3,"[3,1,2]",0.883014154,stimuli/card_10_transparent.png,10,3,0,3,0,1,,,,,,,,,,
,,,,607eba3149bb09e39019b9ae,B,2024-08-22_08h56.17.845,Slot Machine Game,2023.1.3,Win32,62.5,,,,,,,,,,,,,,,,,,,,,,,,,,,120,,,,,,,,,,,,,,,,,,7,10,,,499.794,4,up,0.834,500.645,1,0.3,"[3,1,2]",0.569949888,stimuli/card_100_transparent.png,100,4,0,4,0,1,,,,,,,,,,
,,,,607eba3149bb09e39019b9ae,B,2024-08-22_08h56.17.845,Slot Machine Game,2023.1.3,Win32,62.5,,,,,,,,,,,,,,,,,,,,,,,,,,,220,,,,,,,,,,,,,,,,,,7,10,,,501.944,5,up,0.62,502.577,0.5,0.3,"[3,1,2]",0.806648306,stimuli/card_100_transparent.png,100,5,0,5,0,1,,,,,,,,,,
,,,,607eba3149bb09e39019b9ae,B,2024-08-22_08h56.17.845,Slot Machine Game,2023.1.3,Win32,62.5,,,,,,,,,,,,,,,,,,,,,,,,,,,320,,,,,,,,,,,,,,,,,,7,10,,,503.378,6,up,0.667,504.077,1,0.3,"[3,1,2]",0.480718231,stimuli/card_100_transparent.png,100,6,0,6,0,1,,,,,,,,,,
,,,,607eba3149bb09e39019b9ae,B,2024-08-22_08h56.17.845,Slot Machine Game,2023.1.3,Win32,62.5,,,,,,,,,,,,,,,,,,,,,,,,,,,420,,,,,,,,,,,,,,,,,,7,10,,,505.377,7,up,0.777,506.161,0.5,0.3,"[3,1,2]",0.560842624,stimuli/card_100_transparent.png,100,7,0,7,0,1,,,,,,,,,,
,,,,607eba3149bb09e39019b9ae,B,2024-08-22_08h56.17.845,Slot Machine Game,2023.1.3,Win32,62.5,,,,,,,,,,,,,,,,,,,,,,,,,,,520,,,,,,,,,,,,,,,,,,7,10,,,506.961,8,up,0.667,507.644,1,0.3,"[3,1,2]",0.461614327,stimuli/card_100_transparent.png,100,8,0,8,0,1,,,,,,,,,,
,,,,607eba3149bb09e39019b9ae,B,2024-08-22_08h56.17.845,Slot Machine Game,2023.1.3,Win32,62.5,,,,,,,,,,,,,,,,,,,,,,,,,,,620,,,,,,,,,,,,,,,,,,7,10,,,508.944,9,up,0.642,509.594,0.5,0.3,"[3,1,2]",0.727725373,stimuli/card_100_transparent.png,100,9,0,9,0,1,,,,,,,,,,
,,,,607eba3149bb09e39019b9ae,B,2024-08-22_08h56.17.845,Slot Machine Game,2023.1.3,Win32,62.5,,,,,,,,,,,,,,,,,,,,,,,,,,,630,,,,,,,,,,,,,,,,,,7,10,,,510.394,10,up,1.435,511.844,0.5,0.3,"[1,3,2]",0.180075228,stimuli/card_10_transparent.png,10,10,0,10,0,1,,,,,,,,,,
,,,,607eba3149bb09e39019b9ae,B,2024-08-22_08h56.17.845,Slot Machine Game,2023.1.3,Win32,62.5,,,,,,,,,,,,,,,,,,,,,,,,,,,630,,,,,,,,,,,,,,,,,,7,10,,,512.645,11,up,0.653,513.327,1.5,0.3,"[1,3,2]",0.797404317,stimuli/card_0_transparent.png,0,11,0,11,0,1,,,,,,,,,,
,,,,607eba3149bb09e39019b9ae,B,2024-08-22_08h56.17.845,Slot Machine Game,2023.1.3,Win32,62.5,,,,,,,,,,,,,,,,,,,,,,,,,,,730,,,,,,,,,,,,,,,,,,7,10,,,515.127,12,left,0.691,515.828,1,0.3,"[1,3,2]",0.916321916,stimuli/card_100_transparent.png,100,12,0,12,0,1,,,,,,,,,,
,,,,607eba3149bb09e39019b9ae,B,2024-08-22_08h56.17.845,Slot Machine Game,2023.1.3,Win32,62.5,,,,,,,,,,,,,,,,,,,,,,,,,,,830,,,,,,,,,,,,,,,,,,7,10,,,517.128,13,left,0.57,517.728,0.5,0.3,"[1,3,2]",0.286192495,stimuli/card_100_transparent.png,100,13,0,13,0,1,,,,,,,,,,
,,,,607eba3149bb09e39019b9ae,B,2024-08-22_08h56.17.845,Slot Machine Game,2023.1.3,Win32,62.5,,,,,,,,,,,,,,,,,,,,,,,,,,,930,,,,,,,,,,,,,,,,,,7,10,,,518.528,14,left,0.603,519.161,1.5,0.3,"[1,3,2]",0.66786373,stimuli/card_100_transparent.png,100,14,0,14,0,1,,,,,,,,,,
,,,,607eba3149bb09e39019b9ae,B,2024-08-22_08h56.17.845,Slot Machine Game,2023.1.3,Win32,62.5,,,,,,,,,,,,,,,,,,,,,,,,,,,,,,,,,,520.961,,,,,,,,,,,,,,,,,,,,,,,,,,,,,,,"[1010,920,560,920,830,640,930]",6,0,6,0,1,,,,
,,,,607eba3149bb09e39019b9ae,B,2024-08-22_08h56.17.845,Slot Machine Game,2023.1.3,Win32,62.5,,,,,,,,,,,,,,,,,,,,,,,,,,,100,,,,,,,,,,,,,,,,,,8,7,"[9,15]","[[1,3,2],[2,3,1]]",525.97,0,up,1.409,527.394,1.5,0.3,"[1,3,2]",0.062714105,stimuli/card_100_transparent.png,100,0,0,0,0,1,,,,,,,,,,
,,,,607eba3149bb09e39019b9ae,B,2024-08-22_08h56.17.845,Slot Machine Game,2023.1.3,Win32,62.5,,,,,,,,,,,,,,,,,,,,,,,,,,,100,,,,,,,,,,,,,,,,,,8,7,,,529.194,1,up,0.667,529.877,1.5,0.3,"[1,3,2]",0.297606655,stimuli/card_0_transparent.png,0,1,0,1,0,1,,,,,,,,,,
,,,,607eba3149bb09e39019b9ae,B,2024-08-22_08h56.17.845,Slot Machine Game,2023.1.3,Win32,62.5,,,,,,,,,,,,,,,,,,,,,,,,,,,100,,,,,,,,,,,,,,,,,,8,7,,,531.678,2,up,0.884,532.594,1.5,0.3,"[1,3,2]",0.837033293,stimuli/card_0_transparent.png,0,2,0,2,0,1,,,,,,,,,,
,,,,607eba3149bb09e39019b9ae,B,2024-08-22_08h56.17.845,Slot Machine Game,2023.1.3,Win32,62.5,,,,,,,,,,,,,,,,,,,,,,,,,,,200,,,,,,,,,,,,,,,,,,8,7,,,534.394,3,left,0.729,535.128,1.5,0.3,"[1,3,2]",0.424241002,stimuli/card_100_transparent.png,100,3,0,3,0,1,,,,,,,,,,
,,,,607eba3149bb09e39019b9ae,B,2024-08-22_08h56.17.845,Slot Machine Game,2023.1.3,Win32,62.5,,,,,,,,,,,,,,,,,,,,,,,,,,,300,,,,,,,,,,,,,,,,,,8,7,,,536.928,4,left,0.605,537.561,1.5,0.3,"[1,3,2]",0.415395139,stimuli/card_100_transparent.png,100,4,0,4,0,1,,,,,,,,,,
,,,,607eba3149bb09e39019b9ae,B,2024-08-22_08h56.17.845,Slot Machine Game,2023.1.3,Win32,62.5,,,,,,,,,,,,,,,,,,,,,,,,,,,400,,,,,,,,,,,,,,,,,,8,7,,,539.361,5,left,1.091,540.461,0.5,0.3,"[1,3,2]",0.652579766,stimuli/card_100_transparent.png,100,5,0,5,0,1,,,,,,,,,,
,,,,607eba3149bb09e39019b9ae,B,2024-08-22_08h56.17.845,Slot Machine Game,2023.1.3,Win32,62.5,,,,,,,,,,,,,,,,,,,,,,,,,,,400,,,,,,,,,,,,,,,,,,8,7,,,541.261,6,left,0.629,541.894,0.5,0.3,"[1,3,2]",0.097730234,stimuli/card_0_transparent.png,0,6,0,6,0,1,,,,,,,,,,
,,,,607eba3149bb09e39019b9ae,B,2024-08-22_08h56.17.845,Slot Machine Game,2023.1.3,Win32,62.5,,,,,,,,,,,,,,,,,,,,,,,,,,,500,,,,,,,,,,,,,,,,,,8,7,,,542.694,7,left,0.676,543.377,1,0.3,"[1,3,2]",0.471811415,stimuli/card_100_transparent.png,100,7,0,7,0,1,,,,,,,,,,
,,,,607eba3149bb09e39019b9ae,B,2024-08-22_08h56.17.845,Slot Machine Game,2023.1.3,Win32,62.5,,,,,,,,,,,,,,,,,,,,,,,,,,,600,,,,,,,,,,,,,,,,,,8,7,,,544.677,8,left,0.785,545.478,1,0.3,"[1,3,2]",0.206923111,stimuli/card_100_transparent.png,100,8,0,8,0,1,,,,,,,,,,
,,,,607eba3149bb09e39019b9ae,B,2024-08-22_08h56.17.845,Slot Machine Game,2023.1.3,Win32,62.5,,,,,,,,,,,,,,,,,,,,,,,,,,,610,,,,,,,,,,,,,,,,,,8,7,,,546.777,9,left,0.536,547.327,1,0.3,"[2,3,1]",0.557300539,stimuli/card_10_transparent.png,10,9,0,9,0,1,,,,,,,,,,
,,,,607eba3149bb09e39019b9ae,B,2024-08-22_08h56.17.845,Slot Machine Game,2023.1.3,Win32,62.5,,,,,,,,,,,,,,,,,,,,,,,,,,,620,,,,,,,,,,,,,,,,,,8,7,,,548.627,10,left,0.551,549.194,1,0.3,"[2,3,1]",0.692486607,stimuli/card_10_transparent.png,10,10,0,10,0,1,,,,,,,,,,
,,,,607eba3149bb09e39019b9ae,B,2024-08-22_08h56.17.845,Slot Machine Game,2023.1.3,Win32,62.5,,,,,,,,,,,,,,,,,,,,,,,,,,,620,,,,,,,,,,,,,,,,,,8,7,,,550.494,11,up,0.692,551.194,1.5,0.3,"[2,3,1]",0.506925691,stimuli/card_0_transparent.png,0,11,0,11,0,1,,,,,,,,,,
,,,,607eba3149bb09e39019b9ae,B,2024-08-22_08h56.17.845,Slot Machine Game,2023.1.3,Win32,62.5,,,,,,,,,,,,,,,,,,,,,,,,,,,720,,,,,,,,,,,,,,,,,,8,7,,,552.995,12,right,0.721,553.744,0.5,0.3,"[2,3,1]",0.331293436,stimuli/card_100_transparent.png,100,12,0,12,0,1,,,,,,,,,,
,,,,607eba3149bb09e39019b9ae,B,2024-08-22_08h56.17.845,Slot Machine Game,2023.1.3,Win32,62.5,,,,,,,,,,,,,,,,,,,,,,,,,,,820,,,,,,,,,,,,,,,,,,8,7,,,554.544,13,right,0.641,555.21,0.5,0.3,"[2,3,1]",0.467904233,stimuli/card_100_transparent.png,100,13,0,13,0,1,,,,,,,,,,
,,,,607eba3149bb09e39019b9ae,B,2024-08-22_08h56.17.845,Slot Machine Game,2023.1.3,Win32,62.5,,,,,,,,,,,,,,,,,,,,,,,,,,,920,,,,,,,,,,,,,,,,,,8,7,,,556.011,14,right,1.08,557.094,0.5,0.3,"[2,3,1]",0.708342293,stimuli/card_100_transparent.png,100,14,0,14,0,1,,,,,,,,,,
,,,,607eba3149bb09e39019b9ae,B,2024-08-22_08h56.17.845,Slot Machine Game,2023.1.3,Win32,62.5,,,,,,,,,,,,,,,,,,,,,,,,,,,,,,,,,,557.894,,,,,,,,,,,,,,,,,,,,,,,,,,,,,,,"[1010,920,560,920,830,640,930,920]",7,0,7,0,1,,,,
,,,,607eba3149bb09e39019b9ae,B,2024-08-22_08h56.17.845,Slot Machine Game,2023.1.3,Win32,62.5,,,,,,,,,,,,,,,,,,,,,,,,,,,0,,,,,,,,,,,,,,,,,,9,9,"[8,15]","[[3,2,1],[3,1,2]]",562.903,0,right,0.972,563.894,1,0.3,"[3,2,1]",0.013955925,stimuli/card_0_transparent.png,0,0,0,0,0,1,,,,,,,,,,
,,,,607eba3149bb09e39019b9ae,B,2024-08-22_08h56.17.845,Slot Machine Game,2023.1.3,Win32,62.5,,,,,,,,,,,,,,,,,,,,,,,,,,,10,,,,,,,,,,,,,,,,,,9,9,,,565.195,1,up,0.543,565.761,0.5,0.3,"[3,2,1]",0.633919903,stimuli/card_10_transparent.png,10,1,0,1,0,1,,,,,,,,,,
,,,,607eba3149bb09e39019b9ae,B,2024-08-22_08h56.17.845,Slot Machine Game,2023.1.3,Win32,62.5,,,,,,,,,,,,,,,,,,,,,,,,,,,10,,,,,,,,,,,,,,,,,,9,9,,,566.561,2,left,0.835,567.427,1.5,0.3,"[3,2,1]",0.713860378,stimuli/card_0_transparent.png,0,2,0,2,0,1,,,,,,,,,,
,,,,607eba3149bb09e39019b9ae,B,2024-08-22_08h56.17.845,Slot Machine Game,2023.1.3,Win32,62.5,,,,,,,,,,,,,,,,,,,,,,,,,,,20,,,,,,,,,,,,,,,,,,9,9,,,569.228,3,up,0.542,569.778,1,0.3,"[3,2,1]",0.299148637,stimuli/card_10_transparent.png,10,3,0,3,0,1,,,,,,,,,,
,,,,607eba3149bb09e39019b9ae,B,2024-08-22_08h56.17.845,Slot Machine Game,2023.1.3,Win32,62.5,,,,,,,,,,,,,,,,,,,,,,,,,,,120,,,,,,,,,,,,,,,,,,9,9,,,571.078,4,right,0.612,571.71,1,0.3,"[3,2,1]",0.255725921,stimuli/card_100_transparent.png,100,4,0,4,0,1,,,,,,,,,,
,,,,607eba3149bb09e39019b9ae,B,2024-08-22_08h56.17.845,Slot Machine Game,2023.1.3,Win32,62.5,,,,,,,,,,,,,,,,,,,,,,,,,,,220,,,,,,,,,,,,,,,,,,9,9,,,573.011,5,right,0.52,573.561,1,0.3,"[3,2,1]",0.995229104,stimuli/card_100_transparent.png,100,5,0,5,0,1,,,,,,,,,,
,,,,607eba3149bb09e39019b9ae,B,2024-08-22_08h56.17.845,Slot Machine Game,2023.1.3,Win32,62.5,,,,,,,,,,,,,,,,,,,,,,,,,,,320,,,,,,,,,,,,,,,,,,9,9,,,574.86,6,right,0.503,575.377,0.5,0.3,"[3,2,1]",0.763222828,stimuli/card_100_transparent.png,100,6,0,6,0,1,,,,,,,,,,
,,,,607eba3149bb09e39019b9ae,B,2024-08-22_08h56.17.845,Slot Machine Game,2023.1.3,Win32,62.5,,,,,,,,,,,,,,,,,,,,,,,,,,,330,,,,,,,,,,,,,,,,,,9,9,,,576.177,7,right,0.577,576.76,1.5,0.3,"[3,2,1]",0.103649044,stimuli/card_10_transparent.png,10,7,0,7,0,1,,,,,,,,,,
,,,,607eba3149bb09e39019b9ae,B,2024-08-22_08h56.17.845,Slot Machine Game,2023.1.3,Win32,62.5,,,,,,,,,,,,,,,,,,,,,,,,,,,340,,,,,,,,,,,,,,,,,,9,9,,,578.561,8,right,0.81,579.378,1.5,0.3,"[3,1,2]",0.750363711,stimuli/card_10_transparent.png,10,8,0,8,0,1,,,,,,,,,,
,,,,607eba3149bb09e39019b9ae,B,2024-08-22_08h56.17.845,Slot Machine Game,2023.1.3,Win32,62.5,,,,,,,,,,,,,,,,,,,,,,,,,,,340,,,,,,,,,,,,,,,,,,9,9,,,581.177,9,left,0.954,582.145,1.5,0.3,"[3,1,2]",0.375017999,stimuli/card_0_transparent.png,0,9,0,9,0,1,,,,,,,,,,
,,,,607eba3149bb09e39019b9ae,B,2024-08-22_08h56.17.845,Slot Machine Game,2023.1.3,Win32,62.5,,,,,,,,,,,,,,,,,,,,,,,,,,,440,,,,,,,,,,,,,,,,,,9,9,,,583.944,10,up,0.587,584.544,1.5,0.3,"[3,1,2]",0.937856123,stimuli/card_100_transparent.png,100,10,0,10,0,1,,,,,,,,,,
,,,,607eba3149bb09e39019b9ae,B,2024-08-22_08h56.17.845,Slot Machine Game,2023.1.3,Win32,62.5,,,,,,,,,,,,,,,,,,,,,,,,,,,540,,,,,,,,,,,,,,,,,,9,9,,,586.344,11,up,0.578,586.928,0.5,0.3,"[3,1,2]",0.965880662,stimuli/card_100_transparent.png,100,11,0,11,0,1,,,,,,,,,,
,,,,607eba3149bb09e39019b9ae,B,2024-08-22_08h56.17.845,Slot Machine Game,2023.1.3,Win32,62.5,,,,,,,,,,,,,,,,,,,,,,,,,,,640,,,,,,,,,,,,,,,,,,9,9,,,587.727,12,up,0.707,588.444,0.5,0.3,"[3,1,2]",0.946773067,stimuli/card_100_transparent.png,100,12,0,12,0,1,,,,,,,,,,
,,,,607eba3149bb09e39019b9ae,B,2024-08-22_08h56.17.845,Slot Machine Game,2023.1.3,Win32,62.5,,,,,,,,,,,,,,,,,,,,,,,,,,,740,,,,,,,,,,,,,,,,,,9,9,,,589.244,13,up,0.558,589.811,1,0.3,"[3,1,2]",0.944672523,stimuli/card_100_transparent.png,100,13,0,13,0,1,,,,,,,,,,
,,,,607eba3149bb09e39019b9ae,B,2024-08-22_08h56.17.845,Slot Machine Game,2023.1.3,Win32,62.5,,,,,,,,,,,,,,,,,,,,,,,,,,,840,,,,,,,,,,,,,,,,,,9,9,,,591.11,14,up,0.828,591.944,0.5,0.3,"[3,1,2]",0.659292229,stimuli/card_100_transparent.png,100,14,0,14,0,1,,,,,,,,,,
,,,,607eba3149bb09e39019b9ae,B,2024-08-22_08h56.17.845,Slot Machine Game,2023.1.3,Win32,62.5,,,,,,,,,,,,,,,,,,,,,,,,,,,,,,,,,,592.744,,,,,,,,,,,,,,,,,,,,,,,,,,,,,,,"[1010,920,560,920,830,640,930,920,840]",8,0,8,0,1,,,,
,,,,607eba3149bb09e39019b9ae,B,2024-08-22_08h56.17.845,Slot Machine Game,2023.1.3,Win32,62.5,,,,,,,,,,,,,,,,,,,,,,,,,,,0,,,,,,,,,,,,,,,,,,10,6,"[4,10,15]","[[2,3,1],[1,3,2],[3,2,1]]",597.753,0,up,0.835,598.611,1.5,0.3,"[2,3,1]",0.831470792,stimuli/card_0_transparent.png,0,0,0,0,0,1,,,,,,,,,,
,,,,607eba3149bb09e39019b9ae,B,2024-08-22_08h56.17.845,Slot Machine Game,2023.1.3,Win32,62.5,,,,,,,,,,,,,,,,,,,,,,,,,,,10,,,,,,,,,,,,,,,,,,10,6,,,600.411,1,left,0.567,601.01,1,0.3,"[2,3,1]",0.443157771,stimuli/card_10_transparent.png,10,1,0,1,0,1,,,,,,,,,,
,,,,607eba3149bb09e39019b9ae,B,2024-08-22_08h56.17.845,Slot Machine Game,2023.1.3,Win32,62.5,,,,,,,,,,,,,,,,,,,,,,,,,,,110,,,,,,,,,,,,,,,,,,10,6,,,602.311,2,right,0.5,602.844,1.5,0.3,"[2,3,1]",0.790237724,stimuli/card_100_transparent.png,100,2,0,2,0,1,,,,,,,,,,
,,,,607eba3149bb09e39019b9ae,B,2024-08-22_08h56.17.845,Slot Machine Game,2023.1.3,Win32,62.5,,,,,,,,,,,,,,,,,,,,,,,,,,,210,,,,,,,,,,,,,,,,,,10,6,,,604.644,3,right,0.717,605.395,1.5,0.3,"[2,3,1]",0.844047064,stimuli/card_100_transparent.png,100,3,0,3,0,1,,,,,,,,,,
,,,,607eba3149bb09e39019b9ae,B,2024-08-22_08h56.17.845,Slot Machine Game,2023.1.3,Win32,62.5,,,,,,,,,,,,,,,,,,,,,,,,,,,210,,,,,,,,,,,,,,,,,,10,6,,,607.194,4,right,0.538,607.744,1,0.3,"[1,3,2]",0.025402948,stimuli/card_0_transparent.png,0,4,0,4,0,1,,,,,,,,,,
,,,,607eba3149bb09e39019b9ae,B,2024-08-22_08h56.17.845,Slot Machine Game,2023.1.3,Win32,62.5,,,,,,,,,,,,,,,,,,,,,,,,,,,220,,,,,,,,,,,,,,,,,,10,6,,,609.045,5,right,0.557,609.627,0.5,0.3,"[1,3,2]",0.988168088,stimuli/card_10_transparent.png,10,5,0,5,0,1,,,,,,,,,,
,,,,607eba3149bb09e39019b9ae,B,2024-08-22_08h56.17.845,Slot Machine Game,2023.1.3,Win32,62.5,,,,,,,,,,,,,,,,,,,,,,,,,,,220,,,,,,,,,,,,,,,,,,10,6,,,610.428,6,up,0.59,611.044,1.5,0.3,"[1,3,2]",0.612120697,stimuli/card_0_transparent.png,0,6,0,6,0,1,,,,,,,,,,
,,,,607eba3149bb09e39019b9ae,B,2024-08-22_08h56.17.845,Slot Machine Game,2023.1.3,Win32,62.5,,,,,,,,,,,,,,,,,,,,,,,,,,,320,,,,,,,,,,,,,,,,,,10,6,,,612.844,7,left,0.832,613.678,0.5,0.3,"[1,3,2]",0.373851774,stimuli/card_100_transparent.png,100,7,0,7,0,1,,,,,,,,,,
,,,,607eba3149bb09e39019b9ae,B,2024-08-22_08h56.17.845,Slot Machine Game,2023.1.3,Win32,62.5,,,,,,,,,,,,,,,,,,,,,,,,,,,420,,,,,,,,,,,,,,,,,,10,6,,,614.478,8,left,0.836,615.344,1.5,0.3,"[1,3,2]",0.896870542,stimuli/card_100_transparent.png,100,8,0,8,0,1,,,,,,,,,,
,,,,607eba3149bb09e39019b9ae,B,2024-08-22_08h56.17.845,Slot Machine Game,2023.1.3,Win32,62.5,,,,,,,,,,,,,,,,,,,,,,,,,,,520,,,,,,,,,,,,,,,,,,10,6,,,617.144,9,left,0.517,617.677,1.5,0.3,"[1,3,2]",0.958387249,stimuli/card_100_transparent.png,100,9,0,9,0,1,,,,,,,,,,
,,,,607eba3149bb09e39019b9ae,B,2024-08-22_08h56.17.845,Slot Machine Game,2023.1.3,Win32,62.5,,,,,,,,,,,,,,,,,,,,,,,,,,,520,,,,,,,,,,,,,,,,,,10,6,,,619.478,10,left,0.557,620.044,1,0.3,"[3,2,1]",0.677297608,stimuli/card_0_transparent.png,0,10,0,10,0,1,,,,,,,,,,
,,,,607eba3149bb09e39019b9ae,B,2024-08-22_08h56.17.845,Slot Machine Game,2023.1.3,Win32,62.5,,,,,,,,,,,,,,,,,,,,,,,,,,,520,,,,,,,,,,,,,,,,,,10,6,,,621.344,11,left,0.538,621.894,0.5,0.3,"[3,2,1]",0.34701906,stimuli/card_0_transparent.png,0,11,0,11,0,1,,,,,,,,,,
,,,,607eba3149bb09e39019b9ae,B,2024-08-22_08h56.17.845,Slot Machine Game,2023.1.3,Win32,62.5,,,,,,,,,,,,,,,,,,,,,,,,,,,620,,,,,,,,,,,,,,,,,,10,6,,,622.694,12,right,0.724,623.427,0.5,0.3,"[3,2,1]",0.573610897,stimuli/card_100_transparent.png,100,12,0,12,0,1,,,,,,,,,,
,,,,607eba3149bb09e39019b9ae,B,2024-08-22_08h56.17.845,Slot Machine Game,2023.1.3,Win32,62.5,,,,,,,,,,,,,,,,,,,,,,,,,,,720,,,,,,,,,,,,,,,,,,10,6,,,624.227,13,right,0.679,624.91,0.5,0.3,"[3,2,1]",0.564968594,stimuli/card_100_transparent.png,100,13,0,13,0,1,,,,,,,,,,
,,,,607eba3149bb09e39019b9ae,B,2024-08-22_08h56.17.845,Slot Machine Game,2023.1.3,Win32,62.5,,,,,,,,,,,,,,,,,,,,,,,,,,,820,,,,,,,,,,,,,,,,,,10,6,,,625.71,14,right,0.517,626.244,1,0.3,"[3,2,1]",0.515860267,stimuli/card_100_transparent.png,100,14,0,14,0,1,,,,,,,,,,
,,,,607eba3149bb09e39019b9ae,B,2024-08-22_08h56.17.845,Slot Machine Game,2023.1.3,Win32,62.5,,,,,,,,,,,,,,,,,,,,,,,,,,,,,,,,,,627.544,,,,,,,,,,,,,,,,,,,,,,,,,,,,,,,"[1010,920,560,920,830,640,930,920,840,820]",9,0,9,0,1,,,,
,,,,607eba3149bb09e39019b9ae,B,2024-08-22_08h56.17.845,Slot Machine Game,2023.1.3,Win32,62.5,,,,,,,,,,,,,,,,,,,,,,,,,,,,,,,,,,,,,,,,,,,,,,,,,,,,,,,,,,,,,,,,,,,,,,,9,"[1010,920,560,920,830,640,930,920,840,820]",10.1,2024-08-22_09h06.54.497
