key_resp_welcome_started,key_resp_welcome_keys,key_resp_welcome_rt,key_resp_welcome_duration,prolific_id,path_id,date,expName,psychopyVersion,OS,frameRate,key_resp_instruction1_started,key_resp_instruction1_keys,key_resp_instruction1_rt,key_resp_instruction1_duration,key_resp_instruction2_started,key_resp_instruction2_keys,key_resp_instruction2_rt,key_resp_instruction2_duration,key_resp_instruction3_started,key_resp_instruction3_keys,key_resp_instruction3_rt,key_resp_instruction3_duration,key_resp_instruction4_started,key_resp_instruction4_keys,key_resp_instruction4_rt,key_resp_instruction4_duration,practiceCondition,practice_reward_seqs,practice_trial_started,practice_trial_num,practice_resp_rt,practice_resp_duration,practice_resp_keys,prac_presentationInterval,"practice_reward_seq: 2,1,3",reward_img,cumulative_reward,trial_reward,practice_trials.thisRepN,practice_trials.thisTrialN,practice_trials.thisN,practice_trials.thisIndex,practice_trials.ran,"practice_reward_seq: 2,3,1",block_break_started,"practice_reward_seq: 1,3,2","practice_reward_seq: 3,1,2",practice_end_time,practice_end_keys,practice_end_rt,practice_end_duration,main_instruction_text_started,block_condition,block_order_indices,main_instruction_keys,main_instruction_rt,main_instruction_duration,block_number,block_assignment,current_condition,main_reward_seqs,main_trial_started,main_trial_num,main_trial_keys,main_trial_rt,main_trial_duration,main_presentationInterval,reward_presentation_time,main_reward_seq,reward_rand_val,main_reward_img,current_reward,main_trials.thisRepN,main_trials.thisTrialN,main_trials.thisN,main_trials.thisIndex,main_trials.ran,block_reward,block.thisRepN,block.thisTrialN,block.thisN,block.thisIndex,block.ran,block_reward.length,block_reward_all,reward_amount,date_end_task
0.0003,space,1.6587,,6306d4da805f2e38a841c3ad,A,2024-05-23_14h45.04.085,Slot Machine Game,2023.1.3,Win32,59.52380952,,,,,,,,,,,,,,,,,,,,,,,,,,,,,,,,,,,,,,,,,,,,,,,,,,,,,,,,,,,,,,,,,,,,,,,,,,,,,
,,,,6306d4da805f2e38a841c3ad,A,2024-05-23_14h45.04.085,Slot Machine Game,2023.1.3,Win32,59.52380952,1.6804,space,7.5865,,,,,,,,,,,,,,,,,,,,,,,,,,,,,,,,,,,,,,,,,,,,,,,,,,,,,,,,,,,,,,,,,,,,,,,,,,
,,,,6306d4da805f2e38a841c3ad,A,2024-05-23_14h45.04.085,Slot Machine Game,2023.1.3,Win32,59.52380952,,,,,9.302,space,19.6701,,,,,,,,,,,,,,,,,,,,,,,,,,,,,,,,,,,,,,,,,,,,,,,,,,,,,,,,,,,,,,,,,,,,,,
,,,,6306d4da805f2e38a841c3ad,A,2024-05-23_14h45.04.085,Slot Machine Game,2023.1.3,Win32,59.52380952,,,,,,,,,29.0443,space,6.9402,,,,,,,,,,,,,,,,,,,,,,,,,,,,,,,,,,,,,,,,,,,,,,,,,,,,,,,,,,,,,,,,,,
,,,,6306d4da805f2e38a841c3ad,A,2024-05-23_14h45.04.085,Slot Machine Game,2023.1.3,Win32,59.52380952,,,,,,,,,,,,,,,,,,,,,,,,,,,,,,,,,,,,,,,,,,,,,,,,,,,,,,,,,,,,,,,,,,,,,,,,,,,,,
,,,,6306d4da805f2e38a841c3ad,A,2024-05-23_14h45.04.085,Slot Machine Game,2023.1.3,Win32,59.52380952,,,,,,,,,,,,,177.9971,up,2.7072,,,,,,,,,,,,,,,,,,,,,,,,,,,,,,,,,,,,,,,,,,,,,,,,,,,,,,,,,,,,,,
,,,,6306d4da805f2e38a841c3ad,A,2024-05-23_14h45.04.085,Slot Machine Game,2023.1.3,Win32,59.52380952,,,,,,,,,,,,,,,,,"[9,15]","[[2,1,3],[2,3,1]]",180.732,0,0.7381,,left,0.5,,stimuli/card_10_transparent.png,10,10,0,0,0,0,1,,,,,,,,,,,,,,,,,,,,,,,,,,,,,,,,,,,,,,,,,,,,
,,,,6306d4da805f2e38a841c3ad,A,2024-05-23_14h45.04.085,Slot Machine Game,2023.1.3,Win32,59.52380952,,,,,,,,,,,,,,,,,,,182.8027,1,0.6013,,up,1.5,,stimuli/card_100_transparent.png,110,100,1,0,1,0,1,,,,,,,,,,,,,,,,,,,,,,,,,,,,,,,,,,,,,,,,,,,,
,,,,6306d4da805f2e38a841c3ad,A,2024-05-23_14h45.04.085,Slot Machine Game,2023.1.3,Win32,59.52380952,,,,,,,,,,,,,,,,,,,185.7362,2,0.1403,,up,0.5,,stimuli/card_100_transparent.png,210,100,2,0,2,0,1,,,,,,,,,,,,,,,,,,,,,,,,,,,,,,,,,,,,,,,,,,,,
,,,,6306d4da805f2e38a841c3ad,A,2024-05-23_14h45.04.085,Slot Machine Game,2023.1.3,Win32,59.52380952,,,,,,,,,,,,,,,,,,,187.2025,3,0.3177,,up,1,,stimuli/card_100_transparent.png,310,100,3,0,3,0,1,,,,,,,,,,,,,,,,,,,,,,,,,,,,,,,,,,,,,,,,,,,,
,,,,6306d4da805f2e38a841c3ad,A,2024-05-23_14h45.04.085,Slot Machine Game,2023.1.3,Win32,59.52380952,,,,,,,,,,,,,,,,,,,189.3522,4,0.1854,,up,1,,stimuli/card_100_transparent.png,410,100,4,0,4,0,1,,,,,,,,,,,,,,,,,,,,,,,,,,,,,,,,,,,,,,,,,,,,
,,,,6306d4da805f2e38a841c3ad,A,2024-05-23_14h45.04.085,Slot Machine Game,2023.1.3,Win32,59.52380952,,,,,,,,,,,,,,,,,,,191.3686,5,0.1166,,up,1.5,,stimuli/card_100_transparent.png,510,100,5,0,5,0,1,,,,,,,,,,,,,,,,,,,,,,,,,,,,,,,,,,,,,,,,,,,,
,,,,6306d4da805f2e38a841c3ad,A,2024-05-23_14h45.04.085,Slot Machine Game,2023.1.3,Win32,59.52380952,,,,,,,,,,,,,,,,,,,193.8182,6,0.268,,up,0.5,,stimuli/card_10_transparent.png,520,10,6,0,6,0,1,,,,,,,,,,,,,,,,,,,,,,,,,,,,,,,,,,,,,,,,,,,,
,,,,6306d4da805f2e38a841c3ad,A,2024-05-23_14h45.04.085,Slot Machine Game,2023.1.3,Win32,59.52380952,,,,,,,,,,,,,,,,,,,195.418,7,0.165,,up,0.5,,stimuli/card_100_transparent.png,620,100,7,0,7,0,1,,,,,,,,,,,,,,,,,,,,,,,,,,,,,,,,,,,,,,,,,,,,
,,,,6306d4da805f2e38a841c3ad,A,2024-05-23_14h45.04.085,Slot Machine Game,2023.1.3,Win32,59.52380952,,,,,,,,,,,,,,,,,,,196.9177,8,0.285,,up,1.5,,stimuli/card_100_transparent.png,720,100,8,0,8,0,1,,,,,,,,,,,,,,,,,,,,,,,,,,,,,,,,,,,,,,,,,,,,
,,,,6306d4da805f2e38a841c3ad,A,2024-05-23_14h45.04.085,Slot Machine Game,2023.1.3,Win32,59.52380952,,,,,,,,,,,,,,,,,,,199.5342,9,0.0027,,up,1,,stimuli/card_0_transparent.png,720,0,9,0,9,0,1,,,,,,,,,,,,,,,,,,,,,,,,,,,,,,,,,,,,,,,,,,,,
,,,,6306d4da805f2e38a841c3ad,A,2024-05-23_14h45.04.085,Slot Machine Game,2023.1.3,Win32,59.52380952,,,,,,,,,,,,,,,,,,,201.3671,10,0.2228,,right,0.5,,stimuli/card_100_transparent.png,820,100,10,0,10,0,1,,,,,,,,,,,,,,,,,,,,,,,,,,,,,,,,,,,,,,,,,,,,
,,,,6306d4da805f2e38a841c3ad,A,2024-05-23_14h45.04.085,Slot Machine Game,2023.1.3,Win32,59.52380952,,,,,,,,,,,,,,,,,,,202.9167,11,0.1603,,right,1,,stimuli/card_100_transparent.png,920,100,11,0,11,0,1,,,,,,,,,,,,,,,,,,,,,,,,,,,,,,,,,,,,,,,,,,,,
,,,,6306d4da805f2e38a841c3ad,A,2024-05-23_14h45.04.085,Slot Machine Game,2023.1.3,Win32,59.52380952,,,,,,,,,,,,,,,,,,,204.9007,12,0.3381,,right,1.5,,stimuli/card_0_transparent.png,920,0,12,0,12,0,1,,,,,,,,,,,,,,,,,,,,,,,,,,,,,,,,,,,,,,,,,,,,
,,,,6306d4da805f2e38a841c3ad,A,2024-05-23_14h45.04.085,Slot Machine Game,2023.1.3,Win32,59.52380952,,,,,,,,,,,,,,,,,,,207.5563,13,0.3425,,right,1.5,,stimuli/card_10_transparent.png,930,10,13,0,13,0,1,,,,,,,,,,,,,,,,,,,,,,,,,,,,,,,,,,,,,,,,,,,,
,,,,6306d4da805f2e38a841c3ad,A,2024-05-23_14h45.04.085,Slot Machine Game,2023.1.3,Win32,59.52380952,,,,,,,,,,,,,,,,,,,210.2333,14,0.9513,,left,1.5,,stimuli/card_10_transparent.png,940,10,14,0,14,0,1,,,,,,,,,,,,,,,,,,,,,,,,,,,,,,,,,,,,,,,,,,,,
,,,,6306d4da805f2e38a841c3ad,A,2024-05-23_14h45.04.085,Slot Machine Game,2023.1.3,Win32,59.52380952,,,,,,,,,,,,,,,,,"[6,15]","[[1,3,2],[3,1,2]]",218.558,0,0.557,,up,1,,stimuli/card_10_transparent.png,10,10,0,0,0,0,1,,213.5344,,,,,,,,,,,,,,,,,,,,,,,,,,,,,,,,,,,,,,,,,,
,,,,6306d4da805f2e38a841c3ad,A,2024-05-23_14h45.04.085,Slot Machine Game,2023.1.3,Win32,59.52380952,,,,,,,,,,,,,,,,,,,220.9313,1,0.3678,,left,0.5,,stimuli/card_100_transparent.png,110,100,1,0,1,0,1,,,,,,,,,,,,,,,,,,,,,,,,,,,,,,,,,,,,,,,,,,,,
,,,,6306d4da805f2e38a841c3ad,A,2024-05-23_14h45.04.085,Slot Machine Game,2023.1.3,Win32,59.52380952,,,,,,,,,,,,,,,,,,,222.631,2,0.0317,,left,1.5,,stimuli/card_100_transparent.png,210,100,2,0,2,0,1,,,,,,,,,,,,,,,,,,,,,,,,,,,,,,,,,,,,,,,,,,,,
,,,,6306d4da805f2e38a841c3ad,A,2024-05-23_14h45.04.085,Slot Machine Game,2023.1.3,Win32,59.52380952,,,,,,,,,,,,,,,,,,,224.9973,3,0.1654,,left,0.5,,stimuli/card_100_transparent.png,310,100,3,0,3,0,1,,,,,,,,,,,,,,,,,,,,,,,,,,,,,,,,,,,,,,,,,,,,
,,,,6306d4da805f2e38a841c3ad,A,2024-05-23_14h45.04.085,Slot Machine Game,2023.1.3,Win32,59.52380952,,,,,,,,,,,,,,,,,,,226.4971,4,0.0678,,left,1,,stimuli/card_100_transparent.png,410,100,4,0,4,0,1,,,,,,,,,,,,,,,,,,,,,,,,,,,,,,,,,,,,,,,,,,,,
,,,,6306d4da805f2e38a841c3ad,A,2024-05-23_14h45.04.085,Slot Machine Game,2023.1.3,Win32,59.52380952,,,,,,,,,,,,,,,,,,,228.397,5,0.2211,,left,1,,stimuli/card_100_transparent.png,510,100,5,0,5,0,1,,,,,,,,,,,,,,,,,,,,,,,,,,,,,,,,,,,,,,,,,,,,
,,,,6306d4da805f2e38a841c3ad,A,2024-05-23_14h45.04.085,Slot Machine Game,2023.1.3,Win32,59.52380952,,,,,,,,,,,,,,,,,,,230.4466,6,0.3705,,left,0.5,,stimuli/card_100_transparent.png,610,100,6,0,6,0,1,,,,,,,,,,,,,,,,,,,,,,,,,,,,,,,,,,,,,,,,,,,,
,,,,6306d4da805f2e38a841c3ad,A,2024-05-23_14h45.04.085,Slot Machine Game,2023.1.3,Win32,59.52380952,,,,,,,,,,,,,,,,,,,232.1462,7,0.1329,,left,1,,stimuli/card_0_transparent.png,610,0,7,0,7,0,1,,,,,,,,,,,,,,,,,,,,,,,,,,,,,,,,,,,,,,,,,,,,
,,,,6306d4da805f2e38a841c3ad,A,2024-05-23_14h45.04.085,Slot Machine Game,2023.1.3,Win32,59.52380952,,,,,,,,,,,,,,,,,,,234.1127,8,1.0993,,up,1.5,,stimuli/card_100_transparent.png,710,100,8,0,8,0,1,,,,,,,,,,,,,,,,,,,,,,,,,,,,,,,,,,,,,,,,,,,,
,,,,6306d4da805f2e38a841c3ad,A,2024-05-23_14h45.04.085,Slot Machine Game,2023.1.3,Win32,59.52380952,,,,,,,,,,,,,,,,,,,237.5457,9,0.351,,up,0.5,,stimuli/card_100_transparent.png,810,100,9,0,9,0,1,,,,,,,,,,,,,,,,,,,,,,,,,,,,,,,,,,,,,,,,,,,,
,,,,6306d4da805f2e38a841c3ad,A,2024-05-23_14h45.04.085,Slot Machine Game,2023.1.3,Win32,59.52380952,,,,,,,,,,,,,,,,,,,239.2288,10,0.1708,,up,1.5,,stimuli/card_100_transparent.png,910,100,10,0,10,0,1,,,,,,,,,,,,,,,,,,,,,,,,,,,,,,,,,,,,,,,,,,,,
,,,,6306d4da805f2e38a841c3ad,A,2024-05-23_14h45.04.085,Slot Machine Game,2023.1.3,Win32,59.52380952,,,,,,,,,,,,,,,,,,,241.7286,11,0.0489,,up,1.5,,stimuli/card_100_transparent.png,1010,100,11,0,11,0,1,,,,,,,,,,,,,,,,,,,,,,,,,,,,,,,,,,,,,,,,,,,,
,,,,6306d4da805f2e38a841c3ad,A,2024-05-23_14h45.04.085,Slot Machine Game,2023.1.3,Win32,59.52380952,,,,,,,,,,,,,,,,,,,244.1114,12,0.4206,,up,1.5,,stimuli/card_100_transparent.png,1110,100,12,0,12,0,1,,,,,,,,,,,,,,,,,,,,,,,,,,,,,,,,,,,,,,,,,,,,
,,,,6306d4da805f2e38a841c3ad,A,2024-05-23_14h45.04.085,Slot Machine Game,2023.1.3,Win32,59.52380952,,,,,,,,,,,,,,,,,,,246.8602,13,0.0045,,up,1,,stimuli/card_0_transparent.png,1110,0,13,0,13,0,1,,,,,,,,,,,,,,,,,,,,,,,,,,,,,,,,,,,,,,,,,,,,
,,,,6306d4da805f2e38a841c3ad,A,2024-05-23_14h45.04.085,Slot Machine Game,2023.1.3,Win32,59.52380952,,,,,,,,,,,,,,,,,,,248.6775,14,0.1675,,right,0.5,,stimuli/card_10_transparent.png,1120,10,14,0,14,0,1,,,,,,,,,,,,,,,,,,,,,,,,,,,,,,,,,,,,,,,,,,,,
,,,,6306d4da805f2e38a841c3ad,A,2024-05-23_14h45.04.085,Slot Machine Game,2023.1.3,Win32,59.52380952,,,,,,,,,,,,,,,,,,,,,,,,,,,,,,,,,,,250.1772,,,255.1788,space,2.2732,,,,,,,,,,,,,,,,,,,,,,,,,,,,,,,,,,,,,
,,,,6306d4da805f2e38a841c3ad,A,2024-05-23_14h45.04.085,Slot Machine Game,2023.1.3,Win32,59.52380952,,,,,,,,,,,,,,,,,,,,,,,,,,,,,,,,,,,,,,,,,,257.4776,2,"[2,4,8,0,1,3,9,6,8,5]",space,1.289,,,,,,,,,,,,,,,,,,,,,,,,,,,,,,,
,,,,6306d4da805f2e38a841c3ad,A,2024-05-23_14h45.04.085,Slot Machine Game,2023.1.3,Win32,59.52380952,,,,,,,,,,,,,,,,,,,,,,,,,,,100,,,,,,,,,,,,,,,,,,,,,1,3,"[15,15]","[[3,1,2],[3,1,2]]",258.8319,0,up,0.0846,,1.5,0.3,"[3,1,2]",0.419891047,stimuli/card_100_transparent.png,100,0,0,0,0,1,,,,,,,,,,
,,,,6306d4da805f2e38a841c3ad,A,2024-05-23_14h45.04.085,Slot Machine Game,2023.1.3,Win32,59.52380952,,,,,,,,,,,,,,,,,,,,,,,,,,,200,,,,,,,,,,,,,,,,,,,,,1,3,,,261.249,1,up,0.374,,1.5,0.3,"[3,1,2]",0.915331081,stimuli/card_100_transparent.png,100,1,0,1,0,1,,,,,,,,,,
,,,,6306d4da805f2e38a841c3ad,A,2024-05-23_14h45.04.085,Slot Machine Game,2023.1.3,Win32,59.52380952,,,,,,,,,,,,,,,,,,,,,,,,,,,300,,,,,,,,,,,,,,,,,,,,,1,3,,,263.943,2,up,0.3862,,1,0.3,"[3,1,2]",0.660990704,stimuli/card_100_transparent.png,100,2,0,2,0,1,,,,,,,,,,
,,,,6306d4da805f2e38a841c3ad,A,2024-05-23_14h45.04.085,Slot Machine Game,2023.1.3,Win32,59.52380952,,,,,,,,,,,,,,,,,,,,,,,,,,,400,,,,,,,,,,,,,,,,,,,,,1,3,,,266.1429,3,up,0.1809,,0.5,0.3,"[3,1,2]",0.536802061,stimuli/card_100_transparent.png,100,3,0,3,0,1,,,,,,,,,,
,,,,6306d4da805f2e38a841c3ad,A,2024-05-23_14h45.04.085,Slot Machine Game,2023.1.3,Win32,59.52380952,,,,,,,,,,,,,,,,,,,,,,,,,,,500,,,,,,,,,,,,,,,,,,,,,1,3,,,267.6591,4,up,0.2614,,1.5,0.3,"[3,1,2]",0.930182437,stimuli/card_100_transparent.png,100,4,0,4,0,1,,,,,,,,,,
,,,,6306d4da805f2e38a841c3ad,A,2024-05-23_14h45.04.085,Slot Machine Game,2023.1.3,Win32,59.52380952,,,,,,,,,,,,,,,,,,,,,,,,,,,600,,,,,,,,,,,,,,,,,,,,,1,3,,,270.2419,5,up,0.2845,,0.5,0.3,"[3,1,2]",0.576232941,stimuli/card_100_transparent.png,100,5,0,5,0,1,,,,,,,,,,
,,,,6306d4da805f2e38a841c3ad,A,2024-05-23_14h45.04.085,Slot Machine Game,2023.1.3,Win32,59.52380952,,,,,,,,,,,,,,,,,,,,,,,,,,,700,,,,,,,,,,,,,,,,,,,,,1,3,,,271.8584,6,up,0.287,,1,0.3,"[3,1,2]",0.923597582,stimuli/card_100_transparent.png,100,6,0,6,0,1,,,,,,,,,,
,,,,6306d4da805f2e38a841c3ad,A,2024-05-23_14h45.04.085,Slot Machine Game,2023.1.3,Win32,59.52380952,,,,,,,,,,,,,,,,,,,,,,,,,,,800,,,,,,,,,,,,,,,,,,,,,1,3,,,273.9915,7,up,0.285,,1.5,0.3,"[3,1,2]",0.486557759,stimuli/card_100_transparent.png,100,7,0,7,0,1,,,,,,,,,,
,,,,6306d4da805f2e38a841c3ad,A,2024-05-23_14h45.04.085,Slot Machine Game,2023.1.3,Win32,59.52380952,,,,,,,,,,,,,,,,,,,,,,,,,,,810,,,,,,,,,,,,,,,,,,,,,1,3,,,276.5966,8,up,0.3366,,1.5,0.3,"[3,1,2]",0.185181581,stimuli/card_10_transparent.png,10,8,0,8,0,1,,,,,,,,,,
,,,,6306d4da805f2e38a841c3ad,A,2024-05-23_14h45.04.085,Slot Machine Game,2023.1.3,Win32,59.52380952,,,,,,,,,,,,,,,,,,,,,,,,,,,910,,,,,,,,,,,,,,,,,,,,,1,3,,,279.2575,9,left,0.2846,,1,0.3,"[3,1,2]",0.073785822,stimuli/card_100_transparent.png,100,9,0,9,0,1,,,,,,,,,,
,,,,6306d4da805f2e38a841c3ad,A,2024-05-23_14h45.04.085,Slot Machine Game,2023.1.3,Win32,59.52380952,,,,,,,,,,,,,,,,,,,,,,,,,,,910,,,,,,,,,,,,,,,,,,,,,1,3,,,281.3738,10,left,0.0349,,1,0.3,"[3,1,2]",0.344653344,stimuli/card_0_transparent.png,0,10,0,10,0,1,,,,,,,,,,
,,,,6306d4da805f2e38a841c3ad,A,2024-05-23_14h45.04.085,Slot Machine Game,2023.1.3,Win32,59.52380952,,,,,,,,,,,,,,,,,,,,,,,,,,,920,,,,,,,,,,,,,,,,,,,,,1,3,,,283.2405,11,left,0.0707,,1,0.3,"[3,1,2]",0.147974365,stimuli/card_10_transparent.png,10,11,0,11,0,1,,,,,,,,,,
,,,,6306d4da805f2e38a841c3ad,A,2024-05-23_14h45.04.085,Slot Machine Game,2023.1.3,Win32,59.52380952,,,,,,,,,,,,,,,,,,,,,,,,,,,920,,,,,,,,,,,,,,,,,,,,,1,3,,,285.1566,12,left,0.2599,,0.5,0.3,"[3,1,2]",0.747576932,stimuli/card_0_transparent.png,0,12,0,12,0,1,,,,,,,,,,
,,,,6306d4da805f2e38a841c3ad,A,2024-05-23_14h45.04.085,Slot Machine Game,2023.1.3,Win32,59.52380952,,,,,,,,,,,,,,,,,,,,,,,,,,,930,,,,,,,,,,,,,,,,,,,,,1,3,,,286.7229,13,right,0.14,,1.5,0.3,"[3,1,2]",0.714734512,stimuli/card_10_transparent.png,10,13,0,13,0,1,,,,,,,,,,
,,,,6306d4da805f2e38a841c3ad,A,2024-05-23_14h45.04.085,Slot Machine Game,2023.1.3,Win32,59.52380952,,,,,,,,,,,,,,,,,,,,,,,,,,,930,,,,,,,,,,,,,,,,,,,,,1,3,,,289.1895,14,up,0.2374,,1.5,0.3,"[3,1,2]",0.05490879,stimuli/card_0_transparent.png,0,14,0,14,0,1,,,,,,,,,,
,,,,6306d4da805f2e38a841c3ad,A,2024-05-23_14h45.04.085,Slot Machine Game,2023.1.3,Win32,59.52380952,,,,,,,,,,,,,,,,,,,,,,,,,,,,,,,,,,,291.7731,,,,,,,,,,,,,,,,,,,,,,,,,,,,,,,,,[930],0,0,0,0,1,,,,
,,,,6306d4da805f2e38a841c3ad,A,2024-05-23_14h45.04.085,Slot Machine Game,2023.1.3,Win32,59.52380952,,,,,,,,,,,,,,,,,,,,,,,,,,,10,,,,,,,,,,,,,,,,,,,,,2,5,"[5,15]","[[1,2,3],[3,1,2]]",296.8166,0,left,0.8375,,1,0.3,"[1,2,3]",0.114773336,stimuli/card_10_transparent.png,10,0,0,0,0,1,,,,,,,,,,
,,,,6306d4da805f2e38a841c3ad,A,2024-05-23_14h45.04.085,Slot Machine Game,2023.1.3,Win32,59.52380952,,,,,,,,,,,,,,,,,,,,,,,,,,,110,,,,,,,,,,,,,,,,,,,,,2,5,,,299.4705,1,right,0.0823,,0.5,0.3,"[1,2,3]",0.085032836,stimuli/card_100_transparent.png,100,1,0,1,0,1,,,,,,,,,,
,,,,6306d4da805f2e38a841c3ad,A,2024-05-23_14h45.04.085,Slot Machine Game,2023.1.3,Win32,59.52380952,,,,,,,,,,,,,,,,,,,,,,,,,,,110,,,,,,,,,,,,,,,,,,,,,2,5,,,300.8873,2,right,0.0008,,1,0.3,"[1,2,3]",0.973011202,stimuli/card_0_transparent.png,0,2,0,2,0,1,,,,,,,,,,
,,,,6306d4da805f2e38a841c3ad,A,2024-05-23_14h45.04.085,Slot Machine Game,2023.1.3,Win32,59.52380952,,,,,,,,,,,,,,,,,,,,,,,,,,,210,,,,,,,,,,,,,,,,,,,,,2,5,,,302.7203,3,right,0.1541,,1.5,0.3,"[1,2,3]",0.009047764,stimuli/card_100_transparent.png,100,3,0,3,0,1,,,,,,,,,,
,,,,6306d4da805f2e38a841c3ad,A,2024-05-23_14h45.04.085,Slot Machine Game,2023.1.3,Win32,59.52380952,,,,,,,,,,,,,,,,,,,,,,,,,,,220,,,,,,,,,,,,,,,,,,,,,2,5,,,305.2033,4,right,0.3549,,1,0.3,"[1,2,3]",0.113087106,stimuli/card_10_transparent.png,10,4,0,4,0,1,,,,,,,,,,
,,,,6306d4da805f2e38a841c3ad,A,2024-05-23_14h45.04.085,Slot Machine Game,2023.1.3,Win32,59.52380952,,,,,,,,,,,,,,,,,,,,,,,,,,,230,,,,,,,,,,,,,,,,,,,,,2,5,,,307.3863,5,right,0.2013,,1.5,0.3,"[3,1,2]",0.650536421,stimuli/card_10_transparent.png,10,5,0,5,0,1,,,,,,,,,,
,,,,6306d4da805f2e38a841c3ad,A,2024-05-23_14h45.04.085,Slot Machine Game,2023.1.3,Win32,59.52380952,,,,,,,,,,,,,,,,,,,,,,,,,,,330,,,,,,,,,,,,,,,,,,,,,2,5,,,309.9192,6,up,0.3691,,1,0.3,"[3,1,2]",0.881192344,stimuli/card_100_transparent.png,100,6,0,6,0,1,,,,,,,,,,
,,,,6306d4da805f2e38a841c3ad,A,2024-05-23_14h45.04.085,Slot Machine Game,2023.1.3,Win32,59.52380952,,,,,,,,,,,,,,,,,,,,,,,,,,,430,,,,,,,,,,,,,,,,,,,,,2,5,,,312.119,7,up,0.1385,,1.5,0.3,"[3,1,2]",0.706521696,stimuli/card_100_transparent.png,100,7,0,7,0,1,,,,,,,,,,
,,,,6306d4da805f2e38a841c3ad,A,2024-05-23_14h45.04.085,Slot Machine Game,2023.1.3,Win32,59.52380952,,,,,,,,,,,,,,,,,,,,,,,,,,,530,,,,,,,,,,,,,,,,,,,,,2,5,,,314.5853,8,up,0.1827,,0.5,0.3,"[3,1,2]",0.393432018,stimuli/card_100_transparent.png,100,8,0,8,0,1,,,,,,,,,,
,,,,6306d4da805f2e38a841c3ad,A,2024-05-23_14h45.04.085,Slot Machine Game,2023.1.3,Win32,59.52380952,,,,,,,,,,,,,,,,,,,,,,,,,,,630,,,,,,,,,,,,,,,,,,,,,2,5,,,316.1019,9,up,0.2212,,1.5,0.3,"[3,1,2]",0.303210717,stimuli/card_100_transparent.png,100,9,0,9,0,1,,,,,,,,,,
,,,,6306d4da805f2e38a841c3ad,A,2024-05-23_14h45.04.085,Slot Machine Game,2023.1.3,Win32,59.52380952,,,,,,,,,,,,,,,,,,,,,,,,,,,730,,,,,,,,,,,,,,,,,,,,,2,5,,,318.6512,10,up,0.0728,,1.5,0.3,"[3,1,2]",0.897272981,stimuli/card_100_transparent.png,100,10,0,10,0,1,,,,,,,,,,
,,,,6306d4da805f2e38a841c3ad,A,2024-05-23_14h45.04.085,Slot Machine Game,2023.1.3,Win32,59.52380952,,,,,,,,,,,,,,,,,,,,,,,,,,,830,,,,,,,,,,,,,,,,,,,,,2,5,,,321.0765,11,up,0.0559,,1.5,0.3,"[3,1,2]",0.27500658,stimuli/card_100_transparent.png,100,11,0,11,0,1,,,,,,,,,,
,,,,6306d4da805f2e38a841c3ad,A,2024-05-23_14h45.04.085,Slot Machine Game,2023.1.3,Win32,59.52380952,,,,,,,,,,,,,,,,,,,,,,,,,,,930,,,,,,,,,,,,,,,,,,,,,2,5,,,323.4682,12,up,0.4595,,1.5,0.3,"[3,1,2]",0.727672697,stimuli/card_100_transparent.png,100,12,0,12,0,1,,,,,,,,,,
,,,,6306d4da805f2e38a841c3ad,A,2024-05-23_14h45.04.085,Slot Machine Game,2023.1.3,Win32,59.52380952,,,,,,,,,,,,,,,,,,,,,,,,,,,1030,,,,,,,,,,,,,,,,,,,,,2,5,,,326.272,13,up,0.4419,,1,0.3,"[3,1,2]",0.494193638,stimuli/card_100_transparent.png,100,13,0,13,0,1,,,,,,,,,,
,,,,6306d4da805f2e38a841c3ad,A,2024-05-23_14h45.04.085,Slot Machine Game,2023.1.3,Win32,59.52380952,,,,,,,,,,,,,,,,,,,,,,,,,,,1130,,,,,,,,,,,,,,,,,,,,,2,5,,,328.5509,14,up,0.2347,,0.5,0.3,"[3,1,2]",0.245676162,stimuli/card_100_transparent.png,100,14,0,14,0,1,,,,,,,,,,
,,,,6306d4da805f2e38a841c3ad,A,2024-05-23_14h45.04.085,Slot Machine Game,2023.1.3,Win32,59.52380952,,,,,,,,,,,,,,,,,,,,,,,,,,,,,,,,,,,330.1172,,,,,,,,,,,,,,,,,,,,,,,,,,,,,,,,,"[930,1130]",1,0,1,0,1,,,,
,,,,6306d4da805f2e38a841c3ad,A,2024-05-23_14h45.04.085,Slot Machine Game,2023.1.3,Win32,59.52380952,,,,,,,,,,,,,,,,,,,,,,,,,,,10,,,,,,,,,,,,,,,,,,,,,3,9,"[8,15]","[[3,2,1],[3,1,2]]",335.1623,0,up,0.37,,1.5,0.3,"[3,2,1]",0.904927877,stimuli/card_10_transparent.png,10,0,0,0,0,1,,,,,,,,,,
,,,,6306d4da805f2e38a841c3ad,A,2024-05-23_14h45.04.085,Slot Machine Game,2023.1.3,Win32,59.52380952,,,,,,,,,,,,,,,,,,,,,,,,,,,110,,,,,,,,,,,,,,,,,,,,,3,9,,,337.8489,1,right,0.2191,,1,0.3,"[3,2,1]",0.57557965,stimuli/card_100_transparent.png,100,1,0,1,0,1,,,,,,,,,,
,,,,6306d4da805f2e38a841c3ad,A,2024-05-23_14h45.04.085,Slot Machine Game,2023.1.3,Win32,59.52380952,,,,,,,,,,,,,,,,,,,,,,,,,,,210,,,,,,,,,,,,,,,,,,,,,3,9,,,339.8987,2,right,0.3679,,1.5,0.3,"[3,2,1]",0.989919487,stimuli/card_100_transparent.png,100,2,0,2,0,1,,,,,,,,,,
,,,,6306d4da805f2e38a841c3ad,A,2024-05-23_14h45.04.085,Slot Machine Game,2023.1.3,Win32,59.52380952,,,,,,,,,,,,,,,,,,,,,,,,,,,310,,,,,,,,,,,,,,,,,,,,,3,9,,,342.5984,3,right,0.0093,,1.5,0.3,"[3,2,1]",0.681017024,stimuli/card_100_transparent.png,100,3,0,3,0,1,,,,,,,,,,
,,,,6306d4da805f2e38a841c3ad,A,2024-05-23_14h45.04.085,Slot Machine Game,2023.1.3,Win32,59.52380952,,,,,,,,,,,,,,,,,,,,,,,,,,,410,,,,,,,,,,,,,,,,,,,,,3,9,,,344.9312,4,right,0.4036,,1.5,0.3,"[3,2,1]",0.58651457,stimuli/card_100_transparent.png,100,4,0,4,0,1,,,,,,,,,,
,,,,6306d4da805f2e38a841c3ad,A,2024-05-23_14h45.04.085,Slot Machine Game,2023.1.3,Win32,59.52380952,,,,,,,,,,,,,,,,,,,,,,,,,,,510,,,,,,,,,,,,,,,,,,,,,3,9,,,347.6643,5,right,0.0736,,1.5,0.3,"[3,2,1]",0.368684542,stimuli/card_100_transparent.png,100,5,0,5,0,1,,,,,,,,,,
,,,,6306d4da805f2e38a841c3ad,A,2024-05-23_14h45.04.085,Slot Machine Game,2023.1.3,Win32,59.52380952,,,,,,,,,,,,,,,,,,,,,,,,,,,610,,,,,,,,,,,,,,,,,,,,,3,9,,,350.064,6,right,0.0163,,1,0.3,"[3,2,1]",0.674045151,stimuli/card_100_transparent.png,100,6,0,6,0,1,,,,,,,,,,
,,,,6306d4da805f2e38a841c3ad,A,2024-05-23_14h45.04.085,Slot Machine Game,2023.1.3,Win32,59.52380952,,,,,,,,,,,,,,,,,,,,,,,,,,,710,,,,,,,,,,,,,,,,,,,,,3,9,,,351.9136,7,right,0.0045,,1.5,0.3,"[3,2,1]",0.558545101,stimuli/card_100_transparent.png,100,7,0,7,0,1,,,,,,,,,,
,,,,6306d4da805f2e38a841c3ad,A,2024-05-23_14h45.04.085,Slot Machine Game,2023.1.3,Win32,59.52380952,,,,,,,,,,,,,,,,,,,,,,,,,,,720,,,,,,,,,,,,,,,,,,,,,3,9,,,354.2467,8,right,0.3154,,1.5,0.3,"[3,1,2]",0.738497253,stimuli/card_10_transparent.png,10,8,0,8,0,1,,,,,,,,,,
,,,,6306d4da805f2e38a841c3ad,A,2024-05-23_14h45.04.085,Slot Machine Game,2023.1.3,Win32,59.52380952,,,,,,,,,,,,,,,,,,,,,,,,,,,720,,,,,,,,,,,,,,,,,,,,,3,9,,,356.8965,9,left,0.2345,,0.5,0.3,"[3,1,2]",0.56362058,stimuli/card_0_transparent.png,0,9,0,9,0,1,,,,,,,,,,
,,,,6306d4da805f2e38a841c3ad,A,2024-05-23_14h45.04.085,Slot Machine Game,2023.1.3,Win32,59.52380952,,,,,,,,,,,,,,,,,,,,,,,,,,,730,,,,,,,,,,,,,,,,,,,,,3,9,,,358.4629,10,right,0.0368,,1,0.3,"[3,1,2]",0.375455913,stimuli/card_10_transparent.png,10,10,0,10,0,1,,,,,,,,,,
,,,,6306d4da805f2e38a841c3ad,A,2024-05-23_14h45.04.085,Slot Machine Game,2023.1.3,Win32,59.52380952,,,,,,,,,,,,,,,,,,,,,,,,,,,830,,,,,,,,,,,,,,,,,,,,,3,9,,,360.3293,11,up,0.289,,1,0.3,"[3,1,2]",0.507585931,stimuli/card_100_transparent.png,100,11,0,11,0,1,,,,,,,,,,
,,,,6306d4da805f2e38a841c3ad,A,2024-05-23_14h45.04.085,Slot Machine Game,2023.1.3,Win32,59.52380952,,,,,,,,,,,,,,,,,,,,,,,,,,,930,,,,,,,,,,,,,,,,,,,,,3,9,,,362.4455,12,up,0.0827,,1.5,0.3,"[3,1,2]",0.767410829,stimuli/card_100_transparent.png,100,12,0,12,0,1,,,,,,,,,,
,,,,6306d4da805f2e38a841c3ad,A,2024-05-23_14h45.04.085,Slot Machine Game,2023.1.3,Win32,59.52380952,,,,,,,,,,,,,,,,,,,,,,,,,,,1030,,,,,,,,,,,,,,,,,,,,,3,9,,,364.862,13,up,0.0173,,1,0.3,"[3,1,2]",0.824884326,stimuli/card_100_transparent.png,100,13,0,13,0,1,,,,,,,,,,
,,,,6306d4da805f2e38a841c3ad,A,2024-05-23_14h45.04.085,Slot Machine Game,2023.1.3,Win32,59.52380952,,,,,,,,,,,,,,,,,,,,,,,,,,,1130,,,,,,,,,,,,,,,,,,,,,3,9,,,366.7118,14,up,0.4014,,0.5,0.3,"[3,1,2]",0.297941034,stimuli/card_100_transparent.png,100,14,0,14,0,1,,,,,,,,,,
,,,,6306d4da805f2e38a841c3ad,A,2024-05-23_14h45.04.085,Slot Machine Game,2023.1.3,Win32,59.52380952,,,,,,,,,,,,,,,,,,,,,,,,,,,,,,,,,,,368.4448,,,,,,,,,,,,,,,,,,,,,,,,,,,,,,,,,"[930,1130,1130]",2,0,2,0,1,,,,
,,,,6306d4da805f2e38a841c3ad,A,2024-05-23_14h45.04.085,Slot Machine Game,2023.1.3,Win32,59.52380952,,,,,,,,,,,,,,,,,,,,,,,,,,,0,,,,,,,,,,,,,,,,,,,,,4,1,"[12,15]","[[2,1,3],[2,3,1]]",373.4752,0,right,1.1176,,1.5,0.3,"[2,1,3]",0.20559794,stimuli/card_0_transparent.png,0,0,0,0,0,1,,,,,,,,,,
,,,,6306d4da805f2e38a841c3ad,A,2024-05-23_14h45.04.085,Slot Machine Game,2023.1.3,Win32,59.52380952,,,,,,,,,,,,,,,,,,,,,,,,,,,10,,,,,,,,,,,,,,,,,,,,,4,1,,,376.9103,1,left,0.2561,,0.5,0.3,"[2,1,3]",0.207348615,stimuli/card_10_transparent.png,10,1,0,1,0,1,,,,,,,,,,
,,,,6306d4da805f2e38a841c3ad,A,2024-05-23_14h45.04.085,Slot Machine Game,2023.1.3,Win32,59.52380952,,,,,,,,,,,,,,,,,,,,,,,,,,,110,,,,,,,,,,,,,,,,,,,,,4,1,,,378.4935,2,up,0.2651,,1.5,0.3,"[2,1,3]",0.816906019,stimuli/card_100_transparent.png,100,2,0,2,0,1,,,,,,,,,,
,,,,6306d4da805f2e38a841c3ad,A,2024-05-23_14h45.04.085,Slot Machine Game,2023.1.3,Win32,59.52380952,,,,,,,,,,,,,,,,,,,,,,,,,,,210,,,,,,,,,,,,,,,,,,,,,4,1,,,381.0933,3,up,0.0008,,0.5,0.3,"[2,1,3]",0.297710011,stimuli/card_100_transparent.png,100,3,0,3,0,1,,,,,,,,,,
,,,,6306d4da805f2e38a841c3ad,A,2024-05-23_14h45.04.085,Slot Machine Game,2023.1.3,Win32,59.52380952,,,,,,,,,,,,,,,,,,,,,,,,,,,310,,,,,,,,,,,,,,,,,,,,,4,1,,,382.4264,4,up,0.3826,,0.5,0.3,"[2,1,3]",0.670902704,stimuli/card_100_transparent.png,100,4,0,4,0,1,,,,,,,,,,
,,,,6306d4da805f2e38a841c3ad,A,2024-05-23_14h45.04.085,Slot Machine Game,2023.1.3,Win32,59.52380952,,,,,,,,,,,,,,,,,,,,,,,,,,,410,,,,,,,,,,,,,,,,,,,,,4,1,,,384.1429,5,up,0.301,,1,0.3,"[2,1,3]",0.724093046,stimuli/card_100_transparent.png,100,5,0,5,0,1,,,,,,,,,,
,,,,6306d4da805f2e38a841c3ad,A,2024-05-23_14h45.04.085,Slot Machine Game,2023.1.3,Win32,59.52380952,,,,,,,,,,,,,,,,,,,,,,,,,,,420,,,,,,,,,,,,,,,,,,,,,4,1,,,386.2758,6,up,0.1262,,1.5,0.3,"[2,1,3]",0.160278469,stimuli/card_10_transparent.png,10,6,0,6,0,1,,,,,,,,,,
,,,,6306d4da805f2e38a841c3ad,A,2024-05-23_14h45.04.085,Slot Machine Game,2023.1.3,Win32,59.52380952,,,,,,,,,,,,,,,,,,,,,,,,,,,520,,,,,,,,,,,,,,,,,,,,,4,1,,,388.7254,7,up,0.3016,,1.5,0.3,"[2,1,3]",0.652275832,stimuli/card_100_transparent.png,100,7,0,7,0,1,,,,,,,,,,
,,,,6306d4da805f2e38a841c3ad,A,2024-05-23_14h45.04.085,Slot Machine Game,2023.1.3,Win32,59.52380952,,,,,,,,,,,,,,,,,,,,,,,,,,,620,,,,,,,,,,,,,,,,,,,,,4,1,,,391.3586,8,up,0.0181,,1.5,0.3,"[2,1,3]",0.772722223,stimuli/card_100_transparent.png,100,8,0,8,0,1,,,,,,,,,,
,,,,6306d4da805f2e38a841c3ad,A,2024-05-23_14h45.04.085,Slot Machine Game,2023.1.3,Win32,59.52380952,,,,,,,,,,,,,,,,,,,,,,,,,,,720,,,,,,,,,,,,,,,,,,,,,4,1,,,393.7081,9,up,0.2895,,1.5,0.3,"[2,1,3]",0.540804928,stimuli/card_100_transparent.png,100,9,0,9,0,1,,,,,,,,,,
,,,,6306d4da805f2e38a841c3ad,A,2024-05-23_14h45.04.085,Slot Machine Game,2023.1.3,Win32,59.52380952,,,,,,,,,,,,,,,,,,,,,,,,,,,820,,,,,,,,,,,,,,,,,,,,,4,1,,,396.3078,10,up,0.0009,,0.5,0.3,"[2,1,3]",0.332208631,stimuli/card_100_transparent.png,100,10,0,10,0,1,,,,,,,,,,
,,,,6306d4da805f2e38a841c3ad,A,2024-05-23_14h45.04.085,Slot Machine Game,2023.1.3,Win32,59.52380952,,,,,,,,,,,,,,,,,,,,,,,,,,,920,,,,,,,,,,,,,,,,,,,,,4,1,,,397.6409,11,up,0.1403,,1,0.3,"[2,1,3]",0.90799775,stimuli/card_100_transparent.png,100,11,0,11,0,1,,,,,,,,,,
,,,,6306d4da805f2e38a841c3ad,A,2024-05-23_14h45.04.085,Slot Machine Game,2023.1.3,Win32,59.52380952,,,,,,,,,,,,,,,,,,,,,,,,,,,930,,,,,,,,,,,,,,,,,,,,,4,1,,,399.6075,12,up,0.0338,,1,0.3,"[2,3,1]",0.1474531,stimuli/card_10_transparent.png,10,12,0,12,0,1,,,,,,,,,,
,,,,6306d4da805f2e38a841c3ad,A,2024-05-23_14h45.04.085,Slot Machine Game,2023.1.3,Win32,59.52380952,,,,,,,,,,,,,,,,,,,,,,,,,,,1030,,,,,,,,,,,,,,,,,,,,,4,1,,,401.4739,13,up,1.186,,1.5,0.3,"[2,3,1]",0.009144891,stimuli/card_100_transparent.png,100,13,0,13,0,1,,,,,,,,,,
,,,,6306d4da805f2e38a841c3ad,A,2024-05-23_14h45.04.085,Slot Machine Game,2023.1.3,Win32,59.52380952,,,,,,,,,,,,,,,,,,,,,,,,,,,1030,,,,,,,,,,,,,,,,,,,,,4,1,,,404.9899,14,up,0.2679,,0.5,0.3,"[2,3,1]",0.374712875,stimuli/card_0_transparent.png,0,14,0,14,0,1,,,,,,,,,,
,,,,6306d4da805f2e38a841c3ad,A,2024-05-23_14h45.04.085,Slot Machine Game,2023.1.3,Win32,59.52380952,,,,,,,,,,,,,,,,,,,,,,,,,,,,,,,,,,,406.5898,,,,,,,,,,,,,,,,,,,,,,,,,,,,,,,,,"[930,1130,1130,1030]",3,0,3,0,1,,,,
,,,,6306d4da805f2e38a841c3ad,A,2024-05-23_14h45.04.085,Slot Machine Game,2023.1.3,Win32,59.52380952,,,,,,,,,,,,,,,,,,,,,,,,,,,0,,,,,,,,,,,,,,,,,,,,,5,2,"[6,15]","[[1,3,2],[3,2,1]]",411.624,0,up,0.5069,,1.5,0.3,"[1,3,2]",0.861090719,stimuli/card_0_transparent.png,0,0,0,0,0,1,,,,,,,,,,
,,,,6306d4da805f2e38a841c3ad,A,2024-05-23_14h45.04.085,Slot Machine Game,2023.1.3,Win32,59.52380952,,,,,,,,,,,,,,,,,,,,,,,,,,,100,,,,,,,,,,,,,,,,,,,,,5,2,,,414.4554,1,right,0.0011,,0.5,0.3,"[1,3,2]",0.120972611,stimuli/card_100_transparent.png,100,1,0,1,0,1,,,,,,,,,,
,,,,6306d4da805f2e38a841c3ad,A,2024-05-23_14h45.04.085,Slot Machine Game,2023.1.3,Win32,59.52380952,,,,,,,,,,,,,,,,,,,,,,,,,,,110,,,,,,,,,,,,,,,,,,,,,5,2,,,415.7885,2,right,0.0181,,1.5,0.3,"[1,3,2]",0.703671128,stimuli/card_10_transparent.png,10,2,0,2,0,1,,,,,,,,,,
,,,,6306d4da805f2e38a841c3ad,A,2024-05-23_14h45.04.085,Slot Machine Game,2023.1.3,Win32,59.52380952,,,,,,,,,,,,,,,,,,,,,,,,,,,120,,,,,,,,,,,,,,,,,,,,,5,2,,,418.1384,3,right,0.3183,,1,0.3,"[1,3,2]",0.528178966,stimuli/card_10_transparent.png,10,3,0,3,0,1,,,,,,,,,,
,,,,6306d4da805f2e38a841c3ad,A,2024-05-23_14h45.04.085,Slot Machine Game,2023.1.3,Win32,59.52380952,,,,,,,,,,,,,,,,,,,,,,,,,,,220,,,,,,,,,,,,,,,,,,,,,5,2,,,420.288,4,left,0.1155,,1,0.3,"[1,3,2]",0.593951753,stimuli/card_100_transparent.png,100,4,0,4,0,1,,,,,,,,,,
,,,,6306d4da805f2e38a841c3ad,A,2024-05-23_14h45.04.085,Slot Machine Game,2023.1.3,Win32,59.52380952,,,,,,,,,,,,,,,,,,,,,,,,,,,320,,,,,,,,,,,,,,,,,,,,,5,2,,,422.2377,5,left,0.0008,,1.5,0.3,"[1,3,2]",0.487655766,stimuli/card_100_transparent.png,100,5,0,5,0,1,,,,,,,,,,
,,,,6306d4da805f2e38a841c3ad,A,2024-05-23_14h45.04.085,Slot Machine Game,2023.1.3,Win32,59.52380952,,,,,,,,,,,,,,,,,,,,,,,,,,,320,,,,,,,,,,,,,,,,,,,,,5,2,,,424.5541,6,left,0.0821,,1.5,0.3,"[3,2,1]",0.322609638,stimuli/card_0_transparent.png,0,6,0,6,0,1,,,,,,,,,,
,,,,6306d4da805f2e38a841c3ad,A,2024-05-23_14h45.04.085,Slot Machine Game,2023.1.3,Win32,59.52380952,,,,,,,,,,,,,,,,,,,,,,,,,,,420,,,,,,,,,,,,,,,,,,,,,5,2,,,426.9703,7,left,0.1528,,0.5,0.3,"[3,2,1]",0.08723085,stimuli/card_100_transparent.png,100,7,0,7,0,1,,,,,,,,,,
,,,,6306d4da805f2e38a841c3ad,A,2024-05-23_14h45.04.085,Slot Machine Game,2023.1.3,Win32,59.52380952,,,,,,,,,,,,,,,,,,,,,,,,,,,420,,,,,,,,,,,,,,,,,,,,,5,2,,,428.4536,8,left,0.0855,,1.5,0.3,"[3,2,1]",0.243714806,stimuli/card_0_transparent.png,0,8,0,8,0,1,,,,,,,,,,
,,,,6306d4da805f2e38a841c3ad,A,2024-05-23_14h45.04.085,Slot Machine Game,2023.1.3,Win32,59.52380952,,,,,,,,,,,,,,,,,,,,,,,,,,,430,,,,,,,,,,,,,,,,,,,,,5,2,,,430.8701,9,up,0.6221,,0.5,0.3,"[3,2,1]",0.745123812,stimuli/card_10_transparent.png,10,9,0,9,0,1,,,,,,,,,,
,,,,6306d4da805f2e38a841c3ad,A,2024-05-23_14h45.04.085,Slot Machine Game,2023.1.3,Win32,59.52380952,,,,,,,,,,,,,,,,,,,,,,,,,,,430,,,,,,,,,,,,,,,,,,,,,5,2,,,432.8201,10,right,0.2707,,1,0.3,"[3,2,1]",0.017709984,stimuli/card_0_transparent.png,0,10,0,10,0,1,,,,,,,,,,
,,,,6306d4da805f2e38a841c3ad,A,2024-05-23_14h45.04.085,Slot Machine Game,2023.1.3,Win32,59.52380952,,,,,,,,,,,,,,,,,,,,,,,,,,,440,,,,,,,,,,,,,,,,,,,,,5,2,,,434.9193,11,up,0.2401,,1,0.3,"[3,2,1]",0.61457214,stimuli/card_10_transparent.png,10,11,0,11,0,1,,,,,,,,,,
,,,,6306d4da805f2e38a841c3ad,A,2024-05-23_14h45.04.085,Slot Machine Game,2023.1.3,Win32,59.52380952,,,,,,,,,,,,,,,,,,,,,,,,,,,540,,,,,,,,,,,,,,,,,,,,,5,2,,,436.986,12,left,0.0524,,1.5,0.3,"[3,2,1]",0.099673187,stimuli/card_100_transparent.png,100,12,0,12,0,1,,,,,,,,,,
,,,,6306d4da805f2e38a841c3ad,A,2024-05-23_14h45.04.085,Slot Machine Game,2023.1.3,Win32,59.52380952,,,,,,,,,,,,,,,,,,,,,,,,,,,540,,,,,,,,,,,,,,,,,,,,,5,2,,,439.3689,13,left,0.2825,,0.5,0.3,"[3,2,1]",0.301866904,stimuli/card_0_transparent.png,0,13,0,13,0,1,,,,,,,,,,
,,,,6306d4da805f2e38a841c3ad,A,2024-05-23_14h45.04.085,Slot Machine Game,2023.1.3,Win32,59.52380952,,,,,,,,,,,,,,,,,,,,,,,,,,,540,,,,,,,,,,,,,,,,,,,,,5,2,,,440.9853,14,left,0.2043,,1,0.3,"[3,2,1]",0.648982574,stimuli/card_0_transparent.png,0,14,0,14,0,1,,,,,,,,,,
,,,,6306d4da805f2e38a841c3ad,A,2024-05-23_14h45.04.085,Slot Machine Game,2023.1.3,Win32,59.52380952,,,,,,,,,,,,,,,,,,,,,,,,,,,,,,,,,,,443.0183,,,,,,,,,,,,,,,,,,,,,,,,,,,,,,,,,"[930,1130,1130,1030,540]",4,0,4,0,1,,,,
,,,,6306d4da805f2e38a841c3ad,A,2024-05-23_14h45.04.085,Slot Machine Game,2023.1.3,Win32,59.52380952,,,,,,,,,,,,,,,,,,,,,,,,,,,0,,,,,,,,,,,,,,,,,,,,,6,4,"[7,15]","[[2,3,1],[1,2,3]]",448.0484,0,right,0.5247,,1.5,0.3,"[2,3,1]",0.011190938,stimuli/card_0_transparent.png,0,0,0,0,0,1,,,,,,,,,,
,,,,6306d4da805f2e38a841c3ad,A,2024-05-23_14h45.04.085,Slot Machine Game,2023.1.3,Win32,59.52380952,,,,,,,,,,,,,,,,,,,,,,,,,,,100,,,,,,,,,,,,,,,,,,,,,6,4,,,450.884,1,up,0.0073,,1,0.3,"[2,3,1]",0.03655367,stimuli/card_100_transparent.png,100,1,0,1,0,1,,,,,,,,,,
,,,,6306d4da805f2e38a841c3ad,A,2024-05-23_14h45.04.085,Slot Machine Game,2023.1.3,Win32,59.52380952,,,,,,,,,,,,,,,,,,,,,,,,,,,200,,,,,,,,,,,,,,,,,,,,,6,4,,,452.7171,2,up,0.0514,,1.5,0.3,"[2,3,1]",0.083445537,stimuli/card_100_transparent.png,100,2,0,2,0,1,,,,,,,,,,
,,,,6306d4da805f2e38a841c3ad,A,2024-05-23_14h45.04.085,Slot Machine Game,2023.1.3,Win32,59.52380952,,,,,,,,,,,,,,,,,,,,,,,,,,,200,,,,,,,,,,,,,,,,,,,,,6,4,,,455.1001,3,up,0.0322,,0.5,0.3,"[2,3,1]",0.837325314,stimuli/card_0_transparent.png,0,3,0,3,0,1,,,,,,,,,,
,,,,6306d4da805f2e38a841c3ad,A,2024-05-23_14h45.04.085,Slot Machine Game,2023.1.3,Win32,59.52380952,,,,,,,,,,,,,,,,,,,,,,,,,,,200,,,,,,,,,,,,,,,,,,,,,6,4,,,456.4665,4,up,1.3194,,1.5,0.3,"[2,3,1]",0.399508884,stimuli/card_0_transparent.png,0,4,0,4,0,1,,,,,,,,,,
,,,,6306d4da805f2e38a841c3ad,A,2024-05-23_14h45.04.085,Slot Machine Game,2023.1.3,Win32,59.52380952,,,,,,,,,,,,,,,,,,,,,,,,,,,210,,,,,,,,,,,,,,,,,,,,,6,4,,,460.116,5,left,0.273,,1,0.3,"[2,3,1]",0.735865624,stimuli/card_10_transparent.png,10,5,0,5,0,1,,,,,,,,,,
,,,,6306d4da805f2e38a841c3ad,A,2024-05-23_14h45.04.085,Slot Machine Game,2023.1.3,Win32,59.52380952,,,,,,,,,,,,,,,,,,,,,,,,,,,220,,,,,,,,,,,,,,,,,,,,,6,4,,,462.2156,6,up,0.6656,,0.5,0.3,"[2,3,1]",0.137264207,stimuli/card_10_transparent.png,10,6,0,6,0,1,,,,,,,,,,
,,,,6306d4da805f2e38a841c3ad,A,2024-05-23_14h45.04.085,Slot Machine Game,2023.1.3,Win32,59.52380952,,,,,,,,,,,,,,,,,,,,,,,,,,,220,,,,,,,,,,,,,,,,,,,,,6,4,,,464.2155,7,right,0.1699,,0.5,0.3,"[1,2,3]",0.781777846,stimuli/card_0_transparent.png,0,7,0,7,0,1,,,,,,,,,,
,,,,6306d4da805f2e38a841c3ad,A,2024-05-23_14h45.04.085,Slot Machine Game,2023.1.3,Win32,59.52380952,,,,,,,,,,,,,,,,,,,,,,,,,,,320,,,,,,,,,,,,,,,,,,,,,6,4,,,465.7152,8,left,0.1653,,1.5,0.3,"[1,2,3]",0.651686973,stimuli/card_100_transparent.png,100,8,0,8,0,1,,,,,,,,,,
,,,,6306d4da805f2e38a841c3ad,A,2024-05-23_14h45.04.085,Slot Machine Game,2023.1.3,Win32,59.52380952,,,,,,,,,,,,,,,,,,,,,,,,,,,420,,,,,,,,,,,,,,,,,,,,,6,4,,,468.2149,9,left,0.2059,,1,0.3,"[1,2,3]",0.562981639,stimuli/card_100_transparent.png,100,9,0,9,0,1,,,,,,,,,,
,,,,6306d4da805f2e38a841c3ad,A,2024-05-23_14h45.04.085,Slot Machine Game,2023.1.3,Win32,59.52380952,,,,,,,,,,,,,,,,,,,,,,,,,,,520,,,,,,,,,,,,,,,,,,,,,6,4,,,470.2474,10,left,0.2047,,0.5,0.3,"[1,2,3]",0.849606878,stimuli/card_100_transparent.png,100,10,0,10,0,1,,,,,,,,,,
,,,,6306d4da805f2e38a841c3ad,A,2024-05-23_14h45.04.085,Slot Machine Game,2023.1.3,Win32,59.52380952,,,,,,,,,,,,,,,,,,,,,,,,,,,520,,,,,,,,,,,,,,,,,,,,,6,4,,,471.7645,11,left,0.085,,1.5,0.3,"[1,2,3]",0.056628949,stimuli/card_0_transparent.png,0,11,0,11,0,1,,,,,,,,,,
,,,,6306d4da805f2e38a841c3ad,A,2024-05-23_14h45.04.085,Slot Machine Game,2023.1.3,Win32,59.52380952,,,,,,,,,,,,,,,,,,,,,,,,,,,620,,,,,,,,,,,,,,,,,,,,,6,4,,,474.1807,12,left,0.1823,,1.5,0.3,"[1,2,3]",0.386758041,stimuli/card_100_transparent.png,100,12,0,12,0,1,,,,,,,,,,
,,,,6306d4da805f2e38a841c3ad,A,2024-05-23_14h45.04.085,Slot Machine Game,2023.1.3,Win32,59.52380952,,,,,,,,,,,,,,,,,,,,,,,,,,,720,,,,,,,,,,,,,,,,,,,,,6,4,,,476.6972,13,left,0.3023,,1,0.3,"[1,2,3]",0.762526491,stimuli/card_100_transparent.png,100,13,0,13,0,1,,,,,,,,,,
,,,,6306d4da805f2e38a841c3ad,A,2024-05-23_14h45.04.085,Slot Machine Game,2023.1.3,Win32,59.52380952,,,,,,,,,,,,,,,,,,,,,,,,,,,820,,,,,,,,,,,,,,,,,,,,,6,4,,,478.8303,14,left,0.0701,,1.5,0.3,"[1,2,3]",0.631446938,stimuli/card_100_transparent.png,100,14,0,14,0,1,,,,,,,,,,
,,,,6306d4da805f2e38a841c3ad,A,2024-05-23_14h45.04.085,Slot Machine Game,2023.1.3,Win32,59.52380952,,,,,,,,,,,,,,,,,,,,,,,,,,,,,,,,,,,481.2299,,,,,,,,,,,,,,,,,,,,,,,,,,,,,,,,,"[930,1130,1130,1030,540,820]",5,0,5,0,1,,,,
,,,,6306d4da805f2e38a841c3ad,A,2024-05-23_14h45.04.085,Slot Machine Game,2023.1.3,Win32,59.52380952,,,,,,,,,,,,,,,,,,,,,,,,,,,100,,,,,,,,,,,,,,,,,,,,,7,10,"[10,15]","[[3,1,2],[1,3,2]]",486.2596,0,up,1.3725,,0.5,0.3,"[3,1,2]",0.646538774,stimuli/card_100_transparent.png,100,0,0,0,0,1,,,,,,,,,,
,,,,6306d4da805f2e38a841c3ad,A,2024-05-23_14h45.04.085,Slot Machine Game,2023.1.3,Win32,59.52380952,,,,,,,,,,,,,,,,,,,,,,,,,,,200,,,,,,,,,,,,,,,,,,,,,7,10,,,488.9455,1,up,0.4178,,0.5,0.3,"[3,1,2]",0.914846359,stimuli/card_100_transparent.png,100,1,0,1,0,1,,,,,,,,,,
,,,,6306d4da805f2e38a841c3ad,A,2024-05-23_14h45.04.085,Slot Machine Game,2023.1.3,Win32,59.52380952,,,,,,,,,,,,,,,,,,,,,,,,,,,300,,,,,,,,,,,,,,,,,,,,,7,10,,,490.6953,2,up,0.3655,,1.5,0.3,"[3,1,2]",0.994677764,stimuli/card_100_transparent.png,100,2,0,2,0,1,,,,,,,,,,
,,,,6306d4da805f2e38a841c3ad,A,2024-05-23_14h45.04.085,Slot Machine Game,2023.1.3,Win32,59.52380952,,,,,,,,,,,,,,,,,,,,,,,,,,,400,,,,,,,,,,,,,,,,,,,,,7,10,,,493.395,3,up,0.138,,1.5,0.3,"[3,1,2]",0.222821289,stimuli/card_100_transparent.png,100,3,0,3,0,1,,,,,,,,,,
,,,,6306d4da805f2e38a841c3ad,A,2024-05-23_14h45.04.085,Slot Machine Game,2023.1.3,Win32,59.52380952,,,,,,,,,,,,,,,,,,,,,,,,,,,500,,,,,,,,,,,,,,,,,,,,,7,10,,,495.8612,4,up,0.1695,,1,0.3,"[3,1,2]",0.487366894,stimuli/card_100_transparent.png,100,4,0,4,0,1,,,,,,,,,,
,,,,6306d4da805f2e38a841c3ad,A,2024-05-23_14h45.04.085,Slot Machine Game,2023.1.3,Win32,59.52380952,,,,,,,,,,,,,,,,,,,,,,,,,,,600,,,,,,,,,,,,,,,,,,,,,7,10,,,497.8611,5,up,0.2331,,1,0.3,"[3,1,2]",0.731658617,stimuli/card_100_transparent.png,100,5,0,5,0,1,,,,,,,,,,
,,,,6306d4da805f2e38a841c3ad,A,2024-05-23_14h45.04.085,Slot Machine Game,2023.1.3,Win32,59.52380952,,,,,,,,,,,,,,,,,,,,,,,,,,,700,,,,,,,,,,,,,,,,,,,,,7,10,,,499.9273,6,up,0.056,,1.5,0.3,"[3,1,2]",0.858594239,stimuli/card_100_transparent.png,100,6,0,6,0,1,,,,,,,,,,
,,,,6306d4da805f2e38a841c3ad,A,2024-05-23_14h45.04.085,Slot Machine Game,2023.1.3,Win32,59.52380952,,,,,,,,,,,,,,,,,,,,,,,,,,,800,,,,,,,,,,,,,,,,,,,,,7,10,,,502.3105,7,up,0.5198,,1,0.3,"[3,1,2]",0.922181376,stimuli/card_100_transparent.png,100,7,0,7,0,1,,,,,,,,,,
,,,,6306d4da805f2e38a841c3ad,A,2024-05-23_14h45.04.085,Slot Machine Game,2023.1.3,Win32,59.52380952,,,,,,,,,,,,,,,,,,,,,,,,,,,900,,,,,,,,,,,,,,,,,,,,,7,10,,,504.6603,8,up,0.101,,1.5,0.3,"[3,1,2]",0.681803305,stimuli/card_100_transparent.png,100,8,0,8,0,1,,,,,,,,,,
,,,,6306d4da805f2e38a841c3ad,A,2024-05-23_14h45.04.085,Slot Machine Game,2023.1.3,Win32,59.52380952,,,,,,,,,,,,,,,,,,,,,,,,,,,1000,,,,,,,,,,,,,,,,,,,,,7,10,,,507.0931,9,up,0.3534,,1.5,0.3,"[3,1,2]",0.209127921,stimuli/card_100_transparent.png,100,9,0,9,0,1,,,,,,,,,,
,,,,6306d4da805f2e38a841c3ad,A,2024-05-23_14h45.04.085,Slot Machine Game,2023.1.3,Win32,59.52380952,,,,,,,,,,,,,,,,,,,,,,,,,,,1010,,,,,,,,,,,,,,,,,,,,,7,10,,,509.7761,10,up,0.3354,,0.5,0.3,"[1,3,2]",0.140109917,stimuli/card_10_transparent.png,10,10,0,10,0,1,,,,,,,,,,
,,,,6306d4da805f2e38a841c3ad,A,2024-05-23_14h45.04.085,Slot Machine Game,2023.1.3,Win32,59.52380952,,,,,,,,,,,,,,,,,,,,,,,,,,,1010,,,,,,,,,,,,,,,,,,,,,7,10,,,511.4426,11,up,0.7489,,1,0.3,"[1,3,2]",0.251945387,stimuli/card_0_transparent.png,0,11,0,11,0,1,,,,,,,,,,
,,,,6306d4da805f2e38a841c3ad,A,2024-05-23_14h45.04.085,Slot Machine Game,2023.1.3,Win32,59.52380952,,,,,,,,,,,,,,,,,,,,,,,,,,,1110,,,,,,,,,,,,,,,,,,,,,7,10,,,514.0255,12,right,0.0687,,1,0.3,"[1,3,2]",0.190440906,stimuli/card_100_transparent.png,100,12,0,12,0,1,,,,,,,,,,
,,,,6306d4da805f2e38a841c3ad,A,2024-05-23_14h45.04.085,Slot Machine Game,2023.1.3,Win32,59.52380952,,,,,,,,,,,,,,,,,,,,,,,,,,,1110,,,,,,,,,,,,,,,,,,,,,7,10,,,515.9253,13,right,0.352,,0.5,0.3,"[1,3,2]",0.025111928,stimuli/card_0_transparent.png,0,13,0,13,0,1,,,,,,,,,,
,,,,6306d4da805f2e38a841c3ad,A,2024-05-23_14h45.04.085,Slot Machine Game,2023.1.3,Win32,59.52380952,,,,,,,,,,,,,,,,,,,,,,,,,,,1110,,,,,,,,,,,,,,,,,,,,,7,10,,,517.6084,14,right,0.1018,,1,0.3,"[1,3,2]",0.067694963,stimuli/card_0_transparent.png,0,14,0,14,0,1,,,,,,,,,,
,,,,6306d4da805f2e38a841c3ad,A,2024-05-23_14h45.04.085,Slot Machine Game,2023.1.3,Win32,59.52380952,,,,,,,,,,,,,,,,,,,,,,,,,,,,,,,,,,,519.5413,,,,,,,,,,,,,,,,,,,,,,,,,,,,,,,,,"[930,1130,1130,1030,540,820,1110]",6,0,6,0,1,,,,
,,,,6306d4da805f2e38a841c3ad,A,2024-05-23_14h45.04.085,Slot Machine Game,2023.1.3,Win32,59.52380952,,,,,,,,,,,,,,,,,,,,,,,,,,,100,,,,,,,,,,,,,,,,,,,,,8,7,"[9,15]","[[1,3,2],[2,3,1]]",524.5719,0,left,0.7583,,1,0.3,"[1,3,2]",0.933851064,stimuli/card_100_transparent.png,100,0,0,0,0,1,,,,,,,,,,
,,,,6306d4da805f2e38a841c3ad,A,2024-05-23_14h45.04.085,Slot Machine Game,2023.1.3,Win32,59.52380952,,,,,,,,,,,,,,,,,,,,,,,,,,,200,,,,,,,,,,,,,,,,,,,,,8,7,,,527.1406,1,left,0.0156,,0.5,0.3,"[1,3,2]",0.440986696,stimuli/card_100_transparent.png,100,1,0,1,0,1,,,,,,,,,,
,,,,6306d4da805f2e38a841c3ad,A,2024-05-23_14h45.04.085,Slot Machine Game,2023.1.3,Win32,59.52380952,,,,,,,,,,,,,,,,,,,,,,,,,,,300,,,,,,,,,,,,,,,,,,,,,8,7,,,528.4902,2,left,0.0009,,1.5,0.3,"[1,3,2]",0.775350621,stimuli/card_100_transparent.png,100,2,0,2,0,1,,,,,,,,,,
,,,,6306d4da805f2e38a841c3ad,A,2024-05-23_14h45.04.085,Slot Machine Game,2023.1.3,Win32,59.52380952,,,,,,,,,,,,,,,,,,,,,,,,,,,310,,,,,,,,,,,,,,,,,,,,,8,7,,,530.8235,3,left,0.215,,1.5,0.3,"[1,3,2]",0.108476662,stimuli/card_10_transparent.png,10,3,0,3,0,1,,,,,,,,,,
,,,,6306d4da805f2e38a841c3ad,A,2024-05-23_14h45.04.085,Slot Machine Game,2023.1.3,Win32,59.52380952,,,,,,,,,,,,,,,,,,,,,,,,,,,410,,,,,,,,,,,,,,,,,,,,,8,7,,,533.373,4,left,0.1346,,0.5,0.3,"[1,3,2]",0.489282762,stimuli/card_100_transparent.png,100,4,0,4,0,1,,,,,,,,,,
,,,,6306d4da805f2e38a841c3ad,A,2024-05-23_14h45.04.085,Slot Machine Game,2023.1.3,Win32,59.52380952,,,,,,,,,,,,,,,,,,,,,,,,,,,510,,,,,,,,,,,,,,,,,,,,,8,7,,,534.8392,5,left,0.0874,,1.5,0.3,"[1,3,2]",0.65868129,stimuli/card_100_transparent.png,100,5,0,5,0,1,,,,,,,,,,
,,,,6306d4da805f2e38a841c3ad,A,2024-05-23_14h45.04.085,Slot Machine Game,2023.1.3,Win32,59.52380952,,,,,,,,,,,,,,,,,,,,,,,,,,,610,,,,,,,,,,,,,,,,,,,,,8,7,,,537.2559,6,left,0.0092,,0.5,0.3,"[1,3,2]",0.721466549,stimuli/card_100_transparent.png,100,6,0,6,0,1,,,,,,,,,,
,,,,6306d4da805f2e38a841c3ad,A,2024-05-23_14h45.04.085,Slot Machine Game,2023.1.3,Win32,59.52380952,,,,,,,,,,,,,,,,,,,,,,,,,,,710,,,,,,,,,,,,,,,,,,,,,8,7,,,538.589,7,left,0.0052,,1,0.3,"[1,3,2]",0.56163771,stimuli/card_100_transparent.png,100,7,0,7,0,1,,,,,,,,,,
,,,,6306d4da805f2e38a841c3ad,A,2024-05-23_14h45.04.085,Slot Machine Game,2023.1.3,Win32,59.52380952,,,,,,,,,,,,,,,,,,,,,,,,,,,810,,,,,,,,,,,,,,,,,,,,,8,7,,,540.422,8,left,0.0159,,0.5,0.3,"[1,3,2]",0.839398418,stimuli/card_100_transparent.png,100,8,0,8,0,1,,,,,,,,,,
,,,,6306d4da805f2e38a841c3ad,A,2024-05-23_14h45.04.085,Slot Machine Game,2023.1.3,Win32,59.52380952,,,,,,,,,,,,,,,,,,,,,,,,,,,810,,,,,,,,,,,,,,,,,,,,,8,7,,,541.7718,9,left,0.7331,,1,0.3,"[2,3,1]",0.044062578,stimuli/card_0_transparent.png,0,9,0,9,0,1,,,,,,,,,,
,,,,6306d4da805f2e38a841c3ad,A,2024-05-23_14h45.04.085,Slot Machine Game,2023.1.3,Win32,59.52380952,,,,,,,,,,,,,,,,,,,,,,,,,,,820,,,,,,,,,,,,,,,,,,,,,8,7,,,544.3382,10,left,0.2889,,1,0.3,"[2,3,1]",0.469559909,stimuli/card_10_transparent.png,10,10,0,10,0,1,,,,,,,,,,
,,,,6306d4da805f2e38a841c3ad,A,2024-05-23_14h45.04.085,Slot Machine Game,2023.1.3,Win32,59.52380952,,,,,,,,,,,,,,,,,,,,,,,,,,,820,,,,,,,,,,,,,,,,,,,,,8,7,,,546.4546,11,right,0.0597,,0.5,0.3,"[2,3,1]",0.05028289,stimuli/card_0_transparent.png,0,11,0,11,0,1,,,,,,,,,,
,,,,6306d4da805f2e38a841c3ad,A,2024-05-23_14h45.04.085,Slot Machine Game,2023.1.3,Win32,59.52380952,,,,,,,,,,,,,,,,,,,,,,,,,,,820,,,,,,,,,,,,,,,,,,,,,8,7,,,547.8376,12,up,0.2747,,0.5,0.3,"[2,3,1]",0.846505953,stimuli/card_0_transparent.png,0,12,0,12,0,1,,,,,,,,,,
,,,,6306d4da805f2e38a841c3ad,A,2024-05-23_14h45.04.085,Slot Machine Game,2023.1.3,Win32,59.52380952,,,,,,,,,,,,,,,,,,,,,,,,,,,830,,,,,,,,,,,,,,,,,,,,,8,7,,,549.4377,13,left,0.1171,,1.5,0.3,"[2,3,1]",0.728138283,stimuli/card_10_transparent.png,10,13,0,13,0,1,,,,,,,,,,
,,,,6306d4da805f2e38a841c3ad,A,2024-05-23_14h45.04.085,Slot Machine Game,2023.1.3,Win32,59.52380952,,,,,,,,,,,,,,,,,,,,,,,,,,,840,,,,,,,,,,,,,,,,,,,,,8,7,,,551.8872,14,left,0.1762,,1.5,0.3,"[2,3,1]",0.842505881,stimuli/card_10_transparent.png,10,14,0,14,0,1,,,,,,,,,,
,,,,6306d4da805f2e38a841c3ad,A,2024-05-23_14h45.04.085,Slot Machine Game,2023.1.3,Win32,59.52380952,,,,,,,,,,,,,,,,,,,,,,,,,,,,,,,,,,,554.387,,,,,,,,,,,,,,,,,,,,,,,,,,,,,,,,,"[930,1130,1130,1030,540,820,1110,840]",7,0,7,0,1,,,,
,,,,6306d4da805f2e38a841c3ad,A,2024-05-23_14h45.04.085,Slot Machine Game,2023.1.3,Win32,59.52380952,,,,,,,,,,,,,,,,,,,,,,,,,,,100,,,,,,,,,,,,,,,,,,,,,9,9,[15],"[[3,1,2]]",559.4213,0,up,0.1886,,1.5,0.3,"[3,1,2]",0.439224253,stimuli/card_100_transparent.png,100,0,0,0,0,1,,,,,,,,,,
,,,,6306d4da805f2e38a841c3ad,A,2024-05-23_14h45.04.085,Slot Machine Game,2023.1.3,Win32,59.52380952,,,,,,,,,,,,,,,,,,,,,,,,,,,200,,,,,,,,,,,,,,,,,,,,,9,9,,,561.953,1,up,0.3687,,0.5,0.3,"[3,1,2]",0.92475398,stimuli/card_100_transparent.png,100,1,0,1,0,1,,,,,,,,,,
,,,,6306d4da805f2e38a841c3ad,A,2024-05-23_14h45.04.085,Slot Machine Game,2023.1.3,Win32,59.52380952,,,,,,,,,,,,,,,,,,,,,,,,,,,300,,,,,,,,,,,,,,,,,,,,,9,9,,,563.652,2,up,0.206,,1,0.3,"[3,1,2]",0.58189297,stimuli/card_100_transparent.png,100,2,0,2,0,1,,,,,,,,,,
,,,,6306d4da805f2e38a841c3ad,A,2024-05-23_14h45.04.085,Slot Machine Game,2023.1.3,Win32,59.52380952,,,,,,,,,,,,,,,,,,,,,,,,,,,400,,,,,,,,,,,,,,,,,,,,,9,9,,,565.6854,3,up,0.0053,,1,0.3,"[3,1,2]",0.275275059,stimuli/card_100_transparent.png,100,3,0,3,0,1,,,,,,,,,,
,,,,6306d4da805f2e38a841c3ad,A,2024-05-23_14h45.04.085,Slot Machine Game,2023.1.3,Win32,59.52380952,,,,,,,,,,,,,,,,,,,,,,,,,,,500,,,,,,,,,,,,,,,,,,,,,9,9,,,567.5185,4,up,0.2871,,1,0.3,"[3,1,2]",0.784016708,stimuli/card_100_transparent.png,100,4,0,4,0,1,,,,,,,,,,
,,,,6306d4da805f2e38a841c3ad,A,2024-05-23_14h45.04.085,Slot Machine Game,2023.1.3,Win32,59.52380952,,,,,,,,,,,,,,,,,,,,,,,,,,,500,,,,,,,,,,,,,,,,,,,,,9,9,,,569.6349,5,up,0.0009,,1,0.3,"[3,1,2]",0.099684915,stimuli/card_0_transparent.png,0,5,0,5,0,1,,,,,,,,,,
,,,,6306d4da805f2e38a841c3ad,A,2024-05-23_14h45.04.085,Slot Machine Game,2023.1.3,Win32,59.52380952,,,,,,,,,,,,,,,,,,,,,,,,,,,600,,,,,,,,,,,,,,,,,,,,,9,9,,,571.4679,6,up,0.0009,,0.5,0.3,"[3,1,2]",0.301644221,stimuli/card_100_transparent.png,100,6,0,6,0,1,,,,,,,,,,
,,,,6306d4da805f2e38a841c3ad,A,2024-05-23_14h45.04.085,Slot Machine Game,2023.1.3,Win32,59.52380952,,,,,,,,,,,,,,,,,,,,,,,,,,,700,,,,,,,,,,,,,,,,,,,,,9,9,,,572.801,7,up,0.2987,,1.5,0.3,"[3,1,2]",0.630382433,stimuli/card_100_transparent.png,100,7,0,7,0,1,,,,,,,,,,
,,,,6306d4da805f2e38a841c3ad,A,2024-05-23_14h45.04.085,Slot Machine Game,2023.1.3,Win32,59.52380952,,,,,,,,,,,,,,,,,,,,,,,,,,,800,,,,,,,,,,,,,,,,,,,,,9,9,,,575.4341,8,up,0.0228,,1,0.3,"[3,1,2]",0.766872869,stimuli/card_100_transparent.png,100,8,0,8,0,1,,,,,,,,,,
,,,,6306d4da805f2e38a841c3ad,A,2024-05-23_14h45.04.085,Slot Machine Game,2023.1.3,Win32,59.52380952,,,,,,,,,,,,,,,,,,,,,,,,,,,900,,,,,,,,,,,,,,,,,,,,,9,9,,,577.2838,9,up,0.216,,1,0.3,"[3,1,2]",0.802055156,stimuli/card_100_transparent.png,100,9,0,9,0,1,,,,,,,,,,
,,,,6306d4da805f2e38a841c3ad,A,2024-05-23_14h45.04.085,Slot Machine Game,2023.1.3,Win32,59.52380952,,,,,,,,,,,,,,,,,,,,,,,,,,,1000,,,,,,,,,,,,,,,,,,,,,9,9,,,579.3335,10,up,0.2021,,1.5,0.3,"[3,1,2]",0.875837201,stimuli/card_100_transparent.png,100,10,0,10,0,1,,,,,,,,,,
,,,,6306d4da805f2e38a841c3ad,A,2024-05-23_14h45.04.085,Slot Machine Game,2023.1.3,Win32,59.52380952,,,,,,,,,,,,,,,,,,,,,,,,,,,1100,,,,,,,,,,,,,,,,,,,,,9,9,,,581.8665,11,up,0.2322,,1.5,0.3,"[3,1,2]",0.811802006,stimuli/card_100_transparent.png,100,11,0,11,0,1,,,,,,,,,,
,,,,6306d4da805f2e38a841c3ad,A,2024-05-23_14h45.04.085,Slot Machine Game,2023.1.3,Win32,59.52380952,,,,,,,,,,,,,,,,,,,,,,,,,,,1200,,,,,,,,,,,,,,,,,,,,,9,9,,,584.4329,12,up,0.3516,,1,0.3,"[3,1,2]",0.246018117,stimuli/card_100_transparent.png,100,12,0,12,0,1,,,,,,,,,,
,,,,6306d4da805f2e38a841c3ad,A,2024-05-23_14h45.04.085,Slot Machine Game,2023.1.3,Win32,59.52380952,,,,,,,,,,,,,,,,,,,,,,,,,,,1210,,,,,,,,,,,,,,,,,,,,,9,9,,,586.6162,13,up,0.2988,,1.5,0.3,"[3,1,2]",0.143877981,stimuli/card_10_transparent.png,10,13,0,13,0,1,,,,,,,,,,
,,,,6306d4da805f2e38a841c3ad,A,2024-05-23_14h45.04.085,Slot Machine Game,2023.1.3,Win32,59.52380952,,,,,,,,,,,,,,,,,,,,,,,,,,,1310,,,,,,,,,,,,,,,,,,,,,9,9,,,589.2488,14,up,0.0844,,0.5,0.3,"[3,1,2]",0.71054218,stimuli/card_100_transparent.png,100,14,0,14,0,1,,,,,,,,,,
,,,,6306d4da805f2e38a841c3ad,A,2024-05-23_14h45.04.085,Slot Machine Game,2023.1.3,Win32,59.52380952,,,,,,,,,,,,,,,,,,,,,,,,,,,,,,,,,,,590.6654,,,,,,,,,,,,,,,,,,,,,,,,,,,,,,,,,"[930,1130,1130,1030,540,820,1110,840,1310]",8,0,8,0,1,,,,
,,,,6306d4da805f2e38a841c3ad,A,2024-05-23_14h45.04.085,Slot Machine Game,2023.1.3,Win32,59.52380952,,,,,,,,,,,,,,,,,,,,,,,,,,,10,,,,,,,,,,,,,,,,,,,,,10,6,"[4,10,15]","[[2,3,1],[1,3,2],[3,2,1]]",595.7,0,left,1.1294,,1.5,0.3,"[2,3,1]",0.966079673,stimuli/card_10_transparent.png,10,0,0,0,0,1,,,,,,,,,,
,,,,6306d4da805f2e38a841c3ad,A,2024-05-23_14h45.04.085,Slot Machine Game,2023.1.3,Win32,59.52380952,,,,,,,,,,,,,,,,,,,,,,,,,,,10,,,,,,,,,,,,,,,,,,,,,10,6,,,599.1649,1,up,0.1677,,0.5,0.3,"[2,3,1]",0.415237039,stimuli/card_0_transparent.png,0,1,0,1,0,1,,,,,,,,,,
,,,,6306d4da805f2e38a841c3ad,A,2024-05-23_14h45.04.085,Slot Machine Game,2023.1.3,Win32,59.52380952,,,,,,,,,,,,,,,,,,,,,,,,,,,110,,,,,,,,,,,,,,,,,,,,,10,6,,,600.6639,2,right,0.1457,,0.5,0.3,"[2,3,1]",0.416314877,stimuli/card_100_transparent.png,100,2,0,2,0,1,,,,,,,,,,
,,,,6306d4da805f2e38a841c3ad,A,2024-05-23_14h45.04.085,Slot Machine Game,2023.1.3,Win32,59.52380952,,,,,,,,,,,,,,,,,,,,,,,,,,,120,,,,,,,,,,,,,,,,,,,,,10,6,,,602.1144,3,right,0.288,,1,0.3,"[2,3,1]",0.165218019,stimuli/card_10_transparent.png,10,3,0,3,0,1,,,,,,,,,,
,,,,6306d4da805f2e38a841c3ad,A,2024-05-23_14h45.04.085,Slot Machine Game,2023.1.3,Win32,59.52380952,,,,,,,,,,,,,,,,,,,,,,,,,,,120,,,,,,,,,,,,,,,,,,,,,10,6,,,604.2311,4,right,0.2536,,1,0.3,"[1,3,2]",0.075936947,stimuli/card_0_transparent.png,0,4,0,4,0,1,,,,,,,,,,
,,,,6306d4da805f2e38a841c3ad,A,2024-05-23_14h45.04.085,Slot Machine Game,2023.1.3,Win32,59.52380952,,,,,,,,,,,,,,,,,,,,,,,,,,,120,,,,,,,,,,,,,,,,,,,,,10,6,,,606.3141,5,up,0.1871,,1,0.3,"[1,3,2]",0.607676972,stimuli/card_0_transparent.png,0,5,0,5,0,1,,,,,,,,,,
,,,,6306d4da805f2e38a841c3ad,A,2024-05-23_14h45.04.085,Slot Machine Game,2023.1.3,Win32,59.52380952,,,,,,,,,,,,,,,,,,,,,,,,,,,220,,,,,,,,,,,,,,,,,,,,,10,6,,,608.3303,6,left,0.9294,,0.5,0.3,"[1,3,2]",0.576266292,stimuli/card_100_transparent.png,100,6,0,6,0,1,,,,,,,,,,
,,,,6306d4da805f2e38a841c3ad,A,2024-05-23_14h45.04.085,Slot Machine Game,2023.1.3,Win32,59.52380952,,,,,,,,,,,,,,,,,,,,,,,,,,,320,,,,,,,,,,,,,,,,,,,,,10,6,,,610.5968,7,left,0.2419,,0.5,0.3,"[1,3,2]",0.219508967,stimuli/card_100_transparent.png,100,7,0,7,0,1,,,,,,,,,,
,,,,6306d4da805f2e38a841c3ad,A,2024-05-23_14h45.04.085,Slot Machine Game,2023.1.3,Win32,59.52380952,,,,,,,,,,,,,,,,,,,,,,,,,,,420,,,,,,,,,,,,,,,,,,,,,10,6,,,612.1666,8,left,0.2653,,0.5,0.3,"[1,3,2]",0.830715623,stimuli/card_100_transparent.png,100,8,0,8,0,1,,,,,,,,,,
,,,,6306d4da805f2e38a841c3ad,A,2024-05-23_14h45.04.085,Slot Machine Game,2023.1.3,Win32,59.52380952,,,,,,,,,,,,,,,,,,,,,,,,,,,520,,,,,,,,,,,,,,,,,,,,,10,6,,,613.752,9,left,0.1214,,0.5,0.3,"[1,3,2]",0.659691721,stimuli/card_100_transparent.png,100,9,0,9,0,1,,,,,,,,,,
,,,,6306d4da805f2e38a841c3ad,A,2024-05-23_14h45.04.085,Slot Machine Game,2023.1.3,Win32,59.52380952,,,,,,,,,,,,,,,,,,,,,,,,,,,520,,,,,,,,,,,,,,,,,,,,,10,6,,,615.2156,10,left,0.0709,,1.5,0.3,"[3,2,1]",0.458723088,stimuli/card_0_transparent.png,0,10,0,10,0,1,,,,,,,,,,
,,,,6306d4da805f2e38a841c3ad,A,2024-05-23_14h45.04.085,Slot Machine Game,2023.1.3,Win32,59.52380952,,,,,,,,,,,,,,,,,,,,,,,,,,,520,,,,,,,,,,,,,,,,,,,,,10,6,,,617.6155,11,left,0.0015,,1.5,0.3,"[3,2,1]",0.527375475,stimuli/card_0_transparent.png,0,11,0,11,0,1,,,,,,,,,,
,,,,6306d4da805f2e38a841c3ad,A,2024-05-23_14h45.04.085,Slot Machine Game,2023.1.3,Win32,59.52380952,,,,,,,,,,,,,,,,,,,,,,,,,,,530,,,,,,,,,,,,,,,,,,,,,10,6,,,619.9457,12,up,0.6233,,1,0.3,"[3,2,1]",0.761001248,stimuli/card_10_transparent.png,10,12,0,12,0,1,,,,,,,,,,
,,,,6306d4da805f2e38a841c3ad,A,2024-05-23_14h45.04.085,Slot Machine Game,2023.1.3,Win32,59.52380952,,,,,,,,,,,,,,,,,,,,,,,,,,,630,,,,,,,,,,,,,,,,,,,,,10,6,,,622.4117,13,right,0.088,,0.5,0.3,"[3,2,1]",0.976940084,stimuli/card_100_transparent.png,100,13,0,13,0,1,,,,,,,,,,
,,,,6306d4da805f2e38a841c3ad,A,2024-05-23_14h45.04.085,Slot Machine Game,2023.1.3,Win32,59.52380952,,,,,,,,,,,,,,,,,,,,,,,,,,,730,,,,,,,,,,,,,,,,,,,,,10,6,,,623.834,14,right,0.4208,,1,0.3,"[3,2,1]",0.84074656,stimuli/card_100_transparent.png,100,14,0,14,0,1,,,,,,,,,,
,,,,6306d4da805f2e38a841c3ad,A,2024-05-23_14h45.04.085,Slot Machine Game,2023.1.3,Win32,59.52380952,,,,,,,,,,,,,,,,,,,,,,,,,,,,,,,,,,,626.0949,,,,,,,,,,,,,,,,,,,,,,,,,,,,,,,,,"[930,1130,1130,1030,540,820,1110,840,1310,730]",9,0,9,0,1,,,,
,,,,6306d4da805f2e38a841c3ad,A,2024-05-23_14h45.04.085,Slot Machine Game,2023.1.3,Win32,59.52380952,,,,,,,,,,,,,,,,,,,,,,,,,,,,,,,,,,,,,,,,,,,,,,,,,,,,,,,,,,,,,,,,,,,,,,,,,,9,"[930,1130,1130,1030,540,820,1110,840,1310,730]",13.1,2024-05-23_14h55.39.343
