key_resp_welcome_started,key_resp_welcome_keys,key_resp_welcome_rt,key_resp_welcome_duration,prolific_id,path_id,date,expName,psychopyVersion,OS,frameRate,key_resp_instruction1_started,key_resp_instruction1_keys,key_resp_instruction1_rt,key_resp_instruction1_duration,key_resp_instruction2_started,key_resp_instruction2_keys,key_resp_instruction2_rt,key_resp_instruction2_duration,key_resp_instruction3_started,key_resp_instruction3_keys,key_resp_instruction3_rt,key_resp_instruction3_duration,key_resp_instruction4_started,key_resp_instruction4_keys,key_resp_instruction4_rt,key_resp_instruction4_duration,practiceCondition,practice_reward_seqs,practice_trial_started,practice_trial_num,practice_resp_rt,practice_resp_duration,practice_resp_keys,prac_presentationInterval,"practice_reward_seq: 2,1,3",reward_img,cumulative_reward,trial_reward,practice_trials.thisRepN,practice_trials.thisTrialN,practice_trials.thisN,practice_trials.thisIndex,practice_trials.ran,"practice_reward_seq: 2,3,1",block_break_started,"practice_reward_seq: 1,3,2","practice_reward_seq: 3,1,2",practice_end_time,practice_end_keys,practice_end_rt,practice_end_duration,main_instruction_text_started,block_condition,block_order_indices,main_instruction_keys,main_instruction_rt,main_instruction_duration,block_number,block_assignment,current_condition,main_reward_seqs,main_trial_started,main_trial_num,main_trial_keys,main_trial_rt,main_trial_duration,main_presentationInterval,reward_presentation_time,main_reward_seq,reward_rand_val,main_reward_img,current_reward,main_trials.thisRepN,main_trials.thisTrialN,main_trials.thisN,main_trials.thisIndex,main_trials.ran,block_reward,block.thisRepN,block.thisTrialN,block.thisN,block.thisIndex,block.ran,block_reward.length,block_reward_all,reward_amount,date_end_task
0.0001,space,2.0734,,5d6920acf59886000119e73e,A,2024-05-21_22h48.11.954,Slot Machine Game,2023.1.3,Win32,59.88023952,,,,,,,,,,,,,,,,,,,,,,,,,,,,,,,,,,,,,,,,,,,,,,,,,,,,,,,,,,,,,,,,,,,,,,,,,,,,,
,,,,5d6920acf59886000119e73e,A,2024-05-21_22h48.11.954,Slot Machine Game,2023.1.3,Win32,59.88023952,2.0772,space,14.4611,,,,,,,,,,,,,,,,,,,,,,,,,,,,,,,,,,,,,,,,,,,,,,,,,,,,,,,,,,,,,,,,,,,,,,,,,,
,,,,5d6920acf59886000119e73e,A,2024-05-21_22h48.11.954,Slot Machine Game,2023.1.3,Win32,59.88023952,,,,,16.5576,space,31.3157,,,,,,,,,,,,,,,,,,,,,,,,,,,,,,,,,,,,,,,,,,,,,,,,,,,,,,,,,,,,,,,,,,,,,,
,,,,5d6920acf59886000119e73e,A,2024-05-21_22h48.11.954,Slot Machine Game,2023.1.3,Win32,59.88023952,,,,,,,,,47.9069,space,17.8424,,,,,,,,,,,,,,,,,,,,,,,,,,,,,,,,,,,,,,,,,,,,,,,,,,,,,,,,,,,,,,,,,,
,,,,5d6920acf59886000119e73e,A,2024-05-21_22h48.11.954,Slot Machine Game,2023.1.3,Win32,59.88023952,,,,,,,,,,,,,,,,,,,,,,,,,,,,,,,,,,,,,,,,,,,,,,,,,,,,,,,,,,,,,,,,,,,,,,,,,,,,,
,,,,5d6920acf59886000119e73e,A,2024-05-21_22h48.11.954,Slot Machine Game,2023.1.3,Win32,59.88023952,,,,,,,,,,,,,207.462,up,2.2013,,,,,,,,,,,,,,,,,,,,,,,,,,,,,,,,,,,,,,,,,,,,,,,,,,,,,,,,,,,,,,
,,,,5d6920acf59886000119e73e,A,2024-05-21_22h48.11.954,Slot Machine Game,2023.1.3,Win32,59.88023952,,,,,,,,,,,,,,,,,"[9,15]","[[2,1,3],[2,3,1]]",209.6877,0,0.7721,,left,1,,stimuli/card_10_transparent.png,10,10,0,0,0,0,1,,,,,,,,,,,,,,,,,,,,,,,,,,,,,,,,,,,,,,,,,,,,
,,,,5d6920acf59886000119e73e,A,2024-05-21_22h48.11.954,Slot Machine Game,2023.1.3,Win32,59.88023952,,,,,,,,,,,,,,,,,,,212.2866,1,0.3886,,left,1.5,,stimuli/card_10_transparent.png,20,10,1,0,1,0,1,,,,,,,,,,,,,,,,,,,,,,,,,,,,,,,,,,,,,,,,,,,,
,,,,5d6920acf59886000119e73e,A,2024-05-21_22h48.11.954,Slot Machine Game,2023.1.3,Win32,59.88023952,,,,,,,,,,,,,,,,,,,215.026,2,0.0095,,up,0.5,,stimuli/card_100_transparent.png,120,100,2,0,2,0,1,,,,,,,,,,,,,,,,,,,,,,,,,,,,,,,,,,,,,,,,,,,,
,,,,5d6920acf59886000119e73e,A,2024-05-21_22h48.11.954,Slot Machine Game,2023.1.3,Win32,59.88023952,,,,,,,,,,,,,,,,,,,216.353,3,0.2106,,up,1,,stimuli/card_100_transparent.png,220,100,3,0,3,0,1,,,,,,,,,,,,,,,,,,,,,,,,,,,,,,,,,,,,,,,,,,,,
,,,,5d6920acf59886000119e73e,A,2024-05-21_22h48.11.954,Slot Machine Game,2023.1.3,Win32,59.88023952,,,,,,,,,,,,,,,,,,,218.403,4,0.0549,,up,0.5,,stimuli/card_100_transparent.png,320,100,4,0,4,0,1,,,,,,,,,,,,,,,,,,,,,,,,,,,,,,,,,,,,,,,,,,,,
,,,,5d6920acf59886000119e73e,A,2024-05-21_22h48.11.954,Slot Machine Game,2023.1.3,Win32,59.88023952,,,,,,,,,,,,,,,,,,,219.8029,5,0.0416,,up,1,,stimuli/card_100_transparent.png,420,100,5,0,5,0,1,,,,,,,,,,,,,,,,,,,,,,,,,,,,,,,,,,,,,,,,,,,,
,,,,5d6920acf59886000119e73e,A,2024-05-21_22h48.11.954,Slot Machine Game,2023.1.3,Win32,59.88023952,,,,,,,,,,,,,,,,,,,221.6695,6,2.9493,,up,1.5,,stimuli/card_0_transparent.png,420,0,6,0,6,0,1,,,,,,,,,,,,,,,,,,,,,,,,,,,,,,,,,,,,,,,,,,,,
,,,,5d6920acf59886000119e73e,A,2024-05-21_22h48.11.954,Slot Machine Game,2023.1.3,Win32,59.88023952,,,,,,,,,,,,,,,,,,,226.9361,7,0.5164,,up,1,,stimuli/card_100_transparent.png,520,100,7,0,7,0,1,,,,,,,,,,,,,,,,,,,,,,,,,,,,,,,,,,,,,,,,,,,,
,,,,5d6920acf59886000119e73e,A,2024-05-21_22h48.11.954,Slot Machine Game,2023.1.3,Win32,59.88023952,,,,,,,,,,,,,,,,,,,229.3027,8,0.1789,,up,1,,stimuli/card_100_transparent.png,620,100,8,0,8,0,1,,,,,,,,,,,,,,,,,,,,,,,,,,,,,,,,,,,,,,,,,,,,
,,,,5d6920acf59886000119e73e,A,2024-05-21_22h48.11.954,Slot Machine Game,2023.1.3,Win32,59.88023952,,,,,,,,,,,,,,,,,,,231.286,9,0.0356,,up,1,,stimuli/card_0_transparent.png,620,0,9,0,9,0,1,,,,,,,,,,,,,,,,,,,,,,,,,,,,,,,,,,,,,,,,,,,,
,,,,5d6920acf59886000119e73e,A,2024-05-21_22h48.11.954,Slot Machine Game,2023.1.3,Win32,59.88023952,,,,,,,,,,,,,,,,,,,233.1693,10,0.1329,,up,1,,stimuli/card_0_transparent.png,620,0,10,0,10,0,1,,,,,,,,,,,,,,,,,,,,,,,,,,,,,,,,,,,,,,,,,,,,
,,,,5d6920acf59886000119e73e,A,2024-05-21_22h48.11.954,Slot Machine Game,2023.1.3,Win32,59.88023952,,,,,,,,,,,,,,,,,,,235.1193,11,1.093,,right,1,,stimuli/card_100_transparent.png,720,100,11,0,11,0,1,,,,,,,,,,,,,,,,,,,,,,,,,,,,,,,,,,,,,,,,,,,,
,,,,5d6920acf59886000119e73e,A,2024-05-21_22h48.11.954,Slot Machine Game,2023.1.3,Win32,59.88023952,,,,,,,,,,,,,,,,,,,238.0358,12,0.0884,,right,0.5,,stimuli/card_100_transparent.png,820,100,12,0,12,0,1,,,,,,,,,,,,,,,,,,,,,,,,,,,,,,,,,,,,,,,,,,,,
,,,,5d6920acf59886000119e73e,A,2024-05-21_22h48.11.954,Slot Machine Game,2023.1.3,Win32,59.88023952,,,,,,,,,,,,,,,,,,,239.4525,13,0.149,,right,1.5,,stimuli/card_100_transparent.png,920,100,13,0,13,0,1,,,,,,,,,,,,,,,,,,,,,,,,,,,,,,,,,,,,,,,,,,,,
,,,,5d6920acf59886000119e73e,A,2024-05-21_22h48.11.954,Slot Machine Game,2023.1.3,Win32,59.88023952,,,,,,,,,,,,,,,,,,,241.9357,14,0.5501,,right,1.5,,stimuli/card_100_transparent.png,1020,100,14,0,14,0,1,,,,,,,,,,,,,,,,,,,,,,,,,,,,,,,,,,,,,,,,,,,,
,,,,5d6920acf59886000119e73e,A,2024-05-21_22h48.11.954,Slot Machine Game,2023.1.3,Win32,59.88023952,,,,,,,,,,,,,,,,,"[6,15]","[[1,3,2],[3,1,2]]",249.7894,0,1.7385,,left,1.5,,stimuli/card_100_transparent.png,100,100,0,0,0,0,1,,244.7895,,,,,,,,,,,,,,,,,,,,,,,,,,,,,,,,,,,,,,,,,,
,,,,5d6920acf59886000119e73e,A,2024-05-21_22h48.11.954,Slot Machine Game,2023.1.3,Win32,59.88023952,,,,,,,,,,,,,,,,,,,253.8522,1,0.0561,,left,1,,stimuli/card_100_transparent.png,200,100,1,0,1,0,1,,,,,,,,,,,,,,,,,,,,,,,,,,,,,,,,,,,,,,,,,,,,
,,,,5d6920acf59886000119e73e,A,2024-05-21_22h48.11.954,Slot Machine Game,2023.1.3,Win32,59.88023952,,,,,,,,,,,,,,,,,,,255.7355,2,0.5094,,left,0.5,,stimuli/card_100_transparent.png,300,100,2,0,2,0,1,,,,,,,,,,,,,,,,,,,,,,,,,,,,,,,,,,,,,,,,,,,,
,,,,5d6920acf59886000119e73e,A,2024-05-21_22h48.11.954,Slot Machine Game,2023.1.3,Win32,59.88023952,,,,,,,,,,,,,,,,,,,257.5687,3,0.2508,,left,0.5,,stimuli/card_100_transparent.png,400,100,3,0,3,0,1,,,,,,,,,,,,,,,,,,,,,,,,,,,,,,,,,,,,,,,,,,,,
,,,,5d6920acf59886000119e73e,A,2024-05-21_22h48.11.954,Slot Machine Game,2023.1.3,Win32,59.88023952,,,,,,,,,,,,,,,,,,,259.1688,4,0.2834,,left,1.5,,stimuli/card_100_transparent.png,500,100,4,0,4,0,1,,,,,,,,,,,,,,,,,,,,,,,,,,,,,,,,,,,,,,,,,,,,
,,,,5d6920acf59886000119e73e,A,2024-05-21_22h48.11.954,Slot Machine Game,2023.1.3,Win32,59.88023952,,,,,,,,,,,,,,,,,,,261.7853,5,0.2015,,left,1.5,,stimuli/card_100_transparent.png,600,100,5,0,5,0,1,,,,,,,,,,,,,,,,,,,,,,,,,,,,,,,,,,,,,,,,,,,,
,,,,5d6920acf59886000119e73e,A,2024-05-21_22h48.11.954,Slot Machine Game,2023.1.3,Win32,59.88023952,,,,,,,,,,,,,,,,,,,264.3187,6,0.138,,left,0.5,,stimuli/card_0_transparent.png,600,0,6,0,6,0,1,,,,,,,,,,,,,,,,,,,,,,,,,,,,,,,,,,,,,,,,,,,,
,,,,5d6920acf59886000119e73e,A,2024-05-21_22h48.11.954,Slot Machine Game,2023.1.3,Win32,59.88023952,,,,,,,,,,,,,,,,,,,265.7745,7,0.603,,left,1.5,,stimuli/card_0_transparent.png,600,0,7,0,7,0,1,,,,,,,,,,,,,,,,,,,,,,,,,,,,,,,,,,,,,,,,,,,,
,,,,5d6920acf59886000119e73e,A,2024-05-21_22h48.11.954,Slot Machine Game,2023.1.3,Win32,59.88023952,,,,,,,,,,,,,,,,,,,268.7186,8,0.3336,,up,1,,stimuli/card_0_transparent.png,600,0,8,0,8,0,1,,,,,,,,,,,,,,,,,,,,,,,,,,,,,,,,,,,,,,,,,,,,
,,,,5d6920acf59886000119e73e,A,2024-05-21_22h48.11.954,Slot Machine Game,2023.1.3,Win32,59.88023952,,,,,,,,,,,,,,,,,,,270.874,9,0.9163,,right,1.5,,stimuli/card_10_transparent.png,610,10,9,0,9,0,1,,,,,,,,,,,,,,,,,,,,,,,,,,,,,,,,,,,,,,,,,,,,
,,,,5d6920acf59886000119e73e,A,2024-05-21_22h48.11.954,Slot Machine Game,2023.1.3,Win32,59.88023952,,,,,,,,,,,,,,,,,,,274.1184,10,0.6866,,left,1,,stimuli/card_0_transparent.png,610,0,10,0,10,0,1,,,,,,,,,,,,,,,,,,,,,,,,,,,,,,,,,,,,,,,,,,,,
,,,,5d6920acf59886000119e73e,A,2024-05-21_22h48.11.954,Slot Machine Game,2023.1.3,Win32,59.88023952,,,,,,,,,,,,,,,,,,,276.635,11,0.4843,,right,1.5,,stimuli/card_10_transparent.png,620,10,11,0,11,0,1,,,,,,,,,,,,,,,,,,,,,,,,,,,,,,,,,,,,,,,,,,,,
,,,,5d6920acf59886000119e73e,A,2024-05-21_22h48.11.954,Slot Machine Game,2023.1.3,Win32,59.88023952,,,,,,,,,,,,,,,,,,,279.4241,12,0.0456,,up,1.5,,stimuli/card_100_transparent.png,720,100,12,0,12,0,1,,,,,,,,,,,,,,,,,,,,,,,,,,,,,,,,,,,,,,,,,,,,
,,,,5d6920acf59886000119e73e,A,2024-05-21_22h48.11.954,Slot Machine Game,2023.1.3,Win32,59.88023952,,,,,,,,,,,,,,,,,,,281.7848,13,0.079,,up,0.5,,stimuli/card_100_transparent.png,820,100,13,0,13,0,1,,,,,,,,,,,,,,,,,,,,,,,,,,,,,,,,,,,,,,,,,,,,
,,,,5d6920acf59886000119e73e,A,2024-05-21_22h48.11.954,Slot Machine Game,2023.1.3,Win32,59.88023952,,,,,,,,,,,,,,,,,,,283.185,14,0.4709,,up,1.5,,stimuli/card_100_transparent.png,920,100,14,0,14,0,1,,,,,,,,,,,,,,,,,,,,,,,,,,,,,,,,,,,,,,,,,,,,
,,,,5d6920acf59886000119e73e,A,2024-05-21_22h48.11.954,Slot Machine Game,2023.1.3,Win32,59.88023952,,,,,,,,,,,,,,,,,,,,,,,,,,,,,,,,,,,285.9877,,,290.9849,space,6.169,,,,,,,,,,,,,,,,,,,,,,,,,,,,,,,,,,,,,
,,,,5d6920acf59886000119e73e,A,2024-05-21_22h48.11.954,Slot Machine Game,2023.1.3,Win32,59.88023952,,,,,,,,,,,,,,,,,,,,,,,,,,,,,,,,,,,,,,,,,,297.1849,3,"[0,4,6,3,5,7,8,1,9,2]",space,3.8253,,,,,,,,,,,,,,,,,,,,,,,,,,,,,,,
,,,,5d6920acf59886000119e73e,A,2024-05-21_22h48.11.954,Slot Machine Game,2023.1.3,Win32,59.88023952,,,,,,,,,,,,,,,,,,,,,,,,,,,10,,,,,,,,,,,,,,,,,,,,,1,1,"[12,15]","[[2,1,3],[2,3,1]]",301.0391,0,left,0.4861,,0.5,0.3,"[2,1,3]",0.375281719,stimuli/card_10_transparent.png,10,0,0,0,0,1,,,,,,,,,,
,,,,5d6920acf59886000119e73e,A,2024-05-21_22h48.11.954,Slot Machine Game,2023.1.3,Win32,59.88023952,,,,,,,,,,,,,,,,,,,,,,,,,,,110,,,,,,,,,,,,,,,,,,,,,1,1,,,302.8679,1,up,0.2042,,1,0.3,"[2,1,3]",0.706096602,stimuli/card_100_transparent.png,100,1,0,1,0,1,,,,,,,,,,
,,,,5d6920acf59886000119e73e,A,2024-05-21_22h48.11.954,Slot Machine Game,2023.1.3,Win32,59.88023952,,,,,,,,,,,,,,,,,,,,,,,,,,,210,,,,,,,,,,,,,,,,,,,,,1,1,,,304.901,2,up,0.5398,,1,0.3,"[2,1,3]",0.467109412,stimuli/card_100_transparent.png,100,2,0,2,0,1,,,,,,,,,,
,,,,5d6920acf59886000119e73e,A,2024-05-21_22h48.11.954,Slot Machine Game,2023.1.3,Win32,59.88023952,,,,,,,,,,,,,,,,,,,,,,,,,,,310,,,,,,,,,,,,,,,,,,,,,1,1,,,307.252,3,up,0.3322,,1,0.3,"[2,1,3]",0.69507475,stimuli/card_100_transparent.png,100,3,0,3,0,1,,,,,,,,,,
,,,,5d6920acf59886000119e73e,A,2024-05-21_22h48.11.954,Slot Machine Game,2023.1.3,Win32,59.88023952,,,,,,,,,,,,,,,,,,,,,,,,,,,410,,,,,,,,,,,,,,,,,,,,,1,1,,,309.4177,4,up,0.0594,,1.5,0.3,"[2,1,3]",0.241787953,stimuli/card_100_transparent.png,100,4,0,4,0,1,,,,,,,,,,
,,,,5d6920acf59886000119e73e,A,2024-05-21_22h48.11.954,Slot Machine Game,2023.1.3,Win32,59.88023952,,,,,,,,,,,,,,,,,,,,,,,,,,,410,,,,,,,,,,,,,,,,,,,,,1,1,,,311.801,5,up,0.2123,,1.5,0.3,"[2,1,3]",0.041834893,stimuli/card_0_transparent.png,0,5,0,5,0,1,,,,,,,,,,
,,,,5d6920acf59886000119e73e,A,2024-05-21_22h48.11.954,Slot Machine Game,2023.1.3,Win32,59.88023952,,,,,,,,,,,,,,,,,,,,,,,,,,,510,,,,,,,,,,,,,,,,,,,,,1,1,,,314.3351,6,up,0.3353,,0.5,0.3,"[2,1,3]",0.710773937,stimuli/card_100_transparent.png,100,6,0,6,0,1,,,,,,,,,,
,,,,5d6920acf59886000119e73e,A,2024-05-21_22h48.11.954,Slot Machine Game,2023.1.3,Win32,59.88023952,,,,,,,,,,,,,,,,,,,,,,,,,,,520,,,,,,,,,,,,,,,,,,,,,1,1,,,316.0009,7,up,0.4206,,1,0.3,"[2,1,3]",0.110778424,stimuli/card_10_transparent.png,10,7,0,7,0,1,,,,,,,,,,
,,,,5d6920acf59886000119e73e,A,2024-05-21_22h48.11.954,Slot Machine Game,2023.1.3,Win32,59.88023952,,,,,,,,,,,,,,,,,,,,,,,,,,,620,,,,,,,,,,,,,,,,,,,,,1,1,,,318.2509,8,up,0.9027,,0.5,0.3,"[2,1,3]",0.840558711,stimuli/card_100_transparent.png,100,8,0,8,0,1,,,,,,,,,,
,,,,5d6920acf59886000119e73e,A,2024-05-21_22h48.11.954,Slot Machine Game,2023.1.3,Win32,59.88023952,,,,,,,,,,,,,,,,,,,,,,,,,,,630,,,,,,,,,,,,,,,,,,,,,1,1,,,320.5008,9,up,0.4431,,1,0.3,"[2,1,3]",0.17385679,stimuli/card_10_transparent.png,10,9,0,9,0,1,,,,,,,,,,
,,,,5d6920acf59886000119e73e,A,2024-05-21_22h48.11.954,Slot Machine Game,2023.1.3,Win32,59.88023952,,,,,,,,,,,,,,,,,,,,,,,,,,,730,,,,,,,,,,,,,,,,,,,,,1,1,,,322.7841,10,up,0.163,,1.5,0.3,"[2,1,3]",0.401931731,stimuli/card_100_transparent.png,100,10,0,10,0,1,,,,,,,,,,
,,,,5d6920acf59886000119e73e,A,2024-05-21_22h48.11.954,Slot Machine Game,2023.1.3,Win32,59.88023952,,,,,,,,,,,,,,,,,,,,,,,,,,,740,,,,,,,,,,,,,,,,,,,,,1,1,,,325.284,11,up,0.4076,,0.5,0.3,"[2,1,3]",0.143360532,stimuli/card_10_transparent.png,10,11,0,11,0,1,,,,,,,,,,
,,,,5d6920acf59886000119e73e,A,2024-05-21_22h48.11.954,Slot Machine Game,2023.1.3,Win32,59.88023952,,,,,,,,,,,,,,,,,,,,,,,,,,,740,,,,,,,,,,,,,,,,,,,,,1,1,,,327.0173,12,up,0.6074,,1.5,0.3,"[2,3,1]",0.640732704,stimuli/card_0_transparent.png,0,12,0,12,0,1,,,,,,,,,,
,,,,5d6920acf59886000119e73e,A,2024-05-21_22h48.11.954,Slot Machine Game,2023.1.3,Win32,59.88023952,,,,,,,,,,,,,,,,,,,,,,,,,,,840,,,,,,,,,,,,,,,,,,,,,1,1,,,329.9506,13,right,0.5623,,1.5,0.3,"[2,3,1]",0.438313058,stimuli/card_100_transparent.png,100,13,0,13,0,1,,,,,,,,,,
,,,,5d6920acf59886000119e73e,A,2024-05-21_22h48.11.954,Slot Machine Game,2023.1.3,Win32,59.88023952,,,,,,,,,,,,,,,,,,,,,,,,,,,840,,,,,,,,,,,,,,,,,,,,,1,1,,,332.8338,14,right,0.2638,,1.5,0.3,"[2,3,1]",0.076165038,stimuli/card_0_transparent.png,0,14,0,14,0,1,,,,,,,,,,
,,,,5d6920acf59886000119e73e,A,2024-05-21_22h48.11.954,Slot Machine Game,2023.1.3,Win32,59.88023952,,,,,,,,,,,,,,,,,,,,,,,,,,,,,,,,,,,335.4005,,,,,,,,,,,,,,,,,,,,,,,,,,,,,,,,,[840],0,0,0,0,1,,,,
,,,,5d6920acf59886000119e73e,A,2024-05-21_22h48.11.954,Slot Machine Game,2023.1.3,Win32,59.88023952,,,,,,,,,,,,,,,,,,,,,,,,,,,100,,,,,,,,,,,,,,,,,,,,,2,5,"[5,15]","[[1,2,3],[3,1,2]]",340.4043,0,left,1.7878,,1,0.3,"[1,2,3]",0.567005294,stimuli/card_100_transparent.png,100,0,0,0,0,1,,,,,,,,,,
,,,,5d6920acf59886000119e73e,A,2024-05-21_22h48.11.954,Slot Machine Game,2023.1.3,Win32,59.88023952,,,,,,,,,,,,,,,,,,,,,,,,,,,200,,,,,,,,,,,,,,,,,,,,,2,5,,,344.0169,1,left,0.479,,0.5,0.3,"[1,2,3]",0.896659783,stimuli/card_100_transparent.png,100,1,0,1,0,1,,,,,,,,,,
,,,,5d6920acf59886000119e73e,A,2024-05-21_22h48.11.954,Slot Machine Game,2023.1.3,Win32,59.88023952,,,,,,,,,,,,,,,,,,,,,,,,,,,300,,,,,,,,,,,,,,,,,,,,,2,5,,,345.8335,2,left,0.5596,,0.5,0.3,"[1,2,3]",0.860316331,stimuli/card_100_transparent.png,100,2,0,2,0,1,,,,,,,,,,
,,,,5d6920acf59886000119e73e,A,2024-05-21_22h48.11.954,Slot Machine Game,2023.1.3,Win32,59.88023952,,,,,,,,,,,,,,,,,,,,,,,,,,,400,,,,,,,,,,,,,,,,,,,,,2,5,,,347.7002,3,left,0.2771,,1.5,0.3,"[1,2,3]",0.930590974,stimuli/card_100_transparent.png,100,3,0,3,0,1,,,,,,,,,,
,,,,5d6920acf59886000119e73e,A,2024-05-21_22h48.11.954,Slot Machine Game,2023.1.3,Win32,59.88023952,,,,,,,,,,,,,,,,,,,,,,,,,,,500,,,,,,,,,,,,,,,,,,,,,2,5,,,350.3001,4,left,0.1007,,1,0.3,"[1,2,3]",0.554250601,stimuli/card_100_transparent.png,100,4,0,4,0,1,,,,,,,,,,
,,,,5d6920acf59886000119e73e,A,2024-05-21_22h48.11.954,Slot Machine Game,2023.1.3,Win32,59.88023952,,,,,,,,,,,,,,,,,,,,,,,,,,,500,,,,,,,,,,,,,,,,,,,,,2,5,,,352.2334,5,left,0.4398,,0.5,0.3,"[3,1,2]",0.28159902,stimuli/card_0_transparent.png,0,5,0,5,0,1,,,,,,,,,,
,,,,5d6920acf59886000119e73e,A,2024-05-21_22h48.11.954,Slot Machine Game,2023.1.3,Win32,59.88023952,,,,,,,,,,,,,,,,,,,,,,,,,,,500,,,,,,,,,,,,,,,,,,,,,2,5,,,354,6,left,0.6998,,1.5,0.3,"[3,1,2]",0.344977251,stimuli/card_0_transparent.png,0,6,0,6,0,1,,,,,,,,,,
,,,,5d6920acf59886000119e73e,A,2024-05-21_22h48.11.954,Slot Machine Game,2023.1.3,Win32,59.88023952,,,,,,,,,,,,,,,,,,,,,,,,,,,510,,,,,,,,,,,,,,,,,,,,,2,5,,,357.0166,7,up,0.2892,,1.5,0.3,"[3,1,2]",0.199149558,stimuli/card_10_transparent.png,10,7,0,7,0,1,,,,,,,,,,
,,,,5d6920acf59886000119e73e,A,2024-05-21_22h48.11.954,Slot Machine Game,2023.1.3,Win32,59.88023952,,,,,,,,,,,,,,,,,,,,,,,,,,,520,,,,,,,,,,,,,,,,,,,,,2,5,,,359.6166,8,right,0.7363,,0.5,0.3,"[3,1,2]",0.535898884,stimuli/card_10_transparent.png,10,8,0,8,0,1,,,,,,,,,,
,,,,5d6920acf59886000119e73e,A,2024-05-21_22h48.11.954,Slot Machine Game,2023.1.3,Win32,59.88023952,,,,,,,,,,,,,,,,,,,,,,,,,,,530,,,,,,,,,,,,,,,,,,,,,2,5,,,361.6666,9,right,0.6218,,1.5,0.3,"[3,1,2]",0.85703786,stimuli/card_10_transparent.png,10,9,0,9,0,1,,,,,,,,,,
,,,,5d6920acf59886000119e73e,A,2024-05-21_22h48.11.954,Slot Machine Game,2023.1.3,Win32,59.88023952,,,,,,,,,,,,,,,,,,,,,,,,,,,630,,,,,,,,,,,,,,,,,,,,,2,5,,,364.6362,10,up,0.0225,,0.5,0.3,"[3,1,2]",0.880870356,stimuli/card_100_transparent.png,100,10,0,10,0,1,,,,,,,,,,
,,,,5d6920acf59886000119e73e,A,2024-05-21_22h48.11.954,Slot Machine Game,2023.1.3,Win32,59.88023952,,,,,,,,,,,,,,,,,,,,,,,,,,,730,,,,,,,,,,,,,,,,,,,,,2,5,,,365.9831,11,up,0.2718,,1,0.3,"[3,1,2]",0.937003783,stimuli/card_100_transparent.png,100,11,0,11,0,1,,,,,,,,,,
,,,,5d6920acf59886000119e73e,A,2024-05-21_22h48.11.954,Slot Machine Game,2023.1.3,Win32,59.88023952,,,,,,,,,,,,,,,,,,,,,,,,,,,740,,,,,,,,,,,,,,,,,,,,,2,5,,,368.0664,12,up,0.5106,,1.5,0.3,"[3,1,2]",0.118886367,stimuli/card_10_transparent.png,10,12,0,12,0,1,,,,,,,,,,
,,,,5d6920acf59886000119e73e,A,2024-05-21_22h48.11.954,Slot Machine Game,2023.1.3,Win32,59.88023952,,,,,,,,,,,,,,,,,,,,,,,,,,,840,,,,,,,,,,,,,,,,,,,,,2,5,,,370.8996,13,up,0.1903,,0.5,0.3,"[3,1,2]",0.247959524,stimuli/card_100_transparent.png,100,13,0,13,0,1,,,,,,,,,,
,,,,5d6920acf59886000119e73e,A,2024-05-21_22h48.11.954,Slot Machine Game,2023.1.3,Win32,59.88023952,,,,,,,,,,,,,,,,,,,,,,,,,,,940,,,,,,,,,,,,,,,,,,,,,2,5,,,372.3997,14,up,0.2244,,1.5,0.3,"[3,1,2]",0.552972475,stimuli/card_100_transparent.png,100,14,0,14,0,1,,,,,,,,,,
,,,,5d6920acf59886000119e73e,A,2024-05-21_22h48.11.954,Slot Machine Game,2023.1.3,Win32,59.88023952,,,,,,,,,,,,,,,,,,,,,,,,,,,,,,,,,,,374.9496,,,,,,,,,,,,,,,,,,,,,,,,,,,,,,,,,"[840,940]",1,0,1,0,1,,,,
,,,,5d6920acf59886000119e73e,A,2024-05-21_22h48.11.954,Slot Machine Game,2023.1.3,Win32,59.88023952,,,,,,,,,,,,,,,,,,,,,,,,,,,100,,,,,,,,,,,,,,,,,,,,,3,7,"[9,15]","[[1,3,2],[2,3,1]]",379.9535,0,left,0.4101,,0.5,0.3,"[1,3,2]",0.889882144,stimuli/card_100_transparent.png,100,0,0,0,0,1,,,,,,,,,,
,,,,5d6920acf59886000119e73e,A,2024-05-21_22h48.11.954,Slot Machine Game,2023.1.3,Win32,59.88023952,,,,,,,,,,,,,,,,,,,,,,,,,,,110,,,,,,,,,,,,,,,,,,,,,3,7,,,381.6995,1,left,0.4784,,1.5,0.3,"[1,3,2]",0.143666399,stimuli/card_10_transparent.png,10,1,0,1,0,1,,,,,,,,,,
,,,,5d6920acf59886000119e73e,A,2024-05-21_22h48.11.954,Slot Machine Game,2023.1.3,Win32,59.88023952,,,,,,,,,,,,,,,,,,,,,,,,,,,210,,,,,,,,,,,,,,,,,,,,,3,7,,,384.4994,2,left,0.2942,,1,0.3,"[1,3,2]",0.894873064,stimuli/card_100_transparent.png,100,2,0,2,0,1,,,,,,,,,,
,,,,5d6920acf59886000119e73e,A,2024-05-21_22h48.11.954,Slot Machine Game,2023.1.3,Win32,59.88023952,,,,,,,,,,,,,,,,,,,,,,,,,,,310,,,,,,,,,,,,,,,,,,,,,3,7,,,386.616,3,left,0.5377,,0.5,0.3,"[1,3,2]",0.749617436,stimuli/card_100_transparent.png,100,3,0,3,0,1,,,,,,,,,,
,,,,5d6920acf59886000119e73e,A,2024-05-21_22h48.11.954,Slot Machine Game,2023.1.3,Win32,59.88023952,,,,,,,,,,,,,,,,,,,,,,,,,,,310,,,,,,,,,,,,,,,,,,,,,3,7,,,388.4827,4,left,0.266,,1.5,0.3,"[1,3,2]",0.020301025,stimuli/card_0_transparent.png,0,4,0,4,0,1,,,,,,,,,,
,,,,5d6920acf59886000119e73e,A,2024-05-21_22h48.11.954,Slot Machine Game,2023.1.3,Win32,59.88023952,,,,,,,,,,,,,,,,,,,,,,,,,,,410,,,,,,,,,,,,,,,,,,,,,3,7,,,391.0826,5,left,0.6939,,1.5,0.3,"[1,3,2]",0.819017196,stimuli/card_100_transparent.png,100,5,0,5,0,1,,,,,,,,,,
,,,,5d6920acf59886000119e73e,A,2024-05-21_22h48.11.954,Slot Machine Game,2023.1.3,Win32,59.88023952,,,,,,,,,,,,,,,,,,,,,,,,,,,510,,,,,,,,,,,,,,,,,,,,,3,7,,,394.1158,6,left,0.1092,,1.5,0.3,"[1,3,2]",0.734508022,stimuli/card_100_transparent.png,100,6,0,6,0,1,,,,,,,,,,
,,,,5d6920acf59886000119e73e,A,2024-05-21_22h48.11.954,Slot Machine Game,2023.1.3,Win32,59.88023952,,,,,,,,,,,,,,,,,,,,,,,,,,,610,,,,,,,,,,,,,,,,,,,,,3,7,,,396.5492,7,left,0.0927,,1.5,0.3,"[1,3,2]",0.877742011,stimuli/card_100_transparent.png,100,7,0,7,0,1,,,,,,,,,,
,,,,5d6920acf59886000119e73e,A,2024-05-21_22h48.11.954,Slot Machine Game,2023.1.3,Win32,59.88023952,,,,,,,,,,,,,,,,,,,,,,,,,,,710,,,,,,,,,,,,,,,,,,,,,3,7,,,398.9657,8,left,0.46,,1,0.3,"[1,3,2]",0.32698371,stimuli/card_100_transparent.png,100,8,0,8,0,1,,,,,,,,,,
,,,,5d6920acf59886000119e73e,A,2024-05-21_22h48.11.954,Slot Machine Game,2023.1.3,Win32,59.88023952,,,,,,,,,,,,,,,,,,,,,,,,,,,720,,,,,,,,,,,,,,,,,,,,,3,7,,,401.249,9,left,0.3294,,0.5,0.3,"[2,3,1]",0.345451737,stimuli/card_10_transparent.png,10,9,0,9,0,1,,,,,,,,,,
,,,,5d6920acf59886000119e73e,A,2024-05-21_22h48.11.954,Slot Machine Game,2023.1.3,Win32,59.88023952,,,,,,,,,,,,,,,,,,,,,,,,,,,730,,,,,,,,,,,,,,,,,,,,,3,7,,,402.8823,10,left,1.3925,,1.5,0.3,"[2,3,1]",0.843496112,stimuli/card_10_transparent.png,10,10,0,10,0,1,,,,,,,,,,
,,,,5d6920acf59886000119e73e,A,2024-05-21_22h48.11.954,Slot Machine Game,2023.1.3,Win32,59.88023952,,,,,,,,,,,,,,,,,,,,,,,,,,,730,,,,,,,,,,,,,,,,,,,,,3,7,,,406.5822,11,up,0.5165,,0.5,0.3,"[2,3,1]",0.44531333,stimuli/card_0_transparent.png,0,11,0,11,0,1,,,,,,,,,,
,,,,5d6920acf59886000119e73e,A,2024-05-21_22h48.11.954,Slot Machine Game,2023.1.3,Win32,59.88023952,,,,,,,,,,,,,,,,,,,,,,,,,,,830,,,,,,,,,,,,,,,,,,,,,3,7,,,408.4155,12,right,0.507,,1.5,0.3,"[2,3,1]",0.462483396,stimuli/card_100_transparent.png,100,12,0,12,0,1,,,,,,,,,,
,,,,5d6920acf59886000119e73e,A,2024-05-21_22h48.11.954,Slot Machine Game,2023.1.3,Win32,59.88023952,,,,,,,,,,,,,,,,,,,,,,,,,,,840,,,,,,,,,,,,,,,,,,,,,3,7,,,411.2322,13,right,0.5934,,0.5,0.3,"[2,3,1]",0.15948835,stimuli/card_10_transparent.png,10,13,0,13,0,1,,,,,,,,,,
,,,,5d6920acf59886000119e73e,A,2024-05-21_22h48.11.954,Slot Machine Game,2023.1.3,Win32,59.88023952,,,,,,,,,,,,,,,,,,,,,,,,,,,940,,,,,,,,,,,,,,,,,,,,,3,7,,,413.1488,14,right,0.2932,,1,0.3,"[2,3,1]",0.95492868,stimuli/card_100_transparent.png,100,14,0,14,0,1,,,,,,,,,,
,,,,5d6920acf59886000119e73e,A,2024-05-21_22h48.11.954,Slot Machine Game,2023.1.3,Win32,59.88023952,,,,,,,,,,,,,,,,,,,,,,,,,,,,,,,,,,,415.2655,,,,,,,,,,,,,,,,,,,,,,,,,,,,,,,,,"[840,940,940]",2,0,2,0,1,,,,
,,,,5d6920acf59886000119e73e,A,2024-05-21_22h48.11.954,Slot Machine Game,2023.1.3,Win32,59.88023952,,,,,,,,,,,,,,,,,,,,,,,,,,,10,,,,,,,,,,,,,,,,,,,,,4,4,"[7,15]","[[2,3,1],[1,2,3]]",420.2695,0,left,0.3046,,0.5,0.3,"[2,3,1]",0.251836126,stimuli/card_10_transparent.png,10,0,0,0,0,1,,,,,,,,,,
,,,,5d6920acf59886000119e73e,A,2024-05-21_22h48.11.954,Slot Machine Game,2023.1.3,Win32,59.88023952,,,,,,,,,,,,,,,,,,,,,,,,,,,10,,,,,,,,,,,,,,,,,,,,,4,4,,,421.8986,1,up,1.2655,,1.5,0.3,"[2,3,1]",0.207763742,stimuli/card_0_transparent.png,0,1,0,1,0,1,,,,,,,,,,
,,,,5d6920acf59886000119e73e,A,2024-05-21_22h48.11.954,Slot Machine Game,2023.1.3,Win32,59.88023952,,,,,,,,,,,,,,,,,,,,,,,,,,,110,,,,,,,,,,,,,,,,,,,,,4,4,,,425.4819,2,right,0.4588,,1,0.3,"[2,3,1]",0.493026028,stimuli/card_100_transparent.png,100,2,0,2,0,1,,,,,,,,,,
,,,,5d6920acf59886000119e73e,A,2024-05-21_22h48.11.954,Slot Machine Game,2023.1.3,Win32,59.88023952,,,,,,,,,,,,,,,,,,,,,,,,,,,120,,,,,,,,,,,,,,,,,,,,,4,4,,,427.7485,3,right,0.0511,,1.5,0.3,"[2,3,1]",0.121855822,stimuli/card_10_transparent.png,10,3,0,3,0,1,,,,,,,,,,
,,,,5d6920acf59886000119e73e,A,2024-05-21_22h48.11.954,Slot Machine Game,2023.1.3,Win32,59.88023952,,,,,,,,,,,,,,,,,,,,,,,,,,,130,,,,,,,,,,,,,,,,,,,,,4,4,,,430.1318,4,right,1.7644,,1,0.3,"[2,3,1]",0.129487718,stimuli/card_10_transparent.png,10,4,0,4,0,1,,,,,,,,,,
,,,,5d6920acf59886000119e73e,A,2024-05-21_22h48.11.954,Slot Machine Game,2023.1.3,Win32,59.88023952,,,,,,,,,,,,,,,,,,,,,,,,,,,140,,,,,,,,,,,,,,,,,,,,,4,4,,,433.715,5,right,0.4069,,1.5,0.3,"[2,3,1]",0.166298023,stimuli/card_10_transparent.png,10,5,0,5,0,1,,,,,,,,,,
,,,,5d6920acf59886000119e73e,A,2024-05-21_22h48.11.954,Slot Machine Game,2023.1.3,Win32,59.88023952,,,,,,,,,,,,,,,,,,,,,,,,,,,150,,,,,,,,,,,,,,,,,,,,,4,4,,,436.4484,6,left,0.01,,1.5,0.3,"[2,3,1]",0.612578211,stimuli/card_10_transparent.png,10,6,0,6,0,1,,,,,,,,,,
,,,,5d6920acf59886000119e73e,A,2024-05-21_22h48.11.954,Slot Machine Game,2023.1.3,Win32,59.88023952,,,,,,,,,,,,,,,,,,,,,,,,,,,250,,,,,,,,,,,,,,,,,,,,,4,4,,,438.7815,7,left,0.9152,,1,0.3,"[1,2,3]",0.38065116,stimuli/card_100_transparent.png,100,7,0,7,0,1,,,,,,,,,,
,,,,5d6920acf59886000119e73e,A,2024-05-21_22h48.11.954,Slot Machine Game,2023.1.3,Win32,59.88023952,,,,,,,,,,,,,,,,,,,,,,,,,,,350,,,,,,,,,,,,,,,,,,,,,4,4,,,441.5149,8,left,0.3355,,1.5,0.3,"[1,2,3]",0.584136638,stimuli/card_100_transparent.png,100,8,0,8,0,1,,,,,,,,,,
,,,,5d6920acf59886000119e73e,A,2024-05-21_22h48.11.954,Slot Machine Game,2023.1.3,Win32,59.88023952,,,,,,,,,,,,,,,,,,,,,,,,,,,450,,,,,,,,,,,,,,,,,,,,,4,4,,,444.1815,9,left,0.1089,,1.5,0.3,"[1,2,3]",0.715477812,stimuli/card_100_transparent.png,100,9,0,9,0,1,,,,,,,,,,
,,,,5d6920acf59886000119e73e,A,2024-05-21_22h48.11.954,Slot Machine Game,2023.1.3,Win32,59.88023952,,,,,,,,,,,,,,,,,,,,,,,,,,,550,,,,,,,,,,,,,,,,,,,,,4,4,,,446.5981,10,left,0.0925,,0.5,0.3,"[1,2,3]",0.262895325,stimuli/card_100_transparent.png,100,10,0,10,0,1,,,,,,,,,,
,,,,5d6920acf59886000119e73e,A,2024-05-21_22h48.11.954,Slot Machine Game,2023.1.3,Win32,59.88023952,,,,,,,,,,,,,,,,,,,,,,,,,,,550,,,,,,,,,,,,,,,,,,,,,4,4,,,448.0148,11,left,0.1079,,1,0.3,"[1,2,3]",0.019750496,stimuli/card_0_transparent.png,0,11,0,11,0,1,,,,,,,,,,
,,,,5d6920acf59886000119e73e,A,2024-05-21_22h48.11.954,Slot Machine Game,2023.1.3,Win32,59.88023952,,,,,,,,,,,,,,,,,,,,,,,,,,,650,,,,,,,,,,,,,,,,,,,,,4,4,,,449.948,12,left,2.0538,,1,0.3,"[1,2,3]",0.215923241,stimuli/card_100_transparent.png,100,12,0,12,0,1,,,,,,,,,,
,,,,5d6920acf59886000119e73e,A,2024-05-21_22h48.11.954,Slot Machine Game,2023.1.3,Win32,59.88023952,,,,,,,,,,,,,,,,,,,,,,,,,,,750,,,,,,,,,,,,,,,,,,,,,4,4,,,453.8146,13,left,0.6761,,1,0.3,"[1,2,3]",0.622166847,stimuli/card_100_transparent.png,100,13,0,13,0,1,,,,,,,,,,
,,,,5d6920acf59886000119e73e,A,2024-05-21_22h48.11.954,Slot Machine Game,2023.1.3,Win32,59.88023952,,,,,,,,,,,,,,,,,,,,,,,,,,,850,,,,,,,,,,,,,,,,,,,,,4,4,,,456.3145,14,left,0.0499,,0.5,0.3,"[1,2,3]",0.446485494,stimuli/card_100_transparent.png,100,14,0,14,0,1,,,,,,,,,,
,,,,5d6920acf59886000119e73e,A,2024-05-21_22h48.11.954,Slot Machine Game,2023.1.3,Win32,59.88023952,,,,,,,,,,,,,,,,,,,,,,,,,,,,,,,,,,,457.6979,,,,,,,,,,,,,,,,,,,,,,,,,,,,,,,,,"[840,940,940,850]",3,0,3,0,1,,,,
,,,,5d6920acf59886000119e73e,A,2024-05-21_22h48.11.954,Slot Machine Game,2023.1.3,Win32,59.88023952,,,,,,,,,,,,,,,,,,,,,,,,,,,10,,,,,,,,,,,,,,,,,,,,,5,6,"[4,10,15]","[[2,3,1],[1,3,2],[3,2,1]]",462.7019,0,left,0.2584,,1.5,0.3,"[2,3,1]",0.599422602,stimuli/card_10_transparent.png,10,0,0,0,0,1,,,,,,,,,,
,,,,5d6920acf59886000119e73e,A,2024-05-21_22h48.11.954,Slot Machine Game,2023.1.3,Win32,59.88023952,,,,,,,,,,,,,,,,,,,,,,,,,,,10,,,,,,,,,,,,,,,,,,,,,5,6,,,465.2977,1,up,0.8163,,1.5,0.3,"[2,3,1]",0.990142778,stimuli/card_0_transparent.png,0,1,0,1,0,1,,,,,,,,,,
,,,,5d6920acf59886000119e73e,A,2024-05-21_22h48.11.954,Slot Machine Game,2023.1.3,Win32,59.88023952,,,,,,,,,,,,,,,,,,,,,,,,,,,110,,,,,,,,,,,,,,,,,,,,,5,6,,,468.4643,2,right,0.1166,,1.5,0.3,"[2,3,1]",0.822366448,stimuli/card_100_transparent.png,100,2,0,2,0,1,,,,,,,,,,
,,,,5d6920acf59886000119e73e,A,2024-05-21_22h48.11.954,Slot Machine Game,2023.1.3,Win32,59.88023952,,,,,,,,,,,,,,,,,,,,,,,,,,,210,,,,,,,,,,,,,,,,,,,,,5,6,,,470.8976,3,right,0.1002,,1,0.3,"[2,3,1]",0.90719506,stimuli/card_100_transparent.png,100,3,0,3,0,1,,,,,,,,,,
,,,,5d6920acf59886000119e73e,A,2024-05-21_22h48.11.954,Slot Machine Game,2023.1.3,Win32,59.88023952,,,,,,,,,,,,,,,,,,,,,,,,,,,220,,,,,,,,,,,,,,,,,,,,,5,6,,,472.8309,4,right,0.3878,,0.5,0.3,"[1,3,2]",0.540046391,stimuli/card_10_transparent.png,10,4,0,4,0,1,,,,,,,,,,
,,,,5d6920acf59886000119e73e,A,2024-05-21_22h48.11.954,Slot Machine Game,2023.1.3,Win32,59.88023952,,,,,,,,,,,,,,,,,,,,,,,,,,,230,,,,,,,,,,,,,,,,,,,,,5,6,,,474.5508,5,right,0.1028,,1.5,0.3,"[1,3,2]",0.976393284,stimuli/card_10_transparent.png,10,5,0,5,0,1,,,,,,,,,,
,,,,5d6920acf59886000119e73e,A,2024-05-21_22h48.11.954,Slot Machine Game,2023.1.3,Win32,59.88023952,,,,,,,,,,,,,,,,,,,,,,,,,,,240,,,,,,,,,,,,,,,,,,,,,5,6,,,476.9974,6,right,0.6001,,0.5,0.3,"[1,3,2]",0.340530456,stimuli/card_10_transparent.png,10,6,0,6,0,1,,,,,,,,,,
,,,,5d6920acf59886000119e73e,A,2024-05-21_22h48.11.954,Slot Machine Game,2023.1.3,Win32,59.88023952,,,,,,,,,,,,,,,,,,,,,,,,,,,240,,,,,,,,,,,,,,,,,,,,,5,6,,,478.9307,7,left,0.2486,,0.5,0.3,"[1,3,2]",0.006631789,stimuli/card_0_transparent.png,0,7,0,7,0,1,,,,,,,,,,
,,,,5d6920acf59886000119e73e,A,2024-05-21_22h48.11.954,Slot Machine Game,2023.1.3,Win32,59.88023952,,,,,,,,,,,,,,,,,,,,,,,,,,,240,,,,,,,,,,,,,,,,,,,,,5,6,,,480.4974,8,up,0.161,,1,0.3,"[1,3,2]",0.954679655,stimuli/card_0_transparent.png,0,8,0,8,0,1,,,,,,,,,,
,,,,5d6920acf59886000119e73e,A,2024-05-21_22h48.11.954,Slot Machine Game,2023.1.3,Win32,59.88023952,,,,,,,,,,,,,,,,,,,,,,,,,,,340,,,,,,,,,,,,,,,,,,,,,5,6,,,482.4973,9,left,0.0353,,0.5,0.3,"[1,3,2]",0.662013093,stimuli/card_100_transparent.png,100,9,0,9,0,1,,,,,,,,,,
,,,,5d6920acf59886000119e73e,A,2024-05-21_22h48.11.954,Slot Machine Game,2023.1.3,Win32,59.88023952,,,,,,,,,,,,,,,,,,,,,,,,,,,340,,,,,,,,,,,,,,,,,,,,,5,6,,,483.8473,10,left,0.3169,,0.5,0.3,"[3,2,1]",0.60306836,stimuli/card_0_transparent.png,0,10,0,10,0,1,,,,,,,,,,
,,,,5d6920acf59886000119e73e,A,2024-05-21_22h48.11.954,Slot Machine Game,2023.1.3,Win32,59.88023952,,,,,,,,,,,,,,,,,,,,,,,,,,,340,,,,,,,,,,,,,,,,,,,,,5,6,,,485.5139,11,left,0.2822,,0.5,0.3,"[3,2,1]",0.567594325,stimuli/card_0_transparent.png,0,11,0,11,0,1,,,,,,,,,,
,,,,5d6920acf59886000119e73e,A,2024-05-21_22h48.11.954,Slot Machine Game,2023.1.3,Win32,59.88023952,,,,,,,,,,,,,,,,,,,,,,,,,,,340,,,,,,,,,,,,,,,,,,,,,5,6,,,487.1306,12,right,0.4405,,1.5,0.3,"[3,2,1]",0.030156769,stimuli/card_0_transparent.png,0,12,0,12,0,1,,,,,,,,,,
,,,,5d6920acf59886000119e73e,A,2024-05-21_22h48.11.954,Slot Machine Game,2023.1.3,Win32,59.88023952,,,,,,,,,,,,,,,,,,,,,,,,,,,350,,,,,,,,,,,,,,,,,,,,,5,6,,,489.8971,13,up,0.2669,,1.5,0.3,"[3,2,1]",0.421336841,stimuli/card_10_transparent.png,10,13,0,13,0,1,,,,,,,,,,
,,,,5d6920acf59886000119e73e,A,2024-05-21_22h48.11.954,Slot Machine Game,2023.1.3,Win32,59.88023952,,,,,,,,,,,,,,,,,,,,,,,,,,,360,,,,,,,,,,,,,,,,,,,,,5,6,,,492.4804,14,up,0.923,,1,0.3,"[3,2,1]",0.79598429,stimuli/card_10_transparent.png,10,14,0,14,0,1,,,,,,,,,,
,,,,5d6920acf59886000119e73e,A,2024-05-21_22h48.11.954,Slot Machine Game,2023.1.3,Win32,59.88023952,,,,,,,,,,,,,,,,,,,,,,,,,,,,,,,,,,,495.2304,,,,,,,,,,,,,,,,,,,,,,,,,,,,,,,,,"[840,940,940,850,360]",4,0,4,0,1,,,,
,,,,5d6920acf59886000119e73e,A,2024-05-21_22h48.11.954,Slot Machine Game,2023.1.3,Win32,59.88023952,,,,,,,,,,,,,,,,,,,,,,,,,,,100,,,,,,,,,,,,,,,,,,,,,6,8,"[11,15]","[[2,1,3],[1,2,3]]",500.2342,0,left,0.621,,1.5,0.3,"[2,1,3]",0.176877868,stimuli/card_100_transparent.png,100,0,0,0,0,1,,,,,,,,,,
,,,,5d6920acf59886000119e73e,A,2024-05-21_22h48.11.954,Slot Machine Game,2023.1.3,Win32,59.88023952,,,,,,,,,,,,,,,,,,,,,,,,,,,110,,,,,,,,,,,,,,,,,,,,,6,8,,,503.1802,1,left,0.3273,,1.5,0.3,"[2,1,3]",0.599021203,stimuli/card_10_transparent.png,10,1,0,1,0,1,,,,,,,,,,
,,,,5d6920acf59886000119e73e,A,2024-05-21_22h48.11.954,Slot Machine Game,2023.1.3,Win32,59.88023952,,,,,,,,,,,,,,,,,,,,,,,,,,,120,,,,,,,,,,,,,,,,,,,,,6,8,,,505.8334,2,left,0.3093,,1.5,0.3,"[2,1,3]",0.473287834,stimuli/card_10_transparent.png,10,2,0,2,0,1,,,,,,,,,,
,,,,5d6920acf59886000119e73e,A,2024-05-21_22h48.11.954,Slot Machine Game,2023.1.3,Win32,59.88023952,,,,,,,,,,,,,,,,,,,,,,,,,,,120,,,,,,,,,,,,,,,,,,,,,6,8,,,508.4635,3,left,0.9233,,1,0.3,"[2,1,3]",0.061253536,stimuli/card_0_transparent.png,0,3,0,3,0,1,,,,,,,,,,
,,,,5d6920acf59886000119e73e,A,2024-05-21_22h48.11.954,Slot Machine Game,2023.1.3,Win32,59.88023952,,,,,,,,,,,,,,,,,,,,,,,,,,,220,,,,,,,,,,,,,,,,,,,,,6,8,,,511.2134,4,up,0.1702,,1,0.3,"[2,1,3]",0.278892032,stimuli/card_100_transparent.png,100,4,0,4,0,1,,,,,,,,,,
,,,,5d6920acf59886000119e73e,A,2024-05-21_22h48.11.954,Slot Machine Game,2023.1.3,Win32,59.88023952,,,,,,,,,,,,,,,,,,,,,,,,,,,320,,,,,,,,,,,,,,,,,,,,,6,8,,,513.2133,5,up,0.2405,,1.5,0.3,"[2,1,3]",0.260696014,stimuli/card_100_transparent.png,100,5,0,5,0,1,,,,,,,,,,
,,,,5d6920acf59886000119e73e,A,2024-05-21_22h48.11.954,Slot Machine Game,2023.1.3,Win32,59.88023952,,,,,,,,,,,,,,,,,,,,,,,,,,,420,,,,,,,,,,,,,,,,,,,,,6,8,,,515.7799,6,up,0.5285,,1.5,0.3,"[2,1,3]",0.359877581,stimuli/card_100_transparent.png,100,6,0,6,0,1,,,,,,,,,,
,,,,5d6920acf59886000119e73e,A,2024-05-21_22h48.11.954,Slot Machine Game,2023.1.3,Win32,59.88023952,,,,,,,,,,,,,,,,,,,,,,,,,,,520,,,,,,,,,,,,,,,,,,,,,6,8,,,518.6132,7,up,0.3104,,1.5,0.3,"[2,1,3]",0.609081874,stimuli/card_100_transparent.png,100,7,0,7,0,1,,,,,,,,,,
,,,,5d6920acf59886000119e73e,A,2024-05-21_22h48.11.954,Slot Machine Game,2023.1.3,Win32,59.88023952,,,,,,,,,,,,,,,,,,,,,,,,,,,520,,,,,,,,,,,,,,,,,,,,,6,8,,,521.2465,8,up,1.174,,0.5,0.3,"[2,1,3]",0.09551391,stimuli/card_0_transparent.png,0,8,0,8,0,1,,,,,,,,,,
,,,,5d6920acf59886000119e73e,A,2024-05-21_22h48.11.954,Slot Machine Game,2023.1.3,Win32,59.88023952,,,,,,,,,,,,,,,,,,,,,,,,,,,620,,,,,,,,,,,,,,,,,,,,,6,8,,,523.7297,9,up,0.4905,,0.5,0.3,"[2,1,3]",0.825358505,stimuli/card_100_transparent.png,100,9,0,9,0,1,,,,,,,,,,
,,,,5d6920acf59886000119e73e,A,2024-05-21_22h48.11.954,Slot Machine Game,2023.1.3,Win32,59.88023952,,,,,,,,,,,,,,,,,,,,,,,,,,,720,,,,,,,,,,,,,,,,,,,,,6,8,,,525.5298,10,up,1.8997,,0.5,0.3,"[2,1,3]",0.739544791,stimuli/card_100_transparent.png,100,10,0,10,0,1,,,,,,,,,,
,,,,5d6920acf59886000119e73e,A,2024-05-21_22h48.11.954,Slot Machine Game,2023.1.3,Win32,59.88023952,,,,,,,,,,,,,,,,,,,,,,,,,,,730,,,,,,,,,,,,,,,,,,,,,6,8,,,528.763,11,up,1.2008,,0.5,0.3,"[1,2,3]",0.272910112,stimuli/card_10_transparent.png,10,11,0,11,0,1,,,,,,,,,,
,,,,5d6920acf59886000119e73e,A,2024-05-21_22h48.11.954,Slot Machine Game,2023.1.3,Win32,59.88023952,,,,,,,,,,,,,,,,,,,,,,,,,,,740,,,,,,,,,,,,,,,,,,,,,6,8,,,531.2962,12,up,1.0374,,1.5,0.3,"[1,2,3]",0.253901231,stimuli/card_10_transparent.png,10,12,0,12,0,1,,,,,,,,,,
,,,,5d6920acf59886000119e73e,A,2024-05-21_22h48.11.954,Slot Machine Game,2023.1.3,Win32,59.88023952,,,,,,,,,,,,,,,,,,,,,,,,,,,740,,,,,,,,,,,,,,,,,,,,,6,8,,,534.6629,13,right,0.0443,,1,0.3,"[1,2,3]",0.703050417,stimuli/card_0_transparent.png,0,13,0,13,0,1,,,,,,,,,,
,,,,5d6920acf59886000119e73e,A,2024-05-21_22h48.11.954,Slot Machine Game,2023.1.3,Win32,59.88023952,,,,,,,,,,,,,,,,,,,,,,,,,,,840,,,,,,,,,,,,,,,,,,,,,6,8,,,536.5461,14,left,0.2502,,0.5,0.3,"[1,2,3]",0.471723077,stimuli/card_100_transparent.png,100,14,0,14,0,1,,,,,,,,,,
,,,,5d6920acf59886000119e73e,A,2024-05-21_22h48.11.954,Slot Machine Game,2023.1.3,Win32,59.88023952,,,,,,,,,,,,,,,,,,,,,,,,,,,,,,,,,,,538.1128,,,,,,,,,,,,,,,,,,,,,,,,,,,,,,,,,"[840,940,940,850,360,840]",5,0,5,0,1,,,,
,,,,5d6920acf59886000119e73e,A,2024-05-21_22h48.11.954,Slot Machine Game,2023.1.3,Win32,59.88023952,,,,,,,,,,,,,,,,,,,,,,,,,,,0,,,,,,,,,,,,,,,,,,,,,7,9,"[8,15]","[[3,2,1],[3,1,2]]",543.1166,0,left,0.3833,,1,0.3,"[3,2,1]",0.556434222,stimuli/card_0_transparent.png,0,0,0,0,0,1,,,,,,,,,,
,,,,5d6920acf59886000119e73e,A,2024-05-21_22h48.11.954,Slot Machine Game,2023.1.3,Win32,59.88023952,,,,,,,,,,,,,,,,,,,,,,,,,,,10,,,,,,,,,,,,,,,,,,,,,7,9,,,545.3127,1,up,0.0359,,1,0.3,"[3,2,1]",0.864651923,stimuli/card_10_transparent.png,10,1,0,1,0,1,,,,,,,,,,
,,,,5d6920acf59886000119e73e,A,2024-05-21_22h48.11.954,Slot Machine Game,2023.1.3,Win32,59.88023952,,,,,,,,,,,,,,,,,,,,,,,,,,,110,,,,,,,,,,,,,,,,,,,,,7,9,,,547.1959,2,right,0.2408,,1.5,0.3,"[3,2,1]",0.216832047,stimuli/card_100_transparent.png,100,2,0,2,0,1,,,,,,,,,,
,,,,5d6920acf59886000119e73e,A,2024-05-21_22h48.11.954,Slot Machine Game,2023.1.3,Win32,59.88023952,,,,,,,,,,,,,,,,,,,,,,,,,,,210,,,,,,,,,,,,,,,,,,,,,7,9,,,549.7459,3,right,0.09,,1.5,0.3,"[3,2,1]",0.446555935,stimuli/card_100_transparent.png,100,3,0,3,0,1,,,,,,,,,,
,,,,5d6920acf59886000119e73e,A,2024-05-21_22h48.11.954,Slot Machine Game,2023.1.3,Win32,59.88023952,,,,,,,,,,,,,,,,,,,,,,,,,,,310,,,,,,,,,,,,,,,,,,,,,7,9,,,552.1625,4,right,0.6013,,1.5,0.3,"[3,2,1]",0.904215357,stimuli/card_100_transparent.png,100,4,0,4,0,1,,,,,,,,,,
,,,,5d6920acf59886000119e73e,A,2024-05-21_22h48.11.954,Slot Machine Game,2023.1.3,Win32,59.88023952,,,,,,,,,,,,,,,,,,,,,,,,,,,410,,,,,,,,,,,,,,,,,,,,,7,9,,,555.0958,5,right,0.1882,,0.5,0.3,"[3,2,1]",0.601454652,stimuli/card_100_transparent.png,100,5,0,5,0,1,,,,,,,,,,
,,,,5d6920acf59886000119e73e,A,2024-05-21_22h48.11.954,Slot Machine Game,2023.1.3,Win32,59.88023952,,,,,,,,,,,,,,,,,,,,,,,,,,,510,,,,,,,,,,,,,,,,,,,,,7,9,,,556.6291,6,right,0.1836,,1,0.3,"[3,2,1]",0.481275863,stimuli/card_100_transparent.png,100,6,0,6,0,1,,,,,,,,,,
,,,,5d6920acf59886000119e73e,A,2024-05-21_22h48.11.954,Slot Machine Game,2023.1.3,Win32,59.88023952,,,,,,,,,,,,,,,,,,,,,,,,,,,610,,,,,,,,,,,,,,,,,,,,,7,9,,,558.6457,7,right,0.542,,1,0.3,"[3,2,1]",0.234824541,stimuli/card_100_transparent.png,100,7,0,7,0,1,,,,,,,,,,
,,,,5d6920acf59886000119e73e,A,2024-05-21_22h48.11.954,Slot Machine Game,2023.1.3,Win32,59.88023952,,,,,,,,,,,,,,,,,,,,,,,,,,,610,,,,,,,,,,,,,,,,,,,,,7,9,,,561.029,8,right,0.2833,,1.5,0.3,"[3,1,2]",0.003010602,stimuli/card_0_transparent.png,0,8,0,8,0,1,,,,,,,,,,
,,,,5d6920acf59886000119e73e,A,2024-05-21_22h48.11.954,Slot Machine Game,2023.1.3,Win32,59.88023952,,,,,,,,,,,,,,,,,,,,,,,,,,,610,,,,,,,,,,,,,,,,,,,,,7,9,,,563.6289,9,left,0.0953,,1.5,0.3,"[3,1,2]",0.586371119,stimuli/card_0_transparent.png,0,9,0,9,0,1,,,,,,,,,,
,,,,5d6920acf59886000119e73e,A,2024-05-21_22h48.11.954,Slot Machine Game,2023.1.3,Win32,59.88023952,,,,,,,,,,,,,,,,,,,,,,,,,,,710,,,,,,,,,,,,,,,,,,,,,7,9,,,566.0456,10,up,0.8387,,1.5,0.3,"[3,1,2]",0.499851824,stimuli/card_100_transparent.png,100,10,0,10,0,1,,,,,,,,,,
,,,,5d6920acf59886000119e73e,A,2024-05-21_22h48.11.954,Slot Machine Game,2023.1.3,Win32,59.88023952,,,,,,,,,,,,,,,,,,,,,,,,,,,810,,,,,,,,,,,,,,,,,,,,,7,9,,,569.2122,11,up,0.104,,1,0.3,"[3,1,2]",0.687346424,stimuli/card_100_transparent.png,100,11,0,11,0,1,,,,,,,,,,
,,,,5d6920acf59886000119e73e,A,2024-05-21_22h48.11.954,Slot Machine Game,2023.1.3,Win32,59.88023952,,,,,,,,,,,,,,,,,,,,,,,,,,,820,,,,,,,,,,,,,,,,,,,,,7,9,,,571.1455,12,up,0.2251,,0.5,0.3,"[3,1,2]",0.118237465,stimuli/card_10_transparent.png,10,12,0,12,0,1,,,,,,,,,,
,,,,5d6920acf59886000119e73e,A,2024-05-21_22h48.11.954,Slot Machine Game,2023.1.3,Win32,59.88023952,,,,,,,,,,,,,,,,,,,,,,,,,,,820,,,,,,,,,,,,,,,,,,,,,7,9,,,572.7121,13,up,0.1498,,1.5,0.3,"[3,1,2]",0.002795786,stimuli/card_0_transparent.png,0,13,0,13,0,1,,,,,,,,,,
,,,,5d6920acf59886000119e73e,A,2024-05-21_22h48.11.954,Slot Machine Game,2023.1.3,Win32,59.88023952,,,,,,,,,,,,,,,,,,,,,,,,,,,920,,,,,,,,,,,,,,,,,,,,,7,9,,,575.2012,14,up,0.5528,,1.5,0.3,"[3,1,2]",0.290542926,stimuli/card_100_transparent.png,100,14,0,14,0,1,,,,,,,,,,
,,,,5d6920acf59886000119e73e,A,2024-05-21_22h48.11.954,Slot Machine Game,2023.1.3,Win32,59.88023952,,,,,,,,,,,,,,,,,,,,,,,,,,,,,,,,,,,578.0954,,,,,,,,,,,,,,,,,,,,,,,,,,,,,,,,,"[840,940,940,850,360,840,920]",6,0,6,0,1,,,,
,,,,5d6920acf59886000119e73e,A,2024-05-21_22h48.11.954,Slot Machine Game,2023.1.3,Win32,59.88023952,,,,,,,,,,,,,,,,,,,,,,,,,,,100,,,,,,,,,,,,,,,,,,,,,8,2,"[6,15]","[[1,3,2],[3,2,1]]",583.0991,0,left,1.3304,,1,0.3,"[1,3,2]",0.342896525,stimuli/card_100_transparent.png,100,0,0,0,0,1,,,,,,,,,,
,,,,5d6920acf59886000119e73e,A,2024-05-21_22h48.11.954,Slot Machine Game,2023.1.3,Win32,59.88023952,,,,,,,,,,,,,,,,,,,,,,,,,,,110,,,,,,,,,,,,,,,,,,,,,8,2,,,586.2451,1,left,0.2515,,0.5,0.3,"[1,3,2]",0.115184339,stimuli/card_10_transparent.png,10,1,0,1,0,1,,,,,,,,,,
,,,,5d6920acf59886000119e73e,A,2024-05-21_22h48.11.954,Slot Machine Game,2023.1.3,Win32,59.88023952,,,,,,,,,,,,,,,,,,,,,,,,,,,210,,,,,,,,,,,,,,,,,,,,,8,2,,,587.8285,2,left,0.5197,,1,0.3,"[1,3,2]",0.215823467,stimuli/card_100_transparent.png,100,2,0,2,0,1,,,,,,,,,,
,,,,5d6920acf59886000119e73e,A,2024-05-21_22h48.11.954,Slot Machine Game,2023.1.3,Win32,59.88023952,,,,,,,,,,,,,,,,,,,,,,,,,,,310,,,,,,,,,,,,,,,,,,,,,8,2,,,590.1784,3,left,0.2586,,0.5,0.3,"[1,3,2]",0.279139809,stimuli/card_100_transparent.png,100,3,0,3,0,1,,,,,,,,,,
,,,,5d6920acf59886000119e73e,A,2024-05-21_22h48.11.954,Slot Machine Game,2023.1.3,Win32,59.88023952,,,,,,,,,,,,,,,,,,,,,,,,,,,410,,,,,,,,,,,,,,,,,,,,,8,2,,,591.7617,4,left,0.2672,,0.5,0.3,"[1,3,2]",0.265539905,stimuli/card_100_transparent.png,100,4,0,4,0,1,,,,,,,,,,
,,,,5d6920acf59886000119e73e,A,2024-05-21_22h48.11.954,Slot Machine Game,2023.1.3,Win32,59.88023952,,,,,,,,,,,,,,,,,,,,,,,,,,,510,,,,,,,,,,,,,,,,,,,,,8,2,,,593.3616,5,left,0.1954,,0.5,0.3,"[1,3,2]",0.948026891,stimuli/card_100_transparent.png,100,5,0,5,0,1,,,,,,,,,,
,,,,5d6920acf59886000119e73e,A,2024-05-21_22h48.11.954,Slot Machine Game,2023.1.3,Win32,59.88023952,,,,,,,,,,,,,,,,,,,,,,,,,,,510,,,,,,,,,,,,,,,,,,,,,8,2,,,594.8782,6,left,0.1269,,1,0.3,"[3,2,1]",0.308212548,stimuli/card_0_transparent.png,0,6,0,6,0,1,,,,,,,,,,
,,,,5d6920acf59886000119e73e,A,2024-05-21_22h48.11.954,Slot Machine Game,2023.1.3,Win32,59.88023952,,,,,,,,,,,,,,,,,,,,,,,,,,,510,,,,,,,,,,,,,,,,,,,,,8,2,,,596.8115,7,left,0.1051,,1,0.3,"[3,2,1]",0.727451274,stimuli/card_0_transparent.png,0,7,0,7,0,1,,,,,,,,,,
,,,,5d6920acf59886000119e73e,A,2024-05-21_22h48.11.954,Slot Machine Game,2023.1.3,Win32,59.88023952,,,,,,,,,,,,,,,,,,,,,,,,,,,520,,,,,,,,,,,,,,,,,,,,,8,2,,,598.7281,8,up,0.5084,,1.5,0.3,"[3,2,1]",0.754171076,stimuli/card_10_transparent.png,10,8,0,8,0,1,,,,,,,,,,
,,,,5d6920acf59886000119e73e,A,2024-05-21_22h48.11.954,Slot Machine Game,2023.1.3,Win32,59.88023952,,,,,,,,,,,,,,,,,,,,,,,,,,,620,,,,,,,,,,,,,,,,,,,,,8,2,,,601.5448,9,right,0.5332,,1.5,0.3,"[3,2,1]",0.804848759,stimuli/card_100_transparent.png,100,9,0,9,0,1,,,,,,,,,,
,,,,5d6920acf59886000119e73e,A,2024-05-21_22h48.11.954,Slot Machine Game,2023.1.3,Win32,59.88023952,,,,,,,,,,,,,,,,,,,,,,,,,,,720,,,,,,,,,,,,,,,,,,,,,8,2,,,604.4114,10,right,0.0576,,1,0.3,"[3,2,1]",0.380822991,stimuli/card_100_transparent.png,100,10,0,10,0,1,,,,,,,,,,
,,,,5d6920acf59886000119e73e,A,2024-05-21_22h48.11.954,Slot Machine Game,2023.1.3,Win32,59.88023952,,,,,,,,,,,,,,,,,,,,,,,,,,,820,,,,,,,,,,,,,,,,,,,,,8,2,,,606.2947,11,right,0.1906,,1,0.3,"[3,2,1]",0.289080653,stimuli/card_100_transparent.png,100,11,0,11,0,1,,,,,,,,,,
,,,,5d6920acf59886000119e73e,A,2024-05-21_22h48.11.954,Slot Machine Game,2023.1.3,Win32,59.88023952,,,,,,,,,,,,,,,,,,,,,,,,,,,920,,,,,,,,,,,,,,,,,,,,,8,2,,,608.3113,12,right,0.2067,,0.5,0.3,"[3,2,1]",0.506312484,stimuli/card_100_transparent.png,100,12,0,12,0,1,,,,,,,,,,
,,,,5d6920acf59886000119e73e,A,2024-05-21_22h48.11.954,Slot Machine Game,2023.1.3,Win32,59.88023952,,,,,,,,,,,,,,,,,,,,,,,,,,,1020,,,,,,,,,,,,,,,,,,,,,8,2,,,609.8279,13,right,0.2337,,1,0.3,"[3,2,1]",0.760694956,stimuli/card_100_transparent.png,100,13,0,13,0,1,,,,,,,,,,
,,,,5d6920acf59886000119e73e,A,2024-05-21_22h48.11.954,Slot Machine Game,2023.1.3,Win32,59.88023952,,,,,,,,,,,,,,,,,,,,,,,,,,,1120,,,,,,,,,,,,,,,,,,,,,8,2,,,611.878,14,right,0.2503,,1,0.3,"[3,2,1]",0.515752463,stimuli/card_100_transparent.png,100,14,0,14,0,1,,,,,,,,,,
,,,,5d6920acf59886000119e73e,A,2024-05-21_22h48.11.954,Slot Machine Game,2023.1.3,Win32,59.88023952,,,,,,,,,,,,,,,,,,,,,,,,,,,,,,,,,,,613.9613,,,,,,,,,,,,,,,,,,,,,,,,,,,,,,,,,"[840,940,940,850,360,840,920,1120]",7,0,7,0,1,,,,
,,,,5d6920acf59886000119e73e,A,2024-05-21_22h48.11.954,Slot Machine Game,2023.1.3,Win32,59.88023952,,,,,,,,,,,,,,,,,,,,,,,,,,,0,,,,,,,,,,,,,,,,,,,,,9,10,"[10,15]","[[3,1,2],[1,3,2]]",618.965,0,left,0.2519,,1.5,0.3,"[3,1,2]",0.466183915,stimuli/card_0_transparent.png,0,0,0,0,0,1,,,,,,,,,,
,,,,5d6920acf59886000119e73e,A,2024-05-21_22h48.11.954,Slot Machine Game,2023.1.3,Win32,59.88023952,,,,,,,,,,,,,,,,,,,,,,,,,,,100,,,,,,,,,,,,,,,,,,,,,9,10,,,621.5444,1,up,0.2518,,0.5,0.3,"[3,1,2]",0.643990734,stimuli/card_100_transparent.png,100,1,0,1,0,1,,,,,,,,,,
,,,,5d6920acf59886000119e73e,A,2024-05-21_22h48.11.954,Slot Machine Game,2023.1.3,Win32,59.88023952,,,,,,,,,,,,,,,,,,,,,,,,,,,110,,,,,,,,,,,,,,,,,,,,,9,10,,,623.1277,2,up,2.9559,,1,0.3,"[3,1,2]",0.137727125,stimuli/card_10_transparent.png,10,2,0,2,0,1,,,,,,,,,,
,,,,5d6920acf59886000119e73e,A,2024-05-21_22h48.11.954,Slot Machine Game,2023.1.3,Win32,59.88023952,,,,,,,,,,,,,,,,,,,,,,,,,,,210,,,,,,,,,,,,,,,,,,,,,9,10,,,627.9276,3,up,0.022,,1.5,0.3,"[3,1,2]",0.742446327,stimuli/card_100_transparent.png,100,3,0,3,0,1,,,,,,,,,,
,,,,5d6920acf59886000119e73e,A,2024-05-21_22h48.11.954,Slot Machine Game,2023.1.3,Win32,59.88023952,,,,,,,,,,,,,,,,,,,,,,,,,,,310,,,,,,,,,,,,,,,,,,,,,9,10,,,630.2775,4,up,0.1119,,1,0.3,"[3,1,2]",0.945190326,stimuli/card_100_transparent.png,100,4,0,4,0,1,,,,,,,,,,
,,,,5d6920acf59886000119e73e,A,2024-05-21_22h48.11.954,Slot Machine Game,2023.1.3,Win32,59.88023952,,,,,,,,,,,,,,,,,,,,,,,,,,,410,,,,,,,,,,,,,,,,,,,,,9,10,,,632.2108,5,up,0.1502,,1.5,0.3,"[3,1,2]",0.339401899,stimuli/card_100_transparent.png,100,5,0,5,0,1,,,,,,,,,,
,,,,5d6920acf59886000119e73e,A,2024-05-21_22h48.11.954,Slot Machine Game,2023.1.3,Win32,59.88023952,,,,,,,,,,,,,,,,,,,,,,,,,,,510,,,,,,,,,,,,,,,,,,,,,9,10,,,634.6774,6,up,0.1011,,0.5,0.3,"[3,1,2]",0.587516773,stimuli/card_100_transparent.png,100,6,0,6,0,1,,,,,,,,,,
,,,,5d6920acf59886000119e73e,A,2024-05-21_22h48.11.954,Slot Machine Game,2023.1.3,Win32,59.88023952,,,,,,,,,,,,,,,,,,,,,,,,,,,610,,,,,,,,,,,,,,,,,,,,,9,10,,,636.1107,7,up,0.3837,,0.5,0.3,"[3,1,2]",0.275547979,stimuli/card_100_transparent.png,100,7,0,7,0,1,,,,,,,,,,
,,,,5d6920acf59886000119e73e,A,2024-05-21_22h48.11.954,Slot Machine Game,2023.1.3,Win32,59.88023952,,,,,,,,,,,,,,,,,,,,,,,,,,,710,,,,,,,,,,,,,,,,,,,,,9,10,,,637.794,8,up,0.2568,,1,0.3,"[3,1,2]",0.787547463,stimuli/card_100_transparent.png,100,8,0,8,0,1,,,,,,,,,,
,,,,5d6920acf59886000119e73e,A,2024-05-21_22h48.11.954,Slot Machine Game,2023.1.3,Win32,59.88023952,,,,,,,,,,,,,,,,,,,,,,,,,,,810,,,,,,,,,,,,,,,,,,,,,9,10,,,639.8607,9,up,0.3688,,1.5,0.3,"[3,1,2]",0.892883574,stimuli/card_100_transparent.png,100,9,0,9,0,1,,,,,,,,,,
,,,,5d6920acf59886000119e73e,A,2024-05-21_22h48.11.954,Slot Machine Game,2023.1.3,Win32,59.88023952,,,,,,,,,,,,,,,,,,,,,,,,,,,810,,,,,,,,,,,,,,,,,,,,,9,10,,,642.5606,10,up,0.0682,,0.5,0.3,"[1,3,2]",0.569136535,stimuli/card_0_transparent.png,0,10,0,10,0,1,,,,,,,,,,
,,,,5d6920acf59886000119e73e,A,2024-05-21_22h48.11.954,Slot Machine Game,2023.1.3,Win32,59.88023952,,,,,,,,,,,,,,,,,,,,,,,,,,,810,,,,,,,,,,,,,,,,,,,,,9,10,,,643.9772,11,up,0.383,,1,0.3,"[1,3,2]",0.740685497,stimuli/card_0_transparent.png,0,11,0,11,0,1,,,,,,,,,,
,,,,5d6920acf59886000119e73e,A,2024-05-21_22h48.11.954,Slot Machine Game,2023.1.3,Win32,59.88023952,,,,,,,,,,,,,,,,,,,,,,,,,,,820,,,,,,,,,,,,,,,,,,,,,9,10,,,646.1771,12,right,0.9568,,1,0.3,"[1,3,2]",0.331075964,stimuli/card_10_transparent.png,10,12,0,12,0,1,,,,,,,,,,
,,,,5d6920acf59886000119e73e,A,2024-05-21_22h48.11.954,Slot Machine Game,2023.1.3,Win32,59.88023952,,,,,,,,,,,,,,,,,,,,,,,,,,,920,,,,,,,,,,,,,,,,,,,,,9,10,,,648.9605,13,left,0.5566,,1.5,0.3,"[1,3,2]",0.275071123,stimuli/card_100_transparent.png,100,13,0,13,0,1,,,,,,,,,,
,,,,5d6920acf59886000119e73e,A,2024-05-21_22h48.11.954,Slot Machine Game,2023.1.3,Win32,59.88023952,,,,,,,,,,,,,,,,,,,,,,,,,,,930,,,,,,,,,,,,,,,,,,,,,9,10,,,651.8604,14,left,0.0896,,1.5,0.3,"[1,3,2]",0.134035912,stimuli/card_10_transparent.png,10,14,0,14,0,1,,,,,,,,,,
,,,,5d6920acf59886000119e73e,A,2024-05-21_22h48.11.954,Slot Machine Game,2023.1.3,Win32,59.88023952,,,,,,,,,,,,,,,,,,,,,,,,,,,,,,,,,,,654.277,,,,,,,,,,,,,,,,,,,,,,,,,,,,,,,,,"[840,940,940,850,360,840,920,1120,930]",8,0,8,0,1,,,,
,,,,5d6920acf59886000119e73e,A,2024-05-21_22h48.11.954,Slot Machine Game,2023.1.3,Win32,59.88023952,,,,,,,,,,,,,,,,,,,,,,,,,,,0,,,,,,,,,,,,,,,,,,,,,10,3,"[15,15]","[[3,1,2],[3,1,2]]",659.2809,0,left,0.1925,,1,0.3,"[3,1,2]",0.819607303,stimuli/card_0_transparent.png,0,0,0,0,0,1,,,,,,,,,,
,,,,5d6920acf59886000119e73e,A,2024-05-21_22h48.11.954,Slot Machine Game,2023.1.3,Win32,59.88023952,,,,,,,,,,,,,,,,,,,,,,,,,,,100,,,,,,,,,,,,,,,,,,,,,10,3,,,661.3101,1,up,0.3464,,1,0.3,"[3,1,2]",0.727016563,stimuli/card_100_transparent.png,100,1,0,1,0,1,,,,,,,,,,
,,,,5d6920acf59886000119e73e,A,2024-05-21_22h48.11.954,Slot Machine Game,2023.1.3,Win32,59.88023952,,,,,,,,,,,,,,,,,,,,,,,,,,,200,,,,,,,,,,,,,,,,,,,,,10,3,,,663.4602,2,up,0.7621,,1,0.3,"[3,1,2]",0.406282939,stimuli/card_100_transparent.png,100,2,0,2,0,1,,,,,,,,,,
,,,,5d6920acf59886000119e73e,A,2024-05-21_22h48.11.954,Slot Machine Game,2023.1.3,Win32,59.88023952,,,,,,,,,,,,,,,,,,,,,,,,,,,210,,,,,,,,,,,,,,,,,,,,,10,3,,,666.0434,3,up,0.0002,,1.5,0.3,"[3,1,2]",0.194841343,stimuli/card_10_transparent.png,10,3,0,3,0,1,,,,,,,,,,
,,,,5d6920acf59886000119e73e,A,2024-05-21_22h48.11.954,Slot Machine Game,2023.1.3,Win32,59.88023952,,,,,,,,,,,,,,,,,,,,,,,,,,,310,,,,,,,,,,,,,,,,,,,,,10,3,,,668.36,4,up,0.278,,1.5,0.3,"[3,1,2]",0.880644582,stimuli/card_100_transparent.png,100,4,0,4,0,1,,,,,,,,,,
,,,,5d6920acf59886000119e73e,A,2024-05-21_22h48.11.954,Slot Machine Game,2023.1.3,Win32,59.88023952,,,,,,,,,,,,,,,,,,,,,,,,,,,410,,,,,,,,,,,,,,,,,,,,,10,3,,,670.96,5,up,1.8001,,1,0.3,"[3,1,2]",0.855502921,stimuli/card_100_transparent.png,100,5,0,5,0,1,,,,,,,,,,
,,,,5d6920acf59886000119e73e,A,2024-05-21_22h48.11.954,Slot Machine Game,2023.1.3,Win32,59.88023952,,,,,,,,,,,,,,,,,,,,,,,,,,,510,,,,,,,,,,,,,,,,,,,,,10,3,,,674.5933,6,up,1.0211,,1.5,0.3,"[3,1,2]",0.610405389,stimuli/card_100_transparent.png,100,6,0,6,0,1,,,,,,,,,,
,,,,5d6920acf59886000119e73e,A,2024-05-21_22h48.11.954,Slot Machine Game,2023.1.3,Win32,59.88023952,,,,,,,,,,,,,,,,,,,,,,,,,,,610,,,,,,,,,,,,,,,,,,,,,10,3,,,677.9432,7,up,0.4623,,1,0.3,"[3,1,2]",0.96550118,stimuli/card_100_transparent.png,100,7,0,7,0,1,,,,,,,,,,
,,,,5d6920acf59886000119e73e,A,2024-05-21_22h48.11.954,Slot Machine Game,2023.1.3,Win32,59.88023952,,,,,,,,,,,,,,,,,,,,,,,,,,,710,,,,,,,,,,,,,,,,,,,,,10,3,,,680.2431,8,up,1.729,,1,0.3,"[3,1,2]",0.274809259,stimuli/card_100_transparent.png,100,8,0,8,0,1,,,,,,,,,,
,,,,5d6920acf59886000119e73e,A,2024-05-21_22h48.11.954,Slot Machine Game,2023.1.3,Win32,59.88023952,,,,,,,,,,,,,,,,,,,,,,,,,,,810,,,,,,,,,,,,,,,,,,,,,10,3,,,683.8098,9,up,0.1666,,0.5,0.3,"[3,1,2]",0.486463215,stimuli/card_100_transparent.png,100,9,0,9,0,1,,,,,,,,,,
,,,,5d6920acf59886000119e73e,A,2024-05-21_22h48.11.954,Slot Machine Game,2023.1.3,Win32,59.88023952,,,,,,,,,,,,,,,,,,,,,,,,,,,910,,,,,,,,,,,,,,,,,,,,,10,3,,,685.3096,10,up,0.1528,,0.5,0.3,"[3,1,2]",0.308942094,stimuli/card_100_transparent.png,100,10,0,10,0,1,,,,,,,,,,
,,,,5d6920acf59886000119e73e,A,2024-05-21_22h48.11.954,Slot Machine Game,2023.1.3,Win32,59.88023952,,,,,,,,,,,,,,,,,,,,,,,,,,,1010,,,,,,,,,,,,,,,,,,,,,10,3,,,686.7929,11,up,0.1178,,0.5,0.3,"[3,1,2]",0.449820639,stimuli/card_100_transparent.png,100,11,0,11,0,1,,,,,,,,,,
,,,,5d6920acf59886000119e73e,A,2024-05-21_22h48.11.954,Slot Machine Game,2023.1.3,Win32,59.88023952,,,,,,,,,,,,,,,,,,,,,,,,,,,1110,,,,,,,,,,,,,,,,,,,,,10,3,,,688.2263,12,up,0.2359,,1.5,0.3,"[3,1,2]",0.695269956,stimuli/card_100_transparent.png,100,12,0,12,0,1,,,,,,,,,,
,,,,5d6920acf59886000119e73e,A,2024-05-21_22h48.11.954,Slot Machine Game,2023.1.3,Win32,59.88023952,,,,,,,,,,,,,,,,,,,,,,,,,,,1210,,,,,,,,,,,,,,,,,,,,,10,3,,,690.793,13,up,0.7832,,0.5,0.3,"[3,1,2]",0.26154266,stimuli/card_100_transparent.png,100,13,0,13,0,1,,,,,,,,,,
,,,,5d6920acf59886000119e73e,A,2024-05-21_22h48.11.954,Slot Machine Game,2023.1.3,Win32,59.88023952,,,,,,,,,,,,,,,,,,,,,,,,,,,1310,,,,,,,,,,,,,,,,,,,,,10,3,,,692.9095,14,up,0.4333,,0.5,0.3,"[3,1,2]",0.855090821,stimuli/card_100_transparent.png,100,14,0,14,0,1,,,,,,,,,,
,,,,5d6920acf59886000119e73e,A,2024-05-21_22h48.11.954,Slot Machine Game,2023.1.3,Win32,59.88023952,,,,,,,,,,,,,,,,,,,,,,,,,,,,,,,,,,,694.6595,,,,,,,,,,,,,,,,,,,,,,,,,,,,,,,,,"[840,940,940,850,360,840,920,1120,930,1310]",9,0,9,0,1,,,,
,,,,5d6920acf59886000119e73e,A,2024-05-21_22h48.11.954,Slot Machine Game,2023.1.3,Win32,59.88023952,,,,,,,,,,,,,,,,,,,,,,,,,,,,,,,,,,,,,,,,,,,,,,,,,,,,,,,,,,,,,,,,,,,,,,,,,,9,"[840,940,940,850,360,840,920,1120,930,1310]",9.2,2024-05-21_22h59.55.659
