key_resp_welcome.started,key_resp_welcome.keys,key_resp_welcome.rt,key_resp_welcome.duration,participant,date,expName,psychopyVersion,OS,frameRate,key_resp_instruction1.started,key_resp_instruction1.keys,key_resp_instruction1.rt,key_resp_instruction1.duration,key_resp_instruction2.started,key_resp_instruction2.keys,key_resp_instruction2.rt,key_resp_instruction2.duration,key_resp_instruction3.started,key_resp_instruction3.keys,key_resp_instruction3.rt,key_resp_instruction3.duration,practiceCondition,practice_reward_seqs,key_resp_practice_slots.started,key_resp_practice_slots.keys,key_resp_practice_slots.rt,key_resp_practice_slots.duration,presentationInterval,"practice_reward_seq: 2,1,3",reward_Img,Cuml_rew,currentPracticeTrialReward,practice_trials.thisRepN,practice_trials.thisTrialN,practice_trials.thisN,practice_trials.thisIndex,practice_trials.ran,"practice_reward_seq: 2,3,1",text_block_break.started,practice_block.thisRepN,practice_block.thisTrialN,practice_block.thisN,practice_block.thisIndex,practice_block.ran,"practice_reward_seq: 1,3,2","practice_reward_seq: 3,1,2",key_resp_practice_end.started,key_resp_practice_end.keys,key_resp_practice_end.rt,key_resp_practice_end.duration,text_main_instruction.started,BlockCondition,BlockOrderIndices,key_resp_main_instruction.started,key_resp_main_instruction.keys,key_resp_main_instruction.rt,key_resp_main_instruction.duration,blockNumber,blockAssignment,currentCondition,main_reward_seqs,key_resp_slots_presentation.started,key_resp_slots_presentation.keys,key_resp_slots_presentation.rt,key_resp_slots_presentation.duration,Main_presentationInterval,rewardPresentationTime,Main_reward_seq,Random value generated,Main_reward_Img,Main_Cumul_Reward,Main_currentTrialReward,main_trials.thisRepN,main_trials.thisTrialN,main_trials.thisN,main_trials.thisIndex,main_trials.ran,block.thisRepN,block.thisTrialN,block.thisN,block.thisIndex,block.ran
0.0002,right,1.299,,,2023-10-09_21h31.56.315,SlotMachine_updated,2023.1.3,Win32,60.09254252,,,,,,,,,,,,,,,,,,,,,,,,,,,,,,,,,,,,,,,,,,,,,,,,,,,,,,,,,,,,,,,,,,,,,,,,,
,,,,,2023-10-09_21h31.56.315,SlotMachine_updated,2023.1.3,Win32,60.09254252,,,,,,,,,,,,,,,,,,,,,,,,,,,,,,,,,,,,,,,,,,,,,,,,,,,,,,,,,,,,,,,,,,,,,,,,,
,,,,,2023-10-09_21h31.56.315,SlotMachine_updated,2023.1.3,Win32,60.09254252,142.9742,space,3.234,,,,,,,,,,,,,,,,,,,,,,,,,,,,,,,,,,,,,,,,,,,,,,,,,,,,,,,,,,,,,,,,,,,,,,
,,,,,2023-10-09_21h31.56.315,SlotMachine_updated,2023.1.3,Win32,60.09254252,,,,,146.3381,space,2.781,,,,,,,,,,,,,,,,,,,,,,,,,,,,,,,,,,,,,,,,,,,,,,,,,,,,,,,,,,,,,,,,,,
,,,,,2023-10-09_21h31.56.315,SlotMachine_updated,2023.1.3,Win32,60.09254252,,,,,,,,,149.2387,space,0.9617,,,,,,,,,,,,,,,,,,,,,,,,,,,,,,,,,,,,,,,,,,,,,,,,,,,,,,,,,,,,,,
,,,,,2023-10-09_21h31.56.315,SlotMachine_updated,2023.1.3,Win32,60.09254252,,,,,,,,,,,,,"[9,15]","[[2,1,3],[2,3,1]]",150.2684,up,1.1337,,1.5,,stimuli/card_100_transparent.png,100,100,0,0,0,0,1,,,,,,,,,,,,,,,,,,,,,,,,,,,,,,,,,,,,,,,,,,,,,
,,,,,2023-10-09_21h31.56.315,SlotMachine_updated,2023.1.3,Win32,60.09254252,,,,,,,,,,,,,,,153.2219,right,1.1889,,1.5,,stimuli/card_0_transparent.png,100,0,1,0,1,0,1,,,,,,,,,,,,,,,,,,,,,,,,,,,,,,,,,,,,,,,,,,,,,
,,,,,2023-10-09_21h31.56.315,SlotMachine_updated,2023.1.3,Win32,60.09254252,,,,,,,,,,,,,,,156.2321,left,0.904,,1,,stimuli/card_10_transparent.png,110,10,2,0,2,0,1,,,,,,,,,,,,,,,,,,,,,,,,,,,,,,,,,,,,,,,,,,,,,
,,,,,2023-10-09_21h31.56.315,SlotMachine_updated,2023.1.3,Win32,60.09254252,,,,,,,,,,,,,,,158.455,right,1.0169,,1,,stimuli/card_0_transparent.png,110,0,3,0,3,0,1,,,,,,,,,,,,,,,,,,,,,,,,,,,,,,,,,,,,,,,,,,,,,
,,,,,2023-10-09_21h31.56.315,SlotMachine_updated,2023.1.3,Win32,60.09254252,,,,,,,,,,,,,,,160.7885,up,0.6854,,0.5,,stimuli/card_100_transparent.png,210,100,4,0,4,0,1,,,,,,,,,,,,,,,,,,,,,,,,,,,,,,,,,,,,,,,,,,,,,
,,,,,2023-10-09_21h31.56.315,SlotMachine_updated,2023.1.3,Win32,60.09254252,,,,,,,,,,,,,,,162.2992,left,3.3376,,1,,stimuli/card_100_transparent.png,310,100,5,0,5,0,1,,,,,,,,,,,,,,,,,,,,,,,,,,,,,,,,,,,,,,,,,,,,,
,,,,,2023-10-09_21h31.56.315,SlotMachine_updated,2023.1.3,Win32,60.09254252,,,,,,,,,,,,,,,166.9386,right,0.6166,,1.5,,stimuli/card_0_transparent.png,310,0,6,0,6,0,1,,,,,,,,,,,,,,,,,,,,,,,,,,,,,,,,,,,,,,,,,,,,,
,,,,,2023-10-09_21h31.56.315,SlotMachine_updated,2023.1.3,Win32,60.09254252,,,,,,,,,,,,,,,169.3884,left,0.0475,,0.5,,stimuli/card_100_transparent.png,410,100,7,0,7,0,1,,,,,,,,,,,,,,,,,,,,,,,,,,,,,,,,,,,,,,,,,,,,,
,,,,,2023-10-09_21h31.56.315,SlotMachine_updated,2023.1.3,Win32,60.09254252,,,,,,,,,,,,,,,170.2719,right,0.3669,,1,,stimuli/card_0_transparent.png,410,0,8,0,8,0,1,,,,,,,,,,,,,,,,,,,,,,,,,,,,,,,,,,,,,,,,,,,,,
,,,,,2023-10-09_21h31.56.315,SlotMachine_updated,2023.1.3,Win32,60.09254252,,,,,,,,,,,,,,,171.9473,,,,0.5,,,,,9,0,9,0,1,,,,,,,,,,,,,,,,,,,,,,,,,,,,,,,,,,,,,,,,,,,,,
,,,,,2023-10-09_21h31.56.315,SlotMachine_updated,2023.1.3,Win32,60.09254252,,,,,,,,,,,,,,,272.6162,left,1.7488,,1.5,,stimuli/card_0_transparent.png,410,0,10,0,10,0,1,,,,,,,,,,,,,,,,,,,,,,,,,,,,,,,,,,,,,,,,,,,,,
,,,,,2023-10-09_21h31.56.315,SlotMachine_updated,2023.1.3,Win32,60.09254252,,,,,,,,,,,,,,,276.2909,right,0.7168,,1,,stimuli/card_0_transparent.png,410,0,11,0,11,0,1,,,,,,,,,,,,,,,,,,,,,,,,,,,,,,,,,,,,,,,,,,,,,
,,,,,2023-10-09_21h31.56.315,SlotMachine_updated,2023.1.3,Win32,60.09254252,,,,,,,,,,,,,,,278.3239,right,0.4336,,0.5,,stimuli/card_100_transparent.png,510,100,12,0,12,0,1,,,,,,,,,,,,,,,,,,,,,,,,,,,,,,,,,,,,,,,,,,,,,
,,,,,2023-10-09_21h31.56.315,SlotMachine_updated,2023.1.3,Win32,60.09254252,,,,,,,,,,,,,,,279.5743,right,2.5998,,0.5,,stimuli/card_100_transparent.png,610,100,13,0,13,0,1,,,,,,,,,,,,,,,,,,,,,,,,,,,,,,,,,,,,,,,,,,,,,
,,,,,2023-10-09_21h31.56.315,SlotMachine_updated,2023.1.3,Win32,60.09254252,,,,,,,,,,,,,,,282.9845,right,0.9471,,1.5,,stimuli/card_10_transparent.png,620,10,14,0,14,0,1,,,,,,,,,,,,,,,,,,,,,,,,,,,,,,,,,,,,,,,,,,,,,
,,,,,2023-10-09_21h31.56.315,SlotMachine_updated,2023.1.3,Win32,60.09254252,,,,,,,,,,,,,,,,,,,,,,,,,,,,,,285.7409,0,0,0,0,1,,,,,,,,,,,,,,,,,,,,,,,,,,,,,,,,,,,,,,
,,,,,2023-10-09_21h31.56.315,SlotMachine_updated,2023.1.3,Win32,60.09254252,,,,,,,,,,,,,"[6,15]","[[1,3,2],[3,1,2]]",290.7389,left,2.1886,,1,,stimuli/card_100_transparent.png,100,100,0,0,0,0,1,,,,,,,,,,,,,,,,,,,,,,,,,,,,,,,,,,,,,,,,,,,,,
,,,,,2023-10-09_21h31.56.315,SlotMachine_updated,2023.1.3,Win32,60.09254252,,,,,,,,,,,,,,,294.2355,left,0.9474,,0.5,,stimuli/card_100_transparent.png,200,100,1,0,1,0,1,,,,,,,,,,,,,,,,,,,,,,,,,,,,,,,,,,,,,,,,,,,,,
,,,,,2023-10-09_21h31.56.315,SlotMachine_updated,2023.1.3,Win32,60.09254252,,,,,,,,,,,,,,,295.9912,left,1.1207,,0.5,,stimuli/card_100_transparent.png,300,100,2,0,2,0,1,,,,,,,,,,,,,,,,,,,,,,,,,,,,,,,,,,,,,,,,,,,,,
,,,,,2023-10-09_21h31.56.315,SlotMachine_updated,2023.1.3,Win32,60.09254252,,,,,,,,,,,,,,,297.9518,left,1.4887,,1.5,,stimuli/card_10_transparent.png,310,10,3,0,3,0,1,,,,,,,,,,,,,,,,,,,,,,,,,,,,,,,,,,,,,,,,,,,,,
,,,,,2023-10-09_21h31.56.315,SlotMachine_updated,2023.1.3,Win32,60.09254252,,,,,,,,,,,,,,,301.2522,up,2.3,,1.5,,stimuli/card_0_transparent.png,310,0,4,0,4,0,1,,,,,,,,,,,,,,,,,,,,,,,,,,,,,,,,,,,,,,,,,,,,,
,,,,,2023-10-09_21h31.56.315,SlotMachine_updated,2023.1.3,Win32,60.09254252,,,,,,,,,,,,,,,305.358,up,1.3503,,1,,stimuli/card_0_transparent.png,310,0,5,0,5,0,1,,,,,,,,,,,,,,,,,,,,,,,,,,,,,,,,,,,,,,,,,,,,,
,,,,,2023-10-09_21h31.56.315,SlotMachine_updated,2023.1.3,Win32,60.09254252,,,,,,,,,,,,,,,308.0351,left,1.0007,,1.5,,stimuli/card_0_transparent.png,310,0,6,0,6,0,1,,,,,,,,,,,,,,,,,,,,,,,,,,,,,,,,,,,,,,,,,,,,,
,,,,,2023-10-09_21h31.56.315,SlotMachine_updated,2023.1.3,Win32,60.09254252,,,,,,,,,,,,,,,310.8746,right,0.5945,,1.5,,stimuli/card_0_transparent.png,310,0,7,0,7,0,1,,,,,,,,,,,,,,,,,,,,,,,,,,,,,,,,,,,,,,,,,,,,,
,,,,,2023-10-09_21h31.56.315,SlotMachine_updated,2023.1.3,Win32,60.09254252,,,,,,,,,,,,,,,313.2912,up,0.3797,,0.5,,stimuli/card_10_transparent.png,320,10,8,0,8,0,1,,,,,,,,,,,,,,,,,,,,,,,,,,,,,,,,,,,,,,,,,,,,,
,,,,,2023-10-09_21h31.56.315,SlotMachine_updated,2023.1.3,Win32,60.09254252,,,,,,,,,,,,,,,314.4913,left,0.8157,,0.5,,stimuli/card_0_transparent.png,320,0,9,0,9,0,1,,,,,,,,,,,,,,,,,,,,,,,,,,,,,,,,,,,,,,,,,,,,,
,,,,,2023-10-09_21h31.56.315,SlotMachine_updated,2023.1.3,Win32,60.09254252,,,,,,,,,,,,,,,316.1246,right,4.6662,,1,,stimuli/card_100_transparent.png,420,100,10,0,10,0,1,,,,,,,,,,,,,,,,,,,,,,,,,,,,,,,,,,,,,,,,,,,,,
,,,,,2023-10-09_21h31.56.315,SlotMachine_updated,2023.1.3,Win32,60.09254252,,,,,,,,,,,,,,,322.1156,up,0.3504,,1.5,,stimuli/card_100_transparent.png,520,100,11,0,11,0,1,,,,,,,,,,,,,,,,,,,,,,,,,,,,,,,,,,,,,,,,,,,,,
,,,,,2023-10-09_21h31.56.315,SlotMachine_updated,2023.1.3,Win32,60.09254252,,,,,,,,,,,,,,,324.2855,left,0.0334,,0.5,,stimuli/card_0_transparent.png,520,0,12,0,12,0,1,,,,,,,,,,,,,,,,,,,,,,,,,,,,,,,,,,,,,,,,,,,,,
,,,,,2023-10-09_21h31.56.315,SlotMachine_updated,2023.1.3,Win32,60.09254252,,,,,,,,,,,,,,,325.1251,up,2.1191,,1,,stimuli/card_100_transparent.png,620,100,13,0,13,0,1,,,,,,,,,,,,,,,,,,,,,,,,,,,,,,,,,,,,,,,,,,,,,
,,,,,2023-10-09_21h31.56.315,SlotMachine_updated,2023.1.3,Win32,60.09254252,,,,,,,,,,,,,,,328.5693,right,0.4173,,1,,stimuli/card_10_transparent.png,630,10,14,0,14,0,1,,,,,,,,,,,,,,,,,,,,,,,,,,,,,,,,,,,,,,,,,,,,,
,,,,,2023-10-09_21h31.56.315,SlotMachine_updated,2023.1.3,Win32,60.09254252,,,,,,,,,,,,,,,,,,,,,,,,,,,,,,330.2915,1,0,1,0,1,,,,,,,,,,,,,,,,,,,,,,,,,,,,,,,,,,,,,,
,,,,,2023-10-09_21h31.56.315,SlotMachine_updated,2023.1.3,Win32,60.09254252,,,,,,,,,,,,,,,,,,,,,,,,,,,,,,,,,,,,,,335.2921,space,24.1868,,,,,,,,,,,,,,,,,,,,,,,,,,,,,,,,,
,,,,,2023-10-09_21h31.56.315,SlotMachine_updated,2023.1.3,Win32,60.09254252,,,,,,,,,,,,,,,,,,,,,,,,,,,,,,,,,,,,,,,,,,359.5094,3,"[0,4,6,3,5,7,8,1,9,2]",359.5094,space,19.2769,,,,,,,,,,,,,,,,,,,,,,,,,,
,,,,,2023-10-09_21h31.56.315,SlotMachine_updated,2023.1.3,Win32,60.09254252,,,,,,,,,,,,,,,,,,,,,,,,,,,,,,,,,,,,,,,,,,,,,,,,,1,1,"[12,15]","[[2,1,3],[2,3,1]]",378.8345,up,1.0955,,0.5,0.3,"[2,1,3]",0.601032614,stimuli/card_100_transparent.png,100,100,0,0,0,0,1,,,,,
,,,,,2023-10-09_21h31.56.315,SlotMachine_updated,2023.1.3,Win32,60.09254252,,,,,,,,,,,,,,,,,,,,,,,,,,,,,,,,,,,,,,,,,,,,,,,,,,,,,380.7677,right,0.051,,1.5,0.3,"[2,1,3]",0.507213062,stimuli/card_0_transparent.png,100,0,1,0,1,0,1,,,,,
,,,,,2023-10-09_21h31.56.315,SlotMachine_updated,2023.1.3,Win32,60.09254252,,,,,,,,,,,,,,,,,,,,,,,,,,,,,,,,,,,,,,,,,,,,,,,,,,,,,382.6596,left,0.5834,,1,0.3,"[2,1,3]",0.151710273,stimuli/card_100_transparent.png,200,100,2,0,2,0,1,,,,,
,,,,,2023-10-09_21h31.56.315,SlotMachine_updated,2023.1.3,Win32,60.09254252,,,,,,,,,,,,,,,,,,,,,,,,,,,,,,,,,,,,,,,,,,,,,,,,,,,,,384.5702,left,0.3388,,1.5,0.3,"[2,1,3]",0.377931593,stimuli/card_10_transparent.png,210,10,3,0,3,0,1,,,,,
,,,,,2023-10-09_21h31.56.315,SlotMachine_updated,2023.1.3,Win32,60.09254252,,,,,,,,,,,,,,,,,,,,,,,,,,,,,,,,,,,,,,,,,,,,,,,,,,,,,386.7098,right,0.4827,,1.5,0.3,"[2,1,3]",0.746197276,stimuli/card_0_transparent.png,210,0,4,0,4,0,1,,,,,
,,,,,2023-10-09_21h31.56.315,SlotMachine_updated,2023.1.3,Win32,60.09254252,,,,,,,,,,,,,,,,,,,,,,,,,,,,,,,,,,,,,,,,,,,,,,,,,,,,,389.0371,left,0.5173,,0.5,0.3,"[2,1,3]",0.162883719,stimuli/card_100_transparent.png,310,100,5,0,5,0,1,,,,,
,,,,,2023-10-09_21h31.56.315,SlotMachine_updated,2023.1.3,Win32,60.09254252,,,,,,,,,,,,,,,,,,,,,,,,,,,,,,,,,,,,,,,,,,,,,,,,,,,,,390.3761,right,0.3503,,0.5,0.3,"[2,1,3]",0.220929998,stimuli/card_0_transparent.png,310,0,6,0,6,0,1,,,,,
,,,,,2023-10-09_21h31.56.315,SlotMachine_updated,2023.1.3,Win32,60.09254252,,,,,,,,,,,,,,,,,,,,,,,,,,,,,,,,,,,,,,,,,,,,,,,,,,,,,391.57,left,0.4502,,0.5,0.3,"[2,1,3]",0.906017409,stimuli/card_10_transparent.png,320,10,7,0,7,0,1,,,,,
,,,,,2023-10-09_21h31.56.315,SlotMachine_updated,2023.1.3,Win32,60.09254252,,,,,,,,,,,,,,,,,,,,,,,,,,,,,,,,,,,,,,,,,,,,,,,,,,,,,392.8262,right,0.2996,,0.5,0.3,"[2,1,3]",0.730398353,stimuli/card_0_transparent.png,320,0,8,0,8,0,1,,,,,
,,,,,2023-10-09_21h31.56.315,SlotMachine_updated,2023.1.3,Win32,60.09254252,,,,,,,,,,,,,,,,,,,,,,,,,,,,,,,,,,,,,,,,,,,,,,,,,,,,,393.9428,left,0.4055,,1.5,0.3,"[2,1,3]",0.339704643,stimuli/card_10_transparent.png,330,10,9,0,9,0,1,,,,,
,,,,,2023-10-09_21h31.56.315,SlotMachine_updated,2023.1.3,Win32,60.09254252,,,,,,,,,,,,,,,,,,,,,,,,,,,,,,,,,,,,,,,,,,,,,,,,,,,,,396.1761,right,0.4004,,1.5,0.3,"[2,1,3]",0.650573757,stimuli/card_0_transparent.png,330,0,10,0,10,0,1,,,,,
,,,,,2023-10-09_21h31.56.315,SlotMachine_updated,2023.1.3,Win32,60.09254252,,,,,,,,,,,,,,,,,,,,,,,,,,,,,,,,,,,,,,,,,,,,,,,,,,,,,398.4033,up,0.4334,,1,0.3,"[2,1,3]",0.675208736,stimuli/card_100_transparent.png,430,100,11,0,11,0,1,,,,,
,,,,,2023-10-09_21h31.56.315,SlotMachine_updated,2023.1.3,Win32,60.09254252,,,,,,,,,,,,,,,,,,,,,,,,,,,,,,,,,,,,,,,,,,,,,,,,,,,,,400.1596,,,,1,0.3,,,,,,12,0,12,0,1,,,,,
,,,,,2023-10-09_21h31.56.315,SlotMachine_updated,2023.1.3,Win32,60.09254252,,,,,,,,,,,,,,,,,,,,,,,,,,,,,,,,,,,,,,,,,,,,,,,,,,,,,496.4608,right,1.8124,,1.5,0.3,"[2,3,1]",0.64705169,stimuli/card_100_transparent.png,530,100,13,0,13,0,1,,,,,
,,,,,2023-10-09_21h31.56.315,SlotMachine_updated,2023.1.3,Win32,60.09254252,,,,,,,,,,,,,,,,,,,,,,,,,,,,,,,,,,,,,,,,,,,,,,,,,,,,,500.1616,left,0.0504,,1,0.3,"[2,3,1]",0.943381933,stimuli/card_10_transparent.png,540,10,14,0,14,0,1,,,,,
,,,,,2023-10-09_21h31.56.315,SlotMachine_updated,2023.1.3,Win32,60.09254252,,,,,,,,,,,,,,,,,,,,,,,,,,,,,,501.5228,,,,,,,,,,,,,,,,,,,,,,,,,,,,,,,,,,,,,,,0,0,0,0,1
,,,,,2023-10-09_21h31.56.315,SlotMachine_updated,2023.1.3,Win32,60.09254252,,,,,,,,,,,,,,,,,,,,,,,,,,,,,,,,,,,,,,,,,,,,,,,,,2,5,"[5,15]","[[1,2,3],[3,1,2]]",506.5187,right,0.4003,,0.5,0.3,"[1,2,3]",0.364974324,stimuli/card_0_transparent.png,0,0,0,0,0,0,1,,,,,
,,,,,2023-10-09_21h31.56.315,SlotMachine_updated,2023.1.3,Win32,60.09254252,,,,,,,,,,,,,,,,,,,,,,,,,,,,,,,,,,,,,,,,,,,,,,,,,,,,,507.7285,up,0.6505,,1,0.3,"[1,2,3]",0.310544908,stimuli/card_10_transparent.png,10,10,1,0,1,0,1,,,,,
,,,,,2023-10-09_21h31.56.315,SlotMachine_updated,2023.1.3,Win32,60.09254252,,,,,,,,,,,,,,,,,,,,,,,,,,,,,,,,,,,,,,,,,,,,,,,,,,,,,509.6892,left,0.0008,,1.5,0.3,"[1,2,3]",0.771369253,stimuli/card_100_transparent.png,110,100,2,0,2,0,1,,,,,
,,,,,2023-10-09_21h31.56.315,SlotMachine_updated,2023.1.3,Win32,60.09254252,,,,,,,,,,,,,,,,,,,,,,,,,,,,,,,,,,,,,,,,,,,,,,,,,,,,,511.5059,up,0.0008,,0.5,0.3,"[1,2,3]",0.949828755,stimuli/card_10_transparent.png,120,10,3,0,3,0,1,,,,,
,,,,,2023-10-09_21h31.56.315,SlotMachine_updated,2023.1.3,Win32,60.09254252,,,,,,,,,,,,,,,,,,,,,,,,,,,,,,,,,,,,,,,,,,,,,,,,,,,,,512.3228,up,0.0807,,1,0.3,"[1,2,3]",0.633451325,stimuli/card_10_transparent.png,130,10,4,0,4,0,1,,,,,
,,,,,2023-10-09_21h31.56.315,SlotMachine_updated,2023.1.3,Win32,60.09254252,,,,,,,,,,,,,,,,,,,,,,,,,,,,,,,,,,,,,,,,,,,,,,,,,,,,,513.7062,up,0.1507,,1.5,0.3,"[3,1,2]",0.773602106,stimuli/card_100_transparent.png,230,100,5,0,5,0,1,,,,,
,,,,,2023-10-09_21h31.56.315,SlotMachine_updated,2023.1.3,Win32,60.09254252,,,,,,,,,,,,,,,,,,,,,,,,,,,,,,,,,,,,,,,,,,,,,,,,,,,,,515.662,right,0.0012,,1.5,0.3,"[3,1,2]",0.167158968,stimuli/card_100_transparent.png,330,100,6,0,6,0,1,,,,,
,,,,,2023-10-09_21h31.56.315,SlotMachine_updated,2023.1.3,Win32,60.09254252,,,,,,,,,,,,,,,,,,,,,,,,,,,,,,,,,,,,,,,,,,,,,,,,,,,,,517.4787,right,0.3666,,1.5,0.3,"[3,1,2]",0.823312071,stimuli/card_10_transparent.png,340,10,7,0,7,0,1,,,,,
,,,,,2023-10-09_21h31.56.315,SlotMachine_updated,2023.1.3,Win32,60.09254252,,,,,,,,,,,,,,,,,,,,,,,,,,,,,,,,,,,,,,,,,,,,,,,,,,,,,519.69,right,0.6338,,1,0.3,"[3,1,2]",0.039337437,stimuli/card_0_transparent.png,340,0,8,0,8,0,1,,,,,
,,,,,2023-10-09_21h31.56.315,SlotMachine_updated,2023.1.3,Win32,60.09254252,,,,,,,,,,,,,,,,,,,,,,,,,,,,,,,,,,,,,,,,,,,,,,,,,,,,,521.6362,right,0.0308,,0.5,0.3,"[3,1,2]",0.842633601,stimuli/card_10_transparent.png,350,10,9,0,9,0,1,,,,,
,,,,,2023-10-09_21h31.56.315,SlotMachine_updated,2023.1.3,Win32,60.09254252,,,,,,,,,,,,,,,,,,,,,,,,,,,,,,,,,,,,,,,,,,,,,,,,,,,,,522.4732,right,0.3008,,1,0.3,"[3,1,2]",0.113138845,stimuli/card_100_transparent.png,450,100,10,0,10,0,1,,,,,
,,,,,2023-10-09_21h31.56.315,SlotMachine_updated,2023.1.3,Win32,60.09254252,,,,,,,,,,,,,,,,,,,,,,,,,,,,,,,,,,,,,,,,,,,,,,,,,,,,,524.0896,right,1.3384,,1.5,0.3,"[3,1,2]",0.446528139,stimuli/card_10_transparent.png,460,10,11,0,11,0,1,,,,,
,,,,,2023-10-09_21h31.56.315,SlotMachine_updated,2023.1.3,Win32,60.09254252,,,,,,,,,,,,,,,,,,,,,,,,,,,,,,,,,,,,,,,,,,,,,,,,,,,,,527.2287,right,0.0832,,0.5,0.3,"[3,1,2]",0.590728026,stimuli/card_10_transparent.png,470,10,12,0,12,0,1,,,,,
,,,,,2023-10-09_21h31.56.315,SlotMachine_updated,2023.1.3,Win32,60.09254252,,,,,,,,,,,,,,,,,,,,,,,,,,,,,,,,,,,,,,,,,,,,,,,,,,,,,528.1287,right,0.4335,,1,0.3,"[3,1,2]",0.583309454,stimuli/card_10_transparent.png,480,10,13,0,13,0,1,,,,,
,,,,,2023-10-09_21h31.56.315,SlotMachine_updated,2023.1.3,Win32,60.09254252,,,,,,,,,,,,,,,,,,,,,,,,,,,,,,,,,,,,,,,,,,,,,,,,,,,,,529.8789,left,0.4336,,1.5,0.3,"[3,1,2]",0.226604272,stimuli/card_0_transparent.png,480,0,14,0,14,0,1,,,,,
,,,,,2023-10-09_21h31.56.315,SlotMachine_updated,2023.1.3,Win32,60.09254252,,,,,,,,,,,,,,,,,,,,,,,,,,,,,,532.1286,,,,,,,,,,,,,,,,,,,,,,,,,,,,,,,,,,,,,,,1,0,1,0,1
,,,,,2023-10-09_21h31.56.315,SlotMachine_updated,2023.1.3,Win32,60.09254252,,,,,,,,,,,,,,,,,,,,,,,,,,,,,,,,,,,,,,,,,,,,,,,,,3,7,"[9,15]","[[1,3,2],[2,3,1]]",537.1377,up,0.3671,,0.5,0.3,"[1,3,2]",0.918601702,stimuli/card_0_transparent.png,0,0,0,0,0,0,1,,,,,
,,,,,2023-10-09_21h31.56.315,SlotMachine_updated,2023.1.3,Win32,60.09254252,,,,,,,,,,,,,,,,,,,,,,,,,,,,,,,,,,,,,,,,,,,,,,,,,,,,,538.3124,up,1.7059,,1.5,0.3,"[1,3,2]",0.293744977,stimuli/card_0_transparent.png,0,0,1,0,1,0,1,,,,,
,,,,,2023-10-09_21h31.56.315,SlotMachine_updated,2023.1.3,Win32,60.09254252,,,,,,,,,,,,,,,,,,,,,,,,,,,,,,,,,,,,,,,,,,,,,,,,,,,,,541.8291,left,0.9887,,1.5,0.3,"[1,3,2]",0.829913061,stimuli/card_100_transparent.png,100,100,2,0,2,0,1,,,,,
,,,,,2023-10-09_21h31.56.315,SlotMachine_updated,2023.1.3,Win32,60.09254252,,,,,,,,,,,,,,,,,,,,,,,,,,,,,,,,,,,,,,,,,,,,,,,,,,,,,544.6557,left,0.6841,,1,0.3,"[1,3,2]",0.973679627,stimuli/card_100_transparent.png,200,100,3,0,3,0,1,,,,,
,,,,,2023-10-09_21h31.56.315,SlotMachine_updated,2023.1.3,Win32,60.09254252,,,,,,,,,,,,,,,,,,,,,,,,,,,,,,,,,,,,,,,,,,,,,,,,,,,,,546.6568,left,0.3006,,1,0.3,"[1,3,2]",0.174817924,stimuli/card_10_transparent.png,210,10,4,0,4,0,1,,,,,
,,,,,2023-10-09_21h31.56.315,SlotMachine_updated,2023.1.3,Win32,60.09254252,,,,,,,,,,,,,,,,,,,,,,,,,,,,,,,,,,,,,,,,,,,,,,,,,,,,,548.2736,up,0.2839,,1,0.3,"[1,3,2]",0.76496881,stimuli/card_0_transparent.png,210,0,5,0,5,0,1,,,,,
,,,,,2023-10-09_21h31.56.315,SlotMachine_updated,2023.1.3,Win32,60.09254252,,,,,,,,,,,,,,,,,,,,,,,,,,,,,,,,,,,,,,,,,,,,,,,,,,,,,549.8733,up,0.3172,,0.5,0.3,"[1,3,2]",0.77277186,stimuli/card_0_transparent.png,210,0,6,0,6,0,1,,,,,
,,,,,2023-10-09_21h31.56.315,SlotMachine_updated,2023.1.3,Win32,60.09254252,,,,,,,,,,,,,,,,,,,,,,,,,,,,,,,,,,,,,,,,,,,,,,,,,,,,,551.0069,right,0.1667,,1,0.3,"[1,3,2]",0.449372302,stimuli/card_10_transparent.png,220,10,7,0,7,0,1,,,,,
,,,,,2023-10-09_21h31.56.315,SlotMachine_updated,2023.1.3,Win32,60.09254252,,,,,,,,,,,,,,,,,,,,,,,,,,,,,,,,,,,,,,,,,,,,,,,,,,,,,552.4961,right,0.0009,,1.5,0.3,"[1,3,2]",0.218560297,stimuli/card_10_transparent.png,230,10,8,0,8,0,1,,,,,
,,,,,2023-10-09_21h31.56.315,SlotMachine_updated,2023.1.3,Win32,60.09254252,,,,,,,,,,,,,,,,,,,,,,,,,,,,,,,,,,,,,,,,,,,,,,,,,,,,,554.3233,left,0.017,,0.5,0.3,"[2,3,1]",0.434442918,stimuli/card_10_transparent.png,240,10,9,0,9,0,1,,,,,
,,,,,2023-10-09_21h31.56.315,SlotMachine_updated,2023.1.3,Win32,60.09254252,,,,,,,,,,,,,,,,,,,,,,,,,,,,,,,,,,,,,,,,,,,,,,,,,,,,,555.1564,left,0.2722,,1.5,0.3,"[2,3,1]",0.809084344,stimuli/card_10_transparent.png,250,10,10,0,10,0,1,,,,,
,,,,,2023-10-09_21h31.56.315,SlotMachine_updated,2023.1.3,Win32,60.09254252,,,,,,,,,,,,,,,,,,,,,,,,,,,,,,,,,,,,,,,,,,,,,,,,,,,,,557.2459,left,0.0007,,0.5,0.3,"[2,3,1]",0.727253957,stimuli/card_10_transparent.png,260,10,11,0,11,0,1,,,,,
,,,,,2023-10-09_21h31.56.315,SlotMachine_updated,2023.1.3,Win32,60.09254252,,,,,,,,,,,,,,,,,,,,,,,,,,,,,,,,,,,,,,,,,,,,,,,,,,,,,558.0629,left,0.467,,1,0.3,"[2,3,1]",0.837194799,stimuli/card_10_transparent.png,270,10,12,0,12,0,1,,,,,
,,,,,2023-10-09_21h31.56.315,SlotMachine_updated,2023.1.3,Win32,60.09254252,,,,,,,,,,,,,,,,,,,,,,,,,,,,,,,,,,,,,,,,,,,,,,,,,,,,,559.857,right,0.2213,,1,0.3,"[2,3,1]",0.785734842,stimuli/card_100_transparent.png,370,100,13,0,13,0,1,,,,,
,,,,,2023-10-09_21h31.56.315,SlotMachine_updated,2023.1.3,Win32,60.09254252,,,,,,,,,,,,,,,,,,,,,,,,,,,,,,,,,,,,,,,,,,,,,,,,,,,,,561.3794,right,0.2829,,1,0.3,"[2,3,1]",0.939121636,stimuli/card_100_transparent.png,470,100,14,0,14,0,1,,,,,
,,,,,2023-10-09_21h31.56.315,SlotMachine_updated,2023.1.3,Win32,60.09254252,,,,,,,,,,,,,,,,,,,,,,,,,,,,,,562.9792,,,,,,,,,,,,,,,,,,,,,,,,,,,,,,,,,,,,,,,2,0,2,0,1
,,,,,2023-10-09_21h31.56.315,SlotMachine_updated,2023.1.3,Win32,60.09254252,,,,,,,,,,,,,,,,,,,,,,,,,,,,,,,,,,,,,,,,,,,,,,,,,4,4,"[7,15]","[[2,3,1],[1,2,3]]",567.9894,right,0.4675,,0.5,0.3,"[2,3,1]",0.666257791,stimuli/card_100_transparent.png,100,100,0,0,0,0,1,,,,,
,,,,,2023-10-09_21h31.56.315,SlotMachine_updated,2023.1.3,Win32,60.09254252,,,,,,,,,,,,,,,,,,,,,,,,,,,,,,,,,,,,,,,,,,,,,,,,,,,,,569.257,left,0.5009,,1,0.3,"[2,3,1]",0.860725532,stimuli/card_10_transparent.png,110,10,1,0,1,0,1,,,,,
,,,,,2023-10-09_21h31.56.315,SlotMachine_updated,2023.1.3,Win32,60.09254252,,,,,,,,,,,,,,,,,,,,,,,,,,,,,,,,,,,,,,,,,,,,,,,,,,,,,571.0797,right,0.2894,,1,0.3,"[2,3,1]",0.854955866,stimuli/card_100_transparent.png,210,100,2,0,2,0,1,,,,,
,,,,,2023-10-09_21h31.56.315,SlotMachine_updated,2023.1.3,Win32,60.09254252,,,,,,,,,,,,,,,,,,,,,,,,,,,,,,,,,,,,,,,,,,,,,,,,,,,,,572.7072,left,0.1018,,1.5,0.3,"[2,3,1]",0.382686186,stimuli/card_10_transparent.png,220,10,3,0,3,0,1,,,,,
,,,,,2023-10-09_21h31.56.315,SlotMachine_updated,2023.1.3,Win32,60.09254252,,,,,,,,,,,,,,,,,,,,,,,,,,,,,,,,,,,,,,,,,,,,,,,,,,,,,574.613,right,0.5671,,1,0.3,"[2,3,1]",0.686591353,stimuli/card_100_transparent.png,320,100,4,0,4,0,1,,,,,
,,,,,2023-10-09_21h31.56.315,SlotMachine_updated,2023.1.3,Win32,60.09254252,,,,,,,,,,,,,,,,,,,,,,,,,,,,,,,,,,,,,,,,,,,,,,,,,,,,,576.4963,right,0.314,,0.5,0.3,"[2,3,1]",0.622366844,stimuli/card_100_transparent.png,420,100,5,0,5,0,1,,,,,
,,,,,2023-10-09_21h31.56.315,SlotMachine_updated,2023.1.3,Win32,60.09254252,,,,,,,,,,,,,,,,,,,,,,,,,,,,,,,,,,,,,,,,,,,,,,,,,,,,,577.6298,right,0.3002,,0.5,0.3,"[2,3,1]",0.005630101,stimuli/card_0_transparent.png,420,0,6,0,6,0,1,,,,,
,,,,,2023-10-09_21h31.56.315,SlotMachine_updated,2023.1.3,Win32,60.09254252,,,,,,,,,,,,,,,,,,,,,,,,,,,,,,,,,,,,,,,,,,,,,,,,,,,,,578.7464,right,0.2837,,0.5,0.3,"[1,2,3]",0.666464174,stimuli/card_0_transparent.png,420,0,7,0,7,0,1,,,,,
,,,,,2023-10-09_21h31.56.315,SlotMachine_updated,2023.1.3,Win32,60.09254252,,,,,,,,,,,,,,,,,,,,,,,,,,,,,,,,,,,,,,,,,,,,,,,,,,,,,579.8464,right,0.0671,,1,0.3,"[1,2,3]",0.750466813,stimuli/card_0_transparent.png,420,0,8,0,8,0,1,,,,,
,,,,,2023-10-09_21h31.56.315,SlotMachine_updated,2023.1.3,Win32,60.09254252,,,,,,,,,,,,,,,,,,,,,,,,,,,,,,,,,,,,,,,,,,,,,,,,,,,,,581.2215,up,0.0552,,1,0.3,"[1,2,3]",0.419606943,stimuli/card_10_transparent.png,430,10,9,0,9,0,1,,,,,
,,,,,2023-10-09_21h31.56.315,SlotMachine_updated,2023.1.3,Win32,60.09254252,,,,,,,,,,,,,,,,,,,,,,,,,,,,,,,,,,,,,,,,,,,,,,,,,,,,,582.5799,up,0.0452,,1,0.3,"[1,2,3]",0.138760549,stimuli/card_100_transparent.png,530,100,10,0,10,0,1,,,,,
,,,,,2023-10-09_21h31.56.315,SlotMachine_updated,2023.1.3,Win32,60.09254252,,,,,,,,,,,,,,,,,,,,,,,,,,,,,,,,,,,,,,,,,,,,,,,,,,,,,583.9631,up,0.2213,,1,0.3,"[1,2,3]",0.482570628,stimuli/card_10_transparent.png,540,10,11,0,11,0,1,,,,,
,,,,,2023-10-09_21h31.56.315,SlotMachine_updated,2023.1.3,Win32,60.09254252,,,,,,,,,,,,,,,,,,,,,,,,,,,,,,,,,,,,,,,,,,,,,,,,,,,,,585.5074,up,0.3666,,1.5,0.3,"[1,2,3]",0.563871642,stimuli/card_10_transparent.png,550,10,12,0,12,0,1,,,,,
,,,,,2023-10-09_21h31.56.315,SlotMachine_updated,2023.1.3,Win32,60.09254252,,,,,,,,,,,,,,,,,,,,,,,,,,,,,,,,,,,,,,,,,,,,,,,,,,,,,587.6738,up,0.0506,,0.5,0.3,"[1,2,3]",0.794668839,stimuli/card_10_transparent.png,560,10,13,0,13,0,1,,,,,
,,,,,2023-10-09_21h31.56.315,SlotMachine_updated,2023.1.3,Win32,60.09254252,,,,,,,,,,,,,,,,,,,,,,,,,,,,,,,,,,,,,,,,,,,,,,,,,,,,,588.5299,up,0.2837,,1.5,0.3,"[1,2,3]",0.607605534,stimuli/card_10_transparent.png,570,10,14,0,14,0,1,,,,,
,,,,,2023-10-09_21h31.56.315,SlotMachine_updated,2023.1.3,Win32,60.09254252,,,,,,,,,,,,,,,,,,,,,,,,,,,,,,590.6468,,,,,,,,,,,,,,,,,,,,,,,,,,,,,,,,,,,,,,,3,0,3,0,1
,,,,,2023-10-09_21h31.56.315,SlotMachine_updated,2023.1.3,Win32,60.09254252,,,,,,,,,,,,,,,,,,,,,,,,,,,,,,,,,,,,,,,,,,,,,,,,,5,6,"[4,10,15]","[[2,3,1],[1,3,2],[3,2,1]]",595.6611,,,,0.5,0.3,,,,,,0,0,0,0,1,,,,,
,,,,,2023-10-09_21h31.56.315,SlotMachine_updated,2023.1.3,Win32,60.09254252,,,,,,,,,,,,,,,,,,,,,,,,,,,,,,,,,,,,,,,,,,,,,,,,,,,,,601.1793,up,0.2364,,1,0.3,"[2,3,1]",0.576687699,stimuli/card_0_transparent.png,0,0,1,0,1,0,1,,,,,
,,,,,2023-10-09_21h31.56.315,SlotMachine_updated,2023.1.3,Win32,60.09254252,,,,,,,,,,,,,,,,,,,,,,,,,,,,,,,,,,,,,,,,,,,,,,,,,,,,,602.7302,up,1.7308,,0.5,0.3,"[2,3,1]",0.720699447,stimuli/card_0_transparent.png,0,0,2,0,2,0,1,,,,,
,,,,,2023-10-09_21h31.56.315,SlotMachine_updated,2023.1.3,Win32,60.09254252,,,,,,,,,,,,,,,,,,,,,,,,,,,,,,,,,,,,,,,,,,,,,,,,,,,,,605.2803,left,0.2936,,1,0.3,"[2,3,1]",0.234031676,stimuli/card_10_transparent.png,10,10,3,0,3,0,1,,,,,
,,,,,2023-10-09_21h31.56.315,SlotMachine_updated,2023.1.3,Win32,60.09254252,,,,,,,,,,,,,,,,,,,,,,,,,,,,,,,,,,,,,,,,,,,,,,,,,,,,,606.897,right,0.2838,,1.5,0.3,"[1,3,2]",0.127950863,stimuli/card_100_transparent.png,110,100,4,0,4,0,1,,,,,
,,,,,2023-10-09_21h31.56.315,SlotMachine_updated,2023.1.3,Win32,60.09254252,,,,,,,,,,,,,,,,,,,,,,,,,,,,,,,,,,,,,,,,,,,,,,,,,,,,,608.9969,right,0.2132,,1,0.3,"[1,3,2]",0.254078362,stimuli/card_10_transparent.png,120,10,5,0,5,0,1,,,,,
,,,,,2023-10-09_21h31.56.315,SlotMachine_updated,2023.1.3,Win32,60.09254252,,,,,,,,,,,,,,,,,,,,,,,,,,,,,,,,,,,,,,,,,,,,,,,,,,,,,610.5305,right,0.6812,,0.5,0.3,"[1,3,2]",0.039762284,stimuli/card_0_transparent.png,120,0,6,0,6,0,1,,,,,
,,,,,2023-10-09_21h31.56.315,SlotMachine_updated,2023.1.3,Win32,60.09254252,,,,,,,,,,,,,,,,,,,,,,,,,,,,,,,,,,,,,,,,,,,,,,,,,,,,,612.0243,up,2.82,,1.5,0.3,"[1,3,2]",0.583172133,stimuli/card_0_transparent.png,120,0,7,0,7,0,1,,,,,
,,,,,2023-10-09_21h31.56.315,SlotMachine_updated,2023.1.3,Win32,60.09254252,,,,,,,,,,,,,,,,,,,,,,,,,,,,,,,,,,,,,,,,,,,,,,,,,,,,,616.6636,right,2.6335,,1,0.3,"[1,3,2]",0.802324312,stimuli/card_10_transparent.png,130,10,8,0,8,0,1,,,,,
,,,,,2023-10-09_21h31.56.315,SlotMachine_updated,2023.1.3,Win32,60.09254252,,,,,,,,,,,,,,,,,,,,,,,,,,,,,,,,,,,,,,,,,,,,,,,,,,,,,620.6047,right,0.5045,,1.5,0.3,"[1,3,2]",0.943821299,stimuli/card_10_transparent.png,140,10,9,0,9,0,1,,,,,
,,,,,2023-10-09_21h31.56.315,SlotMachine_updated,2023.1.3,Win32,60.09254252,,,,,,,,,,,,,,,,,,,,,,,,,,,,,,,,,,,,,,,,,,,,,,,,,,,,,622.9413,left,0.5501,,1.5,0.3,"[3,2,1]",0.440081882,stimuli/card_0_transparent.png,140,0,10,0,10,0,1,,,,,
,,,,,2023-10-09_21h31.56.315,SlotMachine_updated,2023.1.3,Win32,60.09254252,,,,,,,,,,,,,,,,,,,,,,,,,,,,,,,,,,,,,,,,,,,,,,,,,,,,,625.308,up,0.5116,,0.5,0.3,"[3,2,1]",0.085760152,stimuli/card_0_transparent.png,140,0,11,0,11,0,1,,,,,
,,,,,2023-10-09_21h31.56.315,SlotMachine_updated,2023.1.3,Win32,60.09254252,,,,,,,,,,,,,,,,,,,,,,,,,,,,,,,,,,,,,,,,,,,,,,,,,,,,,626.6473,right,0.4164,,0.5,0.3,"[3,2,1]",0.873543607,stimuli/card_100_transparent.png,240,100,12,0,12,0,1,,,,,
,,,,,2023-10-09_21h31.56.315,SlotMachine_updated,2023.1.3,Win32,60.09254252,,,,,,,,,,,,,,,,,,,,,,,,,,,,,,,,,,,,,,,,,,,,,,,,,,,,,627.8807,,,,1.5,0.3,,,,,,13,0,13,0,1,,,,,
,,,,,2023-10-09_21h31.56.315,SlotMachine_updated,2023.1.3,Win32,60.09254252,,,,,,,,,,,,,,,,,,,,,,,,,,,,,,,,,,,,,,,,,,,,,,,,,,,,,633.4046,right,0.4005,,0.5,0.3,"[3,2,1]",0.815982721,stimuli/card_100_transparent.png,340,100,14,0,14,0,1,,,,,
,,,,,2023-10-09_21h31.56.315,SlotMachine_updated,2023.1.3,Win32,60.09254252,,,,,,,,,,,,,,,,,,,,,,,,,,,,,,634.6253,,,,,,,,,,,,,,,,,,,,,,,,,,,,,,,,,,,,,,,4,0,4,0,1
,,,,,2023-10-09_21h31.56.315,SlotMachine_updated,2023.1.3,Win32,60.09254252,,,,,,,,,,,,,,,,,,,,,,,,,,,,,,,,,,,,,,,,,,,,,,,,,6,8,"[11,15]","[[2,1,3],[1,2,3]]",639.622,left,0.4669,,1.5,0.3,"[2,1,3]",0.887503015,stimuli/card_10_transparent.png,10,10,0,0,0,0,1,,,,,
,,,,,2023-10-09_21h31.56.315,SlotMachine_updated,2023.1.3,Win32,60.09254252,,,,,,,,,,,,,,,,,,,,,,,,,,,,,,,,,,,,,,,,,,,,,,,,,,,,,641.8976,left,0.7006,,1.5,0.3,"[2,1,3]",0.705458604,stimuli/card_10_transparent.png,20,10,1,0,1,0,1,,,,,
,,,,,2023-10-09_21h31.56.315,SlotMachine_updated,2023.1.3,Win32,60.09254252,,,,,,,,,,,,,,,,,,,,,,,,,,,,,,,,,,,,,,,,,,,,,,,,,,,,,644.4143,right,0.2668,,1.5,0.3,"[2,1,3]",0.833611941,stimuli/card_0_transparent.png,20,0,2,0,2,0,1,,,,,
,,,,,2023-10-09_21h31.56.315,SlotMachine_updated,2023.1.3,Win32,60.09254252,,,,,,,,,,,,,,,,,,,,,,,,,,,,,,,,,,,,,,,,,,,,,,,,,,,,,646.5087,left,0.1173,,1,0.3,"[2,1,3]",0.290445433,stimuli/card_10_transparent.png,30,10,3,0,3,0,1,,,,,
,,,,,2023-10-09_21h31.56.315,SlotMachine_updated,2023.1.3,Win32,60.09254252,,,,,,,,,,,,,,,,,,,,,,,,,,,,,,,,,,,,,,,,,,,,,,,,,,,,,647.931,left,4.9505,,1,0.3,"[2,1,3]",0.285422012,stimuli/card_10_transparent.png,40,10,4,0,4,0,1,,,,,
,,,,,2023-10-09_21h31.56.315,SlotMachine_updated,2023.1.3,Win32,60.09254252,,,,,,,,,,,,,,,,,,,,,,,,,,,,,,,,,,,,,,,,,,,,,,,,,,,,,654.1977,left,1.7336,,1,0.3,"[2,1,3]",0.912883189,stimuli/card_10_transparent.png,50,10,5,0,5,0,1,,,,,
,,,,,2023-10-09_21h31.56.315,SlotMachine_updated,2023.1.3,Win32,60.09254252,,,,,,,,,,,,,,,,,,,,,,,,,,,,,,,,,,,,,,,,,,,,,,,,,,,,,657.2646,,,,1,0.3,,,,,,6,0,6,0,1,,,,,
,,,,,2023-10-09_21h31.56.315,SlotMachine_updated,2023.1.3,Win32,60.09254252,,,,,,,,,,,,,,,,,,,,,,,,,,,,,,,,,,,,,,,,,,,,,,,,,,,,,685.8013,left,1.0735,,1,0.3,"[2,1,3]",0.708062838,stimuli/card_10_transparent.png,60,10,7,0,7,0,1,,,,,
,,,,,2023-10-09_21h31.56.315,SlotMachine_updated,2023.1.3,Win32,60.09254252,,,,,,,,,,,,,,,,,,,,,,,,,,,,,,,,,,,,,,,,,,,,,,,,,,,,,688.2988,right,0.1004,,0.5,0.3,"[2,1,3]",0.224855847,stimuli/card_0_transparent.png,60,0,8,0,8,0,1,,,,,
,,,,,2023-10-09_21h31.56.315,SlotMachine_updated,2023.1.3,Win32,60.09254252,,,,,,,,,,,,,,,,,,,,,,,,,,,,,,,,,,,,,,,,,,,,,,,,,,,,,689.2319,left,0.288,,1,0.3,"[2,1,3]",0.096716485,stimuli/card_0_transparent.png,60,0,9,0,9,0,1,,,,,
,,,,,2023-10-09_21h31.56.315,SlotMachine_updated,2023.1.3,Win32,60.09254252,,,,,,,,,,,,,,,,,,,,,,,,,,,,,,,,,,,,,,,,,,,,,,,,,,,,,690.8427,right,0.0004,,0.5,0.3,"[2,1,3]",0.800083467,stimuli/card_0_transparent.png,60,0,10,0,10,0,1,,,,,
,,,,,2023-10-09_21h31.56.315,SlotMachine_updated,2023.1.3,Win32,60.09254252,,,,,,,,,,,,,,,,,,,,,,,,,,,,,,,,,,,,,,,,,,,,,,,,,,,,,691.6485,left,0.2667,,0.5,0.3,"[1,2,3]",0.724447637,stimuli/card_100_transparent.png,160,100,11,0,11,0,1,,,,,
,,,,,2023-10-09_21h31.56.315,SlotMachine_updated,2023.1.3,Win32,60.09254252,,,,,,,,,,,,,,,,,,,,,,,,,,,,,,,,,,,,,,,,,,,,,,,,,,,,,692.726,right,0.034,,1,0.3,"[1,2,3]",0.710552521,stimuli/card_0_transparent.png,160,0,12,0,12,0,1,,,,,
,,,,,2023-10-09_21h31.56.315,SlotMachine_updated,2023.1.3,Win32,60.09254252,,,,,,,,,,,,,,,,,,,,,,,,,,,,,,,,,,,,,,,,,,,,,,,,,,,,,694.0727,left,0.5131,,0.5,0.3,"[1,2,3]",0.499467347,stimuli/card_100_transparent.png,260,100,13,0,13,0,1,,,,,
,,,,,2023-10-09_21h31.56.315,SlotMachine_updated,2023.1.3,Win32,60.09254252,,,,,,,,,,,,,,,,,,,,,,,,,,,,,,,,,,,,,,,,,,,,,,,,,,,,,695.3986,left,0.2335,,1.5,0.3,"[1,2,3]",0.338379264,stimuli/card_100_transparent.png,360,100,14,0,14,0,1,,,,,
,,,,,2023-10-09_21h31.56.315,SlotMachine_updated,2023.1.3,Win32,60.09254252,,,,,,,,,,,,,,,,,,,,,,,,,,,,,,697.4485,,,,,,,,,,,,,,,,,,,,,,,,,,,,,,,,,,,,,,,5,0,5,0,1
,,,,,2023-10-09_21h31.56.315,SlotMachine_updated,2023.1.3,Win32,60.09254252,,,,,,,,,,,,,,,,,,,,,,,,,,,,,,,,,,,,,,,,,,,,,,,,,7,9,"[8,15]","[[3,2,1],[3,1,2]]",702.4571,right,0.4335,,1.5,0.3,"[3,2,1]",0.478309033,stimuli/card_100_transparent.png,100,100,0,0,0,0,1,,,,,
,,,,,2023-10-09_21h31.56.315,SlotMachine_updated,2023.1.3,Win32,60.09254252,,,,,,,,,,,,,,,,,,,,,,,,,,,,,,,,,,,,,,,,,,,,,,,,,,,,,704.7259,right,0.1835,,1.5,0.3,"[3,2,1]",0.438058131,stimuli/card_100_transparent.png,200,100,1,0,1,0,1,,,,,
,,,,,2023-10-09_21h31.56.315,SlotMachine_updated,2023.1.3,Win32,60.09254252,,,,,,,,,,,,,,,,,,,,,,,,,,,,,,,,,,,,,,,,,,,,,,,,,,,,,706.7267,right,3.4005,,0.5,0.3,"[3,2,1]",0.657825926,stimuli/card_100_transparent.png,300,100,2,0,2,0,1,,,,,
,,,,,2023-10-09_21h31.56.315,SlotMachine_updated,2023.1.3,Win32,60.09254252,,,,,,,,,,,,,,,,,,,,,,,,,,,,,,,,,,,,,,,,,,,,,,,,,,,,,710.96,left,0.3003,,1.5,0.3,"[3,2,1]",0.986889112,stimuli/card_0_transparent.png,300,0,3,0,3,0,1,,,,,
,,,,,2023-10-09_21h31.56.315,SlotMachine_updated,2023.1.3,Win32,60.09254252,,,,,,,,,,,,,,,,,,,,,,,,,,,,,,,,,,,,,,,,,,,,,,,,,,,,,713.0764,right,1.3171,,0.5,0.3,"[3,2,1]",0.755738388,stimuli/card_100_transparent.png,400,100,4,0,4,0,1,,,,,
,,,,,2023-10-09_21h31.56.315,SlotMachine_updated,2023.1.3,Win32,60.09254252,,,,,,,,,,,,,,,,,,,,,,,,,,,,,,,,,,,,,,,,,,,,,,,,,,,,,715.2067,left,0.2887,,1.5,0.3,"[3,2,1]",0.04909458,stimuli/card_100_transparent.png,500,100,5,0,5,0,1,,,,,
,,,,,2023-10-09_21h31.56.315,SlotMachine_updated,2023.1.3,Win32,60.09254252,,,,,,,,,,,,,,,,,,,,,,,,,,,,,,,,,,,,,,,,,,,,,,,,,,,,,717.2991,right,0.5046,,1.5,0.3,"[3,2,1]",0.881010808,stimuli/card_100_transparent.png,600,100,6,0,6,0,1,,,,,
,,,,,2023-10-09_21h31.56.315,SlotMachine_updated,2023.1.3,Win32,60.09254252,,,,,,,,,,,,,,,,,,,,,,,,,,,,,,,,,,,,,,,,,,,,,,,,,,,,,719.6265,left,0.1171,,1.5,0.3,"[3,2,1]",0.714990924,stimuli/card_0_transparent.png,600,0,7,0,7,0,1,,,,,
,,,,,2023-10-09_21h31.56.315,SlotMachine_updated,2023.1.3,Win32,60.09254252,,,,,,,,,,,,,,,,,,,,,,,,,,,,,,,,,,,,,,,,,,,,,,,,,,,,,721.5576,right,3.2394,,1,0.3,"[3,1,2]",0.034598217,stimuli/card_0_transparent.png,600,0,8,0,8,0,1,,,,,
,,,,,2023-10-09_21h31.56.315,SlotMachine_updated,2023.1.3,Win32,60.09254252,,,,,,,,,,,,,,,,,,,,,,,,,,,,,,,,,,,,,,,,,,,,,,,,,,,,,726.0993,right,4.2338,,1,0.3,"[3,1,2]",0.366511594,stimuli/card_10_transparent.png,610,10,9,0,9,0,1,,,,,
,,,,,2023-10-09_21h31.56.315,SlotMachine_updated,2023.1.3,Win32,60.09254252,,,,,,,,,,,,,,,,,,,,,,,,,,,,,,,,,,,,,,,,,,,,,,,,,,,,,731.666,left,1.0499,,1,0.3,"[3,1,2]",0.214002706,stimuli/card_0_transparent.png,610,0,10,0,10,0,1,,,,,
,,,,,2023-10-09_21h31.56.315,SlotMachine_updated,2023.1.3,Win32,60.09254252,,,,,,,,,,,,,,,,,,,,,,,,,,,,,,,,,,,,,,,,,,,,,,,,,,,,,734.0327,right,3.3676,,0.5,0.3,"[3,1,2]",0.395850072,stimuli/card_10_transparent.png,620,10,11,0,11,0,1,,,,,
,,,,,2023-10-09_21h31.56.315,SlotMachine_updated,2023.1.3,Win32,60.09254252,,,,,,,,,,,,,,,,,,,,,,,,,,,,,,,,,,,,,,,,,,,,,,,,,,,,,738.2162,left,0.5663,,1.5,0.3,"[3,1,2]",0.853125698,stimuli/card_0_transparent.png,620,0,12,0,12,0,1,,,,,
,,,,,2023-10-09_21h31.56.315,SlotMachine_updated,2023.1.3,Win32,60.09254252,,,,,,,,,,,,,,,,,,,,,,,,,,,,,,,,,,,,,,,,,,,,,,,,,,,,,740.5938,left,1.681,,0.5,0.3,"[3,1,2]",0.613757045,stimuli/card_0_transparent.png,620,0,13,0,13,0,1,,,,,
,,,,,2023-10-09_21h31.56.315,SlotMachine_updated,2023.1.3,Win32,60.09254252,,,,,,,,,,,,,,,,,,,,,,,,,,,,,,,,,,,,,,,,,,,,,,,,,,,,,743.091,right,0.0162,,1,0.3,"[3,1,2]",0.027447942,stimuli/card_0_transparent.png,620,0,14,0,14,0,1,,,,,
,,,,,2023-10-09_21h31.56.315,SlotMachine_updated,2023.1.3,Win32,60.09254252,,,,,,,,,,,,,,,,,,,,,,,,,,,,,,744.4327,,,,,,,,,,,,,,,,,,,,,,,,,,,,,,,,,,,,,,,6,0,6,0,1
,,,,,2023-10-09_21h31.56.315,SlotMachine_updated,2023.1.3,Win32,60.09254252,,,,,,,,,,,,,,,,,,,,,,,,,,,,,,,,,,,,,,,,,,,,,,,,,8,2,"[6,15]","[[1,3,2],[3,2,1]]",749.4413,,,,1.5,0.3,,,,,,0,0,0,0,1,,,,,
,,,,,2023-10-09_21h31.56.315,SlotMachine_updated,2023.1.3,Win32,60.09254252,,,,,,,,,,,,,,,,,,,,,,,,,,,,,,,,,,,,,,,,,,,,,,,,,,,,,754.9578,right,0.2168,,1,0.3,"[1,3,2]",0.015010773,stimuli/card_0_transparent.png,0,0,1,0,1,0,1,,,,,
,,,,,2023-10-09_21h31.56.315,SlotMachine_updated,2023.1.3,Win32,60.09254252,,,,,,,,,,,,,,,,,,,,,,,,,,,,,,,,,,,,,,,,,,,,,,,,,,,,,756.4831,left,1.5812,,1,0.3,"[1,3,2]",0.010024028,stimuli/card_0_transparent.png,0,0,2,0,2,0,1,,,,,
,,,,,2023-10-09_21h31.56.315,SlotMachine_updated,2023.1.3,Win32,60.09254252,,,,,,,,,,,,,,,,,,,,,,,,,,,,,,,,,,,,,,,,,,,,,,,,,,,,,759.3835,right,0.5218,,0.5,0.3,"[1,3,2]",0.357980051,stimuli/card_10_transparent.png,10,10,3,0,3,0,1,,,,,
,,,,,2023-10-09_21h31.56.315,SlotMachine_updated,2023.1.3,Win32,60.09254252,,,,,,,,,,,,,,,,,,,,,,,,,,,,,,,,,,,,,,,,,,,,,,,,,,,,,760.7271,,,,1,0.3,,,,,,4,0,4,0,1,,,,,
,,,,,2023-10-09_21h31.56.315,SlotMachine_updated,2023.1.3,Win32,60.09254252,,,,,,,,,,,,,,,,,,,,,,,,,,,,,,,,,,,,,,,,,,,,,,,,,,,,,770.0369,left,0.719,,1,0.3,"[1,3,2]",0.559683274,stimuli/card_100_transparent.png,110,100,5,0,5,0,1,,,,,
,,,,,2023-10-09_21h31.56.315,SlotMachine_updated,2023.1.3,Win32,60.09254252,,,,,,,,,,,,,,,,,,,,,,,,,,,,,,,,,,,,,,,,,,,,,,,,,,,,,772.211,right,0.0669,,1,0.3,"[3,2,1]",0.788646116,stimuli/card_100_transparent.png,210,100,6,0,6,0,1,,,,,
,,,,,2023-10-09_21h31.56.315,SlotMachine_updated,2023.1.3,Win32,60.09254252,,,,,,,,,,,,,,,,,,,,,,,,,,,,,,,,,,,,,,,,,,,,,,,,,,,,,773.5779,left,0.0333,,1,0.3,"[3,2,1]",0.285088414,stimuli/card_0_transparent.png,210,0,7,0,7,0,1,,,,,
,,,,,2023-10-09_21h31.56.315,SlotMachine_updated,2023.1.3,Win32,60.09254252,,,,,,,,,,,,,,,,,,,,,,,,,,,,,,,,,,,,,,,,,,,,,,,,,,,,,774.9276,right,0.5046,,0.5,0.3,"[3,2,1]",0.630818349,stimuli/card_100_transparent.png,310,100,8,0,8,0,1,,,,,
,,,,,2023-10-09_21h31.56.315,SlotMachine_updated,2023.1.3,Win32,60.09254252,,,,,,,,,,,,,,,,,,,,,,,,,,,,,,,,,,,,,,,,,,,,,,,,,,,,,776.2609,right,0.6507,,0.5,0.3,"[3,2,1]",0.038345045,stimuli/card_0_transparent.png,310,0,9,0,9,0,1,,,,,
,,,,,2023-10-09_21h31.56.315,SlotMachine_updated,2023.1.3,Win32,60.09254252,,,,,,,,,,,,,,,,,,,,,,,,,,,,,,,,,,,,,,,,,,,,,,,,,,,,,777.7275,left,0.2836,,0.5,0.3,"[3,2,1]",0.884715783,stimuli/card_0_transparent.png,310,0,10,0,10,0,1,,,,,
,,,,,2023-10-09_21h31.56.315,SlotMachine_updated,2023.1.3,Win32,60.09254252,,,,,,,,,,,,,,,,,,,,,,,,,,,,,,,,,,,,,,,,,,,,,,,,,,,,,778.8169,right,0.3002,,0.5,0.3,"[3,2,1]",0.286182246,stimuli/card_100_transparent.png,410,100,11,0,11,0,1,,,,,
,,,,,2023-10-09_21h31.56.315,SlotMachine_updated,2023.1.3,Win32,60.09254252,,,,,,,,,,,,,,,,,,,,,,,,,,,,,,,,,,,,,,,,,,,,,,,,,,,,,779.9276,left,0.3338,,1,0.3,"[3,2,1]",0.917111296,stimuli/card_0_transparent.png,410,0,12,0,12,0,1,,,,,
,,,,,2023-10-09_21h31.56.315,SlotMachine_updated,2023.1.3,Win32,60.09254252,,,,,,,,,,,,,,,,,,,,,,,,,,,,,,,,,,,,,,,,,,,,,,,,,,,,,781.5582,right,0.4717,,0.5,0.3,"[3,2,1]",0.400239195,stimuli/card_100_transparent.png,510,100,13,0,13,0,1,,,,,
,,,,,2023-10-09_21h31.56.315,SlotMachine_updated,2023.1.3,Win32,60.09254252,,,,,,,,,,,,,,,,,,,,,,,,,,,,,,,,,,,,,,,,,,,,,,,,,,,,,782.8579,right,0.4671,,1.5,0.3,"[3,2,1]",0.46988079,stimuli/card_100_transparent.png,610,100,14,0,14,0,1,,,,,
,,,,,2023-10-09_21h31.56.315,SlotMachine_updated,2023.1.3,Win32,60.09254252,,,,,,,,,,,,,,,,,,,,,,,,,,,,,,785.1443,,,,,,,,,,,,,,,,,,,,,,,,,,,,,,,,,,,,,,,7,0,7,0,1
,,,,,2023-10-09_21h31.56.315,SlotMachine_updated,2023.1.3,Win32,60.09254252,,,,,,,,,,,,,,,,,,,,,,,,,,,,,,,,,,,,,,,,,,,,,,,,,9,10,"[10,15]","[[3,1,2],[1,3,2]]",790.1407,right,0.8836,,1.5,0.3,"[3,1,2]",0.278830027,stimuli/card_10_transparent.png,10,10,0,0,0,0,1,,,,,
,,,,,2023-10-09_21h31.56.315,SlotMachine_updated,2023.1.3,Win32,60.09254252,,,,,,,,,,,,,,,,,,,,,,,,,,,,,,,,,,,,,,,,,,,,,,,,,,,,,792.8448,up,0.8511,,1.5,0.3,"[3,1,2]",0.147875495,stimuli/card_10_transparent.png,20,10,1,0,1,0,1,,,,,
,,,,,2023-10-09_21h31.56.315,SlotMachine_updated,2023.1.3,Win32,60.09254252,,,,,,,,,,,,,,,,,,,,,,,,,,,,,,,,,,,,,,,,,,,,,,,,,,,,,795.5176,left,0.2499,,1,0.3,"[3,1,2]",0.826166093,stimuli/card_0_transparent.png,20,0,2,0,2,0,1,,,,,
,,,,,2023-10-09_21h31.56.315,SlotMachine_updated,2023.1.3,Win32,60.09254252,,,,,,,,,,,,,,,,,,,,,,,,,,,,,,,,,,,,,,,,,,,,,,,,,,,,,797.078,up,0.3834,,1,0.3,"[3,1,2]",0.731532787,stimuli/card_100_transparent.png,120,100,3,0,3,0,1,,,,,
,,,,,2023-10-09_21h31.56.315,SlotMachine_updated,2023.1.3,Win32,60.09254252,,,,,,,,,,,,,,,,,,,,,,,,,,,,,,,,,,,,,,,,,,,,,,,,,,,,,798.7839,up,0.2888,,0.5,0.3,"[3,1,2]",0.452568386,stimuli/card_100_transparent.png,220,100,4,0,4,0,1,,,,,
,,,,,2023-10-09_21h31.56.315,SlotMachine_updated,2023.1.3,Win32,60.09254252,,,,,,,,,,,,,,,,,,,,,,,,,,,,,,,,,,,,,,,,,,,,,,,,,,,,,799.9006,right,0.4302,,0.5,0.3,"[3,1,2]",0.173979535,stimuli/card_100_transparent.png,320,100,5,0,5,0,1,,,,,
,,,,,2023-10-09_21h31.56.315,SlotMachine_updated,2023.1.3,Win32,60.09254252,,,,,,,,,,,,,,,,,,,,,,,,,,,,,,,,,,,,,,,,,,,,,,,,,,,,,801.1612,left,0.5007,,1.5,0.3,"[3,1,2]",0.563147219,stimuli/card_0_transparent.png,320,0,6,0,6,0,1,,,,,
,,,,,2023-10-09_21h31.56.315,SlotMachine_updated,2023.1.3,Win32,60.09254252,,,,,,,,,,,,,,,,,,,,,,,,,,,,,,,,,,,,,,,,,,,,,,,,,,,,,803.4673,up,0.1671,,0.5,0.3,"[3,1,2]",0.052200392,stimuli/card_0_transparent.png,320,0,7,0,7,0,1,,,,,
,,,,,2023-10-09_21h31.56.315,SlotMachine_updated,2023.1.3,Win32,60.09254252,,,,,,,,,,,,,,,,,,,,,,,,,,,,,,,,,,,,,,,,,,,,,,,,,,,,,804.4507,right,0.8498,,1.5,0.3,"[3,1,2]",0.999816334,stimuli/card_10_transparent.png,330,10,8,0,8,0,1,,,,,
,,,,,2023-10-09_21h31.56.315,SlotMachine_updated,2023.1.3,Win32,60.09254252,,,,,,,,,,,,,,,,,,,,,,,,,,,,,,,,,,,,,,,,,,,,,,,,,,,,,807.1341,left,0.4879,,1,0.3,"[3,1,2]",0.092900478,stimuli/card_100_transparent.png,430,100,9,0,9,0,1,,,,,
,,,,,2023-10-09_21h31.56.315,SlotMachine_updated,2023.1.3,Win32,60.09254252,,,,,,,,,,,,,,,,,,,,,,,,,,,,,,,,,,,,,,,,,,,,,,,,,,,,,808.9413,right,0.3717,,0.5,0.3,"[1,3,2]",0.75687788,stimuli/card_10_transparent.png,440,10,10,0,10,0,1,,,,,
,,,,,2023-10-09_21h31.56.315,SlotMachine_updated,2023.1.3,Win32,60.09254252,,,,,,,,,,,,,,,,,,,,,,,,,,,,,,,,,,,,,,,,,,,,,,,,,,,,,810.1287,left,0.3224,,1.5,0.3,"[1,3,2]",0.319627181,stimuli/card_100_transparent.png,540,100,11,0,11,0,1,,,,,
,,,,,2023-10-09_21h31.56.315,SlotMachine_updated,2023.1.3,Win32,60.09254252,,,,,,,,,,,,,,,,,,,,,,,,,,,,,,,,,,,,,,,,,,,,,,,,,,,,,812.2341,up,0.1503,,1,0.3,"[1,3,2]",0.887309262,stimuli/card_0_transparent.png,540,0,12,0,12,0,1,,,,,
,,,,,2023-10-09_21h31.56.315,SlotMachine_updated,2023.1.3,Win32,60.09254252,,,,,,,,,,,,,,,,,,,,,,,,,,,,,,,,,,,,,,,,,,,,,,,,,,,,,813.7085,right,0.317,,1,0.3,"[1,3,2]",0.520268436,stimuli/card_10_transparent.png,550,10,13,0,13,0,1,,,,,
,,,,,2023-10-09_21h31.56.315,SlotMachine_updated,2023.1.3,Win32,60.09254252,,,,,,,,,,,,,,,,,,,,,,,,,,,,,,,,,,,,,,,,,,,,,,,,,,,,,815.3345,right,0.5335,,1,0.3,"[1,3,2]",0.288592022,stimuli/card_10_transparent.png,560,10,14,0,14,0,1,,,,,
,,,,,2023-10-09_21h31.56.315,SlotMachine_updated,2023.1.3,Win32,60.09254252,,,,,,,,,,,,,,,,,,,,,,,,,,,,,,817.1843,,,,,,,,,,,,,,,,,,,,,,,,,,,,,,,,,,,,,,,8,0,8,0,1
,,,,,2023-10-09_21h31.56.315,SlotMachine_updated,2023.1.3,Win32,60.09254252,,,,,,,,,,,,,,,,,,,,,,,,,,,,,,,,,,,,,,,,,,,,,,,,,10,3,"[15,15]","[[3,1,2],[3,1,2]]",822.1854,up,0.2516,,0.5,0.3,"[3,1,2]",0.634184228,stimuli/card_100_transparent.png,100,100,0,0,0,0,1,,,,,
,,,,,2023-10-09_21h31.56.315,SlotMachine_updated,2023.1.3,Win32,60.09254252,,,,,,,,,,,,,,,,,,,,,,,,,,,,,,,,,,,,,,,,,,,,,,,,,,,,,823.2347,right,0.8167,,1.5,0.3,"[3,1,2]",0.32796421,stimuli/card_10_transparent.png,110,10,1,0,1,0,1,,,,,
,,,,,2023-10-09_21h31.56.315,SlotMachine_updated,2023.1.3,Win32,60.09254252,,,,,,,,,,,,,,,,,,,,,,,,,,,,,,,,,,,,,,,,,,,,,,,,,,,,,825.8786,left,0.4509,,0.5,0.3,"[3,1,2]",0.962248631,stimuli/card_0_transparent.png,110,0,2,0,2,0,1,,,,,
,,,,,2023-10-09_21h31.56.315,SlotMachine_updated,2023.1.3,Win32,60.09254252,,,,,,,,,,,,,,,,,,,,,,,,,,,,,,,,,,,,,,,,,,,,,,,,,,,,,827.1344,,,,0.5,0.3,,,,,,3,0,3,0,1,,,,,
,,,,,2023-10-09_21h31.56.315,SlotMachine_updated,2023.1.3,Win32,60.09254252,,,,,,,,,,,,,,,,,,,,,,,,,,,,,,,,,,,,,,,,,,,,,,,,,,,,,832.6525,,,,1.5,0.3,,,,,,4,0,4,0,1,,,,,
,,,,,2023-10-09_21h31.56.315,SlotMachine_updated,2023.1.3,Win32,60.09254252,,,,,,,,,,,,,,,,,,,,,,,,,,,,,,,,,,,,,,,,,,,,,,,,,,,,,838.1763,,,,0.5,0.3,,,,,,5,0,5,0,1,,,,,
,,,,,2023-10-09_21h31.56.315,SlotMachine_updated,2023.1.3,Win32,60.09254252,,,,,,,,,,,,,,,,,,,,,,,,,,,,,,,,,,,,,,,,,,,,,,,,,,,,,843.6862,,,,1,0.3,,,,,,6,0,6,0,1,,,,,
,,,,,2023-10-09_21h31.56.315,SlotMachine_updated,2023.1.3,Win32,60.09254252,,,,,,,,,,,,,,,,,,,,,,,,,,,,,,,,,,,,,,,,,,,,,,,,,,,,,849.2021,,,,1.5,0.3,,,,,,7,0,7,0,1,,,,,
,,,,,2023-10-09_21h31.56.315,SlotMachine_updated,2023.1.3,Win32,60.09254252,,,,,,,,,,,,,,,,,,,,,,,,,,,,,,,,,,,,,,,,,,,,,,,,,,,,,854.7159,up,3.2671,,1,0.3,"[3,1,2]",0.945215414,stimuli/card_100_transparent.png,210,100,8,0,8,0,1,,,,,
,,,,,2023-10-09_21h31.56.315,SlotMachine_updated,2023.1.3,Win32,60.09254252,,,,,,,,,,,,,,,,,,,,,,,,,,,,,,,,,,,,,,,,,,,,,,,,,,,,,859.2958,right,1.4871,,1,0.3,"[3,1,2]",0.378898271,stimuli/card_10_transparent.png,220,10,9,0,9,0,1,,,,,
,,,,,2023-10-09_21h31.56.315,SlotMachine_updated,2023.1.3,Win32,60.09254252,,,,,,,,,,,,,,,,,,,,,,,,,,,,,,,,,,,,,,,,,,,,,,,,,,,,,862.0907,left,0.0837,,0.5,0.3,"[3,1,2]",0.263394122,stimuli/card_0_transparent.png,220,0,10,0,10,0,1,,,,,
,,,,,2023-10-09_21h31.56.315,SlotMachine_updated,2023.1.3,Win32,60.09254252,,,,,,,,,,,,,,,,,,,,,,,,,,,,,,,,,,,,,,,,,,,,,,,,,,,,,862.9853,right,0.3503,,1,0.3,"[3,1,2]",0.637393164,stimuli/card_10_transparent.png,230,10,11,0,11,0,1,,,,,
,,,,,2023-10-09_21h31.56.315,SlotMachine_updated,2023.1.3,Win32,60.09254252,,,,,,,,,,,,,,,,,,,,,,,,,,,,,,,,,,,,,,,,,,,,,,,,,,,,,864.6519,left,0.5171,,0.5,0.3,"[3,1,2]",0.528568198,stimuli/card_0_transparent.png,230,0,12,0,12,0,1,,,,,
,,,,,2023-10-09_21h31.56.315,SlotMachine_updated,2023.1.3,Win32,60.09254252,,,,,,,,,,,,,,,,,,,,,,,,,,,,,,,,,,,,,,,,,,,,,,,,,,,,,865.9958,right,0.3172,,1.5,0.3,"[3,1,2]",0.565022443,stimuli/card_10_transparent.png,240,10,13,0,13,0,1,,,,,
,,,,,2023-10-09_21h31.56.315,SlotMachine_updated,2023.1.3,Win32,60.09254252,,,,,,,,,,,,,,,,,,,,,,,,,,,,,,,,,,,,,,,,,,,,,,,,,,,,,868.1125,left,0.0998,,0.5,0.3,"[3,1,2]",0.494053228,stimuli/card_0_transparent.png,240,0,14,0,14,0,1,,,,,
,,,,,2023-10-09_21h31.56.315,SlotMachine_updated,2023.1.3,Win32,60.09254252,,,,,,,,,,,,,,,,,,,,,,,,,,,,,,869.0185,,,,,,,,,,,,,,,,,,,,,,,,,,,,,,,,,,,,,,,9,0,9,0,1
,,,,,2023-10-09_21h31.56.315,SlotMachine_updated,2023.1.3,Win32,60.09254252,,,,,,,,,,,,,,,,,,,,,,,,,,,,,,,,,,,,,,,,,,,,,,,,,,,,,,,,,,,,,,,,,,,,,,,,,
