participant,date,expName,psychopyVersion,OS,frameRate,key_resp_practice_instruction.started,key_resp_practice_instruction.keys,key_resp_practice_instruction.rt,key_resp_practice_instruction.duration,key_resp.started,key_resp.keys,key_resp.rt,key_resp.duration,key_resp_practice_reset.keys,key_resp_practice_reset.rt,key_resp_practice_reset.duration,key_resp_practice_slots.started,key_resp_practice_slots.keys,key_resp_practice_slots.rt,key_resp_practice_slots.duration,presentationInterval,reward_seq,reward_Img,Cuml_rew,currentTrialReward,practice_trials.thisRepN,practice_trials.thisTrialN,practice_trials.thisN,practice_trials.thisIndex,practice_trials.ran,key_resp_practice_end.started,key_resp_practice_end.keys,key_resp_practice_end.rt,key_resp_practice_end.duration,text_main_instruction.started,key_resp_main_instruction.started,key_resp_main_instruction.keys,key_resp_main_instruction.rt,key_resp_main_instruction.duration,conditions,currentCondition,conditionsAfterRemoval,key_resp_slots_presentation.started,key_resp_slots_presentation.keys,key_resp_slots_presentation.rt,key_resp_slots_presentation.duration,Main_presentationInterval,Main_reward_seq,Random value generated,Main_reward_Img,Main_Cuml_rew,Main_currentTrialReward,main_trials.thisRepN,main_trials.thisTrialN,main_trials.thisN,main_trials.thisIndex,main_trials.ran,text_block_break.started,block.thisRepN,block.thisTrialN,block.thisN,block.thisIndex,block.ran
,2023-08-30_13h47.55.372,slotMachine_updated,2023.1.3,MacIntel,60.06006006,,,,,,,,,,,,,,,,,,,,,,,,,,,,,,,,,,,,,,,,,,,,,,,,,,,,,,,,,,
,2023-08-30_13h47.55.372,slotMachine_updated,2023.1.3,MacIntel,60.06006006,124.9526,space,879.2329,,,,,,,,,,,,,,,,,,,,,,,,,,,,,,,,,,,,,,,,,,,,,,,,,,,,,,,
,2023-08-30_13h47.55.372,slotMachine_updated,2023.1.3,MacIntel,60.06006006,,,,,1004.2125,space,0.9252,,,,,,,,,,,,,,,,,,,,,,,,,,,,,,,,,,,,,,,,,,,,,,,,,,,
,2023-08-30_13h47.55.372,slotMachine_updated,2023.1.3,MacIntel,60.06006006,,,,,,,,,space,1.6125,,,,,,,,,,,,,,,,,,,,,,,,,,,,,,,,,,,,,,,,,,,,,,,,
,2023-08-30_13h47.55.372,slotMachine_updated,2023.1.3,MacIntel,60.06006006,,,,,,,,,,,,1006.7939,up,1.1126,,0.5,"[2,1,3]",stimuli/card_100_transparent.png,100,100,0,0,0,0,1,,,,,,,,,,,,,,,,,,,,,,,,,,,,,,,,,
,2023-08-30_13h47.55.372,slotMachine_updated,2023.1.3,MacIntel,60.06006006,,,,,,,,,,,,1008.7555,right,1.2308,,1,"[2,1,3]",stimuli/card_100_transparent.png,200,100,1,0,1,0,1,,,,,,,,,,,,,,,,,,,,,,,,,,,,,,,,,
,2023-08-30_13h47.55.372,slotMachine_updated,2023.1.3,MacIntel,60.06006006,,,,,,,,,,,,1011.3086,up,0.7556,,1.5,"[2,1,3]",stimuli/card_100_transparent.png,300,100,2,0,2,0,1,,,,,,,,,,,,,,,,,,,,,,,,,,,,,,,,,
,2023-08-30_13h47.55.372,slotMachine_updated,2023.1.3,MacIntel,60.06006006,,,,,,,,,,,,1013.8901,up,0.2959,,1.5,"[2,1,3]",stimuli/card_100_transparent.png,400,100,3,0,3,0,1,,,,,,,,,,,,,,,,,,,,,,,,,,,,,,,,,
,2023-08-30_13h47.55.372,slotMachine_updated,2023.1.3,MacIntel,60.06006006,,,,,,,,,,,,1016.0081,up,0.2861,,1.5,"[2,1,3]",stimuli/card_10_transparent.png,410,10,4,0,4,0,1,,,,,,,,,,,,,,,,,,,,,,,,,,,,,,,,,
,2023-08-30_13h47.55.372,slotMachine_updated,2023.1.3,MacIntel,60.06006006,,,,,,,,,,,,1018.1211,up,0.6395,,1,"[2,1,3]",stimuli/card_100_transparent.png,510,100,5,0,5,0,1,,,,,,,,,,,,,,,,,,,,,,,,,,,,,,,,,
,2023-08-30_13h47.55.372,slotMachine_updated,2023.1.3,MacIntel,60.06006006,,,,,,,,,,,,1020.0812,left,0.774,,1,"[2,1,3]",stimuli/card_10_transparent.png,520,10,6,0,6,0,1,,,,,,,,,,,,,,,,,,,,,,,,,,,,,,,,,
,2023-08-30_13h47.55.372,slotMachine_updated,2023.1.3,MacIntel,60.06006006,,,,,,,,,,,,1022.1674,left,0.742,,0.5,"[2,1,3]",stimuli/card_10_transparent.png,530,10,7,0,7,0,1,,,,,,,,,,,,,,,,,,,,,,,,,,,,,,,,,
,2023-08-30_13h47.55.372,slotMachine_updated,2023.1.3,MacIntel,60.06006006,,,,,,,,,,,,1023.7305,up,0.5815,,1.5,"[2,1,3]",stimuli/card_100_transparent.png,630,100,8,0,8,0,1,,,,,,,,,,,,,,,,,,,,,,,,,,,,,,,,,
,2023-08-30_13h47.55.372,slotMachine_updated,2023.1.3,MacIntel,60.06006006,,,,,,,,,,,,1026.1298,up,0.5598,,1.5,"[2,3,1]",stimuli/card_0_transparent.png,630,0,9,0,9,0,1,,,,,,,,,,,,,,,,,,,,,,,,,,,,,,,,,
,2023-08-30_13h47.55.372,slotMachine_updated,2023.1.3,MacIntel,60.06006006,,,,,,,,,,,,1028.5093,up,0.6359,,0.5,"[2,3,1]",stimuli/card_0_transparent.png,630,0,10,0,10,0,1,,,,,,,,,,,,,,,,,,,,,,,,,,,,,,,,,
,2023-08-30_13h47.55.372,slotMachine_updated,2023.1.3,MacIntel,60.06006006,,,,,,,,,,,,1029.9599,right,0.673,,1,"[2,3,1]",stimuli/card_100_transparent.png,730,100,11,0,11,0,1,,,,,,,,,,,,,,,,,,,,,,,,,,,,,,,,,
,2023-08-30_13h47.55.372,slotMachine_updated,2023.1.3,MacIntel,60.06006006,,,,,,,,,,,,1031.944,up,0.7754,,1.5,"[2,3,1]",stimuli/card_0_transparent.png,730,0,12,0,12,0,1,,,,,,,,,,,,,,,,,,,,,,,,,,,,,,,,,
,2023-08-30_13h47.55.372,slotMachine_updated,2023.1.3,MacIntel,60.06006006,,,,,,,,,,,,1034.5413,left,0.7465,,1.5,"[2,3,1]",stimuli/card_100_transparent.png,830,100,13,0,13,0,1,,,,,,,,,,,,,,,,,,,,,,,,,,,,,,,,,
,2023-08-30_13h47.55.372,slotMachine_updated,2023.1.3,MacIntel,60.06006006,,,,,,,,,,,,1037.1063,up,0.6125,,1,"[2,3,1]",stimuli/card_0_transparent.png,830,0,14,0,14,0,1,,,,,,,,,,,,,,,,,,,,,,,,,,,,,,,,,
,2023-08-30_13h47.55.372,slotMachine_updated,2023.1.3,MacIntel,60.06006006,,,,,,,,,,,,,,,,,,,,,,,,,,1039.039,space,39.9185,,,,,,,,,,,,,,,,,,,,,,,,,,,,,,
,2023-08-30_13h47.55.372,slotMachine_updated,2023.1.3,MacIntel,60.06006006,,,,,,,,,,,,,,,,,,,,,,,,,,,,,,1078.977,1078.977,space,2.0857,,,,,,,,,,,,,,,,,,,,,,,,,
,2023-08-30_13h47.55.372,slotMachine_updated,2023.1.3,MacIntel,60.06006006,,,,,,,,,,,,,,,,,,,,,,,,,,,,,,,,,,,"[[4,10,15],[8,15],[10,15],[7,15],[5,15],[11,15],[9,15],[6,15],[12,15],[15,15]]","[4,10,15]","[[8,15],[10,15],[7,15],[5,15],[11,15],[9,15],[6,15],[12,15],[15,15]]",1081.0782,up,0.7316,,0.5,"[2,3,1]",0.691118196,stimuli/card_0_transparent.png,0,0,0,0,0,0,1,,,,,,
,2023-08-30_13h47.55.372,slotMachine_updated,2023.1.3,MacIntel,60.06006006,,,,,,,,,,,,,,,,,,,,,,,,,,,,,,,,,,,,,,1082.673,left,1.2371,,1.5,"[2,3,1]",0.771974665,stimuli/card_10_transparent.png,10,10,1,0,1,0,1,,,,,,
,2023-08-30_13h47.55.372,slotMachine_updated,2023.1.3,MacIntel,60.06006006,,,,,,,,,,,,,,,,,,,,,,,,,,,,,,,,,,,,,,1085.7209,right,0.5623,,1.5,"[2,3,1]",0.755480032,stimuli/card_100_transparent.png,110,100,2,0,2,0,1,,,,,,
,2023-08-30_13h47.55.372,slotMachine_updated,2023.1.3,MacIntel,60.06006006,,,,,,,,,,,,,,,,,,,,,,,,,,,,,,,,,,,,,,1088.1027,right,0.3507,,1,"[2,3,1]",0.212994258,stimuli/card_100_transparent.png,210,100,3,0,3,0,1,,,,,,
,2023-08-30_13h47.55.372,slotMachine_updated,2023.1.3,MacIntel,60.06006006,,,,,,,,,,,,,,,,,,,,,,,,,,,,,,,,,,,,,,1089.7842,right,0.3317,,0.5,"[1,3,2]",0.819875476,stimuli/card_10_transparent.png,220,10,4,0,4,0,1,,,,,,
,2023-08-30_13h47.55.372,slotMachine_updated,2023.1.3,MacIntel,60.06006006,,,,,,,,,,,,,,,,,,,,,,,,,,,,,,,,,,,,,,1090.9484,right,0.5375,,0.5,"[1,3,2]",0.229409332,stimuli/card_10_transparent.png,230,10,5,0,5,0,1,,,,,,
,2023-08-30_13h47.55.372,slotMachine_updated,2023.1.3,MacIntel,60.06006006,,,,,,,,,,,,,,,,,,,,,,,,,,,,,,,,,,,,,,1092.3026,right,0.1838,,0.5,"[1,3,2]",0.081233765,stimuli/card_0_transparent.png,230,0,6,0,6,0,1,,,,,,
,2023-08-30_13h47.55.372,slotMachine_updated,2023.1.3,MacIntel,60.06006006,,,,,,,,,,,,,,,,,,,,,,,,,,,,,,,,,,,,,,1093.3204,right,0.1012,,0.5,"[1,3,2]",0.458831005,stimuli/card_10_transparent.png,240,10,7,0,7,0,1,,,,,,
,2023-08-30_13h47.55.372,slotMachine_updated,2023.1.3,MacIntel,60.06006006,,,,,,,,,,,,,,,,,,,,,,,,,,,,,,,,,,,,,,1094.2328,left,0.0306,,1.5,"[1,3,2]",0.798894323,stimuli/card_100_transparent.png,340,100,8,0,8,0,1,,,,,,
,2023-08-30_13h47.55.372,slotMachine_updated,2023.1.3,MacIntel,60.06006006,,,,,,,,,,,,,,,,,,,,,,,,,,,,,,,,,,,,,,1096.0818,left,0.2042,,1.5,"[1,3,2]",0.572587098,stimuli/card_100_transparent.png,440,100,9,0,9,0,1,,,,,,
,2023-08-30_13h47.55.372,slotMachine_updated,2023.1.3,MacIntel,60.06006006,,,,,,,,,,,,,,,,,,,,,,,,,,,,,,,,,,,,,,1098.1129,left,0.0989,,1.5,"[3,2,1]",0.796750848,stimuli/card_0_transparent.png,440,0,10,0,10,0,1,,,,,,
,2023-08-30_13h47.55.372,slotMachine_updated,2023.1.3,MacIntel,60.06006006,,,,,,,,,,,,,,,,,,,,,,,,,,,,,,,,,,,,,,1100.0442,left,0.0025,,1,"[3,2,1]",0.163979618,stimuli/card_10_transparent.png,450,10,11,0,11,0,1,,,,,,
,2023-08-30_13h47.55.372,slotMachine_updated,2023.1.3,MacIntel,60.06006006,,,,,,,,,,,,,,,,,,,,,,,,,,,,,,,,,,,,,,1101.3638,left,0.2872,,0.5,"[3,2,1]",0.936296459,stimuli/card_0_transparent.png,450,0,12,0,12,0,1,,,,,,
,2023-08-30_13h47.55.372,slotMachine_updated,2023.1.3,MacIntel,60.06006006,,,,,,,,,,,,,,,,,,,,,,,,,,,,,,,,,,,,,,1102.4785,up,0.3046,,0.5,"[3,2,1]",0.650223617,stimuli/card_10_transparent.png,460,10,13,0,13,0,1,,,,,,
,2023-08-30_13h47.55.372,slotMachine_updated,2023.1.3,MacIntel,60.06006006,,,,,,,,,,,,,,,,,,,,,,,,,,,,,,,,,,,,,,1103.5947,up,0.5257,,0.5,"[3,2,1]",0.353840444,stimuli/card_10_transparent.png,470,10,14,0,14,0,1,,,,,,
,2023-08-30_13h47.55.372,slotMachine_updated,2023.1.3,MacIntel,60.06006006,,,,,,,,,,,,,,,,,,,,,,,,,,,,,,,,,,,,,,,,,,,,,,,,,,,,,1104.943,0,0,0,0,1
,2023-08-30_13h47.55.372,slotMachine_updated,2023.1.3,MacIntel,60.06006006,,,,,,,,,,,,,,,,,,,,,,,,,,,,,,,,,,,"[[9,15],[11,15],[10,15],[15,15],[8,15],[6,15],[7,15],[5,15],[12,15]]","[9,15]","[[11,15],[10,15],[15,15],[8,15],[6,15],[7,15],[5,15],[12,15]]",1109.9385,left,0.955,,1,"[1,3,2]",0.785259054,stimuli/card_100_transparent.png,100,100,0,0,0,0,1,,,,,,
,2023-08-30_13h47.55.372,slotMachine_updated,2023.1.3,MacIntel,60.06006006,,,,,,,,,,,,,,,,,,,,,,,,,,,,,,,,,,,,,,1112.2224,left,0.283,,1.5,"[1,3,2]",0.341466831,stimuli/card_100_transparent.png,200,100,1,0,1,0,1,,,,,,
,2023-08-30_13h47.55.372,slotMachine_updated,2023.1.3,MacIntel,60.06006006,,,,,,,,,,,,,,,,,,,,,,,,,,,,,,,,,,,,,,1114.3365,left,0.1599,,1,"[1,3,2]",0.402256048,stimuli/card_100_transparent.png,300,100,2,0,2,0,1,,,,,,
,2023-08-30_13h47.55.372,slotMachine_updated,2023.1.3,MacIntel,60.06006006,,,,,,,,,,,,,,,,,,,,,,,,,,,,,,,,,,,,,,1115.8172,left,0.4715,,1,"[1,3,2]",0.496671626,stimuli/card_100_transparent.png,400,100,3,0,3,0,1,,,,,,
,2023-08-30_13h47.55.372,slotMachine_updated,2023.1.3,MacIntel,60.06006006,,,,,,,,,,,,,,,,,,,,,,,,,,,,,,,,,,,,,,1117.618,left,1.4825,,1,"[1,3,2]",0.332579575,stimuli/card_100_transparent.png,500,100,4,0,4,0,1,,,,,,
,2023-08-30_13h47.55.372,slotMachine_updated,2023.1.3,MacIntel,60.06006006,,,,,,,,,,,,,,,,,,,,,,,,,,,,,,,,,,,,,,1120.4156,left,0.5855,,0.5,"[1,3,2]",0.588568801,stimuli/card_100_transparent.png,600,100,5,0,5,0,1,,,,,,
,2023-08-30_13h47.55.372,slotMachine_updated,2023.1.3,MacIntel,60.06006006,,,,,,,,,,,,,,,,,,,,,,,,,,,,,,,,,,,,,,1121.8009,left,0.3986,,1,"[1,3,2]",0.755719202,stimuli/card_100_transparent.png,700,100,6,0,6,0,1,,,,,,
,2023-08-30_13h47.55.372,slotMachine_updated,2023.1.3,MacIntel,60.06006006,,,,,,,,,,,,,,,,,,,,,,,,,,,,,,,,,,,,,,1123.5159,left,0.0248,,0.5,"[1,3,2]",0.461814117,stimuli/card_100_transparent.png,800,100,7,0,7,0,1,,,,,,
,2023-08-30_13h47.55.372,slotMachine_updated,2023.1.3,MacIntel,60.06006006,,,,,,,,,,,,,,,,,,,,,,,,,,,,,,,,,,,,,,1124.3653,left,0.3394,,1,"[1,3,2]",0.762641677,stimuli/card_100_transparent.png,900,100,8,0,8,0,1,,,,,,
,2023-08-30_13h47.55.372,slotMachine_updated,2023.1.3,MacIntel,60.06006006,,,,,,,,,,,,,,,,,,,,,,,,,,,,,,,,,,,,,,1126.0308,left,0.1244,,1,"[2,3,1]",0.494994258,stimuli/card_10_transparent.png,910,10,9,0,9,0,1,,,,,,
,2023-08-30_13h47.55.372,slotMachine_updated,2023.1.3,MacIntel,60.06006006,,,,,,,,,,,,,,,,,,,,,,,,,,,,,,,,,,,,,,1127.4791,up,0.3078,,0.5,"[2,3,1]",0.289381267,stimuli/card_0_transparent.png,910,0,10,0,10,0,1,,,,,,
,2023-08-30_13h47.55.372,slotMachine_updated,2023.1.3,MacIntel,60.06006006,,,,,,,,,,,,,,,,,,,,,,,,,,,,,,,,,,,,,,1128.6099,right,0.2572,,0.5,"[2,3,1]",0.084838436,stimuli/card_0_transparent.png,910,0,11,0,11,0,1,,,,,,
,2023-08-30_13h47.55.372,slotMachine_updated,2023.1.3,MacIntel,60.06006006,,,,,,,,,,,,,,,,,,,,,,,,,,,,,,,,,,,,,,1129.6766,left,0.381,,0.5,"[2,3,1]",0.86691949,stimuli/card_10_transparent.png,920,10,12,0,12,0,1,,,,,,
,2023-08-30_13h47.55.372,slotMachine_updated,2023.1.3,MacIntel,60.06006006,,,,,,,,,,,,,,,,,,,,,,,,,,,,,,,,,,,,,,1130.8734,up,0.1585,,1,"[2,3,1]",0.041835591,stimuli/card_100_transparent.png,1020,100,13,0,13,0,1,,,,,,
,2023-08-30_13h47.55.372,slotMachine_updated,2023.1.3,MacIntel,60.06006006,,,,,,,,,,,,,,,,,,,,,,,,,,,,,,,,,,,,,,1132.3595,up,0.3739,,1.5,"[2,3,1]",0.859704025,stimuli/card_0_transparent.png,1020,0,14,0,14,0,1,,,,,,
,2023-08-30_13h47.55.372,slotMachine_updated,2023.1.3,MacIntel,60.06006006,,,,,,,,,,,,,,,,,,,,,,,,,,,,,,,,,,,,,,,,,,,,,,,,,,,,,1134.5563,1,0,1,0,1
,2023-08-30_13h47.55.372,slotMachine_updated,2023.1.3,MacIntel,60.06006006,,,,,,,,,,,,,,,,,,,,,,,,,,,,,,,,,,,"[[5,15],[8,15],[12,15],[15,15],[7,15],[10,15],[6,15],[11,15]]","[5,15]","[[8,15],[12,15],[15,15],[7,15],[10,15],[6,15],[11,15]]",1139.5522,up,0.6678,,1.5,"[1,2,3]",0.151134315,stimuli/card_100_transparent.png,100,100,0,0,0,0,1,,,,,,
,2023-08-30_13h47.55.372,slotMachine_updated,2023.1.3,MacIntel,60.06006006,,,,,,,,,,,,,,,,,,,,,,,,,,,,,,,,,,,,,,1142.068,up,0.3413,,0.5,"[1,2,3]",0.093117359,stimuli/card_0_transparent.png,100,0,1,0,1,0,1,,,,,,
,2023-08-30_13h47.55.372,slotMachine_updated,2023.1.3,MacIntel,60.06006006,,,,,,,,,,,,,,,,,,,,,,,,,,,,,,,,,,,,,,1143.2336,up,0.4076,,1,"[1,2,3]",0.957210111,stimuli/card_10_transparent.png,110,10,2,0,2,0,1,,,,,,
,2023-08-30_13h47.55.372,slotMachine_updated,2023.1.3,MacIntel,60.06006006,,,,,,,,,,,,,,,,,,,,,,,,,,,,,,,,,,,,,,1144.9481,left,0.0382,,1,"[1,2,3]",0.117824369,stimuli/card_10_transparent.png,120,10,3,0,3,0,1,,,,,,
,2023-08-30_13h47.55.372,slotMachine_updated,2023.1.3,MacIntel,60.06006006,,,,,,,,,,,,,,,,,,,,,,,,,,,,,,,,,,,,,,1146.3138,right,0.3585,,1.5,"[1,2,3]",0.939475661,stimuli/card_0_transparent.png,120,0,4,0,4,0,1,,,,,,
,2023-08-30_13h47.55.372,slotMachine_updated,2023.1.3,MacIntel,60.06006006,,,,,,,,,,,,,,,,,,,,,,,,,,,,,,,,,,,,,,1148.4948,left,0.3983,,0.5,"[3,1,2]",0.680565488,stimuli/card_0_transparent.png,120,0,5,0,5,0,1,,,,,,
,2023-08-30_13h47.55.372,slotMachine_updated,2023.1.3,MacIntel,60.06006006,,,,,,,,,,,,,,,,,,,,,,,,,,,,,,,,,,,,,,1149.711,up,0.0707,,0.5,"[3,1,2]",0.516517873,stimuli/card_100_transparent.png,220,100,6,0,6,0,1,,,,,,
,2023-08-30_13h47.55.372,slotMachine_updated,2023.1.3,MacIntel,60.06006006,,,,,,,,,,,,,,,,,,,,,,,,,,,,,,,,,,,,,,1150.5928,up,0.0383,,1,"[3,1,2]",0.034467829,stimuli/card_0_transparent.png,220,0,7,0,7,0,1,,,,,,
,2023-08-30_13h47.55.372,slotMachine_updated,2023.1.3,MacIntel,60.06006006,,,,,,,,,,,,,,,,,,,,,,,,,,,,,,,,,,,,,,1151.961,up,1.342,,1.5,"[3,1,2]",0.586963456,stimuli/card_100_transparent.png,320,100,8,0,8,0,1,,,,,,
,2023-08-30_13h47.55.372,slotMachine_updated,2023.1.3,MacIntel,60.06006006,,,,,,,,,,,,,,,,,,,,,,,,,,,,,,,,,,,,,,1155.1094,up,0.0983,,1.5,"[3,1,2]",0.166422877,stimuli/card_10_transparent.png,330,10,9,0,9,0,1,,,,,,
,2023-08-30_13h47.55.372,slotMachine_updated,2023.1.3,MacIntel,60.06006006,,,,,,,,,,,,,,,,,,,,,,,,,,,,,,,,,,,,,,1157.0391,up,0.6181,,1,"[3,1,2]",0.753723083,stimuli/card_100_transparent.png,430,100,10,0,10,0,1,,,,,,
,2023-08-30_13h47.55.372,slotMachine_updated,2023.1.3,MacIntel,60.06006006,,,,,,,,,,,,,,,,,,,,,,,,,,,,,,,,,,,,,,1158.9882,up,0.2233,,1.5,"[3,1,2]",0.04064705,stimuli/card_0_transparent.png,430,0,11,0,11,0,1,,,,,,
,2023-08-30_13h47.55.372,slotMachine_updated,2023.1.3,MacIntel,60.06006006,,,,,,,,,,,,,,,,,,,,,,,,,,,,,,,,,,,,,,1161.0372,up,0.0812,,1.5,"[3,1,2]",0.665508999,stimuli/card_100_transparent.png,530,100,12,0,12,0,1,,,,,,
,2023-08-30_13h47.55.372,slotMachine_updated,2023.1.3,MacIntel,60.06006006,,,,,,,,,,,,,,,,,,,,,,,,,,,,,,,,,,,,,,1162.9376,up,0.6031,,1,"[3,1,2]",0.952387945,stimuli/card_100_transparent.png,630,100,13,0,13,0,1,,,,,,
,2023-08-30_13h47.55.372,slotMachine_updated,2023.1.3,MacIntel,60.06006006,,,,,,,,,,,,,,,,,,,,,,,,,,,,,,,,,,,,,,1164.8685,up,0.0639,,0.5,"[3,1,2]",0.336021505,stimuli/card_100_transparent.png,730,100,14,0,14,0,1,,,,,,
,2023-08-30_13h47.55.372,slotMachine_updated,2023.1.3,MacIntel,60.06006006,,,,,,,,,,,,,,,,,,,,,,,,,,,,,,,,,,,,,,,,,,,,,,,,,,,,,1165.7499,2,0,2,0,1
,2023-08-30_13h47.55.372,slotMachine_updated,2023.1.3,MacIntel,60.06006006,,,,,,,,,,,,,,,,,,,,,,,,,,,,,,,,,,,"[[7,15],[10,15],[6,15],[11,15],[15,15],[12,15],[8,15]]","[7,15]","[[10,15],[6,15],[11,15],[15,15],[12,15],[8,15]]",1170.7471,up,0.8914,,1,"[2,3,1]",0.950696472,stimuli/card_0_transparent.png,0,0,0,0,0,0,1,,,,,,
,2023-08-30_13h47.55.372,slotMachine_updated,2023.1.3,MacIntel,60.06006006,,,,,,,,,,,,,,,,,,,,,,,,,,,,,,,,,,,,,,1172.9653,right,0.3533,,1.5,"[2,3,1]",0.984472989,stimuli/card_100_transparent.png,100,100,1,0,1,0,1,,,,,,
,2023-08-30_13h47.55.372,slotMachine_updated,2023.1.3,MacIntel,60.06006006,,,,,,,,,,,,,,,,,,,,,,,,,,,,,,,,,,,,,,1175.1299,right,0.5132,,0.5,"[2,3,1]",0.527105986,stimuli/card_100_transparent.png,200,100,2,0,2,0,1,,,,,,
,2023-08-30_13h47.55.372,slotMachine_updated,2023.1.3,MacIntel,60.06006006,,,,,,,,,,,,,,,,,,,,,,,,,,,,,,,,,,,,,,1176.4609,left,0.4394,,1,"[2,3,1]",0.086800092,stimuli/card_0_transparent.png,200,0,3,0,3,0,1,,,,,,
,2023-08-30_13h47.55.372,slotMachine_updated,2023.1.3,MacIntel,60.06006006,,,,,,,,,,,,,,,,,,,,,,,,,,,,,,,,,,,,,,1178.2274,up,0.1485,,1,"[2,3,1]",0.116768177,stimuli/card_10_transparent.png,210,10,4,0,4,0,1,,,,,,
,2023-08-30_13h47.55.372,slotMachine_updated,2023.1.3,MacIntel,60.06006006,,,,,,,,,,,,,,,,,,,,,,,,,,,,,,,,,,,,,,1179.6899,up,3.7459,,1,"[2,3,1]",0.041533639,stimuli/card_100_transparent.png,310,100,5,0,5,0,1,,,,,,
,2023-08-30_13h47.55.372,slotMachine_updated,2023.1.3,MacIntel,60.06006006,,,,,,,,,,,,,,,,,,,,,,,,,,,,,,,,,,,,,,1184.7567,up,0.6753,,1,"[2,3,1]",0.552239169,stimuli/card_0_transparent.png,310,0,6,0,6,0,1,,,,,,
,2023-08-30_13h47.55.372,slotMachine_updated,2023.1.3,MacIntel,60.06006006,,,,,,,,,,,,,,,,,,,,,,,,,,,,,,,,,,,,,,1186.7567,up,0.6127,,0.5,"[1,2,3]",0.179476581,stimuli/card_100_transparent.png,410,100,7,0,7,0,1,,,,,,
,2023-08-30_13h47.55.372,slotMachine_updated,2023.1.3,MacIntel,60.06006006,,,,,,,,,,,,,,,,,,,,,,,,,,,,,,,,,,,,,,1188.189,up,0.3285,,1.5,"[1,2,3]",0.325549208,stimuli/card_10_transparent.png,420,10,8,0,8,0,1,,,,,,
,2023-08-30_13h47.55.372,slotMachine_updated,2023.1.3,MacIntel,60.06006006,,,,,,,,,,,,,,,,,,,,,,,,,,,,,,,,,,,,,,1190.3362,up,0.0314,,1,"[1,2,3]",0.800884221,stimuli/card_10_transparent.png,430,10,9,0,9,0,1,,,,,,
,2023-08-30_13h47.55.372,slotMachine_updated,2023.1.3,MacIntel,60.06006006,,,,,,,,,,,,,,,,,,,,,,,,,,,,,,,,,,,,,,1191.7035,up,0.335,,0.5,"[1,2,3]",0.802838216,stimuli/card_10_transparent.png,440,10,10,0,10,0,1,,,,,,
,2023-08-30_13h47.55.372,slotMachine_updated,2023.1.3,MacIntel,60.06006006,,,,,,,,,,,,,,,,,,,,,,,,,,,,,,,,,,,,,,1192.869,up,0.3133,,1,"[1,2,3]",0.132455656,stimuli/card_100_transparent.png,540,100,11,0,11,0,1,,,,,,
,2023-08-30_13h47.55.372,slotMachine_updated,2023.1.3,MacIntel,60.06006006,,,,,,,,,,,,,,,,,,,,,,,,,,,,,,,,,,,,,,1194.5008,up,0.5077,,0.5,"[1,2,3]",0.709465828,stimuli/card_10_transparent.png,550,10,12,0,12,0,1,,,,,,
,2023-08-30_13h47.55.372,slotMachine_updated,2023.1.3,MacIntel,60.06006006,,,,,,,,,,,,,,,,,,,,,,,,,,,,,,,,,,,,,,1195.8342,up,0.1679,,1.5,"[1,2,3]",0.251873507,stimuli/card_10_transparent.png,560,10,13,0,13,0,1,,,,,,
,2023-08-30_13h47.55.372,slotMachine_updated,2023.1.3,MacIntel,60.06006006,,,,,,,,,,,,,,,,,,,,,,,,,,,,,,,,,,,,,,1197.8303,up,0.0349,,0.5,"[1,2,3]",0.69239531,stimuli/card_10_transparent.png,570,10,14,0,14,0,1,,,,,,
,2023-08-30_13h47.55.372,slotMachine_updated,2023.1.3,MacIntel,60.06006006,,,,,,,,,,,,,,,,,,,,,,,,,,,,,,,,,,,,,,,,,,,,,,,,,,,,,1198.6967,3,0,3,0,1
,2023-08-30_13h47.55.372,slotMachine_updated,2023.1.3,MacIntel,60.06006006,,,,,,,,,,,,,,,,,,,,,,,,,,,,,,,,,,,"[[11,15],[15,15],[10,15],[8,15],[12,15],[6,15]]","[11,15]","[[15,15],[10,15],[8,15],[12,15],[6,15]]",1203.6957,up,0.918,,0.5,"[2,1,3]",0.25996528,stimuli/card_100_transparent.png,100,100,0,0,0,0,1,,,,,,
,2023-08-30_13h47.55.372,slotMachine_updated,2023.1.3,MacIntel,60.06006006,,,,,,,,,,,,,,,,,,,,,,,,,,,,,,,,,,,,,,1205.4258,up,0.5714,,1,"[2,1,3]",0.996591708,stimuli/card_100_transparent.png,200,100,1,0,1,0,1,,,,,,
,2023-08-30_13h47.55.372,slotMachine_updated,2023.1.3,MacIntel,60.06006006,,,,,,,,,,,,,,,,,,,,,,,,,,,,,,,,,,,,,,1207.3245,up,0.7354,,0.5,"[2,1,3]",0.103732209,stimuli/card_10_transparent.png,210,10,2,0,2,0,1,,,,,,
,2023-08-30_13h47.55.372,slotMachine_updated,2023.1.3,MacIntel,60.06006006,,,,,,,,,,,,,,,,,,,,,,,,,,,,,,,,,,,,,,1208.888,up,0.6101,,1.5,"[2,1,3]",0.065398885,stimuli/card_0_transparent.png,210,0,3,0,3,0,1,,,,,,
,2023-08-30_13h47.55.372,slotMachine_updated,2023.1.3,MacIntel,60.06006006,,,,,,,,,,,,,,,,,,,,,,,,,,,,,,,,,,,,,,1211.3212,up,0.4877,,1.5,"[2,1,3]",0.522095015,stimuli/card_100_transparent.png,310,100,4,0,4,0,1,,,,,,
,2023-08-30_13h47.55.372,slotMachine_updated,2023.1.3,MacIntel,60.06006006,,,,,,,,,,,,,,,,,,,,,,,,,,,,,,,,,,,,,,1213.6209,up,0.4269,,0.5,"[2,1,3]",0.054443811,stimuli/card_0_transparent.png,310,0,5,0,5,0,1,,,,,,
,2023-08-30_13h47.55.372,slotMachine_updated,2023.1.3,MacIntel,60.06006006,,,,,,,,,,,,,,,,,,,,,,,,,,,,,,,,,,,,,,1214.8714,up,1.1113,,1.5,"[2,1,3]",0.374251556,stimuli/card_100_transparent.png,410,100,6,0,6,0,1,,,,,,
,2023-08-30_13h47.55.372,slotMachine_updated,2023.1.3,MacIntel,60.06006006,,,,,,,,,,,,,,,,,,,,,,,,,,,,,,,,,,,,,,1217.7995,up,0.4737,,0.5,"[2,1,3]",0.25898294,stimuli/card_100_transparent.png,510,100,7,0,7,0,1,,,,,,
,2023-08-30_13h47.55.372,slotMachine_updated,2023.1.3,MacIntel,60.06006006,,,,,,,,,,,,,,,,,,,,,,,,,,,,,,,,,,,,,,1219.0994,up,0.7084,,1.5,"[2,1,3]",0.310898173,stimuli/card_100_transparent.png,610,100,8,0,8,0,1,,,,,,
,2023-08-30_13h47.55.372,slotMachine_updated,2023.1.3,MacIntel,60.06006006,,,,,,,,,,,,,,,,,,,,,,,,,,,,,,,,,,,,,,1221.6178,up,0.2683,,1.5,"[2,1,3]",0.387954093,stimuli/card_100_transparent.png,710,100,9,0,9,0,1,,,,,,
,2023-08-30_13h47.55.372,slotMachine_updated,2023.1.3,MacIntel,60.06006006,,,,,,,,,,,,,,,,,,,,,,,,,,,,,,,,,,,,,,1223.7152,up,0.4196,,1,"[2,1,3]",0.940055501,stimuli/card_100_transparent.png,810,100,10,0,10,0,1,,,,,,
,2023-08-30_13h47.55.372,slotMachine_updated,2023.1.3,MacIntel,60.06006006,,,,,,,,,,,,,,,,,,,,,,,,,,,,,,,,,,,,,,1225.463,up,0.444,,1,"[1,2,3]",0.697951693,stimuli/card_10_transparent.png,820,10,11,0,11,0,1,,,,,,
,2023-08-30_13h47.55.372,slotMachine_updated,2023.1.3,MacIntel,60.06006006,,,,,,,,,,,,,,,,,,,,,,,,,,,,,,,,,,,,,,1227.2278,up,0.6258,,1,"[1,2,3]",0.990592986,stimuli/card_10_transparent.png,830,10,12,0,12,0,1,,,,,,
,2023-08-30_13h47.55.372,slotMachine_updated,2023.1.3,MacIntel,60.06006006,,,,,,,,,,,,,,,,,,,,,,,,,,,,,,,,,,,,,,1229.1751,up,0.1721,,1.5,"[1,2,3]",0.591641727,stimuli/card_10_transparent.png,840,10,13,0,13,0,1,,,,,,
,2023-08-30_13h47.55.372,slotMachine_updated,2023.1.3,MacIntel,60.06006006,,,,,,,,,,,,,,,,,,,,,,,,,,,,,,,,,,,,,,1231.1732,up,0.2197,,1.5,"[1,2,3]",0.760315143,stimuli/card_10_transparent.png,850,10,14,0,14,0,1,,,,,,
,2023-08-30_13h47.55.372,slotMachine_updated,2023.1.3,MacIntel,60.06006006,,,,,,,,,,,,,,,,,,,,,,,,,,,,,,,,,,,,,,,,,,,,,,,,,,,,,1233.2254,4,0,4,0,1
,2023-08-30_13h47.55.372,slotMachine_updated,2023.1.3,MacIntel,60.06006006,,,,,,,,,,,,,,,,,,,,,,,,,,,,,,,,,,,"[[8,15],[12,15],[10,15],[6,15],[15,15]]","[8,15]","[[12,15],[10,15],[6,15],[15,15]]",1238.2215,up,1.1725,,1,"[3,2,1]",0.204197092,stimuli/card_10_transparent.png,10,10,0,0,0,0,1,,,,,,
,2023-08-30_13h47.55.372,slotMachine_updated,2023.1.3,MacIntel,60.06006006,,,,,,,,,,,,,,,,,,,,,,,,,,,,,,,,,,,,,,1240.7162,up,0.4537,,1,"[3,2,1]",0.782515357,stimuli/card_10_transparent.png,20,10,1,0,1,0,1,,,,,,
,2023-08-30_13h47.55.372,slotMachine_updated,2023.1.3,MacIntel,60.06006006,,,,,,,,,,,,,,,,,,,,,,,,,,,,,,,,,,,,,,1242.5016,up,0.2361,,1.5,"[3,2,1]",0.949611875,stimuli/card_10_transparent.png,30,10,2,0,2,0,1,,,,,,
,2023-08-30_13h47.55.372,slotMachine_updated,2023.1.3,MacIntel,60.06006006,,,,,,,,,,,,,,,,,,,,,,,,,,,,,,,,,,,,,,1244.5518,up,0.1303,,1,"[3,2,1]",0.601775042,stimuli/card_10_transparent.png,40,10,3,0,3,0,1,,,,,,
,2023-08-30_13h47.55.372,slotMachine_updated,2023.1.3,MacIntel,60.06006006,,,,,,,,,,,,,,,,,,,,,,,,,,,,,,,,,,,,,,1246.015,up,0.4311,,0.5,"[3,2,1]",0.152910773,stimuli/card_100_transparent.png,140,100,4,0,4,0,1,,,,,,
,2023-08-30_13h47.55.372,slotMachine_updated,2023.1.3,MacIntel,60.06006006,,,,,,,,,,,,,,,,,,,,,,,,,,,,,,,,,,,,,,1247.2777,up,0.6345,,0.5,"[3,2,1]",0.599139164,stimuli/card_10_transparent.png,150,10,5,0,5,0,1,,,,,,
,2023-08-30_13h47.55.372,slotMachine_updated,2023.1.3,MacIntel,60.06006006,,,,,,,,,,,,,,,,,,,,,,,,,,,,,,,,,,,,,,1248.7277,up,0.4811,,1,"[3,2,1]",0.398853956,stimuli/card_10_transparent.png,160,10,6,0,6,0,1,,,,,,
,2023-08-30_13h47.55.372,slotMachine_updated,2023.1.3,MacIntel,60.06006006,,,,,,,,,,,,,,,,,,,,,,,,,,,,,,,,,,,,,,1250.5243,up,0.4792,,1,"[3,2,1]",0.29000481,stimuli/card_10_transparent.png,170,10,7,0,7,0,1,,,,,,
,2023-08-30_13h47.55.372,slotMachine_updated,2023.1.3,MacIntel,60.06006006,,,,,,,,,,,,,,,,,,,,,,,,,,,,,,,,,,,,,,1252.3277,up,0.4578,,1,"[3,1,2]",0.614191586,stimuli/card_100_transparent.png,270,100,8,0,8,0,1,,,,,,
,2023-08-30_13h47.55.372,slotMachine_updated,2023.1.3,MacIntel,60.06006006,,,,,,,,,,,,,,,,,,,,,,,,,,,,,,,,,,,,,,1254.1098,up,0.478,,1,"[3,1,2]",0.571030785,stimuli/card_100_transparent.png,370,100,9,0,9,0,1,,,,,,
,2023-08-30_13h47.55.372,slotMachine_updated,2023.1.3,MacIntel,60.06006006,,,,,,,,,,,,,,,,,,,,,,,,,,,,,,,,,,,,,,1255.9065,up,0.4216,,1.5,"[3,1,2]",0.250869678,stimuli/card_100_transparent.png,470,100,10,0,10,0,1,,,,,,
,2023-08-30_13h47.55.372,slotMachine_updated,2023.1.3,MacIntel,60.06006006,,,,,,,,,,,,,,,,,,,,,,,,,,,,,,,,,,,,,,1258.1566,up,0.4767,,1,"[3,1,2]",0.689482166,stimuli/card_100_transparent.png,570,100,11,0,11,0,1,,,,,,
,2023-08-30_13h47.55.372,slotMachine_updated,2023.1.3,MacIntel,60.06006006,,,,,,,,,,,,,,,,,,,,,,,,,,,,,,,,,,,,,,1259.954,up,0.4291,,0.5,"[3,1,2]",0.165355393,stimuli/card_10_transparent.png,580,10,12,0,12,0,1,,,,,,
,2023-08-30_13h47.55.372,slotMachine_updated,2023.1.3,MacIntel,60.06006006,,,,,,,,,,,,,,,,,,,,,,,,,,,,,,,,,,,,,,1261.2029,up,0.6317,,0.5,"[3,1,2]",0.78540349,stimuli/card_100_transparent.png,680,100,13,0,13,0,1,,,,,,
,2023-08-30_13h47.55.372,slotMachine_updated,2023.1.3,MacIntel,60.06006006,,,,,,,,,,,,,,,,,,,,,,,,,,,,,,,,,,,,,,1262.6553,up,0.4866,,1,"[3,1,2]",0.288703194,stimuli/card_100_transparent.png,780,100,14,0,14,0,1,,,,,,
,2023-08-30_13h47.55.372,slotMachine_updated,2023.1.3,MacIntel,60.06006006,,,,,,,,,,,,,,,,,,,,,,,,,,,,,,,,,,,,,,,,,,,,,,,,,,,,,1264.4697,5,0,5,0,1
,2023-08-30_13h47.55.372,slotMachine_updated,2023.1.3,MacIntel,60.06006006,,,,,,,,,,,,,,,,,,,,,,,,,,,,,,,,,,,"[[10,15],[15,15],[6,15],[12,15]]","[10,15]","[[15,15],[6,15],[12,15]]",1269.4649,up,0.3351,,0.5,"[3,1,2]",0.727832415,stimuli/card_100_transparent.png,100,100,0,0,0,0,1,,,,,,
,2023-08-30_13h47.55.372,slotMachine_updated,2023.1.3,MacIntel,60.06006006,,,,,,,,,,,,,,,,,,,,,,,,,,,,,,,,,,,,,,1270.6467,up,0.2702,,1.5,"[3,1,2]",0.263952942,stimuli/card_100_transparent.png,200,100,1,0,1,0,1,,,,,,
,2023-08-30_13h47.55.372,slotMachine_updated,2023.1.3,MacIntel,60.06006006,,,,,,,,,,,,,,,,,,,,,,,,,,,,,,,,,,,,,,1272.7328,up,0.1711,,1,"[3,1,2]",0.240399711,stimuli/card_100_transparent.png,300,100,2,0,2,0,1,,,,,,
,2023-08-30_13h47.55.372,slotMachine_updated,2023.1.3,MacIntel,60.06006006,,,,,,,,,,,,,,,,,,,,,,,,,,,,,,,,,,,,,,1274.2302,up,1.3167,,1,"[3,1,2]",0.093789402,stimuli/card_0_transparent.png,300,0,3,0,3,0,1,,,,,,
,2023-08-30_13h47.55.372,slotMachine_updated,2023.1.3,MacIntel,60.06006006,,,,,,,,,,,,,,,,,,,,,,,,,,,,,,,,,,,,,,1276.8778,up,0.8328,,0.5,"[3,1,2]",0.514698585,stimuli/card_100_transparent.png,400,100,4,0,4,0,1,,,,,,
,2023-08-30_13h47.55.372,slotMachine_updated,2023.1.3,MacIntel,60.06006006,,,,,,,,,,,,,,,,,,,,,,,,,,,,,,,,,,,,,,1278.5245,up,0.0788,,0.5,"[3,1,2]",0.029228893,stimuli/card_0_transparent.png,400,0,5,0,5,0,1,,,,,,
,2023-08-30_13h47.55.372,slotMachine_updated,2023.1.3,MacIntel,60.06006006,,,,,,,,,,,,,,,,,,,,,,,,,,,,,,,,,,,,,,1279.4257,up,0.2543,,0.5,"[3,1,2]",0.125065707,stimuli/card_10_transparent.png,410,10,6,0,6,0,1,,,,,,
,2023-08-30_13h47.55.372,slotMachine_updated,2023.1.3,MacIntel,60.06006006,,,,,,,,,,,,,,,,,,,,,,,,,,,,,,,,,,,,,,1280.4928,up,0.1117,,1.5,"[3,1,2]",0.487269587,stimuli/card_100_transparent.png,510,100,7,0,7,0,1,,,,,,
,2023-08-30_13h47.55.372,slotMachine_updated,2023.1.3,MacIntel,60.06006006,,,,,,,,,,,,,,,,,,,,,,,,,,,,,,,,,,,,,,1282.4278,up,1.7995,,1.5,"[3,1,2]",0.915605959,stimuli/card_100_transparent.png,610,100,8,0,8,0,1,,,,,,
,2023-08-30_13h47.55.372,slotMachine_updated,2023.1.3,MacIntel,60.06006006,,,,,,,,,,,,,,,,,,,,,,,,,,,,,,,,,,,,,,1286.0567,up,0.0761,,1,"[3,1,2]",0.892049849,stimuli/card_100_transparent.png,710,100,9,0,9,0,1,,,,,,
,2023-08-30_13h47.55.372,slotMachine_updated,2023.1.3,MacIntel,60.06006006,,,,,,,,,,,,,,,,,,,,,,,,,,,,,,,,,,,,,,1287.4533,up,0.0168,,1.5,"[1,3,2]",0.988911865,stimuli/card_0_transparent.png,710,0,10,0,10,0,1,,,,,,
,2023-08-30_13h47.55.372,slotMachine_updated,2023.1.3,MacIntel,60.06006006,,,,,,,,,,,,,,,,,,,,,,,,,,,,,,,,,,,,,,1289.3028,up,0.0757,,1.5,"[1,3,2]",0.910670958,stimuli/card_0_transparent.png,710,0,11,0,11,0,1,,,,,,
,2023-08-30_13h47.55.372,slotMachine_updated,2023.1.3,MacIntel,60.06006006,,,,,,,,,,,,,,,,,,,,,,,,,,,,,,,,,,,,,,1291.1849,up,0.3282,,1,"[1,3,2]",0.193369777,stimuli/card_10_transparent.png,720,10,12,0,12,0,1,,,,,,
,2023-08-30_13h47.55.372,slotMachine_updated,2023.1.3,MacIntel,60.06006006,,,,,,,,,,,,,,,,,,,,,,,,,,,,,,,,,,,,,,1292.8372,up,0.0599,,1,"[1,3,2]",0.760627308,stimuli/card_0_transparent.png,720,0,13,0,13,0,1,,,,,,
,2023-08-30_13h47.55.372,slotMachine_updated,2023.1.3,MacIntel,60.06006006,,,,,,,,,,,,,,,,,,,,,,,,,,,,,,,,,,,,,,1294.2192,up,0.2917,,1.5,"[1,3,2]",0.091253922,stimuli/card_100_transparent.png,820,100,14,0,14,0,1,,,,,,
,2023-08-30_13h47.55.372,slotMachine_updated,2023.1.3,MacIntel,60.06006006,,,,,,,,,,,,,,,,,,,,,,,,,,,,,,,,,,,,,,,,,,,,,,,,,,,,,1296.3155,6,0,6,0,1
,2023-08-30_13h47.55.372,slotMachine_updated,2023.1.3,MacIntel,60.06006006,,,,,,,,,,,,,,,,,,,,,,,,,,,,,,,,,,,"[[15,15],[12,15],[6,15]]","[15,15]","[[12,15],[6,15]]",1301.3151,up,0.5258,,0.5,"[3,1,2]",0.275638425,stimuli/card_100_transparent.png,100,100,0,0,0,0,1,,,,,,
,2023-08-30_13h47.55.372,slotMachine_updated,2023.1.3,MacIntel,60.06006006,,,,,,,,,,,,,,,,,,,,,,,,,,,,,,,,,,,,,,1302.6833,up,0.5899,,0.5,"[3,1,2]",0.595431303,stimuli/card_100_transparent.png,200,100,1,0,1,0,1,,,,,,
,2023-08-30_13h47.55.372,slotMachine_updated,2023.1.3,MacIntel,60.06006006,,,,,,,,,,,,,,,,,,,,,,,,,,,,,,,,,,,,,,1304.0985,right,0.2098,,1,"[3,1,2]",0.313303062,stimuli/card_10_transparent.png,210,10,2,0,2,0,1,,,,,,
,2023-08-30_13h47.55.372,slotMachine_updated,2023.1.3,MacIntel,60.06006006,,,,,,,,,,,,,,,,,,,,,,,,,,,,,,,,,,,,,,1305.6294,right,0.9719,,1,"[3,1,2]",0.029217844,stimuli/card_0_transparent.png,210,0,3,0,3,0,1,,,,,,
,2023-08-30_13h47.55.372,slotMachine_updated,2023.1.3,MacIntel,60.06006006,,,,,,,,,,,,,,,,,,,,,,,,,,,,,,,,,,,,,,1307.9284,right,0.468,,1.5,"[3,1,2]",0.969246518,stimuli/card_10_transparent.png,220,10,4,0,4,0,1,,,,,,
,2023-08-30_13h47.55.372,slotMachine_updated,2023.1.3,MacIntel,60.06006006,,,,,,,,,,,,,,,,,,,,,,,,,,,,,,,,,,,,,,1310.2095,right,0.4857,,1,"[3,1,2]",0.87904688,stimuli/card_10_transparent.png,230,10,5,0,5,0,1,,,,,,
,2023-08-30_13h47.55.372,slotMachine_updated,2023.1.3,MacIntel,60.06006006,,,,,,,,,,,,,,,,,,,,,,,,,,,,,,,,,,,,,,1312.0282,right,0.1303,,1,"[3,1,2]",0.168179312,stimuli/card_100_transparent.png,330,100,6,0,6,0,1,,,,,,
,2023-08-30_13h47.55.372,slotMachine_updated,2023.1.3,MacIntel,60.06006006,,,,,,,,,,,,,,,,,,,,,,,,,,,,,,,,,,,,,,1313.4749,right,0.0589,,0.5,"[3,1,2]",0.805035102,stimuli/card_10_transparent.png,340,10,7,0,7,0,1,,,,,,
,2023-08-30_13h47.55.372,slotMachine_updated,2023.1.3,MacIntel,60.06006006,,,,,,,,,,,,,,,,,,,,,,,,,,,,,,,,,,,,,,1314.3594,right,0.0796,,1,"[3,1,2]",0.585017589,stimuli/card_10_transparent.png,350,10,8,0,8,0,1,,,,,,
,2023-08-30_13h47.55.372,slotMachine_updated,2023.1.3,MacIntel,60.06006006,,,,,,,,,,,,,,,,,,,,,,,,,,,,,,,,,,,,,,1315.7575,right,0.9698,,1.5,"[3,1,2]",0.694646306,stimuli/card_10_transparent.png,360,10,9,0,9,0,1,,,,,,
,2023-08-30_13h47.55.372,slotMachine_updated,2023.1.3,MacIntel,60.06006006,,,,,,,,,,,,,,,,,,,,,,,,,,,,,,,,,,,,,,1318.5556,left,0.001,,1.5,"[3,1,2]",0.856005384,stimuli/card_0_transparent.png,360,0,10,0,10,0,1,,,,,,
,2023-08-30_13h47.55.372,slotMachine_updated,2023.1.3,MacIntel,60.06006006,,,,,,,,,,,,,,,,,,,,,,,,,,,,,,,,,,,,,,1320.3695,left,0.5587,,1.5,"[3,1,2]",0.894535045,stimuli/card_0_transparent.png,360,0,11,0,11,0,1,,,,,,
,2023-08-30_13h47.55.372,slotMachine_updated,2023.1.3,MacIntel,60.06006006,,,,,,,,,,,,,,,,,,,,,,,,,,,,,,,,,,,,,,1322.7397,left,0.4289,,1,"[3,1,2]",0.803631744,stimuli/card_0_transparent.png,360,0,12,0,12,0,1,,,,,,
,2023-08-30_13h47.55.372,slotMachine_updated,2023.1.3,MacIntel,60.06006006,,,,,,,,,,,,,,,,,,,,,,,,,,,,,,,,,,,,,,1324.4878,left,0.1583,,1,"[3,1,2]",0.868114186,stimuli/card_0_transparent.png,360,0,13,0,13,0,1,,,,,,
,2023-08-30_13h47.55.372,slotMachine_updated,2023.1.3,MacIntel,60.06006006,,,,,,,,,,,,,,,,,,,,,,,,,,,,,,,,,,,,,,1325.9529,left,0.1761,,1.5,"[3,1,2]",0.969472275,stimuli/card_0_transparent.png,360,0,14,0,14,0,1,,,,,,
,2023-08-30_13h47.55.372,slotMachine_updated,2023.1.3,MacIntel,60.06006006,,,,,,,,,,,,,,,,,,,,,,,,,,,,,,,,,,,,,,,,,,,,,,,,,,,,,1327.9324,7,0,7,0,1
,2023-08-30_13h47.55.372,slotMachine_updated,2023.1.3,MacIntel,60.06006006,,,,,,,,,,,,,,,,,,,,,,,,,,,,,,,,,,,"[[12,15],[6,15]]","[12,15]","[[6,15]]",1332.9317,left,0.3583,,1.5,"[2,1,3]",0.504909128,stimuli/card_10_transparent.png,10,10,0,0,0,0,1,,,,,,
,2023-08-30_13h47.55.372,slotMachine_updated,2023.1.3,MacIntel,60.06006006,,,,,,,,,,,,,,,,,,,,,,,,,,,,,,,,,,,,,,1335.1127,left,0.0893,,1,"[2,1,3]",0.308908649,stimuli/card_10_transparent.png,20,10,1,0,1,0,1,,,,,,
,2023-08-30_13h47.55.372,slotMachine_updated,2023.1.3,MacIntel,60.06006006,,,,,,,,,,,,,,,,,,,,,,,,,,,,,,,,,,,,,,1336.5292,left,0.0728,,1.5,"[2,1,3]",0.228451053,stimuli/card_10_transparent.png,30,10,2,0,2,0,1,,,,,,
,2023-08-30_13h47.55.372,slotMachine_updated,2023.1.3,MacIntel,60.06006006,,,,,,,,,,,,,,,,,,,,,,,,,,,,,,,,,,,,,,1338.4272,left,0.0657,,0.5,"[2,1,3]",0.207840567,stimuli/card_10_transparent.png,40,10,3,0,3,0,1,,,,,,
,2023-08-30_13h47.55.372,slotMachine_updated,2023.1.3,MacIntel,60.06006006,,,,,,,,,,,,,,,,,,,,,,,,,,,,,,,,,,,,,,1339.326,left,0.0012,,1.5,"[2,1,3]",0.038048259,stimuli/card_0_transparent.png,40,0,4,0,4,0,1,,,,,,
,2023-08-30_13h47.55.372,slotMachine_updated,2023.1.3,MacIntel,60.06006006,,,,,,,,,,,,,,,,,,,,,,,,,,,,,,,,,,,,,,1341.1395,left,0.3823,,0.5,"[2,1,3]",0.005093947,stimuli/card_0_transparent.png,40,0,5,0,5,0,1,,,,,,
,2023-08-30_13h47.55.372,slotMachine_updated,2023.1.3,MacIntel,60.06006006,,,,,,,,,,,,,,,,,,,,,,,,,,,,,,,,,,,,,,1342.3279,left,0.0365,,1.5,"[2,1,3]",0.238810871,stimuli/card_10_transparent.png,50,10,6,0,6,0,1,,,,,,
,2023-08-30_13h47.55.372,slotMachine_updated,2023.1.3,MacIntel,60.06006006,,,,,,,,,,,,,,,,,,,,,,,,,,,,,,,,,,,,,,1344.1733,left,0.6897,,1.5,"[2,1,3]",0.498631921,stimuli/card_10_transparent.png,60,10,7,0,7,0,1,,,,,,
,2023-08-30_13h47.55.372,slotMachine_updated,2023.1.3,MacIntel,60.06006006,,,,,,,,,,,,,,,,,,,,,,,,,,,,,,,,,,,,,,1346.6895,left,0.2325,,1,"[2,1,3]",0.38068121,stimuli/card_10_transparent.png,70,10,8,0,8,0,1,,,,,,
,2023-08-30_13h47.55.372,slotMachine_updated,2023.1.3,MacIntel,60.06006006,,,,,,,,,,,,,,,,,,,,,,,,,,,,,,,,,,,,,,1348.2529,left,0.7851,,0.5,"[2,1,3]",0.888442819,stimuli/card_10_transparent.png,80,10,9,0,9,0,1,,,,,,
,2023-08-30_13h47.55.372,slotMachine_updated,2023.1.3,MacIntel,60.06006006,,,,,,,,,,,,,,,,,,,,,,,,,,,,,,,,,,,,,,1349.8681,left,0.0348,,1,"[2,1,3]",0.224606122,stimuli/card_10_transparent.png,90,10,10,0,10,0,1,,,,,,
,2023-08-30_13h47.55.372,slotMachine_updated,2023.1.3,MacIntel,60.06006006,,,,,,,,,,,,,,,,,,,,,,,,,,,,,,,,,,,,,,1351.2343,left,0.2429,,1,"[2,1,3]",0.824129886,stimuli/card_10_transparent.png,100,10,11,0,11,0,1,,,,,,
,2023-08-30_13h47.55.372,slotMachine_updated,2023.1.3,MacIntel,60.06006006,,,,,,,,,,,,,,,,,,,,,,,,,,,,,,,,,,,,,,1352.8024,left,1.6762,,1,"[2,3,1]",0.16799802,stimuli/card_100_transparent.png,200,100,12,0,12,0,1,,,,,,
,2023-08-30_13h47.55.372,slotMachine_updated,2023.1.3,MacIntel,60.06006006,,,,,,,,,,,,,,,,,,,,,,,,,,,,,,,,,,,,,,1355.7994,left,0.6406,,0.5,"[2,3,1]",0.0453297,stimuli/card_0_transparent.png,200,0,13,0,13,0,1,,,,,,
,2023-08-30_13h47.55.372,slotMachine_updated,2023.1.3,MacIntel,60.06006006,,,,,,,,,,,,,,,,,,,,,,,,,,,,,,,,,,,,,,1357.2636,right,0.0152,,1,"[2,3,1]",0.308018823,stimuli/card_100_transparent.png,300,100,14,0,14,0,1,,,,,,
,2023-08-30_13h47.55.372,slotMachine_updated,2023.1.3,MacIntel,60.06006006,,,,,,,,,,,,,,,,,,,,,,,,,,,,,,,,,,,,,,,,,,,,,,,,,,,,,1358.5966,8,0,8,0,1
,2023-08-30_13h47.55.372,slotMachine_updated,2023.1.3,MacIntel,60.06006006,,,,,,,,,,,,,,,,,,,,,,,,,,,,,,,,,,,"[[6,15]]","[6,15]",[],1363.5971,up,0.8177,,1,"[1,3,2]",0.731962982,stimuli/card_0_transparent.png,0,0,0,0,0,0,1,,,,,,
,2023-08-30_13h47.55.372,slotMachine_updated,2023.1.3,MacIntel,60.06006006,,,,,,,,,,,,,,,,,,,,,,,,,,,,,,,,,,,,,,1365.7435,right,0.0039,,1,"[1,3,2]",0.683824712,stimuli/card_10_transparent.png,10,10,1,0,1,0,1,,,,,,
,2023-08-30_13h47.55.372,slotMachine_updated,2023.1.3,MacIntel,60.06006006,,,,,,,,,,,,,,,,,,,,,,,,,,,,,,,,,,,,,,1367.0575,right,0.4303,,1,"[1,3,2]",0.552386914,stimuli/card_10_transparent.png,20,10,2,0,2,0,1,,,,,,
,2023-08-30_13h47.55.372,slotMachine_updated,2023.1.3,MacIntel,60.06006006,,,,,,,,,,,,,,,,,,,,,,,,,,,,,,,,,,,,,,1368.8068,right,0.3777,,0.5,"[1,3,2]",0.288711179,stimuli/card_10_transparent.png,30,10,3,0,3,0,1,,,,,,
,2023-08-30_13h47.55.372,slotMachine_updated,2023.1.3,MacIntel,60.06006006,,,,,,,,,,,,,,,,,,,,,,,,,,,,,,,,,,,,,,1370.0071,right,0.3766,,1,"[1,3,2]",0.058178809,stimuli/card_0_transparent.png,30,0,4,0,4,0,1,,,,,,
,2023-08-30_13h47.55.372,slotMachine_updated,2023.1.3,MacIntel,60.06006006,,,,,,,,,,,,,,,,,,,,,,,,,,,,,,,,,,,,,,1371.703,right,0.1683,,1.5,"[1,3,2]",0.971570392,stimuli/card_10_transparent.png,40,10,5,0,5,0,1,,,,,,
,2023-08-30_13h47.55.372,slotMachine_updated,2023.1.3,MacIntel,60.06006006,,,,,,,,,,,,,,,,,,,,,,,,,,,,,,,,,,,,,,1373.6868,right,0.1126,,0.5,"[3,2,1]",0.665685463,stimuli/card_100_transparent.png,140,100,6,0,6,0,1,,,,,,
,2023-08-30_13h47.55.372,slotMachine_updated,2023.1.3,MacIntel,60.06006006,,,,,,,,,,,,,,,,,,,,,,,,,,,,,,,,,,,,,,1374.6161,right,0.41,,1.5,"[3,2,1]",0.797379676,stimuli/card_100_transparent.png,240,100,7,0,7,0,1,,,,,,
,2023-08-30_13h47.55.372,slotMachine_updated,2023.1.3,MacIntel,60.06006006,,,,,,,,,,,,,,,,,,,,,,,,,,,,,,,,,,,,,,1376.8505,right,1.0767,,1.5,"[3,2,1]",0.467663916,stimuli/card_100_transparent.png,340,100,8,0,8,0,1,,,,,,
,2023-08-30_13h47.55.372,slotMachine_updated,2023.1.3,MacIntel,60.06006006,,,,,,,,,,,,,,,,,,,,,,,,,,,,,,,,,,,,,,1379.7576,right,0.6315,,1,"[3,2,1]",0.681088124,stimuli/card_100_transparent.png,440,100,9,0,9,0,1,,,,,,
,2023-08-30_13h47.55.372,slotMachine_updated,2023.1.3,MacIntel,60.06006006,,,,,,,,,,,,,,,,,,,,,,,,,,,,,,,,,,,,,,1381.7416,right,0.1772,,1,"[3,2,1]",0.871395932,stimuli/card_100_transparent.png,540,100,10,0,10,0,1,,,,,,
,2023-08-30_13h47.55.372,slotMachine_updated,2023.1.3,MacIntel,60.06006006,,,,,,,,,,,,,,,,,,,,,,,,,,,,,,,,,,,,,,1383.2714,right,4.2268,,1,"[3,2,1]",0.166540913,stimuli/card_10_transparent.png,550,10,11,0,11,0,1,,,,,,
,2023-08-30_13h47.55.372,slotMachine_updated,2023.1.3,MacIntel,60.06006006,,,,,,,,,,,,,,,,,,,,,,,,,,,,,,,,,,,,,,1388.8447,right,0.1268,,1.5,"[3,2,1]",0.405023425,stimuli/card_100_transparent.png,650,100,12,0,12,0,1,,,,,,
,2023-08-30_13h47.55.372,slotMachine_updated,2023.1.3,MacIntel,60.06006006,,,,,,,,,,,,,,,,,,,,,,,,,,,,,,,,,,,,,,1390.7928,right,0.1567,,1.5,"[3,2,1]",0.814736251,stimuli/card_100_transparent.png,750,100,13,0,13,0,1,,,,,,
,2023-08-30_13h47.55.372,slotMachine_updated,2023.1.3,MacIntel,60.06006006,,,,,,,,,,,,,,,,,,,,,,,,,,,,,,,,,,,,,,1392.7778,right,0.8948,,0.5,"[3,2,1]",0.403123582,stimuli/card_100_transparent.png,850,100,14,0,14,0,1,,,,,,
,2023-08-30_13h47.55.372,slotMachine_updated,2023.1.3,MacIntel,60.06006006,,,,,,,,,,,,,,,,,,,,,,,,,,,,,,,,,,,,,,,,,,,,,,,,,,,,,1394.4926,9,0,9,0,1
,2023-08-30_13h47.55.372,slotMachine_updated,2023.1.3,MacIntel,60.06006006,,,,,,,,,,,,,,,,,,,,,,,,,,,,,,,,,,,,,,,,,,,,,,,,,,,,,,,,,,
