key_resp_welcome_started,key_resp_welcome_keys,key_resp_welcome_rt,key_resp_welcome_duration,prolific_pid,path_id,date,expName,psychopyVersion,OS,frameRate,key_resp_instruction1_started,key_resp_instruction1_keys,key_resp_instruction1_rt,key_resp_instruction1_duration,key_resp_instruction2_started,key_resp_instruction2_keys,key_resp_instruction2_rt,key_resp_instruction2_duration,key_resp_instruction3_started,key_resp_instruction3_keys,key_resp_instruction3_rt,key_resp_instruction3_duration,key_resp_instruction4_started,key_resp_instruction4_keys,key_resp_instruction4_rt,key_resp_instruction4_duration,practiceCondition,practice_reward_seqs,practice_trial_started,practice_trial_num,practice_resp_rt,practice_keypress_time,practice_resp_keys,prac_presentationInterval,practice_reward_seq,reward_img,cumulative_reward,trial_reward,practice_trials.thisRepN,practice_trials.thisTrialN,practice_trials.thisN,practice_trials.thisIndex,practice_trials.ran,block_break_started,practice_end_time,practice_end_keys,practice_end_rt,practice_end_duration,main_instruction_text_started,block_condition,block_order_indices,main_instruction_keys,main_instruction_rt,main_instruction_duration,block_number,block_assignment,current_condition,main_reward_seqs,main_trial_started,main_trial_num,main_trial_keys,main_trial_rt,main_trial_keypress_time,main_presentationInterval,reward_presentation_time,main_reward_seq,reward_rand_val,main_reward_img,current_reward,main_trials.thisRepN,main_trials.thisTrialN,main_trials.thisN,main_trials.thisIndex,main_trials.ran,block_reward,block.thisRepN,block.thisTrialN,block.thisN,block.thisIndex,block.ran,block_reward.length,block_reward_all,reward_amount,date_end_task
0.0004,space,1.791,,66857cc20736230620552dbc,B,2024-08-16_15h03.30.744,Slot Machine Game,2023.1.3,Win32,59.88023952,,,,,,,,,,,,,,,,,,,,,,,,,,,,,,,,,,,,,,,,,,,,,,,,,,,,,,,,,,,,,,,,,,,,,,,,,,
,,,,66857cc20736230620552dbc,B,2024-08-16_15h03.30.744,Slot Machine Game,2023.1.3,Win32,59.88023952,1.8098,space,4.6858,,,,,,,,,,,,,,,,,,,,,,,,,,,,,,,,,,,,,,,,,,,,,,,,,,,,,,,,,,,,,,,,,,,,,,,
,,,,66857cc20736230620552dbc,B,2024-08-16_15h03.30.744,Slot Machine Game,2023.1.3,Win32,59.88023952,,,,,6.5093,space,18.9874,,,,,,,,,,,,,,,,,,,,,,,,,,,,,,,,,,,,,,,,,,,,,,,,,,,,,,,,,,,,,,,,,,,
,,,,66857cc20736230620552dbc,B,2024-08-16_15h03.30.744,Slot Machine Game,2023.1.3,Win32,59.88023952,,,,,,,,,25.5432,space,4.3741,,,,,,,,,,,,,,,,,,,,,,,,,,,,,,,,,,,,,,,,,,,,,,,,,,,,,,,,,,,,,,,
,,,,66857cc20736230620552dbc,B,2024-08-16_15h03.30.744,Slot Machine Game,2023.1.3,Win32,59.88023952,,,,,,,,,,,,,,,,,,,,,,,,,,,,,,,,,,,,,,,,,,,,,,,,,,,,,,,,,,,,,,,,,,,,,,,,,,
,,,,66857cc20736230620552dbc,B,2024-08-16_15h03.30.744,Slot Machine Game,2023.1.3,Win32,59.88023952,,,,,,,,,,,,,171.656,space,2.2896,,,,,,,,,,,,,,,,,,,,,,,,,,,,,,,,,,,,,,,,,,,,,,,,,,,,,,,,,,,
,,,,66857cc20736230620552dbc,B,2024-08-16_15h03.30.744,Slot Machine Game,2023.1.3,Win32,59.88023952,,,,,,,,,,,,,,,,,"[9,15]","[[2,1,3],[2,3,1]]",173.9715,0,2.4878,176.4924,up,1,"[2,1,3]",stimuli/card_100_transparent.png,100,100,0,0,0,0,1,,,,,,,,,,,,,,,,,,,,,,,,,,,,,,,,,,,,,,,,,
,,,,66857cc20736230620552dbc,B,2024-08-16_15h03.30.744,Slot Machine Game,2023.1.3,Win32,59.88023952,,,,,,,,,,,,,,,,,,,177.7925,1,1.0169,178.8478,up,1,"[2,1,3]",stimuli/card_100_transparent.png,200,100,1,0,1,0,1,,,,,,,,,,,,,,,,,,,,,,,,,,,,,,,,,,,,,,,,,
,,,,66857cc20736230620552dbc,B,2024-08-16_15h03.30.744,Slot Machine Game,2023.1.3,Win32,59.88023952,,,,,,,,,,,,,,,,,,,180.1422,2,1.2096,181.3755,up,1,"[2,1,3]",stimuli/card_100_transparent.png,300,100,2,0,2,0,1,,,,,,,,,,,,,,,,,,,,,,,,,,,,,,,,,,,,,,,,,
,,,,66857cc20736230620552dbc,B,2024-08-16_15h03.30.744,Slot Machine Game,2023.1.3,Win32,59.88023952,,,,,,,,,,,,,,,,,,,182.6756,3,1.0179,183.7256,up,1.5,"[2,1,3]",stimuli/card_100_transparent.png,400,100,3,0,3,0,1,,,,,,,,,,,,,,,,,,,,,,,,,,,,,,,,,,,,,,,,,
,,,,66857cc20736230620552dbc,B,2024-08-16_15h03.30.744,Slot Machine Game,2023.1.3,Win32,59.88023952,,,,,,,,,,,,,,,,,,,185.5255,4,0.5547,186.109,up,1,"[2,1,3]",stimuli/card_100_transparent.png,500,100,4,0,4,0,1,,,,,,,,,,,,,,,,,,,,,,,,,,,,,,,,,,,,,,,,,
,,,,66857cc20736230620552dbc,B,2024-08-16_15h03.30.744,Slot Machine Game,2023.1.3,Win32,59.88023952,,,,,,,,,,,,,,,,,,,187.4089,5,0.5878,188.0093,up,1.5,"[2,1,3]",stimuli/card_100_transparent.png,600,100,5,0,5,0,1,,,,,,,,,,,,,,,,,,,,,,,,,,,,,,,,,,,,,,,,,
,,,,66857cc20736230620552dbc,B,2024-08-16_15h03.30.744,Slot Machine Game,2023.1.3,Win32,59.88023952,,,,,,,,,,,,,,,,,,,189.8088,6,2.4961,192.3423,up,1.5,"[2,1,3]",stimuli/card_0_transparent.png,600,0,6,0,6,0,1,,,,,,,,,,,,,,,,,,,,,,,,,,,,,,,,,,,,,,,,,
,,,,66857cc20736230620552dbc,B,2024-08-16_15h03.30.744,Slot Machine Game,2023.1.3,Win32,59.88023952,,,,,,,,,,,,,,,,,,,194.1257,7,0.7005,194.8589,left,0.5,"[2,1,3]",stimuli/card_10_transparent.png,610,10,7,0,7,0,1,,,,,,,,,,,,,,,,,,,,,,,,,,,,,,,,,,,,,,,,,
,,,,66857cc20736230620552dbc,B,2024-08-16_15h03.30.744,Slot Machine Game,2023.1.3,Win32,59.88023952,,,,,,,,,,,,,,,,,,,195.6589,8,1.6512,197.3422,right,1,"[2,1,3]",stimuli/card_0_transparent.png,610,0,8,0,8,0,1,,,,,,,,,,,,,,,,,,,,,,,,,,,,,,,,,,,,,,,,,
,,,,66857cc20736230620552dbc,B,2024-08-16_15h03.30.744,Slot Machine Game,2023.1.3,Win32,59.88023952,,,,,,,,,,,,,,,,,,,198.6422,9,0.6671,199.3589,left,1,"[2,3,1]",stimuli/card_10_transparent.png,620,10,9,0,9,0,1,,,,,,,,,,,,,,,,,,,,,,,,,,,,,,,,,,,,,,,,,
,,,,66857cc20736230620552dbc,B,2024-08-16_15h03.30.744,Slot Machine Game,2023.1.3,Win32,59.88023952,,,,,,,,,,,,,,,,,,,200.659,10,0.8624,201.5311,up,0.5,"[2,3,1]",stimuli/card_0_transparent.png,620,0,10,0,10,0,1,,,,,,,,,,,,,,,,,,,,,,,,,,,,,,,,,,,,,,,,,
,,,,66857cc20736230620552dbc,B,2024-08-16_15h03.30.744,Slot Machine Game,2023.1.3,Win32,59.88023952,,,,,,,,,,,,,,,,,,,202.3255,11,0.6884,203.0589,right,1.5,"[2,3,1]",stimuli/card_100_transparent.png,720,100,11,0,11,0,1,,,,,,,,,,,,,,,,,,,,,,,,,,,,,,,,,,,,,,,,,
,,,,66857cc20736230620552dbc,B,2024-08-16_15h03.30.744,Slot Machine Game,2023.1.3,Win32,59.88023952,,,,,,,,,,,,,,,,,,,204.8591,12,1.6212,206.5089,right,1,"[2,3,1]",stimuli/card_100_transparent.png,820,100,12,0,12,0,1,,,,,,,,,,,,,,,,,,,,,,,,,,,,,,,,,,,,,,,,,
,,,,66857cc20736230620552dbc,B,2024-08-16_15h03.30.744,Slot Machine Game,2023.1.3,Win32,59.88023952,,,,,,,,,,,,,,,,,,,207.809,13,0.8838,208.7256,right,0.5,"[2,3,1]",stimuli/card_100_transparent.png,920,100,13,0,13,0,1,,,,,,,,,,,,,,,,,,,,,,,,,,,,,,,,,,,,,,,,,
,,,,66857cc20736230620552dbc,B,2024-08-16_15h03.30.744,Slot Machine Game,2023.1.3,Win32,59.88023952,,,,,,,,,,,,,,,,,,,209.5255,14,1.0628,210.6142,right,1.5,"[2,3,1]",stimuli/card_0_transparent.png,920,0,14,0,14,0,1,,,,,,,,,,,,,,,,,,,,,,,,,,,,,,,,,,,,,,,,,
,,,,66857cc20736230620552dbc,B,2024-08-16_15h03.30.744,Slot Machine Game,2023.1.3,Win32,59.88023952,,,,,,,,,,,,,,,,,"[6,15]","[[1,3,2],[3,1,2]]",217.4182,0,1.9349,219.3756,up,0.5,"[1,3,2]",stimuli/card_10_transparent.png,10,10,0,0,0,0,1,212.4176,,,,,,,,,,,,,,,,,,,,,,,,,,,,,,,,,,,,,,,,
,,,,66857cc20736230620552dbc,B,2024-08-16_15h03.30.744,Slot Machine Game,2023.1.3,Win32,59.88023952,,,,,,,,,,,,,,,,,,,220.1757,1,1.3172,221.5256,left,1,"[1,3,2]",stimuli/card_100_transparent.png,110,100,1,0,1,0,1,,,,,,,,,,,,,,,,,,,,,,,,,,,,,,,,,,,,,,,,,
,,,,66857cc20736230620552dbc,B,2024-08-16_15h03.30.744,Slot Machine Game,2023.1.3,Win32,59.88023952,,,,,,,,,,,,,,,,,,,222.8254,2,0.6364,223.4921,left,1.5,"[1,3,2]",stimuli/card_100_transparent.png,210,100,2,0,2,0,1,,,,,,,,,,,,,,,,,,,,,,,,,,,,,,,,,,,,,,,,,
,,,,66857cc20736230620552dbc,B,2024-08-16_15h03.30.744,Slot Machine Game,2023.1.3,Win32,59.88023952,,,,,,,,,,,,,,,,,,,225.2922,3,0.7268,226.0423,left,1,"[1,3,2]",stimuli/card_0_transparent.png,210,0,3,0,3,0,1,,,,,,,,,,,,,,,,,,,,,,,,,,,,,,,,,,,,,,,,,
,,,,66857cc20736230620552dbc,B,2024-08-16_15h03.30.744,Slot Machine Game,2023.1.3,Win32,59.88023952,,,,,,,,,,,,,,,,,,,227.3423,4,1.2504,228.6144,up,0.5,"[1,3,2]",stimuli/card_10_transparent.png,220,10,4,0,4,0,1,,,,,,,,,,,,,,,,,,,,,,,,,,,,,,,,,,,,,,,,,
,,,,66857cc20736230620552dbc,B,2024-08-16_15h03.30.744,Slot Machine Game,2023.1.3,Win32,59.88023952,,,,,,,,,,,,,,,,,,,229.4088,5,0.908,230.3421,right,0.5,"[1,3,2]",stimuli/card_100_transparent.png,320,100,5,0,5,0,1,,,,,,,,,,,,,,,,,,,,,,,,,,,,,,,,,,,,,,,,,
,,,,66857cc20736230620552dbc,B,2024-08-16_15h03.30.744,Slot Machine Game,2023.1.3,Win32,59.88023952,,,,,,,,,,,,,,,,,,,231.1421,6,0.6784,231.8589,right,0.5,"[3,1,2]",stimuli/card_10_transparent.png,330,10,6,0,6,0,1,,,,,,,,,,,,,,,,,,,,,,,,,,,,,,,,,,,,,,,,,
,,,,66857cc20736230620552dbc,B,2024-08-16_15h03.30.744,Slot Machine Game,2023.1.3,Win32,59.88023952,,,,,,,,,,,,,,,,,,,232.6588,7,0.5337,233.214,up,1,"[3,1,2]",stimuli/card_100_transparent.png,430,100,7,0,7,0,1,,,,,,,,,,,,,,,,,,,,,,,,,,,,,,,,,,,,,,,,,
,,,,66857cc20736230620552dbc,B,2024-08-16_15h03.30.744,Slot Machine Game,2023.1.3,Win32,59.88023952,,,,,,,,,,,,,,,,,,,234.5088,8,0.9004,235.4309,left,1,"[3,1,2]",stimuli/card_0_transparent.png,430,0,8,0,8,0,1,,,,,,,,,,,,,,,,,,,,,,,,,,,,,,,,,,,,,,,,,
,,,,66857cc20736230620552dbc,B,2024-08-16_15h03.30.744,Slot Machine Game,2023.1.3,Win32,59.88023952,,,,,,,,,,,,,,,,,,,236.7255,9,0.8161,237.5589,up,1.5,"[3,1,2]",stimuli/card_100_transparent.png,530,100,9,0,9,0,1,,,,,,,,,,,,,,,,,,,,,,,,,,,,,,,,,,,,,,,,,
,,,,66857cc20736230620552dbc,B,2024-08-16_15h03.30.744,Slot Machine Game,2023.1.3,Win32,59.88023952,,,,,,,,,,,,,,,,,,,239.3588,10,0.5839,239.9922,up,1,"[3,1,2]",stimuli/card_100_transparent.png,630,100,10,0,10,0,1,,,,,,,,,,,,,,,,,,,,,,,,,,,,,,,,,,,,,,,,,
,,,,66857cc20736230620552dbc,B,2024-08-16_15h03.30.744,Slot Machine Game,2023.1.3,Win32,59.88023952,,,,,,,,,,,,,,,,,,,241.2922,11,0.6874,241.9922,up,0.5,"[3,1,2]",stimuli/card_100_transparent.png,730,100,11,0,11,0,1,,,,,,,,,,,,,,,,,,,,,,,,,,,,,,,,,,,,,,,,,
,,,,66857cc20736230620552dbc,B,2024-08-16_15h03.30.744,Slot Machine Game,2023.1.3,Win32,59.88023952,,,,,,,,,,,,,,,,,,,242.7921,12,0.6836,243.5255,up,1,"[3,1,2]",stimuli/card_100_transparent.png,830,100,12,0,12,0,1,,,,,,,,,,,,,,,,,,,,,,,,,,,,,,,,,,,,,,,,,
,,,,66857cc20736230620552dbc,B,2024-08-16_15h03.30.744,Slot Machine Game,2023.1.3,Win32,59.88023952,,,,,,,,,,,,,,,,,,,244.8256,13,0.5111,245.3757,up,1.5,"[3,1,2]",stimuli/card_100_transparent.png,930,100,13,0,13,0,1,,,,,,,,,,,,,,,,,,,,,,,,,,,,,,,,,,,,,,,,,
,,,,66857cc20736230620552dbc,B,2024-08-16_15h03.30.744,Slot Machine Game,2023.1.3,Win32,59.88023952,,,,,,,,,,,,,,,,,,,247.1755,14,1.0603,248.2588,up,1,"[3,1,2]",stimuli/card_100_transparent.png,1030,100,14,0,14,0,1,,,,,,,,,,,,,,,,,,,,,,,,,,,,,,,,,,,,,,,,,
,,,,66857cc20736230620552dbc,B,2024-08-16_15h03.30.744,Slot Machine Game,2023.1.3,Win32,59.88023952,,,,,,,,,,,,,,,,,,,,,,,,,,,,,,,,,,249.5588,254.5592,space,2.5832,,,,,,,,,,,,,,,,,,,,,,,,,,,,,,,,,,,,,
,,,,66857cc20736230620552dbc,B,2024-08-16_15h03.30.744,Slot Machine Game,2023.1.3,Win32,59.88023952,,,,,,,,,,,,,,,,,,,,,,,,,,,,,,,,,,,,,,,257.176,2,"[2,4,7,0,1,3,9,6,8,5]",space,2.5428,,,,,,,,,,,,,,,,,,,,,,,,,,,,,,,
,,,,66857cc20736230620552dbc,B,2024-08-16_15h03.30.744,Slot Machine Game,2023.1.3,Win32,59.88023952,,,,,,,,,,,,,,,,,,,,,,,,,,,0,,,,,,,,,,,,,,,,,,1,3,"[15,15]","[[3,1,2],[3,1,2]]",259.7536,0,up,0.9502,260.7258,0.5,0.3,"[3,1,2]",0.020050918,stimuli/card_0_transparent.png,0,0,0,0,0,1,,,,,,,,,,
,,,,66857cc20736230620552dbc,B,2024-08-16_15h03.30.744,Slot Machine Game,2023.1.3,Win32,59.88023952,,,,,,,,,,,,,,,,,,,,,,,,,,,100,,,,,,,,,,,,,,,,,,1,3,,,261.5144,1,up,1.0521,262.5759,1.5,0.3,"[3,1,2]",0.544433838,stimuli/card_100_transparent.png,100,1,0,1,0,1,,,,,,,,,,
,,,,66857cc20736230620552dbc,B,2024-08-16_15h03.30.744,Slot Machine Game,2023.1.3,Win32,59.88023952,,,,,,,,,,,,,,,,,,,,,,,,,,,200,,,,,,,,,,,,,,,,,,1,3,,,264.3755,2,up,0.6446,265.0421,1.5,0.3,"[3,1,2]",0.202210669,stimuli/card_100_transparent.png,100,2,0,2,0,1,,,,,,,,,,
,,,,66857cc20736230620552dbc,B,2024-08-16_15h03.30.744,Slot Machine Game,2023.1.3,Win32,59.88023952,,,,,,,,,,,,,,,,,,,,,,,,,,,300,,,,,,,,,,,,,,,,,,1,3,,,266.8422,3,up,0.884,267.759,0.5,0.3,"[3,1,2]",0.813375209,stimuli/card_100_transparent.png,100,3,0,3,0,1,,,,,,,,,,
,,,,66857cc20736230620552dbc,B,2024-08-16_15h03.30.744,Slot Machine Game,2023.1.3,Win32,59.88023952,,,,,,,,,,,,,,,,,,,,,,,,,,,400,,,,,,,,,,,,,,,,,,1,3,,,268.5588,4,up,0.6916,269.2755,0.5,0.3,"[3,1,2]",0.987213782,stimuli/card_100_transparent.png,100,4,0,4,0,1,,,,,,,,,,
,,,,66857cc20736230620552dbc,B,2024-08-16_15h03.30.744,Slot Machine Game,2023.1.3,Win32,59.88023952,,,,,,,,,,,,,,,,,,,,,,,,,,,500,,,,,,,,,,,,,,,,,,1,3,,,270.0755,5,up,0.6696,270.7755,1,0.3,"[3,1,2]",0.353663712,stimuli/card_100_transparent.png,100,5,0,5,0,1,,,,,,,,,,
,,,,66857cc20736230620552dbc,B,2024-08-16_15h03.30.744,Slot Machine Game,2023.1.3,Win32,59.88023952,,,,,,,,,,,,,,,,,,,,,,,,,,,600,,,,,,,,,,,,,,,,,,1,3,,,272.0755,6,up,0.9215,273.0254,1.5,0.3,"[3,1,2]",0.698507432,stimuli/card_100_transparent.png,100,6,0,6,0,1,,,,,,,,,,
,,,,66857cc20736230620552dbc,B,2024-08-16_15h03.30.744,Slot Machine Game,2023.1.3,Win32,59.88023952,,,,,,,,,,,,,,,,,,,,,,,,,,,700,,,,,,,,,,,,,,,,,,1,3,,,274.8254,7,up,0.7274,275.5755,0.5,0.3,"[3,1,2]",0.302714808,stimuli/card_100_transparent.png,100,7,0,7,0,1,,,,,,,,,,
,,,,66857cc20736230620552dbc,B,2024-08-16_15h03.30.744,Slot Machine Game,2023.1.3,Win32,59.88023952,,,,,,,,,,,,,,,,,,,,,,,,,,,800,,,,,,,,,,,,,,,,,,1,3,,,276.3755,8,up,0.9758,277.3754,1,0.3,"[3,1,2]",0.498653721,stimuli/card_100_transparent.png,100,8,0,8,0,1,,,,,,,,,,
,,,,66857cc20736230620552dbc,B,2024-08-16_15h03.30.744,Slot Machine Game,2023.1.3,Win32,59.88023952,,,,,,,,,,,,,,,,,,,,,,,,,,,900,,,,,,,,,,,,,,,,,,1,3,,,278.6755,9,up,0.5005,279.2089,0.5,0.3,"[3,1,2]",0.526970703,stimuli/card_100_transparent.png,100,9,0,9,0,1,,,,,,,,,,
,,,,66857cc20736230620552dbc,B,2024-08-16_15h03.30.744,Slot Machine Game,2023.1.3,Win32,59.88023952,,,,,,,,,,,,,,,,,,,,,,,,,,,1000,,,,,,,,,,,,,,,,,,1,3,,,280.0088,10,up,0.8222,280.8587,1,0.3,"[3,1,2]",0.266347007,stimuli/card_100_transparent.png,100,10,0,10,0,1,,,,,,,,,,
,,,,66857cc20736230620552dbc,B,2024-08-16_15h03.30.744,Slot Machine Game,2023.1.3,Win32,59.88023952,,,,,,,,,,,,,,,,,,,,,,,,,,,1100,,,,,,,,,,,,,,,,,,1,3,,,282.1588,11,up,0.8591,283.0421,1.5,0.3,"[3,1,2]",0.547582986,stimuli/card_100_transparent.png,100,11,0,11,0,1,,,,,,,,,,
,,,,66857cc20736230620552dbc,B,2024-08-16_15h03.30.744,Slot Machine Game,2023.1.3,Win32,59.88023952,,,,,,,,,,,,,,,,,,,,,,,,,,,1200,,,,,,,,,,,,,,,,,,1,3,,,284.8421,12,up,0.6033,285.4754,1,0.3,"[3,1,2]",0.909148467,stimuli/card_100_transparent.png,100,12,0,12,0,1,,,,,,,,,,
,,,,66857cc20736230620552dbc,B,2024-08-16_15h03.30.744,Slot Machine Game,2023.1.3,Win32,59.88023952,,,,,,,,,,,,,,,,,,,,,,,,,,,1300,,,,,,,,,,,,,,,,,,1,3,,,286.7757,13,up,0.7338,287.5422,0.5,0.3,"[3,1,2]",0.639528202,stimuli/card_100_transparent.png,100,13,0,13,0,1,,,,,,,,,,
,,,,66857cc20736230620552dbc,B,2024-08-16_15h03.30.744,Slot Machine Game,2023.1.3,Win32,59.88023952,,,,,,,,,,,,,,,,,,,,,,,,,,,1400,,,,,,,,,,,,,,,,,,1,3,,,288.3424,14,up,0.6351,289.0088,1.5,0.3,"[3,1,2]",0.968420103,stimuli/card_100_transparent.png,100,14,0,14,0,1,,,,,,,,,,
,,,,66857cc20736230620552dbc,B,2024-08-16_15h03.30.744,Slot Machine Game,2023.1.3,Win32,59.88023952,,,,,,,,,,,,,,,,,,,,,,,,,,,,,,,,,,290.8089,,,,,,,,,,,,,,,,,,,,,,,,,,,,,,,[1400],0,0,0,0,1,,,,
,,,,66857cc20736230620552dbc,B,2024-08-16_15h03.30.744,Slot Machine Game,2023.1.3,Win32,59.88023952,,,,,,,,,,,,,,,,,,,,,,,,,,,0,,,,,,,,,,,,,,,,,,2,5,"[5,15]","[[1,2,3],[3,1,2]]",295.8189,0,right,0.8505,296.6922,0.5,0.3,"[1,2,3]",0.438097913,stimuli/card_0_transparent.png,0,0,0,0,0,1,,,,,,,,,,
,,,,66857cc20736230620552dbc,B,2024-08-16_15h03.30.744,Slot Machine Game,2023.1.3,Win32,59.88023952,,,,,,,,,,,,,,,,,,,,,,,,,,,100,,,,,,,,,,,,,,,,,,2,5,,,297.4921,1,left,0.7184,298.2421,0.5,0.3,"[1,2,3]",0.944530318,stimuli/card_100_transparent.png,100,1,0,1,0,1,,,,,,,,,,
,,,,66857cc20736230620552dbc,B,2024-08-16_15h03.30.744,Slot Machine Game,2023.1.3,Win32,59.88023952,,,,,,,,,,,,,,,,,,,,,,,,,,,200,,,,,,,,,,,,,,,,,,2,5,,,299.042,2,left,0.5029,299.5754,0.5,0.3,"[1,2,3]",0.24428338,stimuli/card_100_transparent.png,100,2,0,2,0,1,,,,,,,,,,
,,,,66857cc20736230620552dbc,B,2024-08-16_15h03.30.744,Slot Machine Game,2023.1.3,Win32,59.88023952,,,,,,,,,,,,,,,,,,,,,,,,,,,300,,,,,,,,,,,,,,,,,,2,5,,,300.3754,3,left,0.5087,300.9087,0.5,0.3,"[1,2,3]",0.746196002,stimuli/card_100_transparent.png,100,3,0,3,0,1,,,,,,,,,,
,,,,66857cc20736230620552dbc,B,2024-08-16_15h03.30.744,Slot Machine Game,2023.1.3,Win32,59.88023952,,,,,,,,,,,,,,,,,,,,,,,,,,,400,,,,,,,,,,,,,,,,,,2,5,,,301.7087,4,left,0.9555,302.6921,0.5,0.3,"[1,2,3]",0.289558162,stimuli/card_100_transparent.png,100,4,0,4,0,1,,,,,,,,,,
,,,,66857cc20736230620552dbc,B,2024-08-16_15h03.30.744,Slot Machine Game,2023.1.3,Win32,59.88023952,,,,,,,,,,,,,,,,,,,,,,,,,,,410,,,,,,,,,,,,,,,,,,2,5,,,303.4921,5,left,0.7337,304.2588,1,0.3,"[3,1,2]",0.182704353,stimuli/card_10_transparent.png,10,5,0,5,0,1,,,,,,,,,,
,,,,66857cc20736230620552dbc,B,2024-08-16_15h03.30.744,Slot Machine Game,2023.1.3,Win32,59.88023952,,,,,,,,,,,,,,,,,,,,,,,,,,,510,,,,,,,,,,,,,,,,,,2,5,,,305.5473,6,up,0.9004,306.4642,1,0.3,"[3,1,2]",0.286164043,stimuli/card_100_transparent.png,100,6,0,6,0,1,,,,,,,,,,
,,,,66857cc20736230620552dbc,B,2024-08-16_15h03.30.744,Slot Machine Game,2023.1.3,Win32,59.88023952,,,,,,,,,,,,,,,,,,,,,,,,,,,610,,,,,,,,,,,,,,,,,,2,5,,,307.7587,7,up,0.9008,308.6815,1,0.3,"[3,1,2]",0.759419796,stimuli/card_100_transparent.png,100,7,0,7,0,1,,,,,,,,,,
,,,,66857cc20736230620552dbc,B,2024-08-16_15h03.30.744,Slot Machine Game,2023.1.3,Win32,59.88023952,,,,,,,,,,,,,,,,,,,,,,,,,,,710,,,,,,,,,,,,,,,,,,2,5,,,309.9755,8,up,0.6191,310.6255,1,0.3,"[3,1,2]",0.456271025,stimuli/card_100_transparent.png,100,8,0,8,0,1,,,,,,,,,,
,,,,66857cc20736230620552dbc,B,2024-08-16_15h03.30.744,Slot Machine Game,2023.1.3,Win32,59.88023952,,,,,,,,,,,,,,,,,,,,,,,,,,,810,,,,,,,,,,,,,,,,,,2,5,,,311.9255,9,up,0.6295,312.5754,0.5,0.3,"[3,1,2]",0.725122037,stimuli/card_100_transparent.png,100,9,0,9,0,1,,,,,,,,,,
,,,,66857cc20736230620552dbc,B,2024-08-16_15h03.30.744,Slot Machine Game,2023.1.3,Win32,59.88023952,,,,,,,,,,,,,,,,,,,,,,,,,,,910,,,,,,,,,,,,,,,,,,2,5,,,313.3755,10,up,0.6944,314.0922,0.5,0.3,"[3,1,2]",0.482433657,stimuli/card_100_transparent.png,100,10,0,10,0,1,,,,,,,,,,
,,,,66857cc20736230620552dbc,B,2024-08-16_15h03.30.744,Slot Machine Game,2023.1.3,Win32,59.88023952,,,,,,,,,,,,,,,,,,,,,,,,,,,1010,,,,,,,,,,,,,,,,,,2,5,,,314.8921,11,up,0.717,315.6422,0.5,0.3,"[3,1,2]",0.228811297,stimuli/card_100_transparent.png,100,11,0,11,0,1,,,,,,,,,,
,,,,66857cc20736230620552dbc,B,2024-08-16_15h03.30.744,Slot Machine Game,2023.1.3,Win32,59.88023952,,,,,,,,,,,,,,,,,,,,,,,,,,,1110,,,,,,,,,,,,,,,,,,2,5,,,316.4421,12,up,0.617,317.0921,1,0.3,"[3,1,2]",0.252542244,stimuli/card_100_transparent.png,100,12,0,12,0,1,,,,,,,,,,
,,,,66857cc20736230620552dbc,B,2024-08-16_15h03.30.744,Slot Machine Game,2023.1.3,Win32,59.88023952,,,,,,,,,,,,,,,,,,,,,,,,,,,1210,,,,,,,,,,,,,,,,,,2,5,,,318.3922,13,up,0.5505,318.9755,0.5,0.3,"[3,1,2]",0.785556765,stimuli/card_100_transparent.png,100,13,0,13,0,1,,,,,,,,,,
,,,,66857cc20736230620552dbc,B,2024-08-16_15h03.30.744,Slot Machine Game,2023.1.3,Win32,59.88023952,,,,,,,,,,,,,,,,,,,,,,,,,,,1310,,,,,,,,,,,,,,,,,,2,5,,,319.7754,14,up,1.0607,320.8588,1.5,0.3,"[3,1,2]",0.235208553,stimuli/card_100_transparent.png,100,14,0,14,0,1,,,,,,,,,,
,,,,66857cc20736230620552dbc,B,2024-08-16_15h03.30.744,Slot Machine Game,2023.1.3,Win32,59.88023952,,,,,,,,,,,,,,,,,,,,,,,,,,,,,,,,,,322.6588,,,,,,,,,,,,,,,,,,,,,,,,,,,,,,,"[1400,1310]",1,0,1,0,1,,,,
,,,,66857cc20736230620552dbc,B,2024-08-16_15h03.30.744,Slot Machine Game,2023.1.3,Win32,59.88023952,,,,,,,,,,,,,,,,,,,,,,,,,,,0,,,,,,,,,,,,,,,,,,3,8,"[11,15]","[[2,1,3],[1,2,3]]",327.6689,0,right,1.0006,328.692,1,0.3,"[2,1,3]",0.472836521,stimuli/card_0_transparent.png,0,0,0,0,0,1,,,,,,,,,,
,,,,66857cc20736230620552dbc,B,2024-08-16_15h03.30.744,Slot Machine Game,2023.1.3,Win32,59.88023952,,,,,,,,,,,,,,,,,,,,,,,,,,,10,,,,,,,,,,,,,,,,,,3,8,,,329.9923,1,left,0.951,330.9755,1,0.3,"[2,1,3]",0.645414785,stimuli/card_10_transparent.png,10,1,0,1,0,1,,,,,,,,,,
,,,,66857cc20736230620552dbc,B,2024-08-16_15h03.30.744,Slot Machine Game,2023.1.3,Win32,59.88023952,,,,,,,,,,,,,,,,,,,,,,,,,,,110,,,,,,,,,,,,,,,,,,3,8,,,332.2754,2,up,0.7433,333.0421,1,0.3,"[2,1,3]",0.473997682,stimuli/card_100_transparent.png,100,2,0,2,0,1,,,,,,,,,,
,,,,66857cc20736230620552dbc,B,2024-08-16_15h03.30.744,Slot Machine Game,2023.1.3,Win32,59.88023952,,,,,,,,,,,,,,,,,,,,,,,,,,,120,,,,,,,,,,,,,,,,,,3,8,,,334.342,3,up,0.6508,335.0088,1,0.3,"[2,1,3]",0.126433472,stimuli/card_10_transparent.png,10,3,0,3,0,1,,,,,,,,,,
,,,,66857cc20736230620552dbc,B,2024-08-16_15h03.30.744,Slot Machine Game,2023.1.3,Win32,59.88023952,,,,,,,,,,,,,,,,,,,,,,,,,,,130,,,,,,,,,,,,,,,,,,3,8,,,336.3088,4,left,0.8534,337.1921,1,0.3,"[2,1,3]",0.866987149,stimuli/card_10_transparent.png,10,4,0,4,0,1,,,,,,,,,,
,,,,66857cc20736230620552dbc,B,2024-08-16_15h03.30.744,Slot Machine Game,2023.1.3,Win32,59.88023952,,,,,,,,,,,,,,,,,,,,,,,,,,,140,,,,,,,,,,,,,,,,,,3,8,,,338.492,5,up,0.7841,339.309,1.5,0.3,"[2,1,3]",0.179243594,stimuli/card_10_transparent.png,10,5,0,5,0,1,,,,,,,,,,
,,,,66857cc20736230620552dbc,B,2024-08-16_15h03.30.744,Slot Machine Game,2023.1.3,Win32,59.88023952,,,,,,,,,,,,,,,,,,,,,,,,,,,140,,,,,,,,,,,,,,,,,,3,8,,,341.1088,6,right,0.8689,342.0088,1,0.3,"[2,1,3]",0.40483532,stimuli/card_0_transparent.png,0,6,0,6,0,1,,,,,,,,,,
,,,,66857cc20736230620552dbc,B,2024-08-16_15h03.30.744,Slot Machine Game,2023.1.3,Win32,59.88023952,,,,,,,,,,,,,,,,,,,,,,,,,,,240,,,,,,,,,,,,,,,,,,3,8,,,343.3088,7,up,0.8672,344.2087,1,0.3,"[2,1,3]",0.401489081,stimuli/card_100_transparent.png,100,7,0,7,0,1,,,,,,,,,,
,,,,66857cc20736230620552dbc,B,2024-08-16_15h03.30.744,Slot Machine Game,2023.1.3,Win32,59.88023952,,,,,,,,,,,,,,,,,,,,,,,,,,,340,,,,,,,,,,,,,,,,,,3,8,,,345.5087,8,up,0.8575,346.392,1.5,0.3,"[2,1,3]",0.939098054,stimuli/card_100_transparent.png,100,8,0,8,0,1,,,,,,,,,,
,,,,66857cc20736230620552dbc,B,2024-08-16_15h03.30.744,Slot Machine Game,2023.1.3,Win32,59.88023952,,,,,,,,,,,,,,,,,,,,,,,,,,,440,,,,,,,,,,,,,,,,,,3,8,,,348.1921,9,up,0.8027,349.0257,1.5,0.3,"[2,1,3]",0.399315169,stimuli/card_100_transparent.png,100,9,0,9,0,1,,,,,,,,,,
,,,,66857cc20736230620552dbc,B,2024-08-16_15h03.30.744,Slot Machine Game,2023.1.3,Win32,59.88023952,,,,,,,,,,,,,,,,,,,,,,,,,,,440,,,,,,,,,,,,,,,,,,3,8,,,350.8255,10,up,0.7004,351.5589,1.5,0.3,"[2,1,3]",0.023200018,stimuli/card_0_transparent.png,0,10,0,10,0,1,,,,,,,,,,
,,,,66857cc20736230620552dbc,B,2024-08-16_15h03.30.744,Slot Machine Game,2023.1.3,Win32,59.88023952,,,,,,,,,,,,,,,,,,,,,,,,,,,540,,,,,,,,,,,,,,,,,,3,8,,,353.3588,11,left,0.8005,354.1755,1.5,0.3,"[1,2,3]",0.560147066,stimuli/card_100_transparent.png,100,11,0,11,0,1,,,,,,,,,,
,,,,66857cc20736230620552dbc,B,2024-08-16_15h03.30.744,Slot Machine Game,2023.1.3,Win32,59.88023952,,,,,,,,,,,,,,,,,,,,,,,,,,,640,,,,,,,,,,,,,,,,,,3,8,,,355.9755,12,left,0.6729,356.6755,0.5,0.3,"[1,2,3]",0.317260693,stimuli/card_100_transparent.png,100,12,0,12,0,1,,,,,,,,,,
,,,,66857cc20736230620552dbc,B,2024-08-16_15h03.30.744,Slot Machine Game,2023.1.3,Win32,59.88023952,,,,,,,,,,,,,,,,,,,,,,,,,,,740,,,,,,,,,,,,,,,,,,3,8,,,357.4758,13,left,0.6036,358.1089,1,0.3,"[1,2,3]",0.999635451,stimuli/card_100_transparent.png,100,13,0,13,0,1,,,,,,,,,,
,,,,66857cc20736230620552dbc,B,2024-08-16_15h03.30.744,Slot Machine Game,2023.1.3,Win32,59.88023952,,,,,,,,,,,,,,,,,,,,,,,,,,,840,,,,,,,,,,,,,,,,,,3,8,,,359.4086,14,left,1.0285,360.4421,1,0.3,"[1,2,3]",0.266304004,stimuli/card_100_transparent.png,100,14,0,14,0,1,,,,,,,,,,
,,,,66857cc20736230620552dbc,B,2024-08-16_15h03.30.744,Slot Machine Game,2023.1.3,Win32,59.88023952,,,,,,,,,,,,,,,,,,,,,,,,,,,,,,,,,,361.7421,,,,,,,,,,,,,,,,,,,,,,,,,,,,,,,"[1400,1310,840]",2,0,2,0,1,,,,
,,,,66857cc20736230620552dbc,B,2024-08-16_15h03.30.744,Slot Machine Game,2023.1.3,Win32,59.88023952,,,,,,,,,,,,,,,,,,,,,,,,,,,100,,,,,,,,,,,,,,,,,,4,1,"[12,15]","[[2,1,3],[2,3,1]]",366.7529,0,right,0.5502,367.314,0.5,0.3,"[2,1,3]",0.010791232,stimuli/card_100_transparent.png,100,0,0,0,0,1,,,,,,,,,,
,,,,66857cc20736230620552dbc,B,2024-08-16_15h03.30.744,Slot Machine Game,2023.1.3,Win32,59.88023952,,,,,,,,,,,,,,,,,,,,,,,,,,,100,,,,,,,,,,,,,,,,,,4,1,,,368.1088,1,right,0.5279,368.6588,0.5,0.3,"[2,1,3]",0.755013775,stimuli/card_0_transparent.png,0,1,0,1,0,1,,,,,,,,,,
,,,,66857cc20736230620552dbc,B,2024-08-16_15h03.30.744,Slot Machine Game,2023.1.3,Win32,59.88023952,,,,,,,,,,,,,,,,,,,,,,,,,,,100,,,,,,,,,,,,,,,,,,4,1,,,369.4587,2,right,0.7729,370.2588,1,0.3,"[2,1,3]",0.951129274,stimuli/card_0_transparent.png,0,2,0,2,0,1,,,,,,,,,,
,,,,66857cc20736230620552dbc,B,2024-08-16_15h03.30.744,Slot Machine Game,2023.1.3,Win32,59.88023952,,,,,,,,,,,,,,,,,,,,,,,,,,,200,,,,,,,,,,,,,,,,,,4,1,,,371.5589,3,up,0.6839,372.2755,1,0.3,"[2,1,3]",0.214414643,stimuli/card_100_transparent.png,100,3,0,3,0,1,,,,,,,,,,
,,,,66857cc20736230620552dbc,B,2024-08-16_15h03.30.744,Slot Machine Game,2023.1.3,Win32,59.88023952,,,,,,,,,,,,,,,,,,,,,,,,,,,300,,,,,,,,,,,,,,,,,,4,1,,,373.5754,4,up,0.8338,374.4421,1,0.3,"[2,1,3]",0.830053022,stimuli/card_100_transparent.png,100,4,0,4,0,1,,,,,,,,,,
,,,,66857cc20736230620552dbc,B,2024-08-16_15h03.30.744,Slot Machine Game,2023.1.3,Win32,59.88023952,,,,,,,,,,,,,,,,,,,,,,,,,,,400,,,,,,,,,,,,,,,,,,4,1,,,375.7421,5,up,0.9977,376.7614,1,0.3,"[2,1,3]",0.526686198,stimuli/card_100_transparent.png,100,5,0,5,0,1,,,,,,,,,,
,,,,66857cc20736230620552dbc,B,2024-08-16_15h03.30.744,Slot Machine Game,2023.1.3,Win32,59.88023952,,,,,,,,,,,,,,,,,,,,,,,,,,,500,,,,,,,,,,,,,,,,,,4,1,,,378.0588,6,up,0.7845,378.8755,0.5,0.3,"[2,1,3]",0.363691045,stimuli/card_100_transparent.png,100,6,0,6,0,1,,,,,,,,,,
,,,,66857cc20736230620552dbc,B,2024-08-16_15h03.30.744,Slot Machine Game,2023.1.3,Win32,59.88023952,,,,,,,,,,,,,,,,,,,,,,,,,,,600,,,,,,,,,,,,,,,,,,4,1,,,379.6754,7,up,1.0045,380.6889,1.5,0.3,"[2,1,3]",0.270536503,stimuli/card_100_transparent.png,100,7,0,7,0,1,,,,,,,,,,
,,,,66857cc20736230620552dbc,B,2024-08-16_15h03.30.744,Slot Machine Game,2023.1.3,Win32,59.88023952,,,,,,,,,,,,,,,,,,,,,,,,,,,700,,,,,,,,,,,,,,,,,,4,1,,,382.4809,8,up,0.7343,383.248,1,0.3,"[2,1,3]",0.792609552,stimuli/card_100_transparent.png,100,8,0,8,0,1,,,,,,,,,,
,,,,66857cc20736230620552dbc,B,2024-08-16_15h03.30.744,Slot Machine Game,2023.1.3,Win32,59.88023952,,,,,,,,,,,,,,,,,,,,,,,,,,,800,,,,,,,,,,,,,,,,,,4,1,,,384.5473,9,up,0.584,385.1643,1.5,0.3,"[2,1,3]",0.573095668,stimuli/card_100_transparent.png,100,9,0,9,0,1,,,,,,,,,,
,,,,66857cc20736230620552dbc,B,2024-08-16_15h03.30.744,Slot Machine Game,2023.1.3,Win32,59.88023952,,,,,,,,,,,,,,,,,,,,,,,,,,,800,,,,,,,,,,,,,,,,,,4,1,,,386.964,10,up,0.5009,387.4978,0.5,0.3,"[2,1,3]",0.097287963,stimuli/card_0_transparent.png,0,10,0,10,0,1,,,,,,,,,,
,,,,66857cc20736230620552dbc,B,2024-08-16_15h03.30.744,Slot Machine Game,2023.1.3,Win32,59.88023952,,,,,,,,,,,,,,,,,,,,,,,,,,,900,,,,,,,,,,,,,,,,,,4,1,,,388.2975,11,up,0.8673,389.1977,0.5,0.3,"[2,1,3]",0.935785506,stimuli/card_100_transparent.png,100,11,0,11,0,1,,,,,,,,,,
,,,,66857cc20736230620552dbc,B,2024-08-16_15h03.30.744,Slot Machine Game,2023.1.3,Win32,59.88023952,,,,,,,,,,,,,,,,,,,,,,,,,,,900,,,,,,,,,,,,,,,,,,4,1,,,389.9974,12,up,0.6675,390.6977,0.5,0.3,"[2,3,1]",0.522820507,stimuli/card_0_transparent.png,0,12,0,12,0,1,,,,,,,,,,
,,,,66857cc20736230620552dbc,B,2024-08-16_15h03.30.744,Slot Machine Game,2023.1.3,Win32,59.88023952,,,,,,,,,,,,,,,,,,,,,,,,,,,910,,,,,,,,,,,,,,,,,,4,1,,,391.4975,13,up,0.5007,392.0143,1,0.3,"[2,3,1]",0.101640929,stimuli/card_10_transparent.png,10,13,0,13,0,1,,,,,,,,,,
,,,,66857cc20736230620552dbc,B,2024-08-16_15h03.30.744,Slot Machine Game,2023.1.3,Win32,59.88023952,,,,,,,,,,,,,,,,,,,,,,,,,,,910,,,,,,,,,,,,,,,,,,4,1,,,393.314,14,up,0.934,394.2644,0.5,0.3,"[2,3,1]",0.744507775,stimuli/card_0_transparent.png,0,14,0,14,0,1,,,,,,,,,,
,,,,66857cc20736230620552dbc,B,2024-08-16_15h03.30.744,Slot Machine Game,2023.1.3,Win32,59.88023952,,,,,,,,,,,,,,,,,,,,,,,,,,,,,,,,,,395.064,,,,,,,,,,,,,,,,,,,,,,,,,,,,,,,"[1400,1310,840,910]",3,0,3,0,1,,,,
,,,,66857cc20736230620552dbc,B,2024-08-16_15h03.30.744,Slot Machine Game,2023.1.3,Win32,59.88023952,,,,,,,,,,,,,,,,,,,,,,,,,,,100,,,,,,,,,,,,,,,,,,5,2,"[6,15]","[[1,3,2],[3,2,1]]",400.0737,0,left,0.6675,400.7644,1.5,0.3,"[1,3,2]",0.892119839,stimuli/card_100_transparent.png,100,0,0,0,0,1,,,,,,,,,,
,,,,66857cc20736230620552dbc,B,2024-08-16_15h03.30.744,Slot Machine Game,2023.1.3,Win32,59.88023952,,,,,,,,,,,,,,,,,,,,,,,,,,,200,,,,,,,,,,,,,,,,,,5,2,,,402.564,1,left,0.5839,403.181,1.5,0.3,"[1,3,2]",0.77534663,stimuli/card_100_transparent.png,100,1,0,1,0,1,,,,,,,,,,
,,,,66857cc20736230620552dbc,B,2024-08-16_15h03.30.744,Slot Machine Game,2023.1.3,Win32,59.88023952,,,,,,,,,,,,,,,,,,,,,,,,,,,300,,,,,,,,,,,,,,,,,,5,2,,,404.9807,2,left,0.9839,405.9811,1.5,0.3,"[1,3,2]",0.483056311,stimuli/card_100_transparent.png,100,2,0,2,0,1,,,,,,,,,,
,,,,66857cc20736230620552dbc,B,2024-08-16_15h03.30.744,Slot Machine Game,2023.1.3,Win32,59.88023952,,,,,,,,,,,,,,,,,,,,,,,,,,,300,,,,,,,,,,,,,,,,,,5,2,,,407.7806,3,left,0.5841,408.398,1.5,0.3,"[1,3,2]",0.061570015,stimuli/card_0_transparent.png,0,3,0,3,0,1,,,,,,,,,,
,,,,66857cc20736230620552dbc,B,2024-08-16_15h03.30.744,Slot Machine Game,2023.1.3,Win32,59.88023952,,,,,,,,,,,,,,,,,,,,,,,,,,,400,,,,,,,,,,,,,,,,,,5,2,,,410.1974,4,left,0.8841,411.0977,1.5,0.3,"[1,3,2]",0.385967356,stimuli/card_100_transparent.png,100,4,0,4,0,1,,,,,,,,,,
,,,,66857cc20736230620552dbc,B,2024-08-16_15h03.30.744,Slot Machine Game,2023.1.3,Win32,59.88023952,,,,,,,,,,,,,,,,,,,,,,,,,,,500,,,,,,,,,,,,,,,,,,5,2,,,412.8974,5,left,0.6672,413.5977,1,0.3,"[1,3,2]",0.560490672,stimuli/card_100_transparent.png,100,5,0,5,0,1,,,,,,,,,,
,,,,66857cc20736230620552dbc,B,2024-08-16_15h03.30.744,Slot Machine Game,2023.1.3,Win32,59.88023952,,,,,,,,,,,,,,,,,,,,,,,,,,,500,,,,,,,,,,,,,,,,,,5,2,,,414.8972,6,left,0.5007,415.431,1.5,0.3,"[3,2,1]",0.962397312,stimuli/card_0_transparent.png,0,6,0,6,0,1,,,,,,,,,,
,,,,66857cc20736230620552dbc,B,2024-08-16_15h03.30.744,Slot Machine Game,2023.1.3,Win32,59.88023952,,,,,,,,,,,,,,,,,,,,,,,,,,,600,,,,,,,,,,,,,,,,,,5,2,,,417.2306,7,left,0.8671,418.1143,1.5,0.3,"[3,2,1]",0.056213738,stimuli/card_100_transparent.png,100,7,0,7,0,1,,,,,,,,,,
,,,,66857cc20736230620552dbc,B,2024-08-16_15h03.30.744,Slot Machine Game,2023.1.3,Win32,59.88023952,,,,,,,,,,,,,,,,,,,,,,,,,,,600,,,,,,,,,,,,,,,,,,5,2,,,419.9142,8,left,0.634,420.581,0.5,0.3,"[3,2,1]",0.546252441,stimuli/card_0_transparent.png,0,8,0,8,0,1,,,,,,,,,,
,,,,66857cc20736230620552dbc,B,2024-08-16_15h03.30.744,Slot Machine Game,2023.1.3,Win32,59.88023952,,,,,,,,,,,,,,,,,,,,,,,,,,,600,,,,,,,,,,,,,,,,,,5,2,,,421.3807,9,left,1.0672,422.481,1.5,0.3,"[3,2,1]",0.82159145,stimuli/card_0_transparent.png,0,9,0,9,0,1,,,,,,,,,,
,,,,66857cc20736230620552dbc,B,2024-08-16_15h03.30.744,Slot Machine Game,2023.1.3,Win32,59.88023952,,,,,,,,,,,,,,,,,,,,,,,,,,,600,,,,,,,,,,,,,,,,,,5,2,,,424.2806,10,left,0.5673,424.881,1.5,0.3,"[3,2,1]",0.688354682,stimuli/card_0_transparent.png,0,10,0,10,0,1,,,,,,,,,,
,,,,66857cc20736230620552dbc,B,2024-08-16_15h03.30.744,Slot Machine Game,2023.1.3,Win32,59.88023952,,,,,,,,,,,,,,,,,,,,,,,,,,,600,,,,,,,,,,,,,,,,,,5,2,,,426.6806,11,left,0.7007,427.4144,1.5,0.3,"[3,2,1]",0.781432352,stimuli/card_0_transparent.png,0,11,0,11,0,1,,,,,,,,,,
,,,,66857cc20736230620552dbc,B,2024-08-16_15h03.30.744,Slot Machine Game,2023.1.3,Win32,59.88023952,,,,,,,,,,,,,,,,,,,,,,,,,,,600,,,,,,,,,,,,,,,,,,5,2,,,429.2143,12,left,0.6174,429.8643,1.5,0.3,"[3,2,1]",0.344331663,stimuli/card_0_transparent.png,0,12,0,12,0,1,,,,,,,,,,
,,,,66857cc20736230620552dbc,B,2024-08-16_15h03.30.744,Slot Machine Game,2023.1.3,Win32,59.88023952,,,,,,,,,,,,,,,,,,,,,,,,,,,600,,,,,,,,,,,,,,,,,,5,2,,,431.664,13,left,0.7842,432.4813,1.5,0.3,"[3,2,1]",0.903225213,stimuli/card_0_transparent.png,0,13,0,13,0,1,,,,,,,,,,
,,,,66857cc20736230620552dbc,B,2024-08-16_15h03.30.744,Slot Machine Game,2023.1.3,Win32,59.88023952,,,,,,,,,,,,,,,,,,,,,,,,,,,610,,,,,,,,,,,,,,,,,,5,2,,,434.2808,14,up,0.8673,435.181,1.5,0.3,"[3,2,1]",0.758676398,stimuli/card_10_transparent.png,10,14,0,14,0,1,,,,,,,,,,
,,,,66857cc20736230620552dbc,B,2024-08-16_15h03.30.744,Slot Machine Game,2023.1.3,Win32,59.88023952,,,,,,,,,,,,,,,,,,,,,,,,,,,,,,,,,,436.9807,,,,,,,,,,,,,,,,,,,,,,,,,,,,,,,"[1400,1310,840,910,610]",4,0,4,0,1,,,,
,,,,66857cc20736230620552dbc,B,2024-08-16_15h03.30.744,Slot Machine Game,2023.1.3,Win32,59.88023952,,,,,,,,,,,,,,,,,,,,,,,,,,,100,,,,,,,,,,,,,,,,,,6,4,"[7,15]","[[2,3,1],[1,2,3]]",441.9899,0,right,0.7338,442.7477,1,0.3,"[2,3,1]",0.314383244,stimuli/card_100_transparent.png,100,0,0,0,0,1,,,,,,,,,,
,,,,66857cc20736230620552dbc,B,2024-08-16_15h03.30.744,Slot Machine Game,2023.1.3,Win32,59.88023952,,,,,,,,,,,,,,,,,,,,,,,,,,,200,,,,,,,,,,,,,,,,,,6,4,,,444.0473,1,right,0.6171,444.6976,1,0.3,"[2,3,1]",0.784500114,stimuli/card_100_transparent.png,100,1,0,1,0,1,,,,,,,,,,
,,,,66857cc20736230620552dbc,B,2024-08-16_15h03.30.744,Slot Machine Game,2023.1.3,Win32,59.88023952,,,,,,,,,,,,,,,,,,,,,,,,,,,200,,,,,,,,,,,,,,,,,,6,4,,,445.9972,2,right,0.6004,446.6309,1,0.3,"[2,3,1]",0.012943354,stimuli/card_0_transparent.png,0,2,0,2,0,1,,,,,,,,,,
,,,,66857cc20736230620552dbc,B,2024-08-16_15h03.30.744,Slot Machine Game,2023.1.3,Win32,59.88023952,,,,,,,,,,,,,,,,,,,,,,,,,,,300,,,,,,,,,,,,,,,,,,6,4,,,447.9307,3,right,0.8508,448.8144,1,0.3,"[2,3,1]",0.517697081,stimuli/card_100_transparent.png,100,3,0,3,0,1,,,,,,,,,,
,,,,66857cc20736230620552dbc,B,2024-08-16_15h03.30.744,Slot Machine Game,2023.1.3,Win32,59.88023952,,,,,,,,,,,,,,,,,,,,,,,,,,,310,,,,,,,,,,,,,,,,,,6,4,,,450.1139,4,right,0.7338,450.8809,1.5,0.3,"[2,3,1]",0.142570068,stimuli/card_10_transparent.png,10,4,0,4,0,1,,,,,,,,,,
,,,,66857cc20736230620552dbc,B,2024-08-16_15h03.30.744,Slot Machine Game,2023.1.3,Win32,59.88023952,,,,,,,,,,,,,,,,,,,,,,,,,,,320,,,,,,,,,,,,,,,,,,6,4,,,452.6806,5,right,0.5172,453.231,1,0.3,"[2,3,1]",0.107485689,stimuli/card_10_transparent.png,10,5,0,5,0,1,,,,,,,,,,
,,,,66857cc20736230620552dbc,B,2024-08-16_15h03.30.744,Slot Machine Game,2023.1.3,Win32,59.88023952,,,,,,,,,,,,,,,,,,,,,,,,,,,420,,,,,,,,,,,,,,,,,,6,4,,,454.5309,6,right,0.7005,455.2643,0.5,0.3,"[2,3,1]",0.544502795,stimuli/card_100_transparent.png,100,6,0,6,0,1,,,,,,,,,,
,,,,66857cc20736230620552dbc,B,2024-08-16_15h03.30.744,Slot Machine Game,2023.1.3,Win32,59.88023952,,,,,,,,,,,,,,,,,,,,,,,,,,,420,,,,,,,,,,,,,,,,,,6,4,,,456.0639,7,right,0.7672,456.8643,1,0.3,"[1,2,3]",0.564751712,stimuli/card_0_transparent.png,0,7,0,7,0,1,,,,,,,,,,
,,,,66857cc20736230620552dbc,B,2024-08-16_15h03.30.744,Slot Machine Game,2023.1.3,Win32,59.88023952,,,,,,,,,,,,,,,,,,,,,,,,,,,420,,,,,,,,,,,,,,,,,,6,4,,,458.164,8,right,0.6172,458.8143,0.5,0.3,"[1,2,3]",0.716149342,stimuli/card_0_transparent.png,0,8,0,8,0,1,,,,,,,,,,
,,,,66857cc20736230620552dbc,B,2024-08-16_15h03.30.744,Slot Machine Game,2023.1.3,Win32,59.88023952,,,,,,,,,,,,,,,,,,,,,,,,,,,420,,,,,,,,,,,,,,,,,,6,4,,,459.6141,9,right,0.8839,460.531,1.5,0.3,"[1,2,3]",0.389243869,stimuli/card_0_transparent.png,0,9,0,9,0,1,,,,,,,,,,
,,,,66857cc20736230620552dbc,B,2024-08-16_15h03.30.744,Slot Machine Game,2023.1.3,Win32,59.88023952,,,,,,,,,,,,,,,,,,,,,,,,,,,420,,,,,,,,,,,,,,,,,,6,4,,,462.3306,10,right,0.7507,463.1145,1,0.3,"[1,2,3]",0.976539143,stimuli/card_0_transparent.png,0,10,0,10,0,1,,,,,,,,,,
,,,,66857cc20736230620552dbc,B,2024-08-16_15h03.30.744,Slot Machine Game,2023.1.3,Win32,59.88023952,,,,,,,,,,,,,,,,,,,,,,,,,,,430,,,,,,,,,,,,,,,,,,6,4,,,464.4142,11,up,0.8506,465.2977,1.5,0.3,"[1,2,3]",0.267002874,stimuli/card_10_transparent.png,10,11,0,11,0,1,,,,,,,,,,
,,,,66857cc20736230620552dbc,B,2024-08-16_15h03.30.744,Slot Machine Game,2023.1.3,Win32,59.88023952,,,,,,,,,,,,,,,,,,,,,,,,,,,530,,,,,,,,,,,,,,,,,,6,4,,,467.0973,12,left,0.8503,467.9641,0.5,0.3,"[1,2,3]",0.645700445,stimuli/card_100_transparent.png,100,12,0,12,0,1,,,,,,,,,,
,,,,66857cc20736230620552dbc,B,2024-08-16_15h03.30.744,Slot Machine Game,2023.1.3,Win32,59.88023952,,,,,,,,,,,,,,,,,,,,,,,,,,,630,,,,,,,,,,,,,,,,,,6,4,,,468.764,13,left,0.5838,469.381,1.5,0.3,"[1,2,3]",0.351767202,stimuli/card_100_transparent.png,100,13,0,13,0,1,,,,,,,,,,
,,,,66857cc20736230620552dbc,B,2024-08-16_15h03.30.744,Slot Machine Game,2023.1.3,Win32,59.88023952,,,,,,,,,,,,,,,,,,,,,,,,,,,730,,,,,,,,,,,,,,,,,,6,4,,,471.1806,14,left,0.5338,471.7476,1.5,0.3,"[1,2,3]",0.850810465,stimuli/card_100_transparent.png,100,14,0,14,0,1,,,,,,,,,,
,,,,66857cc20736230620552dbc,B,2024-08-16_15h03.30.744,Slot Machine Game,2023.1.3,Win32,59.88023952,,,,,,,,,,,,,,,,,,,,,,,,,,,,,,,,,,473.5474,,,,,,,,,,,,,,,,,,,,,,,,,,,,,,,"[1400,1310,840,910,610,730]",5,0,5,0,1,,,,
,,,,66857cc20736230620552dbc,B,2024-08-16_15h03.30.744,Slot Machine Game,2023.1.3,Win32,59.88023952,,,,,,,,,,,,,,,,,,,,,,,,,,,100,,,,,,,,,,,,,,,,,,7,10,"[10,15]","[[3,1,2],[1,3,2]]",478.5564,0,up,0.5172,479.0976,1.5,0.3,"[3,1,2]",0.340569879,stimuli/card_100_transparent.png,100,0,0,0,0,1,,,,,,,,,,
,,,,66857cc20736230620552dbc,B,2024-08-16_15h03.30.744,Slot Machine Game,2023.1.3,Win32,59.88023952,,,,,,,,,,,,,,,,,,,,,,,,,,,200,,,,,,,,,,,,,,,,,,7,10,,,480.8974,1,up,0.5672,481.4977,1.5,0.3,"[3,1,2]",0.660170344,stimuli/card_100_transparent.png,100,1,0,1,0,1,,,,,,,,,,
,,,,66857cc20736230620552dbc,B,2024-08-16_15h03.30.744,Slot Machine Game,2023.1.3,Win32,59.88023952,,,,,,,,,,,,,,,,,,,,,,,,,,,300,,,,,,,,,,,,,,,,,,7,10,,,483.2973,2,up,0.5006,483.8311,1,0.3,"[3,1,2]",0.404438775,stimuli/card_100_transparent.png,100,2,0,2,0,1,,,,,,,,,,
,,,,66857cc20736230620552dbc,B,2024-08-16_15h03.30.744,Slot Machine Game,2023.1.3,Win32,59.88023952,,,,,,,,,,,,,,,,,,,,,,,,,,,400,,,,,,,,,,,,,,,,,,7,10,,,485.1307,3,up,0.5007,485.6643,0.5,0.3,"[3,1,2]",0.790567949,stimuli/card_100_transparent.png,100,3,0,3,0,1,,,,,,,,,,
,,,,66857cc20736230620552dbc,B,2024-08-16_15h03.30.744,Slot Machine Game,2023.1.3,Win32,59.88023952,,,,,,,,,,,,,,,,,,,,,,,,,,,500,,,,,,,,,,,,,,,,,,7,10,,,486.4641,4,up,0.8172,487.3142,1.5,0.3,"[3,1,2]",0.776203976,stimuli/card_100_transparent.png,100,4,0,4,0,1,,,,,,,,,,
,,,,66857cc20736230620552dbc,B,2024-08-16_15h03.30.744,Slot Machine Game,2023.1.3,Win32,59.88023952,,,,,,,,,,,,,,,,,,,,,,,,,,,600,,,,,,,,,,,,,,,,,,7,10,,,489.1139,5,up,1.0172,490.1476,1,0.3,"[3,1,2]",0.286163071,stimuli/card_100_transparent.png,100,5,0,5,0,1,,,,,,,,,,
,,,,66857cc20736230620552dbc,B,2024-08-16_15h03.30.744,Slot Machine Game,2023.1.3,Win32,59.88023952,,,,,,,,,,,,,,,,,,,,,,,,,,,700,,,,,,,,,,,,,,,,,,7,10,,,491.4473,6,up,0.5673,492.0476,1.5,0.3,"[3,1,2]",0.431186505,stimuli/card_100_transparent.png,100,6,0,6,0,1,,,,,,,,,,
,,,,66857cc20736230620552dbc,B,2024-08-16_15h03.30.744,Slot Machine Game,2023.1.3,Win32,59.88023952,,,,,,,,,,,,,,,,,,,,,,,,,,,800,,,,,,,,,,,,,,,,,,7,10,,,493.8473,7,up,1.0502,494.9141,1.5,0.3,"[3,1,2]",0.502684857,stimuli/card_100_transparent.png,100,7,0,7,0,1,,,,,,,,,,
,,,,66857cc20736230620552dbc,B,2024-08-16_15h03.30.744,Slot Machine Game,2023.1.3,Win32,59.88023952,,,,,,,,,,,,,,,,,,,,,,,,,,,900,,,,,,,,,,,,,,,,,,7,10,,,496.714,8,up,0.9675,497.7144,1,0.3,"[3,1,2]",0.530617059,stimuli/card_100_transparent.png,100,8,0,8,0,1,,,,,,,,,,
,,,,66857cc20736230620552dbc,B,2024-08-16_15h03.30.744,Slot Machine Game,2023.1.3,Win32,59.88023952,,,,,,,,,,,,,,,,,,,,,,,,,,,1000,,,,,,,,,,,,,,,,,,7,10,,,499.0139,9,up,0.6503,499.6974,1.5,0.3,"[3,1,2]",0.59534955,stimuli/card_100_transparent.png,100,9,0,9,0,1,,,,,,,,,,
,,,,66857cc20736230620552dbc,B,2024-08-16_15h03.30.744,Slot Machine Game,2023.1.3,Win32,59.88023952,,,,,,,,,,,,,,,,,,,,,,,,,,,1000,,,,,,,,,,,,,,,,,,7,10,,,501.4974,10,up,0.6177,502.132,1,0.3,"[1,3,2]",0.251442516,stimuli/card_0_transparent.png,0,10,0,10,0,1,,,,,,,,,,
,,,,66857cc20736230620552dbc,B,2024-08-16_15h03.30.744,Slot Machine Game,2023.1.3,Win32,59.88023952,,,,,,,,,,,,,,,,,,,,,,,,,,,1000,,,,,,,,,,,,,,,,,,7,10,,,503.4306,11,up,0.6674,504.131,1,0.3,"[1,3,2]",0.248949297,stimuli/card_0_transparent.png,0,11,0,11,0,1,,,,,,,,,,
,,,,66857cc20736230620552dbc,B,2024-08-16_15h03.30.744,Slot Machine Game,2023.1.3,Win32,59.88023952,,,,,,,,,,,,,,,,,,,,,,,,,,,1000,,,,,,,,,,,,,,,,,,7,10,,,505.4308,12,up,0.6841,506.1478,0.5,0.3,"[1,3,2]",0.672199811,stimuli/card_0_transparent.png,0,12,0,12,0,1,,,,,,,,,,
,,,,66857cc20736230620552dbc,B,2024-08-16_15h03.30.744,Slot Machine Game,2023.1.3,Win32,59.88023952,,,,,,,,,,,,,,,,,,,,,,,,,,,1000,,,,,,,,,,,,,,,,,,7,10,,,506.9476,13,up,0.834,507.8143,0.5,0.3,"[1,3,2]",0.584563547,stimuli/card_0_transparent.png,0,13,0,13,0,1,,,,,,,,,,
,,,,66857cc20736230620552dbc,B,2024-08-16_15h03.30.744,Slot Machine Game,2023.1.3,Win32,59.88023952,,,,,,,,,,,,,,,,,,,,,,,,,,,1010,,,,,,,,,,,,,,,,,,7,10,,,508.6144,14,left,0.6505,509.2976,0.5,0.3,"[1,3,2]",0.111968016,stimuli/card_10_transparent.png,10,14,0,14,0,1,,,,,,,,,,
,,,,66857cc20736230620552dbc,B,2024-08-16_15h03.30.744,Slot Machine Game,2023.1.3,Win32,59.88023952,,,,,,,,,,,,,,,,,,,,,,,,,,,,,,,,,,510.0973,,,,,,,,,,,,,,,,,,,,,,,,,,,,,,,"[1400,1310,840,910,610,730,1010]",6,0,6,0,1,,,,
,,,,66857cc20736230620552dbc,B,2024-08-16_15h03.30.744,Slot Machine Game,2023.1.3,Win32,59.88023952,,,,,,,,,,,,,,,,,,,,,,,,,,,10,,,,,,,,,,,,,,,,,,8,7,"[9,15]","[[1,3,2],[2,3,1]]",515.1069,0,right,0.5339,515.6645,0.5,0.3,"[1,3,2]",0.267815357,stimuli/card_10_transparent.png,10,0,0,0,0,1,,,,,,,,,,
,,,,66857cc20736230620552dbc,B,2024-08-16_15h03.30.744,Slot Machine Game,2023.1.3,Win32,59.88023952,,,,,,,,,,,,,,,,,,,,,,,,,,,10,,,,,,,,,,,,,,,,,,8,7,,,516.4639,1,up,0.5005,516.9975,0.5,0.3,"[1,3,2]",0.669986577,stimuli/card_0_transparent.png,0,1,0,1,0,1,,,,,,,,,,
,,,,66857cc20736230620552dbc,B,2024-08-16_15h03.30.744,Slot Machine Game,2023.1.3,Win32,59.88023952,,,,,,,,,,,,,,,,,,,,,,,,,,,110,,,,,,,,,,,,,,,,,,8,7,,,517.7972,2,left,0.6506,518.4809,1.5,0.3,"[1,3,2]",0.670219632,stimuli/card_100_transparent.png,100,2,0,2,0,1,,,,,,,,,,
,,,,66857cc20736230620552dbc,B,2024-08-16_15h03.30.744,Slot Machine Game,2023.1.3,Win32,59.88023952,,,,,,,,,,,,,,,,,,,,,,,,,,,210,,,,,,,,,,,,,,,,,,8,7,,,520.2807,3,left,0.634,520.9477,1.5,0.3,"[1,3,2]",0.694543587,stimuli/card_100_transparent.png,100,3,0,3,0,1,,,,,,,,,,
,,,,66857cc20736230620552dbc,B,2024-08-16_15h03.30.744,Slot Machine Game,2023.1.3,Win32,59.88023952,,,,,,,,,,,,,,,,,,,,,,,,,,,310,,,,,,,,,,,,,,,,,,8,7,,,522.7473,4,left,0.6172,523.3976,1.5,0.3,"[1,3,2]",0.34321323,stimuli/card_100_transparent.png,100,4,0,4,0,1,,,,,,,,,,
,,,,66857cc20736230620552dbc,B,2024-08-16_15h03.30.744,Slot Machine Game,2023.1.3,Win32,59.88023952,,,,,,,,,,,,,,,,,,,,,,,,,,,410,,,,,,,,,,,,,,,,,,8,7,,,525.1975,5,left,0.5505,525.7809,1,0.3,"[1,3,2]",0.926583401,stimuli/card_100_transparent.png,100,5,0,5,0,1,,,,,,,,,,
,,,,66857cc20736230620552dbc,B,2024-08-16_15h03.30.744,Slot Machine Game,2023.1.3,Win32,59.88023952,,,,,,,,,,,,,,,,,,,,,,,,,,,510,,,,,,,,,,,,,,,,,,8,7,,,527.0806,6,left,0.7172,527.831,0.5,0.3,"[1,3,2]",0.374720158,stimuli/card_100_transparent.png,100,6,0,6,0,1,,,,,,,,,,
,,,,66857cc20736230620552dbc,B,2024-08-16_15h03.30.744,Slot Machine Game,2023.1.3,Win32,59.88023952,,,,,,,,,,,,,,,,,,,,,,,,,,,610,,,,,,,,,,,,,,,,,,8,7,,,528.6307,7,left,0.634,529.2976,0.5,0.3,"[1,3,2]",0.378873357,stimuli/card_100_transparent.png,100,7,0,7,0,1,,,,,,,,,,
,,,,66857cc20736230620552dbc,B,2024-08-16_15h03.30.744,Slot Machine Game,2023.1.3,Win32,59.88023952,,,,,,,,,,,,,,,,,,,,,,,,,,,620,,,,,,,,,,,,,,,,,,8,7,,,530.0973,8,left,0.7673,530.8975,1,0.3,"[1,3,2]",0.101107362,stimuli/card_10_transparent.png,10,8,0,8,0,1,,,,,,,,,,
,,,,66857cc20736230620552dbc,B,2024-08-16_15h03.30.744,Slot Machine Game,2023.1.3,Win32,59.88023952,,,,,,,,,,,,,,,,,,,,,,,,,,,630,,,,,,,,,,,,,,,,,,8,7,,,532.1975,9,left,0.6506,532.8809,0.5,0.3,"[2,3,1]",0.424261838,stimuli/card_10_transparent.png,10,9,0,9,0,1,,,,,,,,,,
,,,,66857cc20736230620552dbc,B,2024-08-16_15h03.30.744,Slot Machine Game,2023.1.3,Win32,59.88023952,,,,,,,,,,,,,,,,,,,,,,,,,,,630,,,,,,,,,,,,,,,,,,8,7,,,533.6806,10,up,0.8673,534.5642,0.5,0.3,"[2,3,1]",0.59085071,stimuli/card_0_transparent.png,0,10,0,10,0,1,,,,,,,,,,
,,,,66857cc20736230620552dbc,B,2024-08-16_15h03.30.744,Slot Machine Game,2023.1.3,Win32,59.88023952,,,,,,,,,,,,,,,,,,,,,,,,,,,730,,,,,,,,,,,,,,,,,,8,7,,,535.3641,11,right,0.8671,536.2641,0.5,0.3,"[2,3,1]",0.837174929,stimuli/card_100_transparent.png,100,11,0,11,0,1,,,,,,,,,,
,,,,66857cc20736230620552dbc,B,2024-08-16_15h03.30.744,Slot Machine Game,2023.1.3,Win32,59.88023952,,,,,,,,,,,,,,,,,,,,,,,,,,,830,,,,,,,,,,,,,,,,,,8,7,,,537.064,12,right,0.7006,537.7977,0.5,0.3,"[2,3,1]",0.621618421,stimuli/card_100_transparent.png,100,12,0,12,0,1,,,,,,,,,,
,,,,66857cc20736230620552dbc,B,2024-08-16_15h03.30.744,Slot Machine Game,2023.1.3,Win32,59.88023952,,,,,,,,,,,,,,,,,,,,,,,,,,,930,,,,,,,,,,,,,,,,,,8,7,,,538.5973,13,right,0.5169,539.1475,1.5,0.3,"[2,3,1]",0.681921224,stimuli/card_100_transparent.png,100,13,0,13,0,1,,,,,,,,,,
,,,,66857cc20736230620552dbc,B,2024-08-16_15h03.30.744,Slot Machine Game,2023.1.3,Win32,59.88023952,,,,,,,,,,,,,,,,,,,,,,,,,,,1030,,,,,,,,,,,,,,,,,,8,7,,,540.9474,14,right,0.867,541.8476,1.5,0.3,"[2,3,1]",0.60875558,stimuli/card_100_transparent.png,100,14,0,14,0,1,,,,,,,,,,
,,,,66857cc20736230620552dbc,B,2024-08-16_15h03.30.744,Slot Machine Game,2023.1.3,Win32,59.88023952,,,,,,,,,,,,,,,,,,,,,,,,,,,,,,,,,,543.6474,,,,,,,,,,,,,,,,,,,,,,,,,,,,,,,"[1400,1310,840,910,610,730,1010,1030]",7,0,7,0,1,,,,
,,,,66857cc20736230620552dbc,B,2024-08-16_15h03.30.744,Slot Machine Game,2023.1.3,Win32,59.88023952,,,,,,,,,,,,,,,,,,,,,,,,,,,0,,,,,,,,,,,,,,,,,,9,9,"[8,15]","[[3,2,1],[3,1,2]]",548.6561,0,up,0.7838,549.4642,1,0.3,"[3,2,1]",0.064086436,stimuli/card_0_transparent.png,0,0,0,0,0,1,,,,,,,,,,
,,,,66857cc20736230620552dbc,B,2024-08-16_15h03.30.744,Slot Machine Game,2023.1.3,Win32,59.88023952,,,,,,,,,,,,,,,,,,,,,,,,,,,100,,,,,,,,,,,,,,,,,,9,9,,,550.764,1,right,0.9673,551.7476,1.5,0.3,"[3,2,1]",0.670069367,stimuli/card_100_transparent.png,100,1,0,1,0,1,,,,,,,,,,
,,,,66857cc20736230620552dbc,B,2024-08-16_15h03.30.744,Slot Machine Game,2023.1.3,Win32,59.88023952,,,,,,,,,,,,,,,,,,,,,,,,,,,200,,,,,,,,,,,,,,,,,,9,9,,,553.5473,2,right,0.9672,554.5308,1,0.3,"[3,2,1]",0.780492072,stimuli/card_100_transparent.png,100,2,0,2,0,1,,,,,,,,,,
,,,,66857cc20736230620552dbc,B,2024-08-16_15h03.30.744,Slot Machine Game,2023.1.3,Win32,59.88023952,,,,,,,,,,,,,,,,,,,,,,,,,,,300,,,,,,,,,,,,,,,,,,9,9,,,555.8307,3,right,0.5341,556.3976,0.5,0.3,"[3,2,1]",0.993943596,stimuli/card_100_transparent.png,100,3,0,3,0,1,,,,,,,,,,
,,,,66857cc20736230620552dbc,B,2024-08-16_15h03.30.744,Slot Machine Game,2023.1.3,Win32,59.88023952,,,,,,,,,,,,,,,,,,,,,,,,,,,400,,,,,,,,,,,,,,,,,,9,9,,,557.1976,4,right,0.6006,557.831,1,0.3,"[3,2,1]",0.684016204,stimuli/card_100_transparent.png,100,4,0,4,0,1,,,,,,,,,,
,,,,66857cc20736230620552dbc,B,2024-08-16_15h03.30.744,Slot Machine Game,2023.1.3,Win32,59.88023952,,,,,,,,,,,,,,,,,,,,,,,,,,,500,,,,,,,,,,,,,,,,,,9,9,,,559.1306,5,right,0.734,559.8976,1.5,0.3,"[3,2,1]",0.770304153,stimuli/card_100_transparent.png,100,5,0,5,0,1,,,,,,,,,,
,,,,66857cc20736230620552dbc,B,2024-08-16_15h03.30.744,Slot Machine Game,2023.1.3,Win32,59.88023952,,,,,,,,,,,,,,,,,,,,,,,,,,,600,,,,,,,,,,,,,,,,,,9,9,,,561.6972,6,right,0.634,562.3643,1,0.3,"[3,2,1]",0.746867649,stimuli/card_100_transparent.png,100,6,0,6,0,1,,,,,,,,,,
,,,,66857cc20736230620552dbc,B,2024-08-16_15h03.30.744,Slot Machine Game,2023.1.3,Win32,59.88023952,,,,,,,,,,,,,,,,,,,,,,,,,,,700,,,,,,,,,,,,,,,,,,9,9,,,563.6639,7,right,0.5009,564.1979,1,0.3,"[3,2,1]",0.568605024,stimuli/card_100_transparent.png,100,7,0,7,0,1,,,,,,,,,,
,,,,66857cc20736230620552dbc,B,2024-08-16_15h03.30.744,Slot Machine Game,2023.1.3,Win32,59.88023952,,,,,,,,,,,,,,,,,,,,,,,,,,,710,,,,,,,,,,,,,,,,,,9,9,,,565.4973,8,right,0.9837,566.5141,1,0.3,"[3,1,2]",0.566033176,stimuli/card_10_transparent.png,10,8,0,8,0,1,,,,,,,,,,
,,,,66857cc20736230620552dbc,B,2024-08-16_15h03.30.744,Slot Machine Game,2023.1.3,Win32,59.88023952,,,,,,,,,,,,,,,,,,,,,,,,,,,810,,,,,,,,,,,,,,,,,,9,9,,,567.8141,9,up,1.1673,569.0142,0.5,0.3,"[3,1,2]",0.6351792,stimuli/card_100_transparent.png,100,9,0,9,0,1,,,,,,,,,,
,,,,66857cc20736230620552dbc,B,2024-08-16_15h03.30.744,Slot Machine Game,2023.1.3,Win32,59.88023952,,,,,,,,,,,,,,,,,,,,,,,,,,,910,,,,,,,,,,,,,,,,,,9,9,,,569.814,10,up,0.5673,570.4143,1.5,0.3,"[3,1,2]",0.375182521,stimuli/card_100_transparent.png,100,10,0,10,0,1,,,,,,,,,,
,,,,66857cc20736230620552dbc,B,2024-08-16_15h03.30.744,Slot Machine Game,2023.1.3,Win32,59.88023952,,,,,,,,,,,,,,,,,,,,,,,,,,,1010,,,,,,,,,,,,,,,,,,9,9,,,572.2138,11,up,0.6006,572.8309,0.5,0.3,"[3,1,2]",0.254575991,stimuli/card_100_transparent.png,100,11,0,11,0,1,,,,,,,,,,
,,,,66857cc20736230620552dbc,B,2024-08-16_15h03.30.744,Slot Machine Game,2023.1.3,Win32,59.88023952,,,,,,,,,,,,,,,,,,,,,,,,,,,1110,,,,,,,,,,,,,,,,,,9,9,,,573.6308,12,up,0.7006,574.3644,1,0.3,"[3,1,2]",0.444248351,stimuli/card_100_transparent.png,100,12,0,12,0,1,,,,,,,,,,
,,,,66857cc20736230620552dbc,B,2024-08-16_15h03.30.744,Slot Machine Game,2023.1.3,Win32,59.88023952,,,,,,,,,,,,,,,,,,,,,,,,,,,1210,,,,,,,,,,,,,,,,,,9,9,,,575.664,13,up,0.8672,576.5642,0.5,0.3,"[3,1,2]",0.903841452,stimuli/card_100_transparent.png,100,13,0,13,0,1,,,,,,,,,,
,,,,66857cc20736230620552dbc,B,2024-08-16_15h03.30.744,Slot Machine Game,2023.1.3,Win32,59.88023952,,,,,,,,,,,,,,,,,,,,,,,,,,,1310,,,,,,,,,,,,,,,,,,9,9,,,577.3641,14,up,0.7006,578.0975,1.5,0.3,"[3,1,2]",0.755174378,stimuli/card_100_transparent.png,100,14,0,14,0,1,,,,,,,,,,
,,,,66857cc20736230620552dbc,B,2024-08-16_15h03.30.744,Slot Machine Game,2023.1.3,Win32,59.88023952,,,,,,,,,,,,,,,,,,,,,,,,,,,,,,,,,,579.8978,,,,,,,,,,,,,,,,,,,,,,,,,,,,,,,"[1400,1310,840,910,610,730,1010,1030,1310]",8,0,8,0,1,,,,
,,,,66857cc20736230620552dbc,B,2024-08-16_15h03.30.744,Slot Machine Game,2023.1.3,Win32,59.88023952,,,,,,,,,,,,,,,,,,,,,,,,,,,10,,,,,,,,,,,,,,,,,,10,6,"[4,10,15]","[[2,3,1],[1,3,2],[3,2,1]]",584.9061,0,left,0.6173,585.5476,0.5,0.3,"[2,3,1]",0.498216942,stimuli/card_10_transparent.png,10,0,0,0,0,1,,,,,,,,,,
,,,,66857cc20736230620552dbc,B,2024-08-16_15h03.30.744,Slot Machine Game,2023.1.3,Win32,59.88023952,,,,,,,,,,,,,,,,,,,,,,,,,,,10,,,,,,,,,,,,,,,,,,10,6,,,586.3476,1,up,0.8842,587.2645,1.5,0.3,"[2,3,1]",0.752674822,stimuli/card_0_transparent.png,0,1,0,1,0,1,,,,,,,,,,
,,,,66857cc20736230620552dbc,B,2024-08-16_15h03.30.744,Slot Machine Game,2023.1.3,Win32,59.88023952,,,,,,,,,,,,,,,,,,,,,,,,,,,110,,,,,,,,,,,,,,,,,,10,6,,,589.064,2,right,0.7671,589.8642,1.5,0.3,"[2,3,1]",0.892108028,stimuli/card_100_transparent.png,100,2,0,2,0,1,,,,,,,,,,
,,,,66857cc20736230620552dbc,B,2024-08-16_15h03.30.744,Slot Machine Game,2023.1.3,Win32,59.88023952,,,,,,,,,,,,,,,,,,,,,,,,,,,210,,,,,,,,,,,,,,,,,,10,6,,,591.6639,3,right,0.6174,592.3143,1,0.3,"[2,3,1]",0.234468142,stimuli/card_100_transparent.png,100,3,0,3,0,1,,,,,,,,,,
,,,,66857cc20736230620552dbc,B,2024-08-16_15h03.30.744,Slot Machine Game,2023.1.3,Win32,59.88023952,,,,,,,,,,,,,,,,,,,,,,,,,,,220,,,,,,,,,,,,,,,,,,10,6,,,593.6141,4,right,0.7006,594.3475,1,0.3,"[1,3,2]",0.758372023,stimuli/card_10_transparent.png,10,4,0,4,0,1,,,,,,,,,,
,,,,66857cc20736230620552dbc,B,2024-08-16_15h03.30.744,Slot Machine Game,2023.1.3,Win32,59.88023952,,,,,,,,,,,,,,,,,,,,,,,,,,,220,,,,,,,,,,,,,,,,,,10,6,,,595.6473,5,up,0.8839,596.5642,0.5,0.3,"[1,3,2]",0.282574399,stimuli/card_0_transparent.png,0,5,0,5,0,1,,,,,,,,,,
,,,,66857cc20736230620552dbc,B,2024-08-16_15h03.30.744,Slot Machine Game,2023.1.3,Win32,59.88023952,,,,,,,,,,,,,,,,,,,,,,,,,,,320,,,,,,,,,,,,,,,,,,10,6,,,597.364,6,left,0.8506,598.231,0.5,0.3,"[1,3,2]",0.446318636,stimuli/card_100_transparent.png,100,6,0,6,0,1,,,,,,,,,,
,,,,66857cc20736230620552dbc,B,2024-08-16_15h03.30.744,Slot Machine Game,2023.1.3,Win32,59.88023952,,,,,,,,,,,,,,,,,,,,,,,,,,,420,,,,,,,,,,,,,,,,,,10,6,,,599.0307,7,left,0.6674,599.731,1.5,0.3,"[1,3,2]",0.68548374,stimuli/card_100_transparent.png,100,7,0,7,0,1,,,,,,,,,,
,,,,66857cc20736230620552dbc,B,2024-08-16_15h03.30.744,Slot Machine Game,2023.1.3,Win32,59.88023952,,,,,,,,,,,,,,,,,,,,,,,,,,,520,,,,,,,,,,,,,,,,,,10,6,,,601.5306,8,left,0.6672,602.2309,1.5,0.3,"[1,3,2]",0.934682686,stimuli/card_100_transparent.png,100,8,0,8,0,1,,,,,,,,,,
,,,,66857cc20736230620552dbc,B,2024-08-16_15h03.30.744,Slot Machine Game,2023.1.3,Win32,59.88023952,,,,,,,,,,,,,,,,,,,,,,,,,,,620,,,,,,,,,,,,,,,,,,10,6,,,604.031,9,left,0.6172,604.6808,0.5,0.3,"[1,3,2]",0.982523576,stimuli/card_100_transparent.png,100,9,0,9,0,1,,,,,,,,,,
,,,,66857cc20736230620552dbc,B,2024-08-16_15h03.30.744,Slot Machine Game,2023.1.3,Win32,59.88023952,,,,,,,,,,,,,,,,,,,,,,,,,,,620,,,,,,,,,,,,,,,,,,10,6,,,605.4807,10,left,0.8843,606.3979,1,0.3,"[3,2,1]",0.377921357,stimuli/card_0_transparent.png,0,10,0,10,0,1,,,,,,,,,,
,,,,66857cc20736230620552dbc,B,2024-08-16_15h03.30.744,Slot Machine Game,2023.1.3,Win32,59.88023952,,,,,,,,,,,,,,,,,,,,,,,,,,,630,,,,,,,,,,,,,,,,,,10,6,,,607.6972,11,up,0.6172,608.3475,0.5,0.3,"[3,2,1]",0.29460348,stimuli/card_10_transparent.png,10,11,0,11,0,1,,,,,,,,,,
,,,,66857cc20736230620552dbc,B,2024-08-16_15h03.30.744,Slot Machine Game,2023.1.3,Win32,59.88023952,,,,,,,,,,,,,,,,,,,,,,,,,,,640,,,,,,,,,,,,,,,,,,10,6,,,609.1472,12,right,0.8339,610.0142,1,0.3,"[3,2,1]",0.167277787,stimuli/card_10_transparent.png,10,12,0,12,0,1,,,,,,,,,,
,,,,66857cc20736230620552dbc,B,2024-08-16_15h03.30.744,Slot Machine Game,2023.1.3,Win32,59.88023952,,,,,,,,,,,,,,,,,,,,,,,,,,,650,,,,,,,,,,,,,,,,,,10,6,,,611.314,13,up,0.684,612.0309,1,0.3,"[3,2,1]",0.960559519,stimuli/card_10_transparent.png,10,13,0,13,0,1,,,,,,,,,,
,,,,66857cc20736230620552dbc,B,2024-08-16_15h03.30.744,Slot Machine Game,2023.1.3,Win32,59.88023952,,,,,,,,,,,,,,,,,,,,,,,,,,,650,,,,,,,,,,,,,,,,,,10,6,,,613.3306,14,left,0.5339,613.8975,1.5,0.3,"[3,2,1]",0.249979425,stimuli/card_0_transparent.png,0,14,0,14,0,1,,,,,,,,,,
,,,,66857cc20736230620552dbc,B,2024-08-16_15h03.30.744,Slot Machine Game,2023.1.3,Win32,59.88023952,,,,,,,,,,,,,,,,,,,,,,,,,,,,,,,,,,615.6975,,,,,,,,,,,,,,,,,,,,,,,,,,,,,,,"[1400,1310,840,910,610,730,1010,1030,1310,650]",9,0,9,0,1,,,,
,,,,66857cc20736230620552dbc,B,2024-08-16_15h03.30.744,Slot Machine Game,2023.1.3,Win32,59.88023952,,,,,,,,,,,,,,,,,,,,,,,,,,,,,,,,,,,,,,,,,,,,,,,,,,,,,,,,,,,,,,,,,,,,,,,9,"[1400,1310,840,910,610,730,1010,1030,1310,650]",14,2024-08-16_15h13.55.639
