key_resp_welcome_started,key_resp_welcome_keys,key_resp_welcome_rt,key_resp_welcome_duration,prolific_id,path_id,date,expName,psychopyVersion,OS,frameRate,key_resp_instruction1_started,key_resp_instruction1_keys,key_resp_instruction1_rt,key_resp_instruction1_duration,key_resp_instruction2_started,key_resp_instruction2_keys,key_resp_instruction2_rt,key_resp_instruction2_duration,key_resp_instruction3_started,key_resp_instruction3_keys,key_resp_instruction3_rt,key_resp_instruction3_duration,key_resp_instruction4_started,key_resp_instruction4_keys,key_resp_instruction4_rt,key_resp_instruction4_duration,practiceCondition,practice_reward_seqs,practice_trial_started,practice_trial_num,practice_resp_rt,practice_resp_duration,practice_resp_keys,prac_presentationInterval,"practice_reward_seq: 2,1,3",reward_img,cumulative_reward,trial_reward,practice_trials.thisRepN,practice_trials.thisTrialN,practice_trials.thisN,practice_trials.thisIndex,practice_trials.ran,"practice_reward_seq: 2,3,1",block_break_started,"practice_reward_seq: 1,3,2","practice_reward_seq: 3,1,2",practice_end_time,practice_end_keys,practice_end_rt,practice_end_duration,main_instruction_text_started,block_condition,block_order_indices,main_instruction_keys,main_instruction_rt,main_instruction_duration,block_number,block_assignment,current_condition,main_reward_seqs,main_trial_started,main_trial_num,main_trial_keys,main_trial_rt,main_trial_duration,main_presentationInterval,reward_presentation_time,main_reward_seq,reward_rand_val,main_reward_img,current_reward,main_trials.thisRepN,main_trials.thisTrialN,main_trials.thisN,main_trials.thisIndex,main_trials.ran,block_reward,block.thisRepN,block.thisTrialN,block.thisN,block.thisIndex,block.ran,block_reward.length,block_reward_all,reward_amount,date_end_task
0.0004,space,2.6044,,5fe146b36a3657bd99f9c179,A,2024-05-18_09h33.08.904,Slot Machine Game,2023.1.3,Win32,57.14285714,,,,,,,,,,,,,,,,,,,,,,,,,,,,,,,,,,,,,,,,,,,,,,,,,,,,,,,,,,,,,,,,,,,,,,,,,,,,,
,,,,5fe146b36a3657bd99f9c179,A,2024-05-18_09h33.08.904,Slot Machine Game,2023.1.3,Win32,57.14285714,2.6237,space,8.5477,,,,,,,,,,,,,,,,,,,,,,,,,,,,,,,,,,,,,,,,,,,,,,,,,,,,,,,,,,,,,,,,,,,,,,,,,,
,,,,5fe146b36a3657bd99f9c179,A,2024-05-18_09h33.08.904,Slot Machine Game,2023.1.3,Win32,57.14285714,,,,,11.1902,space,27.7442,,,,,,,,,,,,,,,,,,,,,,,,,,,,,,,,,,,,,,,,,,,,,,,,,,,,,,,,,,,,,,,,,,,,,,
,,,,5fe146b36a3657bd99f9c179,A,2024-05-18_09h33.08.904,Slot Machine Game,2023.1.3,Win32,57.14285714,,,,,,,,,38.9955,space,10.7155,,,,,,,,,,,,,,,,,,,,,,,,,,,,,,,,,,,,,,,,,,,,,,,,,,,,,,,,,,,,,,,,,,
,,,,5fe146b36a3657bd99f9c179,A,2024-05-18_09h33.08.904,Slot Machine Game,2023.1.3,Win32,57.14285714,,,,,,,,,,,,,,,,,,,,,,,,,,,,,,,,,,,,,,,,,,,,,,,,,,,,,,,,,,,,,,,,,,,,,,,,,,,,,
,,,,5fe146b36a3657bd99f9c179,A,2024-05-18_09h33.08.904,Slot Machine Game,2023.1.3,Win32,57.14285714,,,,,,,,,,,,,192.6515,n,3.6952,,,,,,,,,,,,,,,,,,,,,,,,,,,,,,,,,,,,,,,,,,,,,,,,,,,,,,,,,,,,,,
,,,,5fe146b36a3657bd99f9c179,A,2024-05-18_09h33.08.904,Slot Machine Game,2023.1.3,Win32,57.14285714,,,,,,,,,,,,,,,,,"[9,15]","[[2,1,3],[2,3,1]]",196.3827,0,4.0566,,left,0.5,,stimuli/card_10_transparent.png,10,10,0,0,0,0,1,,,,,,,,,,,,,,,,,,,,,,,,,,,,,,,,,,,,,,,,,,,,
,,,,5fe146b36a3657bd99f9c179,A,2024-05-18_09h33.08.904,Slot Machine Game,2023.1.3,Win32,57.14285714,,,,,,,,,,,,,,,,,,,201.7426,1,0.3907,,left,0.5,,stimuli/card_10_transparent.png,20,10,1,0,1,0,1,,,,,,,,,,,,,,,,,,,,,,,,,,,,,,,,,,,,,,,,,,,,
,,,,5fe146b36a3657bd99f9c179,A,2024-05-18_09h33.08.904,Slot Machine Game,2023.1.3,Win32,57.14285714,,,,,,,,,,,,,,,,,,,203.458,2,0.4678,,right,1.5,,stimuli/card_0_transparent.png,20,0,2,0,2,0,1,,,,,,,,,,,,,,,,,,,,,,,,,,,,,,,,,,,,,,,,,,,,
,,,,5fe146b36a3657bd99f9c179,A,2024-05-18_09h33.08.904,Slot Machine Game,2023.1.3,Win32,57.14285714,,,,,,,,,,,,,,,,,,,206.2514,3,1.3355,,up,0.5,,stimuli/card_100_transparent.png,120,100,3,0,3,0,1,,,,,,,,,,,,,,,,,,,,,,,,,,,,,,,,,,,,,,,,,,,,
,,,,5fe146b36a3657bd99f9c179,A,2024-05-18_09h33.08.904,Slot Machine Game,2023.1.3,Win32,57.14285714,,,,,,,,,,,,,,,,,,,208.9082,4,0.0353,,up,0.5,,stimuli/card_100_transparent.png,220,100,4,0,4,0,1,,,,,,,,,,,,,,,,,,,,,,,,,,,,,,,,,,,,,,,,,,,,
,,,,5fe146b36a3657bd99f9c179,A,2024-05-18_09h33.08.904,Slot Machine Game,2023.1.3,Win32,57.14285714,,,,,,,,,,,,,,,,,,,210.276,5,0.0181,,up,1,,stimuli/card_100_transparent.png,320,100,5,0,5,0,1,,,,,,,,,,,,,,,,,,,,,,,,,,,,,,,,,,,,,,,,,,,,
,,,,5fe146b36a3657bd99f9c179,A,2024-05-18_09h33.08.904,Slot Machine Game,2023.1.3,Win32,57.14285714,,,,,,,,,,,,,,,,,,,212.1251,6,1.8826,,up,1,,stimuli/card_100_transparent.png,420,100,6,0,6,0,1,,,,,,,,,,,,,,,,,,,,,,,,,,,,,,,,,,,,,,,,,,,,
,,,,5fe146b36a3657bd99f9c179,A,2024-05-18_09h33.08.904,Slot Machine Game,2023.1.3,Win32,57.14285714,,,,,,,,,,,,,,,,,,,215.8276,7,0.0924,,up,0.5,,stimuli/card_100_transparent.png,520,100,7,0,7,0,1,,,,,,,,,,,,,,,,,,,,,,,,,,,,,,,,,,,,,,,,,,,,
,,,,5fe146b36a3657bd99f9c179,A,2024-05-18_09h33.08.904,Slot Machine Game,2023.1.3,Win32,57.14285714,,,,,,,,,,,,,,,,,,,217.2426,8,1.7017,,up,1.5,,stimuli/card_0_transparent.png,520,0,8,0,8,0,1,,,,,,,,,,,,,,,,,,,,,,,,,,,,,,,,,,,,,,,,,,,,
,,,,5fe146b36a3657bd99f9c179,A,2024-05-18_09h33.08.904,Slot Machine Game,2023.1.3,Win32,57.14285714,,,,,,,,,,,,,,,,,,,221.2758,9,0.7254,,up,0.5,,stimuli/card_0_transparent.png,520,0,9,0,9,0,1,,,,,,,,,,,,,,,,,,,,,,,,,,,,,,,,,,,,,,,,,,,,
,,,,5fe146b36a3657bd99f9c179,A,2024-05-18_09h33.08.904,Slot Machine Game,2023.1.3,Win32,57.14285714,,,,,,,,,,,,,,,,,,,223.3261,10,1.3012,,left,1,,stimuli/card_10_transparent.png,530,10,10,0,10,0,1,,,,,,,,,,,,,,,,,,,,,,,,,,,,,,,,,,,,,,,,,,,,
,,,,5fe146b36a3657bd99f9c179,A,2024-05-18_09h33.08.904,Slot Machine Game,2023.1.3,Win32,57.14285714,,,,,,,,,,,,,,,,,,,226.4593,11,0.3686,,right,1,,stimuli/card_100_transparent.png,630,100,11,0,11,0,1,,,,,,,,,,,,,,,,,,,,,,,,,,,,,,,,,,,,,,,,,,,,
,,,,5fe146b36a3657bd99f9c179,A,2024-05-18_09h33.08.904,Slot Machine Game,2023.1.3,Win32,57.14285714,,,,,,,,,,,,,,,,,,,228.6599,12,2.4669,,right,0.5,,stimuli/card_100_transparent.png,730,100,12,0,12,0,1,,,,,,,,,,,,,,,,,,,,,,,,,,,,,,,,,,,,,,,,,,,,
,,,,5fe146b36a3657bd99f9c179,A,2024-05-18_09h33.08.904,Slot Machine Game,2023.1.3,Win32,57.14285714,,,,,,,,,,,,,,,,,,,232.4432,13,1.0178,,right,0.5,,stimuli/card_100_transparent.png,830,100,13,0,13,0,1,,,,,,,,,,,,,,,,,,,,,,,,,,,,,,,,,,,,,,,,,,,,
,,,,5fe146b36a3657bd99f9c179,A,2024-05-18_09h33.08.904,Slot Machine Game,2023.1.3,Win32,57.14285714,,,,,,,,,,,,,,,,,,,234.7931,14,0.3344,,right,1,,stimuli/card_100_transparent.png,930,100,14,0,14,0,1,,,,,,,,,,,,,,,,,,,,,,,,,,,,,,,,,,,,,,,,,,,,
,,,,5fe146b36a3657bd99f9c179,A,2024-05-18_09h33.08.904,Slot Machine Game,2023.1.3,Win32,57.14285714,,,,,,,,,,,,,,,,,"[6,15]","[[1,3,2],[3,1,2]]",242.0129,0,0.1846,,up,1.5,,stimuli/card_100_transparent.png,100,100,0,0,0,0,1,,236.9966,,,,,,,,,,,,,,,,,,,,,,,,,,,,,,,,,,,,,,,,,,
,,,,5fe146b36a3657bd99f9c179,A,2024-05-18_09h33.08.904,Slot Machine Game,2023.1.3,Win32,57.14285714,,,,,,,,,,,,,,,,,,,244.5276,1,2.2082,,up,1.5,,stimuli/card_0_transparent.png,100,0,1,0,1,0,1,,,,,,,,,,,,,,,,,,,,,,,,,,,,,,,,,,,,,,,,,,,,
,,,,5fe146b36a3657bd99f9c179,A,2024-05-18_09h33.08.904,Slot Machine Game,2023.1.3,Win32,57.14285714,,,,,,,,,,,,,,,,,,,249.0617,2,0.4528,,up,0.5,,stimuli/card_0_transparent.png,100,0,2,0,2,0,1,,,,,,,,,,,,,,,,,,,,,,,,,,,,,,,,,,,,,,,,,,,,
,,,,5fe146b36a3657bd99f9c179,A,2024-05-18_09h33.08.904,Slot Machine Game,2023.1.3,Win32,57.14285714,,,,,,,,,,,,,,,,,,,250.8451,3,1.419,,right,1,,stimuli/card_0_transparent.png,100,0,3,0,3,0,1,,,,,,,,,,,,,,,,,,,,,,,,,,,,,,,,,,,,,,,,,,,,
,,,,5fe146b36a3657bd99f9c179,A,2024-05-18_09h33.08.904,Slot Machine Game,2023.1.3,Win32,57.14285714,,,,,,,,,,,,,,,,,,,254.0953,4,0.1857,,left,1,,stimuli/card_100_transparent.png,200,100,4,0,4,0,1,,,,,,,,,,,,,,,,,,,,,,,,,,,,,,,,,,,,,,,,,,,,
,,,,5fe146b36a3657bd99f9c179,A,2024-05-18_09h33.08.904,Slot Machine Game,2023.1.3,Win32,57.14285714,,,,,,,,,,,,,,,,,,,256.1064,5,1.2524,,left,1,,stimuli/card_100_transparent.png,300,100,5,0,5,0,1,,,,,,,,,,,,,,,,,,,,,,,,,,,,,,,,,,,,,,,,,,,,
,,,,5fe146b36a3657bd99f9c179,A,2024-05-18_09h33.08.904,Slot Machine Game,2023.1.3,Win32,57.14285714,,,,,,,,,,,,,,,,,,,259.196,6,0.2474,,left,1,,stimuli/card_100_transparent.png,400,100,6,0,6,0,1,,,,,,,,,,,,,,,,,,,,,,,,,,,,,,,,,,,,,,,,,,,,
,,,,5fe146b36a3657bd99f9c179,A,2024-05-18_09h33.08.904,Slot Machine Game,2023.1.3,Win32,57.14285714,,,,,,,,,,,,,,,,,,,261.2731,7,2.402,,left,0.5,,stimuli/card_0_transparent.png,400,0,7,0,7,0,1,,,,,,,,,,,,,,,,,,,,,,,,,,,,,,,,,,,,,,,,,,,,
,,,,5fe146b36a3657bd99f9c179,A,2024-05-18_09h33.08.904,Slot Machine Game,2023.1.3,Win32,57.14285714,,,,,,,,,,,,,,,,,,,264.9973,8,0.8344,,left,1.5,,stimuli/card_0_transparent.png,400,0,8,0,8,0,1,,,,,,,,,,,,,,,,,,,,,,,,,,,,,,,,,,,,,,,,,,,,
,,,,5fe146b36a3657bd99f9c179,A,2024-05-18_09h33.08.904,Slot Machine Game,2023.1.3,Win32,57.14285714,,,,,,,,,,,,,,,,,,,268.1638,9,0.3353,,up,1.5,,stimuli/card_100_transparent.png,500,100,9,0,9,0,1,,,,,,,,,,,,,,,,,,,,,,,,,,,,,,,,,,,,,,,,,,,,
,,,,5fe146b36a3657bd99f9c179,A,2024-05-18_09h33.08.904,Slot Machine Game,2023.1.3,Win32,57.14285714,,,,,,,,,,,,,,,,,,,270.8305,10,0.1342,,up,0.5,,stimuli/card_100_transparent.png,600,100,10,0,10,0,1,,,,,,,,,,,,,,,,,,,,,,,,,,,,,,,,,,,,,,,,,,,,
,,,,5fe146b36a3657bd99f9c179,A,2024-05-18_09h33.08.904,Slot Machine Game,2023.1.3,Win32,57.14285714,,,,,,,,,,,,,,,,,,,272.2974,11,0.8346,,up,0.5,,stimuli/card_100_transparent.png,700,100,11,0,11,0,1,,,,,,,,,,,,,,,,,,,,,,,,,,,,,,,,,,,,,,,,,,,,
,,,,5fe146b36a3657bd99f9c179,A,2024-05-18_09h33.08.904,Slot Machine Game,2023.1.3,Win32,57.14285714,,,,,,,,,,,,,,,,,,,274.4643,12,0.4011,,up,1.5,,stimuli/card_100_transparent.png,800,100,12,0,12,0,1,,,,,,,,,,,,,,,,,,,,,,,,,,,,,,,,,,,,,,,,,,,,
,,,,5fe146b36a3657bd99f9c179,A,2024-05-18_09h33.08.904,Slot Machine Game,2023.1.3,Win32,57.14285714,,,,,,,,,,,,,,,,,,,277.1988,13,2.1676,,up,1,,stimuli/card_100_transparent.png,900,100,13,0,13,0,1,,,,,,,,,,,,,,,,,,,,,,,,,,,,,,,,,,,,,,,,,,,,
,,,,5fe146b36a3657bd99f9c179,A,2024-05-18_09h33.08.904,Slot Machine Game,2023.1.3,Win32,57.14285714,,,,,,,,,,,,,,,,,,,281.1992,14,1.3515,,up,1.5,,stimuli/card_0_transparent.png,900,0,14,0,14,0,1,,,,,,,,,,,,,,,,,,,,,,,,,,,,,,,,,,,,,,,,,,,,
,,,,5fe146b36a3657bd99f9c179,A,2024-05-18_09h33.08.904,Slot Machine Game,2023.1.3,Win32,57.14285714,,,,,,,,,,,,,,,,,,,,,,,,,,,,,,,,,,,284.8817,,,289.8847,space,9.5416,,,,,,,,,,,,,,,,,,,,,,,,,,,,,,,,,,,,,
,,,,5fe146b36a3657bd99f9c179,A,2024-05-18_09h33.08.904,Slot Machine Game,2023.1.3,Win32,57.14285714,,,,,,,,,,,,,,,,,,,,,,,,,,,,,,,,,,,,,,,,,,299.453,2,"[2,4,8,0,1,3,9,6,8,5]",space,4.357,,,,,,,,,,,,,,,,,,,,,,,,,,,,,,,
,,,,5fe146b36a3657bd99f9c179,A,2024-05-18_09h33.08.904,Slot Machine Game,2023.1.3,Win32,57.14285714,,,,,,,,,,,,,,,,,,,,,,,,,,,100,,,,,,,,,,,,,,,,,,,,,1,3,"[15,15]","[[3,1,2],[3,1,2]]",303.8672,0,up,0.9521,,0.5,0.3,"[3,1,2]",0.364055785,stimuli/card_100_transparent.png,100,0,0,0,0,1,,,,,,,,,,
,,,,5fe146b36a3657bd99f9c179,A,2024-05-18_09h33.08.904,Slot Machine Game,2023.1.3,Win32,57.14285714,,,,,,,,,,,,,,,,,,,,,,,,,,,200,,,,,,,,,,,,,,,,,,,,,1,3,,,306.1511,1,up,0.068,,1,0.3,"[3,1,2]",0.337580383,stimuli/card_100_transparent.png,100,1,0,1,0,1,,,,,,,,,,
,,,,5fe146b36a3657bd99f9c179,A,2024-05-18_09h33.08.904,Slot Machine Game,2023.1.3,Win32,57.14285714,,,,,,,,,,,,,,,,,,,,,,,,,,,300,,,,,,,,,,,,,,,,,,,,,1,3,,,308.0506,2,up,0.136,,1.5,0.3,"[3,1,2]",0.713487044,stimuli/card_100_transparent.png,100,2,0,2,0,1,,,,,,,,,,
,,,,5fe146b36a3657bd99f9c179,A,2024-05-18_09h33.08.904,Slot Machine Game,2023.1.3,Win32,57.14285714,,,,,,,,,,,,,,,,,,,,,,,,,,,400,,,,,,,,,,,,,,,,,,,,,1,3,,,310.5175,3,up,0.0027,,1,0.3,"[3,1,2]",0.671209045,stimuli/card_100_transparent.png,100,3,0,3,0,1,,,,,,,,,,
,,,,5fe146b36a3657bd99f9c179,A,2024-05-18_09h33.08.904,Slot Machine Game,2023.1.3,Win32,57.14285714,,,,,,,,,,,,,,,,,,,,,,,,,,,500,,,,,,,,,,,,,,,,,,,,,1,3,,,312.3508,4,up,2.0025,,0.5,0.3,"[3,1,2]",0.912909918,stimuli/card_100_transparent.png,100,4,0,4,0,1,,,,,,,,,,
,,,,5fe146b36a3657bd99f9c179,A,2024-05-18_09h33.08.904,Slot Machine Game,2023.1.3,Win32,57.14285714,,,,,,,,,,,,,,,,,,,,,,,,,,,600,,,,,,,,,,,,,,,,,,,,,1,3,,,315.6845,5,up,0.5685,,1,0.3,"[3,1,2]",0.615483382,stimuli/card_100_transparent.png,100,5,0,5,0,1,,,,,,,,,,
,,,,5fe146b36a3657bd99f9c179,A,2024-05-18_09h33.08.904,Slot Machine Game,2023.1.3,Win32,57.14285714,,,,,,,,,,,,,,,,,,,,,,,,,,,600,,,,,,,,,,,,,,,,,,,,,1,3,,,318.068,6,up,0.4178,,1.5,0.3,"[3,1,2]",0.03908496,stimuli/card_0_transparent.png,0,6,0,6,0,1,,,,,,,,,,
,,,,5fe146b36a3657bd99f9c179,A,2024-05-18_09h33.08.904,Slot Machine Game,2023.1.3,Win32,57.14285714,,,,,,,,,,,,,,,,,,,,,,,,,,,700,,,,,,,,,,,,,,,,,,,,,1,3,,,320.8184,7,up,0.1397,,1.5,0.3,"[3,1,2]",0.593056489,stimuli/card_100_transparent.png,100,7,0,7,0,1,,,,,,,,,,
,,,,5fe146b36a3657bd99f9c179,A,2024-05-18_09h33.08.904,Slot Machine Game,2023.1.3,Win32,57.14285714,,,,,,,,,,,,,,,,,,,,,,,,,,,800,,,,,,,,,,,,,,,,,,,,,1,3,,,323.2856,8,up,0.0183,,0.5,0.3,"[3,1,2]",0.949043449,stimuli/card_100_transparent.png,100,8,0,8,0,1,,,,,,,,,,
,,,,5fe146b36a3657bd99f9c179,A,2024-05-18_09h33.08.904,Slot Machine Game,2023.1.3,Win32,57.14285714,,,,,,,,,,,,,,,,,,,,,,,,,,,900,,,,,,,,,,,,,,,,,,,,,1,3,,,324.6355,9,up,1.7516,,0.5,0.3,"[3,1,2]",0.975264233,stimuli/card_100_transparent.png,100,9,0,9,0,1,,,,,,,,,,
,,,,5fe146b36a3657bd99f9c179,A,2024-05-18_09h33.08.904,Slot Machine Game,2023.1.3,Win32,57.14285714,,,,,,,,,,,,,,,,,,,,,,,,,,,1000,,,,,,,,,,,,,,,,,,,,,1,3,,,327.7195,10,up,0.2912,,1,0.3,"[3,1,2]",0.668520428,stimuli/card_100_transparent.png,100,10,0,10,0,1,,,,,,,,,,
,,,,5fe146b36a3657bd99f9c179,A,2024-05-18_09h33.08.904,Slot Machine Game,2023.1.3,Win32,57.14285714,,,,,,,,,,,,,,,,,,,,,,,,,,,1010,,,,,,,,,,,,,,,,,,,,,1,3,,,329.8363,11,up,2.218,,1,0.3,"[3,1,2]",0.181464438,stimuli/card_10_transparent.png,10,11,0,11,0,1,,,,,,,,,,
,,,,5fe146b36a3657bd99f9c179,A,2024-05-18_09h33.08.904,Slot Machine Game,2023.1.3,Win32,57.14285714,,,,,,,,,,,,,,,,,,,,,,,,,,,1110,,,,,,,,,,,,,,,,,,,,,1,3,,,333.8864,12,up,0.5864,,1,0.3,"[3,1,2]",0.845763397,stimuli/card_100_transparent.png,100,12,0,12,0,1,,,,,,,,,,
,,,,5fe146b36a3657bd99f9c179,A,2024-05-18_09h33.08.904,Slot Machine Game,2023.1.3,Win32,57.14285714,,,,,,,,,,,,,,,,,,,,,,,,,,,1210,,,,,,,,,,,,,,,,,,,,,1,3,,,336.3032,13,up,1.6683,,1,0.3,"[3,1,2]",0.399904103,stimuli/card_100_transparent.png,100,13,0,13,0,1,,,,,,,,,,
,,,,5fe146b36a3657bd99f9c179,A,2024-05-18_09h33.08.904,Slot Machine Game,2023.1.3,Win32,57.14285714,,,,,,,,,,,,,,,,,,,,,,,,,,,1220,,,,,,,,,,,,,,,,,,,,,1,3,,,339.8037,14,up,0.918,,1,0.3,"[3,1,2]",0.136379627,stimuli/card_10_transparent.png,10,14,0,14,0,1,,,,,,,,,,
,,,,5fe146b36a3657bd99f9c179,A,2024-05-18_09h33.08.904,Slot Machine Game,2023.1.3,Win32,57.14285714,,,,,,,,,,,,,,,,,,,,,,,,,,,,,,,,,,,342.5539,,,,,,,,,,,,,,,,,,,,,,,,,,,,,,,,,[1220],0,0,0,0,1,,,,
,,,,5fe146b36a3657bd99f9c179,A,2024-05-18_09h33.08.904,Slot Machine Game,2023.1.3,Win32,57.14285714,,,,,,,,,,,,,,,,,,,,,,,,,,,100,,,,,,,,,,,,,,,,,,,,,2,5,"[5,15]","[[1,2,3],[3,1,2]]",347.5913,0,left,0.4856,,1.5,0.3,"[1,2,3]",0.788221123,stimuli/card_100_transparent.png,100,0,0,0,0,1,,,,,,,,,,
,,,,5fe146b36a3657bd99f9c179,A,2024-05-18_09h33.08.904,Slot Machine Game,2023.1.3,Win32,57.14285714,,,,,,,,,,,,,,,,,,,,,,,,,,,100,,,,,,,,,,,,,,,,,,,,,2,5,,,350.3868,1,left,2.1543,,1.5,0.3,"[1,2,3]",0.03668266,stimuli/card_0_transparent.png,0,1,0,1,0,1,,,,,,,,,,
,,,,5fe146b36a3657bd99f9c179,A,2024-05-18_09h33.08.904,Slot Machine Game,2023.1.3,Win32,57.14285714,,,,,,,,,,,,,,,,,,,,,,,,,,,200,,,,,,,,,,,,,,,,,,,,,2,5,,,354.8645,2,left,2.0704,,1,0.3,"[1,2,3]",0.856581291,stimuli/card_100_transparent.png,100,2,0,2,0,1,,,,,,,,,,
,,,,5fe146b36a3657bd99f9c179,A,2024-05-18_09h33.08.904,Slot Machine Game,2023.1.3,Win32,57.14285714,,,,,,,,,,,,,,,,,,,,,,,,,,,210,,,,,,,,,,,,,,,,,,,,,2,5,,,358.7546,3,left,0.0897,,1,0.3,"[1,2,3]",0.101994118,stimuli/card_10_transparent.png,10,3,0,3,0,1,,,,,,,,,,
,,,,5fe146b36a3657bd99f9c179,A,2024-05-18_09h33.08.904,Slot Machine Game,2023.1.3,Win32,57.14285714,,,,,,,,,,,,,,,,,,,,,,,,,,,310,,,,,,,,,,,,,,,,,,,,,2,5,,,360.6716,4,left,0.0015,,1,0.3,"[1,2,3]",0.704640647,stimuli/card_100_transparent.png,100,4,0,4,0,1,,,,,,,,,,
,,,,5fe146b36a3657bd99f9c179,A,2024-05-18_09h33.08.904,Slot Machine Game,2023.1.3,Win32,57.14285714,,,,,,,,,,,,,,,,,,,,,,,,,,,310,,,,,,,,,,,,,,,,,,,,,2,5,,,362.505,5,left,1.5026,,1.5,0.3,"[3,1,2]",0.985977004,stimuli/card_0_transparent.png,0,5,0,5,0,1,,,,,,,,,,
,,,,5fe146b36a3657bd99f9c179,A,2024-05-18_09h33.08.904,Slot Machine Game,2023.1.3,Win32,57.14285714,,,,,,,,,,,,,,,,,,,,,,,,,,,320,,,,,,,,,,,,,,,,,,,,,2,5,,,366.3386,6,right,0.7518,,0.5,0.3,"[3,1,2]",0.452669938,stimuli/card_10_transparent.png,10,6,0,6,0,1,,,,,,,,,,
,,,,5fe146b36a3657bd99f9c179,A,2024-05-18_09h33.08.904,Slot Machine Game,2023.1.3,Win32,57.14285714,,,,,,,,,,,,,,,,,,,,,,,,,,,420,,,,,,,,,,,,,,,,,,,,,2,5,,,368.4221,7,up,0.7521,,0.5,0.3,"[3,1,2]",0.418879278,stimuli/card_100_transparent.png,100,7,0,7,0,1,,,,,,,,,,
,,,,5fe146b36a3657bd99f9c179,A,2024-05-18_09h33.08.904,Slot Machine Game,2023.1.3,Win32,57.14285714,,,,,,,,,,,,,,,,,,,,,,,,,,,520,,,,,,,,,,,,,,,,,,,,,2,5,,,370.5055,8,up,0.5516,,0.5,0.3,"[3,1,2]",0.911384297,stimuli/card_100_transparent.png,100,8,0,8,0,1,,,,,,,,,,
,,,,5fe146b36a3657bd99f9c179,A,2024-05-18_09h33.08.904,Slot Machine Game,2023.1.3,Win32,57.14285714,,,,,,,,,,,,,,,,,,,,,,,,,,,620,,,,,,,,,,,,,,,,,,,,,2,5,,,372.3889,9,up,0.1679,,1.5,0.3,"[3,1,2]",0.725227228,stimuli/card_100_transparent.png,100,9,0,9,0,1,,,,,,,,,,
,,,,5fe146b36a3657bd99f9c179,A,2024-05-18_09h33.08.904,Slot Machine Game,2023.1.3,Win32,57.14285714,,,,,,,,,,,,,,,,,,,,,,,,,,,720,,,,,,,,,,,,,,,,,,,,,2,5,,,374.8892,10,up,0.668,,0.5,0.3,"[3,1,2]",0.504064451,stimuli/card_100_transparent.png,100,10,0,10,0,1,,,,,,,,,,
,,,,5fe146b36a3657bd99f9c179,A,2024-05-18_09h33.08.904,Slot Machine Game,2023.1.3,Win32,57.14285714,,,,,,,,,,,,,,,,,,,,,,,,,,,820,,,,,,,,,,,,,,,,,,,,,2,5,,,376.884,11,up,0.0012,,0.5,0.3,"[3,1,2]",0.831436518,stimuli/card_100_transparent.png,100,11,0,11,0,1,,,,,,,,,,
,,,,5fe146b36a3657bd99f9c179,A,2024-05-18_09h33.08.904,Slot Machine Game,2023.1.3,Win32,57.14285714,,,,,,,,,,,,,,,,,,,,,,,,,,,920,,,,,,,,,,,,,,,,,,,,,2,5,,,378.2164,12,up,1.753,,0.5,0.3,"[3,1,2]",0.647524518,stimuli/card_100_transparent.png,100,12,0,12,0,1,,,,,,,,,,
,,,,5fe146b36a3657bd99f9c179,A,2024-05-18_09h33.08.904,Slot Machine Game,2023.1.3,Win32,57.14285714,,,,,,,,,,,,,,,,,,,,,,,,,,,1020,,,,,,,,,,,,,,,,,,,,,2,5,,,381.3074,13,up,0.0014,,0.5,0.3,"[3,1,2]",0.632761513,stimuli/card_100_transparent.png,100,13,0,13,0,1,,,,,,,,,,
,,,,5fe146b36a3657bd99f9c179,A,2024-05-18_09h33.08.904,Slot Machine Game,2023.1.3,Win32,57.14285714,,,,,,,,,,,,,,,,,,,,,,,,,,,1030,,,,,,,,,,,,,,,,,,,,,2,5,,,382.6409,14,up,0.035,,0.5,0.3,"[3,1,2]",0.176014263,stimuli/card_10_transparent.png,10,14,0,14,0,1,,,,,,,,,,
,,,,5fe146b36a3657bd99f9c179,A,2024-05-18_09h33.08.904,Slot Machine Game,2023.1.3,Win32,57.14285714,,,,,,,,,,,,,,,,,,,,,,,,,,,,,,,,,,,384.0069,,,,,,,,,,,,,,,,,,,,,,,,,,,,,,,,,"[1220,1030]",1,0,1,0,1,,,,
,,,,5fe146b36a3657bd99f9c179,A,2024-05-18_09h33.08.904,Slot Machine Game,2023.1.3,Win32,57.14285714,,,,,,,,,,,,,,,,,,,,,,,,,,,0,,,,,,,,,,,,,,,,,,,,,3,9,"[8,15]","[[3,2,1],[3,1,2]]",389.0475,0,right,1.0858,,0.5,0.3,"[3,2,1]",0.037495762,stimuli/card_0_transparent.png,0,0,0,0,0,1,,,,,,,,,,
,,,,5fe146b36a3657bd99f9c179,A,2024-05-18_09h33.08.904,Slot Machine Game,2023.1.3,Win32,57.14285714,,,,,,,,,,,,,,,,,,,,,,,,,,,10,,,,,,,,,,,,,,,,,,,,,3,9,,,391.4407,1,right,1.4336,,0.5,0.3,"[3,2,1]",0.184028631,stimuli/card_10_transparent.png,10,1,0,1,0,1,,,,,,,,,,
,,,,5fe146b36a3657bd99f9c179,A,2024-05-18_09h33.08.904,Slot Machine Game,2023.1.3,Win32,57.14285714,,,,,,,,,,,,,,,,,,,,,,,,,,,10,,,,,,,,,,,,,,,,,,,,,3,9,,,394.2011,2,up,1.0705,,1,0.3,"[3,2,1]",0.066724467,stimuli/card_0_transparent.png,0,2,0,2,0,1,,,,,,,,,,
,,,,5fe146b36a3657bd99f9c179,A,2024-05-18_09h33.08.904,Slot Machine Game,2023.1.3,Win32,57.14285714,,,,,,,,,,,,,,,,,,,,,,,,,,,10,,,,,,,,,,,,,,,,,,,,,3,9,,,397.0848,3,left,0.4696,,0.5,0.3,"[3,2,1]",0.793498079,stimuli/card_0_transparent.png,0,3,0,3,0,1,,,,,,,,,,
,,,,5fe146b36a3657bd99f9c179,A,2024-05-18_09h33.08.904,Slot Machine Game,2023.1.3,Win32,57.14285714,,,,,,,,,,,,,,,,,,,,,,,,,,,10,,,,,,,,,,,,,,,,,,,,,3,9,,,398.8853,4,left,0.8022,,1,0.3,"[3,2,1]",0.965873566,stimuli/card_0_transparent.png,0,4,0,4,0,1,,,,,,,,,,
,,,,5fe146b36a3657bd99f9c179,A,2024-05-18_09h33.08.904,Slot Machine Game,2023.1.3,Win32,57.14285714,,,,,,,,,,,,,,,,,,,,,,,,,,,110,,,,,,,,,,,,,,,,,,,,,3,9,,,401.519,5,right,0.2857,,1,0.3,"[3,2,1]",0.228397885,stimuli/card_100_transparent.png,100,5,0,5,0,1,,,,,,,,,,
,,,,5fe146b36a3657bd99f9c179,A,2024-05-18_09h33.08.904,Slot Machine Game,2023.1.3,Win32,57.14285714,,,,,,,,,,,,,,,,,,,,,,,,,,,210,,,,,,,,,,,,,,,,,,,,,3,9,,,403.625,6,right,0.0352,,1.5,0.3,"[3,2,1]",0.800356152,stimuli/card_100_transparent.png,100,6,0,6,0,1,,,,,,,,,,
,,,,5fe146b36a3657bd99f9c179,A,2024-05-18_09h33.08.904,Slot Machine Game,2023.1.3,Win32,57.14285714,,,,,,,,,,,,,,,,,,,,,,,,,,,310,,,,,,,,,,,,,,,,,,,,,3,9,,,405.9864,7,right,0.8521,,1.5,0.3,"[3,2,1]",0.423364454,stimuli/card_100_transparent.png,100,7,0,7,0,1,,,,,,,,,,
,,,,5fe146b36a3657bd99f9c179,A,2024-05-18_09h33.08.904,Slot Machine Game,2023.1.3,Win32,57.14285714,,,,,,,,,,,,,,,,,,,,,,,,,,,310,,,,,,,,,,,,,,,,,,,,,3,9,,,409.1696,8,right,1.7869,,1,0.3,"[3,1,2]",0.042796606,stimuli/card_0_transparent.png,0,8,0,8,0,1,,,,,,,,,,
,,,,5fe146b36a3657bd99f9c179,A,2024-05-18_09h33.08.904,Slot Machine Game,2023.1.3,Win32,57.14285714,,,,,,,,,,,,,,,,,,,,,,,,,,,320,,,,,,,,,,,,,,,,,,,,,3,9,,,412.7927,9,right,2.302,,1,0.3,"[3,1,2]",0.670494337,stimuli/card_10_transparent.png,10,9,0,9,0,1,,,,,,,,,,
,,,,5fe146b36a3657bd99f9c179,A,2024-05-18_09h33.08.904,Slot Machine Game,2023.1.3,Win32,57.14285714,,,,,,,,,,,,,,,,,,,,,,,,,,,320,,,,,,,,,,,,,,,,,,,,,3,9,,,416.9206,10,up,1.7864,,1.5,0.3,"[3,1,2]",0.068958883,stimuli/card_0_transparent.png,0,10,0,10,0,1,,,,,,,,,,
,,,,5fe146b36a3657bd99f9c179,A,2024-05-18_09h33.08.904,Slot Machine Game,2023.1.3,Win32,57.14285714,,,,,,,,,,,,,,,,,,,,,,,,,,,320,,,,,,,,,,,,,,,,,,,,,3,9,,,421.043,11,left,0.1863,,1.5,0.3,"[3,1,2]",0.716369072,stimuli/card_0_transparent.png,0,11,0,11,0,1,,,,,,,,,,
,,,,5fe146b36a3657bd99f9c179,A,2024-05-18_09h33.08.904,Slot Machine Game,2023.1.3,Win32,57.14285714,,,,,,,,,,,,,,,,,,,,,,,,,,,420,,,,,,,,,,,,,,,,,,,,,3,9,,,423.5602,12,up,0.1513,,1.5,0.3,"[3,1,2]",0.487980386,stimuli/card_100_transparent.png,100,12,0,12,0,1,,,,,,,,,,
,,,,5fe146b36a3657bd99f9c179,A,2024-05-18_09h33.08.904,Slot Machine Game,2023.1.3,Win32,57.14285714,,,,,,,,,,,,,,,,,,,,,,,,,,,520,,,,,,,,,,,,,,,,,,,,,3,9,,,426.0373,13,up,0.2184,,1.5,0.3,"[3,1,2]",0.81776934,stimuli/card_100_transparent.png,100,13,0,13,0,1,,,,,,,,,,
,,,,5fe146b36a3657bd99f9c179,A,2024-05-18_09h33.08.904,Slot Machine Game,2023.1.3,Win32,57.14285714,,,,,,,,,,,,,,,,,,,,,,,,,,,620,,,,,,,,,,,,,,,,,,,,,3,9,,,428.5875,14,up,0.069,,1.5,0.3,"[3,1,2]",0.975808239,stimuli/card_100_transparent.png,100,14,0,14,0,1,,,,,,,,,,
,,,,5fe146b36a3657bd99f9c179,A,2024-05-18_09h33.08.904,Slot Machine Game,2023.1.3,Win32,57.14285714,,,,,,,,,,,,,,,,,,,,,,,,,,,,,,,,,,,430.9878,,,,,,,,,,,,,,,,,,,,,,,,,,,,,,,,,"[1220,1030,620]",2,0,2,0,1,,,,
,,,,5fe146b36a3657bd99f9c179,A,2024-05-18_09h33.08.904,Slot Machine Game,2023.1.3,Win32,57.14285714,,,,,,,,,,,,,,,,,,,,,,,,,,,0,,,,,,,,,,,,,,,,,,,,,4,1,"[12,15]","[[2,1,3],[2,3,1]]",436.0273,0,right,1.0851,,1,0.3,"[2,1,3]",0.4741584,stimuli/card_0_transparent.png,0,0,0,0,0,1,,,,,,,,,,
,,,,5fe146b36a3657bd99f9c179,A,2024-05-18_09h33.08.904,Slot Machine Game,2023.1.3,Win32,57.14285714,,,,,,,,,,,,,,,,,,,,,,,,,,,10,,,,,,,,,,,,,,,,,,,,,4,1,,,438.9451,1,left,0.2845,,1.5,0.3,"[2,1,3]",0.330396593,stimuli/card_10_transparent.png,10,1,0,1,0,1,,,,,,,,,,
,,,,5fe146b36a3657bd99f9c179,A,2024-05-18_09h33.08.904,Slot Machine Game,2023.1.3,Win32,57.14285714,,,,,,,,,,,,,,,,,,,,,,,,,,,110,,,,,,,,,,,,,,,,,,,,,4,1,,,441.5553,2,up,2.1865,,0.5,0.3,"[2,1,3]",0.502798197,stimuli/card_100_transparent.png,100,2,0,2,0,1,,,,,,,,,,
,,,,5fe146b36a3657bd99f9c179,A,2024-05-18_09h33.08.904,Slot Machine Game,2023.1.3,Win32,57.14285714,,,,,,,,,,,,,,,,,,,,,,,,,,,120,,,,,,,,,,,,,,,,,,,,,4,1,,,445.0465,3,up,0.0844,,1,0.3,"[2,1,3]",0.196406144,stimuli/card_10_transparent.png,10,3,0,3,0,1,,,,,,,,,,
,,,,5fe146b36a3657bd99f9c179,A,2024-05-18_09h33.08.904,Slot Machine Game,2023.1.3,Win32,57.14285714,,,,,,,,,,,,,,,,,,,,,,,,,,,220,,,,,,,,,,,,,,,,,,,,,4,1,,,446.9636,4,up,0.0014,,1.5,0.3,"[2,1,3]",0.354514553,stimuli/card_100_transparent.png,100,4,0,4,0,1,,,,,,,,,,
,,,,5fe146b36a3657bd99f9c179,A,2024-05-18_09h33.08.904,Slot Machine Game,2023.1.3,Win32,57.14285714,,,,,,,,,,,,,,,,,,,,,,,,,,,320,,,,,,,,,,,,,,,,,,,,,4,1,,,449.2967,5,up,2.6848,,0.5,0.3,"[2,1,3]",0.93595751,stimuli/card_100_transparent.png,100,5,0,5,0,1,,,,,,,,,,
,,,,5fe146b36a3657bd99f9c179,A,2024-05-18_09h33.08.904,Slot Machine Game,2023.1.3,Win32,57.14285714,,,,,,,,,,,,,,,,,,,,,,,,,,,420,,,,,,,,,,,,,,,,,,,,,4,1,,,453.3139,6,up,0.0575,,1,0.3,"[2,1,3]",0.476292368,stimuli/card_100_transparent.png,100,6,0,6,0,1,,,,,,,,,,
,,,,5fe146b36a3657bd99f9c179,A,2024-05-18_09h33.08.904,Slot Machine Game,2023.1.3,Win32,57.14285714,,,,,,,,,,,,,,,,,,,,,,,,,,,430,,,,,,,,,,,,,,,,,,,,,4,1,,,455.1973,7,up,0.702,,0.5,0.3,"[2,1,3]",0.11739184,stimuli/card_10_transparent.png,10,7,0,7,0,1,,,,,,,,,,
,,,,5fe146b36a3657bd99f9c179,A,2024-05-18_09h33.08.904,Slot Machine Game,2023.1.3,Win32,57.14285714,,,,,,,,,,,,,,,,,,,,,,,,,,,440,,,,,,,,,,,,,,,,,,,,,4,1,,,457.2304,8,up,1.9684,,1.5,0.3,"[2,1,3]",0.173577182,stimuli/card_10_transparent.png,10,8,0,8,0,1,,,,,,,,,,
,,,,5fe146b36a3657bd99f9c179,A,2024-05-18_09h33.08.904,Slot Machine Game,2023.1.3,Win32,57.14285714,,,,,,,,,,,,,,,,,,,,,,,,,,,440,,,,,,,,,,,,,,,,,,,,,4,1,,,461.5308,9,right,0.7368,,1.5,0.3,"[2,1,3]",0.435216659,stimuli/card_0_transparent.png,0,9,0,9,0,1,,,,,,,,,,
,,,,5fe146b36a3657bd99f9c179,A,2024-05-18_09h33.08.904,Slot Machine Game,2023.1.3,Win32,57.14285714,,,,,,,,,,,,,,,,,,,,,,,,,,,450,,,,,,,,,,,,,,,,,,,,,4,1,,,464.5978,10,left,0.186,,1,0.3,"[2,1,3]",0.259047184,stimuli/card_10_transparent.png,10,10,0,10,0,1,,,,,,,,,,
,,,,5fe146b36a3657bd99f9c179,A,2024-05-18_09h33.08.904,Slot Machine Game,2023.1.3,Win32,57.14285714,,,,,,,,,,,,,,,,,,,,,,,,,,,460,,,,,,,,,,,,,,,,,,,,,4,1,,,466.6144,11,left,0.3347,,0.5,0.3,"[2,1,3]",0.527819369,stimuli/card_10_transparent.png,10,11,0,11,0,1,,,,,,,,,,
,,,,5fe146b36a3657bd99f9c179,A,2024-05-18_09h33.08.904,Slot Machine Game,2023.1.3,Win32,57.14285714,,,,,,,,,,,,,,,,,,,,,,,,,,,560,,,,,,,,,,,,,,,,,,,,,4,1,,,468.2814,12,right,2.2514,,0.5,0.3,"[2,3,1]",0.87107795,stimuli/card_100_transparent.png,100,12,0,12,0,1,,,,,,,,,,
,,,,5fe146b36a3657bd99f9c179,A,2024-05-18_09h33.08.904,Slot Machine Game,2023.1.3,Win32,57.14285714,,,,,,,,,,,,,,,,,,,,,,,,,,,660,,,,,,,,,,,,,,,,,,,,,4,1,,,471.8655,13,right,0.0986,,0.5,0.3,"[2,3,1]",0.782259728,stimuli/card_100_transparent.png,100,13,0,13,0,1,,,,,,,,,,
,,,,5fe146b36a3657bd99f9c179,A,2024-05-18_09h33.08.904,Slot Machine Game,2023.1.3,Win32,57.14285714,,,,,,,,,,,,,,,,,,,,,,,,,,,760,,,,,,,,,,,,,,,,,,,,,4,1,,,473.2916,14,right,0.8692,,0.5,0.3,"[2,3,1]",0.682621175,stimuli/card_100_transparent.png,100,14,0,14,0,1,,,,,,,,,,
,,,,5fe146b36a3657bd99f9c179,A,2024-05-18_09h33.08.904,Slot Machine Game,2023.1.3,Win32,57.14285714,,,,,,,,,,,,,,,,,,,,,,,,,,,,,,,,,,,475.4776,,,,,,,,,,,,,,,,,,,,,,,,,,,,,,,,,"[1220,1030,620,760]",3,0,3,0,1,,,,
,,,,5fe146b36a3657bd99f9c179,A,2024-05-18_09h33.08.904,Slot Machine Game,2023.1.3,Win32,57.14285714,,,,,,,,,,,,,,,,,,,,,,,,,,,0,,,,,,,,,,,,,,,,,,,,,5,2,"[6,15]","[[1,3,2],[3,2,1]]",480.508,0,right,2.2858,,1,0.3,"[1,3,2]",0.048529133,stimuli/card_0_transparent.png,0,0,0,0,0,1,,,,,,,,,,
,,,,5fe146b36a3657bd99f9c179,A,2024-05-18_09h33.08.904,Slot Machine Game,2023.1.3,Win32,57.14285714,,,,,,,,,,,,,,,,,,,,,,,,,,,100,,,,,,,,,,,,,,,,,,,,,5,2,,,484.6167,1,left,0.3347,,1.5,0.3,"[1,3,2]",0.211853609,stimuli/card_100_transparent.png,100,1,0,1,0,1,,,,,,,,,,
,,,,5fe146b36a3657bd99f9c179,A,2024-05-18_09h33.08.904,Slot Machine Game,2023.1.3,Win32,57.14285714,,,,,,,,,,,,,,,,,,,,,,,,,,,200,,,,,,,,,,,,,,,,,,,,,5,2,,,487.2831,2,left,2.0866,,1,0.3,"[1,3,2]",0.921326198,stimuli/card_100_transparent.png,100,2,0,2,0,1,,,,,,,,,,
,,,,5fe146b36a3657bd99f9c179,A,2024-05-18_09h33.08.904,Slot Machine Game,2023.1.3,Win32,57.14285714,,,,,,,,,,,,,,,,,,,,,,,,,,,300,,,,,,,,,,,,,,,,,,,,,5,2,,,491.1835,3,left,0.7681,,0.5,0.3,"[1,3,2]",0.286984274,stimuli/card_100_transparent.png,100,3,0,3,0,1,,,,,,,,,,
,,,,5fe146b36a3657bd99f9c179,A,2024-05-18_09h33.08.904,Slot Machine Game,2023.1.3,Win32,57.14285714,,,,,,,,,,,,,,,,,,,,,,,,,,,400,,,,,,,,,,,,,,,,,,,,,5,2,,,493.2837,4,left,0.0011,,1.5,0.3,"[1,3,2]",0.330774773,stimuli/card_100_transparent.png,100,4,0,4,0,1,,,,,,,,,,
,,,,5fe146b36a3657bd99f9c179,A,2024-05-18_09h33.08.904,Slot Machine Game,2023.1.3,Win32,57.14285714,,,,,,,,,,,,,,,,,,,,,,,,,,,500,,,,,,,,,,,,,,,,,,,,,5,2,,,495.6006,5,left,0.2687,,1,0.3,"[1,3,2]",0.375497093,stimuli/card_100_transparent.png,100,5,0,5,0,1,,,,,,,,,,
,,,,5fe146b36a3657bd99f9c179,A,2024-05-18_09h33.08.904,Slot Machine Game,2023.1.3,Win32,57.14285714,,,,,,,,,,,,,,,,,,,,,,,,,,,500,,,,,,,,,,,,,,,,,,,,,5,2,,,497.7006,6,left,2.1514,,0.5,0.3,"[3,2,1]",0.219328677,stimuli/card_0_transparent.png,0,6,0,6,0,1,,,,,,,,,,
,,,,5fe146b36a3657bd99f9c179,A,2024-05-18_09h33.08.904,Slot Machine Game,2023.1.3,Win32,57.14285714,,,,,,,,,,,,,,,,,,,,,,,,,,,500,,,,,,,,,,,,,,,,,,,,,5,2,,,501.1843,7,left,0.6183,,0.5,0.3,"[3,2,1]",0.632210798,stimuli/card_0_transparent.png,0,7,0,7,0,1,,,,,,,,,,
,,,,5fe146b36a3657bd99f9c179,A,2024-05-18_09h33.08.904,Slot Machine Game,2023.1.3,Win32,57.14285714,,,,,,,,,,,,,,,,,,,,,,,,,,,510,,,,,,,,,,,,,,,,,,,,,5,2,,,503.1345,8,up,0.2912,,1,0.3,"[3,2,1]",0.540689297,stimuli/card_10_transparent.png,10,8,0,8,0,1,,,,,,,,,,
,,,,5fe146b36a3657bd99f9c179,A,2024-05-18_09h33.08.904,Slot Machine Game,2023.1.3,Win32,57.14285714,,,,,,,,,,,,,,,,,,,,,,,,,,,610,,,,,,,,,,,,,,,,,,,,,5,2,,,505.2514,9,right,0.5846,,1,0.3,"[3,2,1]",0.910601854,stimuli/card_100_transparent.png,100,9,0,9,0,1,,,,,,,,,,
,,,,5fe146b36a3657bd99f9c179,A,2024-05-18_09h33.08.904,Slot Machine Game,2023.1.3,Win32,57.14285714,,,,,,,,,,,,,,,,,,,,,,,,,,,710,,,,,,,,,,,,,,,,,,,,,5,2,,,507.6676,10,right,0.3011,,1.5,0.3,"[3,2,1]",0.838747204,stimuli/card_100_transparent.png,100,10,0,10,0,1,,,,,,,,,,
,,,,5fe146b36a3657bd99f9c179,A,2024-05-18_09h33.08.904,Slot Machine Game,2023.1.3,Win32,57.14285714,,,,,,,,,,,,,,,,,,,,,,,,,,,810,,,,,,,,,,,,,,,,,,,,,5,2,,,510.2852,11,right,0.0012,,1,0.3,"[3,2,1]",0.490723984,stimuli/card_100_transparent.png,100,11,0,11,0,1,,,,,,,,,,
,,,,5fe146b36a3657bd99f9c179,A,2024-05-18_09h33.08.904,Slot Machine Game,2023.1.3,Win32,57.14285714,,,,,,,,,,,,,,,,,,,,,,,,,,,810,,,,,,,,,,,,,,,,,,,,,5,2,,,512.1191,12,right,2.3848,,1.5,0.3,"[3,2,1]",0.098510936,stimuli/card_0_transparent.png,0,12,0,12,0,1,,,,,,,,,,
,,,,5fe146b36a3657bd99f9c179,A,2024-05-18_09h33.08.904,Slot Machine Game,2023.1.3,Win32,57.14285714,,,,,,,,,,,,,,,,,,,,,,,,,,,820,,,,,,,,,,,,,,,,,,,,,5,2,,,516.8357,13,up,1.621,,1,0.3,"[3,2,1]",0.781847531,stimuli/card_10_transparent.png,10,13,0,13,0,1,,,,,,,,,,
,,,,5fe146b36a3657bd99f9c179,A,2024-05-18_09h33.08.904,Slot Machine Game,2023.1.3,Win32,57.14285714,,,,,,,,,,,,,,,,,,,,,,,,,,,820,,,,,,,,,,,,,,,,,,,,,5,2,,,520.2864,14,left,0.9745,,0.5,0.3,"[3,2,1]",0.246529099,stimuli/card_0_transparent.png,0,14,0,14,0,1,,,,,,,,,,
,,,,5fe146b36a3657bd99f9c179,A,2024-05-18_09h33.08.904,Slot Machine Game,2023.1.3,Win32,57.14285714,,,,,,,,,,,,,,,,,,,,,,,,,,,,,,,,,,,522.5867,,,,,,,,,,,,,,,,,,,,,,,,,,,,,,,,,"[1220,1030,620,760,820]",4,0,4,0,1,,,,
,,,,5fe146b36a3657bd99f9c179,A,2024-05-18_09h33.08.904,Slot Machine Game,2023.1.3,Win32,57.14285714,,,,,,,,,,,,,,,,,,,,,,,,,,,0,,,,,,,,,,,,,,,,,,,,,6,4,"[7,15]","[[2,3,1],[1,2,3]]",527.6308,0,right,1.1523,,1.5,0.3,"[2,3,1]",0.069789033,stimuli/card_0_transparent.png,0,0,0,0,0,1,,,,,,,,,,
,,,,5fe146b36a3657bd99f9c179,A,2024-05-18_09h33.08.904,Slot Machine Game,2023.1.3,Win32,57.14285714,,,,,,,,,,,,,,,,,,,,,,,,,,,0,,,,,,,,,,,,,,,,,,,,,6,4,,,531.1034,1,up,0.2848,,1.5,0.3,"[2,3,1]",0.510809103,stimuli/card_0_transparent.png,0,1,0,1,0,1,,,,,,,,,,
,,,,5fe146b36a3657bd99f9c179,A,2024-05-18_09h33.08.904,Slot Machine Game,2023.1.3,Win32,57.14285714,,,,,,,,,,,,,,,,,,,,,,,,,,,10,,,,,,,,,,,,,,,,,,,,,6,4,,,533.7201,2,left,1.8518,,1.5,0.3,"[2,3,1]",0.294836338,stimuli/card_10_transparent.png,10,2,0,2,0,1,,,,,,,,,,
,,,,5fe146b36a3657bd99f9c179,A,2024-05-18_09h33.08.904,Slot Machine Game,2023.1.3,Win32,57.14285714,,,,,,,,,,,,,,,,,,,,,,,,,,,110,,,,,,,,,,,,,,,,,,,,,6,4,,,537.8975,3,left,0.6025,,1.5,0.3,"[2,3,1]",0.1956254,stimuli/card_100_transparent.png,100,3,0,3,0,1,,,,,,,,,,
,,,,5fe146b36a3657bd99f9c179,A,2024-05-18_09h33.08.904,Slot Machine Game,2023.1.3,Win32,57.14285714,,,,,,,,,,,,,,,,,,,,,,,,,,,120,,,,,,,,,,,,,,,,,,,,,6,4,,,540.8313,4,left,0.0191,,1.5,0.3,"[2,3,1]",0.994332605,stimuli/card_10_transparent.png,10,4,0,4,0,1,,,,,,,,,,
,,,,5fe146b36a3657bd99f9c179,A,2024-05-18_09h33.08.904,Slot Machine Game,2023.1.3,Win32,57.14285714,,,,,,,,,,,,,,,,,,,,,,,,,,,130,,,,,,,,,,,,,,,,,,,,,6,4,,,543.1876,5,left,2.3584,,1,0.3,"[2,3,1]",0.978464786,stimuli/card_10_transparent.png,10,5,0,5,0,1,,,,,,,,,,
,,,,5fe146b36a3657bd99f9c179,A,2024-05-18_09h33.08.904,Slot Machine Game,2023.1.3,Win32,57.14285714,,,,,,,,,,,,,,,,,,,,,,,,,,,130,,,,,,,,,,,,,,,,,,,,,6,4,,,547.3711,6,up,0.1343,,1,0.3,"[2,3,1]",0.389033702,stimuli/card_0_transparent.png,0,6,0,6,0,1,,,,,,,,,,
,,,,5fe146b36a3657bd99f9c179,A,2024-05-18_09h33.08.904,Slot Machine Game,2023.1.3,Win32,57.14285714,,,,,,,,,,,,,,,,,,,,,,,,,,,230,,,,,,,,,,,,,,,,,,,,,6,4,,,549.338,7,up,0.9017,,1,0.3,"[1,2,3]",0.19720516,stimuli/card_100_transparent.png,100,7,0,7,0,1,,,,,,,,,,
,,,,5fe146b36a3657bd99f9c179,A,2024-05-18_09h33.08.904,Slot Machine Game,2023.1.3,Win32,57.14285714,,,,,,,,,,,,,,,,,,,,,,,,,,,240,,,,,,,,,,,,,,,,,,,,,6,4,,,552.0711,8,up,0.1845,,0.5,0.3,"[1,2,3]",0.386255279,stimuli/card_10_transparent.png,10,8,0,8,0,1,,,,,,,,,,
,,,,5fe146b36a3657bd99f9c179,A,2024-05-18_09h33.08.904,Slot Machine Game,2023.1.3,Win32,57.14285714,,,,,,,,,,,,,,,,,,,,,,,,,,,250,,,,,,,,,,,,,,,,,,,,,6,4,,,553.5882,9,up,2.1223,,1,0.3,"[1,2,3]",0.805208181,stimuli/card_10_transparent.png,10,9,0,9,0,1,,,,,,,,,,
,,,,5fe146b36a3657bd99f9c179,A,2024-05-18_09h33.08.904,Slot Machine Game,2023.1.3,Win32,57.14285714,,,,,,,,,,,,,,,,,,,,,,,,,,,350,,,,,,,,,,,,,,,,,,,,,6,4,,,557.5328,10,right,1.4355,,1.5,0.3,"[1,2,3]",0.025185953,stimuli/card_100_transparent.png,100,10,0,10,0,1,,,,,,,,,,
,,,,5fe146b36a3657bd99f9c179,A,2024-05-18_09h33.08.904,Slot Machine Game,2023.1.3,Win32,57.14285714,,,,,,,,,,,,,,,,,,,,,,,,,,,350,,,,,,,,,,,,,,,,,,,,,6,4,,,561.2893,11,right,2.2195,,0.5,0.3,"[1,2,3]",0.750644425,stimuli/card_0_transparent.png,0,11,0,11,0,1,,,,,,,,,,
,,,,5fe146b36a3657bd99f9c179,A,2024-05-18_09h33.08.904,Slot Machine Game,2023.1.3,Win32,57.14285714,,,,,,,,,,,,,,,,,,,,,,,,,,,350,,,,,,,,,,,,,,,,,,,,,6,4,,,564.8396,12,right,1.9676,,1,0.3,"[1,2,3]",0.990731997,stimuli/card_0_transparent.png,0,12,0,12,0,1,,,,,,,,,,
,,,,5fe146b36a3657bd99f9c179,A,2024-05-18_09h33.08.904,Slot Machine Game,2023.1.3,Win32,57.14285714,,,,,,,,,,,,,,,,,,,,,,,,,,,360,,,,,,,,,,,,,,,,,,,,,6,4,,,568.6399,13,up,0.9017,,0.5,0.3,"[1,2,3]",0.673031741,stimuli/card_10_transparent.png,10,13,0,13,0,1,,,,,,,,,,
,,,,5fe146b36a3657bd99f9c179,A,2024-05-18_09h33.08.904,Slot Machine Game,2023.1.3,Win32,57.14285714,,,,,,,,,,,,,,,,,,,,,,,,,,,370,,,,,,,,,,,,,,,,,,,,,6,4,,,570.8667,14,up,0.6021,,0.5,0.3,"[1,2,3]",0.322528945,stimuli/card_10_transparent.png,10,14,0,14,0,1,,,,,,,,,,
,,,,5fe146b36a3657bd99f9c179,A,2024-05-18_09h33.08.904,Slot Machine Game,2023.1.3,Win32,57.14285714,,,,,,,,,,,,,,,,,,,,,,,,,,,,,,,,,,,572.8012,,,,,,,,,,,,,,,,,,,,,,,,,,,,,,,,,"[1220,1030,620,760,820,370]",5,0,5,0,1,,,,
,,,,5fe146b36a3657bd99f9c179,A,2024-05-18_09h33.08.904,Slot Machine Game,2023.1.3,Win32,57.14285714,,,,,,,,,,,,,,,,,,,,,,,,,,,100,,,,,,,,,,,,,,,,,,,,,7,10,"[10,15]","[[3,1,2],[1,3,2]]",577.829,0,left,1.1134,,1.5,0.3,"[3,1,2]",0.084364381,stimuli/card_100_transparent.png,100,0,0,0,0,1,,,,,,,,,,
,,,,5fe146b36a3657bd99f9c179,A,2024-05-18_09h33.08.904,Slot Machine Game,2023.1.3,Win32,57.14285714,,,,,,,,,,,,,,,,,,,,,,,,,,,200,,,,,,,,,,,,,,,,,,,,,7,10,,,581.2688,1,left,0.0024,,1.5,0.3,"[3,1,2]",0.007526755,stimuli/card_100_transparent.png,100,1,0,1,0,1,,,,,,,,,,
,,,,5fe146b36a3657bd99f9c179,A,2024-05-18_09h33.08.904,Slot Machine Game,2023.1.3,Win32,57.14285714,,,,,,,,,,,,,,,,,,,,,,,,,,,210,,,,,,,,,,,,,,,,,,,,,7,10,,,583.5943,2,left,1.5559,,1.5,0.3,"[3,1,2]",0.184395907,stimuli/card_10_transparent.png,10,2,0,2,0,1,,,,,,,,,,
,,,,5fe146b36a3657bd99f9c179,A,2024-05-18_09h33.08.904,Slot Machine Game,2023.1.3,Win32,57.14285714,,,,,,,,,,,,,,,,,,,,,,,,,,,210,,,,,,,,,,,,,,,,,,,,,7,10,,,587.4687,3,left,0.186,,0.5,0.3,"[3,1,2]",0.49456184,stimuli/card_0_transparent.png,0,3,0,3,0,1,,,,,,,,,,
,,,,5fe146b36a3657bd99f9c179,A,2024-05-18_09h33.08.904,Slot Machine Game,2023.1.3,Win32,57.14285714,,,,,,,,,,,,,,,,,,,,,,,,,,,220,,,,,,,,,,,,,,,,,,,,,7,10,,,588.9856,4,right,0.119,,1.5,0.3,"[3,1,2]",0.213427257,stimuli/card_10_transparent.png,10,4,0,4,0,1,,,,,,,,,,
,,,,5fe146b36a3657bd99f9c179,A,2024-05-18_09h33.08.904,Slot Machine Game,2023.1.3,Win32,57.14285714,,,,,,,,,,,,,,,,,,,,,,,,,,,230,,,,,,,,,,,,,,,,,,,,,7,10,,,591.4246,5,right,0.4027,,0.5,0.3,"[3,1,2]",0.38403991,stimuli/card_10_transparent.png,10,5,0,5,0,1,,,,,,,,,,
,,,,5fe146b36a3657bd99f9c179,A,2024-05-18_09h33.08.904,Slot Machine Game,2023.1.3,Win32,57.14285714,,,,,,,,,,,,,,,,,,,,,,,,,,,240,,,,,,,,,,,,,,,,,,,,,7,10,,,593.1417,6,right,0.1015,,1.5,0.3,"[3,1,2]",0.643684276,stimuli/card_10_transparent.png,10,6,0,6,0,1,,,,,,,,,,
,,,,5fe146b36a3657bd99f9c179,A,2024-05-18_09h33.08.904,Slot Machine Game,2023.1.3,Win32,57.14285714,,,,,,,,,,,,,,,,,,,,,,,,,,,340,,,,,,,,,,,,,,,,,,,,,7,10,,,595.5755,7,up,2.4184,,1.5,0.3,"[3,1,2]",0.23424514,stimuli/card_100_transparent.png,100,7,0,7,0,1,,,,,,,,,,
,,,,5fe146b36a3657bd99f9c179,A,2024-05-18_09h33.08.904,Slot Machine Game,2023.1.3,Win32,57.14285714,,,,,,,,,,,,,,,,,,,,,,,,,,,440,,,,,,,,,,,,,,,,,,,,,7,10,,,600.3205,8,up,3.5526,,1.5,0.3,"[3,1,2]",0.735082169,stimuli/card_100_transparent.png,100,8,0,8,0,1,,,,,,,,,,
,,,,5fe146b36a3657bd99f9c179,A,2024-05-18_09h33.08.904,Slot Machine Game,2023.1.3,Win32,57.14285714,,,,,,,,,,,,,,,,,,,,,,,,,,,540,,,,,,,,,,,,,,,,,,,,,7,10,,,606.1939,9,up,1.7362,,1,0.3,"[3,1,2]",0.792968399,stimuli/card_100_transparent.png,100,9,0,9,0,1,,,,,,,,,,
,,,,5fe146b36a3657bd99f9c179,A,2024-05-18_09h33.08.904,Slot Machine Game,2023.1.3,Win32,57.14285714,,,,,,,,,,,,,,,,,,,,,,,,,,,540,,,,,,,,,,,,,,,,,,,,,7,10,,,609.7509,10,up,0.6179,,1.5,0.3,"[1,3,2]",0.818105437,stimuli/card_0_transparent.png,0,10,0,10,0,1,,,,,,,,,,
,,,,5fe146b36a3657bd99f9c179,A,2024-05-18_09h33.08.904,Slot Machine Game,2023.1.3,Win32,57.14285714,,,,,,,,,,,,,,,,,,,,,,,,,,,550,,,,,,,,,,,,,,,,,,,,,7,10,,,612.6941,11,left,2.4348,,0.5,0.3,"[1,3,2]",0.186119407,stimuli/card_10_transparent.png,10,11,0,11,0,1,,,,,,,,,,
,,,,5fe146b36a3657bd99f9c179,A,2024-05-18_09h33.08.904,Slot Machine Game,2023.1.3,Win32,57.14285714,,,,,,,,,,,,,,,,,,,,,,,,,,,650,,,,,,,,,,,,,,,,,,,,,7,10,,,616.4612,12,right,0.3013,,1,0.3,"[1,3,2]",0.129340118,stimuli/card_100_transparent.png,100,12,0,12,0,1,,,,,,,,,,
,,,,5fe146b36a3657bd99f9c179,A,2024-05-18_09h33.08.904,Slot Machine Game,2023.1.3,Win32,57.14285714,,,,,,,,,,,,,,,,,,,,,,,,,,,650,,,,,,,,,,,,,,,,,,,,,7,10,,,618.5948,13,right,0.3513,,0.5,0.3,"[1,3,2]",0.091105958,stimuli/card_0_transparent.png,0,13,0,13,0,1,,,,,,,,,,
,,,,5fe146b36a3657bd99f9c179,A,2024-05-18_09h33.08.904,Slot Machine Game,2023.1.3,Win32,57.14285714,,,,,,,,,,,,,,,,,,,,,,,,,,,660,,,,,,,,,,,,,,,,,,,,,7,10,,,620.2792,14,right,1.7548,,0.5,0.3,"[1,3,2]",0.473344472,stimuli/card_10_transparent.png,10,14,0,14,0,1,,,,,,,,,,
,,,,5fe146b36a3657bd99f9c179,A,2024-05-18_09h33.08.904,Slot Machine Game,2023.1.3,Win32,57.14285714,,,,,,,,,,,,,,,,,,,,,,,,,,,,,,,,,,,623.3616,,,,,,,,,,,,,,,,,,,,,,,,,,,,,,,,,"[1220,1030,620,760,820,370,660]",6,0,6,0,1,,,,
,,,,5fe146b36a3657bd99f9c179,A,2024-05-18_09h33.08.904,Slot Machine Game,2023.1.3,Win32,57.14285714,,,,,,,,,,,,,,,,,,,,,,,,,,,0,,,,,,,,,,,,,,,,,,,,,8,7,"[9,15]","[[1,3,2],[2,3,1]]",628.3989,0,up,0.4171,,1,0.3,"[1,3,2]",0.557030732,stimuli/card_0_transparent.png,0,0,0,0,0,1,,,,,,,,,,
,,,,5fe146b36a3657bd99f9c179,A,2024-05-18_09h33.08.904,Slot Machine Game,2023.1.3,Win32,57.14285714,,,,,,,,,,,,,,,,,,,,,,,,,,,0,,,,,,,,,,,,,,,,,,,,,8,7,,,630.6451,1,right,0.1406,,1.5,0.3,"[1,3,2]",0.048907662,stimuli/card_0_transparent.png,0,1,0,1,0,1,,,,,,,,,,
,,,,5fe146b36a3657bd99f9c179,A,2024-05-18_09h33.08.904,Slot Machine Game,2023.1.3,Win32,57.14285714,,,,,,,,,,,,,,,,,,,,,,,,,,,100,,,,,,,,,,,,,,,,,,,,,8,7,,,633.1123,2,left,1.0738,,1.5,0.3,"[1,3,2]",0.814369687,stimuli/card_100_transparent.png,100,2,0,2,0,1,,,,,,,,,,
,,,,5fe146b36a3657bd99f9c179,A,2024-05-18_09h33.08.904,Slot Machine Game,2023.1.3,Win32,57.14285714,,,,,,,,,,,,,,,,,,,,,,,,,,,200,,,,,,,,,,,,,,,,,,,,,8,7,,,636.5061,3,left,0.0176,,0.5,0.3,"[1,3,2]",0.242685768,stimuli/card_100_transparent.png,100,3,0,3,0,1,,,,,,,,,,
,,,,5fe146b36a3657bd99f9c179,A,2024-05-18_09h33.08.904,Slot Machine Game,2023.1.3,Win32,57.14285714,,,,,,,,,,,,,,,,,,,,,,,,,,,300,,,,,,,,,,,,,,,,,,,,,8,7,,,637.857,4,left,0.4242,,1.5,0.3,"[1,3,2]",0.539686959,stimuli/card_100_transparent.png,100,4,0,4,0,1,,,,,,,,,,
,,,,5fe146b36a3657bd99f9c179,A,2024-05-18_09h33.08.904,Slot Machine Game,2023.1.3,Win32,57.14285714,,,,,,,,,,,,,,,,,,,,,,,,,,,400,,,,,,,,,,,,,,,,,,,,,8,7,,,640.6124,5,left,1.1869,,1.5,0.3,"[1,3,2]",0.913142042,stimuli/card_100_transparent.png,100,5,0,5,0,1,,,,,,,,,,
,,,,5fe146b36a3657bd99f9c179,A,2024-05-18_09h33.08.904,Slot Machine Game,2023.1.3,Win32,57.14285714,,,,,,,,,,,,,,,,,,,,,,,,,,,500,,,,,,,,,,,,,,,,,,,,,8,7,,,644.1296,6,left,0.5677,,1.5,0.3,"[1,3,2]",0.223748465,stimuli/card_100_transparent.png,100,6,0,6,0,1,,,,,,,,,,
,,,,5fe146b36a3657bd99f9c179,A,2024-05-18_09h33.08.904,Slot Machine Game,2023.1.3,Win32,57.14285714,,,,,,,,,,,,,,,,,,,,,,,,,,,600,,,,,,,,,,,,,,,,,,,,,8,7,,,647.0302,7,left,1.0008,,1.5,0.3,"[1,3,2]",0.550723711,stimuli/card_100_transparent.png,100,7,0,7,0,1,,,,,,,,,,
,,,,5fe146b36a3657bd99f9c179,A,2024-05-18_09h33.08.904,Slot Machine Game,2023.1.3,Win32,57.14285714,,,,,,,,,,,,,,,,,,,,,,,,,,,700,,,,,,,,,,,,,,,,,,,,,8,7,,,650.3638,8,left,0.2699,,1.5,0.3,"[1,3,2]",0.817341292,stimuli/card_100_transparent.png,100,8,0,8,0,1,,,,,,,,,,
,,,,5fe146b36a3657bd99f9c179,A,2024-05-18_09h33.08.904,Slot Machine Game,2023.1.3,Win32,57.14285714,,,,,,,,,,,,,,,,,,,,,,,,,,,700,,,,,,,,,,,,,,,,,,,,,8,7,,,652.9648,9,left,0.3682,,1,0.3,"[2,3,1]",0.044360698,stimuli/card_0_transparent.png,0,9,0,9,0,1,,,,,,,,,,
,,,,5fe146b36a3657bd99f9c179,A,2024-05-18_09h33.08.904,Slot Machine Game,2023.1.3,Win32,57.14285714,,,,,,,,,,,,,,,,,,,,,,,,,,,710,,,,,,,,,,,,,,,,,,,,,8,7,,,655.1581,10,left,0.7686,,0.5,0.3,"[2,3,1]",0.206674462,stimuli/card_10_transparent.png,10,10,0,10,0,1,,,,,,,,,,
,,,,5fe146b36a3657bd99f9c179,A,2024-05-18_09h33.08.904,Slot Machine Game,2023.1.3,Win32,57.14285714,,,,,,,,,,,,,,,,,,,,,,,,,,,710,,,,,,,,,,,,,,,,,,,,,8,7,,,657.2578,11,up,0.4025,,1,0.3,"[2,3,1]",0.496275535,stimuli/card_0_transparent.png,0,11,0,11,0,1,,,,,,,,,,
,,,,5fe146b36a3657bd99f9c179,A,2024-05-18_09h33.08.904,Slot Machine Game,2023.1.3,Win32,57.14285714,,,,,,,,,,,,,,,,,,,,,,,,,,,810,,,,,,,,,,,,,,,,,,,,,8,7,,,659.4912,12,right,1.0024,,1,0.3,"[2,3,1]",0.381022383,stimuli/card_100_transparent.png,100,12,0,12,0,1,,,,,,,,,,
,,,,5fe146b36a3657bd99f9c179,A,2024-05-18_09h33.08.904,Slot Machine Game,2023.1.3,Win32,57.14285714,,,,,,,,,,,,,,,,,,,,,,,,,,,810,,,,,,,,,,,,,,,,,,,,,8,7,,,662.3148,13,right,0.1016,,1,0.3,"[2,3,1]",0.088531017,stimuli/card_0_transparent.png,0,13,0,13,0,1,,,,,,,,,,
,,,,5fe146b36a3657bd99f9c179,A,2024-05-18_09h33.08.904,Slot Machine Game,2023.1.3,Win32,57.14285714,,,,,,,,,,,,,,,,,,,,,,,,,,,910,,,,,,,,,,,,,,,,,,,,,8,7,,,664.2492,14,right,0.4336,,0.5,0.3,"[2,3,1]",0.210184746,stimuli/card_100_transparent.png,100,14,0,14,0,1,,,,,,,,,,
,,,,5fe146b36a3657bd99f9c179,A,2024-05-18_09h33.08.904,Slot Machine Game,2023.1.3,Win32,57.14285714,,,,,,,,,,,,,,,,,,,,,,,,,,,,,,,,,,,666.0239,,,,,,,,,,,,,,,,,,,,,,,,,,,,,,,,,"[1220,1030,620,760,820,370,660,910]",7,0,7,0,1,,,,
,,,,5fe146b36a3657bd99f9c179,A,2024-05-18_09h33.08.904,Slot Machine Game,2023.1.3,Win32,57.14285714,,,,,,,,,,,,,,,,,,,,,,,,,,,10,,,,,,,,,,,,,,,,,,,,,9,9,[15],"[[3,1,2]]",671.0666,0,up,0.769,,1.5,0.3,"[3,1,2]",0.166256663,stimuli/card_10_transparent.png,10,0,0,0,0,1,,,,,,,,,,
,,,,5fe146b36a3657bd99f9c179,A,2024-05-18_09h33.08.904,Slot Machine Game,2023.1.3,Win32,57.14285714,,,,,,,,,,,,,,,,,,,,,,,,,,,20,,,,,,,,,,,,,,,,,,,,,9,9,,,674.1501,1,right,0.3007,,1,0.3,"[3,1,2]",0.613296965,stimuli/card_10_transparent.png,10,1,0,1,0,1,,,,,,,,,,
,,,,5fe146b36a3657bd99f9c179,A,2024-05-18_09h33.08.904,Slot Machine Game,2023.1.3,Win32,57.14285714,,,,,,,,,,,,,,,,,,,,,,,,,,,30,,,,,,,,,,,,,,,,,,,,,9,9,,,676.2828,2,right,0.7185,,0.5,0.3,"[3,1,2]",0.914748337,stimuli/card_10_transparent.png,10,2,0,2,0,1,,,,,,,,,,
,,,,5fe146b36a3657bd99f9c179,A,2024-05-18_09h33.08.904,Slot Machine Game,2023.1.3,Win32,57.14285714,,,,,,,,,,,,,,,,,,,,,,,,,,,30,,,,,,,,,,,,,,,,,,,,,9,9,,,678.3327,3,left,0.0358,,1,0.3,"[3,1,2]",0.913699707,stimuli/card_0_transparent.png,0,3,0,3,0,1,,,,,,,,,,
,,,,5fe146b36a3657bd99f9c179,A,2024-05-18_09h33.08.904,Slot Machine Game,2023.1.3,Win32,57.14285714,,,,,,,,,,,,,,,,,,,,,,,,,,,30,,,,,,,,,,,,,,,,,,,,,9,9,,,680.1998,4,left,0.9512,,1.5,0.3,"[3,1,2]",0.968187053,stimuli/card_0_transparent.png,0,4,0,4,0,1,,,,,,,,,,
,,,,5fe146b36a3657bd99f9c179,A,2024-05-18_09h33.08.904,Slot Machine Game,2023.1.3,Win32,57.14285714,,,,,,,,,,,,,,,,,,,,,,,,,,,130,,,,,,,,,,,,,,,,,,,,,9,9,,,683.4834,5,up,0.5523,,0.5,0.3,"[3,1,2]",0.824360902,stimuli/card_100_transparent.png,100,5,0,5,0,1,,,,,,,,,,
,,,,5fe146b36a3657bd99f9c179,A,2024-05-18_09h33.08.904,Slot Machine Game,2023.1.3,Win32,57.14285714,,,,,,,,,,,,,,,,,,,,,,,,,,,230,,,,,,,,,,,,,,,,,,,,,9,9,,,685.3614,6,up,0.1027,,1,0.3,"[3,1,2]",0.32573784,stimuli/card_100_transparent.png,100,6,0,6,0,1,,,,,,,,,,
,,,,5fe146b36a3657bd99f9c179,A,2024-05-18_09h33.08.904,Slot Machine Game,2023.1.3,Win32,57.14285714,,,,,,,,,,,,,,,,,,,,,,,,,,,330,,,,,,,,,,,,,,,,,,,,,9,9,,,687.2943,7,up,0.9367,,1.5,0.3,"[3,1,2]",0.310953953,stimuli/card_100_transparent.png,100,7,0,7,0,1,,,,,,,,,,
,,,,5fe146b36a3657bd99f9c179,A,2024-05-18_09h33.08.904,Slot Machine Game,2023.1.3,Win32,57.14285714,,,,,,,,,,,,,,,,,,,,,,,,,,,330,,,,,,,,,,,,,,,,,,,,,9,9,,,690.5515,8,up,0.5683,,1.5,0.3,"[3,1,2]",0.021708097,stimuli/card_0_transparent.png,0,8,0,8,0,1,,,,,,,,,,
,,,,5fe146b36a3657bd99f9c179,A,2024-05-18_09h33.08.904,Slot Machine Game,2023.1.3,Win32,57.14285714,,,,,,,,,,,,,,,,,,,,,,,,,,,430,,,,,,,,,,,,,,,,,,,,,9,9,,,693.4514,9,up,0.0687,,1,0.3,"[3,1,2]",0.423428554,stimuli/card_100_transparent.png,100,9,0,9,0,1,,,,,,,,,,
,,,,5fe146b36a3657bd99f9c179,A,2024-05-18_09h33.08.904,Slot Machine Game,2023.1.3,Win32,57.14285714,,,,,,,,,,,,,,,,,,,,,,,,,,,530,,,,,,,,,,,,,,,,,,,,,9,9,,,695.3349,10,up,1.0348,,1.5,0.3,"[3,1,2]",0.458352894,stimuli/card_100_transparent.png,100,10,0,10,0,1,,,,,,,,,,
,,,,5fe146b36a3657bd99f9c179,A,2024-05-18_09h33.08.904,Slot Machine Game,2023.1.3,Win32,57.14285714,,,,,,,,,,,,,,,,,,,,,,,,,,,630,,,,,,,,,,,,,,,,,,,,,9,9,,,698.7019,11,up,0.2677,,1.5,0.3,"[3,1,2]",0.563885017,stimuli/card_100_transparent.png,100,11,0,11,0,1,,,,,,,,,,
,,,,5fe146b36a3657bd99f9c179,A,2024-05-18_09h33.08.904,Slot Machine Game,2023.1.3,Win32,57.14285714,,,,,,,,,,,,,,,,,,,,,,,,,,,730,,,,,,,,,,,,,,,,,,,,,9,9,,,701.3022,12,up,0.7359,,0.5,0.3,"[3,1,2]",0.745476175,stimuli/card_100_transparent.png,100,12,0,12,0,1,,,,,,,,,,
,,,,5fe146b36a3657bd99f9c179,A,2024-05-18_09h33.08.904,Slot Machine Game,2023.1.3,Win32,57.14285714,,,,,,,,,,,,,,,,,,,,,,,,,,,740,,,,,,,,,,,,,,,,,,,,,9,9,,,703.3696,13,up,0.1677,,1,0.3,"[3,1,2]",0.183598753,stimuli/card_10_transparent.png,10,13,0,13,0,1,,,,,,,,,,
,,,,5fe146b36a3657bd99f9c179,A,2024-05-18_09h33.08.904,Slot Machine Game,2023.1.3,Win32,57.14285714,,,,,,,,,,,,,,,,,,,,,,,,,,,840,,,,,,,,,,,,,,,,,,,,,9,9,,,705.3691,14,up,0.0739,,0.5,0.3,"[3,1,2]",0.348497537,stimuli/card_100_transparent.png,100,14,0,14,0,1,,,,,,,,,,
,,,,5fe146b36a3657bd99f9c179,A,2024-05-18_09h33.08.904,Slot Machine Game,2023.1.3,Win32,57.14285714,,,,,,,,,,,,,,,,,,,,,,,,,,,,,,,,,,,706.7693,,,,,,,,,,,,,,,,,,,,,,,,,,,,,,,,,"[1220,1030,620,760,820,370,660,910,840]",8,0,8,0,1,,,,
,,,,5fe146b36a3657bd99f9c179,A,2024-05-18_09h33.08.904,Slot Machine Game,2023.1.3,Win32,57.14285714,,,,,,,,,,,,,,,,,,,,,,,,,,,100,,,,,,,,,,,,,,,,,,,,,10,6,"[4,10,15]","[[2,3,1],[1,3,2],[3,2,1]]",711.8081,0,right,0.5337,,1,0.3,"[2,3,1]",0.361100266,stimuli/card_100_transparent.png,100,0,0,0,0,1,,,,,,,,,,
,,,,5fe146b36a3657bd99f9c179,A,2024-05-18_09h33.08.904,Slot Machine Game,2023.1.3,Win32,57.14285714,,,,,,,,,,,,,,,,,,,,,,,,,,,200,,,,,,,,,,,,,,,,,,,,,10,6,,,714.1695,1,right,2.0889,,1,0.3,"[2,3,1]",0.740868741,stimuli/card_100_transparent.png,100,1,0,1,0,1,,,,,,,,,,
,,,,5fe146b36a3657bd99f9c179,A,2024-05-18_09h33.08.904,Slot Machine Game,2023.1.3,Win32,57.14285714,,,,,,,,,,,,,,,,,,,,,,,,,,,300,,,,,,,,,,,,,,,,,,,,,10,6,,,718.0849,2,right,0.0509,,0.5,0.3,"[2,3,1]",0.278002489,stimuli/card_100_transparent.png,100,2,0,2,0,1,,,,,,,,,,
,,,,5fe146b36a3657bd99f9c179,A,2024-05-18_09h33.08.904,Slot Machine Game,2023.1.3,Win32,57.14285714,,,,,,,,,,,,,,,,,,,,,,,,,,,400,,,,,,,,,,,,,,,,,,,,,10,6,,,719.4528,3,right,0.086,,0.5,0.3,"[2,3,1]",0.610759135,stimuli/card_100_transparent.png,100,3,0,3,0,1,,,,,,,,,,
,,,,5fe146b36a3657bd99f9c179,A,2024-05-18_09h33.08.904,Slot Machine Game,2023.1.3,Win32,57.14285714,,,,,,,,,,,,,,,,,,,,,,,,,,,410,,,,,,,,,,,,,,,,,,,,,10,6,,,720.8702,4,right,0.9687,,0.5,0.3,"[1,3,2]",0.683083919,stimuli/card_10_transparent.png,10,4,0,4,0,1,,,,,,,,,,
,,,,5fe146b36a3657bd99f9c179,A,2024-05-18_09h33.08.904,Slot Machine Game,2023.1.3,Win32,57.14285714,,,,,,,,,,,,,,,,,,,,,,,,,,,420,,,,,,,,,,,,,,,,,,,,,10,6,,,723.1637,5,right,0.3856,,1.5,0.3,"[1,3,2]",0.254658265,stimuli/card_10_transparent.png,10,5,0,5,0,1,,,,,,,,,,
,,,,5fe146b36a3657bd99f9c179,A,2024-05-18_09h33.08.904,Slot Machine Game,2023.1.3,Win32,57.14285714,,,,,,,,,,,,,,,,,,,,,,,,,,,420,,,,,,,,,,,,,,,,,,,,,10,6,,,725.8818,6,up,1.2529,,1,0.3,"[1,3,2]",0.249351981,stimuli/card_0_transparent.png,0,6,0,6,0,1,,,,,,,,,,
,,,,5fe146b36a3657bd99f9c179,A,2024-05-18_09h33.08.904,Slot Machine Game,2023.1.3,Win32,57.14285714,,,,,,,,,,,,,,,,,,,,,,,,,,,520,,,,,,,,,,,,,,,,,,,,,10,6,,,728.9706,7,left,0.0524,,0.5,0.3,"[1,3,2]",0.921882246,stimuli/card_100_transparent.png,100,7,0,7,0,1,,,,,,,,,,
,,,,5fe146b36a3657bd99f9c179,A,2024-05-18_09h33.08.904,Slot Machine Game,2023.1.3,Win32,57.14285714,,,,,,,,,,,,,,,,,,,,,,,,,,,620,,,,,,,,,,,,,,,,,,,,,10,6,,,730.354,8,left,0.4179,,1,0.3,"[1,3,2]",0.97556668,stimuli/card_100_transparent.png,100,8,0,8,0,1,,,,,,,,,,
,,,,5fe146b36a3657bd99f9c179,A,2024-05-18_09h33.08.904,Slot Machine Game,2023.1.3,Win32,57.14285714,,,,,,,,,,,,,,,,,,,,,,,,,,,720,,,,,,,,,,,,,,,,,,,,,10,6,,,732.6047,9,left,0.0175,,1,0.3,"[1,3,2]",0.631050204,stimuli/card_100_transparent.png,100,9,0,9,0,1,,,,,,,,,,
,,,,5fe146b36a3657bd99f9c179,A,2024-05-18_09h33.08.904,Slot Machine Game,2023.1.3,Win32,57.14285714,,,,,,,,,,,,,,,,,,,,,,,,,,,720,,,,,,,,,,,,,,,,,,,,,10,6,,,734.4545,10,left,0.7846,,0.5,0.3,"[3,2,1]",0.846454644,stimuli/card_0_transparent.png,0,10,0,10,0,1,,,,,,,,,,
,,,,5fe146b36a3657bd99f9c179,A,2024-05-18_09h33.08.904,Slot Machine Game,2023.1.3,Win32,57.14285714,,,,,,,,,,,,,,,,,,,,,,,,,,,820,,,,,,,,,,,,,,,,,,,,,10,6,,,736.5717,11,left,0.1509,,1,0.3,"[3,2,1]",0.051694123,stimuli/card_100_transparent.png,100,11,0,11,0,1,,,,,,,,,,
,,,,5fe146b36a3657bd99f9c179,A,2024-05-18_09h33.08.904,Slot Machine Game,2023.1.3,Win32,57.14285714,,,,,,,,,,,,,,,,,,,,,,,,,,,820,,,,,,,,,,,,,,,,,,,,,10,6,,,738.5545,12,left,0.184,,1,0.3,"[3,2,1]",0.3982483,stimuli/card_0_transparent.png,0,12,0,12,0,1,,,,,,,,,,
,,,,5fe146b36a3657bd99f9c179,A,2024-05-18_09h33.08.904,Slot Machine Game,2023.1.3,Win32,57.14285714,,,,,,,,,,,,,,,,,,,,,,,,,,,820,,,,,,,,,,,,,,,,,,,,,10,6,,,740.5711,13,left,0.1013,,1.5,0.3,"[3,2,1]",0.990444335,stimuli/card_0_transparent.png,0,13,0,13,0,1,,,,,,,,,,
,,,,5fe146b36a3657bd99f9c179,A,2024-05-18_09h33.08.904,Slot Machine Game,2023.1.3,Win32,57.14285714,,,,,,,,,,,,,,,,,,,,,,,,,,,920,,,,,,,,,,,,,,,,,,,,,10,6,,,743.0058,14,right,0.0843,,1.5,0.3,"[3,2,1]",0.66348644,stimuli/card_100_transparent.png,100,14,0,14,0,1,,,,,,,,,,
,,,,5fe146b36a3657bd99f9c179,A,2024-05-18_09h33.08.904,Slot Machine Game,2023.1.3,Win32,57.14285714,,,,,,,,,,,,,,,,,,,,,,,,,,,,,,,,,,,745.4216,,,,,,,,,,,,,,,,,,,,,,,,,,,,,,,,,"[1220,1030,620,760,820,370,660,910,840,920]",9,0,9,0,1,,,,
,,,,5fe146b36a3657bd99f9c179,A,2024-05-18_09h33.08.904,Slot Machine Game,2023.1.3,Win32,57.14285714,,,,,,,,,,,,,,,,,,,,,,,,,,,,,,,,,,,,,,,,,,,,,,,,,,,,,,,,,,,,,,,,,,,,,,,,,,9,"[1220,1030,620,760,820,370,660,910,840,920]",6.6,2024-05-18_09h45.43.629
