key_resp_welcome_started,key_resp_welcome_keys,key_resp_welcome_rt,key_resp_welcome_duration,prolific_pid,path_id,date,expName,psychopyVersion,OS,frameRate,PROLIFIC_PID,STUDY_ID,SESSION_ID,key_resp_instruction1_started,key_resp_instruction1_keys,key_resp_instruction1_rt,key_resp_instruction1_duration,key_resp_instruction2_started,key_resp_instruction2_keys,key_resp_instruction2_rt,key_resp_instruction2_duration,key_resp_instruction3_started,key_resp_instruction3_keys,key_resp_instruction3_rt,key_resp_instruction3_duration,key_resp_instruction4_started,key_resp_instruction4_keys,key_resp_instruction4_rt,key_resp_instruction4_duration,practiceCondition,practice_reward_seqs,practice_trial_started,practice_trial_num,prac_presentationInterval,practice_reward_seq,practice_trials.thisRepN,practice_trials.thisTrialN,practice_trials.thisN,practice_trials.thisIndex,practice_trials.ran,practice_resp_rt,practice_keypress_time,practice_resp_keys,reward_img,cumulative_reward,trial_reward,block_break_started,practice_end_time,practice_end_keys,practice_end_rt,practice_end_duration,main_instruction_text_started,block_condition,block_order_indices,main_instruction_keys,main_instruction_rt,main_instruction_duration,block_number,block_assignment,current_condition,main_reward_seqs,main_trial_started,main_trial_num,main_trial_keys,main_trial_rt,main_trial_keypress_time,main_presentationInterval,reward_presentation_time,main_reward_seq,reward_rand_val,main_reward_img,current_reward,main_trials.thisRepN,main_trials.thisTrialN,main_trials.thisN,main_trials.thisIndex,main_trials.ran,block_reward,block.thisRepN,block.thisTrialN,block.thisN,block.thisIndex,block.ran,block_reward.length,block_reward_all,reward_amount,date_end_task
0,space,2.468,,669ef51d969be2073275aec3,C,2024-10-23_12h31.57.113,Slot Machine Game,2023.1.3,Win32,60.0240096,669ef51d969be2073275aec3,67167c13dd87566d3602e731,671932ce864a16d42d3af8ca,,,,,,,,,,,,,,,,,,,,,,,,,,,,,,,,,,,,,,,,,,,,,,,,,,,,,,,,,,,,,,,,,,,,,,,,,,
,,,,669ef51d969be2073275aec3,C,2024-10-23_12h31.57.113,Slot Machine Game,2023.1.3,Win32,60.0240096,669ef51d969be2073275aec3,67167c13dd87566d3602e731,671932ce864a16d42d3af8ca,2.486,space,9.875,,,,,,,,,,,,,,,,,,,,,,,,,,,,,,,,,,,,,,,,,,,,,,,,,,,,,,,,,,,,,,,,,,,,,,,
,,,,669ef51d969be2073275aec3,C,2024-10-23_12h31.57.113,Slot Machine Game,2023.1.3,Win32,60.0240096,669ef51d969be2073275aec3,67167c13dd87566d3602e731,671932ce864a16d42d3af8ca,,,,,12.386,space,24.244,,,,,,,,,,,,,,,,,,,,,,,,,,,,,,,,,,,,,,,,,,,,,,,,,,,,,,,,,,,,,,,,,,,
,,,,669ef51d969be2073275aec3,C,2024-10-23_12h31.57.113,Slot Machine Game,2023.1.3,Win32,60.0240096,669ef51d969be2073275aec3,67167c13dd87566d3602e731,671932ce864a16d42d3af8ca,,,,,,,,,36.652,space,7.214,,,,,,,,,,,,,,,,,,,,,,,,,,,,,,,,,,,,,,,,,,,,,,,,,,,,,,,,,,,,,,,
,,,,669ef51d969be2073275aec3,C,2024-10-23_12h31.57.113,Slot Machine Game,2023.1.3,Win32,60.0240096,669ef51d969be2073275aec3,67167c13dd87566d3602e731,671932ce864a16d42d3af8ca,,,,,,,,,,,,,,,,,,,,,,,,,,,,,,,,,,,,,,,,,,,,,,,,,,,,,,,,,,,,,,,,,,,,,,,,,,
,,,,669ef51d969be2073275aec3,C,2024-10-23_12h31.57.113,Slot Machine Game,2023.1.3,Win32,60.0240096,669ef51d969be2073275aec3,67167c13dd87566d3602e731,671932ce864a16d42d3af8ca,,,,,,,,,,,,,185.501,space,2.878,,,,,,,,,,,,,,,,,,,,,,,,,,,,,,,,,,,,,,,,,,,,,,,,,,,,,,,,,,,
,,,,669ef51d969be2073275aec3,C,2024-10-23_12h31.57.113,Slot Machine Game,2023.1.3,Win32,60.0240096,669ef51d969be2073275aec3,67167c13dd87566d3602e731,671932ce864a16d42d3af8ca,,,,,,,,,,,,,,,,,"[9,15]","[[2,1,3],[2,3,1]]",188.402,0,1,"[2,1,3]",0,0,0,0,1,,,,,,,,,,,,,,,,,,,,,,,,,,,,,,,,,,,,,,,,,,,,,,,
,,,,669ef51d969be2073275aec3,C,2024-10-23_12h31.57.113,Slot Machine Game,2023.1.3,Win32,60.0240096,669ef51d969be2073275aec3,67167c13dd87566d3602e731,671932ce864a16d42d3af8ca,,,,,,,,,,,,,,,,,,,193.919,1,1,"[2,1,3]",1,0,1,0,1,1.253,195.2,left,stimuli/card_10_transparent.png,10,10,,,,,,,,,,,,,,,,,,,,,,,,,,,,,,,,,,,,,,,,,
,,,,669ef51d969be2073275aec3,C,2024-10-23_12h31.57.113,Slot Machine Game,2023.1.3,Win32,60.0240096,669ef51d969be2073275aec3,67167c13dd87566d3602e731,671932ce864a16d42d3af8ca,,,,,,,,,,,,,,,,,,,196.501,2,1,"[2,1,3]",2,0,2,0,1,0.943,197.45,left,stimuli/card_10_transparent.png,20,10,,,,,,,,,,,,,,,,,,,,,,,,,,,,,,,,,,,,,,,,,
,,,,669ef51d969be2073275aec3,C,2024-10-23_12h31.57.113,Slot Machine Game,2023.1.3,Win32,60.0240096,669ef51d969be2073275aec3,67167c13dd87566d3602e731,671932ce864a16d42d3af8ca,,,,,,,,,,,,,,,,,,,198.75,3,0.5,"[2,1,3]",3,0,3,0,1,0.668,199.434,up,stimuli/card_0_transparent.png,20,0,,,,,,,,,,,,,,,,,,,,,,,,,,,,,,,,,,,,,,,,,
,,,,669ef51d969be2073275aec3,C,2024-10-23_12h31.57.113,Slot Machine Game,2023.1.3,Win32,60.0240096,669ef51d969be2073275aec3,67167c13dd87566d3602e731,671932ce864a16d42d3af8ca,,,,,,,,,,,,,,,,,,,200.234,4,0.5,"[2,1,3]",4,0,4,0,1,0.984,201.25,up,stimuli/card_0_transparent.png,20,0,,,,,,,,,,,,,,,,,,,,,,,,,,,,,,,,,,,,,,,,,
,,,,669ef51d969be2073275aec3,C,2024-10-23_12h31.57.113,Slot Machine Game,2023.1.3,Win32,60.0240096,669ef51d969be2073275aec3,67167c13dd87566d3602e731,671932ce864a16d42d3af8ca,,,,,,,,,,,,,,,,,,,202.05,5,1,"[2,1,3]",5,0,5,0,1,0.757,202.817,right,stimuli/card_0_transparent.png,20,0,,,,,,,,,,,,,,,,,,,,,,,,,,,,,,,,,,,,,,,,,
,,,,669ef51d969be2073275aec3,C,2024-10-23_12h31.57.113,Slot Machine Game,2023.1.3,Win32,60.0240096,669ef51d969be2073275aec3,67167c13dd87566d3602e731,671932ce864a16d42d3af8ca,,,,,,,,,,,,,,,,,,,204.117,6,0.5,"[2,1,3]",6,0,6,0,1,0.766,204.901,right,stimuli/card_0_transparent.png,20,0,,,,,,,,,,,,,,,,,,,,,,,,,,,,,,,,,,,,,,,,,
,,,,669ef51d969be2073275aec3,C,2024-10-23_12h31.57.113,Slot Machine Game,2023.1.3,Win32,60.0240096,669ef51d969be2073275aec3,67167c13dd87566d3602e731,671932ce864a16d42d3af8ca,,,,,,,,,,,,,,,,,,,205.701,7,0.5,"[2,1,3]",7,0,7,0,1,0.916,206.65,right,stimuli/card_0_transparent.png,20,0,,,,,,,,,,,,,,,,,,,,,,,,,,,,,,,,,,,,,,,,,
,,,,669ef51d969be2073275aec3,C,2024-10-23_12h31.57.113,Slot Machine Game,2023.1.3,Win32,60.0240096,669ef51d969be2073275aec3,67167c13dd87566d3602e731,671932ce864a16d42d3af8ca,,,,,,,,,,,,,,,,,,,207.451,8,1,"[2,1,3]",8,0,8,0,1,2.211,209.701,left,stimuli/card_10_transparent.png,30,10,,,,,,,,,,,,,,,,,,,,,,,,,,,,,,,,,,,,,,,,,
,,,,669ef51d969be2073275aec3,C,2024-10-23_12h31.57.113,Slot Machine Game,2023.1.3,Win32,60.0240096,669ef51d969be2073275aec3,67167c13dd87566d3602e731,671932ce864a16d42d3af8ca,,,,,,,,,,,,,,,,,,,211.001,9,1.5,"[2,3,1]",9,0,9,0,1,0.593,211.617,left,stimuli/card_10_transparent.png,40,10,,,,,,,,,,,,,,,,,,,,,,,,,,,,,,,,,,,,,,,,,
,,,,669ef51d969be2073275aec3,C,2024-10-23_12h31.57.113,Slot Machine Game,2023.1.3,Win32,60.0240096,669ef51d969be2073275aec3,67167c13dd87566d3602e731,671932ce864a16d42d3af8ca,,,,,,,,,,,,,,,,,,,213.417,10,1,"[2,3,1]",10,0,10,0,1,0.992,214.418,left,stimuli/card_10_transparent.png,50,10,,,,,,,,,,,,,,,,,,,,,,,,,,,,,,,,,,,,,,,,,
,,,,669ef51d969be2073275aec3,C,2024-10-23_12h31.57.113,Slot Machine Game,2023.1.3,Win32,60.0240096,669ef51d969be2073275aec3,67167c13dd87566d3602e731,671932ce864a16d42d3af8ca,,,,,,,,,,,,,,,,,,,215.717,11,0.5,"[2,3,1]",11,0,11,0,1,1.033,216.767,up,stimuli/card_0_transparent.png,50,0,,,,,,,,,,,,,,,,,,,,,,,,,,,,,,,,,,,,,,,,,
,,,,669ef51d969be2073275aec3,C,2024-10-23_12h31.57.113,Slot Machine Game,2023.1.3,Win32,60.0240096,669ef51d969be2073275aec3,67167c13dd87566d3602e731,671932ce864a16d42d3af8ca,,,,,,,,,,,,,,,,,,,217.567,12,0.5,"[2,3,1]",12,0,12,0,1,0.567,218.15,up,stimuli/card_0_transparent.png,50,0,,,,,,,,,,,,,,,,,,,,,,,,,,,,,,,,,,,,,,,,,
,,,,669ef51d969be2073275aec3,C,2024-10-23_12h31.57.113,Slot Machine Game,2023.1.3,Win32,60.0240096,669ef51d969be2073275aec3,67167c13dd87566d3602e731,671932ce864a16d42d3af8ca,,,,,,,,,,,,,,,,,,,218.951,13,1,"[2,3,1]",13,0,13,0,1,1.483,220.467,up,stimuli/card_100_transparent.png,150,100,,,,,,,,,,,,,,,,,,,,,,,,,,,,,,,,,,,,,,,,,
,,,,669ef51d969be2073275aec3,C,2024-10-23_12h31.57.113,Slot Machine Game,2023.1.3,Win32,60.0240096,669ef51d969be2073275aec3,67167c13dd87566d3602e731,671932ce864a16d42d3af8ca,,,,,,,,,,,,,,,,,,,221.767,14,0.5,"[2,3,1]",14,0,14,0,1,0.576,222.35,up,stimuli/card_10_transparent.png,160,10,,,,,,,,,,,,,,,,,,,,,,,,,,,,,,,,,,,,,,,,,
,,,,669ef51d969be2073275aec3,C,2024-10-23_12h31.57.113,Slot Machine Game,2023.1.3,Win32,60.0240096,669ef51d969be2073275aec3,67167c13dd87566d3602e731,671932ce864a16d42d3af8ca,,,,,,,,,,,,,,,,,"[6,15]","[[1,3,2],[3,1,2]]",228.152,0,0.5,"[1,3,2]",0,0,0,0,1,0.868,229.05,up,stimuli/card_10_transparent.png,10,10,223.15,,,,,,,,,,,,,,,,,,,,,,,,,,,,,,,,,,,,,,,,
,,,,669ef51d969be2073275aec3,C,2024-10-23_12h31.57.113,Slot Machine Game,2023.1.3,Win32,60.0240096,669ef51d969be2073275aec3,67167c13dd87566d3602e731,671932ce864a16d42d3af8ca,,,,,,,,,,,,,,,,,,,229.85,1,1,"[1,3,2]",1,0,1,0,1,0.528,230.383,up,stimuli/card_0_transparent.png,10,0,,,,,,,,,,,,,,,,,,,,,,,,,,,,,,,,,,,,,,,,,
,,,,669ef51d969be2073275aec3,C,2024-10-23_12h31.57.113,Slot Machine Game,2023.1.3,Win32,60.0240096,669ef51d969be2073275aec3,67167c13dd87566d3602e731,671932ce864a16d42d3af8ca,,,,,,,,,,,,,,,,,,,231.683,2,0.5,"[1,3,2]",2,0,2,0,1,0.633,232.334,up,stimuli/card_0_transparent.png,10,0,,,,,,,,,,,,,,,,,,,,,,,,,,,,,,,,,,,,,,,,,
,,,,669ef51d969be2073275aec3,C,2024-10-23_12h31.57.113,Slot Machine Game,2023.1.3,Win32,60.0240096,669ef51d969be2073275aec3,67167c13dd87566d3602e731,671932ce864a16d42d3af8ca,,,,,,,,,,,,,,,,,,,233.134,3,1.5,"[1,3,2]",3,0,3,0,1,1.117,234.267,left,stimuli/card_100_transparent.png,110,100,,,,,,,,,,,,,,,,,,,,,,,,,,,,,,,,,,,,,,,,,
,,,,669ef51d969be2073275aec3,C,2024-10-23_12h31.57.113,Slot Machine Game,2023.1.3,Win32,60.0240096,669ef51d969be2073275aec3,67167c13dd87566d3602e731,671932ce864a16d42d3af8ca,,,,,,,,,,,,,,,,,,,236.066,4,1,"[1,3,2]",4,0,4,0,1,0.917,237,left,stimuli/card_10_transparent.png,120,10,,,,,,,,,,,,,,,,,,,,,,,,,,,,,,,,,,,,,,,,,
,,,,669ef51d969be2073275aec3,C,2024-10-23_12h31.57.113,Slot Machine Game,2023.1.3,Win32,60.0240096,669ef51d969be2073275aec3,67167c13dd87566d3602e731,671932ce864a16d42d3af8ca,,,,,,,,,,,,,,,,,,,238.301,5,1,"[1,3,2]",5,0,5,0,1,0.827,239.15,left,stimuli/card_0_transparent.png,120,0,,,,,,,,,,,,,,,,,,,,,,,,,,,,,,,,,,,,,,,,,
,,,,669ef51d969be2073275aec3,C,2024-10-23_12h31.57.113,Slot Machine Game,2023.1.3,Win32,60.0240096,669ef51d969be2073275aec3,67167c13dd87566d3602e731,671932ce864a16d42d3af8ca,,,,,,,,,,,,,,,,,,,240.451,6,1.5,"[3,1,2]",6,0,6,0,1,0.672,241.15,left,stimuli/card_0_transparent.png,120,0,,,,,,,,,,,,,,,,,,,,,,,,,,,,,,,,,,,,,,,,,
,,,,669ef51d969be2073275aec3,C,2024-10-23_12h31.57.113,Slot Machine Game,2023.1.3,Win32,60.0240096,669ef51d969be2073275aec3,67167c13dd87566d3602e731,671932ce864a16d42d3af8ca,,,,,,,,,,,,,,,,,,,242.951,7,1,"[3,1,2]",7,0,7,0,1,0.739,243.717,right,stimuli/card_100_transparent.png,220,100,,,,,,,,,,,,,,,,,,,,,,,,,,,,,,,,,,,,,,,,,
,,,,669ef51d969be2073275aec3,C,2024-10-23_12h31.57.113,Slot Machine Game,2023.1.3,Win32,60.0240096,669ef51d969be2073275aec3,67167c13dd87566d3602e731,671932ce864a16d42d3af8ca,,,,,,,,,,,,,,,,,,,245.017,8,1.5,"[3,1,2]",8,0,8,0,1,0.635,245.667,right,stimuli/card_10_transparent.png,230,10,,,,,,,,,,,,,,,,,,,,,,,,,,,,,,,,,,,,,,,,,
,,,,669ef51d969be2073275aec3,C,2024-10-23_12h31.57.113,Slot Machine Game,2023.1.3,Win32,60.0240096,669ef51d969be2073275aec3,67167c13dd87566d3602e731,671932ce864a16d42d3af8ca,,,,,,,,,,,,,,,,,,,247.467,9,1,"[3,1,2]",9,0,9,0,1,0.667,248.15,right,stimuli/card_10_transparent.png,240,10,,,,,,,,,,,,,,,,,,,,,,,,,,,,,,,,,,,,,,,,,
,,,,669ef51d969be2073275aec3,C,2024-10-23_12h31.57.113,Slot Machine Game,2023.1.3,Win32,60.0240096,669ef51d969be2073275aec3,67167c13dd87566d3602e731,671932ce864a16d42d3af8ca,,,,,,,,,,,,,,,,,,,249.451,10,1,"[3,1,2]",10,0,10,0,1,0.511,249.984,right,stimuli/card_10_transparent.png,250,10,,,,,,,,,,,,,,,,,,,,,,,,,,,,,,,,,,,,,,,,,
,,,,669ef51d969be2073275aec3,C,2024-10-23_12h31.57.113,Slot Machine Game,2023.1.3,Win32,60.0240096,669ef51d969be2073275aec3,67167c13dd87566d3602e731,671932ce864a16d42d3af8ca,,,,,,,,,,,,,,,,,,,251.283,11,1,"[3,1,2]",11,0,11,0,1,0.651,251.95,left,stimuli/card_10_transparent.png,260,10,,,,,,,,,,,,,,,,,,,,,,,,,,,,,,,,,,,,,,,,,
,,,,669ef51d969be2073275aec3,C,2024-10-23_12h31.57.113,Slot Machine Game,2023.1.3,Win32,60.0240096,669ef51d969be2073275aec3,67167c13dd87566d3602e731,671932ce864a16d42d3af8ca,,,,,,,,,,,,,,,,,,,253.251,12,1,"[3,1,2]",12,0,12,0,1,0.783,254.066,left,stimuli/card_0_transparent.png,260,0,,,,,,,,,,,,,,,,,,,,,,,,,,,,,,,,,,,,,,,,,
,,,,669ef51d969be2073275aec3,C,2024-10-23_12h31.57.113,Slot Machine Game,2023.1.3,Win32,60.0240096,669ef51d969be2073275aec3,67167c13dd87566d3602e731,671932ce864a16d42d3af8ca,,,,,,,,,,,,,,,,,,,255.366,13,1,"[3,1,2]",13,0,13,0,1,0.784,256.167,up,stimuli/card_100_transparent.png,360,100,,,,,,,,,,,,,,,,,,,,,,,,,,,,,,,,,,,,,,,,,
,,,,669ef51d969be2073275aec3,C,2024-10-23_12h31.57.113,Slot Machine Game,2023.1.3,Win32,60.0240096,669ef51d969be2073275aec3,67167c13dd87566d3602e731,671932ce864a16d42d3af8ca,,,,,,,,,,,,,,,,,,,257.466,14,1,"[3,1,2]",14,0,14,0,1,0.503,257.983,up,stimuli/card_100_transparent.png,460,100,,,,,,,,,,,,,,,,,,,,,,,,,,,,,,,,,,,,,,,,,
,,,,669ef51d969be2073275aec3,C,2024-10-23_12h31.57.113,Slot Machine Game,2023.1.3,Win32,60.0240096,669ef51d969be2073275aec3,67167c13dd87566d3602e731,671932ce864a16d42d3af8ca,,,,,,,,,,,,,,,,,,,,,,,,,,,,,,,,,,259.284,264.284,space,3.012,,,,,,,,,,,,,,,,,,,,,,,,,,,,,,,,,,,,,
,,,,669ef51d969be2073275aec3,C,2024-10-23_12h31.57.113,Slot Machine Game,2023.1.3,Win32,60.0240096,669ef51d969be2073275aec3,67167c13dd87566d3602e731,671932ce864a16d42d3af8ca,,,,,,,,,,,,,,,,,,,,,,,,,,,,,,,,,,,,,,,267.317,2,"[2,4,7,0,1,3,9,6,8,5]",space,2.036,,,,,,,,,,,,,,,,,,,,,,,,,,,,,,,
,,,,669ef51d969be2073275aec3,C,2024-10-23_12h31.57.113,Slot Machine Game,2023.1.3,Win32,60.0240096,669ef51d969be2073275aec3,67167c13dd87566d3602e731,671932ce864a16d42d3af8ca,,,,,,,,,,,,,,,,,,,,,,,,,,,,,,,,100,,,,,,,,,,,,,1,3,"[15,15]","[[3,1,2],[3,1,2]]",269.368,0,up,0.877,270.267,1.5,0.3,"[3,1,2]",0.779904892,stimuli/card_100_transparent.png,100,0,0,0,0,1,,,,,,,,,,
,,,,669ef51d969be2073275aec3,C,2024-10-23_12h31.57.113,Slot Machine Game,2023.1.3,Win32,60.0240096,669ef51d969be2073275aec3,67167c13dd87566d3602e731,671932ce864a16d42d3af8ca,,,,,,,,,,,,,,,,,,,,,,,,,,,,,,,,110,,,,,,,,,,,,,1,3,,,272.066,1,up,0.877,272.95,1,0.3,"[3,1,2]",0.174163441,stimuli/card_10_transparent.png,10,1,0,1,0,1,,,,,,,,,,
,,,,669ef51d969be2073275aec3,C,2024-10-23_12h31.57.113,Slot Machine Game,2023.1.3,Win32,60.0240096,669ef51d969be2073275aec3,67167c13dd87566d3602e731,671932ce864a16d42d3af8ca,,,,,,,,,,,,,,,,,,,,,,,,,,,,,,,,210,,,,,,,,,,,,,1,3,,,274.25,2,up,0.716,274.999,0.5,0.3,"[3,1,2]",0.661690046,stimuli/card_100_transparent.png,100,2,0,2,0,1,,,,,,,,,,
,,,,669ef51d969be2073275aec3,C,2024-10-23_12h31.57.113,Slot Machine Game,2023.1.3,Win32,60.0240096,669ef51d969be2073275aec3,67167c13dd87566d3602e731,671932ce864a16d42d3af8ca,,,,,,,,,,,,,,,,,,,,,,,,,,,,,,,,220,,,,,,,,,,,,,1,3,,,275.799,3,up,0.5,276.317,1,0.3,"[3,1,2]",0.140559657,stimuli/card_10_transparent.png,10,3,0,3,0,1,,,,,,,,,,
,,,,669ef51d969be2073275aec3,C,2024-10-23_12h31.57.113,Slot Machine Game,2023.1.3,Win32,60.0240096,669ef51d969be2073275aec3,67167c13dd87566d3602e731,671932ce864a16d42d3af8ca,,,,,,,,,,,,,,,,,,,,,,,,,,,,,,,,320,,,,,,,,,,,,,1,3,,,277.617,4,up,0.667,278.299,1.5,0.3,"[3,1,2]",0.921893368,stimuli/card_100_transparent.png,100,4,0,4,0,1,,,,,,,,,,
,,,,669ef51d969be2073275aec3,C,2024-10-23_12h31.57.113,Slot Machine Game,2023.1.3,Win32,60.0240096,669ef51d969be2073275aec3,67167c13dd87566d3602e731,671932ce864a16d42d3af8ca,,,,,,,,,,,,,,,,,,,,,,,,,,,,,,,,420,,,,,,,,,,,,,1,3,,,280.1,5,up,0.55,280.667,1,0.3,"[3,1,2]",0.528180974,stimuli/card_100_transparent.png,100,5,0,5,0,1,,,,,,,,,,
,,,,669ef51d969be2073275aec3,C,2024-10-23_12h31.57.113,Slot Machine Game,2023.1.3,Win32,60.0240096,669ef51d969be2073275aec3,67167c13dd87566d3602e731,671932ce864a16d42d3af8ca,,,,,,,,,,,,,,,,,,,,,,,,,,,,,,,,430,,,,,,,,,,,,,1,3,,,281.967,6,up,0.566,282.567,0.5,0.3,"[3,1,2]",0.140666326,stimuli/card_10_transparent.png,10,6,0,6,0,1,,,,,,,,,,
,,,,669ef51d969be2073275aec3,C,2024-10-23_12h31.57.113,Slot Machine Game,2023.1.3,Win32,60.0240096,669ef51d969be2073275aec3,67167c13dd87566d3602e731,671932ce864a16d42d3af8ca,,,,,,,,,,,,,,,,,,,,,,,,,,,,,,,,430,,,,,,,,,,,,,1,3,,,283.367,7,up,0.622,284.016,0.5,0.3,"[3,1,2]",0.000350744,stimuli/card_0_transparent.png,0,7,0,7,0,1,,,,,,,,,,
,,,,669ef51d969be2073275aec3,C,2024-10-23_12h31.57.113,Slot Machine Game,2023.1.3,Win32,60.0240096,669ef51d969be2073275aec3,67167c13dd87566d3602e731,671932ce864a16d42d3af8ca,,,,,,,,,,,,,,,,,,,,,,,,,,,,,,,,430,,,,,,,,,,,,,1,3,,,284.817,8,left,1.09,285.933,0.5,0.3,"[3,1,2]",0.803179689,stimuli/card_0_transparent.png,0,8,0,8,0,1,,,,,,,,,,
,,,,669ef51d969be2073275aec3,C,2024-10-23_12h31.57.113,Slot Machine Game,2023.1.3,Win32,60.0240096,669ef51d969be2073275aec3,67167c13dd87566d3602e731,671932ce864a16d42d3af8ca,,,,,,,,,,,,,,,,,,,,,,,,,,,,,,,,440,,,,,,,,,,,,,1,3,,,286.733,9,left,0.937,287.683,1,0.3,"[3,1,2]",0.103323893,stimuli/card_10_transparent.png,10,9,0,9,0,1,,,,,,,,,,
,,,,669ef51d969be2073275aec3,C,2024-10-23_12h31.57.113,Slot Machine Game,2023.1.3,Win32,60.0240096,669ef51d969be2073275aec3,67167c13dd87566d3602e731,671932ce864a16d42d3af8ca,,,,,,,,,,,,,,,,,,,,,,,,,,,,,,,,450,,,,,,,,,,,,,1,3,,,288.984,10,right,0.761,289.766,1.5,0.3,"[3,1,2]",0.227181793,stimuli/card_10_transparent.png,10,10,0,10,0,1,,,,,,,,,,
,,,,669ef51d969be2073275aec3,C,2024-10-23_12h31.57.113,Slot Machine Game,2023.1.3,Win32,60.0240096,669ef51d969be2073275aec3,67167c13dd87566d3602e731,671932ce864a16d42d3af8ca,,,,,,,,,,,,,,,,,,,,,,,,,,,,,,,,460,,,,,,,,,,,,,1,3,,,291.566,11,right,0.944,292.516,0.5,0.3,"[3,1,2]",0.848304391,stimuli/card_10_transparent.png,10,11,0,11,0,1,,,,,,,,,,
,,,,669ef51d969be2073275aec3,C,2024-10-23_12h31.57.113,Slot Machine Game,2023.1.3,Win32,60.0240096,669ef51d969be2073275aec3,67167c13dd87566d3602e731,671932ce864a16d42d3af8ca,,,,,,,,,,,,,,,,,,,,,,,,,,,,,,,,470,,,,,,,,,,,,,1,3,,,293.317,12,right,0.601,293.95,1,0.3,"[3,1,2]",0.54108118,stimuli/card_10_transparent.png,10,12,0,12,0,1,,,,,,,,,,
,,,,669ef51d969be2073275aec3,C,2024-10-23_12h31.57.113,Slot Machine Game,2023.1.3,Win32,60.0240096,669ef51d969be2073275aec3,67167c13dd87566d3602e731,671932ce864a16d42d3af8ca,,,,,,,,,,,,,,,,,,,,,,,,,,,,,,,,570,,,,,,,,,,,,,1,3,,,295.25,13,up,0.937,296.216,0.5,0.3,"[3,1,2]",0.609679064,stimuli/card_100_transparent.png,100,13,0,13,0,1,,,,,,,,,,
,,,,669ef51d969be2073275aec3,C,2024-10-23_12h31.57.113,Slot Machine Game,2023.1.3,Win32,60.0240096,669ef51d969be2073275aec3,67167c13dd87566d3602e731,671932ce864a16d42d3af8ca,,,,,,,,,,,,,,,,,,,,,,,,,,,,,,,,670,,,,,,,,,,,,,1,3,,,297.017,14,up,0.601,297.65,0.5,0.3,"[3,1,2]",0.406175925,stimuli/card_100_transparent.png,100,14,0,14,0,1,,,,,,,,,,
,,,,669ef51d969be2073275aec3,C,2024-10-23_12h31.57.113,Slot Machine Game,2023.1.3,Win32,60.0240096,669ef51d969be2073275aec3,67167c13dd87566d3602e731,671932ce864a16d42d3af8ca,,,,,,,,,,,,,,,,,,,,,,,,,,,,,,,,,,298.45,,,,,,,,,,,,,,,,,,,,,,,,,,,,,,,[670],0,0,0,0,1,,,,
,,,,669ef51d969be2073275aec3,C,2024-10-23_12h31.57.113,Slot Machine Game,2023.1.3,Win32,60.0240096,669ef51d969be2073275aec3,67167c13dd87566d3602e731,671932ce864a16d42d3af8ca,,,,,,,,,,,,,,,,,,,,,,,,,,,,,,,,10,,,,,,,,,,,,,2,5,"[5,15]","[[1,2,3],[3,1,2]]",303.452,0,left,0.686,304.166,1.5,0.3,"[1,2,3]",0.129009977,stimuli/card_10_transparent.png,10,0,0,0,0,1,,,,,,,,,,
,,,,669ef51d969be2073275aec3,C,2024-10-23_12h31.57.113,Slot Machine Game,2023.1.3,Win32,60.0240096,669ef51d969be2073275aec3,67167c13dd87566d3602e731,671932ce864a16d42d3af8ca,,,,,,,,,,,,,,,,,,,,,,,,,,,,,,,,20,,,,,,,,,,,,,2,5,,,305.966,1,left,1.067,307.05,1,0.3,"[1,2,3]",0.168117884,stimuli/card_10_transparent.png,10,1,0,1,0,1,,,,,,,,,,
,,,,669ef51d969be2073275aec3,C,2024-10-23_12h31.57.113,Slot Machine Game,2023.1.3,Win32,60.0240096,669ef51d969be2073275aec3,67167c13dd87566d3602e731,671932ce864a16d42d3af8ca,,,,,,,,,,,,,,,,,,,,,,,,,,,,,,,,30,,,,,,,,,,,,,2,5,,,308.35,2,right,0.52,308.883,1,0.3,"[1,2,3]",0.198272782,stimuli/card_10_transparent.png,10,2,0,2,0,1,,,,,,,,,,
,,,,669ef51d969be2073275aec3,C,2024-10-23_12h31.57.113,Slot Machine Game,2023.1.3,Win32,60.0240096,669ef51d969be2073275aec3,67167c13dd87566d3602e731,671932ce864a16d42d3af8ca,,,,,,,,,,,,,,,,,,,,,,,,,,,,,,,,30,,,,,,,,,,,,,2,5,,,310.183,3,right,0.588,310.799,1,0.3,"[1,2,3]",0.645223616,stimuli/card_0_transparent.png,0,3,0,3,0,1,,,,,,,,,,
,,,,669ef51d969be2073275aec3,C,2024-10-23_12h31.57.113,Slot Machine Game,2023.1.3,Win32,60.0240096,669ef51d969be2073275aec3,67167c13dd87566d3602e731,671932ce864a16d42d3af8ca,,,,,,,,,,,,,,,,,,,,,,,,,,,,,,,,40,,,,,,,,,,,,,2,5,,,312.099,4,up,0.634,312.75,1.5,0.3,"[1,2,3]",0.264226,stimuli/card_10_transparent.png,10,4,0,4,0,1,,,,,,,,,,
,,,,669ef51d969be2073275aec3,C,2024-10-23_12h31.57.113,Slot Machine Game,2023.1.3,Win32,60.0240096,669ef51d969be2073275aec3,67167c13dd87566d3602e731,671932ce864a16d42d3af8ca,,,,,,,,,,,,,,,,,,,,,,,,,,,,,,,,140,,,,,,,,,,,,,2,5,,,314.549,5,up,0.804,315.366,1,0.3,"[3,1,2]",0.716201905,stimuli/card_100_transparent.png,100,5,0,5,0,1,,,,,,,,,,
,,,,669ef51d969be2073275aec3,C,2024-10-23_12h31.57.113,Slot Machine Game,2023.1.3,Win32,60.0240096,669ef51d969be2073275aec3,67167c13dd87566d3602e731,671932ce864a16d42d3af8ca,,,,,,,,,,,,,,,,,,,,,,,,,,,,,,,,150,,,,,,,,,,,,,2,5,,,316.666,6,up,0.566,317.25,1.5,0.3,"[3,1,2]",0.107363815,stimuli/card_10_transparent.png,10,6,0,6,0,1,,,,,,,,,,
,,,,669ef51d969be2073275aec3,C,2024-10-23_12h31.57.113,Slot Machine Game,2023.1.3,Win32,60.0240096,669ef51d969be2073275aec3,67167c13dd87566d3602e731,671932ce864a16d42d3af8ca,,,,,,,,,,,,,,,,,,,,,,,,,,,,,,,,160,,,,,,,,,,,,,2,5,,,319.049,7,up,0.768,319.833,0.5,0.3,"[3,1,2]",0.146994223,stimuli/card_10_transparent.png,10,7,0,7,0,1,,,,,,,,,,
,,,,669ef51d969be2073275aec3,C,2024-10-23_12h31.57.113,Slot Machine Game,2023.1.3,Win32,60.0240096,669ef51d969be2073275aec3,67167c13dd87566d3602e731,671932ce864a16d42d3af8ca,,,,,,,,,,,,,,,,,,,,,,,,,,,,,,,,260,,,,,,,,,,,,,2,5,,,320.633,8,up,0.576,321.216,1,0.3,"[3,1,2]",0.519906568,stimuli/card_100_transparent.png,100,8,0,8,0,1,,,,,,,,,,
,,,,669ef51d969be2073275aec3,C,2024-10-23_12h31.57.113,Slot Machine Game,2023.1.3,Win32,60.0240096,669ef51d969be2073275aec3,67167c13dd87566d3602e731,671932ce864a16d42d3af8ca,,,,,,,,,,,,,,,,,,,,,,,,,,,,,,,,360,,,,,,,,,,,,,2,5,,,322.516,9,up,0.589,323.116,1,0.3,"[3,1,2]",0.552277567,stimuli/card_100_transparent.png,100,9,0,9,0,1,,,,,,,,,,
,,,,669ef51d969be2073275aec3,C,2024-10-23_12h31.57.113,Slot Machine Game,2023.1.3,Win32,60.0240096,669ef51d969be2073275aec3,67167c13dd87566d3602e731,671932ce864a16d42d3af8ca,,,,,,,,,,,,,,,,,,,,,,,,,,,,,,,,460,,,,,,,,,,,,,2,5,,,324.416,10,up,0.501,324.933,1.5,0.3,"[3,1,2]",0.406343647,stimuli/card_100_transparent.png,100,10,0,10,0,1,,,,,,,,,,
,,,,669ef51d969be2073275aec3,C,2024-10-23_12h31.57.113,Slot Machine Game,2023.1.3,Win32,60.0240096,669ef51d969be2073275aec3,67167c13dd87566d3602e731,671932ce864a16d42d3af8ca,,,,,,,,,,,,,,,,,,,,,,,,,,,,,,,,460,,,,,,,,,,,,,2,5,,,326.733,11,up,0.522,327.266,0.5,0.3,"[3,1,2]",0.065022261,stimuli/card_0_transparent.png,0,11,0,11,0,1,,,,,,,,,,
,,,,669ef51d969be2073275aec3,C,2024-10-23_12h31.57.113,Slot Machine Game,2023.1.3,Win32,60.0240096,669ef51d969be2073275aec3,67167c13dd87566d3602e731,671932ce864a16d42d3af8ca,,,,,,,,,,,,,,,,,,,,,,,,,,,,,,,,560,,,,,,,,,,,,,2,5,,,328.066,12,up,0.622,328.699,1.5,0.3,"[3,1,2]",0.651848583,stimuli/card_100_transparent.png,100,12,0,12,0,1,,,,,,,,,,
,,,,669ef51d969be2073275aec3,C,2024-10-23_12h31.57.113,Slot Machine Game,2023.1.3,Win32,60.0240096,669ef51d969be2073275aec3,67167c13dd87566d3602e731,671932ce864a16d42d3af8ca,,,,,,,,,,,,,,,,,,,,,,,,,,,,,,,,660,,,,,,,,,,,,,2,5,,,330.499,13,up,0.668,331.183,1.5,0.3,"[3,1,2]",0.340131161,stimuli/card_100_transparent.png,100,13,0,13,0,1,,,,,,,,,,
,,,,669ef51d969be2073275aec3,C,2024-10-23_12h31.57.113,Slot Machine Game,2023.1.3,Win32,60.0240096,669ef51d969be2073275aec3,67167c13dd87566d3602e731,671932ce864a16d42d3af8ca,,,,,,,,,,,,,,,,,,,,,,,,,,,,,,,,760,,,,,,,,,,,,,2,5,,,332.982,14,up,0.517,333.516,0.5,0.3,"[3,1,2]",0.788142503,stimuli/card_100_transparent.png,100,14,0,14,0,1,,,,,,,,,,
,,,,669ef51d969be2073275aec3,C,2024-10-23_12h31.57.113,Slot Machine Game,2023.1.3,Win32,60.0240096,669ef51d969be2073275aec3,67167c13dd87566d3602e731,671932ce864a16d42d3af8ca,,,,,,,,,,,,,,,,,,,,,,,,,,,,,,,,,,334.316,,,,,,,,,,,,,,,,,,,,,,,,,,,,,,,"[670,760]",1,0,1,0,1,,,,
,,,,669ef51d969be2073275aec3,C,2024-10-23_12h31.57.113,Slot Machine Game,2023.1.3,Win32,60.0240096,669ef51d969be2073275aec3,67167c13dd87566d3602e731,671932ce864a16d42d3af8ca,,,,,,,,,,,,,,,,,,,,,,,,,,,,,,,,10,,,,,,,,,,,,,3,8,"[11,15]","[[2,1,3],[1,2,3]]",339.318,0,left,0.859,340.199,1.5,0.3,"[2,1,3]",0.672488461,stimuli/card_10_transparent.png,10,0,0,0,0,1,,,,,,,,,,
,,,,669ef51d969be2073275aec3,C,2024-10-23_12h31.57.113,Slot Machine Game,2023.1.3,Win32,60.0240096,669ef51d969be2073275aec3,67167c13dd87566d3602e731,671932ce864a16d42d3af8ca,,,,,,,,,,,,,,,,,,,,,,,,,,,,,,,,110,,,,,,,,,,,,,3,8,,,342,1,left,0.718,342.749,1,0.3,"[2,1,3]",0.11203245,stimuli/card_100_transparent.png,100,1,0,1,0,1,,,,,,,,,,
,,,,669ef51d969be2073275aec3,C,2024-10-23_12h31.57.113,Slot Machine Game,2023.1.3,Win32,60.0240096,669ef51d969be2073275aec3,67167c13dd87566d3602e731,671932ce864a16d42d3af8ca,,,,,,,,,,,,,,,,,,,,,,,,,,,,,,,,120,,,,,,,,,,,,,3,8,,,344.05,2,left,0.717,344.799,1.5,0.3,"[2,1,3]",0.742476635,stimuli/card_10_transparent.png,10,2,0,2,0,1,,,,,,,,,,
,,,,669ef51d969be2073275aec3,C,2024-10-23_12h31.57.113,Slot Machine Game,2023.1.3,Win32,60.0240096,669ef51d969be2073275aec3,67167c13dd87566d3602e731,671932ce864a16d42d3af8ca,,,,,,,,,,,,,,,,,,,,,,,,,,,,,,,,130,,,,,,,,,,,,,3,8,,,346.599,3,left,0.584,347.199,1.5,0.3,"[2,1,3]",0.493583209,stimuli/card_10_transparent.png,10,3,0,3,0,1,,,,,,,,,,
,,,,669ef51d969be2073275aec3,C,2024-10-23_12h31.57.113,Slot Machine Game,2023.1.3,Win32,60.0240096,669ef51d969be2073275aec3,67167c13dd87566d3602e731,671932ce864a16d42d3af8ca,,,,,,,,,,,,,,,,,,,,,,,,,,,,,,,,140,,,,,,,,,,,,,3,8,,,349,4,left,0.809,349.816,0.5,0.3,"[2,1,3]",0.621541881,stimuli/card_10_transparent.png,10,4,0,4,0,1,,,,,,,,,,
,,,,669ef51d969be2073275aec3,C,2024-10-23_12h31.57.113,Slot Machine Game,2023.1.3,Win32,60.0240096,669ef51d969be2073275aec3,67167c13dd87566d3602e731,671932ce864a16d42d3af8ca,,,,,,,,,,,,,,,,,,,,,,,,,,,,,,,,140,,,,,,,,,,,,,3,8,,,350.616,5,right,0.619,351.266,1.5,0.3,"[2,1,3]",0.819052418,stimuli/card_0_transparent.png,0,5,0,5,0,1,,,,,,,,,,
,,,,669ef51d969be2073275aec3,C,2024-10-23_12h31.57.113,Slot Machine Game,2023.1.3,Win32,60.0240096,669ef51d969be2073275aec3,67167c13dd87566d3602e731,671932ce864a16d42d3af8ca,,,,,,,,,,,,,,,,,,,,,,,,,,,,,,,,140,,,,,,,,,,,,,3,8,,,353.066,6,right,0.651,353.733,1,0.3,"[2,1,3]",0.423334827,stimuli/card_0_transparent.png,0,6,0,6,0,1,,,,,,,,,,
,,,,669ef51d969be2073275aec3,C,2024-10-23_12h31.57.113,Slot Machine Game,2023.1.3,Win32,60.0240096,669ef51d969be2073275aec3,67167c13dd87566d3602e731,671932ce864a16d42d3af8ca,,,,,,,,,,,,,,,,,,,,,,,,,,,,,,,,140,,,,,,,,,,,,,3,8,,,355.033,7,right,0.6,355.65,0.5,0.3,"[2,1,3]",0.439657152,stimuli/card_0_transparent.png,0,7,0,7,0,1,,,,,,,,,,
,,,,669ef51d969be2073275aec3,C,2024-10-23_12h31.57.113,Slot Machine Game,2023.1.3,Win32,60.0240096,669ef51d969be2073275aec3,67167c13dd87566d3602e731,671932ce864a16d42d3af8ca,,,,,,,,,,,,,,,,,,,,,,,,,,,,,,,,150,,,,,,,,,,,,,3,8,,,356.449,8,up,0.692,357.149,0.5,0.3,"[2,1,3]",0.183199025,stimuli/card_10_transparent.png,10,8,0,8,0,1,,,,,,,,,,
,,,,669ef51d969be2073275aec3,C,2024-10-23_12h31.57.113,Slot Machine Game,2023.1.3,Win32,60.0240096,669ef51d969be2073275aec3,67167c13dd87566d3602e731,671932ce864a16d42d3af8ca,,,,,,,,,,,,,,,,,,,,,,,,,,,,,,,,250,,,,,,,,,,,,,3,8,,,357.949,9,up,0.591,358.549,1.5,0.3,"[2,1,3]",0.810684809,stimuli/card_100_transparent.png,100,9,0,9,0,1,,,,,,,,,,
,,,,669ef51d969be2073275aec3,C,2024-10-23_12h31.57.113,Slot Machine Game,2023.1.3,Win32,60.0240096,669ef51d969be2073275aec3,67167c13dd87566d3602e731,671932ce864a16d42d3af8ca,,,,,,,,,,,,,,,,,,,,,,,,,,,,,,,,260,,,,,,,,,,,,,3,8,,,360.349,10,up,0.567,360.932,0.5,0.3,"[2,1,3]",0.103195812,stimuli/card_10_transparent.png,10,10,0,10,0,1,,,,,,,,,,
,,,,669ef51d969be2073275aec3,C,2024-10-23_12h31.57.113,Slot Machine Game,2023.1.3,Win32,60.0240096,669ef51d969be2073275aec3,67167c13dd87566d3602e731,671932ce864a16d42d3af8ca,,,,,,,,,,,,,,,,,,,,,,,,,,,,,,,,270,,,,,,,,,,,,,3,8,,,361.732,11,up,0.554,362.299,1.5,0.3,"[1,2,3]",0.861705407,stimuli/card_10_transparent.png,10,11,0,11,0,1,,,,,,,,,,
,,,,669ef51d969be2073275aec3,C,2024-10-23_12h31.57.113,Slot Machine Game,2023.1.3,Win32,60.0240096,669ef51d969be2073275aec3,67167c13dd87566d3602e731,671932ce864a16d42d3af8ca,,,,,,,,,,,,,,,,,,,,,,,,,,,,,,,,370,,,,,,,,,,,,,3,8,,,364.099,12,up,0.673,364.782,1,0.3,"[1,2,3]",0.133571929,stimuli/card_100_transparent.png,100,12,0,12,0,1,,,,,,,,,,
,,,,669ef51d969be2073275aec3,C,2024-10-23_12h31.57.113,Slot Machine Game,2023.1.3,Win32,60.0240096,669ef51d969be2073275aec3,67167c13dd87566d3602e731,671932ce864a16d42d3af8ca,,,,,,,,,,,,,,,,,,,,,,,,,,,,,,,,470,,,,,,,,,,,,,3,8,,,366.083,13,up,0.633,366.749,1,0.3,"[1,2,3]",0.130928743,stimuli/card_100_transparent.png,100,13,0,13,0,1,,,,,,,,,,
,,,,669ef51d969be2073275aec3,C,2024-10-23_12h31.57.113,Slot Machine Game,2023.1.3,Win32,60.0240096,669ef51d969be2073275aec3,67167c13dd87566d3602e731,671932ce864a16d42d3af8ca,,,,,,,,,,,,,,,,,,,,,,,,,,,,,,,,480,,,,,,,,,,,,,3,8,,,368.049,14,up,2.282,370.365,0.5,0.3,"[1,2,3]",0.359338228,stimuli/card_10_transparent.png,10,14,0,14,0,1,,,,,,,,,,
,,,,669ef51d969be2073275aec3,C,2024-10-23_12h31.57.113,Slot Machine Game,2023.1.3,Win32,60.0240096,669ef51d969be2073275aec3,67167c13dd87566d3602e731,671932ce864a16d42d3af8ca,,,,,,,,,,,,,,,,,,,,,,,,,,,,,,,,,,371.165,,,,,,,,,,,,,,,,,,,,,,,,,,,,,,,"[670,760,480]",2,0,2,0,1,,,,
,,,,669ef51d969be2073275aec3,C,2024-10-23_12h31.57.113,Slot Machine Game,2023.1.3,Win32,60.0240096,669ef51d969be2073275aec3,67167c13dd87566d3602e731,671932ce864a16d42d3af8ca,,,,,,,,,,,,,,,,,,,,,,,,,,,,,,,,10,,,,,,,,,,,,,4,1,"[12,15]","[[2,1,3],[2,3,1]]",376.167,0,left,0.575,376.765,1,0.3,"[2,1,3]",0.478732818,stimuli/card_10_transparent.png,10,0,0,0,0,1,,,,,,,,,,
,,,,669ef51d969be2073275aec3,C,2024-10-23_12h31.57.113,Slot Machine Game,2023.1.3,Win32,60.0240096,669ef51d969be2073275aec3,67167c13dd87566d3602e731,671932ce864a16d42d3af8ca,,,,,,,,,,,,,,,,,,,,,,,,,,,,,,,,20,,,,,,,,,,,,,4,1,,,378.065,1,left,0.887,378.966,1,0.3,"[2,1,3]",0.933988059,stimuli/card_10_transparent.png,10,1,0,1,0,1,,,,,,,,,,
,,,,669ef51d969be2073275aec3,C,2024-10-23_12h31.57.113,Slot Machine Game,2023.1.3,Win32,60.0240096,669ef51d969be2073275aec3,67167c13dd87566d3602e731,671932ce864a16d42d3af8ca,,,,,,,,,,,,,,,,,,,,,,,,,,,,,,,,30,,,,,,,,,,,,,4,1,,,380.266,2,left,0.801,381.082,1.5,0.3,"[2,1,3]",0.693679257,stimuli/card_10_transparent.png,10,2,0,2,0,1,,,,,,,,,,
,,,,669ef51d969be2073275aec3,C,2024-10-23_12h31.57.113,Slot Machine Game,2023.1.3,Win32,60.0240096,669ef51d969be2073275aec3,67167c13dd87566d3602e731,671932ce864a16d42d3af8ca,,,,,,,,,,,,,,,,,,,,,,,,,,,,,,,,30,,,,,,,,,,,,,4,1,,,382.882,3,up,0.639,383.532,0.5,0.3,"[2,1,3]",0.085632908,stimuli/card_0_transparent.png,0,3,0,3,0,1,,,,,,,,,,
,,,,669ef51d969be2073275aec3,C,2024-10-23_12h31.57.113,Slot Machine Game,2023.1.3,Win32,60.0240096,669ef51d969be2073275aec3,67167c13dd87566d3602e731,671932ce864a16d42d3af8ca,,,,,,,,,,,,,,,,,,,,,,,,,,,,,,,,30,,,,,,,,,,,,,4,1,,,384.332,4,up,0.573,384.916,1.5,0.3,"[2,1,3]",0.016800022,stimuli/card_0_transparent.png,0,4,0,4,0,1,,,,,,,,,,
,,,,669ef51d969be2073275aec3,C,2024-10-23_12h31.57.113,Slot Machine Game,2023.1.3,Win32,60.0240096,669ef51d969be2073275aec3,67167c13dd87566d3602e731,671932ce864a16d42d3af8ca,,,,,,,,,,,,,,,,,,,,,,,,,,,,,,,,30,,,,,,,,,,,,,4,1,,,386.715,5,right,0.627,387.349,1,0.3,"[2,1,3]",0.634012051,stimuli/card_0_transparent.png,0,5,0,5,0,1,,,,,,,,,,
,,,,669ef51d969be2073275aec3,C,2024-10-23_12h31.57.113,Slot Machine Game,2023.1.3,Win32,60.0240096,669ef51d969be2073275aec3,67167c13dd87566d3602e731,671932ce864a16d42d3af8ca,,,,,,,,,,,,,,,,,,,,,,,,,,,,,,,,30,,,,,,,,,,,,,4,1,,,388.649,6,right,0.689,389.349,1.5,0.3,"[2,1,3]",0.709725669,stimuli/card_0_transparent.png,0,6,0,6,0,1,,,,,,,,,,
,,,,669ef51d969be2073275aec3,C,2024-10-23_12h31.57.113,Slot Machine Game,2023.1.3,Win32,60.0240096,669ef51d969be2073275aec3,67167c13dd87566d3602e731,671932ce864a16d42d3af8ca,,,,,,,,,,,,,,,,,,,,,,,,,,,,,,,,40,,,,,,,,,,,,,4,1,,,391.148,7,right,0.567,391.732,1.5,0.3,"[2,1,3]",0.179326352,stimuli/card_10_transparent.png,10,7,0,7,0,1,,,,,,,,,,
,,,,669ef51d969be2073275aec3,C,2024-10-23_12h31.57.113,Slot Machine Game,2023.1.3,Win32,60.0240096,669ef51d969be2073275aec3,67167c13dd87566d3602e731,671932ce864a16d42d3af8ca,,,,,,,,,,,,,,,,,,,,,,,,,,,,,,,,140,,,,,,,,,,,,,4,1,,,393.532,8,up,0.568,394.116,0.5,0.3,"[2,1,3]",0.569768855,stimuli/card_100_transparent.png,100,8,0,8,0,1,,,,,,,,,,
,,,,669ef51d969be2073275aec3,C,2024-10-23_12h31.57.113,Slot Machine Game,2023.1.3,Win32,60.0240096,669ef51d969be2073275aec3,67167c13dd87566d3602e731,671932ce864a16d42d3af8ca,,,,,,,,,,,,,,,,,,,,,,,,,,,,,,,,240,,,,,,,,,,,,,4,1,,,394.916,9,up,0.604,395.532,1.5,0.3,"[2,1,3]",0.610707282,stimuli/card_100_transparent.png,100,9,0,9,0,1,,,,,,,,,,
,,,,669ef51d969be2073275aec3,C,2024-10-23_12h31.57.113,Slot Machine Game,2023.1.3,Win32,60.0240096,669ef51d969be2073275aec3,67167c13dd87566d3602e731,671932ce864a16d42d3af8ca,,,,,,,,,,,,,,,,,,,,,,,,,,,,,,,,340,,,,,,,,,,,,,4,1,,,397.332,10,up,0.783,398.132,0.5,0.3,"[2,1,3]",0.682224689,stimuli/card_100_transparent.png,100,10,0,10,0,1,,,,,,,,,,
,,,,669ef51d969be2073275aec3,C,2024-10-23_12h31.57.113,Slot Machine Game,2023.1.3,Win32,60.0240096,669ef51d969be2073275aec3,67167c13dd87566d3602e731,671932ce864a16d42d3af8ca,,,,,,,,,,,,,,,,,,,,,,,,,,,,,,,,440,,,,,,,,,,,,,4,1,,,398.932,11,up,0.567,399.515,1,0.3,"[2,1,3]",0.351828108,stimuli/card_100_transparent.png,100,11,0,11,0,1,,,,,,,,,,
,,,,669ef51d969be2073275aec3,C,2024-10-23_12h31.57.113,Slot Machine Game,2023.1.3,Win32,60.0240096,669ef51d969be2073275aec3,67167c13dd87566d3602e731,671932ce864a16d42d3af8ca,,,,,,,,,,,,,,,,,,,,,,,,,,,,,,,,440,,,,,,,,,,,,,4,1,,,400.815,12,up,0.817,401.649,0.5,0.3,"[2,3,1]",0.533014779,stimuli/card_0_transparent.png,0,12,0,12,0,1,,,,,,,,,,
,,,,669ef51d969be2073275aec3,C,2024-10-23_12h31.57.113,Slot Machine Game,2023.1.3,Win32,60.0240096,669ef51d969be2073275aec3,67167c13dd87566d3602e731,671932ce864a16d42d3af8ca,,,,,,,,,,,,,,,,,,,,,,,,,,,,,,,,440,,,,,,,,,,,,,4,1,,,402.449,13,up,0.667,403.132,0.5,0.3,"[2,3,1]",0.466747504,stimuli/card_0_transparent.png,0,13,0,13,0,1,,,,,,,,,,
,,,,669ef51d969be2073275aec3,C,2024-10-23_12h31.57.113,Slot Machine Game,2023.1.3,Win32,60.0240096,669ef51d969be2073275aec3,67167c13dd87566d3602e731,671932ce864a16d42d3af8ca,,,,,,,,,,,,,,,,,,,,,,,,,,,,,,,,440,,,,,,,,,,,,,4,1,,,403.932,14,up,0.553,404.498,1.5,0.3,"[2,3,1]",0.552474006,stimuli/card_0_transparent.png,0,14,0,14,0,1,,,,,,,,,,
,,,,669ef51d969be2073275aec3,C,2024-10-23_12h31.57.113,Slot Machine Game,2023.1.3,Win32,60.0240096,669ef51d969be2073275aec3,67167c13dd87566d3602e731,671932ce864a16d42d3af8ca,,,,,,,,,,,,,,,,,,,,,,,,,,,,,,,,,,406.298,,,,,,,,,,,,,,,,,,,,,,,,,,,,,,,"[670,760,480,440]",3,0,3,0,1,,,,
,,,,669ef51d969be2073275aec3,C,2024-10-23_12h31.57.113,Slot Machine Game,2023.1.3,Win32,60.0240096,669ef51d969be2073275aec3,67167c13dd87566d3602e731,671932ce864a16d42d3af8ca,,,,,,,,,,,,,,,,,,,,,,,,,,,,,,,,100,,,,,,,,,,,,,5,2,"[6,15]","[[1,3,2],[3,2,1]]",411.3,0,left,0.877,412.199,0.5,0.3,"[1,3,2]",0.616010251,stimuli/card_100_transparent.png,100,0,0,0,0,1,,,,,,,,,,
,,,,669ef51d969be2073275aec3,C,2024-10-23_12h31.57.113,Slot Machine Game,2023.1.3,Win32,60.0240096,669ef51d969be2073275aec3,67167c13dd87566d3602e731,671932ce864a16d42d3af8ca,,,,,,,,,,,,,,,,,,,,,,,,,,,,,,,,100,,,,,,,,,,,,,5,2,,,412.999,1,left,0.857,413.866,0.5,0.3,"[1,3,2]",0.039161749,stimuli/card_0_transparent.png,0,1,0,1,0,1,,,,,,,,,,
,,,,669ef51d969be2073275aec3,C,2024-10-23_12h31.57.113,Slot Machine Game,2023.1.3,Win32,60.0240096,669ef51d969be2073275aec3,67167c13dd87566d3602e731,671932ce864a16d42d3af8ca,,,,,,,,,,,,,,,,,,,,,,,,,,,,,,,,200,,,,,,,,,,,,,5,2,,,414.665,2,left,0.734,415.415,0.5,0.3,"[1,3,2]",0.691527519,stimuli/card_100_transparent.png,100,2,0,2,0,1,,,,,,,,,,
,,,,669ef51d969be2073275aec3,C,2024-10-23_12h31.57.113,Slot Machine Game,2023.1.3,Win32,60.0240096,669ef51d969be2073275aec3,67167c13dd87566d3602e731,671932ce864a16d42d3af8ca,,,,,,,,,,,,,,,,,,,,,,,,,,,,,,,,300,,,,,,,,,,,,,5,2,,,416.215,3,left,0.634,416.865,0.5,0.3,"[1,3,2]",0.729322527,stimuli/card_100_transparent.png,100,3,0,3,0,1,,,,,,,,,,
,,,,669ef51d969be2073275aec3,C,2024-10-23_12h31.57.113,Slot Machine Game,2023.1.3,Win32,60.0240096,669ef51d969be2073275aec3,67167c13dd87566d3602e731,671932ce864a16d42d3af8ca,,,,,,,,,,,,,,,,,,,,,,,,,,,,,,,,400,,,,,,,,,,,,,5,2,,,417.666,4,left,0.549,418.248,1.5,0.3,"[1,3,2]",0.67653437,stimuli/card_100_transparent.png,100,4,0,4,0,1,,,,,,,,,,
,,,,669ef51d969be2073275aec3,C,2024-10-23_12h31.57.113,Slot Machine Game,2023.1.3,Win32,60.0240096,669ef51d969be2073275aec3,67167c13dd87566d3602e731,671932ce864a16d42d3af8ca,,,,,,,,,,,,,,,,,,,,,,,,,,,,,,,,500,,,,,,,,,,,,,5,2,,,420.048,5,left,0.5,420.565,0.5,0.3,"[1,3,2]",0.271181152,stimuli/card_100_transparent.png,100,5,0,5,0,1,,,,,,,,,,
,,,,669ef51d969be2073275aec3,C,2024-10-23_12h31.57.113,Slot Machine Game,2023.1.3,Win32,60.0240096,669ef51d969be2073275aec3,67167c13dd87566d3602e731,671932ce864a16d42d3af8ca,,,,,,,,,,,,,,,,,,,,,,,,,,,,,,,,500,,,,,,,,,,,,,5,2,,,421.365,6,left,1.037,422.415,1,0.3,"[3,2,1]",0.727271891,stimuli/card_0_transparent.png,0,6,0,6,0,1,,,,,,,,,,
,,,,669ef51d969be2073275aec3,C,2024-10-23_12h31.57.113,Slot Machine Game,2023.1.3,Win32,60.0240096,669ef51d969be2073275aec3,67167c13dd87566d3602e731,671932ce864a16d42d3af8ca,,,,,,,,,,,,,,,,,,,,,,,,,,,,,,,,500,,,,,,,,,,,,,5,2,,,423.715,7,left,0.591,424.315,0.5,0.3,"[3,2,1]",0.633095135,stimuli/card_0_transparent.png,0,7,0,7,0,1,,,,,,,,,,
,,,,669ef51d969be2073275aec3,C,2024-10-23_12h31.57.113,Slot Machine Game,2023.1.3,Win32,60.0240096,669ef51d969be2073275aec3,67167c13dd87566d3602e731,671932ce864a16d42d3af8ca,,,,,,,,,,,,,,,,,,,,,,,,,,,,,,,,500,,,,,,,,,,,,,5,2,,,425.115,8,left,0.585,425.715,1,0.3,"[3,2,1]",0.432591722,stimuli/card_0_transparent.png,0,8,0,8,0,1,,,,,,,,,,
,,,,669ef51d969be2073275aec3,C,2024-10-23_12h31.57.113,Slot Machine Game,2023.1.3,Win32,60.0240096,669ef51d969be2073275aec3,67167c13dd87566d3602e731,671932ce864a16d42d3af8ca,,,,,,,,,,,,,,,,,,,,,,,,,,,,,,,,510,,,,,,,,,,,,,5,2,,,427.016,9,up,0.501,427.549,1,0.3,"[3,2,1]",0.387754335,stimuli/card_10_transparent.png,10,9,0,9,0,1,,,,,,,,,,
,,,,669ef51d969be2073275aec3,C,2024-10-23_12h31.57.113,Slot Machine Game,2023.1.3,Win32,60.0240096,669ef51d969be2073275aec3,67167c13dd87566d3602e731,671932ce864a16d42d3af8ca,,,,,,,,,,,,,,,,,,,,,,,,,,,,,,,,520,,,,,,,,,,,,,5,2,,,428.849,10,up,0.506,429.382,1.5,0.3,"[3,2,1]",0.632094933,stimuli/card_10_transparent.png,10,10,0,10,0,1,,,,,,,,,,
,,,,669ef51d969be2073275aec3,C,2024-10-23_12h31.57.113,Slot Machine Game,2023.1.3,Win32,60.0240096,669ef51d969be2073275aec3,67167c13dd87566d3602e731,671932ce864a16d42d3af8ca,,,,,,,,,,,,,,,,,,,,,,,,,,,,,,,,620,,,,,,,,,,,,,5,2,,,431.182,11,right,0.585,431.781,1.5,0.3,"[3,2,1]",0.649163616,stimuli/card_100_transparent.png,100,11,0,11,0,1,,,,,,,,,,
,,,,669ef51d969be2073275aec3,C,2024-10-23_12h31.57.113,Slot Machine Game,2023.1.3,Win32,60.0240096,669ef51d969be2073275aec3,67167c13dd87566d3602e731,671932ce864a16d42d3af8ca,,,,,,,,,,,,,,,,,,,,,,,,,,,,,,,,720,,,,,,,,,,,,,5,2,,,433.582,12,right,0.64,434.232,1,0.3,"[3,2,1]",0.821128593,stimuli/card_100_transparent.png,100,12,0,12,0,1,,,,,,,,,,
,,,,669ef51d969be2073275aec3,C,2024-10-23_12h31.57.113,Slot Machine Game,2023.1.3,Win32,60.0240096,669ef51d969be2073275aec3,67167c13dd87566d3602e731,671932ce864a16d42d3af8ca,,,,,,,,,,,,,,,,,,,,,,,,,,,,,,,,820,,,,,,,,,,,,,5,2,,,435.532,13,right,0.535,436.099,1.5,0.3,"[3,2,1]",0.583531528,stimuli/card_100_transparent.png,100,13,0,13,0,1,,,,,,,,,,
,,,,669ef51d969be2073275aec3,C,2024-10-23_12h31.57.113,Slot Machine Game,2023.1.3,Win32,60.0240096,669ef51d969be2073275aec3,67167c13dd87566d3602e731,671932ce864a16d42d3af8ca,,,,,,,,,,,,,,,,,,,,,,,,,,,,,,,,920,,,,,,,,,,,,,5,2,,,437.898,14,right,0.884,438.798,1,0.3,"[3,2,1]",0.810635716,stimuli/card_100_transparent.png,100,14,0,14,0,1,,,,,,,,,,
,,,,669ef51d969be2073275aec3,C,2024-10-23_12h31.57.113,Slot Machine Game,2023.1.3,Win32,60.0240096,669ef51d969be2073275aec3,67167c13dd87566d3602e731,671932ce864a16d42d3af8ca,,,,,,,,,,,,,,,,,,,,,,,,,,,,,,,,,,440.098,,,,,,,,,,,,,,,,,,,,,,,,,,,,,,,"[670,760,480,440,920]",4,0,4,0,1,,,,
,,,,669ef51d969be2073275aec3,C,2024-10-23_12h31.57.113,Slot Machine Game,2023.1.3,Win32,60.0240096,669ef51d969be2073275aec3,67167c13dd87566d3602e731,671932ce864a16d42d3af8ca,,,,,,,,,,,,,,,,,,,,,,,,,,,,,,,,10,,,,,,,,,,,,,6,4,"[7,15]","[[2,3,1],[1,2,3]]",445.1,0,right,1.092,446.215,1.5,0.3,"[2,3,1]",0.146205046,stimuli/card_10_transparent.png,10,0,0,0,0,1,,,,,,,,,,
,,,,669ef51d969be2073275aec3,C,2024-10-23_12h31.57.113,Slot Machine Game,2023.1.3,Win32,60.0240096,669ef51d969be2073275aec3,67167c13dd87566d3602e731,671932ce864a16d42d3af8ca,,,,,,,,,,,,,,,,,,,,,,,,,,,,,,,,110,,,,,,,,,,,,,6,4,,,448.015,1,right,0.736,448.765,0.5,0.3,"[2,3,1]",0.206525242,stimuli/card_100_transparent.png,100,1,0,1,0,1,,,,,,,,,,
,,,,669ef51d969be2073275aec3,C,2024-10-23_12h31.57.113,Slot Machine Game,2023.1.3,Win32,60.0240096,669ef51d969be2073275aec3,67167c13dd87566d3602e731,671932ce864a16d42d3af8ca,,,,,,,,,,,,,,,,,,,,,,,,,,,,,,,,210,,,,,,,,,,,,,6,4,,,449.566,2,right,0.703,450.298,0.5,0.3,"[2,3,1]",0.43285464,stimuli/card_100_transparent.png,100,2,0,2,0,1,,,,,,,,,,
,,,,669ef51d969be2073275aec3,C,2024-10-23_12h31.57.113,Slot Machine Game,2023.1.3,Win32,60.0240096,669ef51d969be2073275aec3,67167c13dd87566d3602e731,671932ce864a16d42d3af8ca,,,,,,,,,,,,,,,,,,,,,,,,,,,,,,,,310,,,,,,,,,,,,,6,4,,,451.099,3,right,0.617,451.748,1,0.3,"[2,3,1]",0.282975575,stimuli/card_100_transparent.png,100,3,0,3,0,1,,,,,,,,,,
,,,,669ef51d969be2073275aec3,C,2024-10-23_12h31.57.113,Slot Machine Game,2023.1.3,Win32,60.0240096,669ef51d969be2073275aec3,67167c13dd87566d3602e731,671932ce864a16d42d3af8ca,,,,,,,,,,,,,,,,,,,,,,,,,,,,,,,,410,,,,,,,,,,,,,6,4,,,453.049,4,right,0.533,453.615,0.5,0.3,"[2,3,1]",0.994086667,stimuli/card_100_transparent.png,100,4,0,4,0,1,,,,,,,,,,
,,,,669ef51d969be2073275aec3,C,2024-10-23_12h31.57.113,Slot Machine Game,2023.1.3,Win32,60.0240096,669ef51d969be2073275aec3,67167c13dd87566d3602e731,671932ce864a16d42d3af8ca,,,,,,,,,,,,,,,,,,,,,,,,,,,,,,,,410,,,,,,,,,,,,,6,4,,,454.415,5,right,0.519,454.965,1,0.3,"[2,3,1]",0.035057127,stimuli/card_0_transparent.png,0,5,0,5,0,1,,,,,,,,,,
,,,,669ef51d969be2073275aec3,C,2024-10-23_12h31.57.113,Slot Machine Game,2023.1.3,Win32,60.0240096,669ef51d969be2073275aec3,67167c13dd87566d3602e731,671932ce864a16d42d3af8ca,,,,,,,,,,,,,,,,,,,,,,,,,,,,,,,,510,,,,,,,,,,,,,6,4,,,456.265,6,right,0.675,456.965,1.5,0.3,"[2,3,1]",0.284551574,stimuli/card_100_transparent.png,100,6,0,6,0,1,,,,,,,,,,
,,,,669ef51d969be2073275aec3,C,2024-10-23_12h31.57.113,Slot Machine Game,2023.1.3,Win32,60.0240096,669ef51d969be2073275aec3,67167c13dd87566d3602e731,671932ce864a16d42d3af8ca,,,,,,,,,,,,,,,,,,,,,,,,,,,,,,,,510,,,,,,,,,,,,,6,4,,,458.765,7,right,0.55,459.332,1.5,0.3,"[1,2,3]",0.816948395,stimuli/card_0_transparent.png,0,7,0,7,0,1,,,,,,,,,,
,,,,669ef51d969be2073275aec3,C,2024-10-23_12h31.57.113,Slot Machine Game,2023.1.3,Win32,60.0240096,669ef51d969be2073275aec3,67167c13dd87566d3602e731,671932ce864a16d42d3af8ca,,,,,,,,,,,,,,,,,,,,,,,,,,,,,,,,510,,,,,,,,,,,,,6,4,,,461.132,8,right,0.987,462.148,0.5,0.3,"[1,2,3]",0.300371163,stimuli/card_0_transparent.png,0,8,0,8,0,1,,,,,,,,,,
,,,,669ef51d969be2073275aec3,C,2024-10-23_12h31.57.113,Slot Machine Game,2023.1.3,Win32,60.0240096,669ef51d969be2073275aec3,67167c13dd87566d3602e731,671932ce864a16d42d3af8ca,,,,,,,,,,,,,,,,,,,,,,,,,,,,,,,,510,,,,,,,,,,,,,6,4,,,462.948,9,right,0.5,463.481,1,0.3,"[1,2,3]",0.244006747,stimuli/card_0_transparent.png,0,9,0,9,0,1,,,,,,,,,,
,,,,669ef51d969be2073275aec3,C,2024-10-23_12h31.57.113,Slot Machine Game,2023.1.3,Win32,60.0240096,669ef51d969be2073275aec3,67167c13dd87566d3602e731,671932ce864a16d42d3af8ca,,,,,,,,,,,,,,,,,,,,,,,,,,,,,,,,520,,,,,,,,,,,,,6,4,,,464.782,10,up,0.7,465.515,1.5,0.3,"[1,2,3]",0.540707478,stimuli/card_10_transparent.png,10,10,0,10,0,1,,,,,,,,,,
,,,,669ef51d969be2073275aec3,C,2024-10-23_12h31.57.113,Slot Machine Game,2023.1.3,Win32,60.0240096,669ef51d969be2073275aec3,67167c13dd87566d3602e731,671932ce864a16d42d3af8ca,,,,,,,,,,,,,,,,,,,,,,,,,,,,,,,,530,,,,,,,,,,,,,6,4,,,467.315,11,up,0.572,467.915,1.5,0.3,"[1,2,3]",0.318180359,stimuli/card_10_transparent.png,10,11,0,11,0,1,,,,,,,,,,
,,,,669ef51d969be2073275aec3,C,2024-10-23_12h31.57.113,Slot Machine Game,2023.1.3,Win32,60.0240096,669ef51d969be2073275aec3,67167c13dd87566d3602e731,671932ce864a16d42d3af8ca,,,,,,,,,,,,,,,,,,,,,,,,,,,,,,,,630,,,,,,,,,,,,,6,4,,,469.714,12,left,0.703,470.431,0.5,0.3,"[1,2,3]",0.591474167,stimuli/card_100_transparent.png,100,12,0,12,0,1,,,,,,,,,,
,,,,669ef51d969be2073275aec3,C,2024-10-23_12h31.57.113,Slot Machine Game,2023.1.3,Win32,60.0240096,669ef51d969be2073275aec3,67167c13dd87566d3602e731,671932ce864a16d42d3af8ca,,,,,,,,,,,,,,,,,,,,,,,,,,,,,,,,730,,,,,,,,,,,,,6,4,,,471.232,13,left,0.549,471.814,1.5,0.3,"[1,2,3]",0.249392903,stimuli/card_100_transparent.png,100,13,0,13,0,1,,,,,,,,,,
,,,,669ef51d969be2073275aec3,C,2024-10-23_12h31.57.113,Slot Machine Game,2023.1.3,Win32,60.0240096,669ef51d969be2073275aec3,67167c13dd87566d3602e731,671932ce864a16d42d3af8ca,,,,,,,,,,,,,,,,,,,,,,,,,,,,,,,,830,,,,,,,,,,,,,6,4,,,473.615,14,left,0.526,474.148,1.5,0.3,"[1,2,3]",0.455375017,stimuli/card_100_transparent.png,100,14,0,14,0,1,,,,,,,,,,
,,,,669ef51d969be2073275aec3,C,2024-10-23_12h31.57.113,Slot Machine Game,2023.1.3,Win32,60.0240096,669ef51d969be2073275aec3,67167c13dd87566d3602e731,671932ce864a16d42d3af8ca,,,,,,,,,,,,,,,,,,,,,,,,,,,,,,,,,,475.948,,,,,,,,,,,,,,,,,,,,,,,,,,,,,,,"[670,760,480,440,920,830]",5,0,5,0,1,,,,
,,,,669ef51d969be2073275aec3,C,2024-10-23_12h31.57.113,Slot Machine Game,2023.1.3,Win32,60.0240096,669ef51d969be2073275aec3,67167c13dd87566d3602e731,671932ce864a16d42d3af8ca,,,,,,,,,,,,,,,,,,,,,,,,,,,,,,,,100,,,,,,,,,,,,,7,10,"[10,15]","[[3,1,2],[1,3,2]]",480.95,0,left,0.793,481.764,0.5,0.3,"[3,1,2]",0.05631384,stimuli/card_100_transparent.png,100,0,0,0,0,1,,,,,,,,,,
,,,,669ef51d969be2073275aec3,C,2024-10-23_12h31.57.113,Slot Machine Game,2023.1.3,Win32,60.0240096,669ef51d969be2073275aec3,67167c13dd87566d3602e731,671932ce864a16d42d3af8ca,,,,,,,,,,,,,,,,,,,,,,,,,,,,,,,,200,,,,,,,,,,,,,7,10,,,482.564,1,left,0.827,483.398,1,0.3,"[3,1,2]",0.08350191,stimuli/card_100_transparent.png,100,1,0,1,0,1,,,,,,,,,,
,,,,669ef51d969be2073275aec3,C,2024-10-23_12h31.57.113,Slot Machine Game,2023.1.3,Win32,60.0240096,669ef51d969be2073275aec3,67167c13dd87566d3602e731,671932ce864a16d42d3af8ca,,,,,,,,,,,,,,,,,,,,,,,,,,,,,,,,200,,,,,,,,,,,,,7,10,,,484.698,2,left,0.527,485.232,0.5,0.3,"[3,1,2]",0.407654772,stimuli/card_0_transparent.png,0,2,0,2,0,1,,,,,,,,,,
,,,,669ef51d969be2073275aec3,C,2024-10-23_12h31.57.113,Slot Machine Game,2023.1.3,Win32,60.0240096,669ef51d969be2073275aec3,67167c13dd87566d3602e731,671932ce864a16d42d3af8ca,,,,,,,,,,,,,,,,,,,,,,,,,,,,,,,,200,,,,,,,,,,,,,7,10,,,486.032,3,left,0.655,486.715,1.5,0.3,"[3,1,2]",0.673158294,stimuli/card_0_transparent.png,0,3,0,3,0,1,,,,,,,,,,
,,,,669ef51d969be2073275aec3,C,2024-10-23_12h31.57.113,Slot Machine Game,2023.1.3,Win32,60.0240096,669ef51d969be2073275aec3,67167c13dd87566d3602e731,671932ce864a16d42d3af8ca,,,,,,,,,,,,,,,,,,,,,,,,,,,,,,,,200,,,,,,,,,,,,,7,10,,,488.514,4,left,0.577,489.115,1,0.3,"[3,1,2]",0.996891784,stimuli/card_0_transparent.png,0,4,0,4,0,1,,,,,,,,,,
,,,,669ef51d969be2073275aec3,C,2024-10-23_12h31.57.113,Slot Machine Game,2023.1.3,Win32,60.0240096,669ef51d969be2073275aec3,67167c13dd87566d3602e731,671932ce864a16d42d3af8ca,,,,,,,,,,,,,,,,,,,,,,,,,,,,,,,,300,,,,,,,,,,,,,7,10,,,490.414,5,up,0.621,491.048,1,0.3,"[3,1,2]",0.228534371,stimuli/card_100_transparent.png,100,5,0,5,0,1,,,,,,,,,,
,,,,669ef51d969be2073275aec3,C,2024-10-23_12h31.57.113,Slot Machine Game,2023.1.3,Win32,60.0240096,669ef51d969be2073275aec3,67167c13dd87566d3602e731,671932ce864a16d42d3af8ca,,,,,,,,,,,,,,,,,,,,,,,,,,,,,,,,400,,,,,,,,,,,,,7,10,,,492.348,6,up,0.522,492.881,1.5,0.3,"[3,1,2]",0.501430288,stimuli/card_100_transparent.png,100,6,0,6,0,1,,,,,,,,,,
,,,,669ef51d969be2073275aec3,C,2024-10-23_12h31.57.113,Slot Machine Game,2023.1.3,Win32,60.0240096,669ef51d969be2073275aec3,67167c13dd87566d3602e731,671932ce864a16d42d3af8ca,,,,,,,,,,,,,,,,,,,,,,,,,,,,,,,,500,,,,,,,,,,,,,7,10,,,494.681,7,up,0.533,495.231,1,0.3,"[3,1,2]",0.819126168,stimuli/card_100_transparent.png,100,7,0,7,0,1,,,,,,,,,,
,,,,669ef51d969be2073275aec3,C,2024-10-23_12h31.57.113,Slot Machine Game,2023.1.3,Win32,60.0240096,669ef51d969be2073275aec3,67167c13dd87566d3602e731,671932ce864a16d42d3af8ca,,,,,,,,,,,,,,,,,,,,,,,,,,,,,,,,600,,,,,,,,,,,,,7,10,,,496.531,8,up,0.856,497.398,1.5,0.3,"[3,1,2]",0.691017373,stimuli/card_100_transparent.png,100,8,0,8,0,1,,,,,,,,,,
,,,,669ef51d969be2073275aec3,C,2024-10-23_12h31.57.113,Slot Machine Game,2023.1.3,Win32,60.0240096,669ef51d969be2073275aec3,67167c13dd87566d3602e731,671932ce864a16d42d3af8ca,,,,,,,,,,,,,,,,,,,,,,,,,,,,,,,,700,,,,,,,,,,,,,7,10,,,499.197,9,up,0.62,499.831,1,0.3,"[3,1,2]",0.550111754,stimuli/card_100_transparent.png,100,9,0,9,0,1,,,,,,,,,,
,,,,669ef51d969be2073275aec3,C,2024-10-23_12h31.57.113,Slot Machine Game,2023.1.3,Win32,60.0240096,669ef51d969be2073275aec3,67167c13dd87566d3602e731,671932ce864a16d42d3af8ca,,,,,,,,,,,,,,,,,,,,,,,,,,,,,,,,700,,,,,,,,,,,,,7,10,,,501.131,10,up,0.518,501.665,0.5,0.3,"[1,3,2]",0.543223131,stimuli/card_0_transparent.png,0,10,0,10,0,1,,,,,,,,,,
,,,,669ef51d969be2073275aec3,C,2024-10-23_12h31.57.113,Slot Machine Game,2023.1.3,Win32,60.0240096,669ef51d969be2073275aec3,67167c13dd87566d3602e731,671932ce864a16d42d3af8ca,,,,,,,,,,,,,,,,,,,,,,,,,,,,,,,,710,,,,,,,,,,,,,7,10,,,502.464,11,up,0.589,503.064,1,0.3,"[1,3,2]",0.190043633,stimuli/card_10_transparent.png,10,11,0,11,0,1,,,,,,,,,,
,,,,669ef51d969be2073275aec3,C,2024-10-23_12h31.57.113,Slot Machine Game,2023.1.3,Win32,60.0240096,669ef51d969be2073275aec3,67167c13dd87566d3602e731,671932ce864a16d42d3af8ca,,,,,,,,,,,,,,,,,,,,,,,,,,,,,,,,710,,,,,,,,,,,,,7,10,,,504.364,12,up,0.666,505.048,1,0.3,"[1,3,2]",0.849871213,stimuli/card_0_transparent.png,0,12,0,12,0,1,,,,,,,,,,
,,,,669ef51d969be2073275aec3,C,2024-10-23_12h31.57.113,Slot Machine Game,2023.1.3,Win32,60.0240096,669ef51d969be2073275aec3,67167c13dd87566d3602e731,671932ce864a16d42d3af8ca,,,,,,,,,,,,,,,,,,,,,,,,,,,,,,,,720,,,,,,,,,,,,,7,10,,,506.348,13,right,0.522,506.898,1.5,0.3,"[1,3,2]",0.530959454,stimuli/card_10_transparent.png,10,13,0,13,0,1,,,,,,,,,,
,,,,669ef51d969be2073275aec3,C,2024-10-23_12h31.57.113,Slot Machine Game,2023.1.3,Win32,60.0240096,669ef51d969be2073275aec3,67167c13dd87566d3602e731,671932ce864a16d42d3af8ca,,,,,,,,,,,,,,,,,,,,,,,,,,,,,,,,730,,,,,,,,,,,,,7,10,,,508.697,14,right,0.751,509.465,0.5,0.3,"[1,3,2]",0.766575734,stimuli/card_10_transparent.png,10,14,0,14,0,1,,,,,,,,,,
,,,,669ef51d969be2073275aec3,C,2024-10-23_12h31.57.113,Slot Machine Game,2023.1.3,Win32,60.0240096,669ef51d969be2073275aec3,67167c13dd87566d3602e731,671932ce864a16d42d3af8ca,,,,,,,,,,,,,,,,,,,,,,,,,,,,,,,,,,510.264,,,,,,,,,,,,,,,,,,,,,,,,,,,,,,,"[670,760,480,440,920,830,730]",6,0,6,0,1,,,,
,,,,669ef51d969be2073275aec3,C,2024-10-23_12h31.57.113,Slot Machine Game,2023.1.3,Win32,60.0240096,669ef51d969be2073275aec3,67167c13dd87566d3602e731,671932ce864a16d42d3af8ca,,,,,,,,,,,,,,,,,,,,,,,,,,,,,,,,0,,,,,,,,,,,,,8,7,"[9,15]","[[1,3,2],[2,3,1]]",515.266,0,left,1.226,516.514,1.5,0.3,"[1,3,2]",0.025130699,stimuli/card_0_transparent.png,0,0,0,0,0,1,,,,,,,,,,
,,,,669ef51d969be2073275aec3,C,2024-10-23_12h31.57.113,Slot Machine Game,2023.1.3,Win32,60.0240096,669ef51d969be2073275aec3,67167c13dd87566d3602e731,671932ce864a16d42d3af8ca,,,,,,,,,,,,,,,,,,,,,,,,,,,,,,,,0,,,,,,,,,,,,,8,7,,,518.315,1,up,0.727,519.081,1,0.3,"[1,3,2]",0.865105659,stimuli/card_0_transparent.png,0,1,0,1,0,1,,,,,,,,,,
,,,,669ef51d969be2073275aec3,C,2024-10-23_12h31.57.113,Slot Machine Game,2023.1.3,Win32,60.0240096,669ef51d969be2073275aec3,67167c13dd87566d3602e731,671932ce864a16d42d3af8ca,,,,,,,,,,,,,,,,,,,,,,,,,,,,,,,,10,,,,,,,,,,,,,8,7,,,520.381,2,right,0.567,520.964,1,0.3,"[1,3,2]",0.525702693,stimuli/card_10_transparent.png,10,2,0,2,0,1,,,,,,,,,,
,,,,669ef51d969be2073275aec3,C,2024-10-23_12h31.57.113,Slot Machine Game,2023.1.3,Win32,60.0240096,669ef51d969be2073275aec3,67167c13dd87566d3602e731,671932ce864a16d42d3af8ca,,,,,,,,,,,,,,,,,,,,,,,,,,,,,,,,20,,,,,,,,,,,,,8,7,,,522.264,3,right,0.649,522.931,1,0.3,"[1,3,2]",0.22806777,stimuli/card_10_transparent.png,10,3,0,3,0,1,,,,,,,,,,
,,,,669ef51d969be2073275aec3,C,2024-10-23_12h31.57.113,Slot Machine Game,2023.1.3,Win32,60.0240096,669ef51d969be2073275aec3,67167c13dd87566d3602e731,671932ce864a16d42d3af8ca,,,,,,,,,,,,,,,,,,,,,,,,,,,,,,,,30,,,,,,,,,,,,,8,7,,,524.231,4,right,0.535,524.781,0.5,0.3,"[1,3,2]",0.925054478,stimuli/card_10_transparent.png,10,4,0,4,0,1,,,,,,,,,,
,,,,669ef51d969be2073275aec3,C,2024-10-23_12h31.57.113,Slot Machine Game,2023.1.3,Win32,60.0240096,669ef51d969be2073275aec3,67167c13dd87566d3602e731,671932ce864a16d42d3af8ca,,,,,,,,,,,,,,,,,,,,,,,,,,,,,,,,30,,,,,,,,,,,,,8,7,,,525.581,5,up,0.602,526.198,0.5,0.3,"[1,3,2]",0.801072475,stimuli/card_0_transparent.png,0,5,0,5,0,1,,,,,,,,,,
,,,,669ef51d969be2073275aec3,C,2024-10-23_12h31.57.113,Slot Machine Game,2023.1.3,Win32,60.0240096,669ef51d969be2073275aec3,67167c13dd87566d3602e731,671932ce864a16d42d3af8ca,,,,,,,,,,,,,,,,,,,,,,,,,,,,,,,,130,,,,,,,,,,,,,8,7,,,526.998,6,left,0.64,527.648,0.5,0.3,"[1,3,2]",0.483593031,stimuli/card_100_transparent.png,100,6,0,6,0,1,,,,,,,,,,
,,,,669ef51d969be2073275aec3,C,2024-10-23_12h31.57.113,Slot Machine Game,2023.1.3,Win32,60.0240096,669ef51d969be2073275aec3,67167c13dd87566d3602e731,671932ce864a16d42d3af8ca,,,,,,,,,,,,,,,,,,,,,,,,,,,,,,,,230,,,,,,,,,,,,,8,7,,,528.447,7,left,0.667,529.13,1.5,0.3,"[1,3,2]",0.246657256,stimuli/card_100_transparent.png,100,7,0,7,0,1,,,,,,,,,,
,,,,669ef51d969be2073275aec3,C,2024-10-23_12h31.57.113,Slot Machine Game,2023.1.3,Win32,60.0240096,669ef51d969be2073275aec3,67167c13dd87566d3602e731,671932ce864a16d42d3af8ca,,,,,,,,,,,,,,,,,,,,,,,,,,,,,,,,330,,,,,,,,,,,,,8,7,,,530.931,8,left,0.733,531.681,1.5,0.3,"[1,3,2]",0.721379898,stimuli/card_100_transparent.png,100,8,0,8,0,1,,,,,,,,,,
,,,,669ef51d969be2073275aec3,C,2024-10-23_12h31.57.113,Slot Machine Game,2023.1.3,Win32,60.0240096,669ef51d969be2073275aec3,67167c13dd87566d3602e731,671932ce864a16d42d3af8ca,,,,,,,,,,,,,,,,,,,,,,,,,,,,,,,,340,,,,,,,,,,,,,8,7,,,533.481,9,left,0.578,534.081,1,0.3,"[2,3,1]",0.397675208,stimuli/card_10_transparent.png,10,9,0,9,0,1,,,,,,,,,,
,,,,669ef51d969be2073275aec3,C,2024-10-23_12h31.57.113,Slot Machine Game,2023.1.3,Win32,60.0240096,669ef51d969be2073275aec3,67167c13dd87566d3602e731,671932ce864a16d42d3af8ca,,,,,,,,,,,,,,,,,,,,,,,,,,,,,,,,350,,,,,,,,,,,,,8,7,,,535.381,10,left,0.609,536.014,0.5,0.3,"[2,3,1]",0.226458145,stimuli/card_10_transparent.png,10,10,0,10,0,1,,,,,,,,,,
,,,,669ef51d969be2073275aec3,C,2024-10-23_12h31.57.113,Slot Machine Game,2023.1.3,Win32,60.0240096,669ef51d969be2073275aec3,67167c13dd87566d3602e731,671932ce864a16d42d3af8ca,,,,,,,,,,,,,,,,,,,,,,,,,,,,,,,,360,,,,,,,,,,,,,8,7,,,536.814,11,left,0.558,537.381,0.5,0.3,"[2,3,1]",0.453408848,stimuli/card_10_transparent.png,10,11,0,11,0,1,,,,,,,,,,
,,,,669ef51d969be2073275aec3,C,2024-10-23_12h31.57.113,Slot Machine Game,2023.1.3,Win32,60.0240096,669ef51d969be2073275aec3,67167c13dd87566d3602e731,671932ce864a16d42d3af8ca,,,,,,,,,,,,,,,,,,,,,,,,,,,,,,,,460,,,,,,,,,,,,,8,7,,,538.181,12,up,0.593,538.798,1,0.3,"[2,3,1]",0.009969408,stimuli/card_100_transparent.png,100,12,0,12,0,1,,,,,,,,,,
,,,,669ef51d969be2073275aec3,C,2024-10-23_12h31.57.113,Slot Machine Game,2023.1.3,Win32,60.0240096,669ef51d969be2073275aec3,67167c13dd87566d3602e731,671932ce864a16d42d3af8ca,,,,,,,,,,,,,,,,,,,,,,,,,,,,,,,,460,,,,,,,,,,,,,8,7,,,540.098,13,up,0.702,540.83,1.5,0.3,"[2,3,1]",0.275996726,stimuli/card_0_transparent.png,0,13,0,13,0,1,,,,,,,,,,
,,,,669ef51d969be2073275aec3,C,2024-10-23_12h31.57.113,Slot Machine Game,2023.1.3,Win32,60.0240096,669ef51d969be2073275aec3,67167c13dd87566d3602e731,671932ce864a16d42d3af8ca,,,,,,,,,,,,,,,,,,,,,,,,,,,,,,,,460,,,,,,,,,,,,,8,7,,,542.631,14,up,0.618,543.264,1,0.3,"[2,3,1]",0.776553526,stimuli/card_0_transparent.png,0,14,0,14,0,1,,,,,,,,,,
,,,,669ef51d969be2073275aec3,C,2024-10-23_12h31.57.113,Slot Machine Game,2023.1.3,Win32,60.0240096,669ef51d969be2073275aec3,67167c13dd87566d3602e731,671932ce864a16d42d3af8ca,,,,,,,,,,,,,,,,,,,,,,,,,,,,,,,,,,544.564,,,,,,,,,,,,,,,,,,,,,,,,,,,,,,,"[670,760,480,440,920,830,730,460]",7,0,7,0,1,,,,
,,,,669ef51d969be2073275aec3,C,2024-10-23_12h31.57.113,Slot Machine Game,2023.1.3,Win32,60.0240096,669ef51d969be2073275aec3,67167c13dd87566d3602e731,671932ce864a16d42d3af8ca,,,,,,,,,,,,,,,,,,,,,,,,,,,,,,,,100,,,,,,,,,,,,,9,9,"[8,15]","[[3,2,1],[3,1,2]]",549.565,0,right,1.301,550.897,0.5,0.3,"[3,2,1]",0.602005144,stimuli/card_100_transparent.png,100,0,0,0,0,1,,,,,,,,,,
,,,,669ef51d969be2073275aec3,C,2024-10-23_12h31.57.113,Slot Machine Game,2023.1.3,Win32,60.0240096,669ef51d969be2073275aec3,67167c13dd87566d3602e731,671932ce864a16d42d3af8ca,,,,,,,,,,,,,,,,,,,,,,,,,,,,,,,,110,,,,,,,,,,,,,9,9,,,551.697,1,right,0.834,552.548,1,0.3,"[3,2,1]",0.142273651,stimuli/card_10_transparent.png,10,1,0,1,0,1,,,,,,,,,,
,,,,669ef51d969be2073275aec3,C,2024-10-23_12h31.57.113,Slot Machine Game,2023.1.3,Win32,60.0240096,669ef51d969be2073275aec3,67167c13dd87566d3602e731,671932ce864a16d42d3af8ca,,,,,,,,,,,,,,,,,,,,,,,,,,,,,,,,110,,,,,,,,,,,,,9,9,,,553.847,2,right,0.568,554.43,0.5,0.3,"[3,2,1]",0.033090917,stimuli/card_0_transparent.png,0,2,0,2,0,1,,,,,,,,,,
,,,,669ef51d969be2073275aec3,C,2024-10-23_12h31.57.113,Slot Machine Game,2023.1.3,Win32,60.0240096,669ef51d969be2073275aec3,67167c13dd87566d3602e731,671932ce864a16d42d3af8ca,,,,,,,,,,,,,,,,,,,,,,,,,,,,,,,,210,,,,,,,,,,,,,9,9,,,555.23,3,right,0.54,555.781,0.5,0.3,"[3,2,1]",0.857536917,stimuli/card_100_transparent.png,100,3,0,3,0,1,,,,,,,,,,
,,,,669ef51d969be2073275aec3,C,2024-10-23_12h31.57.113,Slot Machine Game,2023.1.3,Win32,60.0240096,669ef51d969be2073275aec3,67167c13dd87566d3602e731,671932ce864a16d42d3af8ca,,,,,,,,,,,,,,,,,,,,,,,,,,,,,,,,310,,,,,,,,,,,,,9,9,,,556.581,4,right,0.549,557.147,1,0.3,"[3,2,1]",0.596011887,stimuli/card_100_transparent.png,100,4,0,4,0,1,,,,,,,,,,
,,,,669ef51d969be2073275aec3,C,2024-10-23_12h31.57.113,Slot Machine Game,2023.1.3,Win32,60.0240096,669ef51d969be2073275aec3,67167c13dd87566d3602e731,671932ce864a16d42d3af8ca,,,,,,,,,,,,,,,,,,,,,,,,,,,,,,,,410,,,,,,,,,,,,,9,9,,,558.447,5,right,0.545,558.997,0.5,0.3,"[3,2,1]",0.544850832,stimuli/card_100_transparent.png,100,5,0,5,0,1,,,,,,,,,,
,,,,669ef51d969be2073275aec3,C,2024-10-23_12h31.57.113,Slot Machine Game,2023.1.3,Win32,60.0240096,669ef51d969be2073275aec3,67167c13dd87566d3602e731,671932ce864a16d42d3af8ca,,,,,,,,,,,,,,,,,,,,,,,,,,,,,,,,510,,,,,,,,,,,,,9,9,,,559.797,6,right,0.608,560.414,0.5,0.3,"[3,2,1]",0.708578717,stimuli/card_100_transparent.png,100,6,0,6,0,1,,,,,,,,,,
,,,,669ef51d969be2073275aec3,C,2024-10-23_12h31.57.113,Slot Machine Game,2023.1.3,Win32,60.0240096,669ef51d969be2073275aec3,67167c13dd87566d3602e731,671932ce864a16d42d3af8ca,,,,,,,,,,,,,,,,,,,,,,,,,,,,,,,,610,,,,,,,,,,,,,9,9,,,561.214,7,right,0.517,561.747,1.5,0.3,"[3,2,1]",0.909091639,stimuli/card_100_transparent.png,100,7,0,7,0,1,,,,,,,,,,
,,,,669ef51d969be2073275aec3,C,2024-10-23_12h31.57.113,Slot Machine Game,2023.1.3,Win32,60.0240096,669ef51d969be2073275aec3,67167c13dd87566d3602e731,671932ce864a16d42d3af8ca,,,,,,,,,,,,,,,,,,,,,,,,,,,,,,,,620,,,,,,,,,,,,,9,9,,,563.548,8,right,0.657,564.231,1.5,0.3,"[3,1,2]",0.376096163,stimuli/card_10_transparent.png,10,8,0,8,0,1,,,,,,,,,,
,,,,669ef51d969be2073275aec3,C,2024-10-23_12h31.57.113,Slot Machine Game,2023.1.3,Win32,60.0240096,669ef51d969be2073275aec3,67167c13dd87566d3602e731,671932ce864a16d42d3af8ca,,,,,,,,,,,,,,,,,,,,,,,,,,,,,,,,630,,,,,,,,,,,,,9,9,,,566.031,9,right,0.933,566.98,1,0.3,"[3,1,2]",0.573663182,stimuli/card_10_transparent.png,10,9,0,9,0,1,,,,,,,,,,
,,,,669ef51d969be2073275aec3,C,2024-10-23_12h31.57.113,Slot Machine Game,2023.1.3,Win32,60.0240096,669ef51d969be2073275aec3,67167c13dd87566d3602e731,671932ce864a16d42d3af8ca,,,,,,,,,,,,,,,,,,,,,,,,,,,,,,,,640,,,,,,,,,,,,,9,9,,,568.28,10,right,0.571,568.864,1.5,0.3,"[3,1,2]",0.931202922,stimuli/card_10_transparent.png,10,10,0,10,0,1,,,,,,,,,,
,,,,669ef51d969be2073275aec3,C,2024-10-23_12h31.57.113,Slot Machine Game,2023.1.3,Win32,60.0240096,669ef51d969be2073275aec3,67167c13dd87566d3602e731,671932ce864a16d42d3af8ca,,,,,,,,,,,,,,,,,,,,,,,,,,,,,,,,640,,,,,,,,,,,,,9,9,,,570.664,11,up,0.755,571.431,1.5,0.3,"[3,1,2]",0.096726093,stimuli/card_0_transparent.png,0,11,0,11,0,1,,,,,,,,,,
,,,,669ef51d969be2073275aec3,C,2024-10-23_12h31.57.113,Slot Machine Game,2023.1.3,Win32,60.0240096,669ef51d969be2073275aec3,67167c13dd87566d3602e731,671932ce864a16d42d3af8ca,,,,,,,,,,,,,,,,,,,,,,,,,,,,,,,,740,,,,,,,,,,,,,9,9,,,573.231,12,up,0.938,574.18,1,0.3,"[3,1,2]",0.961930164,stimuli/card_100_transparent.png,100,12,0,12,0,1,,,,,,,,,,
,,,,669ef51d969be2073275aec3,C,2024-10-23_12h31.57.113,Slot Machine Game,2023.1.3,Win32,60.0240096,669ef51d969be2073275aec3,67167c13dd87566d3602e731,671932ce864a16d42d3af8ca,,,,,,,,,,,,,,,,,,,,,,,,,,,,,,,,840,,,,,,,,,,,,,9,9,,,575.48,13,up,0.506,575.997,1,0.3,"[3,1,2]",0.476895016,stimuli/card_100_transparent.png,100,13,0,13,0,1,,,,,,,,,,
,,,,669ef51d969be2073275aec3,C,2024-10-23_12h31.57.113,Slot Machine Game,2023.1.3,Win32,60.0240096,669ef51d969be2073275aec3,67167c13dd87566d3602e731,671932ce864a16d42d3af8ca,,,,,,,,,,,,,,,,,,,,,,,,,,,,,,,,940,,,,,,,,,,,,,9,9,,,577.297,14,up,0.757,578.064,1,0.3,"[3,1,2]",0.397424313,stimuli/card_100_transparent.png,100,14,0,14,0,1,,,,,,,,,,
,,,,669ef51d969be2073275aec3,C,2024-10-23_12h31.57.113,Slot Machine Game,2023.1.3,Win32,60.0240096,669ef51d969be2073275aec3,67167c13dd87566d3602e731,671932ce864a16d42d3af8ca,,,,,,,,,,,,,,,,,,,,,,,,,,,,,,,,,,579.364,,,,,,,,,,,,,,,,,,,,,,,,,,,,,,,"[670,760,480,440,920,830,730,460,940]",8,0,8,0,1,,,,
,,,,669ef51d969be2073275aec3,C,2024-10-23_12h31.57.113,Slot Machine Game,2023.1.3,Win32,60.0240096,669ef51d969be2073275aec3,67167c13dd87566d3602e731,671932ce864a16d42d3af8ca,,,,,,,,,,,,,,,,,,,,,,,,,,,,,,,,10,,,,,,,,,,,,,10,6,"[4,10,15]","[[2,3,1],[1,3,2],[3,2,1]]",584.367,0,left,0.857,585.246,1,0.3,"[2,3,1]",0.233513178,stimuli/card_10_transparent.png,10,0,0,0,0,1,,,,,,,,,,
,,,,669ef51d969be2073275aec3,C,2024-10-23_12h31.57.113,Slot Machine Game,2023.1.3,Win32,60.0240096,669ef51d969be2073275aec3,67167c13dd87566d3602e731,671932ce864a16d42d3af8ca,,,,,,,,,,,,,,,,,,,,,,,,,,,,,,,,10,,,,,,,,,,,,,10,6,,,586.547,1,up,0.877,587.447,1,0.3,"[2,3,1]",0.759925487,stimuli/card_0_transparent.png,0,1,0,1,0,1,,,,,,,,,,
,,,,669ef51d969be2073275aec3,C,2024-10-23_12h31.57.113,Slot Machine Game,2023.1.3,Win32,60.0240096,669ef51d969be2073275aec3,67167c13dd87566d3602e731,671932ce864a16d42d3af8ca,,,,,,,,,,,,,,,,,,,,,,,,,,,,,,,,10,,,,,,,,,,,,,10,6,,,588.747,2,up,0.895,589.664,1.5,0.3,"[2,3,1]",0.221226289,stimuli/card_0_transparent.png,0,2,0,2,0,1,,,,,,,,,,
,,,,669ef51d969be2073275aec3,C,2024-10-23_12h31.57.113,Slot Machine Game,2023.1.3,Win32,60.0240096,669ef51d969be2073275aec3,67167c13dd87566d3602e731,671932ce864a16d42d3af8ca,,,,,,,,,,,,,,,,,,,,,,,,,,,,,,,,110,,,,,,,,,,,,,10,6,,,591.464,3,right,0.539,592.013,1,0.3,"[2,3,1]",0.671664099,stimuli/card_100_transparent.png,100,3,0,3,0,1,,,,,,,,,,
,,,,669ef51d969be2073275aec3,C,2024-10-23_12h31.57.113,Slot Machine Game,2023.1.3,Win32,60.0240096,669ef51d969be2073275aec3,67167c13dd87566d3602e731,671932ce864a16d42d3af8ca,,,,,,,,,,,,,,,,,,,,,,,,,,,,,,,,120,,,,,,,,,,,,,10,6,,,593.313,4,right,0.75,594.08,1.5,0.3,"[1,3,2]",0.777779343,stimuli/card_10_transparent.png,10,4,0,4,0,1,,,,,,,,,,
,,,,669ef51d969be2073275aec3,C,2024-10-23_12h31.57.113,Slot Machine Game,2023.1.3,Win32,60.0240096,669ef51d969be2073275aec3,67167c13dd87566d3602e731,671932ce864a16d42d3af8ca,,,,,,,,,,,,,,,,,,,,,,,,,,,,,,,,130,,,,,,,,,,,,,10,6,,,595.88,5,right,0.576,596.463,0.5,0.3,"[1,3,2]",0.271813916,stimuli/card_10_transparent.png,10,5,0,5,0,1,,,,,,,,,,
,,,,669ef51d969be2073275aec3,C,2024-10-23_12h31.57.113,Slot Machine Game,2023.1.3,Win32,60.0240096,669ef51d969be2073275aec3,67167c13dd87566d3602e731,671932ce864a16d42d3af8ca,,,,,,,,,,,,,,,,,,,,,,,,,,,,,,,,140,,,,,,,,,,,,,10,6,,,597.263,6,right,0.587,597.864,1,0.3,"[1,3,2]",0.72358501,stimuli/card_10_transparent.png,10,6,0,6,0,1,,,,,,,,,,
,,,,669ef51d969be2073275aec3,C,2024-10-23_12h31.57.113,Slot Machine Game,2023.1.3,Win32,60.0240096,669ef51d969be2073275aec3,67167c13dd87566d3602e731,671932ce864a16d42d3af8ca,,,,,,,,,,,,,,,,,,,,,,,,,,,,,,,,240,,,,,,,,,,,,,10,6,,,599.164,7,left,0.56,599.747,1,0.3,"[1,3,2]",0.926184978,stimuli/card_100_transparent.png,100,7,0,7,0,1,,,,,,,,,,
,,,,669ef51d969be2073275aec3,C,2024-10-23_12h31.57.113,Slot Machine Game,2023.1.3,Win32,60.0240096,669ef51d969be2073275aec3,67167c13dd87566d3602e731,671932ce864a16d42d3af8ca,,,,,,,,,,,,,,,,,,,,,,,,,,,,,,,,340,,,,,,,,,,,,,10,6,,,601.046,8,left,0.719,601.78,1.5,0.3,"[1,3,2]",0.413584951,stimuli/card_100_transparent.png,100,8,0,8,0,1,,,,,,,,,,
,,,,669ef51d969be2073275aec3,C,2024-10-23_12h31.57.113,Slot Machine Game,2023.1.3,Win32,60.0240096,669ef51d969be2073275aec3,67167c13dd87566d3602e731,671932ce864a16d42d3af8ca,,,,,,,,,,,,,,,,,,,,,,,,,,,,,,,,350,,,,,,,,,,,,,10,6,,,603.58,9,left,0.736,604.33,1,0.3,"[1,3,2]",0.124182992,stimuli/card_10_transparent.png,10,9,0,9,0,1,,,,,,,,,,
,,,,669ef51d969be2073275aec3,C,2024-10-23_12h31.57.113,Slot Machine Game,2023.1.3,Win32,60.0240096,669ef51d969be2073275aec3,67167c13dd87566d3602e731,671932ce864a16d42d3af8ca,,,,,,,,,,,,,,,,,,,,,,,,,,,,,,,,350,,,,,,,,,,,,,10,6,,,605.63,10,left,0.61,606.247,1,0.3,"[3,2,1]",0.608706477,stimuli/card_0_transparent.png,0,10,0,10,0,1,,,,,,,,,,
,,,,669ef51d969be2073275aec3,C,2024-10-23_12h31.57.113,Slot Machine Game,2023.1.3,Win32,60.0240096,669ef51d969be2073275aec3,67167c13dd87566d3602e731,671932ce864a16d42d3af8ca,,,,,,,,,,,,,,,,,,,,,,,,,,,,,,,,350,,,,,,,,,,,,,10,6,,,607.547,11,left,0.566,608.13,0.5,0.3,"[3,2,1]",0.52787896,stimuli/card_0_transparent.png,0,11,0,11,0,1,,,,,,,,,,
,,,,669ef51d969be2073275aec3,C,2024-10-23_12h31.57.113,Slot Machine Game,2023.1.3,Win32,60.0240096,669ef51d969be2073275aec3,67167c13dd87566d3602e731,671932ce864a16d42d3af8ca,,,,,,,,,,,,,,,,,,,,,,,,,,,,,,,,360,,,,,,,,,,,,,10,6,,,608.93,12,up,0.686,609.63,1.5,0.3,"[3,2,1]",0.965302105,stimuli/card_10_transparent.png,10,12,0,12,0,1,,,,,,,,,,
,,,,669ef51d969be2073275aec3,C,2024-10-23_12h31.57.113,Slot Machine Game,2023.1.3,Win32,60.0240096,669ef51d969be2073275aec3,67167c13dd87566d3602e731,671932ce864a16d42d3af8ca,,,,,,,,,,,,,,,,,,,,,,,,,,,,,,,,370,,,,,,,,,,,,,10,6,,,611.43,13,up,0.658,612.097,1,0.3,"[3,2,1]",0.615633015,stimuli/card_10_transparent.png,10,13,0,13,0,1,,,,,,,,,,
,,,,669ef51d969be2073275aec3,C,2024-10-23_12h31.57.113,Slot Machine Game,2023.1.3,Win32,60.0240096,669ef51d969be2073275aec3,67167c13dd87566d3602e731,671932ce864a16d42d3af8ca,,,,,,,,,,,,,,,,,,,,,,,,,,,,,,,,470,,,,,,,,,,,,,10,6,,,613.397,14,right,0.504,613.913,0.5,0.3,"[3,2,1]",0.452949924,stimuli/card_100_transparent.png,100,14,0,14,0,1,,,,,,,,,,
,,,,669ef51d969be2073275aec3,C,2024-10-23_12h31.57.113,Slot Machine Game,2023.1.3,Win32,60.0240096,669ef51d969be2073275aec3,67167c13dd87566d3602e731,671932ce864a16d42d3af8ca,,,,,,,,,,,,,,,,,,,,,,,,,,,,,,,,,,614.714,,,,,,,,,,,,,,,,,,,,,,,,,,,,,,,"[670,760,480,440,920,830,730,460,940,470]",9,0,9,0,1,,,,
,,,,669ef51d969be2073275aec3,C,2024-10-23_12h31.57.113,Slot Machine Game,2023.1.3,Win32,60.0240096,669ef51d969be2073275aec3,67167c13dd87566d3602e731,671932ce864a16d42d3af8ca,,,,,,,,,,,,,,,,,,,,,,,,,,,,,,,,,,,,,,,,,,,,,,,,,,,,,,,,,,,,,,,,,,,,,,,9,"[670,760,480,440,920,830,730,460,940,470]",7.3,2024-10-23_12h42.20.852
