key_resp_welcome_started,key_resp_welcome_keys,key_resp_welcome_rt,key_resp_welcome_duration,prolific_pid,path_id,date,expName,psychopyVersion,OS,frameRate,PROLIFIC_PID,STUDY_ID,SESSION_ID,key_resp_instruction1_started,key_resp_instruction1_keys,key_resp_instruction1_rt,key_resp_instruction1_duration,key_resp_instruction2_started,key_resp_instruction2_keys,key_resp_instruction2_rt,key_resp_instruction2_duration,key_resp_instruction3_started,key_resp_instruction3_keys,key_resp_instruction3_rt,key_resp_instruction3_duration,key_resp_instruction4_started,key_resp_instruction4_keys,key_resp_instruction4_rt,key_resp_instruction4_duration,practiceCondition,practice_reward_seqs,practice_trial_started,practice_trial_num,practice_resp_rt,practice_keypress_time,practice_resp_keys,prac_presentationInterval,practice_reward_seq,reward_img,cumulative_reward,trial_reward,practice_trials.thisRepN,practice_trials.thisTrialN,practice_trials.thisN,practice_trials.thisIndex,practice_trials.ran,block_break_started,practice_end_time,practice_end_keys,practice_end_rt,practice_end_duration,main_instruction_text_started,block_condition,block_order_indices,main_instruction_keys,main_instruction_rt,main_instruction_duration,block_number,block_assignment,current_condition,main_reward_seqs,main_trial_started,main_trial_num,main_trial_keys,main_trial_rt,main_trial_keypress_time,main_presentationInterval,reward_presentation_time,main_reward_seq,reward_rand_val,main_reward_img,current_reward,main_trials.thisRepN,main_trials.thisTrialN,main_trials.thisN,main_trials.thisIndex,main_trials.ran,block_reward,block.thisRepN,block.thisTrialN,block.thisN,block.thisIndex,block.ran,block_reward.length,block_reward_all,reward_amount,date_end_task
0.0003,j,1.6221,,5f2c4bf4e4f3080e6a469fcc,C,2024-10-23_16h34.41.289,Slot Machine Game,2023.1.3,Win32,59.88023952,5f2c4bf4e4f3080e6a469fcc,67167c13dd87566d3602e731,67195dc9435e7e6c8247004d,,,,,,,,,,,,,,,,,,,,,,,,,,,,,,,,,,,,,,,,,,,,,,,,,,,,,,,,,,,,,,,,,,,,,,,,,,
,,,,5f2c4bf4e4f3080e6a469fcc,C,2024-10-23_16h34.41.289,Slot Machine Game,2023.1.3,Win32,59.88023952,5f2c4bf4e4f3080e6a469fcc,67167c13dd87566d3602e731,67195dc9435e7e6c8247004d,1.637,j,17.5616,,,,,,,,,,,,,,,,,,,,,,,,,,,,,,,,,,,,,,,,,,,,,,,,,,,,,,,,,,,,,,,,,,,,,,,
,,,,5f2c4bf4e4f3080e6a469fcc,C,2024-10-23_16h34.41.289,Slot Machine Game,2023.1.3,Win32,59.88023952,5f2c4bf4e4f3080e6a469fcc,67167c13dd87566d3602e731,67195dc9435e7e6c8247004d,,,,,19.2153,j,35.3624,,,,,,,,,,,,,,,,,,,,,,,,,,,,,,,,,,,,,,,,,,,,,,,,,,,,,,,,,,,,,,,,,,,
,,,,5f2c4bf4e4f3080e6a469fcc,C,2024-10-23_16h34.41.289,Slot Machine Game,2023.1.3,Win32,59.88023952,5f2c4bf4e4f3080e6a469fcc,67167c13dd87566d3602e731,67195dc9435e7e6c8247004d,,,,,,,,,54.6378,h,5.3719,,,,,,,,,,,,,,,,,,,,,,,,,,,,,,,,,,,,,,,,,,,,,,,,,,,,,,,,,,,,,,,
,,,,5f2c4bf4e4f3080e6a469fcc,C,2024-10-23_16h34.41.289,Slot Machine Game,2023.1.3,Win32,59.88023952,5f2c4bf4e4f3080e6a469fcc,67167c13dd87566d3602e731,67195dc9435e7e6c8247004d,,,,,,,,,,,,,,,,,,,,,,,,,,,,,,,,,,,,,,,,,,,,,,,,,,,,,,,,,,,,,,,,,,,,,,,,,,
,,,,5f2c4bf4e4f3080e6a469fcc,C,2024-10-23_16h34.41.289,Slot Machine Game,2023.1.3,Win32,59.88023952,5f2c4bf4e4f3080e6a469fcc,67167c13dd87566d3602e731,67195dc9435e7e6c8247004d,,,,,,,,,,,,,201.8189,j,2.4773,,,,,,,,,,,,,,,,,,,,,,,,,,,,,,,,,,,,,,,,,,,,,,,,,,,,,,,,,,,
,,,,5f2c4bf4e4f3080e6a469fcc,C,2024-10-23_16h34.41.289,Slot Machine Game,2023.1.3,Win32,59.88023952,5f2c4bf4e4f3080e6a469fcc,67167c13dd87566d3602e731,67195dc9435e7e6c8247004d,,,,,,,,,,,,,,,,,"[9,15]","[[2,1,3],[2,3,1]]",204.3212,0,2.5849,206.9331,left,1.5,"[2,1,3]",stimuli/card_10_transparent.png,10,10,0,0,0,0,1,,,,,,,,,,,,,,,,,,,,,,,,,,,,,,,,,,,,,,,,,
,,,,5f2c4bf4e4f3080e6a469fcc,C,2024-10-23_16h34.41.289,Slot Machine Game,2023.1.3,Win32,59.88023952,5f2c4bf4e4f3080e6a469fcc,67167c13dd87566d3602e731,67195dc9435e7e6c8247004d,,,,,,,,,,,,,,,,,,,208.7295,1,1.5998,210.3508,left,0.5,"[2,1,3]",stimuli/card_10_transparent.png,20,10,1,0,1,0,1,,,,,,,,,,,,,,,,,,,,,,,,,,,,,,,,,,,,,,,,,
,,,,5f2c4bf4e4f3080e6a469fcc,C,2024-10-23_16h34.41.289,Slot Machine Game,2023.1.3,Win32,59.88023952,5f2c4bf4e4f3080e6a469fcc,67167c13dd87566d3602e731,67195dc9435e7e6c8247004d,,,,,,,,,,,,,,,,,,,211.1513,2,1.3223,212.5023,up,1.5,"[2,1,3]",stimuli/card_100_transparent.png,120,100,2,0,2,0,1,,,,,,,,,,,,,,,,,,,,,,,,,,,,,,,,,,,,,,,,,
,,,,5f2c4bf4e4f3080e6a469fcc,C,2024-10-23_16h34.41.289,Slot Machine Game,2023.1.3,Win32,59.88023952,5f2c4bf4e4f3080e6a469fcc,67167c13dd87566d3602e731,67195dc9435e7e6c8247004d,,,,,,,,,,,,,,,,,,,214.3139,3,0.7014,215.0361,up,1,"[2,1,3]",stimuli/card_100_transparent.png,220,100,3,0,3,0,1,,,,,,,,,,,,,,,,,,,,,,,,,,,,,,,,,,,,,,,,,
,,,,5f2c4bf4e4f3080e6a469fcc,C,2024-10-23_16h34.41.289,Slot Machine Game,2023.1.3,Win32,59.88023952,5f2c4bf4e4f3080e6a469fcc,67167c13dd87566d3602e731,67195dc9435e7e6c8247004d,,,,,,,,,,,,,,,,,,,216.3358,4,0.8014,217.1536,up,0.5,"[2,1,3]",stimuli/card_100_transparent.png,320,100,4,0,4,0,1,,,,,,,,,,,,,,,,,,,,,,,,,,,,,,,,,,,,,,,,,
,,,,5f2c4bf4e4f3080e6a469fcc,C,2024-10-23_16h34.41.289,Slot Machine Game,2023.1.3,Win32,59.88023952,5f2c4bf4e4f3080e6a469fcc,67167c13dd87566d3602e731,67195dc9435e7e6c8247004d,,,,,,,,,,,,,,,,,,,217.9535,5,0.7849,218.7703,up,0.5,"[2,1,3]",stimuli/card_100_transparent.png,420,100,5,0,5,0,1,,,,,,,,,,,,,,,,,,,,,,,,,,,,,,,,,,,,,,,,,
,,,,5f2c4bf4e4f3080e6a469fcc,C,2024-10-23_16h34.41.289,Slot Machine Game,2023.1.3,Win32,59.88023952,5f2c4bf4e4f3080e6a469fcc,67167c13dd87566d3602e731,67195dc9435e7e6c8247004d,,,,,,,,,,,,,,,,,,,219.5711,6,0.7013,220.3046,up,1,"[2,1,3]",stimuli/card_100_transparent.png,520,100,6,0,6,0,1,,,,,,,,,,,,,,,,,,,,,,,,,,,,,,,,,,,,,,,,,
,,,,5f2c4bf4e4f3080e6a469fcc,C,2024-10-23_16h34.41.289,Slot Machine Game,2023.1.3,Win32,59.88023952,5f2c4bf4e4f3080e6a469fcc,67167c13dd87566d3602e731,67195dc9435e7e6c8247004d,,,,,,,,,,,,,,,,,,,221.6049,7,2.5666,224.205,up,0.5,"[2,1,3]",stimuli/card_100_transparent.png,620,100,7,0,7,0,1,,,,,,,,,,,,,,,,,,,,,,,,,,,,,,,,,,,,,,,,,
,,,,5f2c4bf4e4f3080e6a469fcc,C,2024-10-23_16h34.41.289,Slot Machine Game,2023.1.3,Win32,59.88023952,5f2c4bf4e4f3080e6a469fcc,67167c13dd87566d3602e731,67195dc9435e7e6c8247004d,,,,,,,,,,,,,,,,,,,225.006,8,0.8654,225.9054,up,1,"[2,1,3]",stimuli/card_0_transparent.png,620,0,8,0,8,0,1,,,,,,,,,,,,,,,,,,,,,,,,,,,,,,,,,,,,,,,,,
,,,,5f2c4bf4e4f3080e6a469fcc,C,2024-10-23_16h34.41.289,Slot Machine Game,2023.1.3,Win32,59.88023952,5f2c4bf4e4f3080e6a469fcc,67167c13dd87566d3602e731,67195dc9435e7e6c8247004d,,,,,,,,,,,,,,,,,,,227.2066,9,0.8847,228.1234,up,1.5,"[2,3,1]",stimuli/card_0_transparent.png,620,0,9,0,9,0,1,,,,,,,,,,,,,,,,,,,,,,,,,,,,,,,,,,,,,,,,,
,,,,5f2c4bf4e4f3080e6a469fcc,C,2024-10-23_16h34.41.289,Slot Machine Game,2023.1.3,Win32,59.88023952,5f2c4bf4e4f3080e6a469fcc,67167c13dd87566d3602e731,67195dc9435e7e6c8247004d,,,,,,,,,,,,,,,,,,,229.924,10,1.1178,231.0738,right,0.5,"[2,3,1]",stimuli/card_0_transparent.png,620,0,10,0,10,0,1,,,,,,,,,,,,,,,,,,,,,,,,,,,,,,,,,,,,,,,,,
,,,,5f2c4bf4e4f3080e6a469fcc,C,2024-10-23_16h34.41.289,Slot Machine Game,2023.1.3,Win32,59.88023952,5f2c4bf4e4f3080e6a469fcc,67167c13dd87566d3602e731,67195dc9435e7e6c8247004d,,,,,,,,,,,,,,,,,,,231.874,11,0.9337,232.8409,right,1,"[2,3,1]",stimuli/card_100_transparent.png,720,100,11,0,11,0,1,,,,,,,,,,,,,,,,,,,,,,,,,,,,,,,,,,,,,,,,,
,,,,5f2c4bf4e4f3080e6a469fcc,C,2024-10-23_16h34.41.289,Slot Machine Game,2023.1.3,Win32,59.88023952,5f2c4bf4e4f3080e6a469fcc,67167c13dd87566d3602e731,67195dc9435e7e6c8247004d,,,,,,,,,,,,,,,,,,,234.1414,12,1.2368,235.3919,right,1,"[2,3,1]",stimuli/card_100_transparent.png,820,100,12,0,12,0,1,,,,,,,,,,,,,,,,,,,,,,,,,,,,,,,,,,,,,,,,,
,,,,5f2c4bf4e4f3080e6a469fcc,C,2024-10-23_16h34.41.289,Slot Machine Game,2023.1.3,Win32,59.88023952,5f2c4bf4e4f3080e6a469fcc,67167c13dd87566d3602e731,67195dc9435e7e6c8247004d,,,,,,,,,,,,,,,,,,,236.6922,13,0.8508,237.559,right,1.5,"[2,3,1]",stimuli/card_100_transparent.png,920,100,13,0,13,0,1,,,,,,,,,,,,,,,,,,,,,,,,,,,,,,,,,,,,,,,,,
,,,,5f2c4bf4e4f3080e6a469fcc,C,2024-10-23_16h34.41.289,Slot Machine Game,2023.1.3,Win32,59.88023952,5f2c4bf4e4f3080e6a469fcc,67167c13dd87566d3602e731,67195dc9435e7e6c8247004d,,,,,,,,,,,,,,,,,,,239.3603,14,0.7009,240.0939,right,1.5,"[2,3,1]",stimuli/card_0_transparent.png,920,0,14,0,14,0,1,,,,,,,,,,,,,,,,,,,,,,,,,,,,,,,,,,,,,,,,,
,,,,5f2c4bf4e4f3080e6a469fcc,C,2024-10-23_16h34.41.289,Slot Machine Game,2023.1.3,Win32,59.88023952,5f2c4bf4e4f3080e6a469fcc,67167c13dd87566d3602e731,67195dc9435e7e6c8247004d,,,,,,,,,,,,,,,,,"[6,15]","[[1,3,2],[3,1,2]]",246.8984,0,2.252,249.1753,left,1,"[1,3,2]",stimuli/card_100_transparent.png,100,100,0,0,0,0,1,241.8965,,,,,,,,,,,,,,,,,,,,,,,,,,,,,,,,,,,,,,,,
,,,,5f2c4bf4e4f3080e6a469fcc,C,2024-10-23_16h34.41.289,Slot Machine Game,2023.1.3,Win32,59.88023952,5f2c4bf4e4f3080e6a469fcc,67167c13dd87566d3602e731,67195dc9435e7e6c8247004d,,,,,,,,,,,,,,,,,,,250.4804,1,0.7677,251.2806,left,0.5,"[1,3,2]",stimuli/card_100_transparent.png,200,100,1,0,1,0,1,,,,,,,,,,,,,,,,,,,,,,,,,,,,,,,,,,,,,,,,,
,,,,5f2c4bf4e4f3080e6a469fcc,C,2024-10-23_16h34.41.289,Slot Machine Game,2023.1.3,Win32,59.88023952,5f2c4bf4e4f3080e6a469fcc,67167c13dd87566d3602e731,67195dc9435e7e6c8247004d,,,,,,,,,,,,,,,,,,,252.0802,2,1.0346,253.1312,left,0.5,"[1,3,2]",stimuli/card_100_transparent.png,300,100,2,0,2,0,1,,,,,,,,,,,,,,,,,,,,,,,,,,,,,,,,,,,,,,,,,
,,,,5f2c4bf4e4f3080e6a469fcc,C,2024-10-23_16h34.41.289,Slot Machine Game,2023.1.3,Win32,59.88023952,5f2c4bf4e4f3080e6a469fcc,67167c13dd87566d3602e731,67195dc9435e7e6c8247004d,,,,,,,,,,,,,,,,,,,253.9314,3,0.9013,254.8651,left,1,"[1,3,2]",stimuli/card_0_transparent.png,300,0,3,0,3,0,1,,,,,,,,,,,,,,,,,,,,,,,,,,,,,,,,,,,,,,,,,
,,,,5f2c4bf4e4f3080e6a469fcc,C,2024-10-23_16h34.41.289,Slot Machine Game,2023.1.3,Win32,59.88023952,5f2c4bf4e4f3080e6a469fcc,67167c13dd87566d3602e731,67195dc9435e7e6c8247004d,,,,,,,,,,,,,,,,,,,256.1651,4,0.9701,257.1487,left,1,"[1,3,2]",stimuli/card_10_transparent.png,310,10,4,0,4,0,1,,,,,,,,,,,,,,,,,,,,,,,,,,,,,,,,,,,,,,,,,
,,,,5f2c4bf4e4f3080e6a469fcc,C,2024-10-23_16h34.41.289,Slot Machine Game,2023.1.3,Win32,59.88023952,5f2c4bf4e4f3080e6a469fcc,67167c13dd87566d3602e731,67195dc9435e7e6c8247004d,,,,,,,,,,,,,,,,,,,258.4494,5,1.2041,259.6827,up,1.5,"[1,3,2]",stimuli/card_100_transparent.png,410,100,5,0,5,0,1,,,,,,,,,,,,,,,,,,,,,,,,,,,,,,,,,,,,,,,,,
,,,,5f2c4bf4e4f3080e6a469fcc,C,2024-10-23_16h34.41.289,Slot Machine Game,2023.1.3,Win32,59.88023952,5f2c4bf4e4f3080e6a469fcc,67167c13dd87566d3602e731,67195dc9435e7e6c8247004d,,,,,,,,,,,,,,,,,,,261.4838,6,0.701,262.2176,up,0.5,"[3,1,2]",stimuli/card_10_transparent.png,420,10,6,0,6,0,1,,,,,,,,,,,,,,,,,,,,,,,,,,,,,,,,,,,,,,,,,
,,,,5f2c4bf4e4f3080e6a469fcc,C,2024-10-23_16h34.41.289,Slot Machine Game,2023.1.3,Win32,59.88023952,5f2c4bf4e4f3080e6a469fcc,67167c13dd87566d3602e731,67195dc9435e7e6c8247004d,,,,,,,,,,,,,,,,,,,263.012,7,0.984,264.0125,up,1.5,"[3,1,2]",stimuli/card_0_transparent.png,420,0,7,0,7,0,1,,,,,,,,,,,,,,,,,,,,,,,,,,,,,,,,,,,,,,,,,
,,,,5f2c4bf4e4f3080e6a469fcc,C,2024-10-23_16h34.41.289,Slot Machine Game,2023.1.3,Win32,59.88023952,5f2c4bf4e4f3080e6a469fcc,67167c13dd87566d3602e731,67195dc9435e7e6c8247004d,,,,,,,,,,,,,,,,,,,265.8013,8,1.3851,267.2142,right,1.5,"[3,1,2]",stimuli/card_10_transparent.png,430,10,8,0,8,0,1,,,,,,,,,,,,,,,,,,,,,,,,,,,,,,,,,,,,,,,,,
,,,,5f2c4bf4e4f3080e6a469fcc,C,2024-10-23_16h34.41.289,Slot Machine Game,2023.1.3,Win32,59.88023952,5f2c4bf4e4f3080e6a469fcc,67167c13dd87566d3602e731,67195dc9435e7e6c8247004d,,,,,,,,,,,,,,,,,,,269.0139,9,1.4667,270.5025,right,0.5,"[3,1,2]",stimuli/card_10_transparent.png,440,10,9,0,9,0,1,,,,,,,,,,,,,,,,,,,,,,,,,,,,,,,,,,,,,,,,,
,,,,5f2c4bf4e4f3080e6a469fcc,C,2024-10-23_16h34.41.289,Slot Machine Game,2023.1.3,Win32,59.88023952,5f2c4bf4e4f3080e6a469fcc,67167c13dd87566d3602e731,67195dc9435e7e6c8247004d,,,,,,,,,,,,,,,,,,,271.3034,10,0.8186,272.1542,left,0.5,"[3,1,2]",stimuli/card_0_transparent.png,440,0,10,0,10,0,1,,,,,,,,,,,,,,,,,,,,,,,,,,,,,,,,,,,,,,,,,
,,,,5f2c4bf4e4f3080e6a469fcc,C,2024-10-23_16h34.41.289,Slot Machine Game,2023.1.3,Win32,59.88023952,5f2c4bf4e4f3080e6a469fcc,67167c13dd87566d3602e731,67195dc9435e7e6c8247004d,,,,,,,,,,,,,,,,,,,272.9541,11,1.1487,274.1371,up,0.5,"[3,1,2]",stimuli/card_100_transparent.png,540,100,11,0,11,0,1,,,,,,,,,,,,,,,,,,,,,,,,,,,,,,,,,,,,,,,,,
,,,,5f2c4bf4e4f3080e6a469fcc,C,2024-10-23_16h34.41.289,Slot Machine Game,2023.1.3,Win32,59.88023952,5f2c4bf4e4f3080e6a469fcc,67167c13dd87566d3602e731,67195dc9435e7e6c8247004d,,,,,,,,,,,,,,,,,,,274.9371,12,0.8016,275.7541,up,1,"[3,1,2]",stimuli/card_10_transparent.png,550,10,12,0,12,0,1,,,,,,,,,,,,,,,,,,,,,,,,,,,,,,,,,,,,,,,,,
,,,,5f2c4bf4e4f3080e6a469fcc,C,2024-10-23_16h34.41.289,Slot Machine Game,2023.1.3,Win32,59.88023952,5f2c4bf4e4f3080e6a469fcc,67167c13dd87566d3602e731,67195dc9435e7e6c8247004d,,,,,,,,,,,,,,,,,,,277.0543,13,0.7679,277.8381,up,0.5,"[3,1,2]",stimuli/card_100_transparent.png,650,100,13,0,13,0,1,,,,,,,,,,,,,,,,,,,,,,,,,,,,,,,,,,,,,,,,,
,,,,5f2c4bf4e4f3080e6a469fcc,C,2024-10-23_16h34.41.289,Slot Machine Game,2023.1.3,Win32,59.88023952,5f2c4bf4e4f3080e6a469fcc,67167c13dd87566d3602e731,67195dc9435e7e6c8247004d,,,,,,,,,,,,,,,,,,,278.6382,14,0.8843,279.5387,up,0.5,"[3,1,2]",stimuli/card_100_transparent.png,750,100,14,0,14,0,1,,,,,,,,,,,,,,,,,,,,,,,,,,,,,,,,,,,,,,,,,
,,,,5f2c4bf4e4f3080e6a469fcc,C,2024-10-23_16h34.41.289,Slot Machine Game,2023.1.3,Win32,59.88023952,5f2c4bf4e4f3080e6a469fcc,67167c13dd87566d3602e731,67195dc9435e7e6c8247004d,,,,,,,,,,,,,,,,,,,,,,,,,,,,,,,,,,280.3395,285.3412,space,2.6163,,,,,,,,,,,,,,,,,,,,,,,,,,,,,,,,,,,,,
,,,,5f2c4bf4e4f3080e6a469fcc,C,2024-10-23_16h34.41.289,Slot Machine Game,2023.1.3,Win32,59.88023952,5f2c4bf4e4f3080e6a469fcc,67167c13dd87566d3602e731,67195dc9435e7e6c8247004d,,,,,,,,,,,,,,,,,,,,,,,,,,,,,,,,,,,,,,,287.9808,3,"[0,4,6,3,5,7,8,1,9,2]",space,2.4347,,,,,,,,,,,,,,,,,,,,,,,,,,,,,,,
,,,,5f2c4bf4e4f3080e6a469fcc,C,2024-10-23_16h34.41.289,Slot Machine Game,2023.1.3,Win32,59.88023952,5f2c4bf4e4f3080e6a469fcc,67167c13dd87566d3602e731,67195dc9435e7e6c8247004d,,,,,,,,,,,,,,,,,,,,,,,,,,,10,,,,,,,,,,,,,,,,,,1,1,"[12,15]","[[2,1,3],[2,3,1]]",290.4449,0,left,0.9514,291.4388,0.5,0.3,"[2,1,3]",0.843093419,stimuli/card_10_transparent.png,10,0,0,0,0,1,,,,,,,,,,
,,,,5f2c4bf4e4f3080e6a469fcc,C,2024-10-23_16h34.41.289,Slot Machine Game,2023.1.3,Win32,59.88023952,5f2c4bf4e4f3080e6a469fcc,67167c13dd87566d3602e731,67195dc9435e7e6c8247004d,,,,,,,,,,,,,,,,,,,,,,,,,,,10,,,,,,,,,,,,,,,,,,1,1,,,292.238,1,up,2.4646,294.7274,1.5,0.3,"[2,1,3]",0.013078482,stimuli/card_0_transparent.png,0,1,0,1,0,1,,,,,,,,,,
,,,,5f2c4bf4e4f3080e6a469fcc,C,2024-10-23_16h34.41.289,Slot Machine Game,2023.1.3,Win32,59.88023952,5f2c4bf4e4f3080e6a469fcc,67167c13dd87566d3602e731,67195dc9435e7e6c8247004d,,,,,,,,,,,,,,,,,,,,,,,,,,,10,,,,,,,,,,,,,,,,,,1,1,,,296.528,2,right,0.7845,297.3448,1.5,0.3,"[2,1,3]",0.717596702,stimuli/card_0_transparent.png,0,2,0,2,0,1,,,,,,,,,,
,,,,5f2c4bf4e4f3080e6a469fcc,C,2024-10-23_16h34.41.289,Slot Machine Game,2023.1.3,Win32,59.88023952,5f2c4bf4e4f3080e6a469fcc,67167c13dd87566d3602e731,67195dc9435e7e6c8247004d,,,,,,,,,,,,,,,,,,,,,,,,,,,20,,,,,,,,,,,,,,,,,,1,1,,,299.1451,3,left,1.5184,300.6959,1,0.3,"[2,1,3]",0.736961435,stimuli/card_10_transparent.png,10,3,0,3,0,1,,,,,,,,,,
,,,,5f2c4bf4e4f3080e6a469fcc,C,2024-10-23_16h34.41.289,Slot Machine Game,2023.1.3,Win32,59.88023952,5f2c4bf4e4f3080e6a469fcc,67167c13dd87566d3602e731,67195dc9435e7e6c8247004d,,,,,,,,,,,,,,,,,,,,,,,,,,,20,,,,,,,,,,,,,,,,,,1,1,,,301.9962,4,up,1.4809,303.4912,1,0.3,"[2,1,3]",0.033338336,stimuli/card_0_transparent.png,0,4,0,4,0,1,,,,,,,,,,
,,,,5f2c4bf4e4f3080e6a469fcc,C,2024-10-23_16h34.41.289,Slot Machine Game,2023.1.3,Win32,59.88023952,5f2c4bf4e4f3080e6a469fcc,67167c13dd87566d3602e731,67195dc9435e7e6c8247004d,,,,,,,,,,,,,,,,,,,,,,,,,,,20,,,,,,,,,,,,,,,,,,1,1,,,304.7806,5,right,0.6094,305.4092,0.5,0.3,"[2,1,3]",0.895686355,stimuli/card_0_transparent.png,0,5,0,5,0,1,,,,,,,,,,
,,,,5f2c4bf4e4f3080e6a469fcc,C,2024-10-23_16h34.41.289,Slot Machine Game,2023.1.3,Win32,59.88023952,5f2c4bf4e4f3080e6a469fcc,67167c13dd87566d3602e731,67195dc9435e7e6c8247004d,,,,,,,,,,,,,,,,,,,,,,,,,,,20,,,,,,,,,,,,,,,,,,1,1,,,306.1973,6,right,1.0353,307.2527,1.5,0.3,"[2,1,3]",0.969092606,stimuli/card_0_transparent.png,0,6,0,6,0,1,,,,,,,,,,
,,,,5f2c4bf4e4f3080e6a469fcc,C,2024-10-23_16h34.41.289,Slot Machine Game,2023.1.3,Win32,59.88023952,5f2c4bf4e4f3080e6a469fcc,67167c13dd87566d3602e731,67195dc9435e7e6c8247004d,,,,,,,,,,,,,,,,,,,,,,,,,,,120,,,,,,,,,,,,,,,,,,1,1,,,309.0318,7,up,0.6826,309.7273,0.5,0.3,"[2,1,3]",0.232137749,stimuli/card_100_transparent.png,100,7,0,7,0,1,,,,,,,,,,
,,,,5f2c4bf4e4f3080e6a469fcc,C,2024-10-23_16h34.41.289,Slot Machine Game,2023.1.3,Win32,59.88023952,5f2c4bf4e4f3080e6a469fcc,67167c13dd87566d3602e731,67195dc9435e7e6c8247004d,,,,,,,,,,,,,,,,,,,,,,,,,,,220,,,,,,,,,,,,,,,,,,1,1,,,310.5151,8,up,0.6862,311.2317,0.5,0.3,"[2,1,3]",0.305578142,stimuli/card_100_transparent.png,100,8,0,8,0,1,,,,,,,,,,
,,,,5f2c4bf4e4f3080e6a469fcc,C,2024-10-23_16h34.41.289,Slot Machine Game,2023.1.3,Win32,59.88023952,5f2c4bf4e4f3080e6a469fcc,67167c13dd87566d3602e731,67195dc9435e7e6c8247004d,,,,,,,,,,,,,,,,,,,,,,,,,,,320,,,,,,,,,,,,,,,,,,1,1,,,312.0318,9,up,0.7315,312.7822,1,0.3,"[2,1,3]",0.957902456,stimuli/card_100_transparent.png,100,9,0,9,0,1,,,,,,,,,,
,,,,5f2c4bf4e4f3080e6a469fcc,C,2024-10-23_16h34.41.289,Slot Machine Game,2023.1.3,Win32,59.88023952,5f2c4bf4e4f3080e6a469fcc,67167c13dd87566d3602e731,67195dc9435e7e6c8247004d,,,,,,,,,,,,,,,,,,,,,,,,,,,420,,,,,,,,,,,,,,,,,,1,1,,,314.0933,10,up,2.5693,316.6874,0.5,0.3,"[2,1,3]",0.806118154,stimuli/card_100_transparent.png,100,10,0,10,0,1,,,,,,,,,,
,,,,5f2c4bf4e4f3080e6a469fcc,C,2024-10-23_16h34.41.289,Slot Machine Game,2023.1.3,Win32,59.88023952,5f2c4bf4e4f3080e6a469fcc,67167c13dd87566d3602e731,67195dc9435e7e6c8247004d,,,,,,,,,,,,,,,,,,,,,,,,,,,520,,,,,,,,,,,,,,,,,,1,1,,,317.4675,11,up,0.6998,318.1789,1,0.3,"[2,1,3]",0.250040755,stimuli/card_100_transparent.png,100,11,0,11,0,1,,,,,,,,,,
,,,,5f2c4bf4e4f3080e6a469fcc,C,2024-10-23_16h34.41.289,Slot Machine Game,2023.1.3,Win32,59.88023952,5f2c4bf4e4f3080e6a469fcc,67167c13dd87566d3602e731,67195dc9435e7e6c8247004d,,,,,,,,,,,,,,,,,,,,,,,,,,,520,,,,,,,,,,,,,,,,,,1,1,,,319.469,12,up,1.2798,320.762,1.5,0.3,"[2,3,1]",0.515287548,stimuli/card_0_transparent.png,0,12,0,12,0,1,,,,,,,,,,
,,,,5f2c4bf4e4f3080e6a469fcc,C,2024-10-23_16h34.41.289,Slot Machine Game,2023.1.3,Win32,59.88023952,5f2c4bf4e4f3080e6a469fcc,67167c13dd87566d3602e731,67195dc9435e7e6c8247004d,,,,,,,,,,,,,,,,,,,,,,,,,,,520,,,,,,,,,,,,,,,,,,1,1,,,322.5625,13,up,0.9099,323.4966,1.5,0.3,"[2,3,1]",0.92354544,stimuli/card_0_transparent.png,0,13,0,13,0,1,,,,,,,,,,
,,,,5f2c4bf4e4f3080e6a469fcc,C,2024-10-23_16h34.41.289,Slot Machine Game,2023.1.3,Win32,59.88023952,5f2c4bf4e4f3080e6a469fcc,67167c13dd87566d3602e731,67195dc9435e7e6c8247004d,,,,,,,,,,,,,,,,,,,,,,,,,,,530,,,,,,,,,,,,,,,,,,1,1,,,325.2809,14,left,1.1353,326.4488,1.5,0.3,"[2,3,1]",0.866943468,stimuli/card_10_transparent.png,10,14,0,14,0,1,,,,,,,,,,
,,,,5f2c4bf4e4f3080e6a469fcc,C,2024-10-23_16h34.41.289,Slot Machine Game,2023.1.3,Win32,59.88023952,5f2c4bf4e4f3080e6a469fcc,67167c13dd87566d3602e731,67195dc9435e7e6c8247004d,,,,,,,,,,,,,,,,,,,,,,,,,,,,,,,,,,328.2482,,,,,,,,,,,,,,,,,,,,,,,,,,,,,,,[530],0,0,0,0,1,,,,
,,,,5f2c4bf4e4f3080e6a469fcc,C,2024-10-23_16h34.41.289,Slot Machine Game,2023.1.3,Win32,59.88023952,5f2c4bf4e4f3080e6a469fcc,67167c13dd87566d3602e731,67195dc9435e7e6c8247004d,,,,,,,,,,,,,,,,,,,,,,,,,,,100,,,,,,,,,,,,,,,,,,2,5,"[5,15]","[[1,2,3],[3,1,2]]",333.24,0,left,1.5808,334.8563,1.5,0.3,"[1,2,3]",0.581216304,stimuli/card_100_transparent.png,100,0,0,0,0,1,,,,,,,,,,
,,,,5f2c4bf4e4f3080e6a469fcc,C,2024-10-23_16h34.41.289,Slot Machine Game,2023.1.3,Win32,59.88023952,5f2c4bf4e4f3080e6a469fcc,67167c13dd87566d3602e731,67195dc9435e7e6c8247004d,,,,,,,,,,,,,,,,,,,,,,,,,,,100,,,,,,,,,,,,,,,,,,2,5,,,336.6569,1,left,0.6666,337.3565,0.5,0.3,"[1,2,3]",0.011847321,stimuli/card_0_transparent.png,0,1,0,1,0,1,,,,,,,,,,
,,,,5f2c4bf4e4f3080e6a469fcc,C,2024-10-23_16h34.41.289,Slot Machine Game,2023.1.3,Win32,59.88023952,5f2c4bf4e4f3080e6a469fcc,67167c13dd87566d3602e731,67195dc9435e7e6c8247004d,,,,,,,,,,,,,,,,,,,,,,,,,,,100,,,,,,,,,,,,,,,,,,2,5,,,338.1573,2,left,0.789,338.9747,1,0.3,"[1,2,3]",0.098124232,stimuli/card_0_transparent.png,0,2,0,2,0,1,,,,,,,,,,
,,,,5f2c4bf4e4f3080e6a469fcc,C,2024-10-23_16h34.41.289,Slot Machine Game,2023.1.3,Win32,59.88023952,5f2c4bf4e4f3080e6a469fcc,67167c13dd87566d3602e731,67195dc9435e7e6c8247004d,,,,,,,,,,,,,,,,,,,,,,,,,,,110,,,,,,,,,,,,,,,,,,2,5,,,340.2746,3,up,1.0511,341.3584,0.5,0.3,"[1,2,3]",0.728656487,stimuli/card_10_transparent.png,10,3,0,3,0,1,,,,,,,,,,
,,,,5f2c4bf4e4f3080e6a469fcc,C,2024-10-23_16h34.41.289,Slot Machine Game,2023.1.3,Win32,59.88023952,5f2c4bf4e4f3080e6a469fcc,67167c13dd87566d3602e731,67195dc9435e7e6c8247004d,,,,,,,,,,,,,,,,,,,,,,,,,,,110,,,,,,,,,,,,,,,,,,2,5,,,342.1585,4,right,1.7199,343.9091,0.5,0.3,"[1,2,3]",0.465421077,stimuli/card_0_transparent.png,0,4,0,4,0,1,,,,,,,,,,
,,,,5f2c4bf4e4f3080e6a469fcc,C,2024-10-23_16h34.41.289,Slot Machine Game,2023.1.3,Win32,59.88023952,5f2c4bf4e4f3080e6a469fcc,67167c13dd87566d3602e731,67195dc9435e7e6c8247004d,,,,,,,,,,,,,,,,,,,,,,,,,,,120,,,,,,,,,,,,,,,,,,2,5,,,344.7093,5,up,1.3928,346.1269,1.5,0.3,"[3,1,2]",0.189524,stimuli/card_10_transparent.png,10,5,0,5,0,1,,,,,,,,,,
,,,,5f2c4bf4e4f3080e6a469fcc,C,2024-10-23_16h34.41.289,Slot Machine Game,2023.1.3,Win32,59.88023952,5f2c4bf4e4f3080e6a469fcc,67167c13dd87566d3602e731,67195dc9435e7e6c8247004d,,,,,,,,,,,,,,,,,,,,,,,,,,,130,,,,,,,,,,,,,,,,,,2,5,,,347.927,6,right,0.7102,348.6653,0.5,0.3,"[3,1,2]",0.402177484,stimuli/card_10_transparent.png,10,6,0,6,0,1,,,,,,,,,,
,,,,5f2c4bf4e4f3080e6a469fcc,C,2024-10-23_16h34.41.289,Slot Machine Game,2023.1.3,Win32,59.88023952,5f2c4bf4e4f3080e6a469fcc,67167c13dd87566d3602e731,67195dc9435e7e6c8247004d,,,,,,,,,,,,,,,,,,,,,,,,,,,130,,,,,,,,,,,,,,,,,,2,5,,,349.4608,7,left,1.0018,350.4947,0.5,0.3,"[3,1,2]",0.207060946,stimuli/card_0_transparent.png,0,7,0,7,0,1,,,,,,,,,,
,,,,5f2c4bf4e4f3080e6a469fcc,C,2024-10-23_16h34.41.289,Slot Machine Game,2023.1.3,Win32,59.88023952,5f2c4bf4e4f3080e6a469fcc,67167c13dd87566d3602e731,67195dc9435e7e6c8247004d,,,,,,,,,,,,,,,,,,,,,,,,,,,230,,,,,,,,,,,,,,,,,,2,5,,,351.2947,8,up,0.9513,352.2783,0.5,0.3,"[3,1,2]",0.792139993,stimuli/card_100_transparent.png,100,8,0,8,0,1,,,,,,,,,,
,,,,5f2c4bf4e4f3080e6a469fcc,C,2024-10-23_16h34.41.289,Slot Machine Game,2023.1.3,Win32,59.88023952,5f2c4bf4e4f3080e6a469fcc,67167c13dd87566d3602e731,67195dc9435e7e6c8247004d,,,,,,,,,,,,,,,,,,,,,,,,,,,330,,,,,,,,,,,,,,,,,,2,5,,,353.0785,9,up,0.8428,353.9405,1,0.3,"[3,1,2]",0.725242258,stimuli/card_100_transparent.png,100,9,0,9,0,1,,,,,,,,,,
,,,,5f2c4bf4e4f3080e6a469fcc,C,2024-10-23_16h34.41.289,Slot Machine Game,2023.1.3,Win32,59.88023952,5f2c4bf4e4f3080e6a469fcc,67167c13dd87566d3602e731,67195dc9435e7e6c8247004d,,,,,,,,,,,,,,,,,,,,,,,,,,,430,,,,,,,,,,,,,,,,,,2,5,,,355.2225,10,up,0.5433,355.7733,1,0.3,"[3,1,2]",0.444587638,stimuli/card_100_transparent.png,100,10,0,10,0,1,,,,,,,,,,
,,,,5f2c4bf4e4f3080e6a469fcc,C,2024-10-23_16h34.41.289,Slot Machine Game,2023.1.3,Win32,59.88023952,5f2c4bf4e4f3080e6a469fcc,67167c13dd87566d3602e731,67195dc9435e7e6c8247004d,,,,,,,,,,,,,,,,,,,,,,,,,,,530,,,,,,,,,,,,,,,,,,2,5,,,357.0629,11,up,0.5511,357.6466,1,0.3,"[3,1,2]",0.528628032,stimuli/card_100_transparent.png,100,11,0,11,0,1,,,,,,,,,,
,,,,5f2c4bf4e4f3080e6a469fcc,C,2024-10-23_16h34.41.289,Slot Machine Game,2023.1.3,Win32,59.88023952,5f2c4bf4e4f3080e6a469fcc,67167c13dd87566d3602e731,67195dc9435e7e6c8247004d,,,,,,,,,,,,,,,,,,,,,,,,,,,530,,,,,,,,,,,,,,,,,,2,5,,,358.9464,12,up,0.5515,359.5299,1,0.3,"[3,1,2]",0.051050082,stimuli/card_0_transparent.png,0,12,0,12,0,1,,,,,,,,,,
,,,,5f2c4bf4e4f3080e6a469fcc,C,2024-10-23_16h34.41.289,Slot Machine Game,2023.1.3,Win32,59.88023952,5f2c4bf4e4f3080e6a469fcc,67167c13dd87566d3602e731,67195dc9435e7e6c8247004d,,,,,,,,,,,,,,,,,,,,,,,,,,,540,,,,,,,,,,,,,,,,,,2,5,,,360.8304,13,up,0.5177,361.3804,0.5,0.3,"[3,1,2]",0.144558673,stimuli/card_10_transparent.png,10,13,0,13,0,1,,,,,,,,,,
,,,,5f2c4bf4e4f3080e6a469fcc,C,2024-10-23_16h34.41.289,Slot Machine Game,2023.1.3,Win32,59.88023952,5f2c4bf4e4f3080e6a469fcc,67167c13dd87566d3602e731,67195dc9435e7e6c8247004d,,,,,,,,,,,,,,,,,,,,,,,,,,,640,,,,,,,,,,,,,,,,,,2,5,,,362.1807,14,up,0.684,362.8975,1,0.3,"[3,1,2]",0.640505676,stimuli/card_100_transparent.png,100,14,0,14,0,1,,,,,,,,,,
,,,,5f2c4bf4e4f3080e6a469fcc,C,2024-10-23_16h34.41.289,Slot Machine Game,2023.1.3,Win32,59.88023952,5f2c4bf4e4f3080e6a469fcc,67167c13dd87566d3602e731,67195dc9435e7e6c8247004d,,,,,,,,,,,,,,,,,,,,,,,,,,,,,,,,,,364.1935,,,,,,,,,,,,,,,,,,,,,,,,,,,,,,,"[530,640]",1,0,1,0,1,,,,
,,,,5f2c4bf4e4f3080e6a469fcc,C,2024-10-23_16h34.41.289,Slot Machine Game,2023.1.3,Win32,59.88023952,5f2c4bf4e4f3080e6a469fcc,67167c13dd87566d3602e731,67195dc9435e7e6c8247004d,,,,,,,,,,,,,,,,,,,,,,,,,,,100,,,,,,,,,,,,,,,,,,3,7,"[9,15]","[[1,3,2],[2,3,1]]",369.1898,0,left,1.6938,370.8957,1,0.3,"[1,3,2]",0.307052427,stimuli/card_100_transparent.png,100,0,0,0,0,1,,,,,,,,,,
,,,,5f2c4bf4e4f3080e6a469fcc,C,2024-10-23_16h34.41.289,Slot Machine Game,2023.1.3,Win32,59.88023952,5f2c4bf4e4f3080e6a469fcc,67167c13dd87566d3602e731,67195dc9435e7e6c8247004d,,,,,,,,,,,,,,,,,,,,,,,,,,,100,,,,,,,,,,,,,,,,,,3,7,,,372.1837,1,left,0.8543,373.0514,1.5,0.3,"[1,3,2]",0.025470369,stimuli/card_0_transparent.png,0,1,0,1,0,1,,,,,,,,,,
,,,,5f2c4bf4e4f3080e6a469fcc,C,2024-10-23_16h34.41.289,Slot Machine Game,2023.1.3,Win32,59.88023952,5f2c4bf4e4f3080e6a469fcc,67167c13dd87566d3602e731,67195dc9435e7e6c8247004d,,,,,,,,,,,,,,,,,,,,,,,,,,,110,,,,,,,,,,,,,,,,,,3,7,,,374.8519,2,left,0.6017,375.4859,0.5,0.3,"[1,3,2]",0.193354515,stimuli/card_10_transparent.png,10,2,0,2,0,1,,,,,,,,,,
,,,,5f2c4bf4e4f3080e6a469fcc,C,2024-10-23_16h34.41.289,Slot Machine Game,2023.1.3,Win32,59.88023952,5f2c4bf4e4f3080e6a469fcc,67167c13dd87566d3602e731,67195dc9435e7e6c8247004d,,,,,,,,,,,,,,,,,,,,,,,,,,,210,,,,,,,,,,,,,,,,,,3,7,,,376.2799,3,left,0.9181,377.2193,1,0.3,"[1,3,2]",0.430313194,stimuli/card_100_transparent.png,100,3,0,3,0,1,,,,,,,,,,
,,,,5f2c4bf4e4f3080e6a469fcc,C,2024-10-23_16h34.41.289,Slot Machine Game,2023.1.3,Win32,59.88023952,5f2c4bf4e4f3080e6a469fcc,67167c13dd87566d3602e731,67195dc9435e7e6c8247004d,,,,,,,,,,,,,,,,,,,,,,,,,,,210,,,,,,,,,,,,,,,,,,3,7,,,378.5307,4,left,0.8313,379.3816,1.5,0.3,"[1,3,2]",0.067177852,stimuli/card_0_transparent.png,0,4,0,4,0,1,,,,,,,,,,
,,,,5f2c4bf4e4f3080e6a469fcc,C,2024-10-23_16h34.41.289,Slot Machine Game,2023.1.3,Win32,59.88023952,5f2c4bf4e4f3080e6a469fcc,67167c13dd87566d3602e731,67195dc9435e7e6c8247004d,,,,,,,,,,,,,,,,,,,,,,,,,,,210,,,,,,,,,,,,,,,,,,3,7,,,381.1647,5,left,1.0518,382.2379,1,0.3,"[1,3,2]",0.005323923,stimuli/card_0_transparent.png,0,5,0,5,0,1,,,,,,,,,,
,,,,5f2c4bf4e4f3080e6a469fcc,C,2024-10-23_16h34.41.289,Slot Machine Game,2023.1.3,Win32,59.88023952,5f2c4bf4e4f3080e6a469fcc,67167c13dd87566d3602e731,67195dc9435e7e6c8247004d,,,,,,,,,,,,,,,,,,,,,,,,,,,210,,,,,,,,,,,,,,,,,,3,7,,,383.5377,6,up,0.9166,384.4665,1,0.3,"[1,3,2]",0.233851827,stimuli/card_0_transparent.png,0,6,0,6,0,1,,,,,,,,,,
,,,,5f2c4bf4e4f3080e6a469fcc,C,2024-10-23_16h34.41.289,Slot Machine Game,2023.1.3,Win32,59.88023952,5f2c4bf4e4f3080e6a469fcc,67167c13dd87566d3602e731,67195dc9435e7e6c8247004d,,,,,,,,,,,,,,,,,,,,,,,,,,,220,,,,,,,,,,,,,,,,,,3,7,,,385.7557,7,right,1.6682,387.4675,1,0.3,"[1,3,2]",0.540985123,stimuli/card_10_transparent.png,10,7,0,7,0,1,,,,,,,,,,
,,,,5f2c4bf4e4f3080e6a469fcc,C,2024-10-23_16h34.41.289,Slot Machine Game,2023.1.3,Win32,59.88023952,5f2c4bf4e4f3080e6a469fcc,67167c13dd87566d3602e731,67195dc9435e7e6c8247004d,,,,,,,,,,,,,,,,,,,,,,,,,,,230,,,,,,,,,,,,,,,,,,3,7,,,388.751,8,right,0.9926,389.7681,0.5,0.3,"[1,3,2]",0.590429705,stimuli/card_10_transparent.png,10,8,0,8,0,1,,,,,,,,,,
,,,,5f2c4bf4e4f3080e6a469fcc,C,2024-10-23_16h34.41.289,Slot Machine Game,2023.1.3,Win32,59.88023952,5f2c4bf4e4f3080e6a469fcc,67167c13dd87566d3602e731,67195dc9435e7e6c8247004d,,,,,,,,,,,,,,,,,,,,,,,,,,,230,,,,,,,,,,,,,,,,,,3,7,,,390.5559,9,up,0.564,391.1404,1,0.3,"[2,3,1]",0.483087732,stimuli/card_0_transparent.png,0,9,0,9,0,1,,,,,,,,,,
,,,,5f2c4bf4e4f3080e6a469fcc,C,2024-10-23_16h34.41.289,Slot Machine Game,2023.1.3,Win32,59.88023952,5f2c4bf4e4f3080e6a469fcc,67167c13dd87566d3602e731,67195dc9435e7e6c8247004d,,,,,,,,,,,,,,,,,,,,,,,,,,,240,,,,,,,,,,,,,,,,,,3,7,,,392.4405,10,left,1.6644,394.1414,1,0.3,"[2,3,1]",0.623700573,stimuli/card_10_transparent.png,10,10,0,10,0,1,,,,,,,,,,
,,,,5f2c4bf4e4f3080e6a469fcc,C,2024-10-23_16h34.41.289,Slot Machine Game,2023.1.3,Win32,59.88023952,5f2c4bf4e4f3080e6a469fcc,67167c13dd87566d3602e731,67195dc9435e7e6c8247004d,,,,,,,,,,,,,,,,,,,,,,,,,,,240,,,,,,,,,,,,,,,,,,3,7,,,395.4407,11,up,0.6387,396.092,1,0.3,"[2,3,1]",0.834297154,stimuli/card_0_transparent.png,0,11,0,11,0,1,,,,,,,,,,
,,,,5f2c4bf4e4f3080e6a469fcc,C,2024-10-23_16h34.41.289,Slot Machine Game,2023.1.3,Win32,59.88023952,5f2c4bf4e4f3080e6a469fcc,67167c13dd87566d3602e731,67195dc9435e7e6c8247004d,,,,,,,,,,,,,,,,,,,,,,,,,,,240,,,,,,,,,,,,,,,,,,3,7,,,397.3921,12,up,0.6307,398.0591,1.5,0.3,"[2,3,1]",0.768929704,stimuli/card_0_transparent.png,0,12,0,12,0,1,,,,,,,,,,
,,,,5f2c4bf4e4f3080e6a469fcc,C,2024-10-23_16h34.41.289,Slot Machine Game,2023.1.3,Win32,59.88023952,5f2c4bf4e4f3080e6a469fcc,67167c13dd87566d3602e731,67195dc9435e7e6c8247004d,,,,,,,,,,,,,,,,,,,,,,,,,,,340,,,,,,,,,,,,,,,,,,3,7,,,399.8589,13,right,0.6017,400.4929,0.5,0.3,"[2,3,1]",0.526085911,stimuli/card_100_transparent.png,100,13,0,13,0,1,,,,,,,,,,
,,,,5f2c4bf4e4f3080e6a469fcc,C,2024-10-23_16h34.41.289,Slot Machine Game,2023.1.3,Win32,59.88023952,5f2c4bf4e4f3080e6a469fcc,67167c13dd87566d3602e731,67195dc9435e7e6c8247004d,,,,,,,,,,,,,,,,,,,,,,,,,,,350,,,,,,,,,,,,,,,,,,3,7,,,401.2934,14,right,0.6012,401.9386,1,0.3,"[2,3,1]",0.129772447,stimuli/card_10_transparent.png,10,14,0,14,0,1,,,,,,,,,,
,,,,5f2c4bf4e4f3080e6a469fcc,C,2024-10-23_16h34.41.289,Slot Machine Game,2023.1.3,Win32,59.88023952,5f2c4bf4e4f3080e6a469fcc,67167c13dd87566d3602e731,67195dc9435e7e6c8247004d,,,,,,,,,,,,,,,,,,,,,,,,,,,,,,,,,,403.2274,,,,,,,,,,,,,,,,,,,,,,,,,,,,,,,"[530,640,350]",2,0,2,0,1,,,,
,,,,5f2c4bf4e4f3080e6a469fcc,C,2024-10-23_16h34.41.289,Slot Machine Game,2023.1.3,Win32,59.88023952,5f2c4bf4e4f3080e6a469fcc,67167c13dd87566d3602e731,67195dc9435e7e6c8247004d,,,,,,,,,,,,,,,,,,,,,,,,,,,10,,,,,,,,,,,,,,,,,,4,4,"[7,15]","[[2,3,1],[1,2,3]]",408.2241,0,left,0.7976,409.0408,0.5,0.3,"[2,3,1]",0.353111434,stimuli/card_10_transparent.png,10,0,0,0,0,1,,,,,,,,,,
,,,,5f2c4bf4e4f3080e6a469fcc,C,2024-10-23_16h34.41.289,Slot Machine Game,2023.1.3,Win32,59.88023952,5f2c4bf4e4f3080e6a469fcc,67167c13dd87566d3602e731,67195dc9435e7e6c8247004d,,,,,,,,,,,,,,,,,,,,,,,,,,,20,,,,,,,,,,,,,,,,,,4,4,,,409.8292,1,left,1.3346,411.18,1.5,0.3,"[2,3,1]",0.984350216,stimuli/card_10_transparent.png,10,1,0,1,0,1,,,,,,,,,,
,,,,5f2c4bf4e4f3080e6a469fcc,C,2024-10-23_16h34.41.289,Slot Machine Game,2023.1.3,Win32,59.88023952,5f2c4bf4e4f3080e6a469fcc,67167c13dd87566d3602e731,67195dc9435e7e6c8247004d,,,,,,,,,,,,,,,,,,,,,,,,,,,20,,,,,,,,,,,,,,,,,,4,4,,,412.9637,2,up,0.6518,413.6474,1.5,0.3,"[2,3,1]",0.529775576,stimuli/card_0_transparent.png,0,2,0,2,0,1,,,,,,,,,,
,,,,5f2c4bf4e4f3080e6a469fcc,C,2024-10-23_16h34.41.289,Slot Machine Game,2023.1.3,Win32,59.88023952,5f2c4bf4e4f3080e6a469fcc,67167c13dd87566d3602e731,67195dc9435e7e6c8247004d,,,,,,,,,,,,,,,,,,,,,,,,,,,20,,,,,,,,,,,,,,,,,,4,4,,,415.4469,3,up,0.9014,416.3648,1.5,0.3,"[2,3,1]",0.885719013,stimuli/card_0_transparent.png,0,3,0,3,0,1,,,,,,,,,,
,,,,5f2c4bf4e4f3080e6a469fcc,C,2024-10-23_16h34.41.289,Slot Machine Game,2023.1.3,Win32,59.88023952,5f2c4bf4e4f3080e6a469fcc,67167c13dd87566d3602e731,67195dc9435e7e6c8247004d,,,,,,,,,,,,,,,,,,,,,,,,,,,120,,,,,,,,,,,,,,,,,,4,4,,,418.1646,4,right,1.2203,419.3987,0.5,0.3,"[2,3,1]",0.238322246,stimuli/card_100_transparent.png,100,4,0,4,0,1,,,,,,,,,,
,,,,5f2c4bf4e4f3080e6a469fcc,C,2024-10-23_16h34.41.289,Slot Machine Game,2023.1.3,Win32,59.88023952,5f2c4bf4e4f3080e6a469fcc,67167c13dd87566d3602e731,67195dc9435e7e6c8247004d,,,,,,,,,,,,,,,,,,,,,,,,,,,220,,,,,,,,,,,,,,,,,,4,4,,,420.1992,5,right,0.5345,420.7665,0.5,0.3,"[2,3,1]",0.720828256,stimuli/card_100_transparent.png,100,5,0,5,0,1,,,,,,,,,,
,,,,5f2c4bf4e4f3080e6a469fcc,C,2024-10-23_16h34.41.289,Slot Machine Game,2023.1.3,Win32,59.88023952,5f2c4bf4e4f3080e6a469fcc,67167c13dd87566d3602e731,67195dc9435e7e6c8247004d,,,,,,,,,,,,,,,,,,,,,,,,,,,320,,,,,,,,,,,,,,,,,,4,4,,,421.5663,6,right,0.5348,422.1325,1,0.3,"[2,3,1]",0.280933211,stimuli/card_100_transparent.png,100,6,0,6,0,1,,,,,,,,,,
,,,,5f2c4bf4e4f3080e6a469fcc,C,2024-10-23_16h34.41.289,Slot Machine Game,2023.1.3,Win32,59.88023952,5f2c4bf4e4f3080e6a469fcc,67167c13dd87566d3602e731,67195dc9435e7e6c8247004d,,,,,,,,,,,,,,,,,,,,,,,,,,,420,,,,,,,,,,,,,,,,,,4,4,,,423.4335,7,right,1.9351,425.3843,1,0.3,"[1,2,3]",0.021810197,stimuli/card_100_transparent.png,100,7,0,7,0,1,,,,,,,,,,
,,,,5f2c4bf4e4f3080e6a469fcc,C,2024-10-23_16h34.41.289,Slot Machine Game,2023.1.3,Win32,59.88023952,5f2c4bf4e4f3080e6a469fcc,67167c13dd87566d3602e731,67195dc9435e7e6c8247004d,,,,,,,,,,,,,,,,,,,,,,,,,,,430,,,,,,,,,,,,,,,,,,4,4,,,426.6846,8,right,0.6851,427.4016,1,0.3,"[1,2,3]",0.184228377,stimuli/card_10_transparent.png,10,8,0,8,0,1,,,,,,,,,,
,,,,5f2c4bf4e4f3080e6a469fcc,C,2024-10-23_16h34.41.289,Slot Machine Game,2023.1.3,Win32,59.88023952,5f2c4bf4e4f3080e6a469fcc,67167c13dd87566d3602e731,67195dc9435e7e6c8247004d,,,,,,,,,,,,,,,,,,,,,,,,,,,430,,,,,,,,,,,,,,,,,,4,4,,,428.7019,9,right,0.6177,429.3517,1,0.3,"[1,2,3]",0.937634381,stimuli/card_0_transparent.png,0,9,0,9,0,1,,,,,,,,,,
,,,,5f2c4bf4e4f3080e6a469fcc,C,2024-10-23_16h34.41.289,Slot Machine Game,2023.1.3,Win32,59.88023952,5f2c4bf4e4f3080e6a469fcc,67167c13dd87566d3602e731,67195dc9435e7e6c8247004d,,,,,,,,,,,,,,,,,,,,,,,,,,,530,,,,,,,,,,,,,,,,,,4,4,,,430.6525,10,right,0.8181,431.5029,1.5,0.3,"[1,2,3]",0.069489282,stimuli/card_100_transparent.png,100,10,0,10,0,1,,,,,,,,,,
,,,,5f2c4bf4e4f3080e6a469fcc,C,2024-10-23_16h34.41.289,Slot Machine Game,2023.1.3,Win32,59.88023952,5f2c4bf4e4f3080e6a469fcc,67167c13dd87566d3602e731,67195dc9435e7e6c8247004d,,,,,,,,,,,,,,,,,,,,,,,,,,,530,,,,,,,,,,,,,,,,,,4,4,,,433.3032,11,right,0.8008,434.1364,1,0.3,"[1,2,3]",0.685415376,stimuli/card_0_transparent.png,0,11,0,11,0,1,,,,,,,,,,
,,,,5f2c4bf4e4f3080e6a469fcc,C,2024-10-23_16h34.41.289,Slot Machine Game,2023.1.3,Win32,59.88023952,5f2c4bf4e4f3080e6a469fcc,67167c13dd87566d3602e731,67195dc9435e7e6c8247004d,,,,,,,,,,,,,,,,,,,,,,,,,,,530,,,,,,,,,,,,,,,,,,4,4,,,435.437,12,right,0.6342,436.1039,1,0.3,"[1,2,3]",0.900661971,stimuli/card_0_transparent.png,0,12,0,12,0,1,,,,,,,,,,
,,,,5f2c4bf4e4f3080e6a469fcc,C,2024-10-23_16h34.41.289,Slot Machine Game,2023.1.3,Win32,59.88023952,5f2c4bf4e4f3080e6a469fcc,67167c13dd87566d3602e731,67195dc9435e7e6c8247004d,,,,,,,,,,,,,,,,,,,,,,,,,,,540,,,,,,,,,,,,,,,,,,4,4,,,437.4048,13,up,1.2891,438.7221,1,0.3,"[1,2,3]",0.901025583,stimuli/card_10_transparent.png,10,13,0,13,0,1,,,,,,,,,,
,,,,5f2c4bf4e4f3080e6a469fcc,C,2024-10-23_16h34.41.289,Slot Machine Game,2023.1.3,Win32,59.88023952,5f2c4bf4e4f3080e6a469fcc,67167c13dd87566d3602e731,67195dc9435e7e6c8247004d,,,,,,,,,,,,,,,,,,,,,,,,,,,640,,,,,,,,,,,,,,,,,,4,4,,,440.0217,14,up,1.0336,441.0721,1,0.3,"[1,2,3]",0.114703128,stimuli/card_100_transparent.png,100,14,0,14,0,1,,,,,,,,,,
,,,,5f2c4bf4e4f3080e6a469fcc,C,2024-10-23_16h34.41.289,Slot Machine Game,2023.1.3,Win32,59.88023952,5f2c4bf4e4f3080e6a469fcc,67167c13dd87566d3602e731,67195dc9435e7e6c8247004d,,,,,,,,,,,,,,,,,,,,,,,,,,,,,,,,,,442.3726,,,,,,,,,,,,,,,,,,,,,,,,,,,,,,,"[530,640,350,640]",3,0,3,0,1,,,,
,,,,5f2c4bf4e4f3080e6a469fcc,C,2024-10-23_16h34.41.289,Slot Machine Game,2023.1.3,Win32,59.88023952,5f2c4bf4e4f3080e6a469fcc,67167c13dd87566d3602e731,67195dc9435e7e6c8247004d,,,,,,,,,,,,,,,,,,,,,,,,,,,10,,,,,,,,,,,,,,,,,,5,6,"[4,10,15]","[[2,3,1],[1,3,2],[3,2,1]]",447.3762,0,left,1.0502,448.4574,0.5,0.3,"[2,3,1]",0.93818626,stimuli/card_10_transparent.png,10,0,0,0,0,1,,,,,,,,,,
,,,,5f2c4bf4e4f3080e6a469fcc,C,2024-10-23_16h34.41.289,Slot Machine Game,2023.1.3,Win32,59.88023952,5f2c4bf4e4f3080e6a469fcc,67167c13dd87566d3602e731,67195dc9435e7e6c8247004d,,,,,,,,,,,,,,,,,,,,,,,,,,,10,,,,,,,,,,,,,,,,,,5,6,,,449.2586,1,up,1.7689,451.0592,1.5,0.3,"[2,3,1]",0.421221654,stimuli/card_0_transparent.png,0,1,0,1,0,1,,,,,,,,,,
,,,,5f2c4bf4e4f3080e6a469fcc,C,2024-10-23_16h34.41.289,Slot Machine Game,2023.1.3,Win32,59.88023952,5f2c4bf4e4f3080e6a469fcc,67167c13dd87566d3602e731,67195dc9435e7e6c8247004d,,,,,,,,,,,,,,,,,,,,,,,,,,,110,,,,,,,,,,,,,,,,,,5,6,,,452.86,2,right,0.7848,453.6767,0.5,0.3,"[2,3,1]",0.517166843,stimuli/card_100_transparent.png,100,2,0,2,0,1,,,,,,,,,,
,,,,5f2c4bf4e4f3080e6a469fcc,C,2024-10-23_16h34.41.289,Slot Machine Game,2023.1.3,Win32,59.88023952,5f2c4bf4e4f3080e6a469fcc,67167c13dd87566d3602e731,67195dc9435e7e6c8247004d,,,,,,,,,,,,,,,,,,,,,,,,,,,210,,,,,,,,,,,,,,,,,,5,6,,,454.4767,3,right,0.623,455.1282,0.5,0.3,"[2,3,1]",0.212627405,stimuli/card_100_transparent.png,100,3,0,3,0,1,,,,,,,,,,
,,,,5f2c4bf4e4f3080e6a469fcc,C,2024-10-23_16h34.41.289,Slot Machine Game,2023.1.3,Win32,59.88023952,5f2c4bf4e4f3080e6a469fcc,67167c13dd87566d3602e731,67195dc9435e7e6c8247004d,,,,,,,,,,,,,,,,,,,,,,,,,,,220,,,,,,,,,,,,,,,,,,5,6,,,455.9272,4,right,0.7347,456.6943,1,0.3,"[1,3,2]",0.562277213,stimuli/card_10_transparent.png,10,4,0,4,0,1,,,,,,,,,,
,,,,5f2c4bf4e4f3080e6a469fcc,C,2024-10-23_16h34.41.289,Slot Machine Game,2023.1.3,Win32,59.88023952,5f2c4bf4e4f3080e6a469fcc,67167c13dd87566d3602e731,67195dc9435e7e6c8247004d,,,,,,,,,,,,,,,,,,,,,,,,,,,230,,,,,,,,,,,,,,,,,,5,6,,,457.994,5,right,0.5847,458.5949,0.5,0.3,"[1,3,2]",0.631450781,stimuli/card_10_transparent.png,10,5,0,5,0,1,,,,,,,,,,
,,,,5f2c4bf4e4f3080e6a469fcc,C,2024-10-23_16h34.41.289,Slot Machine Game,2023.1.3,Win32,59.88023952,5f2c4bf4e4f3080e6a469fcc,67167c13dd87566d3602e731,67195dc9435e7e6c8247004d,,,,,,,,,,,,,,,,,,,,,,,,,,,240,,,,,,,,,,,,,,,,,,5,6,,,459.3949,6,right,0.6849,460.112,1.5,0.3,"[1,3,2]",0.211206098,stimuli/card_10_transparent.png,10,6,0,6,0,1,,,,,,,,,,
,,,,5f2c4bf4e4f3080e6a469fcc,C,2024-10-23_16h34.41.289,Slot Machine Game,2023.1.3,Win32,59.88023952,5f2c4bf4e4f3080e6a469fcc,67167c13dd87566d3602e731,67195dc9435e7e6c8247004d,,,,,,,,,,,,,,,,,,,,,,,,,,,240,,,,,,,,,,,,,,,,,,5,6,,,461.9124,7,up,0.9681,462.9129,1,0.3,"[1,3,2]",0.527520191,stimuli/card_0_transparent.png,0,7,0,7,0,1,,,,,,,,,,
,,,,5f2c4bf4e4f3080e6a469fcc,C,2024-10-23_16h34.41.289,Slot Machine Game,2023.1.3,Win32,59.88023952,5f2c4bf4e4f3080e6a469fcc,67167c13dd87566d3602e731,67195dc9435e7e6c8247004d,,,,,,,,,,,,,,,,,,,,,,,,,,,340,,,,,,,,,,,,,,,,,,5,6,,,464.2131,8,left,0.869,465.1135,1,0.3,"[1,3,2]",0.994321947,stimuli/card_100_transparent.png,100,8,0,8,0,1,,,,,,,,,,
,,,,5f2c4bf4e4f3080e6a469fcc,C,2024-10-23_16h34.41.289,Slot Machine Game,2023.1.3,Win32,59.88023952,5f2c4bf4e4f3080e6a469fcc,67167c13dd87566d3602e731,67195dc9435e7e6c8247004d,,,,,,,,,,,,,,,,,,,,,,,,,,,350,,,,,,,,,,,,,,,,,,5,6,,,466.4138,9,left,0.501,466.9474,1.5,0.3,"[1,3,2]",0.189495619,stimuli/card_10_transparent.png,10,9,0,9,0,1,,,,,,,,,,
,,,,5f2c4bf4e4f3080e6a469fcc,C,2024-10-23_16h34.41.289,Slot Machine Game,2023.1.3,Win32,59.88023952,5f2c4bf4e4f3080e6a469fcc,67167c13dd87566d3602e731,67195dc9435e7e6c8247004d,,,,,,,,,,,,,,,,,,,,,,,,,,,450,,,,,,,,,,,,,,,,,,5,6,,,468.7479,10,left,1.1186,469.8983,0.5,0.3,"[3,2,1]",0.064041265,stimuli/card_100_transparent.png,100,10,0,10,0,1,,,,,,,,,,
,,,,5f2c4bf4e4f3080e6a469fcc,C,2024-10-23_16h34.41.289,Slot Machine Game,2023.1.3,Win32,59.88023952,5f2c4bf4e4f3080e6a469fcc,67167c13dd87566d3602e731,67195dc9435e7e6c8247004d,,,,,,,,,,,,,,,,,,,,,,,,,,,450,,,,,,,,,,,,,,,,,,5,6,,,470.6984,11,left,0.8513,471.5657,0.5,0.3,"[3,2,1]",0.487251308,stimuli/card_0_transparent.png,0,11,0,11,0,1,,,,,,,,,,
,,,,5f2c4bf4e4f3080e6a469fcc,C,2024-10-23_16h34.41.289,Slot Machine Game,2023.1.3,Win32,59.88023952,5f2c4bf4e4f3080e6a469fcc,67167c13dd87566d3602e731,67195dc9435e7e6c8247004d,,,,,,,,,,,,,,,,,,,,,,,,,,,450,,,,,,,,,,,,,,,,,,5,6,,,472.3657,12,left,0.6848,473.0829,0.5,0.3,"[3,2,1]",0.957812984,stimuli/card_0_transparent.png,0,12,0,12,0,1,,,,,,,,,,
,,,,5f2c4bf4e4f3080e6a469fcc,C,2024-10-23_16h34.41.289,Slot Machine Game,2023.1.3,Win32,59.88023952,5f2c4bf4e4f3080e6a469fcc,67167c13dd87566d3602e731,67195dc9435e7e6c8247004d,,,,,,,,,,,,,,,,,,,,,,,,,,,460,,,,,,,,,,,,,,,,,,5,6,,,473.8828,13,up,0.6516,474.5664,0.5,0.3,"[3,2,1]",0.504250184,stimuli/card_10_transparent.png,10,13,0,13,0,1,,,,,,,,,,
,,,,5f2c4bf4e4f3080e6a469fcc,C,2024-10-23_16h34.41.289,Slot Machine Game,2023.1.3,Win32,59.88023952,5f2c4bf4e4f3080e6a469fcc,67167c13dd87566d3602e731,67195dc9435e7e6c8247004d,,,,,,,,,,,,,,,,,,,,,,,,,,,470,,,,,,,,,,,,,,,,,,5,6,,,475.3656,14,up,0.9014,476.2837,1,0.3,"[3,2,1]",0.366328063,stimuli/card_10_transparent.png,10,14,0,14,0,1,,,,,,,,,,
,,,,5f2c4bf4e4f3080e6a469fcc,C,2024-10-23_16h34.41.289,Slot Machine Game,2023.1.3,Win32,59.88023952,5f2c4bf4e4f3080e6a469fcc,67167c13dd87566d3602e731,67195dc9435e7e6c8247004d,,,,,,,,,,,,,,,,,,,,,,,,,,,,,,,,,,477.5831,,,,,,,,,,,,,,,,,,,,,,,,,,,,,,,"[530,640,350,640,470]",4,0,4,0,1,,,,
,,,,5f2c4bf4e4f3080e6a469fcc,C,2024-10-23_16h34.41.289,Slot Machine Game,2023.1.3,Win32,59.88023952,5f2c4bf4e4f3080e6a469fcc,67167c13dd87566d3602e731,67195dc9435e7e6c8247004d,,,,,,,,,,,,,,,,,,,,,,,,,,,10,,,,,,,,,,,,,,,,,,6,8,"[11,15]","[[2,1,3],[1,2,3]]",482.5871,0,left,1.118,483.7358,1,0.3,"[2,1,3]",0.251172234,stimuli/card_10_transparent.png,10,0,0,0,0,1,,,,,,,,,,
,,,,5f2c4bf4e4f3080e6a469fcc,C,2024-10-23_16h34.41.289,Slot Machine Game,2023.1.3,Win32,59.88023952,5f2c4bf4e4f3080e6a469fcc,67167c13dd87566d3602e731,67195dc9435e7e6c8247004d,,,,,,,,,,,,,,,,,,,,,,,,,,,20,,,,,,,,,,,,,,,,,,6,8,,,485.0362,1,up,1.5173,486.5859,1,0.3,"[2,1,3]",0.110142351,stimuli/card_10_transparent.png,10,1,0,1,0,1,,,,,,,,,,
,,,,5f2c4bf4e4f3080e6a469fcc,C,2024-10-23_16h34.41.289,Slot Machine Game,2023.1.3,Win32,59.88023952,5f2c4bf4e4f3080e6a469fcc,67167c13dd87566d3602e731,67195dc9435e7e6c8247004d,,,,,,,,,,,,,,,,,,,,,,,,,,,20,,,,,,,,,,,,,,,,,,6,8,,,487.8861,2,right,0.7006,488.6032,1.5,0.3,"[2,1,3]",0.567811522,stimuli/card_0_transparent.png,0,2,0,2,0,1,,,,,,,,,,
,,,,5f2c4bf4e4f3080e6a469fcc,C,2024-10-23_16h34.41.289,Slot Machine Game,2023.1.3,Win32,59.88023952,5f2c4bf4e4f3080e6a469fcc,67167c13dd87566d3602e731,67195dc9435e7e6c8247004d,,,,,,,,,,,,,,,,,,,,,,,,,,,30,,,,,,,,,,,,,,,,,,6,8,,,490.4036,3,left,1.1343,491.5539,1.5,0.3,"[2,1,3]",0.70710443,stimuli/card_10_transparent.png,10,3,0,3,0,1,,,,,,,,,,
,,,,5f2c4bf4e4f3080e6a469fcc,C,2024-10-23_16h34.41.289,Slot Machine Game,2023.1.3,Win32,59.88023952,5f2c4bf4e4f3080e6a469fcc,67167c13dd87566d3602e731,67195dc9435e7e6c8247004d,,,,,,,,,,,,,,,,,,,,,,,,,,,40,,,,,,,,,,,,,,,,,,6,8,,,493.3544,4,up,1.2847,494.6559,1,0.3,"[2,1,3]",0.127515102,stimuli/card_10_transparent.png,10,4,0,4,0,1,,,,,,,,,,
,,,,5f2c4bf4e4f3080e6a469fcc,C,2024-10-23_16h34.41.289,Slot Machine Game,2023.1.3,Win32,59.88023952,5f2c4bf4e4f3080e6a469fcc,67167c13dd87566d3602e731,67195dc9435e7e6c8247004d,,,,,,,,,,,,,,,,,,,,,,,,,,,40,,,,,,,,,,,,,,,,,,6,8,,,495.9561,5,right,0.8013,496.79,1.5,0.3,"[2,1,3]",0.375743831,stimuli/card_0_transparent.png,0,5,0,5,0,1,,,,,,,,,,
,,,,5f2c4bf4e4f3080e6a469fcc,C,2024-10-23_16h34.41.289,Slot Machine Game,2023.1.3,Win32,59.88023952,5f2c4bf4e4f3080e6a469fcc,67167c13dd87566d3602e731,67195dc9435e7e6c8247004d,,,,,,,,,,,,,,,,,,,,,,,,,,,50,,,,,,,,,,,,,,,,,,6,8,,,498.5903,6,left,0.7347,499.3574,0.5,0.3,"[2,1,3]",0.778834172,stimuli/card_10_transparent.png,10,6,0,6,0,1,,,,,,,,,,
,,,,5f2c4bf4e4f3080e6a469fcc,C,2024-10-23_16h34.41.289,Slot Machine Game,2023.1.3,Win32,59.88023952,5f2c4bf4e4f3080e6a469fcc,67167c13dd87566d3602e731,67195dc9435e7e6c8247004d,,,,,,,,,,,,,,,,,,,,,,,,,,,60,,,,,,,,,,,,,,,,,,6,8,,,500.1574,7,left,0.735,500.9239,1.5,0.3,"[2,1,3]",0.345998341,stimuli/card_10_transparent.png,10,7,0,7,0,1,,,,,,,,,,
,,,,5f2c4bf4e4f3080e6a469fcc,C,2024-10-23_16h34.41.289,Slot Machine Game,2023.1.3,Win32,59.88023952,5f2c4bf4e4f3080e6a469fcc,67167c13dd87566d3602e731,67195dc9435e7e6c8247004d,,,,,,,,,,,,,,,,,,,,,,,,,,,160,,,,,,,,,,,,,,,,,,6,8,,,502.7248,8,up,0.721,503.4585,1,0.3,"[2,1,3]",0.484514445,stimuli/card_100_transparent.png,100,8,0,8,0,1,,,,,,,,,,
,,,,5f2c4bf4e4f3080e6a469fcc,C,2024-10-23_16h34.41.289,Slot Machine Game,2023.1.3,Win32,59.88023952,5f2c4bf4e4f3080e6a469fcc,67167c13dd87566d3602e731,67195dc9435e7e6c8247004d,,,,,,,,,,,,,,,,,,,,,,,,,,,160,,,,,,,,,,,,,,,,,,6,8,,,504.7584,9,up,0.6344,505.4092,1.5,0.3,"[2,1,3]",0.06809221,stimuli/card_0_transparent.png,0,9,0,9,0,1,,,,,,,,,,
,,,,5f2c4bf4e4f3080e6a469fcc,C,2024-10-23_16h34.41.289,Slot Machine Game,2023.1.3,Win32,59.88023952,5f2c4bf4e4f3080e6a469fcc,67167c13dd87566d3602e731,67195dc9435e7e6c8247004d,,,,,,,,,,,,,,,,,,,,,,,,,,,260,,,,,,,,,,,,,,,,,,6,8,,,507.2093,10,up,0.6161,507.8428,0.5,0.3,"[2,1,3]",0.566494889,stimuli/card_100_transparent.png,100,10,0,10,0,1,,,,,,,,,,
,,,,5f2c4bf4e4f3080e6a469fcc,C,2024-10-23_16h34.41.289,Slot Machine Game,2023.1.3,Win32,59.88023952,5f2c4bf4e4f3080e6a469fcc,67167c13dd87566d3602e731,67195dc9435e7e6c8247004d,,,,,,,,,,,,,,,,,,,,,,,,,,,270,,,,,,,,,,,,,,,,,,6,8,,,508.6424,11,up,0.8003,509.4598,1.5,0.3,"[1,2,3]",0.950727527,stimuli/card_10_transparent.png,10,11,0,11,0,1,,,,,,,,,,
,,,,5f2c4bf4e4f3080e6a469fcc,C,2024-10-23_16h34.41.289,Slot Machine Game,2023.1.3,Win32,59.88023952,5f2c4bf4e4f3080e6a469fcc,67167c13dd87566d3602e731,67195dc9435e7e6c8247004d,,,,,,,,,,,,,,,,,,,,,,,,,,,280,,,,,,,,,,,,,,,,,,6,8,,,511.2609,12,up,0.5727,511.862,0.5,0.3,"[1,2,3]",0.8514133,stimuli/card_10_transparent.png,10,12,0,12,0,1,,,,,,,,,,
,,,,5f2c4bf4e4f3080e6a469fcc,C,2024-10-23_16h34.41.289,Slot Machine Game,2023.1.3,Win32,59.88023952,5f2c4bf4e4f3080e6a469fcc,67167c13dd87566d3602e731,67195dc9435e7e6c8247004d,,,,,,,,,,,,,,,,,,,,,,,,,,,280,,,,,,,,,,,,,,,,,,6,8,,,512.6613,13,right,0.7357,513.4283,0.5,0.3,"[1,2,3]",0.266153762,stimuli/card_0_transparent.png,0,13,0,13,0,1,,,,,,,,,,
,,,,5f2c4bf4e4f3080e6a469fcc,C,2024-10-23_16h34.41.289,Slot Machine Game,2023.1.3,Win32,59.88023952,5f2c4bf4e4f3080e6a469fcc,67167c13dd87566d3602e731,67195dc9435e7e6c8247004d,,,,,,,,,,,,,,,,,,,,,,,,,,,280,,,,,,,,,,,,,,,,,,6,8,,,514.2285,14,right,0.5011,514.7619,1,0.3,"[1,2,3]",0.342299882,stimuli/card_0_transparent.png,0,14,0,14,0,1,,,,,,,,,,
,,,,5f2c4bf4e4f3080e6a469fcc,C,2024-10-23_16h34.41.289,Slot Machine Game,2023.1.3,Win32,59.88023952,5f2c4bf4e4f3080e6a469fcc,67167c13dd87566d3602e731,67195dc9435e7e6c8247004d,,,,,,,,,,,,,,,,,,,,,,,,,,,,,,,,,,516.0625,,,,,,,,,,,,,,,,,,,,,,,,,,,,,,,"[530,640,350,640,470,280]",5,0,5,0,1,,,,
,,,,5f2c4bf4e4f3080e6a469fcc,C,2024-10-23_16h34.41.289,Slot Machine Game,2023.1.3,Win32,59.88023952,5f2c4bf4e4f3080e6a469fcc,67167c13dd87566d3602e731,67195dc9435e7e6c8247004d,,,,,,,,,,,,,,,,,,,,,,,,,,,100,,,,,,,,,,,,,,,,,,7,9,"[8,15]","[[3,2,1],[3,1,2]]",521.0656,0,left,1.2187,522.3148,0.5,0.3,"[3,2,1]",0.025760454,stimuli/card_100_transparent.png,100,0,0,0,0,1,,,,,,,,,,
,,,,5f2c4bf4e4f3080e6a469fcc,C,2024-10-23_16h34.41.289,Slot Machine Game,2023.1.3,Win32,59.88023952,5f2c4bf4e4f3080e6a469fcc,67167c13dd87566d3602e731,67195dc9435e7e6c8247004d,,,,,,,,,,,,,,,,,,,,,,,,,,,100,,,,,,,,,,,,,,,,,,7,9,,,523.1093,1,left,0.7113,523.8425,0.5,0.3,"[3,2,1]",0.281135853,stimuli/card_0_transparent.png,0,1,0,1,0,1,,,,,,,,,,
,,,,5f2c4bf4e4f3080e6a469fcc,C,2024-10-23_16h34.41.289,Slot Machine Game,2023.1.3,Win32,59.88023952,5f2c4bf4e4f3080e6a469fcc,67167c13dd87566d3602e731,67195dc9435e7e6c8247004d,,,,,,,,,,,,,,,,,,,,,,,,,,,100,,,,,,,,,,,,,,,,,,7,9,,,524.6319,2,left,0.7649,525.4095,0.5,0.3,"[3,2,1]",0.810676073,stimuli/card_0_transparent.png,0,2,0,2,0,1,,,,,,,,,,
,,,,5f2c4bf4e4f3080e6a469fcc,C,2024-10-23_16h34.41.289,Slot Machine Game,2023.1.3,Win32,59.88023952,5f2c4bf4e4f3080e6a469fcc,67167c13dd87566d3602e731,67195dc9435e7e6c8247004d,,,,,,,,,,,,,,,,,,,,,,,,,,,100,,,,,,,,,,,,,,,,,,7,9,,,526.1991,3,up,1.1478,527.3603,0.5,0.3,"[3,2,1]",0.006948654,stimuli/card_0_transparent.png,0,3,0,3,0,1,,,,,,,,,,
,,,,5f2c4bf4e4f3080e6a469fcc,C,2024-10-23_16h34.41.289,Slot Machine Game,2023.1.3,Win32,59.88023952,5f2c4bf4e4f3080e6a469fcc,67167c13dd87566d3602e731,67195dc9435e7e6c8247004d,,,,,,,,,,,,,,,,,,,,,,,,,,,110,,,,,,,,,,,,,,,,,,7,9,,,528.1598,4,up,0.8584,529.0275,0.5,0.3,"[3,2,1]",0.614780986,stimuli/card_10_transparent.png,10,4,0,4,0,1,,,,,,,,,,
,,,,5f2c4bf4e4f3080e6a469fcc,C,2024-10-23_16h34.41.289,Slot Machine Game,2023.1.3,Win32,59.88023952,5f2c4bf4e4f3080e6a469fcc,67167c13dd87566d3602e731,67195dc9435e7e6c8247004d,,,,,,,,,,,,,,,,,,,,,,,,,,,210,,,,,,,,,,,,,,,,,,7,9,,,529.8194,5,right,0.718,530.5668,1,0.3,"[3,2,1]",0.760070541,stimuli/card_100_transparent.png,100,5,0,5,0,1,,,,,,,,,,
,,,,5f2c4bf4e4f3080e6a469fcc,C,2024-10-23_16h34.41.289,Slot Machine Game,2023.1.3,Win32,59.88023952,5f2c4bf4e4f3080e6a469fcc,67167c13dd87566d3602e731,67195dc9435e7e6c8247004d,,,,,,,,,,,,,,,,,,,,,,,,,,,310,,,,,,,,,,,,,,,,,,7,9,,,531.8676,6,right,1.9684,533.8791,0.5,0.3,"[3,2,1]",0.256311632,stimuli/card_100_transparent.png,100,6,0,6,0,1,,,,,,,,,,
,,,,5f2c4bf4e4f3080e6a469fcc,C,2024-10-23_16h34.41.289,Slot Machine Game,2023.1.3,Win32,59.88023952,5f2c4bf4e4f3080e6a469fcc,67167c13dd87566d3602e731,67195dc9435e7e6c8247004d,,,,,,,,,,,,,,,,,,,,,,,,,,,410,,,,,,,,,,,,,,,,,,7,9,,,534.6679,7,right,0.7169,535.4174,0.5,0.3,"[3,2,1]",0.282994411,stimuli/card_100_transparent.png,100,7,0,7,0,1,,,,,,,,,,
,,,,5f2c4bf4e4f3080e6a469fcc,C,2024-10-23_16h34.41.289,Slot Machine Game,2023.1.3,Win32,59.88023952,5f2c4bf4e4f3080e6a469fcc,67167c13dd87566d3602e731,67195dc9435e7e6c8247004d,,,,,,,,,,,,,,,,,,,,,,,,,,,420,,,,,,,,,,,,,,,,,,7,9,,,536.2184,8,right,0.6179,536.8689,0.5,0.3,"[3,1,2]",0.802374452,stimuli/card_10_transparent.png,10,8,0,8,0,1,,,,,,,,,,
,,,,5f2c4bf4e4f3080e6a469fcc,C,2024-10-23_16h34.41.289,Slot Machine Game,2023.1.3,Win32,59.88023952,5f2c4bf4e4f3080e6a469fcc,67167c13dd87566d3602e731,67195dc9435e7e6c8247004d,,,,,,,,,,,,,,,,,,,,,,,,,,,420,,,,,,,,,,,,,,,,,,7,9,,,537.6686,9,right,2.9181,540.6192,1,0.3,"[3,1,2]",0.076818385,stimuli/card_0_transparent.png,0,9,0,9,0,1,,,,,,,,,,
,,,,5f2c4bf4e4f3080e6a469fcc,C,2024-10-23_16h34.41.289,Slot Machine Game,2023.1.3,Win32,59.88023952,5f2c4bf4e4f3080e6a469fcc,67167c13dd87566d3602e731,67195dc9435e7e6c8247004d,,,,,,,,,,,,,,,,,,,,,,,,,,,430,,,,,,,,,,,,,,,,,,7,9,,,541.9202,10,right,0.551,542.504,1,0.3,"[3,1,2]",0.394725675,stimuli/card_10_transparent.png,10,10,0,10,0,1,,,,,,,,,,
,,,,5f2c4bf4e4f3080e6a469fcc,C,2024-10-23_16h34.41.289,Slot Machine Game,2023.1.3,Win32,59.88023952,5f2c4bf4e4f3080e6a469fcc,67167c13dd87566d3602e731,67195dc9435e7e6c8247004d,,,,,,,,,,,,,,,,,,,,,,,,,,,530,,,,,,,,,,,,,,,,,,7,9,,,543.8041,11,up,0.8836,544.7144,1,0.3,"[3,1,2]",0.402893381,stimuli/card_100_transparent.png,100,11,0,11,0,1,,,,,,,,,,
,,,,5f2c4bf4e4f3080e6a469fcc,C,2024-10-23_16h34.41.289,Slot Machine Game,2023.1.3,Win32,59.88023952,5f2c4bf4e4f3080e6a469fcc,67167c13dd87566d3602e731,67195dc9435e7e6c8247004d,,,,,,,,,,,,,,,,,,,,,,,,,,,630,,,,,,,,,,,,,,,,,,7,9,,,546.0047,12,up,0.568,546.605,1,0.3,"[3,1,2]",0.973124273,stimuli/card_100_transparent.png,100,12,0,12,0,1,,,,,,,,,,
,,,,5f2c4bf4e4f3080e6a469fcc,C,2024-10-23_16h34.41.289,Slot Machine Game,2023.1.3,Win32,59.88023952,5f2c4bf4e4f3080e6a469fcc,67167c13dd87566d3602e731,67195dc9435e7e6c8247004d,,,,,,,,,,,,,,,,,,,,,,,,,,,730,,,,,,,,,,,,,,,,,,7,9,,,547.9052,13,up,0.5521,548.4889,1.5,0.3,"[3,1,2]",0.855645842,stimuli/card_100_transparent.png,100,13,0,13,0,1,,,,,,,,,,
,,,,5f2c4bf4e4f3080e6a469fcc,C,2024-10-23_16h34.41.289,Slot Machine Game,2023.1.3,Win32,59.88023952,5f2c4bf4e4f3080e6a469fcc,67167c13dd87566d3602e731,67195dc9435e7e6c8247004d,,,,,,,,,,,,,,,,,,,,,,,,,,,830,,,,,,,,,,,,,,,,,,7,9,,,550.2894,14,up,2.205,552.5408,1.5,0.3,"[3,1,2]",0.57832777,stimuli/card_100_transparent.png,100,14,0,14,0,1,,,,,,,,,,
,,,,5f2c4bf4e4f3080e6a469fcc,C,2024-10-23_16h34.41.289,Slot Machine Game,2023.1.3,Win32,59.88023952,5f2c4bf4e4f3080e6a469fcc,67167c13dd87566d3602e731,67195dc9435e7e6c8247004d,,,,,,,,,,,,,,,,,,,,,,,,,,,,,,,,,,554.3407,,,,,,,,,,,,,,,,,,,,,,,,,,,,,,,"[530,640,350,640,470,280,830]",6,0,6,0,1,,,,
,,,,5f2c4bf4e4f3080e6a469fcc,C,2024-10-23_16h34.41.289,Slot Machine Game,2023.1.3,Win32,59.88023952,5f2c4bf4e4f3080e6a469fcc,67167c13dd87566d3602e731,67195dc9435e7e6c8247004d,,,,,,,,,,,,,,,,,,,,,,,,,,,100,,,,,,,,,,,,,,,,,,8,2,"[6,15]","[[1,3,2],[3,2,1]]",559.3538,0,left,1.1572,560.5304,0.5,0.3,"[1,3,2]",0.465608556,stimuli/card_100_transparent.png,100,0,0,0,0,1,,,,,,,,,,
,,,,5f2c4bf4e4f3080e6a469fcc,C,2024-10-23_16h34.41.289,Slot Machine Game,2023.1.3,Win32,59.88023952,5f2c4bf4e4f3080e6a469fcc,67167c13dd87566d3602e731,67195dc9435e7e6c8247004d,,,,,,,,,,,,,,,,,,,,,,,,,,,200,,,,,,,,,,,,,,,,,,8,2,,,561.3261,1,left,0.8441,562.1889,1,0.3,"[1,3,2]",0.887410881,stimuli/card_100_transparent.png,100,1,0,1,0,1,,,,,,,,,,
,,,,5f2c4bf4e4f3080e6a469fcc,C,2024-10-23_16h34.41.289,Slot Machine Game,2023.1.3,Win32,59.88023952,5f2c4bf4e4f3080e6a469fcc,67167c13dd87566d3602e731,67195dc9435e7e6c8247004d,,,,,,,,,,,,,,,,,,,,,,,,,,,300,,,,,,,,,,,,,,,,,,8,2,,,563.4968,2,left,0.526,564.0533,1.5,0.3,"[1,3,2]",0.988259413,stimuli/card_100_transparent.png,100,2,0,2,0,1,,,,,,,,,,
,,,,5f2c4bf4e4f3080e6a469fcc,C,2024-10-23_16h34.41.289,Slot Machine Game,2023.1.3,Win32,59.88023952,5f2c4bf4e4f3080e6a469fcc,67167c13dd87566d3602e731,67195dc9435e7e6c8247004d,,,,,,,,,,,,,,,,,,,,,,,,,,,310,,,,,,,,,,,,,,,,,,8,2,,,565.8541,3,left,0.5351,566.4112,1,0.3,"[1,3,2]",0.170801119,stimuli/card_10_transparent.png,10,3,0,3,0,1,,,,,,,,,,
,,,,5f2c4bf4e4f3080e6a469fcc,C,2024-10-23_16h34.41.289,Slot Machine Game,2023.1.3,Win32,59.88023952,5f2c4bf4e4f3080e6a469fcc,67167c13dd87566d3602e731,67195dc9435e7e6c8247004d,,,,,,,,,,,,,,,,,,,,,,,,,,,310,,,,,,,,,,,,,,,,,,8,2,,,567.7057,4,left,0.7684,568.4978,1,0.3,"[1,3,2]",0.010645303,stimuli/card_0_transparent.png,0,4,0,4,0,1,,,,,,,,,,
,,,,5f2c4bf4e4f3080e6a469fcc,C,2024-10-23_16h34.41.289,Slot Machine Game,2023.1.3,Win32,59.88023952,5f2c4bf4e4f3080e6a469fcc,67167c13dd87566d3602e731,67195dc9435e7e6c8247004d,,,,,,,,,,,,,,,,,,,,,,,,,,,410,,,,,,,,,,,,,,,,,,8,2,,,569.8061,5,left,0.5511,570.3899,0.5,0.3,"[1,3,2]",0.67123743,stimuli/card_100_transparent.png,100,5,0,5,0,1,,,,,,,,,,
,,,,5f2c4bf4e4f3080e6a469fcc,C,2024-10-23_16h34.41.289,Slot Machine Game,2023.1.3,Win32,59.88023952,5f2c4bf4e4f3080e6a469fcc,67167c13dd87566d3602e731,67195dc9435e7e6c8247004d,,,,,,,,,,,,,,,,,,,,,,,,,,,410,,,,,,,,,,,,,,,,,,8,2,,,571.1795,6,left,1.0893,572.2962,1,0.3,"[3,2,1]",0.458249275,stimuli/card_0_transparent.png,0,6,0,6,0,1,,,,,,,,,,
,,,,5f2c4bf4e4f3080e6a469fcc,C,2024-10-23_16h34.41.289,Slot Machine Game,2023.1.3,Win32,59.88023952,5f2c4bf4e4f3080e6a469fcc,67167c13dd87566d3602e731,67195dc9435e7e6c8247004d,,,,,,,,,,,,,,,,,,,,,,,,,,,410,,,,,,,,,,,,,,,,,,8,2,,,573.5965,7,left,1.107,574.7307,1.5,0.3,"[3,2,1]",0.636951224,stimuli/card_0_transparent.png,0,7,0,7,0,1,,,,,,,,,,
,,,,5f2c4bf4e4f3080e6a469fcc,C,2024-10-23_16h34.41.289,Slot Machine Game,2023.1.3,Win32,59.88023952,5f2c4bf4e4f3080e6a469fcc,67167c13dd87566d3602e731,67195dc9435e7e6c8247004d,,,,,,,,,,,,,,,,,,,,,,,,,,,510,,,,,,,,,,,,,,,,,,8,2,,,576.53,8,up,1.3013,577.8638,0.5,0.3,"[3,2,1]",0.12615355,stimuli/card_100_transparent.png,100,8,0,8,0,1,,,,,,,,,,
,,,,5f2c4bf4e4f3080e6a469fcc,C,2024-10-23_16h34.41.289,Slot Machine Game,2023.1.3,Win32,59.88023952,5f2c4bf4e4f3080e6a469fcc,67167c13dd87566d3602e731,67195dc9435e7e6c8247004d,,,,,,,,,,,,,,,,,,,,,,,,,,,520,,,,,,,,,,,,,,,,,,8,2,,,578.664,9,up,0.6847,579.3815,1,0.3,"[3,2,1]",0.46795847,stimuli/card_10_transparent.png,10,9,0,9,0,1,,,,,,,,,,
,,,,5f2c4bf4e4f3080e6a469fcc,C,2024-10-23_16h34.41.289,Slot Machine Game,2023.1.3,Win32,59.88023952,5f2c4bf4e4f3080e6a469fcc,67167c13dd87566d3602e731,67195dc9435e7e6c8247004d,,,,,,,,,,,,,,,,,,,,,,,,,,,530,,,,,,,,,,,,,,,,,,8,2,,,580.6821,10,up,0.5349,581.2491,1.5,0.3,"[3,2,1]",0.311136955,stimuli/card_10_transparent.png,10,10,0,10,0,1,,,,,,,,,,
,,,,5f2c4bf4e4f3080e6a469fcc,C,2024-10-23_16h34.41.289,Slot Machine Game,2023.1.3,Win32,59.88023952,5f2c4bf4e4f3080e6a469fcc,67167c13dd87566d3602e731,67195dc9435e7e6c8247004d,,,,,,,,,,,,,,,,,,,,,,,,,,,630,,,,,,,,,,,,,,,,,,8,2,,,583.0494,11,right,1.1553,584.2338,1,0.3,"[3,2,1]",0.8000622,stimuli/card_100_transparent.png,100,11,0,11,0,1,,,,,,,,,,
,,,,5f2c4bf4e4f3080e6a469fcc,C,2024-10-23_16h34.41.289,Slot Machine Game,2023.1.3,Win32,59.88023952,5f2c4bf4e4f3080e6a469fcc,67167c13dd87566d3602e731,67195dc9435e7e6c8247004d,,,,,,,,,,,,,,,,,,,,,,,,,,,730,,,,,,,,,,,,,,,,,,8,2,,,585.517,12,right,0.5694,586.1174,0.5,0.3,"[3,2,1]",0.939619562,stimuli/card_100_transparent.png,100,12,0,12,0,1,,,,,,,,,,
,,,,5f2c4bf4e4f3080e6a469fcc,C,2024-10-23_16h34.41.289,Slot Machine Game,2023.1.3,Win32,59.88023952,5f2c4bf4e4f3080e6a469fcc,67167c13dd87566d3602e731,67195dc9435e7e6c8247004d,,,,,,,,,,,,,,,,,,,,,,,,,,,830,,,,,,,,,,,,,,,,,,8,2,,,586.9172,13,right,0.6344,587.5841,0.5,0.3,"[3,2,1]",0.757288706,stimuli/card_100_transparent.png,100,13,0,13,0,1,,,,,,,,,,
,,,,5f2c4bf4e4f3080e6a469fcc,C,2024-10-23_16h34.41.289,Slot Machine Game,2023.1.3,Win32,59.88023952,5f2c4bf4e4f3080e6a469fcc,67167c13dd87566d3602e731,67195dc9435e7e6c8247004d,,,,,,,,,,,,,,,,,,,,,,,,,,,930,,,,,,,,,,,,,,,,,,8,2,,,588.3843,14,right,0.601,589.018,1.5,0.3,"[3,2,1]",0.927507278,stimuli/card_100_transparent.png,100,14,0,14,0,1,,,,,,,,,,
,,,,5f2c4bf4e4f3080e6a469fcc,C,2024-10-23_16h34.41.289,Slot Machine Game,2023.1.3,Win32,59.88023952,5f2c4bf4e4f3080e6a469fcc,67167c13dd87566d3602e731,67195dc9435e7e6c8247004d,,,,,,,,,,,,,,,,,,,,,,,,,,,,,,,,,,590.8186,,,,,,,,,,,,,,,,,,,,,,,,,,,,,,,"[530,640,350,640,470,280,830,930]",7,0,7,0,1,,,,
,,,,5f2c4bf4e4f3080e6a469fcc,C,2024-10-23_16h34.41.289,Slot Machine Game,2023.1.3,Win32,59.88023952,5f2c4bf4e4f3080e6a469fcc,67167c13dd87566d3602e731,67195dc9435e7e6c8247004d,,,,,,,,,,,,,,,,,,,,,,,,,,,10,,,,,,,,,,,,,,,,,,9,10,"[10,15]","[[3,1,2],[1,3,2]]",595.8218,0,left,1.2513,597.104,1.5,0.3,"[3,1,2]",0.191865338,stimuli/card_10_transparent.png,10,0,0,0,0,1,,,,,,,,,,
,,,,5f2c4bf4e4f3080e6a469fcc,C,2024-10-23_16h34.41.289,Slot Machine Game,2023.1.3,Win32,59.88023952,5f2c4bf4e4f3080e6a469fcc,67167c13dd87566d3602e731,67195dc9435e7e6c8247004d,,,,,,,,,,,,,,,,,,,,,,,,,,,110,,,,,,,,,,,,,,,,,,9,10,,,598.8968,1,up,1.2333,600.1543,1,0.3,"[3,1,2]",0.333814021,stimuli/card_100_transparent.png,100,1,0,1,0,1,,,,,,,,,,
,,,,5f2c4bf4e4f3080e6a469fcc,C,2024-10-23_16h34.41.289,Slot Machine Game,2023.1.3,Win32,59.88023952,5f2c4bf4e4f3080e6a469fcc,67167c13dd87566d3602e731,67195dc9435e7e6c8247004d,,,,,,,,,,,,,,,,,,,,,,,,,,,210,,,,,,,,,,,,,,,,,,9,10,,,601.4552,2,up,0.569,602.0546,1.5,0.3,"[3,1,2]",0.702951949,stimuli/card_100_transparent.png,100,2,0,2,0,1,,,,,,,,,,
,,,,5f2c4bf4e4f3080e6a469fcc,C,2024-10-23_16h34.41.289,Slot Machine Game,2023.1.3,Win32,59.88023952,5f2c4bf4e4f3080e6a469fcc,67167c13dd87566d3602e731,67195dc9435e7e6c8247004d,,,,,,,,,,,,,,,,,,,,,,,,,,,220,,,,,,,,,,,,,,,,,,9,10,,,603.8557,3,up,0.5896,604.4563,1,0.3,"[3,1,2]",0.135048275,stimuli/card_10_transparent.png,10,3,0,3,0,1,,,,,,,,,,
,,,,5f2c4bf4e4f3080e6a469fcc,C,2024-10-23_16h34.41.289,Slot Machine Game,2023.1.3,Win32,59.88023952,5f2c4bf4e4f3080e6a469fcc,67167c13dd87566d3602e731,67195dc9435e7e6c8247004d,,,,,,,,,,,,,,,,,,,,,,,,,,,320,,,,,,,,,,,,,,,,,,9,10,,,605.7563,4,up,0.6179,606.4061,1,0.3,"[3,1,2]",0.941726164,stimuli/card_100_transparent.png,100,4,0,4,0,1,,,,,,,,,,
,,,,5f2c4bf4e4f3080e6a469fcc,C,2024-10-23_16h34.41.289,Slot Machine Game,2023.1.3,Win32,59.88023952,5f2c4bf4e4f3080e6a469fcc,67167c13dd87566d3602e731,67195dc9435e7e6c8247004d,,,,,,,,,,,,,,,,,,,,,,,,,,,320,,,,,,,,,,,,,,,,,,9,10,,,607.707,5,up,0.7017,608.4408,1,0.3,"[3,1,2]",0.034215859,stimuli/card_0_transparent.png,0,5,0,5,0,1,,,,,,,,,,
,,,,5f2c4bf4e4f3080e6a469fcc,C,2024-10-23_16h34.41.289,Slot Machine Game,2023.1.3,Win32,59.88023952,5f2c4bf4e4f3080e6a469fcc,67167c13dd87566d3602e731,67195dc9435e7e6c8247004d,,,,,,,,,,,,,,,,,,,,,,,,,,,420,,,,,,,,,,,,,,,,,,9,10,,,609.741,6,up,0.5832,610.3575,0.5,0.3,"[3,1,2]",0.985923394,stimuli/card_100_transparent.png,100,6,0,6,0,1,,,,,,,,,,
,,,,5f2c4bf4e4f3080e6a469fcc,C,2024-10-23_16h34.41.289,Slot Machine Game,2023.1.3,Win32,59.88023952,5f2c4bf4e4f3080e6a469fcc,67167c13dd87566d3602e731,67195dc9435e7e6c8247004d,,,,,,,,,,,,,,,,,,,,,,,,,,,520,,,,,,,,,,,,,,,,,,9,10,,,611.1588,7,up,0.8353,612.0197,1,0.3,"[3,1,2]",0.429129133,stimuli/card_100_transparent.png,100,7,0,7,0,1,,,,,,,,,,
,,,,5f2c4bf4e4f3080e6a469fcc,C,2024-10-23_16h34.41.289,Slot Machine Game,2023.1.3,Win32,59.88023952,5f2c4bf4e4f3080e6a469fcc,67167c13dd87566d3602e731,67195dc9435e7e6c8247004d,,,,,,,,,,,,,,,,,,,,,,,,,,,620,,,,,,,,,,,,,,,,,,9,10,,,613.3087,8,up,0.6325,613.9752,1,0.3,"[3,1,2]",0.64491327,stimuli/card_100_transparent.png,100,8,0,8,0,1,,,,,,,,,,
,,,,5f2c4bf4e4f3080e6a469fcc,C,2024-10-23_16h34.41.289,Slot Machine Game,2023.1.3,Win32,59.88023952,5f2c4bf4e4f3080e6a469fcc,67167c13dd87566d3602e731,67195dc9435e7e6c8247004d,,,,,,,,,,,,,,,,,,,,,,,,,,,720,,,,,,,,,,,,,,,,,,9,10,,,615.2753,9,up,0.5007,615.8088,1,0.3,"[3,1,2]",0.384315587,stimuli/card_100_transparent.png,100,9,0,9,0,1,,,,,,,,,,
,,,,5f2c4bf4e4f3080e6a469fcc,C,2024-10-23_16h34.41.289,Slot Machine Game,2023.1.3,Win32,59.88023952,5f2c4bf4e4f3080e6a469fcc,67167c13dd87566d3602e731,67195dc9435e7e6c8247004d,,,,,,,,,,,,,,,,,,,,,,,,,,,720,,,,,,,,,,,,,,,,,,9,10,,,617.1092,10,up,0.5006,617.6427,1,0.3,"[1,3,2]",0.597207269,stimuli/card_0_transparent.png,0,10,0,10,0,1,,,,,,,,,,
,,,,5f2c4bf4e4f3080e6a469fcc,C,2024-10-23_16h34.41.289,Slot Machine Game,2023.1.3,Win32,59.88023952,5f2c4bf4e4f3080e6a469fcc,67167c13dd87566d3602e731,67195dc9435e7e6c8247004d,,,,,,,,,,,,,,,,,,,,,,,,,,,720,,,,,,,,,,,,,,,,,,9,10,,,618.943,11,up,0.5678,619.5431,1.5,0.3,"[1,3,2]",0.927459563,stimuli/card_0_transparent.png,0,11,0,11,0,1,,,,,,,,,,
,,,,5f2c4bf4e4f3080e6a469fcc,C,2024-10-23_16h34.41.289,Slot Machine Game,2023.1.3,Win32,59.88023952,5f2c4bf4e4f3080e6a469fcc,67167c13dd87566d3602e731,67195dc9435e7e6c8247004d,,,,,,,,,,,,,,,,,,,,,,,,,,,720,,,,,,,,,,,,,,,,,,9,10,,,621.3445,12,right,1.0681,622.4451,1,0.3,"[1,3,2]",0.070776755,stimuli/card_0_transparent.png,0,12,0,12,0,1,,,,,,,,,,
,,,,5f2c4bf4e4f3080e6a469fcc,C,2024-10-23_16h34.41.289,Slot Machine Game,2023.1.3,Win32,59.88023952,5f2c4bf4e4f3080e6a469fcc,67167c13dd87566d3602e731,67195dc9435e7e6c8247004d,,,,,,,,,,,,,,,,,,,,,,,,,,,730,,,,,,,,,,,,,,,,,,9,10,,,623.7446,13,right,0.5845,624.3458,1,0.3,"[1,3,2]",0.343792332,stimuli/card_10_transparent.png,10,13,0,13,0,1,,,,,,,,,,
,,,,5f2c4bf4e4f3080e6a469fcc,C,2024-10-23_16h34.41.289,Slot Machine Game,2023.1.3,Win32,59.88023952,5f2c4bf4e4f3080e6a469fcc,67167c13dd87566d3602e731,67195dc9435e7e6c8247004d,,,,,,,,,,,,,,,,,,,,,,,,,,,830,,,,,,,,,,,,,,,,,,9,10,,,625.6452,14,left,0.9338,626.5955,0.5,0.3,"[1,3,2]",0.43134489,stimuli/card_100_transparent.png,100,14,0,14,0,1,,,,,,,,,,
,,,,5f2c4bf4e4f3080e6a469fcc,C,2024-10-23_16h34.41.289,Slot Machine Game,2023.1.3,Win32,59.88023952,5f2c4bf4e4f3080e6a469fcc,67167c13dd87566d3602e731,67195dc9435e7e6c8247004d,,,,,,,,,,,,,,,,,,,,,,,,,,,,,,,,,,627.3968,,,,,,,,,,,,,,,,,,,,,,,,,,,,,,,"[530,640,350,640,470,280,830,930,830]",8,0,8,0,1,,,,
,,,,5f2c4bf4e4f3080e6a469fcc,C,2024-10-23_16h34.41.289,Slot Machine Game,2023.1.3,Win32,59.88023952,5f2c4bf4e4f3080e6a469fcc,67167c13dd87566d3602e731,67195dc9435e7e6c8247004d,,,,,,,,,,,,,,,,,,,,,,,,,,,0,,,,,,,,,,,,,,,,,,10,3,"[15,15]","[[3,1,2],[3,1,2]]",632.4104,0,left,1.1945,633.6365,1,0.3,"[3,1,2]",0.969651468,stimuli/card_0_transparent.png,0,0,0,0,0,1,,,,,,,,,,
,,,,5f2c4bf4e4f3080e6a469fcc,C,2024-10-23_16h34.41.289,Slot Machine Game,2023.1.3,Win32,59.88023952,5f2c4bf4e4f3080e6a469fcc,67167c13dd87566d3602e731,67195dc9435e7e6c8247004d,,,,,,,,,,,,,,,,,,,,,,,,,,,100,,,,,,,,,,,,,,,,,,10,3,,,634.9355,1,up,0.7724,635.75,0.5,0.3,"[3,1,2]",0.875962761,stimuli/card_100_transparent.png,100,1,0,1,0,1,,,,,,,,,,
,,,,5f2c4bf4e4f3080e6a469fcc,C,2024-10-23_16h34.41.289,Slot Machine Game,2023.1.3,Win32,59.88023952,5f2c4bf4e4f3080e6a469fcc,67167c13dd87566d3602e731,67195dc9435e7e6c8247004d,,,,,,,,,,,,,,,,,,,,,,,,,,,200,,,,,,,,,,,,,,,,,,10,3,,,636.5325,2,up,0.6514,637.2163,1,0.3,"[3,1,2]",0.641688837,stimuli/card_100_transparent.png,100,2,0,2,0,1,,,,,,,,,,
,,,,5f2c4bf4e4f3080e6a469fcc,C,2024-10-23_16h34.41.289,Slot Machine Game,2023.1.3,Win32,59.88023952,5f2c4bf4e4f3080e6a469fcc,67167c13dd87566d3602e731,67195dc9435e7e6c8247004d,,,,,,,,,,,,,,,,,,,,,,,,,,,300,,,,,,,,,,,,,,,,,,10,3,,,638.5164,3,up,0.6191,639.1668,1,0.3,"[3,1,2]",0.577686822,stimuli/card_100_transparent.png,100,3,0,3,0,1,,,,,,,,,,
,,,,5f2c4bf4e4f3080e6a469fcc,C,2024-10-23_16h34.41.289,Slot Machine Game,2023.1.3,Win32,59.88023952,5f2c4bf4e4f3080e6a469fcc,67167c13dd87566d3602e731,67195dc9435e7e6c8247004d,,,,,,,,,,,,,,,,,,,,,,,,,,,400,,,,,,,,,,,,,,,,,,10,3,,,640.4674,4,up,2.5013,643.0015,1,0.3,"[3,1,2]",0.625227421,stimuli/card_100_transparent.png,100,4,0,4,0,1,,,,,,,,,,
,,,,5f2c4bf4e4f3080e6a469fcc,C,2024-10-23_16h34.41.289,Slot Machine Game,2023.1.3,Win32,59.88023952,5f2c4bf4e4f3080e6a469fcc,67167c13dd87566d3602e731,67195dc9435e7e6c8247004d,,,,,,,,,,,,,,,,,,,,,,,,,,,400,,,,,,,,,,,,,,,,,,10,3,,,644.3124,5,up,2.0011,646.336,1,0.3,"[3,1,2]",0.054360773,stimuli/card_0_transparent.png,0,5,0,5,0,1,,,,,,,,,,
,,,,5f2c4bf4e4f3080e6a469fcc,C,2024-10-23_16h34.41.289,Slot Machine Game,2023.1.3,Win32,59.88023952,5f2c4bf4e4f3080e6a469fcc,67167c13dd87566d3602e731,67195dc9435e7e6c8247004d,,,,,,,,,,,,,,,,,,,,,,,,,,,410,,,,,,,,,,,,,,,,,,10,3,,,647.6359,6,up,0.6676,648.3361,0.5,0.3,"[3,1,2]",0.147608187,stimuli/card_10_transparent.png,10,6,0,6,0,1,,,,,,,,,,
,,,,5f2c4bf4e4f3080e6a469fcc,C,2024-10-23_16h34.41.289,Slot Machine Game,2023.1.3,Win32,59.88023952,5f2c4bf4e4f3080e6a469fcc,67167c13dd87566d3602e731,67195dc9435e7e6c8247004d,,,,,,,,,,,,,,,,,,,,,,,,,,,420,,,,,,,,,,,,,,,,,,10,3,,,649.1363,7,right,1.5183,650.6814,1,0.3,"[3,1,2]",0.820481859,stimuli/card_10_transparent.png,10,7,0,7,0,1,,,,,,,,,,
,,,,5f2c4bf4e4f3080e6a469fcc,C,2024-10-23_16h34.41.289,Slot Machine Game,2023.1.3,Win32,59.88023952,5f2c4bf4e4f3080e6a469fcc,67167c13dd87566d3602e731,67195dc9435e7e6c8247004d,,,,,,,,,,,,,,,,,,,,,,,,,,,430,,,,,,,,,,,,,,,,,,10,3,,,651.9706,8,right,0.9014,652.9045,0.5,0.3,"[3,1,2]",0.699175891,stimuli/card_10_transparent.png,10,8,0,8,0,1,,,,,,,,,,
,,,,5f2c4bf4e4f3080e6a469fcc,C,2024-10-23_16h34.41.289,Slot Machine Game,2023.1.3,Win32,59.88023952,5f2c4bf4e4f3080e6a469fcc,67167c13dd87566d3602e731,67195dc9435e7e6c8247004d,,,,,,,,,,,,,,,,,,,,,,,,,,,430,,,,,,,,,,,,,,,,,,10,3,,,653.7047,9,up,0.6844,654.4216,1.5,0.3,"[3,1,2]",0.041078014,stimuli/card_0_transparent.png,0,9,0,9,0,1,,,,,,,,,,
,,,,5f2c4bf4e4f3080e6a469fcc,C,2024-10-23_16h34.41.289,Slot Machine Game,2023.1.3,Win32,59.88023952,5f2c4bf4e4f3080e6a469fcc,67167c13dd87566d3602e731,67195dc9435e7e6c8247004d,,,,,,,,,,,,,,,,,,,,,,,,,,,430,,,,,,,,,,,,,,,,,,10,3,,,656.2219,10,left,0.8511,657.1053,1,0.3,"[3,1,2]",0.748137974,stimuli/card_0_transparent.png,0,10,0,10,0,1,,,,,,,,,,
,,,,5f2c4bf4e4f3080e6a469fcc,C,2024-10-23_16h34.41.289,Slot Machine Game,2023.1.3,Win32,59.88023952,5f2c4bf4e4f3080e6a469fcc,67167c13dd87566d3602e731,67195dc9435e7e6c8247004d,,,,,,,,,,,,,,,,,,,,,,,,,,,440,,,,,,,,,,,,,,,,,,10,3,,,658.406,11,left,0.9694,659.4063,1.5,0.3,"[3,1,2]",0.11035076,stimuli/card_10_transparent.png,10,11,0,11,0,1,,,,,,,,,,
,,,,5f2c4bf4e4f3080e6a469fcc,C,2024-10-23_16h34.41.289,Slot Machine Game,2023.1.3,Win32,59.88023952,5f2c4bf4e4f3080e6a469fcc,67167c13dd87566d3602e731,67195dc9435e7e6c8247004d,,,,,,,,,,,,,,,,,,,,,,,,,,,540,,,,,,,,,,,,,,,,,,10,3,,,661.2002,12,up,1.2013,662.4241,1,0.3,"[3,1,2]",0.226805863,stimuli/card_100_transparent.png,100,12,0,12,0,1,,,,,,,,,,
,,,,5f2c4bf4e4f3080e6a469fcc,C,2024-10-23_16h34.41.289,Slot Machine Game,2023.1.3,Win32,59.88023952,5f2c4bf4e4f3080e6a469fcc,67167c13dd87566d3602e731,67195dc9435e7e6c8247004d,,,,,,,,,,,,,,,,,,,,,,,,,,,640,,,,,,,,,,,,,,,,,,10,3,,,663.7352,13,up,0.6595,664.4194,1.5,0.3,"[3,1,2]",0.933400415,stimuli/card_100_transparent.png,100,13,0,13,0,1,,,,,,,,,,
,,,,5f2c4bf4e4f3080e6a469fcc,C,2024-10-23_16h34.41.289,Slot Machine Game,2023.1.3,Win32,59.88023952,5f2c4bf4e4f3080e6a469fcc,67167c13dd87566d3602e731,67195dc9435e7e6c8247004d,,,,,,,,,,,,,,,,,,,,,,,,,,,640,,,,,,,,,,,,,,,,,,10,3,,,666.2023,14,up,0.6187,666.8462,1,0.3,"[3,1,2]",0.046818554,stimuli/card_0_transparent.png,0,14,0,14,0,1,,,,,,,,,,
,,,,5f2c4bf4e4f3080e6a469fcc,C,2024-10-23_16h34.41.289,Slot Machine Game,2023.1.3,Win32,59.88023952,5f2c4bf4e4f3080e6a469fcc,67167c13dd87566d3602e731,67195dc9435e7e6c8247004d,,,,,,,,,,,,,,,,,,,,,,,,,,,,,,,,,,668.1363,,,,,,,,,,,,,,,,,,,,,,,,,,,,,,,"[530,640,350,640,470,280,830,930,830,640]",9,0,9,0,1,,,,
,,,,5f2c4bf4e4f3080e6a469fcc,C,2024-10-23_16h34.41.289,Slot Machine Game,2023.1.3,Win32,59.88023952,5f2c4bf4e4f3080e6a469fcc,67167c13dd87566d3602e731,67195dc9435e7e6c8247004d,,,,,,,,,,,,,,,,,,,,,,,,,,,,,,,,,,,,,,,,,,,,,,,,,,,,,,,,,,,,,,,,,,,,,,,9,"[530,640,350,640,470,280,830,930,830,640]",8.3,2024-10-23_16h45.58.522
