participant,date,expName,psychopyVersion,OS,frameRate,key_resp_practice_instruction.started,key_resp_practice_instruction.keys,key_resp_practice_instruction.rt,key_resp_practice_instruction.duration,key_resp.started,key_resp.keys,key_resp.rt,key_resp.duration,key_resp_practice_reset.keys,key_resp_practice_reset.rt,key_resp_practice_reset.duration,key_resp_practice_slots.started,key_resp_practice_slots.keys,key_resp_practice_slots.rt,key_resp_practice_slots.duration,presentationInterval,reward_seq,reward_Img,Cuml_rew,currentTrialReward,practice_trials.thisRepN,practice_trials.thisTrialN,practice_trials.thisN,practice_trials.thisIndex,practice_trials.ran,key_resp_practice_end.started,key_resp_practice_end.keys,key_resp_practice_end.rt,key_resp_practice_end.duration,text_main_instruction.started,BlockCondition,BlockOrderIndices,key_resp_main_instruction.started,key_resp_main_instruction.keys,key_resp_main_instruction.rt,key_resp_main_instruction.duration,conditions,currentCondition,conditionsAfterRemoval,key_resp_slots_presentation.started,key_resp_slots_presentation.keys,key_resp_slots_presentation.rt,key_resp_slots_presentation.duration,Main_presentationInterval,Main_reward_seq,Random value generated,Main_reward_Img,Main_Cuml_rew,Main_currentTrialReward,main_trials.thisRepN,main_trials.thisTrialN,main_trials.thisN,main_trials.thisIndex,main_trials.ran,text_block_break.started,block.thisRepN,block.thisTrialN,block.thisN,block.thisIndex,block.ran
,2023-08-31_14h31.01.300,slotMachine_updated,2023.1.3,MacIntel,60.0024001,,,,,,,,,,,,,,,,,,,,,,,,,,,,,,,,,,,,,,,,,,,,,,,,,,,,,,,,,,,,
,2023-08-31_14h31.01.300,slotMachine_updated,2023.1.3,MacIntel,60.0024001,125.5278,space,317.5257,,,,,,,,,,,,,,,,,,,,,,,,,,,,,,,,,,,,,,,,,,,,,,,,,,,,,,,,,
,2023-08-31_14h31.01.300,slotMachine_updated,2023.1.3,MacIntel,60.0024001,,,,,443.1711,space,0.5678,,,,,,,,,,,,,,,,,,,,,,,,,,,,,,,,,,,,,,,,,,,,,,,,,,,,,
,2023-08-31_14h31.01.300,slotMachine_updated,2023.1.3,MacIntel,60.0024001,,,,,,,,,space,0.4035,,,,,,,,,,,,,,,,,,,,,,,,,,,,,,,,,,,,,,,,,,,,,,,,,,
,2023-08-31_14h31.01.300,slotMachine_updated,2023.1.3,MacIntel,60.0024001,,,,,,,,,,,,444.19,up,1.8946,,0.5,"[2,1,3]",stimuli/card_100_transparent.png,100,100,0,0,0,0,1,,,,,,,,,,,,,,,,,,,,,,,,,,,,,,,,,,,
,2023-08-31_14h31.01.300,slotMachine_updated,2023.1.3,MacIntel,60.0024001,,,,,,,,,,,,446.9709,up,0.5769,,1.5,"[2,1,3]",stimuli/card_100_transparent.png,200,100,1,0,1,0,1,,,,,,,,,,,,,,,,,,,,,,,,,,,,,,,,,,,
,2023-08-31_14h31.01.300,slotMachine_updated,2023.1.3,MacIntel,60.0024001,,,,,,,,,,,,449.3695,up,0.0079,,1,"[2,1,3]",stimuli/card_10_transparent.png,210,10,2,0,2,0,1,,,,,,,,,,,,,,,,,,,,,,,,,,,,,,,,,,,
,2023-08-31_14h31.01.300,slotMachine_updated,2023.1.3,MacIntel,60.0024001,,,,,,,,,,,,450.7039,up,0.0007,,1.5,"[2,1,3]",stimuli/card_100_transparent.png,310,100,3,0,3,0,1,,,,,,,,,,,,,,,,,,,,,,,,,,,,,,,,,,,
,2023-08-31_14h31.01.300,slotMachine_updated,2023.1.3,MacIntel,60.0024001,,,,,,,,,,,,452.5203,up,3.1527,,1.5,"[2,1,3]",stimuli/card_100_transparent.png,410,100,4,0,4,0,1,,,,,,,,,,,,,,,,,,,,,,,,,,,,,,,,,,,
,2023-08-31_14h31.01.300,slotMachine_updated,2023.1.3,MacIntel,60.0024001,,,,,,,,,,,,457.4932,up,1.1853,0.0003,0.5,"[2,1,3]",stimuli/card_0_transparent.png,410,0,5,0,5,0,1,,,,,,,,,,,,,,,,,,,,,,,,,,,,,,,,,,,
,2023-08-31_14h31.01.300,slotMachine_updated,2023.1.3,MacIntel,60.0024001,,,,,,,,,,,,459.4919,up,0.6149,,0.5,"[2,1,3]",stimuli/card_100_transparent.png,510,100,6,0,6,0,1,,,,,,,,,,,,,,,,,,,,,,,,,,,,,,,,,,,
,2023-08-31_14h31.01.300,slotMachine_updated,2023.1.3,MacIntel,60.0024001,,,,,,,,,,,,460.9261,up,0.1891,,0.5,"[2,1,3]",stimuli/card_100_transparent.png,610,100,7,0,7,0,1,,,,,,,,,,,,,,,,,,,,,,,,,,,,,,,,,,,
,2023-08-31_14h31.01.300,slotMachine_updated,2023.1.3,MacIntel,60.0024001,,,,,,,,,,,,461.9401,up,0.3327,,1,"[2,1,3]",stimuli/card_100_transparent.png,710,100,8,0,8,0,1,,,,,,,,,,,,,,,,,,,,,,,,,,,,,,,,,,,
,2023-08-31_14h31.01.300,slotMachine_updated,2023.1.3,MacIntel,60.0024001,,,,,,,,,,,,463.5987,up,0.8966,,1.5,"[2,3,1]",stimuli/card_0_transparent.png,710,0,9,0,9,0,1,,,,,,,,,,,,,,,,,,,,,,,,,,,,,,,,,,,
,2023-08-31_14h31.01.300,slotMachine_updated,2023.1.3,MacIntel,60.0024001,,,,,,,,,,,,466.3137,right,0.6871,,1.5,"[2,3,1]",stimuli/card_100_transparent.png,810,100,10,0,10,0,1,,,,,,,,,,,,,,,,,,,,,,,,,,,,,,,,,,,
,2023-08-31_14h31.01.300,slotMachine_updated,2023.1.3,MacIntel,60.0024001,,,,,,,,,,,,468.814,right,0.0632,,1.5,"[2,3,1]",stimuli/card_100_transparent.png,910,100,11,0,11,0,1,,,,,,,,,,,,,,,,,,,,,,,,,,,,,,,,,,,
,2023-08-31_14h31.01.300,slotMachine_updated,2023.1.3,MacIntel,60.0024001,,,,,,,,,,,,470.6971,right,0.1267,,0.5,"[2,3,1]",stimuli/card_100_transparent.png,1010,100,12,0,12,0,1,,,,,,,,,,,,,,,,,,,,,,,,,,,,,,,,,,,
,2023-08-31_14h31.01.300,slotMachine_updated,2023.1.3,MacIntel,60.0024001,,,,,,,,,,,,471.6474,right,0.3982,,1.5,"[2,3,1]",stimuli/card_100_transparent.png,1110,100,13,0,13,0,1,,,,,,,,,,,,,,,,,,,,,,,,,,,,,,,,,,,
,2023-08-31_14h31.01.300,slotMachine_updated,2023.1.3,MacIntel,60.0024001,,,,,,,,,,,,473.8544,right,0.0912,,1.5,"[2,3,1]",stimuli/card_100_transparent.png,1210,100,14,0,14,0,1,,,,,,,,,,,,,,,,,,,,,,,,,,,,,,,,,,,
,2023-08-31_14h31.01.300,slotMachine_updated,2023.1.3,MacIntel,60.0024001,,,,,,,,,,,,,,,,,,,,,,,,,,475.7703,space,6562.4272,,,,,,,,,,,,,,,,,,,,,,,,,,,,,,,,
,2023-08-31_14h31.01.300,slotMachine_updated,2023.1.3,MacIntel,60.0024001,,,,,,,,,,,,,,,,,,,,,,,,,,,,,,7038.2101,1,"[0,1,2,3,4,5,6,7,8,9]",7038.213,space,0.5779,,,,,,,,,,,,,,,,,,,,,,,,,
,2023-08-31_14h31.01.300,slotMachine_updated,2023.1.3,MacIntel,60.0024001,,,,,,,,,,,,,,,,,,,,,,,,,,,,,,,,,,,,,"[""12,15"",""6,15"",""15,15"",""7,15"",""5,15"",""4,10,15"",""9,15"",""11,15"",""8,15"",""10,15""]","12,15","[""12,15"",""6,15"",""15,15"",""7,15"",""5,15"",""4,10,15"",""9,15"",""11,15"",""8,15"",""10,15""]",7038.8283,up,0.9951,,1.5,"[2,1,3]",0.683376089,stimuli/card_100_transparent.png,100,100,0,0,0,0,1,,,,,,
,2023-08-31_14h31.01.300,slotMachine_updated,2023.1.3,MacIntel,60.0024001,,,,,,,,,,,,,,,,,,,,,,,,,,,,,,,,,,,,,,,,7041.6744,up,0.3945,,1.5,"[2,1,3]",0.580662369,stimuli/card_100_transparent.png,200,100,1,0,1,0,1,,,,,,
,2023-08-31_14h31.01.300,slotMachine_updated,2023.1.3,MacIntel,60.0024001,,,,,,,,,,,,,,,,,,,,,,,,,,,,,,,,,,,,,,,,7043.8918,up,0.0477,,1.5,"[2,1,3]",0.664028626,stimuli/card_100_transparent.png,300,100,2,0,2,0,1,,,,,,
,2023-08-31_14h31.01.300,slotMachine_updated,2023.1.3,MacIntel,60.0024001,,,,,,,,,,,,,,,,,,,,,,,,,,,,,,,,,,,,,,,,7045.7581,up,0.3338,,1,"[2,1,3]",0.11506417,stimuli/card_10_transparent.png,310,10,3,0,3,0,1,,,,,,
,2023-08-31_14h31.01.300,slotMachine_updated,2023.1.3,MacIntel,60.0024001,,,,,,,,,,,,,,,,,,,,,,,,,,,,,,,,,,,,,,,,7047.4081,up,1.3542,,1,"[2,1,3]",0.862338225,stimuli/card_100_transparent.png,410,100,4,0,4,0,1,,,,,,
,2023-08-31_14h31.01.300,slotMachine_updated,2023.1.3,MacIntel,60.0024001,,,,,,,,,,,,,,,,,,,,,,,,,,,,,,,,,,,,,,,,7050.0807,up,0.4932,,1,"[2,1,3]",0.766709392,stimuli/card_100_transparent.png,510,100,5,0,5,0,1,,,,,,
,2023-08-31_14h31.01.300,slotMachine_updated,2023.1.3,MacIntel,60.0024001,,,,,,,,,,,,,,,,,,,,,,,,,,,,,,,,,,,,,,,,7051.8967,up,0.1323,,1.5,"[2,1,3]",0.367714783,stimuli/card_100_transparent.png,610,100,6,0,6,0,1,,,,,,
,2023-08-31_14h31.01.300,slotMachine_updated,2023.1.3,MacIntel,60.0024001,,,,,,,,,,,,,,,,,,,,,,,,,,,,,,,,,,,,,,,,7053.8468,up,0.6466,,1,"[2,1,3]",0.623474164,stimuli/card_100_transparent.png,710,100,7,0,7,0,1,,,,,,
,2023-08-31_14h31.01.300,slotMachine_updated,2023.1.3,MacIntel,60.0024001,,,,,,,,,,,,,,,,,,,,,,,,,,,,,,,,,,,,,,,,7055.8133,up,0.6881,,0.5,"[2,1,3]",0.581993952,stimuli/card_100_transparent.png,810,100,8,0,8,0,1,,,,,,
,2023-08-31_14h31.01.300,slotMachine_updated,2023.1.3,MacIntel,60.0024001,,,,,,,,,,,,,,,,,,,,,,,,,,,,,,,,,,,,,,,,7057.3289,up,0.0563,,1,"[2,1,3]",0.954704402,stimuli/card_100_transparent.png,910,100,9,0,9,0,1,,,,,,
,2023-08-31_14h31.01.300,slotMachine_updated,2023.1.3,MacIntel,60.0024001,,,,,,,,,,,,,,,,,,,,,,,,,,,,,,,,,,,,,,,,7058.7037,up,0.4392,,1,"[2,1,3]",0.647160982,stimuli/card_100_transparent.png,1010,100,10,0,10,0,1,,,,,,
,2023-08-31_14h31.01.300,slotMachine_updated,2023.1.3,MacIntel,60.0024001,,,,,,,,,,,,,,,,,,,,,,,,,,,,,,,,,,,,,,,,7060.4681,up,0.4525,,0.5,"[2,1,3]",0.560522447,stimuli/card_100_transparent.png,1110,100,11,0,11,0,1,,,,,,
,2023-08-31_14h31.01.300,slotMachine_updated,2023.1.3,MacIntel,60.0024001,,,,,,,,,,,,,,,,,,,,,,,,,,,,,,,,,,,,,,,,7061.7355,up,0.0458,,1,"[2,1,3]",0.876344536,stimuli/card_100_transparent.png,1210,100,12,0,12,0,1,,,,,,
,2023-08-31_14h31.01.300,slotMachine_updated,2023.1.3,MacIntel,60.0024001,,,,,,,,,,,,,,,,,,,,,,,,,,,,,,,,,,,,,,,,7063.1031,up,2.1301,,1,"[2,1,3]",0.674644499,stimuli/card_100_transparent.png,1310,100,13,0,13,0,1,,,,,,
,2023-08-31_14h31.01.300,slotMachine_updated,2023.1.3,MacIntel,60.0024001,,,,,,,,,,,,,,,,,,,,,,,,,,,,,,,,,,,,,,,,7066.5529,up,1.013,,0.5,"[2,1,3]",0.55153587,stimuli/card_100_transparent.png,1410,100,14,0,14,0,1,,,,,,
,2023-08-31_14h31.01.300,slotMachine_updated,2023.1.3,MacIntel,60.0024001,,,,,,,,,,,,,,,,,,,,,,,,,,,,,,,,,,,,,,,,,,,,,,,,,,,,,,,7068.3737,0,0,0,0,1
,2023-08-31_14h31.01.300,slotMachine_updated,2023.1.3,MacIntel,60.0024001,,,,,,,,,,,,,,,,,,,,,,,,,,,,,,,,,,,,,"[""12,15"",""6,15"",""15,15"",""7,15"",""5,15"",""4,10,15"",""9,15"",""11,15"",""8,15"",""10,15""]","6,15","[""12,15"",""6,15"",""15,15"",""7,15"",""5,15"",""4,10,15"",""9,15"",""11,15"",""8,15"",""10,15""]",7073.3756,up,0.6808,,0.5,"[1,3,2]",0.630348928,stimuli/card_0_transparent.png,0,0,0,0,0,0,1,,,,,,
,2023-08-31_14h31.01.300,slotMachine_updated,2023.1.3,MacIntel,60.0024001,,,,,,,,,,,,,,,,,,,,,,,,,,,,,,,,,,,,,,,,7074.8743,up,0.2787,,0.5,"[1,3,2]",0.674222645,stimuli/card_0_transparent.png,0,0,1,0,1,0,1,,,,,,
,2023-08-31_14h31.01.300,slotMachine_updated,2023.1.3,MacIntel,60.0024001,,,,,,,,,,,,,,,,,,,,,,,,,,,,,,,,,,,,,,,,7075.9747,right,0.7172,,1.5,"[1,3,2]",0.929236283,stimuli/card_10_transparent.png,10,10,2,0,2,0,1,,,,,,
,2023-08-31_14h31.01.300,slotMachine_updated,2023.1.3,MacIntel,60.0024001,,,,,,,,,,,,,,,,,,,,,,,,,,,,,,,,,,,,,,,,7078.5116,left,0.2115,,1.5,"[1,3,2]",0.542145947,stimuli/card_100_transparent.png,110,100,3,0,3,0,1,,,,,,
,2023-08-31_14h31.01.300,slotMachine_updated,2023.1.3,MacIntel,60.0024001,,,,,,,,,,,,,,,,,,,,,,,,,,,,,,,,,,,,,,,,7080.5459,left,0.2166,,0.5,"[1,3,2]",0.027590704,stimuli/card_0_transparent.png,110,0,4,0,4,0,1,,,,,,
,2023-08-31_14h31.01.300,slotMachine_updated,2023.1.3,MacIntel,60.0024001,,,,,,,,,,,,,,,,,,,,,,,,,,,,,,,,,,,,,,,,7081.5965,left,0.381,,1.5,"[1,3,2]",0.453281957,stimuli/card_100_transparent.png,210,100,5,0,5,0,1,,,,,,
,2023-08-31_14h31.01.300,slotMachine_updated,2023.1.3,MacIntel,60.0024001,,,,,,,,,,,,,,,,,,,,,,,,,,,,,,,,,,,,,,,,7083.797,left,0.2978,,0.5,"[1,3,2]",0.973295396,stimuli/card_100_transparent.png,310,100,6,0,6,0,1,,,,,,
,2023-08-31_14h31.01.300,slotMachine_updated,2023.1.3,MacIntel,60.0024001,,,,,,,,,,,,,,,,,,,,,,,,,,,,,,,,,,,,,,,,7084.9125,left,0.1215,,0.5,"[1,3,2]",0.024056295,stimuli/card_0_transparent.png,310,0,7,0,7,0,1,,,,,,
,2023-08-31_14h31.01.300,slotMachine_updated,2023.1.3,MacIntel,60.0024001,,,,,,,,,,,,,,,,,,,,,,,,,,,,,,,,,,,,,,,,7085.8611,left,0.0718,,0.5,"[1,3,2]",0.71147258,stimuli/card_100_transparent.png,410,100,8,0,8,0,1,,,,,,
,2023-08-31_14h31.01.300,slotMachine_updated,2023.1.3,MacIntel,60.0024001,,,,,,,,,,,,,,,,,,,,,,,,,,,,,,,,,,,,,,,,7086.7461,left,0.0618,,1,"[1,3,2]",0.164228083,stimuli/card_10_transparent.png,420,10,9,0,9,0,1,,,,,,
,2023-08-31_14h31.01.300,slotMachine_updated,2023.1.3,MacIntel,60.0024001,,,,,,,,,,,,,,,,,,,,,,,,,,,,,,,,,,,,,,,,7088.1171,left,0.0243,,1.5,"[1,3,2]",0.565038476,stimuli/card_100_transparent.png,520,100,10,0,10,0,1,,,,,,
,2023-08-31_14h31.01.300,slotMachine_updated,2023.1.3,MacIntel,60.0024001,,,,,,,,,,,,,,,,,,,,,,,,,,,,,,,,,,,,,,,,7089.9679,left,0.0295,,1.5,"[1,3,2]",0.578860975,stimuli/card_100_transparent.png,620,100,11,0,11,0,1,,,,,,
,2023-08-31_14h31.01.300,slotMachine_updated,2023.1.3,MacIntel,60.0024001,,,,,,,,,,,,,,,,,,,,,,,,,,,,,,,,,,,,,,,,7091.8191,left,0.1499,,1.5,"[1,3,2]",0.875105103,stimuli/card_100_transparent.png,720,100,12,0,12,0,1,,,,,,
,2023-08-31_14h31.01.300,slotMachine_updated,2023.1.3,MacIntel,60.0024001,,,,,,,,,,,,,,,,,,,,,,,,,,,,,,,,,,,,,,,,7093.7842,left,0.084,,0.5,"[1,3,2]",0.853965769,stimuli/card_100_transparent.png,820,100,13,0,13,0,1,,,,,,
,2023-08-31_14h31.01.300,slotMachine_updated,2023.1.3,MacIntel,60.0024001,,,,,,,,,,,,,,,,,,,,,,,,,,,,,,,,,,,,,,,,7094.6838,left,0.0435,,0.5,"[1,3,2]",0.823145187,stimuli/card_100_transparent.png,920,100,14,0,14,0,1,,,,,,
,2023-08-31_14h31.01.300,slotMachine_updated,2023.1.3,MacIntel,60.0024001,,,,,,,,,,,,,,,,,,,,,,,,,,,,,,,,,,,,,,,,,,,,,,,,,,,,,,,7095.5524,1,0,1,0,1
,2023-08-31_14h31.01.300,slotMachine_updated,2023.1.3,MacIntel,60.0024001,,,,,,,,,,,,,,,,,,,,,,,,,,,,,,,,,,,,,"[""12,15"",""6,15"",""15,15"",""7,15"",""5,15"",""4,10,15"",""9,15"",""11,15"",""8,15"",""10,15""]","15,15","[""12,15"",""6,15"",""15,15"",""7,15"",""5,15"",""4,10,15"",""9,15"",""11,15"",""8,15"",""10,15""]",7100.543,left,0.7326,,1.5,"[3,1,2]",0.967910761,stimuli/card_0_transparent.png,0,0,0,0,0,0,1,,,,,,
,2023-08-31_14h31.01.300,slotMachine_updated,2023.1.3,MacIntel,60.0024001,,,,,,,,,,,,,,,,,,,,,,,,,,,,,,,,,,,,,,,,7103.0921,up,0.0576,,0.5,"[3,1,2]",0.352941002,stimuli/card_100_transparent.png,100,100,1,0,1,0,1,,,,,,
,2023-08-31_14h31.01.300,slotMachine_updated,2023.1.3,MacIntel,60.0024001,,,,,,,,,,,,,,,,,,,,,,,,,,,,,,,,,,,,,,,,7103.9565,up,0.2977,,1,"[3,1,2]",0.246741291,stimuli/card_100_transparent.png,200,100,2,0,2,0,1,,,,,,
,2023-08-31_14h31.01.300,slotMachine_updated,2023.1.3,MacIntel,60.0024001,,,,,,,,,,,,,,,,,,,,,,,,,,,,,,,,,,,,,,,,7105.5733,up,0.0576,,0.5,"[3,1,2]",0.079873087,stimuli/card_0_transparent.png,200,0,3,0,3,0,1,,,,,,
,2023-08-31_14h31.01.300,slotMachine_updated,2023.1.3,MacIntel,60.0024001,,,,,,,,,,,,,,,,,,,,,,,,,,,,,,,,,,,,,,,,7106.4578,up,0.1689,,0.5,"[3,1,2]",0.949080784,stimuli/card_100_transparent.png,300,100,4,0,4,0,1,,,,,,
,2023-08-31_14h31.01.300,slotMachine_updated,2023.1.3,MacIntel,60.0024001,,,,,,,,,,,,,,,,,,,,,,,,,,,,,,,,,,,,,,,,7107.4405,up,0.1806,,0.5,"[3,1,2]",0.784672266,stimuli/card_100_transparent.png,400,100,5,0,5,0,1,,,,,,
,2023-08-31_14h31.01.300,slotMachine_updated,2023.1.3,MacIntel,60.0024001,,,,,,,,,,,,,,,,,,,,,,,,,,,,,,,,,,,,,,,,7108.4456,up,0.0011,,1,"[3,1,2]",0.748486642,stimuli/card_100_transparent.png,500,100,6,0,6,0,1,,,,,,
,2023-08-31_14h31.01.300,slotMachine_updated,2023.1.3,MacIntel,60.0024001,,,,,,,,,,,,,,,,,,,,,,,,,,,,,,,,,,,,,,,,7109.7797,up,0.0154,,1,"[3,1,2]",0.833040226,stimuli/card_100_transparent.png,600,100,7,0,7,0,1,,,,,,
,2023-08-31_14h31.01.300,slotMachine_updated,2023.1.3,MacIntel,60.0024001,,,,,,,,,,,,,,,,,,,,,,,,,,,,,,,,,,,,,,,,7111.1141,up,0.0321,,1,"[3,1,2]",0.968980612,stimuli/card_100_transparent.png,700,100,8,0,8,0,1,,,,,,
,2023-08-31_14h31.01.300,slotMachine_updated,2023.1.3,MacIntel,60.0024001,,,,,,,,,,,,,,,,,,,,,,,,,,,,,,,,,,,,,,,,7112.464,up,0.0927,,1,"[3,1,2]",0.751950656,stimuli/card_100_transparent.png,800,100,9,0,9,0,1,,,,,,
,2023-08-31_14h31.01.300,slotMachine_updated,2023.1.3,MacIntel,60.0024001,,,,,,,,,,,,,,,,,,,,,,,,,,,,,,,,,,,,,,,,7113.8813,up,0.1144,,1.5,"[3,1,2]",0.888651708,stimuli/card_100_transparent.png,900,100,10,0,10,0,1,,,,,,
,2023-08-31_14h31.01.300,slotMachine_updated,2023.1.3,MacIntel,60.0024001,,,,,,,,,,,,,,,,,,,,,,,,,,,,,,,,,,,,,,,,7115.8118,up,0.0009,,0.5,"[3,1,2]",0.774048347,stimuli/card_100_transparent.png,1000,100,11,0,11,0,1,,,,,,
,2023-08-31_14h31.01.300,slotMachine_updated,2023.1.3,MacIntel,60.0024001,,,,,,,,,,,,,,,,,,,,,,,,,,,,,,,,,,,,,,,,7116.6296,up,0.0007,,0.5,"[3,1,2]",0.06402311,stimuli/card_0_transparent.png,1000,0,12,0,12,0,1,,,,,,
,2023-08-31_14h31.01.300,slotMachine_updated,2023.1.3,MacIntel,60.0024001,,,,,,,,,,,,,,,,,,,,,,,,,,,,,,,,,,,,,,,,7117.4466,up,0.0713,,1.5,"[3,1,2]",0.316196872,stimuli/card_100_transparent.png,1100,100,13,0,13,0,1,,,,,,
,2023-08-31_14h31.01.300,slotMachine_updated,2023.1.3,MacIntel,60.0024001,,,,,,,,,,,,,,,,,,,,,,,,,,,,,,,,,,,,,,,,7119.3173,up,0.1607,,0.5,"[3,1,2]",0.283446355,stimuli/card_100_transparent.png,1200,100,14,0,14,0,1,,,,,,
,2023-08-31_14h31.01.300,slotMachine_updated,2023.1.3,MacIntel,60.0024001,,,,,,,,,,,,,,,,,,,,,,,,,,,,,,,,,,,,,,,,,,,,,,,,,,,,,,,7120.3013,2,0,2,0,1
,2023-08-31_14h31.01.300,slotMachine_updated,2023.1.3,MacIntel,60.0024001,,,,,,,,,,,,,,,,,,,,,,,,,,,,,,,,,,,,,"[""12,15"",""6,15"",""15,15"",""7,15"",""5,15"",""4,10,15"",""9,15"",""11,15"",""8,15"",""10,15""]","7,15","[""12,15"",""6,15"",""15,15"",""7,15"",""5,15"",""4,10,15"",""9,15"",""11,15"",""8,15"",""10,15""]",7125.3031,right,0.76,,1,"[2,3,1]",0.451425113,stimuli/card_100_transparent.png,100,100,0,0,0,0,1,,,,,,
,2023-08-31_14h31.01.300,slotMachine_updated,2023.1.3,MacIntel,60.0024001,,,,,,,,,,,,,,,,,,,,,,,,,,,,,,,,,,,,,,,,7127.3848,right,0.548,,1.5,"[2,3,1]",0.773318341,stimuli/card_100_transparent.png,200,100,1,0,1,0,1,,,,,,
,2023-08-31_14h31.01.300,slotMachine_updated,2023.1.3,MacIntel,60.0024001,,,,,,,,,,,,,,,,,,,,,,,,,,,,,,,,,,,,,,,,7129.7571,right,0.0761,,0.5,"[2,3,1]",0.790437354,stimuli/card_100_transparent.png,300,100,2,0,2,0,1,,,,,,
,2023-08-31_14h31.01.300,slotMachine_updated,2023.1.3,MacIntel,60.0024001,,,,,,,,,,,,,,,,,,,,,,,,,,,,,,,,,,,,,,,,7130.6576,right,0.126,,1.5,"[2,3,1]",0.166536571,stimuli/card_10_transparent.png,310,10,3,0,3,0,1,,,,,,
,2023-08-31_14h31.01.300,slotMachine_updated,2023.1.3,MacIntel,60.0024001,,,,,,,,,,,,,,,,,,,,,,,,,,,,,,,,,,,,,,,,7132.6087,right,0.038,,1.5,"[2,3,1]",0.509689372,stimuli/card_100_transparent.png,410,100,4,0,4,0,1,,,,,,
,2023-08-31_14h31.01.300,slotMachine_updated,2023.1.3,MacIntel,60.0024001,,,,,,,,,,,,,,,,,,,,,,,,,,,,,,,,,,,,,,,,7134.4572,right,0.1146,,1.5,"[2,3,1]",0.404049637,stimuli/card_100_transparent.png,510,100,5,0,5,0,1,,,,,,
,2023-08-31_14h31.01.300,slotMachine_updated,2023.1.3,MacIntel,60.0024001,,,,,,,,,,,,,,,,,,,,,,,,,,,,,,,,,,,,,,,,7136.3912,right,0.111,,1.5,"[2,3,1]",0.593181772,stimuli/card_100_transparent.png,610,100,6,0,6,0,1,,,,,,
,2023-08-31_14h31.01.300,slotMachine_updated,2023.1.3,MacIntel,60.0024001,,,,,,,,,,,,,,,,,,,,,,,,,,,,,,,,,,,,,,,,7138.314,right,0.0851,,0.5,"[2,3,1]",0.290842171,stimuli/card_100_transparent.png,710,100,7,0,7,0,1,,,,,,
,2023-08-31_14h31.01.300,slotMachine_updated,2023.1.3,MacIntel,60.0024001,,,,,,,,,,,,,,,,,,,,,,,,,,,,,,,,,,,,,,,,7139.2141,right,0.0007,,1.5,"[2,3,1]",0.13022932,stimuli/card_10_transparent.png,720,10,8,0,8,0,1,,,,,,
,2023-08-31_14h31.01.300,slotMachine_updated,2023.1.3,MacIntel,60.0024001,,,,,,,,,,,,,,,,,,,,,,,,,,,,,,,,,,,,,,,,7141.0308,right,0.0151,,0.5,"[2,3,1]",0.051016584,stimuli/card_0_transparent.png,720,0,9,0,9,0,1,,,,,,
,2023-08-31_14h31.01.300,slotMachine_updated,2023.1.3,MacIntel,60.0024001,,,,,,,,,,,,,,,,,,,,,,,,,,,,,,,,,,,,,,,,7141.8642,right,0.0894,0.0002,1,"[2,3,1]",0.345407582,stimuli/card_100_transparent.png,820,100,10,0,10,0,1,,,,,,
,2023-08-31_14h31.01.300,slotMachine_updated,2023.1.3,MacIntel,60.0024001,,,,,,,,,,,,,,,,,,,,,,,,,,,,,,,,,,,,,,,,7143.2621,left,0.0977,,1,"[2,3,1]",0.709713758,stimuli/card_10_transparent.png,830,10,11,0,11,0,1,,,,,,
,2023-08-31_14h31.01.300,slotMachine_updated,2023.1.3,MacIntel,60.0024001,,,,,,,,,,,,,,,,,,,,,,,,,,,,,,,,,,,,,,,,7144.6807,right,0.0954,,0.5,"[2,3,1]",0.920735165,stimuli/card_100_transparent.png,930,100,12,0,12,0,1,,,,,,
,2023-08-31_14h31.01.300,slotMachine_updated,2023.1.3,MacIntel,60.0024001,,,,,,,,,,,,,,,,,,,,,,,,,,,,,,,,,,,,,,,,7145.5952,right,0.0883,,0.5,"[2,3,1]",0.991750128,stimuli/card_100_transparent.png,1030,100,13,0,13,0,1,,,,,,
,2023-08-31_14h31.01.300,slotMachine_updated,2023.1.3,MacIntel,60.0024001,,,,,,,,,,,,,,,,,,,,,,,,,,,,,,,,,,,,,,,,7146.5124,right,0.1199,,1,"[2,3,1]",0.873886047,stimuli/card_100_transparent.png,1130,100,14,0,14,0,1,,,,,,
,2023-08-31_14h31.01.300,slotMachine_updated,2023.1.3,MacIntel,60.0024001,,,,,,,,,,,,,,,,,,,,,,,,,,,,,,,,,,,,,,,,,,,,,,,,,,,,,,,7147.9673,3,0,3,0,1
,2023-08-31_14h31.01.300,slotMachine_updated,2023.1.3,MacIntel,60.0024001,,,,,,,,,,,,,,,,,,,,,,,,,,,,,,,,,,,,,"[""12,15"",""6,15"",""15,15"",""7,15"",""5,15"",""4,10,15"",""9,15"",""11,15"",""8,15"",""10,15""]","5,15","[""12,15"",""6,15"",""15,15"",""7,15"",""5,15"",""4,10,15"",""9,15"",""11,15"",""8,15"",""10,15""]",7152.9703,up,1.0095,,1.5,"[1,2,3]",0.14505661,stimuli/card_100_transparent.png,100,100,0,0,0,0,1,,,,,,
,2023-08-31_14h31.01.300,slotMachine_updated,2023.1.3,MacIntel,60.0024001,,,,,,,,,,,,,,,,,,,,,,,,,,,,,,,,,,,,,,,,7155.8037,up,0.3788,,1.5,"[1,2,3]",0.663766767,stimuli/card_10_transparent.png,110,10,1,0,1,0,1,,,,,,
,2023-08-31_14h31.01.300,slotMachine_updated,2023.1.3,MacIntel,60.0024001,,,,,,,,,,,,,,,,,,,,,,,,,,,,,,,,,,,,,,,,7158.0062,up,0.2295,,1,"[1,2,3]",0.196893544,stimuli/card_100_transparent.png,210,100,2,0,2,0,1,,,,,,
,2023-08-31_14h31.01.300,slotMachine_updated,2023.1.3,MacIntel,60.0024001,,,,,,,,,,,,,,,,,,,,,,,,,,,,,,,,,,,,,,,,7159.5583,up,0.315,,1,"[1,2,3]",0.38677358,stimuli/card_10_transparent.png,220,10,3,0,3,0,1,,,,,,
,2023-08-31_14h31.01.300,slotMachine_updated,2023.1.3,MacIntel,60.0024001,,,,,,,,,,,,,,,,,,,,,,,,,,,,,,,,,,,,,,,,7161.1912,up,0.446,,1,"[1,2,3]",0.098210688,stimuli/card_0_transparent.png,220,0,4,0,4,0,1,,,,,,
,2023-08-31_14h31.01.300,slotMachine_updated,2023.1.3,MacIntel,60.0024001,,,,,,,,,,,,,,,,,,,,,,,,,,,,,,,,,,,,,,,,7162.9571,up,0.2809,,1.5,"[1,2,3]",0.064634417,stimuli/card_0_transparent.png,220,0,5,0,5,0,1,,,,,,
,2023-08-31_14h31.01.300,slotMachine_updated,2023.1.3,MacIntel,60.0024001,,,,,,,,,,,,,,,,,,,,,,,,,,,,,,,,,,,,,,,,7165.0592,up,0.2204,,1.5,"[1,2,3]",0.752107269,stimuli/card_10_transparent.png,230,10,6,0,6,0,1,,,,,,
,2023-08-31_14h31.01.300,slotMachine_updated,2023.1.3,MacIntel,60.0024001,,,,,,,,,,,,,,,,,,,,,,,,,,,,,,,,,,,,,,,,7167.0921,left,1.267,,0.5,"[1,2,3]",0.67212965,stimuli/card_100_transparent.png,330,100,7,0,7,0,1,,,,,,
,2023-08-31_14h31.01.300,slotMachine_updated,2023.1.3,MacIntel,60.0024001,,,,,,,,,,,,,,,,,,,,,,,,,,,,,,,,,,,,,,,,7169.1797,left,0.3142,,0.5,"[1,2,3]",0.701309102,stimuli/card_100_transparent.png,430,100,8,0,8,0,1,,,,,,
,2023-08-31_14h31.01.300,slotMachine_updated,2023.1.3,MacIntel,60.0024001,,,,,,,,,,,,,,,,,,,,,,,,,,,,,,,,,,,,,,,,7170.3137,left,0.1301,,1,"[1,2,3]",0.385457094,stimuli/card_100_transparent.png,530,100,9,0,9,0,1,,,,,,
,2023-08-31_14h31.01.300,slotMachine_updated,2023.1.3,MacIntel,60.0024001,,,,,,,,,,,,,,,,,,,,,,,,,,,,,,,,,,,,,,,,7171.7647,left,0.0844,,1,"[1,2,3]",0.623916452,stimuli/card_100_transparent.png,630,100,10,0,10,0,1,,,,,,
,2023-08-31_14h31.01.300,slotMachine_updated,2023.1.3,MacIntel,60.0024001,,,,,,,,,,,,,,,,,,,,,,,,,,,,,,,,,,,,,,,,7173.1626,left,0.0313,,1,"[1,2,3]",0.738566438,stimuli/card_100_transparent.png,730,100,11,0,11,0,1,,,,,,
,2023-08-31_14h31.01.300,slotMachine_updated,2023.1.3,MacIntel,60.0024001,,,,,,,,,,,,,,,,,,,,,,,,,,,,,,,,,,,,,,,,7174.516,left,0.0313,,0.5,"[1,2,3]",0.222655738,stimuli/card_100_transparent.png,830,100,12,0,12,0,1,,,,,,
,2023-08-31_14h31.01.300,slotMachine_updated,2023.1.3,MacIntel,60.0024001,,,,,,,,,,,,,,,,,,,,,,,,,,,,,,,,,,,,,,,,7175.3628,left,0.1504,,0.5,"[1,2,3]",0.60877117,stimuli/card_100_transparent.png,930,100,13,0,13,0,1,,,,,,
,2023-08-31_14h31.01.300,slotMachine_updated,2023.1.3,MacIntel,60.0024001,,,,,,,,,,,,,,,,,,,,,,,,,,,,,,,,,,,,,,,,7176.3304,left,0.0471,,1,"[1,2,3]",0.462445797,stimuli/card_100_transparent.png,1030,100,14,0,14,0,1,,,,,,
,2023-08-31_14h31.01.300,slotMachine_updated,2023.1.3,MacIntel,60.0024001,,,,,,,,,,,,,,,,,,,,,,,,,,,,,,,,,,,,,,,,,,,,,,,,,,,,,,,7177.6959,4,0,4,0,1
,2023-08-31_14h31.01.300,slotMachine_updated,2023.1.3,MacIntel,60.0024001,,,,,,,,,,,,,,,,,,,,,,,,,,,,,,,,,,,,,"[""12,15"",""6,15"",""15,15"",""7,15"",""5,15"",""4,10,15"",""9,15"",""11,15"",""8,15"",""10,15""]","4,10,15","[""12,15"",""6,15"",""15,15"",""7,15"",""5,15"",""4,10,15"",""9,15"",""11,15"",""8,15"",""10,15""]",7182.6881,right,0.4833,,0.5,"[2,3,1]",0.643353447,stimuli/card_100_transparent.png,100,100,0,0,0,0,1,,,,,,
,2023-08-31_14h31.01.300,slotMachine_updated,2023.1.3,MacIntel,60.0024001,,,,,,,,,,,,,,,,,,,,,,,,,,,,,,,,,,,,,,,,7183.9879,right,0.3766,,0.5,"[2,3,1]",0.40514004,stimuli/card_100_transparent.png,200,100,1,0,1,0,1,,,,,,
,2023-08-31_14h31.01.300,slotMachine_updated,2023.1.3,MacIntel,60.0024001,,,,,,,,,,,,,,,,,,,,,,,,,,,,,,,,,,,,,,,,7185.184,right,0.4781,,1.5,"[2,3,1]",0.356112583,stimuli/card_100_transparent.png,300,100,2,0,2,0,1,,,,,,
,2023-08-31_14h31.01.300,slotMachine_updated,2023.1.3,MacIntel,60.0024001,,,,,,,,,,,,,,,,,,,,,,,,,,,,,,,,,,,,,,,,7187.4883,right,0.2923,,1.5,"[2,3,1]",0.774827181,stimuli/card_100_transparent.png,400,100,3,0,3,0,1,,,,,,
,2023-08-31_14h31.01.300,slotMachine_updated,2023.1.3,MacIntel,60.0024001,,,,,,,,,,,,,,,,,,,,,,,,,,,,,,,,,,,,,,,,7189.5897,right,2.4706,,1,"[2,3,1]",0.613405129,stimuli/card_100_transparent.png,500,100,4,0,4,0,1,,,,,,
,2023-08-31_14h31.01.300,slotMachine_updated,2023.1.3,MacIntel,60.0024001,,,,,,,,,,,,,,,,,,,,,,,,,,,,,,,,,,,,,,,,7193.3931,right,0.9447,,1,"[2,3,1]",0.896708681,stimuli/card_100_transparent.png,600,100,5,0,5,0,1,,,,,,
,2023-08-31_14h31.01.300,slotMachine_updated,2023.1.3,MacIntel,60.0024001,,,,,,,,,,,,,,,,,,,,,,,,,,,,,,,,,,,,,,,,7195.6584,right,0.9601,,1.5,"[2,3,1]",0.819124055,stimuli/card_100_transparent.png,700,100,6,0,6,0,1,,,,,,
,2023-08-31_14h31.01.300,slotMachine_updated,2023.1.3,MacIntel,60.0024001,,,,,,,,,,,,,,,,,,,,,,,,,,,,,,,,,,,,,,,,7198.4311,right,0.4434,,1,"[2,3,1]",0.402744082,stimuli/card_100_transparent.png,800,100,7,0,7,0,1,,,,,,
,2023-08-31_14h31.01.300,slotMachine_updated,2023.1.3,MacIntel,60.0024001,,,,,,,,,,,,,,,,,,,,,,,,,,,,,,,,,,,,,,,,7200.1988,right,0.5626,,1,"[2,3,1]",0.516514003,stimuli/card_100_transparent.png,900,100,8,0,8,0,1,,,,,,
,2023-08-31_14h31.01.300,slotMachine_updated,2023.1.3,MacIntel,60.0024001,,,,,,,,,,,,,,,,,,,,,,,,,,,,,,,,,,,,,,,,7202.0808,right,0.5129,,1,"[2,3,1]",0.595687474,stimuli/card_100_transparent.png,1000,100,9,0,9,0,1,,,,,,
,2023-08-31_14h31.01.300,slotMachine_updated,2023.1.3,MacIntel,60.0024001,,,,,,,,,,,,,,,,,,,,,,,,,,,,,,,,,,,,,,,,7203.9144,right,0.5662,,1.5,"[2,3,1]",0.73585664,stimuli/card_100_transparent.png,1100,100,10,0,10,0,1,,,,,,
,2023-08-31_14h31.01.300,slotMachine_updated,2023.1.3,MacIntel,60.0024001,,,,,,,,,,,,,,,,,,,,,,,,,,,,,,,,,,,,,,,,7206.2984,right,0.4811,,0.5,"[2,3,1]",0.461854404,stimuli/card_100_transparent.png,1200,100,11,0,11,0,1,,,,,,
,2023-08-31_14h31.01.300,slotMachine_updated,2023.1.3,MacIntel,60.0024001,,,,,,,,,,,,,,,,,,,,,,,,,,,,,,,,,,,,,,,,7207.5976,right,0.834,,1,"[2,3,1]",0.563639812,stimuli/card_100_transparent.png,1300,100,12,0,12,0,1,,,,,,
,2023-08-31_14h31.01.300,slotMachine_updated,2023.1.3,MacIntel,60.0024001,,,,,,,,,,,,,,,,,,,,,,,,,,,,,,,,,,,,,,,,7209.7519,right,0.4613,,1.5,"[2,3,1]",0.384951493,stimuli/card_100_transparent.png,1400,100,13,0,13,0,1,,,,,,
,2023-08-31_14h31.01.300,slotMachine_updated,2023.1.3,MacIntel,60.0024001,,,,,,,,,,,,,,,,,,,,,,,,,,,,,,,,,,,,,,,,7212.034,right,0.4152,,1.5,"[2,3,1]",0.536816359,stimuli/card_100_transparent.png,1500,100,14,0,14,0,1,,,,,,
,2023-08-31_14h31.01.300,slotMachine_updated,2023.1.3,MacIntel,60.0024001,,,,,,,,,,,,,,,,,,,,,,,,,,,,,,,,,,,,,,,,,,,,,,,,,,,,,,,7214.2696,5,0,5,0,1
,2023-08-31_14h31.01.300,slotMachine_updated,2023.1.3,MacIntel,60.0024001,,,,,,,,,,,,,,,,,,,,,,,,,,,,,,,,,,,,,"[""12,15"",""6,15"",""15,15"",""7,15"",""5,15"",""4,10,15"",""9,15"",""11,15"",""8,15"",""10,15""]","9,15","[""12,15"",""6,15"",""15,15"",""7,15"",""5,15"",""4,10,15"",""9,15"",""11,15"",""8,15"",""10,15""]",7219.261,left,0.8912,,0.5,"[1,3,2]",0.104315981,stimuli/card_10_transparent.png,10,10,0,0,0,0,1,,,,,,
,2023-08-31_14h31.01.300,slotMachine_updated,2023.1.3,MacIntel,60.0024001,,,,,,,,,,,,,,,,,,,,,,,,,,,,,,,,,,,,,,,,7220.9749,left,0.3698,,0.5,"[1,3,2]",0.421192343,stimuli/card_100_transparent.png,110,100,1,0,1,0,1,,,,,,
,2023-08-31_14h31.01.300,slotMachine_updated,2023.1.3,MacIntel,60.0024001,,,,,,,,,,,,,,,,,,,,,,,,,,,,,,,,,,,,,,,,7222.1591,left,0.5931,,0.5,"[1,3,2]",0.194149049,stimuli/card_10_transparent.png,120,10,2,0,2,0,1,,,,,,
,2023-08-31_14h31.01.300,slotMachine_updated,2023.1.3,MacIntel,60.0024001,,,,,,,,,,,,,,,,,,,,,,,,,,,,,,,,,,,,,,,,7223.5747,left,0.2588,,1.5,"[1,3,2]",0.8410726,stimuli/card_100_transparent.png,220,100,3,0,3,0,1,,,,,,
,2023-08-31_14h31.01.300,slotMachine_updated,2023.1.3,MacIntel,60.0024001,,,,,,,,,,,,,,,,,,,,,,,,,,,,,,,,,,,,,,,,7225.6577,left,0.2756,,0.5,"[1,3,2]",0.979900603,stimuli/card_100_transparent.png,320,100,4,0,4,0,1,,,,,,
,2023-08-31_14h31.01.300,slotMachine_updated,2023.1.3,MacIntel,60.0024001,,,,,,,,,,,,,,,,,,,,,,,,,,,,,,,,,,,,,,,,7226.7588,left,0.2887,,1.5,"[1,3,2]",0.934704288,stimuli/card_100_transparent.png,420,100,5,0,5,0,1,,,,,,
,2023-08-31_14h31.01.300,slotMachine_updated,2023.1.3,MacIntel,60.0024001,,,,,,,,,,,,,,,,,,,,,,,,,,,,,,,,,,,,,,,,7228.8632,left,0.0445,,0.5,"[1,3,2]",0.944020668,stimuli/card_100_transparent.png,520,100,6,0,6,0,1,,,,,,
,2023-08-31_14h31.01.300,slotMachine_updated,2023.1.3,MacIntel,60.0024001,,,,,,,,,,,,,,,,,,,,,,,,,,,,,,,,,,,,,,,,7229.7297,left,0.4926,,0.5,"[1,3,2]",0.156073429,stimuli/card_10_transparent.png,530,10,7,0,7,0,1,,,,,,
,2023-08-31_14h31.01.300,slotMachine_updated,2023.1.3,MacIntel,60.0024001,,,,,,,,,,,,,,,,,,,,,,,,,,,,,,,,,,,,,,,,7231.0475,left,0.608,,1,"[1,3,2]",0.845674711,stimuli/card_100_transparent.png,630,100,8,0,8,0,1,,,,,,
,2023-08-31_14h31.01.300,slotMachine_updated,2023.1.3,MacIntel,60.0024001,,,,,,,,,,,,,,,,,,,,,,,,,,,,,,,,,,,,,,,,7232.9793,left,0.2161,,1,"[1,3,2]",0.931220813,stimuli/card_100_transparent.png,730,100,9,0,9,0,1,,,,,,
,2023-08-31_14h31.01.300,slotMachine_updated,2023.1.3,MacIntel,60.0024001,,,,,,,,,,,,,,,,,,,,,,,,,,,,,,,,,,,,,,,,7234.5125,left,0.132,,0.5,"[1,3,2]",0.19313893,stimuli/card_10_transparent.png,740,10,10,0,10,0,1,,,,,,
,2023-08-31_14h31.01.300,slotMachine_updated,2023.1.3,MacIntel,60.0024001,,,,,,,,,,,,,,,,,,,,,,,,,,,,,,,,,,,,,,,,7235.4633,left,0.4228,,1,"[1,3,2]",0.671240476,stimuli/card_100_transparent.png,840,100,11,0,11,0,1,,,,,,
,2023-08-31_14h31.01.300,slotMachine_updated,2023.1.3,MacIntel,60.0024001,,,,,,,,,,,,,,,,,,,,,,,,,,,,,,,,,,,,,,,,7237.2125,left,0.2234,,1,"[1,3,2]",0.970162015,stimuli/card_100_transparent.png,940,100,12,0,12,0,1,,,,,,
,2023-08-31_14h31.01.300,slotMachine_updated,2023.1.3,MacIntel,60.0024001,,,,,,,,,,,,,,,,,,,,,,,,,,,,,,,,,,,,,,,,7238.7537,left,0.2437,,1,"[1,3,2]",0.235500764,stimuli/card_100_transparent.png,1040,100,13,0,13,0,1,,,,,,
,2023-08-31_14h31.01.300,slotMachine_updated,2023.1.3,MacIntel,60.0024001,,,,,,,,,,,,,,,,,,,,,,,,,,,,,,,,,,,,,,,,7240.3208,left,0.3826,,1.5,"[1,3,2]",0.551121055,stimuli/card_100_transparent.png,1140,100,14,0,14,0,1,,,,,,
,2023-08-31_14h31.01.300,slotMachine_updated,2023.1.3,MacIntel,60.0024001,,,,,,,,,,,,,,,,,,,,,,,,,,,,,,,,,,,,,,,,,,,,,,,,,,,,,,,7242.5201,6,0,6,0,1
,2023-08-31_14h31.01.300,slotMachine_updated,2023.1.3,MacIntel,60.0024001,,,,,,,,,,,,,,,,,,,,,,,,,,,,,,,,,,,,,"[""12,15"",""6,15"",""15,15"",""7,15"",""5,15"",""4,10,15"",""9,15"",""11,15"",""8,15"",""10,15""]","11,15","[""12,15"",""6,15"",""15,15"",""7,15"",""5,15"",""4,10,15"",""9,15"",""11,15"",""8,15"",""10,15""]",7247.5212,up,0.8785,,1,"[2,1,3]",0.929831498,stimuli/card_100_transparent.png,100,100,0,0,0,0,1,,,,,,
,2023-08-31_14h31.01.300,slotMachine_updated,2023.1.3,MacIntel,60.0024001,,,,,,,,,,,,,,,,,,,,,,,,,,,,,,,,,,,,,,,,7249.7235,up,0.3569,,1,"[2,1,3]",0.609231226,stimuli/card_100_transparent.png,200,100,1,0,1,0,1,,,,,,
,2023-08-31_14h31.01.300,slotMachine_updated,2023.1.3,MacIntel,60.0024001,,,,,,,,,,,,,,,,,,,,,,,,,,,,,,,,,,,,,,,,7251.4087,up,0.3598,,1.5,"[2,1,3]",0.797481859,stimuli/card_100_transparent.png,300,100,2,0,2,0,1,,,,,,
,2023-08-31_14h31.01.300,slotMachine_updated,2023.1.3,MacIntel,60.0024001,,,,,,,,,,,,,,,,,,,,,,,,,,,,,,,,,,,,,,,,7253.5924,up,0.1677,,1,"[2,1,3]",0.677121135,stimuli/card_100_transparent.png,400,100,3,0,3,0,1,,,,,,
,2023-08-31_14h31.01.300,slotMachine_updated,2023.1.3,MacIntel,60.0024001,,,,,,,,,,,,,,,,,,,,,,,,,,,,,,,,,,,,,,,,7255.0734,up,0.2952,,0.5,"[2,1,3]",0.01468248,stimuli/card_0_transparent.png,400,0,4,0,4,0,1,,,,,,
,2023-08-31_14h31.01.300,slotMachine_updated,2023.1.3,MacIntel,60.0024001,,,,,,,,,,,,,,,,,,,,,,,,,,,,,,,,,,,,,,,,7256.1917,up,0.4735,,0.5,"[2,1,3]",0.391362348,stimuli/card_100_transparent.png,500,100,5,0,5,0,1,,,,,,
,2023-08-31_14h31.01.300,slotMachine_updated,2023.1.3,MacIntel,60.0024001,,,,,,,,,,,,,,,,,,,,,,,,,,,,,,,,,,,,,,,,7257.4732,up,0.1796,,0.5,"[2,1,3]",0.905197476,stimuli/card_100_transparent.png,600,100,6,0,6,0,1,,,,,,
,2023-08-31_14h31.01.300,slotMachine_updated,2023.1.3,MacIntel,60.0024001,,,,,,,,,,,,,,,,,,,,,,,,,,,,,,,,,,,,,,,,7258.4627,up,0.1944,,1.5,"[2,1,3]",0.29219807,stimuli/card_100_transparent.png,700,100,7,0,7,0,1,,,,,,
,2023-08-31_14h31.01.300,slotMachine_updated,2023.1.3,MacIntel,60.0024001,,,,,,,,,,,,,,,,,,,,,,,,,,,,,,,,,,,,,,,,7260.4804,up,0.4273,,0.5,"[2,1,3]",0.07876779,stimuli/card_0_transparent.png,700,0,8,0,8,0,1,,,,,,
,2023-08-31_14h31.01.300,slotMachine_updated,2023.1.3,MacIntel,60.0024001,,,,,,,,,,,,,,,,,,,,,,,,,,,,,,,,,,,,,,,,7261.7314,up,0.4419,,0.5,"[2,1,3]",0.69065985,stimuli/card_100_transparent.png,800,100,9,0,9,0,1,,,,,,
,2023-08-31_14h31.01.300,slotMachine_updated,2023.1.3,MacIntel,60.0024001,,,,,,,,,,,,,,,,,,,,,,,,,,,,,,,,,,,,,,,,7262.9812,up,0.278,,1.5,"[2,1,3]",0.157375265,stimuli/card_10_transparent.png,810,10,10,0,10,0,1,,,,,,
,2023-08-31_14h31.01.300,slotMachine_updated,2023.1.3,MacIntel,60.0024001,,,,,,,,,,,,,,,,,,,,,,,,,,,,,,,,,,,,,,,,7265.082,up,0.0711,,1,"[2,1,3]",0.006091541,stimuli/card_0_transparent.png,810,0,11,0,11,0,1,,,,,,
,2023-08-31_14h31.01.300,slotMachine_updated,2023.1.3,MacIntel,60.0024001,,,,,,,,,,,,,,,,,,,,,,,,,,,,,,,,,,,,,,,,7266.4821,up,0.2525,,1.5,"[2,1,3]",0.84209316,stimuli/card_100_transparent.png,910,100,12,0,12,0,1,,,,,,
,2023-08-31_14h31.01.300,slotMachine_updated,2023.1.3,MacIntel,60.0024001,,,,,,,,,,,,,,,,,,,,,,,,,,,,,,,,,,,,,,,,7268.5349,up,1.2445,,1.5,"[2,1,3]",0.653833237,stimuli/card_100_transparent.png,1010,100,13,0,13,0,1,,,,,,
,2023-08-31_14h31.01.300,slotMachine_updated,2023.1.3,MacIntel,60.0024001,,,,,,,,,,,,,,,,,,,,,,,,,,,,,,,,,,,,,,,,7271.6035,up,0.1585,,0.5,"[2,1,3]",0.171238405,stimuli/card_10_transparent.png,1020,10,14,0,14,0,1,,,,,,
,2023-08-31_14h31.01.300,slotMachine_updated,2023.1.3,MacIntel,60.0024001,,,,,,,,,,,,,,,,,,,,,,,,,,,,,,,,,,,,,,,,,,,,,,,,,,,,,,,7272.587,7,0,7,0,1
,2023-08-31_14h31.01.300,slotMachine_updated,2023.1.3,MacIntel,60.0024001,,,,,,,,,,,,,,,,,,,,,,,,,,,,,,,,,,,,,"[""12,15"",""6,15"",""15,15"",""7,15"",""5,15"",""4,10,15"",""9,15"",""11,15"",""8,15"",""10,15""]","8,15","[""12,15"",""6,15"",""15,15"",""7,15"",""5,15"",""4,10,15"",""9,15"",""11,15"",""8,15"",""10,15""]",7277.5868,up,0.4336,,1,"[3,2,1]",0.076404896,stimuli/card_0_transparent.png,0,0,0,0,0,0,1,,,,,,
,2023-08-31_14h31.01.300,slotMachine_updated,2023.1.3,MacIntel,60.0024001,,,,,,,,,,,,,,,,,,,,,,,,,,,,,,,,,,,,,,,,7279.3409,up,0.1252,,1,"[3,2,1]",0.271406152,stimuli/card_10_transparent.png,10,10,1,0,1,0,1,,,,,,
,2023-08-31_14h31.01.300,slotMachine_updated,2023.1.3,MacIntel,60.0024001,,,,,,,,,,,,,,,,,,,,,,,,,,,,,,,,,,,,,,,,7280.7772,right,0.1299,,0.5,"[3,2,1]",0.634720429,stimuli/card_100_transparent.png,110,100,2,0,2,0,1,,,,,,
,2023-08-31_14h31.01.300,slotMachine_updated,2023.1.3,MacIntel,60.0024001,,,,,,,,,,,,,,,,,,,,,,,,,,,,,,,,,,,,,,,,7281.7255,right,0.226,,1.5,"[3,2,1]",0.664950714,stimuli/card_100_transparent.png,210,100,3,0,3,0,1,,,,,,
,2023-08-31_14h31.01.300,slotMachine_updated,2023.1.3,MacIntel,60.0024001,,,,,,,,,,,,,,,,,,,,,,,,,,,,,,,,,,,,,,,,7283.7731,right,0.0368,,1.5,"[3,2,1]",0.885390346,stimuli/card_100_transparent.png,310,100,4,0,4,0,1,,,,,,
,2023-08-31_14h31.01.300,slotMachine_updated,2023.1.3,MacIntel,60.0024001,,,,,,,,,,,,,,,,,,,,,,,,,,,,,,,,,,,,,,,,7285.6235,right,0.5008,,0.5,"[3,2,1]",0.473103012,stimuli/card_100_transparent.png,410,100,5,0,5,0,1,,,,,,
,2023-08-31_14h31.01.300,slotMachine_updated,2023.1.3,MacIntel,60.0024001,,,,,,,,,,,,,,,,,,,,,,,,,,,,,,,,,,,,,,,,7286.9416,right,0.3994,,1.5,"[3,2,1]",0.443617097,stimuli/card_100_transparent.png,510,100,6,0,6,0,1,,,,,,
,2023-08-31_14h31.01.300,slotMachine_updated,2023.1.3,MacIntel,60.0024001,,,,,,,,,,,,,,,,,,,,,,,,,,,,,,,,,,,,,,,,7289.1464,right,0.3822,,1,"[3,2,1]",0.46168153,stimuli/card_100_transparent.png,610,100,7,0,7,0,1,,,,,,
,2023-08-31_14h31.01.300,slotMachine_updated,2023.1.3,MacIntel,60.0024001,,,,,,,,,,,,,,,,,,,,,,,,,,,,,,,,,,,,,,,,7290.8474,right,0.3935,,1,"[3,2,1]",0.790917018,stimuli/card_100_transparent.png,710,100,8,0,8,0,1,,,,,,
,2023-08-31_14h31.01.300,slotMachine_updated,2023.1.3,MacIntel,60.0024001,,,,,,,,,,,,,,,,,,,,,,,,,,,,,,,,,,,,,,,,7292.5652,right,0.1437,,1.5,"[3,2,1]",0.341998975,stimuli/card_100_transparent.png,810,100,9,0,9,0,1,,,,,,
,2023-08-31_14h31.01.300,slotMachine_updated,2023.1.3,MacIntel,60.0024001,,,,,,,,,,,,,,,,,,,,,,,,,,,,,,,,,,,,,,,,7294.533,right,0.0587,,1,"[3,2,1]",0.456107419,stimuli/card_100_transparent.png,910,100,10,0,10,0,1,,,,,,
,2023-08-31_14h31.01.300,slotMachine_updated,2023.1.3,MacIntel,60.0024001,,,,,,,,,,,,,,,,,,,,,,,,,,,,,,,,,,,,,,,,7295.9143,right,0.1837,,1,"[3,2,1]",0.225055191,stimuli/card_100_transparent.png,1010,100,11,0,11,0,1,,,,,,
,2023-08-31_14h31.01.300,slotMachine_updated,2023.1.3,MacIntel,60.0024001,,,,,,,,,,,,,,,,,,,,,,,,,,,,,,,,,,,,,,,,7297.4131,right,0.1606,,1.5,"[3,2,1]",0.254775709,stimuli/card_100_transparent.png,1110,100,12,0,12,0,1,,,,,,
,2023-08-31_14h31.01.300,slotMachine_updated,2023.1.3,MacIntel,60.0024001,,,,,,,,,,,,,,,,,,,,,,,,,,,,,,,,,,,,,,,,7299.388,right,0.0124,,1.5,"[3,2,1]",0.194233121,stimuli/card_10_transparent.png,1120,10,13,0,13,0,1,,,,,,
,2023-08-31_14h31.01.300,slotMachine_updated,2023.1.3,MacIntel,60.0024001,,,,,,,,,,,,,,,,,,,,,,,,,,,,,,,,,,,,,,,,7301.2214,right,0.1633,,1,"[3,2,1]",0.396399287,stimuli/card_100_transparent.png,1220,100,14,0,14,0,1,,,,,,
,2023-08-31_14h31.01.300,slotMachine_updated,2023.1.3,MacIntel,60.0024001,,,,,,,,,,,,,,,,,,,,,,,,,,,,,,,,,,,,,,,,,,,,,,,,,,,,,,,7302.7039,8,0,8,0,1
,2023-08-31_14h31.01.300,slotMachine_updated,2023.1.3,MacIntel,60.0024001,,,,,,,,,,,,,,,,,,,,,,,,,,,,,,,,,,,,,"[""12,15"",""6,15"",""15,15"",""7,15"",""5,15"",""4,10,15"",""9,15"",""11,15"",""8,15"",""10,15""]","10,15","[""12,15"",""6,15"",""15,15"",""7,15"",""5,15"",""4,10,15"",""9,15"",""11,15"",""8,15"",""10,15""]",7307.7049,right,0.5158,,1,"[3,1,2]",0.274310528,stimuli/card_10_transparent.png,10,10,0,0,0,0,1,,,,,,
,2023-08-31_14h31.01.300,slotMachine_updated,2023.1.3,MacIntel,60.0024001,,,,,,,,,,,,,,,,,,,,,,,,,,,,,,,,,,,,,,,,7309.558,up,0.3519,,1,"[3,1,2]",0.983198067,stimuli/card_100_transparent.png,110,100,1,0,1,0,1,,,,,,
,2023-08-31_14h31.01.300,slotMachine_updated,2023.1.3,MacIntel,60.0024001,,,,,,,,,,,,,,,,,,,,,,,,,,,,,,,,,,,,,,,,7311.2256,up,0.313,,0.5,"[3,1,2]",0.599139263,stimuli/card_100_transparent.png,210,100,2,0,2,0,1,,,,,,
,2023-08-31_14h31.01.300,slotMachine_updated,2023.1.3,MacIntel,60.0024001,,,,,,,,,,,,,,,,,,,,,,,,,,,,,,,,,,,,,,,,7312.3595,up,0.309,,0.5,"[3,1,2]",0.495091315,stimuli/card_100_transparent.png,310,100,3,0,3,0,1,,,,,,
,2023-08-31_14h31.01.300,slotMachine_updated,2023.1.3,MacIntel,60.0024001,,,,,,,,,,,,,,,,,,,,,,,,,,,,,,,,,,,,,,,,7313.4938,up,0.3055,,1,"[3,1,2]",0.270939857,stimuli/card_100_transparent.png,410,100,4,0,4,0,1,,,,,,
,2023-08-31_14h31.01.300,slotMachine_updated,2023.1.3,MacIntel,60.0024001,,,,,,,,,,,,,,,,,,,,,,,,,,,,,,,,,,,,,,,,7315.1087,up,0.3199,,0.5,"[3,1,2]",0.523999871,stimuli/card_100_transparent.png,510,100,5,0,5,0,1,,,,,,
,2023-08-31_14h31.01.300,slotMachine_updated,2023.1.3,MacIntel,60.0024001,,,,,,,,,,,,,,,,,,,,,,,,,,,,,,,,,,,,,,,,7316.2407,up,0.3754,,1,"[3,1,2]",0.71493272,stimuli/card_100_transparent.png,610,100,6,0,6,0,1,,,,,,
,2023-08-31_14h31.01.300,slotMachine_updated,2023.1.3,MacIntel,60.0024001,,,,,,,,,,,,,,,,,,,,,,,,,,,,,,,,,,,,,,,,7317.9426,up,0.2484,,1.5,"[3,1,2]",0.920188861,stimuli/card_100_transparent.png,710,100,7,0,7,0,1,,,,,,
,2023-08-31_14h31.01.300,slotMachine_updated,2023.1.3,MacIntel,60.0024001,,,,,,,,,,,,,,,,,,,,,,,,,,,,,,,,,,,,,,,,7320.0165,up,0.2669,,0.5,"[3,1,2]",0.949937358,stimuli/card_100_transparent.png,810,100,8,0,8,0,1,,,,,,
,2023-08-31_14h31.01.300,slotMachine_updated,2023.1.3,MacIntel,60.0024001,,,,,,,,,,,,,,,,,,,,,,,,,,,,,,,,,,,,,,,,7321.0995,up,0.2431,,0.5,"[3,1,2]",0.841229743,stimuli/card_100_transparent.png,910,100,9,0,9,0,1,,,,,,
,2023-08-31_14h31.01.300,slotMachine_updated,2023.1.3,MacIntel,60.0024001,,,,,,,,,,,,,,,,,,,,,,,,,,,,,,,,,,,,,,,,7322.1655,up,0.1286,,1.5,"[3,1,2]",0.648203803,stimuli/card_100_transparent.png,1010,100,10,0,10,0,1,,,,,,
,2023-08-31_14h31.01.300,slotMachine_updated,2023.1.3,MacIntel,60.0024001,,,,,,,,,,,,,,,,,,,,,,,,,,,,,,,,,,,,,,,,7324.1128,up,0.2912,,1,"[3,1,2]",0.13381932,stimuli/card_10_transparent.png,1020,10,11,0,11,0,1,,,,,,
,2023-08-31_14h31.01.300,slotMachine_updated,2023.1.3,MacIntel,60.0024001,,,,,,,,,,,,,,,,,,,,,,,,,,,,,,,,,,,,,,,,7325.7326,up,0.2621,,0.5,"[3,1,2]",0.897781084,stimuli/card_100_transparent.png,1120,100,12,0,12,0,1,,,,,,
,2023-08-31_14h31.01.300,slotMachine_updated,2023.1.3,MacIntel,60.0024001,,,,,,,,,,,,,,,,,,,,,,,,,,,,,,,,,,,,,,,,7326.8158,up,0.3561,,1,"[3,1,2]",0.502692791,stimuli/card_100_transparent.png,1220,100,13,0,13,0,1,,,,,,
,2023-08-31_14h31.01.300,slotMachine_updated,2023.1.3,MacIntel,60.0024001,,,,,,,,,,,,,,,,,,,,,,,,,,,,,,,,,,,,,,,,7328.5031,up,0.0098,,1,"[3,1,2]",0.07012189,stimuli/card_0_transparent.png,1220,0,14,0,14,0,1,,,,,,
,2023-08-31_14h31.01.300,slotMachine_updated,2023.1.3,MacIntel,60.0024001,,,,,,,,,,,,,,,,,,,,,,,,,,,,,,,,,,,,,,,,,,,,,,,,,,,,,,,7329.8354,9,0,9,0,1
,2023-08-31_14h31.01.300,slotMachine_updated,2023.1.3,MacIntel,60.0024001,,,,,,,,,,,,,,,,,,,,,,,,,,,,,,,,,,,,,,,,,,,,,,,,,,,,,,,,,,,,
