key_resp_welcome_started,key_resp_welcome_keys,key_resp_welcome_rt,key_resp_welcome_duration,prolific_pid,path_id,date,expName,psychopyVersion,OS,frameRate,key_resp_instruction1_started,key_resp_instruction1_keys,key_resp_instruction1_rt,key_resp_instruction1_duration,key_resp_instruction2_started,key_resp_instruction2_keys,key_resp_instruction2_rt,key_resp_instruction2_duration,key_resp_instruction3_started,key_resp_instruction3_keys,key_resp_instruction3_rt,key_resp_instruction3_duration,key_resp_instruction4_started,key_resp_instruction4_keys,key_resp_instruction4_rt,key_resp_instruction4_duration,practiceCondition,practice_reward_seqs,practice_trial_started,practice_trial_num,practice_resp_rt,practice_keypress_time,practice_resp_keys,prac_presentationInterval,practice_reward_seq,reward_img,cumulative_reward,trial_reward,practice_trials.thisRepN,practice_trials.thisTrialN,practice_trials.thisN,practice_trials.thisIndex,practice_trials.ran,block_break_started,practice_end_time,practice_end_keys,practice_end_rt,practice_end_duration,main_instruction_text_started,block_condition,block_order_indices,main_instruction_keys,main_instruction_rt,main_instruction_duration,block_number,block_assignment,current_condition,main_reward_seqs,main_trial_started,main_trial_num,main_trial_keys,main_trial_rt,main_trial_keypress_time,main_presentationInterval,reward_presentation_time,main_reward_seq,reward_rand_val,main_reward_img,current_reward,main_trials.thisRepN,main_trials.thisTrialN,main_trials.thisN,main_trials.thisIndex,main_trials.ran,block_reward,block.thisRepN,block.thisTrialN,block.thisN,block.thisIndex,block.ran,block_reward.length,block_reward_all,reward_amount,date_end_task
0.0002,space,1.7145,,6643fdd5e4e6b01321ea03c8,B,2024-08-22_14h34.26.870,Slot Machine Game,2023.1.3,Win32,59.88023952,,,,,,,,,,,,,,,,,,,,,,,,,,,,,,,,,,,,,,,,,,,,,,,,,,,,,,,,,,,,,,,,,,,,,,,,,,
,,,,6643fdd5e4e6b01321ea03c8,B,2024-08-22_14h34.26.870,Slot Machine Game,2023.1.3,Win32,59.88023952,1.7238,up,5.8824,,,,,,,,,,,,,,,,,,,,,,,,,,,,,,,,,,,,,,,,,,,,,,,,,,,,,,,,,,,,,,,,,,,,,,,
,,,,6643fdd5e4e6b01321ea03c8,B,2024-08-22_14h34.26.870,Slot Machine Game,2023.1.3,Win32,59.88023952,,,,,7.6413,up,13.9359,,,,,,,,,,,,,,,,,,,,,,,,,,,,,,,,,,,,,,,,,,,,,,,,,,,,,,,,,,,,,,,,,,,
,,,,6643fdd5e4e6b01321ea03c8,B,2024-08-22_14h34.26.870,Slot Machine Game,2023.1.3,Win32,59.88023952,,,,,,,,,21.6231,up,6.9542,,,,,,,,,,,,,,,,,,,,,,,,,,,,,,,,,,,,,,,,,,,,,,,,,,,,,,,,,,,,,,,
,,,,6643fdd5e4e6b01321ea03c8,B,2024-08-22_14h34.26.870,Slot Machine Game,2023.1.3,Win32,59.88023952,,,,,,,,,,,,,,,,,,,,,,,,,,,,,,,,,,,,,,,,,,,,,,,,,,,,,,,,,,,,,,,,,,,,,,,,,,
,,,,6643fdd5e4e6b01321ea03c8,B,2024-08-22_14h34.26.870,Slot Machine Game,2023.1.3,Win32,59.88023952,,,,,,,,,,,,,170.2879,space,18.4431,,,,,,,,,,,,,,,,,,,,,,,,,,,,,,,,,,,,,,,,,,,,,,,,,,,,,,,,,,,
,,,,6643fdd5e4e6b01321ea03c8,B,2024-08-22_14h34.26.870,Slot Machine Game,2023.1.3,Win32,59.88023952,,,,,,,,,,,,,,,,,"[9,15]","[[2,1,3],[2,3,1]]",188.7727,0,1.7033,190.5042,up,1,"[2,1,3]",stimuli/card_100_transparent.png,100,100,0,0,0,0,1,,,,,,,,,,,,,,,,,,,,,,,,,,,,,,,,,,,,,,,,,
,,,,6643fdd5e4e6b01321ea03c8,B,2024-08-22_14h34.26.870,Slot Machine Game,2023.1.3,Win32,59.88023952,,,,,,,,,,,,,,,,,,,191.8047,1,1.3733,193.2035,up,1,"[2,1,3]",stimuli/card_100_transparent.png,200,100,1,0,1,0,1,,,,,,,,,,,,,,,,,,,,,,,,,,,,,,,,,,,,,,,,,
,,,,6643fdd5e4e6b01321ea03c8,B,2024-08-22_14h34.26.870,Slot Machine Game,2023.1.3,Win32,59.88023952,,,,,,,,,,,,,,,,,,,194.5035,2,2.723,197.2534,up,1,"[2,1,3]",stimuli/card_100_transparent.png,300,100,2,0,2,0,1,,,,,,,,,,,,,,,,,,,,,,,,,,,,,,,,,,,,,,,,,
,,,,6643fdd5e4e6b01321ea03c8,B,2024-08-22_14h34.26.870,Slot Machine Game,2023.1.3,Win32,59.88023952,,,,,,,,,,,,,,,,,,,198.5535,3,0.6171,199.2034,up,1,"[2,1,3]",stimuli/card_100_transparent.png,400,100,3,0,3,0,1,,,,,,,,,,,,,,,,,,,,,,,,,,,,,,,,,,,,,,,,,
,,,,6643fdd5e4e6b01321ea03c8,B,2024-08-22_14h34.26.870,Slot Machine Game,2023.1.3,Win32,59.88023952,,,,,,,,,,,,,,,,,,,200.5034,4,0.7225,201.2533,up,0.5,"[2,1,3]",stimuli/card_100_transparent.png,500,100,4,0,4,0,1,,,,,,,,,,,,,,,,,,,,,,,,,,,,,,,,,,,,,,,,,
,,,,6643fdd5e4e6b01321ea03c8,B,2024-08-22_14h34.26.870,Slot Machine Game,2023.1.3,Win32,59.88023952,,,,,,,,,,,,,,,,,,,202.0534,5,0.9008,202.9868,up,1,"[2,1,3]",stimuli/card_0_transparent.png,500,0,5,0,5,0,1,,,,,,,,,,,,,,,,,,,,,,,,,,,,,,,,,,,,,,,,,
,,,,6643fdd5e4e6b01321ea03c8,B,2024-08-22_14h34.26.870,Slot Machine Game,2023.1.3,Win32,59.88023952,,,,,,,,,,,,,,,,,,,204.2871,6,1.3688,205.6872,up,0.5,"[2,1,3]",stimuli/card_100_transparent.png,600,100,6,0,6,0,1,,,,,,,,,,,,,,,,,,,,,,,,,,,,,,,,,,,,,,,,,
,,,,6643fdd5e4e6b01321ea03c8,B,2024-08-22_14h34.26.870,Slot Machine Game,2023.1.3,Win32,59.88023952,,,,,,,,,,,,,,,,,,,206.4868,7,0.8421,207.3537,up,1,"[2,1,3]",stimuli/card_100_transparent.png,700,100,7,0,7,0,1,,,,,,,,,,,,,,,,,,,,,,,,,,,,,,,,,,,,,,,,,
,,,,6643fdd5e4e6b01321ea03c8,B,2024-08-22_14h34.26.870,Slot Machine Game,2023.1.3,Win32,59.88023952,,,,,,,,,,,,,,,,,,,208.6531,8,0.7503,209.4365,up,0.5,"[2,1,3]",stimuli/card_100_transparent.png,800,100,8,0,8,0,1,,,,,,,,,,,,,,,,,,,,,,,,,,,,,,,,,,,,,,,,,
,,,,6643fdd5e4e6b01321ea03c8,B,2024-08-22_14h34.26.870,Slot Machine Game,2023.1.3,Win32,59.88023952,,,,,,,,,,,,,,,,,,,210.2365,9,0.8063,211.0704,up,1.5,"[2,3,1]",stimuli/card_0_transparent.png,800,0,9,0,9,0,1,,,,,,,,,,,,,,,,,,,,,,,,,,,,,,,,,,,,,,,,,
,,,,6643fdd5e4e6b01321ea03c8,B,2024-08-22_14h34.26.870,Slot Machine Game,2023.1.3,Win32,59.88023952,,,,,,,,,,,,,,,,,,,212.8699,10,0.7335,213.6365,up,1,"[2,3,1]",stimuli/card_10_transparent.png,810,10,10,0,10,0,1,,,,,,,,,,,,,,,,,,,,,,,,,,,,,,,,,,,,,,,,,
,,,,6643fdd5e4e6b01321ea03c8,B,2024-08-22_14h34.26.870,Slot Machine Game,2023.1.3,Win32,59.88023952,,,,,,,,,,,,,,,,,,,214.9364,11,0.7376,215.703,left,1,"[2,3,1]",stimuli/card_100_transparent.png,910,100,11,0,11,0,1,,,,,,,,,,,,,,,,,,,,,,,,,,,,,,,,,,,,,,,,,
,,,,6643fdd5e4e6b01321ea03c8,B,2024-08-22_14h34.26.870,Slot Machine Game,2023.1.3,Win32,59.88023952,,,,,,,,,,,,,,,,,,,217.0031,12,0.9112,217.9367,left,1,"[2,3,1]",stimuli/card_10_transparent.png,920,10,12,0,12,0,1,,,,,,,,,,,,,,,,,,,,,,,,,,,,,,,,,,,,,,,,,
,,,,6643fdd5e4e6b01321ea03c8,B,2024-08-22_14h34.26.870,Slot Machine Game,2023.1.3,Win32,59.88023952,,,,,,,,,,,,,,,,,,,219.2364,13,0.8355,220.1036,left,1,"[2,3,1]",stimuli/card_10_transparent.png,930,10,13,0,13,0,1,,,,,,,,,,,,,,,,,,,,,,,,,,,,,,,,,,,,,,,,,
,,,,6643fdd5e4e6b01321ea03c8,B,2024-08-22_14h34.26.870,Slot Machine Game,2023.1.3,Win32,59.88023952,,,,,,,,,,,,,,,,,,,221.4031,14,0.8866,222.3198,right,0.5,"[2,3,1]",stimuli/card_100_transparent.png,1030,100,14,0,14,0,1,,,,,,,,,,,,,,,,,,,,,,,,,,,,,,,,,,,,,,,,,
,,,,6643fdd5e4e6b01321ea03c8,B,2024-08-22_14h34.26.870,Slot Machine Game,2023.1.3,Win32,59.88023952,,,,,,,,,,,,,,,,,"[6,15]","[[1,3,2],[3,1,2]]",228.1451,0,0.8338,229.0028,right,1,"[1,3,2]",stimuli/card_10_transparent.png,10,10,0,0,0,0,1,223.1349,,,,,,,,,,,,,,,,,,,,,,,,,,,,,,,,,,,,,,,,
,,,,6643fdd5e4e6b01321ea03c8,B,2024-08-22_14h34.26.870,Slot Machine Game,2023.1.3,Win32,59.88023952,,,,,,,,,,,,,,,,,,,230.3032,1,0.627,230.9532,left,1.5,"[1,3,2]",stimuli/card_100_transparent.png,110,100,1,0,1,0,1,,,,,,,,,,,,,,,,,,,,,,,,,,,,,,,,,,,,,,,,,
,,,,6643fdd5e4e6b01321ea03c8,B,2024-08-22_14h34.26.870,Slot Machine Game,2023.1.3,Win32,59.88023952,,,,,,,,,,,,,,,,,,,232.7529,2,0.6842,233.4535,left,1.5,"[1,3,2]",stimuli/card_100_transparent.png,210,100,2,0,2,0,1,,,,,,,,,,,,,,,,,,,,,,,,,,,,,,,,,,,,,,,,,
,,,,6643fdd5e4e6b01321ea03c8,B,2024-08-22_14h34.26.870,Slot Machine Game,2023.1.3,Win32,59.88023952,,,,,,,,,,,,,,,,,,,235.2527,3,0.5258,235.7861,left,0.5,"[1,3,2]",stimuli/card_0_transparent.png,210,0,3,0,3,0,1,,,,,,,,,,,,,,,,,,,,,,,,,,,,,,,,,,,,,,,,,
,,,,6643fdd5e4e6b01321ea03c8,B,2024-08-22_14h34.26.870,Slot Machine Game,2023.1.3,Win32,59.88023952,,,,,,,,,,,,,,,,,,,236.586,4,0.5172,237.1194,left,1,"[1,3,2]",stimuli/card_100_transparent.png,310,100,4,0,4,0,1,,,,,,,,,,,,,,,,,,,,,,,,,,,,,,,,,,,,,,,,,
,,,,6643fdd5e4e6b01321ea03c8,B,2024-08-22_14h34.26.870,Slot Machine Game,2023.1.3,Win32,59.88023952,,,,,,,,,,,,,,,,,,,238.42,5,0.7437,239.1866,left,0.5,"[1,3,2]",stimuli/card_100_transparent.png,410,100,5,0,5,0,1,,,,,,,,,,,,,,,,,,,,,,,,,,,,,,,,,,,,,,,,,
,,,,6643fdd5e4e6b01321ea03c8,B,2024-08-22_14h34.26.870,Slot Machine Game,2023.1.3,Win32,59.88023952,,,,,,,,,,,,,,,,,,,239.9861,6,0.5677,240.5861,left,1.5,"[3,1,2]",stimuli/card_0_transparent.png,410,0,6,0,6,0,1,,,,,,,,,,,,,,,,,,,,,,,,,,,,,,,,,,,,,,,,,
,,,,6643fdd5e4e6b01321ea03c8,B,2024-08-22_14h34.26.870,Slot Machine Game,2023.1.3,Win32,59.88023952,,,,,,,,,,,,,,,,,,,242.3864,7,0.6874,243.1032,left,1,"[3,1,2]",stimuli/card_0_transparent.png,410,0,7,0,7,0,1,,,,,,,,,,,,,,,,,,,,,,,,,,,,,,,,,,,,,,,,,
,,,,6643fdd5e4e6b01321ea03c8,B,2024-08-22_14h34.26.870,Slot Machine Game,2023.1.3,Win32,59.88023952,,,,,,,,,,,,,,,,,,,244.4034,8,1.1353,245.5699,left,1.5,"[3,1,2]",stimuli/card_0_transparent.png,410,0,8,0,8,0,1,,,,,,,,,,,,,,,,,,,,,,,,,,,,,,,,,,,,,,,,,
,,,,6643fdd5e4e6b01321ea03c8,B,2024-08-22_14h34.26.870,Slot Machine Game,2023.1.3,Win32,59.88023952,,,,,,,,,,,,,,,,,,,247.3699,9,0.6707,248.0696,up,1.5,"[3,1,2]",stimuli/card_0_transparent.png,410,0,9,0,9,0,1,,,,,,,,,,,,,,,,,,,,,,,,,,,,,,,,,,,,,,,,,
,,,,6643fdd5e4e6b01321ea03c8,B,2024-08-22_14h34.26.870,Slot Machine Game,2023.1.3,Win32,59.88023952,,,,,,,,,,,,,,,,,,,249.8693,10,0.5884,250.4859,right,1.5,"[3,1,2]",stimuli/card_0_transparent.png,410,0,10,0,10,0,1,,,,,,,,,,,,,,,,,,,,,,,,,,,,,,,,,,,,,,,,,
,,,,6643fdd5e4e6b01321ea03c8,B,2024-08-22_14h34.26.870,Slot Machine Game,2023.1.3,Win32,59.88023952,,,,,,,,,,,,,,,,,,,252.2859,11,0.5825,252.9026,right,1.5,"[3,1,2]",stimuli/card_10_transparent.png,420,10,11,0,11,0,1,,,,,,,,,,,,,,,,,,,,,,,,,,,,,,,,,,,,,,,,,
,,,,6643fdd5e4e6b01321ea03c8,B,2024-08-22_14h34.26.870,Slot Machine Game,2023.1.3,Win32,59.88023952,,,,,,,,,,,,,,,,,,,254.7027,12,0.5337,255.2697,up,1,"[3,1,2]",stimuli/card_10_transparent.png,430,10,12,0,12,0,1,,,,,,,,,,,,,,,,,,,,,,,,,,,,,,,,,,,,,,,,,
,,,,6643fdd5e4e6b01321ea03c8,B,2024-08-22_14h34.26.870,Slot Machine Game,2023.1.3,Win32,59.88023952,,,,,,,,,,,,,,,,,,,256.5698,13,0.6245,257.2197,up,0.5,"[3,1,2]",stimuli/card_0_transparent.png,430,0,13,0,13,0,1,,,,,,,,,,,,,,,,,,,,,,,,,,,,,,,,,,,,,,,,,
,,,,6643fdd5e4e6b01321ea03c8,B,2024-08-22_14h34.26.870,Slot Machine Game,2023.1.3,Win32,59.88023952,,,,,,,,,,,,,,,,,,,258.0194,14,0.5353,258.586,up,0.5,"[3,1,2]",stimuli/card_100_transparent.png,530,100,14,0,14,0,1,,,,,,,,,,,,,,,,,,,,,,,,,,,,,,,,,,,,,,,,,
,,,,6643fdd5e4e6b01321ea03c8,B,2024-08-22_14h34.26.870,Slot Machine Game,2023.1.3,Win32,59.88023952,,,,,,,,,,,,,,,,,,,,,,,,,,,,,,,,,,259.3865,264.3862,space,3.1312,,,,,,,,,,,,,,,,,,,,,,,,,,,,,,,,,,,,,
,,,,6643fdd5e4e6b01321ea03c8,B,2024-08-22_14h34.26.870,Slot Machine Game,2023.1.3,Win32,59.88023952,,,,,,,,,,,,,,,,,,,,,,,,,,,,,,,,,,,,,,,267.537,2,"[2,4,7,0,1,3,9,6,8,5]",space,1.4937,,,,,,,,,,,,,,,,,,,,,,,,,,,,,,,
,,,,6643fdd5e4e6b01321ea03c8,B,2024-08-22_14h34.26.870,Slot Machine Game,2023.1.3,Win32,59.88023952,,,,,,,,,,,,,,,,,,,,,,,,,,,0,,,,,,,,,,,,,,,,,,1,3,"[15,15]","[[3,1,2],[3,1,2]]",269.0589,0,left,0.6544,269.7377,1.5,0.3,"[3,1,2]",0.37355538,stimuli/card_0_transparent.png,0,0,0,0,0,1,,,,,,,,,,
,,,,6643fdd5e4e6b01321ea03c8,B,2024-08-22_14h34.26.870,Slot Machine Game,2023.1.3,Win32,59.88023952,,,,,,,,,,,,,,,,,,,,,,,,,,,100,,,,,,,,,,,,,,,,,,1,3,,,271.5358,1,up,0.7382,272.3022,0.5,0.3,"[3,1,2]",0.293068549,stimuli/card_100_transparent.png,100,1,0,1,0,1,,,,,,,,,,
,,,,6643fdd5e4e6b01321ea03c8,B,2024-08-22_14h34.26.870,Slot Machine Game,2023.1.3,Win32,59.88023952,,,,,,,,,,,,,,,,,,,,,,,,,,,200,,,,,,,,,,,,,,,,,,1,3,,,273.1022,2,up,0.6521,273.7691,1.5,0.3,"[3,1,2]",0.568978432,stimuli/card_100_transparent.png,100,2,0,2,0,1,,,,,,,,,,
,,,,6643fdd5e4e6b01321ea03c8,B,2024-08-22_14h34.26.870,Slot Machine Game,2023.1.3,Win32,59.88023952,,,,,,,,,,,,,,,,,,,,,,,,,,,300,,,,,,,,,,,,,,,,,,1,3,,,275.5692,3,up,0.7845,276.3856,1,0.3,"[3,1,2]",0.704760254,stimuli/card_100_transparent.png,100,3,0,3,0,1,,,,,,,,,,
,,,,6643fdd5e4e6b01321ea03c8,B,2024-08-22_14h34.26.870,Slot Machine Game,2023.1.3,Win32,59.88023952,,,,,,,,,,,,,,,,,,,,,,,,,,,300,,,,,,,,,,,,,,,,,,1,3,,,277.6855,4,up,0.7151,278.4354,0.5,0.3,"[3,1,2]",0.058474138,stimuli/card_0_transparent.png,0,4,0,4,0,1,,,,,,,,,,
,,,,6643fdd5e4e6b01321ea03c8,B,2024-08-22_14h34.26.870,Slot Machine Game,2023.1.3,Win32,59.88023952,,,,,,,,,,,,,,,,,,,,,,,,,,,310,,,,,,,,,,,,,,,,,,1,3,,,279.2354,5,up,0.8065,280.0523,1.5,0.3,"[3,1,2]",0.158488845,stimuli/card_10_transparent.png,10,5,0,5,0,1,,,,,,,,,,
,,,,6643fdd5e4e6b01321ea03c8,B,2024-08-22_14h34.26.870,Slot Machine Game,2023.1.3,Win32,59.88023952,,,,,,,,,,,,,,,,,,,,,,,,,,,410,,,,,,,,,,,,,,,,,,1,3,,,281.8529,6,up,0.5016,282.3856,0.5,0.3,"[3,1,2]",0.98740108,stimuli/card_100_transparent.png,100,6,0,6,0,1,,,,,,,,,,
,,,,6643fdd5e4e6b01321ea03c8,B,2024-08-22_14h34.26.870,Slot Machine Game,2023.1.3,Win32,59.88023952,,,,,,,,,,,,,,,,,,,,,,,,,,,420,,,,,,,,,,,,,,,,,,1,3,,,283.1854,7,up,0.625,283.8189,0.5,0.3,"[3,1,2]",0.11271691,stimuli/card_10_transparent.png,10,7,0,7,0,1,,,,,,,,,,
,,,,6643fdd5e4e6b01321ea03c8,B,2024-08-22_14h34.26.870,Slot Machine Game,2023.1.3,Win32,59.88023952,,,,,,,,,,,,,,,,,,,,,,,,,,,520,,,,,,,,,,,,,,,,,,1,3,,,284.6189,8,up,0.5108,285.1521,1,0.3,"[3,1,2]",0.288135142,stimuli/card_100_transparent.png,100,8,0,8,0,1,,,,,,,,,,
,,,,6643fdd5e4e6b01321ea03c8,B,2024-08-22_14h34.26.870,Slot Machine Game,2023.1.3,Win32,59.88023952,,,,,,,,,,,,,,,,,,,,,,,,,,,620,,,,,,,,,,,,,,,,,,1,3,,,286.4519,9,up,0.7729,287.2355,1.5,0.3,"[3,1,2]",0.551593427,stimuli/card_100_transparent.png,100,9,0,9,0,1,,,,,,,,,,
,,,,6643fdd5e4e6b01321ea03c8,B,2024-08-22_14h34.26.870,Slot Machine Game,2023.1.3,Win32,59.88023952,,,,,,,,,,,,,,,,,,,,,,,,,,,720,,,,,,,,,,,,,,,,,,1,3,,,289.0356,10,up,0.5906,289.6523,1.5,0.3,"[3,1,2]",0.724164948,stimuli/card_100_transparent.png,100,10,0,10,0,1,,,,,,,,,,
,,,,6643fdd5e4e6b01321ea03c8,B,2024-08-22_14h34.26.870,Slot Machine Game,2023.1.3,Win32,59.88023952,,,,,,,,,,,,,,,,,,,,,,,,,,,820,,,,,,,,,,,,,,,,,,1,3,,,291.4525,11,up,0.6204,292.102,1.5,0.3,"[3,1,2]",0.906540098,stimuli/card_100_transparent.png,100,11,0,11,0,1,,,,,,,,,,
,,,,6643fdd5e4e6b01321ea03c8,B,2024-08-22_14h34.26.870,Slot Machine Game,2023.1.3,Win32,59.88023952,,,,,,,,,,,,,,,,,,,,,,,,,,,920,,,,,,,,,,,,,,,,,,1,3,,,293.9027,12,up,0.5559,294.4861,0.5,0.3,"[3,1,2]",0.461757137,stimuli/card_100_transparent.png,100,12,0,12,0,1,,,,,,,,,,
,,,,6643fdd5e4e6b01321ea03c8,B,2024-08-22_14h34.26.870,Slot Machine Game,2023.1.3,Win32,59.88023952,,,,,,,,,,,,,,,,,,,,,,,,,,,1020,,,,,,,,,,,,,,,,,,1,3,,,295.2853,13,up,0.853,296.1527,0.5,0.3,"[3,1,2]",0.672225934,stimuli/card_100_transparent.png,100,13,0,13,0,1,,,,,,,,,,
,,,,6643fdd5e4e6b01321ea03c8,B,2024-08-22_14h34.26.870,Slot Machine Game,2023.1.3,Win32,59.88023952,,,,,,,,,,,,,,,,,,,,,,,,,,,1120,,,,,,,,,,,,,,,,,,1,3,,,296.9525,14,up,0.5218,297.502,1,0.3,"[3,1,2]",0.790249351,stimuli/card_100_transparent.png,100,14,0,14,0,1,,,,,,,,,,
,,,,6643fdd5e4e6b01321ea03c8,B,2024-08-22_14h34.26.870,Slot Machine Game,2023.1.3,Win32,59.88023952,,,,,,,,,,,,,,,,,,,,,,,,,,,,,,,,,,298.8028,,,,,,,,,,,,,,,,,,,,,,,,,,,,,,,[1120],0,0,0,0,1,,,,
,,,,6643fdd5e4e6b01321ea03c8,B,2024-08-22_14h34.26.870,Slot Machine Game,2023.1.3,Win32,59.88023952,,,,,,,,,,,,,,,,,,,,,,,,,,,0,,,,,,,,,,,,,,,,,,2,5,"[5,15]","[[1,2,3],[3,1,2]]",303.8185,0,right,0.9334,304.7689,1,0.3,"[1,2,3]",0.390956519,stimuli/card_0_transparent.png,0,0,0,0,0,1,,,,,,,,,,
,,,,6643fdd5e4e6b01321ea03c8,B,2024-08-22_14h34.26.870,Slot Machine Game,2023.1.3,Win32,59.88023952,,,,,,,,,,,,,,,,,,,,,,,,,,,0,,,,,,,,,,,,,,,,,,2,5,,,306.0689,1,right,0.7841,306.8859,0.5,0.3,"[1,2,3]",0.210854946,stimuli/card_0_transparent.png,0,1,0,1,0,1,,,,,,,,,,
,,,,6643fdd5e4e6b01321ea03c8,B,2024-08-22_14h34.26.870,Slot Machine Game,2023.1.3,Win32,59.88023952,,,,,,,,,,,,,,,,,,,,,,,,,,,100,,,,,,,,,,,,,,,,,,2,5,,,307.6851,2,left,0.756,308.4684,0.5,0.3,"[1,2,3]",0.513145889,stimuli/card_100_transparent.png,100,2,0,2,0,1,,,,,,,,,,
,,,,6643fdd5e4e6b01321ea03c8,B,2024-08-22_14h34.26.870,Slot Machine Game,2023.1.3,Win32,59.88023952,,,,,,,,,,,,,,,,,,,,,,,,,,,200,,,,,,,,,,,,,,,,,,2,5,,,309.2683,3,left,0.7266,310.0023,1,0.3,"[1,2,3]",0.63633803,stimuli/card_100_transparent.png,100,3,0,3,0,1,,,,,,,,,,
,,,,6643fdd5e4e6b01321ea03c8,B,2024-08-22_14h34.26.870,Slot Machine Game,2023.1.3,Win32,59.88023952,,,,,,,,,,,,,,,,,,,,,,,,,,,300,,,,,,,,,,,,,,,,,,2,5,,,311.3019,4,left,0.6517,311.9851,1,0.3,"[1,2,3]",0.543976225,stimuli/card_100_transparent.png,100,4,0,4,0,1,,,,,,,,,,
,,,,6643fdd5e4e6b01321ea03c8,B,2024-08-22_14h34.26.870,Slot Machine Game,2023.1.3,Win32,59.88023952,,,,,,,,,,,,,,,,,,,,,,,,,,,300,,,,,,,,,,,,,,,,,,2,5,,,313.2851,5,left,0.917,314.2351,1.5,0.3,"[3,1,2]",0.750687797,stimuli/card_0_transparent.png,0,5,0,5,0,1,,,,,,,,,,
,,,,6643fdd5e4e6b01321ea03c8,B,2024-08-22_14h34.26.870,Slot Machine Game,2023.1.3,Win32,59.88023952,,,,,,,,,,,,,,,,,,,,,,,,,,,300,,,,,,,,,,,,,,,,,,2,5,,,316.0349,6,left,0.7851,316.8357,1.5,0.3,"[3,1,2]",0.935915809,stimuli/card_0_transparent.png,0,6,0,6,0,1,,,,,,,,,,
,,,,6643fdd5e4e6b01321ea03c8,B,2024-08-22_14h34.26.870,Slot Machine Game,2023.1.3,Win32,59.88023952,,,,,,,,,,,,,,,,,,,,,,,,,,,300,,,,,,,,,,,,,,,,,,2,5,,,318.6356,7,left,0.5192,319.1855,1.5,0.3,"[3,1,2]",0.923655717,stimuli/card_0_transparent.png,0,7,0,7,0,1,,,,,,,,,,
,,,,6643fdd5e4e6b01321ea03c8,B,2024-08-22_14h34.26.870,Slot Machine Game,2023.1.3,Win32,59.88023952,,,,,,,,,,,,,,,,,,,,,,,,,,,400,,,,,,,,,,,,,,,,,,2,5,,,320.9855,8,up,0.5611,321.5686,1.5,0.3,"[3,1,2]",0.460049677,stimuli/card_100_transparent.png,100,8,0,8,0,1,,,,,,,,,,
,,,,6643fdd5e4e6b01321ea03c8,B,2024-08-22_14h34.26.870,Slot Machine Game,2023.1.3,Win32,59.88023952,,,,,,,,,,,,,,,,,,,,,,,,,,,500,,,,,,,,,,,,,,,,,,2,5,,,323.3683,9,up,0.5058,323.9015,0.5,0.3,"[3,1,2]",0.363970329,stimuli/card_100_transparent.png,100,9,0,9,0,1,,,,,,,,,,
,,,,6643fdd5e4e6b01321ea03c8,B,2024-08-22_14h34.26.870,Slot Machine Game,2023.1.3,Win32,59.88023952,,,,,,,,,,,,,,,,,,,,,,,,,,,600,,,,,,,,,,,,,,,,,,2,5,,,324.7018,10,up,0.8435,325.5681,1,0.3,"[3,1,2]",0.9147167,stimuli/card_100_transparent.png,100,10,0,10,0,1,,,,,,,,,,
,,,,6643fdd5e4e6b01321ea03c8,B,2024-08-22_14h34.26.870,Slot Machine Game,2023.1.3,Win32,59.88023952,,,,,,,,,,,,,,,,,,,,,,,,,,,700,,,,,,,,,,,,,,,,,,2,5,,,326.8681,11,up,0.7254,327.6182,1,0.3,"[3,1,2]",0.807773076,stimuli/card_100_transparent.png,100,11,0,11,0,1,,,,,,,,,,
,,,,6643fdd5e4e6b01321ea03c8,B,2024-08-22_14h34.26.870,Slot Machine Game,2023.1.3,Win32,59.88023952,,,,,,,,,,,,,,,,,,,,,,,,,,,800,,,,,,,,,,,,,,,,,,2,5,,,328.9183,12,up,0.6496,329.6014,0.5,0.3,"[3,1,2]",0.334187338,stimuli/card_100_transparent.png,100,12,0,12,0,1,,,,,,,,,,
,,,,6643fdd5e4e6b01321ea03c8,B,2024-08-22_14h34.26.870,Slot Machine Game,2023.1.3,Win32,59.88023952,,,,,,,,,,,,,,,,,,,,,,,,,,,900,,,,,,,,,,,,,,,,,,2,5,,,330.4014,13,up,0.5679,331.0014,0.5,0.3,"[3,1,2]",0.741514644,stimuli/card_100_transparent.png,100,13,0,13,0,1,,,,,,,,,,
,,,,6643fdd5e4e6b01321ea03c8,B,2024-08-22_14h34.26.870,Slot Machine Game,2023.1.3,Win32,59.88023952,,,,,,,,,,,,,,,,,,,,,,,,,,,1000,,,,,,,,,,,,,,,,,,2,5,,,331.8019,14,up,0.8229,332.6516,1.5,0.3,"[3,1,2]",0.778663608,stimuli/card_100_transparent.png,100,14,0,14,0,1,,,,,,,,,,
,,,,6643fdd5e4e6b01321ea03c8,B,2024-08-22_14h34.26.870,Slot Machine Game,2023.1.3,Win32,59.88023952,,,,,,,,,,,,,,,,,,,,,,,,,,,,,,,,,,334.452,,,,,,,,,,,,,,,,,,,,,,,,,,,,,,,"[1120,1000]",1,0,1,0,1,,,,
,,,,6643fdd5e4e6b01321ea03c8,B,2024-08-22_14h34.26.870,Slot Machine Game,2023.1.3,Win32,59.88023952,,,,,,,,,,,,,,,,,,,,,,,,,,,0,,,,,,,,,,,,,,,,,,3,8,"[11,15]","[[2,1,3],[1,2,3]]",339.4573,0,right,0.5739,340.0513,1,0.3,"[2,1,3]",0.457958489,stimuli/card_0_transparent.png,0,0,0,0,0,1,,,,,,,,,,
,,,,6643fdd5e4e6b01321ea03c8,B,2024-08-22_14h34.26.870,Slot Machine Game,2023.1.3,Win32,59.88023952,,,,,,,,,,,,,,,,,,,,,,,,,,,10,,,,,,,,,,,,,,,,,,3,8,,,341.3513,1,left,0.6855,342.0679,1,0.3,"[2,1,3]",0.772068493,stimuli/card_10_transparent.png,10,1,0,1,0,1,,,,,,,,,,
,,,,6643fdd5e4e6b01321ea03c8,B,2024-08-22_14h34.26.870,Slot Machine Game,2023.1.3,Win32,59.88023952,,,,,,,,,,,,,,,,,,,,,,,,,,,110,,,,,,,,,,,,,,,,,,3,8,,,343.3678,2,up,0.6671,344.0518,0.5,0.3,"[2,1,3]",0.66565482,stimuli/card_100_transparent.png,100,2,0,2,0,1,,,,,,,,,,
,,,,6643fdd5e4e6b01321ea03c8,B,2024-08-22_14h34.26.870,Slot Machine Game,2023.1.3,Win32,59.88023952,,,,,,,,,,,,,,,,,,,,,,,,,,,210,,,,,,,,,,,,,,,,,,3,8,,,344.8518,3,up,0.651,345.5347,1,0.3,"[2,1,3]",0.250995333,stimuli/card_100_transparent.png,100,3,0,3,0,1,,,,,,,,,,
,,,,6643fdd5e4e6b01321ea03c8,B,2024-08-22_14h34.26.870,Slot Machine Game,2023.1.3,Win32,59.88023952,,,,,,,,,,,,,,,,,,,,,,,,,,,310,,,,,,,,,,,,,,,,,,3,8,,,346.8352,4,up,0.6541,347.5182,0.5,0.3,"[2,1,3]",0.21817654,stimuli/card_100_transparent.png,100,4,0,4,0,1,,,,,,,,,,
,,,,6643fdd5e4e6b01321ea03c8,B,2024-08-22_14h34.26.870,Slot Machine Game,2023.1.3,Win32,59.88023952,,,,,,,,,,,,,,,,,,,,,,,,,,,410,,,,,,,,,,,,,,,,,,3,8,,,348.3179,5,up,0.5502,348.9012,1,0.3,"[2,1,3]",0.271701671,stimuli/card_100_transparent.png,100,5,0,5,0,1,,,,,,,,,,
,,,,6643fdd5e4e6b01321ea03c8,B,2024-08-22_14h34.26.870,Slot Machine Game,2023.1.3,Win32,59.88023952,,,,,,,,,,,,,,,,,,,,,,,,,,,510,,,,,,,,,,,,,,,,,,3,8,,,350.2015,6,up,0.6404,350.8679,0.5,0.3,"[2,1,3]",0.69408664,stimuli/card_100_transparent.png,100,6,0,6,0,1,,,,,,,,,,
,,,,6643fdd5e4e6b01321ea03c8,B,2024-08-22_14h34.26.870,Slot Machine Game,2023.1.3,Win32,59.88023952,,,,,,,,,,,,,,,,,,,,,,,,,,,610,,,,,,,,,,,,,,,,,,3,8,,,351.6685,7,up,0.7719,352.4686,1,0.3,"[2,1,3]",0.302538338,stimuli/card_100_transparent.png,100,7,0,7,0,1,,,,,,,,,,
,,,,6643fdd5e4e6b01321ea03c8,B,2024-08-22_14h34.26.870,Slot Machine Game,2023.1.3,Win32,59.88023952,,,,,,,,,,,,,,,,,,,,,,,,,,,710,,,,,,,,,,,,,,,,,,3,8,,,353.7677,8,up,0.6905,354.4683,0.5,0.3,"[2,1,3]",0.468765742,stimuli/card_100_transparent.png,100,8,0,8,0,1,,,,,,,,,,
,,,,6643fdd5e4e6b01321ea03c8,B,2024-08-22_14h34.26.870,Slot Machine Game,2023.1.3,Win32,59.88023952,,,,,,,,,,,,,,,,,,,,,,,,,,,810,,,,,,,,,,,,,,,,,,3,8,,,355.2683,9,up,0.854,356.1511,1.5,0.3,"[2,1,3]",0.491618135,stimuli/card_100_transparent.png,100,9,0,9,0,1,,,,,,,,,,
,,,,6643fdd5e4e6b01321ea03c8,B,2024-08-22_14h34.26.870,Slot Machine Game,2023.1.3,Win32,59.88023952,,,,,,,,,,,,,,,,,,,,,,,,,,,910,,,,,,,,,,,,,,,,,,3,8,,,357.9511,10,up,0.5685,358.5349,1.5,0.3,"[2,1,3]",0.539732819,stimuli/card_100_transparent.png,100,10,0,10,0,1,,,,,,,,,,
,,,,6643fdd5e4e6b01321ea03c8,B,2024-08-22_14h34.26.870,Slot Machine Game,2023.1.3,Win32,59.88023952,,,,,,,,,,,,,,,,,,,,,,,,,,,920,,,,,,,,,,,,,,,,,,3,8,,,360.3343,11,up,0.5071,360.8676,0.5,0.3,"[1,2,3]",0.267616744,stimuli/card_10_transparent.png,10,11,0,11,0,1,,,,,,,,,,
,,,,6643fdd5e4e6b01321ea03c8,B,2024-08-22_14h34.26.870,Slot Machine Game,2023.1.3,Win32,59.88023952,,,,,,,,,,,,,,,,,,,,,,,,,,,930,,,,,,,,,,,,,,,,,,3,8,,,361.6675,12,up,0.6233,362.3015,0.5,0.3,"[1,2,3]",0.366564178,stimuli/card_10_transparent.png,10,12,0,12,0,1,,,,,,,,,,
,,,,6643fdd5e4e6b01321ea03c8,B,2024-08-22_14h34.26.870,Slot Machine Game,2023.1.3,Win32,59.88023952,,,,,,,,,,,,,,,,,,,,,,,,,,,940,,,,,,,,,,,,,,,,,,3,8,,,363.1013,13,up,0.5417,363.668,0.5,0.3,"[1,2,3]",0.27721421,stimuli/card_10_transparent.png,10,13,0,13,0,1,,,,,,,,,,
,,,,6643fdd5e4e6b01321ea03c8,B,2024-08-22_14h34.26.870,Slot Machine Game,2023.1.3,Win32,59.88023952,,,,,,,,,,,,,,,,,,,,,,,,,,,1040,,,,,,,,,,,,,,,,,,3,8,,,364.4678,14,left,0.854,365.3509,1,0.3,"[1,2,3]",0.441834418,stimuli/card_100_transparent.png,100,14,0,14,0,1,,,,,,,,,,
,,,,6643fdd5e4e6b01321ea03c8,B,2024-08-22_14h34.26.870,Slot Machine Game,2023.1.3,Win32,59.88023952,,,,,,,,,,,,,,,,,,,,,,,,,,,,,,,,,,366.6511,,,,,,,,,,,,,,,,,,,,,,,,,,,,,,,"[1120,1000,1040]",2,0,2,0,1,,,,
,,,,6643fdd5e4e6b01321ea03c8,B,2024-08-22_14h34.26.870,Slot Machine Game,2023.1.3,Win32,59.88023952,,,,,,,,,,,,,,,,,,,,,,,,,,,100,,,,,,,,,,,,,,,,,,4,1,"[12,15]","[[2,1,3],[2,3,1]]",371.6824,0,left,0.6217,372.3174,1.5,0.3,"[2,1,3]",0.124841532,stimuli/card_100_transparent.png,100,0,0,0,0,1,,,,,,,,,,
,,,,6643fdd5e4e6b01321ea03c8,B,2024-08-22_14h34.26.870,Slot Machine Game,2023.1.3,Win32,59.88023952,,,,,,,,,,,,,,,,,,,,,,,,,,,200,,,,,,,,,,,,,,,,,,4,1,,,374.1181,1,left,0.7081,374.8513,1.5,0.3,"[2,1,3]",0.151456068,stimuli/card_100_transparent.png,100,1,0,1,0,1,,,,,,,,,,
,,,,6643fdd5e4e6b01321ea03c8,B,2024-08-22_14h34.26.870,Slot Machine Game,2023.1.3,Win32,59.88023952,,,,,,,,,,,,,,,,,,,,,,,,,,,300,,,,,,,,,,,,,,,,,,4,1,,,376.6509,2,left,0.6064,377.2841,1.5,0.3,"[2,1,3]",0.174913642,stimuli/card_100_transparent.png,100,2,0,2,0,1,,,,,,,,,,
,,,,6643fdd5e4e6b01321ea03c8,B,2024-08-22_14h34.26.870,Slot Machine Game,2023.1.3,Win32,59.88023952,,,,,,,,,,,,,,,,,,,,,,,,,,,310,,,,,,,,,,,,,,,,,,4,1,,,379.0845,3,left,0.8175,379.9341,0.5,0.3,"[2,1,3]",0.331356076,stimuli/card_10_transparent.png,10,3,0,3,0,1,,,,,,,,,,
,,,,6643fdd5e4e6b01321ea03c8,B,2024-08-22_14h34.26.870,Slot Machine Game,2023.1.3,Win32,59.88023952,,,,,,,,,,,,,,,,,,,,,,,,,,,320,,,,,,,,,,,,,,,,,,4,1,,,380.734,4,left,0.5703,381.3181,0.5,0.3,"[2,1,3]",0.800468994,stimuli/card_10_transparent.png,10,4,0,4,0,1,,,,,,,,,,
,,,,6643fdd5e4e6b01321ea03c8,B,2024-08-22_14h34.26.870,Slot Machine Game,2023.1.3,Win32,59.88023952,,,,,,,,,,,,,,,,,,,,,,,,,,,420,,,,,,,,,,,,,,,,,,4,1,,,382.118,5,up,0.7398,382.8847,1,0.3,"[2,1,3]",0.595690158,stimuli/card_100_transparent.png,100,5,0,5,0,1,,,,,,,,,,
,,,,6643fdd5e4e6b01321ea03c8,B,2024-08-22_14h34.26.870,Slot Machine Game,2023.1.3,Win32,59.88023952,,,,,,,,,,,,,,,,,,,,,,,,,,,520,,,,,,,,,,,,,,,,,,4,1,,,384.1846,6,up,0.6013,384.8176,0.5,0.3,"[2,1,3]",0.912381228,stimuli/card_100_transparent.png,100,6,0,6,0,1,,,,,,,,,,
,,,,6643fdd5e4e6b01321ea03c8,B,2024-08-22_14h34.26.870,Slot Machine Game,2023.1.3,Win32,59.88023952,,,,,,,,,,,,,,,,,,,,,,,,,,,620,,,,,,,,,,,,,,,,,,4,1,,,385.618,7,up,0.8845,386.534,1.5,0.3,"[2,1,3]",0.778649428,stimuli/card_100_transparent.png,100,7,0,7,0,1,,,,,,,,,,
,,,,6643fdd5e4e6b01321ea03c8,B,2024-08-22_14h34.26.870,Slot Machine Game,2023.1.3,Win32,59.88023952,,,,,,,,,,,,,,,,,,,,,,,,,,,720,,,,,,,,,,,,,,,,,,4,1,,,388.334,8,up,0.8672,389.2339,0.5,0.3,"[2,1,3]",0.878338579,stimuli/card_100_transparent.png,100,8,0,8,0,1,,,,,,,,,,
,,,,6643fdd5e4e6b01321ea03c8,B,2024-08-22_14h34.26.870,Slot Machine Game,2023.1.3,Win32,59.88023952,,,,,,,,,,,,,,,,,,,,,,,,,,,720,,,,,,,,,,,,,,,,,,4,1,,,390.0344,9,up,0.6337,390.7006,0.5,0.3,"[2,1,3]",0.012234328,stimuli/card_0_transparent.png,0,9,0,9,0,1,,,,,,,,,,
,,,,6643fdd5e4e6b01321ea03c8,B,2024-08-22_14h34.26.870,Slot Machine Game,2023.1.3,Win32,59.88023952,,,,,,,,,,,,,,,,,,,,,,,,,,,820,,,,,,,,,,,,,,,,,,4,1,,,391.5007,10,up,0.837,392.368,1,0.3,"[2,1,3]",0.591407056,stimuli/card_100_transparent.png,100,10,0,10,0,1,,,,,,,,,,
,,,,6643fdd5e4e6b01321ea03c8,B,2024-08-22_14h34.26.870,Slot Machine Game,2023.1.3,Win32,59.88023952,,,,,,,,,,,,,,,,,,,,,,,,,,,920,,,,,,,,,,,,,,,,,,4,1,,,393.6673,11,up,0.6336,394.3339,0.5,0.3,"[2,1,3]",0.259236917,stimuli/card_100_transparent.png,100,11,0,11,0,1,,,,,,,,,,
,,,,6643fdd5e4e6b01321ea03c8,B,2024-08-22_14h34.26.870,Slot Machine Game,2023.1.3,Win32,59.88023952,,,,,,,,,,,,,,,,,,,,,,,,,,,920,,,,,,,,,,,,,,,,,,4,1,,,395.1339,12,up,0.7049,395.8505,1.5,0.3,"[2,3,1]",0.610207686,stimuli/card_0_transparent.png,0,12,0,12,0,1,,,,,,,,,,
,,,,6643fdd5e4e6b01321ea03c8,B,2024-08-22_14h34.26.870,Slot Machine Game,2023.1.3,Win32,59.88023952,,,,,,,,,,,,,,,,,,,,,,,,,,,920,,,,,,,,,,,,,,,,,,4,1,,,397.651,13,up,0.9276,398.6009,1,0.3,"[2,3,1]",0.358481003,stimuli/card_0_transparent.png,0,13,0,13,0,1,,,,,,,,,,
,,,,6643fdd5e4e6b01321ea03c8,B,2024-08-22_14h34.26.870,Slot Machine Game,2023.1.3,Win32,59.88023952,,,,,,,,,,,,,,,,,,,,,,,,,,,1020,,,,,,,,,,,,,,,,,,4,1,,,399.9007,14,right,0.6177,400.5345,0.5,0.3,"[2,3,1]",0.50644705,stimuli/card_100_transparent.png,100,14,0,14,0,1,,,,,,,,,,
,,,,6643fdd5e4e6b01321ea03c8,B,2024-08-22_14h34.26.870,Slot Machine Game,2023.1.3,Win32,59.88023952,,,,,,,,,,,,,,,,,,,,,,,,,,,,,,,,,,401.3338,,,,,,,,,,,,,,,,,,,,,,,,,,,,,,,"[1120,1000,1040,1020]",3,0,3,0,1,,,,
,,,,6643fdd5e4e6b01321ea03c8,B,2024-08-22_14h34.26.870,Slot Machine Game,2023.1.3,Win32,59.88023952,,,,,,,,,,,,,,,,,,,,,,,,,,,100,,,,,,,,,,,,,,,,,,5,2,"[6,15]","[[1,3,2],[3,2,1]]",406.3559,0,left,0.8832,407.2673,1,0.3,"[1,3,2]",0.24961506,stimuli/card_100_transparent.png,100,0,0,0,0,1,,,,,,,,,,
,,,,6643fdd5e4e6b01321ea03c8,B,2024-08-22_14h34.26.870,Slot Machine Game,2023.1.3,Win32,59.88023952,,,,,,,,,,,,,,,,,,,,,,,,,,,200,,,,,,,,,,,,,,,,,,5,2,,,408.5676,1,left,0.8598,409.4511,1,0.3,"[1,3,2]",0.206465291,stimuli/card_100_transparent.png,100,1,0,1,0,1,,,,,,,,,,
,,,,6643fdd5e4e6b01321ea03c8,B,2024-08-22_14h34.26.870,Slot Machine Game,2023.1.3,Win32,59.88023952,,,,,,,,,,,,,,,,,,,,,,,,,,,300,,,,,,,,,,,,,,,,,,5,2,,,410.7504,2,left,0.8837,411.6671,1.5,0.3,"[1,3,2]",0.225841968,stimuli/card_100_transparent.png,100,2,0,2,0,1,,,,,,,,,,
,,,,6643fdd5e4e6b01321ea03c8,B,2024-08-22_14h34.26.870,Slot Machine Game,2023.1.3,Win32,59.88023952,,,,,,,,,,,,,,,,,,,,,,,,,,,400,,,,,,,,,,,,,,,,,,5,2,,,413.4673,3,left,0.6545,414.1506,1.5,0.3,"[1,3,2]",0.710699584,stimuli/card_100_transparent.png,100,3,0,3,0,1,,,,,,,,,,
,,,,6643fdd5e4e6b01321ea03c8,B,2024-08-22_14h34.26.870,Slot Machine Game,2023.1.3,Win32,59.88023952,,,,,,,,,,,,,,,,,,,,,,,,,,,500,,,,,,,,,,,,,,,,,,5,2,,,415.9503,4,left,0.5555,416.5175,0.5,0.3,"[1,3,2]",0.841044351,stimuli/card_100_transparent.png,100,4,0,4,0,1,,,,,,,,,,
,,,,6643fdd5e4e6b01321ea03c8,B,2024-08-22_14h34.26.870,Slot Machine Game,2023.1.3,Win32,59.88023952,,,,,,,,,,,,,,,,,,,,,,,,,,,600,,,,,,,,,,,,,,,,,,5,2,,,417.3175,5,left,0.699,418.0504,1.5,0.3,"[1,3,2]",0.716905549,stimuli/card_100_transparent.png,100,5,0,5,0,1,,,,,,,,,,
,,,,6643fdd5e4e6b01321ea03c8,B,2024-08-22_14h34.26.870,Slot Machine Game,2023.1.3,Win32,59.88023952,,,,,,,,,,,,,,,,,,,,,,,,,,,600,,,,,,,,,,,,,,,,,,5,2,,,419.8506,6,left,0.5349,420.4169,1.5,0.3,"[3,2,1]",0.528424487,stimuli/card_0_transparent.png,0,6,0,6,0,1,,,,,,,,,,
,,,,6643fdd5e4e6b01321ea03c8,B,2024-08-22_14h34.26.870,Slot Machine Game,2023.1.3,Win32,59.88023952,,,,,,,,,,,,,,,,,,,,,,,,,,,600,,,,,,,,,,,,,,,,,,5,2,,,422.2175,7,left,1.1604,423.4002,1,0.3,"[3,2,1]",0.907593954,stimuli/card_0_transparent.png,0,7,0,7,0,1,,,,,,,,,,
,,,,6643fdd5e4e6b01321ea03c8,B,2024-08-22_14h34.26.870,Slot Machine Game,2023.1.3,Win32,59.88023952,,,,,,,,,,,,,,,,,,,,,,,,,,,700,,,,,,,,,,,,,,,,,,5,2,,,424.7001,8,right,0.767,425.5002,1.5,0.3,"[3,2,1]",0.855017367,stimuli/card_100_transparent.png,100,8,0,8,0,1,,,,,,,,,,
,,,,6643fdd5e4e6b01321ea03c8,B,2024-08-22_14h34.26.870,Slot Machine Game,2023.1.3,Win32,59.88023952,,,,,,,,,,,,,,,,,,,,,,,,,,,800,,,,,,,,,,,,,,,,,,5,2,,,427.3001,9,right,0.6037,427.9334,0.5,0.3,"[3,2,1]",0.778054016,stimuli/card_100_transparent.png,100,9,0,9,0,1,,,,,,,,,,
,,,,6643fdd5e4e6b01321ea03c8,B,2024-08-22_14h34.26.870,Slot Machine Game,2023.1.3,Win32,59.88023952,,,,,,,,,,,,,,,,,,,,,,,,,,,900,,,,,,,,,,,,,,,,,,5,2,,,428.7333,10,right,0.767,429.5167,0.5,0.3,"[3,2,1]",0.734955711,stimuli/card_100_transparent.png,100,10,0,10,0,1,,,,,,,,,,
,,,,6643fdd5e4e6b01321ea03c8,B,2024-08-22_14h34.26.870,Slot Machine Game,2023.1.3,Win32,59.88023952,,,,,,,,,,,,,,,,,,,,,,,,,,,900,,,,,,,,,,,,,,,,,,5,2,,,430.3168,11,right,0.7245,431.0666,0.5,0.3,"[3,2,1]",0.092303859,stimuli/card_0_transparent.png,0,11,0,11,0,1,,,,,,,,,,
,,,,6643fdd5e4e6b01321ea03c8,B,2024-08-22_14h34.26.870,Slot Machine Game,2023.1.3,Win32,59.88023952,,,,,,,,,,,,,,,,,,,,,,,,,,,1000,,,,,,,,,,,,,,,,,,5,2,,,431.8666,12,right,0.9002,432.7835,0.5,0.3,"[3,2,1]",0.699348035,stimuli/card_100_transparent.png,100,12,0,12,0,1,,,,,,,,,,
,,,,6643fdd5e4e6b01321ea03c8,B,2024-08-22_14h34.26.870,Slot Machine Game,2023.1.3,Win32,59.88023952,,,,,,,,,,,,,,,,,,,,,,,,,,,1100,,,,,,,,,,,,,,,,,,5,2,,,433.5834,13,right,0.5004,434.1167,1.5,0.3,"[3,2,1]",0.535334703,stimuli/card_100_transparent.png,100,13,0,13,0,1,,,,,,,,,,
,,,,6643fdd5e4e6b01321ea03c8,B,2024-08-22_14h34.26.870,Slot Machine Game,2023.1.3,Win32,59.88023952,,,,,,,,,,,,,,,,,,,,,,,,,,,1200,,,,,,,,,,,,,,,,,,5,2,,,435.9166,14,right,0.6522,436.5998,1.5,0.3,"[3,2,1]",0.552340981,stimuli/card_100_transparent.png,100,14,0,14,0,1,,,,,,,,,,
,,,,6643fdd5e4e6b01321ea03c8,B,2024-08-22_14h34.26.870,Slot Machine Game,2023.1.3,Win32,59.88023952,,,,,,,,,,,,,,,,,,,,,,,,,,,,,,,,,,438.4005,,,,,,,,,,,,,,,,,,,,,,,,,,,,,,,"[1120,1000,1040,1020,1200]",4,0,4,0,1,,,,
,,,,6643fdd5e4e6b01321ea03c8,B,2024-08-22_14h34.26.870,Slot Machine Game,2023.1.3,Win32,59.88023952,,,,,,,,,,,,,,,,,,,,,,,,,,,100,,,,,,,,,,,,,,,,,,6,4,"[7,15]","[[2,3,1],[1,2,3]]",443.4298,0,right,0.7925,444.2339,0.5,0.3,"[2,3,1]",0.891175317,stimuli/card_100_transparent.png,100,0,0,0,0,1,,,,,,,,,,
,,,,6643fdd5e4e6b01321ea03c8,B,2024-08-22_14h34.26.870,Slot Machine Game,2023.1.3,Win32,59.88023952,,,,,,,,,,,,,,,,,,,,,,,,,,,200,,,,,,,,,,,,,,,,,,6,4,,,445.0334,1,right,0.5433,445.6002,0.5,0.3,"[2,3,1]",0.90464393,stimuli/card_100_transparent.png,100,1,0,1,0,1,,,,,,,,,,
,,,,6643fdd5e4e6b01321ea03c8,B,2024-08-22_14h34.26.870,Slot Machine Game,2023.1.3,Win32,59.88023952,,,,,,,,,,,,,,,,,,,,,,,,,,,300,,,,,,,,,,,,,,,,,,6,4,,,446.3997,2,right,0.673,447.0837,1,0.3,"[2,3,1]",0.903968498,stimuli/card_100_transparent.png,100,2,0,2,0,1,,,,,,,,,,
,,,,6643fdd5e4e6b01321ea03c8,B,2024-08-22_14h34.26.870,Slot Machine Game,2023.1.3,Win32,59.88023952,,,,,,,,,,,,,,,,,,,,,,,,,,,400,,,,,,,,,,,,,,,,,,6,4,,,448.3838,3,right,0.7217,449.1331,1.5,0.3,"[2,3,1]",0.736480181,stimuli/card_100_transparent.png,100,3,0,3,0,1,,,,,,,,,,
,,,,6643fdd5e4e6b01321ea03c8,B,2024-08-22_14h34.26.870,Slot Machine Game,2023.1.3,Win32,59.88023952,,,,,,,,,,,,,,,,,,,,,,,,,,,500,,,,,,,,,,,,,,,,,,6,4,,,450.933,4,right,0.7707,451.7103,1,0.3,"[2,3,1]",0.968687794,stimuli/card_100_transparent.png,100,4,0,4,0,1,,,,,,,,,,
,,,,6643fdd5e4e6b01321ea03c8,B,2024-08-22_14h34.26.870,Slot Machine Game,2023.1.3,Win32,59.88023952,,,,,,,,,,,,,,,,,,,,,,,,,,,600,,,,,,,,,,,,,,,,,,6,4,,,452.9998,5,right,0.69,453.7004,1,0.3,"[2,3,1]",0.652595408,stimuli/card_100_transparent.png,100,5,0,5,0,1,,,,,,,,,,
,,,,6643fdd5e4e6b01321ea03c8,B,2024-08-22_14h34.26.870,Slot Machine Game,2023.1.3,Win32,59.88023952,,,,,,,,,,,,,,,,,,,,,,,,,,,700,,,,,,,,,,,,,,,,,,6,4,,,454.9999,6,right,0.5006,455.517,1,0.3,"[2,3,1]",0.908431046,stimuli/card_100_transparent.png,100,6,0,6,0,1,,,,,,,,,,
,,,,6643fdd5e4e6b01321ea03c8,B,2024-08-22_14h34.26.870,Slot Machine Game,2023.1.3,Win32,59.88023952,,,,,,,,,,,,,,,,,,,,,,,,,,,700,,,,,,,,,,,,,,,,,,6,4,,,456.8163,7,right,0.6573,457.4837,1,0.3,"[1,2,3]",0.412214531,stimuli/card_0_transparent.png,0,7,0,7,0,1,,,,,,,,,,
,,,,6643fdd5e4e6b01321ea03c8,B,2024-08-22_14h34.26.870,Slot Machine Game,2023.1.3,Win32,59.88023952,,,,,,,,,,,,,,,,,,,,,,,,,,,700,,,,,,,,,,,,,,,,,,6,4,,,458.7829,8,right,0.6504,459.4662,1.5,0.3,"[1,2,3]",0.566841151,stimuli/card_0_transparent.png,0,8,0,8,0,1,,,,,,,,,,
,,,,6643fdd5e4e6b01321ea03c8,B,2024-08-22_14h34.26.870,Slot Machine Game,2023.1.3,Win32,59.88023952,,,,,,,,,,,,,,,,,,,,,,,,,,,710,,,,,,,,,,,,,,,,,,6,4,,,461.2668,9,up,0.6866,461.9835,1.5,0.3,"[1,2,3]",0.470847148,stimuli/card_10_transparent.png,10,9,0,9,0,1,,,,,,,,,,
,,,,6643fdd5e4e6b01321ea03c8,B,2024-08-22_14h34.26.870,Slot Machine Game,2023.1.3,Win32,59.88023952,,,,,,,,,,,,,,,,,,,,,,,,,,,810,,,,,,,,,,,,,,,,,,6,4,,,463.7829,10,left,0.5696,464.3828,1,0.3,"[1,2,3]",0.499709426,stimuli/card_100_transparent.png,100,10,0,10,0,1,,,,,,,,,,
,,,,6643fdd5e4e6b01321ea03c8,B,2024-08-22_14h34.26.870,Slot Machine Game,2023.1.3,Win32,59.88023952,,,,,,,,,,,,,,,,,,,,,,,,,,,810,,,,,,,,,,,,,,,,,,6,4,,,465.6834,11,left,0.6059,466.3162,0.5,0.3,"[1,2,3]",0.075285337,stimuli/card_0_transparent.png,0,11,0,11,0,1,,,,,,,,,,
,,,,6643fdd5e4e6b01321ea03c8,B,2024-08-22_14h34.26.870,Slot Machine Game,2023.1.3,Win32,59.88023952,,,,,,,,,,,,,,,,,,,,,,,,,,,910,,,,,,,,,,,,,,,,,,6,4,,,467.1169,12,left,0.5478,467.6996,0.5,0.3,"[1,2,3]",0.948102812,stimuli/card_100_transparent.png,100,12,0,12,0,1,,,,,,,,,,
,,,,6643fdd5e4e6b01321ea03c8,B,2024-08-22_14h34.26.870,Slot Machine Game,2023.1.3,Win32,59.88023952,,,,,,,,,,,,,,,,,,,,,,,,,,,1010,,,,,,,,,,,,,,,,,,6,4,,,468.4996,13,left,0.759,469.2833,1.5,0.3,"[1,2,3]",0.586036385,stimuli/card_100_transparent.png,100,13,0,13,0,1,,,,,,,,,,
,,,,6643fdd5e4e6b01321ea03c8,B,2024-08-22_14h34.26.870,Slot Machine Game,2023.1.3,Win32,59.88023952,,,,,,,,,,,,,,,,,,,,,,,,,,,1110,,,,,,,,,,,,,,,,,,6,4,,,471.0831,14,left,0.5343,471.6501,1,0.3,"[1,2,3]",0.449653116,stimuli/card_100_transparent.png,100,14,0,14,0,1,,,,,,,,,,
,,,,6643fdd5e4e6b01321ea03c8,B,2024-08-22_14h34.26.870,Slot Machine Game,2023.1.3,Win32,59.88023952,,,,,,,,,,,,,,,,,,,,,,,,,,,,,,,,,,472.9498,,,,,,,,,,,,,,,,,,,,,,,,,,,,,,,"[1120,1000,1040,1020,1200,1110]",5,0,5,0,1,,,,
,,,,6643fdd5e4e6b01321ea03c8,B,2024-08-22_14h34.26.870,Slot Machine Game,2023.1.3,Win32,59.88023952,,,,,,,,,,,,,,,,,,,,,,,,,,,100,,,,,,,,,,,,,,,,,,7,10,"[10,15]","[[3,1,2],[1,3,2]]",477.9659,0,up,0.5238,478.4993,0.5,0.3,"[3,1,2]",0.8350938,stimuli/card_100_transparent.png,100,0,0,0,0,1,,,,,,,,,,
,,,,6643fdd5e4e6b01321ea03c8,B,2024-08-22_14h34.26.870,Slot Machine Game,2023.1.3,Win32,59.88023952,,,,,,,,,,,,,,,,,,,,,,,,,,,200,,,,,,,,,,,,,,,,,,7,10,,,479.2994,1,up,0.567,479.8992,1,0.3,"[3,1,2]",0.741264254,stimuli/card_100_transparent.png,100,1,0,1,0,1,,,,,,,,,,
,,,,6643fdd5e4e6b01321ea03c8,B,2024-08-22_14h34.26.870,Slot Machine Game,2023.1.3,Win32,59.88023952,,,,,,,,,,,,,,,,,,,,,,,,,,,300,,,,,,,,,,,,,,,,,,7,10,,,481.1996,2,up,0.9156,482.1325,0.5,0.3,"[3,1,2]",0.780111699,stimuli/card_100_transparent.png,100,2,0,2,0,1,,,,,,,,,,
,,,,6643fdd5e4e6b01321ea03c8,B,2024-08-22_14h34.26.870,Slot Machine Game,2023.1.3,Win32,59.88023952,,,,,,,,,,,,,,,,,,,,,,,,,,,400,,,,,,,,,,,,,,,,,,7,10,,,482.9328,3,up,3.3886,486.3498,1,0.3,"[3,1,2]",0.947214671,stimuli/card_100_transparent.png,100,3,0,3,0,1,,,,,,,,,,
,,,,6643fdd5e4e6b01321ea03c8,B,2024-08-22_14h34.26.870,Slot Machine Game,2023.1.3,Win32,59.88023952,,,,,,,,,,,,,,,,,,,,,,,,,,,500,,,,,,,,,,,,,,,,,,7,10,,,487.6493,4,up,0.7363,488.416,1,0.3,"[3,1,2]",0.633692646,stimuli/card_100_transparent.png,100,4,0,4,0,1,,,,,,,,,,
,,,,6643fdd5e4e6b01321ea03c8,B,2024-08-22_14h34.26.870,Slot Machine Game,2023.1.3,Win32,59.88023952,,,,,,,,,,,,,,,,,,,,,,,,,,,600,,,,,,,,,,,,,,,,,,7,10,,,489.716,5,up,0.6181,490.3658,1.5,0.3,"[3,1,2]",0.425633966,stimuli/card_100_transparent.png,100,5,0,5,0,1,,,,,,,,,,
,,,,6643fdd5e4e6b01321ea03c8,B,2024-08-22_14h34.26.870,Slot Machine Game,2023.1.3,Win32,59.88023952,,,,,,,,,,,,,,,,,,,,,,,,,,,700,,,,,,,,,,,,,,,,,,7,10,,,492.1661,6,up,0.7672,492.966,1,0.3,"[3,1,2]",0.695971971,stimuli/card_100_transparent.png,100,6,0,6,0,1,,,,,,,,,,
,,,,6643fdd5e4e6b01321ea03c8,B,2024-08-22_14h34.26.870,Slot Machine Game,2023.1.3,Win32,59.88023952,,,,,,,,,,,,,,,,,,,,,,,,,,,800,,,,,,,,,,,,,,,,,,7,10,,,494.2657,7,up,0.5439,494.8163,0.5,0.3,"[3,1,2]",0.955138025,stimuli/card_100_transparent.png,100,7,0,7,0,1,,,,,,,,,,
,,,,6643fdd5e4e6b01321ea03c8,B,2024-08-22_14h34.26.870,Slot Machine Game,2023.1.3,Win32,59.88023952,,,,,,,,,,,,,,,,,,,,,,,,,,,810,,,,,,,,,,,,,,,,,,7,10,,,495.6158,8,up,0.5932,496.2325,1.5,0.3,"[3,1,2]",0.134684565,stimuli/card_10_transparent.png,10,8,0,8,0,1,,,,,,,,,,
,,,,6643fdd5e4e6b01321ea03c8,B,2024-08-22_14h34.26.870,Slot Machine Game,2023.1.3,Win32,59.88023952,,,,,,,,,,,,,,,,,,,,,,,,,,,910,,,,,,,,,,,,,,,,,,7,10,,,498.033,9,up,0.7061,498.7664,1.5,0.3,"[3,1,2]",0.525701889,stimuli/card_100_transparent.png,100,9,0,9,0,1,,,,,,,,,,
,,,,6643fdd5e4e6b01321ea03c8,B,2024-08-22_14h34.26.870,Slot Machine Game,2023.1.3,Win32,59.88023952,,,,,,,,,,,,,,,,,,,,,,,,,,,910,,,,,,,,,,,,,,,,,,7,10,,,500.5658,10,up,0.5392,501.1322,1.5,0.3,"[1,3,2]",0.902327041,stimuli/card_0_transparent.png,0,10,0,10,0,1,,,,,,,,,,
,,,,6643fdd5e4e6b01321ea03c8,B,2024-08-22_14h34.26.870,Slot Machine Game,2023.1.3,Win32,59.88023952,,,,,,,,,,,,,,,,,,,,,,,,,,,910,,,,,,,,,,,,,,,,,,7,10,,,502.9324,11,up,1.7496,504.6992,1,0.3,"[1,3,2]",0.9995044,stimuli/card_0_transparent.png,0,11,0,11,0,1,,,,,,,,,,
,,,,6643fdd5e4e6b01321ea03c8,B,2024-08-22_14h34.26.870,Slot Machine Game,2023.1.3,Win32,59.88023952,,,,,,,,,,,,,,,,,,,,,,,,,,,1010,,,,,,,,,,,,,,,,,,7,10,,,505.9996,12,left,0.6898,506.7156,1,0.3,"[1,3,2]",0.212589176,stimuli/card_100_transparent.png,100,12,0,12,0,1,,,,,,,,,,
,,,,6643fdd5e4e6b01321ea03c8,B,2024-08-22_14h34.26.870,Slot Machine Game,2023.1.3,Win32,59.88023952,,,,,,,,,,,,,,,,,,,,,,,,,,,1020,,,,,,,,,,,,,,,,,,7,10,,,508.0159,13,left,0.8174,508.8655,1,0.3,"[1,3,2]",0.139349171,stimuli/card_10_transparent.png,10,13,0,13,0,1,,,,,,,,,,
,,,,6643fdd5e4e6b01321ea03c8,B,2024-08-22_14h34.26.870,Slot Machine Game,2023.1.3,Win32,59.88023952,,,,,,,,,,,,,,,,,,,,,,,,,,,1030,,,,,,,,,,,,,,,,,,7,10,,,510.1658,14,left,0.6021,510.7993,0.5,0.3,"[1,3,2]",0.118890297,stimuli/card_10_transparent.png,10,14,0,14,0,1,,,,,,,,,,
,,,,6643fdd5e4e6b01321ea03c8,B,2024-08-22_14h34.26.870,Slot Machine Game,2023.1.3,Win32,59.88023952,,,,,,,,,,,,,,,,,,,,,,,,,,,,,,,,,,511.5992,,,,,,,,,,,,,,,,,,,,,,,,,,,,,,,"[1120,1000,1040,1020,1200,1110,1030]",6,0,6,0,1,,,,
,,,,6643fdd5e4e6b01321ea03c8,B,2024-08-22_14h34.26.870,Slot Machine Game,2023.1.3,Win32,59.88023952,,,,,,,,,,,,,,,,,,,,,,,,,,,10,,,,,,,,,,,,,,,,,,8,7,"[9,15]","[[1,3,2],[2,3,1]]",516.6057,0,right,0.5058,517.1321,0.5,0.3,"[1,3,2]",0.73410078,stimuli/card_10_transparent.png,10,0,0,0,0,1,,,,,,,,,,
,,,,6643fdd5e4e6b01321ea03c8,B,2024-08-22_14h34.26.870,Slot Machine Game,2023.1.3,Win32,59.88023952,,,,,,,,,,,,,,,,,,,,,,,,,,,20,,,,,,,,,,,,,,,,,,8,7,,,517.9328,1,left,0.6608,518.6157,0.5,0.3,"[1,3,2]",0.115264998,stimuli/card_10_transparent.png,10,1,0,1,0,1,,,,,,,,,,
,,,,6643fdd5e4e6b01321ea03c8,B,2024-08-22_14h34.26.870,Slot Machine Game,2023.1.3,Win32,59.88023952,,,,,,,,,,,,,,,,,,,,,,,,,,,20,,,,,,,,,,,,,,,,,,8,7,,,519.4156,2,up,0.6175,520.0657,1,0.3,"[1,3,2]",0.670241017,stimuli/card_0_transparent.png,0,2,0,2,0,1,,,,,,,,,,
,,,,6643fdd5e4e6b01321ea03c8,B,2024-08-22_14h34.26.870,Slot Machine Game,2023.1.3,Win32,59.88023952,,,,,,,,,,,,,,,,,,,,,,,,,,,120,,,,,,,,,,,,,,,,,,8,7,,,521.3657,3,right,0.5075,521.8988,0.5,0.3,"[1,3,2]",0.198983635,stimuli/card_100_transparent.png,100,3,0,3,0,1,,,,,,,,,,
,,,,6643fdd5e4e6b01321ea03c8,B,2024-08-22_14h34.26.870,Slot Machine Game,2023.1.3,Win32,59.88023952,,,,,,,,,,,,,,,,,,,,,,,,,,,130,,,,,,,,,,,,,,,,,,8,7,,,522.6992,4,right,0.766,523.4989,0.5,0.3,"[1,3,2]",0.446690005,stimuli/card_10_transparent.png,10,4,0,4,0,1,,,,,,,,,,
,,,,6643fdd5e4e6b01321ea03c8,B,2024-08-22_14h34.26.870,Slot Machine Game,2023.1.3,Win32,59.88023952,,,,,,,,,,,,,,,,,,,,,,,,,,,140,,,,,,,,,,,,,,,,,,8,7,,,524.2987,5,right,0.6382,524.9654,1.5,0.3,"[1,3,2]",0.385922531,stimuli/card_10_transparent.png,10,5,0,5,0,1,,,,,,,,,,
,,,,6643fdd5e4e6b01321ea03c8,B,2024-08-22_14h34.26.870,Slot Machine Game,2023.1.3,Win32,59.88023952,,,,,,,,,,,,,,,,,,,,,,,,,,,240,,,,,,,,,,,,,,,,,,8,7,,,526.7653,6,left,0.7527,527.5324,0.5,0.3,"[1,3,2]",0.825686292,stimuli/card_100_transparent.png,100,6,0,6,0,1,,,,,,,,,,
,,,,6643fdd5e4e6b01321ea03c8,B,2024-08-22_14h34.26.870,Slot Machine Game,2023.1.3,Win32,59.88023952,,,,,,,,,,,,,,,,,,,,,,,,,,,340,,,,,,,,,,,,,,,,,,8,7,,,528.3324,7,left,0.5837,528.9489,0.5,0.3,"[1,3,2]",0.43791386,stimuli/card_100_transparent.png,100,7,0,7,0,1,,,,,,,,,,
,,,,6643fdd5e4e6b01321ea03c8,B,2024-08-22_14h34.26.870,Slot Machine Game,2023.1.3,Win32,59.88023952,,,,,,,,,,,,,,,,,,,,,,,,,,,440,,,,,,,,,,,,,,,,,,8,7,,,529.7487,8,left,0.6922,530.4652,0.5,0.3,"[1,3,2]",0.604357946,stimuli/card_100_transparent.png,100,8,0,8,0,1,,,,,,,,,,
,,,,6643fdd5e4e6b01321ea03c8,B,2024-08-22_14h34.26.870,Slot Machine Game,2023.1.3,Win32,59.88023952,,,,,,,,,,,,,,,,,,,,,,,,,,,450,,,,,,,,,,,,,,,,,,8,7,,,531.2652,9,left,0.5597,531.8485,1,0.3,"[2,3,1]",0.762499953,stimuli/card_10_transparent.png,10,9,0,9,0,1,,,,,,,,,,
,,,,6643fdd5e4e6b01321ea03c8,B,2024-08-22_14h34.26.870,Slot Machine Game,2023.1.3,Win32,59.88023952,,,,,,,,,,,,,,,,,,,,,,,,,,,460,,,,,,,,,,,,,,,,,,8,7,,,533.1487,10,left,0.7721,533.949,1.5,0.3,"[2,3,1]",0.444043163,stimuli/card_10_transparent.png,10,10,0,10,0,1,,,,,,,,,,
,,,,6643fdd5e4e6b01321ea03c8,B,2024-08-22_14h34.26.870,Slot Machine Game,2023.1.3,Win32,59.88023952,,,,,,,,,,,,,,,,,,,,,,,,,,,470,,,,,,,,,,,,,,,,,,8,7,,,535.7486,11,left,0.7562,536.5321,1.5,0.3,"[2,3,1]",0.699702312,stimuli/card_10_transparent.png,10,11,0,11,0,1,,,,,,,,,,
,,,,6643fdd5e4e6b01321ea03c8,B,2024-08-22_14h34.26.870,Slot Machine Game,2023.1.3,Win32,59.88023952,,,,,,,,,,,,,,,,,,,,,,,,,,,570,,,,,,,,,,,,,,,,,,8,7,,,538.3321,12,right,0.6218,538.9824,1.5,0.3,"[2,3,1]",0.320824385,stimuli/card_100_transparent.png,100,12,0,12,0,1,,,,,,,,,,
,,,,6643fdd5e4e6b01321ea03c8,B,2024-08-22_14h34.26.870,Slot Machine Game,2023.1.3,Win32,59.88023952,,,,,,,,,,,,,,,,,,,,,,,,,,,670,,,,,,,,,,,,,,,,,,8,7,,,540.7823,13,right,0.6191,541.4325,0.5,0.3,"[2,3,1]",0.293984925,stimuli/card_100_transparent.png,100,13,0,13,0,1,,,,,,,,,,
,,,,6643fdd5e4e6b01321ea03c8,B,2024-08-22_14h34.26.870,Slot Machine Game,2023.1.3,Win32,59.88023952,,,,,,,,,,,,,,,,,,,,,,,,,,,770,,,,,,,,,,,,,,,,,,8,7,,,542.2318,14,right,0.5518,542.8153,1,0.3,"[2,3,1]",0.637698945,stimuli/card_100_transparent.png,100,14,0,14,0,1,,,,,,,,,,
,,,,6643fdd5e4e6b01321ea03c8,B,2024-08-22_14h34.26.870,Slot Machine Game,2023.1.3,Win32,59.88023952,,,,,,,,,,,,,,,,,,,,,,,,,,,,,,,,,,544.1151,,,,,,,,,,,,,,,,,,,,,,,,,,,,,,,"[1120,1000,1040,1020,1200,1110,1030,770]",7,0,7,0,1,,,,
,,,,6643fdd5e4e6b01321ea03c8,B,2024-08-22_14h34.26.870,Slot Machine Game,2023.1.3,Win32,59.88023952,,,,,,,,,,,,,,,,,,,,,,,,,,,100,,,,,,,,,,,,,,,,,,9,9,"[8,15]","[[3,2,1],[3,1,2]]",549.143,0,up,0.7091,549.8651,1.5,0.3,"[3,2,1]",0.126164699,stimuli/card_100_transparent.png,100,0,0,0,0,1,,,,,,,,,,
,,,,6643fdd5e4e6b01321ea03c8,B,2024-08-22_14h34.26.870,Slot Machine Game,2023.1.3,Win32,59.88023952,,,,,,,,,,,,,,,,,,,,,,,,,,,200,,,,,,,,,,,,,,,,,,9,9,,,551.6654,1,up,0.6885,552.3819,1,0.3,"[3,2,1]",0.128341619,stimuli/card_100_transparent.png,100,1,0,1,0,1,,,,,,,,,,
,,,,6643fdd5e4e6b01321ea03c8,B,2024-08-22_14h34.26.870,Slot Machine Game,2023.1.3,Win32,59.88023952,,,,,,,,,,,,,,,,,,,,,,,,,,,210,,,,,,,,,,,,,,,,,,9,9,,,553.6819,2,up,0.7193,554.4157,0.5,0.3,"[3,2,1]",0.499075452,stimuli/card_10_transparent.png,10,2,0,2,0,1,,,,,,,,,,
,,,,6643fdd5e4e6b01321ea03c8,B,2024-08-22_14h34.26.870,Slot Machine Game,2023.1.3,Win32,59.88023952,,,,,,,,,,,,,,,,,,,,,,,,,,,220,,,,,,,,,,,,,,,,,,9,9,,,555.2152,3,up,0.5172,555.7652,1,0.3,"[3,2,1]",0.644753283,stimuli/card_10_transparent.png,10,3,0,3,0,1,,,,,,,,,,
,,,,6643fdd5e4e6b01321ea03c8,B,2024-08-22_14h34.26.870,Slot Machine Game,2023.1.3,Win32,59.88023952,,,,,,,,,,,,,,,,,,,,,,,,,,,320,,,,,,,,,,,,,,,,,,9,9,,,557.0656,4,right,0.8486,557.9482,0.5,0.3,"[3,2,1]",0.917212894,stimuli/card_100_transparent.png,100,4,0,4,0,1,,,,,,,,,,
,,,,6643fdd5e4e6b01321ea03c8,B,2024-08-22_14h34.26.870,Slot Machine Game,2023.1.3,Win32,59.88023952,,,,,,,,,,,,,,,,,,,,,,,,,,,320,,,,,,,,,,,,,,,,,,9,9,,,558.7484,5,right,0.5836,559.3651,1.5,0.3,"[3,2,1]",0.066457053,stimuli/card_0_transparent.png,0,5,0,5,0,1,,,,,,,,,,
,,,,6643fdd5e4e6b01321ea03c8,B,2024-08-22_14h34.26.870,Slot Machine Game,2023.1.3,Win32,59.88023952,,,,,,,,,,,,,,,,,,,,,,,,,,,420,,,,,,,,,,,,,,,,,,9,9,,,561.1653,6,right,1.0024,562.1988,1.5,0.3,"[3,2,1]",0.394421071,stimuli/card_100_transparent.png,100,6,0,6,0,1,,,,,,,,,,
,,,,6643fdd5e4e6b01321ea03c8,B,2024-08-22_14h34.26.870,Slot Machine Game,2023.1.3,Win32,59.88023952,,,,,,,,,,,,,,,,,,,,,,,,,,,520,,,,,,,,,,,,,,,,,,9,9,,,563.998,7,right,0.723,564.7314,0.5,0.3,"[3,2,1]",0.7936122,stimuli/card_100_transparent.png,100,7,0,7,0,1,,,,,,,,,,
,,,,6643fdd5e4e6b01321ea03c8,B,2024-08-22_14h34.26.870,Slot Machine Game,2023.1.3,Win32,59.88023952,,,,,,,,,,,,,,,,,,,,,,,,,,,530,,,,,,,,,,,,,,,,,,9,9,,,565.5315,8,right,0.6529,566.2153,0.5,0.3,"[3,1,2]",0.455620027,stimuli/card_10_transparent.png,10,8,0,8,0,1,,,,,,,,,,
,,,,6643fdd5e4e6b01321ea03c8,B,2024-08-22_14h34.26.870,Slot Machine Game,2023.1.3,Win32,59.88023952,,,,,,,,,,,,,,,,,,,,,,,,,,,540,,,,,,,,,,,,,,,,,,9,9,,,567.0147,9,right,0.5536,567.5981,1,0.3,"[3,1,2]",0.722417185,stimuli/card_10_transparent.png,10,9,0,9,0,1,,,,,,,,,,
,,,,6643fdd5e4e6b01321ea03c8,B,2024-08-22_14h34.26.870,Slot Machine Game,2023.1.3,Win32,59.88023952,,,,,,,,,,,,,,,,,,,,,,,,,,,540,,,,,,,,,,,,,,,,,,9,9,,,568.898,10,left,0.6063,569.5314,0.5,0.3,"[3,1,2]",0.529637865,stimuli/card_0_transparent.png,0,10,0,10,0,1,,,,,,,,,,
,,,,6643fdd5e4e6b01321ea03c8,B,2024-08-22_14h34.26.870,Slot Machine Game,2023.1.3,Win32,59.88023952,,,,,,,,,,,,,,,,,,,,,,,,,,,640,,,,,,,,,,,,,,,,,,9,9,,,570.3314,11,up,0.6005,570.9485,1,0.3,"[3,1,2]",0.594744629,stimuli/card_100_transparent.png,100,11,0,11,0,1,,,,,,,,,,
,,,,6643fdd5e4e6b01321ea03c8,B,2024-08-22_14h34.26.870,Slot Machine Game,2023.1.3,Win32,59.88023952,,,,,,,,,,,,,,,,,,,,,,,,,,,740,,,,,,,,,,,,,,,,,,9,9,,,572.2481,12,up,0.6414,572.9153,1,0.3,"[3,1,2]",0.747074164,stimuli/card_100_transparent.png,100,12,0,12,0,1,,,,,,,,,,
,,,,6643fdd5e4e6b01321ea03c8,B,2024-08-22_14h34.26.870,Slot Machine Game,2023.1.3,Win32,59.88023952,,,,,,,,,,,,,,,,,,,,,,,,,,,840,,,,,,,,,,,,,,,,,,9,9,,,574.2146,13,up,0.6669,574.8979,1.5,0.3,"[3,1,2]",0.815905063,stimuli/card_100_transparent.png,100,13,0,13,0,1,,,,,,,,,,
,,,,6643fdd5e4e6b01321ea03c8,B,2024-08-22_14h34.26.870,Slot Machine Game,2023.1.3,Win32,59.88023952,,,,,,,,,,,,,,,,,,,,,,,,,,,850,,,,,,,,,,,,,,,,,,9,9,,,576.6987,14,up,0.5186,577.2478,1.5,0.3,"[3,1,2]",0.136589527,stimuli/card_10_transparent.png,10,14,0,14,0,1,,,,,,,,,,
,,,,6643fdd5e4e6b01321ea03c8,B,2024-08-22_14h34.26.870,Slot Machine Game,2023.1.3,Win32,59.88023952,,,,,,,,,,,,,,,,,,,,,,,,,,,,,,,,,,579.0484,,,,,,,,,,,,,,,,,,,,,,,,,,,,,,,"[1120,1000,1040,1020,1200,1110,1030,770,850]",8,0,8,0,1,,,,
,,,,6643fdd5e4e6b01321ea03c8,B,2024-08-22_14h34.26.870,Slot Machine Game,2023.1.3,Win32,59.88023952,,,,,,,,,,,,,,,,,,,,,,,,,,,100,,,,,,,,,,,,,,,,,,10,6,"[4,10,15]","[[2,3,1],[1,3,2],[3,2,1]]",584.0538,0,up,0.9925,585.0644,1,0.3,"[2,3,1]",0.062738856,stimuli/card_100_transparent.png,100,0,0,0,0,1,,,,,,,,,,
,,,,6643fdd5e4e6b01321ea03c8,B,2024-08-22_14h34.26.870,Slot Machine Game,2023.1.3,Win32,59.88023952,,,,,,,,,,,,,,,,,,,,,,,,,,,100,,,,,,,,,,,,,,,,,,10,6,,,586.3648,1,up,0.5557,586.9482,1.5,0.3,"[2,3,1]",0.319390836,stimuli/card_0_transparent.png,0,1,0,1,0,1,,,,,,,,,,
,,,,6643fdd5e4e6b01321ea03c8,B,2024-08-22_14h34.26.870,Slot Machine Game,2023.1.3,Win32,59.88023952,,,,,,,,,,,,,,,,,,,,,,,,,,,100,,,,,,,,,,,,,,,,,,10,6,,,588.748,2,up,0.6768,589.4477,1,0.3,"[2,3,1]",0.969456166,stimuli/card_0_transparent.png,0,2,0,2,0,1,,,,,,,,,,
,,,,6643fdd5e4e6b01321ea03c8,B,2024-08-22_14h34.26.870,Slot Machine Game,2023.1.3,Win32,59.88023952,,,,,,,,,,,,,,,,,,,,,,,,,,,100,,,,,,,,,,,,,,,,,,10,6,,,590.7477,3,up,0.5504,591.331,1.5,0.3,"[2,3,1]",0.383833425,stimuli/card_0_transparent.png,0,3,0,3,0,1,,,,,,,,,,
,,,,6643fdd5e4e6b01321ea03c8,B,2024-08-22_14h34.26.870,Slot Machine Game,2023.1.3,Win32,59.88023952,,,,,,,,,,,,,,,,,,,,,,,,,,,100,,,,,,,,,,,,,,,,,,10,6,,,593.1317,4,left,0.6003,593.7643,1.5,0.3,"[1,3,2]",0.076884098,stimuli/card_0_transparent.png,0,4,0,4,0,1,,,,,,,,,,
,,,,6643fdd5e4e6b01321ea03c8,B,2024-08-22_14h34.26.870,Slot Machine Game,2023.1.3,Win32,59.88023952,,,,,,,,,,,,,,,,,,,,,,,,,,,110,,,,,,,,,,,,,,,,,,10,6,,,595.5645,5,right,0.5711,596.1483,0.5,0.3,"[1,3,2]",0.98012373,stimuli/card_10_transparent.png,10,5,0,5,0,1,,,,,,,,,,
,,,,6643fdd5e4e6b01321ea03c8,B,2024-08-22_14h34.26.870,Slot Machine Game,2023.1.3,Win32,59.88023952,,,,,,,,,,,,,,,,,,,,,,,,,,,210,,,,,,,,,,,,,,,,,,10,6,,,596.9483,6,left,0.7861,597.7647,1,0.3,"[1,3,2]",0.785323542,stimuli/card_100_transparent.png,100,6,0,6,0,1,,,,,,,,,,
,,,,6643fdd5e4e6b01321ea03c8,B,2024-08-22_14h34.26.870,Slot Machine Game,2023.1.3,Win32,59.88023952,,,,,,,,,,,,,,,,,,,,,,,,,,,310,,,,,,,,,,,,,,,,,,10,6,,,599.0642,7,left,0.5522,599.6475,1,0.3,"[1,3,2]",0.709578494,stimuli/card_100_transparent.png,100,7,0,7,0,1,,,,,,,,,,
,,,,6643fdd5e4e6b01321ea03c8,B,2024-08-22_14h34.26.870,Slot Machine Game,2023.1.3,Win32,59.88023952,,,,,,,,,,,,,,,,,,,,,,,,,,,410,,,,,,,,,,,,,,,,,,10,6,,,600.9483,8,left,0.5407,601.5142,0.5,0.3,"[1,3,2]",0.540391023,stimuli/card_100_transparent.png,100,8,0,8,0,1,,,,,,,,,,
,,,,6643fdd5e4e6b01321ea03c8,B,2024-08-22_14h34.26.870,Slot Machine Game,2023.1.3,Win32,59.88023952,,,,,,,,,,,,,,,,,,,,,,,,,,,510,,,,,,,,,,,,,,,,,,10,6,,,602.3143,9,left,0.5007,602.8475,1.5,0.3,"[1,3,2]",0.516137211,stimuli/card_100_transparent.png,100,9,0,9,0,1,,,,,,,,,,
,,,,6643fdd5e4e6b01321ea03c8,B,2024-08-22_14h34.26.870,Slot Machine Game,2023.1.3,Win32,59.88023952,,,,,,,,,,,,,,,,,,,,,,,,,,,520,,,,,,,,,,,,,,,,,,10,6,,,604.6481,10,left,0.6581,605.3314,1,0.3,"[3,2,1]",0.13213482,stimuli/card_10_transparent.png,10,10,0,10,0,1,,,,,,,,,,
,,,,6643fdd5e4e6b01321ea03c8,B,2024-08-22_14h34.26.870,Slot Machine Game,2023.1.3,Win32,59.88023952,,,,,,,,,,,,,,,,,,,,,,,,,,,620,,,,,,,,,,,,,,,,,,10,6,,,606.6308,11,left,0.5774,607.2308,1,0.3,"[3,2,1]",0.039334863,stimuli/card_100_transparent.png,100,11,0,11,0,1,,,,,,,,,,
,,,,6643fdd5e4e6b01321ea03c8,B,2024-08-22_14h34.26.870,Slot Machine Game,2023.1.3,Win32,59.88023952,,,,,,,,,,,,,,,,,,,,,,,,,,,720,,,,,,,,,,,,,,,,,,10,6,,,608.5311,12,left,0.534,609.0977,1,0.3,"[3,2,1]",0.093657796,stimuli/card_100_transparent.png,100,12,0,12,0,1,,,,,,,,,,
,,,,6643fdd5e4e6b01321ea03c8,B,2024-08-22_14h34.26.870,Slot Machine Game,2023.1.3,Win32,59.88023952,,,,,,,,,,,,,,,,,,,,,,,,,,,720,,,,,,,,,,,,,,,,,,10,6,,,610.398,13,left,0.5005,610.9313,0.5,0.3,"[3,2,1]",0.961223835,stimuli/card_0_transparent.png,0,13,0,13,0,1,,,,,,,,,,
,,,,6643fdd5e4e6b01321ea03c8,B,2024-08-22_14h34.26.870,Slot Machine Game,2023.1.3,Win32,59.88023952,,,,,,,,,,,,,,,,,,,,,,,,,,,820,,,,,,,,,,,,,,,,,,10,6,,,611.7314,14,left,0.6857,612.4479,1.5,0.3,"[3,2,1]",0.067489643,stimuli/card_100_transparent.png,100,14,0,14,0,1,,,,,,,,,,
,,,,6643fdd5e4e6b01321ea03c8,B,2024-08-22_14h34.26.870,Slot Machine Game,2023.1.3,Win32,59.88023952,,,,,,,,,,,,,,,,,,,,,,,,,,,,,,,,,,614.2479,,,,,,,,,,,,,,,,,,,,,,,,,,,,,,,"[1120,1000,1040,1020,1200,1110,1030,770,850,820]",9,0,9,0,1,,,,
,,,,6643fdd5e4e6b01321ea03c8,B,2024-08-22_14h34.26.870,Slot Machine Game,2023.1.3,Win32,59.88023952,,,,,,,,,,,,,,,,,,,,,,,,,,,,,,,,,,,,,,,,,,,,,,,,,,,,,,,,,,,,,,,,,,,,,,,9,"[1120,1000,1040,1020,1200,1110,1030,770,850,820]",10.4,2024-08-22_14h44.50.237
