key_resp_welcome_started,key_resp_welcome_keys,key_resp_welcome_rt,key_resp_welcome_duration,prolific_pid,path_id,date,expName,psychopyVersion,OS,frameRate,PROLIFIC_PID,STUDY_ID,SESSION_ID,key_resp_instruction1_started,key_resp_instruction1_keys,key_resp_instruction1_rt,key_resp_instruction1_duration,key_resp_instruction2_started,key_resp_instruction2_keys,key_resp_instruction2_rt,key_resp_instruction2_duration,key_resp_instruction3_started,key_resp_instruction3_keys,key_resp_instruction3_rt,key_resp_instruction3_duration,key_resp_instruction4_started,key_resp_instruction4_keys,key_resp_instruction4_rt,key_resp_instruction4_duration,practiceCondition,practice_reward_seqs,practice_trial_started,practice_trial_num,practice_resp_rt,practice_keypress_time,practice_resp_keys,prac_presentationInterval,practice_reward_seq,reward_img,cumulative_reward,trial_reward,practice_trials.thisRepN,practice_trials.thisTrialN,practice_trials.thisN,practice_trials.thisIndex,practice_trials.ran,block_break_started,practice_end_time,practice_end_keys,practice_end_rt,practice_end_duration,main_instruction_text_started,block_condition,block_order_indices,main_instruction_keys,main_instruction_rt,main_instruction_duration,block_number,block_assignment,current_condition,main_reward_seqs,main_trial_started,main_trial_num,main_trial_keys,main_trial_rt,main_trial_keypress_time,main_presentationInterval,reward_presentation_time,main_reward_seq,reward_rand_val,main_reward_img,current_reward,main_trials.thisRepN,main_trials.thisTrialN,main_trials.thisN,main_trials.thisIndex,main_trials.ran,block_reward,block.thisRepN,block.thisTrialN,block.thisN,block.thisIndex,block.ran,block_reward.length,block_reward_all,reward_amount,date_end_task
0.0017,space,2.1416,,5fefefa4c9707d3516361c9c,C,2024-10-23_10h35.15.736,Slot Machine Game,2023.1.3,Win32,59.88023952,5fefefa4c9707d3516361c9c,67167c13dd87566d3602e731,671925949d756462813dbbe2,,,,,,,,,,,,,,,,,,,,,,,,,,,,,,,,,,,,,,,,,,,,,,,,,,,,,,,,,,,,,,,,,,,,,,,,,,
,,,,5fefefa4c9707d3516361c9c,C,2024-10-23_10h35.15.736,Slot Machine Game,2023.1.3,Win32,59.88023952,5fefefa4c9707d3516361c9c,67167c13dd87566d3602e731,671925949d756462813dbbe2,2.164,space,7.8706,,,,,,,,,,,,,,,,,,,,,,,,,,,,,,,,,,,,,,,,,,,,,,,,,,,,,,,,,,,,,,,,,,,,,,,
,,,,5fefefa4c9707d3516361c9c,C,2024-10-23_10h35.15.736,Slot Machine Game,2023.1.3,Win32,59.88023952,5fefefa4c9707d3516361c9c,67167c13dd87566d3602e731,671925949d756462813dbbe2,,,,,10.0491,space,20.0228,,,,,,,,,,,,,,,,,,,,,,,,,,,,,,,,,,,,,,,,,,,,,,,,,,,,,,,,,,,,,,,,,,,
,,,,5fefefa4c9707d3516361c9c,C,2024-10-23_10h35.15.736,Slot Machine Game,2023.1.3,Win32,59.88023952,5fefefa4c9707d3516361c9c,67167c13dd87566d3602e731,671925949d756462813dbbe2,,,,,,,,,30.1106,space,0.9769,,,,,,,,,,,,,,,,,,,,,,,,,,,,,,,,,,,,,,,,,,,,,,,,,,,,,,,,,,,,,,,
,,,,5fefefa4c9707d3516361c9c,C,2024-10-23_10h35.15.736,Slot Machine Game,2023.1.3,Win32,59.88023952,5fefefa4c9707d3516361c9c,67167c13dd87566d3602e731,671925949d756462813dbbe2,,,,,,,,,,,,,,,,,,,,,,,,,,,,,,,,,,,,,,,,,,,,,,,,,,,,,,,,,,,,,,,,,,,,,,,,,,
,,,,5fefefa4c9707d3516361c9c,C,2024-10-23_10h35.15.736,Slot Machine Game,2023.1.3,Win32,59.88023952,5fefefa4c9707d3516361c9c,67167c13dd87566d3602e731,671925949d756462813dbbe2,,,,,,,,,,,,,172.7831,rshift,89.223,,,,,,,,,,,,,,,,,,,,,,,,,,,,,,,,,,,,,,,,,,,,,,,,,,,,,,,,,,,
,,,,5fefefa4c9707d3516361c9c,C,2024-10-23_10h35.15.736,Slot Machine Game,2023.1.3,Win32,59.88023952,5fefefa4c9707d3516361c9c,67167c13dd87566d3602e731,671925949d756462813dbbe2,,,,,,,,,,,,,,,,,"[9,15]","[[2,1,3],[2,3,1]]",262.0297,0,4.1841,266.2438,up,1,"[2,1,3]",stimuli/card_100_transparent.png,100,100,0,0,0,0,1,,,,,,,,,,,,,,,,,,,,,,,,,,,,,,,,,,,,,,,,,
,,,,5fefefa4c9707d3516361c9c,C,2024-10-23_10h35.15.736,Slot Machine Game,2023.1.3,Win32,59.88023952,5fefefa4c9707d3516361c9c,67167c13dd87566d3602e731,671925949d756462813dbbe2,,,,,,,,,,,,,,,,,,,267.5427,1,2.1172,269.6926,up,1,"[2,1,3]",stimuli/card_100_transparent.png,200,100,1,0,1,0,1,,,,,,,,,,,,,,,,,,,,,,,,,,,,,,,,,,,,,,,,,
,,,,5fefefa4c9707d3516361c9c,C,2024-10-23_10h35.15.736,Slot Machine Game,2023.1.3,Win32,59.88023952,5fefefa4c9707d3516361c9c,67167c13dd87566d3602e731,671925949d756462813dbbe2,,,,,,,,,,,,,,,,,,,270.9922,2,0.8343,271.86,up,1,"[2,1,3]",stimuli/card_100_transparent.png,300,100,2,0,2,0,1,,,,,,,,,,,,,,,,,,,,,,,,,,,,,,,,,,,,,,,,,
,,,,5fefefa4c9707d3516361c9c,C,2024-10-23_10h35.15.736,Slot Machine Game,2023.1.3,Win32,59.88023952,5fefefa4c9707d3516361c9c,67167c13dd87566d3602e731,671925949d756462813dbbe2,,,,,,,,,,,,,,,,,,,273.1585,3,1.9176,275.1094,up,1,"[2,1,3]",stimuli/card_100_transparent.png,400,100,3,0,3,0,1,,,,,,,,,,,,,,,,,,,,,,,,,,,,,,,,,,,,,,,,,
,,,,5fefefa4c9707d3516361c9c,C,2024-10-23_10h35.15.736,Slot Machine Game,2023.1.3,Win32,59.88023952,5fefefa4c9707d3516361c9c,67167c13dd87566d3602e731,671925949d756462813dbbe2,,,,,,,,,,,,,,,,,,,276.4062,4,1.6,278.0252,up,1.5,"[2,1,3]",stimuli/card_100_transparent.png,500,100,4,0,4,0,1,,,,,,,,,,,,,,,,,,,,,,,,,,,,,,,,,,,,,,,,,
,,,,5fefefa4c9707d3516361c9c,C,2024-10-23_10h35.15.736,Slot Machine Game,2023.1.3,Win32,59.88023952,5fefefa4c9707d3516361c9c,67167c13dd87566d3602e731,671925949d756462813dbbe2,,,,,,,,,,,,,,,,,,,279.8246,5,1.084,280.9419,up,0.5,"[2,1,3]",stimuli/card_0_transparent.png,500,0,5,0,5,0,1,,,,,,,,,,,,,,,,,,,,,,,,,,,,,,,,,,,,,,,,,
,,,,5fefefa4c9707d3516361c9c,C,2024-10-23_10h35.15.736,Slot Machine Game,2023.1.3,Win32,59.88023952,5fefefa4c9707d3516361c9c,67167c13dd87566d3602e731,671925949d756462813dbbe2,,,,,,,,,,,,,,,,,,,281.7413,6,1.9503,283.7246,up,1.5,"[2,1,3]",stimuli/card_10_transparent.png,510,10,6,0,6,0,1,,,,,,,,,,,,,,,,,,,,,,,,,,,,,,,,,,,,,,,,,
,,,,5fefefa4c9707d3516361c9c,C,2024-10-23_10h35.15.736,Slot Machine Game,2023.1.3,Win32,59.88023952,5fefefa4c9707d3516361c9c,67167c13dd87566d3602e731,671925949d756462813dbbe2,,,,,,,,,,,,,,,,,,,285.5242,7,1.684,287.2414,up,0.5,"[2,1,3]",stimuli/card_100_transparent.png,610,100,7,0,7,0,1,,,,,,,,,,,,,,,,,,,,,,,,,,,,,,,,,,,,,,,,,
,,,,5fefefa4c9707d3516361c9c,C,2024-10-23_10h35.15.736,Slot Machine Game,2023.1.3,Win32,59.88023952,5fefefa4c9707d3516361c9c,67167c13dd87566d3602e731,671925949d756462813dbbe2,,,,,,,,,,,,,,,,,,,288.0384,8,1.2173,289.2742,up,1.5,"[2,1,3]",stimuli/card_100_transparent.png,710,100,8,0,8,0,1,,,,,,,,,,,,,,,,,,,,,,,,,,,,,,,,,,,,,,,,,
,,,,5fefefa4c9707d3516361c9c,C,2024-10-23_10h35.15.736,Slot Machine Game,2023.1.3,Win32,59.88023952,5fefefa4c9707d3516361c9c,67167c13dd87566d3602e731,671925949d756462813dbbe2,,,,,,,,,,,,,,,,,,,291.0713,9,1.3337,292.4241,up,0.5,"[2,3,1]",stimuli/card_0_transparent.png,710,0,9,0,9,0,1,,,,,,,,,,,,,,,,,,,,,,,,,,,,,,,,,,,,,,,,,
,,,,5fefefa4c9707d3516361c9c,C,2024-10-23_10h35.15.736,Slot Machine Game,2023.1.3,Win32,59.88023952,5fefefa4c9707d3516361c9c,67167c13dd87566d3602e731,671925949d756462813dbbe2,,,,,,,,,,,,,,,,,,,293.2233,10,0.5006,293.7572,up,1,"[2,3,1]",stimuli/card_0_transparent.png,710,0,10,0,10,0,1,,,,,,,,,,,,,,,,,,,,,,,,,,,,,,,,,,,,,,,,,
,,,,5fefefa4c9707d3516361c9c,C,2024-10-23_10h35.15.736,Slot Machine Game,2023.1.3,Win32,59.88023952,5fefefa4c9707d3516361c9c,67167c13dd87566d3602e731,671925949d756462813dbbe2,,,,,,,,,,,,,,,,,,,295.0568,11,1.334,296.4238,left,1,"[2,3,1]",stimuli/card_10_transparent.png,720,10,11,0,11,0,1,,,,,,,,,,,,,,,,,,,,,,,,,,,,,,,,,,,,,,,,,
,,,,5fefefa4c9707d3516361c9c,C,2024-10-23_10h35.15.736,Slot Machine Game,2023.1.3,Win32,59.88023952,5fefefa4c9707d3516361c9c,67167c13dd87566d3602e731,671925949d756462813dbbe2,,,,,,,,,,,,,,,,,,,297.7229,12,1.6172,299.3733,left,1.5,"[2,3,1]",stimuli/card_0_transparent.png,720,0,12,0,12,0,1,,,,,,,,,,,,,,,,,,,,,,,,,,,,,,,,,,,,,,,,,
,,,,5fefefa4c9707d3516361c9c,C,2024-10-23_10h35.15.736,Slot Machine Game,2023.1.3,Win32,59.88023952,5fefefa4c9707d3516361c9c,67167c13dd87566d3602e731,671925949d756462813dbbe2,,,,,,,,,,,,,,,,,,,301.1708,13,0.6172,301.8068,right,0.5,"[2,3,1]",stimuli/card_0_transparent.png,720,0,13,0,13,0,1,,,,,,,,,,,,,,,,,,,,,,,,,,,,,,,,,,,,,,,,,
,,,,5fefefa4c9707d3516361c9c,C,2024-10-23_10h35.15.736,Slot Machine Game,2023.1.3,Win32,59.88023952,5fefefa4c9707d3516361c9c,67167c13dd87566d3602e731,671925949d756462813dbbe2,,,,,,,,,,,,,,,,,,,302.6036,14,1.1006,303.7229,up,1,"[2,3,1]",stimuli/card_0_transparent.png,720,0,14,0,14,0,1,,,,,,,,,,,,,,,,,,,,,,,,,,,,,,,,,,,,,,,,,
,,,,5fefefa4c9707d3516361c9c,C,2024-10-23_10h35.15.736,Slot Machine Game,2023.1.3,Win32,59.88023952,5fefefa4c9707d3516361c9c,67167c13dd87566d3602e731,671925949d756462813dbbe2,,,,,,,,,,,,,,,,,"[6,15]","[[1,3,2],[3,1,2]]",310.023,0,2.1838,312.2392,up,1,"[1,3,2]",stimuli/card_0_transparent.png,0,0,0,0,0,0,1,305.0227,,,,,,,,,,,,,,,,,,,,,,,,,,,,,,,,,,,,,,,,
,,,,5fefefa4c9707d3516361c9c,C,2024-10-23_10h35.15.736,Slot Machine Game,2023.1.3,Win32,59.88023952,5fefefa4c9707d3516361c9c,67167c13dd87566d3602e731,671925949d756462813dbbe2,,,,,,,,,,,,,,,,,,,313.5383,1,1.3507,314.9221,left,0.5,"[1,3,2]",stimuli/card_100_transparent.png,100,100,1,0,1,0,1,,,,,,,,,,,,,,,,,,,,,,,,,,,,,,,,,,,,,,,,,
,,,,5fefefa4c9707d3516361c9c,C,2024-10-23_10h35.15.736,Slot Machine Game,2023.1.3,Win32,59.88023952,5fefefa4c9707d3516361c9c,67167c13dd87566d3602e731,671925949d756462813dbbe2,,,,,,,,,,,,,,,,,,,315.7216,2,1.184,316.9388,left,1.5,"[1,3,2]",stimuli/card_100_transparent.png,200,100,2,0,2,0,1,,,,,,,,,,,,,,,,,,,,,,,,,,,,,,,,,,,,,,,,,
,,,,5fefefa4c9707d3516361c9c,C,2024-10-23_10h35.15.736,Slot Machine Game,2023.1.3,Win32,59.88023952,5fefefa4c9707d3516361c9c,67167c13dd87566d3602e731,671925949d756462813dbbe2,,,,,,,,,,,,,,,,,,,318.7358,3,0.9504,319.705,left,0.5,"[1,3,2]",stimuli/card_100_transparent.png,300,100,3,0,3,0,1,,,,,,,,,,,,,,,,,,,,,,,,,,,,,,,,,,,,,,,,,
,,,,5fefefa4c9707d3516361c9c,C,2024-10-23_10h35.15.736,Slot Machine Game,2023.1.3,Win32,59.88023952,5fefefa4c9707d3516361c9c,67167c13dd87566d3602e731,671925949d756462813dbbe2,,,,,,,,,,,,,,,,,,,320.5032,4,0.584,321.1051,left,1.5,"[1,3,2]",stimuli/card_100_transparent.png,400,100,4,0,4,0,1,,,,,,,,,,,,,,,,,,,,,,,,,,,,,,,,,,,,,,,,,
,,,,5fefefa4c9707d3516361c9c,C,2024-10-23_10h35.15.736,Slot Machine Game,2023.1.3,Win32,59.88023952,5fefefa4c9707d3516361c9c,67167c13dd87566d3602e731,671925949d756462813dbbe2,,,,,,,,,,,,,,,,,,,322.9018,5,0.584,323.5048,left,0.5,"[1,3,2]",stimuli/card_100_transparent.png,500,100,5,0,5,0,1,,,,,,,,,,,,,,,,,,,,,,,,,,,,,,,,,,,,,,,,,
,,,,5fefefa4c9707d3516361c9c,C,2024-10-23_10h35.15.736,Slot Machine Game,2023.1.3,Win32,59.88023952,5fefefa4c9707d3516361c9c,67167c13dd87566d3602e731,671925949d756462813dbbe2,,,,,,,,,,,,,,,,,,,324.3041,6,1.9673,326.3046,left,1,"[3,1,2]",stimuli/card_0_transparent.png,500,0,6,0,6,0,1,,,,,,,,,,,,,,,,,,,,,,,,,,,,,,,,,,,,,,,,,
,,,,5fefefa4c9707d3516361c9c,C,2024-10-23_10h35.15.736,Slot Machine Game,2023.1.3,Win32,59.88023952,5fefefa4c9707d3516361c9c,67167c13dd87566d3602e731,671925949d756462813dbbe2,,,,,,,,,,,,,,,,,,,327.6042,7,1.3343,328.9549,left,1.5,"[3,1,2]",stimuli/card_100_transparent.png,600,100,7,0,7,0,1,,,,,,,,,,,,,,,,,,,,,,,,,,,,,,,,,,,,,,,,,
,,,,5fefefa4c9707d3516361c9c,C,2024-10-23_10h35.15.736,Slot Machine Game,2023.1.3,Win32,59.88023952,5fefefa4c9707d3516361c9c,67167c13dd87566d3602e731,671925949d756462813dbbe2,,,,,,,,,,,,,,,,,,,330.7535,8,0.8506,331.6375,left,0.5,"[3,1,2]",stimuli/card_10_transparent.png,610,10,8,0,8,0,1,,,,,,,,,,,,,,,,,,,,,,,,,,,,,,,,,,,,,,,,,
,,,,5fefefa4c9707d3516361c9c,C,2024-10-23_10h35.15.736,Slot Machine Game,2023.1.3,Win32,59.88023952,5fefefa4c9707d3516361c9c,67167c13dd87566d3602e731,671925949d756462813dbbe2,,,,,,,,,,,,,,,,,,,332.4372,9,0.6007,333.0706,left,1,"[3,1,2]",stimuli/card_100_transparent.png,710,100,9,0,9,0,1,,,,,,,,,,,,,,,,,,,,,,,,,,,,,,,,,,,,,,,,,
,,,,5fefefa4c9707d3516361c9c,C,2024-10-23_10h35.15.736,Slot Machine Game,2023.1.3,Win32,59.88023952,5fefefa4c9707d3516361c9c,67167c13dd87566d3602e731,671925949d756462813dbbe2,,,,,,,,,,,,,,,,,,,334.3675,10,1.0343,335.4205,left,1.5,"[3,1,2]",stimuli/card_0_transparent.png,710,0,10,0,10,0,1,,,,,,,,,,,,,,,,,,,,,,,,,,,,,,,,,,,,,,,,,
,,,,5fefefa4c9707d3516361c9c,C,2024-10-23_10h35.15.736,Slot Machine Game,2023.1.3,Win32,59.88023952,5fefefa4c9707d3516361c9c,67167c13dd87566d3602e731,671925949d756462813dbbe2,,,,,,,,,,,,,,,,,,,337.2176,11,1.4342,338.6702,left,1,"[3,1,2]",stimuli/card_0_transparent.png,710,0,11,0,11,0,1,,,,,,,,,,,,,,,,,,,,,,,,,,,,,,,,,,,,,,,,,
,,,,5fefefa4c9707d3516361c9c,C,2024-10-23_10h35.15.736,Slot Machine Game,2023.1.3,Win32,59.88023952,5fefefa4c9707d3516361c9c,67167c13dd87566d3602e731,671925949d756462813dbbe2,,,,,,,,,,,,,,,,,,,339.9671,12,0.7507,340.7365,left,1.5,"[3,1,2]",stimuli/card_0_transparent.png,710,0,12,0,12,0,1,,,,,,,,,,,,,,,,,,,,,,,,,,,,,,,,,,,,,,,,,
,,,,5fefefa4c9707d3516361c9c,C,2024-10-23_10h35.15.736,Slot Machine Game,2023.1.3,Win32,59.88023952,5fefefa4c9707d3516361c9c,67167c13dd87566d3602e731,671925949d756462813dbbe2,,,,,,,,,,,,,,,,,,,342.5362,13,1.867,344.436,up,1,"[3,1,2]",stimuli/card_100_transparent.png,810,100,13,0,13,0,1,,,,,,,,,,,,,,,,,,,,,,,,,,,,,,,,,,,,,,,,,
,,,,5fefefa4c9707d3516361c9c,C,2024-10-23_10h35.15.736,Slot Machine Game,2023.1.3,Win32,59.88023952,5fefefa4c9707d3516361c9c,67167c13dd87566d3602e731,671925949d756462813dbbe2,,,,,,,,,,,,,,,,,,,345.7355,14,1.5174,347.2864,up,1.5,"[3,1,2]",stimuli/card_100_transparent.png,910,100,14,0,14,0,1,,,,,,,,,,,,,,,,,,,,,,,,,,,,,,,,,,,,,,,,,
,,,,5fefefa4c9707d3516361c9c,C,2024-10-23_10h35.15.736,Slot Machine Game,2023.1.3,Win32,59.88023952,5fefefa4c9707d3516361c9c,67167c13dd87566d3602e731,671925949d756462813dbbe2,,,,,,,,,,,,,,,,,,,,,,,,,,,,,,,,,,349.0861,354.0827,space,3.2965,,,,,,,,,,,,,,,,,,,,,,,,,,,,,,,,,,,,,
,,,,5fefefa4c9707d3516361c9c,C,2024-10-23_10h35.15.736,Slot Machine Game,2023.1.3,Win32,59.88023952,5fefefa4c9707d3516361c9c,67167c13dd87566d3602e731,671925949d756462813dbbe2,,,,,,,,,,,,,,,,,,,,,,,,,,,,,,,,,,,,,,,357.3995,1,"[0,1,2,3,4,5,6,7,8,9]",space,2.9376,,,,,,,,,,,,,,,,,,,,,,,,,,,,,,,
,,,,5fefefa4c9707d3516361c9c,C,2024-10-23_10h35.15.736,Slot Machine Game,2023.1.3,Win32,59.88023952,5fefefa4c9707d3516361c9c,67167c13dd87566d3602e731,671925949d756462813dbbe2,,,,,,,,,,,,,,,,,,,,,,,,,,,10,,,,,,,,,,,,,,,,,,1,1,"[12,15]","[[2,1,3],[2,3,1]]",360.3691,0,left,1.7233,362.1326,1.5,0.3,"[2,1,3]",0.91503391,stimuli/card_10_transparent.png,10,0,0,0,0,1,,,,,,,,,,
,,,,5fefefa4c9707d3516361c9c,C,2024-10-23_10h35.15.736,Slot Machine Game,2023.1.3,Win32,59.88023952,5fefefa4c9707d3516361c9c,67167c13dd87566d3602e731,671925949d756462813dbbe2,,,,,,,,,,,,,,,,,,,,,,,,,,,20,,,,,,,,,,,,,,,,,,1,1,,,363.9341,1,left,1.6991,365.6511,1.5,0.3,"[2,1,3]",0.610943413,stimuli/card_10_transparent.png,10,1,0,1,0,1,,,,,,,,,,
,,,,5fefefa4c9707d3516361c9c,C,2024-10-23_10h35.15.736,Slot Machine Game,2023.1.3,Win32,59.88023952,5fefefa4c9707d3516361c9c,67167c13dd87566d3602e731,671925949d756462813dbbe2,,,,,,,,,,,,,,,,,,,,,,,,,,,120,,,,,,,,,,,,,,,,,,1,1,,,367.4504,2,up,1.0672,368.5496,0.5,0.3,"[2,1,3]",0.78733592,stimuli/card_100_transparent.png,100,2,0,2,0,1,,,,,,,,,,
,,,,5fefefa4c9707d3516361c9c,C,2024-10-23_10h35.15.736,Slot Machine Game,2023.1.3,Win32,59.88023952,5fefefa4c9707d3516361c9c,67167c13dd87566d3602e731,671925949d756462813dbbe2,,,,,,,,,,,,,,,,,,,,,,,,,,,220,,,,,,,,,,,,,,,,,,1,1,,,369.348,3,up,0.9673,370.3339,1,0.3,"[2,1,3]",0.892897408,stimuli/card_100_transparent.png,100,3,0,3,0,1,,,,,,,,,,
,,,,5fefefa4c9707d3516361c9c,C,2024-10-23_10h35.15.736,Slot Machine Game,2023.1.3,Win32,59.88023952,5fefefa4c9707d3516361c9c,67167c13dd87566d3602e731,671925949d756462813dbbe2,,,,,,,,,,,,,,,,,,,,,,,,,,,320,,,,,,,,,,,,,,,,,,1,1,,,371.631,4,up,0.8138,372.4508,1,0.3,"[2,1,3]",0.974607172,stimuli/card_100_transparent.png,100,4,0,4,0,1,,,,,,,,,,
,,,,5fefefa4c9707d3516361c9c,C,2024-10-23_10h35.15.736,Slot Machine Game,2023.1.3,Win32,59.88023952,5fefefa4c9707d3516361c9c,67167c13dd87566d3602e731,671925949d756462813dbbe2,,,,,,,,,,,,,,,,,,,,,,,,,,,420,,,,,,,,,,,,,,,,,,1,1,,,373.7498,5,up,1.0827,374.8508,1.5,0.3,"[2,1,3]",0.21056023,stimuli/card_100_transparent.png,100,5,0,5,0,1,,,,,,,,,,
,,,,5fefefa4c9707d3516361c9c,C,2024-10-23_10h35.15.736,Slot Machine Game,2023.1.3,Win32,59.88023952,5fefefa4c9707d3516361c9c,67167c13dd87566d3602e731,671925949d756462813dbbe2,,,,,,,,,,,,,,,,,,,,,,,,,,,420,,,,,,,,,,,,,,,,,,1,1,,,376.6497,6,up,1.584,378.2667,1,0.3,"[2,1,3]",0.033857145,stimuli/card_0_transparent.png,0,6,0,6,0,1,,,,,,,,,,
,,,,5fefefa4c9707d3516361c9c,C,2024-10-23_10h35.15.736,Slot Machine Game,2023.1.3,Win32,59.88023952,5fefefa4c9707d3516361c9c,67167c13dd87566d3602e731,671925949d756462813dbbe2,,,,,,,,,,,,,,,,,,,,,,,,,,,420,,,,,,,,,,,,,,,,,,1,1,,,379.566,7,right,1.6401,381.2473,0.5,0.3,"[2,1,3]",0.905054198,stimuli/card_0_transparent.png,0,7,0,7,0,1,,,,,,,,,,
,,,,5fefefa4c9707d3516361c9c,C,2024-10-23_10h35.15.736,Slot Machine Game,2023.1.3,Win32,59.88023952,5fefefa4c9707d3516361c9c,67167c13dd87566d3602e731,671925949d756462813dbbe2,,,,,,,,,,,,,,,,,,,,,,,,,,,520,,,,,,,,,,,,,,,,,,1,1,,,382.0467,8,up,1.5837,383.6495,1,0.3,"[2,1,3]",0.522269355,stimuli/card_100_transparent.png,100,8,0,8,0,1,,,,,,,,,,
,,,,5fefefa4c9707d3516361c9c,C,2024-10-23_10h35.15.736,Slot Machine Game,2023.1.3,Win32,59.88023952,5fefefa4c9707d3516361c9c,67167c13dd87566d3602e731,671925949d756462813dbbe2,,,,,,,,,,,,,,,,,,,,,,,,,,,620,,,,,,,,,,,,,,,,,,1,1,,,384.949,9,up,0.6507,385.6328,0.5,0.3,"[2,1,3]",0.202582355,stimuli/card_100_transparent.png,100,9,0,9,0,1,,,,,,,,,,
,,,,5fefefa4c9707d3516361c9c,C,2024-10-23_10h35.15.736,Slot Machine Game,2023.1.3,Win32,59.88023952,5fefefa4c9707d3516361c9c,67167c13dd87566d3602e731,671925949d756462813dbbe2,,,,,,,,,,,,,,,,,,,,,,,,,,,720,,,,,,,,,,,,,,,,,,1,1,,,386.433,10,up,1.0352,387.4991,1,0.3,"[2,1,3]",0.217694924,stimuli/card_100_transparent.png,100,10,0,10,0,1,,,,,,,,,,
,,,,5fefefa4c9707d3516361c9c,C,2024-10-23_10h35.15.736,Slot Machine Game,2023.1.3,Win32,59.88023952,5fefefa4c9707d3516361c9c,67167c13dd87566d3602e731,671925949d756462813dbbe2,,,,,,,,,,,,,,,,,,,,,,,,,,,820,,,,,,,,,,,,,,,,,,1,1,,,388.7961,11,up,0.7162,389.5311,1,0.3,"[2,1,3]",0.7113321,stimuli/card_100_transparent.png,100,11,0,11,0,1,,,,,,,,,,
,,,,5fefefa4c9707d3516361c9c,C,2024-10-23_10h35.15.736,Slot Machine Game,2023.1.3,Win32,59.88023952,5fefefa4c9707d3516361c9c,67167c13dd87566d3602e731,671925949d756462813dbbe2,,,,,,,,,,,,,,,,,,,,,,,,,,,820,,,,,,,,,,,,,,,,,,1,1,,,390.8307,12,up,0.9839,391.8326,1,0.3,"[2,3,1]",0.692939108,stimuli/card_0_transparent.png,0,12,0,12,0,1,,,,,,,,,,
,,,,5fefefa4c9707d3516361c9c,C,2024-10-23_10h35.15.736,Slot Machine Game,2023.1.3,Win32,59.88023952,5fefefa4c9707d3516361c9c,67167c13dd87566d3602e731,671925949d756462813dbbe2,,,,,,,,,,,,,,,,,,,,,,,,,,,830,,,,,,,,,,,,,,,,,,1,1,,,393.1288,13,up,1.4522,394.5992,0.5,0.3,"[2,3,1]",0.113809314,stimuli/card_10_transparent.png,10,13,0,13,0,1,,,,,,,,,,
,,,,5fefefa4c9707d3516361c9c,C,2024-10-23_10h35.15.736,Slot Machine Game,2023.1.3,Win32,59.88023952,5fefefa4c9707d3516361c9c,67167c13dd87566d3602e731,671925949d756462813dbbe2,,,,,,,,,,,,,,,,,,,,,,,,,,,930,,,,,,,,,,,,,,,,,,1,1,,,395.3956,14,right,1.1474,396.5483,1.5,0.3,"[2,3,1]",0.392727106,stimuli/card_100_transparent.png,100,14,0,14,0,1,,,,,,,,,,
,,,,5fefefa4c9707d3516361c9c,C,2024-10-23_10h35.15.736,Slot Machine Game,2023.1.3,Win32,59.88023952,5fefefa4c9707d3516361c9c,67167c13dd87566d3602e731,671925949d756462813dbbe2,,,,,,,,,,,,,,,,,,,,,,,,,,,,,,,,,,398.3458,,,,,,,,,,,,,,,,,,,,,,,,,,,,,,,[930],0,0,0,0,1,,,,
,,,,5fefefa4c9707d3516361c9c,C,2024-10-23_10h35.15.736,Slot Machine Game,2023.1.3,Win32,59.88023952,5fefefa4c9707d3516361c9c,67167c13dd87566d3602e731,671925949d756462813dbbe2,,,,,,,,,,,,,,,,,,,,,,,,,,,10,,,,,,,,,,,,,,,,,,2,2,"[6,15]","[[1,3,2],[3,2,1]]",403.3463,0,left,2.2207,405.5953,1.5,0.3,"[1,3,2]",0.109944776,stimuli/card_10_transparent.png,10,0,0,0,0,1,,,,,,,,,,
,,,,5fefefa4c9707d3516361c9c,C,2024-10-23_10h35.15.736,Slot Machine Game,2023.1.3,Win32,59.88023952,5fefefa4c9707d3516361c9c,67167c13dd87566d3602e731,671925949d756462813dbbe2,,,,,,,,,,,,,,,,,,,,,,,,,,,10,,,,,,,,,,,,,,,,,,2,2,,,407.397,1,up,1.284,408.7141,1,0.3,"[1,3,2]",0.928289612,stimuli/card_0_transparent.png,0,1,0,1,0,1,,,,,,,,,,
,,,,5fefefa4c9707d3516361c9c,C,2024-10-23_10h35.15.736,Slot Machine Game,2023.1.3,Win32,59.88023952,5fefefa4c9707d3516361c9c,67167c13dd87566d3602e731,671925949d756462813dbbe2,,,,,,,,,,,,,,,,,,,,,,,,,,,10,,,,,,,,,,,,,,,,,,2,2,,,410.0142,2,right,0.8176,410.8481,1.5,0.3,"[1,3,2]",0.045111922,stimuli/card_0_transparent.png,0,2,0,2,0,1,,,,,,,,,,
,,,,5fefefa4c9707d3516361c9c,C,2024-10-23_10h35.15.736,Slot Machine Game,2023.1.3,Win32,59.88023952,5fefefa4c9707d3516361c9c,67167c13dd87566d3602e731,671925949d756462813dbbe2,,,,,,,,,,,,,,,,,,,,,,,,,,,10,,,,,,,,,,,,,,,,,,2,2,,,412.6475,3,up,0.6841,413.3644,0.5,0.3,"[1,3,2]",0.265471614,stimuli/card_0_transparent.png,0,3,0,3,0,1,,,,,,,,,,
,,,,5fefefa4c9707d3516361c9c,C,2024-10-23_10h35.15.736,Slot Machine Game,2023.1.3,Win32,59.88023952,5fefefa4c9707d3516361c9c,67167c13dd87566d3602e731,671925949d756462813dbbe2,,,,,,,,,,,,,,,,,,,,,,,,,,,110,,,,,,,,,,,,,,,,,,2,2,,,414.1629,4,left,0.8639,415.0467,1,0.3,"[1,3,2]",0.426234442,stimuli/card_100_transparent.png,100,4,0,4,0,1,,,,,,,,,,
,,,,5fefefa4c9707d3516361c9c,C,2024-10-23_10h35.15.736,Slot Machine Game,2023.1.3,Win32,59.88023952,5fefefa4c9707d3516361c9c,67167c13dd87566d3602e731,671925949d756462813dbbe2,,,,,,,,,,,,,,,,,,,,,,,,,,,210,,,,,,,,,,,,,,,,,,2,2,,,416.3439,5,left,1.0184,417.3798,1,0.3,"[1,3,2]",0.638563713,stimuli/card_100_transparent.png,100,5,0,5,0,1,,,,,,,,,,
,,,,5fefefa4c9707d3516361c9c,C,2024-10-23_10h35.15.736,Slot Machine Game,2023.1.3,Win32,59.88023952,5fefefa4c9707d3516361c9c,67167c13dd87566d3602e731,671925949d756462813dbbe2,,,,,,,,,,,,,,,,,,,,,,,,,,,210,,,,,,,,,,,,,,,,,,2,2,,,418.6768,6,left,0.5672,419.263,0.5,0.3,"[3,2,1]",0.20322867,stimuli/card_0_transparent.png,0,6,0,6,0,1,,,,,,,,,,
,,,,5fefefa4c9707d3516361c9c,C,2024-10-23_10h35.15.736,Slot Machine Game,2023.1.3,Win32,59.88023952,5fefefa4c9707d3516361c9c,67167c13dd87566d3602e731,671925949d756462813dbbe2,,,,,,,,,,,,,,,,,,,,,,,,,,,220,,,,,,,,,,,,,,,,,,2,2,,,420.0602,7,up,0.6477,420.7297,0.5,0.3,"[3,2,1]",0.612732526,stimuli/card_10_transparent.png,10,7,0,7,0,1,,,,,,,,,,
,,,,5fefefa4c9707d3516361c9c,C,2024-10-23_10h35.15.736,Slot Machine Game,2023.1.3,Win32,59.88023952,5fefefa4c9707d3516361c9c,67167c13dd87566d3602e731,671925949d756462813dbbe2,,,,,,,,,,,,,,,,,,,,,,,,,,,320,,,,,,,,,,,,,,,,,,2,2,,,421.5289,8,right,1.8341,423.3962,1.5,0.3,"[3,2,1]",0.391816651,stimuli/card_100_transparent.png,100,8,0,8,0,1,,,,,,,,,,
,,,,5fefefa4c9707d3516361c9c,C,2024-10-23_10h35.15.736,Slot Machine Game,2023.1.3,Win32,59.88023952,5fefefa4c9707d3516361c9c,67167c13dd87566d3602e731,671925949d756462813dbbe2,,,,,,,,,,,,,,,,,,,,,,,,,,,420,,,,,,,,,,,,,,,,,,2,2,,,425.1953,9,right,1.0684,426.2959,1.5,0.3,"[3,2,1]",0.462921477,stimuli/card_100_transparent.png,100,9,0,9,0,1,,,,,,,,,,
,,,,5fefefa4c9707d3516361c9c,C,2024-10-23_10h35.15.736,Slot Machine Game,2023.1.3,Win32,59.88023952,5fefefa4c9707d3516361c9c,67167c13dd87566d3602e731,671925949d756462813dbbe2,,,,,,,,,,,,,,,,,,,,,,,,,,,520,,,,,,,,,,,,,,,,,,2,2,,,428.0935,10,right,1.3594,429.4763,1.5,0.3,"[3,2,1]",0.929172204,stimuli/card_100_transparent.png,100,10,0,10,0,1,,,,,,,,,,
,,,,5fefefa4c9707d3516361c9c,C,2024-10-23_10h35.15.736,Slot Machine Game,2023.1.3,Win32,59.88023952,5fefefa4c9707d3516361c9c,67167c13dd87566d3602e731,671925949d756462813dbbe2,,,,,,,,,,,,,,,,,,,,,,,,,,,620,,,,,,,,,,,,,,,,,,2,2,,,431.278,11,right,1.3172,432.6117,1,0.3,"[3,2,1]",0.936330965,stimuli/card_100_transparent.png,100,11,0,11,0,1,,,,,,,,,,
,,,,5fefefa4c9707d3516361c9c,C,2024-10-23_10h35.15.736,Slot Machine Game,2023.1.3,Win32,59.88023952,5fefefa4c9707d3516361c9c,67167c13dd87566d3602e731,671925949d756462813dbbe2,,,,,,,,,,,,,,,,,,,,,,,,,,,720,,,,,,,,,,,,,,,,,,2,2,,,433.9114,12,right,0.8924,434.8435,1,0.3,"[3,2,1]",0.249865827,stimuli/card_100_transparent.png,100,12,0,12,0,1,,,,,,,,,,
,,,,5fefefa4c9707d3516361c9c,C,2024-10-23_10h35.15.736,Slot Machine Game,2023.1.3,Win32,59.88023952,5fefefa4c9707d3516361c9c,67167c13dd87566d3602e731,671925949d756462813dbbe2,,,,,,,,,,,,,,,,,,,,,,,,,,,820,,,,,,,,,,,,,,,,,,2,2,,,436.1418,13,right,0.8505,437.0114,1,0.3,"[3,2,1]",0.691293479,stimuli/card_100_transparent.png,100,13,0,13,0,1,,,,,,,,,,
,,,,5fefefa4c9707d3516361c9c,C,2024-10-23_10h35.15.736,Slot Machine Game,2023.1.3,Win32,59.88023952,5fefefa4c9707d3516361c9c,67167c13dd87566d3602e731,671925949d756462813dbbe2,,,,,,,,,,,,,,,,,,,,,,,,,,,920,,,,,,,,,,,,,,,,,,2,2,,,438.3109,14,right,0.6008,438.9451,1.5,0.3,"[3,2,1]",0.472335101,stimuli/card_100_transparent.png,100,14,0,14,0,1,,,,,,,,,,
,,,,5fefefa4c9707d3516361c9c,C,2024-10-23_10h35.15.736,Slot Machine Game,2023.1.3,Win32,59.88023952,5fefefa4c9707d3516361c9c,67167c13dd87566d3602e731,671925949d756462813dbbe2,,,,,,,,,,,,,,,,,,,,,,,,,,,,,,,,,,440.7419,,,,,,,,,,,,,,,,,,,,,,,,,,,,,,,"[930,920]",1,0,1,0,1,,,,
,,,,5fefefa4c9707d3516361c9c,C,2024-10-23_10h35.15.736,Slot Machine Game,2023.1.3,Win32,59.88023952,5fefefa4c9707d3516361c9c,67167c13dd87566d3602e731,671925949d756462813dbbe2,,,,,,,,,,,,,,,,,,,,,,,,,,,100,,,,,,,,,,,,,,,,,,3,3,"[15,15]","[[3,1,2],[3,1,2]]",445.7426,0,up,1.3094,447.0748,0.5,0.3,"[3,1,2]",0.860295852,stimuli/card_100_transparent.png,100,0,0,0,0,1,,,,,,,,,,
,,,,5fefefa4c9707d3516361c9c,C,2024-10-23_10h35.15.736,Slot Machine Game,2023.1.3,Win32,59.88023952,5fefefa4c9707d3516361c9c,67167c13dd87566d3602e731,671925949d756462813dbbe2,,,,,,,,,,,,,,,,,,,,,,,,,,,200,,,,,,,,,,,,,,,,,,3,3,,,447.8741,1,up,1.4341,449.3274,1.5,0.3,"[3,1,2]",0.466909768,stimuli/card_100_transparent.png,100,1,0,1,0,1,,,,,,,,,,
,,,,5fefefa4c9707d3516361c9c,C,2024-10-23_10h35.15.736,Slot Machine Game,2023.1.3,Win32,59.88023952,5fefefa4c9707d3516361c9c,67167c13dd87566d3602e731,671925949d756462813dbbe2,,,,,,,,,,,,,,,,,,,,,,,,,,,300,,,,,,,,,,,,,,,,,,3,3,,,451.1277,2,up,1.5795,452.7277,1.5,0.3,"[3,1,2]",0.809240639,stimuli/card_100_transparent.png,100,2,0,2,0,1,,,,,,,,,,
,,,,5fefefa4c9707d3516361c9c,C,2024-10-23_10h35.15.736,Slot Machine Game,2023.1.3,Win32,59.88023952,5fefefa4c9707d3516361c9c,67167c13dd87566d3602e731,671925949d756462813dbbe2,,,,,,,,,,,,,,,,,,,,,,,,,,,310,,,,,,,,,,,,,,,,,,3,3,,,454.527,3,up,1.3506,455.9098,0.5,0.3,"[3,1,2]",0.113059381,stimuli/card_10_transparent.png,10,3,0,3,0,1,,,,,,,,,,
,,,,5fefefa4c9707d3516361c9c,C,2024-10-23_10h35.15.736,Slot Machine Game,2023.1.3,Win32,59.88023952,5fefefa4c9707d3516361c9c,67167c13dd87566d3602e731,671925949d756462813dbbe2,,,,,,,,,,,,,,,,,,,,,,,,,,,310,,,,,,,,,,,,,,,,,,3,3,,,456.7081,4,up,1.9144,458.6264,1.5,0.3,"[3,1,2]",0.014497383,stimuli/card_0_transparent.png,0,4,0,4,0,1,,,,,,,,,,
,,,,5fefefa4c9707d3516361c9c,C,2024-10-23_10h35.15.736,Slot Machine Game,2023.1.3,Win32,59.88023952,5fefefa4c9707d3516361c9c,67167c13dd87566d3602e731,671925949d756462813dbbe2,,,,,,,,,,,,,,,,,,,,,,,,,,,310,,,,,,,,,,,,,,,,,,3,3,,,460.4255,5,up,1.2673,461.7261,0.5,0.3,"[3,1,2]",0.096193224,stimuli/card_0_transparent.png,0,5,0,5,0,1,,,,,,,,,,
,,,,5fefefa4c9707d3516361c9c,C,2024-10-23_10h35.15.736,Slot Machine Game,2023.1.3,Win32,59.88023952,5fefefa4c9707d3516361c9c,67167c13dd87566d3602e731,671925949d756462813dbbe2,,,,,,,,,,,,,,,,,,,,,,,,,,,410,,,,,,,,,,,,,,,,,,3,3,,,462.5231,6,up,0.618,463.1568,1.5,0.3,"[3,1,2]",0.736269126,stimuli/card_100_transparent.png,100,6,0,6,0,1,,,,,,,,,,
,,,,5fefefa4c9707d3516361c9c,C,2024-10-23_10h35.15.736,Slot Machine Game,2023.1.3,Win32,59.88023952,5fefefa4c9707d3516361c9c,67167c13dd87566d3602e731,671925949d756462813dbbe2,,,,,,,,,,,,,,,,,,,,,,,,,,,510,,,,,,,,,,,,,,,,,,3,3,,,464.9587,7,up,1.0503,466.0421,1.5,0.3,"[3,1,2]",0.988234365,stimuli/card_100_transparent.png,100,7,0,7,0,1,,,,,,,,,,
,,,,5fefefa4c9707d3516361c9c,C,2024-10-23_10h35.15.736,Slot Machine Game,2023.1.3,Win32,59.88023952,5fefefa4c9707d3516361c9c,67167c13dd87566d3602e731,671925949d756462813dbbe2,,,,,,,,,,,,,,,,,,,,,,,,,,,520,,,,,,,,,,,,,,,,,,3,3,,,467.8392,8,up,1.6342,469.5089,0.5,0.3,"[3,1,2]",0.158619274,stimuli/card_10_transparent.png,10,8,0,8,0,1,,,,,,,,,,
,,,,5fefefa4c9707d3516361c9c,C,2024-10-23_10h35.15.736,Slot Machine Game,2023.1.3,Win32,59.88023952,5fefefa4c9707d3516361c9c,67167c13dd87566d3602e731,671925949d756462813dbbe2,,,,,,,,,,,,,,,,,,,,,,,,,,,620,,,,,,,,,,,,,,,,,,3,3,,,470.3057,9,up,0.5006,470.8406,0.5,0.3,"[3,1,2]",0.272981543,stimuli/card_100_transparent.png,100,9,0,9,0,1,,,,,,,,,,
,,,,5fefefa4c9707d3516361c9c,C,2024-10-23_10h35.15.736,Slot Machine Game,2023.1.3,Win32,59.88023952,5fefefa4c9707d3516361c9c,67167c13dd87566d3602e731,671925949d756462813dbbe2,,,,,,,,,,,,,,,,,,,,,,,,,,,720,,,,,,,,,,,,,,,,,,3,3,,,471.6412,10,up,1.0016,472.675,1,0.3,"[3,1,2]",0.752975354,stimuli/card_100_transparent.png,100,10,0,10,0,1,,,,,,,,,,
,,,,5fefefa4c9707d3516361c9c,C,2024-10-23_10h35.15.736,Slot Machine Game,2023.1.3,Win32,59.88023952,5fefefa4c9707d3516361c9c,67167c13dd87566d3602e731,671925949d756462813dbbe2,,,,,,,,,,,,,,,,,,,,,,,,,,,820,,,,,,,,,,,,,,,,,,3,3,,,473.9724,11,up,1.0671,475.0581,1.5,0.3,"[3,1,2]",0.267527497,stimuli/card_100_transparent.png,100,11,0,11,0,1,,,,,,,,,,
,,,,5fefefa4c9707d3516361c9c,C,2024-10-23_10h35.15.736,Slot Machine Game,2023.1.3,Win32,59.88023952,5fefefa4c9707d3516361c9c,67167c13dd87566d3602e731,671925949d756462813dbbe2,,,,,,,,,,,,,,,,,,,,,,,,,,,920,,,,,,,,,,,,,,,,,,3,3,,,476.8575,12,up,1.9008,478.7919,0.5,0.3,"[3,1,2]",0.357848212,stimuli/card_100_transparent.png,100,12,0,12,0,1,,,,,,,,,,
,,,,5fefefa4c9707d3516361c9c,C,2024-10-23_10h35.15.736,Slot Machine Game,2023.1.3,Win32,59.88023952,5fefefa4c9707d3516361c9c,67167c13dd87566d3602e731,671925949d756462813dbbe2,,,,,,,,,,,,,,,,,,,,,,,,,,,930,,,,,,,,,,,,,,,,,,3,3,,,479.5911,13,up,1.7992,481.4231,1,0.3,"[3,1,2]",0.143649588,stimuli/card_10_transparent.png,10,13,0,13,0,1,,,,,,,,,,
,,,,5fefefa4c9707d3516361c9c,C,2024-10-23_10h35.15.736,Slot Machine Game,2023.1.3,Win32,59.88023952,5fefefa4c9707d3516361c9c,67167c13dd87566d3602e731,671925949d756462813dbbe2,,,,,,,,,,,,,,,,,,,,,,,,,,,1030,,,,,,,,,,,,,,,,,,3,3,,,482.7214,14,up,1.3808,484.1239,1,0.3,"[3,1,2]",0.973511994,stimuli/card_100_transparent.png,100,14,0,14,0,1,,,,,,,,,,
,,,,5fefefa4c9707d3516361c9c,C,2024-10-23_10h35.15.736,Slot Machine Game,2023.1.3,Win32,59.88023952,5fefefa4c9707d3516361c9c,67167c13dd87566d3602e731,671925949d756462813dbbe2,,,,,,,,,,,,,,,,,,,,,,,,,,,,,,,,,,485.4234,,,,,,,,,,,,,,,,,,,,,,,,,,,,,,,"[930,920,1030]",2,0,2,0,1,,,,
,,,,5fefefa4c9707d3516361c9c,C,2024-10-23_10h35.15.736,Slot Machine Game,2023.1.3,Win32,59.88023952,5fefefa4c9707d3516361c9c,67167c13dd87566d3602e731,671925949d756462813dbbe2,,,,,,,,,,,,,,,,,,,,,,,,,,,0,,,,,,,,,,,,,,,,,,4,4,"[7,15]","[[2,3,1],[1,2,3]]",490.423,0,up,2.3308,492.7733,0.5,0.3,"[2,3,1]",0.264987661,stimuli/card_0_transparent.png,0,0,0,0,0,1,,,,,,,,,,
,,,,5fefefa4c9707d3516361c9c,C,2024-10-23_10h35.15.736,Slot Machine Game,2023.1.3,Win32,59.88023952,5fefefa4c9707d3516361c9c,67167c13dd87566d3602e731,671925949d756462813dbbe2,,,,,,,,,,,,,,,,,,,,,,,,,,,0,,,,,,,,,,,,,,,,,,4,4,,,493.573,1,up,0.8328,494.4387,1,0.3,"[2,3,1]",0.436295358,stimuli/card_0_transparent.png,0,1,0,1,0,1,,,,,,,,,,
,,,,5fefefa4c9707d3516361c9c,C,2024-10-23_10h35.15.736,Slot Machine Game,2023.1.3,Win32,59.88023952,5fefefa4c9707d3516361c9c,67167c13dd87566d3602e731,671925949d756462813dbbe2,,,,,,,,,,,,,,,,,,,,,,,,,,,100,,,,,,,,,,,,,,,,,,4,4,,,495.7371,2,left,2.1808,497.9398,1.5,0.3,"[2,3,1]",0.141420567,stimuli/card_100_transparent.png,100,2,0,2,0,1,,,,,,,,,,
,,,,5fefefa4c9707d3516361c9c,C,2024-10-23_10h35.15.736,Slot Machine Game,2023.1.3,Win32,59.88023952,5fefefa4c9707d3516361c9c,67167c13dd87566d3602e731,671925949d756462813dbbe2,,,,,,,,,,,,,,,,,,,,,,,,,,,100,,,,,,,,,,,,,,,,,,4,4,,,499.7368,3,left,0.5309,500.2892,1.5,0.3,"[2,3,1]",0.086866255,stimuli/card_0_transparent.png,0,3,0,3,0,1,,,,,,,,,,
,,,,5fefefa4c9707d3516361c9c,C,2024-10-23_10h35.15.736,Slot Machine Game,2023.1.3,Win32,59.88023952,5fefefa4c9707d3516361c9c,67167c13dd87566d3602e731,671925949d756462813dbbe2,,,,,,,,,,,,,,,,,,,,,,,,,,,110,,,,,,,,,,,,,,,,,,4,4,,,502.088,4,left,0.5627,502.67,1.5,0.3,"[2,3,1]",0.252527194,stimuli/card_10_transparent.png,10,4,0,4,0,1,,,,,,,,,,
,,,,5fefefa4c9707d3516361c9c,C,2024-10-23_10h35.15.736,Slot Machine Game,2023.1.3,Win32,59.88023952,5fefefa4c9707d3516361c9c,67167c13dd87566d3602e731,671925949d756462813dbbe2,,,,,,,,,,,,,,,,,,,,,,,,,,,120,,,,,,,,,,,,,,,,,,4,4,,,504.472,5,right,0.8471,505.3388,1.5,0.3,"[2,3,1]",0.113157619,stimuli/card_10_transparent.png,10,5,0,5,0,1,,,,,,,,,,
,,,,5fefefa4c9707d3516361c9c,C,2024-10-23_10h35.15.736,Slot Machine Game,2023.1.3,Win32,59.88023952,5fefefa4c9707d3516361c9c,67167c13dd87566d3602e731,671925949d756462813dbbe2,,,,,,,,,,,,,,,,,,,,,,,,,,,120,,,,,,,,,,,,,,,,,,4,4,,,507.1381,6,up,0.5505,507.722,1,0.3,"[2,3,1]",0.862650586,stimuli/card_0_transparent.png,0,6,0,6,0,1,,,,,,,,,,
,,,,5fefefa4c9707d3516361c9c,C,2024-10-23_10h35.15.736,Slot Machine Game,2023.1.3,Win32,59.88023952,5fefefa4c9707d3516361c9c,67167c13dd87566d3602e731,671925949d756462813dbbe2,,,,,,,,,,,,,,,,,,,,,,,,,,,120,,,,,,,,,,,,,,,,,,4,4,,,509.0217,7,right,0.9671,510.022,1,0.3,"[1,2,3]",0.322065476,stimuli/card_0_transparent.png,0,7,0,7,0,1,,,,,,,,,,
,,,,5fefefa4c9707d3516361c9c,C,2024-10-23_10h35.15.736,Slot Machine Game,2023.1.3,Win32,59.88023952,5fefefa4c9707d3516361c9c,67167c13dd87566d3602e731,671925949d756462813dbbe2,,,,,,,,,,,,,,,,,,,,,,,,,,,220,,,,,,,,,,,,,,,,,,4,4,,,511.321,8,left,1.6344,512.9858,0.5,0.3,"[1,2,3]",0.339306253,stimuli/card_100_transparent.png,100,8,0,8,0,1,,,,,,,,,,
,,,,5fefefa4c9707d3516361c9c,C,2024-10-23_10h35.15.736,Slot Machine Game,2023.1.3,Win32,59.88023952,5fefefa4c9707d3516361c9c,67167c13dd87566d3602e731,671925949d756462813dbbe2,,,,,,,,,,,,,,,,,,,,,,,,,,,320,,,,,,,,,,,,,,,,,,4,4,,,513.7884,9,left,0.8339,514.6547,0.5,0.3,"[1,2,3]",0.818996402,stimuli/card_100_transparent.png,100,9,0,9,0,1,,,,,,,,,,
,,,,5fefefa4c9707d3516361c9c,C,2024-10-23_10h35.15.736,Slot Machine Game,2023.1.3,Win32,59.88023952,5fefefa4c9707d3516361c9c,67167c13dd87566d3602e731,671925949d756462813dbbe2,,,,,,,,,,,,,,,,,,,,,,,,,,,420,,,,,,,,,,,,,,,,,,4,4,,,515.4542,10,left,0.5006,515.9879,1,0.3,"[1,2,3]",0.770152379,stimuli/card_100_transparent.png,100,10,0,10,0,1,,,,,,,,,,
,,,,5fefefa4c9707d3516361c9c,C,2024-10-23_10h35.15.736,Slot Machine Game,2023.1.3,Win32,59.88023952,5fefefa4c9707d3516361c9c,67167c13dd87566d3602e731,671925949d756462813dbbe2,,,,,,,,,,,,,,,,,,,,,,,,,,,430,,,,,,,,,,,,,,,,,,4,4,,,517.2872,11,left,2.0173,519.3377,0.5,0.3,"[1,2,3]",0.16778302,stimuli/card_10_transparent.png,10,11,0,11,0,1,,,,,,,,,,
,,,,5fefefa4c9707d3516361c9c,C,2024-10-23_10h35.15.736,Slot Machine Game,2023.1.3,Win32,59.88023952,5fefefa4c9707d3516361c9c,67167c13dd87566d3602e731,671925949d756462813dbbe2,,,,,,,,,,,,,,,,,,,,,,,,,,,530,,,,,,,,,,,,,,,,,,4,4,,,520.1347,12,left,1.0339,521.1874,1.5,0.3,"[1,2,3]",0.854344755,stimuli/card_100_transparent.png,100,12,0,12,0,1,,,,,,,,,,
,,,,5fefefa4c9707d3516361c9c,C,2024-10-23_10h35.15.736,Slot Machine Game,2023.1.3,Win32,59.88023952,5fefefa4c9707d3516361c9c,67167c13dd87566d3602e731,671925949d756462813dbbe2,,,,,,,,,,,,,,,,,,,,,,,,,,,630,,,,,,,,,,,,,,,,,,4,4,,,522.9846,13,left,1.2004,524.2039,0.5,0.3,"[1,2,3]",0.231548423,stimuli/card_100_transparent.png,100,13,0,13,0,1,,,,,,,,,,
,,,,5fefefa4c9707d3516361c9c,C,2024-10-23_10h35.15.736,Slot Machine Game,2023.1.3,Win32,59.88023952,5fefefa4c9707d3516361c9c,67167c13dd87566d3602e731,671925949d756462813dbbe2,,,,,,,,,,,,,,,,,,,,,,,,,,,730,,,,,,,,,,,,,,,,,,4,4,,,525.0012,14,left,0.6829,525.7026,0.5,0.3,"[1,2,3]",0.901509027,stimuli/card_100_transparent.png,100,14,0,14,0,1,,,,,,,,,,
,,,,5fefefa4c9707d3516361c9c,C,2024-10-23_10h35.15.736,Slot Machine Game,2023.1.3,Win32,59.88023952,5fefefa4c9707d3516361c9c,67167c13dd87566d3602e731,671925949d756462813dbbe2,,,,,,,,,,,,,,,,,,,,,,,,,,,,,,,,,,526.5033,,,,,,,,,,,,,,,,,,,,,,,,,,,,,,,"[930,920,1030,730]",3,0,3,0,1,,,,
,,,,5fefefa4c9707d3516361c9c,C,2024-10-23_10h35.15.736,Slot Machine Game,2023.1.3,Win32,59.88023952,5fefefa4c9707d3516361c9c,67167c13dd87566d3602e731,671925949d756462813dbbe2,,,,,,,,,,,,,,,,,,,,,,,,,,,10,,,,,,,,,,,,,,,,,,5,5,"[5,15]","[[1,2,3],[3,1,2]]",531.5037,0,up,1.1835,532.7196,0.5,0.3,"[1,2,3]",0.920376682,stimuli/card_10_transparent.png,10,0,0,0,0,1,,,,,,,,,,
,,,,5fefefa4c9707d3516361c9c,C,2024-10-23_10h35.15.736,Slot Machine Game,2023.1.3,Win32,59.88023952,5fefefa4c9707d3516361c9c,67167c13dd87566d3602e731,671925949d756462813dbbe2,,,,,,,,,,,,,,,,,,,,,,,,,,,20,,,,,,,,,,,,,,,,,,5,5,,,533.5193,1,up,1.0669,534.6197,1.5,0.3,"[1,2,3]",0.648822254,stimuli/card_10_transparent.png,10,1,0,1,0,1,,,,,,,,,,
,,,,5fefefa4c9707d3516361c9c,C,2024-10-23_10h35.15.736,Slot Machine Game,2023.1.3,Win32,59.88023952,5fefefa4c9707d3516361c9c,67167c13dd87566d3602e731,671925949d756462813dbbe2,,,,,,,,,,,,,,,,,,,,,,,,,,,120,,,,,,,,,,,,,,,,,,5,5,,,536.4166,2,left,1.4978,537.9194,0.5,0.3,"[1,2,3]",0.708303472,stimuli/card_100_transparent.png,100,2,0,2,0,1,,,,,,,,,,
,,,,5fefefa4c9707d3516361c9c,C,2024-10-23_10h35.15.736,Slot Machine Game,2023.1.3,Win32,59.88023952,5fefefa4c9707d3516361c9c,67167c13dd87566d3602e731,671925949d756462813dbbe2,,,,,,,,,,,,,,,,,,,,,,,,,,,120,,,,,,,,,,,,,,,,,,5,5,,,538.7191,3,left,0.8473,539.586,1.5,0.3,"[1,2,3]",0.003797581,stimuli/card_0_transparent.png,0,3,0,3,0,1,,,,,,,,,,
,,,,5fefefa4c9707d3516361c9c,C,2024-10-23_10h35.15.736,Slot Machine Game,2023.1.3,Win32,59.88023952,5fefefa4c9707d3516361c9c,67167c13dd87566d3602e731,671925949d756462813dbbe2,,,,,,,,,,,,,,,,,,,,,,,,,,,120,,,,,,,,,,,,,,,,,,5,5,,,541.3852,4,right,1.1172,542.5357,0.5,0.3,"[1,2,3]",0.697548939,stimuli/card_0_transparent.png,0,4,0,4,0,1,,,,,,,,,,
,,,,5fefefa4c9707d3516361c9c,C,2024-10-23_10h35.15.736,Slot Machine Game,2023.1.3,Win32,59.88023952,5fefefa4c9707d3516361c9c,67167c13dd87566d3602e731,671925949d756462813dbbe2,,,,,,,,,,,,,,,,,,,,,,,,,,,120,,,,,,,,,,,,,,,,,,5,5,,,543.3351,5,left,0.6666,544.019,1,0.3,"[3,1,2]",0.410155539,stimuli/card_0_transparent.png,0,5,0,5,0,1,,,,,,,,,,
,,,,5fefefa4c9707d3516361c9c,C,2024-10-23_10h35.15.736,Slot Machine Game,2023.1.3,Win32,59.88023952,5fefefa4c9707d3516361c9c,67167c13dd87566d3602e731,671925949d756462813dbbe2,,,,,,,,,,,,,,,,,,,,,,,,,,,220,,,,,,,,,,,,,,,,,,5,5,,,545.3186,6,up,1.0429,546.3995,1,0.3,"[3,1,2]",0.569716407,stimuli/card_100_transparent.png,100,6,0,6,0,1,,,,,,,,,,
,,,,5fefefa4c9707d3516361c9c,C,2024-10-23_10h35.15.736,Slot Machine Game,2023.1.3,Win32,59.88023952,5fefefa4c9707d3516361c9c,67167c13dd87566d3602e731,671925949d756462813dbbe2,,,,,,,,,,,,,,,,,,,,,,,,,,,320,,,,,,,,,,,,,,,,,,5,5,,,547.7007,7,up,1.2142,548.9185,1.5,0.3,"[3,1,2]",0.535684682,stimuli/card_100_transparent.png,100,7,0,7,0,1,,,,,,,,,,
,,,,5fefefa4c9707d3516361c9c,C,2024-10-23_10h35.15.736,Slot Machine Game,2023.1.3,Win32,59.88023952,5fefefa4c9707d3516361c9c,67167c13dd87566d3602e731,671925949d756462813dbbe2,,,,,,,,,,,,,,,,,,,,,,,,,,,420,,,,,,,,,,,,,,,,,,5,5,,,550.7153,8,up,1.1171,551.8514,1.5,0.3,"[3,1,2]",0.462504162,stimuli/card_100_transparent.png,100,8,0,8,0,1,,,,,,,,,,
,,,,5fefefa4c9707d3516361c9c,C,2024-10-23_10h35.15.736,Slot Machine Game,2023.1.3,Win32,59.88023952,5fefefa4c9707d3516361c9c,67167c13dd87566d3602e731,671925949d756462813dbbe2,,,,,,,,,,,,,,,,,,,,,,,,,,,520,,,,,,,,,,,,,,,,,,5,5,,,553.6511,9,up,0.9191,554.6021,0.5,0.3,"[3,1,2]",0.3847561,stimuli/card_100_transparent.png,100,9,0,9,0,1,,,,,,,,,,
,,,,5fefefa4c9707d3516361c9c,C,2024-10-23_10h35.15.736,Slot Machine Game,2023.1.3,Win32,59.88023952,5fefefa4c9707d3516361c9c,67167c13dd87566d3602e731,671925949d756462813dbbe2,,,,,,,,,,,,,,,,,,,,,,,,,,,530,,,,,,,,,,,,,,,,,,5,5,,,555.4004,10,up,0.9811,556.3844,1.5,0.3,"[3,1,2]",0.148514944,stimuli/card_10_transparent.png,10,10,0,10,0,1,,,,,,,,,,
,,,,5fefefa4c9707d3516361c9c,C,2024-10-23_10h35.15.736,Slot Machine Game,2023.1.3,Win32,59.88023952,5fefefa4c9707d3516361c9c,67167c13dd87566d3602e731,671925949d756462813dbbe2,,,,,,,,,,,,,,,,,,,,,,,,,,,530,,,,,,,,,,,,,,,,,,5,5,,,558.1841,11,up,1.0019,559.2178,1.5,0.3,"[3,1,2]",0.030479289,stimuli/card_0_transparent.png,0,11,0,11,0,1,,,,,,,,,,
,,,,5fefefa4c9707d3516361c9c,C,2024-10-23_10h35.15.736,Slot Machine Game,2023.1.3,Win32,59.88023952,5fefefa4c9707d3516361c9c,67167c13dd87566d3602e731,671925949d756462813dbbe2,,,,,,,,,,,,,,,,,,,,,,,,,,,530,,,,,,,,,,,,,,,,,,5,5,,,561.0168,12,left,1.0009,562.0511,1,0.3,"[3,1,2]",0.615685077,stimuli/card_0_transparent.png,0,12,0,12,0,1,,,,,,,,,,
,,,,5fefefa4c9707d3516361c9c,C,2024-10-23_10h35.15.736,Slot Machine Game,2023.1.3,Win32,59.88023952,5fefefa4c9707d3516361c9c,67167c13dd87566d3602e731,671925949d756462813dbbe2,,,,,,,,,,,,,,,,,,,,,,,,,,,630,,,,,,,,,,,,,,,,,,5,5,,,563.3503,13,up,0.9516,564.3336,1,0.3,"[3,1,2]",0.269528808,stimuli/card_100_transparent.png,100,13,0,13,0,1,,,,,,,,,,
,,,,5fefefa4c9707d3516361c9c,C,2024-10-23_10h35.15.736,Slot Machine Game,2023.1.3,Win32,59.88023952,5fefefa4c9707d3516361c9c,67167c13dd87566d3602e731,671925949d756462813dbbe2,,,,,,,,,,,,,,,,,,,,,,,,,,,730,,,,,,,,,,,,,,,,,,5,5,,,565.6336,14,up,1.2505,566.9169,0.5,0.3,"[3,1,2]",0.263417013,stimuli/card_100_transparent.png,100,14,0,14,0,1,,,,,,,,,,
,,,,5fefefa4c9707d3516361c9c,C,2024-10-23_10h35.15.736,Slot Machine Game,2023.1.3,Win32,59.88023952,5fefefa4c9707d3516361c9c,67167c13dd87566d3602e731,671925949d756462813dbbe2,,,,,,,,,,,,,,,,,,,,,,,,,,,,,,,,,,567.7162,,,,,,,,,,,,,,,,,,,,,,,,,,,,,,,"[930,920,1030,730,730]",4,0,4,0,1,,,,
,,,,5fefefa4c9707d3516361c9c,C,2024-10-23_10h35.15.736,Slot Machine Game,2023.1.3,Win32,59.88023952,5fefefa4c9707d3516361c9c,67167c13dd87566d3602e731,671925949d756462813dbbe2,,,,,,,,,,,,,,,,,,,,,,,,,,,100,,,,,,,,,,,,,,,,,,6,6,"[4,10,15]","[[2,3,1],[1,3,2],[3,2,1]]",572.7169,0,right,0.9597,573.7143,0.5,0.3,"[2,3,1]",0.788812588,stimuli/card_100_transparent.png,100,0,0,0,0,1,,,,,,,,,,
,,,,5fefefa4c9707d3516361c9c,C,2024-10-23_10h35.15.736,Slot Machine Game,2023.1.3,Win32,59.88023952,5fefefa4c9707d3516361c9c,67167c13dd87566d3602e731,671925949d756462813dbbe2,,,,,,,,,,,,,,,,,,,,,,,,,,,200,,,,,,,,,,,,,,,,,,6,6,,,574.5165,1,right,1.0203,575.5809,1,0.3,"[2,3,1]",0.431379699,stimuli/card_100_transparent.png,100,1,0,1,0,1,,,,,,,,,,
,,,,5fefefa4c9707d3516361c9c,C,2024-10-23_10h35.15.736,Slot Machine Game,2023.1.3,Win32,59.88023952,5fefefa4c9707d3516361c9c,67167c13dd87566d3602e731,671925949d756462813dbbe2,,,,,,,,,,,,,,,,,,,,,,,,,,,210,,,,,,,,,,,,,,,,,,6,6,,,576.8823,2,right,1.0838,577.9992,1,0.3,"[2,3,1]",0.183812886,stimuli/card_10_transparent.png,10,2,0,2,0,1,,,,,,,,,,
,,,,5fefefa4c9707d3516361c9c,C,2024-10-23_10h35.15.736,Slot Machine Game,2023.1.3,Win32,59.88023952,5fefefa4c9707d3516361c9c,67167c13dd87566d3602e731,671925949d756462813dbbe2,,,,,,,,,,,,,,,,,,,,,,,,,,,310,,,,,,,,,,,,,,,,,,6,6,,,579.2988,3,right,0.6809,579.9992,0.5,0.3,"[2,3,1]",0.448055565,stimuli/card_100_transparent.png,100,3,0,3,0,1,,,,,,,,,,
,,,,5fefefa4c9707d3516361c9c,C,2024-10-23_10h35.15.736,Slot Machine Game,2023.1.3,Win32,59.88023952,5fefefa4c9707d3516361c9c,67167c13dd87566d3602e731,671925949d756462813dbbe2,,,,,,,,,,,,,,,,,,,,,,,,,,,320,,,,,,,,,,,,,,,,,,6,6,,,580.7963,4,right,1.113,581.9313,1,0.3,"[1,3,2]",0.939087979,stimuli/card_10_transparent.png,10,4,0,4,0,1,,,,,,,,,,
,,,,5fefefa4c9707d3516361c9c,C,2024-10-23_10h35.15.736,Slot Machine Game,2023.1.3,Win32,59.88023952,5fefefa4c9707d3516361c9c,67167c13dd87566d3602e731,671925949d756462813dbbe2,,,,,,,,,,,,,,,,,,,,,,,,,,,320,,,,,,,,,,,,,,,,,,6,6,,,583.2317,5,right,0.7851,584.0487,1.5,0.3,"[1,3,2]",0.027363551,stimuli/card_0_transparent.png,0,5,0,5,0,1,,,,,,,,,,
,,,,5fefefa4c9707d3516361c9c,C,2024-10-23_10h35.15.736,Slot Machine Game,2023.1.3,Win32,59.88023952,5fefefa4c9707d3516361c9c,67167c13dd87566d3602e731,671925949d756462813dbbe2,,,,,,,,,,,,,,,,,,,,,,,,,,,320,,,,,,,,,,,,,,,,,,6,6,,,585.8484,6,up,0.5837,586.4651,1.5,0.3,"[1,3,2]",0.526714238,stimuli/card_0_transparent.png,0,6,0,6,0,1,,,,,,,,,,
,,,,5fefefa4c9707d3516361c9c,C,2024-10-23_10h35.15.736,Slot Machine Game,2023.1.3,Win32,59.88023952,5fefefa4c9707d3516361c9c,67167c13dd87566d3602e731,671925949d756462813dbbe2,,,,,,,,,,,,,,,,,,,,,,,,,,,320,,,,,,,,,,,,,,,,,,6,6,,,588.2645,7,up,0.7003,588.9982,0.5,0.3,"[1,3,2]",0.455911972,stimuli/card_0_transparent.png,0,7,0,7,0,1,,,,,,,,,,
,,,,5fefefa4c9707d3516361c9c,C,2024-10-23_10h35.15.736,Slot Machine Game,2023.1.3,Win32,59.88023952,5fefefa4c9707d3516361c9c,67167c13dd87566d3602e731,671925949d756462813dbbe2,,,,,,,,,,,,,,,,,,,,,,,,,,,330,,,,,,,,,,,,,,,,,,6,6,,,589.7986,8,left,1.0952,590.913,0.5,0.3,"[1,3,2]",0.119124682,stimuli/card_10_transparent.png,10,8,0,8,0,1,,,,,,,,,,
,,,,5fefefa4c9707d3516361c9c,C,2024-10-23_10h35.15.736,Slot Machine Game,2023.1.3,Win32,59.88023952,5fefefa4c9707d3516361c9c,67167c13dd87566d3602e731,671925949d756462813dbbe2,,,,,,,,,,,,,,,,,,,,,,,,,,,430,,,,,,,,,,,,,,,,,,6,6,,,591.7149,9,left,0.8026,592.5492,1.5,0.3,"[1,3,2]",0.569767761,stimuli/card_100_transparent.png,100,9,0,9,0,1,,,,,,,,,,
,,,,5fefefa4c9707d3516361c9c,C,2024-10-23_10h35.15.736,Slot Machine Game,2023.1.3,Win32,59.88023952,5fefefa4c9707d3516361c9c,67167c13dd87566d3602e731,671925949d756462813dbbe2,,,,,,,,,,,,,,,,,,,,,,,,,,,430,,,,,,,,,,,,,,,,,,6,6,,,594.3483,10,left,0.8678,595.249,1,0.3,"[3,2,1]",0.773316165,stimuli/card_0_transparent.png,0,10,0,10,0,1,,,,,,,,,,
,,,,5fefefa4c9707d3516361c9c,C,2024-10-23_10h35.15.736,Slot Machine Game,2023.1.3,Win32,59.88023952,5fefefa4c9707d3516361c9c,67167c13dd87566d3602e731,671925949d756462813dbbe2,,,,,,,,,,,,,,,,,,,,,,,,,,,530,,,,,,,,,,,,,,,,,,6,6,,,596.5472,11,right,1.7337,598.314,1,0.3,"[3,2,1]",0.50910185,stimuli/card_100_transparent.png,100,11,0,11,0,1,,,,,,,,,,
,,,,5fefefa4c9707d3516361c9c,C,2024-10-23_10h35.15.736,Slot Machine Game,2023.1.3,Win32,59.88023952,5fefefa4c9707d3516361c9c,67167c13dd87566d3602e731,671925949d756462813dbbe2,,,,,,,,,,,,,,,,,,,,,,,,,,,630,,,,,,,,,,,,,,,,,,6,6,,,599.6116,12,right,1.6693,601.2948,1.5,0.3,"[3,2,1]",0.678185927,stimuli/card_100_transparent.png,100,12,0,12,0,1,,,,,,,,,,
,,,,5fefefa4c9707d3516361c9c,C,2024-10-23_10h35.15.736,Slot Machine Game,2023.1.3,Win32,59.88023952,5fefefa4c9707d3516361c9c,67167c13dd87566d3602e731,671925949d756462813dbbe2,,,,,,,,,,,,,,,,,,,,,,,,,,,730,,,,,,,,,,,,,,,,,,6,6,,,603.0945,13,right,1.3791,604.511,1,0.3,"[3,2,1]",0.417541066,stimuli/card_100_transparent.png,100,13,0,13,0,1,,,,,,,,,,
,,,,5fefefa4c9707d3516361c9c,C,2024-10-23_10h35.15.736,Slot Machine Game,2023.1.3,Win32,59.88023952,5fefefa4c9707d3516361c9c,67167c13dd87566d3602e731,671925949d756462813dbbe2,,,,,,,,,,,,,,,,,,,,,,,,,,,830,,,,,,,,,,,,,,,,,,6,6,,,605.8106,14,right,0.9588,606.7776,0.5,0.3,"[3,2,1]",0.298191205,stimuli/card_100_transparent.png,100,14,0,14,0,1,,,,,,,,,,
,,,,5fefefa4c9707d3516361c9c,C,2024-10-23_10h35.15.736,Slot Machine Game,2023.1.3,Win32,59.88023952,5fefefa4c9707d3516361c9c,67167c13dd87566d3602e731,671925949d756462813dbbe2,,,,,,,,,,,,,,,,,,,,,,,,,,,,,,,,,,607.5796,,,,,,,,,,,,,,,,,,,,,,,,,,,,,,,"[930,920,1030,730,730,830]",5,0,5,0,1,,,,
,,,,5fefefa4c9707d3516361c9c,C,2024-10-23_10h35.15.736,Slot Machine Game,2023.1.3,Win32,59.88023952,5fefefa4c9707d3516361c9c,67167c13dd87566d3602e731,671925949d756462813dbbe2,,,,,,,,,,,,,,,,,,,,,,,,,,,10,,,,,,,,,,,,,,,,,,7,7,"[9,15]","[[1,3,2],[2,3,1]]",612.5798,0,right,1.1004,613.7127,1,0.3,"[1,3,2]",0.717518139,stimuli/card_10_transparent.png,10,0,0,0,0,1,,,,,,,,,,
,,,,5fefefa4c9707d3516361c9c,C,2024-10-23_10h35.15.736,Slot Machine Game,2023.1.3,Win32,59.88023952,5fefefa4c9707d3516361c9c,67167c13dd87566d3602e731,671925949d756462813dbbe2,,,,,,,,,,,,,,,,,,,,,,,,,,,10,,,,,,,,,,,,,,,,,,7,7,,,615.01,1,left,0.6521,615.6936,1,0.3,"[1,3,2]",0.091117023,stimuli/card_0_transparent.png,0,1,0,1,0,1,,,,,,,,,,
,,,,5fefefa4c9707d3516361c9c,C,2024-10-23_10h35.15.736,Slot Machine Game,2023.1.3,Win32,59.88023952,5fefefa4c9707d3516361c9c,67167c13dd87566d3602e731,671925949d756462813dbbe2,,,,,,,,,,,,,,,,,,,,,,,,,,,10,,,,,,,,,,,,,,,,,,7,7,,,616.9942,2,up,0.6054,617.6268,1.5,0.3,"[1,3,2]",0.675608672,stimuli/card_0_transparent.png,0,2,0,2,0,1,,,,,,,,,,
,,,,5fefefa4c9707d3516361c9c,C,2024-10-23_10h35.15.736,Slot Machine Game,2023.1.3,Win32,59.88023952,5fefefa4c9707d3516361c9c,67167c13dd87566d3602e731,671925949d756462813dbbe2,,,,,,,,,,,,,,,,,,,,,,,,,,,20,,,,,,,,,,,,,,,,,,7,7,,,619.4273,3,right,0.5973,620.0291,0.5,0.3,"[1,3,2]",0.857075026,stimuli/card_10_transparent.png,10,3,0,3,0,1,,,,,,,,,,
,,,,5fefefa4c9707d3516361c9c,C,2024-10-23_10h35.15.736,Slot Machine Game,2023.1.3,Win32,59.88023952,5fefefa4c9707d3516361c9c,67167c13dd87566d3602e731,671925949d756462813dbbe2,,,,,,,,,,,,,,,,,,,,,,,,,,,30,,,,,,,,,,,,,,,,,,7,7,,,620.8261,4,left,1.2666,622.1285,0.5,0.3,"[1,3,2]",0.136579502,stimuli/card_10_transparent.png,10,4,0,4,0,1,,,,,,,,,,
,,,,5fefefa4c9707d3516361c9c,C,2024-10-23_10h35.15.736,Slot Machine Game,2023.1.3,Win32,59.88023952,5fefefa4c9707d3516361c9c,67167c13dd87566d3602e731,671925949d756462813dbbe2,,,,,,,,,,,,,,,,,,,,,,,,,,,130,,,,,,,,,,,,,,,,,,7,7,,,622.9282,5,left,0.7957,623.7595,1.5,0.3,"[1,3,2]",0.661999968,stimuli/card_100_transparent.png,100,5,0,5,0,1,,,,,,,,,,
,,,,5fefefa4c9707d3516361c9c,C,2024-10-23_10h35.15.736,Slot Machine Game,2023.1.3,Win32,59.88023952,5fefefa4c9707d3516361c9c,67167c13dd87566d3602e731,671925949d756462813dbbe2,,,,,,,,,,,,,,,,,,,,,,,,,,,230,,,,,,,,,,,,,,,,,,7,7,,,625.5614,6,left,0.9628,626.5427,1,0.3,"[1,3,2]",0.756501087,stimuli/card_100_transparent.png,100,6,0,6,0,1,,,,,,,,,,
,,,,5fefefa4c9707d3516361c9c,C,2024-10-23_10h35.15.736,Slot Machine Game,2023.1.3,Win32,59.88023952,5fefefa4c9707d3516361c9c,67167c13dd87566d3602e731,671925949d756462813dbbe2,,,,,,,,,,,,,,,,,,,,,,,,,,,230,,,,,,,,,,,,,,,,,,7,7,,,627.8433,7,left,0.6506,628.5117,0.5,0.3,"[1,3,2]",0.070773345,stimuli/card_0_transparent.png,0,7,0,7,0,1,,,,,,,,,,
,,,,5fefefa4c9707d3516361c9c,C,2024-10-23_10h35.15.736,Slot Machine Game,2023.1.3,Win32,59.88023952,5fefefa4c9707d3516361c9c,67167c13dd87566d3602e731,671925949d756462813dbbe2,,,,,,,,,,,,,,,,,,,,,,,,,,,240,,,,,,,,,,,,,,,,,,7,7,,,629.3108,8,right,0.9506,630.2782,0.5,0.3,"[1,3,2]",0.925753915,stimuli/card_10_transparent.png,10,8,0,8,0,1,,,,,,,,,,
,,,,5fefefa4c9707d3516361c9c,C,2024-10-23_10h35.15.736,Slot Machine Game,2023.1.3,Win32,59.88023952,5fefefa4c9707d3516361c9c,67167c13dd87566d3602e731,671925949d756462813dbbe2,,,,,,,,,,,,,,,,,,,,,,,,,,,250,,,,,,,,,,,,,,,,,,7,7,,,631.0765,9,left,0.8501,631.9445,1,0.3,"[2,3,1]",0.645415172,stimuli/card_10_transparent.png,10,9,0,9,0,1,,,,,,,,,,
,,,,5fefefa4c9707d3516361c9c,C,2024-10-23_10h35.15.736,Slot Machine Game,2023.1.3,Win32,59.88023952,5fefefa4c9707d3516361c9c,67167c13dd87566d3602e731,671925949d756462813dbbe2,,,,,,,,,,,,,,,,,,,,,,,,,,,250,,,,,,,,,,,,,,,,,,7,7,,,633.2419,10,right,0.9005,634.1611,0.5,0.3,"[2,3,1]",0.030621992,stimuli/card_0_transparent.png,0,10,0,10,0,1,,,,,,,,,,
,,,,5fefefa4c9707d3516361c9c,C,2024-10-23_10h35.15.736,Slot Machine Game,2023.1.3,Win32,59.88023952,5fefefa4c9707d3516361c9c,67167c13dd87566d3602e731,671925949d756462813dbbe2,,,,,,,,,,,,,,,,,,,,,,,,,,,250,,,,,,,,,,,,,,,,,,7,7,,,634.9605,11,up,1.3008,636.2948,0.5,0.3,"[2,3,1]",0.685606595,stimuli/card_0_transparent.png,0,11,0,11,0,1,,,,,,,,,,
,,,,5fefefa4c9707d3516361c9c,C,2024-10-23_10h35.15.736,Slot Machine Game,2023.1.3,Win32,59.88023952,5fefefa4c9707d3516361c9c,67167c13dd87566d3602e731,671925949d756462813dbbe2,,,,,,,,,,,,,,,,,,,,,,,,,,,250,,,,,,,,,,,,,,,,,,7,7,,,637.0936,12,up,0.6672,637.7941,1.5,0.3,"[2,3,1]",0.815053885,stimuli/card_0_transparent.png,0,12,0,12,0,1,,,,,,,,,,
,,,,5fefefa4c9707d3516361c9c,C,2024-10-23_10h35.15.736,Slot Machine Game,2023.1.3,Win32,59.88023952,5fefefa4c9707d3516361c9c,67167c13dd87566d3602e731,671925949d756462813dbbe2,,,,,,,,,,,,,,,,,,,,,,,,,,,260,,,,,,,,,,,,,,,,,,7,7,,,639.5935,13,left,0.7837,640.4105,1.5,0.3,"[2,3,1]",0.909930571,stimuli/card_10_transparent.png,10,13,0,13,0,1,,,,,,,,,,
,,,,5fefefa4c9707d3516361c9c,C,2024-10-23_10h35.15.736,Slot Machine Game,2023.1.3,Win32,59.88023952,5fefefa4c9707d3516361c9c,67167c13dd87566d3602e731,671925949d756462813dbbe2,,,,,,,,,,,,,,,,,,,,,,,,,,,360,,,,,,,,,,,,,,,,,,7,7,,,642.21,14,right,0.685,642.927,0.5,0.3,"[2,3,1]",0.51477652,stimuli/card_100_transparent.png,100,14,0,14,0,1,,,,,,,,,,
,,,,5fefefa4c9707d3516361c9c,C,2024-10-23_10h35.15.736,Slot Machine Game,2023.1.3,Win32,59.88023952,5fefefa4c9707d3516361c9c,67167c13dd87566d3602e731,671925949d756462813dbbe2,,,,,,,,,,,,,,,,,,,,,,,,,,,,,,,,,,643.7263,,,,,,,,,,,,,,,,,,,,,,,,,,,,,,,"[930,920,1030,730,730,830,360]",6,0,6,0,1,,,,
,,,,5fefefa4c9707d3516361c9c,C,2024-10-23_10h35.15.736,Slot Machine Game,2023.1.3,Win32,59.88023952,5fefefa4c9707d3516361c9c,67167c13dd87566d3602e731,671925949d756462813dbbe2,,,,,,,,,,,,,,,,,,,,,,,,,,,0,,,,,,,,,,,,,,,,,,8,8,"[11,15]","[[2,1,3],[1,2,3]]",648.727,0,right,1.1338,649.8931,1,0.3,"[2,1,3]",0.800450587,stimuli/card_0_transparent.png,0,0,0,0,0,1,,,,,,,,,,
,,,,5fefefa4c9707d3516361c9c,C,2024-10-23_10h35.15.736,Slot Machine Game,2023.1.3,Win32,59.88023952,5fefefa4c9707d3516361c9c,67167c13dd87566d3602e731,671925949d756462813dbbe2,,,,,,,,,,,,,,,,,,,,,,,,,,,0,,,,,,,,,,,,,,,,,,8,8,,,651.1928,1,left,1.146,652.3585,1.5,0.3,"[2,1,3]",6.1171E-05,stimuli/card_0_transparent.png,0,1,0,1,0,1,,,,,,,,,,
,,,,5fefefa4c9707d3516361c9c,C,2024-10-23_10h35.15.736,Slot Machine Game,2023.1.3,Win32,59.88023952,5fefefa4c9707d3516361c9c,67167c13dd87566d3602e731,671925949d756462813dbbe2,,,,,,,,,,,,,,,,,,,,,,,,,,,10,,,,,,,,,,,,,,,,,,8,8,,,654.156,2,up,0.8642,655.0274,1.5,0.3,"[2,1,3]",0.188905224,stimuli/card_10_transparent.png,10,2,0,2,0,1,,,,,,,,,,
,,,,5fefefa4c9707d3516361c9c,C,2024-10-23_10h35.15.736,Slot Machine Game,2023.1.3,Win32,59.88023952,5fefefa4c9707d3516361c9c,67167c13dd87566d3602e731,671925949d756462813dbbe2,,,,,,,,,,,,,,,,,,,,,,,,,,,110,,,,,,,,,,,,,,,,,,8,8,,,656.8262,3,left,1.1497,658.0089,1,0.3,"[2,1,3]",0.15212232,stimuli/card_100_transparent.png,100,3,0,3,0,1,,,,,,,,,,
,,,,5fefefa4c9707d3516361c9c,C,2024-10-23_10h35.15.736,Slot Machine Game,2023.1.3,Win32,59.88023952,5fefefa4c9707d3516361c9c,67167c13dd87566d3602e731,671925949d756462813dbbe2,,,,,,,,,,,,,,,,,,,,,,,,,,,120,,,,,,,,,,,,,,,,,,8,8,,,659.3073,4,left,0.7979,660.1093,1,0.3,"[2,1,3]",0.322445383,stimuli/card_10_transparent.png,10,4,0,4,0,1,,,,,,,,,,
,,,,5fefefa4c9707d3516361c9c,C,2024-10-23_10h35.15.736,Slot Machine Game,2023.1.3,Win32,59.88023952,5fefefa4c9707d3516361c9c,67167c13dd87566d3602e731,671925949d756462813dbbe2,,,,,,,,,,,,,,,,,,,,,,,,,,,130,,,,,,,,,,,,,,,,,,8,8,,,661.4082,5,left,2.1003,663.542,0.5,0.3,"[2,1,3]",0.936515633,stimuli/card_10_transparent.png,10,5,0,5,0,1,,,,,,,,,,
,,,,5fefefa4c9707d3516361c9c,C,2024-10-23_10h35.15.736,Slot Machine Game,2023.1.3,Win32,59.88023952,5fefefa4c9707d3516361c9c,67167c13dd87566d3602e731,671925949d756462813dbbe2,,,,,,,,,,,,,,,,,,,,,,,,,,,140,,,,,,,,,,,,,,,,,,8,8,,,664.3412,6,left,1.5512,665.9257,1.5,0.3,"[2,1,3]",0.782965894,stimuli/card_10_transparent.png,10,6,0,6,0,1,,,,,,,,,,
,,,,5fefefa4c9707d3516361c9c,C,2024-10-23_10h35.15.736,Slot Machine Game,2023.1.3,Win32,59.88023952,5fefefa4c9707d3516361c9c,67167c13dd87566d3602e731,671925949d756462813dbbe2,,,,,,,,,,,,,,,,,,,,,,,,,,,140,,,,,,,,,,,,,,,,,,8,8,,,667.7243,7,right,1.0935,668.8222,1,0.3,"[2,1,3]",0.887239538,stimuli/card_0_transparent.png,0,7,0,7,0,1,,,,,,,,,,
,,,,5fefefa4c9707d3516361c9c,C,2024-10-23_10h35.15.736,Slot Machine Game,2023.1.3,Win32,59.88023952,5fefefa4c9707d3516361c9c,67167c13dd87566d3602e731,671925949d756462813dbbe2,,,,,,,,,,,,,,,,,,,,,,,,,,,150,,,,,,,,,,,,,,,,,,8,8,,,670.1241,8,up,0.5006,670.6581,0.5,0.3,"[2,1,3]",0.10050163,stimuli/card_10_transparent.png,10,8,0,8,0,1,,,,,,,,,,
,,,,5fefefa4c9707d3516361c9c,C,2024-10-23_10h35.15.736,Slot Machine Game,2023.1.3,Win32,59.88023952,5fefefa4c9707d3516361c9c,67167c13dd87566d3602e731,671925949d756462813dbbe2,,,,,,,,,,,,,,,,,,,,,,,,,,,150,,,,,,,,,,,,,,,,,,8,8,,,671.4576,9,right,0.5335,672.0221,1,0.3,"[2,1,3]",0.515817137,stimuli/card_0_transparent.png,0,9,0,9,0,1,,,,,,,,,,
,,,,5fefefa4c9707d3516361c9c,C,2024-10-23_10h35.15.736,Slot Machine Game,2023.1.3,Win32,59.88023952,5fefefa4c9707d3516361c9c,67167c13dd87566d3602e731,671925949d756462813dbbe2,,,,,,,,,,,,,,,,,,,,,,,,,,,160,,,,,,,,,,,,,,,,,,8,8,,,673.3239,10,left,1.1509,674.5079,1.5,0.3,"[2,1,3]",0.353002436,stimuli/card_10_transparent.png,10,10,0,10,0,1,,,,,,,,,,
,,,,5fefefa4c9707d3516361c9c,C,2024-10-23_10h35.15.736,Slot Machine Game,2023.1.3,Win32,59.88023952,5fefefa4c9707d3516361c9c,67167c13dd87566d3602e731,671925949d756462813dbbe2,,,,,,,,,,,,,,,,,,,,,,,,,,,260,,,,,,,,,,,,,,,,,,8,8,,,676.3073,11,left,2.6998,679.04,1.5,0.3,"[1,2,3]",0.456938241,stimuli/card_100_transparent.png,100,11,0,11,0,1,,,,,,,,,,
,,,,5fefefa4c9707d3516361c9c,C,2024-10-23_10h35.15.736,Slot Machine Game,2023.1.3,Win32,59.88023952,5fefefa4c9707d3516361c9c,67167c13dd87566d3602e731,671925949d756462813dbbe2,,,,,,,,,,,,,,,,,,,,,,,,,,,270,,,,,,,,,,,,,,,,,,8,8,,,680.8399,12,left,0.9622,681.8379,1.5,0.3,"[1,2,3]",0.156063518,stimuli/card_10_transparent.png,10,12,0,12,0,1,,,,,,,,,,
,,,,5fefefa4c9707d3516361c9c,C,2024-10-23_10h35.15.736,Slot Machine Game,2023.1.3,Win32,59.88023952,5fefefa4c9707d3516361c9c,67167c13dd87566d3602e731,671925949d756462813dbbe2,,,,,,,,,,,,,,,,,,,,,,,,,,,280,,,,,,,,,,,,,,,,,,8,8,,,683.6396,13,up,1.2248,684.9042,1,0.3,"[1,2,3]",0.574463579,stimuli/card_10_transparent.png,10,13,0,13,0,1,,,,,,,,,,
,,,,5fefefa4c9707d3516361c9c,C,2024-10-23_10h35.15.736,Slot Machine Game,2023.1.3,Win32,59.88023952,5fefefa4c9707d3516361c9c,67167c13dd87566d3602e731,671925949d756462813dbbe2,,,,,,,,,,,,,,,,,,,,,,,,,,,290,,,,,,,,,,,,,,,,,,8,8,,,686.2061,14,up,0.6538,686.9041,1,0.3,"[1,2,3]",0.207786417,stimuli/card_10_transparent.png,10,14,0,14,0,1,,,,,,,,,,
,,,,5fefefa4c9707d3516361c9c,C,2024-10-23_10h35.15.736,Slot Machine Game,2023.1.3,Win32,59.88023952,5fefefa4c9707d3516361c9c,67167c13dd87566d3602e731,671925949d756462813dbbe2,,,,,,,,,,,,,,,,,,,,,,,,,,,,,,,,,,688.2058,,,,,,,,,,,,,,,,,,,,,,,,,,,,,,,"[930,920,1030,730,730,830,360,290]",7,0,7,0,1,,,,
,,,,5fefefa4c9707d3516361c9c,C,2024-10-23_10h35.15.736,Slot Machine Game,2023.1.3,Win32,59.88023952,5fefefa4c9707d3516361c9c,67167c13dd87566d3602e731,671925949d756462813dbbe2,,,,,,,,,,,,,,,,,,,,,,,,,,,0,,,,,,,,,,,,,,,,,,9,9,"[8,15]","[[3,2,1],[3,1,2]]",693.2054,0,left,1.6504,694.8888,1,0.3,"[3,2,1]",0.54838945,stimuli/card_0_transparent.png,0,0,0,0,0,1,,,,,,,,,,
,,,,5fefefa4c9707d3516361c9c,C,2024-10-23_10h35.15.736,Slot Machine Game,2023.1.3,Win32,59.88023952,5fefefa4c9707d3516361c9c,67167c13dd87566d3602e731,671925949d756462813dbbe2,,,,,,,,,,,,,,,,,,,,,,,,,,,10,,,,,,,,,,,,,,,,,,9,9,,,696.1887,1,up,0.5506,696.7556,1,0.3,"[3,2,1]",0.431224775,stimuli/card_10_transparent.png,10,1,0,1,0,1,,,,,,,,,,
,,,,5fefefa4c9707d3516361c9c,C,2024-10-23_10h35.15.736,Slot Machine Game,2023.1.3,Win32,59.88023952,5fefefa4c9707d3516361c9c,67167c13dd87566d3602e731,671925949d756462813dbbe2,,,,,,,,,,,,,,,,,,,,,,,,,,,110,,,,,,,,,,,,,,,,,,9,9,,,698.0526,2,right,0.964,699.0387,1.5,0.3,"[3,2,1]",0.762970097,stimuli/card_100_transparent.png,100,2,0,2,0,1,,,,,,,,,,
,,,,5fefefa4c9707d3516361c9c,C,2024-10-23_10h35.15.736,Slot Machine Game,2023.1.3,Win32,59.88023952,5fefefa4c9707d3516361c9c,67167c13dd87566d3602e731,671925949d756462813dbbe2,,,,,,,,,,,,,,,,,,,,,,,,,,,110,,,,,,,,,,,,,,,,,,9,9,,,700.8381,3,right,0.801,701.6726,0.5,0.3,"[3,2,1]",0.095708351,stimuli/card_0_transparent.png,0,3,0,3,0,1,,,,,,,,,,
,,,,5fefefa4c9707d3516361c9c,C,2024-10-23_10h35.15.736,Slot Machine Game,2023.1.3,Win32,59.88023952,5fefefa4c9707d3516361c9c,67167c13dd87566d3602e731,671925949d756462813dbbe2,,,,,,,,,,,,,,,,,,,,,,,,,,,120,,,,,,,,,,,,,,,,,,9,9,,,702.4718,4,up,0.5521,703.0556,1.5,0.3,"[3,2,1]",0.270044746,stimuli/card_10_transparent.png,10,4,0,4,0,1,,,,,,,,,,
,,,,5fefefa4c9707d3516361c9c,C,2024-10-23_10h35.15.736,Slot Machine Game,2023.1.3,Win32,59.88023952,5fefefa4c9707d3516361c9c,67167c13dd87566d3602e731,671925949d756462813dbbe2,,,,,,,,,,,,,,,,,,,,,,,,,,,120,,,,,,,,,,,,,,,,,,9,9,,,704.8551,5,left,0.6672,705.5555,0.5,0.3,"[3,2,1]",0.45599919,stimuli/card_0_transparent.png,0,5,0,5,0,1,,,,,,,,,,
,,,,5fefefa4c9707d3516361c9c,C,2024-10-23_10h35.15.736,Slot Machine Game,2023.1.3,Win32,59.88023952,5fefefa4c9707d3516361c9c,67167c13dd87566d3602e731,671925949d756462813dbbe2,,,,,,,,,,,,,,,,,,,,,,,,,,,130,,,,,,,,,,,,,,,,,,9,9,,,706.3553,6,up,0.5068,706.9023,1.5,0.3,"[3,2,1]",0.422884699,stimuli/card_10_transparent.png,10,6,0,6,0,1,,,,,,,,,,
,,,,5fefefa4c9707d3516361c9c,C,2024-10-23_10h35.15.736,Slot Machine Game,2023.1.3,Win32,59.88023952,5fefefa4c9707d3516361c9c,67167c13dd87566d3602e731,671925949d756462813dbbe2,,,,,,,,,,,,,,,,,,,,,,,,,,,230,,,,,,,,,,,,,,,,,,9,9,,,708.704,7,right,0.7007,709.4211,0.5,0.3,"[3,2,1]",0.838450732,stimuli/card_100_transparent.png,100,7,0,7,0,1,,,,,,,,,,
,,,,5fefefa4c9707d3516361c9c,C,2024-10-23_10h35.15.736,Slot Machine Game,2023.1.3,Win32,59.88023952,5fefefa4c9707d3516361c9c,67167c13dd87566d3602e731,671925949d756462813dbbe2,,,,,,,,,,,,,,,,,,,,,,,,,,,240,,,,,,,,,,,,,,,,,,9,9,,,710.2183,8,right,0.6094,710.8353,1,0.3,"[3,1,2]",0.943587102,stimuli/card_10_transparent.png,10,8,0,8,0,1,,,,,,,,,,
,,,,5fefefa4c9707d3516361c9c,C,2024-10-23_10h35.15.736,Slot Machine Game,2023.1.3,Win32,59.88023952,5fefefa4c9707d3516361c9c,67167c13dd87566d3602e731,671925949d756462813dbbe2,,,,,,,,,,,,,,,,,,,,,,,,,,,250,,,,,,,,,,,,,,,,,,9,9,,,712.1348,9,right,0.6838,712.8378,1.5,0.3,"[3,1,2]",0.254032078,stimuli/card_10_transparent.png,10,9,0,9,0,1,,,,,,,,,,
,,,,5fefefa4c9707d3516361c9c,C,2024-10-23_10h35.15.736,Slot Machine Game,2023.1.3,Win32,59.88023952,5fefefa4c9707d3516361c9c,67167c13dd87566d3602e731,671925949d756462813dbbe2,,,,,,,,,,,,,,,,,,,,,,,,,,,350,,,,,,,,,,,,,,,,,,9,9,,,714.6368,10,up,0.7828,715.4528,0.5,0.3,"[3,1,2]",0.285829309,stimuli/card_100_transparent.png,100,10,0,10,0,1,,,,,,,,,,
,,,,5fefefa4c9707d3516361c9c,C,2024-10-23_10h35.15.736,Slot Machine Game,2023.1.3,Win32,59.88023952,5fefefa4c9707d3516361c9c,67167c13dd87566d3602e731,671925949d756462813dbbe2,,,,,,,,,,,,,,,,,,,,,,,,,,,350,,,,,,,,,,,,,,,,,,9,9,,,716.2534,11,up,0.5005,716.7873,0.5,0.3,"[3,1,2]",0.04557527,stimuli/card_0_transparent.png,0,11,0,11,0,1,,,,,,,,,,
,,,,5fefefa4c9707d3516361c9c,C,2024-10-23_10h35.15.736,Slot Machine Game,2023.1.3,Win32,59.88023952,5fefefa4c9707d3516361c9c,67167c13dd87566d3602e731,671925949d756462813dbbe2,,,,,,,,,,,,,,,,,,,,,,,,,,,450,,,,,,,,,,,,,,,,,,9,9,,,717.5857,12,up,0.6474,718.2374,0.5,0.3,"[3,1,2]",0.791804428,stimuli/card_100_transparent.png,100,12,0,12,0,1,,,,,,,,,,
,,,,5fefefa4c9707d3516361c9c,C,2024-10-23_10h35.15.736,Slot Machine Game,2023.1.3,Win32,59.88023952,5fefefa4c9707d3516361c9c,67167c13dd87566d3602e731,671925949d756462813dbbe2,,,,,,,,,,,,,,,,,,,,,,,,,,,450,,,,,,,,,,,,,,,,,,9,9,,,719.0365,13,up,1.266,720.3357,1,0.3,"[3,1,2]",0.076560198,stimuli/card_0_transparent.png,0,13,0,13,0,1,,,,,,,,,,
,,,,5fefefa4c9707d3516361c9c,C,2024-10-23_10h35.15.736,Slot Machine Game,2023.1.3,Win32,59.88023952,5fefefa4c9707d3516361c9c,67167c13dd87566d3602e731,671925949d756462813dbbe2,,,,,,,,,,,,,,,,,,,,,,,,,,,550,,,,,,,,,,,,,,,,,,9,9,,,721.6343,14,up,0.7671,722.4202,0.5,0.3,"[3,1,2]",0.814509861,stimuli/card_100_transparent.png,100,14,0,14,0,1,,,,,,,,,,
,,,,5fefefa4c9707d3516361c9c,C,2024-10-23_10h35.15.736,Slot Machine Game,2023.1.3,Win32,59.88023952,5fefefa4c9707d3516361c9c,67167c13dd87566d3602e731,671925949d756462813dbbe2,,,,,,,,,,,,,,,,,,,,,,,,,,,,,,,,,,723.2198,,,,,,,,,,,,,,,,,,,,,,,,,,,,,,,"[930,920,1030,730,730,830,360,290,550]",8,0,8,0,1,,,,
,,,,5fefefa4c9707d3516361c9c,C,2024-10-23_10h35.15.736,Slot Machine Game,2023.1.3,Win32,59.88023952,5fefefa4c9707d3516361c9c,67167c13dd87566d3602e731,671925949d756462813dbbe2,,,,,,,,,,,,,,,,,,,,,,,,,,,100,,,,,,,,,,,,,,,,,,10,10,"[10,15]","[[3,1,2],[1,3,2]]",728.2203,0,up,0.8372,729.1004,1.5,0.3,"[3,1,2]",0.496203954,stimuli/card_100_transparent.png,100,0,0,0,0,1,,,,,,,,,,
,,,,5fefefa4c9707d3516361c9c,C,2024-10-23_10h35.15.736,Slot Machine Game,2023.1.3,Win32,59.88023952,5fefefa4c9707d3516361c9c,67167c13dd87566d3602e731,671925949d756462813dbbe2,,,,,,,,,,,,,,,,,,,,,,,,,,,200,,,,,,,,,,,,,,,,,,10,10,,,730.9022,1,up,0.8686,731.8027,1,0.3,"[3,1,2]",0.253721199,stimuli/card_100_transparent.png,100,1,0,1,0,1,,,,,,,,,,
,,,,5fefefa4c9707d3516361c9c,C,2024-10-23_10h35.15.736,Slot Machine Game,2023.1.3,Win32,59.88023952,5fefefa4c9707d3516361c9c,67167c13dd87566d3602e731,671925949d756462813dbbe2,,,,,,,,,,,,,,,,,,,,,,,,,,,300,,,,,,,,,,,,,,,,,,10,10,,,733.1024,2,up,0.5008,733.6363,0.5,0.3,"[3,1,2]",0.346118933,stimuli/card_100_transparent.png,100,2,0,2,0,1,,,,,,,,,,
,,,,5fefefa4c9707d3516361c9c,C,2024-10-23_10h35.15.736,Slot Machine Game,2023.1.3,Win32,59.88023952,5fefefa4c9707d3516361c9c,67167c13dd87566d3602e731,671925949d756462813dbbe2,,,,,,,,,,,,,,,,,,,,,,,,,,,400,,,,,,,,,,,,,,,,,,10,10,,,734.4351,3,up,1.0508,735.519,0.5,0.3,"[3,1,2]",0.989732452,stimuli/card_100_transparent.png,100,3,0,3,0,1,,,,,,,,,,
,,,,5fefefa4c9707d3516361c9c,C,2024-10-23_10h35.15.736,Slot Machine Game,2023.1.3,Win32,59.88023952,5fefefa4c9707d3516361c9c,67167c13dd87566d3602e731,671925949d756462813dbbe2,,,,,,,,,,,,,,,,,,,,,,,,,,,500,,,,,,,,,,,,,,,,,,10,10,,,736.3184,4,up,0.5775,736.9332,1,0.3,"[3,1,2]",0.396122587,stimuli/card_100_transparent.png,100,4,0,4,0,1,,,,,,,,,,
,,,,5fefefa4c9707d3516361c9c,C,2024-10-23_10h35.15.736,Slot Machine Game,2023.1.3,Win32,59.88023952,5fefefa4c9707d3516361c9c,67167c13dd87566d3602e731,671925949d756462813dbbe2,,,,,,,,,,,,,,,,,,,,,,,,,,,600,,,,,,,,,,,,,,,,,,10,10,,,738.2327,5,up,0.7004,738.9519,1.5,0.3,"[3,1,2]",0.927623547,stimuli/card_100_transparent.png,100,5,0,5,0,1,,,,,,,,,,
,,,,5fefefa4c9707d3516361c9c,C,2024-10-23_10h35.15.736,Slot Machine Game,2023.1.3,Win32,59.88023952,5fefefa4c9707d3516361c9c,67167c13dd87566d3602e731,671925949d756462813dbbe2,,,,,,,,,,,,,,,,,,,,,,,,,,,600,,,,,,,,,,,,,,,,,,10,10,,,740.7518,6,up,1.1682,741.9527,1,0.3,"[3,1,2]",0.025741992,stimuli/card_0_transparent.png,0,6,0,6,0,1,,,,,,,,,,
,,,,5fefefa4c9707d3516361c9c,C,2024-10-23_10h35.15.736,Slot Machine Game,2023.1.3,Win32,59.88023952,5fefefa4c9707d3516361c9c,67167c13dd87566d3602e731,671925949d756462813dbbe2,,,,,,,,,,,,,,,,,,,,,,,,,,,600,,,,,,,,,,,,,,,,,,10,10,,,743.2519,7,left,1.3504,744.6354,1,0.3,"[3,1,2]",0.832436009,stimuli/card_0_transparent.png,0,7,0,7,0,1,,,,,,,,,,
,,,,5fefefa4c9707d3516361c9c,C,2024-10-23_10h35.15.736,Slot Machine Game,2023.1.3,Win32,59.88023952,5fefefa4c9707d3516361c9c,67167c13dd87566d3602e731,671925949d756462813dbbe2,,,,,,,,,,,,,,,,,,,,,,,,,,,700,,,,,,,,,,,,,,,,,,10,10,,,745.9344,8,up,0.8712,746.8487,1.5,0.3,"[3,1,2]",0.451625047,stimuli/card_100_transparent.png,100,8,0,8,0,1,,,,,,,,,,
,,,,5fefefa4c9707d3516361c9c,C,2024-10-23_10h35.15.736,Slot Machine Game,2023.1.3,Win32,59.88023952,5fefefa4c9707d3516361c9c,67167c13dd87566d3602e731,671925949d756462813dbbe2,,,,,,,,,,,,,,,,,,,,,,,,,,,800,,,,,,,,,,,,,,,,,,10,10,,,748.6483,9,up,1.1133,749.7846,1,0.3,"[3,1,2]",0.282143796,stimuli/card_100_transparent.png,100,9,0,9,0,1,,,,,,,,,,
,,,,5fefefa4c9707d3516361c9c,C,2024-10-23_10h35.15.736,Slot Machine Game,2023.1.3,Win32,59.88023952,5fefefa4c9707d3516361c9c,67167c13dd87566d3602e731,671925949d756462813dbbe2,,,,,,,,,,,,,,,,,,,,,,,,,,,800,,,,,,,,,,,,,,,,,,10,10,,,751.0818,10,up,1.1476,752.2509,0.5,0.3,"[1,3,2]",0.772121512,stimuli/card_0_transparent.png,0,10,0,10,0,1,,,,,,,,,,
,,,,5fefefa4c9707d3516361c9c,C,2024-10-23_10h35.15.736,Slot Machine Game,2023.1.3,Win32,59.88023952,5fefefa4c9707d3516361c9c,67167c13dd87566d3602e731,671925949d756462813dbbe2,,,,,,,,,,,,,,,,,,,,,,,,,,,900,,,,,,,,,,,,,,,,,,10,10,,,753.0478,11,up,0.7173,753.7844,0.5,0.3,"[1,3,2]",0.046258785,stimuli/card_100_transparent.png,100,11,0,11,0,1,,,,,,,,,,
,,,,5fefefa4c9707d3516361c9c,C,2024-10-23_10h35.15.736,Slot Machine Game,2023.1.3,Win32,59.88023952,5fefefa4c9707d3516361c9c,67167c13dd87566d3602e731,671925949d756462813dbbe2,,,,,,,,,,,,,,,,,,,,,,,,,,,900,,,,,,,,,,,,,,,,,,10,10,,,754.5836,12,up,0.7678,755.3849,1,0.3,"[1,3,2]",0.390854134,stimuli/card_0_transparent.png,0,12,0,12,0,1,,,,,,,,,,
,,,,5fefefa4c9707d3516361c9c,C,2024-10-23_10h35.15.736,Slot Machine Game,2023.1.3,Win32,59.88023952,5fefefa4c9707d3516361c9c,67167c13dd87566d3602e731,671925949d756462813dbbe2,,,,,,,,,,,,,,,,,,,,,,,,,,,900,,,,,,,,,,,,,,,,,,10,10,,,756.6841,13,up,0.5008,757.2179,1.5,0.3,"[1,3,2]",0.308131766,stimuli/card_0_transparent.png,0,13,0,13,0,1,,,,,,,,,,
,,,,5fefefa4c9707d3516361c9c,C,2024-10-23_10h35.15.736,Slot Machine Game,2023.1.3,Win32,59.88023952,5fefefa4c9707d3516361c9c,67167c13dd87566d3602e731,671925949d756462813dbbe2,,,,,,,,,,,,,,,,,,,,,,,,,,,910,,,,,,,,,,,,,,,,,,10,10,,,759.0154,14,right,1.4809,760.5169,0.5,0.3,"[1,3,2]",0.291087166,stimuli/card_10_transparent.png,10,14,0,14,0,1,,,,,,,,,,
,,,,5fefefa4c9707d3516361c9c,C,2024-10-23_10h35.15.736,Slot Machine Game,2023.1.3,Win32,59.88023952,5fefefa4c9707d3516361c9c,67167c13dd87566d3602e731,671925949d756462813dbbe2,,,,,,,,,,,,,,,,,,,,,,,,,,,,,,,,,,761.3162,,,,,,,,,,,,,,,,,,,,,,,,,,,,,,,"[930,920,1030,730,730,830,360,290,550,910]",9,0,9,0,1,,,,
,,,,5fefefa4c9707d3516361c9c,C,2024-10-23_10h35.15.736,Slot Machine Game,2023.1.3,Win32,59.88023952,5fefefa4c9707d3516361c9c,67167c13dd87566d3602e731,671925949d756462813dbbe2,,,,,,,,,,,,,,,,,,,,,,,,,,,,,,,,,,,,,,,,,,,,,,,,,,,,,,,,,,,,,,,,,,,,,,,9,"[930,920,1030,730,730,830,360,290,550,910]",9.2,2024-10-23_10h48.06.215
