key_resp_welcome_started,key_resp_welcome_keys,key_resp_welcome_rt,key_resp_welcome_duration,prolific_pid,path_id,date,expName,psychopyVersion,OS,frameRate,key_resp_instruction1_started,key_resp_instruction1_keys,key_resp_instruction1_rt,key_resp_instruction1_duration,key_resp_instruction2_started,key_resp_instruction2_keys,key_resp_instruction2_rt,key_resp_instruction2_duration,key_resp_instruction3_started,key_resp_instruction3_keys,key_resp_instruction3_rt,key_resp_instruction3_duration,key_resp_instruction4_started,key_resp_instruction4_keys,key_resp_instruction4_rt,key_resp_instruction4_duration,practiceCondition,practice_reward_seqs,practice_trial_started,practice_trial_num,prac_presentationInterval,practice_reward_seq,practice_trials.thisRepN,practice_trials.thisTrialN,practice_trials.thisN,practice_trials.thisIndex,practice_trials.ran,practice_resp_rt,practice_keypress_time,practice_resp_keys,reward_img,cumulative_reward,trial_reward,block_break_started,practice_end_time,practice_end_keys,practice_end_rt,practice_end_duration,main_instruction_text_started,block_condition,block_order_indices,main_instruction_keys,main_instruction_rt,main_instruction_duration,block_number,block_assignment,current_condition,main_reward_seqs,main_trial_started,main_trial_num,main_trial_keys,main_trial_rt,main_trial_keypress_time,main_presentationInterval,reward_presentation_time,main_reward_seq,reward_rand_val,main_reward_img,current_reward,main_trials.thisRepN,main_trials.thisTrialN,main_trials.thisN,main_trials.thisIndex,main_trials.ran,block_reward,block.thisRepN,block.thisTrialN,block.thisN,block.thisIndex,block.ran,block_reward.length,block_reward_all,reward_amount,date_end_task
0.0004,return,1.4478,,embertesting2,B,2024-08-16_13h26.22.850,Slot Machine Game,2023.1.3,MacIntel,60.24096386,,,,,,,,,,,,,,,,,,,,,,,,,,,,,,,,,,,,,,,,,,,,,,,,,,,,,,,,,,,,,,,,,,,,,,,,,,
,,,,embertesting2,B,2024-08-16_13h26.22.850,Slot Machine Game,2023.1.3,MacIntel,60.24096386,1.4685,return,0.6666,,,,,,,,,,,,,,,,,,,,,,,,,,,,,,,,,,,,,,,,,,,,,,,,,,,,,,,,,,,,,,,,,,,,,,,
,,,,embertesting2,B,2024-08-16_13h26.22.850,Slot Machine Game,2023.1.3,MacIntel,60.24096386,,,,,2.1521,return,0.321,,,,,,,,,,,,,,,,,,,,,,,,,,,,,,,,,,,,,,,,,,,,,,,,,,,,,,,,,,,,,,,,,,,
,,,,embertesting2,B,2024-08-16_13h26.22.850,Slot Machine Game,2023.1.3,MacIntel,60.24096386,,,,,,,,,2.5192,return,0.3707,,,,,,,,,,,,,,,,,,,,,,,,,,,,,,,,,,,,,,,,,,,,,,,,,,,,,,,,,,,,,,,
,,,,embertesting2,B,2024-08-16_13h26.22.850,Slot Machine Game,2023.1.3,MacIntel,60.24096386,,,,,,,,,,,,,,,,,,,,,,,,,,,,,,,,,,,,,,,,,,,,,,,,,,,,,,,,,,,,,,,,,,,,,,,,,,
,,,,embertesting2,B,2024-08-16_13h26.22.850,Slot Machine Game,2023.1.3,MacIntel,60.24096386,,,,,,,,,,,,,147.9103,lcommand,6.4187,,,,,,,,,,,,,,,,,,,,,,,,,,,,,,,,,,,,,,,,,,,,,,,,,,,,,,,,,,,
,,,,embertesting2,B,2024-08-16_13h26.22.850,Slot Machine Game,2023.1.3,MacIntel,60.24096386,,,,,,,,,,,,,,,,,"[9,15]","[[2,1,3],[2,3,1]]",154.3612,0,0.5,"[2,1,3]",0,0,0,0,1,,,,,,,,,,,,,,,,,,,,,,,,,,,,,,,,,,,,,,,,,,,,,,,
,,,,embertesting2,B,2024-08-16_13h26.22.850,Slot Machine Game,2023.1.3,MacIntel,60.24096386,,,,,,,,,,,,,,,,,,,159.8793,1,1.5,"[2,1,3]",1,0,1,0,1,,,,,,,,,,,,,,,,,,,,,,,,,,,,,,,,,,,,,,,,,,,,,,,
,,,,embertesting2,B,2024-08-16_13h26.22.850,Slot Machine Game,2023.1.3,MacIntel,60.24096386,,,,,,,,,,,,,,,,,,,165.3943,2,0.5,"[2,1,3]",2,0,2,0,1,,,,,,,,,,,,,,,,,,,,,,,,,,,,,,,,,,,,,,,,,,,,,,,
,,,,embertesting2,B,2024-08-16_13h26.22.850,Slot Machine Game,2023.1.3,MacIntel,60.24096386,,,,,,,,,,,,,,,,,,,170.8984,3,0.5,"[2,1,3]",3,0,3,0,1,,,,,,,,,,,,,,,,,,,,,,,,,,,,,,,,,,,,,,,,,,,,,,,
,,,,embertesting2,B,2024-08-16_13h26.22.850,Slot Machine Game,2023.1.3,MacIntel,60.24096386,,,,,,,,,,,,,,,,,,,570.9583,4,1,"[2,1,3]",4,0,4,0,1,,,,,,,,,,,,,,,,,,,,,,,,,,,,,,,,,,,,,,,,,,,,,,,
,,,,embertesting2,B,2024-08-16_13h26.22.850,Slot Machine Game,2023.1.3,MacIntel,60.24096386,,,,,,,,,,,,,,,,,,,593.6689,5,1.5,"[2,1,3]",5,0,5,0,1,,,,,,,,,,,,,,,,,,,,,,,,,,,,,,,,,,,,,,,,,,,,,,,
,,,,embertesting2,B,2024-08-16_13h26.22.850,Slot Machine Game,2023.1.3,MacIntel,60.24096386,,,,,,,,,,,,,,,,,,,616.3458,6,1,"[2,1,3]",6,0,6,0,1,,,,,,,,,,,,,,,,,,,,,,,,,,,,,,,,,,,,,,,,,,,,,,,
,,,,embertesting2,B,2024-08-16_13h26.22.850,Slot Machine Game,2023.1.3,MacIntel,60.24096386,,,,,,,,,,,,,,,,,,,621.8509,7,1.5,"[2,1,3]",7,0,7,0,1,,,,,,,,,,,,,,,,,,,,,,,,,,,,,,,,,,,,,,,,,,,,,,,
,,,,embertesting2,B,2024-08-16_13h26.22.850,Slot Machine Game,2023.1.3,MacIntel,60.24096386,,,,,,,,,,,,,,,,,,,627.3544,8,1,"[2,1,3]",8,0,8,0,1,4.5816,631.9725,up,stimuli/card_100_transparent.png,100,100,,,,,,,,,,,,,,,,,,,,,,,,,,,,,,,,,,,,,,,,,
,,,,embertesting2,B,2024-08-16_13h26.22.850,Slot Machine Game,2023.1.3,MacIntel,60.24096386,,,,,,,,,,,,,,,,,,,633.2759,9,1.5,"[2,3,1]",9,0,9,0,1,0.6066,633.9089,up,stimuli/card_100_transparent.png,200,100,,,,,,,,,,,,,,,,,,,,,,,,,,,,,,,,,,,,,,,,,
,,,,embertesting2,B,2024-08-16_13h26.22.850,Slot Machine Game,2023.1.3,MacIntel,60.24096386,,,,,,,,,,,,,,,,,,,635.7411,10,1,"[2,3,1]",10,0,10,0,1,0.5628,636.3418,up,stimuli/card_0_transparent.png,200,0,,,,,,,,,,,,,,,,,,,,,,,,,,,,,,,,,,,,,,,,,
,,,,embertesting2,B,2024-08-16_13h26.22.850,Slot Machine Game,2023.1.3,MacIntel,60.24096386,,,,,,,,,,,,,,,,,,,637.6415,11,1,"[2,3,1]",11,0,11,0,1,0.508,638.1584,up,stimuli/card_0_transparent.png,200,0,,,,,,,,,,,,,,,,,,,,,,,,,,,,,,,,,,,,,,,,,
,,,,embertesting2,B,2024-08-16_13h26.22.850,Slot Machine Game,2023.1.3,MacIntel,60.24096386,,,,,,,,,,,,,,,,,,,639.461,12,0.5,"[2,3,1]",12,0,12,0,1,0.575,640.0601,up,stimuli/card_0_transparent.png,200,0,,,,,,,,,,,,,,,,,,,,,,,,,,,,,,,,,,,,,,,,,
,,,,embertesting2,B,2024-08-16_13h26.22.850,Slot Machine Game,2023.1.3,MacIntel,60.24096386,,,,,,,,,,,,,,,,,,,640.8601,13,1,"[2,3,1]",13,0,13,0,1,0.5006,641.3774,up,stimuli/card_0_transparent.png,200,0,,,,,,,,,,,,,,,,,,,,,,,,,,,,,,,,,,,,,,,,,
,,,,embertesting2,B,2024-08-16_13h26.22.850,Slot Machine Game,2023.1.3,MacIntel,60.24096386,,,,,,,,,,,,,,,,,,,642.6775,14,1.5,"[2,3,1]",14,0,14,0,1,0.5759,643.2614,up,stimuli/card_0_transparent.png,200,0,,,,,,,,,,,,,,,,,,,,,,,,,,,,,,,,,,,,,,,,,
,,,,embertesting2,B,2024-08-16_13h26.22.850,Slot Machine Game,2023.1.3,MacIntel,60.24096386,,,,,,,,,,,,,,,,,"[6,15]","[[1,3,2],[3,1,2]]",650.0673,0,1,"[1,3,2]",0,0,0,0,1,,,,,,,645.0632,,,,,,,,,,,,,,,,,,,,,,,,,,,,,,,,,,,,,,,,
,,,,embertesting2,B,2024-08-16_13h26.22.850,Slot Machine Game,2023.1.3,MacIntel,60.24096386,,,,,,,,,,,,,,,,,,,655.5784,1,1,"[1,3,2]",1,0,1,0,1,,,,,,,,,,,,,,,,,,,,,,,,,,,,,,,,,,,,,,,,,,,,,,,
,,,,embertesting2,B,2024-08-16_13h26.22.850,Slot Machine Game,2023.1.3,MacIntel,60.24096386,,,,,,,,,,,,,,,,,,,661.0893,2,1.5,"[1,3,2]",2,0,2,0,1,,,,,,,,,,,,,,,,,,,,,,,,,,,,,,,,,,,,,,,,,,,,,,,
,,,,embertesting2,B,2024-08-16_13h26.22.850,Slot Machine Game,2023.1.3,MacIntel,60.24096386,,,,,,,,,,,,,,,,,,,666.5921,3,1,"[1,3,2]",3,0,3,0,1,,,,,,,,,,,,,,,,,,,,,,,,,,,,,,,,,,,,,,,,,,,,,,,
,,,,embertesting2,B,2024-08-16_13h26.22.850,Slot Machine Game,2023.1.3,MacIntel,60.24096386,,,,,,,,,,,,,,,,,,,672.0997,4,0.5,"[1,3,2]",4,0,4,0,1,,,,,,,,,,,,,,,,,,,,,,,,,,,,,,,,,,,,,,,,,,,,,,,
,,,,embertesting2,B,2024-08-16_13h26.22.850,Slot Machine Game,2023.1.3,MacIntel,60.24096386,,,,,,,,,,,,,,,,,,,677.6168,5,0.5,"[1,3,2]",5,0,5,0,1,,,,,,,,,,,,,,,,,,,,,,,,,,,,,,,,,,,,,,,,,,,,,,,
,,,,embertesting2,B,2024-08-16_13h26.22.850,Slot Machine Game,2023.1.3,MacIntel,60.24096386,,,,,,,,,,,,,,,,,,,683.1357,6,1,"[3,1,2]",6,0,6,0,1,,,,,,,,,,,,,,,,,,,,,,,,,,,,,,,,,,,,,,,,,,,,,,,
,,,,embertesting2,B,2024-08-16_13h26.22.850,Slot Machine Game,2023.1.3,MacIntel,60.24096386,,,,,,,,,,,,,,,,,,,688.6438,7,1.5,"[3,1,2]",7,0,7,0,1,,,,,,,,,,,,,,,,,,,,,,,,,,,,,,,,,,,,,,,,,,,,,,,
,,,,embertesting2,B,2024-08-16_13h26.22.850,Slot Machine Game,2023.1.3,MacIntel,60.24096386,,,,,,,,,,,,,,,,,,,694.1584,8,1,"[3,1,2]",8,0,8,0,1,,,,,,,,,,,,,,,,,,,,,,,,,,,,,,,,,,,,,,,,,,,,,,,
,,,,embertesting2,B,2024-08-16_13h26.22.850,Slot Machine Game,2023.1.3,MacIntel,60.24096386,,,,,,,,,,,,,,,,,,,699.661,9,0.5,"[3,1,2]",9,0,9,0,1,,,,,,,,,,,,,,,,,,,,,,,,,,,,,,,,,,,,,,,,,,,,,,,
,,,,embertesting2,B,2024-08-16_13h26.22.850,Slot Machine Game,2023.1.3,MacIntel,60.24096386,,,,,,,,,,,,,,,,,,,705.1641,10,1,"[3,1,2]",10,0,10,0,1,,,,,,,,,,,,,,,,,,,,,,,,,,,,,,,,,,,,,,,,,,,,,,,
,,,,embertesting2,B,2024-08-16_13h26.22.850,Slot Machine Game,2023.1.3,MacIntel,60.24096386,,,,,,,,,,,,,,,,,,,710.7194,11,1,"[3,1,2]",11,0,11,0,1,,,,,,,,,,,,,,,,,,,,,,,,,,,,,,,,,,,,,,,,,,,,,,,
,,,,embertesting2,B,2024-08-16_13h26.22.850,Slot Machine Game,2023.1.3,MacIntel,60.24096386,,,,,,,,,,,,,,,,,,,716.2315,12,0.5,"[3,1,2]",12,0,12,0,1,,,,,,,,,,,,,,,,,,,,,,,,,,,,,,,,,,,,,,,,,,,,,,,
,,,,embertesting2,B,2024-08-16_13h26.22.850,Slot Machine Game,2023.1.3,MacIntel,60.24096386,,,,,,,,,,,,,,,,,,,721.7451,13,1.5,"[3,1,2]",13,0,13,0,1,,,,,,,,,,,,,,,,,,,,,,,,,,,,,,,,,,,,,,,,,,,,,,,
,,,,embertesting2,B,2024-08-16_13h26.22.850,Slot Machine Game,2023.1.3,MacIntel,60.24096386,,,,,,,,,,,,,,,,,,,727.2597,14,0.5,"[3,1,2]",14,0,14,0,1,,,,,,,,,,,,,,,,,,,,,,,,,,,,,,,,,,,,,,,,,,,,,,,
,,,,embertesting2,B,2024-08-16_13h26.22.850,Slot Machine Game,2023.1.3,MacIntel,60.24096386,,,,,,,,,,,,,,,,,,,,,,,,,,,,,,,,,,732.7649,737.766,space,20.5962,,,,,,,,,,,,,,,,,,,,,,,,,,,,,,,,,,,,,
,,,,embertesting2,B,2024-08-16_13h26.22.850,Slot Machine Game,2023.1.3,MacIntel,60.24096386,,,,,,,,,,,,,,,,,,,,,,,,,,,,,,,,,,,,,,,758.3802,3,"[0,4,6,3,5,7,8,1,9,2]",space,0.6999,,,,,,,,,,,,,,,,,,,,,,,,,,,,,,,
,,,,embertesting2,B,2024-08-16_13h26.22.850,Slot Machine Game,2023.1.3,MacIntel,60.24096386,,,,,,,,,,,,,,,,,,,,,,,,,,,,,,,,100,,,,,,,,,,,,,1,1,"[12,15]","[[2,1,3],[2,3,1]]",759.1158,0,up,0.5627,759.7114,1,0.3,"[2,1,3]",0.962610065,stimuli/card_100_transparent.png,100,0,0,0,0,1,,,,,,,,,,
,,,,embertesting2,B,2024-08-16_13h26.22.850,Slot Machine Game,2023.1.3,MacIntel,60.24096386,,,,,,,,,,,,,,,,,,,,,,,,,,,,,,,,100,,,,,,,,,,,,,1,1,,,761.0109,1,up,0.5385,761.562,0.5,0.3,"[2,1,3]",0.084806305,stimuli/card_0_transparent.png,0,1,0,1,0,1,,,,,,,,,,
,,,,embertesting2,B,2024-08-16_13h26.22.850,Slot Machine Game,2023.1.3,MacIntel,60.24096386,,,,,,,,,,,,,,,,,,,,,,,,,,,,,,,,200,,,,,,,,,,,,,1,1,,,762.3629,2,up,0.557,762.9451,1.5,0.3,"[2,1,3]",0.807750756,stimuli/card_100_transparent.png,100,2,0,2,0,1,,,,,,,,,,
,,,,embertesting2,B,2024-08-16_13h26.22.850,Slot Machine Game,2023.1.3,MacIntel,60.24096386,,,,,,,,,,,,,,,,,,,,,,,,,,,,,,,,,,,,,,,,,,,,,1,1,,,764.7463,3,,,,0.5,0.3,,,,,3,0,3,0,1,,,,,,,,,,
,,,,embertesting2,B,2024-08-16_13h26.22.850,Slot Machine Game,2023.1.3,MacIntel,60.24096386,,,,,,,,,,,,,,,,,,,,,,,,,,,,,,,,,,,,,,,,,,,,,1,1,,,770.2553,4,,,,1,0.3,,,,,4,0,4,0,1,,,,,,,,,,
,,,,embertesting2,B,2024-08-16_13h26.22.850,Slot Machine Game,2023.1.3,MacIntel,60.24096386,,,,,,,,,,,,,,,,,,,,,,,,,,,,,,,,,,,,,,,,,,,,,1,1,,,775.764,5,,,,1,0.3,,,,,5,0,5,0,1,,,,,,,,,,
,,,,embertesting2,B,2024-08-16_13h26.22.850,Slot Machine Game,2023.1.3,MacIntel,60.24096386,,,,,,,,,,,,,,,,,,,,,,,,,,,,,,,,,,,,,,,,,,,,,1,1,,,781.2806,6,,,,0.5,0.3,,,,,6,0,6,0,1,,,,,,,,,,
,,,,embertesting2,B,2024-08-16_13h26.22.850,Slot Machine Game,2023.1.3,MacIntel,60.24096386,,,,,,,,,,,,,,,,,,,,,,,,,,,,,,,,,,,,,,,,,,,,,1,1,,,786.7918,7,,,,0.5,0.3,,,,,7,0,7,0,1,,,,,,,,,,
,,,,embertesting2,B,2024-08-16_13h26.22.850,Slot Machine Game,2023.1.3,MacIntel,60.24096386,,,,,,,,,,,,,,,,,,,,,,,,,,,,,,,,,,,,,,,,,,,,,1,1,,,792.312,8,,,,1.5,0.3,,,,,8,0,8,0,1,,,,,,,,,,
,,,,embertesting2,B,2024-08-16_13h26.22.850,Slot Machine Game,2023.1.3,MacIntel,60.24096386,,,,,,,,,,,,,,,,,,,,,,,,,,,,,,,,,,,,,,,,,,,,,1,1,,,797.821,9,,,,1,0.3,,,,,9,0,9,0,1,,,,,,,,,,
,,,,embertesting2,B,2024-08-16_13h26.22.850,Slot Machine Game,2023.1.3,MacIntel,60.24096386,,,,,,,,,,,,,,,,,,,,,,,,,,,,,,,,,,,,,,,,,,,,,1,1,,,803.3362,10,,,,0.5,0.3,,,,,10,0,10,0,1,,,,,,,,,,
,,,,embertesting2,B,2024-08-16_13h26.22.850,Slot Machine Game,2023.1.3,MacIntel,60.24096386,,,,,,,,,,,,,,,,,,,,,,,,,,,,,,,,,,,,,,,,,,,,,1,1,,,808.8407,11,,,,1,0.3,,,,,11,0,11,0,1,,,,,,,,,,
,,,,embertesting2,B,2024-08-16_13h26.22.850,Slot Machine Game,2023.1.3,MacIntel,60.24096386,,,,,,,,,,,,,,,,,,,,,,,,,,,,,,,,,,,,,,,,,,,,,1,1,,,814.3471,12,,,,1,0.3,,,,,12,0,12,0,1,,,,,,,,,,
,,,,embertesting2,B,2024-08-16_13h26.22.850,Slot Machine Game,2023.1.3,MacIntel,60.24096386,,,,,,,,,,,,,,,,,,,,,,,,,,,,,,,,,,,,,,,,,,,,,1,1,,,819.8637,13,,,,1,0.3,,,,,13,0,13,0,1,,,,,,,,,,
,,,,embertesting2,B,2024-08-16_13h26.22.850,Slot Machine Game,2023.1.3,MacIntel,60.24096386,,,,,,,,,,,,,,,,,,,,,,,,,,,,,,,,,,,,,,,,,,,,,1,1,,,825.3647,14,,,,1.5,0.3,,,,,14,0,14,0,1,,,,,,,,,,
,,,,embertesting2,B,2024-08-16_13h26.22.850,Slot Machine Game,2023.1.3,MacIntel,60.24096386,,,,,,,,,,,,,,,,,,,,,,,,,,,,,,,,,,830.8843,,,,,,,,,,,,,,,,,,,,,,,,,,,,,,,[200],0,0,0,0,1,,,,
,,,,embertesting2,B,2024-08-16_13h26.22.850,Slot Machine Game,2023.1.3,MacIntel,60.24096386,,,,,,,,,,,,,,,,,,,,,,,,,,,,,,,,,,,,,,,,,,,,,2,5,"[5,15]","[[1,2,3],[3,1,2]]",835.8792,0,,,,1.5,0.3,,,,,0,0,0,0,1,,,,,,,,,,
,,,,embertesting2,B,2024-08-16_13h26.22.850,Slot Machine Game,2023.1.3,MacIntel,60.24096386,,,,,,,,,,,,,,,,,,,,,,,,,,,,,,,,,,,,,,,,,,,,,2,5,,,841.3972,1,,,,0.5,0.3,,,,,1,0,1,0,1,,,,,,,,,,
,,,,embertesting2,B,2024-08-16_13h26.22.850,Slot Machine Game,2023.1.3,MacIntel,60.24096386,,,,,,,,,,,,,,,,,,,,,,,,,,,,,,,,,,,,,,,,,,,,,2,5,,,846.9119,2,,,,1,0.3,,,,,2,0,2,0,1,,,,,,,,,,
,,,,embertesting2,B,2024-08-16_13h26.22.850,Slot Machine Game,2023.1.3,MacIntel,60.24096386,,,,,,,,,,,,,,,,,,,,,,,,,,,,,,,,,,,,,,,,,,,,,2,5,,,852.4237,3,,,,1.5,0.3,,,,,3,0,3,0,1,,,,,,,,,,
,,,,embertesting2,B,2024-08-16_13h26.22.850,Slot Machine Game,2023.1.3,MacIntel,60.24096386,,,,,,,,,,,,,,,,,,,,,,,,,,,,,,,,,,,,,,,,,,,,,2,5,,,857.9386,4,,,,1.5,0.3,,,,,4,0,4,0,1,,,,,,,,,,
,,,,embertesting2,B,2024-08-16_13h26.22.850,Slot Machine Game,2023.1.3,MacIntel,60.24096386,,,,,,,,,,,,,,,,,,,,,,,,,,,,,,,,,,,,,,,,,,,,,2,5,,,863.454,5,,,,0.5,0.3,,,,,5,0,5,0,1,,,,,,,,,,
,,,,embertesting2,B,2024-08-16_13h26.22.850,Slot Machine Game,2023.1.3,MacIntel,60.24096386,,,,,,,,,,,,,,,,,,,,,,,,,,,,,,,,,,,,,,,,,,,,,2,5,,,868.9688,6,,,,0.5,0.3,,,,,6,0,6,0,1,,,,,,,,,,
,,,,embertesting2,B,2024-08-16_13h26.22.850,Slot Machine Game,2023.1.3,MacIntel,60.24096386,,,,,,,,,,,,,,,,,,,,,,,,,,,,,,,,,,,,,,,,,,,,,2,5,,,874.4838,7,,,,1.5,0.3,,,,,7,0,7,0,1,,,,,,,,,,
,,,,embertesting2,B,2024-08-16_13h26.22.850,Slot Machine Game,2023.1.3,MacIntel,60.24096386,,,,,,,,,,,,,,,,,,,,,,,,,,,,,,,,,,,,,,,,,,,,,2,5,,,880.004,8,,,,0.5,0.3,,,,,8,0,8,0,1,,,,,,,,,,
,,,,embertesting2,B,2024-08-16_13h26.22.850,Slot Machine Game,2023.1.3,MacIntel,60.24096386,,,,,,,,,,,,,,,,,,,,,,,,,,,,,,,,,,,,,,,,,,,,,2,5,,,885.5148,9,,,,1,0.3,,,,,9,0,9,0,1,,,,,,,,,,
,,,,embertesting2,B,2024-08-16_13h26.22.850,Slot Machine Game,2023.1.3,MacIntel,60.24096386,,,,,,,,,,,,,,,,,,,,,,,,,,,,,,,,,,,,,,,,,,,,,2,5,,,891.0301,10,,,,0.5,0.3,,,,,10,0,10,0,1,,,,,,,,,,
,,,,embertesting2,B,2024-08-16_13h26.22.850,Slot Machine Game,2023.1.3,MacIntel,60.24096386,,,,,,,,,,,,,,,,,,,,,,,,,,,,,,,,,,,,,,,,,,,,,2,5,,,896.5441,11,,,,0.5,0.3,,,,,11,0,11,0,1,,,,,,,,,,
,,,,embertesting2,B,2024-08-16_13h26.22.850,Slot Machine Game,2023.1.3,MacIntel,60.24096386,,,,,,,,,,,,,,,,,,,,,,,,,,,,,,,,,,,,,,,,,,,,,2,5,,,902.0613,12,,,,1,0.3,,,,,12,0,12,0,1,,,,,,,,,,
,,,,embertesting2,B,2024-08-16_13h26.22.850,Slot Machine Game,2023.1.3,MacIntel,60.24096386,,,,,,,,,,,,,,,,,,,,,,,,,,,,,,,,,,,,,,,,,,,,,2,5,,,907.5766,13,,,,1.5,0.3,,,,,13,0,13,0,1,,,,,,,,,,
,,,,embertesting2,B,2024-08-16_13h26.22.850,Slot Machine Game,2023.1.3,MacIntel,60.24096386,,,,,,,,,,,,,,,,,,,,,,,,,,,,,,,,,,,,,,,,,,,,,2,5,,,913.0909,14,,,,0.5,0.3,,,,,14,0,14,0,1,,,,,,,,,,
,,,,embertesting2,B,2024-08-16_13h26.22.850,Slot Machine Game,2023.1.3,MacIntel,60.24096386,,,,,,,,,,,,,,,,,,,,,,,,,,,,,,,,,,918.6065,,,,,,,,,,,,,,,,,,,,,,,,,,,,,,,"[200,0]",1,0,1,0,1,,,,
,,,,embertesting2,B,2024-08-16_13h26.22.850,Slot Machine Game,2023.1.3,MacIntel,60.24096386,,,,,,,,,,,,,,,,,,,,,,,,,,,,,,,,,,,,,,,,,,,,,3,7,"[9,15]","[[1,3,2],[2,3,1]]",923.606,0,,,,0.5,0.3,,,,,0,0,0,0,1,,,,,,,,,,
,,,,embertesting2,B,2024-08-16_13h26.22.850,Slot Machine Game,2023.1.3,MacIntel,60.24096386,,,,,,,,,,,,,,,,,,,,,,,,,,,,,,,,,,,,,,,,,,,,,3,7,,,929.1192,1,,,,1,0.3,,,,,1,0,1,0,1,,,,,,,,,,
,,,,embertesting2,B,2024-08-16_13h26.22.850,Slot Machine Game,2023.1.3,MacIntel,60.24096386,,,,,,,,,,,,,,,,,,,,,,,,,,,,,,,,,,,,,,,,,,,,,3,7,,,934.6344,2,,,,1,0.3,,,,,2,0,2,0,1,,,,,,,,,,
,,,,embertesting2,B,2024-08-16_13h26.22.850,Slot Machine Game,2023.1.3,MacIntel,60.24096386,,,,,,,,,,,,,,,,,,,,,,,,,,,,,,,,,,,,,,,,,,,,,3,7,,,940.1507,3,,,,1.5,0.3,,,,,3,0,3,0,1,,,,,,,,,,
,,,,embertesting2,B,2024-08-16_13h26.22.850,Slot Machine Game,2023.1.3,MacIntel,60.24096386,,,,,,,,,,,,,,,,,,,,,,,,,,,,,,,,,,,,,,,,,,,,,3,7,,,945.6656,4,,,,1,0.3,,,,,4,0,4,0,1,,,,,,,,,,
,,,,embertesting2,B,2024-08-16_13h26.22.850,Slot Machine Game,2023.1.3,MacIntel,60.24096386,,,,,,,,,,,,,,,,,,,,,,,,,,,,,,,,,,,,,,,,,,,,,3,7,,,951.1817,5,,,,0.5,0.3,,,,,5,0,5,0,1,,,,,,,,,,
,,,,embertesting2,B,2024-08-16_13h26.22.850,Slot Machine Game,2023.1.3,MacIntel,60.24096386,,,,,,,,,,,,,,,,,,,,,,,,,,,,,,,,,,,,,,,,,,,,,3,7,,,956.6954,6,,,,0.5,0.3,,,,,6,0,6,0,1,,,,,,,,,,
,,,,embertesting2,B,2024-08-16_13h26.22.850,Slot Machine Game,2023.1.3,MacIntel,60.24096386,,,,,,,,,,,,,,,,,,,,,,,,,,,,,,,,,,,,,,,,,,,,,3,7,,,962.2115,7,,,,0.5,0.3,,,,,7,0,7,0,1,,,,,,,,,,
,,,,embertesting2,B,2024-08-16_13h26.22.850,Slot Machine Game,2023.1.3,MacIntel,60.24096386,,,,,,,,,,,,,,,,,,,,,,,,,,,,,,,,,,,,,,,,,,,,,3,7,,,967.7256,8,,,,0.5,0.3,,,,,8,0,8,0,1,,,,,,,,,,
,,,,embertesting2,B,2024-08-16_13h26.22.850,Slot Machine Game,2023.1.3,MacIntel,60.24096386,,,,,,,,,,,,,,,,,,,,,,,,,,,,,,,,,,,,,,,,,,,,,3,7,,,973.241,9,,,,1.5,0.3,,,,,9,0,9,0,1,,,,,,,,,,
,,,,embertesting2,B,2024-08-16_13h26.22.850,Slot Machine Game,2023.1.3,MacIntel,60.24096386,,,,,,,,,,,,,,,,,,,,,,,,,,,,,,,,,,,,,,,,,,,,,3,7,,,978.7574,10,,,,1,0.3,,,,,10,0,10,0,1,,,,,,,,,,
,,,,embertesting2,B,2024-08-16_13h26.22.850,Slot Machine Game,2023.1.3,MacIntel,60.24096386,,,,,,,,,,,,,,,,,,,,,,,,,,,,,,,,,,,,,,,,,,,,,3,7,,,984.2726,11,,,,1.5,0.3,,,,,11,0,11,0,1,,,,,,,,,,
,,,,embertesting2,B,2024-08-16_13h26.22.850,Slot Machine Game,2023.1.3,MacIntel,60.24096386,,,,,,,,,,,,,,,,,,,,,,,,,,,,,,,,,,,,,,,,,,,,,3,7,,,989.7859,12,,,,0.5,0.3,,,,,12,0,12,0,1,,,,,,,,,,
,,,,embertesting2,B,2024-08-16_13h26.22.850,Slot Machine Game,2023.1.3,MacIntel,60.24096386,,,,,,,,,,,,,,,,,,,,,,,,,,,,,,,,,,,,,,,,,,,,,3,7,,,995.3029,13,,,,1.5,0.3,,,,,13,0,13,0,1,,,,,,,,,,
,,,,embertesting2,B,2024-08-16_13h26.22.850,Slot Machine Game,2023.1.3,MacIntel,60.24096386,,,,,,,,,,,,,,,,,,,,,,,,,,,,,,,,,,,,,,,,,,,,,3,7,,,1000.8174,14,,,,1.5,0.3,,,,,14,0,14,0,1,,,,,,,,,,
,,,,embertesting2,B,2024-08-16_13h26.22.850,Slot Machine Game,2023.1.3,MacIntel,60.24096386,,,,,,,,,,,,,,,,,,,,,,,,,,,,,,,,,,1006.3321,,,,,,,,,,,,,,,,,,,,,,,,,,,,,,,"[200,0,0]",2,0,2,0,1,,,,
,,,,embertesting2,B,2024-08-16_13h26.22.850,Slot Machine Game,2023.1.3,MacIntel,60.24096386,,,,,,,,,,,,,,,,,,,,,,,,,,,,,,,,,,,,,,,,,,,,,4,4,"[7,15]","[[2,3,1],[1,2,3]]",1011.3352,0,,,,1.5,0.3,,,,,0,0,0,0,1,,,,,,,,,,
,,,,embertesting2,B,2024-08-16_13h26.22.850,Slot Machine Game,2023.1.3,MacIntel,60.24096386,,,,,,,,,,,,,,,,,,,,,,,,,,,,,,,,,,,,,,,,,,,,,4,4,,,1016.8471,1,,,,1.5,0.3,,,,,1,0,1,0,1,,,,,,,,,,
,,,,embertesting2,B,2024-08-16_13h26.22.850,Slot Machine Game,2023.1.3,MacIntel,60.24096386,,,,,,,,,,,,,,,,,,,,,,,,,,,,,,,,,,,,,,,,,,,,,4,4,,,1022.3633,2,,,,1,0.3,,,,,2,0,2,0,1,,,,,,,,,,
,,,,embertesting2,B,2024-08-16_13h26.22.850,Slot Machine Game,2023.1.3,MacIntel,60.24096386,,,,,,,,,,,,,,,,,,,,,,,,,,,,,,,,,,,,,,,,,,,,,4,4,,,1027.8781,3,,,,1.5,0.3,,,,,3,0,3,0,1,,,,,,,,,,
,,,,embertesting2,B,2024-08-16_13h26.22.850,Slot Machine Game,2023.1.3,MacIntel,60.24096386,,,,,,,,,,,,,,,,,,,,,,,,,,,,,,,,,,,,,,,,,,,,,4,4,,,1033.3914,4,,,,1,0.3,,,,,4,0,4,0,1,,,,,,,,,,
,,,,embertesting2,B,2024-08-16_13h26.22.850,Slot Machine Game,2023.1.3,MacIntel,60.24096386,,,,,,,,,,,,,,,,,,,,,,,,,,,,,,,,,,,,,,,,,,,,,4,4,,,1038.908,5,,,,1,0.3,,,,,5,0,5,0,1,,,,,,,,,,
,,,,embertesting2,B,2024-08-16_13h26.22.850,Slot Machine Game,2023.1.3,MacIntel,60.24096386,,,,,,,,,,,,,,,,,,,,,,,,,,,,,,,,,,,,,,,,,,,,,4,4,,,1044.423,6,,,,1,0.3,,,,,6,0,6,0,1,,,,,,,,,,
,,,,embertesting2,B,2024-08-16_13h26.22.850,Slot Machine Game,2023.1.3,MacIntel,60.24096386,,,,,,,,,,,,,,,,,,,,,,,,,,,,,,,,,,,,,,,,,,,,,4,4,,,1049.9365,7,,,,1.5,0.3,,,,,7,0,7,0,1,,,,,,,,,,
,,,,embertesting2,B,2024-08-16_13h26.22.850,Slot Machine Game,2023.1.3,MacIntel,60.24096386,,,,,,,,,,,,,,,,,,,,,,,,,,,,,,,,,,,,,,,,,,,,,4,4,,,1055.4375,8,,,,0.5,0.3,,,,,8,0,8,0,1,,,,,,,,,,
,,,,embertesting2,B,2024-08-16_13h26.22.850,Slot Machine Game,2023.1.3,MacIntel,60.24096386,,,,,,,,,,,,,,,,,,,,,,,,,,,,,,,,,,,,,,,,,,,,,4,4,,,1060.9511,9,,,,1,0.3,,,,,9,0,9,0,1,,,,,,,,,,
,,,,embertesting2,B,2024-08-16_13h26.22.850,Slot Machine Game,2023.1.3,MacIntel,60.24096386,,,,,,,,,,,,,,,,,,,,,,,,,,,,,,,,,,,,,,,,,,,,,4,4,,,1066.467,10,,,,1,0.3,,,,,10,0,10,0,1,,,,,,,,,,
,,,,embertesting2,B,2024-08-16_13h26.22.850,Slot Machine Game,2023.1.3,MacIntel,60.24096386,,,,,,,,,,,,,,,,,,,,,,,,,,,,,,,,,,,,,,,,,,,,,4,4,,,1071.9822,11,,,,1,0.3,,,,,11,0,11,0,1,,,,,,,,,,
,,,,embertesting2,B,2024-08-16_13h26.22.850,Slot Machine Game,2023.1.3,MacIntel,60.24096386,,,,,,,,,,,,,,,,,,,,,,,,,,,,,,,,,,,,,,,,,,,,,4,4,,,1077.4975,12,,,,0.5,0.3,,,,,12,0,12,0,1,,,,,,,,,,
,,,,embertesting2,B,2024-08-16_13h26.22.850,Slot Machine Game,2023.1.3,MacIntel,60.24096386,,,,,,,,,,,,,,,,,,,,,,,,,,,,,,,,,,,,,,,,,,,,,4,4,,,1083.0113,13,,,,0.5,0.3,,,,,13,0,13,0,1,,,,,,,,,,
,,,,embertesting2,B,2024-08-16_13h26.22.850,Slot Machine Game,2023.1.3,MacIntel,60.24096386,,,,,,,,,,,,,,,,,,,,,,,,,,,,,,,,,,,,,,,,,,,,,4,4,,,1088.5272,14,,,,1,0.3,,,,,14,0,14,0,1,,,,,,,,,,
,,,,embertesting2,B,2024-08-16_13h26.22.850,Slot Machine Game,2023.1.3,MacIntel,60.24096386,,,,,,,,,,,,,,,,,,,,,,,,,,,,,,,,,,1094.0421,,,,,,,,,,,,,,,,,,,,,,,,,,,,,,,"[200,0,0,0]",3,0,3,0,1,,,,
,,,,embertesting2,B,2024-08-16_13h26.22.850,Slot Machine Game,2023.1.3,MacIntel,60.24096386,,,,,,,,,,,,,,,,,,,,,,,,,,,,,,,,,,,,,,,,,,,,,5,6,"[4,10,15]","[[2,3,1],[1,3,2],[3,2,1]]",1099.044,0,,,,0.5,0.3,,,,,0,0,0,0,1,,,,,,,,,,
,,,,embertesting2,B,2024-08-16_13h26.22.850,Slot Machine Game,2023.1.3,MacIntel,60.24096386,,,,,,,,,,,,,,,,,,,,,,,,,,,,,,,,,,,,,,,,,,,,,5,6,,,1104.5562,1,,,,1.5,0.3,,,,,1,0,1,0,1,,,,,,,,,,
,,,,embertesting2,B,2024-08-16_13h26.22.850,Slot Machine Game,2023.1.3,MacIntel,60.24096386,,,,,,,,,,,,,,,,,,,,,,,,,,,,,,,,,,,,,,,,,,,,,5,6,,,1110.0717,2,,,,1,0.3,,,,,2,0,2,0,1,,,,,,,,,,
,,,,embertesting2,B,2024-08-16_13h26.22.850,Slot Machine Game,2023.1.3,MacIntel,60.24096386,,,,,,,,,,,,,,,,,,,,,,,,,,,,,,,,,,,,,,,,,,,,,5,6,,,1115.5761,3,,,,0.5,0.3,,,,,3,0,3,0,1,,,,,,,,,,
,,,,embertesting2,B,2024-08-16_13h26.22.850,Slot Machine Game,2023.1.3,MacIntel,60.24096386,,,,,,,,,,,,,,,,,,,,,,,,,,,,,,,,,,,,,,,,,,,,,5,6,,,1121.0853,4,,,,1.5,0.3,,,,,4,0,4,0,1,,,,,,,,,,
,,,,embertesting2,B,2024-08-16_13h26.22.850,Slot Machine Game,2023.1.3,MacIntel,60.24096386,,,,,,,,,,,,,,,,,,,,,,,,,,,,,,,,,,,,,,,,,,,,,5,6,,,1126.601,5,,,,1.5,0.3,,,,,5,0,5,0,1,,,,,,,,,,
,,,,embertesting2,B,2024-08-16_13h26.22.850,Slot Machine Game,2023.1.3,MacIntel,60.24096386,,,,,,,,,,,,,,,,,,,,,,,,,,,,,,,,,,,,,,,,,,,,,5,6,,,1132.1151,6,,,,0.5,0.3,,,,,6,0,6,0,1,,,,,,,,,,
,,,,embertesting2,B,2024-08-16_13h26.22.850,Slot Machine Game,2023.1.3,MacIntel,60.24096386,,,,,,,,,,,,,,,,,,,,,,,,,,,,,,,,,,,,,,,,,,,,,5,6,,,1137.6305,7,,,,0.5,0.3,,,,,7,0,7,0,1,,,,,,,,,,
,,,,embertesting2,B,2024-08-16_13h26.22.850,Slot Machine Game,2023.1.3,MacIntel,60.24096386,,,,,,,,,,,,,,,,,,,,,,,,,,,,,,,,,,,,,,,,,,,,,5,6,,,1143.1458,8,,,,1,0.3,,,,,8,0,8,0,1,,,,,,,,,,
,,,,embertesting2,B,2024-08-16_13h26.22.850,Slot Machine Game,2023.1.3,MacIntel,60.24096386,,,,,,,,,,,,,,,,,,,,,,,,,,,,,,,,,,,,,,,,,,,,,5,6,,,1148.6616,9,,,,0.5,0.3,,,,,9,0,9,0,1,,,,,,,,,,
,,,,embertesting2,B,2024-08-16_13h26.22.850,Slot Machine Game,2023.1.3,MacIntel,60.24096386,,,,,,,,,,,,,,,,,,,,,,,,,,,,,,,,,,,,,,,,,,,,,5,6,,,1154.1758,10,,,,0.5,0.3,,,,,10,0,10,0,1,,,,,,,,,,
,,,,embertesting2,B,2024-08-16_13h26.22.850,Slot Machine Game,2023.1.3,MacIntel,60.24096386,,,,,,,,,,,,,,,,,,,,,,,,,,,,,,,,,,,,,,,,,,,,,5,6,,,1159.6836,11,,,,0.5,0.3,,,,,11,0,11,0,1,,,,,,,,,,
,,,,embertesting2,B,2024-08-16_13h26.22.850,Slot Machine Game,2023.1.3,MacIntel,60.24096386,,,,,,,,,,,,,,,,,,,,,,,,,,,,,,,,,,,,,,,,,,,,,5,6,,,1165.1898,12,,,,0.5,0.3,,,,,12,0,12,0,1,,,,,,,,,,
,,,,embertesting2,B,2024-08-16_13h26.22.850,Slot Machine Game,2023.1.3,MacIntel,60.24096386,,,,,,,,,,,,,,,,,,,,,,,,,,,,,,,,,,,,,,,,,,,,,5,6,,,1170.7052,13,,,,1.5,0.3,,,,,13,0,13,0,1,,,,,,,,,,
,,,,embertesting2,B,2024-08-16_13h26.22.850,Slot Machine Game,2023.1.3,MacIntel,60.24096386,,,,,,,,,,,,,,,,,,,,,,,,,,,,,,,,,,,,,,,,,,,,,5,6,,,1176.2059,14,,,,1,0.3,,,,,14,0,14,0,1,,,,,,,,,,
,,,,embertesting2,B,2024-08-16_13h26.22.850,Slot Machine Game,2023.1.3,MacIntel,60.24096386,,,,,,,,,,,,,,,,,,,,,,,,,,,,,,,,,,1181.7193,,,,,,,,,,,,,,,,,,,,,,,,,,,,,,,"[200,0,0,0,0]",4,0,4,0,1,,,,
,,,,embertesting2,B,2024-08-16_13h26.22.850,Slot Machine Game,2023.1.3,MacIntel,60.24096386,,,,,,,,,,,,,,,,,,,,,,,,,,,,,,,,,,,,,,,,,,,,,6,8,"[11,15]","[[2,1,3],[1,2,3]]",1186.7201,0,,,,0.5,0.3,,,,,0,0,0,0,1,,,,,,,,,,
,,,,embertesting2,B,2024-08-16_13h26.22.850,Slot Machine Game,2023.1.3,MacIntel,60.24096386,,,,,,,,,,,,,,,,,,,,,,,,,,,,,,,,,,,,,,,,,,,,,6,8,,,1192.2333,1,,,,1,0.3,,,,,1,0,1,0,1,,,,,,,,,,
,,,,embertesting2,B,2024-08-16_13h26.22.850,Slot Machine Game,2023.1.3,MacIntel,60.24096386,,,,,,,,,,,,,,,,,,,,,,,,,,,,,,,,,,,,,,,,,,,,,6,8,,,1197.7483,2,,,,1,0.3,,,,,2,0,2,0,1,,,,,,,,,,
,,,,embertesting2,B,2024-08-16_13h26.22.850,Slot Machine Game,2023.1.3,MacIntel,60.24096386,,,,,,,,,,,,,,,,,,,,,,,,,,,,,,,,,,,,,,,,,,,,,6,8,,,1203.2639,3,,,,1,0.3,,,,,3,0,3,0,1,,,,,,,,,,
,,,,embertesting2,B,2024-08-16_13h26.22.850,Slot Machine Game,2023.1.3,MacIntel,60.24096386,,,,,,,,,,,,,,,,,,,,,,,,,,,,,,,,,,,,,,,,,,,,,6,8,,,1208.7796,4,,,,1.5,0.3,,,,,4,0,4,0,1,,,,,,,,,,
,,,,embertesting2,B,2024-08-16_13h26.22.850,Slot Machine Game,2023.1.3,MacIntel,60.24096386,,,,,,,,,,,,,,,,,,,,,,,,,,,,,,,,,,,,,,,,,,,,,6,8,,,1214.2932,5,,,,1,0.3,,,,,5,0,5,0,1,,,,,,,,,,
,,,,embertesting2,B,2024-08-16_13h26.22.850,Slot Machine Game,2023.1.3,MacIntel,60.24096386,,,,,,,,,,,,,,,,,,,,,,,,,,,,,,,,,,,,,,,,,,,,,6,8,,,1219.8094,6,,,,1.5,0.3,,,,,6,0,6,0,1,,,,,,,,,,
,,,,embertesting2,B,2024-08-16_13h26.22.850,Slot Machine Game,2023.1.3,MacIntel,60.24096386,,,,,,,,,,,,,,,,,,,,,,,,,,,,,,,,,,,,,,,,,,,,,6,8,,,1225.3244,7,,,,1,0.3,,,,,7,0,7,0,1,,,,,,,,,,
,,,,embertesting2,B,2024-08-16_13h26.22.850,Slot Machine Game,2023.1.3,MacIntel,60.24096386,,,,,,,,,,,,,,,,,,,,,,,,,,,,,,,,,,,,,,,,,,,,,6,8,,,1230.8394,8,,,,1.5,0.3,,,,,8,0,8,0,1,,,,,,,,,,
,,,,embertesting2,B,2024-08-16_13h26.22.850,Slot Machine Game,2023.1.3,MacIntel,60.24096386,,,,,,,,,,,,,,,,,,,,,,,,,,,,,,,,,,,,,,,,,,,,,6,8,,,1236.3541,9,,,,0.5,0.3,,,,,9,0,9,0,1,,,,,,,,,,
,,,,embertesting2,B,2024-08-16_13h26.22.850,Slot Machine Game,2023.1.3,MacIntel,60.24096386,,,,,,,,,,,,,,,,,,,,,,,,,,,,,,,,,,,,,,,,,,,,,6,8,,,1241.8689,10,,,,0.5,0.3,,,,,10,0,10,0,1,,,,,,,,,,
,,,,embertesting2,B,2024-08-16_13h26.22.850,Slot Machine Game,2023.1.3,MacIntel,60.24096386,,,,,,,,,,,,,,,,,,,,,,,,,,,,,,,,,,,,,,,,,,,,,6,8,,,1247.3851,11,,,,1.5,0.3,,,,,11,0,11,0,1,,,,,,,,,,
,,,,embertesting2,B,2024-08-16_13h26.22.850,Slot Machine Game,2023.1.3,MacIntel,60.24096386,,,,,,,,,,,,,,,,,,,,,,,,,,,,,,,,,,,,,,,,,,,,,6,8,,,1252.9004,12,,,,1.5,0.3,,,,,12,0,12,0,1,,,,,,,,,,
,,,,embertesting2,B,2024-08-16_13h26.22.850,Slot Machine Game,2023.1.3,MacIntel,60.24096386,,,,,,,,,,,,,,,,,,,,,,,,,,,,,,,,,,,,,,,,,,,,,6,8,,,1258.4015,13,,,,0.5,0.3,,,,,13,0,13,0,1,,,,,,,,,,
,,,,embertesting2,B,2024-08-16_13h26.22.850,Slot Machine Game,2023.1.3,MacIntel,60.24096386,,,,,,,,,,,,,,,,,,,,,,,,,,,,,,,,,,,,,,,,,,,,,6,8,,,1263.9148,14,,,,1,0.3,,,,,14,0,14,0,1,,,,,,,,,,
,,,,embertesting2,B,2024-08-16_13h26.22.850,Slot Machine Game,2023.1.3,MacIntel,60.24096386,,,,,,,,,,,,,,,,,,,,,,,,,,,,,,,,,,1269.4301,,,,,,,,,,,,,,,,,,,,,,,,,,,,,,,"[200,0,0,0,0,0]",5,0,5,0,1,,,,
,,,,embertesting2,B,2024-08-16_13h26.22.850,Slot Machine Game,2023.1.3,MacIntel,60.24096386,,,,,,,,,,,,,,,,,,,,,,,,,,,,,,,,,,,,,,,,,,,,,7,9,"[8,15]","[[3,2,1],[3,1,2]]",1274.4301,0,,,,1.5,0.3,,,,,0,0,0,0,1,,,,,,,,,,
,,,,embertesting2,B,2024-08-16_13h26.22.850,Slot Machine Game,2023.1.3,MacIntel,60.24096386,,,,,,,,,,,,,,,,,,,,,,,,,,,,,,,,,,,,,,,,,,,,,7,9,,,1279.9433,1,,,,1,0.3,,,,,1,0,1,0,1,,,,,,,,,,
,,,,embertesting2,B,2024-08-16_13h26.22.850,Slot Machine Game,2023.1.3,MacIntel,60.24096386,,,,,,,,,,,,,,,,,,,,,,,,,,,,,,,,,,,,,,,,,,,,,7,9,,,1285.4579,2,,,,1,0.3,,,,,2,0,2,0,1,,,,,,,,,,
,,,,embertesting2,B,2024-08-16_13h26.22.850,Slot Machine Game,2023.1.3,MacIntel,60.24096386,,,,,,,,,,,,,,,,,,,,,,,,,,,,,,,,,,,,,,,,,,,,,7,9,,,1290.972,3,,,,1.5,0.3,,,,,3,0,3,0,1,,,,,,,,,,
,,,,embertesting2,B,2024-08-16_13h26.22.850,Slot Machine Game,2023.1.3,MacIntel,60.24096386,,,,,,,,,,,,,,,,,,,,,,,,,,,,,,,,,,,,,,,,,,,,,7,9,,,1296.4883,4,,,,1,0.3,,,,,4,0,4,0,1,,,,,,,,,,
,,,,embertesting2,B,2024-08-16_13h26.22.850,Slot Machine Game,2023.1.3,MacIntel,60.24096386,,,,,,,,,,,,,,,,,,,,,,,,,,,,,,,,,,,,,,,,,,,,,7,9,,,1302.0025,5,,,,0.5,0.3,,,,,5,0,5,0,1,,,,,,,,,,
,,,,embertesting2,B,2024-08-16_13h26.22.850,Slot Machine Game,2023.1.3,MacIntel,60.24096386,,,,,,,,,,,,,,,,,,,,,,,,,,,,,,,,,,,,,,,,,,,,,7,9,,,1307.5037,6,,,,0.5,0.3,,,,,6,0,6,0,1,,,,,,,,,,
,,,,embertesting2,B,2024-08-16_13h26.22.850,Slot Machine Game,2023.1.3,MacIntel,60.24096386,,,,,,,,,,,,,,,,,,,,,,,,,,,,,,,,,,,,,,,,,,,,,7,9,,,1313.0168,7,,,,1.5,0.3,,,,,7,0,7,0,1,,,,,,,,,,
,,,,embertesting2,B,2024-08-16_13h26.22.850,Slot Machine Game,2023.1.3,MacIntel,60.24096386,,,,,,,,,,,,,,,,,,,,,,,,,,,,,,,,,,,,,,,,,,,,,7,9,,,1318.5316,8,,,,1,0.3,,,,,8,0,8,0,1,,,,,,,,,,
,,,,embertesting2,B,2024-08-16_13h26.22.850,Slot Machine Game,2023.1.3,MacIntel,60.24096386,,,,,,,,,,,,,,,,,,,,,,,,,,,,,,,,,,,,,,,,,,,,,7,9,,,1324.0476,9,,,,1,0.3,,,,,9,0,9,0,1,,,,,,,,,,
,,,,embertesting2,B,2024-08-16_13h26.22.850,Slot Machine Game,2023.1.3,MacIntel,60.24096386,,,,,,,,,,,,,,,,,,,,,,,,,,,,,,,,,,,,,,,,,,,,,7,9,,,1329.5648,10,,,,1,0.3,,,,,10,0,10,0,1,,,,,,,,,,
,,,,embertesting2,B,2024-08-16_13h26.22.850,Slot Machine Game,2023.1.3,MacIntel,60.24096386,,,,,,,,,,,,,,,,,,,,,,,,,,,,,,,,,,,,,,,,,,,,,7,9,,,1335.0791,11,,,,1,0.3,,,,,11,0,11,0,1,,,,,,,,,,
,,,,embertesting2,B,2024-08-16_13h26.22.850,Slot Machine Game,2023.1.3,MacIntel,60.24096386,,,,,,,,,,,,,,,,,,,,,,,,,,,,,,,,,,,,,,,,,,,,,7,9,,,1340.5927,12,,,,1.5,0.3,,,,,12,0,12,0,1,,,,,,,,,,
,,,,embertesting2,B,2024-08-16_13h26.22.850,Slot Machine Game,2023.1.3,MacIntel,60.24096386,,,,,,,,,,,,,,,,,,,,,,,,,,,,,,,,,,,,,,,,,,,,,7,9,,,1346.1074,13,,,,1,0.3,,,,,13,0,13,0,1,,,,,,,,,,
,,,,embertesting2,B,2024-08-16_13h26.22.850,Slot Machine Game,2023.1.3,MacIntel,60.24096386,,,,,,,,,,,,,,,,,,,,,,,,,,,,,,,,,,,,,,,,,,,,,7,9,,,1351.6241,14,,,,0.5,0.3,,,,,14,0,14,0,1,,,,,,,,,,
,,,,embertesting2,B,2024-08-16_13h26.22.850,Slot Machine Game,2023.1.3,MacIntel,60.24096386,,,,,,,,,,,,,,,,,,,,,,,,,,,,,,,,,,1357.1396,,,,,,,,,,,,,,,,,,,,,,,,,,,,,,,"[200,0,0,0,0,0,0]",6,0,6,0,1,,,,
,,,,embertesting2,B,2024-08-16_13h26.22.850,Slot Machine Game,2023.1.3,MacIntel,60.24096386,,,,,,,,,,,,,,,,,,,,,,,,,,,,,,,,,,,,,,,,,,,,,8,2,"[6,15]","[[1,3,2],[3,2,1]]",1362.1401,0,,,,1,0.3,,,,,0,0,0,0,1,,,,,,,,,,
,,,,embertesting2,B,2024-08-16_13h26.22.850,Slot Machine Game,2023.1.3,MacIntel,60.24096386,,,,,,,,,,,,,,,,,,,,,,,,,,,,,,,,,,,,,,,,,,,,,8,2,,,1367.6538,1,,,,0.5,0.3,,,,,1,0,1,0,1,,,,,,,,,,
,,,,embertesting2,B,2024-08-16_13h26.22.850,Slot Machine Game,2023.1.3,MacIntel,60.24096386,,,,,,,,,,,,,,,,,,,,,,,,,,,,,,,,,,,,,,,,,,,,,8,2,,,1373.1669,2,,,,1.5,0.3,,,,,2,0,2,0,1,,,,,,,,,,
,,,,embertesting2,B,2024-08-16_13h26.22.850,Slot Machine Game,2023.1.3,MacIntel,60.24096386,,,,,,,,,,,,,,,,,,,,,,,,,,,,,,,,,,,,,,,,,,,,,8,2,,,1378.6688,3,,,,0.5,0.3,,,,,3,0,3,0,1,,,,,,,,,,
,,,,embertesting2,B,2024-08-16_13h26.22.850,Slot Machine Game,2023.1.3,MacIntel,60.24096386,,,,,,,,,,,,,,,,,,,,,,,,,,,,,,,,,,,,,,,,,,,,,8,2,,,1384.1807,4,,,,1,0.3,,,,,4,0,4,0,1,,,,,,,,,,
,,,,embertesting2,B,2024-08-16_13h26.22.850,Slot Machine Game,2023.1.3,MacIntel,60.24096386,,,,,,,,,,,,,,,,,,,,,,,,,,,,,,,,,,,,,,,,,,,,,8,2,,,1389.6973,5,,,,0.5,0.3,,,,,5,0,5,0,1,,,,,,,,,,
,,,,embertesting2,B,2024-08-16_13h26.22.850,Slot Machine Game,2023.1.3,MacIntel,60.24096386,,,,,,,,,,,,,,,,,,,,,,,,,,,,,,,,,,,,,,,,,,,,,8,2,,,1395.2125,6,,,,1,0.3,,,,,6,0,6,0,1,,,,,,,,,,
,,,,embertesting2,B,2024-08-16_13h26.22.850,Slot Machine Game,2023.1.3,MacIntel,60.24096386,,,,,,,,,,,,,,,,,,,,,,,,,,,,,,,,,,,,,,,,,,,,,8,2,,,1400.7275,7,,,,1,0.3,,,,,7,0,7,0,1,,,,,,,,,,
,,,,embertesting2,B,2024-08-16_13h26.22.850,Slot Machine Game,2023.1.3,MacIntel,60.24096386,,,,,,,,,,,,,,,,,,,,,,,,,,,,,,,,,,,,,,,,,,,,,8,2,,,1406.2444,8,,,,1.5,0.3,,,,,8,0,8,0,1,,,,,,,,,,
,,,,embertesting2,B,2024-08-16_13h26.22.850,Slot Machine Game,2023.1.3,MacIntel,60.24096386,,,,,,,,,,,,,,,,,,,,,,,,,,,,,,,,,,,,,,,,,,,,,8,2,,,1411.7576,9,,,,1,0.3,,,,,9,0,9,0,1,,,,,,,,,,
,,,,embertesting2,B,2024-08-16_13h26.22.850,Slot Machine Game,2023.1.3,MacIntel,60.24096386,,,,,,,,,,,,,,,,,,,,,,,,,,,,,,,,,,,,,,,,,,,,,8,2,,,1417.2725,10,,,,1,0.3,,,,,10,0,10,0,1,,,,,,,,,,
,,,,embertesting2,B,2024-08-16_13h26.22.850,Slot Machine Game,2023.1.3,MacIntel,60.24096386,,,,,,,,,,,,,,,,,,,,,,,,,,,,,,,,,,,,,,,,,,,,,8,2,,,1422.7892,11,,,,0.5,0.3,,,,,11,0,11,0,1,,,,,,,,,,
,,,,embertesting2,B,2024-08-16_13h26.22.850,Slot Machine Game,2023.1.3,MacIntel,60.24096386,,,,,,,,,,,,,,,,,,,,,,,,,,,,,,,,,,,,,,,,,,,,,8,2,,,1428.3037,12,,,,1,0.3,,,,,12,0,12,0,1,,,,,,,,,,
,,,,embertesting2,B,2024-08-16_13h26.22.850,Slot Machine Game,2023.1.3,MacIntel,60.24096386,,,,,,,,,,,,,,,,,,,,,,,,,,,,,,,,,,,,,,,,,,,,,8,2,,,1433.8182,13,,,,1.5,0.3,,,,,13,0,13,0,1,,,,,,,,,,
,,,,embertesting2,B,2024-08-16_13h26.22.850,Slot Machine Game,2023.1.3,MacIntel,60.24096386,,,,,,,,,,,,,,,,,,,,,,,,,,,,,,,,,,,,,,,,,,,,,8,2,,,1439.3331,14,,,,1.5,0.3,,,,,14,0,14,0,1,,,,,,,,,,
,,,,embertesting2,B,2024-08-16_13h26.22.850,Slot Machine Game,2023.1.3,MacIntel,60.24096386,,,,,,,,,,,,,,,,,,,,,,,,,,,,,,,,,,1444.8487,,,,,,,,,,,,,,,,,,,,,,,,,,,,,,,"[200,0,0,0,0,0,0,0]",7,0,7,0,1,,,,
,,,,embertesting2,B,2024-08-16_13h26.22.850,Slot Machine Game,2023.1.3,MacIntel,60.24096386,,,,,,,,,,,,,,,,,,,,,,,,,,,,,,,,,,,,,,,,,,,,,9,10,"[10,15]","[[3,1,2],[1,3,2]]",1449.8508,0,,,,0.5,0.3,,,,,0,0,0,0,1,,,,,,,,,,
,,,,embertesting2,B,2024-08-16_13h26.22.850,Slot Machine Game,2023.1.3,MacIntel,60.24096386,,,,,,,,,,,,,,,,,,,,,,,,,,,,,,,,,,,,,,,,,,,,,9,10,,,1455.3633,1,,,,0.5,0.3,,,,,1,0,1,0,1,,,,,,,,,,
,,,,embertesting2,B,2024-08-16_13h26.22.850,Slot Machine Game,2023.1.3,MacIntel,60.24096386,,,,,,,,,,,,,,,,,,,,,,,,,,,,,,,,,,,,,,,,,,,,,9,10,,,1460.8802,2,,,,0.5,0.3,,,,,2,0,2,0,1,,,,,,,,,,
,,,,embertesting2,B,2024-08-16_13h26.22.850,Slot Machine Game,2023.1.3,MacIntel,60.24096386,,,,,,,,,,,,,,,,,,,,,,,,,,,,,,,,,,,,,,,,,,,,,9,10,,,1466.395,3,,,,1.5,0.3,,,,,3,0,3,0,1,,,,,,,,,,
,,,,embertesting2,B,2024-08-16_13h26.22.850,Slot Machine Game,2023.1.3,MacIntel,60.24096386,,,,,,,,,,,,,,,,,,,,,,,,,,,,,,,,,,,,,,,,,,,,,9,10,,,1471.91,4,,,,1,0.3,,,,,4,0,4,0,1,,,,,,,,,,
,,,,embertesting2,B,2024-08-16_13h26.22.850,Slot Machine Game,2023.1.3,MacIntel,60.24096386,,,,,,,,,,,,,,,,,,,,,,,,,,,,,,,,,,,,,,,,,,,,,9,10,,,1477.4226,5,,,,1.5,0.3,,,,,5,0,5,0,1,,,,,,,,,,
,,,,embertesting2,B,2024-08-16_13h26.22.850,Slot Machine Game,2023.1.3,MacIntel,60.24096386,,,,,,,,,,,,,,,,,,,,,,,,,,,,,,,,,,,,,,,,,,,,,9,10,,,1482.9377,6,,,,1.5,0.3,,,,,6,0,6,0,1,,,,,,,,,,
,,,,embertesting2,B,2024-08-16_13h26.22.850,Slot Machine Game,2023.1.3,MacIntel,60.24096386,,,,,,,,,,,,,,,,,,,,,,,,,,,,,,,,,,,,,,,,,,,,,9,10,,,1488.4537,7,,,,1.5,0.3,,,,,7,0,7,0,1,,,,,,,,,,
,,,,embertesting2,B,2024-08-16_13h26.22.850,Slot Machine Game,2023.1.3,MacIntel,60.24096386,,,,,,,,,,,,,,,,,,,,,,,,,,,,,,,,,,,,,,,,,,,,,9,10,,,1493.9699,8,,,,0.5,0.3,,,,,8,0,8,0,1,,,,,,,,,,
,,,,embertesting2,B,2024-08-16_13h26.22.850,Slot Machine Game,2023.1.3,MacIntel,60.24096386,,,,,,,,,,,,,,,,,,,,,,,,,,,,,,,,,,,,,,,,,,,,,9,10,,,1499.4839,9,,,,0.5,0.3,,,,,9,0,9,0,1,,,,,,,,,,
,,,,embertesting2,B,2024-08-16_13h26.22.850,Slot Machine Game,2023.1.3,MacIntel,60.24096386,,,,,,,,,,,,,,,,,,,,,,,,,,,,,,,,,,,,,,,,,,,,,9,10,,,1505.0015,10,,,,1,0.3,,,,,10,0,10,0,1,,,,,,,,,,
,,,,embertesting2,B,2024-08-16_13h26.22.850,Slot Machine Game,2023.1.3,MacIntel,60.24096386,,,,,,,,,,,,,,,,,,,,,,,,,,,,,,,,,,,,,,,,,,,,,9,10,,,1510.5146,11,,,,0.5,0.3,,,,,11,0,11,0,1,,,,,,,,,,
,,,,embertesting2,B,2024-08-16_13h26.22.850,Slot Machine Game,2023.1.3,MacIntel,60.24096386,,,,,,,,,,,,,,,,,,,,,,,,,,,,,,,,,,,,,,,,,,,,,9,10,,,1516.0307,12,,,,0.5,0.3,,,,,12,0,12,0,1,,,,,,,,,,
,,,,embertesting2,B,2024-08-16_13h26.22.850,Slot Machine Game,2023.1.3,MacIntel,60.24096386,,,,,,,,,,,,,,,,,,,,,,,,,,,,,,,,,,,,,,,,,,,,,9,10,,,1521.545,13,,,,1,0.3,,,,,13,0,13,0,1,,,,,,,,,,
,,,,embertesting2,B,2024-08-16_13h26.22.850,Slot Machine Game,2023.1.3,MacIntel,60.24096386,,,,,,,,,,,,,,,,,,,,,,,,,,,,,,,,,,,,,,,,,,,,,9,10,,,1527.0588,14,,,,1,0.3,,,,,14,0,14,0,1,,,,,,,,,,
,,,,embertesting2,B,2024-08-16_13h26.22.850,Slot Machine Game,2023.1.3,MacIntel,60.24096386,,,,,,,,,,,,,,,,,,,,,,,,,,,,,,,,,,1532.5755,,,,,,,,,,,,,,,,,,,,,,,,,,,,,,,"[200,0,0,0,0,0,0,0,0]",8,0,8,0,1,,,,
,,,,embertesting2,B,2024-08-16_13h26.22.850,Slot Machine Game,2023.1.3,MacIntel,60.24096386,,,,,,,,,,,,,,,,,,,,,,,,,,,,,,,,,,,,,,,,,,,,,10,3,"[15,15]","[[3,1,2],[3,1,2]]",1537.5762,0,,,,1,0.3,,,,,0,0,0,0,1,,,,,,,,,,
,,,,embertesting2,B,2024-08-16_13h26.22.850,Slot Machine Game,2023.1.3,MacIntel,60.24096386,,,,,,,,,,,,,,,,,,,,,,,,,,,,,,,,,,,,,,,,,,,,,10,3,,,1543.088,1,,,,1,0.3,,,,,1,0,1,0,1,,,,,,,,,,
,,,,embertesting2,B,2024-08-16_13h26.22.850,Slot Machine Game,2023.1.3,MacIntel,60.24096386,,,,,,,,,,,,,,,,,,,,,,,,,,,,,,,,,,,,,,,,,,,,,10,3,,,1548.6007,2,,,,1.5,0.3,,,,,2,0,2,0,1,,,,,,,,,,
,,,,embertesting2,B,2024-08-16_13h26.22.850,Slot Machine Game,2023.1.3,MacIntel,60.24096386,,,,,,,,,,,,,,,,,,,,,,,,,,,,,,,,,,,,,,,,,,,,,10,3,,,1554.1072,3,,,,0.5,0.3,,,,,3,0,3,0,1,,,,,,,,,,
,,,,embertesting2,B,2024-08-16_13h26.22.850,Slot Machine Game,2023.1.3,MacIntel,60.24096386,,,,,,,,,,,,,,,,,,,,,,,,,,,,,,,,,,,,,,,,,,,,,10,3,,,1559.6299,4,,,,1.5,0.3,,,,,4,0,4,0,1,,,,,,,,,,
,,,,embertesting2,B,2024-08-16_13h26.22.850,Slot Machine Game,2023.1.3,MacIntel,60.24096386,,,,,,,,,,,,,,,,,,,,,,,,,,,,,,,,,,,,,,,,,,,,,10,3,,,1565.1319,5,,,,1.5,0.3,,,,,5,0,5,0,1,,,,,,,,,,
,,,,embertesting2,B,2024-08-16_13h26.22.850,Slot Machine Game,2023.1.3,MacIntel,60.24096386,,,,,,,,,,,,,,,,,,,,,,,,,,,,,,,,,,,,,,,,,,,,,10,3,,,1570.6476,6,,,,1.5,0.3,,,,,6,0,6,0,1,,,,,,,,,,
,,,,embertesting2,B,2024-08-16_13h26.22.850,Slot Machine Game,2023.1.3,MacIntel,60.24096386,,,,,,,,,,,,,,,,,,,,,,,,,,,,,,,,,,,,,,,,,,,,,10,3,,,1576.1626,7,,,,1.5,0.3,,,,,7,0,7,0,1,,,,,,,,,,
,,,,embertesting2,B,2024-08-16_13h26.22.850,Slot Machine Game,2023.1.3,MacIntel,60.24096386,,,,,,,,,,,,,,,,,,,,,,,,,,,,,,,,,,,,,,,,,,,,,10,3,,,1581.6785,8,,,,1.5,0.3,,,,,8,0,8,0,1,,,,,,,,,,
,,,,embertesting2,B,2024-08-16_13h26.22.850,Slot Machine Game,2023.1.3,MacIntel,60.24096386,,,,,,,,,,,,,,,,,,,,,,,,,,,,,,,,10,,,,,,,,,,,,,10,3,,,1587.194,9,left,0.7666,1587.9941,0.5,0.3,"[3,1,2]",0.144063433,stimuli/card_10_transparent.png,10,9,0,9,0,1,,,,,,,,,,
,,,,embertesting2,B,2024-08-16_13h26.22.850,Slot Machine Game,2023.1.3,MacIntel,60.24096386,,,,,,,,,,,,,,,,,,,,,,,,,,,,,,,,110,,,,,,,,,,,,,10,3,,,1588.7933,10,up,0.6334,1589.4599,0.5,0.3,"[3,1,2]",0.779490195,stimuli/card_100_transparent.png,100,10,0,10,0,1,,,,,,,,,,
,,,,embertesting2,B,2024-08-16_13h26.22.850,Slot Machine Game,2023.1.3,MacIntel,60.24096386,,,,,,,,,,,,,,,,,,,,,,,,,,,,,,,,120,,,,,,,,,,,,,10,3,,,1590.2588,11,right,0.595,1590.8751,1.5,0.3,"[3,1,2]",0.900186772,stimuli/card_10_transparent.png,10,11,0,11,0,1,,,,,,,,,,
,,,,embertesting2,B,2024-08-16_13h26.22.850,Slot Machine Game,2023.1.3,MacIntel,60.24096386,,,,,,,,,,,,,,,,,,,,,,,,,,,,,,,,220,,,,,,,,,,,,,10,3,,,1592.6752,12,up,0.7343,1593.4422,1,0.3,"[3,1,2]",0.932473298,stimuli/card_100_transparent.png,100,12,0,12,0,1,,,,,,,,,,
,,,,embertesting2,B,2024-08-16_13h26.22.850,Slot Machine Game,2023.1.3,MacIntel,60.24096386,,,,,,,,,,,,,,,,,,,,,,,,,,,,,,,,320,,,,,,,,,,,,,10,3,,,1594.7403,13,up,0.8684,1595.6247,1,0.3,"[3,1,2]",0.592349785,stimuli/card_100_transparent.png,100,13,0,13,0,1,,,,,,,,,,
,,,,embertesting2,B,2024-08-16_13h26.22.850,Slot Machine Game,2023.1.3,MacIntel,60.24096386,,,,,,,,,,,,,,,,,,,,,,,,,,,,,,,,420,,,,,,,,,,,,,10,3,,,1596.9232,14,up,1.0992,1598.0411,1.5,0.3,"[3,1,2]",0.885762288,stimuli/card_100_transparent.png,100,14,0,14,0,1,,,,,,,,,,
,,,,embertesting2,B,2024-08-16_13h26.22.850,Slot Machine Game,2023.1.3,MacIntel,60.24096386,,,,,,,,,,,,,,,,,,,,,,,,,,,,,,,,,,1599.8395,,,,,,,,,,,,,,,,,,,,,,,,,,,,,,,"[200,0,0,0,0,0,0,0,0,420]",9,0,9,0,1,,,,
,,,,embertesting2,B,2024-08-16_13h26.22.850,Slot Machine Game,2023.1.3,MacIntel,60.24096386,,,,,,,,,,,,,,,,,,,,,,,,,,,,,,,,,,,,,,,,,,,,,,,,,,,,,,,,,,,,,,,,,,,,,,,9,"[200,0,0,0,0,0,0,0,0,420]",0,2024-08-16_13h53.11.744
