key_resp_welcome_started,key_resp_welcome_keys,key_resp_welcome_rt,key_resp_welcome_duration,prolific_id,path_id,date,expName,psychopyVersion,OS,frameRate,key_resp_instruction1_started,key_resp_instruction1_keys,key_resp_instruction1_rt,key_resp_instruction1_duration,key_resp_instruction2_started,key_resp_instruction2_keys,key_resp_instruction2_rt,key_resp_instruction2_duration,key_resp_instruction3_started,key_resp_instruction3_keys,key_resp_instruction3_rt,key_resp_instruction3_duration,key_resp_instruction4_started,key_resp_instruction4_keys,key_resp_instruction4_rt,key_resp_instruction4_duration,practiceCondition,practice_reward_seqs,practice_trial_started,practice_trial_num,practice_resp_rt,practice_resp_duration,practice_resp_keys,prac_presentationInterval,"practice_reward_seq: 2,1,3",reward_img,cumulative_reward,trial_reward,practice_trials.thisRepN,practice_trials.thisTrialN,practice_trials.thisN,practice_trials.thisIndex,practice_trials.ran,"practice_reward_seq: 2,3,1",block_break_started,"practice_reward_seq: 1,3,2","practice_reward_seq: 3,1,2",practice_end_time,practice_end_keys,practice_end_rt,practice_end_duration,main_instruction_text_started,block_condition,block_order_indices,main_instruction_keys,main_instruction_rt,main_instruction_duration,block_number,block_assignment,current_condition,main_reward_seqs,main_trial_started,main_trial_num,main_trial_keys,main_trial_rt,main_trial_duration,main_presentationInterval,reward_presentation_time,main_reward_seq,reward_rand_val,main_reward_img,current_reward,main_trials.thisRepN,main_trials.thisTrialN,main_trials.thisN,main_trials.thisIndex,main_trials.ran,block_reward,block.thisRepN,block.thisTrialN,block.thisN,block.thisIndex,block.ran,block_reward.length,block_reward_all,reward_amount,date_end_task
0.0002,space,2.2142,,656106209a18e3a528c2a761,A,2024-05-17_18h07.17.019,Slot Machine Game,2023.1.3,Win32,60.24096386,,,,,,,,,,,,,,,,,,,,,,,,,,,,,,,,,,,,,,,,,,,,,,,,,,,,,,,,,,,,,,,,,,,,,,,,,,,,,
,,,,656106209a18e3a528c2a761,A,2024-05-17_18h07.17.019,Slot Machine Game,2023.1.3,Win32,60.24096386,2.2313,space,10.4045,,,,,,,,,,,,,,,,,,,,,,,,,,,,,,,,,,,,,,,,,,,,,,,,,,,,,,,,,,,,,,,,,,,,,,,,,,
,,,,656106209a18e3a528c2a761,A,2024-05-17_18h07.17.019,Slot Machine Game,2023.1.3,Win32,60.24096386,,,,,12.6585,space,24.4781,,,,,,,,,,,,,,,,,,,,,,,,,,,,,,,,,,,,,,,,,,,,,,,,,,,,,,,,,,,,,,,,,,,,,,
,,,,656106209a18e3a528c2a761,A,2024-05-17_18h07.17.019,Slot Machine Game,2023.1.3,Win32,60.24096386,,,,,,,,,37.1829,space,13.2934,,,,,,,,,,,,,,,,,,,,,,,,,,,,,,,,,,,,,,,,,,,,,,,,,,,,,,,,,,,,,,,,,,
,,,,656106209a18e3a528c2a761,A,2024-05-17_18h07.17.019,Slot Machine Game,2023.1.3,Win32,60.24096386,,,,,,,,,,,,,,,,,,,,,,,,,,,,,,,,,,,,,,,,,,,,,,,,,,,,,,,,,,,,,,,,,,,,,,,,,,,,,
,,,,656106209a18e3a528c2a761,A,2024-05-17_18h07.17.019,Slot Machine Game,2023.1.3,Win32,60.24096386,,,,,,,,,,,,,192.2657,space,2.1326,,,,,,,,,,,,,,,,,,,,,,,,,,,,,,,,,,,,,,,,,,,,,,,,,,,,,,,,,,,,,,
,,,,656106209a18e3a528c2a761,A,2024-05-17_18h07.17.019,Slot Machine Game,2023.1.3,Win32,60.24096386,,,,,,,,,,,,,,,,,"[9,15]","[[2,1,3],[2,3,1]]",194.4187,0,3.5534,,left,1.5,,stimuli/card_0_transparent.png,0,0,0,0,0,0,1,,,,,,,,,,,,,,,,,,,,,,,,,,,,,,,,,,,,,,,,,,,,
,,,,656106209a18e3a528c2a761,A,2024-05-17_18h07.17.019,Slot Machine Game,2023.1.3,Win32,60.24096386,,,,,,,,,,,,,,,,,,,200.2948,1,1.2024,,up,0.5,,stimuli/card_10_transparent.png,10,10,1,0,1,0,1,,,,,,,,,,,,,,,,,,,,,,,,,,,,,,,,,,,,,,,,,,,,
,,,,656106209a18e3a528c2a761,A,2024-05-17_18h07.17.019,Slot Machine Game,2023.1.3,Win32,60.24096386,,,,,,,,,,,,,,,,,,,202.8302,2,2.06,,up,1.5,,stimuli/card_100_transparent.png,110,100,2,0,2,0,1,,,,,,,,,,,,,,,,,,,,,,,,,,,,,,,,,,,,,,,,,,,,
,,,,656106209a18e3a528c2a761,A,2024-05-17_18h07.17.019,Slot Machine Game,2023.1.3,Win32,60.24096386,,,,,,,,,,,,,,,,,,,207.2012,3,0.9013,,up,1,,stimuli/card_100_transparent.png,210,100,3,0,3,0,1,,,,,,,,,,,,,,,,,,,,,,,,,,,,,,,,,,,,,,,,,,,,
,,,,656106209a18e3a528c2a761,A,2024-05-17_18h07.17.019,Slot Machine Game,2023.1.3,Win32,60.24096386,,,,,,,,,,,,,,,,,,,209.9205,4,0.5534,,up,0.5,,stimuli/card_100_transparent.png,310,100,4,0,4,0,1,,,,,,,,,,,,,,,,,,,,,,,,,,,,,,,,,,,,,,,,,,,,
,,,,656106209a18e3a528c2a761,A,2024-05-17_18h07.17.019,Slot Machine Game,2023.1.3,Win32,60.24096386,,,,,,,,,,,,,,,,,,,211.789,5,0.1334,,up,1,,stimuli/card_100_transparent.png,410,100,5,0,5,0,1,,,,,,,,,,,,,,,,,,,,,,,,,,,,,,,,,,,,,,,,,,,,
,,,,656106209a18e3a528c2a761,A,2024-05-17_18h07.17.019,Slot Machine Game,2023.1.3,Win32,60.24096386,,,,,,,,,,,,,,,,,,,213.741,6,0.0839,,up,1,,stimuli/card_100_transparent.png,510,100,6,0,6,0,1,,,,,,,,,,,,,,,,,,,,,,,,,,,,,,,,,,,,,,,,,,,,
,,,,656106209a18e3a528c2a761,A,2024-05-17_18h07.17.019,Slot Machine Game,2023.1.3,Win32,60.24096386,,,,,,,,,,,,,,,,,,,215.6429,7,1.0225,,up,1.5,,stimuli/card_10_transparent.png,520,10,7,0,7,0,1,,,,,,,,,,,,,,,,,,,,,,,,,,,,,,,,,,,,,,,,,,,,
,,,,656106209a18e3a528c2a761,A,2024-05-17_18h07.17.019,Slot Machine Game,2023.1.3,Win32,60.24096386,,,,,,,,,,,,,,,,,,,218.9796,8,0.7021,,right,1,,stimuli/card_0_transparent.png,520,0,8,0,8,0,1,,,,,,,,,,,,,,,,,,,,,,,,,,,,,,,,,,,,,,,,,,,,
,,,,656106209a18e3a528c2a761,A,2024-05-17_18h07.17.019,Slot Machine Game,2023.1.3,Win32,60.24096386,,,,,,,,,,,,,,,,,,,221.4987,9,0.0386,,right,0.5,,stimuli/card_100_transparent.png,620,100,9,0,9,0,1,,,,,,,,,,,,,,,,,,,,,,,,,,,,,,,,,,,,,,,,,,,,
,,,,656106209a18e3a528c2a761,A,2024-05-17_18h07.17.019,Slot Machine Game,2023.1.3,Win32,60.24096386,,,,,,,,,,,,,,,,,,,222.8502,10,0.1192,,right,1.5,,stimuli/card_10_transparent.png,630,10,10,0,10,0,1,,,,,,,,,,,,,,,,,,,,,,,,,,,,,,,,,,,,,,,,,,,,
,,,,656106209a18e3a528c2a761,A,2024-05-17_18h07.17.019,Slot Machine Game,2023.1.3,Win32,60.24096386,,,,,,,,,,,,,,,,,,,225.2859,11,1.2601,,left,1,,stimuli/card_10_transparent.png,640,10,11,0,11,0,1,,,,,,,,,,,,,,,,,,,,,,,,,,,,,,,,,,,,,,,,,,,,
,,,,656106209a18e3a528c2a761,A,2024-05-17_18h07.17.019,Slot Machine Game,2023.1.3,Win32,60.24096386,,,,,,,,,,,,,,,,,,,228.3556,12,0.0219,,left,1.5,,stimuli/card_10_transparent.png,650,10,12,0,12,0,1,,,,,,,,,,,,,,,,,,,,,,,,,,,,,,,,,,,,,,,,,,,,
,,,,656106209a18e3a528c2a761,A,2024-05-17_18h07.17.019,Slot Machine Game,2023.1.3,Win32,60.24096386,,,,,,,,,,,,,,,,,,,230.6912,13,3.0621,,right,0.5,,stimuli/card_100_transparent.png,750,100,13,0,13,0,1,,,,,,,,,,,,,,,,,,,,,,,,,,,,,,,,,,,,,,,,,,,,
,,,,656106209a18e3a528c2a761,A,2024-05-17_18h07.17.019,Slot Machine Game,2023.1.3,Win32,60.24096386,,,,,,,,,,,,,,,,,,,235.0623,14,0.3015,,right,1,,stimuli/card_100_transparent.png,850,100,14,0,14,0,1,,,,,,,,,,,,,,,,,,,,,,,,,,,,,,,,,,,,,,,,,,,,
,,,,656106209a18e3a528c2a761,A,2024-05-17_18h07.17.019,Slot Machine Game,2023.1.3,Win32,60.24096386,,,,,,,,,,,,,,,,,"[6,15]","[[1,3,2],[3,1,2]]",242.1941,0,1.2356,,left,1,,stimuli/card_100_transparent.png,100,100,0,0,0,0,1,,237.1912,,,,,,,,,,,,,,,,,,,,,,,,,,,,,,,,,,,,,,,,,,
,,,,656106209a18e3a528c2a761,A,2024-05-17_18h07.17.019,Slot Machine Game,2023.1.3,Win32,60.24096386,,,,,,,,,,,,,,,,,,,245.2557,1,0.2416,,left,0.5,,stimuli/card_100_transparent.png,200,100,1,0,1,0,1,,,,,,,,,,,,,,,,,,,,,,,,,,,,,,,,,,,,,,,,,,,,
,,,,656106209a18e3a528c2a761,A,2024-05-17_18h07.17.019,Slot Machine Game,2023.1.3,Win32,60.24096386,,,,,,,,,,,,,,,,,,,246.8073,2,0.0341,,left,0.5,,stimuli/card_100_transparent.png,300,100,2,0,2,0,1,,,,,,,,,,,,,,,,,,,,,,,,,,,,,,,,,,,,,,,,,,,,
,,,,656106209a18e3a528c2a761,A,2024-05-17_18h07.17.019,Slot Machine Game,2023.1.3,Win32,60.24096386,,,,,,,,,,,,,,,,,,,248.1586,3,0.2348,,left,1.5,,stimuli/card_100_transparent.png,400,100,3,0,3,0,1,,,,,,,,,,,,,,,,,,,,,,,,,,,,,,,,,,,,,,,,,,,,
,,,,656106209a18e3a528c2a761,A,2024-05-17_18h07.17.019,Slot Machine Game,2023.1.3,Win32,60.24096386,,,,,,,,,,,,,,,,,,,250.7111,4,0.1172,,left,0.5,,stimuli/card_100_transparent.png,500,100,4,0,4,0,1,,,,,,,,,,,,,,,,,,,,,,,,,,,,,,,,,,,,,,,,,,,,
,,,,656106209a18e3a528c2a761,A,2024-05-17_18h07.17.019,Slot Machine Game,2023.1.3,Win32,60.24096386,,,,,,,,,,,,,,,,,,,252.1458,5,0.0395,,left,1.5,,stimuli/card_100_transparent.png,600,100,5,0,5,0,1,,,,,,,,,,,,,,,,,,,,,,,,,,,,,,,,,,,,,,,,,,,,
,,,,656106209a18e3a528c2a761,A,2024-05-17_18h07.17.019,Slot Machine Game,2023.1.3,Win32,60.24096386,,,,,,,,,,,,,,,,,,,254.4982,6,2.7748,,left,1,,stimuli/card_0_transparent.png,600,0,6,0,6,0,1,,,,,,,,,,,,,,,,,,,,,,,,,,,,,,,,,,,,,,,,,,,,
,,,,656106209a18e3a528c2a761,A,2024-05-17_18h07.17.019,Slot Machine Game,2023.1.3,Win32,60.24096386,,,,,,,,,,,,,,,,,,,259.0865,7,0.2335,,up,1,,stimuli/card_100_transparent.png,700,100,7,0,7,0,1,,,,,,,,,,,,,,,,,,,,,,,,,,,,,,,,,,,,,,,,,,,,
,,,,656106209a18e3a528c2a761,A,2024-05-17_18h07.17.019,Slot Machine Game,2023.1.3,Win32,60.24096386,,,,,,,,,,,,,,,,,,,261.1382,8,0.1591,,up,1,,stimuli/card_100_transparent.png,800,100,8,0,8,0,1,,,,,,,,,,,,,,,,,,,,,,,,,,,,,,,,,,,,,,,,,,,,
,,,,656106209a18e3a528c2a761,A,2024-05-17_18h07.17.019,Slot Machine Game,2023.1.3,Win32,60.24096386,,,,,,,,,,,,,,,,,,,263.1068,9,0.0865,,up,1.5,,stimuli/card_100_transparent.png,900,100,9,0,9,0,1,,,,,,,,,,,,,,,,,,,,,,,,,,,,,,,,,,,,,,,,,,,,
,,,,656106209a18e3a528c2a761,A,2024-05-17_18h07.17.019,Slot Machine Game,2023.1.3,Win32,60.24096386,,,,,,,,,,,,,,,,,,,265.5092,10,0.1251,,up,0.5,,stimuli/card_10_transparent.png,910,10,10,0,10,0,1,,,,,,,,,,,,,,,,,,,,,,,,,,,,,,,,,,,,,,,,,,,,
,,,,656106209a18e3a528c2a761,A,2024-05-17_18h07.17.019,Slot Machine Game,2023.1.3,Win32,60.24096386,,,,,,,,,,,,,,,,,,,266.9439,11,0.234,,up,1,,stimuli/card_0_transparent.png,910,0,11,0,11,0,1,,,,,,,,,,,,,,,,,,,,,,,,,,,,,,,,,,,,,,,,,,,,
,,,,656106209a18e3a528c2a761,A,2024-05-17_18h07.17.019,Slot Machine Game,2023.1.3,Win32,60.24096386,,,,,,,,,,,,,,,,,,,268.996,12,0.0004,,right,1.5,,stimuli/card_100_transparent.png,1010,100,12,0,12,0,1,,,,,,,,,,,,,,,,,,,,,,,,,,,,,,,,,,,,,,,,,,,,
,,,,656106209a18e3a528c2a761,A,2024-05-17_18h07.17.019,Slot Machine Game,2023.1.3,Win32,60.24096386,,,,,,,,,,,,,,,,,,,271.315,13,0.4067,,right,1,,stimuli/card_100_transparent.png,1110,100,13,0,13,0,1,,,,,,,,,,,,,,,,,,,,,,,,,,,,,,,,,,,,,,,,,,,,
,,,,656106209a18e3a528c2a761,A,2024-05-17_18h07.17.019,Slot Machine Game,2023.1.3,Win32,60.24096386,,,,,,,,,,,,,,,,,,,273.5338,14,0.0678,,right,1.5,,stimuli/card_10_transparent.png,1120,10,14,0,14,0,1,,,,,,,,,,,,,,,,,,,,,,,,,,,,,,,,,,,,,,,,,,,,
,,,,656106209a18e3a528c2a761,A,2024-05-17_18h07.17.019,Slot Machine Game,2023.1.3,Win32,60.24096386,,,,,,,,,,,,,,,,,,,,,,,,,,,,,,,,,,,275.9194,,,280.9082,space,2.3367,,,,,,,,,,,,,,,,,,,,,,,,,,,,,,,,,,,,,
,,,,656106209a18e3a528c2a761,A,2024-05-17_18h07.17.019,Slot Machine Game,2023.1.3,Win32,60.24096386,,,,,,,,,,,,,,,,,,,,,,,,,,,,,,,,,,,,,,,,,,283.2605,2,"[2,4,8,0,1,3,9,6,8,5]",space,2.7507,,,,,,,,,,,,,,,,,,,,,,,,,,,,,,,
,,,,656106209a18e3a528c2a761,A,2024-05-17_18h07.17.019,Slot Machine Game,2023.1.3,Win32,60.24096386,,,,,,,,,,,,,,,,,,,,,,,,,,,0,,,,,,,,,,,,,,,,,,,,,1,3,"[15,15]","[[3,1,2],[3,1,2]]",286.0393,0,left,0.4504,,0.5,0.3,"[3,1,2]",0.276836191,stimuli/card_0_transparent.png,0,0,0,0,0,1,,,,,,,,,,
,,,,656106209a18e3a528c2a761,A,2024-05-17_18h07.17.019,Slot Machine Game,2023.1.3,Win32,60.24096386,,,,,,,,,,,,,,,,,,,,,,,,,,,100,,,,,,,,,,,,,,,,,,,,,1,3,,,287.8148,1,up,1.1686,,1,0.3,"[3,1,2]",0.43848688,stimuli/card_100_transparent.png,100,1,0,1,0,1,,,,,,,,,,
,,,,656106209a18e3a528c2a761,A,2024-05-17_18h07.17.019,Slot Machine Game,2023.1.3,Win32,60.24096386,,,,,,,,,,,,,,,,,,,,,,,,,,,200,,,,,,,,,,,,,,,,,,,,,1,3,,,290.801,2,up,0.1499,,1,0.3,"[3,1,2]",0.973388909,stimuli/card_100_transparent.png,100,2,0,2,0,1,,,,,,,,,,
,,,,656106209a18e3a528c2a761,A,2024-05-17_18h07.17.019,Slot Machine Game,2023.1.3,Win32,60.24096386,,,,,,,,,,,,,,,,,,,,,,,,,,,300,,,,,,,,,,,,,,,,,,,,,1,3,,,292.77,3,up,1.4189,,1,0.3,"[3,1,2]",0.427517796,stimuli/card_100_transparent.png,100,3,0,3,0,1,,,,,,,,,,
,,,,656106209a18e3a528c2a761,A,2024-05-17_18h07.17.019,Slot Machine Game,2023.1.3,Win32,60.24096386,,,,,,,,,,,,,,,,,,,,,,,,,,,400,,,,,,,,,,,,,,,,,,,,,1,3,,,296.0228,4,up,0.043,,1.5,0.3,"[3,1,2]",0.971420191,stimuli/card_100_transparent.png,100,4,0,4,0,1,,,,,,,,,,
,,,,656106209a18e3a528c2a761,A,2024-05-17_18h07.17.019,Slot Machine Game,2023.1.3,Win32,60.24096386,,,,,,,,,,,,,,,,,,,,,,,,,,,500,,,,,,,,,,,,,,,,,,,,,1,3,,,298.3752,5,up,1.7186,,1.5,0.3,"[3,1,2]",0.908769345,stimuli/card_100_transparent.png,100,5,0,5,0,1,,,,,,,,,,
,,,,656106209a18e3a528c2a761,A,2024-05-17_18h07.17.019,Slot Machine Game,2023.1.3,Win32,60.24096386,,,,,,,,,,,,,,,,,,,,,,,,,,,510,,,,,,,,,,,,,,,,,,,,,1,3,,,302.4129,6,up,0.1673,,0.5,0.3,"[3,1,2]",0.116520999,stimuli/card_10_transparent.png,10,6,0,6,0,1,,,,,,,,,,
,,,,656106209a18e3a528c2a761,A,2024-05-17_18h07.17.019,Slot Machine Game,2023.1.3,Win32,60.24096386,,,,,,,,,,,,,,,,,,,,,,,,,,,610,,,,,,,,,,,,,,,,,,,,,1,3,,,303.8974,7,up,0.1759,,1.5,0.3,"[3,1,2]",0.52513984,stimuli/card_100_transparent.png,100,7,0,7,0,1,,,,,,,,,,
,,,,656106209a18e3a528c2a761,A,2024-05-17_18h07.17.019,Slot Machine Game,2023.1.3,Win32,60.24096386,,,,,,,,,,,,,,,,,,,,,,,,,,,710,,,,,,,,,,,,,,,,,,,,,1,3,,,306.3832,8,up,0.1337,,1,0.3,"[3,1,2]",0.564072044,stimuli/card_100_transparent.png,100,8,0,8,0,1,,,,,,,,,,
,,,,656106209a18e3a528c2a761,A,2024-05-17_18h07.17.019,Slot Machine Game,2023.1.3,Win32,60.24096386,,,,,,,,,,,,,,,,,,,,,,,,,,,720,,,,,,,,,,,,,,,,,,,,,1,3,,,308.3353,9,up,0.0022,,1,0.3,"[3,1,2]",0.16377435,stimuli/card_10_transparent.png,10,9,0,9,0,1,,,,,,,,,,
,,,,656106209a18e3a528c2a761,A,2024-05-17_18h07.17.019,Slot Machine Game,2023.1.3,Win32,60.24096386,,,,,,,,,,,,,,,,,,,,,,,,,,,820,,,,,,,,,,,,,,,,,,,,,1,3,,,310.1539,10,up,0.1361,,1.5,0.3,"[3,1,2]",0.324984861,stimuli/card_100_transparent.png,100,10,0,10,0,1,,,,,,,,,,
,,,,656106209a18e3a528c2a761,A,2024-05-17_18h07.17.019,Slot Machine Game,2023.1.3,Win32,60.24096386,,,,,,,,,,,,,,,,,,,,,,,,,,,820,,,,,,,,,,,,,,,,,,,,,1,3,,,312.606,11,up,0.0512,,1.5,0.3,"[3,1,2]",0.080449189,stimuli/card_0_transparent.png,0,11,0,11,0,1,,,,,,,,,,
,,,,656106209a18e3a528c2a761,A,2024-05-17_18h07.17.019,Slot Machine Game,2023.1.3,Win32,60.24096386,,,,,,,,,,,,,,,,,,,,,,,,,,,830,,,,,,,,,,,,,,,,,,,,,1,3,,,314.975,12,right,0.0004,,0.5,0.3,"[3,1,2]",0.402204198,stimuli/card_10_transparent.png,10,12,0,12,0,1,,,,,,,,,,
,,,,656106209a18e3a528c2a761,A,2024-05-17_18h07.17.019,Slot Machine Game,2023.1.3,Win32,60.24096386,,,,,,,,,,,,,,,,,,,,,,,,,,,830,,,,,,,,,,,,,,,,,,,,,1,3,,,316.293,13,right,1.173,,0.5,0.3,"[3,1,2]",0.089466241,stimuli/card_0_transparent.png,0,13,0,13,0,1,,,,,,,,,,
,,,,656106209a18e3a528c2a761,A,2024-05-17_18h07.17.019,Slot Machine Game,2023.1.3,Win32,60.24096386,,,,,,,,,,,,,,,,,,,,,,,,,,,930,,,,,,,,,,,,,,,,,,,,,1,3,,,318.7787,14,up,0.2389,,1,0.3,"[3,1,2]",0.430214751,stimuli/card_100_transparent.png,100,14,0,14,0,1,,,,,,,,,,
,,,,656106209a18e3a528c2a761,A,2024-05-17_18h07.17.019,Slot Machine Game,2023.1.3,Win32,60.24096386,,,,,,,,,,,,,,,,,,,,,,,,,,,,,,,,,,,320.831,,,,,,,,,,,,,,,,,,,,,,,,,,,,,,,,,[930],0,0,0,0,1,,,,
,,,,656106209a18e3a528c2a761,A,2024-05-17_18h07.17.019,Slot Machine Game,2023.1.3,Win32,60.24096386,,,,,,,,,,,,,,,,,,,,,,,,,,,100,,,,,,,,,,,,,,,,,,,,,2,5,"[5,15]","[[1,2,3],[3,1,2]]",325.8313,0,left,0.5088,,0.5,0.3,"[1,2,3]",0.459500577,stimuli/card_100_transparent.png,100,0,0,0,0,1,,,,,,,,,,
,,,,656106209a18e3a528c2a761,A,2024-05-17_18h07.17.019,Slot Machine Game,2023.1.3,Win32,60.24096386,,,,,,,,,,,,,,,,,,,,,,,,,,,200,,,,,,,,,,,,,,,,,,,,,2,5,,,327.6544,1,left,0.2357,,0.5,0.3,"[1,2,3]",0.863287401,stimuli/card_100_transparent.png,100,1,0,1,0,1,,,,,,,,,,
,,,,656106209a18e3a528c2a761,A,2024-05-17_18h07.17.019,Slot Machine Game,2023.1.3,Win32,60.24096386,,,,,,,,,,,,,,,,,,,,,,,,,,,300,,,,,,,,,,,,,,,,,,,,,2,5,,,329.2058,2,left,0.2187,,1,0.3,"[1,2,3]",0.350414863,stimuli/card_100_transparent.png,100,2,0,2,0,1,,,,,,,,,,
,,,,656106209a18e3a528c2a761,A,2024-05-17_18h07.17.019,Slot Machine Game,2023.1.3,Win32,60.24096386,,,,,,,,,,,,,,,,,,,,,,,,,,,400,,,,,,,,,,,,,,,,,,,,,2,5,,,331.2412,3,left,0.2005,,0.5,0.3,"[1,2,3]",0.433880813,stimuli/card_100_transparent.png,100,3,0,3,0,1,,,,,,,,,,
,,,,656106209a18e3a528c2a761,A,2024-05-17_18h07.17.019,Slot Machine Game,2023.1.3,Win32,60.24096386,,,,,,,,,,,,,,,,,,,,,,,,,,,500,,,,,,,,,,,,,,,,,,,,,2,5,,,332.7593,4,left,0.2837,,0.5,0.3,"[1,2,3]",0.947645252,stimuli/card_100_transparent.png,100,4,0,4,0,1,,,,,,,,,,
,,,,656106209a18e3a528c2a761,A,2024-05-17_18h07.17.019,Slot Machine Game,2023.1.3,Win32,60.24096386,,,,,,,,,,,,,,,,,,,,,,,,,,,600,,,,,,,,,,,,,,,,,,,,,2,5,,,334.3615,5,left,0.2551,,1.5,0.3,"[3,1,2]",0.008190423,stimuli/card_100_transparent.png,100,5,0,5,0,1,,,,,,,,,,
,,,,656106209a18e3a528c2a761,A,2024-05-17_18h07.17.019,Slot Machine Game,2023.1.3,Win32,60.24096386,,,,,,,,,,,,,,,,,,,,,,,,,,,600,,,,,,,,,,,,,,,,,,,,,2,5,,,336.947,6,left,0.0544,,1.5,0.3,"[3,1,2]",0.932483835,stimuli/card_0_transparent.png,0,6,0,6,0,1,,,,,,,,,,
,,,,656106209a18e3a528c2a761,A,2024-05-17_18h07.17.019,Slot Machine Game,2023.1.3,Win32,60.24096386,,,,,,,,,,,,,,,,,,,,,,,,,,,600,,,,,,,,,,,,,,,,,,,,,2,5,,,339.316,7,left,0.1673,,1.5,0.3,"[3,1,2]",0.463862794,stimuli/card_0_transparent.png,0,7,0,7,0,1,,,,,,,,,,
,,,,656106209a18e3a528c2a761,A,2024-05-17_18h07.17.019,Slot Machine Game,2023.1.3,Win32,60.24096386,,,,,,,,,,,,,,,,,,,,,,,,,,,700,,,,,,,,,,,,,,,,,,,,,2,5,,,341.8017,8,up,0.0334,,0.5,0.3,"[3,1,2]",0.255865156,stimuli/card_100_transparent.png,100,8,0,8,0,1,,,,,,,,,,
,,,,656106209a18e3a528c2a761,A,2024-05-17_18h07.17.019,Slot Machine Game,2023.1.3,Win32,60.24096386,,,,,,,,,,,,,,,,,,,,,,,,,,,700,,,,,,,,,,,,,,,,,,,,,2,5,,,343.1534,9,up,0.2881,,0.5,0.3,"[3,1,2]",0.065297065,stimuli/card_0_transparent.png,0,9,0,9,0,1,,,,,,,,,,
,,,,656106209a18e3a528c2a761,A,2024-05-17_18h07.17.019,Slot Machine Game,2023.1.3,Win32,60.24096386,,,,,,,,,,,,,,,,,,,,,,,,,,,800,,,,,,,,,,,,,,,,,,,,,2,5,,,344.7547,10,up,0.2065,,1.5,0.3,"[3,1,2]",0.54096036,stimuli/card_100_transparent.png,100,10,0,10,0,1,,,,,,,,,,
,,,,656106209a18e3a528c2a761,A,2024-05-17_18h07.17.019,Slot Machine Game,2023.1.3,Win32,60.24096386,,,,,,,,,,,,,,,,,,,,,,,,,,,900,,,,,,,,,,,,,,,,,,,,,2,5,,,347.2738,11,up,0.0874,,1,0.3,"[3,1,2]",0.211752907,stimuli/card_100_transparent.png,100,11,0,11,0,1,,,,,,,,,,
,,,,656106209a18e3a528c2a761,A,2024-05-17_18h07.17.019,Slot Machine Game,2023.1.3,Win32,60.24096386,,,,,,,,,,,,,,,,,,,,,,,,,,,1000,,,,,,,,,,,,,,,,,,,,,2,5,,,349.1756,12,up,1.5689,,1,0.3,"[3,1,2]",0.383289311,stimuli/card_100_transparent.png,100,12,0,12,0,1,,,,,,,,,,
,,,,656106209a18e3a528c2a761,A,2024-05-17_18h07.17.019,Slot Machine Game,2023.1.3,Win32,60.24096386,,,,,,,,,,,,,,,,,,,,,,,,,,,1100,,,,,,,,,,,,,,,,,,,,,2,5,,,352.5624,13,up,0.0504,,0.5,0.3,"[3,1,2]",0.67903659,stimuli/card_100_transparent.png,100,13,0,13,0,1,,,,,,,,,,
,,,,656106209a18e3a528c2a761,A,2024-05-17_18h07.17.019,Slot Machine Game,2023.1.3,Win32,60.24096386,,,,,,,,,,,,,,,,,,,,,,,,,,,1100,,,,,,,,,,,,,,,,,,,,,2,5,,,353.9303,14,up,0.0066,,1.5,0.3,"[3,1,2]",0.016540537,stimuli/card_0_transparent.png,0,14,0,14,0,1,,,,,,,,,,
,,,,656106209a18e3a528c2a761,A,2024-05-17_18h07.17.019,Slot Machine Game,2023.1.3,Win32,60.24096386,,,,,,,,,,,,,,,,,,,,,,,,,,,,,,,,,,,356.2494,,,,,,,,,,,,,,,,,,,,,,,,,,,,,,,,,"[930,1100]",1,0,1,0,1,,,,
,,,,656106209a18e3a528c2a761,A,2024-05-17_18h07.17.019,Slot Machine Game,2023.1.3,Win32,60.24096386,,,,,,,,,,,,,,,,,,,,,,,,,,,0,,,,,,,,,,,,,,,,,,,,,3,9,"[8,15]","[[3,2,1],[3,1,2]]",361.246,0,left,0.8441,,1.5,0.3,"[3,2,1]",0.700575119,stimuli/card_0_transparent.png,0,0,0,0,0,1,,,,,,,,,,
,,,,656106209a18e3a528c2a761,A,2024-05-17_18h07.17.019,Slot Machine Game,2023.1.3,Win32,60.24096386,,,,,,,,,,,,,,,,,,,,,,,,,,,100,,,,,,,,,,,,,,,,,,,,,3,9,,,364.4078,1,left,0.0003,,0.5,0.3,"[3,2,1]",0.095870441,stimuli/card_100_transparent.png,100,1,0,1,0,1,,,,,,,,,,
,,,,656106209a18e3a528c2a761,A,2024-05-17_18h07.17.019,Slot Machine Game,2023.1.3,Win32,60.24096386,,,,,,,,,,,,,,,,,,,,,,,,,,,100,,,,,,,,,,,,,,,,,,,,,3,9,,,365.7256,2,left,0.1175,,1,0.3,"[3,2,1]",0.486617896,stimuli/card_0_transparent.png,0,2,0,2,0,1,,,,,,,,,,
,,,,656106209a18e3a528c2a761,A,2024-05-17_18h07.17.019,Slot Machine Game,2023.1.3,Win32,60.24096386,,,,,,,,,,,,,,,,,,,,,,,,,,,110,,,,,,,,,,,,,,,,,,,,,3,9,,,367.6608,3,up,2.3402,,0.5,0.3,"[3,2,1]",0.302503525,stimuli/card_10_transparent.png,10,3,0,3,0,1,,,,,,,,,,
,,,,656106209a18e3a528c2a761,A,2024-05-17_18h07.17.019,Slot Machine Game,2023.1.3,Win32,60.24096386,,,,,,,,,,,,,,,,,,,,,,,,,,,210,,,,,,,,,,,,,,,,,,,,,3,9,,,371.3144,4,up,0.0171,,0.5,0.3,"[3,2,1]",0.113215861,stimuli/card_100_transparent.png,100,4,0,4,0,1,,,,,,,,,,
,,,,656106209a18e3a528c2a761,A,2024-05-17_18h07.17.019,Slot Machine Game,2023.1.3,Win32,60.24096386,,,,,,,,,,,,,,,,,,,,,,,,,,,220,,,,,,,,,,,,,,,,,,,,,3,9,,,372.649,5,up,0.121,,1.5,0.3,"[3,2,1]",0.716218888,stimuli/card_10_transparent.png,10,5,0,5,0,1,,,,,,,,,,
,,,,656106209a18e3a528c2a761,A,2024-05-17_18h07.17.019,Slot Machine Game,2023.1.3,Win32,60.24096386,,,,,,,,,,,,,,,,,,,,,,,,,,,230,,,,,,,,,,,,,,,,,,,,,3,9,,,375.0848,6,up,1.7519,,1,0.3,"[3,2,1]",0.479122597,stimuli/card_10_transparent.png,10,6,0,6,0,1,,,,,,,,,,
,,,,656106209a18e3a528c2a761,A,2024-05-17_18h07.17.019,Slot Machine Game,2023.1.3,Win32,60.24096386,,,,,,,,,,,,,,,,,,,,,,,,,,,330,,,,,,,,,,,,,,,,,,,,,3,9,,,378.6551,7,right,0.0836,,0.5,0.3,"[3,2,1]",0.735171981,stimuli/card_100_transparent.png,100,7,0,7,0,1,,,,,,,,,,
,,,,656106209a18e3a528c2a761,A,2024-05-17_18h07.17.019,Slot Machine Game,2023.1.3,Win32,60.24096386,,,,,,,,,,,,,,,,,,,,,,,,,,,340,,,,,,,,,,,,,,,,,,,,,3,9,,,380.0565,8,right,0.0407,,0.5,0.3,"[3,1,2]",0.421937922,stimuli/card_10_transparent.png,10,8,0,8,0,1,,,,,,,,,,
,,,,656106209a18e3a528c2a761,A,2024-05-17_18h07.17.019,Slot Machine Game,2023.1.3,Win32,60.24096386,,,,,,,,,,,,,,,,,,,,,,,,,,,350,,,,,,,,,,,,,,,,,,,,,3,9,,,381.4082,9,right,1.5054,,0.5,0.3,"[3,1,2]",0.679645538,stimuli/card_10_transparent.png,10,9,0,9,0,1,,,,,,,,,,
,,,,656106209a18e3a528c2a761,A,2024-05-17_18h07.17.019,Slot Machine Game,2023.1.3,Win32,60.24096386,,,,,,,,,,,,,,,,,,,,,,,,,,,360,,,,,,,,,,,,,,,,,,,,,3,9,,,384.244,10,right,0.0002,,1,0.3,"[3,1,2]",0.534192528,stimuli/card_10_transparent.png,10,10,0,10,0,1,,,,,,,,,,
,,,,656106209a18e3a528c2a761,A,2024-05-17_18h07.17.019,Slot Machine Game,2023.1.3,Win32,60.24096386,,,,,,,,,,,,,,,,,,,,,,,,,,,460,,,,,,,,,,,,,,,,,,,,,3,9,,,386.0624,11,up,0.0585,,1.5,0.3,"[3,1,2]",0.362466264,stimuli/card_100_transparent.png,100,11,0,11,0,1,,,,,,,,,,
,,,,656106209a18e3a528c2a761,A,2024-05-17_18h07.17.019,Slot Machine Game,2023.1.3,Win32,60.24096386,,,,,,,,,,,,,,,,,,,,,,,,,,,560,,,,,,,,,,,,,,,,,,,,,3,9,,,388.4315,12,up,0.1534,,0.5,0.3,"[3,1,2]",0.794096176,stimuli/card_100_transparent.png,100,12,0,12,0,1,,,,,,,,,,
,,,,656106209a18e3a528c2a761,A,2024-05-17_18h07.17.019,Slot Machine Game,2023.1.3,Win32,60.24096386,,,,,,,,,,,,,,,,,,,,,,,,,,,660,,,,,,,,,,,,,,,,,,,,,3,9,,,389.8997,13,up,0.2338,,1,0.3,"[3,1,2]",0.312577872,stimuli/card_100_transparent.png,100,13,0,13,0,1,,,,,,,,,,
,,,,656106209a18e3a528c2a761,A,2024-05-17_18h07.17.019,Slot Machine Game,2023.1.3,Win32,60.24096386,,,,,,,,,,,,,,,,,,,,,,,,,,,760,,,,,,,,,,,,,,,,,,,,,3,9,,,391.9516,14,up,0.3004,,1,0.3,"[3,1,2]",0.581710897,stimuli/card_100_transparent.png,100,14,0,14,0,1,,,,,,,,,,
,,,,656106209a18e3a528c2a761,A,2024-05-17_18h07.17.019,Slot Machine Game,2023.1.3,Win32,60.24096386,,,,,,,,,,,,,,,,,,,,,,,,,,,,,,,,,,,394.0709,,,,,,,,,,,,,,,,,,,,,,,,,,,,,,,,,"[930,1100,760]",2,0,2,0,1,,,,
,,,,656106209a18e3a528c2a761,A,2024-05-17_18h07.17.019,Slot Machine Game,2023.1.3,Win32,60.24096386,,,,,,,,,,,,,,,,,,,,,,,,,,,10,,,,,,,,,,,,,,,,,,,,,4,1,"[12,15]","[[2,1,3],[2,3,1]]",399.086,0,left,0.542,,1,0.3,"[2,1,3]",0.514585185,stimuli/card_10_transparent.png,10,0,0,0,0,1,,,,,,,,,,
,,,,656106209a18e3a528c2a761,A,2024-05-17_18h07.17.019,Slot Machine Game,2023.1.3,Win32,60.24096386,,,,,,,,,,,,,,,,,,,,,,,,,,,110,,,,,,,,,,,,,,,,,,,,,4,1,,,401.4442,1,left,0.0846,,0.5,0.3,"[2,1,3]",0.150893799,stimuli/card_100_transparent.png,100,1,0,1,0,1,,,,,,,,,,
,,,,656106209a18e3a528c2a761,A,2024-05-17_18h07.17.019,Slot Machine Game,2023.1.3,Win32,60.24096386,,,,,,,,,,,,,,,,,,,,,,,,,,,120,,,,,,,,,,,,,,,,,,,,,4,1,,,402.8457,2,left,0.3175,,1.5,0.3,"[2,1,3]",0.364407258,stimuli/card_10_transparent.png,10,2,0,2,0,1,,,,,,,,,,
,,,,656106209a18e3a528c2a761,A,2024-05-17_18h07.17.019,Slot Machine Game,2023.1.3,Win32,60.24096386,,,,,,,,,,,,,,,,,,,,,,,,,,,120,,,,,,,,,,,,,,,,,,,,,4,1,,,405.4827,3,left,0.0839,,0.5,0.3,"[2,1,3]",0.042238267,stimuli/card_0_transparent.png,0,3,0,3,0,1,,,,,,,,,,
,,,,656106209a18e3a528c2a761,A,2024-05-17_18h07.17.019,Slot Machine Game,2023.1.3,Win32,60.24096386,,,,,,,,,,,,,,,,,,,,,,,,,,,120,,,,,,,,,,,,,,,,,,,,,4,1,,,406.8998,4,up,0.0003,,0.5,0.3,"[2,1,3]",0.085373893,stimuli/card_0_transparent.png,0,4,0,4,0,1,,,,,,,,,,
,,,,656106209a18e3a528c2a761,A,2024-05-17_18h07.17.019,Slot Machine Game,2023.1.3,Win32,60.24096386,,,,,,,,,,,,,,,,,,,,,,,,,,,220,,,,,,,,,,,,,,,,,,,,,4,1,,,408.2179,5,up,0.2005,,1,0.3,"[2,1,3]",0.271838789,stimuli/card_100_transparent.png,100,5,0,5,0,1,,,,,,,,,,
,,,,656106209a18e3a528c2a761,A,2024-05-17_18h07.17.019,Slot Machine Game,2023.1.3,Win32,60.24096386,,,,,,,,,,,,,,,,,,,,,,,,,,,320,,,,,,,,,,,,,,,,,,,,,4,1,,,410.2363,6,up,0.1014,,1.5,0.3,"[2,1,3]",0.879722757,stimuli/card_100_transparent.png,100,6,0,6,0,1,,,,,,,,,,
,,,,656106209a18e3a528c2a761,A,2024-05-17_18h07.17.019,Slot Machine Game,2023.1.3,Win32,60.24096386,,,,,,,,,,,,,,,,,,,,,,,,,,,420,,,,,,,,,,,,,,,,,,,,,4,1,,,412.6559,7,up,0.1526,,0.5,0.3,"[2,1,3]",0.244279484,stimuli/card_100_transparent.png,100,7,0,7,0,1,,,,,,,,,,
,,,,656106209a18e3a528c2a761,A,2024-05-17_18h07.17.019,Slot Machine Game,2023.1.3,Win32,60.24096386,,,,,,,,,,,,,,,,,,,,,,,,,,,520,,,,,,,,,,,,,,,,,,,,,4,1,,,414.1403,8,up,0.3246,,0.5,0.3,"[2,1,3]",0.938772383,stimuli/card_100_transparent.png,100,8,0,8,0,1,,,,,,,,,,
,,,,656106209a18e3a528c2a761,A,2024-05-17_18h07.17.019,Slot Machine Game,2023.1.3,Win32,60.24096386,,,,,,,,,,,,,,,,,,,,,,,,,,,620,,,,,,,,,,,,,,,,,,,,,4,1,,,415.7753,9,up,0.4417,,1.5,0.3,"[2,1,3]",0.915370929,stimuli/card_100_transparent.png,100,9,0,9,0,1,,,,,,,,,,
,,,,656106209a18e3a528c2a761,A,2024-05-17_18h07.17.019,Slot Machine Game,2023.1.3,Win32,60.24096386,,,,,,,,,,,,,,,,,,,,,,,,,,,720,,,,,,,,,,,,,,,,,,,,,4,1,,,418.5282,10,up,0.1689,,1,0.3,"[2,1,3]",0.755536401,stimuli/card_100_transparent.png,100,10,0,10,0,1,,,,,,,,,,
,,,,656106209a18e3a528c2a761,A,2024-05-17_18h07.17.019,Slot Machine Game,2023.1.3,Win32,60.24096386,,,,,,,,,,,,,,,,,,,,,,,,,,,820,,,,,,,,,,,,,,,,,,,,,4,1,,,420.5135,11,up,0.1687,,1.5,0.3,"[2,1,3]",0.414555677,stimuli/card_100_transparent.png,100,11,0,11,0,1,,,,,,,,,,
,,,,656106209a18e3a528c2a761,A,2024-05-17_18h07.17.019,Slot Machine Game,2023.1.3,Win32,60.24096386,,,,,,,,,,,,,,,,,,,,,,,,,,,820,,,,,,,,,,,,,,,,,,,,,4,1,,,422.9991,12,up,0.0177,,1.5,0.3,"[2,3,1]",0.647622953,stimuli/card_0_transparent.png,0,12,0,12,0,1,,,,,,,,,,
,,,,656106209a18e3a528c2a761,A,2024-05-17_18h07.17.019,Slot Machine Game,2023.1.3,Win32,60.24096386,,,,,,,,,,,,,,,,,,,,,,,,,,,820,,,,,,,,,,,,,,,,,,,,,4,1,,,425.3351,13,up,0.134,,1.5,0.3,"[2,3,1]",0.229049736,stimuli/card_0_transparent.png,0,13,0,13,0,1,,,,,,,,,,
,,,,656106209a18e3a528c2a761,A,2024-05-17_18h07.17.019,Slot Machine Game,2023.1.3,Win32,60.24096386,,,,,,,,,,,,,,,,,,,,,,,,,,,920,,,,,,,,,,,,,,,,,,,,,4,1,,,427.7872,14,right,0.0169,,1,0.3,"[2,3,1]",0.500568766,stimuli/card_100_transparent.png,100,14,0,14,0,1,,,,,,,,,,
,,,,656106209a18e3a528c2a761,A,2024-05-17_18h07.17.019,Slot Machine Game,2023.1.3,Win32,60.24096386,,,,,,,,,,,,,,,,,,,,,,,,,,,,,,,,,,,429.6225,,,,,,,,,,,,,,,,,,,,,,,,,,,,,,,,,"[930,1100,760,920]",3,0,3,0,1,,,,
,,,,656106209a18e3a528c2a761,A,2024-05-17_18h07.17.019,Slot Machine Game,2023.1.3,Win32,60.24096386,,,,,,,,,,,,,,,,,,,,,,,,,,,100,,,,,,,,,,,,,,,,,,,,,5,2,"[6,15]","[[1,3,2],[3,2,1]]",434.6247,0,left,0.7518,,1.5,0.3,"[1,3,2]",0.890256732,stimuli/card_100_transparent.png,100,0,0,0,0,1,,,,,,,,,,
,,,,656106209a18e3a528c2a761,A,2024-05-17_18h07.17.019,Slot Machine Game,2023.1.3,Win32,60.24096386,,,,,,,,,,,,,,,,,,,,,,,,,,,100,,,,,,,,,,,,,,,,,,,,,5,2,,,437.6972,1,left,0.2668,,1.5,0.3,"[1,3,2]",0.021629234,stimuli/card_0_transparent.png,0,1,0,1,0,1,,,,,,,,,,
,,,,656106209a18e3a528c2a761,A,2024-05-17_18h07.17.019,Slot Machine Game,2023.1.3,Win32,60.24096386,,,,,,,,,,,,,,,,,,,,,,,,,,,200,,,,,,,,,,,,,,,,,,,,,5,2,,,440.2831,2,left,0.1739,,1.5,0.3,"[1,3,2]",0.244758198,stimuli/card_100_transparent.png,100,2,0,2,0,1,,,,,,,,,,
,,,,656106209a18e3a528c2a761,A,2024-05-17_18h07.17.019,Slot Machine Game,2023.1.3,Win32,60.24096386,,,,,,,,,,,,,,,,,,,,,,,,,,,300,,,,,,,,,,,,,,,,,,,,,5,2,,,442.7689,3,left,0.1841,,1,0.3,"[1,3,2]",0.705181698,stimuli/card_100_transparent.png,100,3,0,3,0,1,,,,,,,,,,
,,,,656106209a18e3a528c2a761,A,2024-05-17_18h07.17.019,Slot Machine Game,2023.1.3,Win32,60.24096386,,,,,,,,,,,,,,,,,,,,,,,,,,,400,,,,,,,,,,,,,,,,,,,,,5,2,,,444.7708,4,left,0.0835,,1.5,0.3,"[1,3,2]",0.561690781,stimuli/card_100_transparent.png,100,4,0,4,0,1,,,,,,,,,,
,,,,656106209a18e3a528c2a761,A,2024-05-17_18h07.17.019,Slot Machine Game,2023.1.3,Win32,60.24096386,,,,,,,,,,,,,,,,,,,,,,,,,,,500,,,,,,,,,,,,,,,,,,,,,5,2,,,447.1732,5,left,1.7396,,0.5,0.3,"[1,3,2]",0.700793876,stimuli/card_100_transparent.png,100,5,0,5,0,1,,,,,,,,,,
,,,,656106209a18e3a528c2a761,A,2024-05-17_18h07.17.019,Slot Machine Game,2023.1.3,Win32,60.24096386,,,,,,,,,,,,,,,,,,,,,,,,,,,600,,,,,,,,,,,,,,,,,,,,,5,2,,,450.2263,6,left,0.6705,,1.5,0.3,"[3,2,1]",0.00950293,stimuli/card_100_transparent.png,100,6,0,6,0,1,,,,,,,,,,
,,,,656106209a18e3a528c2a761,A,2024-05-17_18h07.17.019,Slot Machine Game,2023.1.3,Win32,60.24096386,,,,,,,,,,,,,,,,,,,,,,,,,,,600,,,,,,,,,,,,,,,,,,,,,5,2,,,453.2126,7,left,0.0504,,1,0.3,"[3,2,1]",0.617104537,stimuli/card_0_transparent.png,0,7,0,7,0,1,,,,,,,,,,
,,,,656106209a18e3a528c2a761,A,2024-05-17_18h07.17.019,Slot Machine Game,2023.1.3,Win32,60.24096386,,,,,,,,,,,,,,,,,,,,,,,,,,,610,,,,,,,,,,,,,,,,,,,,,5,2,,,455.0811,8,left,0.2671,,0.5,0.3,"[3,2,1]",0.103839134,stimuli/card_10_transparent.png,10,8,0,8,0,1,,,,,,,,,,
,,,,656106209a18e3a528c2a761,A,2024-05-17_18h07.17.019,Slot Machine Game,2023.1.3,Win32,60.24096386,,,,,,,,,,,,,,,,,,,,,,,,,,,620,,,,,,,,,,,,,,,,,,,,,5,2,,,456.6659,9,left,0.2862,,1.5,0.3,"[3,2,1]",0.110745896,stimuli/card_10_transparent.png,10,9,0,9,0,1,,,,,,,,,,
,,,,656106209a18e3a528c2a761,A,2024-05-17_18h07.17.019,Slot Machine Game,2023.1.3,Win32,60.24096386,,,,,,,,,,,,,,,,,,,,,,,,,,,630,,,,,,,,,,,,,,,,,,,,,5,2,,,459.2685,10,up,1.4852,,1.5,0.3,"[3,2,1]",0.673637034,stimuli/card_10_transparent.png,10,10,0,10,0,1,,,,,,,,,,
,,,,656106209a18e3a528c2a761,A,2024-05-17_18h07.17.019,Slot Machine Game,2023.1.3,Win32,60.24096386,,,,,,,,,,,,,,,,,,,,,,,,,,,640,,,,,,,,,,,,,,,,,,,,,5,2,,,463.0724,11,up,0.0342,,1,0.3,"[3,2,1]",0.746618559,stimuli/card_10_transparent.png,10,11,0,11,0,1,,,,,,,,,,
,,,,656106209a18e3a528c2a761,A,2024-05-17_18h07.17.019,Slot Machine Game,2023.1.3,Win32,60.24096386,,,,,,,,,,,,,,,,,,,,,,,,,,,740,,,,,,,,,,,,,,,,,,,,,5,2,,,464.9241,12,right,0.5676,,1,0.3,"[3,2,1]",0.531573497,stimuli/card_100_transparent.png,100,12,0,12,0,1,,,,,,,,,,
,,,,656106209a18e3a528c2a761,A,2024-05-17_18h07.17.019,Slot Machine Game,2023.1.3,Win32,60.24096386,,,,,,,,,,,,,,,,,,,,,,,,,,,840,,,,,,,,,,,,,,,,,,,,,5,2,,,467.3099,13,right,0.1839,,1.5,0.3,"[3,2,1]",0.258409394,stimuli/card_100_transparent.png,100,13,0,13,0,1,,,,,,,,,,
,,,,656106209a18e3a528c2a761,A,2024-05-17_18h07.17.019,Slot Machine Game,2023.1.3,Win32,60.24096386,,,,,,,,,,,,,,,,,,,,,,,,,,,850,,,,,,,,,,,,,,,,,,,,,5,2,,,469.8123,14,right,0.1006,,1.5,0.3,"[3,2,1]",0.172189814,stimuli/card_10_transparent.png,10,14,0,14,0,1,,,,,,,,,,
,,,,656106209a18e3a528c2a761,A,2024-05-17_18h07.17.019,Slot Machine Game,2023.1.3,Win32,60.24096386,,,,,,,,,,,,,,,,,,,,,,,,,,,,,,,,,,,472.2319,,,,,,,,,,,,,,,,,,,,,,,,,,,,,,,,,"[930,1100,760,920,850]",4,0,4,0,1,,,,
,,,,656106209a18e3a528c2a761,A,2024-05-17_18h07.17.019,Slot Machine Game,2023.1.3,Win32,60.24096386,,,,,,,,,,,,,,,,,,,,,,,,,,,10,,,,,,,,,,,,,,,,,,,,,6,4,"[7,15]","[[2,3,1],[1,2,3]]",477.2284,0,left,0.7004,,1,0.3,"[2,3,1]",0.462698838,stimuli/card_10_transparent.png,10,0,0,0,0,1,,,,,,,,,,
,,,,656106209a18e3a528c2a761,A,2024-05-17_18h07.17.019,Slot Machine Game,2023.1.3,Win32,60.24096386,,,,,,,,,,,,,,,,,,,,,,,,,,,10,,,,,,,,,,,,,,,,,,,,,6,4,,,479.7555,1,left,0.0835,,0.5,0.3,"[2,3,1]",0.065207388,stimuli/card_0_transparent.png,0,1,0,1,0,1,,,,,,,,,,
,,,,656106209a18e3a528c2a761,A,2024-05-17_18h07.17.019,Slot Machine Game,2023.1.3,Win32,60.24096386,,,,,,,,,,,,,,,,,,,,,,,,,,,10,,,,,,,,,,,,,,,,,,,,,6,4,,,481.1599,2,up,1.1513,,0.5,0.3,"[2,3,1]",0.610622476,stimuli/card_0_transparent.png,0,2,0,2,0,1,,,,,,,,,,
,,,,656106209a18e3a528c2a761,A,2024-05-17_18h07.17.019,Slot Machine Game,2023.1.3,Win32,60.24096386,,,,,,,,,,,,,,,,,,,,,,,,,,,10,,,,,,,,,,,,,,,,,,,,,6,4,,,483.6431,3,up,0.0381,,1,0.3,"[2,3,1]",0.727619011,stimuli/card_0_transparent.png,0,3,0,3,0,1,,,,,,,,,,
,,,,656106209a18e3a528c2a761,A,2024-05-17_18h07.17.019,Slot Machine Game,2023.1.3,Win32,60.24096386,,,,,,,,,,,,,,,,,,,,,,,,,,,110,,,,,,,,,,,,,,,,,,,,,6,4,,,485.4946,4,right,1.2517,,1,0.3,"[2,3,1]",0.948294309,stimuli/card_100_transparent.png,100,4,0,4,0,1,,,,,,,,,,
,,,,656106209a18e3a528c2a761,A,2024-05-17_18h07.17.019,Slot Machine Game,2023.1.3,Win32,60.24096386,,,,,,,,,,,,,,,,,,,,,,,,,,,210,,,,,,,,,,,,,,,,,,,,,6,4,,,488.5644,5,right,0.0205,,1,0.3,"[2,3,1]",0.542906896,stimuli/card_100_transparent.png,100,5,0,5,0,1,,,,,,,,,,
,,,,656106209a18e3a528c2a761,A,2024-05-17_18h07.17.019,Slot Machine Game,2023.1.3,Win32,60.24096386,,,,,,,,,,,,,,,,,,,,,,,,,,,310,,,,,,,,,,,,,,,,,,,,,6,4,,,490.3998,6,right,0.0005,,1.5,0.3,"[2,3,1]",0.207001962,stimuli/card_100_transparent.png,100,6,0,6,0,1,,,,,,,,,,
,,,,656106209a18e3a528c2a761,A,2024-05-17_18h07.17.019,Slot Machine Game,2023.1.3,Win32,60.24096386,,,,,,,,,,,,,,,,,,,,,,,,,,,320,,,,,,,,,,,,,,,,,,,,,6,4,,,492.7351,7,right,0.6108,,1.5,0.3,"[1,2,3]",0.160309271,stimuli/card_10_transparent.png,10,7,0,7,0,1,,,,,,,,,,
,,,,656106209a18e3a528c2a761,A,2024-05-17_18h07.17.019,Slot Machine Game,2023.1.3,Win32,60.24096386,,,,,,,,,,,,,,,,,,,,,,,,,,,320,,,,,,,,,,,,,,,,,,,,,6,4,,,495.6553,8,right,0.4734,,1.5,0.3,"[1,2,3]",0.254624325,stimuli/card_0_transparent.png,0,8,0,8,0,1,,,,,,,,,,
,,,,656106209a18e3a528c2a761,A,2024-05-17_18h07.17.019,Slot Machine Game,2023.1.3,Win32,60.24096386,,,,,,,,,,,,,,,,,,,,,,,,,,,330,,,,,,,,,,,,,,,,,,,,,6,4,,,498.4577,9,up,0.2346,,1,0.3,"[1,2,3]",0.843779592,stimuli/card_10_transparent.png,10,9,0,9,0,1,,,,,,,,,,
,,,,656106209a18e3a528c2a761,A,2024-05-17_18h07.17.019,Slot Machine Game,2023.1.3,Win32,60.24096386,,,,,,,,,,,,,,,,,,,,,,,,,,,340,,,,,,,,,,,,,,,,,,,,,6,4,,,500.5099,10,up,0.1066,,1,0.3,"[1,2,3]",0.220361054,stimuli/card_10_transparent.png,10,10,0,10,0,1,,,,,,,,,,
,,,,656106209a18e3a528c2a761,A,2024-05-17_18h07.17.019,Slot Machine Game,2023.1.3,Win32,60.24096386,,,,,,,,,,,,,,,,,,,,,,,,,,,350,,,,,,,,,,,,,,,,,,,,,6,4,,,502.4449,11,right,0.236,,1,0.3,"[1,2,3]",0.185188237,stimuli/card_10_transparent.png,10,11,0,11,0,1,,,,,,,,,,
,,,,656106209a18e3a528c2a761,A,2024-05-17_18h07.17.019,Slot Machine Game,2023.1.3,Win32,60.24096386,,,,,,,,,,,,,,,,,,,,,,,,,,,350,,,,,,,,,,,,,,,,,,,,,6,4,,,504.4968,12,right,0.9759,,0.5,0.3,"[1,2,3]",0.420371445,stimuli/card_0_transparent.png,0,12,0,12,0,1,,,,,,,,,,
,,,,656106209a18e3a528c2a761,A,2024-05-17_18h07.17.019,Slot Machine Game,2023.1.3,Win32,60.24096386,,,,,,,,,,,,,,,,,,,,,,,,,,,360,,,,,,,,,,,,,,,,,,,,,6,4,,,506.7825,13,up,1.0422,,0.5,0.3,"[1,2,3]",0.506073222,stimuli/card_10_transparent.png,10,13,0,13,0,1,,,,,,,,,,
,,,,656106209a18e3a528c2a761,A,2024-05-17_18h07.17.019,Slot Machine Game,2023.1.3,Win32,60.24096386,,,,,,,,,,,,,,,,,,,,,,,,,,,460,,,,,,,,,,,,,,,,,,,,,6,4,,,509.1348,14,left,0.2672,,0.5,0.3,"[1,2,3]",0.661726966,stimuli/card_100_transparent.png,100,14,0,14,0,1,,,,,,,,,,
,,,,656106209a18e3a528c2a761,A,2024-05-17_18h07.17.019,Slot Machine Game,2023.1.3,Win32,60.24096386,,,,,,,,,,,,,,,,,,,,,,,,,,,,,,,,,,,510.7197,,,,,,,,,,,,,,,,,,,,,,,,,,,,,,,,,"[930,1100,760,920,850,460]",5,0,5,0,1,,,,
,,,,656106209a18e3a528c2a761,A,2024-05-17_18h07.17.019,Slot Machine Game,2023.1.3,Win32,60.24096386,,,,,,,,,,,,,,,,,,,,,,,,,,,100,,,,,,,,,,,,,,,,,,,,,7,10,"[10,15]","[[3,1,2],[1,3,2]]",515.7162,0,up,0.8011,,1.5,0.3,"[3,1,2]",0.655830494,stimuli/card_100_transparent.png,100,0,0,0,0,1,,,,,,,,,,
,,,,656106209a18e3a528c2a761,A,2024-05-17_18h07.17.019,Slot Machine Game,2023.1.3,Win32,60.24096386,,,,,,,,,,,,,,,,,,,,,,,,,,,200,,,,,,,,,,,,,,,,,,,,,7,10,,,518.8446,1,up,0.3568,,1.5,0.3,"[3,1,2]",0.715422607,stimuli/card_100_transparent.png,100,1,0,1,0,1,,,,,,,,,,
,,,,656106209a18e3a528c2a761,A,2024-05-17_18h07.17.019,Slot Machine Game,2023.1.3,Win32,60.24096386,,,,,,,,,,,,,,,,,,,,,,,,,,,300,,,,,,,,,,,,,,,,,,,,,7,10,,,521.514,2,up,0.1007,,1.5,0.3,"[3,1,2]",0.816663694,stimuli/card_100_transparent.png,100,2,0,2,0,1,,,,,,,,,,
,,,,656106209a18e3a528c2a761,A,2024-05-17_18h07.17.019,Slot Machine Game,2023.1.3,Win32,60.24096386,,,,,,,,,,,,,,,,,,,,,,,,,,,400,,,,,,,,,,,,,,,,,,,,,7,10,,,523.9328,3,up,0.0337,,1,0.3,"[3,1,2]",0.526769376,stimuli/card_100_transparent.png,100,3,0,3,0,1,,,,,,,,,,
,,,,656106209a18e3a528c2a761,A,2024-05-17_18h07.17.019,Slot Machine Game,2023.1.3,Win32,60.24096386,,,,,,,,,,,,,,,,,,,,,,,,,,,500,,,,,,,,,,,,,,,,,,,,,7,10,,,525.7847,4,up,0.176,,0.5,0.3,"[3,1,2]",0.533322828,stimuli/card_100_transparent.png,100,4,0,4,0,1,,,,,,,,,,
,,,,656106209a18e3a528c2a761,A,2024-05-17_18h07.17.019,Slot Machine Game,2023.1.3,Win32,60.24096386,,,,,,,,,,,,,,,,,,,,,,,,,,,510,,,,,,,,,,,,,,,,,,,,,7,10,,,527.2699,5,up,0.3005,,1,0.3,"[3,1,2]",0.189395922,stimuli/card_10_transparent.png,10,5,0,5,0,1,,,,,,,,,,
,,,,656106209a18e3a528c2a761,A,2024-05-17_18h07.17.019,Slot Machine Game,2023.1.3,Win32,60.24096386,,,,,,,,,,,,,,,,,,,,,,,,,,,610,,,,,,,,,,,,,,,,,,,,,7,10,,,529.3884,6,up,0.1888,,0.5,0.3,"[3,1,2]",0.45044212,stimuli/card_100_transparent.png,100,6,0,6,0,1,,,,,,,,,,
,,,,656106209a18e3a528c2a761,A,2024-05-17_18h07.17.019,Slot Machine Game,2023.1.3,Win32,60.24096386,,,,,,,,,,,,,,,,,,,,,,,,,,,610,,,,,,,,,,,,,,,,,,,,,7,10,,,530.8898,7,up,0.1433,,1,0.3,"[3,1,2]",0.062210295,stimuli/card_0_transparent.png,0,7,0,7,0,1,,,,,,,,,,
,,,,656106209a18e3a528c2a761,A,2024-05-17_18h07.17.019,Slot Machine Game,2023.1.3,Win32,60.24096386,,,,,,,,,,,,,,,,,,,,,,,,,,,620,,,,,,,,,,,,,,,,,,,,,7,10,,,532.8417,8,up,1.3914,,0.5,0.3,"[3,1,2]",0.188811906,stimuli/card_10_transparent.png,10,8,0,8,0,1,,,,,,,,,,
,,,,656106209a18e3a528c2a761,A,2024-05-17_18h07.17.019,Slot Machine Game,2023.1.3,Win32,60.24096386,,,,,,,,,,,,,,,,,,,,,,,,,,,620,,,,,,,,,,,,,,,,,,,,,7,10,,,535.5445,9,left,0.8243,,1,0.3,"[3,1,2]",0.711300836,stimuli/card_0_transparent.png,0,9,0,9,0,1,,,,,,,,,,
,,,,656106209a18e3a528c2a761,A,2024-05-17_18h07.17.019,Slot Machine Game,2023.1.3,Win32,60.24096386,,,,,,,,,,,,,,,,,,,,,,,,,,,720,,,,,,,,,,,,,,,,,,,,,7,10,,,538.1803,10,left,0.0847,,1,0.3,"[1,3,2]",0.258101164,stimuli/card_100_transparent.png,100,10,0,10,0,1,,,,,,,,,,
,,,,656106209a18e3a528c2a761,A,2024-05-17_18h07.17.019,Slot Machine Game,2023.1.3,Win32,60.24096386,,,,,,,,,,,,,,,,,,,,,,,,,,,820,,,,,,,,,,,,,,,,,,,,,7,10,,,540.0823,11,left,0.1904,,0.5,0.3,"[1,3,2]",0.33861866,stimuli/card_100_transparent.png,100,11,0,11,0,1,,,,,,,,,,
,,,,656106209a18e3a528c2a761,A,2024-05-17_18h07.17.019,Slot Machine Game,2023.1.3,Win32,60.24096386,,,,,,,,,,,,,,,,,,,,,,,,,,,920,,,,,,,,,,,,,,,,,,,,,7,10,,,541.5841,12,left,0.3214,,0.5,0.3,"[1,3,2]",0.808857405,stimuli/card_100_transparent.png,100,12,0,12,0,1,,,,,,,,,,
,,,,656106209a18e3a528c2a761,A,2024-05-17_18h07.17.019,Slot Machine Game,2023.1.3,Win32,60.24096386,,,,,,,,,,,,,,,,,,,,,,,,,,,1020,,,,,,,,,,,,,,,,,,,,,7,10,,,543.2188,13,left,0.5103,,1.5,0.3,"[1,3,2]",0.688666644,stimuli/card_100_transparent.png,100,13,0,13,0,1,,,,,,,,,,
,,,,656106209a18e3a528c2a761,A,2024-05-17_18h07.17.019,Slot Machine Game,2023.1.3,Win32,60.24096386,,,,,,,,,,,,,,,,,,,,,,,,,,,1120,,,,,,,,,,,,,,,,,,,,,7,10,,,546.0383,14,left,0.4582,,1,0.3,"[1,3,2]",0.919446229,stimuli/card_100_transparent.png,100,14,0,14,0,1,,,,,,,,,,
,,,,656106209a18e3a528c2a761,A,2024-05-17_18h07.17.019,Slot Machine Game,2023.1.3,Win32,60.24096386,,,,,,,,,,,,,,,,,,,,,,,,,,,,,,,,,,,548.3071,,,,,,,,,,,,,,,,,,,,,,,,,,,,,,,,,"[930,1100,760,920,850,460,1120]",6,0,6,0,1,,,,
,,,,656106209a18e3a528c2a761,A,2024-05-17_18h07.17.019,Slot Machine Game,2023.1.3,Win32,60.24096386,,,,,,,,,,,,,,,,,,,,,,,,,,,10,,,,,,,,,,,,,,,,,,,,,8,7,"[9,15]","[[1,3,2],[2,3,1]]",553.3062,0,right,1.3511,,0.5,0.3,"[1,3,2]",0.731927767,stimuli/card_10_transparent.png,10,0,0,0,0,1,,,,,,,,,,
,,,,656106209a18e3a528c2a761,A,2024-05-17_18h07.17.019,Slot Machine Game,2023.1.3,Win32,60.24096386,,,,,,,,,,,,,,,,,,,,,,,,,,,20,,,,,,,,,,,,,,,,,,,,,8,7,,,555.9818,1,right,0.1391,,0.5,0.3,"[1,3,2]",0.465105475,stimuli/card_10_transparent.png,10,1,0,1,0,1,,,,,,,,,,
,,,,656106209a18e3a528c2a761,A,2024-05-17_18h07.17.019,Slot Machine Game,2023.1.3,Win32,60.24096386,,,,,,,,,,,,,,,,,,,,,,,,,,,20,,,,,,,,,,,,,,,,,,,,,8,7,,,557.45,2,up,0.0554,,1,0.3,"[1,3,2]",0.625565688,stimuli/card_0_transparent.png,0,2,0,2,0,1,,,,,,,,,,
,,,,656106209a18e3a528c2a761,A,2024-05-17_18h07.17.019,Slot Machine Game,2023.1.3,Win32,60.24096386,,,,,,,,,,,,,,,,,,,,,,,,,,,120,,,,,,,,,,,,,,,,,,,,,8,7,,,559.3182,3,left,0.0169,,1,0.3,"[1,3,2]",0.333503196,stimuli/card_100_transparent.png,100,3,0,3,0,1,,,,,,,,,,
,,,,656106209a18e3a528c2a761,A,2024-05-17_18h07.17.019,Slot Machine Game,2023.1.3,Win32,60.24096386,,,,,,,,,,,,,,,,,,,,,,,,,,,220,,,,,,,,,,,,,,,,,,,,,8,7,,,561.1531,4,left,0.0003,,1,0.3,"[1,3,2]",0.906055698,stimuli/card_100_transparent.png,100,4,0,4,0,1,,,,,,,,,,
,,,,656106209a18e3a528c2a761,A,2024-05-17_18h07.17.019,Slot Machine Game,2023.1.3,Win32,60.24096386,,,,,,,,,,,,,,,,,,,,,,,,,,,220,,,,,,,,,,,,,,,,,,,,,8,7,,,562.9716,5,left,1.0368,,0.5,0.3,"[1,3,2]",0.003027308,stimuli/card_0_transparent.png,0,5,0,5,0,1,,,,,,,,,,
,,,,656106209a18e3a528c2a761,A,2024-05-17_18h07.17.019,Slot Machine Game,2023.1.3,Win32,60.24096386,,,,,,,,,,,,,,,,,,,,,,,,,,,320,,,,,,,,,,,,,,,,,,,,,8,7,,,565.3239,6,left,0.1253,,1,0.3,"[1,3,2]",0.567126998,stimuli/card_100_transparent.png,100,6,0,6,0,1,,,,,,,,,,
,,,,656106209a18e3a528c2a761,A,2024-05-17_18h07.17.019,Slot Machine Game,2023.1.3,Win32,60.24096386,,,,,,,,,,,,,,,,,,,,,,,,,,,420,,,,,,,,,,,,,,,,,,,,,8,7,,,567.2593,7,left,0.2168,,1,0.3,"[1,3,2]",0.827352259,stimuli/card_100_transparent.png,100,7,0,7,0,1,,,,,,,,,,
,,,,656106209a18e3a528c2a761,A,2024-05-17_18h07.17.019,Slot Machine Game,2023.1.3,Win32,60.24096386,,,,,,,,,,,,,,,,,,,,,,,,,,,520,,,,,,,,,,,,,,,,,,,,,8,7,,,569.2946,8,left,0.442,,1.5,0.3,"[1,3,2]",0.334269817,stimuli/card_100_transparent.png,100,8,0,8,0,1,,,,,,,,,,
,,,,656106209a18e3a528c2a761,A,2024-05-17_18h07.17.019,Slot Machine Game,2023.1.3,Win32,60.24096386,,,,,,,,,,,,,,,,,,,,,,,,,,,530,,,,,,,,,,,,,,,,,,,,,8,7,,,572.0475,9,left,0.5209,,1,0.3,"[2,3,1]",0.807966822,stimuli/card_10_transparent.png,10,9,0,9,0,1,,,,,,,,,,
,,,,656106209a18e3a528c2a761,A,2024-05-17_18h07.17.019,Slot Machine Game,2023.1.3,Win32,60.24096386,,,,,,,,,,,,,,,,,,,,,,,,,,,540,,,,,,,,,,,,,,,,,,,,,8,7,,,574.383,10,left,0.5057,,1.5,0.3,"[2,3,1]",0.445820458,stimuli/card_10_transparent.png,10,10,0,10,0,1,,,,,,,,,,
,,,,656106209a18e3a528c2a761,A,2024-05-17_18h07.17.019,Slot Machine Game,2023.1.3,Win32,60.24096386,,,,,,,,,,,,,,,,,,,,,,,,,,,550,,,,,,,,,,,,,,,,,,,,,8,7,,,577.2025,11,up,1.158,,0.5,0.3,"[2,3,1]",0.143949162,stimuli/card_10_transparent.png,10,11,0,11,0,1,,,,,,,,,,
,,,,656106209a18e3a528c2a761,A,2024-05-17_18h07.17.019,Slot Machine Game,2023.1.3,Win32,60.24096386,,,,,,,,,,,,,,,,,,,,,,,,,,,550,,,,,,,,,,,,,,,,,,,,,8,7,,,579.6717,12,up,0.8889,,1,0.3,"[2,3,1]",0.238753594,stimuli/card_0_transparent.png,0,12,0,12,0,1,,,,,,,,,,
,,,,656106209a18e3a528c2a761,A,2024-05-17_18h07.17.019,Slot Machine Game,2023.1.3,Win32,60.24096386,,,,,,,,,,,,,,,,,,,,,,,,,,,650,,,,,,,,,,,,,,,,,,,,,8,7,,,582.3746,13,right,0.3067,,1.5,0.3,"[2,3,1]",0.788720021,stimuli/card_100_transparent.png,100,13,0,13,0,1,,,,,,,,,,
,,,,656106209a18e3a528c2a761,A,2024-05-17_18h07.17.019,Slot Machine Game,2023.1.3,Win32,60.24096386,,,,,,,,,,,,,,,,,,,,,,,,,,,660,,,,,,,,,,,,,,,,,,,,,8,7,,,584.9938,14,right,0.4706,,1,0.3,"[2,3,1]",0.149883474,stimuli/card_10_transparent.png,10,14,0,14,0,1,,,,,,,,,,
,,,,656106209a18e3a528c2a761,A,2024-05-17_18h07.17.019,Slot Machine Game,2023.1.3,Win32,60.24096386,,,,,,,,,,,,,,,,,,,,,,,,,,,,,,,,,,,587.2793,,,,,,,,,,,,,,,,,,,,,,,,,,,,,,,,,"[930,1100,760,920,850,460,1120,660]",7,0,7,0,1,,,,
,,,,656106209a18e3a528c2a761,A,2024-05-17_18h07.17.019,Slot Machine Game,2023.1.3,Win32,60.24096386,,,,,,,,,,,,,,,,,,,,,,,,,,,0,,,,,,,,,,,,,,,,,,,,,9,9,[15],"[[3,1,2]]",592.2758,0,left,0.8946,,1,0.3,"[3,1,2]",0.731766954,stimuli/card_0_transparent.png,0,0,0,0,0,1,,,,,,,,,,
,,,,656106209a18e3a528c2a761,A,2024-05-17_18h07.17.019,Slot Machine Game,2023.1.3,Win32,60.24096386,,,,,,,,,,,,,,,,,,,,,,,,,,,0,,,,,,,,,,,,,,,,,,,,,9,9,,,594.987,1,left,0.0002,,1,0.3,"[3,1,2]",0.729635894,stimuli/card_0_transparent.png,0,1,0,1,0,1,,,,,,,,,,
,,,,656106209a18e3a528c2a761,A,2024-05-17_18h07.17.019,Slot Machine Game,2023.1.3,Win32,60.24096386,,,,,,,,,,,,,,,,,,,,,,,,,,,100,,,,,,,,,,,,,,,,,,,,,9,9,,,596.8054,2,up,0.1003,,1,0.3,"[3,1,2]",0.350373657,stimuli/card_100_transparent.png,100,2,0,2,0,1,,,,,,,,,,
,,,,656106209a18e3a528c2a761,A,2024-05-17_18h07.17.019,Slot Machine Game,2023.1.3,Win32,60.24096386,,,,,,,,,,,,,,,,,,,,,,,,,,,200,,,,,,,,,,,,,,,,,,,,,9,9,,,598.7243,3,up,0.0669,,0.5,0.3,"[3,1,2]",0.870526495,stimuli/card_100_transparent.png,100,3,0,3,0,1,,,,,,,,,,
,,,,656106209a18e3a528c2a761,A,2024-05-17_18h07.17.019,Slot Machine Game,2023.1.3,Win32,60.24096386,,,,,,,,,,,,,,,,,,,,,,,,,,,300,,,,,,,,,,,,,,,,,,,,,9,9,,,600.1254,4,up,0.6513,,1.5,0.3,"[3,1,2]",0.29335347,stimuli/card_100_transparent.png,100,4,0,4,0,1,,,,,,,,,,
,,,,656106209a18e3a528c2a761,A,2024-05-17_18h07.17.019,Slot Machine Game,2023.1.3,Win32,60.24096386,,,,,,,,,,,,,,,,,,,,,,,,,,,400,,,,,,,,,,,,,,,,,,,,,9,9,,,603.0949,5,up,0.4674,,1.5,0.3,"[3,1,2]",0.794946938,stimuli/card_100_transparent.png,100,5,0,5,0,1,,,,,,,,,,
,,,,656106209a18e3a528c2a761,A,2024-05-17_18h07.17.019,Slot Machine Game,2023.1.3,Win32,60.24096386,,,,,,,,,,,,,,,,,,,,,,,,,,,400,,,,,,,,,,,,,,,,,,,,,9,9,,,605.8811,6,up,0.3172,,1.5,0.3,"[3,1,2]",0.005261312,stimuli/card_0_transparent.png,0,6,0,6,0,1,,,,,,,,,,
,,,,656106209a18e3a528c2a761,A,2024-05-17_18h07.17.019,Slot Machine Game,2023.1.3,Win32,60.24096386,,,,,,,,,,,,,,,,,,,,,,,,,,,500,,,,,,,,,,,,,,,,,,,,,9,9,,,608.5174,7,up,0.0669,,1,0.3,"[3,1,2]",0.71530094,stimuli/card_100_transparent.png,100,7,0,7,0,1,,,,,,,,,,
,,,,656106209a18e3a528c2a761,A,2024-05-17_18h07.17.019,Slot Machine Game,2023.1.3,Win32,60.24096386,,,,,,,,,,,,,,,,,,,,,,,,,,,600,,,,,,,,,,,,,,,,,,,,,9,9,,,610.4191,8,up,0.2838,,0.5,0.3,"[3,1,2]",0.645088474,stimuli/card_100_transparent.png,100,8,0,8,0,1,,,,,,,,,,
,,,,656106209a18e3a528c2a761,A,2024-05-17_18h07.17.019,Slot Machine Game,2023.1.3,Win32,60.24096386,,,,,,,,,,,,,,,,,,,,,,,,,,,700,,,,,,,,,,,,,,,,,,,,,9,9,,,612.0205,9,up,0.2671,,1,0.3,"[3,1,2]",0.770735731,stimuli/card_100_transparent.png,100,9,0,9,0,1,,,,,,,,,,
,,,,656106209a18e3a528c2a761,A,2024-05-17_18h07.17.019,Slot Machine Game,2023.1.3,Win32,60.24096386,,,,,,,,,,,,,,,,,,,,,,,,,,,800,,,,,,,,,,,,,,,,,,,,,9,9,,,614.1061,10,up,1.2857,,1,0.3,"[3,1,2]",0.909890826,stimuli/card_100_transparent.png,100,10,0,10,0,1,,,,,,,,,,
,,,,656106209a18e3a528c2a761,A,2024-05-17_18h07.17.019,Slot Machine Game,2023.1.3,Win32,60.24096386,,,,,,,,,,,,,,,,,,,,,,,,,,,900,,,,,,,,,,,,,,,,,,,,,9,9,,,617.2091,11,up,0.2836,,1,0.3,"[3,1,2]",0.559921039,stimuli/card_100_transparent.png,100,11,0,11,0,1,,,,,,,,,,
,,,,656106209a18e3a528c2a761,A,2024-05-17_18h07.17.019,Slot Machine Game,2023.1.3,Win32,60.24096386,,,,,,,,,,,,,,,,,,,,,,,,,,,1000,,,,,,,,,,,,,,,,,,,,,9,9,,,619.311,12,up,0.0738,,1,0.3,"[3,1,2]",0.317853971,stimuli/card_100_transparent.png,100,12,0,12,0,1,,,,,,,,,,
,,,,656106209a18e3a528c2a761,A,2024-05-17_18h07.17.019,Slot Machine Game,2023.1.3,Win32,60.24096386,,,,,,,,,,,,,,,,,,,,,,,,,,,1100,,,,,,,,,,,,,,,,,,,,,9,9,,,621.1963,13,up,0.3674,,1.5,0.3,"[3,1,2]",0.647837562,stimuli/card_100_transparent.png,100,13,0,13,0,1,,,,,,,,,,
,,,,656106209a18e3a528c2a761,A,2024-05-17_18h07.17.019,Slot Machine Game,2023.1.3,Win32,60.24096386,,,,,,,,,,,,,,,,,,,,,,,,,,,1200,,,,,,,,,,,,,,,,,,,,,9,9,,,623.8824,14,up,0.287,,1,0.3,"[3,1,2]",0.20781792,stimuli/card_100_transparent.png,100,14,0,14,0,1,,,,,,,,,,
,,,,656106209a18e3a528c2a761,A,2024-05-17_18h07.17.019,Slot Machine Game,2023.1.3,Win32,60.24096386,,,,,,,,,,,,,,,,,,,,,,,,,,,,,,,,,,,625.9845,,,,,,,,,,,,,,,,,,,,,,,,,,,,,,,,,"[930,1100,760,920,850,460,1120,660,1200]",8,0,8,0,1,,,,
,,,,656106209a18e3a528c2a761,A,2024-05-17_18h07.17.019,Slot Machine Game,2023.1.3,Win32,60.24096386,,,,,,,,,,,,,,,,,,,,,,,,,,,100,,,,,,,,,,,,,,,,,,,,,10,6,"[4,10,15]","[[2,3,1],[1,3,2],[3,2,1]]",630.982,0,right,0.6351,,1.5,0.3,"[2,3,1]",0.648683843,stimuli/card_100_transparent.png,100,0,0,0,0,1,,,,,,,,,,
,,,,656106209a18e3a528c2a761,A,2024-05-17_18h07.17.019,Slot Machine Game,2023.1.3,Win32,60.24096386,,,,,,,,,,,,,,,,,,,,,,,,,,,200,,,,,,,,,,,,,,,,,,,,,10,6,,,633.9423,1,right,0.2509,,0.5,0.3,"[2,3,1]",0.512466794,stimuli/card_100_transparent.png,100,1,0,1,0,1,,,,,,,,,,
,,,,656106209a18e3a528c2a761,A,2024-05-17_18h07.17.019,Slot Machine Game,2023.1.3,Win32,60.24096386,,,,,,,,,,,,,,,,,,,,,,,,,,,300,,,,,,,,,,,,,,,,,,,,,10,6,,,635.5105,2,right,0.6901,,1.5,0.3,"[2,3,1]",0.361559177,stimuli/card_100_transparent.png,100,2,0,2,0,1,,,,,,,,,,
,,,,656106209a18e3a528c2a761,A,2024-05-17_18h07.17.019,Slot Machine Game,2023.1.3,Win32,60.24096386,,,,,,,,,,,,,,,,,,,,,,,,,,,400,,,,,,,,,,,,,,,,,,,,,10,6,,,638.5135,3,right,0.2673,,1,0.3,"[2,3,1]",0.313431326,stimuli/card_100_transparent.png,100,3,0,3,0,1,,,,,,,,,,
,,,,656106209a18e3a528c2a761,A,2024-05-17_18h07.17.019,Slot Machine Game,2023.1.3,Win32,60.24096386,,,,,,,,,,,,,,,,,,,,,,,,,,,410,,,,,,,,,,,,,,,,,,,,,10,6,,,640.5992,4,right,0.1855,,1.5,0.3,"[1,3,2]",0.794541532,stimuli/card_10_transparent.png,10,4,0,4,0,1,,,,,,,,,,
,,,,656106209a18e3a528c2a761,A,2024-05-17_18h07.17.019,Slot Machine Game,2023.1.3,Win32,60.24096386,,,,,,,,,,,,,,,,,,,,,,,,,,,420,,,,,,,,,,,,,,,,,,,,,10,6,,,643.1014,5,right,0.2351,,1,0.3,"[1,3,2]",0.920180957,stimuli/card_10_transparent.png,10,5,0,5,0,1,,,,,,,,,,
,,,,656106209a18e3a528c2a761,A,2024-05-17_18h07.17.019,Slot Machine Game,2023.1.3,Win32,60.24096386,,,,,,,,,,,,,,,,,,,,,,,,,,,430,,,,,,,,,,,,,,,,,,,,,10,6,,,645.1535,6,up,0.5842,,1,0.3,"[1,3,2]",0.157739196,stimuli/card_10_transparent.png,10,6,0,6,0,1,,,,,,,,,,
,,,,656106209a18e3a528c2a761,A,2024-05-17_18h07.17.019,Slot Machine Game,2023.1.3,Win32,60.24096386,,,,,,,,,,,,,,,,,,,,,,,,,,,530,,,,,,,,,,,,,,,,,,,,,10,6,,,647.5557,7,left,0.9725,,1,0.3,"[1,3,2]",0.900384476,stimuli/card_100_transparent.png,100,7,0,7,0,1,,,,,,,,,,
,,,,656106209a18e3a528c2a761,A,2024-05-17_18h07.17.019,Slot Machine Game,2023.1.3,Win32,60.24096386,,,,,,,,,,,,,,,,,,,,,,,,,,,540,,,,,,,,,,,,,,,,,,,,,10,6,,,650.3422,8,left,0.2905,,1.5,0.3,"[1,3,2]",0.131793396,stimuli/card_10_transparent.png,10,8,0,8,0,1,,,,,,,,,,
,,,,656106209a18e3a528c2a761,A,2024-05-17_18h07.17.019,Slot Machine Game,2023.1.3,Win32,60.24096386,,,,,,,,,,,,,,,,,,,,,,,,,,,640,,,,,,,,,,,,,,,,,,,,,10,6,,,652.9445,9,left,0.3506,,0.5,0.3,"[1,3,2]",0.541524475,stimuli/card_100_transparent.png,100,9,0,9,0,1,,,,,,,,,,
,,,,656106209a18e3a528c2a761,A,2024-05-17_18h07.17.019,Slot Machine Game,2023.1.3,Win32,60.24096386,,,,,,,,,,,,,,,,,,,,,,,,,,,640,,,,,,,,,,,,,,,,,,,,,10,6,,,654.6129,10,left,0.3556,,1,0.3,"[3,2,1]",0.788769626,stimuli/card_0_transparent.png,0,10,0,10,0,1,,,,,,,,,,
,,,,656106209a18e3a528c2a761,A,2024-05-17_18h07.17.019,Slot Machine Game,2023.1.3,Win32,60.24096386,,,,,,,,,,,,,,,,,,,,,,,,,,,650,,,,,,,,,,,,,,,,,,,,,10,6,,,656.7818,11,up,0.0675,,1,0.3,"[3,2,1]",0.265764376,stimuli/card_10_transparent.png,10,11,0,11,0,1,,,,,,,,,,
,,,,656106209a18e3a528c2a761,A,2024-05-17_18h07.17.019,Slot Machine Game,2023.1.3,Win32,60.24096386,,,,,,,,,,,,,,,,,,,,,,,,,,,750,,,,,,,,,,,,,,,,,,,,,10,6,,,658.6669,12,right,0.1015,,1.5,0.3,"[3,2,1]",0.850897807,stimuli/card_100_transparent.png,100,12,0,12,0,1,,,,,,,,,,
,,,,656106209a18e3a528c2a761,A,2024-05-17_18h07.17.019,Slot Machine Game,2023.1.3,Win32,60.24096386,,,,,,,,,,,,,,,,,,,,,,,,,,,850,,,,,,,,,,,,,,,,,,,,,10,6,,,661.086,13,right,0.6184,,1.5,0.3,"[3,2,1]",0.794815634,stimuli/card_100_transparent.png,100,13,0,13,0,1,,,,,,,,,,
,,,,656106209a18e3a528c2a761,A,2024-05-17_18h07.17.019,Slot Machine Game,2023.1.3,Win32,60.24096386,,,,,,,,,,,,,,,,,,,,,,,,,,,950,,,,,,,,,,,,,,,,,,,,,10,6,,,664.0223,14,right,0.2172,,1.5,0.3,"[3,2,1]",0.44510942,stimuli/card_100_transparent.png,100,14,0,14,0,1,,,,,,,,,,
,,,,656106209a18e3a528c2a761,A,2024-05-17_18h07.17.019,Slot Machine Game,2023.1.3,Win32,60.24096386,,,,,,,,,,,,,,,,,,,,,,,,,,,,,,,,,,,666.5581,,,,,,,,,,,,,,,,,,,,,,,,,,,,,,,,,"[930,1100,760,920,850,460,1120,660,1200,950]",9,0,9,0,1,,,,
,,,,656106209a18e3a528c2a761,A,2024-05-17_18h07.17.019,Slot Machine Game,2023.1.3,Win32,60.24096386,,,,,,,,,,,,,,,,,,,,,,,,,,,,,,,,,,,,,,,,,,,,,,,,,,,,,,,,,,,,,,,,,,,,,,,,,,9,"[930,1100,760,920,850,460,1120,660,1200,950]",11.2,2024-05-17_18h18.32.814
