key_resp_welcome_started,key_resp_welcome_keys,key_resp_welcome_rt,key_resp_welcome_duration,prolific_id,path_id,date,expName,psychopyVersion,OS,frameRate,key_resp_instruction1_started,key_resp_instruction1_keys,key_resp_instruction1_rt,key_resp_instruction1_duration,key_resp_instruction2_started,key_resp_instruction2_keys,key_resp_instruction2_rt,key_resp_instruction2_duration,key_resp_instruction3_started,key_resp_instruction3_keys,key_resp_instruction3_rt,key_resp_instruction3_duration,key_resp_instruction4_started,key_resp_instruction4_keys,key_resp_instruction4_rt,key_resp_instruction4_duration,practiceCondition,practice_reward_seqs,practice_trial_started,practice_trial_num,practice_resp_rt,practice_resp_duration,practice_resp_keys,prac_presentationInterval,"practice_reward_seq: 2,1,3",reward_img,cumulative_reward,trial_reward,practice_trials.thisRepN,practice_trials.thisTrialN,practice_trials.thisN,practice_trials.thisIndex,practice_trials.ran,"practice_reward_seq: 2,3,1",block_break_started,"practice_reward_seq: 1,3,2","practice_reward_seq: 3,1,2",practice_end_time,practice_end_keys,practice_end_rt,practice_end_duration,main_instruction_text_started,block_condition,block_order_indices,main_instruction_keys,main_instruction_rt,main_instruction_duration,block_number,block_assignment,current_condition,main_reward_seqs,main_trial_started,main_trial_num,main_trial_keys,main_trial_rt,main_trial_duration,main_presentationInterval,reward_presentation_time,main_reward_seq,reward_rand_val,main_reward_img,current_reward,main_trials.thisRepN,main_trials.thisTrialN,main_trials.thisN,main_trials.thisIndex,main_trials.ran,block_reward,block.thisRepN,block.thisTrialN,block.thisN,block.thisIndex,block.ran,block_reward.length,block_reward_all,reward_amount,date_end_task
0.0003,space,1.3898,,65e8fd23ef669d553e9db84b,A,2024-05-27_11h21.24.765,Slot Machine Game,2023.1.3,Win32,60.24096386,,,,,,,,,,,,,,,,,,,,,,,,,,,,,,,,,,,,,,,,,,,,,,,,,,,,,,,,,,,,,,,,,,,,,,,,,,,,,
,,,,65e8fd23ef669d553e9db84b,A,2024-05-27_11h21.24.765,Slot Machine Game,2023.1.3,Win32,60.24096386,1.4065,space,1.612,,,,,,,,,,,,,,,,,,,,,,,,,,,,,,,,,,,,,,,,,,,,,,,,,,,,,,,,,,,,,,,,,,,,,,,,,,
,,,,65e8fd23ef669d553e9db84b,A,2024-05-27_11h21.24.765,Slot Machine Game,2023.1.3,Win32,60.24096386,,,,,3.0356,space,1.5073,,,,,,,,,,,,,,,,,,,,,,,,,,,,,,,,,,,,,,,,,,,,,,,,,,,,,,,,,,,,,,,,,,,,,,
,,,,65e8fd23ef669d553e9db84b,A,2024-05-27_11h21.24.765,Slot Machine Game,2023.1.3,Win32,60.24096386,,,,,,,,,4.587,space,0.4909,,,,,,,,,,,,,,,,,,,,,,,,,,,,,,,,,,,,,,,,,,,,,,,,,,,,,,,,,,,,,,,,,,
,,,,65e8fd23ef669d553e9db84b,A,2024-05-27_11h21.24.765,Slot Machine Game,2023.1.3,Win32,60.24096386,,,,,,,,,,,,,,,,,,,,,,,,,,,,,,,,,,,,,,,,,,,,,,,,,,,,,,,,,,,,,,,,,,,,,,,,,,,,,
,,,,65e8fd23ef669d553e9db84b,A,2024-05-27_11h21.24.765,Slot Machine Game,2023.1.3,Win32,60.24096386,,,,,,,,,,,,,146.8287,space,4.9659,,,,,,,,,,,,,,,,,,,,,,,,,,,,,,,,,,,,,,,,,,,,,,,,,,,,,,,,,,,,,,
,,,,65e8fd23ef669d553e9db84b,A,2024-05-27_11h21.24.765,Slot Machine Game,2023.1.3,Win32,60.24096386,,,,,,,,,,,,,,,,,"[9,15]","[[2,1,3],[2,3,1]]",151.8343,0,0.8317,,up,1.5,,stimuli/card_100_transparent.png,100,100,0,0,0,0,1,,,,,,,,,,,,,,,,,,,,,,,,,,,,,,,,,,,,,,,,,,,,
,,,,65e8fd23ef669d553e9db84b,A,2024-05-27_11h21.24.765,Slot Machine Game,2023.1.3,Win32,60.24096386,,,,,,,,,,,,,,,,,,,155.0013,1,0.2986,,left,1,,stimuli/card_10_transparent.png,110,10,1,0,1,0,1,,,,,,,,,,,,,,,,,,,,,,,,,,,,,,,,,,,,,,,,,,,,
,,,,65e8fd23ef669d553e9db84b,A,2024-05-27_11h21.24.765,Slot Machine Game,2023.1.3,Win32,60.24096386,,,,,,,,,,,,,,,,,,,157.1216,2,0.2942,,right,1,,stimuli/card_0_transparent.png,110,0,2,0,2,0,1,,,,,,,,,,,,,,,,,,,,,,,,,,,,,,,,,,,,,,,,,,,,
,,,,65e8fd23ef669d553e9db84b,A,2024-05-27_11h21.24.765,Slot Machine Game,2023.1.3,Win32,60.24096386,,,,,,,,,,,,,,,,,,,159.2414,3,0.5469,,up,0.5,,stimuli/card_100_transparent.png,210,100,3,0,3,0,1,,,,,,,,,,,,,,,,,,,,,,,,,,,,,,,,,,,,,,,,,,,,
,,,,65e8fd23ef669d553e9db84b,A,2024-05-27_11h21.24.765,Slot Machine Game,2023.1.3,Win32,60.24096386,,,,,,,,,,,,,,,,,,,161.1136,4,0.4833,,up,1,,stimuli/card_100_transparent.png,310,100,4,0,4,0,1,,,,,,,,,,,,,,,,,,,,,,,,,,,,,,,,,,,,,,,,,,,,
,,,,65e8fd23ef669d553e9db84b,A,2024-05-27_11h21.24.765,Slot Machine Game,2023.1.3,Win32,60.24096386,,,,,,,,,,,,,,,,,,,163.4158,5,0.4452,,up,1,,stimuli/card_100_transparent.png,410,100,5,0,5,0,1,,,,,,,,,,,,,,,,,,,,,,,,,,,,,,,,,,,,,,,,,,,,
,,,,65e8fd23ef669d553e9db84b,A,2024-05-27_11h21.24.765,Slot Machine Game,2023.1.3,Win32,60.24096386,,,,,,,,,,,,,,,,,,,165.6875,6,0.1825,,up,1,,stimuli/card_100_transparent.png,510,100,6,0,6,0,1,,,,,,,,,,,,,,,,,,,,,,,,,,,,,,,,,,,,,,,,,,,,
,,,,65e8fd23ef669d553e9db84b,A,2024-05-27_11h21.24.765,Slot Machine Game,2023.1.3,Win32,60.24096386,,,,,,,,,,,,,,,,,,,167.6895,7,1.1236,,up,0.5,,stimuli/card_100_transparent.png,610,100,7,0,7,0,1,,,,,,,,,,,,,,,,,,,,,,,,,,,,,,,,,,,,,,,,,,,,
,,,,65e8fd23ef669d553e9db84b,A,2024-05-27_11h21.24.765,Slot Machine Game,2023.1.3,Win32,60.24096386,,,,,,,,,,,,,,,,,,,170.1421,8,1.2424,,up,0.5,,stimuli/card_100_transparent.png,710,100,8,0,8,0,1,,,,,,,,,,,,,,,,,,,,,,,,,,,,,,,,,,,,,,,,,,,,
,,,,65e8fd23ef669d553e9db84b,A,2024-05-27_11h21.24.765,Slot Machine Game,2023.1.3,Win32,60.24096386,,,,,,,,,,,,,,,,,,,172.7088,9,1.0285,,up,1.5,,stimuli/card_0_transparent.png,710,0,9,0,9,0,1,,,,,,,,,,,,,,,,,,,,,,,,,,,,,,,,,,,,,,,,,,,,
,,,,65e8fd23ef669d553e9db84b,A,2024-05-27_11h21.24.765,Slot Machine Game,2023.1.3,Win32,60.24096386,,,,,,,,,,,,,,,,,,,176.0565,10,0.6633,,up,0.5,,stimuli/card_0_transparent.png,710,0,10,0,10,0,1,,,,,,,,,,,,,,,,,,,,,,,,,,,,,,,,,,,,,,,,,,,,
,,,,65e8fd23ef669d553e9db84b,A,2024-05-27_11h21.24.765,Slot Machine Game,2023.1.3,Win32,60.24096386,,,,,,,,,,,,,,,,,,,178.0441,11,0.137,,up,1.5,,stimuli/card_0_transparent.png,710,0,11,0,11,0,1,,,,,,,,,,,,,,,,,,,,,,,,,,,,,,,,,,,,,,,,,,,,
,,,,65e8fd23ef669d553e9db84b,A,2024-05-27_11h21.24.765,Slot Machine Game,2023.1.3,Win32,60.24096386,,,,,,,,,,,,,,,,,,,180.4958,12,0.3336,,up,1.5,,stimuli/card_10_transparent.png,720,10,12,0,12,0,1,,,,,,,,,,,,,,,,,,,,,,,,,,,,,,,,,,,,,,,,,,,,
,,,,65e8fd23ef669d553e9db84b,A,2024-05-27_11h21.24.765,Slot Machine Game,2023.1.3,Win32,60.24096386,,,,,,,,,,,,,,,,,,,183.1458,13,1.923,,up,0.5,,stimuli/card_0_transparent.png,720,0,13,0,13,0,1,,,,,,,,,,,,,,,,,,,,,,,,,,,,,,,,,,,,,,,,,,,,
,,,,65e8fd23ef669d553e9db84b,A,2024-05-27_11h21.24.765,Slot Machine Game,2023.1.3,Win32,60.24096386,,,,,,,,,,,,,,,,,,,186.3924,14,0.4477,,up,1,,stimuli/card_0_transparent.png,720,0,14,0,14,0,1,,,,,,,,,,,,,,,,,,,,,,,,,,,,,,,,,,,,,,,,,,,,
,,,,65e8fd23ef669d553e9db84b,A,2024-05-27_11h21.24.765,Slot Machine Game,2023.1.3,Win32,60.24096386,,,,,,,,,,,,,,,,,"[6,15]","[[1,3,2],[3,1,2]]",193.6751,0,1.7396,,up,0.5,,stimuli/card_100_transparent.png,100,100,0,0,0,0,1,,188.6711,,,,,,,,,,,,,,,,,,,,,,,,,,,,,,,,,,,,,,,,,,
,,,,65e8fd23ef669d553e9db84b,A,2024-05-27_11h21.24.765,Slot Machine Game,2023.1.3,Win32,60.24096386,,,,,,,,,,,,,,,,,,,196.7297,1,2.2367,,up,1,,stimuli/card_0_transparent.png,100,0,1,0,1,0,1,,,,,,,,,,,,,,,,,,,,,,,,,,,,,,,,,,,,,,,,,,,,
,,,,65e8fd23ef669d553e9db84b,A,2024-05-27_11h21.24.765,Slot Machine Game,2023.1.3,Win32,60.24096386,,,,,,,,,,,,,,,,,,,200.7872,2,2.1868,,up,1,,stimuli/card_0_transparent.png,100,0,2,0,2,0,1,,,,,,,,,,,,,,,,,,,,,,,,,,,,,,,,,,,,,,,,,,,,
,,,,65e8fd23ef669d553e9db84b,A,2024-05-27_11h21.24.765,Slot Machine Game,2023.1.3,Win32,60.24096386,,,,,,,,,,,,,,,,,,,204.7962,3,1.3253,,up,1,,stimuli/card_100_transparent.png,200,100,3,0,3,0,1,,,,,,,,,,,,,,,,,,,,,,,,,,,,,,,,,,,,,,,,,,,,
,,,,65e8fd23ef669d553e9db84b,A,2024-05-27_11h21.24.765,Slot Machine Game,2023.1.3,Win32,60.24096386,,,,,,,,,,,,,,,,,,,207.944,4,0.1659,,up,1,,stimuli/card_0_transparent.png,200,0,4,0,4,0,1,,,,,,,,,,,,,,,,,,,,,,,,,,,,,,,,,,,,,,,,,,,,
,,,,65e8fd23ef669d553e9db84b,A,2024-05-27_11h21.24.765,Slot Machine Game,2023.1.3,Win32,60.24096386,,,,,,,,,,,,,,,,,,,209.9315,5,0.0139,,left,0.5,,stimuli/card_100_transparent.png,300,100,5,0,5,0,1,,,,,,,,,,,,,,,,,,,,,,,,,,,,,,,,,,,,,,,,,,,,
,,,,65e8fd23ef669d553e9db84b,A,2024-05-27_11h21.24.765,Slot Machine Game,2023.1.3,Win32,60.24096386,,,,,,,,,,,,,,,,,,,211.2736,6,0.4642,,left,1,,stimuli/card_0_transparent.png,300,0,6,0,6,0,1,,,,,,,,,,,,,,,,,,,,,,,,,,,,,,,,,,,,,,,,,,,,
,,,,65e8fd23ef669d553e9db84b,A,2024-05-27_11h21.24.765,Slot Machine Game,2023.1.3,Win32,60.24096386,,,,,,,,,,,,,,,,,,,213.5605,7,0.3484,,right,1.5,,stimuli/card_0_transparent.png,300,0,7,0,7,0,1,,,,,,,,,,,,,,,,,,,,,,,,,,,,,,,,,,,,,,,,,,,,
,,,,65e8fd23ef669d553e9db84b,A,2024-05-27_11h21.24.765,Slot Machine Game,2023.1.3,Win32,60.24096386,,,,,,,,,,,,,,,,,,,216.2269,8,0.5175,,up,0.5,,stimuli/card_100_transparent.png,400,100,8,0,8,0,1,,,,,,,,,,,,,,,,,,,,,,,,,,,,,,,,,,,,,,,,,,,,
,,,,65e8fd23ef669d553e9db84b,A,2024-05-27_11h21.24.765,Slot Machine Game,2023.1.3,Win32,60.24096386,,,,,,,,,,,,,,,,,,,218.0663,9,0.5305,,up,1.5,,stimuli/card_100_transparent.png,500,100,9,0,9,0,1,,,,,,,,,,,,,,,,,,,,,,,,,,,,,,,,,,,,,,,,,,,,
,,,,65e8fd23ef669d553e9db84b,A,2024-05-27_11h21.24.765,Slot Machine Game,2023.1.3,Win32,60.24096386,,,,,,,,,,,,,,,,,,,220.915,10,0.6629,,left,1,,stimuli/card_0_transparent.png,500,0,10,0,10,0,1,,,,,,,,,,,,,,,,,,,,,,,,,,,,,,,,,,,,,,,,,,,,
,,,,65e8fd23ef669d553e9db84b,A,2024-05-27_11h21.24.765,Slot Machine Game,2023.1.3,Win32,60.24096386,,,,,,,,,,,,,,,,,,,223.3999,11,1.3256,,up,1,,stimuli/card_100_transparent.png,600,100,11,0,11,0,1,,,,,,,,,,,,,,,,,,,,,,,,,,,,,,,,,,,,,,,,,,,,
,,,,65e8fd23ef669d553e9db84b,A,2024-05-27_11h21.24.765,Slot Machine Game,2023.1.3,Win32,60.24096386,,,,,,,,,,,,,,,,,,,226.5472,12,,,,0.5,,,,,12,0,12,0,1,,,,,,,,,,,,,,,,,,,,,,,,,,,,,,,,,,,,,,,,,,,,
,,,,65e8fd23ef669d553e9db84b,A,2024-05-27_11h21.24.765,Slot Machine Game,2023.1.3,Win32,60.24096386,,,,,,,,,,,,,,,,,,,232.0653,13,3.0504,,up,1.5,,stimuli/card_10_transparent.png,610,10,13,0,13,0,1,,,,,,,,,,,,,,,,,,,,,,,,,,,,,,,,,,,,,,,,,,,,
,,,,65e8fd23ef669d553e9db84b,A,2024-05-27_11h21.24.765,Slot Machine Game,2023.1.3,Win32,60.24096386,,,,,,,,,,,,,,,,,,,237.4307,14,0.1289,,left,1,,stimuli/card_0_transparent.png,610,0,14,0,14,0,1,,,,,,,,,,,,,,,,,,,,,,,,,,,,,,,,,,,,,,,,,,,,
,,,,65e8fd23ef669d553e9db84b,A,2024-05-27_11h21.24.765,Slot Machine Game,2023.1.3,Win32,60.24096386,,,,,,,,,,,,,,,,,,,,,,,,,,,,,,,,,,,239.3861,,,244.3891,space,30.1054,,,,,,,,,,,,,,,,,,,,,,,,,,,,,,,,,,,,,
,,,,65e8fd23ef669d553e9db84b,A,2024-05-27_11h21.24.765,Slot Machine Game,2023.1.3,Win32,60.24096386,,,,,,,,,,,,,,,,,,,,,,,,,,,,,,,,,,,,,,,,,,274.5226,1,"[0,1,2,3,4,5,6,7,8,9]",space,1.0004,,,,,,,,,,,,,,,,,,,,,,,,,,,,,,,
,,,,65e8fd23ef669d553e9db84b,A,2024-05-27_11h21.24.765,Slot Machine Game,2023.1.3,Win32,60.24096386,,,,,,,,,,,,,,,,,,,,,,,,,,,100,,,,,,,,,,,,,,,,,,,,,1,1,"[12,15]","[[2,1,3],[2,3,1]]",275.5592,0,up,0.216,,1,0.3,"[2,1,3]",0.697619059,stimuli/card_100_transparent.png,100,0,0,0,0,1,,,,,,,,,,
,,,,65e8fd23ef669d553e9db84b,A,2024-05-27_11h21.24.765,Slot Machine Game,2023.1.3,Win32,60.24096386,,,,,,,,,,,,,,,,,,,,,,,,,,,100,,,,,,,,,,,,,,,,,,,,,1,1,,,277.5972,1,right,0.4637,,1.5,0.3,"[2,1,3]",0.227579018,stimuli/card_0_transparent.png,0,1,0,1,0,1,,,,,,,,,,
,,,,65e8fd23ef669d553e9db84b,A,2024-05-27_11h21.24.765,Slot Machine Game,2023.1.3,Win32,60.24096386,,,,,,,,,,,,,,,,,,,,,,,,,,,110,,,,,,,,,,,,,,,,,,,,,1,1,,,280.3855,2,left,2.9513,,1,0.3,"[2,1,3]",0.316406491,stimuli/card_10_transparent.png,10,2,0,2,0,1,,,,,,,,,,
,,,,65e8fd23ef669d553e9db84b,A,2024-05-27_11h21.24.765,Slot Machine Game,2023.1.3,Win32,60.24096386,,,,,,,,,,,,,,,,,,,,,,,,,,,120,,,,,,,,,,,,,,,,,,,,,1,1,,,285.1555,3,left,1.6902,,1,0.3,"[2,1,3]",0.550709445,stimuli/card_10_transparent.png,10,3,0,3,0,1,,,,,,,,,,
,,,,65e8fd23ef669d553e9db84b,A,2024-05-27_11h21.24.765,Slot Machine Game,2023.1.3,Win32,60.24096386,,,,,,,,,,,,,,,,,,,,,,,,,,,220,,,,,,,,,,,,,,,,,,,,,1,1,,,288.6907,4,up,0.2014,,1.5,0.3,"[2,1,3]",0.479458705,stimuli/card_100_transparent.png,100,4,0,4,0,1,,,,,,,,,,
,,,,65e8fd23ef669d553e9db84b,A,2024-05-27_11h21.24.765,Slot Machine Game,2023.1.3,Win32,60.24096386,,,,,,,,,,,,,,,,,,,,,,,,,,,230,,,,,,,,,,,,,,,,,,,,,1,1,,,291.2016,5,up,0.0835,,1.5,0.3,"[2,1,3]",0.136006202,stimuli/card_10_transparent.png,10,5,0,5,0,1,,,,,,,,,,
,,,,65e8fd23ef669d553e9db84b,A,2024-05-27_11h21.24.765,Slot Machine Game,2023.1.3,Win32,60.24096386,,,,,,,,,,,,,,,,,,,,,,,,,,,330,,,,,,,,,,,,,,,,,,,,,1,1,,,293.6209,6,up,0.3979,,1.5,0.3,"[2,1,3]",0.566639935,stimuli/card_100_transparent.png,100,6,0,6,0,1,,,,,,,,,,
,,,,65e8fd23ef669d553e9db84b,A,2024-05-27_11h21.24.765,Slot Machine Game,2023.1.3,Win32,60.24096386,,,,,,,,,,,,,,,,,,,,,,,,,,,340,,,,,,,,,,,,,,,,,,,,,1,1,,,296.3374,7,up,3.0838,,1,0.3,"[2,1,3]",0.193793794,stimuli/card_10_transparent.png,10,7,0,7,0,1,,,,,,,,,,
,,,,65e8fd23ef669d553e9db84b,A,2024-05-27_11h21.24.765,Slot Machine Game,2023.1.3,Win32,60.24096386,,,,,,,,,,,,,,,,,,,,,,,,,,,440,,,,,,,,,,,,,,,,,,,,,1,1,,,301.2407,8,up,0.3932,,0.5,0.3,"[2,1,3]",0.771979903,stimuli/card_100_transparent.png,100,8,0,8,0,1,,,,,,,,,,
,,,,65e8fd23ef669d553e9db84b,A,2024-05-27_11h21.24.765,Slot Machine Game,2023.1.3,Win32,60.24096386,,,,,,,,,,,,,,,,,,,,,,,,,,,540,,,,,,,,,,,,,,,,,,,,,1,1,,,302.9497,9,up,0.7951,,0.5,0.3,"[2,1,3]",0.99917107,stimuli/card_100_transparent.png,100,9,0,9,0,1,,,,,,,,,,
,,,,65e8fd23ef669d553e9db84b,A,2024-05-27_11h21.24.765,Slot Machine Game,2023.1.3,Win32,60.24096386,,,,,,,,,,,,,,,,,,,,,,,,,,,,,,,,,,,,,,,,,,,,,,,,1,1,,,305.0673,10,,,,1.5,0.3,,,,,10,0,10,0,1,,,,,,,,,,
,,,,65e8fd23ef669d553e9db84b,A,2024-05-27_11h21.24.765,Slot Machine Game,2023.1.3,Win32,60.24096386,,,,,,,,,,,,,,,,,,,,,,,,,,,550,,,,,,,,,,,,,,,,,,,,,1,1,,,310.585,11,left,0.6123,,0.5,0.3,"[2,1,3]",0.601919797,stimuli/card_10_transparent.png,10,11,0,11,0,1,,,,,,,,,,
,,,,65e8fd23ef669d553e9db84b,A,2024-05-27_11h21.24.765,Slot Machine Game,2023.1.3,Win32,60.24096386,,,,,,,,,,,,,,,,,,,,,,,,,,,560,,,,,,,,,,,,,,,,,,,,,1,1,,,312.5225,12,up,0.1159,,1,0.3,"[2,3,1]",0.135280872,stimuli/card_10_transparent.png,10,12,0,12,0,1,,,,,,,,,,
,,,,65e8fd23ef669d553e9db84b,A,2024-05-27_11h21.24.765,Slot Machine Game,2023.1.3,Win32,60.24096386,,,,,,,,,,,,,,,,,,,,,,,,,,,570,,,,,,,,,,,,,,,,,,,,,1,1,,,314.4602,13,up,0.3317,,1,0.3,"[2,3,1]",0.150177755,stimuli/card_10_transparent.png,10,13,0,13,0,1,,,,,,,,,,
,,,,65e8fd23ef669d553e9db84b,A,2024-05-27_11h21.24.765,Slot Machine Game,2023.1.3,Win32,60.24096386,,,,,,,,,,,,,,,,,,,,,,,,,,,580,,,,,,,,,,,,,,,,,,,,,1,1,,,316.6133,14,up,1.8391,,0.5,0.3,"[2,3,1]",0.141701828,stimuli/card_10_transparent.png,10,14,0,14,0,1,,,,,,,,,,
,,,,65e8fd23ef669d553e9db84b,A,2024-05-27_11h21.24.765,Slot Machine Game,2023.1.3,Win32,60.24096386,,,,,,,,,,,,,,,,,,,,,,,,,,,,,,,,,,,319.778,,,,,,,,,,,,,,,,,,,,,,,,,,,,,,,,,[580],0,0,0,0,1,,,,
,,,,65e8fd23ef669d553e9db84b,A,2024-05-27_11h21.24.765,Slot Machine Game,2023.1.3,Win32,60.24096386,,,,,,,,,,,,,,,,,,,,,,,,,,,0,,,,,,,,,,,,,,,,,,,,,2,2,"[6,15]","[[1,3,2],[3,2,1]]",324.7915,0,up,0.1002,,0.5,0.3,"[1,3,2]",0.48027435,stimuli/card_0_transparent.png,0,0,0,0,0,1,,,,,,,,,,
,,,,65e8fd23ef669d553e9db84b,A,2024-05-27_11h21.24.765,Slot Machine Game,2023.1.3,Win32,60.24096386,,,,,,,,,,,,,,,,,,,,,,,,,,,0,,,,,,,,,,,,,,,,,,,,,2,2,,,326.2097,1,up,0.7131,,1,0.3,"[1,3,2]",0.746871439,stimuli/card_0_transparent.png,0,1,0,1,0,1,,,,,,,,,,
,,,,65e8fd23ef669d553e9db84b,A,2024-05-27_11h21.24.765,Slot Machine Game,2023.1.3,Win32,60.24096386,,,,,,,,,,,,,,,,,,,,,,,,,,,0,,,,,,,,,,,,,,,,,,,,,2,2,,,328.7469,2,right,0.5089,,0.5,0.3,"[1,3,2]",0.087395851,stimuli/card_0_transparent.png,0,2,0,2,0,1,,,,,,,,,,
,,,,65e8fd23ef669d553e9db84b,A,2024-05-27_11h21.24.765,Slot Machine Game,2023.1.3,Win32,60.24096386,,,,,,,,,,,,,,,,,,,,,,,,,,,100,,,,,,,,,,,,,,,,,,,,,2,2,,,330.5779,3,left,0.5628,,1.5,0.3,"[1,3,2]",0.869379892,stimuli/card_100_transparent.png,100,3,0,3,0,1,,,,,,,,,,
,,,,65e8fd23ef669d553e9db84b,A,2024-05-27_11h21.24.765,Slot Machine Game,2023.1.3,Win32,60.24096386,,,,,,,,,,,,,,,,,,,,,,,,,,,200,,,,,,,,,,,,,,,,,,,,,2,2,,,333.4604,4,left,0.4102,,0.5,0.3,"[1,3,2]",0.314628933,stimuli/card_100_transparent.png,100,4,0,4,0,1,,,,,,,,,,
,,,,65e8fd23ef669d553e9db84b,A,2024-05-27_11h21.24.765,Slot Machine Game,2023.1.3,Win32,60.24096386,,,,,,,,,,,,,,,,,,,,,,,,,,,300,,,,,,,,,,,,,,,,,,,,,2,2,,,335.1839,5,left,1.8889,,1.5,0.3,"[1,3,2]",0.555724044,stimuli/card_100_transparent.png,100,5,0,5,0,1,,,,,,,,,,
,,,,65e8fd23ef669d553e9db84b,A,2024-05-27_11h21.24.765,Slot Machine Game,2023.1.3,Win32,60.24096386,,,,,,,,,,,,,,,,,,,,,,,,,,,300,,,,,,,,,,,,,,,,,,,,,2,2,,,339.3869,6,left,0.8451,,0.5,0.3,"[3,2,1]",0.98295323,stimuli/card_0_transparent.png,0,6,0,6,0,1,,,,,,,,,,
,,,,65e8fd23ef669d553e9db84b,A,2024-05-27_11h21.24.765,Slot Machine Game,2023.1.3,Win32,60.24096386,,,,,,,,,,,,,,,,,,,,,,,,,,,300,,,,,,,,,,,,,,,,,,,,,2,2,,,341.5566,7,left,0.1356,,1,0.3,"[3,2,1]",0.686284901,stimuli/card_0_transparent.png,0,7,0,7,0,1,,,,,,,,,,
,,,,65e8fd23ef669d553e9db84b,A,2024-05-27_11h21.24.765,Slot Machine Game,2023.1.3,Win32,60.24096386,,,,,,,,,,,,,,,,,,,,,,,,,,,310,,,,,,,,,,,,,,,,,,,,,2,2,,,343.5113,8,up,0.0173,,1.5,0.3,"[3,2,1]",0.412585984,stimuli/card_10_transparent.png,10,8,0,8,0,1,,,,,,,,,,
,,,,65e8fd23ef669d553e9db84b,A,2024-05-27_11h21.24.765,Slot Machine Game,2023.1.3,Win32,60.24096386,,,,,,,,,,,,,,,,,,,,,,,,,,,310,,,,,,,,,,,,,,,,,,,,,2,2,,,345.8509,9,left,0.1232,,0.5,0.3,"[3,2,1]",0.686407152,stimuli/card_0_transparent.png,0,9,0,9,0,1,,,,,,,,,,
,,,,65e8fd23ef669d553e9db84b,A,2024-05-27_11h21.24.765,Slot Machine Game,2023.1.3,Win32,60.24096386,,,,,,,,,,,,,,,,,,,,,,,,,,,410,,,,,,,,,,,,,,,,,,,,,2,2,,,347.2829,10,right,0.0837,,1.5,0.3,"[3,2,1]",0.553105657,stimuli/card_100_transparent.png,100,10,0,10,0,1,,,,,,,,,,
,,,,65e8fd23ef669d553e9db84b,A,2024-05-27_11h21.24.765,Slot Machine Game,2023.1.3,Win32,60.24096386,,,,,,,,,,,,,,,,,,,,,,,,,,,510,,,,,,,,,,,,,,,,,,,,,2,2,,,349.6786,11,right,0.0309,,0.5,0.3,"[3,2,1]",0.481105644,stimuli/card_100_transparent.png,100,11,0,11,0,1,,,,,,,,,,
,,,,65e8fd23ef669d553e9db84b,A,2024-05-27_11h21.24.765,Slot Machine Game,2023.1.3,Win32,60.24096386,,,,,,,,,,,,,,,,,,,,,,,,,,,610,,,,,,,,,,,,,,,,,,,,,2,2,,,351.027,12,right,0.6223,,1,0.3,"[3,2,1]",0.250599939,stimuli/card_100_transparent.png,100,12,0,12,0,1,,,,,,,,,,
,,,,65e8fd23ef669d553e9db84b,A,2024-05-27_11h21.24.765,Slot Machine Game,2023.1.3,Win32,60.24096386,,,,,,,,,,,,,,,,,,,,,,,,,,,710,,,,,,,,,,,,,,,,,,,,,2,2,,,353.467,13,right,0.2958,,1.5,0.3,"[3,2,1]",0.208437028,stimuli/card_100_transparent.png,100,13,0,13,0,1,,,,,,,,,,
,,,,65e8fd23ef669d553e9db84b,A,2024-05-27_11h21.24.765,Slot Machine Game,2023.1.3,Win32,60.24096386,,,,,,,,,,,,,,,,,,,,,,,,,,,810,,,,,,,,,,,,,,,,,,,,,2,2,,,356.0854,14,right,1.392,,1,0.3,"[3,2,1]",0.534031997,stimuli/card_100_transparent.png,100,14,0,14,0,1,,,,,,,,,,
,,,,65e8fd23ef669d553e9db84b,A,2024-05-27_11h21.24.765,Slot Machine Game,2023.1.3,Win32,60.24096386,,,,,,,,,,,,,,,,,,,,,,,,,,,,,,,,,,,359.298,,,,,,,,,,,,,,,,,,,,,,,,,,,,,,,,,"[580,810]",1,0,1,0,1,,,,
,,,,65e8fd23ef669d553e9db84b,A,2024-05-27_11h21.24.765,Slot Machine Game,2023.1.3,Win32,60.24096386,,,,,,,,,,,,,,,,,,,,,,,,,,,10,,,,,,,,,,,,,,,,,,,,,3,3,"[15,15]","[[3,1,2],[3,1,2]]",364.3145,0,right,2.0416,,1.5,0.3,"[3,1,2]",0.406957521,stimuli/card_10_transparent.png,10,0,0,0,0,1,,,,,,,,,,
,,,,65e8fd23ef669d553e9db84b,A,2024-05-27_11h21.24.765,Slot Machine Game,2023.1.3,Win32,60.24096386,,,,,,,,,,,,,,,,,,,,,,,,,,,110,,,,,,,,,,,,,,,,,,,,,3,3,,,368.6907,1,up,0.3487,,0.5,0.3,"[3,1,2]",0.620707845,stimuli/card_100_transparent.png,100,1,0,1,0,1,,,,,,,,,,
,,,,65e8fd23ef669d553e9db84b,A,2024-05-27_11h21.24.765,Slot Machine Game,2023.1.3,Win32,60.24096386,,,,,,,,,,,,,,,,,,,,,,,,,,,210,,,,,,,,,,,,,,,,,,,,,3,3,,,370.3639,2,up,0.3154,,0.5,0.3,"[3,1,2]",0.814957864,stimuli/card_100_transparent.png,100,2,0,2,0,1,,,,,,,,,,
,,,,65e8fd23ef669d553e9db84b,A,2024-05-27_11h21.24.765,Slot Machine Game,2023.1.3,Win32,60.24096386,,,,,,,,,,,,,,,,,,,,,,,,,,,310,,,,,,,,,,,,,,,,,,,,,3,3,,,372.0038,3,up,2.2864,,1,0.3,"[3,1,2]",0.324071049,stimuli/card_100_transparent.png,100,3,0,3,0,1,,,,,,,,,,
,,,,65e8fd23ef669d553e9db84b,A,2024-05-27_11h21.24.765,Slot Machine Game,2023.1.3,Win32,60.24096386,,,,,,,,,,,,,,,,,,,,,,,,,,,410,,,,,,,,,,,,,,,,,,,,,3,3,,,376.1121,4,up,0.5628,,0.5,0.3,"[3,1,2]",0.622564561,stimuli/card_100_transparent.png,100,4,0,4,0,1,,,,,,,,,,
,,,,65e8fd23ef669d553e9db84b,A,2024-05-27_11h21.24.765,Slot Machine Game,2023.1.3,Win32,60.24096386,,,,,,,,,,,,,,,,,,,,,,,,,,,510,,,,,,,,,,,,,,,,,,,,,3,3,,,378.0005,5,up,0.634,,1,0.3,"[3,1,2]",0.44145017,stimuli/card_100_transparent.png,100,5,0,5,0,1,,,,,,,,,,
,,,,65e8fd23ef669d553e9db84b,A,2024-05-27_11h21.24.765,Slot Machine Game,2023.1.3,Win32,60.24096386,,,,,,,,,,,,,,,,,,,,,,,,,,,610,,,,,,,,,,,,,,,,,,,,,3,3,,,380.4575,6,up,0.4491,,1,0.3,"[3,1,2]",0.448989928,stimuli/card_100_transparent.png,100,6,0,6,0,1,,,,,,,,,,
,,,,65e8fd23ef669d553e9db84b,A,2024-05-27_11h21.24.765,Slot Machine Game,2023.1.3,Win32,60.24096386,,,,,,,,,,,,,,,,,,,,,,,,,,,620,,,,,,,,,,,,,,,,,,,,,3,3,,,382.7266,7,right,0.3863,,1.5,0.3,"[3,1,2]",0.946554469,stimuli/card_10_transparent.png,10,7,0,7,0,1,,,,,,,,,,
,,,,65e8fd23ef669d553e9db84b,A,2024-05-27_11h21.24.765,Slot Machine Game,2023.1.3,Win32,60.24096386,,,,,,,,,,,,,,,,,,,,,,,,,,,720,,,,,,,,,,,,,,,,,,,,,3,3,,,385.4344,8,up,1.2149,,1.5,0.3,"[3,1,2]",0.593379206,stimuli/card_100_transparent.png,100,8,0,8,0,1,,,,,,,,,,
,,,,65e8fd23ef669d553e9db84b,A,2024-05-27_11h21.24.765,Slot Machine Game,2023.1.3,Win32,60.24096386,,,,,,,,,,,,,,,,,,,,,,,,,,,730,,,,,,,,,,,,,,,,,,,,,3,3,,,388.9705,9,right,0.1336,,0.5,0.3,"[3,1,2]",0.704141996,stimuli/card_10_transparent.png,10,9,0,9,0,1,,,,,,,,,,
,,,,65e8fd23ef669d553e9db84b,A,2024-05-27_11h21.24.765,Slot Machine Game,2023.1.3,Win32,60.24096386,,,,,,,,,,,,,,,,,,,,,,,,,,,740,,,,,,,,,,,,,,,,,,,,,3,3,,,390.4296,10,right,0.9448,,0.5,0.3,"[3,1,2]",0.809134281,stimuli/card_10_transparent.png,10,10,0,10,0,1,,,,,,,,,,
,,,,65e8fd23ef669d553e9db84b,A,2024-05-27_11h21.24.765,Slot Machine Game,2023.1.3,Win32,60.24096386,,,,,,,,,,,,,,,,,,,,,,,,,,,740,,,,,,,,,,,,,,,,,,,,,3,3,,,392.6985,11,right,1.0644,,1,0.3,"[3,1,2]",0.087180107,stimuli/card_0_transparent.png,0,11,0,11,0,1,,,,,,,,,,
,,,,65e8fd23ef669d553e9db84b,A,2024-05-27_11h21.24.765,Slot Machine Game,2023.1.3,Win32,60.24096386,,,,,,,,,,,,,,,,,,,,,,,,,,,740,,,,,,,,,,,,,,,,,,,,,3,3,,,395.582,12,left,0.4176,,0.5,0.3,"[3,1,2]",0.480626375,stimuli/card_0_transparent.png,0,12,0,12,0,1,,,,,,,,,,
,,,,65e8fd23ef669d553e9db84b,A,2024-05-27_11h21.24.765,Slot Machine Game,2023.1.3,Win32,60.24096386,,,,,,,,,,,,,,,,,,,,,,,,,,,840,,,,,,,,,,,,,,,,,,,,,3,3,,,397.3106,13,up,0.8789,,0.5,0.3,"[3,1,2]",0.733496776,stimuli/card_100_transparent.png,100,13,0,13,0,1,,,,,,,,,,
,,,,65e8fd23ef669d553e9db84b,A,2024-05-27_11h21.24.765,Slot Machine Game,2023.1.3,Win32,60.24096386,,,,,,,,,,,,,,,,,,,,,,,,,,,940,,,,,,,,,,,,,,,,,,,,,3,3,,,399.5375,14,up,2.5341,,0.5,0.3,"[3,1,2]",0.906863384,stimuli/card_100_transparent.png,100,14,0,14,0,1,,,,,,,,,,
,,,,65e8fd23ef669d553e9db84b,A,2024-05-27_11h21.24.765,Slot Machine Game,2023.1.3,Win32,60.24096386,,,,,,,,,,,,,,,,,,,,,,,,,,,,,,,,,,,403.4005,,,,,,,,,,,,,,,,,,,,,,,,,,,,,,,,,"[580,810,940]",2,0,2,0,1,,,,
,,,,65e8fd23ef669d553e9db84b,A,2024-05-27_11h21.24.765,Slot Machine Game,2023.1.3,Win32,60.24096386,,,,,,,,,,,,,,,,,,,,,,,,,,,0,,,,,,,,,,,,,,,,,,,,,4,4,"[7,15]","[[2,3,1],[1,2,3]]",408.4089,0,up,1.5448,,0.5,0.3,"[2,3,1]",0.280143699,stimuli/card_0_transparent.png,0,0,0,0,0,1,,,,,,,,,,
,,,,65e8fd23ef669d553e9db84b,A,2024-05-27_11h21.24.765,Slot Machine Game,2023.1.3,Win32,60.24096386,,,,,,,,,,,,,,,,,,,,,,,,,,,10,,,,,,,,,,,,,,,,,,,,,4,4,,,411.2804,1,up,1.8441,,1.5,0.3,"[2,3,1]",0.146110384,stimuli/card_10_transparent.png,10,1,0,1,0,1,,,,,,,,,,
,,,,65e8fd23ef669d553e9db84b,A,2024-05-27_11h21.24.765,Slot Machine Game,2023.1.3,Win32,60.24096386,,,,,,,,,,,,,,,,,,,,,,,,,,,20,,,,,,,,,,,,,,,,,,,,,4,4,,,415.4553,2,left,0.832,,0.5,0.3,"[2,3,1]",0.586959675,stimuli/card_10_transparent.png,10,2,0,2,0,1,,,,,,,,,,
,,,,65e8fd23ef669d553e9db84b,A,2024-05-27_11h21.24.765,Slot Machine Game,2023.1.3,Win32,60.24096386,,,,,,,,,,,,,,,,,,,,,,,,,,,120,,,,,,,,,,,,,,,,,,,,,4,4,,,417.6129,3,right,0.1666,,0.5,0.3,"[2,3,1]",0.437195381,stimuli/card_100_transparent.png,100,3,0,3,0,1,,,,,,,,,,
,,,,65e8fd23ef669d553e9db84b,A,2024-05-27_11h21.24.765,Slot Machine Game,2023.1.3,Win32,60.24096386,,,,,,,,,,,,,,,,,,,,,,,,,,,220,,,,,,,,,,,,,,,,,,,,,4,4,,,419.104,4,right,3.6016,,0.5,0.3,"[2,3,1]",0.703830576,stimuli/card_100_transparent.png,100,4,0,4,0,1,,,,,,,,,,
,,,,65e8fd23ef669d553e9db84b,A,2024-05-27_11h21.24.765,Slot Machine Game,2023.1.3,Win32,60.24096386,,,,,,,,,,,,,,,,,,,,,,,,,,,320,,,,,,,,,,,,,,,,,,,,,4,4,,,424.0518,5,right,0.1842,,0.5,0.3,"[2,3,1]",0.993370534,stimuli/card_100_transparent.png,100,5,0,5,0,1,,,,,,,,,,
,,,,65e8fd23ef669d553e9db84b,A,2024-05-27_11h21.24.765,Slot Machine Game,2023.1.3,Win32,60.24096386,,,,,,,,,,,,,,,,,,,,,,,,,,,420,,,,,,,,,,,,,,,,,,,,,4,4,,,425.5383,6,right,1.744,,1.5,0.3,"[2,3,1]",0.612513982,stimuli/card_100_transparent.png,100,6,0,6,0,1,,,,,,,,,,
,,,,65e8fd23ef669d553e9db84b,A,2024-05-27_11h21.24.765,Slot Machine Game,2023.1.3,Win32,60.24096386,,,,,,,,,,,,,,,,,,,,,,,,,,,420,,,,,,,,,,,,,,,,,,,,,4,4,,,429.5898,7,right,0.6464,,1,0.3,"[1,2,3]",0.932227131,stimuli/card_0_transparent.png,0,7,0,7,0,1,,,,,,,,,,
,,,,65e8fd23ef669d553e9db84b,A,2024-05-27_11h21.24.765,Slot Machine Game,2023.1.3,Win32,60.24096386,,,,,,,,,,,,,,,,,,,,,,,,,,,430,,,,,,,,,,,,,,,,,,,,,4,4,,,432.0579,8,up,0.0668,,0.5,0.3,"[1,2,3]",0.729054863,stimuli/card_10_transparent.png,10,8,0,8,0,1,,,,,,,,,,
,,,,65e8fd23ef669d553e9db84b,A,2024-05-27_11h21.24.765,Slot Machine Game,2023.1.3,Win32,60.24096386,,,,,,,,,,,,,,,,,,,,,,,,,,,440,,,,,,,,,,,,,,,,,,,,,4,4,,,433.4492,9,right,0.8264,,1,0.3,"[1,2,3]",0.123725297,stimuli/card_10_transparent.png,10,9,0,9,0,1,,,,,,,,,,
,,,,65e8fd23ef669d553e9db84b,A,2024-05-27_11h21.24.765,Slot Machine Game,2023.1.3,Win32,60.24096386,,,,,,,,,,,,,,,,,,,,,,,,,,,440,,,,,,,,,,,,,,,,,,,,,4,4,,,436.0997,10,right,0.8458,,0.5,0.3,"[1,2,3]",0.832488296,stimuli/card_0_transparent.png,0,10,0,10,0,1,,,,,,,,,,
,,,,65e8fd23ef669d553e9db84b,A,2024-05-27_11h21.24.765,Slot Machine Game,2023.1.3,Win32,60.24096386,,,,,,,,,,,,,,,,,,,,,,,,,,,440,,,,,,,,,,,,,,,,,,,,,4,4,,,438.2701,11,right,1.4435,,0.5,0.3,"[1,2,3]",0.820278543,stimuli/card_0_transparent.png,0,11,0,11,0,1,,,,,,,,,,
,,,,65e8fd23ef669d553e9db84b,A,2024-05-27_11h21.24.765,Slot Machine Game,2023.1.3,Win32,60.24096386,,,,,,,,,,,,,,,,,,,,,,,,,,,540,,,,,,,,,,,,,,,,,,,,,4,4,,,441.0363,12,right,0.3975,,1,0.3,"[1,2,3]",0.009577594,stimuli/card_100_transparent.png,100,12,0,12,0,1,,,,,,,,,,
,,,,65e8fd23ef669d553e9db84b,A,2024-05-27_11h21.24.765,Slot Machine Game,2023.1.3,Win32,60.24096386,,,,,,,,,,,,,,,,,,,,,,,,,,,550,,,,,,,,,,,,,,,,,,,,,4,4,,,443.2567,13,right,0.6627,,1,0.3,"[1,2,3]",0.160767401,stimuli/card_10_transparent.png,10,13,0,13,0,1,,,,,,,,,,
,,,,65e8fd23ef669d553e9db84b,A,2024-05-27_11h21.24.765,Slot Machine Game,2023.1.3,Win32,60.24096386,,,,,,,,,,,,,,,,,,,,,,,,,,,550,,,,,,,,,,,,,,,,,,,,,4,4,,,445.7416,14,right,0.3982,,0.5,0.3,"[1,2,3]",0.348864372,stimuli/card_0_transparent.png,0,14,0,14,0,1,,,,,,,,,,
,,,,65e8fd23ef669d553e9db84b,A,2024-05-27_11h21.24.765,Slot Machine Game,2023.1.3,Win32,60.24096386,,,,,,,,,,,,,,,,,,,,,,,,,,,,,,,,,,,447.4637,,,,,,,,,,,,,,,,,,,,,,,,,,,,,,,,,"[580,810,940,550]",3,0,3,0,1,,,,
,,,,65e8fd23ef669d553e9db84b,A,2024-05-27_11h21.24.765,Slot Machine Game,2023.1.3,Win32,60.24096386,,,,,,,,,,,,,,,,,,,,,,,,,,,0,,,,,,,,,,,,,,,,,,,,,5,5,"[5,15]","[[1,2,3],[3,1,2]]",452.4774,0,left,0.6799,,0.5,0.3,"[1,2,3]",0.07153778,stimuli/card_0_transparent.png,0,0,0,0,0,1,,,,,,,,,,
,,,,65e8fd23ef669d553e9db84b,A,2024-05-27_11h21.24.765,Slot Machine Game,2023.1.3,Win32,60.24096386,,,,,,,,,,,,,,,,,,,,,,,,,,,10,,,,,,,,,,,,,,,,,,,,,5,5,,,454.4831,1,up,0.1665,,1.5,0.3,"[1,2,3]",0.937887094,stimuli/card_10_transparent.png,10,1,0,1,0,1,,,,,,,,,,
,,,,65e8fd23ef669d553e9db84b,A,2024-05-27_11h21.24.765,Slot Machine Game,2023.1.3,Win32,60.24096386,,,,,,,,,,,,,,,,,,,,,,,,,,,10,,,,,,,,,,,,,,,,,,,,,5,5,,,456.9681,2,right,0.5975,,1,0.3,"[1,2,3]",0.670207717,stimuli/card_0_transparent.png,0,2,0,2,0,1,,,,,,,,,,
,,,,65e8fd23ef669d553e9db84b,A,2024-05-27_11h21.24.765,Slot Machine Game,2023.1.3,Win32,60.24096386,,,,,,,,,,,,,,,,,,,,,,,,,,,10,,,,,,,,,,,,,,,,,,,,,5,5,,,459.3868,3,right,1.9056,,1.5,0.3,"[1,2,3]",0.484192071,stimuli/card_0_transparent.png,0,3,0,3,0,1,,,,,,,,,,
,,,,65e8fd23ef669d553e9db84b,A,2024-05-27_11h21.24.765,Slot Machine Game,2023.1.3,Win32,60.24096386,,,,,,,,,,,,,,,,,,,,,,,,,,,110,,,,,,,,,,,,,,,,,,,,,5,5,,,463.6217,4,right,2.8331,,1.5,0.3,"[1,2,3]",0.029002261,stimuli/card_100_transparent.png,100,4,0,4,0,1,,,,,,,,,,
,,,,65e8fd23ef669d553e9db84b,A,2024-05-27_11h21.24.765,Slot Machine Game,2023.1.3,Win32,60.24096386,,,,,,,,,,,,,,,,,,,,,,,,,,,120,,,,,,,,,,,,,,,,,,,,,5,5,,,468.7672,5,right,3.6601,,1.5,0.3,"[3,1,2]",0.799085506,stimuli/card_10_transparent.png,10,5,0,5,0,1,,,,,,,,,,
,,,,65e8fd23ef669d553e9db84b,A,2024-05-27_11h21.24.765,Slot Machine Game,2023.1.3,Win32,60.24096386,,,,,,,,,,,,,,,,,,,,,,,,,,,,,,,,,,,,,,,,,,,,,,,,5,5,,,474.7378,6,,,,1.5,0.3,,,,,6,0,6,0,1,,,,,,,,,,
,,,,65e8fd23ef669d553e9db84b,A,2024-05-27_11h21.24.765,Slot Machine Game,2023.1.3,Win32,60.24096386,,,,,,,,,,,,,,,,,,,,,,,,,,,,,,,,,,,,,,,,,,,,,,,,5,5,,,480.249,7,,,,1.5,0.3,,,,,7,0,7,0,1,,,,,,,,,,
,,,,65e8fd23ef669d553e9db84b,A,2024-05-27_11h21.24.765,Slot Machine Game,2023.1.3,Win32,60.24096386,,,,,,,,,,,,,,,,,,,,,,,,,,,220,,,,,,,,,,,,,,,,,,,,,5,5,,,485.7641,8,up,1.0725,,0.5,0.3,"[3,1,2]",0.88298088,stimuli/card_100_transparent.png,100,8,0,8,0,1,,,,,,,,,,
,,,,65e8fd23ef669d553e9db84b,A,2024-05-27_11h21.24.765,Slot Machine Game,2023.1.3,Win32,60.24096386,,,,,,,,,,,,,,,,,,,,,,,,,,,220,,,,,,,,,,,,,,,,,,,,,5,5,,,488.1654,9,up,0.3179,,0.5,0.3,"[3,1,2]",0.024327715,stimuli/card_0_transparent.png,0,9,0,9,0,1,,,,,,,,,,
,,,,65e8fd23ef669d553e9db84b,A,2024-05-27_11h21.24.765,Slot Machine Game,2023.1.3,Win32,60.24096386,,,,,,,,,,,,,,,,,,,,,,,,,,,220,,,,,,,,,,,,,,,,,,,,,5,5,,,489.796,10,up,1.9003,,1.5,0.3,"[3,1,2]",0.01628899,stimuli/card_0_transparent.png,0,10,0,10,0,1,,,,,,,,,,
,,,,65e8fd23ef669d553e9db84b,A,2024-05-27_11h21.24.765,Slot Machine Game,2023.1.3,Win32,60.24096386,,,,,,,,,,,,,,,,,,,,,,,,,,,230,,,,,,,,,,,,,,,,,,,,,5,5,,,494.0076,11,right,0.1326,,1.5,0.3,"[3,1,2]",0.387373034,stimuli/card_10_transparent.png,10,11,0,11,0,1,,,,,,,,,,
,,,,65e8fd23ef669d553e9db84b,A,2024-05-27_11h21.24.765,Slot Machine Game,2023.1.3,Win32,60.24096386,,,,,,,,,,,,,,,,,,,,,,,,,,,330,,,,,,,,,,,,,,,,,,,,,5,5,,,496.4474,12,up,1.9164,,0.5,0.3,"[3,1,2]",0.824952239,stimuli/card_100_transparent.png,100,12,0,12,0,1,,,,,,,,,,
,,,,65e8fd23ef669d553e9db84b,A,2024-05-27_11h21.24.765,Slot Machine Game,2023.1.3,Win32,60.24096386,,,,,,,,,,,,,,,,,,,,,,,,,,,430,,,,,,,,,,,,,,,,,,,,,5,5,,,499.6784,13,up,0.4644,,0.5,0.3,"[3,1,2]",0.432459545,stimuli/card_100_transparent.png,100,13,0,13,0,1,,,,,,,,,,
,,,,65e8fd23ef669d553e9db84b,A,2024-05-27_11h21.24.765,Slot Machine Game,2023.1.3,Win32,60.24096386,,,,,,,,,,,,,,,,,,,,,,,,,,,430,,,,,,,,,,,,,,,,,,,,,5,5,,,501.4626,14,left,1.1474,,1,0.3,"[3,1,2]",0.55249376,stimuli/card_0_transparent.png,0,14,0,14,0,1,,,,,,,,,,
,,,,65e8fd23ef669d553e9db84b,A,2024-05-27_11h21.24.765,Slot Machine Game,2023.1.3,Win32,60.24096386,,,,,,,,,,,,,,,,,,,,,,,,,,,,,,,,,,,504.4321,,,,,,,,,,,,,,,,,,,,,,,,,,,,,,,,,"[580,810,940,550,430]",4,0,4,0,1,,,,
,,,,65e8fd23ef669d553e9db84b,A,2024-05-27_11h21.24.765,Slot Machine Game,2023.1.3,Win32,60.24096386,,,,,,,,,,,,,,,,,,,,,,,,,,,100,,,,,,,,,,,,,,,,,,,,,6,6,"[4,10,15]","[[2,3,1],[1,3,2],[3,2,1]]",509.4461,0,right,1.2329,,1,0.3,"[2,3,1]",0.690554666,stimuli/card_100_transparent.png,100,0,0,0,0,1,,,,,,,,,,
,,,,65e8fd23ef669d553e9db84b,A,2024-05-27_11h21.24.765,Slot Machine Game,2023.1.3,Win32,60.24096386,,,,,,,,,,,,,,,,,,,,,,,,,,,100,,,,,,,,,,,,,,,,,,,,,6,6,,,512.5002,1,up,3.1075,,1,0.3,"[2,3,1]",0.404113925,stimuli/card_0_transparent.png,0,1,0,1,0,1,,,,,,,,,,
,,,,65e8fd23ef669d553e9db84b,A,2024-05-27_11h21.24.765,Slot Machine Game,2023.1.3,Win32,60.24096386,,,,,,,,,,,,,,,,,,,,,,,,,,,100,,,,,,,,,,,,,,,,,,,,,6,6,,,517.4377,2,up,0.4346,,0.5,0.3,"[2,3,1]",0.256426346,stimuli/card_0_transparent.png,0,2,0,2,0,1,,,,,,,,,,
,,,,65e8fd23ef669d553e9db84b,A,2024-05-27_11h21.24.765,Slot Machine Game,2023.1.3,Win32,60.24096386,,,,,,,,,,,,,,,,,,,,,,,,,,,110,,,,,,,,,,,,,,,,,,,,,6,6,,,519.1877,3,left,0.3276,,0.5,0.3,"[2,3,1]",0.679238293,stimuli/card_10_transparent.png,10,3,0,3,0,1,,,,,,,,,,
,,,,65e8fd23ef669d553e9db84b,A,2024-05-27_11h21.24.765,Slot Machine Game,2023.1.3,Win32,60.24096386,,,,,,,,,,,,,,,,,,,,,,,,,,,120,,,,,,,,,,,,,,,,,,,,,6,6,,,520.8321,4,right,0.0501,,1.5,0.3,"[1,3,2]",0.427287638,stimuli/card_10_transparent.png,10,4,0,4,0,1,,,,,,,,,,
,,,,65e8fd23ef669d553e9db84b,A,2024-05-27_11h21.24.765,Slot Machine Game,2023.1.3,Win32,60.24096386,,,,,,,,,,,,,,,,,,,,,,,,,,,120,,,,,,,,,,,,,,,,,,,,,6,6,,,523.201,5,right,0.7629,,1,0.3,"[1,3,2]",0.003593074,stimuli/card_0_transparent.png,0,5,0,5,0,1,,,,,,,,,,
,,,,65e8fd23ef669d553e9db84b,A,2024-05-27_11h21.24.765,Slot Machine Game,2023.1.3,Win32,60.24096386,,,,,,,,,,,,,,,,,,,,,,,,,,,130,,,,,,,,,,,,,,,,,,,,,6,6,,,525.7859,6,right,2.8826,,1,0.3,"[1,3,2]",0.627902606,stimuli/card_10_transparent.png,10,6,0,6,0,1,,,,,,,,,,
,,,,65e8fd23ef669d553e9db84b,A,2024-05-27_11h21.24.765,Slot Machine Game,2023.1.3,Win32,60.24096386,,,,,,,,,,,,,,,,,,,,,,,,,,,140,,,,,,,,,,,,,,,,,,,,,6,6,,,530.4895,7,right,0.0005,,1.5,0.3,"[1,3,2]",0.413100776,stimuli/card_10_transparent.png,10,7,0,7,0,1,,,,,,,,,,
,,,,65e8fd23ef669d553e9db84b,A,2024-05-27_11h21.24.765,Slot Machine Game,2023.1.3,Win32,60.24096386,,,,,,,,,,,,,,,,,,,,,,,,,,,150,,,,,,,,,,,,,,,,,,,,,6,6,,,532.8091,8,right,0.4497,,0.5,0.3,"[1,3,2]",0.801970083,stimuli/card_10_transparent.png,10,8,0,8,0,1,,,,,,,,,,
,,,,65e8fd23ef669d553e9db84b,A,2024-05-27_11h21.24.765,Slot Machine Game,2023.1.3,Win32,60.24096386,,,,,,,,,,,,,,,,,,,,,,,,,,,150,,,,,,,,,,,,,,,,,,,,,6,6,,,534.5812,9,up,0.0835,,0.5,0.3,"[1,3,2]",0.281393376,stimuli/card_0_transparent.png,0,9,0,9,0,1,,,,,,,,,,
,,,,65e8fd23ef669d553e9db84b,A,2024-05-27_11h21.24.765,Slot Machine Game,2023.1.3,Win32,60.24096386,,,,,,,,,,,,,,,,,,,,,,,,,,,150,,,,,,,,,,,,,,,,,,,,,6,6,,,535.9908,10,left,0.1659,,1.5,0.3,"[3,2,1]",0.357520436,stimuli/card_0_transparent.png,0,10,0,10,0,1,,,,,,,,,,
,,,,65e8fd23ef669d553e9db84b,A,2024-05-27_11h21.24.765,Slot Machine Game,2023.1.3,Win32,60.24096386,,,,,,,,,,,,,,,,,,,,,,,,,,,250,,,,,,,,,,,,,,,,,,,,,6,6,,,538.4746,11,right,0.3177,,1.5,0.3,"[3,2,1]",0.462276445,stimuli/card_100_transparent.png,100,11,0,11,0,1,,,,,,,,,,
,,,,65e8fd23ef669d553e9db84b,A,2024-05-27_11h21.24.765,Slot Machine Game,2023.1.3,Win32,60.24096386,,,,,,,,,,,,,,,,,,,,,,,,,,,250,,,,,,,,,,,,,,,,,,,,,6,6,,,541.1045,12,right,0.3319,,1.5,0.3,"[3,2,1]",0.030081958,stimuli/card_0_transparent.png,0,12,0,12,0,1,,,,,,,,,,
,,,,65e8fd23ef669d553e9db84b,A,2024-05-27_11h21.24.765,Slot Machine Game,2023.1.3,Win32,60.24096386,,,,,,,,,,,,,,,,,,,,,,,,,,,260,,,,,,,,,,,,,,,,,,,,,6,6,,,543.7634,13,up,0.4974,,1.5,0.3,"[3,2,1]",0.518763355,stimuli/card_10_transparent.png,10,13,0,13,0,1,,,,,,,,,,
,,,,65e8fd23ef669d553e9db84b,A,2024-05-27_11h21.24.765,Slot Machine Game,2023.1.3,Win32,60.24096386,,,,,,,,,,,,,,,,,,,,,,,,,,,360,,,,,,,,,,,,,,,,,,,,,6,6,,,546.5757,14,right,2.4002,,0.5,0.3,"[3,2,1]",0.883306301,stimuli/card_100_transparent.png,100,14,0,14,0,1,,,,,,,,,,
,,,,65e8fd23ef669d553e9db84b,A,2024-05-27_11h21.24.765,Slot Machine Game,2023.1.3,Win32,60.24096386,,,,,,,,,,,,,,,,,,,,,,,,,,,,,,,,,,,550.3309,,,,,,,,,,,,,,,,,,,,,,,,,,,,,,,,,"[580,810,940,550,430,360]",5,0,5,0,1,,,,
,,,,65e8fd23ef669d553e9db84b,A,2024-05-27_11h21.24.765,Slot Machine Game,2023.1.3,Win32,60.24096386,,,,,,,,,,,,,,,,,,,,,,,,,,,,,,,,,,,,,,,,,,,,,,,,7,7,"[9,15]","[[1,3,2],[2,3,1]]",555.3441,0,,,,1,0.3,,,,,0,0,0,0,1,,,,,,,,,,
,,,,65e8fd23ef669d553e9db84b,A,2024-05-27_11h21.24.765,Slot Machine Game,2023.1.3,Win32,60.24096386,,,,,,,,,,,,,,,,,,,,,,,,,,,0,,,,,,,,,,,,,,,,,,,,,7,7,,,560.8581,1,up,2.0894,,1.5,0.3,"[1,3,2]",0.595619332,stimuli/card_0_transparent.png,0,1,0,1,0,1,,,,,,,,,,
,,,,65e8fd23ef669d553e9db84b,A,2024-05-27_11h21.24.765,Slot Machine Game,2023.1.3,Win32,60.24096386,,,,,,,,,,,,,,,,,,,,,,,,,,,100,,,,,,,,,,,,,,,,,,,,,7,7,,,565.261,2,left,1.4585,,0.5,0.3,"[1,3,2]",0.954691082,stimuli/card_100_transparent.png,100,2,0,2,0,1,,,,,,,,,,
,,,,65e8fd23ef669d553e9db84b,A,2024-05-27_11h21.24.765,Slot Machine Game,2023.1.3,Win32,60.24096386,,,,,,,,,,,,,,,,,,,,,,,,,,,110,,,,,,,,,,,,,,,,,,,,,7,7,,,568.0435,3,left,0.0668,,0.5,0.3,"[1,3,2]",0.12211142,stimuli/card_10_transparent.png,10,3,0,3,0,1,,,,,,,,,,
,,,,65e8fd23ef669d553e9db84b,A,2024-05-27_11h21.24.765,Slot Machine Game,2023.1.3,Win32,60.24096386,,,,,,,,,,,,,,,,,,,,,,,,,,,210,,,,,,,,,,,,,,,,,,,,,7,7,,,569.4358,4,right,0.1992,,1.5,0.3,"[1,3,2]",0.1445477,stimuli/card_100_transparent.png,100,4,0,4,0,1,,,,,,,,,,
,,,,65e8fd23ef669d553e9db84b,A,2024-05-27_11h21.24.765,Slot Machine Game,2023.1.3,Win32,60.24096386,,,,,,,,,,,,,,,,,,,,,,,,,,,220,,,,,,,,,,,,,,,,,,,,,7,7,,,571.9538,5,right,0.3319,,1,0.3,"[1,3,2]",0.967257924,stimuli/card_10_transparent.png,10,5,0,5,0,1,,,,,,,,,,
,,,,65e8fd23ef669d553e9db84b,A,2024-05-27_11h21.24.765,Slot Machine Game,2023.1.3,Win32,60.24096386,,,,,,,,,,,,,,,,,,,,,,,,,,,320,,,,,,,,,,,,,,,,,,,,,7,7,,,574.1064,6,left,0.2337,,0.5,0.3,"[1,3,2]",0.827546134,stimuli/card_100_transparent.png,100,6,0,6,0,1,,,,,,,,,,
,,,,65e8fd23ef669d553e9db84b,A,2024-05-27_11h21.24.765,Slot Machine Game,2023.1.3,Win32,60.24096386,,,,,,,,,,,,,,,,,,,,,,,,,,,420,,,,,,,,,,,,,,,,,,,,,7,7,,,575.6641,7,left,0.2635,,0.5,0.3,"[1,3,2]",0.774365333,stimuli/card_100_transparent.png,100,7,0,7,0,1,,,,,,,,,,
,,,,65e8fd23ef669d553e9db84b,A,2024-05-27_11h21.24.765,Slot Machine Game,2023.1.3,Win32,60.24096386,,,,,,,,,,,,,,,,,,,,,,,,,,,420,,,,,,,,,,,,,,,,,,,,,7,7,,,577.2547,8,left,0.8449,,1.5,0.3,"[1,3,2]",0.029442722,stimuli/card_0_transparent.png,0,8,0,8,0,1,,,,,,,,,,
,,,,65e8fd23ef669d553e9db84b,A,2024-05-27_11h21.24.765,Slot Machine Game,2023.1.3,Win32,60.24096386,,,,,,,,,,,,,,,,,,,,,,,,,,,520,,,,,,,,,,,,,,,,,,,,,7,7,,,580.4185,9,right,0.4636,,1.5,0.3,"[2,3,1]",0.645165521,stimuli/card_100_transparent.png,100,9,0,9,0,1,,,,,,,,,,
,,,,65e8fd23ef669d553e9db84b,A,2024-05-27_11h21.24.765,Slot Machine Game,2023.1.3,Win32,60.24096386,,,,,,,,,,,,,,,,,,,,,,,,,,,530,,,,,,,,,,,,,,,,,,,,,7,7,,,583.2018,10,left,2.4521,,0.5,0.3,"[2,3,1]",0.91074733,stimuli/card_10_transparent.png,10,10,0,10,0,1,,,,,,,,,,
,,,,65e8fd23ef669d553e9db84b,A,2024-05-27_11h21.24.765,Slot Machine Game,2023.1.3,Win32,60.24096386,,,,,,,,,,,,,,,,,,,,,,,,,,,630,,,,,,,,,,,,,,,,,,,,,7,7,,,586.9739,11,right,0.3152,,1.5,0.3,"[2,3,1]",0.915795766,stimuli/card_100_transparent.png,100,11,0,11,0,1,,,,,,,,,,
,,,,65e8fd23ef669d553e9db84b,A,2024-05-27_11h21.24.765,Slot Machine Game,2023.1.3,Win32,60.24096386,,,,,,,,,,,,,,,,,,,,,,,,,,,630,,,,,,,,,,,,,,,,,,,,,7,7,,,589.6076,12,up,0.4821,,1,0.3,"[2,3,1]",0.207682766,stimuli/card_0_transparent.png,0,12,0,12,0,1,,,,,,,,,,
,,,,65e8fd23ef669d553e9db84b,A,2024-05-27_11h21.24.765,Slot Machine Game,2023.1.3,Win32,60.24096386,,,,,,,,,,,,,,,,,,,,,,,,,,,640,,,,,,,,,,,,,,,,,,,,,7,7,,,591.9103,13,left,0.7627,,1.5,0.3,"[2,3,1]",0.221177662,stimuli/card_10_transparent.png,10,13,0,13,0,1,,,,,,,,,,
,,,,65e8fd23ef669d553e9db84b,A,2024-05-27_11h21.24.765,Slot Machine Game,2023.1.3,Win32,60.24096386,,,,,,,,,,,,,,,,,,,,,,,,,,,640,,,,,,,,,,,,,,,,,,,,,7,7,,,594.9914,14,up,0.1664,,1.5,0.3,"[2,3,1]",0.811337474,stimuli/card_0_transparent.png,0,14,0,14,0,1,,,,,,,,,,
,,,,65e8fd23ef669d553e9db84b,A,2024-05-27_11h21.24.765,Slot Machine Game,2023.1.3,Win32,60.24096386,,,,,,,,,,,,,,,,,,,,,,,,,,,,,,,,,,,597.4929,,,,,,,,,,,,,,,,,,,,,,,,,,,,,,,,,"[580,810,940,550,430,360,640]",6,0,6,0,1,,,,
,,,,65e8fd23ef669d553e9db84b,A,2024-05-27_11h21.24.765,Slot Machine Game,2023.1.3,Win32,60.24096386,,,,,,,,,,,,,,,,,,,,,,,,,,,10,,,,,,,,,,,,,,,,,,,,,8,8,"[11,15]","[[2,1,3],[1,2,3]]",602.5059,0,left,0.0267,,1,0.3,"[2,1,3]",0.887164037,stimuli/card_10_transparent.png,10,0,0,0,0,1,,,,,,,,,,
,,,,65e8fd23ef669d553e9db84b,A,2024-05-27_11h21.24.765,Slot Machine Game,2023.1.3,Win32,60.24096386,,,,,,,,,,,,,,,,,,,,,,,,,,,110,,,,,,,,,,,,,,,,,,,,,8,8,,,604.3383,1,up,0.0873,,1.5,0.3,"[2,1,3]",0.452596722,stimuli/card_100_transparent.png,100,1,0,1,0,1,,,,,,,,,,
,,,,65e8fd23ef669d553e9db84b,A,2024-05-27_11h21.24.765,Slot Machine Game,2023.1.3,Win32,60.24096386,,,,,,,,,,,,,,,,,,,,,,,,,,,210,,,,,,,,,,,,,,,,,,,,,8,8,,,606.743,2,up,0.3818,,1.5,0.3,"[2,1,3]",0.886953882,stimuli/card_100_transparent.png,100,2,0,2,0,1,,,,,,,,,,
,,,,65e8fd23ef669d553e9db84b,A,2024-05-27_11h21.24.765,Slot Machine Game,2023.1.3,Win32,60.24096386,,,,,,,,,,,,,,,,,,,,,,,,,,,220,,,,,,,,,,,,,,,,,,,,,8,8,,,609.4584,3,up,0.1842,,1,0.3,"[2,1,3]",0.140124755,stimuli/card_10_transparent.png,10,3,0,3,0,1,,,,,,,,,,
,,,,65e8fd23ef669d553e9db84b,A,2024-05-27_11h21.24.765,Slot Machine Game,2023.1.3,Win32,60.24096386,,,,,,,,,,,,,,,,,,,,,,,,,,,320,,,,,,,,,,,,,,,,,,,,,8,8,,,611.4779,4,up,3.1928,,0.5,0.3,"[2,1,3]",0.680163472,stimuli/card_100_transparent.png,100,4,0,4,0,1,,,,,,,,,,
,,,,65e8fd23ef669d553e9db84b,A,2024-05-27_11h21.24.765,Slot Machine Game,2023.1.3,Win32,60.24096386,,,,,,,,,,,,,,,,,,,,,,,,,,,420,,,,,,,,,,,,,,,,,,,,,8,8,,,616.0132,5,up,1.7559,,1.5,0.3,"[2,1,3]",0.804363672,stimuli/card_100_transparent.png,100,5,0,5,0,1,,,,,,,,,,
,,,,65e8fd23ef669d553e9db84b,A,2024-05-27_11h21.24.765,Slot Machine Game,2023.1.3,Win32,60.24096386,,,,,,,,,,,,,,,,,,,,,,,,,,,520,,,,,,,,,,,,,,,,,,,,,8,8,,,620.0759,6,up,0.5638,,1.5,0.3,"[2,1,3]",0.957921968,stimuli/card_100_transparent.png,100,6,0,6,0,1,,,,,,,,,,
,,,,65e8fd23ef669d553e9db84b,A,2024-05-27_11h21.24.765,Slot Machine Game,2023.1.3,Win32,60.24096386,,,,,,,,,,,,,,,,,,,,,,,,,,,520,,,,,,,,,,,,,,,,,,,,,8,8,,,622.9584,7,up,0.398,,1.5,0.3,"[2,1,3]",0.048428673,stimuli/card_0_transparent.png,0,7,0,7,0,1,,,,,,,,,,
,,,,65e8fd23ef669d553e9db84b,A,2024-05-27_11h21.24.765,Slot Machine Game,2023.1.3,Win32,60.24096386,,,,,,,,,,,,,,,,,,,,,,,,,,,520,,,,,,,,,,,,,,,,,,,,,8,8,,,625.6792,8,right,0.8802,,1.5,0.3,"[2,1,3]",0.936108362,stimuli/card_0_transparent.png,0,8,0,8,0,1,,,,,,,,,,
,,,,65e8fd23ef669d553e9db84b,A,2024-05-27_11h21.24.765,Slot Machine Game,2023.1.3,Win32,60.24096386,,,,,,,,,,,,,,,,,,,,,,,,,,,620,,,,,,,,,,,,,,,,,,,,,8,8,,,628.8958,9,up,0.1798,,1,0.3,"[2,1,3]",0.762979944,stimuli/card_100_transparent.png,100,9,0,9,0,1,,,,,,,,,,
,,,,65e8fd23ef669d553e9db84b,A,2024-05-27_11h21.24.765,Slot Machine Game,2023.1.3,Win32,60.24096386,,,,,,,,,,,,,,,,,,,,,,,,,,,720,,,,,,,,,,,,,,,,,,,,,8,8,,,630.8942,10,up,0.4579,,1,0.3,"[2,1,3]",0.476481823,stimuli/card_100_transparent.png,100,10,0,10,0,1,,,,,,,,,,
,,,,65e8fd23ef669d553e9db84b,A,2024-05-27_11h21.24.765,Slot Machine Game,2023.1.3,Win32,60.24096386,,,,,,,,,,,,,,,,,,,,,,,,,,,730,,,,,,,,,,,,,,,,,,,,,8,8,,,633.1622,11,up,0.0681,,1.5,0.3,"[1,2,3]",0.718455095,stimuli/card_10_transparent.png,10,11,0,11,0,1,,,,,,,,,,
,,,,65e8fd23ef669d553e9db84b,A,2024-05-27_11h21.24.765,Slot Machine Game,2023.1.3,Win32,60.24096386,,,,,,,,,,,,,,,,,,,,,,,,,,,740,,,,,,,,,,,,,,,,,,,,,8,8,,,635.5768,12,up,0.1326,,1,0.3,"[1,2,3]",0.274948081,stimuli/card_10_transparent.png,10,12,0,12,0,1,,,,,,,,,,
,,,,65e8fd23ef669d553e9db84b,A,2024-05-27_11h21.24.765,Slot Machine Game,2023.1.3,Win32,60.24096386,,,,,,,,,,,,,,,,,,,,,,,,,,,750,,,,,,,,,,,,,,,,,,,,,8,8,,,637.5314,13,up,0.3816,,1.5,0.3,"[1,2,3]",0.7510852,stimuli/card_10_transparent.png,10,13,0,13,0,1,,,,,,,,,,
,,,,65e8fd23ef669d553e9db84b,A,2024-05-27_11h21.24.765,Slot Machine Game,2023.1.3,Win32,60.24096386,,,,,,,,,,,,,,,,,,,,,,,,,,,760,,,,,,,,,,,,,,,,,,,,,8,8,,,640.2483,14,up,0.0483,,0.5,0.3,"[1,2,3]",0.646747878,stimuli/card_10_transparent.png,10,14,0,14,0,1,,,,,,,,,,
,,,,65e8fd23ef669d553e9db84b,A,2024-05-27_11h21.24.765,Slot Machine Game,2023.1.3,Win32,60.24096386,,,,,,,,,,,,,,,,,,,,,,,,,,,,,,,,,,,641.6064,,,,,,,,,,,,,,,,,,,,,,,,,,,,,,,,,"[580,810,940,550,430,360,640,760]",7,0,7,0,1,,,,
,,,,65e8fd23ef669d553e9db84b,A,2024-05-27_11h21.24.765,Slot Machine Game,2023.1.3,Win32,60.24096386,,,,,,,,,,,,,,,,,,,,,,,,,,,10,,,,,,,,,,,,,,,,,,,,,9,9,"[8,15]","[[3,2,1],[3,1,2]]",646.6073,0,up,0.0852,,0.5,0.3,"[3,2,1]",0.251454687,stimuli/card_10_transparent.png,10,0,0,0,0,1,,,,,,,,,,
,,,,65e8fd23ef669d553e9db84b,A,2024-05-27_11h21.24.765,Slot Machine Game,2023.1.3,Win32,60.24096386,,,,,,,,,,,,,,,,,,,,,,,,,,,10,,,,,,,,,,,,,,,,,,,,,9,9,,,648.0213,1,left,0.1172,,0.5,0.3,"[3,2,1]",0.329833042,stimuli/card_0_transparent.png,0,1,0,1,0,1,,,,,,,,,,
,,,,65e8fd23ef669d553e9db84b,A,2024-05-27_11h21.24.765,Slot Machine Game,2023.1.3,Win32,60.24096386,,,,,,,,,,,,,,,,,,,,,,,,,,,10,,,,,,,,,,,,,,,,,,,,,9,9,,,649.4674,2,left,0.7817,,0.5,0.3,"[3,2,1]",0.274370709,stimuli/card_0_transparent.png,0,2,0,2,0,1,,,,,,,,,,
,,,,65e8fd23ef669d553e9db84b,A,2024-05-27_11h21.24.765,Slot Machine Game,2023.1.3,Win32,60.24096386,,,,,,,,,,,,,,,,,,,,,,,,,,,110,,,,,,,,,,,,,,,,,,,,,9,9,,,651.569,3,right,0.2865,,0.5,0.3,"[3,2,1]",0.328229097,stimuli/card_100_transparent.png,100,3,0,3,0,1,,,,,,,,,,
,,,,65e8fd23ef669d553e9db84b,A,2024-05-27_11h21.24.765,Slot Machine Game,2023.1.3,Win32,60.24096386,,,,,,,,,,,,,,,,,,,,,,,,,,,210,,,,,,,,,,,,,,,,,,,,,9,9,,,653.1725,4,right,0.1878,,1,0.3,"[3,2,1]",0.406931472,stimuli/card_100_transparent.png,100,4,0,4,0,1,,,,,,,,,,
,,,,65e8fd23ef669d553e9db84b,A,2024-05-27_11h21.24.765,Slot Machine Game,2023.1.3,Win32,60.24096386,,,,,,,,,,,,,,,,,,,,,,,,,,,210,,,,,,,,,,,,,,,,,,,,,9,9,,,655.178,5,right,0.2673,,1,0.3,"[3,2,1]",0.032575397,stimuli/card_0_transparent.png,0,5,0,5,0,1,,,,,,,,,,
,,,,65e8fd23ef669d553e9db84b,A,2024-05-27_11h21.24.765,Slot Machine Game,2023.1.3,Win32,60.24096386,,,,,,,,,,,,,,,,,,,,,,,,,,,220,,,,,,,,,,,,,,,,,,,,,9,9,,,657.2616,6,up,0.3466,,1.5,0.3,"[3,2,1]",0.799843908,stimuli/card_10_transparent.png,10,6,0,6,0,1,,,,,,,,,,
,,,,65e8fd23ef669d553e9db84b,A,2024-05-27_11h21.24.765,Slot Machine Game,2023.1.3,Win32,60.24096386,,,,,,,,,,,,,,,,,,,,,,,,,,,220,,,,,,,,,,,,,,,,,,,,,9,9,,,659.9289,7,left,0.249,,0.5,0.3,"[3,2,1]",0.236007073,stimuli/card_0_transparent.png,0,7,0,7,0,1,,,,,,,,,,
,,,,65e8fd23ef669d553e9db84b,A,2024-05-27_11h21.24.765,Slot Machine Game,2023.1.3,Win32,60.24096386,,,,,,,,,,,,,,,,,,,,,,,,,,,320,,,,,,,,,,,,,,,,,,,,,9,9,,,661.5026,8,right,0.4478,,1.5,0.3,"[3,1,2]",0.168417669,stimuli/card_100_transparent.png,100,8,0,8,0,1,,,,,,,,,,
,,,,65e8fd23ef669d553e9db84b,A,2024-05-27_11h21.24.765,Slot Machine Game,2023.1.3,Win32,60.24096386,,,,,,,,,,,,,,,,,,,,,,,,,,,330,,,,,,,,,,,,,,,,,,,,,9,9,,,664.2679,9,right,0.5715,,1,0.3,"[3,1,2]",0.200310046,stimuli/card_10_transparent.png,10,9,0,9,0,1,,,,,,,,,,
,,,,65e8fd23ef669d553e9db84b,A,2024-05-27_11h21.24.765,Slot Machine Game,2023.1.3,Win32,60.24096386,,,,,,,,,,,,,,,,,,,,,,,,,,,340,,,,,,,,,,,,,,,,,,,,,9,9,,,666.6579,10,right,0.3318,,1,0.3,"[3,1,2]",0.962324306,stimuli/card_10_transparent.png,10,10,0,10,0,1,,,,,,,,,,
,,,,65e8fd23ef669d553e9db84b,A,2024-05-27_11h21.24.765,Slot Machine Game,2023.1.3,Win32,60.24096386,,,,,,,,,,,,,,,,,,,,,,,,,,,440,,,,,,,,,,,,,,,,,,,,,9,9,,,668.8231,11,right,0.3568,,1,0.3,"[3,1,2]",0.128820327,stimuli/card_100_transparent.png,100,11,0,11,0,1,,,,,,,,,,
,,,,65e8fd23ef669d553e9db84b,A,2024-05-27_11h21.24.765,Slot Machine Game,2023.1.3,Win32,60.24096386,,,,,,,,,,,,,,,,,,,,,,,,,,,540,,,,,,,,,,,,,,,,,,,,,9,9,,,670.9981,12,right,0.3336,,0.5,0.3,"[3,1,2]",0.124253412,stimuli/card_100_transparent.png,100,12,0,12,0,1,,,,,,,,,,
,,,,65e8fd23ef669d553e9db84b,A,2024-05-27_11h21.24.765,Slot Machine Game,2023.1.3,Win32,60.24096386,,,,,,,,,,,,,,,,,,,,,,,,,,,550,,,,,,,,,,,,,,,,,,,,,9,9,,,672.6546,13,right,0.0173,,1.5,0.3,"[3,1,2]",0.832905771,stimuli/card_10_transparent.png,10,13,0,13,0,1,,,,,,,,,,
,,,,65e8fd23ef669d553e9db84b,A,2024-05-27_11h21.24.765,Slot Machine Game,2023.1.3,Win32,60.24096386,,,,,,,,,,,,,,,,,,,,,,,,,,,550,,,,,,,,,,,,,,,,,,,,,9,9,,,674.9903,14,up,0.3423,,0.5,0.3,"[3,1,2]",0.064972279,stimuli/card_0_transparent.png,0,14,0,14,0,1,,,,,,,,,,
,,,,65e8fd23ef669d553e9db84b,A,2024-05-27_11h21.24.765,Slot Machine Game,2023.1.3,Win32,60.24096386,,,,,,,,,,,,,,,,,,,,,,,,,,,,,,,,,,,676.6593,,,,,,,,,,,,,,,,,,,,,,,,,,,,,,,,,"[580,810,940,550,430,360,640,760,550]",8,0,8,0,1,,,,
,,,,65e8fd23ef669d553e9db84b,A,2024-05-27_11h21.24.765,Slot Machine Game,2023.1.3,Win32,60.24096386,,,,,,,,,,,,,,,,,,,,,,,,,,,10,,,,,,,,,,,,,,,,,,,,,10,10,"[10,15]","[[3,1,2],[1,3,2]]",681.6608,0,right,0.8951,,0.5,0.3,"[3,1,2]",0.948076587,stimuli/card_10_transparent.png,10,0,0,0,0,1,,,,,,,,,,
,,,,65e8fd23ef669d553e9db84b,A,2024-05-27_11h21.24.765,Slot Machine Game,2023.1.3,Win32,60.24096386,,,,,,,,,,,,,,,,,,,,,,,,,,,20,,,,,,,,,,,,,,,,,,,,,10,10,,,683.8773,1,right,1.1103,,1.5,0.3,"[3,1,2]",0.235363738,stimuli/card_10_transparent.png,10,1,0,1,0,1,,,,,,,,,,
,,,,65e8fd23ef669d553e9db84b,A,2024-05-27_11h21.24.765,Slot Machine Game,2023.1.3,Win32,60.24096386,,,,,,,,,,,,,,,,,,,,,,,,,,,30,,,,,,,,,,,,,,,,,,,,,10,10,,,687.2943,2,up,0.6296,,1,0.3,"[3,1,2]",0.194182119,stimuli/card_10_transparent.png,10,2,0,2,0,1,,,,,,,,,,
,,,,65e8fd23ef669d553e9db84b,A,2024-05-27_11h21.24.765,Slot Machine Game,2023.1.3,Win32,60.24096386,,,,,,,,,,,,,,,,,,,,,,,,,,,130,,,,,,,,,,,,,,,,,,,,,10,10,,,689.7479,3,up,1.9409,,1,0.3,"[3,1,2]",0.745555779,stimuli/card_100_transparent.png,100,3,0,3,0,1,,,,,,,,,,
,,,,65e8fd23ef669d553e9db84b,A,2024-05-27_11h21.24.765,Slot Machine Game,2023.1.3,Win32,60.24096386,,,,,,,,,,,,,,,,,,,,,,,,,,,140,,,,,,,,,,,,,,,,,,,,,10,10,,,693.5273,4,right,0.1993,,0.5,0.3,"[3,1,2]",0.568571713,stimuli/card_10_transparent.png,10,4,0,4,0,1,,,,,,,,,,
,,,,65e8fd23ef669d553e9db84b,A,2024-05-27_11h21.24.765,Slot Machine Game,2023.1.3,Win32,60.24096386,,,,,,,,,,,,,,,,,,,,,,,,,,,240,,,,,,,,,,,,,,,,,,,,,10,10,,,695.0514,5,up,0.7488,,1.5,0.3,"[3,1,2]",0.303121827,stimuli/card_100_transparent.png,100,5,0,5,0,1,,,,,,,,,,
,,,,65e8fd23ef669d553e9db84b,A,2024-05-27_11h21.24.765,Slot Machine Game,2023.1.3,Win32,60.24096386,,,,,,,,,,,,,,,,,,,,,,,,,,,250,,,,,,,,,,,,,,,,,,,,,10,10,,,698.1174,6,up,0.0363,,0.5,0.3,"[3,1,2]",0.113411471,stimuli/card_10_transparent.png,10,6,0,6,0,1,,,,,,,,,,
,,,,65e8fd23ef669d553e9db84b,A,2024-05-27_11h21.24.765,Slot Machine Game,2023.1.3,Win32,60.24096386,,,,,,,,,,,,,,,,,,,,,,,,,,,250,,,,,,,,,,,,,,,,,,,,,10,10,,,699.4742,7,up,0.2655,,0.5,0.3,"[3,1,2]",0.036657217,stimuli/card_0_transparent.png,0,7,0,7,0,1,,,,,,,,,,
,,,,65e8fd23ef669d553e9db84b,A,2024-05-27_11h21.24.765,Slot Machine Game,2023.1.3,Win32,60.24096386,,,,,,,,,,,,,,,,,,,,,,,,,,,260,,,,,,,,,,,,,,,,,,,,,10,10,,,701.0647,8,right,0.032,,1.5,0.3,"[3,1,2]",0.971969259,stimuli/card_10_transparent.png,10,8,0,8,0,1,,,,,,,,,,
,,,,65e8fd23ef669d553e9db84b,A,2024-05-27_11h21.24.765,Slot Machine Game,2023.1.3,Win32,60.24096386,,,,,,,,,,,,,,,,,,,,,,,,,,,360,,,,,,,,,,,,,,,,,,,,,10,10,,,703.4176,9,up,0.3837,,1,0.3,"[3,1,2]",0.601482754,stimuli/card_100_transparent.png,100,9,0,9,0,1,,,,,,,,,,
,,,,65e8fd23ef669d553e9db84b,A,2024-05-27_11h21.24.765,Slot Machine Game,2023.1.3,Win32,60.24096386,,,,,,,,,,,,,,,,,,,,,,,,,,,370,,,,,,,,,,,,,,,,,,,,,10,10,,,705.6205,10,up,0.0643,,0.5,0.3,"[1,3,2]",0.145567121,stimuli/card_10_transparent.png,10,10,0,10,0,1,,,,,,,,,,
,,,,65e8fd23ef669d553e9db84b,A,2024-05-27_11h21.24.765,Slot Machine Game,2023.1.3,Win32,60.24096386,,,,,,,,,,,,,,,,,,,,,,,,,,,370,,,,,,,,,,,,,,,,,,,,,10,10,,,707.0113,11,up,0.3486,,1.5,0.3,"[1,3,2]",0.297953703,stimuli/card_0_transparent.png,0,11,0,11,0,1,,,,,,,,,,
,,,,65e8fd23ef669d553e9db84b,A,2024-05-27_11h21.24.765,Slot Machine Game,2023.1.3,Win32,60.24096386,,,,,,,,,,,,,,,,,,,,,,,,,,,380,,,,,,,,,,,,,,,,,,,,,10,10,,,709.6787,12,right,0.4334,,1,0.3,"[1,3,2]",0.625487262,stimuli/card_10_transparent.png,10,12,0,12,0,1,,,,,,,,,,
,,,,65e8fd23ef669d553e9db84b,A,2024-05-27_11h21.24.765,Slot Machine Game,2023.1.3,Win32,60.24096386,,,,,,,,,,,,,,,,,,,,,,,,,,,390,,,,,,,,,,,,,,,,,,,,,10,10,,,711.9313,13,right,0.3817,,1.5,0.3,"[1,3,2]",0.507286499,stimuli/card_10_transparent.png,10,13,0,13,0,1,,,,,,,,,,
,,,,65e8fd23ef669d553e9db84b,A,2024-05-27_11h21.24.765,Slot Machine Game,2023.1.3,Win32,60.24096386,,,,,,,,,,,,,,,,,,,,,,,,,,,390,,,,,,,,,,,,,,,,,,,,,10,10,,,714.6315,14,right,0.1365,,1,0.3,"[1,3,2]",0.082396387,stimuli/card_0_transparent.png,0,14,0,14,0,1,,,,,,,,,,
,,,,65e8fd23ef669d553e9db84b,A,2024-05-27_11h21.24.765,Slot Machine Game,2023.1.3,Win32,60.24096386,,,,,,,,,,,,,,,,,,,,,,,,,,,,,,,,,,,716.5864,,,,,,,,,,,,,,,,,,,,,,,,,,,,,,,,,"[580,810,940,550,430,360,640,760,550,390]",9,0,9,0,1,,,,
,,,,65e8fd23ef669d553e9db84b,A,2024-05-27_11h21.24.765,Slot Machine Game,2023.1.3,Win32,60.24096386,,,,,,,,,,,,,,,,,,,,,,,,,,,,,,,,,,,,,,,,,,,,,,,,,,,,,,,,,,,,,,,,,,,,,,,,,,9,"[580,810,940,550,430,360,640,760,550,390]",6.4,2024-05-27_11h33.30.482
