key_resp_welcome_started,key_resp_welcome_keys,key_resp_welcome_rt,key_resp_welcome_duration,prolific_id,path_id,date,expName,psychopyVersion,OS,frameRate,key_resp_instruction1_started,key_resp_instruction1_keys,key_resp_instruction1_rt,key_resp_instruction1_duration,key_resp_instruction2_started,key_resp_instruction2_keys,key_resp_instruction2_rt,key_resp_instruction2_duration,key_resp_instruction3_started,key_resp_instruction3_keys,key_resp_instruction3_rt,key_resp_instruction3_duration,key_resp_instruction4_started,key_resp_instruction4_keys,key_resp_instruction4_rt,key_resp_instruction4_duration,practiceCondition,practice_reward_seqs,practice_trial_started,practice_trial_num,practice_resp_rt,practice_resp_duration,practice_resp_keys,prac_presentationInterval,"practice_reward_seq: 2,1,3",reward_img,cumulative_reward,trial_reward,practice_trials.thisRepN,practice_trials.thisTrialN,practice_trials.thisN,practice_trials.thisIndex,practice_trials.ran,"practice_reward_seq: 2,3,1",block_break_started,"practice_reward_seq: 1,3,2","practice_reward_seq: 3,1,2",practice_end_time,practice_end_keys,practice_end_rt,practice_end_duration,main_instruction_text_started,block_condition,block_order_indices,main_instruction_keys,main_instruction_rt,main_instruction_duration,block_number,block_assignment,current_condition,main_reward_seqs,main_trial_started,main_trial_num,main_trial_keys,main_trial_rt,main_trial_duration,main_presentationInterval,reward_presentation_time,main_reward_seq,reward_rand_val,main_reward_img,current_reward,main_trials.thisRepN,main_trials.thisTrialN,main_trials.thisN,main_trials.thisIndex,main_trials.ran,block_reward,block.thisRepN,block.thisTrialN,block.thisN,block.thisIndex,block.ran,block_reward.length,block_reward_all,reward_amount,date_end_task
0.0003,right,1.4614,,,A,2024-07-03_05h46.51.194,Slot Machine Game,2023.1.3,Win32,59.88023952,,,,,,,,,,,,,,,,,,,,,,,,,,,,,,,,,,,,,,,,,,,,,,,,,,,,,,,,,,,,,,,,,,,,,,,,,,,,,
,,,,,A,2024-07-03_05h46.51.194,Slot Machine Game,2023.1.3,Win32,59.88023952,1.479,right,12.2636,,,,,,,,,,,,,,,,,,,,,,,,,,,,,,,,,,,,,,,,,,,,,,,,,,,,,,,,,,,,,,,,,,,,,,,,,,
,,,,,A,2024-07-03_05h46.51.194,Slot Machine Game,2023.1.3,Win32,59.88023952,,,,,13.774,right,48.0468,,,,,,,,,,,,,,,,,,,,,,,,,,,,,,,,,,,,,,,,,,,,,,,,,,,,,,,,,,,,,,,,,,,,,,
,,,,,A,2024-07-03_05h46.51.194,Slot Machine Game,2023.1.3,Win32,59.88023952,,,,,,,,,61.89,right,10.065,,,,,,,,,,,,,,,,,,,,,,,,,,,,,,,,,,,,,,,,,,,,,,,,,,,,,,,,,,,,,,,,,,
,,,,,A,2024-07-03_05h46.51.194,Slot Machine Game,2023.1.3,Win32,59.88023952,,,,,,,,,,,,,,,,,,,,,,,,,,,,,,,,,,,,,,,,,,,,,,,,,,,,,,,,,,,,,,,,,,,,,,,,,,,,,
,,,,,A,2024-07-03_05h46.51.194,Slot Machine Game,2023.1.3,Win32,59.88023952,,,,,,,,,,,,,213.7239,right,3.3988,,,,,,,,,,,,,,,,,,,,,,,,,,,,,,,,,,,,,,,,,,,,,,,,,,,,,,,,,,,,,,
,,,,,A,2024-07-03_05h46.51.194,Slot Machine Game,2023.1.3,Win32,59.88023952,,,,,,,,,,,,,,,,,"[9,15]","[[2,1,3],[2,3,1]]",217.1514,0,0.5536,,left,1.5,,stimuli/card_10_transparent.png,10,10,0,0,0,0,1,,,,,,,,,,,,,,,,,,,,,,,,,,,,,,,,,,,,,,,,,,,,
,,,,,A,2024-07-03_05h46.51.194,Slot Machine Game,2023.1.3,Win32,59.88023952,,,,,,,,,,,,,,,,,,,220.0449,1,0.5325,,left,1.5,,stimuli/card_10_transparent.png,20,10,1,0,1,0,1,,,,,,,,,,,,,,,,,,,,,,,,,,,,,,,,,,,,,,,,,,,,
,,,,,A,2024-07-03_05h46.51.194,Slot Machine Game,2023.1.3,Win32,59.88023952,,,,,,,,,,,,,,,,,,,222.9149,2,0.8498,,up,0.5,,stimuli/card_100_transparent.png,120,100,2,0,2,0,1,,,,,,,,,,,,,,,,,,,,,,,,,,,,,,,,,,,,,,,,,,,,
,,,,,A,2024-07-03_05h46.51.194,Slot Machine Game,2023.1.3,Win32,59.88023952,,,,,,,,,,,,,,,,,,,225.0835,3,0.9013,,up,1.5,,stimuli/card_100_transparent.png,220,100,3,0,3,0,1,,,,,,,,,,,,,,,,,,,,,,,,,,,,,,,,,,,,,,,,,,,,
,,,,,A,2024-07-03_05h46.51.194,Slot Machine Game,2023.1.3,Win32,59.88023952,,,,,,,,,,,,,,,,,,,228.3199,4,0.7849,,up,1.5,,stimuli/card_100_transparent.png,320,100,4,0,4,0,1,,,,,,,,,,,,,,,,,,,,,,,,,,,,,,,,,,,,,,,,,,,,
,,,,,A,2024-07-03_05h46.51.194,Slot Machine Game,2023.1.3,Win32,59.88023952,,,,,,,,,,,,,,,,,,,231.4231,5,0.1345,,up,1.5,,stimuli/card_100_transparent.png,420,100,5,0,5,0,1,,,,,,,,,,,,,,,,,,,,,,,,,,,,,,,,,,,,,,,,,,,,
,,,,,A,2024-07-03_05h46.51.194,Slot Machine Game,2023.1.3,Win32,59.88023952,,,,,,,,,,,,,,,,,,,233.892,6,0.0984,,up,0.5,,stimuli/card_0_transparent.png,420,0,6,0,6,0,1,,,,,,,,,,,,,,,,,,,,,,,,,,,,,,,,,,,,,,,,,,,,
,,,,,A,2024-07-03_05h46.51.194,Slot Machine Game,2023.1.3,Win32,59.88023952,,,,,,,,,,,,,,,,,,,235.3102,7,0.119,,up,0.5,,stimuli/card_100_transparent.png,520,100,7,0,7,0,1,,,,,,,,,,,,,,,,,,,,,,,,,,,,,,,,,,,,,,,,,,,,
,,,,,A,2024-07-03_05h46.51.194,Slot Machine Game,2023.1.3,Win32,59.88023952,,,,,,,,,,,,,,,,,,,236.745,8,0.0382,,up,1.5,,stimuli/card_100_transparent.png,620,100,8,0,8,0,1,,,,,,,,,,,,,,,,,,,,,,,,,,,,,,,,,,,,,,,,,,,,
,,,,,A,2024-07-03_05h46.51.194,Slot Machine Game,2023.1.3,Win32,59.88023952,,,,,,,,,,,,,,,,,,,239.0972,9,0.4566,,up,1,,stimuli/card_100_transparent.png,720,100,9,0,9,0,1,,,,,,,,,,,,,,,,,,,,,,,,,,,,,,,,,,,,,,,,,,,,
,,,,,A,2024-07-03_05h46.51.194,Slot Machine Game,2023.1.3,Win32,59.88023952,,,,,,,,,,,,,,,,,,,241.3662,10,0.3343,,up,0.5,,stimuli/card_0_transparent.png,720,0,10,0,10,0,1,,,,,,,,,,,,,,,,,,,,,,,,,,,,,,,,,,,,,,,,,,,,
,,,,,A,2024-07-03_05h46.51.194,Slot Machine Game,2023.1.3,Win32,59.88023952,,,,,,,,,,,,,,,,,,,243.0178,11,0.1174,,up,0.5,,stimuli/card_10_transparent.png,730,10,11,0,11,0,1,,,,,,,,,,,,,,,,,,,,,,,,,,,,,,,,,,,,,,,,,,,,
,,,,,A,2024-07-03_05h46.51.194,Slot Machine Game,2023.1.3,Win32,59.88023952,,,,,,,,,,,,,,,,,,,244.4525,12,0.1858,,left,1,,stimuli/card_10_transparent.png,740,10,12,0,12,0,1,,,,,,,,,,,,,,,,,,,,,,,,,,,,,,,,,,,,,,,,,,,,
,,,,,A,2024-07-03_05h46.51.194,Slot Machine Game,2023.1.3,Win32,59.88023952,,,,,,,,,,,,,,,,,,,246.4547,13,0.6013,,right,0.5,,stimuli/card_0_transparent.png,740,0,13,0,13,0,1,,,,,,,,,,,,,,,,,,,,,,,,,,,,,,,,,,,,,,,,,,,,
,,,,,A,2024-07-03_05h46.51.194,Slot Machine Game,2023.1.3,Win32,59.88023952,,,,,,,,,,,,,,,,,,,248.3731,14,0.204,,up,1,,stimuli/card_0_transparent.png,740,0,14,0,14,0,1,,,,,,,,,,,,,,,,,,,,,,,,,,,,,,,,,,,,,,,,,,,,
,,,,,A,2024-07-03_05h46.51.194,Slot Machine Game,2023.1.3,Win32,59.88023952,,,,,,,,,,,,,,,,,"[6,15]","[[1,3,2],[3,1,2]]",255.42,0,1.0013,,left,1,,stimuli/card_0_transparent.png,0,0,0,0,0,0,1,,250.4206,,,,,,,,,,,,,,,,,,,,,,,,,,,,,,,,,,,,,,,,,,
,,,,,A,2024-07-03_05h46.51.194,Slot Machine Game,2023.1.3,Win32,59.88023952,,,,,,,,,,,,,,,,,,,258.2497,1,0.668,,up,1,,stimuli/card_0_transparent.png,0,0,1,0,1,0,1,,,,,,,,,,,,,,,,,,,,,,,,,,,,,,,,,,,,,,,,,,,,
,,,,,A,2024-07-03_05h46.51.194,Slot Machine Game,2023.1.3,Win32,59.88023952,,,,,,,,,,,,,,,,,,,260.7355,2,0.4546,,right,1,,stimuli/card_0_transparent.png,0,0,2,0,2,0,1,,,,,,,,,,,,,,,,,,,,,,,,,,,,,,,,,,,,,,,,,,,,
,,,,,A,2024-07-03_05h46.51.194,Slot Machine Game,2023.1.3,Win32,59.88023952,,,,,,,,,,,,,,,,,,,263.0043,3,0.3547,,left,0.5,,stimuli/card_100_transparent.png,100,100,3,0,3,0,1,,,,,,,,,,,,,,,,,,,,,,,,,,,,,,,,,,,,,,,,,,,,
,,,,,A,2024-07-03_05h46.51.194,Slot Machine Game,2023.1.3,Win32,59.88023952,,,,,,,,,,,,,,,,,,,264.6728,4,0.8566,,left,1,,stimuli/card_100_transparent.png,200,100,4,0,4,0,1,,,,,,,,,,,,,,,,,,,,,,,,,,,,,,,,,,,,,,,,,,,,
,,,,,A,2024-07-03_05h46.51.194,Slot Machine Game,2023.1.3,Win32,59.88023952,,,,,,,,,,,,,,,,,,,267.342,5,0.3342,,left,1,,stimuli/card_0_transparent.png,200,0,5,0,5,0,1,,,,,,,,,,,,,,,,,,,,,,,,,,,,,,,,,,,,,,,,,,,,
,,,,,A,2024-07-03_05h46.51.194,Slot Machine Game,2023.1.3,Win32,59.88023952,,,,,,,,,,,,,,,,,,,269.4936,6,0.2907,,left,1.5,,stimuli/card_0_transparent.png,200,0,6,0,6,0,1,,,,,,,,,,,,,,,,,,,,,,,,,,,,,,,,,,,,,,,,,,,,
,,,,,A,2024-07-03_05h46.51.194,Slot Machine Game,2023.1.3,Win32,59.88023952,,,,,,,,,,,,,,,,,,,272.0968,7,0.1843,,up,1.5,,stimuli/card_100_transparent.png,300,100,7,0,7,0,1,,,,,,,,,,,,,,,,,,,,,,,,,,,,,,,,,,,,,,,,,,,,
,,,,,A,2024-07-03_05h46.51.194,Slot Machine Game,2023.1.3,Win32,59.88023952,,,,,,,,,,,,,,,,,,,274.5992,8,0.2841,,up,1,,stimuli/card_100_transparent.png,400,100,8,0,8,0,1,,,,,,,,,,,,,,,,,,,,,,,,,,,,,,,,,,,,,,,,,,,,
,,,,,A,2024-07-03_05h46.51.194,Slot Machine Game,2023.1.3,Win32,59.88023952,,,,,,,,,,,,,,,,,,,276.7013,9,0.2343,,up,0.5,,stimuli/card_0_transparent.png,400,0,9,0,9,0,1,,,,,,,,,,,,,,,,,,,,,,,,,,,,,,,,,,,,,,,,,,,,
,,,,,A,2024-07-03_05h46.51.194,Slot Machine Game,2023.1.3,Win32,59.88023952,,,,,,,,,,,,,,,,,,,278.2529,10,0.2532,,up,0.5,,stimuli/card_100_transparent.png,500,100,10,0,10,0,1,,,,,,,,,,,,,,,,,,,,,,,,,,,,,,,,,,,,,,,,,,,,
,,,,,A,2024-07-03_05h46.51.194,Slot Machine Game,2023.1.3,Win32,59.88023952,,,,,,,,,,,,,,,,,,,279.8211,11,0.1547,,up,1.5,,stimuli/card_100_transparent.png,600,100,11,0,11,0,1,,,,,,,,,,,,,,,,,,,,,,,,,,,,,,,,,,,,,,,,,,,,
,,,,,A,2024-07-03_05h46.51.194,Slot Machine Game,2023.1.3,Win32,59.88023952,,,,,,,,,,,,,,,,,,,282.2902,12,0.3069,,up,1.5,,stimuli/card_100_transparent.png,700,100,12,0,12,0,1,,,,,,,,,,,,,,,,,,,,,,,,,,,,,,,,,,,,,,,,,,,,
,,,,,A,2024-07-03_05h46.51.194,Slot Machine Game,2023.1.3,Win32,59.88023952,,,,,,,,,,,,,,,,,,,284.9096,13,0.1509,,up,1,,stimuli/card_100_transparent.png,800,100,13,0,13,0,1,,,,,,,,,,,,,,,,,,,,,,,,,,,,,,,,,,,,,,,,,,,,
,,,,,A,2024-07-03_05h46.51.194,Slot Machine Game,2023.1.3,Win32,59.88023952,,,,,,,,,,,,,,,,,,,286.8782,14,0.1585,,up,1,,stimuli/card_100_transparent.png,900,100,14,0,14,0,1,,,,,,,,,,,,,,,,,,,,,,,,,,,,,,,,,,,,,,,,,,,,
,,,,,A,2024-07-03_05h46.51.194,Slot Machine Game,2023.1.3,Win32,59.88023952,,,,,,,,,,,,,,,,,,,,,,,,,,,,,,,,,,,288.8469,,,293.852,space,2.6501,,,,,,,,,,,,,,,,,,,,,,,,,,,,,,,,,,,,,
,,,,,A,2024-07-03_05h46.51.194,Slot Machine Game,2023.1.3,Win32,59.88023952,,,,,,,,,,,,,,,,,,,,,,,,,,,,,,,,,,,,,,,,,,296.5221,3,"[0,4,6,3,5,7,8,1,9,2]",space,1.8089,,,,,,,,,,,,,,,,,,,,,,,,,,,,,,,
,,,,,A,2024-07-03_05h46.51.194,Slot Machine Game,2023.1.3,Win32,59.88023952,,,,,,,,,,,,,,,,,,,,,,,,,,,100,,,,,,,,,,,,,,,,,,,,,1,1,"[12,15]","[[2,1,3],[2,3,1]]",298.3834,0,left,0.4641,,1,0.3,"[2,1,3]",0.129844669,stimuli/card_100_transparent.png,100,0,0,0,0,1,,,,,,,,,,
,,,,,A,2024-07-03_05h46.51.194,Slot Machine Game,2023.1.3,Win32,59.88023952,,,,,,,,,,,,,,,,,,,,,,,,,,,110,,,,,,,,,,,,,,,,,,,,,1,1,,,300.6756,1,left,0.3241,,1.5,0.3,"[2,1,3]",0.459042481,stimuli/card_10_transparent.png,10,1,0,1,0,1,,,,,,,,,,
,,,,,A,2024-07-03_05h46.51.194,Slot Machine Game,2023.1.3,Win32,59.88023952,,,,,,,,,,,,,,,,,,,,,,,,,,,120,,,,,,,,,,,,,,,,,,,,,1,1,,,303.3279,2,left,0.1175,,1,0.3,"[2,1,3]",0.64572975,stimuli/card_10_transparent.png,10,2,0,2,0,1,,,,,,,,,,
,,,,,A,2024-07-03_05h46.51.194,Slot Machine Game,2023.1.3,Win32,59.88023952,,,,,,,,,,,,,,,,,,,,,,,,,,,130,,,,,,,,,,,,,,,,,,,,,1,1,,,305.2632,3,left,0.4013,,0.5,0.3,"[2,1,3]",0.372347115,stimuli/card_10_transparent.png,10,3,0,3,0,1,,,,,,,,,,
,,,,,A,2024-07-03_05h46.51.194,Slot Machine Game,2023.1.3,Win32,59.88023952,,,,,,,,,,,,,,,,,,,,,,,,,,,140,,,,,,,,,,,,,,,,,,,,,1,1,,,306.9815,4,up,0.1384,,1.5,0.3,"[2,1,3]",0.187691553,stimuli/card_10_transparent.png,10,4,0,4,0,1,,,,,,,,,,
,,,,,A,2024-07-03_05h46.51.194,Slot Machine Game,2023.1.3,Win32,59.88023952,,,,,,,,,,,,,,,,,,,,,,,,,,,240,,,,,,,,,,,,,,,,,,,,,1,1,,,309.4339,5,right,0.5846,,0.5,0.3,"[2,1,3]",0.014019619,stimuli/card_100_transparent.png,100,5,0,5,0,1,,,,,,,,,,
,,,,,A,2024-07-03_05h46.51.194,Slot Machine Game,2023.1.3,Win32,59.88023952,,,,,,,,,,,,,,,,,,,,,,,,,,,240,,,,,,,,,,,,,,,,,,,,,1,1,,,311.3359,6,right,0.3843,,0.5,0.3,"[2,1,3]",0.208124813,stimuli/card_0_transparent.png,0,6,0,6,0,1,,,,,,,,,,
,,,,,A,2024-07-03_05h46.51.194,Slot Machine Game,2023.1.3,Win32,59.88023952,,,,,,,,,,,,,,,,,,,,,,,,,,,240,,,,,,,,,,,,,,,,,,,,,1,1,,,313.0375,7,right,0.2344,,1.5,0.3,"[2,1,3]",0.271509147,stimuli/card_0_transparent.png,0,7,0,7,0,1,,,,,,,,,,
,,,,,A,2024-07-03_05h46.51.194,Slot Machine Game,2023.1.3,Win32,59.88023952,,,,,,,,,,,,,,,,,,,,,,,,,,,250,,,,,,,,,,,,,,,,,,,,,1,1,,,315.5899,8,left,0.201,,0.5,0.3,"[2,1,3]",0.657662949,stimuli/card_10_transparent.png,10,8,0,8,0,1,,,,,,,,,,
,,,,,A,2024-07-03_05h46.51.194,Slot Machine Game,2023.1.3,Win32,59.88023952,,,,,,,,,,,,,,,,,,,,,,,,,,,350,,,,,,,,,,,,,,,,,,,,,1,1,,,317.1082,9,up,0.2175,,1.5,0.3,"[2,1,3]",0.819432214,stimuli/card_100_transparent.png,100,9,0,9,0,1,,,,,,,,,,
,,,,,A,2024-07-03_05h46.51.194,Slot Machine Game,2023.1.3,Win32,59.88023952,,,,,,,,,,,,,,,,,,,,,,,,,,,450,,,,,,,,,,,,,,,,,,,,,1,1,,,319.6441,10,up,0.2843,,1.5,0.3,"[2,1,3]",0.952672336,stimuli/card_100_transparent.png,100,10,0,10,0,1,,,,,,,,,,
,,,,,A,2024-07-03_05h46.51.194,Slot Machine Game,2023.1.3,Win32,59.88023952,,,,,,,,,,,,,,,,,,,,,,,,,,,460,,,,,,,,,,,,,,,,,,,,,1,1,,,322.2467,11,up,0.3343,,1.5,0.3,"[2,1,3]",0.186996467,stimuli/card_10_transparent.png,10,11,0,11,0,1,,,,,,,,,,
,,,,,A,2024-07-03_05h46.51.194,Slot Machine Game,2023.1.3,Win32,59.88023952,,,,,,,,,,,,,,,,,,,,,,,,,,,470,,,,,,,,,,,,,,,,,,,,,1,1,,,324.8994,12,up,0.6681,,1.5,0.3,"[2,3,1]",0.171009631,stimuli/card_10_transparent.png,10,12,0,12,0,1,,,,,,,,,,
,,,,,A,2024-07-03_05h46.51.194,Slot Machine Game,2023.1.3,Win32,59.88023952,,,,,,,,,,,,,,,,,,,,,,,,,,,570,,,,,,,,,,,,,,,,,,,,,1,1,,,327.8857,13,right,0.2175,,0.5,0.3,"[2,3,1]",0.994444586,stimuli/card_100_transparent.png,100,13,0,13,0,1,,,,,,,,,,
,,,,,A,2024-07-03_05h46.51.194,Slot Machine Game,2023.1.3,Win32,59.88023952,,,,,,,,,,,,,,,,,,,,,,,,,,,670,,,,,,,,,,,,,,,,,,,,,1,1,,,329.4204,14,right,0.4846,,1.5,0.3,"[2,3,1]",0.565609281,stimuli/card_100_transparent.png,100,14,0,14,0,1,,,,,,,,,,
,,,,,A,2024-07-03_05h46.51.194,Slot Machine Game,2023.1.3,Win32,59.88023952,,,,,,,,,,,,,,,,,,,,,,,,,,,,,,,,,,,332.2234,,,,,,,,,,,,,,,,,,,,,,,,,,,,,,,,,[670],0,0,0,0,1,,,,
,,,,,A,2024-07-03_05h46.51.194,Slot Machine Game,2023.1.3,Win32,59.88023952,,,,,,,,,,,,,,,,,,,,,,,,,,,10,,,,,,,,,,,,,,,,,,,,,2,5,"[5,15]","[[1,2,3],[3,1,2]]",337.2428,0,up,0.4856,,1,0.3,"[1,2,3]",0.450322913,stimuli/card_10_transparent.png,10,0,0,0,0,1,,,,,,,,,,
,,,,,A,2024-07-03_05h46.51.194,Slot Machine Game,2023.1.3,Win32,59.88023952,,,,,,,,,,,,,,,,,,,,,,,,,,,110,,,,,,,,,,,,,,,,,,,,,2,5,,,339.5472,1,left,0.488,,1.5,0.3,"[1,2,3]",0.828009756,stimuli/card_100_transparent.png,100,1,0,1,0,1,,,,,,,,,,
,,,,,A,2024-07-03_05h46.51.194,Slot Machine Game,2023.1.3,Win32,59.88023952,,,,,,,,,,,,,,,,,,,,,,,,,,,210,,,,,,,,,,,,,,,,,,,,,2,5,,,342.35,2,left,0.3519,,1,0.3,"[1,2,3]",0.637713319,stimuli/card_100_transparent.png,100,2,0,2,0,1,,,,,,,,,,
,,,,,A,2024-07-03_05h46.51.194,Slot Machine Game,2023.1.3,Win32,59.88023952,,,,,,,,,,,,,,,,,,,,,,,,,,,220,,,,,,,,,,,,,,,,,,,,,2,5,,,344.5189,3,left,0.2508,,0.5,0.3,"[1,2,3]",0.188930481,stimuli/card_10_transparent.png,10,3,0,3,0,1,,,,,,,,,,
,,,,,A,2024-07-03_05h46.51.194,Slot Machine Game,2023.1.3,Win32,59.88023952,,,,,,,,,,,,,,,,,,,,,,,,,,,220,,,,,,,,,,,,,,,,,,,,,2,5,,,346.0871,4,left,0.2511,,1.5,0.3,"[1,2,3]",0.074466094,stimuli/card_0_transparent.png,0,4,0,4,0,1,,,,,,,,,,
,,,,,A,2024-07-03_05h46.51.194,Slot Machine Game,2023.1.3,Win32,59.88023952,,,,,,,,,,,,,,,,,,,,,,,,,,,220,,,,,,,,,,,,,,,,,,,,,2,5,,,348.6562,5,up,0.2399,,1.5,0.3,"[3,1,2]",0.069124544,stimuli/card_0_transparent.png,0,5,0,5,0,1,,,,,,,,,,
,,,,,A,2024-07-03_05h46.51.194,Slot Machine Game,2023.1.3,Win32,59.88023952,,,,,,,,,,,,,,,,,,,,,,,,,,,230,,,,,,,,,,,,,,,,,,,,,2,5,,,351.2089,6,right,0.3022,,0.5,0.3,"[3,1,2]",0.509885296,stimuli/card_10_transparent.png,10,6,0,6,0,1,,,,,,,,,,
,,,,,A,2024-07-03_05h46.51.194,Slot Machine Game,2023.1.3,Win32,59.88023952,,,,,,,,,,,,,,,,,,,,,,,,,,,240,,,,,,,,,,,,,,,,,,,,,2,5,,,352.8271,7,right,0.4526,,1.5,0.3,"[3,1,2]",0.890256706,stimuli/card_10_transparent.png,10,7,0,7,0,1,,,,,,,,,,
,,,,,A,2024-07-03_05h46.51.194,Slot Machine Game,2023.1.3,Win32,59.88023952,,,,,,,,,,,,,,,,,,,,,,,,,,,240,,,,,,,,,,,,,,,,,,,,,2,5,,,355.5965,8,left,0.0007,,1.5,0.3,"[3,1,2]",0.227047856,stimuli/card_0_transparent.png,0,8,0,8,0,1,,,,,,,,,,
,,,,,A,2024-07-03_05h46.51.194,Slot Machine Game,2023.1.3,Win32,59.88023952,,,,,,,,,,,,,,,,,,,,,,,,,,,340,,,,,,,,,,,,,,,,,,,,,2,5,,,357.9156,9,up,0.3173,,1,0.3,"[3,1,2]",0.565168515,stimuli/card_100_transparent.png,100,9,0,9,0,1,,,,,,,,,,
,,,,,A,2024-07-03_05h46.51.194,Slot Machine Game,2023.1.3,Win32,59.88023952,,,,,,,,,,,,,,,,,,,,,,,,,,,440,,,,,,,,,,,,,,,,,,,,,2,5,,,360.051,10,up,0.2047,,1,0.3,"[3,1,2]",0.352150362,stimuli/card_100_transparent.png,100,10,0,10,0,1,,,,,,,,,,
,,,,,A,2024-07-03_05h46.51.194,Slot Machine Game,2023.1.3,Win32,59.88023952,,,,,,,,,,,,,,,,,,,,,,,,,,,440,,,,,,,,,,,,,,,,,,,,,2,5,,,362.0696,11,up,0.2203,,0.5,0.3,"[3,1,2]",0.015294803,stimuli/card_0_transparent.png,0,11,0,11,0,1,,,,,,,,,,
,,,,,A,2024-07-03_05h46.51.194,Slot Machine Game,2023.1.3,Win32,59.88023952,,,,,,,,,,,,,,,,,,,,,,,,,,,540,,,,,,,,,,,,,,,,,,,,,2,5,,,363.6045,12,up,0.1261,,1,0.3,"[3,1,2]",0.508711,stimuli/card_100_transparent.png,100,12,0,12,0,1,,,,,,,,,,
,,,,,A,2024-07-03_05h46.51.194,Slot Machine Game,2023.1.3,Win32,59.88023952,,,,,,,,,,,,,,,,,,,,,,,,,,,640,,,,,,,,,,,,,,,,,,,,,2,5,,,365.5564,13,up,0.1692,,1,0.3,"[3,1,2]",0.269904656,stimuli/card_100_transparent.png,100,13,0,13,0,1,,,,,,,,,,
,,,,,A,2024-07-03_05h46.51.194,Slot Machine Game,2023.1.3,Win32,59.88023952,,,,,,,,,,,,,,,,,,,,,,,,,,,740,,,,,,,,,,,,,,,,,,,,,2,5,,,367.542,14,up,0.151,,1,0.3,"[3,1,2]",0.696770131,stimuli/card_100_transparent.png,100,14,0,14,0,1,,,,,,,,,,
,,,,,A,2024-07-03_05h46.51.194,Slot Machine Game,2023.1.3,Win32,59.88023952,,,,,,,,,,,,,,,,,,,,,,,,,,,,,,,,,,,369.527,,,,,,,,,,,,,,,,,,,,,,,,,,,,,,,,,"[670,740]",1,0,1,0,1,,,,
,,,,,A,2024-07-03_05h46.51.194,Slot Machine Game,2023.1.3,Win32,59.88023952,,,,,,,,,,,,,,,,,,,,,,,,,,,100,,,,,,,,,,,,,,,,,,,,,3,7,"[9,15]","[[1,3,2],[2,3,1]]",374.5445,0,up,0.8347,,0.5,0.3,"[1,3,2]",0.04202231,stimuli/card_100_transparent.png,100,0,0,0,0,1,,,,,,,,,,
,,,,,A,2024-07-03_05h46.51.194,Slot Machine Game,2023.1.3,Win32,59.88023952,,,,,,,,,,,,,,,,,,,,,,,,,,,100,,,,,,,,,,,,,,,,,,,,,3,7,,,376.7008,1,up,0.2368,,0.5,0.3,"[1,3,2]",0.352885767,stimuli/card_0_transparent.png,0,1,0,1,0,1,,,,,,,,,,
,,,,,A,2024-07-03_05h46.51.194,Slot Machine Game,2023.1.3,Win32,59.88023952,,,,,,,,,,,,,,,,,,,,,,,,,,,200,,,,,,,,,,,,,,,,,,,,,3,7,,,378.2524,2,up,0.184,,1.5,0.3,"[1,3,2]",0.091119406,stimuli/card_100_transparent.png,100,2,0,2,0,1,,,,,,,,,,
,,,,,A,2024-07-03_05h46.51.194,Slot Machine Game,2023.1.3,Win32,59.88023952,,,,,,,,,,,,,,,,,,,,,,,,,,,200,,,,,,,,,,,,,,,,,,,,,3,7,,,380.7549,3,up,0.3218,,0.5,0.3,"[1,3,2]",0.519697362,stimuli/card_0_transparent.png,0,3,0,3,0,1,,,,,,,,,,
,,,,,A,2024-07-03_05h46.51.194,Slot Machine Game,2023.1.3,Win32,59.88023952,,,,,,,,,,,,,,,,,,,,,,,,,,,200,,,,,,,,,,,,,,,,,,,,,3,7,,,382.3898,4,up,0.8527,,1.5,0.3,"[1,3,2]",0.833813654,stimuli/card_0_transparent.png,0,4,0,4,0,1,,,,,,,,,,
,,,,,A,2024-07-03_05h46.51.194,Slot Machine Game,2023.1.3,Win32,59.88023952,,,,,,,,,,,,,,,,,,,,,,,,,,,210,,,,,,,,,,,,,,,,,,,,,3,7,,,385.5597,5,right,0.3677,,1,0.3,"[1,3,2]",0.324817649,stimuli/card_10_transparent.png,10,5,0,5,0,1,,,,,,,,,,
,,,,,A,2024-07-03_05h46.51.194,Slot Machine Game,2023.1.3,Win32,59.88023952,,,,,,,,,,,,,,,,,,,,,,,,,,,310,,,,,,,,,,,,,,,,,,,,,3,7,,,387.7453,6,left,0.4179,,1.5,0.3,"[1,3,2]",0.996409577,stimuli/card_100_transparent.png,100,6,0,6,0,1,,,,,,,,,,
,,,,,A,2024-07-03_05h46.51.194,Slot Machine Game,2023.1.3,Win32,59.88023952,,,,,,,,,,,,,,,,,,,,,,,,,,,410,,,,,,,,,,,,,,,,,,,,,3,7,,,390.4813,7,left,0.1009,,1,0.3,"[1,3,2]",0.988616164,stimuli/card_100_transparent.png,100,7,0,7,0,1,,,,,,,,,,
,,,,,A,2024-07-03_05h46.51.194,Slot Machine Game,2023.1.3,Win32,59.88023952,,,,,,,,,,,,,,,,,,,,,,,,,,,410,,,,,,,,,,,,,,,,,,,,,3,7,,,392.3998,8,left,0.1693,,1.5,0.3,"[1,3,2]",0.032350429,stimuli/card_0_transparent.png,0,8,0,8,0,1,,,,,,,,,,
,,,,,A,2024-07-03_05h46.51.194,Slot Machine Game,2023.1.3,Win32,59.88023952,,,,,,,,,,,,,,,,,,,,,,,,,,,420,,,,,,,,,,,,,,,,,,,,,3,7,,,394.8857,9,left,0.2843,,0.5,0.3,"[2,3,1]",0.226611019,stimuli/card_10_transparent.png,10,9,0,9,0,1,,,,,,,,,,
,,,,,A,2024-07-03_05h46.51.194,Slot Machine Game,2023.1.3,Win32,59.88023952,,,,,,,,,,,,,,,,,,,,,,,,,,,520,,,,,,,,,,,,,,,,,,,,,3,7,,,396.4873,10,right,0.568,,1,0.3,"[2,3,1]",0.769066989,stimuli/card_100_transparent.png,100,10,0,10,0,1,,,,,,,,,,
,,,,,A,2024-07-03_05h46.51.194,Slot Machine Game,2023.1.3,Win32,59.88023952,,,,,,,,,,,,,,,,,,,,,,,,,,,620,,,,,,,,,,,,,,,,,,,,,3,7,,,398.873,11,right,0.2034,,1,0.3,"[2,3,1]",0.789399325,stimuli/card_100_transparent.png,100,11,0,11,0,1,,,,,,,,,,
,,,,,A,2024-07-03_05h46.51.194,Slot Machine Game,2023.1.3,Win32,59.88023952,,,,,,,,,,,,,,,,,,,,,,,,,,,720,,,,,,,,,,,,,,,,,,,,,3,7,,,400.8915,12,right,0.3571,,1.5,0.3,"[2,3,1]",0.208326704,stimuli/card_100_transparent.png,100,12,0,12,0,1,,,,,,,,,,
,,,,,A,2024-07-03_05h46.51.194,Slot Machine Game,2023.1.3,Win32,59.88023952,,,,,,,,,,,,,,,,,,,,,,,,,,,720,,,,,,,,,,,,,,,,,,,,,3,7,,,403.5609,13,right,0.0228,,1,0.3,"[2,3,1]",0.061331201,stimuli/card_0_transparent.png,0,13,0,13,0,1,,,,,,,,,,
,,,,,A,2024-07-03_05h46.51.194,Slot Machine Game,2023.1.3,Win32,59.88023952,,,,,,,,,,,,,,,,,,,,,,,,,,,820,,,,,,,,,,,,,,,,,,,,,3,7,,,405.3961,14,right,0.7847,,1.5,0.3,"[2,3,1]",0.543327117,stimuli/card_100_transparent.png,100,14,0,14,0,1,,,,,,,,,,
,,,,,A,2024-07-03_05h46.51.194,Slot Machine Game,2023.1.3,Win32,59.88023952,,,,,,,,,,,,,,,,,,,,,,,,,,,,,,,,,,,408.5159,,,,,,,,,,,,,,,,,,,,,,,,,,,,,,,,,"[670,740,820]",2,0,2,0,1,,,,
,,,,,A,2024-07-03_05h46.51.194,Slot Machine Game,2023.1.3,Win32,59.88023952,,,,,,,,,,,,,,,,,,,,,,,,,,,0,,,,,,,,,,,,,,,,,,,,,4,4,"[7,15]","[[2,3,1],[1,2,3]]",413.5356,0,up,1.2186,,0.5,0.3,"[2,3,1]",0.607499997,stimuli/card_0_transparent.png,0,0,0,0,0,1,,,,,,,,,,
,,,,,A,2024-07-03_05h46.51.194,Slot Machine Game,2023.1.3,Win32,59.88023952,,,,,,,,,,,,,,,,,,,,,,,,,,,10,,,,,,,,,,,,,,,,,,,,,4,4,,,416.0734,1,left,0.5014,,1.5,0.3,"[2,3,1]",0.690421577,stimuli/card_10_transparent.png,10,1,0,1,0,1,,,,,,,,,,
,,,,,A,2024-07-03_05h46.51.194,Slot Machine Game,2023.1.3,Win32,59.88023952,,,,,,,,,,,,,,,,,,,,,,,,,,,110,,,,,,,,,,,,,,,,,,,,,4,4,,,418.8929,2,right,0.6731,,1.5,0.3,"[2,3,1]",0.883624074,stimuli/card_100_transparent.png,100,2,0,2,0,1,,,,,,,,,,
,,,,,A,2024-07-03_05h46.51.194,Slot Machine Game,2023.1.3,Win32,59.88023952,,,,,,,,,,,,,,,,,,,,,,,,,,,210,,,,,,,,,,,,,,,,,,,,,4,4,,,421.8792,3,right,0.3537,,0.5,0.3,"[2,3,1]",0.7152094,stimuli/card_100_transparent.png,100,3,0,3,0,1,,,,,,,,,,
,,,,,A,2024-07-03_05h46.51.194,Slot Machine Game,2023.1.3,Win32,59.88023952,,,,,,,,,,,,,,,,,,,,,,,,,,,310,,,,,,,,,,,,,,,,,,,,,4,4,,,423.5473,4,right,0.0674,,0.5,0.3,"[2,3,1]",0.598314535,stimuli/card_100_transparent.png,100,4,0,4,0,1,,,,,,,,,,
,,,,,A,2024-07-03_05h46.51.194,Slot Machine Game,2023.1.3,Win32,59.88023952,,,,,,,,,,,,,,,,,,,,,,,,,,,410,,,,,,,,,,,,,,,,,,,,,4,4,,,424.9322,5,right,0.2733,,1.5,0.3,"[2,3,1]",0.515674085,stimuli/card_100_transparent.png,100,5,0,5,0,1,,,,,,,,,,
,,,,,A,2024-07-03_05h46.51.194,Slot Machine Game,2023.1.3,Win32,59.88023952,,,,,,,,,,,,,,,,,,,,,,,,,,,510,,,,,,,,,,,,,,,,,,,,,4,4,,,427.5181,6,right,0.4345,,0.5,0.3,"[2,3,1]",0.52323595,stimuli/card_100_transparent.png,100,6,0,6,0,1,,,,,,,,,,
,,,,,A,2024-07-03_05h46.51.194,Slot Machine Game,2023.1.3,Win32,59.88023952,,,,,,,,,,,,,,,,,,,,,,,,,,,520,,,,,,,,,,,,,,,,,,,,,4,4,,,429.2699,7,right,0.2678,,0.5,0.3,"[1,2,3]",0.135074694,stimuli/card_10_transparent.png,10,7,0,7,0,1,,,,,,,,,,
,,,,,A,2024-07-03_05h46.51.194,Slot Machine Game,2023.1.3,Win32,59.88023952,,,,,,,,,,,,,,,,,,,,,,,,,,,520,,,,,,,,,,,,,,,,,,,,,4,4,,,430.8547,8,right,0.4011,,0.5,0.3,"[1,2,3]",0.922334305,stimuli/card_0_transparent.png,0,8,0,8,0,1,,,,,,,,,,
,,,,,A,2024-07-03_05h46.51.194,Slot Machine Game,2023.1.3,Win32,59.88023952,,,,,,,,,,,,,,,,,,,,,,,,,,,620,,,,,,,,,,,,,,,,,,,,,4,4,,,432.573,9,left,0.2843,,1,0.3,"[1,2,3]",0.672646535,stimuli/card_100_transparent.png,100,9,0,9,0,1,,,,,,,,,,
,,,,,A,2024-07-03_05h46.51.194,Slot Machine Game,2023.1.3,Win32,59.88023952,,,,,,,,,,,,,,,,,,,,,,,,,,,720,,,,,,,,,,,,,,,,,,,,,4,4,,,434.6752,10,left,0.2529,,0.5,0.3,"[1,2,3]",0.271876649,stimuli/card_100_transparent.png,100,10,0,10,0,1,,,,,,,,,,
,,,,,A,2024-07-03_05h46.51.194,Slot Machine Game,2023.1.3,Win32,59.88023952,,,,,,,,,,,,,,,,,,,,,,,,,,,820,,,,,,,,,,,,,,,,,,,,,4,4,,,436.2434,11,left,0.0842,,0.5,0.3,"[1,2,3]",0.498175912,stimuli/card_100_transparent.png,100,11,0,11,0,1,,,,,,,,,,
,,,,,A,2024-07-03_05h46.51.194,Slot Machine Game,2023.1.3,Win32,59.88023952,,,,,,,,,,,,,,,,,,,,,,,,,,,920,,,,,,,,,,,,,,,,,,,,,4,4,,,437.6449,12,left,0.4845,,1.5,0.3,"[1,2,3]",0.913878016,stimuli/card_100_transparent.png,100,12,0,12,0,1,,,,,,,,,,
,,,,,A,2024-07-03_05h46.51.194,Slot Machine Game,2023.1.3,Win32,59.88023952,,,,,,,,,,,,,,,,,,,,,,,,,,,930,,,,,,,,,,,,,,,,,,,,,4,4,,,440.4477,13,left,0.0173,,0.5,0.3,"[1,2,3]",0.194616424,stimuli/card_10_transparent.png,10,13,0,13,0,1,,,,,,,,,,
,,,,,A,2024-07-03_05h46.51.194,Slot Machine Game,2023.1.3,Win32,59.88023952,,,,,,,,,,,,,,,,,,,,,,,,,,,1030,,,,,,,,,,,,,,,,,,,,,4,4,,,441.7823,14,left,0.4241,,1,0.3,"[1,2,3]",0.875775775,stimuli/card_100_transparent.png,100,14,0,14,0,1,,,,,,,,,,
,,,,,A,2024-07-03_05h46.51.194,Slot Machine Game,2023.1.3,Win32,59.88023952,,,,,,,,,,,,,,,,,,,,,,,,,,,,,,,,,,,444.018,,,,,,,,,,,,,,,,,,,,,,,,,,,,,,,,,"[670,740,820,1030]",3,0,3,0,1,,,,
,,,,,A,2024-07-03_05h46.51.194,Slot Machine Game,2023.1.3,Win32,59.88023952,,,,,,,,,,,,,,,,,,,,,,,,,,,0,,,,,,,,,,,,,,,,,,,,,5,6,"[4,10,15]","[[2,3,1],[1,3,2],[3,2,1]]",449.0351,0,up,0.1174,,1,0.3,"[2,3,1]",0.645295115,stimuli/card_0_transparent.png,0,0,0,0,0,1,,,,,,,,,,
,,,,,A,2024-07-03_05h46.51.194,Slot Machine Game,2023.1.3,Win32,59.88023952,,,,,,,,,,,,,,,,,,,,,,,,,,,100,,,,,,,,,,,,,,,,,,,,,5,6,,,450.9746,1,right,0.5191,,1.5,0.3,"[2,3,1]",0.981725524,stimuli/card_100_transparent.png,100,1,0,1,0,1,,,,,,,,,,
,,,,,A,2024-07-03_05h46.51.194,Slot Machine Game,2023.1.3,Win32,59.88023952,,,,,,,,,,,,,,,,,,,,,,,,,,,100,,,,,,,,,,,,,,,,,,,,,5,6,,,453.8108,2,right,0.0401,,0.5,0.3,"[2,3,1]",0.082197417,stimuli/card_0_transparent.png,0,2,0,2,0,1,,,,,,,,,,
,,,,,A,2024-07-03_05h46.51.194,Slot Machine Game,2023.1.3,Win32,59.88023952,,,,,,,,,,,,,,,,,,,,,,,,,,,200,,,,,,,,,,,,,,,,,,,,,5,6,,,455.1621,3,right,0.3385,,1,0.3,"[2,3,1]",0.270508032,stimuli/card_100_transparent.png,100,3,0,3,0,1,,,,,,,,,,
,,,,,A,2024-07-03_05h46.51.194,Slot Machine Game,2023.1.3,Win32,59.88023952,,,,,,,,,,,,,,,,,,,,,,,,,,,210,,,,,,,,,,,,,,,,,,,,,5,6,,,457.3143,4,right,0.382,,1.5,0.3,"[1,3,2]",0.882760801,stimuli/card_10_transparent.png,10,4,0,4,0,1,,,,,,,,,,
,,,,,A,2024-07-03_05h46.51.194,Slot Machine Game,2023.1.3,Win32,59.88023952,,,,,,,,,,,,,,,,,,,,,,,,,,,310,,,,,,,,,,,,,,,,,,,,,5,6,,,460.0173,5,left,1.1017,,1,0.3,"[1,3,2]",0.270030112,stimuli/card_100_transparent.png,100,5,0,5,0,1,,,,,,,,,,
,,,,,A,2024-07-03_05h46.51.194,Slot Machine Game,2023.1.3,Win32,59.88023952,,,,,,,,,,,,,,,,,,,,,,,,,,,410,,,,,,,,,,,,,,,,,,,,,5,6,,,462.9367,6,left,0.1684,,1.5,0.3,"[1,3,2]",0.766951105,stimuli/card_100_transparent.png,100,6,0,6,0,1,,,,,,,,,,
,,,,,A,2024-07-03_05h46.51.194,Slot Machine Game,2023.1.3,Win32,59.88023952,,,,,,,,,,,,,,,,,,,,,,,,,,,510,,,,,,,,,,,,,,,,,,,,,5,6,,,465.4226,7,left,0.2757,,1,0.3,"[1,3,2]",0.267343036,stimuli/card_100_transparent.png,100,7,0,7,0,1,,,,,,,,,,
,,,,,A,2024-07-03_05h46.51.194,Slot Machine Game,2023.1.3,Win32,59.88023952,,,,,,,,,,,,,,,,,,,,,,,,,,,610,,,,,,,,,,,,,,,,,,,,,5,6,,,467.5246,8,left,0.0567,,1,0.3,"[1,3,2]",0.549699254,stimuli/card_100_transparent.png,100,8,0,8,0,1,,,,,,,,,,
,,,,,A,2024-07-03_05h46.51.194,Slot Machine Game,2023.1.3,Win32,59.88023952,,,,,,,,,,,,,,,,,,,,,,,,,,,620,,,,,,,,,,,,,,,,,,,,,5,6,,,469.393,9,left,0.1008,,1.5,0.3,"[1,3,2]",0.17770832,stimuli/card_10_transparent.png,10,9,0,9,0,1,,,,,,,,,,
,,,,,A,2024-07-03_05h46.51.194,Slot Machine Game,2023.1.3,Win32,59.88023952,,,,,,,,,,,,,,,,,,,,,,,,,,,630,,,,,,,,,,,,,,,,,,,,,5,6,,,471.8121,10,up,0.126,,0.5,0.3,"[3,2,1]",0.924356457,stimuli/card_10_transparent.png,10,10,0,10,0,1,,,,,,,,,,
,,,,,A,2024-07-03_05h46.51.194,Slot Machine Game,2023.1.3,Win32,59.88023952,,,,,,,,,,,,,,,,,,,,,,,,,,,640,,,,,,,,,,,,,,,,,,,,,5,6,,,473.247,11,left,0.3677,,1.5,0.3,"[3,2,1]",0.158096249,stimuli/card_10_transparent.png,10,11,0,11,0,1,,,,,,,,,,
,,,,,A,2024-07-03_05h46.51.194,Slot Machine Game,2023.1.3,Win32,59.88023952,,,,,,,,,,,,,,,,,,,,,,,,,,,740,,,,,,,,,,,,,,,,,,,,,5,6,,,475.9329,12,right,0.3344,,1,0.3,"[3,2,1]",0.750220329,stimuli/card_100_transparent.png,100,12,0,12,0,1,,,,,,,,,,
,,,,,A,2024-07-03_05h46.51.194,Slot Machine Game,2023.1.3,Win32,59.88023952,,,,,,,,,,,,,,,,,,,,,,,,,,,840,,,,,,,,,,,,,,,,,,,,,5,6,,,478.0852,13,right,0.0675,,1.5,0.3,"[3,2,1]",0.886753392,stimuli/card_100_transparent.png,100,13,0,13,0,1,,,,,,,,,,
,,,,,A,2024-07-03_05h46.51.194,Slot Machine Game,2023.1.3,Win32,59.88023952,,,,,,,,,,,,,,,,,,,,,,,,,,,850,,,,,,,,,,,,,,,,,,,,,5,6,,,480.4708,14,right,0.3178,,1.5,0.3,"[3,2,1]",0.115205532,stimuli/card_10_transparent.png,10,14,0,14,0,1,,,,,,,,,,
,,,,,A,2024-07-03_05h46.51.194,Slot Machine Game,2023.1.3,Win32,59.88023952,,,,,,,,,,,,,,,,,,,,,,,,,,,,,,,,,,,483.1068,,,,,,,,,,,,,,,,,,,,,,,,,,,,,,,,,"[670,740,820,1030,850]",4,0,4,0,1,,,,
,,,,,A,2024-07-03_05h46.51.194,Slot Machine Game,2023.1.3,Win32,59.88023952,,,,,,,,,,,,,,,,,,,,,,,,,,,100,,,,,,,,,,,,,,,,,,,,,6,8,"[11,15]","[[2,1,3],[1,2,3]]",488.1251,0,up,0.5008,,1,0.3,"[2,1,3]",0.625391512,stimuli/card_100_transparent.png,100,0,0,0,0,1,,,,,,,,,,
,,,,,A,2024-07-03_05h46.51.194,Slot Machine Game,2023.1.3,Win32,59.88023952,,,,,,,,,,,,,,,,,,,,,,,,,,,110,,,,,,,,,,,,,,,,,,,,,6,8,,,490.447,1,up,0.0882,,1,0.3,"[2,1,3]",0.154074171,stimuli/card_10_transparent.png,10,1,0,1,0,1,,,,,,,,,,
,,,,,A,2024-07-03_05h46.51.194,Slot Machine Game,2023.1.3,Win32,59.88023952,,,,,,,,,,,,,,,,,,,,,,,,,,,120,,,,,,,,,,,,,,,,,,,,,6,8,,,492.3488,2,up,0.3524,,1,0.3,"[2,1,3]",0.164516968,stimuli/card_10_transparent.png,10,2,0,2,0,1,,,,,,,,,,
,,,,,A,2024-07-03_05h46.51.194,Slot Machine Game,2023.1.3,Win32,59.88023952,,,,,,,,,,,,,,,,,,,,,,,,,,,130,,,,,,,,,,,,,,,,,,,,,6,8,,,494.5182,3,left,0.4847,,1.5,0.3,"[2,1,3]",0.445829694,stimuli/card_10_transparent.png,10,3,0,3,0,1,,,,,,,,,,
,,,,,A,2024-07-03_05h46.51.194,Slot Machine Game,2023.1.3,Win32,59.88023952,,,,,,,,,,,,,,,,,,,,,,,,,,,130,,,,,,,,,,,,,,,,,,,,,6,8,,,497.321,4,right,0.3565,,1.5,0.3,"[2,1,3]",0.407877539,stimuli/card_0_transparent.png,0,4,0,4,0,1,,,,,,,,,,
,,,,,A,2024-07-03_05h46.51.194,Slot Machine Game,2023.1.3,Win32,59.88023952,,,,,,,,,,,,,,,,,,,,,,,,,,,230,,,,,,,,,,,,,,,,,,,,,6,8,,,499.9902,5,up,0.2677,,1.5,0.3,"[2,1,3]",0.446133948,stimuli/card_100_transparent.png,100,5,0,5,0,1,,,,,,,,,,
,,,,,A,2024-07-03_05h46.51.194,Slot Machine Game,2023.1.3,Win32,59.88023952,,,,,,,,,,,,,,,,,,,,,,,,,,,330,,,,,,,,,,,,,,,,,,,,,6,8,,,502.5762,6,up,0.0841,,0.5,0.3,"[2,1,3]",0.221813829,stimuli/card_100_transparent.png,100,6,0,6,0,1,,,,,,,,,,
,,,,,A,2024-07-03_05h46.51.194,Slot Machine Game,2023.1.3,Win32,59.88023952,,,,,,,,,,,,,,,,,,,,,,,,,,,430,,,,,,,,,,,,,,,,,,,,,6,8,,,503.9774,7,up,0.0007,,1,0.3,"[2,1,3]",0.968753607,stimuli/card_100_transparent.png,100,7,0,7,0,1,,,,,,,,,,
,,,,,A,2024-07-03_05h46.51.194,Slot Machine Game,2023.1.3,Win32,59.88023952,,,,,,,,,,,,,,,,,,,,,,,,,,,530,,,,,,,,,,,,,,,,,,,,,6,8,,,505.7962,8,up,0.2841,,1,0.3,"[2,1,3]",0.578291667,stimuli/card_100_transparent.png,100,8,0,8,0,1,,,,,,,,,,
,,,,,A,2024-07-03_05h46.51.194,Slot Machine Game,2023.1.3,Win32,59.88023952,,,,,,,,,,,,,,,,,,,,,,,,,,,630,,,,,,,,,,,,,,,,,,,,,6,8,,,507.8981,9,up,0.2008,,0.5,0.3,"[2,1,3]",0.473578204,stimuli/card_100_transparent.png,100,9,0,9,0,1,,,,,,,,,,
,,,,,A,2024-07-03_05h46.51.194,Slot Machine Game,2023.1.3,Win32,59.88023952,,,,,,,,,,,,,,,,,,,,,,,,,,,730,,,,,,,,,,,,,,,,,,,,,6,8,,,509.4163,10,up,0.2676,,1.5,0.3,"[2,1,3]",0.440552567,stimuli/card_100_transparent.png,100,10,0,10,0,1,,,,,,,,,,
,,,,,A,2024-07-03_05h46.51.194,Slot Machine Game,2023.1.3,Win32,59.88023952,,,,,,,,,,,,,,,,,,,,,,,,,,,740,,,,,,,,,,,,,,,,,,,,,6,8,,,512.0022,11,up,0.2255,,0.5,0.3,"[1,2,3]",0.957361066,stimuli/card_10_transparent.png,10,11,0,11,0,1,,,,,,,,,,
,,,,,A,2024-07-03_05h46.51.194,Slot Machine Game,2023.1.3,Win32,59.88023952,,,,,,,,,,,,,,,,,,,,,,,,,,,750,,,,,,,,,,,,,,,,,,,,,6,8,,,513.537,12,up,0.6029,,0.5,0.3,"[1,2,3]",0.848400003,stimuli/card_10_transparent.png,10,12,0,12,0,1,,,,,,,,,,
,,,,,A,2024-07-03_05h46.51.194,Slot Machine Game,2023.1.3,Win32,59.88023952,,,,,,,,,,,,,,,,,,,,,,,,,,,850,,,,,,,,,,,,,,,,,,,,,6,8,,,515.4557,13,left,0.1342,,0.5,0.3,"[1,2,3]",0.869014883,stimuli/card_100_transparent.png,100,13,0,13,0,1,,,,,,,,,,
,,,,,A,2024-07-03_05h46.51.194,Slot Machine Game,2023.1.3,Win32,59.88023952,,,,,,,,,,,,,,,,,,,,,,,,,,,950,,,,,,,,,,,,,,,,,,,,,6,8,,,516.9071,14,left,0.2571,,0.5,0.3,"[1,2,3]",0.925948396,stimuli/card_100_transparent.png,100,14,0,14,0,1,,,,,,,,,,
,,,,,A,2024-07-03_05h46.51.194,Slot Machine Game,2023.1.3,Win32,59.88023952,,,,,,,,,,,,,,,,,,,,,,,,,,,,,,,,,,,518.4754,,,,,,,,,,,,,,,,,,,,,,,,,,,,,,,,,"[670,740,820,1030,850,950]",5,0,5,0,1,,,,
,,,,,A,2024-07-03_05h46.51.194,Slot Machine Game,2023.1.3,Win32,59.88023952,,,,,,,,,,,,,,,,,,,,,,,,,,,10,,,,,,,,,,,,,,,,,,,,,7,9,"[8,15]","[[3,2,1],[3,1,2]]",523.494,0,up,0.6371,,1,0.3,"[3,2,1]",0.605314634,stimuli/card_10_transparent.png,10,0,0,0,0,1,,,,,,,,,,
,,,,,A,2024-07-03_05h46.51.194,Slot Machine Game,2023.1.3,Win32,59.88023952,,,,,,,,,,,,,,,,,,,,,,,,,,,110,,,,,,,,,,,,,,,,,,,,,7,9,,,525.9495,1,left,0.2206,,0.5,0.3,"[3,2,1]",0.040300819,stimuli/card_100_transparent.png,100,1,0,1,0,1,,,,,,,,,,
,,,,,A,2024-07-03_05h46.51.194,Slot Machine Game,2023.1.3,Win32,59.88023952,,,,,,,,,,,,,,,,,,,,,,,,,,,110,,,,,,,,,,,,,,,,,,,,,7,9,,,527.4843,2,left,0.2676,,0.5,0.3,"[3,2,1]",0.222191232,stimuli/card_0_transparent.png,0,2,0,2,0,1,,,,,,,,,,
,,,,,A,2024-07-03_05h46.51.194,Slot Machine Game,2023.1.3,Win32,59.88023952,,,,,,,,,,,,,,,,,,,,,,,,,,,110,,,,,,,,,,,,,,,,,,,,,7,9,,,529.0692,3,left,0.3069,,1,0.3,"[3,2,1]",0.754626333,stimuli/card_0_transparent.png,0,3,0,3,0,1,,,,,,,,,,
,,,,,A,2024-07-03_05h46.51.194,Slot Machine Game,2023.1.3,Win32,59.88023952,,,,,,,,,,,,,,,,,,,,,,,,,,,210,,,,,,,,,,,,,,,,,,,,,7,9,,,531.1879,4,right,0.138,,1,0.3,"[3,2,1]",0.956694996,stimuli/card_100_transparent.png,100,4,0,4,0,1,,,,,,,,,,
,,,,,A,2024-07-03_05h46.51.194,Slot Machine Game,2023.1.3,Win32,59.88023952,,,,,,,,,,,,,,,,,,,,,,,,,,,310,,,,,,,,,,,,,,,,,,,,,7,9,,,533.1399,5,right,0.2341,,1.5,0.3,"[3,2,1]",0.769783483,stimuli/card_100_transparent.png,100,5,0,5,0,1,,,,,,,,,,
,,,,,A,2024-07-03_05h46.51.194,Slot Machine Game,2023.1.3,Win32,59.88023952,,,,,,,,,,,,,,,,,,,,,,,,,,,410,,,,,,,,,,,,,,,,,,,,,7,9,,,535.6925,6,right,0.1679,,1.5,0.3,"[3,2,1]",0.872569788,stimuli/card_100_transparent.png,100,6,0,6,0,1,,,,,,,,,,
,,,,,A,2024-07-03_05h46.51.194,Slot Machine Game,2023.1.3,Win32,59.88023952,,,,,,,,,,,,,,,,,,,,,,,,,,,510,,,,,,,,,,,,,,,,,,,,,7,9,,,538.1783,7,right,0.2509,,0.5,0.3,"[3,2,1]",0.683963427,stimuli/card_100_transparent.png,100,7,0,7,0,1,,,,,,,,,,
,,,,,A,2024-07-03_05h46.51.194,Slot Machine Game,2023.1.3,Win32,59.88023952,,,,,,,,,,,,,,,,,,,,,,,,,,,520,,,,,,,,,,,,,,,,,,,,,7,9,,,539.7465,8,right,0.0038,,1.5,0.3,"[3,1,2]",0.598335366,stimuli/card_10_transparent.png,10,8,0,8,0,1,,,,,,,,,,
,,,,,A,2024-07-03_05h46.51.194,Slot Machine Game,2023.1.3,Win32,59.88023952,,,,,,,,,,,,,,,,,,,,,,,,,,,530,,,,,,,,,,,,,,,,,,,,,7,9,,,542.0656,9,right,0.1178,,1.5,0.3,"[3,1,2]",0.783747756,stimuli/card_10_transparent.png,10,9,0,9,0,1,,,,,,,,,,
,,,,,A,2024-07-03_05h46.51.194,Slot Machine Game,2023.1.3,Win32,59.88023952,,,,,,,,,,,,,,,,,,,,,,,,,,,530,,,,,,,,,,,,,,,,,,,,,7,9,,,544.5013,10,up,0.2217,,0.5,0.3,"[3,1,2]",0.021410049,stimuli/card_0_transparent.png,0,10,0,10,0,1,,,,,,,,,,
,,,,,A,2024-07-03_05h46.51.194,Slot Machine Game,2023.1.3,Win32,59.88023952,,,,,,,,,,,,,,,,,,,,,,,,,,,530,,,,,,,,,,,,,,,,,,,,,7,9,,,546.0361,11,left,0.1221,,1,0.3,"[3,1,2]",0.55639029,stimuli/card_0_transparent.png,0,11,0,11,0,1,,,,,,,,,,
,,,,,A,2024-07-03_05h46.51.194,Slot Machine Game,2023.1.3,Win32,59.88023952,,,,,,,,,,,,,,,,,,,,,,,,,,,630,,,,,,,,,,,,,,,,,,,,,7,9,,,547.9713,12,up,0.1342,,0.5,0.3,"[3,1,2]",0.799879557,stimuli/card_100_transparent.png,100,12,0,12,0,1,,,,,,,,,,
,,,,,A,2024-07-03_05h46.51.194,Slot Machine Game,2023.1.3,Win32,59.88023952,,,,,,,,,,,,,,,,,,,,,,,,,,,630,,,,,,,,,,,,,,,,,,,,,7,9,,,549.4227,13,up,0.2076,,1.5,0.3,"[3,1,2]",0.075591334,stimuli/card_0_transparent.png,0,13,0,13,0,1,,,,,,,,,,
,,,,,A,2024-07-03_05h46.51.194,Slot Machine Game,2023.1.3,Win32,59.88023952,,,,,,,,,,,,,,,,,,,,,,,,,,,730,,,,,,,,,,,,,,,,,,,,,7,9,,,551.942,14,up,0.3677,,1,0.3,"[3,1,2]",0.840549277,stimuli/card_100_transparent.png,100,14,0,14,0,1,,,,,,,,,,
,,,,,A,2024-07-03_05h46.51.194,Slot Machine Game,2023.1.3,Win32,59.88023952,,,,,,,,,,,,,,,,,,,,,,,,,,,,,,,,,,,554.1276,,,,,,,,,,,,,,,,,,,,,,,,,,,,,,,,,"[670,740,820,1030,850,950,730]",6,0,6,0,1,,,,
,,,,,A,2024-07-03_05h46.51.194,Slot Machine Game,2023.1.3,Win32,59.88023952,,,,,,,,,,,,,,,,,,,,,,,,,,,10,,,,,,,,,,,,,,,,,,,,,8,2,"[6,15]","[[1,3,2],[3,2,1]]",559.1402,0,up,0.2842,,1,0.3,"[1,3,2]",0.171749872,stimuli/card_10_transparent.png,10,0,0,0,0,1,,,,,,,,,,
,,,,,A,2024-07-03_05h46.51.194,Slot Machine Game,2023.1.3,Win32,59.88023952,,,,,,,,,,,,,,,,,,,,,,,,,,,10,,,,,,,,,,,,,,,,,,,,,8,2,,,561.2512,1,up,0.0751,,0.5,0.3,"[1,3,2]",0.789098952,stimuli/card_0_transparent.png,0,1,0,1,0,1,,,,,,,,,,
,,,,,A,2024-07-03_05h46.51.194,Slot Machine Game,2023.1.3,Win32,59.88023952,,,,,,,,,,,,,,,,,,,,,,,,,,,20,,,,,,,,,,,,,,,,,,,,,8,2,,,562.636,2,right,0.3844,,0.5,0.3,"[1,3,2]",0.991005468,stimuli/card_10_transparent.png,10,2,0,2,0,1,,,,,,,,,,
,,,,,A,2024-07-03_05h46.51.194,Slot Machine Game,2023.1.3,Win32,59.88023952,,,,,,,,,,,,,,,,,,,,,,,,,,,120,,,,,,,,,,,,,,,,,,,,,8,2,,,564.3377,3,left,0.0512,,0.5,0.3,"[1,3,2]",0.831669234,stimuli/card_100_transparent.png,100,3,0,3,0,1,,,,,,,,,,
,,,,,A,2024-07-03_05h46.51.194,Slot Machine Game,2023.1.3,Win32,59.88023952,,,,,,,,,,,,,,,,,,,,,,,,,,,220,,,,,,,,,,,,,,,,,,,,,8,2,,,565.7057,4,left,0.1398,,1.5,0.3,"[1,3,2]",0.584449955,stimuli/card_100_transparent.png,100,4,0,4,0,1,,,,,,,,,,
,,,,,A,2024-07-03_05h46.51.194,Slot Machine Game,2023.1.3,Win32,59.88023952,,,,,,,,,,,,,,,,,,,,,,,,,,,320,,,,,,,,,,,,,,,,,,,,,8,2,,,568.1582,5,left,0.2364,,1,0.3,"[1,3,2]",0.290842451,stimuli/card_100_transparent.png,100,5,0,5,0,1,,,,,,,,,,
,,,,,A,2024-07-03_05h46.51.194,Slot Machine Game,2023.1.3,Win32,59.88023952,,,,,,,,,,,,,,,,,,,,,,,,,,,320,,,,,,,,,,,,,,,,,,,,,8,2,,,570.2269,6,left,0.2748,,0.5,0.3,"[3,2,1]",0.327307861,stimuli/card_0_transparent.png,0,6,0,6,0,1,,,,,,,,,,
,,,,,A,2024-07-03_05h46.51.194,Slot Machine Game,2023.1.3,Win32,59.88023952,,,,,,,,,,,,,,,,,,,,,,,,,,,330,,,,,,,,,,,,,,,,,,,,,8,2,,,571.8284,7,left,0.4845,,1.5,0.3,"[3,2,1]",0.107118006,stimuli/card_10_transparent.png,10,7,0,7,0,1,,,,,,,,,,
,,,,,A,2024-07-03_05h46.51.194,Slot Machine Game,2023.1.3,Win32,59.88023952,,,,,,,,,,,,,,,,,,,,,,,,,,,430,,,,,,,,,,,,,,,,,,,,,8,2,,,574.6314,8,right,0.0841,,0.5,0.3,"[3,2,1]",0.37587529,stimuli/card_100_transparent.png,100,8,0,8,0,1,,,,,,,,,,
,,,,,A,2024-07-03_05h46.51.194,Slot Machine Game,2023.1.3,Win32,59.88023952,,,,,,,,,,,,,,,,,,,,,,,,,,,530,,,,,,,,,,,,,,,,,,,,,8,2,,,576.0327,9,right,0.2512,,1.5,0.3,"[3,2,1]",0.276654903,stimuli/card_100_transparent.png,100,9,0,9,0,1,,,,,,,,,,
,,,,,A,2024-07-03_05h46.51.194,Slot Machine Game,2023.1.3,Win32,59.88023952,,,,,,,,,,,,,,,,,,,,,,,,,,,630,,,,,,,,,,,,,,,,,,,,,8,2,,,578.6019,10,right,0.2371,,1,0.3,"[3,2,1]",0.206474679,stimuli/card_100_transparent.png,100,10,0,10,0,1,,,,,,,,,,
,,,,,A,2024-07-03_05h46.51.194,Slot Machine Game,2023.1.3,Win32,59.88023952,,,,,,,,,,,,,,,,,,,,,,,,,,,730,,,,,,,,,,,,,,,,,,,,,8,2,,,580.6539,11,right,0.1706,,1,0.3,"[3,2,1]",0.256514411,stimuli/card_100_transparent.png,100,11,0,11,0,1,,,,,,,,,,
,,,,,A,2024-07-03_05h46.51.194,Slot Machine Game,2023.1.3,Win32,59.88023952,,,,,,,,,,,,,,,,,,,,,,,,,,,830,,,,,,,,,,,,,,,,,,,,,8,2,,,582.6393,12,right,0.2251,,0.5,0.3,"[3,2,1]",0.590920759,stimuli/card_100_transparent.png,100,12,0,12,0,1,,,,,,,,,,
,,,,,A,2024-07-03_05h46.51.194,Slot Machine Game,2023.1.3,Win32,59.88023952,,,,,,,,,,,,,,,,,,,,,,,,,,,930,,,,,,,,,,,,,,,,,,,,,8,2,,,584.1741,13,right,0.0904,,0.5,0.3,"[3,2,1]",0.920800504,stimuli/card_100_transparent.png,100,13,0,13,0,1,,,,,,,,,,
,,,,,A,2024-07-03_05h46.51.194,Slot Machine Game,2023.1.3,Win32,59.88023952,,,,,,,,,,,,,,,,,,,,,,,,,,,1030,,,,,,,,,,,,,,,,,,,,,8,2,,,585.5756,14,right,0.2011,,1.5,0.3,"[3,2,1]",0.51557253,stimuli/card_100_transparent.png,100,14,0,14,0,1,,,,,,,,,,
,,,,,A,2024-07-03_05h46.51.194,Slot Machine Game,2023.1.3,Win32,59.88023952,,,,,,,,,,,,,,,,,,,,,,,,,,,,,,,,,,,588.0947,,,,,,,,,,,,,,,,,,,,,,,,,,,,,,,,,"[670,740,820,1030,850,950,730,1030]",7,0,7,0,1,,,,
,,,,,A,2024-07-03_05h46.51.194,Slot Machine Game,2023.1.3,Win32,59.88023952,,,,,,,,,,,,,,,,,,,,,,,,,,,100,,,,,,,,,,,,,,,,,,,,,9,10,"[10,15]","[[3,1,2],[1,3,2]]",593.1138,0,up,0.4036,,1.5,0.3,"[3,1,2]",0.66113347,stimuli/card_100_transparent.png,100,0,0,0,0,1,,,,,,,,,,
,,,,,A,2024-07-03_05h46.51.194,Slot Machine Game,2023.1.3,Win32,59.88023952,,,,,,,,,,,,,,,,,,,,,,,,,,,200,,,,,,,,,,,,,,,,,,,,,9,10,,,595.8356,1,up,0.1863,,1,0.3,"[3,1,2]",0.820481083,stimuli/card_100_transparent.png,100,1,0,1,0,1,,,,,,,,,,
,,,,,A,2024-07-03_05h46.51.194,Slot Machine Game,2023.1.3,Win32,59.88023952,,,,,,,,,,,,,,,,,,,,,,,,,,,300,,,,,,,,,,,,,,,,,,,,,9,10,,,597.8375,2,up,0.2372,,1,0.3,"[3,1,2]",0.376652728,stimuli/card_100_transparent.png,100,2,0,2,0,1,,,,,,,,,,
,,,,,A,2024-07-03_05h46.51.194,Slot Machine Game,2023.1.3,Win32,59.88023952,,,,,,,,,,,,,,,,,,,,,,,,,,,400,,,,,,,,,,,,,,,,,,,,,9,10,,,599.8943,3,up,0.2577,,1,0.3,"[3,1,2]",0.792010433,stimuli/card_100_transparent.png,100,3,0,3,0,1,,,,,,,,,,
,,,,,A,2024-07-03_05h46.51.194,Slot Machine Game,2023.1.3,Win32,59.88023952,,,,,,,,,,,,,,,,,,,,,,,,,,,500,,,,,,,,,,,,,,,,,,,,,9,10,,,601.975,4,up,0.1509,,1,0.3,"[3,1,2]",0.828423293,stimuli/card_100_transparent.png,100,4,0,4,0,1,,,,,,,,,,
,,,,,A,2024-07-03_05h46.51.194,Slot Machine Game,2023.1.3,Win32,59.88023952,,,,,,,,,,,,,,,,,,,,,,,,,,,500,,,,,,,,,,,,,,,,,,,,,9,10,,,603.9437,5,up,0.2745,,0.5,0.3,"[3,1,2]",0.070148693,stimuli/card_0_transparent.png,0,5,0,5,0,1,,,,,,,,,,
,,,,,A,2024-07-03_05h46.51.194,Slot Machine Game,2023.1.3,Win32,59.88023952,,,,,,,,,,,,,,,,,,,,,,,,,,,600,,,,,,,,,,,,,,,,,,,,,9,10,,,605.5286,6,up,0.3029,,1.5,0.3,"[3,1,2]",0.26216649,stimuli/card_100_transparent.png,100,6,0,6,0,1,,,,,,,,,,
,,,,,A,2024-07-03_05h46.51.194,Slot Machine Game,2023.1.3,Win32,59.88023952,,,,,,,,,,,,,,,,,,,,,,,,,,,610,,,,,,,,,,,,,,,,,,,,,9,10,,,608.1479,7,up,0.0564,,0.5,0.3,"[3,1,2]",0.152467664,stimuli/card_10_transparent.png,10,7,0,7,0,1,,,,,,,,,,
,,,,,A,2024-07-03_05h46.51.194,Slot Machine Game,2023.1.3,Win32,59.88023952,,,,,,,,,,,,,,,,,,,,,,,,,,,610,,,,,,,,,,,,,,,,,,,,,9,10,,,609.516,8,right,0.5888,,1.5,0.3,"[3,1,2]",0.010261722,stimuli/card_0_transparent.png,0,8,0,8,0,1,,,,,,,,,,
,,,,,A,2024-07-03_05h46.51.194,Slot Machine Game,2023.1.3,Win32,59.88023952,,,,,,,,,,,,,,,,,,,,,,,,,,,710,,,,,,,,,,,,,,,,,,,,,9,10,,,612.4189,9,left,0.257,,0.5,0.3,"[3,1,2]",0.030121457,stimuli/card_100_transparent.png,100,9,0,9,0,1,,,,,,,,,,
,,,,,A,2024-07-03_05h46.51.194,Slot Machine Game,2023.1.3,Win32,59.88023952,,,,,,,,,,,,,,,,,,,,,,,,,,,810,,,,,,,,,,,,,,,,,,,,,9,10,,,613.987,10,left,0.2343,,0.5,0.3,"[1,3,2]",0.303158803,stimuli/card_100_transparent.png,100,10,0,10,0,1,,,,,,,,,,
,,,,,A,2024-07-03_05h46.51.194,Slot Machine Game,2023.1.3,Win32,59.88023952,,,,,,,,,,,,,,,,,,,,,,,,,,,910,,,,,,,,,,,,,,,,,,,,,9,10,,,615.5386,11,left,0.0176,,0.5,0.3,"[1,3,2]",0.70400332,stimuli/card_100_transparent.png,100,11,0,11,0,1,,,,,,,,,,
,,,,,A,2024-07-03_05h46.51.194,Slot Machine Game,2023.1.3,Win32,59.88023952,,,,,,,,,,,,,,,,,,,,,,,,,,,910,,,,,,,,,,,,,,,,,,,,,9,10,,,616.8733,12,left,0.3066,,1,0.3,"[1,3,2]",0.07920012,stimuli/card_0_transparent.png,0,12,0,12,0,1,,,,,,,,,,
,,,,,A,2024-07-03_05h46.51.194,Slot Machine Game,2023.1.3,Win32,59.88023952,,,,,,,,,,,,,,,,,,,,,,,,,,,1010,,,,,,,,,,,,,,,,,,,,,9,10,,,618.9921,13,left,0.3182,,0.5,0.3,"[1,3,2]",0.238495471,stimuli/card_100_transparent.png,100,13,0,13,0,1,,,,,,,,,,
,,,,,A,2024-07-03_05h46.51.194,Slot Machine Game,2023.1.3,Win32,59.88023952,,,,,,,,,,,,,,,,,,,,,,,,,,,1110,,,,,,,,,,,,,,,,,,,,,9,10,,,620.6271,14,left,0.1558,,1.5,0.3,"[1,3,2]",0.783515954,stimuli/card_100_transparent.png,100,14,0,14,0,1,,,,,,,,,,
,,,,,A,2024-07-03_05h46.51.194,Slot Machine Game,2023.1.3,Win32,59.88023952,,,,,,,,,,,,,,,,,,,,,,,,,,,,,,,,,,,623.1128,,,,,,,,,,,,,,,,,,,,,,,,,,,,,,,,,"[670,740,820,1030,850,950,730,1030,1110]",8,0,8,0,1,,,,
,,,,,A,2024-07-03_05h46.51.194,Slot Machine Game,2023.1.3,Win32,59.88023952,,,,,,,,,,,,,,,,,,,,,,,,,,,100,,,,,,,,,,,,,,,,,,,,,10,3,"[15,15]","[[3,1,2],[3,1,2]]",628.1321,0,up,0.7449,,0.5,0.3,"[3,1,2]",0.843960924,stimuli/card_100_transparent.png,100,0,0,0,0,1,,,,,,,,,,
,,,,,A,2024-07-03_05h46.51.194,Slot Machine Game,2023.1.3,Win32,59.88023952,,,,,,,,,,,,,,,,,,,,,,,,,,,200,,,,,,,,,,,,,,,,,,,,,10,3,,,630.2034,1,up,0.1714,,0.5,0.3,"[3,1,2]",0.266571965,stimuli/card_100_transparent.png,100,1,0,1,0,1,,,,,,,,,,
,,,,,A,2024-07-03_05h46.51.194,Slot Machine Game,2023.1.3,Win32,59.88023952,,,,,,,,,,,,,,,,,,,,,,,,,,,300,,,,,,,,,,,,,,,,,,,,,10,3,,,631.688,2,up,0.0075,,0.5,0.3,"[3,1,2]",0.779511062,stimuli/card_100_transparent.png,100,2,0,2,0,1,,,,,,,,,,
,,,,,A,2024-07-03_05h46.51.194,Slot Machine Game,2023.1.3,Win32,59.88023952,,,,,,,,,,,,,,,,,,,,,,,,,,,400,,,,,,,,,,,,,,,,,,,,,10,3,,,633.0225,3,up,0.2843,,0.5,0.3,"[3,1,2]",0.925777579,stimuli/card_100_transparent.png,100,3,0,3,0,1,,,,,,,,,,
,,,,,A,2024-07-03_05h46.51.194,Slot Machine Game,2023.1.3,Win32,59.88023952,,,,,,,,,,,,,,,,,,,,,,,,,,,500,,,,,,,,,,,,,,,,,,,,,10,3,,,634.6243,4,up,0.2024,,0.5,0.3,"[3,1,2]",0.452430905,stimuli/card_100_transparent.png,100,4,0,4,0,1,,,,,,,,,,
,,,,,A,2024-07-03_05h46.51.194,Slot Machine Game,2023.1.3,Win32,59.88023952,,,,,,,,,,,,,,,,,,,,,,,,,,,600,,,,,,,,,,,,,,,,,,,,,10,3,,,636.1425,5,up,0.0893,,1.5,0.3,"[3,1,2]",0.457646245,stimuli/card_100_transparent.png,100,5,0,5,0,1,,,,,,,,,,
,,,,,A,2024-07-03_05h46.51.194,Slot Machine Game,2023.1.3,Win32,59.88023952,,,,,,,,,,,,,,,,,,,,,,,,,,,700,,,,,,,,,,,,,,,,,,,,,10,3,,,638.5448,6,up,0.0193,,1,0.3,"[3,1,2]",0.372026526,stimuli/card_100_transparent.png,100,6,0,6,0,1,,,,,,,,,,
,,,,,A,2024-07-03_05h46.51.194,Slot Machine Game,2023.1.3,Win32,59.88023952,,,,,,,,,,,,,,,,,,,,,,,,,,,800,,,,,,,,,,,,,,,,,,,,,10,3,,,640.3799,7,up,0.3345,,1,0.3,"[3,1,2]",0.225562939,stimuli/card_100_transparent.png,100,7,0,7,0,1,,,,,,,,,,
,,,,,A,2024-07-03_05h46.51.194,Slot Machine Game,2023.1.3,Win32,59.88023952,,,,,,,,,,,,,,,,,,,,,,,,,,,900,,,,,,,,,,,,,,,,,,,,,10,3,,,642.5321,8,up,0.2684,,1,0.3,"[3,1,2]",0.6492753,stimuli/card_100_transparent.png,100,8,0,8,0,1,,,,,,,,,,
,,,,,A,2024-07-03_05h46.51.194,Slot Machine Game,2023.1.3,Win32,59.88023952,,,,,,,,,,,,,,,,,,,,,,,,,,,1000,,,,,,,,,,,,,,,,,,,,,10,3,,,644.6176,9,up,0.5512,,1.5,0.3,"[3,1,2]",0.507624723,stimuli/card_100_transparent.png,100,9,0,9,0,1,,,,,,,,,,
,,,,,A,2024-07-03_05h46.51.194,Slot Machine Game,2023.1.3,Win32,59.88023952,,,,,,,,,,,,,,,,,,,,,,,,,,,1100,,,,,,,,,,,,,,,,,,,,,10,3,,,647.4871,10,up,0.0175,,1.5,0.3,"[3,1,2]",0.722029543,stimuli/card_100_transparent.png,100,10,0,10,0,1,,,,,,,,,,
,,,,,A,2024-07-03_05h46.51.194,Slot Machine Game,2023.1.3,Win32,59.88023952,,,,,,,,,,,,,,,,,,,,,,,,,,,1200,,,,,,,,,,,,,,,,,,,,,10,3,,,649.8227,11,up,0.3851,,1,0.3,"[3,1,2]",0.858943569,stimuli/card_100_transparent.png,100,11,0,11,0,1,,,,,,,,,,
,,,,,A,2024-07-03_05h46.51.194,Slot Machine Game,2023.1.3,Win32,59.88023952,,,,,,,,,,,,,,,,,,,,,,,,,,,1300,,,,,,,,,,,,,,,,,,,,,10,3,,,652.0249,12,up,0.1034,,1,0.3,"[3,1,2]",0.5606096,stimuli/card_100_transparent.png,100,12,0,12,0,1,,,,,,,,,,
,,,,,A,2024-07-03_05h46.51.194,Slot Machine Game,2023.1.3,Win32,59.88023952,,,,,,,,,,,,,,,,,,,,,,,,,,,1400,,,,,,,,,,,,,,,,,,,,,10,3,,,653.9435,13,up,0.2872,,1,0.3,"[3,1,2]",0.922107459,stimuli/card_100_transparent.png,100,13,0,13,0,1,,,,,,,,,,
,,,,,A,2024-07-03_05h46.51.194,Slot Machine Game,2023.1.3,Win32,59.88023952,,,,,,,,,,,,,,,,,,,,,,,,,,,1500,,,,,,,,,,,,,,,,,,,,,10,3,,,656.0455,14,up,0.0843,,1.5,0.3,"[3,1,2]",0.645344733,stimuli/card_100_transparent.png,100,14,0,14,0,1,,,,,,,,,,
,,,,,A,2024-07-03_05h46.51.194,Slot Machine Game,2023.1.3,Win32,59.88023952,,,,,,,,,,,,,,,,,,,,,,,,,,,,,,,,,,,658.4481,,,,,,,,,,,,,,,,,,,,,,,,,,,,,,,,,"[670,740,820,1030,850,950,730,1030,1110,1500]",9,0,9,0,1,,,,
,,,,,A,2024-07-03_05h46.51.194,Slot Machine Game,2023.1.3,Win32,59.88023952,,,,,,,,,,,,,,,,,,,,,,,,,,,,,,,,,,,,,,,,,,,,,,,,,,,,,,,,,,,,,,,,,,,,,,,,,,9,"[670,740,820,1030,850,950,730,1030,1110,1500]",10.3,2024-07-03_05h57.58.720
