key_resp_instruction1.started,key_resp_instruction1.keys,key_resp_instruction1.rt,key_resp_instruction1.duration,participant,date,expName,psychopyVersion,OS,frameRate,key_resp_instruction2.started,key_resp_instruction2.keys,key_resp_instruction2.rt,key_resp_instruction2.duration,key_resp_instruction3.started,key_resp_instruction3.keys,key_resp_instruction3.rt,key_resp_instruction3.duration,practiceCondition,practice_reward_seqs,key_resp_practice_slots.started,key_resp_practice_slots.keys,key_resp_practice_slots.rt,key_resp_practice_slots.duration,presentationInterval,"practice_reward_seq: 2,1,3",reward_Img,Cuml_rew,currentPracticeTrialReward,practice_trials.thisRepN,practice_trials.thisTrialN,practice_trials.thisN,practice_trials.thisIndex,practice_trials.ran,"practice_reward_seq: 2,3,1",text_block_break.started,practice_block.thisRepN,practice_block.thisTrialN,practice_block.thisN,practice_block.thisIndex,practice_block.ran,"practice_reward_seq: 1,3,2","practice_reward_seq: 3,1,2",key_resp_practice_end.started,key_resp_practice_end.keys,key_resp_practice_end.rt,key_resp_practice_end.duration,text_main_instruction.started,BlockCondition,BlockOrderIndices,key_resp_main_instruction.started,key_resp_main_instruction.keys,key_resp_main_instruction.rt,key_resp_main_instruction.duration,currentCondition,main_reward_seqs,key_resp_slots_presentation.started,key_resp_slots_presentation.keys,key_resp_slots_presentation.rt,key_resp_slots_presentation.duration,Main_presentationInterval,rewardPresentationTime,Main_reward_seq,Random value generated,Main_reward_Img,Main_Cumul_Reward,Main_currentTrialReward,main_trials.thisRepN,main_trials.thisTrialN,main_trials.thisN,main_trials.thisIndex,main_trials.ran,block.thisRepN,block.thisTrialN,block.thisN,block.thisIndex,block.ran
0.0004,space,9.8658,,,2023-10-04_12h11.58.334,slotMachine_updated,2023.1.3,MacIntel,60.06006006,,,,,,,,,,,,,,,,,,,,,,,,,,,,,,,,,,,,,,,,,,,,,,,,,,,,,,,,,,,,,,,,,,,
,,,,,2023-10-04_12h11.58.334,slotMachine_updated,2023.1.3,MacIntel,60.06006006,,,,,,,,,,,,,,,,,,,,,,,,,,,,,,,,,,,,,,,,,,,,,,,,,,,,,,,,,,,,,,,,,,,
,,,,,2023-10-04_12h11.58.334,slotMachine_updated,2023.1.3,MacIntel,60.06006006,134.8219,space,3.4971,,,,,,,,,,,,,,,,,,,,,,,,,,,,,,,,,,,,,,,,,,,,,,,,,,,,,,,,,,,,,,,,
,,,,,2023-10-04_12h11.58.334,slotMachine_updated,2023.1.3,MacIntel,60.06006006,,,,,138.3358,space,2.9839,,,,,,,,,,,,,,,,,,,,,,,,,,,,,,,,,,,,,,,,,,,,,,,,,,,,,,,,,,,,
,,,,,2023-10-04_12h11.58.334,slotMachine_updated,2023.1.3,MacIntel,60.06006006,,,,,,,,,"[9,15]","[[2,1,3],[2,3,1]]",141.3491,left,1.3911,,1,,stimuli/card_10_transparent.png,10,10,0,0,0,0,1,,,,,,,,,,,,,,,,,,,,,,,,,,,,,,,,,,,,,,,,,,,
,,,,,2023-10-04_12h11.58.334,slotMachine_updated,2023.1.3,MacIntel,60.06006006,,,,,,,,,,,144.0791,up,0.7949,,1.5,,stimuli/card_0_transparent.png,10,0,1,0,1,0,1,,,,,,,,,,,,,,,,,,,,,,,,,,,,,,,,,,,,,,,,,,,
,,,,,2023-10-04_12h11.58.334,slotMachine_updated,2023.1.3,MacIntel,60.06006006,,,,,,,,,,,146.688,right,0.5829,,1.5,,stimuli/card_0_transparent.png,10,0,2,0,2,0,1,,,,,,,,,,,,,,,,,,,,,,,,,,,,,,,,,,,,,,,,,,,
,,,,,2023-10-04_12h11.58.334,slotMachine_updated,2023.1.3,MacIntel,60.06006006,,,,,,,,,,,149.0852,up,0.3275,,0.5,,stimuli/card_0_transparent.png,10,0,3,0,3,0,1,,,,,,,,,,,,,,,,,,,,,,,,,,,,,,,,,,,,,,,,,,,
,,,,,2023-10-04_12h11.58.334,slotMachine_updated,2023.1.3,MacIntel,60.06006006,,,,,,,,,,,150.2345,up,0.6324,,0.5,,stimuli/card_100_transparent.png,110,100,4,0,4,0,1,,,,,,,,,,,,,,,,,,,,,,,,,,,,,,,,,,,,,,,,,,,
,,,,,2023-10-04_12h11.58.334,slotMachine_updated,2023.1.3,MacIntel,60.06006006,,,,,,,,,,,151.6823,up,0.4417,,1,,stimuli/card_100_transparent.png,210,100,5,0,5,0,1,,,,,,,,,,,,,,,,,,,,,,,,,,,,,,,,,,,,,,,,,,,
,,,,,2023-10-04_12h11.58.334,slotMachine_updated,2023.1.3,MacIntel,60.06006006,,,,,,,,,,,153.4475,up,0.478,,0.5,,stimuli/card_100_transparent.png,310,100,6,0,6,0,1,,,,,,,,,,,,,,,,,,,,,,,,,,,,,,,,,,,,,,,,,,,
,,,,,2023-10-04_12h11.58.334,slotMachine_updated,2023.1.3,MacIntel,60.06006006,,,,,,,,,,,154.7458,up,0.1606,,1.5,,stimuli/card_100_transparent.png,410,100,7,0,7,0,1,,,,,,,,,,,,,,,,,,,,,,,,,,,,,,,,,,,,,,,,,,,
,,,,,2023-10-04_12h11.58.334,slotMachine_updated,2023.1.3,MacIntel,60.06006006,,,,,,,,,,,156.7201,up,0.6647,,1.5,,stimuli/card_100_transparent.png,510,100,8,0,8,0,1,,,,,,,,,,,,,,,,,,,,,,,,,,,,,,,,,,,,,,,,,,,
,,,,,2023-10-04_12h11.58.334,slotMachine_updated,2023.1.3,MacIntel,60.06006006,,,,,,,,,,,159.2048,up,0.1297,,1,,stimuli/card_0_transparent.png,510,0,9,0,9,0,1,,,,,,,,,,,,,,,,,,,,,,,,,,,,,,,,,,,,,,,,,,,
,,,,,2023-10-04_12h11.58.334,slotMachine_updated,2023.1.3,MacIntel,60.06006006,,,,,,,,,,,160.6512,up,0.2951,,0.5,,stimuli/card_0_transparent.png,510,0,10,0,10,0,1,,,,,,,,,,,,,,,,,,,,,,,,,,,,,,,,,,,,,,,,,,,
,,,,,2023-10-04_12h11.58.334,slotMachine_updated,2023.1.3,MacIntel,60.06006006,,,,,,,,,,,161.7672,up,0.5497,,1.5,,stimuli/card_0_transparent.png,510,0,11,0,11,0,1,,,,,,,,,,,,,,,,,,,,,,,,,,,,,,,,,,,,,,,,,,,
,,,,,2023-10-04_12h11.58.334,slotMachine_updated,2023.1.3,MacIntel,60.06006006,,,,,,,,,,,164.1307,up,0.4453,,1.5,,stimuli/card_0_transparent.png,510,0,12,0,12,0,1,,,,,,,,,,,,,,,,,,,,,,,,,,,,,,,,,,,,,,,,,,,
,,,,,2023-10-04_12h11.58.334,slotMachine_updated,2023.1.3,MacIntel,60.06006006,,,,,,,,,,,166.3876,up,0.15,,1.5,,stimuli/card_0_transparent.png,510,0,13,0,13,0,1,,,,,,,,,,,,,,,,,,,,,,,,,,,,,,,,,,,,,,,,,,,
,,,,,2023-10-04_12h11.58.334,slotMachine_updated,2023.1.3,MacIntel,60.06006006,,,,,,,,,,,168.3529,up,0.2,,1,,stimuli/card_10_transparent.png,520,10,14,0,14,0,1,,,,,,,,,,,,,,,,,,,,,,,,,,,,,,,,,,,,,,,,,,,
,,,,,2023-10-04_12h11.58.334,slotMachine_updated,2023.1.3,MacIntel,60.06006006,,,,,,,,,,,,,,,,,,,,,,,,,,169.8672,0,0,0,0,1,,,,,,,,,,,,,,,,,,,,,,,,,,,,,,,,,,,,
,,,,,2023-10-04_12h11.58.334,slotMachine_updated,2023.1.3,MacIntel,60.06006006,,,,,,,,,"[6,15]","[[1,3,2],[3,1,2]]",,,,,,,,,,,,,,,,,,,,,,,,,,,,,,,,,,,,,,,,,,,,,,,,,,,,,,,,,
,,,,,2023-10-04_12h11.58.334,slotMachine_updated,2023.1.3,MacIntel,60.06006006,,,,,,,,,,,174.883,up,0.5768,,0.5,,stimuli/card_0_transparent.png,0,0,0,0,0,0,1,,,,,,,,,,,,,,,,,,,,,,,,,,,,,,,,,,,,,,,,,,,
,,,,,2023-10-04_12h11.58.334,slotMachine_updated,2023.1.3,MacIntel,60.06006006,,,,,,,,,,,176.2877,left,0.3332,,1,,stimuli/card_100_transparent.png,100,100,1,0,1,0,1,,,,,,,,,,,,,,,,,,,,,,,,,,,,,,,,,,,,,,,,,,,
,,,,,2023-10-04_12h11.58.334,slotMachine_updated,2023.1.3,MacIntel,60.06006006,,,,,,,,,,,177.937,left,0.1288,,1,,stimuli/card_100_transparent.png,200,100,2,0,2,0,1,,,,,,,,,,,,,,,,,,,,,,,,,,,,,,,,,,,,,,,,,,,
,,,,,2023-10-04_12h11.58.334,slotMachine_updated,2023.1.3,MacIntel,60.06006006,,,,,,,,,,,179.3851,left,0.9116,,1,,stimuli/card_100_transparent.png,300,100,3,0,3,0,1,,,,,,,,,,,,,,,,,,,,,,,,,,,,,,,,,,,,,,,,,,,
,,,,,2023-10-04_12h11.58.334,slotMachine_updated,2023.1.3,MacIntel,60.06006006,,,,,,,,,,,181.6158,left,0.0711,,0.5,,stimuli/card_10_transparent.png,310,10,4,0,4,0,1,,,,,,,,,,,,,,,,,,,,,,,,,,,,,,,,,,,,,,,,,,,
,,,,,2023-10-04_12h11.58.334,slotMachine_updated,2023.1.3,MacIntel,60.06006006,,,,,,,,,,,182.4978,left,0.6602,,1,,stimuli/card_100_transparent.png,410,100,5,0,5,0,1,,,,,,,,,,,,,,,,,,,,,,,,,,,,,,,,,,,,,,,,,,,
,,,,,2023-10-04_12h11.58.334,slotMachine_updated,2023.1.3,MacIntel,60.06006006,,,,,,,,,,,184.4821,left,0.1416,,1.5,,stimuli/card_10_transparent.png,420,10,6,0,6,0,1,,,,,,,,,,,,,,,,,,,,,,,,,,,,,,,,,,,,,,,,,,,
,,,,,2023-10-04_12h11.58.334,slotMachine_updated,2023.1.3,MacIntel,60.06006006,,,,,,,,,,,186.4372,left,0.0805,,0.5,,stimuli/card_0_transparent.png,420,0,7,0,7,0,1,,,,,,,,,,,,,,,,,,,,,,,,,,,,,,,,,,,,,,,,,,,
,,,,,2023-10-04_12h11.58.334,slotMachine_updated,2023.1.3,MacIntel,60.06006006,,,,,,,,,,,187.3377,left,2.2418,,1,,stimuli/card_0_transparent.png,420,0,8,0,8,0,1,,,,,,,,,,,,,,,,,,,,,,,,,,,,,,,,,,,,,,,,,,,
,,,,,2023-10-04_12h11.58.334,slotMachine_updated,2023.1.3,MacIntel,60.06006006,,,,,,,,,,,190.9009,left,0.2998,,1.5,,stimuli/card_0_transparent.png,420,0,9,0,9,0,1,,,,,,,,,,,,,,,,,,,,,,,,,,,,,,,,,,,,,,,,,,,
,,,,,2023-10-04_12h11.58.334,slotMachine_updated,2023.1.3,MacIntel,60.06006006,,,,,,,,,,,193.016,left,0.0791,,0.5,,stimuli/card_0_transparent.png,420,0,10,0,10,0,1,,,,,,,,,,,,,,,,,,,,,,,,,,,,,,,,,,,,,,,,,,,
,,,,,2023-10-04_12h11.58.334,slotMachine_updated,2023.1.3,MacIntel,60.06006006,,,,,,,,,,,193.912,right,0.3362,,0.5,,stimuli/card_10_transparent.png,430,10,11,0,11,0,1,,,,,,,,,,,,,,,,,,,,,,,,,,,,,,,,,,,,,,,,,,,
,,,,,2023-10-04_12h11.58.334,slotMachine_updated,2023.1.3,MacIntel,60.06006006,,,,,,,,,,,195.064,up,0.1626,,1.5,,stimuli/card_10_transparent.png,440,10,12,0,12,0,1,,,,,,,,,,,,,,,,,,,,,,,,,,,,,,,,,,,,,,,,,,,
,,,,,2023-10-04_12h11.58.334,slotMachine_updated,2023.1.3,MacIntel,60.06006006,,,,,,,,,,,197.0376,right,0.2292,,0.5,,stimuli/card_10_transparent.png,450,10,13,0,13,0,1,,,,,,,,,,,,,,,,,,,,,,,,,,,,,,,,,,,,,,,,,,,
,,,,,2023-10-04_12h11.58.334,slotMachine_updated,2023.1.3,MacIntel,60.06006006,,,,,,,,,,,198.0864,right,0.2647,,0.5,,stimuli/card_10_transparent.png,460,10,14,0,14,0,1,,,,,,,,,,,,,,,,,,,,,,,,,,,,,,,,,,,,,,,,,,,
,,,,,2023-10-04_12h11.58.334,slotMachine_updated,2023.1.3,MacIntel,60.06006006,,,,,,,,,,,,,,,,,,,,,,,,,,,,,,,,,,199.1682,space,4.4584,,,,,,,,,,,,,,,,,,,,,,,,,,,,,,,
,,,,,2023-10-04_12h11.58.334,slotMachine_updated,2023.1.3,MacIntel,60.06006006,,,,,,,,,,,,,,,,,,,,,,,,,,,,,,,,,,,,,,203.6458,2,"[2,4,8,0,1,3,9,6,8,5]",203.6458,space,5.3214,,,,,,,,,,,,,,,,,,,,,,,,
,,,,,2023-10-04_12h11.58.334,slotMachine_updated,2023.1.3,MacIntel,60.06006006,,,,,,,,,,,,,,,,,,,,,,,,,,,,,,,,,,,,,,,,,,,,,"[15,15]","[[3,1,2],[3,1,2]]",209.0053,up,0.7633,,1,0.3,"[3,1,2]",0.528114887,stimuli/card_100_transparent.png,100,100,0,0,0,0,1,,,,,
,,,,,2023-10-04_12h11.58.334,slotMachine_updated,2023.1.3,MacIntel,60.06006006,,,,,,,,,,,,,,,,,,,,,,,,,,,,,,,,,,,,,,,,,,,,,,,211.1006,up,0.2685,,1.5,0.3,"[3,1,2]",0.035210869,stimuli/card_0_transparent.png,100,0,1,0,1,0,1,,,,,
,,,,,2023-10-04_12h11.58.334,slotMachine_updated,2023.1.3,MacIntel,60.06006006,,,,,,,,,,,,,,,,,,,,,,,,,,,,,,,,,,,,,,,,,,,,,,,213.1816,up,0.0462,,1,0.3,"[3,1,2]",0.420162803,stimuli/card_100_transparent.png,200,100,2,0,2,0,1,,,,,
,,,,,2023-10-04_12h11.58.334,slotMachine_updated,2023.1.3,MacIntel,60.06006006,,,,,,,,,,,,,,,,,,,,,,,,,,,,,,,,,,,,,,,,,,,,,,,214.5464,up,0.0461,,0.5,0.3,"[3,1,2]",0.050366919,stimuli/card_0_transparent.png,200,0,3,0,3,0,1,,,,,
,,,,,2023-10-04_12h11.58.334,slotMachine_updated,2023.1.3,MacIntel,60.06006006,,,,,,,,,,,,,,,,,,,,,,,,,,,,,,,,,,,,,,,,,,,,,,,215.4127,up,0.2522,,1,0.3,"[3,1,2]",0.224868927,stimuli/card_100_transparent.png,300,100,4,0,4,0,1,,,,,
,,,,,2023-10-04_12h11.58.334,slotMachine_updated,2023.1.3,MacIntel,60.06006006,,,,,,,,,,,,,,,,,,,,,,,,,,,,,,,,,,,,,,,,,,,,,,,216.9725,,,,0.5,0.3,,,,,,5,0,5,0,1,,,,,
,,,,,2023-10-04_12h11.58.334,slotMachine_updated,2023.1.3,MacIntel,60.06006006,,,,,,,,,,,,,,,,,,,,,,,,,,,,,,,,,,,,,,,,,,,,,,,222.5046,up,0.7834,,0.5,0.3,"[3,1,2]",0.654596648,stimuli/card_100_transparent.png,400,100,6,0,6,0,1,,,,,
,,,,,2023-10-04_12h11.58.334,slotMachine_updated,2023.1.3,MacIntel,60.06006006,,,,,,,,,,,,,,,,,,,,,,,,,,,,,,,,,,,,,,,,,,,,,,,224.0971,right,1.2094,,1.5,0.3,"[3,1,2]",0.940667716,stimuli/card_10_transparent.png,410,10,7,0,7,0,1,,,,,
,,,,,2023-10-04_12h11.58.334,slotMachine_updated,2023.1.3,MacIntel,60.06006006,,,,,,,,,,,,,,,,,,,,,,,,,,,,,,,,,,,,,,,,,,,,,,,227.1234,left,0.4939,,0.5,0.3,"[3,1,2]",0.545997417,stimuli/card_0_transparent.png,410,0,8,0,8,0,1,,,,,
,,,,,2023-10-04_12h11.58.334,slotMachine_updated,2023.1.3,MacIntel,60.06006006,,,,,,,,,,,,,,,,,,,,,,,,,,,,,,,,,,,,,,,,,,,,,,,228.4377,left,0.4139,,1.5,0.3,"[3,1,2]",0.418987295,stimuli/card_0_transparent.png,410,0,9,0,9,0,1,,,,,
,,,,,2023-10-04_12h11.58.334,slotMachine_updated,2023.1.3,MacIntel,60.06006006,,,,,,,,,,,,,,,,,,,,,,,,,,,,,,,,,,,,,,,,,,,,,,,230.6696,up,0.4964,,1.5,0.3,"[3,1,2]",0.558330816,stimuli/card_100_transparent.png,510,100,10,0,10,0,1,,,,,
,,,,,2023-10-04_12h11.58.334,slotMachine_updated,2023.1.3,MacIntel,60.06006006,,,,,,,,,,,,,,,,,,,,,,,,,,,,,,,,,,,,,,,,,,,,,,,232.9841,up,0.3241,,1,0.3,"[3,1,2]",0.082276792,stimuli/card_0_transparent.png,510,0,11,0,11,0,1,,,,,
,,,,,2023-10-04_12h11.58.334,slotMachine_updated,2023.1.3,MacIntel,60.06006006,,,,,,,,,,,,,,,,,,,,,,,,,,,,,,,,,,,,,,,,,,,,,,,234.6323,up,0.2652,,1.5,0.3,"[3,1,2]",0.322533813,stimuli/card_100_transparent.png,610,100,12,0,12,0,1,,,,,
,,,,,2023-10-04_12h11.58.334,slotMachine_updated,2023.1.3,MacIntel,60.06006006,,,,,,,,,,,,,,,,,,,,,,,,,,,,,,,,,,,,,,,,,,,,,,,236.7069,up,0.2688,,0.5,0.3,"[3,1,2]",0.359861853,stimuli/card_100_transparent.png,710,100,13,0,13,0,1,,,,,
,,,,,2023-10-04_12h11.58.334,slotMachine_updated,2023.1.3,MacIntel,60.06006006,,,,,,,,,,,,,,,,,,,,,,,,,,,,,,,,,,,,,,,,,,,,,,,237.7881,up,0.3181,,0.5,0.3,"[3,1,2]",0.296755818,stimuli/card_100_transparent.png,810,100,14,0,14,0,1,,,,,
,,,,,2023-10-04_12h11.58.334,slotMachine_updated,2023.1.3,MacIntel,60.06006006,,,,,,,,,,,,,,,,,,,,,,,,,,238.9183,,,,,,,,,,,,,,,,,,,,,,,,,,,,,,,,,,,,,0,0,0,0,1
,,,,,2023-10-04_12h11.58.334,slotMachine_updated,2023.1.3,MacIntel,60.06006006,,,,,,,,,,,,,,,,,,,,,,,,,,,,,,,,,,,,,,,,,,,,,"[5,15]","[[1,2,3],[3,1,2]]",243.9326,up,0.5501,,1.5,0.3,"[1,2,3]",0.151182842,stimuli/card_100_transparent.png,100,100,0,0,0,0,1,,,,,
,,,,,2023-10-04_12h11.58.334,slotMachine_updated,2023.1.3,MacIntel,60.06006006,,,,,,,,,,,,,,,,,,,,,,,,,,,,,,,,,,,,,,,,,,,,,,,246.2876,right,0.2715,,0.5,0.3,"[1,2,3]",0.697821097,stimuli/card_0_transparent.png,100,0,1,0,1,0,1,,,,,
,,,,,2023-10-04_12h11.58.334,slotMachine_updated,2023.1.3,MacIntel,60.06006006,,,,,,,,,,,,,,,,,,,,,,,,,,,,,,,,,,,,,,,,,,,,,,,247.3699,right,0.4368,,1.5,0.3,"[1,2,3]",0.267676363,stimuli/card_0_transparent.png,100,0,2,0,2,0,1,,,,,
,,,,,2023-10-04_12h11.58.334,slotMachine_updated,2023.1.3,MacIntel,60.06006006,,,,,,,,,,,,,,,,,,,,,,,,,,,,,,,,,,,,,,,,,,,,,,,249.62,left,0.2957,,1,0.3,"[1,2,3]",0.247717755,stimuli/card_100_transparent.png,200,100,3,0,3,0,1,,,,,
,,,,,2023-10-04_12h11.58.334,slotMachine_updated,2023.1.3,MacIntel,60.06006006,,,,,,,,,,,,,,,,,,,,,,,,,,,,,,,,,,,,,,,,,,,,,,,251.2358,left,0.3407,,0.5,0.3,"[1,2,3]",0.376655589,stimuli/card_100_transparent.png,300,100,4,0,4,0,1,,,,,
,,,,,2023-10-04_12h11.58.334,slotMachine_updated,2023.1.3,MacIntel,60.06006006,,,,,,,,,,,,,,,,,,,,,,,,,,,,,,,,,,,,,,,,,,,,,,,252.3994,left,0.3804,,0.5,0.3,"[3,1,2]",0.306383869,stimuli/card_0_transparent.png,300,0,5,0,5,0,1,,,,,
,,,,,2023-10-04_12h11.58.334,slotMachine_updated,2023.1.3,MacIntel,60.06006006,,,,,,,,,,,,,,,,,,,,,,,,,,,,,,,,,,,,,,,,,,,,,,,253.5983,left,0.3263,,0.5,0.3,"[3,1,2]",0.871167362,stimuli/card_0_transparent.png,300,0,6,0,6,0,1,,,,,
,,,,,2023-10-04_12h11.58.334,slotMachine_updated,2023.1.3,MacIntel,60.06006006,,,,,,,,,,,,,,,,,,,,,,,,,,,,,,,,,,,,,,,,,,,,,,,254.7481,left,0.5153,,0.5,0.3,"[3,1,2]",0.178706971,stimuli/card_10_transparent.png,310,10,7,0,7,0,1,,,,,
,,,,,2023-10-04_12h11.58.334,slotMachine_updated,2023.1.3,MacIntel,60.06006006,,,,,,,,,,,,,,,,,,,,,,,,,,,,,,,,,,,,,,,,,,,,,,,256.0782,right,0.06,,1,0.3,"[3,1,2]",0.624297409,stimuli/card_10_transparent.png,320,10,8,0,8,0,1,,,,,
,,,,,2023-10-04_12h11.58.334,slotMachine_updated,2023.1.3,MacIntel,60.06006006,,,,,,,,,,,,,,,,,,,,,,,,,,,,,,,,,,,,,,,,,,,,,,,257.4709,up,0.3634,,1.5,0.3,"[3,1,2]",0.94756613,stimuli/card_100_transparent.png,420,100,9,0,9,0,1,,,,,
,,,,,2023-10-04_12h11.58.334,slotMachine_updated,2023.1.3,MacIntel,60.06006006,,,,,,,,,,,,,,,,,,,,,,,,,,,,,,,,,,,,,,,,,,,,,,,259.6509,up,0.235,,0.5,0.3,"[3,1,2]",0.942361872,stimuli/card_100_transparent.png,520,100,10,0,10,0,1,,,,,
,,,,,2023-10-04_12h11.58.334,slotMachine_updated,2023.1.3,MacIntel,60.06006006,,,,,,,,,,,,,,,,,,,,,,,,,,,,,,,,,,,,,,,,,,,,,,,260.7024,up,0.3309,,1.5,0.3,"[3,1,2]",0.174024629,stimuli/card_10_transparent.png,530,10,11,0,11,0,1,,,,,
,,,,,2023-10-04_12h11.58.334,slotMachine_updated,2023.1.3,MacIntel,60.06006006,,,,,,,,,,,,,,,,,,,,,,,,,,,,,,,,,,,,,,,,,,,,,,,262.8502,up,0.0459,,0.5,0.3,"[3,1,2]",0.048495794,stimuli/card_0_transparent.png,530,0,12,0,12,0,1,,,,,
,,,,,2023-10-04_12h11.58.334,slotMachine_updated,2023.1.3,MacIntel,60.06006006,,,,,,,,,,,,,,,,,,,,,,,,,,,,,,,,,,,,,,,,,,,,,,,263.7161,left,0.5347,,1.5,0.3,"[3,1,2]",0.386735384,stimuli/card_0_transparent.png,530,0,13,0,13,0,1,,,,,
,,,,,2023-10-04_12h11.58.334,slotMachine_updated,2023.1.3,MacIntel,60.06006006,,,,,,,,,,,,,,,,,,,,,,,,,,,,,,,,,,,,,,,,,,,,,,,266.0631,up,0.0626,,0.5,0.3,"[3,1,2]",0.583987465,stimuli/card_100_transparent.png,630,100,14,0,14,0,1,,,,,
,,,,,2023-10-04_12h11.58.334,slotMachine_updated,2023.1.3,MacIntel,60.06006006,,,,,,,,,,,,,,,,,,,,,,,,,,266.9397,,,,,,,,,,,,,,,,,,,,,,,,,,,,,,,,,,,,,1,0,1,0,1
,,,,,2023-10-04_12h11.58.334,slotMachine_updated,2023.1.3,MacIntel,60.06006006,,,,,,,,,,,,,,,,,,,,,,,,,,,,,,,,,,,,,,,,,,,,,"[8,15]","[[3,2,1],[3,1,2]]",271.9508,up,0.4819,,1,0.3,"[3,2,1]",0.091263791,stimuli/card_0_transparent.png,0,0,0,0,0,0,1,,,,,
,,,,,2023-10-04_12h11.58.334,slotMachine_updated,2023.1.3,MacIntel,60.06006006,,,,,,,,,,,,,,,,,,,,,,,,,,,,,,,,,,,,,,,,,,,,,,,273.7501,right,0.1658,,1,0.3,"[3,2,1]",0.831255989,stimuli/card_100_transparent.png,100,100,1,0,1,0,1,,,,,
,,,,,2023-10-04_12h11.58.334,slotMachine_updated,2023.1.3,MacIntel,60.06006006,,,,,,,,,,,,,,,,,,,,,,,,,,,,,,,,,,,,,,,,,,,,,,,275.2304,right,0.2466,,1,0.3,"[3,2,1]",0.64240289,stimuli/card_100_transparent.png,200,100,2,0,2,0,1,,,,,
,,,,,2023-10-04_12h11.58.334,slotMachine_updated,2023.1.3,MacIntel,60.06006006,,,,,,,,,,,,,,,,,,,,,,,,,,,,,,,,,,,,,,,,,,,,,,,276.7883,right,0.0621,,1.5,0.3,"[3,2,1]",0.959052985,stimuli/card_100_transparent.png,300,100,3,0,3,0,1,,,,,
,,,,,2023-10-04_12h11.58.334,slotMachine_updated,2023.1.3,MacIntel,60.06006006,,,,,,,,,,,,,,,,,,,,,,,,,,,,,,,,,,,,,,,,,,,,,,,278.655,right,0.1456,,0.5,0.3,"[3,2,1]",0.910183445,stimuli/card_100_transparent.png,400,100,4,0,4,0,1,,,,,
,,,,,2023-10-04_12h11.58.334,slotMachine_updated,2023.1.3,MacIntel,60.06006006,,,,,,,,,,,,,,,,,,,,,,,,,,,,,,,,,,,,,,,,,,,,,,,279.6202,right,0.2479,,0.5,0.3,"[3,2,1]",0.475249495,stimuli/card_100_transparent.png,500,100,5,0,5,0,1,,,,,
,,,,,2023-10-04_12h11.58.334,slotMachine_updated,2023.1.3,MacIntel,60.06006006,,,,,,,,,,,,,,,,,,,,,,,,,,,,,,,,,,,,,,,,,,,,,,,280.686,right,0.114,,0.5,0.3,"[3,2,1]",0.972750146,stimuli/card_100_transparent.png,600,100,6,0,6,0,1,,,,,
,,,,,2023-10-04_12h11.58.334,slotMachine_updated,2023.1.3,MacIntel,60.06006006,,,,,,,,,,,,,,,,,,,,,,,,,,,,,,,,,,,,,,,,,,,,,,,281.618,right,0.1426,,1,0.3,"[3,2,1]",0.274535318,stimuli/card_100_transparent.png,700,100,7,0,7,0,1,,,,,
,,,,,2023-10-04_12h11.58.334,slotMachine_updated,2023.1.3,MacIntel,60.06006006,,,,,,,,,,,,,,,,,,,,,,,,,,,,,,,,,,,,,,,,,,,,,,,283.0842,right,0.1284,,1.5,0.3,"[3,1,2]",0.962509333,stimuli/card_10_transparent.png,710,10,8,0,8,0,1,,,,,
,,,,,2023-10-04_12h11.58.334,slotMachine_updated,2023.1.3,MacIntel,60.06006006,,,,,,,,,,,,,,,,,,,,,,,,,,,,,,,,,,,,,,,,,,,,,,,285.0322,right,0.0893,,0.5,0.3,"[3,1,2]",0.324431854,stimuli/card_10_transparent.png,720,10,9,0,9,0,1,,,,,
,,,,,2023-10-04_12h11.58.334,slotMachine_updated,2023.1.3,MacIntel,60.06006006,,,,,,,,,,,,,,,,,,,,,,,,,,,,,,,,,,,,,,,,,,,,,,,285.9458,left,0.1011,,1,0.3,"[3,1,2]",0.920534603,stimuli/card_0_transparent.png,720,0,10,0,10,0,1,,,,,
,,,,,2023-10-04_12h11.58.334,slotMachine_updated,2023.1.3,MacIntel,60.06006006,,,,,,,,,,,,,,,,,,,,,,,,,,,,,,,,,,,,,,,,,,,,,,,287.3545,left,0.2995,,0.5,0.3,"[3,1,2]",0.508754868,stimuli/card_0_transparent.png,720,0,11,0,11,0,1,,,,,
,,,,,2023-10-04_12h11.58.334,slotMachine_updated,2023.1.3,MacIntel,60.06006006,,,,,,,,,,,,,,,,,,,,,,,,,,,,,,,,,,,,,,,,,,,,,,,288.4711,up,0.0816,,0.5,0.3,"[3,1,2]",0.712955243,stimuli/card_100_transparent.png,820,100,12,0,12,0,1,,,,,
,,,,,2023-10-04_12h11.58.334,slotMachine_updated,2023.1.3,MacIntel,60.06006006,,,,,,,,,,,,,,,,,,,,,,,,,,,,,,,,,,,,,,,,,,,,,,,289.37,up,0.1546,,0.5,0.3,"[3,1,2]",0.838061022,stimuli/card_100_transparent.png,920,100,13,0,13,0,1,,,,,
,,,,,2023-10-04_12h11.58.334,slotMachine_updated,2023.1.3,MacIntel,60.06006006,,,,,,,,,,,,,,,,,,,,,,,,,,,,,,,,,,,,,,,,,,,,,,,290.337,up,0.2302,,1,0.3,"[3,1,2]",0.176598745,stimuli/card_10_transparent.png,930,10,14,0,14,0,1,,,,,
,,,,,2023-10-04_12h11.58.334,slotMachine_updated,2023.1.3,MacIntel,60.06006006,,,,,,,,,,,,,,,,,,,,,,,,,,291.8841,,,,,,,,,,,,,,,,,,,,,,,,,,,,,,,,,,,,,2,0,2,0,1
,,,,,2023-10-04_12h11.58.334,slotMachine_updated,2023.1.3,MacIntel,60.06006006,,,,,,,,,,,,,,,,,,,,,,,,,,,,,,,,,,,,,,,,,,,,,"[12,15]","[[2,1,3],[2,3,1]]",296.9063,up,0.6946,,1.5,0.3,"[2,1,3]",0.539475018,stimuli/card_100_transparent.png,100,100,0,0,0,0,1,,,,,
,,,,,2023-10-04_12h11.58.334,slotMachine_updated,2023.1.3,MacIntel,60.06006006,,,,,,,,,,,,,,,,,,,,,,,,,,,,,,,,,,,,,,,,,,,,,,,299.421,up,0.1954,,0.5,0.3,"[2,1,3]",0.648780357,stimuli/card_100_transparent.png,200,100,1,0,1,0,1,,,,,
,,,,,2023-10-04_12h11.58.334,slotMachine_updated,2023.1.3,MacIntel,60.06006006,,,,,,,,,,,,,,,,,,,,,,,,,,,,,,,,,,,,,,,,,,,,,,,300.4346,up,0.1502,,0.5,0.3,"[2,1,3]",0.9072353,stimuli/card_100_transparent.png,300,100,2,0,2,0,1,,,,,
,,,,,2023-10-04_12h11.58.334,slotMachine_updated,2023.1.3,MacIntel,60.06006006,,,,,,,,,,,,,,,,,,,,,,,,,,,,,,,,,,,,,,,,,,,,,,,301.4014,up,0.3316,,1,0.3,"[2,1,3]",0.720847373,stimuli/card_100_transparent.png,400,100,3,0,3,0,1,,,,,
,,,,,2023-10-04_12h11.58.334,slotMachine_updated,2023.1.3,MacIntel,60.06006006,,,,,,,,,,,,,,,,,,,,,,,,,,,,,,,,,,,,,,,,,,,,,,,303.0806,up,0.1606,,1.5,0.3,"[2,1,3]",0.886710871,stimuli/card_100_transparent.png,500,100,4,0,4,0,1,,,,,
,,,,,2023-10-04_12h11.58.334,slotMachine_updated,2023.1.3,MacIntel,60.06006006,,,,,,,,,,,,,,,,,,,,,,,,,,,,,,,,,,,,,,,,,,,,,,,305.0626,up,0.2722,,1.5,0.3,"[2,1,3]",0.369463356,stimuli/card_100_transparent.png,600,100,5,0,5,0,1,,,,,
,,,,,2023-10-04_12h11.58.334,slotMachine_updated,2023.1.3,MacIntel,60.06006006,,,,,,,,,,,,,,,,,,,,,,,,,,,,,,,,,,,,,,,,,,,,,,,307.1379,up,0.1169,,1.5,0.3,"[2,1,3]",0.447719409,stimuli/card_100_transparent.png,700,100,6,0,6,0,1,,,,,
,,,,,2023-10-04_12h11.58.334,slotMachine_updated,2023.1.3,MacIntel,60.06006006,,,,,,,,,,,,,,,,,,,,,,,,,,,,,,,,,,,,,,,,,,,,,,,309.0688,up,0.0489,,1,0.3,"[2,1,3]",0.972372284,stimuli/card_100_transparent.png,800,100,7,0,7,0,1,,,,,
,,,,,2023-10-04_12h11.58.334,slotMachine_updated,2023.1.3,MacIntel,60.06006006,,,,,,,,,,,,,,,,,,,,,,,,,,,,,,,,,,,,,,,,,,,,,,,310.4356,up,0.0829,,0.5,0.3,"[2,1,3]",0.042169784,stimuli/card_0_transparent.png,800,0,8,0,8,0,1,,,,,
,,,,,2023-10-04_12h11.58.334,slotMachine_updated,2023.1.3,MacIntel,60.06006006,,,,,,,,,,,,,,,,,,,,,,,,,,,,,,,,,,,,,,,,,,,,,,,311.334,left,0.4,,0.5,0.3,"[2,1,3]",0.529759025,stimuli/card_10_transparent.png,810,10,9,0,9,0,1,,,,,
,,,,,2023-10-04_12h11.58.334,slotMachine_updated,2023.1.3,MacIntel,60.06006006,,,,,,,,,,,,,,,,,,,,,,,,,,,,,,,,,,,,,,,,,,,,,,,312.5482,right,0.5363,,0.5,0.3,"[2,1,3]",0.450610977,stimuli/card_0_transparent.png,810,0,10,0,10,0,1,,,,,
,,,,,2023-10-04_12h11.58.334,slotMachine_updated,2023.1.3,MacIntel,60.06006006,,,,,,,,,,,,,,,,,,,,,,,,,,,,,,,,,,,,,,,,,,,,,,,313.8969,up,0.237,,1.5,0.3,"[2,1,3]",0.548125646,stimuli/card_100_transparent.png,910,100,11,0,11,0,1,,,,,
,,,,,2023-10-04_12h11.58.334,slotMachine_updated,2023.1.3,MacIntel,60.06006006,,,,,,,,,,,,,,,,,,,,,,,,,,,,,,,,,,,,,,,,,,,,,,,315.9456,up,0.0882,,1.5,0.3,"[2,3,1]",0.028488094,stimuli/card_100_transparent.png,1010,100,12,0,12,0,1,,,,,
,,,,,2023-10-04_12h11.58.334,slotMachine_updated,2023.1.3,MacIntel,60.06006006,,,,,,,,,,,,,,,,,,,,,,,,,,,,,,,,,,,,,,,,,,,,,,,317.853,up,0.288,,1.5,0.3,"[2,3,1]",0.240104183,stimuli/card_0_transparent.png,1010,0,13,0,13,0,1,,,,,
,,,,,2023-10-04_12h11.58.334,slotMachine_updated,2023.1.3,MacIntel,60.06006006,,,,,,,,,,,,,,,,,,,,,,,,,,,,,,,,,,,,,,,,,,,,,,,319.9517,up,0.4263,,0.5,0.3,"[2,3,1]",0.249934576,stimuli/card_0_transparent.png,1010,0,14,0,14,0,1,,,,,
,,,,,2023-10-04_12h11.58.334,slotMachine_updated,2023.1.3,MacIntel,60.06006006,,,,,,,,,,,,,,,,,,,,,,,,,,321.2006,,,,,,,,,,,,,,,,,,,,,,,,,,,,,,,,,,,,,3,0,3,0,1
,,,,,2023-10-04_12h11.58.334,slotMachine_updated,2023.1.3,MacIntel,60.06006006,,,,,,,,,,,,,,,,,,,,,,,,,,,,,,,,,,,,,,,,,,,,,"[6,15]","[[1,3,2],[3,2,1]]",326.213,right,0.4565,,0.5,0.3,"[1,3,2]",0.068224569,stimuli/card_0_transparent.png,0,0,0,0,0,0,1,,,,,
,,,,,2023-10-04_12h11.58.334,slotMachine_updated,2023.1.3,MacIntel,60.06006006,,,,,,,,,,,,,,,,,,,,,,,,,,,,,,,,,,,,,,,,,,,,,,,327.4872,up,0.2869,,1.5,0.3,"[1,3,2]",0.490803462,stimuli/card_0_transparent.png,0,0,1,0,1,0,1,,,,,
,,,,,2023-10-04_12h11.58.334,slotMachine_updated,2023.1.3,MacIntel,60.06006006,,,,,,,,,,,,,,,,,,,,,,,,,,,,,,,,,,,,,,,,,,,,,,,329.5861,left,0.1455,,1,0.3,"[1,3,2]",0.067404618,stimuli/card_0_transparent.png,0,0,2,0,2,0,1,,,,,
,,,,,2023-10-04_12h11.58.334,slotMachine_updated,2023.1.3,MacIntel,60.06006006,,,,,,,,,,,,,,,,,,,,,,,,,,,,,,,,,,,,,,,,,,,,,,,331.0506,up,0.2806,,1,0.3,"[1,3,2]",0.380665054,stimuli/card_0_transparent.png,0,0,3,0,3,0,1,,,,,
,,,,,2023-10-04_12h11.58.334,slotMachine_updated,2023.1.3,MacIntel,60.06006006,,,,,,,,,,,,,,,,,,,,,,,,,,,,,,,,,,,,,,,,,,,,,,,332.6496,right,0.1103,,1.5,0.3,"[1,3,2]",0.614431269,stimuli/card_10_transparent.png,10,10,4,0,4,0,1,,,,,
,,,,,2023-10-04_12h11.58.334,slotMachine_updated,2023.1.3,MacIntel,60.06006006,,,,,,,,,,,,,,,,,,,,,,,,,,,,,,,,,,,,,,,,,,,,,,,334.5638,up,0.4348,,1.5,0.3,"[1,3,2]",0.329622884,stimuli/card_0_transparent.png,10,0,5,0,5,0,1,,,,,
,,,,,2023-10-04_12h11.58.334,slotMachine_updated,2023.1.3,MacIntel,60.06006006,,,,,,,,,,,,,,,,,,,,,,,,,,,,,,,,,,,,,,,,,,,,,,,336.8048,left,0.151,,1.5,0.3,"[3,2,1]",0.29669855,stimuli/card_0_transparent.png,10,0,6,0,6,0,1,,,,,
,,,,,2023-10-04_12h11.58.334,slotMachine_updated,2023.1.3,MacIntel,60.06006006,,,,,,,,,,,,,,,,,,,,,,,,,,,,,,,,,,,,,,,,,,,,,,,338.7704,right,0.4691,,1.5,0.3,"[3,2,1]",0.461602906,stimuli/card_100_transparent.png,110,100,7,0,7,0,1,,,,,
,,,,,2023-10-04_12h11.58.334,slotMachine_updated,2023.1.3,MacIntel,60.06006006,,,,,,,,,,,,,,,,,,,,,,,,,,,,,,,,,,,,,,,,,,,,,,,341.0502,right,0.2705,,1,0.3,"[3,2,1]",0.298235692,stimuli/card_100_transparent.png,210,100,8,0,8,0,1,,,,,
,,,,,2023-10-04_12h11.58.334,slotMachine_updated,2023.1.3,MacIntel,60.06006006,,,,,,,,,,,,,,,,,,,,,,,,,,,,,,,,,,,,,,,,,,,,,,,342.6319,right,0.4262,,1.5,0.3,"[3,2,1]",0.033055537,stimuli/card_0_transparent.png,210,0,9,0,9,0,1,,,,,
,,,,,2023-10-04_12h11.58.334,slotMachine_updated,2023.1.3,MacIntel,60.06006006,,,,,,,,,,,,,,,,,,,,,,,,,,,,,,,,,,,,,,,,,,,,,,,344.8796,right,0.1226,,1.5,0.3,"[3,2,1]",0.09732137,stimuli/card_0_transparent.png,210,0,10,0,10,0,1,,,,,
,,,,,2023-10-04_12h11.58.334,slotMachine_updated,2023.1.3,MacIntel,60.06006006,,,,,,,,,,,,,,,,,,,,,,,,,,,,,,,,,,,,,,,,,,,,,,,346.8211,up,0.0872,,1.5,0.3,"[3,2,1]",0.488211818,stimuli/card_10_transparent.png,220,10,11,0,11,0,1,,,,,
,,,,,2023-10-04_12h11.58.334,slotMachine_updated,2023.1.3,MacIntel,60.06006006,,,,,,,,,,,,,,,,,,,,,,,,,,,,,,,,,,,,,,,,,,,,,,,348.7197,left,0.1623,,1,0.3,"[3,2,1]",0.323409714,stimuli/card_0_transparent.png,220,0,12,0,12,0,1,,,,,
,,,,,2023-10-04_12h11.58.334,slotMachine_updated,2023.1.3,MacIntel,60.06006006,,,,,,,,,,,,,,,,,,,,,,,,,,,,,,,,,,,,,,,,,,,,,,,350.2011,up,0.3488,,1.5,0.3,"[3,2,1]",0.899290251,stimuli/card_10_transparent.png,230,10,13,0,13,0,1,,,,,
,,,,,2023-10-04_12h11.58.334,slotMachine_updated,2023.1.3,MacIntel,60.06006006,,,,,,,,,,,,,,,,,,,,,,,,,,,,,,,,,,,,,,,,,,,,,,,352.3677,left,0.1635,,0.5,0.3,"[3,2,1]",0.429635239,stimuli/card_0_transparent.png,230,0,14,0,14,0,1,,,,,
,,,,,2023-10-04_12h11.58.334,slotMachine_updated,2023.1.3,MacIntel,60.06006006,,,,,,,,,,,,,,,,,,,,,,,,,,353.3505,,,,,,,,,,,,,,,,,,,,,,,,,,,,,,,,,,,,,4,0,4,0,1
,,,,,2023-10-04_12h11.58.334,slotMachine_updated,2023.1.3,MacIntel,60.06006006,,,,,,,,,,,,,,,,,,,,,,,,,,,,,,,,,,,,,,,,,,,,,"[7,15]","[[2,3,1],[1,2,3]]",358.3729,left,0.4146,,1.5,0.3,"[2,3,1]",0.616149198,stimuli/card_10_transparent.png,10,10,0,0,0,0,1,,,,,
,,,,,2023-10-04_12h11.58.334,slotMachine_updated,2023.1.3,MacIntel,60.06006006,,,,,,,,,,,,,,,,,,,,,,,,,,,,,,,,,,,,,,,,,,,,,,,360.5998,up,0.2358,,0.5,0.3,"[2,3,1]",0.044977287,stimuli/card_100_transparent.png,110,100,1,0,1,0,1,,,,,
,,,,,2023-10-04_12h11.58.334,slotMachine_updated,2023.1.3,MacIntel,60.06006006,,,,,,,,,,,,,,,,,,,,,,,,,,,,,,,,,,,,,,,,,,,,,,,361.6509,up,0.2495,,1,0.3,"[2,3,1]",0.698228104,stimuli/card_0_transparent.png,110,0,2,0,2,0,1,,,,,
,,,,,2023-10-04_12h11.58.334,slotMachine_updated,2023.1.3,MacIntel,60.06006006,,,,,,,,,,,,,,,,,,,,,,,,,,,,,,,,,,,,,,,,,,,,,,,363.2154,up,0.4093,,1.5,0.3,"[2,3,1]",0.924574217,stimuli/card_0_transparent.png,110,0,3,0,3,0,1,,,,,
,,,,,2023-10-04_12h11.58.334,slotMachine_updated,2023.1.3,MacIntel,60.06006006,,,,,,,,,,,,,,,,,,,,,,,,,,,,,,,,,,,,,,,,,,,,,,,365.4455,up,0.313,,0.5,0.3,"[2,3,1]",0.5764865,stimuli/card_0_transparent.png,110,0,4,0,4,0,1,,,,,
,,,,,2023-10-04_12h11.58.334,slotMachine_updated,2023.1.3,MacIntel,60.06006006,,,,,,,,,,,,,,,,,,,,,,,,,,,,,,,,,,,,,,,,,,,,,,,366.589,up,0.2992,,1,0.3,"[2,3,1]",0.629502975,stimuli/card_0_transparent.png,110,0,5,0,5,0,1,,,,,
,,,,,2023-10-04_12h11.58.334,slotMachine_updated,2023.1.3,MacIntel,60.06006006,,,,,,,,,,,,,,,,,,,,,,,,,,,,,,,,,,,,,,,,,,,,,,,368.2034,up,0.1332,,0.5,0.3,"[2,3,1]",0.784708916,stimuli/card_0_transparent.png,110,0,6,0,6,0,1,,,,,
,,,,,2023-10-04_12h11.58.334,slotMachine_updated,2023.1.3,MacIntel,60.06006006,,,,,,,,,,,,,,,,,,,,,,,,,,,,,,,,,,,,,,,,,,,,,,,369.153,right,0.35,,1,0.3,"[1,2,3]",0.062840762,stimuli/card_100_transparent.png,210,100,7,0,7,0,1,,,,,
,,,,,2023-10-04_12h11.58.334,slotMachine_updated,2023.1.3,MacIntel,60.06006006,,,,,,,,,,,,,,,,,,,,,,,,,,,,,,,,,,,,,,,,,,,,,,,370.8187,right,0.1675,,1.5,0.3,"[1,2,3]",0.706319268,stimuli/card_0_transparent.png,210,0,8,0,8,0,1,,,,,
,,,,,2023-10-04_12h11.58.334,slotMachine_updated,2023.1.3,MacIntel,60.06006006,,,,,,,,,,,,,,,,,,,,,,,,,,,,,,,,,,,,,,,,,,,,,,,372.7995,right,0.1463,,0.5,0.3,"[1,2,3]",0.487932157,stimuli/card_0_transparent.png,210,0,9,0,9,0,1,,,,,
,,,,,2023-10-04_12h11.58.334,slotMachine_updated,2023.1.3,MacIntel,60.06006006,,,,,,,,,,,,,,,,,,,,,,,,,,,,,,,,,,,,,,,,,,,,,,,373.7649,right,0.5296,,1.5,0.3,"[1,2,3]",0.827839053,stimuli/card_0_transparent.png,210,0,10,0,10,0,1,,,,,
,,,,,2023-10-04_12h11.58.334,slotMachine_updated,2023.1.3,MacIntel,60.06006006,,,,,,,,,,,,,,,,,,,,,,,,,,,,,,,,,,,,,,,,,,,,,,,376.1147,left,0.3946,,1,0.3,"[1,2,3]",0.636680106,stimuli/card_100_transparent.png,310,100,11,0,11,0,1,,,,,
,,,,,2023-10-04_12h11.58.334,slotMachine_updated,2023.1.3,MacIntel,60.06006006,,,,,,,,,,,,,,,,,,,,,,,,,,,,,,,,,,,,,,,,,,,,,,,377.8211,left,0.262,,0.5,0.3,"[1,2,3]",0.685960794,stimuli/card_100_transparent.png,410,100,12,0,12,0,1,,,,,
,,,,,2023-10-04_12h11.58.334,slotMachine_updated,2023.1.3,MacIntel,60.06006006,,,,,,,,,,,,,,,,,,,,,,,,,,,,,,,,,,,,,,,,,,,,,,,378.9032,left,0.333,,1,0.3,"[1,2,3]",0.861019116,stimuli/card_100_transparent.png,510,100,13,0,13,0,1,,,,,
,,,,,2023-10-04_12h11.58.334,slotMachine_updated,2023.1.3,MacIntel,60.06006006,,,,,,,,,,,,,,,,,,,,,,,,,,,,,,,,,,,,,,,,,,,,,,,380.5515,left,0.1192,,1,0.3,"[1,2,3]",0.074820311,stimuli/card_0_transparent.png,510,0,14,0,14,0,1,,,,,
,,,,,2023-10-04_12h11.58.334,slotMachine_updated,2023.1.3,MacIntel,60.06006006,,,,,,,,,,,,,,,,,,,,,,,,,,381.9832,,,,,,,,,,,,,,,,,,,,,,,,,,,,,,,,,,,,,5,0,5,0,1
,,,,,2023-10-04_12h11.58.334,slotMachine_updated,2023.1.3,MacIntel,60.06006006,,,,,,,,,,,,,,,,,,,,,,,,,,,,,,,,,,,,,,,,,,,,,"[10,15]","[[3,1,2],[1,3,2]]",387.0065,left,0.4164,,1.5,0.3,"[3,1,2]",0.931201111,stimuli/card_0_transparent.png,0,0,0,0,0,0,1,,,,,
,,,,,2023-10-04_12h11.58.334,slotMachine_updated,2023.1.3,MacIntel,60.06006006,,,,,,,,,,,,,,,,,,,,,,,,,,,,,,,,,,,,,,,,,,,,,,,389.2369,up,0.4466,,1,0.3,"[3,1,2]",0.173727918,stimuli/card_10_transparent.png,10,10,1,0,1,0,1,,,,,
,,,,,2023-10-04_12h11.58.334,slotMachine_updated,2023.1.3,MacIntel,60.06006006,,,,,,,,,,,,,,,,,,,,,,,,,,,,,,,,,,,,,,,,,,,,,,,391.0011,right,0.3653,,1,0.3,"[3,1,2]",0.527385614,stimuli/card_10_transparent.png,20,10,2,0,2,0,1,,,,,
,,,,,2023-10-04_12h11.58.334,slotMachine_updated,2023.1.3,MacIntel,60.06006006,,,,,,,,,,,,,,,,,,,,,,,,,,,,,,,,,,,,,,,,,,,,,,,392.6824,up,0.2995,,1,0.3,"[3,1,2]",0.258327873,stimuli/card_100_transparent.png,120,100,3,0,3,0,1,,,,,
,,,,,2023-10-04_12h11.58.334,slotMachine_updated,2023.1.3,MacIntel,60.06006006,,,,,,,,,,,,,,,,,,,,,,,,,,,,,,,,,,,,,,,,,,,,,,,394.2975,up,0.1748,,0.5,0.3,"[3,1,2]",0.782869173,stimuli/card_100_transparent.png,220,100,4,0,4,0,1,,,,,
,,,,,2023-10-04_12h11.58.334,slotMachine_updated,2023.1.3,MacIntel,60.06006006,,,,,,,,,,,,,,,,,,,,,,,,,,,,,,,,,,,,,,,,,,,,,,,395.2985,up,0.3319,,1,0.3,"[3,1,2]",0.683468347,stimuli/card_100_transparent.png,320,100,5,0,5,0,1,,,,,
,,,,,2023-10-04_12h11.58.334,slotMachine_updated,2023.1.3,MacIntel,60.06006006,,,,,,,,,,,,,,,,,,,,,,,,,,,,,,,,,,,,,,,,,,,,,,,396.9384,up,0.2792,,1.5,0.3,"[3,1,2]",0.966364566,stimuli/card_100_transparent.png,420,100,6,0,6,0,1,,,,,
,,,,,2023-10-04_12h11.58.334,slotMachine_updated,2023.1.3,MacIntel,60.06006006,,,,,,,,,,,,,,,,,,,,,,,,,,,,,,,,,,,,,,,,,,,,,,,399.0378,up,0.2674,,1,0.3,"[3,1,2]",0.0135865,stimuli/card_0_transparent.png,420,0,7,0,7,0,1,,,,,
,,,,,2023-10-04_12h11.58.334,slotMachine_updated,2023.1.3,MacIntel,60.06006006,,,,,,,,,,,,,,,,,,,,,,,,,,,,,,,,,,,,,,,,,,,,,,,400.6185,left,0.5097,,1.5,0.3,"[3,1,2]",0.526148483,stimuli/card_0_transparent.png,420,0,8,0,8,0,1,,,,,
,,,,,2023-10-04_12h11.58.334,slotMachine_updated,2023.1.3,MacIntel,60.06006006,,,,,,,,,,,,,,,,,,,,,,,,,,,,,,,,,,,,,,,,,,,,,,,402.949,right,0.1823,,0.5,0.3,"[3,1,2]",0.840331593,stimuli/card_10_transparent.png,430,10,9,0,9,0,1,,,,,
,,,,,2023-10-04_12h11.58.334,slotMachine_updated,2023.1.3,MacIntel,60.06006006,,,,,,,,,,,,,,,,,,,,,,,,,,,,,,,,,,,,,,,,,,,,,,,403.9473,up,0.2241,,1,0.3,"[1,3,2]",0.782291382,stimuli/card_0_transparent.png,430,0,10,0,10,0,1,,,,,
,,,,,2023-10-04_12h11.58.334,slotMachine_updated,2023.1.3,MacIntel,60.06006006,,,,,,,,,,,,,,,,,,,,,,,,,,,,,,,,,,,,,,,,,,,,,,,405.4978,right,0.1645,,0.5,0.3,"[1,3,2]",0.71611538,stimuli/card_10_transparent.png,440,10,11,0,11,0,1,,,,,
,,,,,2023-10-04_12h11.58.334,slotMachine_updated,2023.1.3,MacIntel,60.06006006,,,,,,,,,,,,,,,,,,,,,,,,,,,,,,,,,,,,,,,,,,,,,,,406.4802,right,0.252,,0.5,0.3,"[1,3,2]",0.269490584,stimuli/card_10_transparent.png,450,10,12,0,12,0,1,,,,,
,,,,,2023-10-04_12h11.58.334,slotMachine_updated,2023.1.3,MacIntel,60.06006006,,,,,,,,,,,,,,,,,,,,,,,,,,,,,,,,,,,,,,,,,,,,,,,407.5538,right,0.2162,,1,0.3,"[1,3,2]",0.836051953,stimuli/card_10_transparent.png,460,10,13,0,13,0,1,,,,,
,,,,,2023-10-04_12h11.58.334,slotMachine_updated,2023.1.3,MacIntel,60.06006006,,,,,,,,,,,,,,,,,,,,,,,,,,,,,,,,,,,,,,,,,,,,,,,409.0869,left,0.0139,,1.5,0.3,"[1,3,2]",0.525844446,stimuli/card_100_transparent.png,560,100,14,0,14,0,1,,,,,
,,,,,2023-10-04_12h11.58.334,slotMachine_updated,2023.1.3,MacIntel,60.06006006,,,,,,,,,,,,,,,,,,,,,,,,,,410.9171,,,,,,,,,,,,,,,,,,,,,,,,,,,,,,,,,,,,,6,0,6,0,1
,,,,,2023-10-04_12h11.58.334,slotMachine_updated,2023.1.3,MacIntel,60.06006006,,,,,,,,,,,,,,,,,,,,,,,,,,,,,,,,,,,,,,,,,,,,,"[9,15]","[[1,3,2],[2,3,1]]",415.9297,left,0.4515,,1.5,0.3,"[1,3,2]",0.59963749,stimuli/card_100_transparent.png,100,100,0,0,0,0,1,,,,,
,,,,,2023-10-04_12h11.58.334,slotMachine_updated,2023.1.3,MacIntel,60.06006006,,,,,,,,,,,,,,,,,,,,,,,,,,,,,,,,,,,,,,,,,,,,,,,418.1878,up,0.0323,,1.5,0.3,"[1,3,2]",0.291454336,stimuli/card_0_transparent.png,100,0,1,0,1,0,1,,,,,
,,,,,2023-10-04_12h11.58.334,slotMachine_updated,2023.1.3,MacIntel,60.06006006,,,,,,,,,,,,,,,,,,,,,,,,,,,,,,,,,,,,,,,,,,,,,,,420.0354,left,0.0511,,1,0.3,"[1,3,2]",0.369940712,stimuli/card_100_transparent.png,200,100,2,0,2,0,1,,,,,
,,,,,2023-10-04_12h11.58.334,slotMachine_updated,2023.1.3,MacIntel,60.06006006,,,,,,,,,,,,,,,,,,,,,,,,,,,,,,,,,,,,,,,,,,,,,,,421.4007,left,0.0607,,0.5,0.3,"[1,3,2]",0.250797054,stimuli/card_100_transparent.png,300,100,3,0,3,0,1,,,,,
,,,,,2023-10-04_12h11.58.334,slotMachine_updated,2023.1.3,MacIntel,60.06006006,,,,,,,,,,,,,,,,,,,,,,,,,,,,,,,,,,,,,,,,,,,,,,,422.2845,left,0.1133,,1.5,0.3,"[1,3,2]",0.913549951,stimuli/card_100_transparent.png,400,100,4,0,4,0,1,,,,,
,,,,,2023-10-04_12h11.58.334,slotMachine_updated,2023.1.3,MacIntel,60.06006006,,,,,,,,,,,,,,,,,,,,,,,,,,,,,,,,,,,,,,,,,,,,,,,424.2133,left,0.0013,,1,0.3,"[1,3,2]",0.472368596,stimuli/card_100_transparent.png,500,100,5,0,5,0,1,,,,,
,,,,,2023-10-04_12h11.58.334,slotMachine_updated,2023.1.3,MacIntel,60.06006006,,,,,,,,,,,,,,,,,,,,,,,,,,,,,,,,,,,,,,,,,,,,,,,425.5302,left,0.0498,,1,0.3,"[1,3,2]",0.296003022,stimuli/card_100_transparent.png,600,100,6,0,6,0,1,,,,,
,,,,,2023-10-04_12h11.58.334,slotMachine_updated,2023.1.3,MacIntel,60.06006006,,,,,,,,,,,,,,,,,,,,,,,,,,,,,,,,,,,,,,,,,,,,,,,426.8879,left,0.2631,,0.5,0.3,"[1,3,2]",0.423335444,stimuli/card_100_transparent.png,700,100,7,0,7,0,1,,,,,
,,,,,2023-10-04_12h11.58.334,slotMachine_updated,2023.1.3,MacIntel,60.06006006,,,,,,,,,,,,,,,,,,,,,,,,,,,,,,,,,,,,,,,,,,,,,,,427.9706,left,0.0679,,1.5,0.3,"[1,3,2]",0.44753741,stimuli/card_100_transparent.png,800,100,8,0,8,0,1,,,,,
,,,,,2023-10-04_12h11.58.334,slotMachine_updated,2023.1.3,MacIntel,60.06006006,,,,,,,,,,,,,,,,,,,,,,,,,,,,,,,,,,,,,,,,,,,,,,,429.8535,left,0.1628,,1.5,0.3,"[2,3,1]",0.295209992,stimuli/card_10_transparent.png,810,10,9,0,9,0,1,,,,,
,,,,,2023-10-04_12h11.58.334,slotMachine_updated,2023.1.3,MacIntel,60.06006006,,,,,,,,,,,,,,,,,,,,,,,,,,,,,,,,,,,,,,,,,,,,,,,431.8342,left,0.0945,,1.5,0.3,"[2,3,1]",0.524498278,stimuli/card_10_transparent.png,820,10,10,0,10,0,1,,,,,
,,,,,2023-10-04_12h11.58.334,slotMachine_updated,2023.1.3,MacIntel,60.06006006,,,,,,,,,,,,,,,,,,,,,,,,,,,,,,,,,,,,,,,,,,,,,,,433.7504,up,0.001,,0.5,0.3,"[2,3,1]",0.128538918,stimuli/card_10_transparent.png,830,10,11,0,11,0,1,,,,,
,,,,,2023-10-04_12h11.58.334,slotMachine_updated,2023.1.3,MacIntel,60.06006006,,,,,,,,,,,,,,,,,,,,,,,,,,,,,,,,,,,,,,,,,,,,,,,434.5652,right,0.0863,,1.5,0.3,"[2,3,1]",0.831149144,stimuli/card_100_transparent.png,930,100,12,0,12,0,1,,,,,
,,,,,2023-10-04_12h11.58.334,slotMachine_updated,2023.1.3,MacIntel,60.06006006,,,,,,,,,,,,,,,,,,,,,,,,,,,,,,,,,,,,,,,,,,,,,,,436.4629,right,0.2281,,0.5,0.3,"[2,3,1]",0.149626961,stimuli/card_10_transparent.png,940,10,13,0,13,0,1,,,,,
,,,,,2023-10-04_12h11.58.334,slotMachine_updated,2023.1.3,MacIntel,60.06006006,,,,,,,,,,,,,,,,,,,,,,,,,,,,,,,,,,,,,,,,,,,,,,,437.5043,right,0.1363,,1.5,0.3,"[2,3,1]",0.906400568,stimuli/card_100_transparent.png,1040,100,14,0,14,0,1,,,,,
,,,,,2023-10-04_12h11.58.334,slotMachine_updated,2023.1.3,MacIntel,60.06006006,,,,,,,,,,,,,,,,,,,,,,,,,,439.4529,,,,,,,,,,,,,,,,,,,,,,,,,,,,,,,,,,,,,7,0,7,0,1
,,,,,2023-10-04_12h11.58.334,slotMachine_updated,2023.1.3,MacIntel,60.06006006,,,,,,,,,,,,,,,,,,,,,,,,,,,,,,,,,,,,,,,,,,,,,[15],"[[3,1,2]]",444.4664,right,0.5415,,0.5,0.3,"[3,1,2]",0.63182047,stimuli/card_10_transparent.png,10,10,0,0,0,0,1,,,,,
,,,,,2023-10-04_12h11.58.334,slotMachine_updated,2023.1.3,MacIntel,60.06006006,,,,,,,,,,,,,,,,,,,,,,,,,,,,,,,,,,,,,,,,,,,,,,,445.8294,up,0.5688,,1,0.3,"[3,1,2]",0.238547921,stimuli/card_100_transparent.png,110,100,1,0,1,0,1,,,,,
,,,,,2023-10-04_12h11.58.334,slotMachine_updated,2023.1.3,MacIntel,60.06006006,,,,,,,,,,,,,,,,,,,,,,,,,,,,,,,,,,,,,,,,,,,,,,,447.7046,up,0.297,,0.5,0.3,"[3,1,2]",0.585149751,stimuli/card_100_transparent.png,210,100,2,0,2,0,1,,,,,
,,,,,2023-10-04_12h11.58.334,slotMachine_updated,2023.1.3,MacIntel,60.06006006,,,,,,,,,,,,,,,,,,,,,,,,,,,,,,,,,,,,,,,,,,,,,,,448.8189,up,0.1329,,0.5,0.3,"[3,1,2]",0.194585868,stimuli/card_10_transparent.png,220,10,3,0,3,0,1,,,,,
,,,,,2023-10-04_12h11.58.334,slotMachine_updated,2023.1.3,MacIntel,60.06006006,,,,,,,,,,,,,,,,,,,,,,,,,,,,,,,,,,,,,,,,,,,,,,,449.7709,up,0.1419,,1.5,0.3,"[3,1,2]",0.070462919,stimuli/card_0_transparent.png,220,0,4,0,4,0,1,,,,,
,,,,,2023-10-04_12h11.58.334,slotMachine_updated,2023.1.3,MacIntel,60.06006006,,,,,,,,,,,,,,,,,,,,,,,,,,,,,,,,,,,,,,,,,,,,,,,451.7341,left,0.237,,0.5,0.3,"[3,1,2]",0.737019365,stimuli/card_0_transparent.png,220,0,5,0,5,0,1,,,,,
,,,,,2023-10-04_12h11.58.334,slotMachine_updated,2023.1.3,MacIntel,60.06006006,,,,,,,,,,,,,,,,,,,,,,,,,,,,,,,,,,,,,,,,,,,,,,,452.7819,right,0.4637,,0.5,0.3,"[3,1,2]",0.745370654,stimuli/card_10_transparent.png,230,10,6,0,6,0,1,,,,,
,,,,,2023-10-04_12h11.58.334,slotMachine_updated,2023.1.3,MacIntel,60.06006006,,,,,,,,,,,,,,,,,,,,,,,,,,,,,,,,,,,,,,,,,,,,,,,454.0668,up,0.3975,,1,0.3,"[3,1,2]",0.928583739,stimuli/card_100_transparent.png,330,100,7,0,7,0,1,,,,,
,,,,,2023-10-04_12h11.58.334,slotMachine_updated,2023.1.3,MacIntel,60.06006006,,,,,,,,,,,,,,,,,,,,,,,,,,,,,,,,,,,,,,,,,,,,,,,455.7798,up,0.1664,,0.5,0.3,"[3,1,2]",0.175473996,stimuli/card_10_transparent.png,340,10,8,0,8,0,1,,,,,
,,,,,2023-10-04_12h11.58.334,slotMachine_updated,2023.1.3,MacIntel,60.06006006,,,,,,,,,,,,,,,,,,,,,,,,,,,,,,,,,,,,,,,,,,,,,,,456.7629,up,0.0009,,0.5,0.3,"[3,1,2]",0.186070791,stimuli/card_10_transparent.png,350,10,9,0,9,0,1,,,,,
,,,,,2023-10-04_12h11.58.334,slotMachine_updated,2023.1.3,MacIntel,60.06006006,,,,,,,,,,,,,,,,,,,,,,,,,,,,,,,,,,,,,,,,,,,,,,,457.5722,up,0.0792,,1.5,0.3,"[3,1,2]",0.475335704,stimuli/card_100_transparent.png,450,100,10,0,10,0,1,,,,,
,,,,,2023-10-04_12h11.58.334,slotMachine_updated,2023.1.3,MacIntel,60.06006006,,,,,,,,,,,,,,,,,,,,,,,,,,,,,,,,,,,,,,,,,,,,,,,459.4693,up,0.0313,,1.5,0.3,"[3,1,2]",0.772648971,stimuli/card_100_transparent.png,550,100,11,0,11,0,1,,,,,
,,,,,2023-10-04_12h11.58.334,slotMachine_updated,2023.1.3,MacIntel,60.06006006,,,,,,,,,,,,,,,,,,,,,,,,,,,,,,,,,,,,,,,,,,,,,,,461.3177,up,0.1273,,0.5,0.3,"[3,1,2]",0.59813455,stimuli/card_100_transparent.png,650,100,12,0,12,0,1,,,,,
,,,,,2023-10-04_12h11.58.334,slotMachine_updated,2023.1.3,MacIntel,60.06006006,,,,,,,,,,,,,,,,,,,,,,,,,,,,,,,,,,,,,,,,,,,,,,,462.2675,up,0.1512,,1.5,0.3,"[3,1,2]",0.477532994,stimuli/card_100_transparent.png,750,100,13,0,13,0,1,,,,,
,,,,,2023-10-04_12h11.58.334,slotMachine_updated,2023.1.3,MacIntel,60.06006006,,,,,,,,,,,,,,,,,,,,,,,,,,,,,,,,,,,,,,,,,,,,,,,464.2318,up,0.3071,,1,0.3,"[3,1,2]",0.368542824,stimuli/card_100_transparent.png,850,100,14,0,14,0,1,,,,,
,,,,,2023-10-04_12h11.58.334,slotMachine_updated,2023.1.3,MacIntel,60.06006006,,,,,,,,,,,,,,,,,,,,,,,,,,465.8622,,,,,,,,,,,,,,,,,,,,,,,,,,,,,,,,,,,,,8,0,8,0,1
,,,,,2023-10-04_12h11.58.334,slotMachine_updated,2023.1.3,MacIntel,60.06006006,,,,,,,,,,,,,,,,,,,,,,,,,,,,,,,,,,,,,,,,,,,,,"[4,10,15]","[[2,3,1],[1,3,2],[3,2,1]]",470.8712,up,0.464,,1.5,0.3,"[2,3,1]",0.024952364,stimuli/card_100_transparent.png,100,100,0,0,0,0,1,,,,,
,,,,,2023-10-04_12h11.58.334,slotMachine_updated,2023.1.3,MacIntel,60.06006006,,,,,,,,,,,,,,,,,,,,,,,,,,,,,,,,,,,,,,,,,,,,,,,473.1445,up,0.2115,,0.5,0.3,"[2,3,1]",0.309710663,stimuli/card_0_transparent.png,100,0,1,0,1,0,1,,,,,
,,,,,2023-10-04_12h11.58.334,slotMachine_updated,2023.1.3,MacIntel,60.06006006,,,,,,,,,,,,,,,,,,,,,,,,,,,,,,,,,,,,,,,,,,,,,,,474.182,up,0.445,,1,0.3,"[2,3,1]",0.744473889,stimuli/card_0_transparent.png,100,0,2,0,2,0,1,,,,,
,,,,,2023-10-04_12h11.58.334,slotMachine_updated,2023.1.3,MacIntel,60.06006006,,,,,,,,,,,,,,,,,,,,,,,,,,,,,,,,,,,,,,,,,,,,,,,475.9476,up,0.0852,,0.5,0.3,"[2,3,1]",0.228975151,stimuli/card_0_transparent.png,100,0,3,0,3,0,1,,,,,
,,,,,2023-10-04_12h11.58.334,slotMachine_updated,2023.1.3,MacIntel,60.06006006,,,,,,,,,,,,,,,,,,,,,,,,,,,,,,,,,,,,,,,,,,,,,,,476.8452,left,0.0767,,1,0.3,"[1,3,2]",0.956053298,stimuli/card_100_transparent.png,200,100,4,0,4,0,1,,,,,
,,,,,2023-10-04_12h11.58.334,slotMachine_updated,2023.1.3,MacIntel,60.06006006,,,,,,,,,,,,,,,,,,,,,,,,,,,,,,,,,,,,,,,,,,,,,,,478.238,left,0.208,,0.5,0.3,"[1,3,2]",0.539225141,stimuli/card_100_transparent.png,300,100,5,0,5,0,1,,,,,
,,,,,2023-10-04_12h11.58.334,slotMachine_updated,2023.1.3,MacIntel,60.06006006,,,,,,,,,,,,,,,,,,,,,,,,,,,,,,,,,,,,,,,,,,,,,,,479.2685,left,0.2893,,0.5,0.3,"[1,3,2]",0.118456797,stimuli/card_10_transparent.png,310,10,6,0,6,0,1,,,,,
,,,,,2023-10-04_12h11.58.334,slotMachine_updated,2023.1.3,MacIntel,60.06006006,,,,,,,,,,,,,,,,,,,,,,,,,,,,,,,,,,,,,,,,,,,,,,,480.369,left,0.0932,,1.5,0.3,"[1,3,2]",0.882034555,stimuli/card_100_transparent.png,410,100,7,0,7,0,1,,,,,
,,,,,2023-10-04_12h11.58.334,slotMachine_updated,2023.1.3,MacIntel,60.06006006,,,,,,,,,,,,,,,,,,,,,,,,,,,,,,,,,,,,,,,,,,,,,,,482.2843,right,0.097,,1.5,0.3,"[1,3,2]",0.087473423,stimuli/card_0_transparent.png,410,0,8,0,8,0,1,,,,,
,,,,,2023-10-04_12h11.58.334,slotMachine_updated,2023.1.3,MacIntel,60.06006006,,,,,,,,,,,,,,,,,,,,,,,,,,,,,,,,,,,,,,,,,,,,,,,484.1986,left,0.9569,,1.5,0.3,"[1,3,2]",0.228546479,stimuli/card_100_transparent.png,510,100,9,0,9,0,1,,,,,
,,,,,2023-10-04_12h11.58.334,slotMachine_updated,2023.1.3,MacIntel,60.06006006,,,,,,,,,,,,,,,,,,,,,,,,,,,,,,,,,,,,,,,,,,,,,,,486.9716,left,0.163,,1.5,0.3,"[3,2,1]",0.295484496,stimuli/card_0_transparent.png,510,0,10,0,10,0,1,,,,,
,,,,,2023-10-04_12h11.58.334,slotMachine_updated,2023.1.3,MacIntel,60.06006006,,,,,,,,,,,,,,,,,,,,,,,,,,,,,,,,,,,,,,,,,,,,,,,488.9549,left,0.0161,,0.5,0.3,"[3,2,1]",0.052084357,stimuli/card_100_transparent.png,610,100,11,0,11,0,1,,,,,
,,,,,2023-10-04_12h11.58.334,slotMachine_updated,2023.1.3,MacIntel,60.06006006,,,,,,,,,,,,,,,,,,,,,,,,,,,,,,,,,,,,,,,,,,,,,,,489.7865,left,0.4815,,1,0.3,"[3,2,1]",0.443210959,stimuli/card_0_transparent.png,610,0,12,0,12,0,1,,,,,
,,,,,2023-10-04_12h11.58.334,slotMachine_updated,2023.1.3,MacIntel,60.06006006,,,,,,,,,,,,,,,,,,,,,,,,,,,,,,,,,,,,,,,,,,,,,,,491.5844,left,0.0334,,0.5,0.3,"[3,2,1]",0.755013052,stimuli/card_0_transparent.png,610,0,13,0,13,0,1,,,,,
,,,,,2023-10-04_12h11.58.334,slotMachine_updated,2023.1.3,MacIntel,60.06006006,,,,,,,,,,,,,,,,,,,,,,,,,,,,,,,,,,,,,,,,,,,,,,,492.4343,right,0.0274,,0.5,0.3,"[3,2,1]",0.73728994,stimuli/card_100_transparent.png,710,100,14,0,14,0,1,,,,,
,,,,,2023-10-04_12h11.58.334,slotMachine_updated,2023.1.3,MacIntel,60.06006006,,,,,,,,,,,,,,,,,,,,,,,,,,493.2819,,,,,,,,,,,,,,,,,,,,,,,,,,,,,,,,,,,,,9,0,9,0,1
,,,,,2023-10-04_12h11.58.334,slotMachine_updated,2023.1.3,MacIntel,60.06006006,,,,,,,,,,,,,,,,,,,,,,,,,,,,,,,,,,,,,,,,,,,,,,,,,,,,,,,,,,,,,,,,,,,
