key_resp_welcome_started,key_resp_welcome_keys,key_resp_welcome_rt,key_resp_welcome_duration,prolific_id,path_id,date,expName,psychopyVersion,OS,frameRate,key_resp_instruction1_started,key_resp_instruction1_keys,key_resp_instruction1_rt,key_resp_instruction1_duration,key_resp_instruction2_started,key_resp_instruction2_keys,key_resp_instruction2_rt,key_resp_instruction2_duration,key_resp_instruction3_started,key_resp_instruction3_keys,key_resp_instruction3_rt,key_resp_instruction3_duration,key_resp_instruction4_started,key_resp_instruction4_keys,key_resp_instruction4_rt,key_resp_instruction4_duration,practiceCondition,practice_reward_seqs,practice_trial_started,practice_trial_num,practice_resp_rt,practice_resp_duration,practice_resp_keys,prac_presentationInterval,"practice_reward_seq: 2,1,3",reward_img,cumulative_reward,trial_reward,practice_trials.thisRepN,practice_trials.thisTrialN,practice_trials.thisN,practice_trials.thisIndex,practice_trials.ran,"practice_reward_seq: 2,3,1",block_break_started,"practice_reward_seq: 1,3,2","practice_reward_seq: 3,1,2",practice_end_time,practice_end_keys,practice_end_rt,practice_end_duration,main_instruction_text_started,block_condition,block_order_indices,main_instruction_keys,main_instruction_rt,main_instruction_duration,block_number,block_assignment,current_condition,main_reward_seqs,main_trial_started,main_trial_num,main_trial_keys,main_trial_rt,main_trial_duration,main_presentationInterval,reward_presentation_time,main_reward_seq,reward_rand_val,main_reward_img,current_reward,main_trials.thisRepN,main_trials.thisTrialN,main_trials.thisN,main_trials.thisIndex,main_trials.ran,block_reward,block.thisRepN,block.thisTrialN,block.thisN,block.thisIndex,block.ran,block_reward.length,block_reward_all,reward_amount,date_end_task
0.0011,space,0.9491,,60fe5c33f291d6b48032ba98,A,2024-05-24_13h07.39.313,Slot Machine Game,2023.1.3,MacIntel,62.11180124,,,,,,,,,,,,,,,,,,,,,,,,,,,,,,,,,,,,,,,,,,,,,,,,,,,,,,,,,,,,,,,,,,,,,,,,,,,,,
,,,,60fe5c33f291d6b48032ba98,A,2024-05-24_13h07.39.313,Slot Machine Game,2023.1.3,MacIntel,62.11180124,0.9714,space,8.5344,,,,,,,,,,,,,,,,,,,,,,,,,,,,,,,,,,,,,,,,,,,,,,,,,,,,,,,,,,,,,,,,,,,,,,,,,,
,,,,60fe5c33f291d6b48032ba98,A,2024-05-24_13h07.39.313,Slot Machine Game,2023.1.3,MacIntel,62.11180124,,,,,9.5392,space,20.7172,,,,,,,,,,,,,,,,,,,,,,,,,,,,,,,,,,,,,,,,,,,,,,,,,,,,,,,,,,,,,,,,,,,,,,
,,,,60fe5c33f291d6b48032ba98,A,2024-05-24_13h07.39.313,Slot Machine Game,2023.1.3,MacIntel,62.11180124,,,,,,,,,30.3051,space,10.8835,,,,,,,,,,,,,,,,,,,,,,,,,,,,,,,,,,,,,,,,,,,,,,,,,,,,,,,,,,,,,,,,,,
,,,,60fe5c33f291d6b48032ba98,A,2024-05-24_13h07.39.313,Slot Machine Game,2023.1.3,MacIntel,62.11180124,,,,,,,,,,,,,,,,,,,,,,,,,,,,,,,,,,,,,,,,,,,,,,,,,,,,,,,,,,,,,,,,,,,,,,,,,,,,,
,,,,60fe5c33f291d6b48032ba98,A,2024-05-24_13h07.39.313,Slot Machine Game,2023.1.3,MacIntel,62.11180124,,,,,,,,,,,,,183.0135,space,1.789,,,,,,,,,,,,,,,,,,,,,,,,,,,,,,,,,,,,,,,,,,,,,,,,,,,,,,,,,,,,,,
,,,,60fe5c33f291d6b48032ba98,A,2024-05-24_13h07.39.313,Slot Machine Game,2023.1.3,MacIntel,62.11180124,,,,,,,,,,,,,,,,,"[9,15]","[[2,1,3],[2,3,1]]",184.8239,0,0.738,,left,1,,stimuli/card_10_transparent.png,10,10,0,0,0,0,1,,,,,,,,,,,,,,,,,,,,,,,,,,,,,,,,,,,,,,,,,,,,
,,,,60fe5c33f291d6b48032ba98,A,2024-05-24_13h07.39.313,Slot Machine Game,2023.1.3,MacIntel,62.11180124,,,,,,,,,,,,,,,,,,,187.3873,1,0.6175,,left,0.5,,stimuli/card_10_transparent.png,20,10,1,0,1,0,1,,,,,,,,,,,,,,,,,,,,,,,,,,,,,,,,,,,,,,,,,,,,
,,,,60fe5c33f291d6b48032ba98,A,2024-05-24_13h07.39.313,Slot Machine Game,2023.1.3,MacIntel,62.11180124,,,,,,,,,,,,,,,,,,,189.3361,2,0.2348,,up,0.5,,stimuli/card_100_transparent.png,120,100,2,0,2,0,1,,,,,,,,,,,,,,,,,,,,,,,,,,,,,,,,,,,,,,,,,,,,
,,,,60fe5c33f291d6b48032ba98,A,2024-05-24_13h07.39.313,Slot Machine Game,2023.1.3,MacIntel,62.11180124,,,,,,,,,,,,,,,,,,,190.9019,3,0.1891,,up,0.5,,stimuli/card_100_transparent.png,220,100,3,0,3,0,1,,,,,,,,,,,,,,,,,,,,,,,,,,,,,,,,,,,,,,,,,,,,
,,,,60fe5c33f291d6b48032ba98,A,2024-05-24_13h07.39.313,Slot Machine Game,2023.1.3,MacIntel,62.11180124,,,,,,,,,,,,,,,,,,,192.4201,4,0.0177,,up,1.5,,stimuli/card_100_transparent.png,320,100,4,0,4,0,1,,,,,,,,,,,,,,,,,,,,,,,,,,,,,,,,,,,,,,,,,,,,
,,,,60fe5c33f291d6b48032ba98,A,2024-05-24_13h07.39.313,Slot Machine Game,2023.1.3,MacIntel,62.11180124,,,,,,,,,,,,,,,,,,,194.7695,5,0.0038,,up,0.5,,stimuli/card_100_transparent.png,420,100,5,0,5,0,1,,,,,,,,,,,,,,,,,,,,,,,,,,,,,,,,,,,,,,,,,,,,
,,,,60fe5c33f291d6b48032ba98,A,2024-05-24_13h07.39.313,Slot Machine Game,2023.1.3,MacIntel,62.11180124,,,,,,,,,,,,,,,,,,,196.1018,6,1.0513,,up,0.5,,stimuli/card_100_transparent.png,520,100,6,0,6,0,1,,,,,,,,,,,,,,,,,,,,,,,,,,,,,,,,,,,,,,,,,,,,
,,,,60fe5c33f291d6b48032ba98,A,2024-05-24_13h07.39.313,Slot Machine Game,2023.1.3,MacIntel,62.11180124,,,,,,,,,,,,,,,,,,,198.4854,7,0.157,,up,1.5,,stimuli/card_100_transparent.png,620,100,7,0,7,0,1,,,,,,,,,,,,,,,,,,,,,,,,,,,,,,,,,,,,,,,,,,,,
,,,,60fe5c33f291d6b48032ba98,A,2024-05-24_13h07.39.313,Slot Machine Game,2023.1.3,MacIntel,62.11180124,,,,,,,,,,,,,,,,,,,200.9519,8,0.7012,,up,1,,stimuli/card_0_transparent.png,620,0,8,0,8,0,1,,,,,,,,,,,,,,,,,,,,,,,,,,,,,,,,,,,,,,,,,,,,
,,,,60fe5c33f291d6b48032ba98,A,2024-05-24_13h07.39.313,Slot Machine Game,2023.1.3,MacIntel,62.11180124,,,,,,,,,,,,,,,,,,,203.4692,9,0.3704,,left,1,,stimuli/card_100_transparent.png,720,100,9,0,9,0,1,,,,,,,,,,,,,,,,,,,,,,,,,,,,,,,,,,,,,,,,,,,,
,,,,60fe5c33f291d6b48032ba98,A,2024-05-24_13h07.39.313,Slot Machine Game,2023.1.3,MacIntel,62.11180124,,,,,,,,,,,,,,,,,,,205.6686,10,0.1536,,left,0.5,,stimuli/card_10_transparent.png,730,10,10,0,10,0,1,,,,,,,,,,,,,,,,,,,,,,,,,,,,,,,,,,,,,,,,,,,,
,,,,60fe5c33f291d6b48032ba98,A,2024-05-24_13h07.39.313,Slot Machine Game,2023.1.3,MacIntel,62.11180124,,,,,,,,,,,,,,,,,,,207.1358,11,0.0075,,right,1,,stimuli/card_100_transparent.png,830,100,11,0,11,0,1,,,,,,,,,,,,,,,,,,,,,,,,,,,,,,,,,,,,,,,,,,,,
,,,,60fe5c33f291d6b48032ba98,A,2024-05-24_13h07.39.313,Slot Machine Game,2023.1.3,MacIntel,62.11180124,,,,,,,,,,,,,,,,,,,208.9691,12,0.0578,,right,1,,stimuli/card_100_transparent.png,930,100,12,0,12,0,1,,,,,,,,,,,,,,,,,,,,,,,,,,,,,,,,,,,,,,,,,,,,
,,,,60fe5c33f291d6b48032ba98,A,2024-05-24_13h07.39.313,Slot Machine Game,2023.1.3,MacIntel,62.11180124,,,,,,,,,,,,,,,,,,,210.852,13,0.0013,,right,1.5,,stimuli/card_100_transparent.png,1030,100,13,0,13,0,1,,,,,,,,,,,,,,,,,,,,,,,,,,,,,,,,,,,,,,,,,,,,
,,,,60fe5c33f291d6b48032ba98,A,2024-05-24_13h07.39.313,Slot Machine Game,2023.1.3,MacIntel,62.11180124,,,,,,,,,,,,,,,,,,,213.1857,14,0.6531,,right,1.5,,stimuli/card_100_transparent.png,1130,100,14,0,14,0,1,,,,,,,,,,,,,,,,,,,,,,,,,,,,,,,,,,,,,,,,,,,,
,,,,60fe5c33f291d6b48032ba98,A,2024-05-24_13h07.39.313,Slot Machine Game,2023.1.3,MacIntel,62.11180124,,,,,,,,,,,,,,,,,"[6,15]","[[1,3,2],[3,1,2]]",221.2019,0,1.1073,,up,0.5,,stimuli/card_0_transparent.png,0,0,0,0,0,0,1,,216.1848,,,,,,,,,,,,,,,,,,,,,,,,,,,,,,,,,,,,,,,,,,
,,,,60fe5c33f291d6b48032ba98,A,2024-05-24_13h07.39.313,Slot Machine Game,2023.1.3,MacIntel,62.11180124,,,,,,,,,,,,,,,,,,,223.6356,1,0.2858,,left,0.5,,stimuli/card_100_transparent.png,100,100,1,0,1,0,1,,,,,,,,,,,,,,,,,,,,,,,,,,,,,,,,,,,,,,,,,,,,
,,,,60fe5c33f291d6b48032ba98,A,2024-05-24_13h07.39.313,Slot Machine Game,2023.1.3,MacIntel,62.11180124,,,,,,,,,,,,,,,,,,,225.252,2,0.241,,left,1,,stimuli/card_100_transparent.png,200,100,2,0,2,0,1,,,,,,,,,,,,,,,,,,,,,,,,,,,,,,,,,,,,,,,,,,,,
,,,,60fe5c33f291d6b48032ba98,A,2024-05-24_13h07.39.313,Slot Machine Game,2023.1.3,MacIntel,62.11180124,,,,,,,,,,,,,,,,,,,227.3187,3,1.0044,,left,1,,stimuli/card_10_transparent.png,210,10,3,0,3,0,1,,,,,,,,,,,,,,,,,,,,,,,,,,,,,,,,,,,,,,,,,,,,
,,,,60fe5c33f291d6b48032ba98,A,2024-05-24_13h07.39.313,Slot Machine Game,2023.1.3,MacIntel,62.11180124,,,,,,,,,,,,,,,,,,,230.1519,4,0.2344,,left,1,,stimuli/card_100_transparent.png,310,100,4,0,4,0,1,,,,,,,,,,,,,,,,,,,,,,,,,,,,,,,,,,,,,,,,,,,,
,,,,60fe5c33f291d6b48032ba98,A,2024-05-24_13h07.39.313,Slot Machine Game,2023.1.3,MacIntel,62.11180124,,,,,,,,,,,,,,,,,,,232.2186,5,0.3401,,left,1,,stimuli/card_100_transparent.png,410,100,5,0,5,0,1,,,,,,,,,,,,,,,,,,,,,,,,,,,,,,,,,,,,,,,,,,,,
,,,,60fe5c33f291d6b48032ba98,A,2024-05-24_13h07.39.313,Slot Machine Game,2023.1.3,MacIntel,62.11180124,,,,,,,,,,,,,,,,,,,234.3854,6,0.4195,,left,0.5,,stimuli/card_0_transparent.png,410,0,6,0,6,0,1,,,,,,,,,,,,,,,,,,,,,,,,,,,,,,,,,,,,,,,,,,,,
,,,,60fe5c33f291d6b48032ba98,A,2024-05-24_13h07.39.313,Slot Machine Game,2023.1.3,MacIntel,62.11180124,,,,,,,,,,,,,,,,,,,236.1184,7,0.3703,,right,0.5,,stimuli/card_100_transparent.png,510,100,7,0,7,0,1,,,,,,,,,,,,,,,,,,,,,,,,,,,,,,,,,,,,,,,,,,,,
,,,,60fe5c33f291d6b48032ba98,A,2024-05-24_13h07.39.313,Slot Machine Game,2023.1.3,MacIntel,62.11180124,,,,,,,,,,,,,,,,,,,237.802,8,0.3511,,right,1.5,,stimuli/card_10_transparent.png,520,10,8,0,8,0,1,,,,,,,,,,,,,,,,,,,,,,,,,,,,,,,,,,,,,,,,,,,,
,,,,60fe5c33f291d6b48032ba98,A,2024-05-24_13h07.39.313,Slot Machine Game,2023.1.3,MacIntel,62.11180124,,,,,,,,,,,,,,,,,,,240.4855,9,0.1572,,right,1.5,,stimuli/card_10_transparent.png,530,10,9,0,9,0,1,,,,,,,,,,,,,,,,,,,,,,,,,,,,,,,,,,,,,,,,,,,,
,,,,60fe5c33f291d6b48032ba98,A,2024-05-24_13h07.39.313,Slot Machine Game,2023.1.3,MacIntel,62.11180124,,,,,,,,,,,,,,,,,,,242.9687,10,0.0212,,up,1,,stimuli/card_100_transparent.png,630,100,10,0,10,0,1,,,,,,,,,,,,,,,,,,,,,,,,,,,,,,,,,,,,,,,,,,,,
,,,,60fe5c33f291d6b48032ba98,A,2024-05-24_13h07.39.313,Slot Machine Game,2023.1.3,MacIntel,62.11180124,,,,,,,,,,,,,,,,,,,244.8186,11,0.2928,,up,0.5,,stimuli/card_0_transparent.png,630,0,11,0,11,0,1,,,,,,,,,,,,,,,,,,,,,,,,,,,,,,,,,,,,,,,,,,,,
,,,,60fe5c33f291d6b48032ba98,A,2024-05-24_13h07.39.313,Slot Machine Game,2023.1.3,MacIntel,62.11180124,,,,,,,,,,,,,,,,,,,246.4519,12,0.2205,,up,1.5,,stimuli/card_100_transparent.png,730,100,12,0,12,0,1,,,,,,,,,,,,,,,,,,,,,,,,,,,,,,,,,,,,,,,,,,,,
,,,,60fe5c33f291d6b48032ba98,A,2024-05-24_13h07.39.313,Slot Machine Game,2023.1.3,MacIntel,62.11180124,,,,,,,,,,,,,,,,,,,249.0019,13,0.7357,,up,1,,stimuli/card_100_transparent.png,830,100,13,0,13,0,1,,,,,,,,,,,,,,,,,,,,,,,,,,,,,,,,,,,,,,,,,,,,
,,,,60fe5c33f291d6b48032ba98,A,2024-05-24_13h07.39.313,Slot Machine Game,2023.1.3,MacIntel,62.11180124,,,,,,,,,,,,,,,,,,,251.5679,14,0.1541,,up,0.5,,stimuli/card_100_transparent.png,930,100,14,0,14,0,1,,,,,,,,,,,,,,,,,,,,,,,,,,,,,,,,,,,,,,,,,,,,
,,,,60fe5c33f291d6b48032ba98,A,2024-05-24_13h07.39.313,Slot Machine Game,2023.1.3,MacIntel,62.11180124,,,,,,,,,,,,,,,,,,,,,,,,,,,,,,,,,,,253.0348,,,258.0357,space,1.9617,,,,,,,,,,,,,,,,,,,,,,,,,,,,,,,,,,,,,
,,,,60fe5c33f291d6b48032ba98,A,2024-05-24_13h07.39.313,Slot Machine Game,2023.1.3,MacIntel,62.11180124,,,,,,,,,,,,,,,,,,,,,,,,,,,,,,,,,,,,,,,,,,260.019,3,"[0,4,6,3,5,7,8,1,9,2]",space,2.3352,,,,,,,,,,,,,,,,,,,,,,,,,,,,,,,
,,,,60fe5c33f291d6b48032ba98,A,2024-05-24_13h07.39.313,Slot Machine Game,2023.1.3,MacIntel,62.11180124,,,,,,,,,,,,,,,,,,,,,,,,,,,100,,,,,,,,,,,,,,,,,,,,,1,1,"[12,15]","[[2,1,3],[2,3,1]]",262.4021,0,up,0.3523,,0.5,0.3,"[2,1,3]",0.875586849,stimuli/card_100_transparent.png,100,0,0,0,0,1,,,,,,,,,,
,,,,60fe5c33f291d6b48032ba98,A,2024-05-24_13h07.39.313,Slot Machine Game,2023.1.3,MacIntel,62.11180124,,,,,,,,,,,,,,,,,,,,,,,,,,,200,,,,,,,,,,,,,,,,,,,,,1,1,,,264.0854,1,up,0.2046,,0.5,0.3,"[2,1,3]",0.262101425,stimuli/card_100_transparent.png,100,1,0,1,0,1,,,,,,,,,,
,,,,60fe5c33f291d6b48032ba98,A,2024-05-24_13h07.39.313,Slot Machine Game,2023.1.3,MacIntel,62.11180124,,,,,,,,,,,,,,,,,,,,,,,,,,,200,,,,,,,,,,,,,,,,,,,,,1,1,,,265.6175,2,up,0.1172,,1,0.3,"[2,1,3]",0.088834903,stimuli/card_0_transparent.png,0,2,0,2,0,1,,,,,,,,,,
,,,,60fe5c33f291d6b48032ba98,A,2024-05-24_13h07.39.313,Slot Machine Game,2023.1.3,MacIntel,62.11180124,,,,,,,,,,,,,,,,,,,,,,,,,,,300,,,,,,,,,,,,,,,,,,,,,1,1,,,267.5683,3,up,0.0256,,0.5,0.3,"[2,1,3]",0.683749502,stimuli/card_100_transparent.png,100,3,0,3,0,1,,,,,,,,,,
,,,,60fe5c33f291d6b48032ba98,A,2024-05-24_13h07.39.313,Slot Machine Game,2023.1.3,MacIntel,62.11180124,,,,,,,,,,,,,,,,,,,,,,,,,,,300,,,,,,,,,,,,,,,,,,,,,1,1,,,268.9181,4,up,0.1386,,1,0.3,"[2,1,3]",0.096771095,stimuli/card_0_transparent.png,0,4,0,4,0,1,,,,,,,,,,
,,,,60fe5c33f291d6b48032ba98,A,2024-05-24_13h07.39.313,Slot Machine Game,2023.1.3,MacIntel,62.11180124,,,,,,,,,,,,,,,,,,,,,,,,,,,400,,,,,,,,,,,,,,,,,,,,,1,1,,,270.8851,5,up,0.657,,1,0.3,"[2,1,3]",0.750585472,stimuli/card_100_transparent.png,100,5,0,5,0,1,,,,,,,,,,
,,,,60fe5c33f291d6b48032ba98,A,2024-05-24_13h07.39.313,Slot Machine Game,2023.1.3,MacIntel,62.11180124,,,,,,,,,,,,,,,,,,,,,,,,,,,410,,,,,,,,,,,,,,,,,,,,,1,1,,,273.3694,6,left,0.1853,,1,0.3,"[2,1,3]",0.364638685,stimuli/card_10_transparent.png,10,6,0,6,0,1,,,,,,,,,,
,,,,60fe5c33f291d6b48032ba98,A,2024-05-24_13h07.39.313,Slot Machine Game,2023.1.3,MacIntel,62.11180124,,,,,,,,,,,,,,,,,,,,,,,,,,,420,,,,,,,,,,,,,,,,,,,,,1,1,,,275.3849,7,left,0.1375,,1.5,0.3,"[2,1,3]",0.909688127,stimuli/card_10_transparent.png,10,7,0,7,0,1,,,,,,,,,,
,,,,60fe5c33f291d6b48032ba98,A,2024-05-24_13h07.39.313,Slot Machine Game,2023.1.3,MacIntel,62.11180124,,,,,,,,,,,,,,,,,,,,,,,,,,,520,,,,,,,,,,,,,,,,,,,,,1,1,,,277.8508,8,up,0.1568,,1.5,0.3,"[2,1,3]",0.462188516,stimuli/card_100_transparent.png,100,8,0,8,0,1,,,,,,,,,,
,,,,60fe5c33f291d6b48032ba98,A,2024-05-24_13h07.39.313,Slot Machine Game,2023.1.3,MacIntel,62.11180124,,,,,,,,,,,,,,,,,,,,,,,,,,,620,,,,,,,,,,,,,,,,,,,,,1,1,,,280.3182,9,up,0.1178,,1,0.3,"[2,1,3]",0.426267458,stimuli/card_100_transparent.png,100,9,0,9,0,1,,,,,,,,,,
,,,,60fe5c33f291d6b48032ba98,A,2024-05-24_13h07.39.313,Slot Machine Game,2023.1.3,MacIntel,62.11180124,,,,,,,,,,,,,,,,,,,,,,,,,,,620,,,,,,,,,,,,,,,,,,,,,1,1,,,282.2681,10,up,0.1166,,1,0.3,"[2,1,3]",0.012429586,stimuli/card_0_transparent.png,0,10,0,10,0,1,,,,,,,,,,
,,,,60fe5c33f291d6b48032ba98,A,2024-05-24_13h07.39.313,Slot Machine Game,2023.1.3,MacIntel,62.11180124,,,,,,,,,,,,,,,,,,,,,,,,,,,720,,,,,,,,,,,,,,,,,,,,,1,1,,,284.218,11,up,0.1656,,1,0.3,"[2,1,3]",0.881395966,stimuli/card_100_transparent.png,100,11,0,11,0,1,,,,,,,,,,
,,,,60fe5c33f291d6b48032ba98,A,2024-05-24_13h07.39.313,Slot Machine Game,2023.1.3,MacIntel,62.11180124,,,,,,,,,,,,,,,,,,,,,,,,,,,720,,,,,,,,,,,,,,,,,,,,,1,1,,,286.218,12,up,0.0683,,1.5,0.3,"[2,3,1]",0.406595733,stimuli/card_0_transparent.png,0,12,0,12,0,1,,,,,,,,,,
,,,,60fe5c33f291d6b48032ba98,A,2024-05-24_13h07.39.313,Slot Machine Game,2023.1.3,MacIntel,62.11180124,,,,,,,,,,,,,,,,,,,,,,,,,,,720,,,,,,,,,,,,,,,,,,,,,1,1,,,288.618,13,up,0.3341,,1,0.3,"[2,3,1]",0.564541654,stimuli/card_0_transparent.png,0,13,0,13,0,1,,,,,,,,,,
,,,,60fe5c33f291d6b48032ba98,A,2024-05-24_13h07.39.313,Slot Machine Game,2023.1.3,MacIntel,62.11180124,,,,,,,,,,,,,,,,,,,,,,,,,,,820,,,,,,,,,,,,,,,,,,,,,1,1,,,290.784,14,right,0.5514,,1.5,0.3,"[2,3,1]",0.845849949,stimuli/card_100_transparent.png,100,14,0,14,0,1,,,,,,,,,,
,,,,60fe5c33f291d6b48032ba98,A,2024-05-24_13h07.39.313,Slot Machine Game,2023.1.3,MacIntel,62.11180124,,,,,,,,,,,,,,,,,,,,,,,,,,,,,,,,,,,293.6514,,,,,,,,,,,,,,,,,,,,,,,,,,,,,,,,,[820],0,0,0,0,1,,,,
,,,,60fe5c33f291d6b48032ba98,A,2024-05-24_13h07.39.313,Slot Machine Game,2023.1.3,MacIntel,62.11180124,,,,,,,,,,,,,,,,,,,,,,,,,,,10,,,,,,,,,,,,,,,,,,,,,2,5,"[5,15]","[[1,2,3],[3,1,2]]",298.6676,0,up,1.089,,0.5,0.3,"[1,2,3]",0.38478799,stimuli/card_10_transparent.png,10,0,0,0,0,1,,,,,,,,,,
,,,,60fe5c33f291d6b48032ba98,A,2024-05-24_13h07.39.313,Slot Machine Game,2023.1.3,MacIntel,62.11180124,,,,,,,,,,,,,,,,,,,,,,,,,,,10,,,,,,,,,,,,,,,,,,,,,2,5,,,301.084,1,right,0.6339,,0.5,0.3,"[1,2,3]",0.207515533,stimuli/card_0_transparent.png,0,1,0,1,0,1,,,,,,,,,,
,,,,60fe5c33f291d6b48032ba98,A,2024-05-24_13h07.39.313,Slot Machine Game,2023.1.3,MacIntel,62.11180124,,,,,,,,,,,,,,,,,,,,,,,,,,,10,,,,,,,,,,,,,,,,,,,,,2,5,,,303.0346,2,right,0.2684,,0.5,0.3,"[1,2,3]",0.443948153,stimuli/card_0_transparent.png,0,2,0,2,0,1,,,,,,,,,,
,,,,60fe5c33f291d6b48032ba98,A,2024-05-24_13h07.39.313,Slot Machine Game,2023.1.3,MacIntel,62.11180124,,,,,,,,,,,,,,,,,,,,,,,,,,,10,,,,,,,,,,,,,,,,,,,,,2,5,,,304.6345,3,right,0.034,,0.5,0.3,"[1,2,3]",0.217470578,stimuli/card_0_transparent.png,0,3,0,3,0,1,,,,,,,,,,
,,,,60fe5c33f291d6b48032ba98,A,2024-05-24_13h07.39.313,Slot Machine Game,2023.1.3,MacIntel,62.11180124,,,,,,,,,,,,,,,,,,,,,,,,,,,20,,,,,,,,,,,,,,,,,,,,,2,5,,,306.0001,4,up,1.3687,,0.5,0.3,"[1,2,3]",0.858093837,stimuli/card_10_transparent.png,10,4,0,4,0,1,,,,,,,,,,
,,,,60fe5c33f291d6b48032ba98,A,2024-05-24_13h07.39.313,Slot Machine Game,2023.1.3,MacIntel,62.11180124,,,,,,,,,,,,,,,,,,,,,,,,,,,120,,,,,,,,,,,,,,,,,,,,,2,5,,,308.6843,5,up,0.0833,,1.5,0.3,"[3,1,2]",0.847994899,stimuli/card_100_transparent.png,100,5,0,5,0,1,,,,,,,,,,
,,,,60fe5c33f291d6b48032ba98,A,2024-05-24_13h07.39.313,Slot Machine Game,2023.1.3,MacIntel,62.11180124,,,,,,,,,,,,,,,,,,,,,,,,,,,120,,,,,,,,,,,,,,,,,,,,,2,5,,,311.1001,6,left,1.3003,,1.5,0.3,"[3,1,2]",0.830084197,stimuli/card_0_transparent.png,0,6,0,6,0,1,,,,,,,,,,
,,,,60fe5c33f291d6b48032ba98,A,2024-05-24_13h07.39.313,Slot Machine Game,2023.1.3,MacIntel,62.11180124,,,,,,,,,,,,,,,,,,,,,,,,,,,120,,,,,,,,,,,,,,,,,,,,,2,5,,,314.7343,7,left,1.7358,,1,0.3,"[3,1,2]",0.587976116,stimuli/card_0_transparent.png,0,7,0,7,0,1,,,,,,,,,,
,,,,60fe5c33f291d6b48032ba98,A,2024-05-24_13h07.39.313,Slot Machine Game,2023.1.3,MacIntel,62.11180124,,,,,,,,,,,,,,,,,,,,,,,,,,,220,,,,,,,,,,,,,,,,,,,,,2,5,,,318.3001,8,up,0.4068,,1,0.3,"[3,1,2]",0.222087288,stimuli/card_100_transparent.png,100,8,0,8,0,1,,,,,,,,,,
,,,,60fe5c33f291d6b48032ba98,A,2024-05-24_13h07.39.313,Slot Machine Game,2023.1.3,MacIntel,62.11180124,,,,,,,,,,,,,,,,,,,,,,,,,,,230,,,,,,,,,,,,,,,,,,,,,2,5,,,320.5333,9,up,0.0342,,0.5,0.3,"[3,1,2]",0.156388285,stimuli/card_10_transparent.png,10,9,0,9,0,1,,,,,,,,,,
,,,,60fe5c33f291d6b48032ba98,A,2024-05-24_13h07.39.313,Slot Machine Game,2023.1.3,MacIntel,62.11180124,,,,,,,,,,,,,,,,,,,,,,,,,,,330,,,,,,,,,,,,,,,,,,,,,2,5,,,321.8998,10,up,0.566,,0.5,0.3,"[3,1,2]",0.845570325,stimuli/card_100_transparent.png,100,10,0,10,0,1,,,,,,,,,,
,,,,60fe5c33f291d6b48032ba98,A,2024-05-24_13h07.39.313,Slot Machine Game,2023.1.3,MacIntel,62.11180124,,,,,,,,,,,,,,,,,,,,,,,,,,,430,,,,,,,,,,,,,,,,,,,,,2,5,,,323.7842,11,up,1.041,,0.5,0.3,"[3,1,2]",0.859904439,stimuli/card_100_transparent.png,100,11,0,11,0,1,,,,,,,,,,
,,,,60fe5c33f291d6b48032ba98,A,2024-05-24_13h07.39.313,Slot Machine Game,2023.1.3,MacIntel,62.11180124,,,,,,,,,,,,,,,,,,,,,,,,,,,530,,,,,,,,,,,,,,,,,,,,,2,5,,,326.1509,12,up,0.3904,,0.5,0.3,"[3,1,2]",0.401915976,stimuli/card_100_transparent.png,100,12,0,12,0,1,,,,,,,,,,
,,,,60fe5c33f291d6b48032ba98,A,2024-05-24_13h07.39.313,Slot Machine Game,2023.1.3,MacIntel,62.11180124,,,,,,,,,,,,,,,,,,,,,,,,,,,540,,,,,,,,,,,,,,,,,,,,,2,5,,,327.8666,13,up,0.1063,,1,0.3,"[3,1,2]",0.111996426,stimuli/card_10_transparent.png,10,13,0,13,0,1,,,,,,,,,,
,,,,60fe5c33f291d6b48032ba98,A,2024-05-24_13h07.39.313,Slot Machine Game,2023.1.3,MacIntel,62.11180124,,,,,,,,,,,,,,,,,,,,,,,,,,,540,,,,,,,,,,,,,,,,,,,,,2,5,,,329.7841,14,up,0.0346,,1,0.3,"[3,1,2]",0.067806059,stimuli/card_0_transparent.png,0,14,0,14,0,1,,,,,,,,,,
,,,,60fe5c33f291d6b48032ba98,A,2024-05-24_13h07.39.313,Slot Machine Game,2023.1.3,MacIntel,62.11180124,,,,,,,,,,,,,,,,,,,,,,,,,,,,,,,,,,,331.6507,,,,,,,,,,,,,,,,,,,,,,,,,,,,,,,,,"[820,540]",1,0,1,0,1,,,,
,,,,60fe5c33f291d6b48032ba98,A,2024-05-24_13h07.39.313,Slot Machine Game,2023.1.3,MacIntel,62.11180124,,,,,,,,,,,,,,,,,,,,,,,,,,,100,,,,,,,,,,,,,,,,,,,,,3,7,"[9,15]","[[1,3,2],[2,3,1]]",336.6678,0,right,0.1678,,1,0.3,"[1,3,2]",0.165716835,stimuli/card_100_transparent.png,100,0,0,0,0,1,,,,,,,,,,
,,,,60fe5c33f291d6b48032ba98,A,2024-05-24_13h07.39.313,Slot Machine Game,2023.1.3,MacIntel,62.11180124,,,,,,,,,,,,,,,,,,,,,,,,,,,110,,,,,,,,,,,,,,,,,,,,,3,7,,,338.6666,1,right,0.2216,,1.5,0.3,"[1,3,2]",0.890586516,stimuli/card_10_transparent.png,10,1,0,1,0,1,,,,,,,,,,
,,,,60fe5c33f291d6b48032ba98,A,2024-05-24_13h07.39.313,Slot Machine Game,2023.1.3,MacIntel,62.11180124,,,,,,,,,,,,,,,,,,,,,,,,,,,120,,,,,,,,,,,,,,,,,,,,,3,7,,,341.2,2,right,0.237,,1.5,0.3,"[1,3,2]",0.584306195,stimuli/card_10_transparent.png,10,2,0,2,0,1,,,,,,,,,,
,,,,60fe5c33f291d6b48032ba98,A,2024-05-24_13h07.39.313,Slot Machine Game,2023.1.3,MacIntel,62.11180124,,,,,,,,,,,,,,,,,,,,,,,,,,,120,,,,,,,,,,,,,,,,,,,,,3,7,,,343.7506,3,up,0.1088,,0.5,0.3,"[1,3,2]",0.714464828,stimuli/card_0_transparent.png,0,3,0,3,0,1,,,,,,,,,,
,,,,60fe5c33f291d6b48032ba98,A,2024-05-24_13h07.39.313,Slot Machine Game,2023.1.3,MacIntel,62.11180124,,,,,,,,,,,,,,,,,,,,,,,,,,,120,,,,,,,,,,,,,,,,,,,,,3,7,,,345.1839,4,up,0.3351,,1,0.3,"[1,3,2]",0.256177107,stimuli/card_0_transparent.png,0,4,0,4,0,1,,,,,,,,,,
,,,,60fe5c33f291d6b48032ba98,A,2024-05-24_13h07.39.313,Slot Machine Game,2023.1.3,MacIntel,62.11180124,,,,,,,,,,,,,,,,,,,,,,,,,,,220,,,,,,,,,,,,,,,,,,,,,3,7,,,347.3506,5,left,0.8684,,1,0.3,"[1,3,2]",0.917697767,stimuli/card_100_transparent.png,100,5,0,5,0,1,,,,,,,,,,
,,,,60fe5c33f291d6b48032ba98,A,2024-05-24_13h07.39.313,Slot Machine Game,2023.1.3,MacIntel,62.11180124,,,,,,,,,,,,,,,,,,,,,,,,,,,320,,,,,,,,,,,,,,,,,,,,,3,7,,,350.0506,6,left,0.0007,,1.5,0.3,"[1,3,2]",0.90101752,stimuli/card_100_transparent.png,100,6,0,6,0,1,,,,,,,,,,
,,,,60fe5c33f291d6b48032ba98,A,2024-05-24_13h07.39.313,Slot Machine Game,2023.1.3,MacIntel,62.11180124,,,,,,,,,,,,,,,,,,,,,,,,,,,420,,,,,,,,,,,,,,,,,,,,,3,7,,,352.3839,7,left,0.1715,,0.5,0.3,"[1,3,2]",0.457891902,stimuli/card_100_transparent.png,100,7,0,7,0,1,,,,,,,,,,
,,,,60fe5c33f291d6b48032ba98,A,2024-05-24_13h07.39.313,Slot Machine Game,2023.1.3,MacIntel,62.11180124,,,,,,,,,,,,,,,,,,,,,,,,,,,520,,,,,,,,,,,,,,,,,,,,,3,7,,,353.8828,8,left,0.2895,,0.5,0.3,"[1,3,2]",0.927078813,stimuli/card_100_transparent.png,100,8,0,8,0,1,,,,,,,,,,
,,,,60fe5c33f291d6b48032ba98,A,2024-05-24_13h07.39.313,Slot Machine Game,2023.1.3,MacIntel,62.11180124,,,,,,,,,,,,,,,,,,,,,,,,,,,530,,,,,,,,,,,,,,,,,,,,,3,7,,,355.4837,9,left,0.5049,,0.5,0.3,"[2,3,1]",0.523717196,stimuli/card_10_transparent.png,10,9,0,9,0,1,,,,,,,,,,
,,,,60fe5c33f291d6b48032ba98,A,2024-05-24_13h07.39.313,Slot Machine Game,2023.1.3,MacIntel,62.11180124,,,,,,,,,,,,,,,,,,,,,,,,,,,540,,,,,,,,,,,,,,,,,,,,,3,7,,,357.3172,10,left,0.0006,,0.5,0.3,"[2,3,1]",0.566868577,stimuli/card_10_transparent.png,10,10,0,10,0,1,,,,,,,,,,
,,,,60fe5c33f291d6b48032ba98,A,2024-05-24_13h07.39.313,Slot Machine Game,2023.1.3,MacIntel,62.11180124,,,,,,,,,,,,,,,,,,,,,,,,,,,550,,,,,,,,,,,,,,,,,,,,,3,7,,,358.6504,11,left,0.4344,,1,0.3,"[2,3,1]",0.84283385,stimuli/card_10_transparent.png,10,11,0,11,0,1,,,,,,,,,,
,,,,60fe5c33f291d6b48032ba98,A,2024-05-24_13h07.39.313,Slot Machine Game,2023.1.3,MacIntel,62.11180124,,,,,,,,,,,,,,,,,,,,,,,,,,,650,,,,,,,,,,,,,,,,,,,,,3,7,,,360.917,12,right,0.1252,,0.5,0.3,"[2,3,1]",0.820169811,stimuli/card_100_transparent.png,100,12,0,12,0,1,,,,,,,,,,
,,,,60fe5c33f291d6b48032ba98,A,2024-05-24_13h07.39.313,Slot Machine Game,2023.1.3,MacIntel,62.11180124,,,,,,,,,,,,,,,,,,,,,,,,,,,750,,,,,,,,,,,,,,,,,,,,,3,7,,,362.3672,13,right,0.0347,,0.5,0.3,"[2,3,1]",0.297292556,stimuli/card_100_transparent.png,100,13,0,13,0,1,,,,,,,,,,
,,,,60fe5c33f291d6b48032ba98,A,2024-05-24_13h07.39.313,Slot Machine Game,2023.1.3,MacIntel,62.11180124,,,,,,,,,,,,,,,,,,,,,,,,,,,850,,,,,,,,,,,,,,,,,,,,,3,7,,,363.7334,14,right,0.4839,,1.5,0.3,"[2,3,1]",0.379936679,stimuli/card_100_transparent.png,100,14,0,14,0,1,,,,,,,,,,
,,,,60fe5c33f291d6b48032ba98,A,2024-05-24_13h07.39.313,Slot Machine Game,2023.1.3,MacIntel,62.11180124,,,,,,,,,,,,,,,,,,,,,,,,,,,,,,,,,,,366.5334,,,,,,,,,,,,,,,,,,,,,,,,,,,,,,,,,"[820,540,850]",2,0,2,0,1,,,,
,,,,60fe5c33f291d6b48032ba98,A,2024-05-24_13h07.39.313,Slot Machine Game,2023.1.3,MacIntel,62.11180124,,,,,,,,,,,,,,,,,,,,,,,,,,,0,,,,,,,,,,,,,,,,,,,,,4,4,"[7,15]","[[2,3,1],[1,2,3]]",371.5504,0,up,1.8839,,0.5,0.3,"[2,3,1]",0.815611078,stimuli/card_0_transparent.png,0,0,0,0,0,1,,,,,,,,,,
,,,,60fe5c33f291d6b48032ba98,A,2024-05-24_13h07.39.313,Slot Machine Game,2023.1.3,MacIntel,62.11180124,,,,,,,,,,,,,,,,,,,,,,,,,,,100,,,,,,,,,,,,,,,,,,,,,4,4,,,374.7659,1,right,0.3833,,0.5,0.3,"[2,3,1]",0.53904645,stimuli/card_100_transparent.png,100,1,0,1,0,1,,,,,,,,,,
,,,,60fe5c33f291d6b48032ba98,A,2024-05-24_13h07.39.313,Slot Machine Game,2023.1.3,MacIntel,62.11180124,,,,,,,,,,,,,,,,,,,,,,,,,,,200,,,,,,,,,,,,,,,,,,,,,4,4,,,376.4668,2,right,0.2229,,1,0.3,"[2,3,1]",0.979232085,stimuli/card_100_transparent.png,100,2,0,2,0,1,,,,,,,,,,
,,,,60fe5c33f291d6b48032ba98,A,2024-05-24_13h07.39.313,Slot Machine Game,2023.1.3,MacIntel,62.11180124,,,,,,,,,,,,,,,,,,,,,,,,,,,300,,,,,,,,,,,,,,,,,,,,,4,4,,,378.5168,3,right,1.751,,1.5,0.3,"[2,3,1]",0.623090095,stimuli/card_100_transparent.png,100,3,0,3,0,1,,,,,,,,,,
,,,,60fe5c33f291d6b48032ba98,A,2024-05-24_13h07.39.313,Slot Machine Game,2023.1.3,MacIntel,62.11180124,,,,,,,,,,,,,,,,,,,,,,,,,,,310,,,,,,,,,,,,,,,,,,,,,4,4,,,382.6001,4,right,0.2078,,1,0.3,"[2,3,1]",0.161306475,stimuli/card_10_transparent.png,10,4,0,4,0,1,,,,,,,,,,
,,,,60fe5c33f291d6b48032ba98,A,2024-05-24_13h07.39.313,Slot Machine Game,2023.1.3,MacIntel,62.11180124,,,,,,,,,,,,,,,,,,,,,,,,,,,410,,,,,,,,,,,,,,,,,,,,,4,4,,,384.6335,5,right,1.1677,,1,0.3,"[2,3,1]",0.46534813,stimuli/card_100_transparent.png,100,5,0,5,0,1,,,,,,,,,,
,,,,60fe5c33f291d6b48032ba98,A,2024-05-24_13h07.39.313,Slot Machine Game,2023.1.3,MacIntel,62.11180124,,,,,,,,,,,,,,,,,,,,,,,,,,,510,,,,,,,,,,,,,,,,,,,,,4,4,,,387.6334,6,right,0.5688,,1,0.3,"[2,3,1]",0.965585599,stimuli/card_100_transparent.png,100,6,0,6,0,1,,,,,,,,,,
,,,,60fe5c33f291d6b48032ba98,A,2024-05-24_13h07.39.313,Slot Machine Game,2023.1.3,MacIntel,62.11180124,,,,,,,,,,,,,,,,,,,,,,,,,,,510,,,,,,,,,,,,,,,,,,,,,4,4,,,390.0324,7,right,0.5077,,1,0.3,"[1,2,3]",0.314089659,stimuli/card_0_transparent.png,0,7,0,7,0,1,,,,,,,,,,
,,,,60fe5c33f291d6b48032ba98,A,2024-05-24_13h07.39.313,Slot Machine Game,2023.1.3,MacIntel,62.11180124,,,,,,,,,,,,,,,,,,,,,,,,,,,520,,,,,,,,,,,,,,,,,,,,,4,4,,,392.35,8,right,0.1195,,1,0.3,"[1,2,3]",0.100489043,stimuli/card_10_transparent.png,10,8,0,8,0,1,,,,,,,,,,
,,,,60fe5c33f291d6b48032ba98,A,2024-05-24_13h07.39.313,Slot Machine Game,2023.1.3,MacIntel,62.11180124,,,,,,,,,,,,,,,,,,,,,,,,,,,620,,,,,,,,,,,,,,,,,,,,,4,4,,,394.2988,9,left,1.0679,,1.5,0.3,"[1,2,3]",0.517616051,stimuli/card_100_transparent.png,100,9,0,9,0,1,,,,,,,,,,
,,,,60fe5c33f291d6b48032ba98,A,2024-05-24_13h07.39.313,Slot Machine Game,2023.1.3,MacIntel,62.11180124,,,,,,,,,,,,,,,,,,,,,,,,,,,630,,,,,,,,,,,,,,,,,,,,,4,4,,,397.6833,10,left,0.0353,,1,0.3,"[1,2,3]",0.130428298,stimuli/card_10_transparent.png,10,10,0,10,0,1,,,,,,,,,,
,,,,60fe5c33f291d6b48032ba98,A,2024-05-24_13h07.39.313,Slot Machine Game,2023.1.3,MacIntel,62.11180124,,,,,,,,,,,,,,,,,,,,,,,,,,,730,,,,,,,,,,,,,,,,,,,,,4,4,,,399.5499,11,left,0.3676,,1,0.3,"[1,2,3]",0.927529901,stimuli/card_100_transparent.png,100,11,0,11,0,1,,,,,,,,,,
,,,,60fe5c33f291d6b48032ba98,A,2024-05-24_13h07.39.313,Slot Machine Game,2023.1.3,MacIntel,62.11180124,,,,,,,,,,,,,,,,,,,,,,,,,,,830,,,,,,,,,,,,,,,,,,,,,4,4,,,401.7492,12,left,0.1017,,0.5,0.3,"[1,2,3]",0.268692223,stimuli/card_100_transparent.png,100,12,0,12,0,1,,,,,,,,,,
,,,,60fe5c33f291d6b48032ba98,A,2024-05-24_13h07.39.313,Slot Machine Game,2023.1.3,MacIntel,62.11180124,,,,,,,,,,,,,,,,,,,,,,,,,,,930,,,,,,,,,,,,,,,,,,,,,4,4,,,403.1829,13,left,0.0517,,1,0.3,"[1,2,3]",0.213912715,stimuli/card_100_transparent.png,100,13,0,13,0,1,,,,,,,,,,
,,,,60fe5c33f291d6b48032ba98,A,2024-05-24_13h07.39.313,Slot Machine Game,2023.1.3,MacIntel,62.11180124,,,,,,,,,,,,,,,,,,,,,,,,,,,1030,,,,,,,,,,,,,,,,,,,,,4,4,,,405.0498,14,left,0.268,,1.5,0.3,"[1,2,3]",0.617080021,stimuli/card_100_transparent.png,100,14,0,14,0,1,,,,,,,,,,
,,,,60fe5c33f291d6b48032ba98,A,2024-05-24_13h07.39.313,Slot Machine Game,2023.1.3,MacIntel,62.11180124,,,,,,,,,,,,,,,,,,,,,,,,,,,,,,,,,,,407.6493,,,,,,,,,,,,,,,,,,,,,,,,,,,,,,,,,"[820,540,850,1030]",3,0,3,0,1,,,,
,,,,60fe5c33f291d6b48032ba98,A,2024-05-24_13h07.39.313,Slot Machine Game,2023.1.3,MacIntel,62.11180124,,,,,,,,,,,,,,,,,,,,,,,,,,,0,,,,,,,,,,,,,,,,,,,,,5,6,"[4,10,15]","[[2,3,1],[1,3,2],[3,2,1]]",412.6669,0,up,0.6023,,0.5,0.3,"[2,3,1]",0.453566509,stimuli/card_0_transparent.png,0,0,0,0,0,1,,,,,,,,,,
,,,,60fe5c33f291d6b48032ba98,A,2024-05-24_13h07.39.313,Slot Machine Game,2023.1.3,MacIntel,62.11180124,,,,,,,,,,,,,,,,,,,,,,,,,,,0,,,,,,,,,,,,,,,,,,,,,5,6,,,414.5987,1,left,0.0837,,1.5,0.3,"[2,3,1]",0.04369601,stimuli/card_0_transparent.png,0,1,0,1,0,1,,,,,,,,,,
,,,,60fe5c33f291d6b48032ba98,A,2024-05-24_13h07.39.313,Slot Machine Game,2023.1.3,MacIntel,62.11180124,,,,,,,,,,,,,,,,,,,,,,,,,,,10,,,,,,,,,,,,,,,,,,,,,5,6,,,417.0157,2,left,1.2848,,0.5,0.3,"[2,3,1]",0.99394365,stimuli/card_10_transparent.png,10,2,0,2,0,1,,,,,,,,,,
,,,,60fe5c33f291d6b48032ba98,A,2024-05-24_13h07.39.313,Slot Machine Game,2023.1.3,MacIntel,62.11180124,,,,,,,,,,,,,,,,,,,,,,,,,,,110,,,,,,,,,,,,,,,,,,,,,5,6,,,419.6321,3,right,0.519,,0.5,0.3,"[2,3,1]",0.794830206,stimuli/card_100_transparent.png,100,3,0,3,0,1,,,,,,,,,,
,,,,60fe5c33f291d6b48032ba98,A,2024-05-24_13h07.39.313,Slot Machine Game,2023.1.3,MacIntel,62.11180124,,,,,,,,,,,,,,,,,,,,,,,,,,,120,,,,,,,,,,,,,,,,,,,,,5,6,,,421.4829,4,right,0.3406,,1,0.3,"[1,3,2]",0.482047898,stimuli/card_10_transparent.png,10,4,0,4,0,1,,,,,,,,,,
,,,,60fe5c33f291d6b48032ba98,A,2024-05-24_13h07.39.313,Slot Machine Game,2023.1.3,MacIntel,62.11180124,,,,,,,,,,,,,,,,,,,,,,,,,,,130,,,,,,,,,,,,,,,,,,,,,5,6,,,423.6494,5,right,1.1242,,1,0.3,"[1,3,2]",0.581722818,stimuli/card_10_transparent.png,10,5,0,5,0,1,,,,,,,,,,
,,,,60fe5c33f291d6b48032ba98,A,2024-05-24_13h07.39.313,Slot Machine Game,2023.1.3,MacIntel,62.11180124,,,,,,,,,,,,,,,,,,,,,,,,,,,140,,,,,,,,,,,,,,,,,,,,,5,6,,,426.5987,6,right,2.2007,,1,0.3,"[1,3,2]",0.799285268,stimuli/card_10_transparent.png,10,6,0,6,0,1,,,,,,,,,,
,,,,60fe5c33f291d6b48032ba98,A,2024-05-24_13h07.39.313,Slot Machine Game,2023.1.3,MacIntel,62.11180124,,,,,,,,,,,,,,,,,,,,,,,,,,,150,,,,,,,,,,,,,,,,,,,,,5,6,,,430.6327,7,up,0.3653,,1,0.3,"[1,3,2]",0.121476689,stimuli/card_10_transparent.png,10,7,0,7,0,1,,,,,,,,,,
,,,,60fe5c33f291d6b48032ba98,A,2024-05-24_13h07.39.313,Slot Machine Game,2023.1.3,MacIntel,62.11180124,,,,,,,,,,,,,,,,,,,,,,,,,,,150,,,,,,,,,,,,,,,,,,,,,5,6,,,432.8329,8,up,0.2177,,1,0.3,"[1,3,2]",0.959928328,stimuli/card_0_transparent.png,0,8,0,8,0,1,,,,,,,,,,
,,,,60fe5c33f291d6b48032ba98,A,2024-05-24_13h07.39.313,Slot Machine Game,2023.1.3,MacIntel,62.11180124,,,,,,,,,,,,,,,,,,,,,,,,,,,150,,,,,,,,,,,,,,,,,,,,,5,6,,,434.8828,9,up,0.0384,,1.5,0.3,"[1,3,2]",0.752337562,stimuli/card_0_transparent.png,0,9,0,9,0,1,,,,,,,,,,
,,,,60fe5c33f291d6b48032ba98,A,2024-05-24_13h07.39.313,Slot Machine Game,2023.1.3,MacIntel,62.11180124,,,,,,,,,,,,,,,,,,,,,,,,,,,150,,,,,,,,,,,,,,,,,,,,,5,6,,,437.2493,10,left,0.0568,,0.5,0.3,"[3,2,1]",0.702130112,stimuli/card_0_transparent.png,0,10,0,10,0,1,,,,,,,,,,
,,,,60fe5c33f291d6b48032ba98,A,2024-05-24_13h07.39.313,Slot Machine Game,2023.1.3,MacIntel,62.11180124,,,,,,,,,,,,,,,,,,,,,,,,,,,150,,,,,,,,,,,,,,,,,,,,,5,6,,,438.6327,11,left,0.2181,,1.5,0.3,"[3,2,1]",0.537880404,stimuli/card_0_transparent.png,0,11,0,11,0,1,,,,,,,,,,
,,,,60fe5c33f291d6b48032ba98,A,2024-05-24_13h07.39.313,Slot Machine Game,2023.1.3,MacIntel,62.11180124,,,,,,,,,,,,,,,,,,,,,,,,,,,160,,,,,,,,,,,,,,,,,,,,,5,6,,,441.1827,12,left,0.336,,1,0.3,"[3,2,1]",0.108718041,stimuli/card_10_transparent.png,10,12,0,12,0,1,,,,,,,,,,
,,,,60fe5c33f291d6b48032ba98,A,2024-05-24_13h07.39.313,Slot Machine Game,2023.1.3,MacIntel,62.11180124,,,,,,,,,,,,,,,,,,,,,,,,,,,260,,,,,,,,,,,,,,,,,,,,,5,6,,,443.349,13,right,0.27,,0.5,0.3,"[3,2,1]",0.229107766,stimuli/card_100_transparent.png,100,13,0,13,0,1,,,,,,,,,,
,,,,60fe5c33f291d6b48032ba98,A,2024-05-24_13h07.39.313,Slot Machine Game,2023.1.3,MacIntel,62.11180124,,,,,,,,,,,,,,,,,,,,,,,,,,,260,,,,,,,,,,,,,,,,,,,,,5,6,,,444.9326,14,right,0.2019,,1,0.3,"[3,2,1]",0.000350043,stimuli/card_0_transparent.png,0,14,0,14,0,1,,,,,,,,,,
,,,,60fe5c33f291d6b48032ba98,A,2024-05-24_13h07.39.313,Slot Machine Game,2023.1.3,MacIntel,62.11180124,,,,,,,,,,,,,,,,,,,,,,,,,,,,,,,,,,,446.966,,,,,,,,,,,,,,,,,,,,,,,,,,,,,,,,,"[820,540,850,1030,260]",4,0,4,0,1,,,,
,,,,60fe5c33f291d6b48032ba98,A,2024-05-24_13h07.39.313,Slot Machine Game,2023.1.3,MacIntel,62.11180124,,,,,,,,,,,,,,,,,,,,,,,,,,,100,,,,,,,,,,,,,,,,,,,,,6,8,"[11,15]","[[2,1,3],[1,2,3]]",451.9827,0,up,0.3186,,0.5,0.3,"[2,1,3]",0.854883999,stimuli/card_100_transparent.png,100,0,0,0,0,1,,,,,,,,,,
,,,,60fe5c33f291d6b48032ba98,A,2024-05-24_13h07.39.313,Slot Machine Game,2023.1.3,MacIntel,62.11180124,,,,,,,,,,,,,,,,,,,,,,,,,,,100,,,,,,,,,,,,,,,,,,,,,6,8,,,453.6321,1,up,0.0848,,0.5,0.3,"[2,1,3]",0.096224167,stimuli/card_0_transparent.png,0,1,0,1,0,1,,,,,,,,,,
,,,,60fe5c33f291d6b48032ba98,A,2024-05-24_13h07.39.313,Slot Machine Game,2023.1.3,MacIntel,62.11180124,,,,,,,,,,,,,,,,,,,,,,,,,,,200,,,,,,,,,,,,,,,,,,,,,6,8,,,455.0325,2,up,0.0504,,1,0.3,"[2,1,3]",0.229418474,stimuli/card_100_transparent.png,100,2,0,2,0,1,,,,,,,,,,
,,,,60fe5c33f291d6b48032ba98,A,2024-05-24_13h07.39.313,Slot Machine Game,2023.1.3,MacIntel,62.11180124,,,,,,,,,,,,,,,,,,,,,,,,,,,210,,,,,,,,,,,,,,,,,,,,,6,8,,,456.9146,3,up,0.4548,,0.5,0.3,"[2,1,3]",0.178679257,stimuli/card_10_transparent.png,10,3,0,3,0,1,,,,,,,,,,
,,,,60fe5c33f291d6b48032ba98,A,2024-05-24_13h07.39.313,Slot Machine Game,2023.1.3,MacIntel,62.11180124,,,,,,,,,,,,,,,,,,,,,,,,,,,310,,,,,,,,,,,,,,,,,,,,,6,8,,,458.6825,4,up,0.217,,1,0.3,"[2,1,3]",0.991782848,stimuli/card_100_transparent.png,100,4,0,4,0,1,,,,,,,,,,
,,,,60fe5c33f291d6b48032ba98,A,2024-05-24_13h07.39.313,Slot Machine Game,2023.1.3,MacIntel,62.11180124,,,,,,,,,,,,,,,,,,,,,,,,,,,310,,,,,,,,,,,,,,,,,,,,,6,8,,,460.732,5,up,0.3884,,1.5,0.3,"[2,1,3]",0.095596556,stimuli/card_0_transparent.png,0,5,0,5,0,1,,,,,,,,,,
,,,,60fe5c33f291d6b48032ba98,A,2024-05-24_13h07.39.313,Slot Machine Game,2023.1.3,MacIntel,62.11180124,,,,,,,,,,,,,,,,,,,,,,,,,,,410,,,,,,,,,,,,,,,,,,,,,6,8,,,463.4323,6,up,0.1187,,1,0.3,"[2,1,3]",0.957853252,stimuli/card_100_transparent.png,100,6,0,6,0,1,,,,,,,,,,
,,,,60fe5c33f291d6b48032ba98,A,2024-05-24_13h07.39.313,Slot Machine Game,2023.1.3,MacIntel,62.11180124,,,,,,,,,,,,,,,,,,,,,,,,,,,510,,,,,,,,,,,,,,,,,,,,,6,8,,,465.3824,7,up,0.1348,,1,0.3,"[2,1,3]",0.79754905,stimuli/card_100_transparent.png,100,7,0,7,0,1,,,,,,,,,,
,,,,60fe5c33f291d6b48032ba98,A,2024-05-24_13h07.39.313,Slot Machine Game,2023.1.3,MacIntel,62.11180124,,,,,,,,,,,,,,,,,,,,,,,,,,,610,,,,,,,,,,,,,,,,,,,,,6,8,,,467.349,8,up,0.1243,,1,0.3,"[2,1,3]",0.234366609,stimuli/card_100_transparent.png,100,8,0,8,0,1,,,,,,,,,,
,,,,60fe5c33f291d6b48032ba98,A,2024-05-24_13h07.39.313,Slot Machine Game,2023.1.3,MacIntel,62.11180124,,,,,,,,,,,,,,,,,,,,,,,,,,,710,,,,,,,,,,,,,,,,,,,,,6,8,,,469.299,9,up,0.1999,,1,0.3,"[2,1,3]",0.7023524,stimuli/card_100_transparent.png,100,9,0,9,0,1,,,,,,,,,,
,,,,60fe5c33f291d6b48032ba98,A,2024-05-24_13h07.39.313,Slot Machine Game,2023.1.3,MacIntel,62.11180124,,,,,,,,,,,,,,,,,,,,,,,,,,,810,,,,,,,,,,,,,,,,,,,,,6,8,,,471.3321,10,up,1.8043,,1.5,0.3,"[2,1,3]",0.214053082,stimuli/card_100_transparent.png,100,10,0,10,0,1,,,,,,,,,,
,,,,60fe5c33f291d6b48032ba98,A,2024-05-24_13h07.39.313,Slot Machine Game,2023.1.3,MacIntel,62.11180124,,,,,,,,,,,,,,,,,,,,,,,,,,,820,,,,,,,,,,,,,,,,,,,,,6,8,,,475.4656,11,up,0.0706,,1.5,0.3,"[1,2,3]",0.994402314,stimuli/card_10_transparent.png,10,11,0,11,0,1,,,,,,,,,,
,,,,60fe5c33f291d6b48032ba98,A,2024-05-24_13h07.39.313,Slot Machine Game,2023.1.3,MacIntel,62.11180124,,,,,,,,,,,,,,,,,,,,,,,,,,,830,,,,,,,,,,,,,,,,,,,,,6,8,,,477.8655,12,up,0.0165,,1.5,0.3,"[1,2,3]",0.910396438,stimuli/card_10_transparent.png,10,12,0,12,0,1,,,,,,,,,,
,,,,60fe5c33f291d6b48032ba98,A,2024-05-24_13h07.39.313,Slot Machine Game,2023.1.3,MacIntel,62.11180124,,,,,,,,,,,,,,,,,,,,,,,,,,,930,,,,,,,,,,,,,,,,,,,,,6,8,,,480.2144,13,up,0.9824,,0.5,0.3,"[1,2,3]",0.173130022,stimuli/card_100_transparent.png,100,13,0,13,0,1,,,,,,,,,,
,,,,60fe5c33f291d6b48032ba98,A,2024-05-24_13h07.39.313,Slot Machine Game,2023.1.3,MacIntel,62.11180124,,,,,,,,,,,,,,,,,,,,,,,,,,,940,,,,,,,,,,,,,,,,,,,,,6,8,,,482.5148,14,up,0.4711,,1.5,0.3,"[1,2,3]",0.260686577,stimuli/card_10_transparent.png,10,14,0,14,0,1,,,,,,,,,,
,,,,60fe5c33f291d6b48032ba98,A,2024-05-24_13h07.39.313,Slot Machine Game,2023.1.3,MacIntel,62.11180124,,,,,,,,,,,,,,,,,,,,,,,,,,,,,,,,,,,485.3145,,,,,,,,,,,,,,,,,,,,,,,,,,,,,,,,,"[820,540,850,1030,260,940]",5,0,5,0,1,,,,
,,,,60fe5c33f291d6b48032ba98,A,2024-05-24_13h07.39.313,Slot Machine Game,2023.1.3,MacIntel,62.11180124,,,,,,,,,,,,,,,,,,,,,,,,,,,10,,,,,,,,,,,,,,,,,,,,,7,9,"[8,15]","[[3,2,1],[3,1,2]]",490.3314,0,left,1.0571,,0.5,0.3,"[3,2,1]",0.175192412,stimuli/card_10_transparent.png,10,0,0,0,0,1,,,,,,,,,,
,,,,60fe5c33f291d6b48032ba98,A,2024-05-24_13h07.39.313,Slot Machine Game,2023.1.3,MacIntel,62.11180124,,,,,,,,,,,,,,,,,,,,,,,,,,,10,,,,,,,,,,,,,,,,,,,,,7,9,,,492.6988,1,left,0.0755,,0.5,0.3,"[3,2,1]",0.523527929,stimuli/card_0_transparent.png,0,1,0,1,0,1,,,,,,,,,,
,,,,60fe5c33f291d6b48032ba98,A,2024-05-24_13h07.39.313,Slot Machine Game,2023.1.3,MacIntel,62.11180124,,,,,,,,,,,,,,,,,,,,,,,,,,,10,,,,,,,,,,,,,,,,,,,,,7,9,,,494.0986,2,left,0.1192,,1,0.3,"[3,2,1]",0.972744467,stimuli/card_0_transparent.png,0,2,0,2,0,1,,,,,,,,,,
,,,,60fe5c33f291d6b48032ba98,A,2024-05-24_13h07.39.313,Slot Machine Game,2023.1.3,MacIntel,62.11180124,,,,,,,,,,,,,,,,,,,,,,,,,,,10,,,,,,,,,,,,,,,,,,,,,7,9,,,496.0482,3,up,0.1167,,0.5,0.3,"[3,2,1]",0.005185803,stimuli/card_0_transparent.png,0,3,0,3,0,1,,,,,,,,,,
,,,,60fe5c33f291d6b48032ba98,A,2024-05-24_13h07.39.313,Slot Machine Game,2023.1.3,MacIntel,62.11180124,,,,,,,,,,,,,,,,,,,,,,,,,,,20,,,,,,,,,,,,,,,,,,,,,7,9,,,497.4821,4,up,0.0048,,1.5,0.3,"[3,2,1]",0.990861812,stimuli/card_10_transparent.png,10,4,0,4,0,1,,,,,,,,,,
,,,,60fe5c33f291d6b48032ba98,A,2024-05-24_13h07.39.313,Slot Machine Game,2023.1.3,MacIntel,62.11180124,,,,,,,,,,,,,,,,,,,,,,,,,,,120,,,,,,,,,,,,,,,,,,,,,7,9,,,499.8145,5,right,0.1685,,1,0.3,"[3,2,1]",0.465482011,stimuli/card_100_transparent.png,100,5,0,5,0,1,,,,,,,,,,
,,,,60fe5c33f291d6b48032ba98,A,2024-05-24_13h07.39.313,Slot Machine Game,2023.1.3,MacIntel,62.11180124,,,,,,,,,,,,,,,,,,,,,,,,,,,220,,,,,,,,,,,,,,,,,,,,,7,9,,,501.8144,6,right,0.7857,,1.5,0.3,"[3,2,1]",0.982938083,stimuli/card_100_transparent.png,100,6,0,6,0,1,,,,,,,,,,
,,,,60fe5c33f291d6b48032ba98,A,2024-05-24_13h07.39.313,Slot Machine Game,2023.1.3,MacIntel,62.11180124,,,,,,,,,,,,,,,,,,,,,,,,,,,320,,,,,,,,,,,,,,,,,,,,,7,9,,,504.9318,7,right,0.0339,,1.5,0.3,"[3,2,1]",0.962825377,stimuli/card_100_transparent.png,100,7,0,7,0,1,,,,,,,,,,
,,,,60fe5c33f291d6b48032ba98,A,2024-05-24_13h07.39.313,Slot Machine Game,2023.1.3,MacIntel,62.11180124,,,,,,,,,,,,,,,,,,,,,,,,,,,330,,,,,,,,,,,,,,,,,,,,,7,9,,,507.281,8,right,1.1742,,1.5,0.3,"[3,1,2]",0.644978586,stimuli/card_10_transparent.png,10,8,0,8,0,1,,,,,,,,,,
,,,,60fe5c33f291d6b48032ba98,A,2024-05-24_13h07.39.313,Slot Machine Game,2023.1.3,MacIntel,62.11180124,,,,,,,,,,,,,,,,,,,,,,,,,,,330,,,,,,,,,,,,,,,,,,,,,7,9,,,510.7645,9,right,0.0199,,0.5,0.3,"[3,1,2]",0.050625508,stimuli/card_0_transparent.png,0,9,0,9,0,1,,,,,,,,,,
,,,,60fe5c33f291d6b48032ba98,A,2024-05-24_13h07.39.313,Slot Machine Game,2023.1.3,MacIntel,62.11180124,,,,,,,,,,,,,,,,,,,,,,,,,,,430,,,,,,,,,,,,,,,,,,,,,7,9,,,512.1143,10,right,0.2169,,1,0.3,"[3,1,2]",0.196023984,stimuli/card_100_transparent.png,100,10,0,10,0,1,,,,,,,,,,
,,,,60fe5c33f291d6b48032ba98,A,2024-05-24_13h07.39.313,Slot Machine Game,2023.1.3,MacIntel,62.11180124,,,,,,,,,,,,,,,,,,,,,,,,,,,440,,,,,,,,,,,,,,,,,,,,,7,9,,,514.1645,11,right,0.2834,,1.5,0.3,"[3,1,2]",0.765947715,stimuli/card_10_transparent.png,10,11,0,11,0,1,,,,,,,,,,
,,,,60fe5c33f291d6b48032ba98,A,2024-05-24_13h07.39.313,Slot Machine Game,2023.1.3,MacIntel,62.11180124,,,,,,,,,,,,,,,,,,,,,,,,,,,450,,,,,,,,,,,,,,,,,,,,,7,9,,,516.7805,12,right,0.8413,,1,0.3,"[3,1,2]",0.513137209,stimuli/card_10_transparent.png,10,12,0,12,0,1,,,,,,,,,,
,,,,60fe5c33f291d6b48032ba98,A,2024-05-24_13h07.39.313,Slot Machine Game,2023.1.3,MacIntel,62.11180124,,,,,,,,,,,,,,,,,,,,,,,,,,,550,,,,,,,,,,,,,,,,,,,,,7,9,,,519.4482,13,up,0.2002,,1.5,0.3,"[3,1,2]",0.948666906,stimuli/card_100_transparent.png,100,13,0,13,0,1,,,,,,,,,,
,,,,60fe5c33f291d6b48032ba98,A,2024-05-24_13h07.39.313,Slot Machine Game,2023.1.3,MacIntel,62.11180124,,,,,,,,,,,,,,,,,,,,,,,,,,,650,,,,,,,,,,,,,,,,,,,,,7,9,,,521.9815,14,up,0.2579,,1,0.3,"[3,1,2]",0.217921539,stimuli/card_100_transparent.png,100,14,0,14,0,1,,,,,,,,,,
,,,,60fe5c33f291d6b48032ba98,A,2024-05-24_13h07.39.313,Slot Machine Game,2023.1.3,MacIntel,62.11180124,,,,,,,,,,,,,,,,,,,,,,,,,,,,,,,,,,,524.0644,,,,,,,,,,,,,,,,,,,,,,,,,,,,,,,,,"[820,540,850,1030,260,940,650]",6,0,6,0,1,,,,
,,,,60fe5c33f291d6b48032ba98,A,2024-05-24_13h07.39.313,Slot Machine Game,2023.1.3,MacIntel,62.11180124,,,,,,,,,,,,,,,,,,,,,,,,,,,0,,,,,,,,,,,,,,,,,,,,,8,2,"[6,15]","[[1,3,2],[3,2,1]]",529.081,0,up,0.3019,,0.5,0.3,"[1,3,2]",0.70086358,stimuli/card_0_transparent.png,0,0,0,0,0,1,,,,,,,,,,
,,,,60fe5c33f291d6b48032ba98,A,2024-05-24_13h07.39.313,Slot Machine Game,2023.1.3,MacIntel,62.11180124,,,,,,,,,,,,,,,,,,,,,,,,,,,0,,,,,,,,,,,,,,,,,,,,,8,2,,,530.6983,1,up,0.1522,,1,0.3,"[1,3,2]",0.780248187,stimuli/card_0_transparent.png,0,1,0,1,0,1,,,,,,,,,,
,,,,60fe5c33f291d6b48032ba98,A,2024-05-24_13h07.39.313,Slot Machine Game,2023.1.3,MacIntel,62.11180124,,,,,,,,,,,,,,,,,,,,,,,,,,,100,,,,,,,,,,,,,,,,,,,,,8,2,,,532.6814,2,left,0.0843,,1,0.3,"[1,3,2]",0.78933543,stimuli/card_100_transparent.png,100,2,0,2,0,1,,,,,,,,,,
,,,,60fe5c33f291d6b48032ba98,A,2024-05-24_13h07.39.313,Slot Machine Game,2023.1.3,MacIntel,62.11180124,,,,,,,,,,,,,,,,,,,,,,,,,,,200,,,,,,,,,,,,,,,,,,,,,8,2,,,534.5973,3,left,0.3189,,0.5,0.3,"[1,3,2]",0.73653999,stimuli/card_100_transparent.png,100,3,0,3,0,1,,,,,,,,,,
,,,,60fe5c33f291d6b48032ba98,A,2024-05-24_13h07.39.313,Slot Machine Game,2023.1.3,MacIntel,62.11180124,,,,,,,,,,,,,,,,,,,,,,,,,,,300,,,,,,,,,,,,,,,,,,,,,8,2,,,536.248,4,left,0.0385,,0.5,0.3,"[1,3,2]",0.621960576,stimuli/card_100_transparent.png,100,4,0,4,0,1,,,,,,,,,,
,,,,60fe5c33f291d6b48032ba98,A,2024-05-24_13h07.39.313,Slot Machine Game,2023.1.3,MacIntel,62.11180124,,,,,,,,,,,,,,,,,,,,,,,,,,,400,,,,,,,,,,,,,,,,,,,,,8,2,,,537.6143,5,left,0.8548,,1,0.3,"[1,3,2]",0.921828648,stimuli/card_100_transparent.png,100,5,0,5,0,1,,,,,,,,,,
,,,,60fe5c33f291d6b48032ba98,A,2024-05-24_13h07.39.313,Slot Machine Game,2023.1.3,MacIntel,62.11180124,,,,,,,,,,,,,,,,,,,,,,,,,,,400,,,,,,,,,,,,,,,,,,,,,8,2,,,540.2971,6,left,0.1338,,1.5,0.3,"[3,2,1]",0.631808246,stimuli/card_0_transparent.png,0,6,0,6,0,1,,,,,,,,,,
,,,,60fe5c33f291d6b48032ba98,A,2024-05-24_13h07.39.313,Slot Machine Game,2023.1.3,MacIntel,62.11180124,,,,,,,,,,,,,,,,,,,,,,,,,,,400,,,,,,,,,,,,,,,,,,,,,8,2,,,542.748,7,left,2.3412,,1,0.3,"[3,2,1]",0.730757746,stimuli/card_0_transparent.png,0,7,0,7,0,1,,,,,,,,,,
,,,,60fe5c33f291d6b48032ba98,A,2024-05-24_13h07.39.313,Slot Machine Game,2023.1.3,MacIntel,62.11180124,,,,,,,,,,,,,,,,,,,,,,,,,,,400,,,,,,,,,,,,,,,,,,,,,8,2,,,546.9143,8,right,0.0738,,1.5,0.3,"[3,2,1]",0.00519971,stimuli/card_0_transparent.png,0,8,0,8,0,1,,,,,,,,,,
,,,,60fe5c33f291d6b48032ba98,A,2024-05-24_13h07.39.313,Slot Machine Game,2023.1.3,MacIntel,62.11180124,,,,,,,,,,,,,,,,,,,,,,,,,,,410,,,,,,,,,,,,,,,,,,,,,8,2,,,549.3144,9,right,0.1242,,1,0.3,"[3,2,1]",0.126540959,stimuli/card_10_transparent.png,10,9,0,9,0,1,,,,,,,,,,
,,,,60fe5c33f291d6b48032ba98,A,2024-05-24_13h07.39.313,Slot Machine Game,2023.1.3,MacIntel,62.11180124,,,,,,,,,,,,,,,,,,,,,,,,,,,420,,,,,,,,,,,,,,,,,,,,,8,2,,,551.2644,10,up,0.384,,1.5,0.3,"[3,2,1]",0.86994985,stimuli/card_10_transparent.png,10,10,0,10,0,1,,,,,,,,,,
,,,,60fe5c33f291d6b48032ba98,A,2024-05-24_13h07.39.313,Slot Machine Game,2023.1.3,MacIntel,62.11180124,,,,,,,,,,,,,,,,,,,,,,,,,,,520,,,,,,,,,,,,,,,,,,,,,8,2,,,553.9811,11,up,0.0336,,1,0.3,"[3,2,1]",0.120052371,stimuli/card_100_transparent.png,100,11,0,11,0,1,,,,,,,,,,
,,,,60fe5c33f291d6b48032ba98,A,2024-05-24_13h07.39.313,Slot Machine Game,2023.1.3,MacIntel,62.11180124,,,,,,,,,,,,,,,,,,,,,,,,,,,530,,,,,,,,,,,,,,,,,,,,,8,2,,,555.8469,12,up,0.0172,,1,0.3,"[3,2,1]",0.802915779,stimuli/card_10_transparent.png,10,12,0,12,0,1,,,,,,,,,,
,,,,60fe5c33f291d6b48032ba98,A,2024-05-24_13h07.39.313,Slot Machine Game,2023.1.3,MacIntel,62.11180124,,,,,,,,,,,,,,,,,,,,,,,,,,,530,,,,,,,,,,,,,,,,,,,,,8,2,,,557.6802,13,up,0.8333,,1.5,0.3,"[3,2,1]",0.038218792,stimuli/card_0_transparent.png,0,13,0,13,0,1,,,,,,,,,,
,,,,60fe5c33f291d6b48032ba98,A,2024-05-24_13h07.39.313,Slot Machine Game,2023.1.3,MacIntel,62.11180124,,,,,,,,,,,,,,,,,,,,,,,,,,,540,,,,,,,,,,,,,,,,,,,,,8,2,,,560.8479,14,up,0.4684,,1,0.3,"[3,2,1]",0.589048747,stimuli/card_10_transparent.png,10,14,0,14,0,1,,,,,,,,,,
,,,,60fe5c33f291d6b48032ba98,A,2024-05-24_13h07.39.313,Slot Machine Game,2023.1.3,MacIntel,62.11180124,,,,,,,,,,,,,,,,,,,,,,,,,,,,,,,,,,,563.1466,,,,,,,,,,,,,,,,,,,,,,,,,,,,,,,,,"[820,540,850,1030,260,940,650,540]",7,0,7,0,1,,,,
,,,,60fe5c33f291d6b48032ba98,A,2024-05-24_13h07.39.313,Slot Machine Game,2023.1.3,MacIntel,62.11180124,,,,,,,,,,,,,,,,,,,,,,,,,,,10,,,,,,,,,,,,,,,,,,,,,9,10,"[10,15]","[[3,1,2],[1,3,2]]",568.1651,0,right,0.7849,,1,0.3,"[3,1,2]",0.950599166,stimuli/card_10_transparent.png,10,0,0,0,0,1,,,,,,,,,,
,,,,60fe5c33f291d6b48032ba98,A,2024-05-24_13h07.39.313,Slot Machine Game,2023.1.3,MacIntel,62.11180124,,,,,,,,,,,,,,,,,,,,,,,,,,,20,,,,,,,,,,,,,,,,,,,,,9,10,,,570.7801,1,right,0.1249,,1,0.3,"[3,1,2]",0.827949605,stimuli/card_10_transparent.png,10,1,0,1,0,1,,,,,,,,,,
,,,,60fe5c33f291d6b48032ba98,A,2024-05-24_13h07.39.313,Slot Machine Game,2023.1.3,MacIntel,62.11180124,,,,,,,,,,,,,,,,,,,,,,,,,,,30,,,,,,,,,,,,,,,,,,,,,9,10,,,572.7307,2,right,0.1681,,0.5,0.3,"[3,1,2]",0.802034777,stimuli/card_10_transparent.png,10,2,0,2,0,1,,,,,,,,,,
,,,,60fe5c33f291d6b48032ba98,A,2024-05-24_13h07.39.313,Slot Machine Game,2023.1.3,MacIntel,62.11180124,,,,,,,,,,,,,,,,,,,,,,,,,,,30,,,,,,,,,,,,,,,,,,,,,9,10,,,574.2135,3,up,0.2324,,0.5,0.3,"[3,1,2]",0.047089401,stimuli/card_0_transparent.png,0,3,0,3,0,1,,,,,,,,,,
,,,,60fe5c33f291d6b48032ba98,A,2024-05-24_13h07.39.313,Slot Machine Game,2023.1.3,MacIntel,62.11180124,,,,,,,,,,,,,,,,,,,,,,,,,,,130,,,,,,,,,,,,,,,,,,,,,9,10,,,575.7642,4,up,0.2573,,1,0.3,"[3,1,2]",0.830891879,stimuli/card_100_transparent.png,100,4,0,4,0,1,,,,,,,,,,
,,,,60fe5c33f291d6b48032ba98,A,2024-05-24_13h07.39.313,Slot Machine Game,2023.1.3,MacIntel,62.11180124,,,,,,,,,,,,,,,,,,,,,,,,,,,230,,,,,,,,,,,,,,,,,,,,,9,10,,,577.8467,5,up,0.2348,,1.5,0.3,"[3,1,2]",0.711962404,stimuli/card_100_transparent.png,100,5,0,5,0,1,,,,,,,,,,
,,,,60fe5c33f291d6b48032ba98,A,2024-05-24_13h07.39.313,Slot Machine Game,2023.1.3,MacIntel,62.11180124,,,,,,,,,,,,,,,,,,,,,,,,,,,240,,,,,,,,,,,,,,,,,,,,,9,10,,,580.4092,6,up,0.1013,,0.5,0.3,"[3,1,2]",0.105927653,stimuli/card_10_transparent.png,10,6,0,6,0,1,,,,,,,,,,
,,,,60fe5c33f291d6b48032ba98,A,2024-05-24_13h07.39.313,Slot Machine Game,2023.1.3,MacIntel,62.11180124,,,,,,,,,,,,,,,,,,,,,,,,,,,340,,,,,,,,,,,,,,,,,,,,,9,10,,,581.8401,7,up,0.3502,,1,0.3,"[3,1,2]",0.815349151,stimuli/card_100_transparent.png,100,7,0,7,0,1,,,,,,,,,,
,,,,60fe5c33f291d6b48032ba98,A,2024-05-24_13h07.39.313,Slot Machine Game,2023.1.3,MacIntel,62.11180124,,,,,,,,,,,,,,,,,,,,,,,,,,,440,,,,,,,,,,,,,,,,,,,,,9,10,,,584.0228,8,up,0.1672,,1.5,0.3,"[3,1,2]",0.522719946,stimuli/card_100_transparent.png,100,8,0,8,0,1,,,,,,,,,,
,,,,60fe5c33f291d6b48032ba98,A,2024-05-24_13h07.39.313,Slot Machine Game,2023.1.3,MacIntel,62.11180124,,,,,,,,,,,,,,,,,,,,,,,,,,,540,,,,,,,,,,,,,,,,,,,,,9,10,,,586.5077,9,up,0.1073,,1.5,0.3,"[3,1,2]",0.29331464,stimuli/card_100_transparent.png,100,9,0,9,0,1,,,,,,,,,,
,,,,60fe5c33f291d6b48032ba98,A,2024-05-24_13h07.39.313,Slot Machine Game,2023.1.3,MacIntel,62.11180124,,,,,,,,,,,,,,,,,,,,,,,,,,,540,,,,,,,,,,,,,,,,,,,,,9,10,,,588.9298,10,up,0.0053,,1.5,0.3,"[1,3,2]",0.961541179,stimuli/card_0_transparent.png,0,10,0,10,0,1,,,,,,,,,,
,,,,60fe5c33f291d6b48032ba98,A,2024-05-24_13h07.39.313,Slot Machine Game,2023.1.3,MacIntel,62.11180124,,,,,,,,,,,,,,,,,,,,,,,,,,,540,,,,,,,,,,,,,,,,,,,,,9,10,,,591.2474,11,up,0.8902,,0.5,0.3,"[1,3,2]",0.53279202,stimuli/card_0_transparent.png,0,11,0,11,0,1,,,,,,,,,,
,,,,60fe5c33f291d6b48032ba98,A,2024-05-24_13h07.39.313,Slot Machine Game,2023.1.3,MacIntel,62.11180124,,,,,,,,,,,,,,,,,,,,,,,,,,,550,,,,,,,,,,,,,,,,,,,,,9,10,,,593.4631,12,up,0.0064,,0.5,0.3,"[1,3,2]",0.145812692,stimuli/card_10_transparent.png,10,12,0,12,0,1,,,,,,,,,,
,,,,60fe5c33f291d6b48032ba98,A,2024-05-24_13h07.39.313,Slot Machine Game,2023.1.3,MacIntel,62.11180124,,,,,,,,,,,,,,,,,,,,,,,,,,,650,,,,,,,,,,,,,,,,,,,,,9,10,,,594.7802,13,left,0.1872,,1,0.3,"[1,3,2]",0.912140437,stimuli/card_100_transparent.png,100,13,0,13,0,1,,,,,,,,,,
,,,,60fe5c33f291d6b48032ba98,A,2024-05-24_13h07.39.313,Slot Machine Game,2023.1.3,MacIntel,62.11180124,,,,,,,,,,,,,,,,,,,,,,,,,,,750,,,,,,,,,,,,,,,,,,,,,9,10,,,596.7802,14,left,0.3333,,1,0.3,"[1,3,2]",0.38900743,stimuli/card_100_transparent.png,100,14,0,14,0,1,,,,,,,,,,
,,,,60fe5c33f291d6b48032ba98,A,2024-05-24_13h07.39.313,Slot Machine Game,2023.1.3,MacIntel,62.11180124,,,,,,,,,,,,,,,,,,,,,,,,,,,,,,,,,,,598.9304,,,,,,,,,,,,,,,,,,,,,,,,,,,,,,,,,"[820,540,850,1030,260,940,650,540,750]",8,0,8,0,1,,,,
,,,,60fe5c33f291d6b48032ba98,A,2024-05-24_13h07.39.313,Slot Machine Game,2023.1.3,MacIntel,62.11180124,,,,,,,,,,,,,,,,,,,,,,,,,,,10,,,,,,,,,,,,,,,,,,,,,10,3,"[15,15]","[[3,1,2],[3,1,2]]",603.9479,0,right,0.7236,,0.5,0.3,"[3,1,2]",0.784828768,stimuli/card_10_transparent.png,10,0,0,0,0,1,,,,,,,,,,
,,,,60fe5c33f291d6b48032ba98,A,2024-05-24_13h07.39.313,Slot Machine Game,2023.1.3,MacIntel,62.11180124,,,,,,,,,,,,,,,,,,,,,,,,,,,20,,,,,,,,,,,,,,,,,,,,,10,3,,,605.9973,1,right,0.2702,,1,0.3,"[3,1,2]",0.751873574,stimuli/card_10_transparent.png,10,1,0,1,0,1,,,,,,,,,,
,,,,60fe5c33f291d6b48032ba98,A,2024-05-24_13h07.39.313,Slot Machine Game,2023.1.3,MacIntel,62.11180124,,,,,,,,,,,,,,,,,,,,,,,,,,,120,,,,,,,,,,,,,,,,,,,,,10,3,,,608.0973,2,up,0.1506,,1,0.3,"[3,1,2]",0.58779919,stimuli/card_100_transparent.png,100,2,0,2,0,1,,,,,,,,,,
,,,,60fe5c33f291d6b48032ba98,A,2024-05-24_13h07.39.313,Slot Machine Game,2023.1.3,MacIntel,62.11180124,,,,,,,,,,,,,,,,,,,,,,,,,,,130,,,,,,,,,,,,,,,,,,,,,10,3,,,610.0793,3,up,0.2149,,0.5,0.3,"[3,1,2]",0.149557828,stimuli/card_10_transparent.png,10,3,0,3,0,1,,,,,,,,,,
,,,,60fe5c33f291d6b48032ba98,A,2024-05-24_13h07.39.313,Slot Machine Game,2023.1.3,MacIntel,62.11180124,,,,,,,,,,,,,,,,,,,,,,,,,,,230,,,,,,,,,,,,,,,,,,,,,10,3,,,611.6138,4,up,0.4848,,1.5,0.3,"[3,1,2]",0.280393192,stimuli/card_100_transparent.png,100,4,0,4,0,1,,,,,,,,,,
,,,,60fe5c33f291d6b48032ba98,A,2024-05-24_13h07.39.313,Slot Machine Game,2023.1.3,MacIntel,62.11180124,,,,,,,,,,,,,,,,,,,,,,,,,,,330,,,,,,,,,,,,,,,,,,,,,10,3,,,614.4304,5,up,1.3707,,0.5,0.3,"[3,1,2]",0.200805572,stimuli/card_100_transparent.png,100,5,0,5,0,1,,,,,,,,,,
,,,,60fe5c33f291d6b48032ba98,A,2024-05-24_13h07.39.313,Slot Machine Game,2023.1.3,MacIntel,62.11180124,,,,,,,,,,,,,,,,,,,,,,,,,,,430,,,,,,,,,,,,,,,,,,,,,10,3,,,617.1305,6,up,0.2002,,1.5,0.3,"[3,1,2]",0.308310477,stimuli/card_100_transparent.png,100,6,0,6,0,1,,,,,,,,,,
,,,,60fe5c33f291d6b48032ba98,A,2024-05-24_13h07.39.313,Slot Machine Game,2023.1.3,MacIntel,62.11180124,,,,,,,,,,,,,,,,,,,,,,,,,,,430,,,,,,,,,,,,,,,,,,,,,10,3,,,619.6637,7,up,0.0548,,0.5,0.3,"[3,1,2]",0.062676947,stimuli/card_0_transparent.png,0,7,0,7,0,1,,,,,,,,,,
,,,,60fe5c33f291d6b48032ba98,A,2024-05-24_13h07.39.313,Slot Machine Game,2023.1.3,MacIntel,62.11180124,,,,,,,,,,,,,,,,,,,,,,,,,,,440,,,,,,,,,,,,,,,,,,,,,10,3,,,621.0469,8,up,0.1914,,1.5,0.3,"[3,1,2]",0.15927683,stimuli/card_10_transparent.png,10,8,0,8,0,1,,,,,,,,,,
,,,,60fe5c33f291d6b48032ba98,A,2024-05-24_13h07.39.313,Slot Machine Game,2023.1.3,MacIntel,62.11180124,,,,,,,,,,,,,,,,,,,,,,,,,,,440,,,,,,,,,,,,,,,,,,,,,10,3,,,623.5627,9,left,0.5006,,1,0.3,"[3,1,2]",0.541796354,stimuli/card_0_transparent.png,0,9,0,9,0,1,,,,,,,,,,
,,,,60fe5c33f291d6b48032ba98,A,2024-05-24_13h07.39.313,Slot Machine Game,2023.1.3,MacIntel,62.11180124,,,,,,,,,,,,,,,,,,,,,,,,,,,450,,,,,,,,,,,,,,,,,,,,,10,3,,,625.8803,10,left,0.0186,,1.5,0.3,"[3,1,2]",0.182622846,stimuli/card_10_transparent.png,10,10,0,10,0,1,,,,,,,,,,
,,,,60fe5c33f291d6b48032ba98,A,2024-05-24_13h07.39.313,Slot Machine Game,2023.1.3,MacIntel,62.11180124,,,,,,,,,,,,,,,,,,,,,,,,,,,550,,,,,,,,,,,,,,,,,,,,,10,3,,,628.2302,11,right,0.0251,,1.5,0.3,"[3,1,2]",0.11107907,stimuli/card_100_transparent.png,100,11,0,11,0,1,,,,,,,,,,
,,,,60fe5c33f291d6b48032ba98,A,2024-05-24_13h07.39.313,Slot Machine Game,2023.1.3,MacIntel,62.11180124,,,,,,,,,,,,,,,,,,,,,,,,,,,560,,,,,,,,,,,,,,,,,,,,,10,3,,,630.5803,12,right,0.1001,,1.5,0.3,"[3,1,2]",0.488898721,stimuli/card_10_transparent.png,10,12,0,12,0,1,,,,,,,,,,
,,,,60fe5c33f291d6b48032ba98,A,2024-05-24_13h07.39.313,Slot Machine Game,2023.1.3,MacIntel,62.11180124,,,,,,,,,,,,,,,,,,,,,,,,,,,570,,,,,,,,,,,,,,,,,,,,,10,3,,,633.0134,13,right,0.469,,0.5,0.3,"[3,1,2]",0.624010284,stimuli/card_10_transparent.png,10,13,0,13,0,1,,,,,,,,,,
,,,,60fe5c33f291d6b48032ba98,A,2024-05-24_13h07.39.313,Slot Machine Game,2023.1.3,MacIntel,62.11180124,,,,,,,,,,,,,,,,,,,,,,,,,,,670,,,,,,,,,,,,,,,,,,,,,10,3,,,634.8136,14,up,0.1406,,0.5,0.3,"[3,1,2]",0.505967271,stimuli/card_100_transparent.png,100,14,0,14,0,1,,,,,,,,,,
,,,,60fe5c33f291d6b48032ba98,A,2024-05-24_13h07.39.313,Slot Machine Game,2023.1.3,MacIntel,62.11180124,,,,,,,,,,,,,,,,,,,,,,,,,,,,,,,,,,,636.2801,,,,,,,,,,,,,,,,,,,,,,,,,,,,,,,,,"[820,540,850,1030,260,940,650,540,750,670]",9,0,9,0,1,,,,
,,,,60fe5c33f291d6b48032ba98,A,2024-05-24_13h07.39.313,Slot Machine Game,2023.1.3,MacIntel,62.11180124,,,,,,,,,,,,,,,,,,,,,,,,,,,,,,,,,,,,,,,,,,,,,,,,,,,,,,,,,,,,,,,,,,,,,,,,,,9,"[820,540,850,1030,260,940,650,540,750,670]",8.5,2024-05-24_13h18.24.804
