key_resp_welcome_started,key_resp_welcome_keys,key_resp_welcome_rt,key_resp_welcome_duration,prolific_pid,path_id,date,expName,psychopyVersion,OS,frameRate,key_resp_instruction1_started,key_resp_instruction1_keys,key_resp_instruction1_rt,key_resp_instruction1_duration,key_resp_instruction2_started,key_resp_instruction2_keys,key_resp_instruction2_rt,key_resp_instruction2_duration,key_resp_instruction3_started,key_resp_instruction3_keys,key_resp_instruction3_rt,key_resp_instruction3_duration,key_resp_instruction4_started,key_resp_instruction4_keys,key_resp_instruction4_rt,key_resp_instruction4_duration,practiceCondition,practice_reward_seqs,practice_trial_started,practice_trial_num,prac_presentationInterval,practice_reward_seq,practice_trials.thisRepN,practice_trials.thisTrialN,practice_trials.thisN,practice_trials.thisIndex,practice_trials.ran,practice_resp_rt,practice_keypress_time,practice_resp_keys,reward_img,cumulative_reward,trial_reward,block_break_started,practice_end_time,practice_end_keys,practice_end_rt,practice_end_duration,main_instruction_text_started,block_condition,block_order_indices,main_instruction_keys,main_instruction_rt,main_instruction_duration,block_number,block_assignment,current_condition,main_reward_seqs,main_trial_started,main_trial_num,main_trial_keys,main_trial_rt,main_trial_keypress_time,main_presentationInterval,reward_presentation_time,main_reward_seq,reward_rand_val,main_reward_img,current_reward,main_trials.thisRepN,main_trials.thisTrialN,main_trials.thisN,main_trials.thisIndex,main_trials.ran,block_reward,block.thisRepN,block.thisTrialN,block.thisN,block.thisIndex,block.ran,block_reward.length,block_reward_all,reward_amount,date_end_task
0.0002,space,3.3662,,65bba472faad5088563e8ff3,B,2024-08-17_08h06.02.957,Slot Machine Game,2023.1.3,Win32,60.60606061,,,,,,,,,,,,,,,,,,,,,,,,,,,,,,,,,,,,,,,,,,,,,,,,,,,,,,,,,,,,,,,,,,,,,,,,,,
,,,,65bba472faad5088563e8ff3,B,2024-08-17_08h06.02.957,Slot Machine Game,2023.1.3,Win32,60.60606061,3.3747,space,13.0903,,,,,,,,,,,,,,,,,,,,,,,,,,,,,,,,,,,,,,,,,,,,,,,,,,,,,,,,,,,,,,,,,,,,,,,
,,,,65bba472faad5088563e8ff3,B,2024-08-17_08h06.02.957,Slot Machine Game,2023.1.3,Win32,60.60606061,,,,,16.4838,space,42.4838,,,,,,,,,,,,,,,,,,,,,,,,,,,,,,,,,,,,,,,,,,,,,,,,,,,,,,,,,,,,,,,,,,,
,,,,65bba472faad5088563e8ff3,B,2024-08-17_08h06.02.957,Slot Machine Game,2023.1.3,Win32,60.60606061,,,,,,,,,59.0133,space,9.1979,,,,,,,,,,,,,,,,,,,,,,,,,,,,,,,,,,,,,,,,,,,,,,,,,,,,,,,,,,,,,,,
,,,,65bba472faad5088563e8ff3,B,2024-08-17_08h06.02.957,Slot Machine Game,2023.1.3,Win32,60.60606061,,,,,,,,,,,,,,,,,,,,,,,,,,,,,,,,,,,,,,,,,,,,,,,,,,,,,,,,,,,,,,,,,,,,,,,,,,
,,,,65bba472faad5088563e8ff3,B,2024-08-17_08h06.02.957,Slot Machine Game,2023.1.3,Win32,60.60606061,,,,,,,,,,,,,210.6105,space,5.0301,,,,,,,,,,,,,,,,,,,,,,,,,,,,,,,,,,,,,,,,,,,,,,,,,,,,,,,,,,,
,,,,65bba472faad5088563e8ff3,B,2024-08-17_08h06.02.957,Slot Machine Game,2023.1.3,Win32,60.60606061,,,,,,,,,,,,,,,,,"[9,15]","[[2,1,3],[2,3,1]]",215.6824,0,0.5,"[2,1,3]",0,0,0,0,1,,,,,,,,,,,,,,,,,,,,,,,,,,,,,,,,,,,,,,,,,,,,,,,
,,,,65bba472faad5088563e8ff3,B,2024-08-17_08h06.02.957,Slot Machine Game,2023.1.3,Win32,60.60606061,,,,,,,,,,,,,,,,,,,221.2167,1,1.5,"[2,1,3]",1,0,1,0,1,1.1708,222.4075,left,stimuli/card_10_transparent.png,10,10,,,,,,,,,,,,,,,,,,,,,,,,,,,,,,,,,,,,,,,,,
,,,,65bba472faad5088563e8ff3,B,2024-08-17_08h06.02.957,Slot Machine Game,2023.1.3,Win32,60.60606061,,,,,,,,,,,,,,,,,,,224.2073,2,1.5,"[2,1,3]",2,0,2,0,1,1.1341,225.3739,left,stimuli/card_100_transparent.png,110,100,,,,,,,,,,,,,,,,,,,,,,,,,,,,,,,,,,,,,,,,,
,,,,65bba472faad5088563e8ff3,B,2024-08-17_08h06.02.957,Slot Machine Game,2023.1.3,Win32,60.60606061,,,,,,,,,,,,,,,,,,,227.1733,3,0.5,"[2,1,3]",3,0,3,0,1,0.8124,228.007,left,stimuli/card_10_transparent.png,120,10,,,,,,,,,,,,,,,,,,,,,,,,,,,,,,,,,,,,,,,,,
,,,,65bba472faad5088563e8ff3,B,2024-08-17_08h06.02.957,Slot Machine Game,2023.1.3,Win32,60.60606061,,,,,,,,,,,,,,,,,,,228.8064,4,0.5,"[2,1,3]",4,0,4,0,1,2.301,231.1396,up,stimuli/card_10_transparent.png,130,10,,,,,,,,,,,,,,,,,,,,,,,,,,,,,,,,,,,,,,,,,
,,,,65bba472faad5088563e8ff3,B,2024-08-17_08h06.02.957,Slot Machine Game,2023.1.3,Win32,60.60606061,,,,,,,,,,,,,,,,,,,231.9395,5,0.5,"[2,1,3]",5,0,5,0,1,0.9891,232.956,up,stimuli/card_100_transparent.png,230,100,,,,,,,,,,,,,,,,,,,,,,,,,,,,,,,,,,,,,,,,,
,,,,65bba472faad5088563e8ff3,B,2024-08-17_08h06.02.957,Slot Machine Game,2023.1.3,Win32,60.60606061,,,,,,,,,,,,,,,,,,,233.7559,6,1.5,"[2,1,3]",6,0,6,0,1,0.5681,234.3559,up,stimuli/card_100_transparent.png,330,100,,,,,,,,,,,,,,,,,,,,,,,,,,,,,,,,,,,,,,,,,
,,,,65bba472faad5088563e8ff3,B,2024-08-17_08h06.02.957,Slot Machine Game,2023.1.3,Win32,60.60606061,,,,,,,,,,,,,,,,,,,236.1556,7,0.5,"[2,1,3]",7,0,7,0,1,1.5482,237.7381,right,stimuli/card_0_transparent.png,330,0,,,,,,,,,,,,,,,,,,,,,,,,,,,,,,,,,,,,,,,,,
,,,,65bba472faad5088563e8ff3,B,2024-08-17_08h06.02.957,Slot Machine Game,2023.1.3,Win32,60.60606061,,,,,,,,,,,,,,,,,,,238.5386,8,1.5,"[2,1,3]",8,0,8,0,1,1.1193,239.6885,right,stimuli/card_100_transparent.png,430,100,,,,,,,,,,,,,,,,,,,,,,,,,,,,,,,,,,,,,,,,,
,,,,65bba472faad5088563e8ff3,B,2024-08-17_08h06.02.957,Slot Machine Game,2023.1.3,Win32,60.60606061,,,,,,,,,,,,,,,,,,,241.4879,9,0.5,"[2,3,1]",9,0,9,0,1,0.7236,242.2384,right,stimuli/card_0_transparent.png,430,0,,,,,,,,,,,,,,,,,,,,,,,,,,,,,,,,,,,,,,,,,
,,,,65bba472faad5088563e8ff3,B,2024-08-17_08h06.02.957,Slot Machine Game,2023.1.3,Win32,60.60606061,,,,,,,,,,,,,,,,,,,243.0379,10,1,"[2,3,1]",10,0,10,0,1,1.8176,244.888,up,stimuli/card_0_transparent.png,430,0,,,,,,,,,,,,,,,,,,,,,,,,,,,,,,,,,,,,,,,,,
,,,,65bba472faad5088563e8ff3,B,2024-08-17_08h06.02.957,Slot Machine Game,2023.1.3,Win32,60.60606061,,,,,,,,,,,,,,,,,,,246.1878,11,1.5,"[2,3,1]",11,0,11,0,1,0.9186,247.1376,up,stimuli/card_100_transparent.png,530,100,,,,,,,,,,,,,,,,,,,,,,,,,,,,,,,,,,,,,,,,,
,,,,65bba472faad5088563e8ff3,B,2024-08-17_08h06.02.957,Slot Machine Game,2023.1.3,Win32,60.60606061,,,,,,,,,,,,,,,,,,,248.9365,12,0.5,"[2,3,1]",12,0,12,0,1,1.2689,250.2195,up,stimuli/card_10_transparent.png,540,10,,,,,,,,,,,,,,,,,,,,,,,,,,,,,,,,,,,,,,,,,
,,,,65bba472faad5088563e8ff3,B,2024-08-17_08h06.02.957,Slot Machine Game,2023.1.3,Win32,60.60606061,,,,,,,,,,,,,,,,,,,251.0195,13,0.5,"[2,3,1]",13,0,13,0,1,2.3873,253.4363,right,stimuli/card_100_transparent.png,640,100,,,,,,,,,,,,,,,,,,,,,,,,,,,,,,,,,,,,,,,,,
,,,,65bba472faad5088563e8ff3,B,2024-08-17_08h06.02.957,Slot Machine Game,2023.1.3,Win32,60.60606061,,,,,,,,,,,,,,,,,,,254.236,14,1,"[2,3,1]",14,0,14,0,1,0.8546,255.1192,right,stimuli/card_10_transparent.png,650,10,,,,,,,,,,,,,,,,,,,,,,,,,,,,,,,,,,,,,,,,,
,,,,65bba472faad5088563e8ff3,B,2024-08-17_08h06.02.957,Slot Machine Game,2023.1.3,Win32,60.60606061,,,,,,,,,,,,,,,,,"[6,15]","[[1,3,2],[3,1,2]]",261.4548,0,1.5,"[1,3,2]",0,0,0,0,1,1.4171,262.9024,left,stimuli/card_100_transparent.png,100,100,256.4385,,,,,,,,,,,,,,,,,,,,,,,,,,,,,,,,,,,,,,,,
,,,,65bba472faad5088563e8ff3,B,2024-08-17_08h06.02.957,Slot Machine Game,2023.1.3,Win32,60.60606061,,,,,,,,,,,,,,,,,,,264.7018,1,1.5,"[1,3,2]",1,0,1,0,1,0.6703,265.4014,left,stimuli/card_100_transparent.png,200,100,,,,,,,,,,,,,,,,,,,,,,,,,,,,,,,,,,,,,,,,,
,,,,65bba472faad5088563e8ff3,B,2024-08-17_08h06.02.957,Slot Machine Game,2023.1.3,Win32,60.60606061,,,,,,,,,,,,,,,,,,,267.2011,2,0.5,"[1,3,2]",2,0,2,0,1,2.7066,269.9342,left,stimuli/card_100_transparent.png,300,100,,,,,,,,,,,,,,,,,,,,,,,,,,,,,,,,,,,,,,,,,
,,,,65bba472faad5088563e8ff3,B,2024-08-17_08h06.02.957,Slot Machine Game,2023.1.3,Win32,60.60606061,,,,,,,,,,,,,,,,,,,270.7339,3,0.5,"[1,3,2]",3,0,3,0,1,2.8993,273.6669,left,stimuli/card_100_transparent.png,400,100,,,,,,,,,,,,,,,,,,,,,,,,,,,,,,,,,,,,,,,,,
,,,,65bba472faad5088563e8ff3,B,2024-08-17_08h06.02.957,Slot Machine Game,2023.1.3,Win32,60.60606061,,,,,,,,,,,,,,,,,,,274.4664,4,1,"[1,3,2]",4,0,4,0,1,2.5841,277.0665,left,stimuli/card_0_transparent.png,400,0,,,,,,,,,,,,,,,,,,,,,,,,,,,,,,,,,,,,,,,,,
,,,,65bba472faad5088563e8ff3,B,2024-08-17_08h06.02.957,Slot Machine Game,2023.1.3,Win32,60.60606061,,,,,,,,,,,,,,,,,,,278.3662,5,1,"[1,3,2]",5,0,5,0,1,0.6557,279.0496,left,stimuli/card_10_transparent.png,410,10,,,,,,,,,,,,,,,,,,,,,,,,,,,,,,,,,,,,,,,,,
,,,,65bba472faad5088563e8ff3,B,2024-08-17_08h06.02.957,Slot Machine Game,2023.1.3,Win32,60.60606061,,,,,,,,,,,,,,,,,,,280.3495,6,0.5,"[3,1,2]",6,0,6,0,1,0.5039,280.8825,left,stimuli/card_0_transparent.png,410,0,,,,,,,,,,,,,,,,,,,,,,,,,,,,,,,,,,,,,,,,,
,,,,65bba472faad5088563e8ff3,B,2024-08-17_08h06.02.957,Slot Machine Game,2023.1.3,Win32,60.60606061,,,,,,,,,,,,,,,,,,,281.6823,7,0.5,"[3,1,2]",7,0,7,0,1,1.9849,283.6991,up,stimuli/card_100_transparent.png,510,100,,,,,,,,,,,,,,,,,,,,,,,,,,,,,,,,,,,,,,,,,
,,,,65bba472faad5088563e8ff3,B,2024-08-17_08h06.02.957,Slot Machine Game,2023.1.3,Win32,60.60606061,,,,,,,,,,,,,,,,,,,284.4988,8,0.5,"[3,1,2]",8,0,8,0,1,0.8001,285.332,up,stimuli/card_100_transparent.png,610,100,,,,,,,,,,,,,,,,,,,,,,,,,,,,,,,,,,,,,,,,,
,,,,65bba472faad5088563e8ff3,B,2024-08-17_08h06.02.957,Slot Machine Game,2023.1.3,Win32,60.60606061,,,,,,,,,,,,,,,,,,,286.1317,9,1,"[3,1,2]",9,0,9,0,1,0.695,286.8317,up,stimuli/card_10_transparent.png,620,10,,,,,,,,,,,,,,,,,,,,,,,,,,,,,,,,,,,,,,,,,
,,,,65bba472faad5088563e8ff3,B,2024-08-17_08h06.02.957,Slot Machine Game,2023.1.3,Win32,60.60606061,,,,,,,,,,,,,,,,,,,288.1318,10,0.5,"[3,1,2]",10,0,10,0,1,0.7085,288.8649,up,stimuli/card_100_transparent.png,720,100,,,,,,,,,,,,,,,,,,,,,,,,,,,,,,,,,,,,,,,,,
,,,,65bba472faad5088563e8ff3,B,2024-08-17_08h06.02.957,Slot Machine Game,2023.1.3,Win32,60.60606061,,,,,,,,,,,,,,,,,,,289.6646,11,1.5,"[3,1,2]",11,0,11,0,1,0.5841,290.2648,up,stimuli/card_100_transparent.png,820,100,,,,,,,,,,,,,,,,,,,,,,,,,,,,,,,,,,,,,,,,,
,,,,65bba472faad5088563e8ff3,B,2024-08-17_08h06.02.957,Slot Machine Game,2023.1.3,Win32,60.60606061,,,,,,,,,,,,,,,,,,,292.0651,12,1.5,"[3,1,2]",12,0,12,0,1,0.5454,292.6317,up,stimuli/card_100_transparent.png,920,100,,,,,,,,,,,,,,,,,,,,,,,,,,,,,,,,,,,,,,,,,
,,,,65bba472faad5088563e8ff3,B,2024-08-17_08h06.02.957,Slot Machine Game,2023.1.3,Win32,60.60606061,,,,,,,,,,,,,,,,,,,294.4314,13,1.5,"[3,1,2]",13,0,13,0,1,1.5072,295.9647,up,stimuli/card_10_transparent.png,930,10,,,,,,,,,,,,,,,,,,,,,,,,,,,,,,,,,,,,,,,,,
,,,,65bba472faad5088563e8ff3,B,2024-08-17_08h06.02.957,Slot Machine Game,2023.1.3,Win32,60.60606061,,,,,,,,,,,,,,,,,,,297.7642,14,1,"[3,1,2]",14,0,14,0,1,0.9752,298.7642,up,stimuli/card_100_transparent.png,1030,100,,,,,,,,,,,,,,,,,,,,,,,,,,,,,,,,,,,,,,,,,
,,,,65bba472faad5088563e8ff3,B,2024-08-17_08h06.02.957,Slot Machine Game,2023.1.3,Win32,60.60606061,,,,,,,,,,,,,,,,,,,,,,,,,,,,,,,,,,300.0642,305.0648,space,4.165,,,,,,,,,,,,,,,,,,,,,,,,,,,,,,,,,,,,,
,,,,65bba472faad5088563e8ff3,B,2024-08-17_08h06.02.957,Slot Machine Game,2023.1.3,Win32,60.60606061,,,,,,,,,,,,,,,,,,,,,,,,,,,,,,,,,,,,,,,309.2479,3,"[0,4,6,3,5,7,8,1,9,2]",space,7.6637,,,,,,,,,,,,,,,,,,,,,,,,,,,,,,,
,,,,65bba472faad5088563e8ff3,B,2024-08-17_08h06.02.957,Slot Machine Game,2023.1.3,Win32,60.60606061,,,,,,,,,,,,,,,,,,,,,,,,,,,,,,,,0,,,,,,,,,,,,,1,1,"[12,15]","[[2,1,3],[2,3,1]]",316.9515,0,left,0.7241,317.6955,1,0.3,"[2,1,3]",0.061156511,stimuli/card_0_transparent.png,0,0,0,0,0,1,,,,,,,,,,
,,,,65bba472faad5088563e8ff3,B,2024-08-17_08h06.02.957,Slot Machine Game,2023.1.3,Win32,60.60606061,,,,,,,,,,,,,,,,,,,,,,,,,,,,,,,,100,,,,,,,,,,,,,1,1,,,318.9951,1,up,1.2245,320.2446,0.5,0.3,"[2,1,3]",0.551445418,stimuli/card_100_transparent.png,100,1,0,1,0,1,,,,,,,,,,
,,,,65bba472faad5088563e8ff3,B,2024-08-17_08h06.02.957,Slot Machine Game,2023.1.3,Win32,60.60606061,,,,,,,,,,,,,,,,,,,,,,,,,,,,,,,,200,,,,,,,,,,,,,1,1,,,321.0445,2,up,0.579,321.6442,0.5,0.3,"[2,1,3]",0.438461149,stimuli/card_100_transparent.png,100,2,0,2,0,1,,,,,,,,,,
,,,,65bba472faad5088563e8ff3,B,2024-08-17_08h06.02.957,Slot Machine Game,2023.1.3,Win32,60.60606061,,,,,,,,,,,,,,,,,,,,,,,,,,,,,,,,300,,,,,,,,,,,,,1,1,,,322.4438,3,up,0.5331,323.0107,1.5,0.3,"[2,1,3]",0.825831817,stimuli/card_100_transparent.png,100,3,0,3,0,1,,,,,,,,,,
,,,,65bba472faad5088563e8ff3,B,2024-08-17_08h06.02.957,Slot Machine Game,2023.1.3,Win32,60.60606061,,,,,,,,,,,,,,,,,,,,,,,,,,,,,,,,400,,,,,,,,,,,,,1,1,,,324.811,4,up,1.1058,325.9439,1.5,0.3,"[2,1,3]",0.344847733,stimuli/card_100_transparent.png,100,4,0,4,0,1,,,,,,,,,,
,,,,65bba472faad5088563e8ff3,B,2024-08-17_08h06.02.957,Slot Machine Game,2023.1.3,Win32,60.60606061,,,,,,,,,,,,,,,,,,,,,,,,,,,,,,,,500,,,,,,,,,,,,,1,1,,,327.7438,5,up,2.1277,329.8936,0.5,0.3,"[2,1,3]",0.98663935,stimuli/card_100_transparent.png,100,5,0,5,0,1,,,,,,,,,,
,,,,65bba472faad5088563e8ff3,B,2024-08-17_08h06.02.957,Slot Machine Game,2023.1.3,Win32,60.60606061,,,,,,,,,,,,,,,,,,,,,,,,,,,,,,,,510,,,,,,,,,,,,,1,1,,,330.6931,6,up,0.6332,331.3433,1.5,0.3,"[2,1,3]",0.111563591,stimuli/card_10_transparent.png,10,6,0,6,0,1,,,,,,,,,,
,,,,65bba472faad5088563e8ff3,B,2024-08-17_08h06.02.957,Slot Machine Game,2023.1.3,Win32,60.60606061,,,,,,,,,,,,,,,,,,,,,,,,,,,,,,,,610,,,,,,,,,,,,,1,1,,,333.1429,7,up,2.0041,335.1756,1.5,0.3,"[2,1,3]",0.712713515,stimuli/card_100_transparent.png,100,7,0,7,0,1,,,,,,,,,,
,,,,65bba472faad5088563e8ff3,B,2024-08-17_08h06.02.957,Slot Machine Game,2023.1.3,Win32,60.60606061,,,,,,,,,,,,,,,,,,,,,,,,,,,,,,,,710,,,,,,,,,,,,,1,1,,,336.9756,8,up,1.3355,338.3425,1,0.3,"[2,1,3]",0.945499676,stimuli/card_100_transparent.png,100,8,0,8,0,1,,,,,,,,,,
,,,,65bba472faad5088563e8ff3,B,2024-08-17_08h06.02.957,Slot Machine Game,2023.1.3,Win32,60.60606061,,,,,,,,,,,,,,,,,,,,,,,,,,,,,,,,810,,,,,,,,,,,,,1,1,,,339.6419,9,up,2.4381,342.1085,1.5,0.3,"[2,1,3]",0.784947582,stimuli/card_100_transparent.png,100,9,0,9,0,1,,,,,,,,,,
,,,,65bba472faad5088563e8ff3,B,2024-08-17_08h06.02.957,Slot Machine Game,2023.1.3,Win32,60.60606061,,,,,,,,,,,,,,,,,,,,,,,,,,,,,,,,820,,,,,,,,,,,,,1,1,,,343.9082,10,up,2.3431,346.2746,0.5,0.3,"[2,1,3]",0.118640642,stimuli/card_10_transparent.png,10,10,0,10,0,1,,,,,,,,,,
,,,,65bba472faad5088563e8ff3,B,2024-08-17_08h06.02.957,Slot Machine Game,2023.1.3,Win32,60.60606061,,,,,,,,,,,,,,,,,,,,,,,,,,,,,,,,920,,,,,,,,,,,,,1,1,,,347.0745,11,up,2.6586,349.7586,1,0.3,"[2,1,3]",0.689485099,stimuli/card_100_transparent.png,100,11,0,11,0,1,,,,,,,,,,
,,,,65bba472faad5088563e8ff3,B,2024-08-17_08h06.02.957,Slot Machine Game,2023.1.3,Win32,60.60606061,,,,,,,,,,,,,,,,,,,,,,,,,,,,,,,,920,,,,,,,,,,,,,1,1,,,351.0574,12,up,2.7015,353.7914,0.5,0.3,"[2,3,1]",0.653710511,stimuli/card_0_transparent.png,0,12,0,12,0,1,,,,,,,,,,
,,,,65bba472faad5088563e8ff3,B,2024-08-17_08h06.02.957,Slot Machine Game,2023.1.3,Win32,60.60606061,,,,,,,,,,,,,,,,,,,,,,,,,,,,,,,,920,,,,,,,,,,,,,1,1,,,354.5902,13,up,0.9206,355.5402,0.5,0.3,"[2,3,1]",0.572939901,stimuli/card_0_transparent.png,0,13,0,13,0,1,,,,,,,,,,
,,,,65bba472faad5088563e8ff3,B,2024-08-17_08h06.02.957,Slot Machine Game,2023.1.3,Win32,60.60606061,,,,,,,,,,,,,,,,,,,,,,,,,,,,,,,,920,,,,,,,,,,,,,1,1,,,356.3402,14,up,0.6442,357.0063,1.5,0.3,"[2,3,1]",0.29363623,stimuli/card_0_transparent.png,0,14,0,14,0,1,,,,,,,,,,
,,,,65bba472faad5088563e8ff3,B,2024-08-17_08h06.02.957,Slot Machine Game,2023.1.3,Win32,60.60606061,,,,,,,,,,,,,,,,,,,,,,,,,,,,,,,,,,358.8064,,,,,,,,,,,,,,,,,,,,,,,,,,,,,,,[920],0,0,0,0,1,,,,
,,,,65bba472faad5088563e8ff3,B,2024-08-17_08h06.02.957,Slot Machine Game,2023.1.3,Win32,60.60606061,,,,,,,,,,,,,,,,,,,,,,,,,,,,,,,,100,,,,,,,,,,,,,2,5,"[5,15]","[[1,2,3],[3,1,2]]",363.8253,0,right,1.4623,365.3059,1.5,0.3,"[1,2,3]",0.049860207,stimuli/card_100_transparent.png,100,0,0,0,0,1,,,,,,,,,,
,,,,65bba472faad5088563e8ff3,B,2024-08-17_08h06.02.957,Slot Machine Game,2023.1.3,Win32,60.60606061,,,,,,,,,,,,,,,,,,,,,,,,,,,,,,,,100,,,,,,,,,,,,,2,5,,,367.1054,1,right,0.5736,367.7052,0.5,0.3,"[1,2,3]",0.247238065,stimuli/card_0_transparent.png,0,1,0,1,0,1,,,,,,,,,,
,,,,65bba472faad5088563e8ff3,B,2024-08-17_08h06.02.957,Slot Machine Game,2023.1.3,Win32,60.60606061,,,,,,,,,,,,,,,,,,,,,,,,,,,,,,,,100,,,,,,,,,,,,,2,5,,,368.5052,2,right,1.061,369.588,0.5,0.3,"[1,2,3]",0.434019103,stimuli/card_0_transparent.png,0,2,0,2,0,1,,,,,,,,,,
,,,,65bba472faad5088563e8ff3,B,2024-08-17_08h06.02.957,Slot Machine Game,2023.1.3,Win32,60.60606061,,,,,,,,,,,,,,,,,,,,,,,,,,,,,,,,110,,,,,,,,,,,,,2,5,,,370.3905,3,up,1.4761,371.8882,0.5,0.3,"[1,2,3]",0.549551467,stimuli/card_10_transparent.png,10,3,0,3,0,1,,,,,,,,,,
,,,,65bba472faad5088563e8ff3,B,2024-08-17_08h06.02.957,Slot Machine Game,2023.1.3,Win32,60.60606061,,,,,,,,,,,,,,,,,,,,,,,,,,,,,,,,120,,,,,,,,,,,,,2,5,,,372.6877,4,up,0.7012,373.4211,1,0.3,"[1,2,3]",0.42877489,stimuli/card_10_transparent.png,10,4,0,4,0,1,,,,,,,,,,
,,,,65bba472faad5088563e8ff3,B,2024-08-17_08h06.02.957,Slot Machine Game,2023.1.3,Win32,60.60606061,,,,,,,,,,,,,,,,,,,,,,,,,,,,,,,,220,,,,,,,,,,,,,2,5,,,374.7207,5,up,0.7605,375.4877,1.5,0.3,"[3,1,2]",0.375693914,stimuli/card_100_transparent.png,100,5,0,5,0,1,,,,,,,,,,
,,,,65bba472faad5088563e8ff3,B,2024-08-17_08h06.02.957,Slot Machine Game,2023.1.3,Win32,60.60606061,,,,,,,,,,,,,,,,,,,,,,,,,,,,,,,,220,,,,,,,,,,,,,2,5,,,377.2875,6,left,0.587,377.9039,1,0.3,"[3,1,2]",0.260754521,stimuli/card_0_transparent.png,0,6,0,6,0,1,,,,,,,,,,
,,,,65bba472faad5088563e8ff3,B,2024-08-17_08h06.02.957,Slot Machine Game,2023.1.3,Win32,60.60606061,,,,,,,,,,,,,,,,,,,,,,,,,,,,,,,,220,,,,,,,,,,,,,2,5,,,379.2038,7,left,0.5406,379.7704,1,0.3,"[3,1,2]",0.2540428,stimuli/card_0_transparent.png,0,7,0,7,0,1,,,,,,,,,,
,,,,65bba472faad5088563e8ff3,B,2024-08-17_08h06.02.957,Slot Machine Game,2023.1.3,Win32,60.60606061,,,,,,,,,,,,,,,,,,,,,,,,,,,,,,,,230,,,,,,,,,,,,,2,5,,,381.0702,8,left,0.6917,381.7869,0.5,0.3,"[3,1,2]",0.144906422,stimuli/card_10_transparent.png,10,8,0,8,0,1,,,,,,,,,,
,,,,65bba472faad5088563e8ff3,B,2024-08-17_08h06.02.957,Slot Machine Game,2023.1.3,Win32,60.60606061,,,,,,,,,,,,,,,,,,,,,,,,,,,,,,,,330,,,,,,,,,,,,,2,5,,,382.5868,9,up,2.2595,384.8696,1,0.3,"[3,1,2]",0.219125326,stimuli/card_100_transparent.png,100,9,0,9,0,1,,,,,,,,,,
,,,,65bba472faad5088563e8ff3,B,2024-08-17_08h06.02.957,Slot Machine Game,2023.1.3,Win32,60.60606061,,,,,,,,,,,,,,,,,,,,,,,,,,,,,,,,430,,,,,,,,,,,,,2,5,,,386.1695,10,up,0.5388,386.736,1.5,0.3,"[3,1,2]",0.717261846,stimuli/card_100_transparent.png,100,10,0,10,0,1,,,,,,,,,,
,,,,65bba472faad5088563e8ff3,B,2024-08-17_08h06.02.957,Slot Machine Game,2023.1.3,Win32,60.60606061,,,,,,,,,,,,,,,,,,,,,,,,,,,,,,,,530,,,,,,,,,,,,,2,5,,,388.536,11,up,2.0791,390.6355,1,0.3,"[3,1,2]",0.416504106,stimuli/card_100_transparent.png,100,11,0,11,0,1,,,,,,,,,,
,,,,65bba472faad5088563e8ff3,B,2024-08-17_08h06.02.957,Slot Machine Game,2023.1.3,Win32,60.60606061,,,,,,,,,,,,,,,,,,,,,,,,,,,,,,,,630,,,,,,,,,,,,,2,5,,,391.9354,12,up,0.5995,392.556,1.5,0.3,"[3,1,2]",0.547100821,stimuli/card_100_transparent.png,100,12,0,12,0,1,,,,,,,,,,
,,,,65bba472faad5088563e8ff3,B,2024-08-17_08h06.02.957,Slot Machine Game,2023.1.3,Win32,60.60606061,,,,,,,,,,,,,,,,,,,,,,,,,,,,,,,,730,,,,,,,,,,,,,2,5,,,394.3521,13,up,2.249,396.6217,1.5,0.3,"[3,1,2]",0.730421165,stimuli/card_100_transparent.png,100,13,0,13,0,1,,,,,,,,,,
,,,,65bba472faad5088563e8ff3,B,2024-08-17_08h06.02.957,Slot Machine Game,2023.1.3,Win32,60.60606061,,,,,,,,,,,,,,,,,,,,,,,,,,,,,,,,830,,,,,,,,,,,,,2,5,,,398.418,14,up,1.7377,400.1847,0.5,0.3,"[3,1,2]",0.656405354,stimuli/card_100_transparent.png,100,14,0,14,0,1,,,,,,,,,,
,,,,65bba472faad5088563e8ff3,B,2024-08-17_08h06.02.957,Slot Machine Game,2023.1.3,Win32,60.60606061,,,,,,,,,,,,,,,,,,,,,,,,,,,,,,,,,,400.9846,,,,,,,,,,,,,,,,,,,,,,,,,,,,,,,"[920,830]",1,0,1,0,1,,,,
,,,,65bba472faad5088563e8ff3,B,2024-08-17_08h06.02.957,Slot Machine Game,2023.1.3,Win32,60.60606061,,,,,,,,,,,,,,,,,,,,,,,,,,,,,,,,100,,,,,,,,,,,,,3,7,"[9,15]","[[1,3,2],[2,3,1]]",406.0051,0,left,0.6503,406.6837,1.5,0.3,"[1,3,2]",0.49779894,stimuli/card_100_transparent.png,100,0,0,0,0,1,,,,,,,,,,
,,,,65bba472faad5088563e8ff3,B,2024-08-17_08h06.02.957,Slot Machine Game,2023.1.3,Win32,60.60606061,,,,,,,,,,,,,,,,,,,,,,,,,,,,,,,,100,,,,,,,,,,,,,3,7,,,408.4834,1,left,2.6678,411.1845,0.5,0.3,"[1,3,2]",0.036140227,stimuli/card_0_transparent.png,0,1,0,1,0,1,,,,,,,,,,
,,,,65bba472faad5088563e8ff3,B,2024-08-17_08h06.02.957,Slot Machine Game,2023.1.3,Win32,60.60606061,,,,,,,,,,,,,,,,,,,,,,,,,,,,,,,,200,,,,,,,,,,,,,3,7,,,411.9831,2,left,2.0927,414.0996,0.5,0.3,"[1,3,2]",0.248514827,stimuli/card_100_transparent.png,100,2,0,2,0,1,,,,,,,,,,
,,,,65bba472faad5088563e8ff3,B,2024-08-17_08h06.02.957,Slot Machine Game,2023.1.3,Win32,60.60606061,,,,,,,,,,,,,,,,,,,,,,,,,,,,,,,,300,,,,,,,,,,,,,3,7,,,414.8992,3,up,1.5892,416.5158,0.5,0.3,"[1,3,2]",0.088842961,stimuli/card_100_transparent.png,100,3,0,3,0,1,,,,,,,,,,
,,,,65bba472faad5088563e8ff3,B,2024-08-17_08h06.02.957,Slot Machine Game,2023.1.3,Win32,60.60606061,,,,,,,,,,,,,,,,,,,,,,,,,,,,,,,,300,,,,,,,,,,,,,3,7,,,417.3156,4,up,0.5173,417.8652,1.5,0.3,"[1,3,2]",0.243224482,stimuli/card_0_transparent.png,0,4,0,4,0,1,,,,,,,,,,
,,,,65bba472faad5088563e8ff3,B,2024-08-17_08h06.02.957,Slot Machine Game,2023.1.3,Win32,60.60606061,,,,,,,,,,,,,,,,,,,,,,,,,,,,,,,,300,,,,,,,,,,,,,3,7,,,419.6646,5,up,2.2903,421.9813,1,0.3,"[1,3,2]",0.261445529,stimuli/card_0_transparent.png,0,5,0,5,0,1,,,,,,,,,,
,,,,65bba472faad5088563e8ff3,B,2024-08-17_08h06.02.957,Slot Machine Game,2023.1.3,Win32,60.60606061,,,,,,,,,,,,,,,,,,,,,,,,,,,,,,,,310,,,,,,,,,,,,,3,7,,,423.2815,6,right,1.4825,424.7818,1.5,0.3,"[1,3,2]",0.419226627,stimuli/card_10_transparent.png,10,6,0,6,0,1,,,,,,,,,,
,,,,65bba472faad5088563e8ff3,B,2024-08-17_08h06.02.957,Slot Machine Game,2023.1.3,Win32,60.60606061,,,,,,,,,,,,,,,,,,,,,,,,,,,,,,,,320,,,,,,,,,,,,,3,7,,,426.5814,7,right,2.5852,429.1983,1.5,0.3,"[1,3,2]",0.377452591,stimuli/card_10_transparent.png,10,7,0,7,0,1,,,,,,,,,,
,,,,65bba472faad5088563e8ff3,B,2024-08-17_08h06.02.957,Slot Machine Game,2023.1.3,Win32,60.60606061,,,,,,,,,,,,,,,,,,,,,,,,,,,,,,,,330,,,,,,,,,,,,,3,7,,,430.9972,8,right,0.5271,431.5471,1,0.3,"[1,3,2]",0.819069595,stimuli/card_10_transparent.png,10,8,0,8,0,1,,,,,,,,,,
,,,,65bba472faad5088563e8ff3,B,2024-08-17_08h06.02.957,Slot Machine Game,2023.1.3,Win32,60.60606061,,,,,,,,,,,,,,,,,,,,,,,,,,,,,,,,340,,,,,,,,,,,,,3,7,,,432.8468,9,left,1.0461,433.914,1.5,0.3,"[2,3,1]",0.241651312,stimuli/card_10_transparent.png,10,9,0,9,0,1,,,,,,,,,,
,,,,65bba472faad5088563e8ff3,B,2024-08-17_08h06.02.957,Slot Machine Game,2023.1.3,Win32,60.60606061,,,,,,,,,,,,,,,,,,,,,,,,,,,,,,,,350,,,,,,,,,,,,,3,7,,,435.7129,10,left,1.7185,437.4631,0.5,0.3,"[2,3,1]",0.341577671,stimuli/card_10_transparent.png,10,10,0,10,0,1,,,,,,,,,,
,,,,65bba472faad5088563e8ff3,B,2024-08-17_08h06.02.957,Slot Machine Game,2023.1.3,Win32,60.60606061,,,,,,,,,,,,,,,,,,,,,,,,,,,,,,,,360,,,,,,,,,,,,,3,7,,,438.263,11,left,2.035,440.3292,1,0.3,"[2,3,1]",0.292280505,stimuli/card_10_transparent.png,10,11,0,11,0,1,,,,,,,,,,
,,,,65bba472faad5088563e8ff3,B,2024-08-17_08h06.02.957,Slot Machine Game,2023.1.3,Win32,60.60606061,,,,,,,,,,,,,,,,,,,,,,,,,,,,,,,,360,,,,,,,,,,,,,3,7,,,441.6288,12,up,0.6549,442.2959,1,0.3,"[2,3,1]",0.829828383,stimuli/card_0_transparent.png,0,12,0,12,0,1,,,,,,,,,,
,,,,65bba472faad5088563e8ff3,B,2024-08-17_08h06.02.957,Slot Machine Game,2023.1.3,Win32,60.60606061,,,,,,,,,,,,,,,,,,,,,,,,,,,,,,,,360,,,,,,,,,,,,,3,7,,,443.5956,13,up,2.8986,446.5161,1.5,0.3,"[2,3,1]",0.766447656,stimuli/card_0_transparent.png,0,13,0,13,0,1,,,,,,,,,,
,,,,65bba472faad5088563e8ff3,B,2024-08-17_08h06.02.957,Slot Machine Game,2023.1.3,Win32,60.60606061,,,,,,,,,,,,,,,,,,,,,,,,,,,,,,,,460,,,,,,,,,,,,,3,7,,,448.3116,14,right,1.6887,450.0284,1.5,0.3,"[2,3,1]",0.258583211,stimuli/card_100_transparent.png,100,14,0,14,0,1,,,,,,,,,,
,,,,65bba472faad5088563e8ff3,B,2024-08-17_08h06.02.957,Slot Machine Game,2023.1.3,Win32,60.60606061,,,,,,,,,,,,,,,,,,,,,,,,,,,,,,,,,,451.8277,,,,,,,,,,,,,,,,,,,,,,,,,,,,,,,"[920,830,460]",2,0,2,0,1,,,,
,,,,65bba472faad5088563e8ff3,B,2024-08-17_08h06.02.957,Slot Machine Game,2023.1.3,Win32,60.60606061,,,,,,,,,,,,,,,,,,,,,,,,,,,,,,,,10,,,,,,,,,,,,,4,4,"[7,15]","[[2,3,1],[1,2,3]]",456.8477,0,left,0.7671,457.6436,1,0.3,"[2,3,1]",0.739984589,stimuli/card_10_transparent.png,10,0,0,0,0,1,,,,,,,,,,
,,,,65bba472faad5088563e8ff3,B,2024-08-17_08h06.02.957,Slot Machine Game,2023.1.3,Win32,60.60606061,,,,,,,,,,,,,,,,,,,,,,,,,,,,,,,,20,,,,,,,,,,,,,4,4,,,458.9438,1,left,2.2182,461.1942,1.5,0.3,"[2,3,1]",0.777116836,stimuli/card_10_transparent.png,10,1,0,1,0,1,,,,,,,,,,
,,,,65bba472faad5088563e8ff3,B,2024-08-17_08h06.02.957,Slot Machine Game,2023.1.3,Win32,60.60606061,,,,,,,,,,,,,,,,,,,,,,,,,,,,,,,,120,,,,,,,,,,,,,4,4,,,462.993,2,left,1.1682,464.193,1.5,0.3,"[2,3,1]",0.189904254,stimuli/card_100_transparent.png,100,2,0,2,0,1,,,,,,,,,,
,,,,65bba472faad5088563e8ff3,B,2024-08-17_08h06.02.957,Slot Machine Game,2023.1.3,Win32,60.60606061,,,,,,,,,,,,,,,,,,,,,,,,,,,,,,,,120,,,,,,,,,,,,,4,4,,,465.9929,3,up,2.3679,468.3924,0.5,0.3,"[2,3,1]",0.953443405,stimuli/card_0_transparent.png,0,3,0,3,0,1,,,,,,,,,,
,,,,65bba472faad5088563e8ff3,B,2024-08-17_08h06.02.957,Slot Machine Game,2023.1.3,Win32,60.60606061,,,,,,,,,,,,,,,,,,,,,,,,,,,,,,,,120,,,,,,,,,,,,,4,4,,,469.1921,4,up,0.6938,469.9089,0.5,0.3,"[2,3,1]",0.72373152,stimuli/card_0_transparent.png,0,4,0,4,0,1,,,,,,,,,,
,,,,65bba472faad5088563e8ff3,B,2024-08-17_08h06.02.957,Slot Machine Game,2023.1.3,Win32,60.60606061,,,,,,,,,,,,,,,,,,,,,,,,,,,,,,,,120,,,,,,,,,,,,,4,4,,,470.7086,5,up,0.9085,471.6423,0.5,0.3,"[2,3,1]",0.926437906,stimuli/card_0_transparent.png,0,5,0,5,0,1,,,,,,,,,,
,,,,65bba472faad5088563e8ff3,B,2024-08-17_08h06.02.957,Slot Machine Game,2023.1.3,Win32,60.60606061,,,,,,,,,,,,,,,,,,,,,,,,,,,,,,,,120,,,,,,,,,,,,,4,4,,,472.442,6,right,2.1673,474.6416,1.5,0.3,"[2,3,1]",0.025503899,stimuli/card_0_transparent.png,0,6,0,6,0,1,,,,,,,,,,
,,,,65bba472faad5088563e8ff3,B,2024-08-17_08h06.02.957,Slot Machine Game,2023.1.3,Win32,60.60606061,,,,,,,,,,,,,,,,,,,,,,,,,,,,,,,,120,,,,,,,,,,,,,4,4,,,476.4415,7,right,2.1748,478.6414,1,0.3,"[1,2,3]",0.605977564,stimuli/card_0_transparent.png,0,7,0,7,0,1,,,,,,,,,,
,,,,65bba472faad5088563e8ff3,B,2024-08-17_08h06.02.957,Slot Machine Game,2023.1.3,Win32,60.60606061,,,,,,,,,,,,,,,,,,,,,,,,,,,,,,,,120,,,,,,,,,,,,,4,4,,,479.9405,8,right,0.7052,480.6742,1,0.3,"[1,2,3]",0.503456642,stimuli/card_0_transparent.png,0,8,0,8,0,1,,,,,,,,,,
,,,,65bba472faad5088563e8ff3,B,2024-08-17_08h06.02.957,Slot Machine Game,2023.1.3,Win32,60.60606061,,,,,,,,,,,,,,,,,,,,,,,,,,,,,,,,120,,,,,,,,,,,,,4,4,,,481.9739,9,left,1.9601,483.9736,1,0.3,"[1,2,3]",0.060942172,stimuli/card_0_transparent.png,0,9,0,9,0,1,,,,,,,,,,
,,,,65bba472faad5088563e8ff3,B,2024-08-17_08h06.02.957,Slot Machine Game,2023.1.3,Win32,60.60606061,,,,,,,,,,,,,,,,,,,,,,,,,,,,,,,,130,,,,,,,,,,,,,4,4,,,485.2738,10,left,2.1001,487.4081,1,0.3,"[1,2,3]",0.187029897,stimuli/card_10_transparent.png,10,10,0,10,0,1,,,,,,,,,,
,,,,65bba472faad5088563e8ff3,B,2024-08-17_08h06.02.957,Slot Machine Game,2023.1.3,Win32,60.60606061,,,,,,,,,,,,,,,,,,,,,,,,,,,,,,,,230,,,,,,,,,,,,,4,4,,,488.706,11,left,2.7377,491.4573,1.5,0.3,"[1,2,3]",0.649448054,stimuli/card_100_transparent.png,100,11,0,11,0,1,,,,,,,,,,
,,,,65bba472faad5088563e8ff3,B,2024-08-17_08h06.02.957,Slot Machine Game,2023.1.3,Win32,60.60606061,,,,,,,,,,,,,,,,,,,,,,,,,,,,,,,,330,,,,,,,,,,,,,4,4,,,493.2559,12,left,0.6709,493.9562,1.5,0.3,"[1,2,3]",0.491186156,stimuli/card_100_transparent.png,100,12,0,12,0,1,,,,,,,,,,
,,,,65bba472faad5088563e8ff3,B,2024-08-17_08h06.02.957,Slot Machine Game,2023.1.3,Win32,60.60606061,,,,,,,,,,,,,,,,,,,,,,,,,,,,,,,,430,,,,,,,,,,,,,4,4,,,495.7554,13,left,0.5664,496.3428,1.5,0.3,"[1,2,3]",0.318885428,stimuli/card_100_transparent.png,100,13,0,13,0,1,,,,,,,,,,
,,,,65bba472faad5088563e8ff3,B,2024-08-17_08h06.02.957,Slot Machine Game,2023.1.3,Win32,60.60606061,,,,,,,,,,,,,,,,,,,,,,,,,,,,,,,,530,,,,,,,,,,,,,4,4,,,498.1387,14,left,2.2714,500.4219,1.5,0.3,"[1,2,3]",0.41037022,stimuli/card_100_transparent.png,100,14,0,14,0,1,,,,,,,,,,
,,,,65bba472faad5088563e8ff3,B,2024-08-17_08h06.02.957,Slot Machine Game,2023.1.3,Win32,60.60606061,,,,,,,,,,,,,,,,,,,,,,,,,,,,,,,,,,502.2216,,,,,,,,,,,,,,,,,,,,,,,,,,,,,,,"[920,830,460,530]",3,0,3,0,1,,,,
,,,,65bba472faad5088563e8ff3,B,2024-08-17_08h06.02.957,Slot Machine Game,2023.1.3,Win32,60.60606061,,,,,,,,,,,,,,,,,,,,,,,,,,,,,,,,10,,,,,,,,,,,,,5,6,"[4,10,15]","[[2,3,1],[1,3,2],[3,2,1]]",507.2414,0,left,0.7761,508.0375,0.5,0.3,"[2,3,1]",0.591977711,stimuli/card_10_transparent.png,10,0,0,0,0,1,,,,,,,,,,
,,,,65bba472faad5088563e8ff3,B,2024-08-17_08h06.02.957,Slot Machine Game,2023.1.3,Win32,60.60606061,,,,,,,,,,,,,,,,,,,,,,,,,,,,,,,,20,,,,,,,,,,,,,5,6,,,508.8374,1,left,0.5349,509.4042,1.5,0.3,"[2,3,1]",0.415452259,stimuli/card_10_transparent.png,10,1,0,1,0,1,,,,,,,,,,
,,,,65bba472faad5088563e8ff3,B,2024-08-17_08h06.02.957,Slot Machine Game,2023.1.3,Win32,60.60606061,,,,,,,,,,,,,,,,,,,,,,,,,,,,,,,,120,,,,,,,,,,,,,5,6,,,511.2037,2,right,0.7149,511.9404,1.5,0.3,"[2,3,1]",0.987664385,stimuli/card_100_transparent.png,100,2,0,2,0,1,,,,,,,,,,
,,,,65bba472faad5088563e8ff3,B,2024-08-17_08h06.02.957,Slot Machine Game,2023.1.3,Win32,60.60606061,,,,,,,,,,,,,,,,,,,,,,,,,,,,,,,,220,,,,,,,,,,,,,5,6,,,513.7366,3,right,1.0867,514.8528,1,0.3,"[2,3,1]",0.757768478,stimuli/card_100_transparent.png,100,3,0,3,0,1,,,,,,,,,,
,,,,65bba472faad5088563e8ff3,B,2024-08-17_08h06.02.957,Slot Machine Game,2023.1.3,Win32,60.60606061,,,,,,,,,,,,,,,,,,,,,,,,,,,,,,,,220,,,,,,,,,,,,,5,6,,,516.153,4,up,1.1211,517.303,1,0.3,"[1,3,2]",0.88915402,stimuli/card_0_transparent.png,0,4,0,4,0,1,,,,,,,,,,
,,,,65bba472faad5088563e8ff3,B,2024-08-17_08h06.02.957,Slot Machine Game,2023.1.3,Win32,60.60606061,,,,,,,,,,,,,,,,,,,,,,,,,,,,,,,,220,,,,,,,,,,,,,5,6,,,518.6027,5,up,2.0702,520.7027,0.5,0.3,"[1,3,2]",0.506753432,stimuli/card_0_transparent.png,0,5,0,5,0,1,,,,,,,,,,
,,,,65bba472faad5088563e8ff3,B,2024-08-17_08h06.02.957,Slot Machine Game,2023.1.3,Win32,60.60606061,,,,,,,,,,,,,,,,,,,,,,,,,,,,,,,,230,,,,,,,,,,,,,5,6,,,521.5026,6,right,1.3163,522.8395,1.5,0.3,"[1,3,2]",0.801240557,stimuli/card_10_transparent.png,10,6,0,6,0,1,,,,,,,,,,
,,,,65bba472faad5088563e8ff3,B,2024-08-17_08h06.02.957,Slot Machine Game,2023.1.3,Win32,60.60606061,,,,,,,,,,,,,,,,,,,,,,,,,,,,,,,,240,,,,,,,,,,,,,5,6,,,524.6352,7,right,2.5734,527.2363,0.5,0.3,"[1,3,2]",0.417265597,stimuli/card_10_transparent.png,10,7,0,7,0,1,,,,,,,,,,
,,,,65bba472faad5088563e8ff3,B,2024-08-17_08h06.02.957,Slot Machine Game,2023.1.3,Win32,60.60606061,,,,,,,,,,,,,,,,,,,,,,,,,,,,,,,,250,,,,,,,,,,,,,5,6,,,528.0347,8,right,1.4189,529.4845,0.5,0.3,"[1,3,2]",0.657537206,stimuli/card_10_transparent.png,10,8,0,8,0,1,,,,,,,,,,
,,,,65bba472faad5088563e8ff3,B,2024-08-17_08h06.02.957,Slot Machine Game,2023.1.3,Win32,60.60606061,,,,,,,,,,,,,,,,,,,,,,,,,,,,,,,,260,,,,,,,,,,,,,5,6,,,530.2844,9,right,0.6379,530.9509,1,0.3,"[1,3,2]",0.602358541,stimuli/card_10_transparent.png,10,9,0,9,0,1,,,,,,,,,,
,,,,65bba472faad5088563e8ff3,B,2024-08-17_08h06.02.957,Slot Machine Game,2023.1.3,Win32,60.60606061,,,,,,,,,,,,,,,,,,,,,,,,,,,,,,,,260,,,,,,,,,,,,,5,6,,,532.2508,10,left,2.4673,534.7504,1.5,0.3,"[3,2,1]",0.727382159,stimuli/card_0_transparent.png,0,10,0,10,0,1,,,,,,,,,,
,,,,65bba472faad5088563e8ff3,B,2024-08-17_08h06.02.957,Slot Machine Game,2023.1.3,Win32,60.60606061,,,,,,,,,,,,,,,,,,,,,,,,,,,,,,,,260,,,,,,,,,,,,,5,6,,,536.5502,11,left,1.2905,537.8665,1,0.3,"[3,2,1]",0.341349307,stimuli/card_0_transparent.png,0,11,0,11,0,1,,,,,,,,,,
,,,,65bba472faad5088563e8ff3,B,2024-08-17_08h06.02.957,Slot Machine Game,2023.1.3,Win32,60.60606061,,,,,,,,,,,,,,,,,,,,,,,,,,,,,,,,260,,,,,,,,,,,,,5,6,,,539.1666,12,left,1.0822,540.2665,1,0.3,"[3,2,1]",0.958504348,stimuli/card_0_transparent.png,0,12,0,12,0,1,,,,,,,,,,
,,,,65bba472faad5088563e8ff3,B,2024-08-17_08h06.02.957,Slot Machine Game,2023.1.3,Win32,60.60606061,,,,,,,,,,,,,,,,,,,,,,,,,,,,,,,,270,,,,,,,,,,,,,5,6,,,541.5663,13,up,2.7568,544.3495,1,0.3,"[3,2,1]",0.642384439,stimuli/card_10_transparent.png,10,13,0,13,0,1,,,,,,,,,,
,,,,65bba472faad5088563e8ff3,B,2024-08-17_08h06.02.957,Slot Machine Game,2023.1.3,Win32,60.60606061,,,,,,,,,,,,,,,,,,,,,,,,,,,,,,,,280,,,,,,,,,,,,,5,6,,,545.6505,14,up,1.5622,547.2323,1.5,0.3,"[3,2,1]",0.322997468,stimuli/card_10_transparent.png,10,14,0,14,0,1,,,,,,,,,,
,,,,65bba472faad5088563e8ff3,B,2024-08-17_08h06.02.957,Slot Machine Game,2023.1.3,Win32,60.60606061,,,,,,,,,,,,,,,,,,,,,,,,,,,,,,,,,,549.0322,,,,,,,,,,,,,,,,,,,,,,,,,,,,,,,"[920,830,460,530,280]",4,0,4,0,1,,,,
,,,,65bba472faad5088563e8ff3,B,2024-08-17_08h06.02.957,Slot Machine Game,2023.1.3,Win32,60.60606061,,,,,,,,,,,,,,,,,,,,,,,,,,,,,,,,10,,,,,,,,,,,,,6,8,"[11,15]","[[2,1,3],[1,2,3]]",554.0523,0,right,0.7959,554.8652,1.5,0.3,"[2,1,3]",0.112579669,stimuli/card_10_transparent.png,10,0,0,0,0,1,,,,,,,,,,
,,,,65bba472faad5088563e8ff3,B,2024-08-17_08h06.02.957,Slot Machine Game,2023.1.3,Win32,60.60606061,,,,,,,,,,,,,,,,,,,,,,,,,,,,,,,,10,,,,,,,,,,,,,6,8,,,556.6646,1,right,1.7533,558.4476,0.5,0.3,"[2,1,3]",0.880931488,stimuli/card_0_transparent.png,0,1,0,1,0,1,,,,,,,,,,
,,,,65bba472faad5088563e8ff3,B,2024-08-17_08h06.02.957,Slot Machine Game,2023.1.3,Win32,60.60606061,,,,,,,,,,,,,,,,,,,,,,,,,,,,,,,,110,,,,,,,,,,,,,6,8,,,559.2473,2,up,1.0278,560.2968,0.5,0.3,"[2,1,3]",0.959146989,stimuli/card_100_transparent.png,100,2,0,2,0,1,,,,,,,,,,
,,,,65bba472faad5088563e8ff3,B,2024-08-17_08h06.02.957,Slot Machine Game,2023.1.3,Win32,60.60606061,,,,,,,,,,,,,,,,,,,,,,,,,,,,,,,,210,,,,,,,,,,,,,6,8,,,561.0971,3,up,0.518,561.6304,0.5,0.3,"[2,1,3]",0.353668634,stimuli/card_100_transparent.png,100,3,0,3,0,1,,,,,,,,,,
,,,,65bba472faad5088563e8ff3,B,2024-08-17_08h06.02.957,Slot Machine Game,2023.1.3,Win32,60.60606061,,,,,,,,,,,,,,,,,,,,,,,,,,,,,,,,310,,,,,,,,,,,,,6,8,,,562.4301,4,up,0.9333,563.3967,0.5,0.3,"[2,1,3]",0.665115431,stimuli/card_100_transparent.png,100,4,0,4,0,1,,,,,,,,,,
,,,,65bba472faad5088563e8ff3,B,2024-08-17_08h06.02.957,Slot Machine Game,2023.1.3,Win32,60.60606061,,,,,,,,,,,,,,,,,,,,,,,,,,,,,,,,410,,,,,,,,,,,,,6,8,,,564.1969,5,up,0.5676,564.7969,1.5,0.3,"[2,1,3]",0.548508595,stimuli/card_100_transparent.png,100,5,0,5,0,1,,,,,,,,,,
,,,,65bba472faad5088563e8ff3,B,2024-08-17_08h06.02.957,Slot Machine Game,2023.1.3,Win32,60.60606061,,,,,,,,,,,,,,,,,,,,,,,,,,,,,,,,510,,,,,,,,,,,,,6,8,,,566.5965,6,up,1.533,568.1502,0.5,0.3,"[2,1,3]",0.646409892,stimuli/card_100_transparent.png,100,6,0,6,0,1,,,,,,,,,,
,,,,65bba472faad5088563e8ff3,B,2024-08-17_08h06.02.957,Slot Machine Game,2023.1.3,Win32,60.60606061,,,,,,,,,,,,,,,,,,,,,,,,,,,,,,,,510,,,,,,,,,,,,,6,8,,,568.9465,7,up,1.7334,570.7124,1,0.3,"[2,1,3]",0.090301725,stimuli/card_0_transparent.png,0,7,0,7,0,1,,,,,,,,,,
,,,,65bba472faad5088563e8ff3,B,2024-08-17_08h06.02.957,Slot Machine Game,2023.1.3,Win32,60.60606061,,,,,,,,,,,,,,,,,,,,,,,,,,,,,,,,610,,,,,,,,,,,,,6,8,,,572.0124,8,up,1.8451,573.8785,1.5,0.3,"[2,1,3]",0.908025268,stimuli/card_100_transparent.png,100,8,0,8,0,1,,,,,,,,,,
,,,,65bba472faad5088563e8ff3,B,2024-08-17_08h06.02.957,Slot Machine Game,2023.1.3,Win32,60.60606061,,,,,,,,,,,,,,,,,,,,,,,,,,,,,,,,710,,,,,,,,,,,,,6,8,,,575.6788,9,up,0.9166,576.6122,1,0.3,"[2,1,3]",0.925383876,stimuli/card_100_transparent.png,100,9,0,9,0,1,,,,,,,,,,
,,,,65bba472faad5088563e8ff3,B,2024-08-17_08h06.02.957,Slot Machine Game,2023.1.3,Win32,60.60606061,,,,,,,,,,,,,,,,,,,,,,,,,,,,,,,,810,,,,,,,,,,,,,6,8,,,577.9117,10,up,1.5931,579.5282,1.5,0.3,"[2,1,3]",0.775331828,stimuli/card_100_transparent.png,100,10,0,10,0,1,,,,,,,,,,
,,,,65bba472faad5088563e8ff3,B,2024-08-17_08h06.02.957,Slot Machine Game,2023.1.3,Win32,60.60606061,,,,,,,,,,,,,,,,,,,,,,,,,,,,,,,,820,,,,,,,,,,,,,6,8,,,581.3282,11,up,1.0902,582.4446,0.5,0.3,"[1,2,3]",0.260594088,stimuli/card_10_transparent.png,10,11,0,11,0,1,,,,,,,,,,
,,,,65bba472faad5088563e8ff3,B,2024-08-17_08h06.02.957,Slot Machine Game,2023.1.3,Win32,60.60606061,,,,,,,,,,,,,,,,,,,,,,,,,,,,,,,,830,,,,,,,,,,,,,6,8,,,583.2446,12,up,0.5093,583.7777,1,0.3,"[1,2,3]",0.346716817,stimuli/card_10_transparent.png,10,12,0,12,0,1,,,,,,,,,,
,,,,65bba472faad5088563e8ff3,B,2024-08-17_08h06.02.957,Slot Machine Game,2023.1.3,Win32,60.60606061,,,,,,,,,,,,,,,,,,,,,,,,,,,,,,,,840,,,,,,,,,,,,,6,8,,,585.0775,13,up,1.3041,586.4106,1,0.3,"[1,2,3]",0.741232909,stimuli/card_10_transparent.png,10,13,0,13,0,1,,,,,,,,,,
,,,,65bba472faad5088563e8ff3,B,2024-08-17_08h06.02.957,Slot Machine Game,2023.1.3,Win32,60.60606061,,,,,,,,,,,,,,,,,,,,,,,,,,,,,,,,850,,,,,,,,,,,,,6,8,,,587.7105,14,up,2.6832,590.4272,0.5,0.3,"[1,2,3]",0.320550796,stimuli/card_10_transparent.png,10,14,0,14,0,1,,,,,,,,,,
,,,,65bba472faad5088563e8ff3,B,2024-08-17_08h06.02.957,Slot Machine Game,2023.1.3,Win32,60.60606061,,,,,,,,,,,,,,,,,,,,,,,,,,,,,,,,,,591.2267,,,,,,,,,,,,,,,,,,,,,,,,,,,,,,,"[920,830,460,530,280,850]",5,0,5,0,1,,,,
,,,,65bba472faad5088563e8ff3,B,2024-08-17_08h06.02.957,Slot Machine Game,2023.1.3,Win32,60.60606061,,,,,,,,,,,,,,,,,,,,,,,,,,,,,,,,0,,,,,,,,,,,,,7,9,"[8,15]","[[3,2,1],[3,1,2]]",596.2468,0,left,0.6956,596.9591,1.5,0.3,"[3,2,1]",0.815486593,stimuli/card_0_transparent.png,0,0,0,0,0,1,,,,,,,,,,
,,,,65bba472faad5088563e8ff3,B,2024-08-17_08h06.02.957,Slot Machine Game,2023.1.3,Win32,60.60606061,,,,,,,,,,,,,,,,,,,,,,,,,,,,,,,,0,,,,,,,,,,,,,7,9,,,598.7591,1,left,0.9751,599.7585,1.5,0.3,"[3,2,1]",0.621643736,stimuli/card_0_transparent.png,0,1,0,1,0,1,,,,,,,,,,
,,,,65bba472faad5088563e8ff3,B,2024-08-17_08h06.02.957,Slot Machine Game,2023.1.3,Win32,60.60606061,,,,,,,,,,,,,,,,,,,,,,,,,,,,,,,,10,,,,,,,,,,,,,7,9,,,601.5589,2,up,0.9011,602.4918,0.5,0.3,"[3,2,1]",0.999836968,stimuli/card_10_transparent.png,10,2,0,2,0,1,,,,,,,,,,
,,,,65bba472faad5088563e8ff3,B,2024-08-17_08h06.02.957,Slot Machine Game,2023.1.3,Win32,60.60606061,,,,,,,,,,,,,,,,,,,,,,,,,,,,,,,,20,,,,,,,,,,,,,7,9,,,603.2917,3,up,1.4836,604.8085,0.5,0.3,"[3,2,1]",0.389822442,stimuli/card_10_transparent.png,10,3,0,3,0,1,,,,,,,,,,
,,,,65bba472faad5088563e8ff3,B,2024-08-17_08h06.02.957,Slot Machine Game,2023.1.3,Win32,60.60606061,,,,,,,,,,,,,,,,,,,,,,,,,,,,,,,,120,,,,,,,,,,,,,7,9,,,605.6083,4,right,1.3704,607.008,0.5,0.3,"[3,2,1]",0.811263906,stimuli/card_100_transparent.png,100,4,0,4,0,1,,,,,,,,,,
,,,,65bba472faad5088563e8ff3,B,2024-08-17_08h06.02.957,Slot Machine Game,2023.1.3,Win32,60.60606061,,,,,,,,,,,,,,,,,,,,,,,,,,,,,,,,220,,,,,,,,,,,,,7,9,,,607.8081,5,right,1.9391,609.7747,0.5,0.3,"[3,2,1]",0.215008846,stimuli/card_100_transparent.png,100,5,0,5,0,1,,,,,,,,,,
,,,,65bba472faad5088563e8ff3,B,2024-08-17_08h06.02.957,Slot Machine Game,2023.1.3,Win32,60.60606061,,,,,,,,,,,,,,,,,,,,,,,,,,,,,,,,230,,,,,,,,,,,,,7,9,,,610.5744,6,right,1.7034,612.3076,1,0.3,"[3,2,1]",0.182870315,stimuli/card_10_transparent.png,10,6,0,6,0,1,,,,,,,,,,
,,,,65bba472faad5088563e8ff3,B,2024-08-17_08h06.02.957,Slot Machine Game,2023.1.3,Win32,60.60606061,,,,,,,,,,,,,,,,,,,,,,,,,,,,,,,,230,,,,,,,,,,,,,7,9,,,613.607,7,right,2.0691,615.7079,1.5,0.3,"[3,2,1]",0.06462355,stimuli/card_0_transparent.png,0,7,0,7,0,1,,,,,,,,,,
,,,,65bba472faad5088563e8ff3,B,2024-08-17_08h06.02.957,Slot Machine Game,2023.1.3,Win32,60.60606061,,,,,,,,,,,,,,,,,,,,,,,,,,,,,,,,240,,,,,,,,,,,,,7,9,,,617.5067,8,right,2.4243,619.9575,1,0.3,"[3,1,2]",0.939572738,stimuli/card_10_transparent.png,10,8,0,8,0,1,,,,,,,,,,
,,,,65bba472faad5088563e8ff3,B,2024-08-17_08h06.02.957,Slot Machine Game,2023.1.3,Win32,60.60606061,,,,,,,,,,,,,,,,,,,,,,,,,,,,,,,,240,,,,,,,,,,,,,7,9,,,621.2561,9,up,2.4758,623.7566,1.5,0.3,"[3,1,2]",0.087387603,stimuli/card_0_transparent.png,0,9,0,9,0,1,,,,,,,,,,
,,,,65bba472faad5088563e8ff3,B,2024-08-17_08h06.02.957,Slot Machine Game,2023.1.3,Win32,60.60606061,,,,,,,,,,,,,,,,,,,,,,,,,,,,,,,,340,,,,,,,,,,,,,7,9,,,625.5557,10,right,2.3399,627.9235,1.5,0.3,"[3,1,2]",0.192121341,stimuli/card_100_transparent.png,100,10,0,10,0,1,,,,,,,,,,
,,,,65bba472faad5088563e8ff3,B,2024-08-17_08h06.02.957,Slot Machine Game,2023.1.3,Win32,60.60606061,,,,,,,,,,,,,,,,,,,,,,,,,,,,,,,,350,,,,,,,,,,,,,7,9,,,629.722,11,right,1.8165,631.5602,0.5,0.3,"[3,1,2]",0.576335276,stimuli/card_10_transparent.png,10,11,0,11,0,1,,,,,,,,,,
,,,,65bba472faad5088563e8ff3,B,2024-08-17_08h06.02.957,Slot Machine Game,2023.1.3,Win32,60.60606061,,,,,,,,,,,,,,,,,,,,,,,,,,,,,,,,360,,,,,,,,,,,,,7,9,,,632.3549,12,right,2.4268,634.8046,0.5,0.3,"[3,1,2]",0.735839977,stimuli/card_10_transparent.png,10,12,0,12,0,1,,,,,,,,,,
,,,,65bba472faad5088563e8ff3,B,2024-08-17_08h06.02.957,Slot Machine Game,2023.1.3,Win32,60.60606061,,,,,,,,,,,,,,,,,,,,,,,,,,,,,,,,460,,,,,,,,,,,,,7,9,,,635.6045,13,up,0.7261,636.3541,1.5,0.3,"[3,1,2]",0.802380163,stimuli/card_100_transparent.png,100,13,0,13,0,1,,,,,,,,,,
,,,,65bba472faad5088563e8ff3,B,2024-08-17_08h06.02.957,Slot Machine Game,2023.1.3,Win32,60.60606061,,,,,,,,,,,,,,,,,,,,,,,,,,,,,,,,560,,,,,,,,,,,,,7,9,,,638.1542,14,up,1.3723,639.5541,1.5,0.3,"[3,1,2]",0.951298305,stimuli/card_100_transparent.png,100,14,0,14,0,1,,,,,,,,,,
,,,,65bba472faad5088563e8ff3,B,2024-08-17_08h06.02.957,Slot Machine Game,2023.1.3,Win32,60.60606061,,,,,,,,,,,,,,,,,,,,,,,,,,,,,,,,,,641.3537,,,,,,,,,,,,,,,,,,,,,,,,,,,,,,,"[920,830,460,530,280,850,560]",6,0,6,0,1,,,,
,,,,65bba472faad5088563e8ff3,B,2024-08-17_08h06.02.957,Slot Machine Game,2023.1.3,Win32,60.60606061,,,,,,,,,,,,,,,,,,,,,,,,,,,,,,,,100,,,,,,,,,,,,,8,2,"[6,15]","[[1,3,2],[3,2,1]]",646.374,0,left,0.7053,647.103,1,0.3,"[1,3,2]",0.286697847,stimuli/card_100_transparent.png,100,0,0,0,0,1,,,,,,,,,,
,,,,65bba472faad5088563e8ff3,B,2024-08-17_08h06.02.957,Slot Machine Game,2023.1.3,Win32,60.60606061,,,,,,,,,,,,,,,,,,,,,,,,,,,,,,,,200,,,,,,,,,,,,,8,2,,,648.4029,1,left,1.3432,649.7695,1,0.3,"[1,3,2]",0.431106895,stimuli/card_100_transparent.png,100,1,0,1,0,1,,,,,,,,,,
,,,,65bba472faad5088563e8ff3,B,2024-08-17_08h06.02.957,Slot Machine Game,2023.1.3,Win32,60.60606061,,,,,,,,,,,,,,,,,,,,,,,,,,,,,,,,300,,,,,,,,,,,,,8,2,,,651.0692,2,left,4.297,655.403,1,0.3,"[1,3,2]",0.845242638,stimuli/card_100_transparent.png,100,2,0,2,0,1,,,,,,,,,,
,,,,65bba472faad5088563e8ff3,B,2024-08-17_08h06.02.957,Slot Machine Game,2023.1.3,Win32,60.60606061,,,,,,,,,,,,,,,,,,,,,,,,,,,,,,,,400,,,,,,,,,,,,,8,2,,,656.702,3,left,2.0246,658.7518,1.5,0.3,"[1,3,2]",0.483782664,stimuli/card_100_transparent.png,100,3,0,3,0,1,,,,,,,,,,
,,,,65bba472faad5088563e8ff3,B,2024-08-17_08h06.02.957,Slot Machine Game,2023.1.3,Win32,60.60606061,,,,,,,,,,,,,,,,,,,,,,,,,,,,,,,,500,,,,,,,,,,,,,8,2,,,660.551,4,left,3.3229,663.9018,1,0.3,"[1,3,2]",0.817918158,stimuli/card_100_transparent.png,100,4,0,4,0,1,,,,,,,,,,
,,,,65bba472faad5088563e8ff3,B,2024-08-17_08h06.02.957,Slot Machine Game,2023.1.3,Win32,60.60606061,,,,,,,,,,,,,,,,,,,,,,,,,,,,,,,,600,,,,,,,,,,,,,8,2,,,665.2007,5,left,1.8461,667.053,1,0.3,"[1,3,2]",0.64090671,stimuli/card_100_transparent.png,100,5,0,5,0,1,,,,,,,,,,
,,,,65bba472faad5088563e8ff3,B,2024-08-17_08h06.02.957,Slot Machine Game,2023.1.3,Win32,60.60606061,,,,,,,,,,,,,,,,,,,,,,,,,,,,,,,,700,,,,,,,,,,,,,8,2,,,668.3503,6,left,0.5895,668.9671,0.5,0.3,"[3,2,1]",0.002174609,stimuli/card_100_transparent.png,100,6,0,6,0,1,,,,,,,,,,
,,,,65bba472faad5088563e8ff3,B,2024-08-17_08h06.02.957,Slot Machine Game,2023.1.3,Win32,60.60606061,,,,,,,,,,,,,,,,,,,,,,,,,,,,,,,,700,,,,,,,,,,,,,8,2,,,669.7667,7,left,1.3745,671.1666,0.5,0.3,"[3,2,1]",0.821155887,stimuli/card_0_transparent.png,0,7,0,7,0,1,,,,,,,,,,
,,,,65bba472faad5088563e8ff3,B,2024-08-17_08h06.02.957,Slot Machine Game,2023.1.3,Win32,60.60606061,,,,,,,,,,,,,,,,,,,,,,,,,,,,,,,,700,,,,,,,,,,,,,8,2,,,671.9663,8,left,1.0065,672.9997,0.5,0.3,"[3,2,1]",0.941850448,stimuli/card_0_transparent.png,0,8,0,8,0,1,,,,,,,,,,
,,,,65bba472faad5088563e8ff3,B,2024-08-17_08h06.02.957,Slot Machine Game,2023.1.3,Win32,60.60606061,,,,,,,,,,,,,,,,,,,,,,,,,,,,,,,,700,,,,,,,,,,,,,8,2,,,673.7996,9,left,0.6667,674.487,1,0.3,"[3,2,1]",0.442534816,stimuli/card_0_transparent.png,0,9,0,9,0,1,,,,,,,,,,
,,,,65bba472faad5088563e8ff3,B,2024-08-17_08h06.02.957,Slot Machine Game,2023.1.3,Win32,60.60606061,,,,,,,,,,,,,,,,,,,,,,,,,,,,,,,,700,,,,,,,,,,,,,8,2,,,675.7825,10,left,0.5517,676.3658,0.5,0.3,"[3,2,1]",0.949110127,stimuli/card_0_transparent.png,0,10,0,10,0,1,,,,,,,,,,
,,,,65bba472faad5088563e8ff3,B,2024-08-17_08h06.02.957,Slot Machine Game,2023.1.3,Win32,60.60606061,,,,,,,,,,,,,,,,,,,,,,,,,,,,,,,,710,,,,,,,,,,,,,8,2,,,677.1657,11,left,2.6666,679.8667,1.5,0.3,"[3,2,1]",0.17874019,stimuli/card_10_transparent.png,10,11,0,11,0,1,,,,,,,,,,
,,,,65bba472faad5088563e8ff3,B,2024-08-17_08h06.02.957,Slot Machine Game,2023.1.3,Win32,60.60606061,,,,,,,,,,,,,,,,,,,,,,,,,,,,,,,,710,,,,,,,,,,,,,8,2,,,681.667,12,left,0.8186,682.515,1,0.3,"[3,2,1]",0.388778591,stimuli/card_0_transparent.png,0,12,0,12,0,1,,,,,,,,,,
,,,,65bba472faad5088563e8ff3,B,2024-08-17_08h06.02.957,Slot Machine Game,2023.1.3,Win32,60.60606061,,,,,,,,,,,,,,,,,,,,,,,,,,,,,,,,710,,,,,,,,,,,,,8,2,,,683.8148,13,left,1.5123,685.348,1,0.3,"[3,2,1]",0.285574142,stimuli/card_0_transparent.png,0,13,0,13,0,1,,,,,,,,,,
,,,,65bba472faad5088563e8ff3,B,2024-08-17_08h06.02.957,Slot Machine Game,2023.1.3,Win32,60.60606061,,,,,,,,,,,,,,,,,,,,,,,,,,,,,,,,720,,,,,,,,,,,,,8,2,,,686.6478,14,up,0.5566,687.2312,0.5,0.3,"[3,2,1]",0.918700443,stimuli/card_10_transparent.png,10,14,0,14,0,1,,,,,,,,,,
,,,,65bba472faad5088563e8ff3,B,2024-08-17_08h06.02.957,Slot Machine Game,2023.1.3,Win32,60.60606061,,,,,,,,,,,,,,,,,,,,,,,,,,,,,,,,,,688.031,,,,,,,,,,,,,,,,,,,,,,,,,,,,,,,"[920,830,460,530,280,850,560,720]",7,0,7,0,1,,,,
,,,,65bba472faad5088563e8ff3,B,2024-08-17_08h06.02.957,Slot Machine Game,2023.1.3,Win32,60.60606061,,,,,,,,,,,,,,,,,,,,,,,,,,,,,,,,10,,,,,,,,,,,,,9,10,"[10,15]","[[3,1,2],[1,3,2]]",693.054,0,right,1.6674,694.7473,1.5,0.3,"[3,1,2]",0.303875379,stimuli/card_10_transparent.png,10,0,0,0,0,1,,,,,,,,,,
,,,,65bba472faad5088563e8ff3,B,2024-08-17_08h06.02.957,Slot Machine Game,2023.1.3,Win32,60.60606061,,,,,,,,,,,,,,,,,,,,,,,,,,,,,,,,20,,,,,,,,,,,,,9,10,,,696.5465,1,right,0.8348,697.3968,1.5,0.3,"[3,1,2]",0.962829621,stimuli/card_10_transparent.png,10,1,0,1,0,1,,,,,,,,,,
,,,,65bba472faad5088563e8ff3,B,2024-08-17_08h06.02.957,Slot Machine Game,2023.1.3,Win32,60.60606061,,,,,,,,,,,,,,,,,,,,,,,,,,,,,,,,120,,,,,,,,,,,,,9,10,,,699.1962,2,up,0.6688,699.8965,1,0.3,"[3,1,2]",0.640888706,stimuli/card_100_transparent.png,100,2,0,2,0,1,,,,,,,,,,
,,,,65bba472faad5088563e8ff3,B,2024-08-17_08h06.02.957,Slot Machine Game,2023.1.3,Win32,60.60606061,,,,,,,,,,,,,,,,,,,,,,,,,,,,,,,,220,,,,,,,,,,,,,9,10,,,701.1961,3,up,0.7382,701.9629,1.5,0.3,"[3,1,2]",0.689977502,stimuli/card_100_transparent.png,100,3,0,3,0,1,,,,,,,,,,
,,,,65bba472faad5088563e8ff3,B,2024-08-17_08h06.02.957,Slot Machine Game,2023.1.3,Win32,60.60606061,,,,,,,,,,,,,,,,,,,,,,,,,,,,,,,,320,,,,,,,,,,,,,9,10,,,703.7626,4,up,2.837,706.6299,1.5,0.3,"[3,1,2]",0.799292659,stimuli/card_100_transparent.png,100,4,0,4,0,1,,,,,,,,,,
,,,,65bba472faad5088563e8ff3,B,2024-08-17_08h06.02.957,Slot Machine Game,2023.1.3,Win32,60.60606061,,,,,,,,,,,,,,,,,,,,,,,,,,,,,,,,420,,,,,,,,,,,,,9,10,,,708.4281,5,up,4.0586,712.5127,1.5,0.3,"[3,1,2]",0.555603934,stimuli/card_100_transparent.png,100,5,0,5,0,1,,,,,,,,,,
,,,,65bba472faad5088563e8ff3,B,2024-08-17_08h06.02.957,Slot Machine Game,2023.1.3,Win32,60.60606061,,,,,,,,,,,,,,,,,,,,,,,,,,,,,,,,430,,,,,,,,,,,,,9,10,,,714.312,6,up,1.7744,716.1153,1.5,0.3,"[3,1,2]",0.115467005,stimuli/card_10_transparent.png,10,6,0,6,0,1,,,,,,,,,,
,,,,65bba472faad5088563e8ff3,B,2024-08-17_08h06.02.957,Slot Machine Game,2023.1.3,Win32,60.60606061,,,,,,,,,,,,,,,,,,,,,,,,,,,,,,,,530,,,,,,,,,,,,,9,10,,,717.9103,7,up,1.2495,719.1934,0.5,0.3,"[3,1,2]",0.285657702,stimuli/card_100_transparent.png,100,7,0,7,0,1,,,,,,,,,,
,,,,65bba472faad5088563e8ff3,B,2024-08-17_08h06.02.957,Slot Machine Game,2023.1.3,Win32,60.60606061,,,,,,,,,,,,,,,,,,,,,,,,,,,,,,,,630,,,,,,,,,,,,,9,10,,,719.993,8,up,2.8706,722.893,1,0.3,"[3,1,2]",0.820029231,stimuli/card_100_transparent.png,100,8,0,8,0,1,,,,,,,,,,
,,,,65bba472faad5088563e8ff3,B,2024-08-17_08h06.02.957,Slot Machine Game,2023.1.3,Win32,60.60606061,,,,,,,,,,,,,,,,,,,,,,,,,,,,,,,,730,,,,,,,,,,,,,9,10,,,724.1933,9,up,2.4191,726.6429,1.5,0.3,"[3,1,2]",0.692202855,stimuli/card_100_transparent.png,100,9,0,9,0,1,,,,,,,,,,
,,,,65bba472faad5088563e8ff3,B,2024-08-17_08h06.02.957,Slot Machine Game,2023.1.3,Win32,60.60606061,,,,,,,,,,,,,,,,,,,,,,,,,,,,,,,,830,,,,,,,,,,,,,9,10,,,728.4434,10,up,0.5072,728.9759,1,0.3,"[1,3,2]",0.031473491,stimuli/card_100_transparent.png,100,10,0,10,0,1,,,,,,,,,,
,,,,65bba472faad5088563e8ff3,B,2024-08-17_08h06.02.957,Slot Machine Game,2023.1.3,Win32,60.60606061,,,,,,,,,,,,,,,,,,,,,,,,,,,,,,,,830,,,,,,,,,,,,,9,10,,,730.2754,11,up,1.1411,731.4424,1,0.3,"[1,3,2]",0.76082924,stimuli/card_0_transparent.png,0,11,0,11,0,1,,,,,,,,,,
,,,,65bba472faad5088563e8ff3,B,2024-08-17_08h06.02.957,Slot Machine Game,2023.1.3,Win32,60.60606061,,,,,,,,,,,,,,,,,,,,,,,,,,,,,,,,830,,,,,,,,,,,,,9,10,,,732.7419,12,up,0.5348,733.309,1,0.3,"[1,3,2]",0.750970065,stimuli/card_0_transparent.png,0,12,0,12,0,1,,,,,,,,,,
,,,,65bba472faad5088563e8ff3,B,2024-08-17_08h06.02.957,Slot Machine Game,2023.1.3,Win32,60.60606061,,,,,,,,,,,,,,,,,,,,,,,,,,,,,,,,930,,,,,,,,,,,,,9,10,,,734.6087,13,up,0.7837,735.4248,0.5,0.3,"[1,3,2]",0.013681044,stimuli/card_100_transparent.png,100,13,0,13,0,1,,,,,,,,,,
,,,,65bba472faad5088563e8ff3,B,2024-08-17_08h06.02.957,Slot Machine Game,2023.1.3,Win32,60.60606061,,,,,,,,,,,,,,,,,,,,,,,,,,,,,,,,930,,,,,,,,,,,,,9,10,,,736.2246,14,up,1.0597,737.2917,0.5,0.3,"[1,3,2]",0.391677782,stimuli/card_0_transparent.png,0,14,0,14,0,1,,,,,,,,,,
,,,,65bba472faad5088563e8ff3,B,2024-08-17_08h06.02.957,Slot Machine Game,2023.1.3,Win32,60.60606061,,,,,,,,,,,,,,,,,,,,,,,,,,,,,,,,,,738.0916,,,,,,,,,,,,,,,,,,,,,,,,,,,,,,,"[920,830,460,530,280,850,560,720,930]",8,0,8,0,1,,,,
,,,,65bba472faad5088563e8ff3,B,2024-08-17_08h06.02.957,Slot Machine Game,2023.1.3,Win32,60.60606061,,,,,,,,,,,,,,,,,,,,,,,,,,,,,,,,0,,,,,,,,,,,,,10,3,"[15,15]","[[3,1,2],[3,1,2]]",743.1128,0,left,3.1941,746.3244,1.5,0.3,"[3,1,2]",0.408823935,stimuli/card_0_transparent.png,0,0,0,0,0,1,,,,,,,,,,
,,,,65bba472faad5088563e8ff3,B,2024-08-17_08h06.02.957,Slot Machine Game,2023.1.3,Win32,60.60606061,,,,,,,,,,,,,,,,,,,,,,,,,,,,,,,,0,,,,,,,,,,,,,10,3,,,748.1235,1,left,0.5264,748.6734,1,0.3,"[3,1,2]",0.288506921,stimuli/card_0_transparent.png,0,1,0,1,0,1,,,,,,,,,,
,,,,65bba472faad5088563e8ff3,B,2024-08-17_08h06.02.957,Slot Machine Game,2023.1.3,Win32,60.60606061,,,,,,,,,,,,,,,,,,,,,,,,,,,,,,,,100,,,,,,,,,,,,,10,3,,,749.9733,2,up,0.5344,750.5395,1.5,0.3,"[3,1,2]",0.222397634,stimuli/card_100_transparent.png,100,2,0,2,0,1,,,,,,,,,,
,,,,65bba472faad5088563e8ff3,B,2024-08-17_08h06.02.957,Slot Machine Game,2023.1.3,Win32,60.60606061,,,,,,,,,,,,,,,,,,,,,,,,,,,,,,,,200,,,,,,,,,,,,,10,3,,,752.3405,3,up,1.4436,753.8057,0.5,0.3,"[3,1,2]",0.745169359,stimuli/card_100_transparent.png,100,3,0,3,0,1,,,,,,,,,,
,,,,65bba472faad5088563e8ff3,B,2024-08-17_08h06.02.957,Slot Machine Game,2023.1.3,Win32,60.60606061,,,,,,,,,,,,,,,,,,,,,,,,,,,,,,,,300,,,,,,,,,,,,,10,3,,,754.6058,4,up,0.6337,755.2723,0.5,0.3,"[3,1,2]",0.582578091,stimuli/card_100_transparent.png,100,4,0,4,0,1,,,,,,,,,,
,,,,65bba472faad5088563e8ff3,B,2024-08-17_08h06.02.957,Slot Machine Game,2023.1.3,Win32,60.60606061,,,,,,,,,,,,,,,,,,,,,,,,,,,,,,,,300,,,,,,,,,,,,,10,3,,,756.0723,5,up,0.5599,756.6557,1.5,0.3,"[3,1,2]",0.087581796,stimuli/card_0_transparent.png,0,5,0,5,0,1,,,,,,,,,,
,,,,65bba472faad5088563e8ff3,B,2024-08-17_08h06.02.957,Slot Machine Game,2023.1.3,Win32,60.60606061,,,,,,,,,,,,,,,,,,,,,,,,,,,,,,,,400,,,,,,,,,,,,,10,3,,,758.456,6,up,0.6338,759.1218,1.5,0.3,"[3,1,2]",0.93926132,stimuli/card_100_transparent.png,100,6,0,6,0,1,,,,,,,,,,
,,,,65bba472faad5088563e8ff3,B,2024-08-17_08h06.02.957,Slot Machine Game,2023.1.3,Win32,60.60606061,,,,,,,,,,,,,,,,,,,,,,,,,,,,,,,,400,,,,,,,,,,,,,10,3,,,760.9217,7,up,2.105,763.0547,1.5,0.3,"[3,1,2]",0.071834708,stimuli/card_0_transparent.png,0,7,0,7,0,1,,,,,,,,,,
,,,,65bba472faad5088563e8ff3,B,2024-08-17_08h06.02.957,Slot Machine Game,2023.1.3,Win32,60.60606061,,,,,,,,,,,,,,,,,,,,,,,,,,,,,,,,500,,,,,,,,,,,,,10,3,,,764.8546,8,up,1.5404,766.421,1.5,0.3,"[3,1,2]",0.203833672,stimuli/card_100_transparent.png,100,8,0,8,0,1,,,,,,,,,,
,,,,65bba472faad5088563e8ff3,B,2024-08-17_08h06.02.957,Slot Machine Game,2023.1.3,Win32,60.60606061,,,,,,,,,,,,,,,,,,,,,,,,,,,,,,,,600,,,,,,,,,,,,,10,3,,,768.2211,9,up,1.2761,769.5209,0.5,0.3,"[3,1,2]",0.300089986,stimuli/card_100_transparent.png,100,9,0,9,0,1,,,,,,,,,,
,,,,65bba472faad5088563e8ff3,B,2024-08-17_08h06.02.957,Slot Machine Game,2023.1.3,Win32,60.60606061,,,,,,,,,,,,,,,,,,,,,,,,,,,,,,,,700,,,,,,,,,,,,,10,3,,,770.3205,10,up,1.0609,771.4036,1,0.3,"[3,1,2]",0.413372121,stimuli/card_100_transparent.png,100,10,0,10,0,1,,,,,,,,,,
,,,,65bba472faad5088563e8ff3,B,2024-08-17_08h06.02.957,Slot Machine Game,2023.1.3,Win32,60.60606061,,,,,,,,,,,,,,,,,,,,,,,,,,,,,,,,800,,,,,,,,,,,,,10,3,,,772.7035,11,up,1.8669,774.6035,1,0.3,"[3,1,2]",0.747728674,stimuli/card_100_transparent.png,100,11,0,11,0,1,,,,,,,,,,
,,,,65bba472faad5088563e8ff3,B,2024-08-17_08h06.02.957,Slot Machine Game,2023.1.3,Win32,60.60606061,,,,,,,,,,,,,,,,,,,,,,,,,,,,,,,,900,,,,,,,,,,,,,10,3,,,775.9033,12,up,1.022,776.9533,0.5,0.3,"[3,1,2]",0.738714133,stimuli/card_100_transparent.png,100,12,0,12,0,1,,,,,,,,,,
,,,,65bba472faad5088563e8ff3,B,2024-08-17_08h06.02.957,Slot Machine Game,2023.1.3,Win32,60.60606061,,,,,,,,,,,,,,,,,,,,,,,,,,,,,,,,1000,,,,,,,,,,,,,10,3,,,777.753,13,up,0.7371,778.503,1,0.3,"[3,1,2]",0.899371953,stimuli/card_100_transparent.png,100,13,0,13,0,1,,,,,,,,,,
,,,,65bba472faad5088563e8ff3,B,2024-08-17_08h06.02.957,Slot Machine Game,2023.1.3,Win32,60.60606061,,,,,,,,,,,,,,,,,,,,,,,,,,,,,,,,1100,,,,,,,,,,,,,10,3,,,779.8027,14,up,1.407,781.2362,0.5,0.3,"[3,1,2]",0.621127177,stimuli/card_100_transparent.png,100,14,0,14,0,1,,,,,,,,,,
,,,,65bba472faad5088563e8ff3,B,2024-08-17_08h06.02.957,Slot Machine Game,2023.1.3,Win32,60.60606061,,,,,,,,,,,,,,,,,,,,,,,,,,,,,,,,,,782.0359,,,,,,,,,,,,,,,,,,,,,,,,,,,,,,,"[920,830,460,530,280,850,560,720,930,1100]",9,0,9,0,1,,,,
,,,,65bba472faad5088563e8ff3,B,2024-08-17_08h06.02.957,Slot Machine Game,2023.1.3,Win32,60.60606061,,,,,,,,,,,,,,,,,,,,,,,,,,,,,,,,,,,,,,,,,,,,,,,,,,,,,,,,,,,,,,,,,,,,,,,9,"[920,830,460,530,280,850,560,720,930,1100]",8.3,2024-08-17_08h19.14.089
