key_resp_welcome_started,key_resp_welcome_keys,key_resp_welcome_rt,key_resp_welcome_duration,prolific_pid,path_id,date,expName,psychopyVersion,OS,frameRate,key_resp_instruction1_started,key_resp_instruction1_keys,key_resp_instruction1_rt,key_resp_instruction1_duration,key_resp_instruction2_started,key_resp_instruction2_keys,key_resp_instruction2_rt,key_resp_instruction2_duration,key_resp_instruction3_started,key_resp_instruction3_keys,key_resp_instruction3_rt,key_resp_instruction3_duration,key_resp_instruction4_started,key_resp_instruction4_keys,key_resp_instruction4_rt,key_resp_instruction4_duration,practiceCondition,practice_reward_seqs,practice_trial_started,practice_trial_num,prac_presentationInterval,practice_reward_seq,practice_trials.thisRepN,practice_trials.thisTrialN,practice_trials.thisN,practice_trials.thisIndex,practice_trials.ran,practice_resp_rt,practice_keypress_time,practice_resp_keys,reward_img,cumulative_reward,trial_reward,block_break_started,practice_end_time,practice_end_keys,practice_end_rt,practice_end_duration,main_instruction_text_started,block_condition,block_order_indices,main_instruction_keys,main_instruction_rt,main_instruction_duration,block_number,block_assignment,current_condition,main_reward_seqs,main_trial_started,main_trial_num,main_trial_keys,main_trial_rt,main_trial_keypress_time,main_presentationInterval,reward_presentation_time,main_reward_seq,reward_rand_val,main_reward_img,current_reward,main_trials.thisRepN,main_trials.thisTrialN,main_trials.thisN,main_trials.thisIndex,main_trials.ran,block_reward,block.thisRepN,block.thisTrialN,block.thisN,block.thisIndex,block.ran,block_reward.length,block_reward_all,reward_amount,date_end_task
0.0007,space,3.7204,,65be01834062b6540bf90833,B,2024-08-16_15h42.27.420,Slot Machine Game,2023.1.3,Win32,59.52380952,,,,,,,,,,,,,,,,,,,,,,,,,,,,,,,,,,,,,,,,,,,,,,,,,,,,,,,,,,,,,,,,,,,,,,,,,,
,,,,65be01834062b6540bf90833,B,2024-08-16_15h42.27.420,Slot Machine Game,2023.1.3,Win32,59.52380952,3.7427,space,35.2096,,,,,,,,,,,,,,,,,,,,,,,,,,,,,,,,,,,,,,,,,,,,,,,,,,,,,,,,,,,,,,,,,,,,,,,
,,,,65be01834062b6540bf90833,B,2024-08-16_15h42.27.420,Slot Machine Game,2023.1.3,Win32,59.52380952,,,,,38.9867,space,26.5195,,,,,,,,,,,,,,,,,,,,,,,,,,,,,,,,,,,,,,,,,,,,,,,,,,,,,,,,,,,,,,,,,,,
,,,,65be01834062b6540bf90833,B,2024-08-16_15h42.27.420,Slot Machine Game,2023.1.3,Win32,59.52380952,,,,,,,,,65.5526,space,10.1327,,,,,,,,,,,,,,,,,,,,,,,,,,,,,,,,,,,,,,,,,,,,,,,,,,,,,,,,,,,,,,,
,,,,65be01834062b6540bf90833,B,2024-08-16_15h42.27.420,Slot Machine Game,2023.1.3,Win32,59.52380952,,,,,,,,,,,,,,,,,,,,,,,,,,,,,,,,,,,,,,,,,,,,,,,,,,,,,,,,,,,,,,,,,,,,,,,,,,
,,,,65be01834062b6540bf90833,B,2024-08-16_15h42.27.420,Slot Machine Game,2023.1.3,Win32,59.52380952,,,,,,,,,,,,,217.946,space,5.3666,,,,,,,,,,,,,,,,,,,,,,,,,,,,,,,,,,,,,,,,,,,,,,,,,,,,,,,,,,,
,,,,65be01834062b6540bf90833,B,2024-08-16_15h42.27.420,Slot Machine Game,2023.1.3,Win32,59.52380952,,,,,,,,,,,,,,,,,"[9,15]","[[2,1,3],[2,3,1]]",223.3719,0,1.5,"[2,1,3]",0,0,0,0,1,,,,,,,,,,,,,,,,,,,,,,,,,,,,,,,,,,,,,,,,,,,,,,,
,,,,65be01834062b6540bf90833,B,2024-08-16_15h42.27.420,Slot Machine Game,2023.1.3,Win32,59.52380952,,,,,,,,,,,,,,,,,,,228.9025,1,1,"[2,1,3]",1,0,1,0,1,4.0039,232.9235,up,stimuli/card_100_transparent.png,100,100,,,,,,,,,,,,,,,,,,,,,,,,,,,,,,,,,,,,,,,,,
,,,,65be01834062b6540bf90833,B,2024-08-16_15h42.27.420,Slot Machine Game,2023.1.3,Win32,59.52380952,,,,,,,,,,,,,,,,,,,234.2234,2,1,"[2,1,3]",2,0,2,0,1,1.5427,235.7893,up,stimuli/card_0_transparent.png,100,0,,,,,,,,,,,,,,,,,,,,,,,,,,,,,,,,,,,,,,,,,
,,,,65be01834062b6540bf90833,B,2024-08-16_15h42.27.420,Slot Machine Game,2023.1.3,Win32,59.52380952,,,,,,,,,,,,,,,,,,,237.0898,3,1,"[2,1,3]",3,0,3,0,1,2.2254,239.3396,up,stimuli/card_100_transparent.png,200,100,,,,,,,,,,,,,,,,,,,,,,,,,,,,,,,,,,,,,,,,,
,,,,65be01834062b6540bf90833,B,2024-08-16_15h42.27.420,Slot Machine Game,2023.1.3,Win32,59.52380952,,,,,,,,,,,,,,,,,,,240.6397,4,1.5,"[2,1,3]",4,0,4,0,1,4.3504,245.0227,up,stimuli/card_100_transparent.png,300,100,,,,,,,,,,,,,,,,,,,,,,,,,,,,,,,,,,,,,,,,,
,,,,65be01834062b6540bf90833,B,2024-08-16_15h42.27.420,Slot Machine Game,2023.1.3,Win32,59.52380952,,,,,,,,,,,,,,,,,,,246.8222,5,1,"[2,1,3]",5,0,5,0,1,1.4845,248.339,up,stimuli/card_100_transparent.png,400,100,,,,,,,,,,,,,,,,,,,,,,,,,,,,,,,,,,,,,,,,,
,,,,65be01834062b6540bf90833,B,2024-08-16_15h42.27.420,Slot Machine Game,2023.1.3,Win32,59.52380952,,,,,,,,,,,,,,,,,,,249.639,6,0.5,"[2,1,3]",6,0,6,0,1,0.9577,250.6221,up,stimuli/card_10_transparent.png,410,10,,,,,,,,,,,,,,,,,,,,,,,,,,,,,,,,,,,,,,,,,
,,,,65be01834062b6540bf90833,B,2024-08-16_15h42.27.420,Slot Machine Game,2023.1.3,Win32,59.52380952,,,,,,,,,,,,,,,,,,,251.4219,7,1.5,"[2,1,3]",7,0,7,0,1,1.5241,252.9717,up,stimuli/card_100_transparent.png,510,100,,,,,,,,,,,,,,,,,,,,,,,,,,,,,,,,,,,,,,,,,
,,,,65be01834062b6540bf90833,B,2024-08-16_15h42.27.420,Slot Machine Game,2023.1.3,Win32,59.52380952,,,,,,,,,,,,,,,,,,,254.772,8,1.5,"[2,1,3]",8,0,8,0,1,0.7748,255.572,up,stimuli/card_100_transparent.png,610,100,,,,,,,,,,,,,,,,,,,,,,,,,,,,,,,,,,,,,,,,,
,,,,65be01834062b6540bf90833,B,2024-08-16_15h42.27.420,Slot Machine Game,2023.1.3,Win32,59.52380952,,,,,,,,,,,,,,,,,,,257.3719,9,1.5,"[2,3,1]",9,0,9,0,1,1.3335,258.7386,up,stimuli/card_0_transparent.png,610,0,,,,,,,,,,,,,,,,,,,,,,,,,,,,,,,,,,,,,,,,,
,,,,65be01834062b6540bf90833,B,2024-08-16_15h42.27.420,Slot Machine Game,2023.1.3,Win32,59.52380952,,,,,,,,,,,,,,,,,,,260.5378,10,0.5,"[2,3,1]",10,0,10,0,1,0.5342,261.105,up,stimuli/card_0_transparent.png,610,0,,,,,,,,,,,,,,,,,,,,,,,,,,,,,,,,,,,,,,,,,
,,,,65be01834062b6540bf90833,B,2024-08-16_15h42.27.420,Slot Machine Game,2023.1.3,Win32,59.52380952,,,,,,,,,,,,,,,,,,,261.9049,11,0.5,"[2,3,1]",11,0,11,0,1,0.8213,262.7549,up,stimuli/card_0_transparent.png,610,0,,,,,,,,,,,,,,,,,,,,,,,,,,,,,,,,,,,,,,,,,
,,,,65be01834062b6540bf90833,B,2024-08-16_15h42.27.420,Slot Machine Game,2023.1.3,Win32,59.52380952,,,,,,,,,,,,,,,,,,,263.5545,12,1.5,"[2,3,1]",12,0,12,0,1,1.0767,264.655,up,stimuli/card_0_transparent.png,610,0,,,,,,,,,,,,,,,,,,,,,,,,,,,,,,,,,,,,,,,,,
,,,,65be01834062b6540bf90833,B,2024-08-16_15h42.27.420,Slot Machine Game,2023.1.3,Win32,59.52380952,,,,,,,,,,,,,,,,,,,266.4547,13,1,"[2,3,1]",13,0,13,0,1,1.6592,268.1389,up,stimuli/card_100_transparent.png,710,100,,,,,,,,,,,,,,,,,,,,,,,,,,,,,,,,,,,,,,,,,
,,,,65be01834062b6540bf90833,B,2024-08-16_15h42.27.420,Slot Machine Game,2023.1.3,Win32,59.52380952,,,,,,,,,,,,,,,,,,,269.4376,14,1,"[2,3,1]",14,0,14,0,1,0.684,270.1546,up,stimuli/card_0_transparent.png,710,0,,,,,,,,,,,,,,,,,,,,,,,,,,,,,,,,,,,,,,,,,
,,,,65be01834062b6540bf90833,B,2024-08-16_15h42.27.420,Slot Machine Game,2023.1.3,Win32,59.52380952,,,,,,,,,,,,,,,,,"[6,15]","[[1,3,2],[3,1,2]]",276.4868,0,1.5,"[1,3,2]",0,0,0,0,1,0.8655,277.3873,right,stimuli/card_10_transparent.png,10,10,271.4854,,,,,,,,,,,,,,,,,,,,,,,,,,,,,,,,,,,,,,,,
,,,,65be01834062b6540bf90833,B,2024-08-16_15h42.27.420,Slot Machine Game,2023.1.3,Win32,59.52380952,,,,,,,,,,,,,,,,,,,279.187,1,0.5,"[1,3,2]",1,0,1,0,1,0.6412,279.8538,up,stimuli/card_0_transparent.png,10,0,,,,,,,,,,,,,,,,,,,,,,,,,,,,,,,,,,,,,,,,,
,,,,65be01834062b6540bf90833,B,2024-08-16_15h42.27.420,Slot Machine Game,2023.1.3,Win32,59.52380952,,,,,,,,,,,,,,,,,,,280.6534,2,1.5,"[1,3,2]",2,0,2,0,1,0.7516,281.4369,up,stimuli/card_0_transparent.png,10,0,,,,,,,,,,,,,,,,,,,,,,,,,,,,,,,,,,,,,,,,,
,,,,65be01834062b6540bf90833,B,2024-08-16_15h42.27.420,Slot Machine Game,2023.1.3,Win32,59.52380952,,,,,,,,,,,,,,,,,,,283.2367,3,0.5,"[1,3,2]",3,0,3,0,1,2.4513,285.7203,up,stimuli/card_0_transparent.png,10,0,,,,,,,,,,,,,,,,,,,,,,,,,,,,,,,,,,,,,,,,,
,,,,65be01834062b6540bf90833,B,2024-08-16_15h42.27.420,Slot Machine Game,2023.1.3,Win32,59.52380952,,,,,,,,,,,,,,,,,,,286.5201,4,1.5,"[1,3,2]",4,0,4,0,1,1.1541,287.7035,right,stimuli/card_10_transparent.png,20,10,,,,,,,,,,,,,,,,,,,,,,,,,,,,,,,,,,,,,,,,,
,,,,65be01834062b6540bf90833,B,2024-08-16_15h42.27.420,Slot Machine Game,2023.1.3,Win32,59.52380952,,,,,,,,,,,,,,,,,,,289.5032,5,1,"[1,3,2]",5,0,5,0,1,1.6183,291.1534,left,stimuli/card_100_transparent.png,120,100,,,,,,,,,,,,,,,,,,,,,,,,,,,,,,,,,,,,,,,,,
,,,,65be01834062b6540bf90833,B,2024-08-16_15h42.27.420,Slot Machine Game,2023.1.3,Win32,59.52380952,,,,,,,,,,,,,,,,,,,292.4529,6,1.5,"[3,1,2]",6,0,6,0,1,1.0843,293.5699,left,stimuli/card_0_transparent.png,120,0,,,,,,,,,,,,,,,,,,,,,,,,,,,,,,,,,,,,,,,,,
,,,,65be01834062b6540bf90833,B,2024-08-16_15h42.27.420,Slot Machine Game,2023.1.3,Win32,59.52380952,,,,,,,,,,,,,,,,,,,295.3692,7,1.5,"[3,1,2]",7,0,7,0,1,1.0849,296.4773,left,stimuli/card_0_transparent.png,120,0,,,,,,,,,,,,,,,,,,,,,,,,,,,,,,,,,,,,,,,,,
,,,,65be01834062b6540bf90833,B,2024-08-16_15h42.27.420,Slot Machine Game,2023.1.3,Win32,59.52380952,,,,,,,,,,,,,,,,,,,298.269,8,1.5,"[3,1,2]",8,0,8,0,1,0.9682,299.2695,right,stimuli/card_10_transparent.png,130,10,,,,,,,,,,,,,,,,,,,,,,,,,,,,,,,,,,,,,,,,,
,,,,65be01834062b6540bf90833,B,2024-08-16_15h42.27.420,Slot Machine Game,2023.1.3,Win32,59.52380952,,,,,,,,,,,,,,,,,,,301.0691,9,1,"[3,1,2]",9,0,9,0,1,1.3211,302.4188,right,stimuli/card_10_transparent.png,140,10,,,,,,,,,,,,,,,,,,,,,,,,,,,,,,,,,,,,,,,,,
,,,,65be01834062b6540bf90833,B,2024-08-16_15h42.27.420,Slot Machine Game,2023.1.3,Win32,59.52380952,,,,,,,,,,,,,,,,,,,303.719,10,0.5,"[3,1,2]",10,0,10,0,1,0.8678,304.6189,left,stimuli/card_100_transparent.png,240,100,,,,,,,,,,,,,,,,,,,,,,,,,,,,,,,,,,,,,,,,,
,,,,65be01834062b6540bf90833,B,2024-08-16_15h42.27.420,Slot Machine Game,2023.1.3,Win32,59.52380952,,,,,,,,,,,,,,,,,,,305.4189,11,0.5,"[3,1,2]",11,0,11,0,1,2.1713,307.6189,up,stimuli/card_100_transparent.png,340,100,,,,,,,,,,,,,,,,,,,,,,,,,,,,,,,,,,,,,,,,,
,,,,65be01834062b6540bf90833,B,2024-08-16_15h42.27.420,Slot Machine Game,2023.1.3,Win32,59.52380952,,,,,,,,,,,,,,,,,,,308.4188,12,1,"[3,1,2]",12,0,12,0,1,1.4057,309.8521,up,stimuli/card_100_transparent.png,440,100,,,,,,,,,,,,,,,,,,,,,,,,,,,,,,,,,,,,,,,,,
,,,,65be01834062b6540bf90833,B,2024-08-16_15h42.27.420,Slot Machine Game,2023.1.3,Win32,59.52380952,,,,,,,,,,,,,,,,,,,311.1519,13,1,"[3,1,2]",13,0,13,0,1,1.3197,312.5018,up,stimuli/card_10_transparent.png,450,10,,,,,,,,,,,,,,,,,,,,,,,,,,,,,,,,,,,,,,,,,
,,,,65be01834062b6540bf90833,B,2024-08-16_15h42.27.420,Slot Machine Game,2023.1.3,Win32,59.52380952,,,,,,,,,,,,,,,,,,,313.8016,14,1.5,"[3,1,2]",14,0,14,0,1,0.5181,314.3519,left,stimuli/card_0_transparent.png,450,0,,,,,,,,,,,,,,,,,,,,,,,,,,,,,,,,,,,,,,,,,
,,,,65be01834062b6540bf90833,B,2024-08-16_15h42.27.420,Slot Machine Game,2023.1.3,Win32,59.52380952,,,,,,,,,,,,,,,,,,,,,,,,,,,,,,,,,,316.1514,321.1539,space,4.6212,,,,,,,,,,,,,,,,,,,,,,,,,,,,,,,,,,,,,
,,,,65be01834062b6540bf90833,B,2024-08-16_15h42.27.420,Slot Machine Game,2023.1.3,Win32,59.52380952,,,,,,,,,,,,,,,,,,,,,,,,,,,,,,,,,,,,,,,325.8037,2,"[2,4,7,0,1,3,9,6,8,5]",space,4.2961,,,,,,,,,,,,,,,,,,,,,,,,,,,,,,,
,,,,65be01834062b6540bf90833,B,2024-08-16_15h42.27.420,Slot Machine Game,2023.1.3,Win32,59.52380952,,,,,,,,,,,,,,,,,,,,,,,,,,,,,,,,0,,,,,,,,,,,,,1,3,"[15,15]","[[3,1,2],[3,1,2]]",330.1708,0,left,3.0325,333.2347,0.5,0.3,"[3,1,2]",0.687596649,stimuli/card_0_transparent.png,0,0,0,0,0,1,,,,,,,,,,
,,,,65be01834062b6540bf90833,B,2024-08-16_15h42.27.420,Slot Machine Game,2023.1.3,Win32,59.52380952,,,,,,,,,,,,,,,,,,,,,,,,,,,,,,,,,,,,,,,,,,,,,1,3,,,334.0354,1,,,,1.5,0.3,,,,,1,0,1,0,1,,,,,,,,,,
,,,,65be01834062b6540bf90833,B,2024-08-16_15h42.27.420,Slot Machine Game,2023.1.3,Win32,59.52380952,,,,,,,,,,,,,,,,,,,,,,,,,,,,,,,,0,,,,,,,,,,,,,1,3,,,339.5523,2,right,1.3077,340.8868,1.5,0.3,"[3,1,2]",0.069078377,stimuli/card_0_transparent.png,0,2,0,2,0,1,,,,,,,,,,
,,,,65be01834062b6540bf90833,B,2024-08-16_15h42.27.420,Slot Machine Game,2023.1.3,Win32,59.52380952,,,,,,,,,,,,,,,,,,,,,,,,,,,,,,,,0,,,,,,,,,,,,,1,3,,,342.6837,3,left,0.9014,343.617,1,0.3,"[3,1,2]",0.280372163,stimuli/card_0_transparent.png,0,3,0,3,0,1,,,,,,,,,,
,,,,65be01834062b6540bf90833,B,2024-08-16_15h42.27.420,Slot Machine Game,2023.1.3,Win32,59.52380952,,,,,,,,,,,,,,,,,,,,,,,,,,,,,,,,10,,,,,,,,,,,,,1,3,,,344.9168,4,up,1.0031,345.9504,1,0.3,"[3,1,2]",0.152029725,stimuli/card_10_transparent.png,10,4,0,4,0,1,,,,,,,,,,
,,,,65be01834062b6540bf90833,B,2024-08-16_15h42.27.420,Slot Machine Game,2023.1.3,Win32,59.52380952,,,,,,,,,,,,,,,,,,,,,,,,,,,,,,,,110,,,,,,,,,,,,,1,3,,,347.2501,5,up,0.667,347.9498,0.5,0.3,"[3,1,2]",0.584321088,stimuli/card_100_transparent.png,100,5,0,5,0,1,,,,,,,,,,
,,,,65be01834062b6540bf90833,B,2024-08-16_15h42.27.420,Slot Machine Game,2023.1.3,Win32,59.52380952,,,,,,,,,,,,,,,,,,,,,,,,,,,,,,,,210,,,,,,,,,,,,,1,3,,,348.7499,6,up,0.9516,349.7343,1.5,0.3,"[3,1,2]",0.471688637,stimuli/card_100_transparent.png,100,6,0,6,0,1,,,,,,,,,,
,,,,65be01834062b6540bf90833,B,2024-08-16_15h42.27.420,Slot Machine Game,2023.1.3,Win32,59.52380952,,,,,,,,,,,,,,,,,,,,,,,,,,,,,,,,310,,,,,,,,,,,,,1,3,,,351.5331,7,up,0.5932,352.1507,0.5,0.3,"[3,1,2]",0.407852694,stimuli/card_100_transparent.png,100,7,0,7,0,1,,,,,,,,,,
,,,,65be01834062b6540bf90833,B,2024-08-16_15h42.27.420,Slot Machine Game,2023.1.3,Win32,59.52380952,,,,,,,,,,,,,,,,,,,,,,,,,,,,,,,,410,,,,,,,,,,,,,1,3,,,352.9497,8,up,1.1385,354.1169,0.5,0.3,"[3,1,2]",0.243954096,stimuli/card_100_transparent.png,100,8,0,8,0,1,,,,,,,,,,
,,,,65be01834062b6540bf90833,B,2024-08-16_15h42.27.420,Slot Machine Game,2023.1.3,Win32,59.52380952,,,,,,,,,,,,,,,,,,,,,,,,,,,,,,,,510,,,,,,,,,,,,,1,3,,,354.9163,9,up,0.5056,355.4495,0.5,0.3,"[3,1,2]",0.831345316,stimuli/card_100_transparent.png,100,9,0,9,0,1,,,,,,,,,,
,,,,65be01834062b6540bf90833,B,2024-08-16_15h42.27.420,Slot Machine Game,2023.1.3,Win32,59.52380952,,,,,,,,,,,,,,,,,,,,,,,,,,,,,,,,610,,,,,,,,,,,,,1,3,,,356.2497,10,up,0.6514,356.9327,1.5,0.3,"[3,1,2]",0.514628857,stimuli/card_100_transparent.png,100,10,0,10,0,1,,,,,,,,,,
,,,,65be01834062b6540bf90833,B,2024-08-16_15h42.27.420,Slot Machine Game,2023.1.3,Win32,59.52380952,,,,,,,,,,,,,,,,,,,,,,,,,,,,,,,,710,,,,,,,,,,,,,1,3,,,358.7324,11,up,1.158,359.9159,1.5,0.3,"[3,1,2]",0.965911704,stimuli/card_100_transparent.png,100,11,0,11,0,1,,,,,,,,,,
,,,,65be01834062b6540bf90833,B,2024-08-16_15h42.27.420,Slot Machine Game,2023.1.3,Win32,59.52380952,,,,,,,,,,,,,,,,,,,,,,,,,,,,,,,,810,,,,,,,,,,,,,1,3,,,361.7158,12,up,0.5775,362.3167,1,0.3,"[3,1,2]",0.905327248,stimuli/card_100_transparent.png,100,12,0,12,0,1,,,,,,,,,,
,,,,65be01834062b6540bf90833,B,2024-08-16_15h42.27.420,Slot Machine Game,2023.1.3,Win32,59.52380952,,,,,,,,,,,,,,,,,,,,,,,,,,,,,,,,810,,,,,,,,,,,,,1,3,,,363.6159,13,up,0.5007,364.1486,0.5,0.3,"[3,1,2]",0.009146089,stimuli/card_0_transparent.png,0,13,0,13,0,1,,,,,,,,,,
,,,,65be01834062b6540bf90833,B,2024-08-16_15h42.27.420,Slot Machine Game,2023.1.3,Win32,59.52380952,,,,,,,,,,,,,,,,,,,,,,,,,,,,,,,,910,,,,,,,,,,,,,1,3,,,364.9487,14,up,1.3514,366.3336,1.5,0.3,"[3,1,2]",0.425494393,stimuli/card_100_transparent.png,100,14,0,14,0,1,,,,,,,,,,
,,,,65be01834062b6540bf90833,B,2024-08-16_15h42.27.420,Slot Machine Game,2023.1.3,Win32,59.52380952,,,,,,,,,,,,,,,,,,,,,,,,,,,,,,,,,,368.1324,,,,,,,,,,,,,,,,,,,,,,,,,,,,,,,[910],0,0,0,0,1,,,,
,,,,65be01834062b6540bf90833,B,2024-08-16_15h42.27.420,Slot Machine Game,2023.1.3,Win32,59.52380952,,,,,,,,,,,,,,,,,,,,,,,,,,,,,,,,10,,,,,,,,,,,,,2,5,"[5,15]","[[1,2,3],[3,1,2]]",373.1673,0,up,1.8409,375.0315,0.5,0.3,"[1,2,3]",0.47174541,stimuli/card_10_transparent.png,10,0,0,0,0,1,,,,,,,,,,
,,,,65be01834062b6540bf90833,B,2024-08-16_15h42.27.420,Slot Machine Game,2023.1.3,Win32,59.52380952,,,,,,,,,,,,,,,,,,,,,,,,,,,,,,,,20,,,,,,,,,,,,,2,5,,,375.8313,1,up,0.8643,376.7312,1.5,0.3,"[1,2,3]",0.696453619,stimuli/card_10_transparent.png,10,1,0,1,0,1,,,,,,,,,,
,,,,65be01834062b6540bf90833,B,2024-08-16_15h42.27.420,Slot Machine Game,2023.1.3,Win32,59.52380952,,,,,,,,,,,,,,,,,,,,,,,,,,,,,,,,120,,,,,,,,,,,,,2,5,,,378.5311,2,left,0.9526,379.5145,0.5,0.3,"[1,2,3]",0.882032549,stimuli/card_100_transparent.png,100,2,0,2,0,1,,,,,,,,,,
,,,,65be01834062b6540bf90833,B,2024-08-16_15h42.27.420,Slot Machine Game,2023.1.3,Win32,59.52380952,,,,,,,,,,,,,,,,,,,,,,,,,,,,,,,,220,,,,,,,,,,,,,2,5,,,380.3143,3,left,1.2527,381.5977,1,0.3,"[1,2,3]",0.834760864,stimuli/card_100_transparent.png,100,3,0,3,0,1,,,,,,,,,,
,,,,65be01834062b6540bf90833,B,2024-08-16_15h42.27.420,Slot Machine Game,2023.1.3,Win32,59.52380952,,,,,,,,,,,,,,,,,,,,,,,,,,,,,,,,320,,,,,,,,,,,,,2,5,,,382.8971,4,left,0.5524,383.4807,1.5,0.3,"[1,2,3]",0.213209309,stimuli/card_100_transparent.png,100,4,0,4,0,1,,,,,,,,,,
,,,,65be01834062b6540bf90833,B,2024-08-16_15h42.27.420,Slot Machine Game,2023.1.3,Win32,59.52380952,,,,,,,,,,,,,,,,,,,,,,,,,,,,,,,,320,,,,,,,,,,,,,2,5,,,385.2806,5,left,0.5223,385.8307,1.5,0.3,"[3,1,2]",0.880844623,stimuli/card_0_transparent.png,0,5,0,5,0,1,,,,,,,,,,
,,,,65be01834062b6540bf90833,B,2024-08-16_15h42.27.420,Slot Machine Game,2023.1.3,Win32,59.52380952,,,,,,,,,,,,,,,,,,,,,,,,,,,,,,,,330,,,,,,,,,,,,,2,5,,,387.6303,6,right,1.2507,388.9133,0.5,0.3,"[3,1,2]",0.526029266,stimuli/card_10_transparent.png,10,6,0,6,0,1,,,,,,,,,,
,,,,65be01834062b6540bf90833,B,2024-08-16_15h42.27.420,Slot Machine Game,2023.1.3,Win32,59.52380952,,,,,,,,,,,,,,,,,,,,,,,,,,,,,,,,430,,,,,,,,,,,,,2,5,,,389.7134,7,up,0.9243,390.6637,1.5,0.3,"[3,1,2]",0.43189862,stimuli/card_100_transparent.png,100,7,0,7,0,1,,,,,,,,,,
,,,,65be01834062b6540bf90833,B,2024-08-16_15h42.27.420,Slot Machine Game,2023.1.3,Win32,59.52380952,,,,,,,,,,,,,,,,,,,,,,,,,,,,,,,,530,,,,,,,,,,,,,2,5,,,392.4633,8,up,0.5931,393.0801,1,0.3,"[3,1,2]",0.862567928,stimuli/card_100_transparent.png,100,8,0,8,0,1,,,,,,,,,,
,,,,65be01834062b6540bf90833,B,2024-08-16_15h42.27.420,Slot Machine Game,2023.1.3,Win32,59.52380952,,,,,,,,,,,,,,,,,,,,,,,,,,,,,,,,630,,,,,,,,,,,,,2,5,,,394.3802,9,up,0.9534,395.3635,1.5,0.3,"[3,1,2]",0.428555017,stimuli/card_100_transparent.png,100,9,0,9,0,1,,,,,,,,,,
,,,,65be01834062b6540bf90833,B,2024-08-16_15h42.27.420,Slot Machine Game,2023.1.3,Win32,59.52380952,,,,,,,,,,,,,,,,,,,,,,,,,,,,,,,,630,,,,,,,,,,,,,2,5,,,397.1632,10,up,0.9175,398.1131,1,0.3,"[3,1,2]",0.044439822,stimuli/card_0_transparent.png,0,10,0,10,0,1,,,,,,,,,,
,,,,65be01834062b6540bf90833,B,2024-08-16_15h42.27.420,Slot Machine Game,2023.1.3,Win32,59.52380952,,,,,,,,,,,,,,,,,,,,,,,,,,,,,,,,730,,,,,,,,,,,,,2,5,,,399.4129,11,right,0.7104,400.1465,1.5,0.3,"[3,1,2]",0.126820637,stimuli/card_100_transparent.png,100,11,0,11,0,1,,,,,,,,,,
,,,,65be01834062b6540bf90833,B,2024-08-16_15h42.27.420,Slot Machine Game,2023.1.3,Win32,59.52380952,,,,,,,,,,,,,,,,,,,,,,,,,,,,,,,,740,,,,,,,,,,,,,2,5,,,401.9457,12,right,1.4929,403.4629,1,0.3,"[3,1,2]",0.644109233,stimuli/card_10_transparent.png,10,12,0,12,0,1,,,,,,,,,,
,,,,65be01834062b6540bf90833,B,2024-08-16_15h42.27.420,Slot Machine Game,2023.1.3,Win32,59.52380952,,,,,,,,,,,,,,,,,,,,,,,,,,,,,,,,750,,,,,,,,,,,,,2,5,,,404.7628,13,right,0.6847,405.4799,1.5,0.3,"[3,1,2]",0.650650463,stimuli/card_10_transparent.png,10,13,0,13,0,1,,,,,,,,,,
,,,,65be01834062b6540bf90833,B,2024-08-16_15h42.27.420,Slot Machine Game,2023.1.3,Win32,59.52380952,,,,,,,,,,,,,,,,,,,,,,,,,,,,,,,,750,,,,,,,,,,,,,2,5,,,407.2793,14,up,0.9226,408.2292,1,0.3,"[3,1,2]",0.059495068,stimuli/card_0_transparent.png,0,14,0,14,0,1,,,,,,,,,,
,,,,65be01834062b6540bf90833,B,2024-08-16_15h42.27.420,Slot Machine Game,2023.1.3,Win32,59.52380952,,,,,,,,,,,,,,,,,,,,,,,,,,,,,,,,,,409.5292,,,,,,,,,,,,,,,,,,,,,,,,,,,,,,,"[910,750]",1,0,1,0,1,,,,
,,,,65be01834062b6540bf90833,B,2024-08-16_15h42.27.420,Slot Machine Game,2023.1.3,Win32,59.52380952,,,,,,,,,,,,,,,,,,,,,,,,,,,,,,,,10,,,,,,,,,,,,,3,8,"[11,15]","[[2,1,3],[1,2,3]]",414.563,0,up,1.7438,416.3294,1,0.3,"[2,1,3]",0.148659198,stimuli/card_10_transparent.png,10,0,0,0,0,1,,,,,,,,,,
,,,,65be01834062b6540bf90833,B,2024-08-16_15h42.27.420,Slot Machine Game,2023.1.3,Win32,59.52380952,,,,,,,,,,,,,,,,,,,,,,,,,,,,,,,,20,,,,,,,,,,,,,3,8,,,417.6287,1,left,0.953,418.6125,1,0.3,"[2,1,3]",0.391863091,stimuli/card_10_transparent.png,10,1,0,1,0,1,,,,,,,,,,
,,,,65be01834062b6540bf90833,B,2024-08-16_15h42.27.420,Slot Machine Game,2023.1.3,Win32,59.52380952,,,,,,,,,,,,,,,,,,,,,,,,,,,,,,,,30,,,,,,,,,,,,,3,8,,,419.9114,2,left,2.9427,422.8783,1.5,0.3,"[2,1,3]",0.226069084,stimuli/card_10_transparent.png,10,2,0,2,0,1,,,,,,,,,,
,,,,65be01834062b6540bf90833,B,2024-08-16_15h42.27.420,Slot Machine Game,2023.1.3,Win32,59.52380952,,,,,,,,,,,,,,,,,,,,,,,,,,,,,,,,30,,,,,,,,,,,,,3,8,,,424.6778,3,right,1.0674,425.778,0.5,0.3,"[2,1,3]",0.971039046,stimuli/card_0_transparent.png,0,3,0,3,0,1,,,,,,,,,,
,,,,65be01834062b6540bf90833,B,2024-08-16_15h42.27.420,Slot Machine Game,2023.1.3,Win32,59.52380952,,,,,,,,,,,,,,,,,,,,,,,,,,,,,,,,30,,,,,,,,,,,,,3,8,,,426.5778,4,right,1.0683,427.6778,1,0.3,"[2,1,3]",0.815199095,stimuli/card_0_transparent.png,0,4,0,4,0,1,,,,,,,,,,
,,,,65be01834062b6540bf90833,B,2024-08-16_15h42.27.420,Slot Machine Game,2023.1.3,Win32,59.52380952,,,,,,,,,,,,,,,,,,,,,,,,,,,,,,,,130,,,,,,,,,,,,,3,8,,,428.9776,5,up,1.0844,430.0942,1.5,0.3,"[2,1,3]",0.51735767,stimuli/card_100_transparent.png,100,5,0,5,0,1,,,,,,,,,,
,,,,65be01834062b6540bf90833,B,2024-08-16_15h42.27.420,Slot Machine Game,2023.1.3,Win32,59.52380952,,,,,,,,,,,,,,,,,,,,,,,,,,,,,,,,140,,,,,,,,,,,,,3,8,,,431.894,6,up,0.6947,432.6111,0.5,0.3,"[2,1,3]",0.189692605,stimuli/card_10_transparent.png,10,6,0,6,0,1,,,,,,,,,,
,,,,65be01834062b6540bf90833,B,2024-08-16_15h42.27.420,Slot Machine Game,2023.1.3,Win32,59.52380952,,,,,,,,,,,,,,,,,,,,,,,,,,,,,,,,240,,,,,,,,,,,,,3,8,,,433.411,7,up,0.6847,434.1276,1,0.3,"[2,1,3]",0.40628316,stimuli/card_100_transparent.png,100,7,0,7,0,1,,,,,,,,,,
,,,,65be01834062b6540bf90833,B,2024-08-16_15h42.27.420,Slot Machine Game,2023.1.3,Win32,59.52380952,,,,,,,,,,,,,,,,,,,,,,,,,,,,,,,,340,,,,,,,,,,,,,3,8,,,435.4272,8,up,0.5221,435.9776,1,0.3,"[2,1,3]",0.538924755,stimuli/card_100_transparent.png,100,8,0,8,0,1,,,,,,,,,,
,,,,65be01834062b6540bf90833,B,2024-08-16_15h42.27.420,Slot Machine Game,2023.1.3,Win32,59.52380952,,,,,,,,,,,,,,,,,,,,,,,,,,,,,,,,440,,,,,,,,,,,,,3,8,,,437.2769,9,up,1.0055,438.3111,1.5,0.3,"[2,1,3]",0.823702562,stimuli/card_100_transparent.png,100,9,0,9,0,1,,,,,,,,,,
,,,,65be01834062b6540bf90833,B,2024-08-16_15h42.27.420,Slot Machine Game,2023.1.3,Win32,59.52380952,,,,,,,,,,,,,,,,,,,,,,,,,,,,,,,,440,,,,,,,,,,,,,3,8,,,440.1107,10,up,0.8366,440.9768,1.5,0.3,"[2,1,3]",0.072949658,stimuli/card_0_transparent.png,0,10,0,10,0,1,,,,,,,,,,
,,,,65be01834062b6540bf90833,B,2024-08-16_15h42.27.420,Slot Machine Game,2023.1.3,Win32,59.52380952,,,,,,,,,,,,,,,,,,,,,,,,,,,,,,,,540,,,,,,,,,,,,,3,8,,,442.7772,11,left,0.5886,443.394,1.5,0.3,"[1,2,3]",0.863038705,stimuli/card_100_transparent.png,100,11,0,11,0,1,,,,,,,,,,
,,,,65be01834062b6540bf90833,B,2024-08-16_15h42.27.420,Slot Machine Game,2023.1.3,Win32,59.52380952,,,,,,,,,,,,,,,,,,,,,,,,,,,,,,,,640,,,,,,,,,,,,,3,8,,,445.1936,12,left,0.8911,446.1103,0.5,0.3,"[1,2,3]",0.697474024,stimuli/card_100_transparent.png,100,12,0,12,0,1,,,,,,,,,,
,,,,65be01834062b6540bf90833,B,2024-08-16_15h42.27.420,Slot Machine Game,2023.1.3,Win32,59.52380952,,,,,,,,,,,,,,,,,,,,,,,,,,,,,,,,740,,,,,,,,,,,,,3,8,,,446.9103,13,left,0.7684,447.7104,1,0.3,"[1,2,3]",0.998972796,stimuli/card_100_transparent.png,100,13,0,13,0,1,,,,,,,,,,
,,,,65be01834062b6540bf90833,B,2024-08-16_15h42.27.420,Slot Machine Game,2023.1.3,Win32,59.52380952,,,,,,,,,,,,,,,,,,,,,,,,,,,,,,,,840,,,,,,,,,,,,,3,8,,,449.0101,14,left,0.8416,449.8765,1.5,0.3,"[1,2,3]",0.448314239,stimuli/card_100_transparent.png,100,14,0,14,0,1,,,,,,,,,,
,,,,65be01834062b6540bf90833,B,2024-08-16_15h42.27.420,Slot Machine Game,2023.1.3,Win32,59.52380952,,,,,,,,,,,,,,,,,,,,,,,,,,,,,,,,,,451.6763,,,,,,,,,,,,,,,,,,,,,,,,,,,,,,,"[910,750,840]",2,0,2,0,1,,,,
,,,,65be01834062b6540bf90833,B,2024-08-16_15h42.27.420,Slot Machine Game,2023.1.3,Win32,59.52380952,,,,,,,,,,,,,,,,,,,,,,,,,,,,,,,,100,,,,,,,,,,,,,4,1,"[12,15]","[[2,1,3],[2,3,1]]",456.7109,0,up,1.5847,458.3257,0.5,0.3,"[2,1,3]",0.86166664,stimuli/card_100_transparent.png,100,0,0,0,0,1,,,,,,,,,,
,,,,65be01834062b6540bf90833,B,2024-08-16_15h42.27.420,Slot Machine Game,2023.1.3,Win32,59.52380952,,,,,,,,,,,,,,,,,,,,,,,,,,,,,,,,200,,,,,,,,,,,,,4,1,,,459.1256,1,up,0.5244,459.6755,0.5,0.3,"[2,1,3]",0.859688786,stimuli/card_100_transparent.png,100,1,0,1,0,1,,,,,,,,,,
,,,,65be01834062b6540bf90833,B,2024-08-16_15h42.27.420,Slot Machine Game,2023.1.3,Win32,59.52380952,,,,,,,,,,,,,,,,,,,,,,,,,,,,,,,,200,,,,,,,,,,,,,4,1,,,460.4755,2,up,0.9022,461.4094,1.5,0.3,"[2,1,3]",0.008587171,stimuli/card_0_transparent.png,0,2,0,2,0,1,,,,,,,,,,
,,,,65be01834062b6540bf90833,B,2024-08-16_15h42.27.420,Slot Machine Game,2023.1.3,Win32,59.52380952,,,,,,,,,,,,,,,,,,,,,,,,,,,,,,,,210,,,,,,,,,,,,,4,1,,,463.2092,3,left,0.7532,463.9925,0.5,0.3,"[2,1,3]",0.3260403,stimuli/card_10_transparent.png,10,3,0,3,0,1,,,,,,,,,,
,,,,65be01834062b6540bf90833,B,2024-08-16_15h42.27.420,Slot Machine Game,2023.1.3,Win32,59.52380952,,,,,,,,,,,,,,,,,,,,,,,,,,,,,,,,220,,,,,,,,,,,,,4,1,,,464.7922,4,left,0.8732,465.6923,1.5,0.3,"[2,1,3]",0.258546331,stimuli/card_10_transparent.png,10,4,0,4,0,1,,,,,,,,,,
,,,,65be01834062b6540bf90833,B,2024-08-16_15h42.27.420,Slot Machine Game,2023.1.3,Win32,59.52380952,,,,,,,,,,,,,,,,,,,,,,,,,,,,,,,,220,,,,,,,,,,,,,4,1,,,467.4924,5,right,1.541,469.059,0.5,0.3,"[2,1,3]",0.786790674,stimuli/card_0_transparent.png,0,5,0,5,0,1,,,,,,,,,,
,,,,65be01834062b6540bf90833,B,2024-08-16_15h42.27.420,Slot Machine Game,2023.1.3,Win32,59.52380952,,,,,,,,,,,,,,,,,,,,,,,,,,,,,,,,220,,,,,,,,,,,,,4,1,,,469.8588,6,right,0.6362,470.5255,1,0.3,"[2,1,3]",0.562404624,stimuli/card_0_transparent.png,0,6,0,6,0,1,,,,,,,,,,
,,,,65be01834062b6540bf90833,B,2024-08-16_15h42.27.420,Slot Machine Game,2023.1.3,Win32,59.52380952,,,,,,,,,,,,,,,,,,,,,,,,,,,,,,,,320,,,,,,,,,,,,,4,1,,,471.8254,7,up,2.6856,474.5433,1,0.3,"[2,1,3]",0.280513486,stimuli/card_100_transparent.png,100,7,0,7,0,1,,,,,,,,,,
,,,,65be01834062b6540bf90833,B,2024-08-16_15h42.27.420,Slot Machine Game,2023.1.3,Win32,59.52380952,,,,,,,,,,,,,,,,,,,,,,,,,,,,,,,,420,,,,,,,,,,,,,4,1,,,475.8421,8,up,0.8348,476.7094,1,0.3,"[2,1,3]",0.560839088,stimuli/card_100_transparent.png,100,8,0,8,0,1,,,,,,,,,,
,,,,65be01834062b6540bf90833,B,2024-08-16_15h42.27.420,Slot Machine Game,2023.1.3,Win32,59.52380952,,,,,,,,,,,,,,,,,,,,,,,,,,,,,,,,520,,,,,,,,,,,,,4,1,,,478.0085,9,up,0.5842,478.6254,0.5,0.3,"[2,1,3]",0.597551108,stimuli/card_100_transparent.png,100,9,0,9,0,1,,,,,,,,,,
,,,,65be01834062b6540bf90833,B,2024-08-16_15h42.27.420,Slot Machine Game,2023.1.3,Win32,59.52380952,,,,,,,,,,,,,,,,,,,,,,,,,,,,,,,,520,,,,,,,,,,,,,4,1,,,479.4252,10,up,0.5088,479.959,0.5,0.3,"[2,1,3]",0.085478848,stimuli/card_0_transparent.png,0,10,0,10,0,1,,,,,,,,,,
,,,,65be01834062b6540bf90833,B,2024-08-16_15h42.27.420,Slot Machine Game,2023.1.3,Win32,59.52380952,,,,,,,,,,,,,,,,,,,,,,,,,,,,,,,,620,,,,,,,,,,,,,4,1,,,480.7583,11,up,0.6517,481.4424,1.5,0.3,"[2,1,3]",0.31046557,stimuli/card_100_transparent.png,100,11,0,11,0,1,,,,,,,,,,
,,,,65be01834062b6540bf90833,B,2024-08-16_15h42.27.420,Slot Machine Game,2023.1.3,Win32,59.52380952,,,,,,,,,,,,,,,,,,,,,,,,,,,,,,,,620,,,,,,,,,,,,,4,1,,,483.2418,12,up,0.729,483.9945,0.5,0.3,"[2,3,1]",0.802564923,stimuli/card_0_transparent.png,0,12,0,12,0,1,,,,,,,,,,
,,,,65be01834062b6540bf90833,B,2024-08-16_15h42.27.420,Slot Machine Game,2023.1.3,Win32,59.52380952,,,,,,,,,,,,,,,,,,,,,,,,,,,,,,,,630,,,,,,,,,,,,,4,1,,,484.7911,13,up,0.5351,485.3588,1,0.3,"[2,3,1]",0.19378026,stimuli/card_10_transparent.png,10,13,0,13,0,1,,,,,,,,,,
,,,,65be01834062b6540bf90833,B,2024-08-16_15h42.27.420,Slot Machine Game,2023.1.3,Win32,59.52380952,,,,,,,,,,,,,,,,,,,,,,,,,,,,,,,,640,,,,,,,,,,,,,4,1,,,486.6583,14,left,0.5342,487.2254,1,0.3,"[2,3,1]",0.46087943,stimuli/card_10_transparent.png,10,14,0,14,0,1,,,,,,,,,,
,,,,65be01834062b6540bf90833,B,2024-08-16_15h42.27.420,Slot Machine Game,2023.1.3,Win32,59.52380952,,,,,,,,,,,,,,,,,,,,,,,,,,,,,,,,,,488.5246,,,,,,,,,,,,,,,,,,,,,,,,,,,,,,,"[910,750,840,640]",3,0,3,0,1,,,,
,,,,65be01834062b6540bf90833,B,2024-08-16_15h42.27.420,Slot Machine Game,2023.1.3,Win32,59.52380952,,,,,,,,,,,,,,,,,,,,,,,,,,,,,,,,10,,,,,,,,,,,,,5,2,"[6,15]","[[1,3,2],[3,2,1]]",493.5513,0,right,1.5933,495.1569,0.5,0.3,"[1,3,2]",0.712570888,stimuli/card_10_transparent.png,10,0,0,0,0,1,,,,,,,,,,
,,,,65be01834062b6540bf90833,B,2024-08-16_15h42.27.420,Slot Machine Game,2023.1.3,Win32,59.52380952,,,,,,,,,,,,,,,,,,,,,,,,,,,,,,,,110,,,,,,,,,,,,,5,2,,,495.9573,1,left,0.572,496.5576,1.5,0.3,"[1,3,2]",0.347719201,stimuli/card_100_transparent.png,100,1,0,1,0,1,,,,,,,,,,
,,,,65be01834062b6540bf90833,B,2024-08-16_15h42.27.420,Slot Machine Game,2023.1.3,Win32,59.52380952,,,,,,,,,,,,,,,,,,,,,,,,,,,,,,,,210,,,,,,,,,,,,,5,2,,,498.3565,2,left,0.9099,499.2908,1,0.3,"[1,3,2]",0.449846571,stimuli/card_100_transparent.png,100,2,0,2,0,1,,,,,,,,,,
,,,,65be01834062b6540bf90833,B,2024-08-16_15h42.27.420,Slot Machine Game,2023.1.3,Win32,59.52380952,,,,,,,,,,,,,,,,,,,,,,,,,,,,,,,,220,,,,,,,,,,,,,5,2,,,500.5903,3,left,0.5071,501.1232,1,0.3,"[1,3,2]",0.174674723,stimuli/card_10_transparent.png,10,3,0,3,0,1,,,,,,,,,,
,,,,65be01834062b6540bf90833,B,2024-08-16_15h42.27.420,Slot Machine Game,2023.1.3,Win32,59.52380952,,,,,,,,,,,,,,,,,,,,,,,,,,,,,,,,220,,,,,,,,,,,,,5,2,,,502.4233,4,up,1.553,504.0063,1,0.3,"[1,3,2]",0.345868122,stimuli/card_0_transparent.png,0,4,0,4,0,1,,,,,,,,,,
,,,,65be01834062b6540bf90833,B,2024-08-16_15h42.27.420,Slot Machine Game,2023.1.3,Win32,59.52380952,,,,,,,,,,,,,,,,,,,,,,,,,,,,,,,,220,,,,,,,,,,,,,5,2,,,505.3064,5,up,0.9214,506.2561,1.5,0.3,"[1,3,2]",0.612695587,stimuli/card_0_transparent.png,0,5,0,5,0,1,,,,,,,,,,
,,,,65be01834062b6540bf90833,B,2024-08-16_15h42.27.420,Slot Machine Game,2023.1.3,Win32,59.52380952,,,,,,,,,,,,,,,,,,,,,,,,,,,,,,,,230,,,,,,,,,,,,,5,2,,,508.056,6,left,1.4554,509.5399,0.5,0.3,"[3,2,1]",0.149925482,stimuli/card_10_transparent.png,10,6,0,6,0,1,,,,,,,,,,
,,,,65be01834062b6540bf90833,B,2024-08-16_15h42.27.420,Slot Machine Game,2023.1.3,Win32,59.52380952,,,,,,,,,,,,,,,,,,,,,,,,,,,,,,,,230,,,,,,,,,,,,,5,2,,,510.3396,7,left,1.1905,511.5561,0.5,0.3,"[3,2,1]",0.518819512,stimuli/card_0_transparent.png,0,7,0,7,0,1,,,,,,,,,,
,,,,65be01834062b6540bf90833,B,2024-08-16_15h42.27.420,Slot Machine Game,2023.1.3,Win32,59.52380952,,,,,,,,,,,,,,,,,,,,,,,,,,,,,,,,240,,,,,,,,,,,,,5,2,,,512.3559,8,up,0.8516,513.2395,1,0.3,"[3,2,1]",0.372673468,stimuli/card_10_transparent.png,10,8,0,8,0,1,,,,,,,,,,
,,,,65be01834062b6540bf90833,B,2024-08-16_15h42.27.420,Slot Machine Game,2023.1.3,Win32,59.52380952,,,,,,,,,,,,,,,,,,,,,,,,,,,,,,,,250,,,,,,,,,,,,,5,2,,,514.5394,9,up,0.5231,515.0895,1.5,0.3,"[3,2,1]",0.933407916,stimuli/card_10_transparent.png,10,9,0,9,0,1,,,,,,,,,,
,,,,65be01834062b6540bf90833,B,2024-08-16_15h42.27.420,Slot Machine Game,2023.1.3,Win32,59.52380952,,,,,,,,,,,,,,,,,,,,,,,,,,,,,,,,350,,,,,,,,,,,,,5,2,,,516.8889,10,right,0.5536,517.4727,1,0.3,"[3,2,1]",0.687050486,stimuli/card_100_transparent.png,100,10,0,10,0,1,,,,,,,,,,
,,,,65be01834062b6540bf90833,B,2024-08-16_15h42.27.420,Slot Machine Game,2023.1.3,Win32,59.52380952,,,,,,,,,,,,,,,,,,,,,,,,,,,,,,,,450,,,,,,,,,,,,,5,2,,,518.7724,11,right,0.6197,519.4226,0.5,0.3,"[3,2,1]",0.611914413,stimuli/card_100_transparent.png,100,11,0,11,0,1,,,,,,,,,,
,,,,65be01834062b6540bf90833,B,2024-08-16_15h42.27.420,Slot Machine Game,2023.1.3,Win32,59.52380952,,,,,,,,,,,,,,,,,,,,,,,,,,,,,,,,550,,,,,,,,,,,,,5,2,,,520.2224,12,right,0.5354,520.7896,1.5,0.3,"[3,2,1]",0.49710239,stimuli/card_100_transparent.png,100,12,0,12,0,1,,,,,,,,,,
,,,,65be01834062b6540bf90833,B,2024-08-16_15h42.27.420,Slot Machine Game,2023.1.3,Win32,59.52380952,,,,,,,,,,,,,,,,,,,,,,,,,,,,,,,,650,,,,,,,,,,,,,5,2,,,522.5889,13,right,0.8038,523.4226,1,0.3,"[3,2,1]",0.652720849,stimuli/card_100_transparent.png,100,13,0,13,0,1,,,,,,,,,,
,,,,65be01834062b6540bf90833,B,2024-08-16_15h42.27.420,Slot Machine Game,2023.1.3,Win32,59.52380952,,,,,,,,,,,,,,,,,,,,,,,,,,,,,,,,750,,,,,,,,,,,,,5,2,,,524.7222,14,right,0.7433,525.4886,1.5,0.3,"[3,2,1]",0.946366515,stimuli/card_100_transparent.png,100,14,0,14,0,1,,,,,,,,,,
,,,,65be01834062b6540bf90833,B,2024-08-16_15h42.27.420,Slot Machine Game,2023.1.3,Win32,59.52380952,,,,,,,,,,,,,,,,,,,,,,,,,,,,,,,,,,527.2887,,,,,,,,,,,,,,,,,,,,,,,,,,,,,,,"[910,750,840,640,750]",4,0,4,0,1,,,,
,,,,65be01834062b6540bf90833,B,2024-08-16_15h42.27.420,Slot Machine Game,2023.1.3,Win32,59.52380952,,,,,,,,,,,,,,,,,,,,,,,,,,,,,,,,0,,,,,,,,,,,,,6,4,"[7,15]","[[2,3,1],[1,2,3]]",532.3078,0,up,1.8406,534.1716,1.5,0.3,"[2,3,1]",0.906188601,stimuli/card_0_transparent.png,0,0,0,0,0,1,,,,,,,,,,
,,,,65be01834062b6540bf90833,B,2024-08-16_15h42.27.420,Slot Machine Game,2023.1.3,Win32,59.52380952,,,,,,,,,,,,,,,,,,,,,,,,,,,,,,,,100,,,,,,,,,,,,,6,4,,,535.971,1,right,0.703,536.7052,1.5,0.3,"[2,3,1]",0.43165544,stimuli/card_100_transparent.png,100,1,0,1,0,1,,,,,,,,,,
,,,,65be01834062b6540bf90833,B,2024-08-16_15h42.27.420,Slot Machine Game,2023.1.3,Win32,59.52380952,,,,,,,,,,,,,,,,,,,,,,,,,,,,,,,,200,,,,,,,,,,,,,6,4,,,538.5044,2,right,1.0455,539.5717,1,0.3,"[2,3,1]",0.485730614,stimuli/card_100_transparent.png,100,2,0,2,0,1,,,,,,,,,,
,,,,65be01834062b6540bf90833,B,2024-08-16_15h42.27.420,Slot Machine Game,2023.1.3,Win32,59.52380952,,,,,,,,,,,,,,,,,,,,,,,,,,,,,,,,300,,,,,,,,,,,,,6,4,,,540.8709,3,right,0.9681,541.8711,1.5,0.3,"[2,3,1]",0.862673888,stimuli/card_100_transparent.png,100,3,0,3,0,1,,,,,,,,,,
,,,,65be01834062b6540bf90833,B,2024-08-16_15h42.27.420,Slot Machine Game,2023.1.3,Win32,59.52380952,,,,,,,,,,,,,,,,,,,,,,,,,,,,,,,,310,,,,,,,,,,,,,6,4,,,543.6707,4,right,1.0685,544.771,0.5,0.3,"[2,3,1]",0.191480952,stimuli/card_10_transparent.png,10,4,0,4,0,1,,,,,,,,,,
,,,,65be01834062b6540bf90833,B,2024-08-16_15h42.27.420,Slot Machine Game,2023.1.3,Win32,59.52380952,,,,,,,,,,,,,,,,,,,,,,,,,,,,,,,,410,,,,,,,,,,,,,6,4,,,545.5707,5,right,0.8189,546.4209,0.5,0.3,"[2,3,1]",0.797096242,stimuli/card_100_transparent.png,100,5,0,5,0,1,,,,,,,,,,
,,,,65be01834062b6540bf90833,B,2024-08-16_15h42.27.420,Slot Machine Game,2023.1.3,Win32,59.52380952,,,,,,,,,,,,,,,,,,,,,,,,,,,,,,,,510,,,,,,,,,,,,,6,4,,,547.2205,6,right,0.8518,548.1041,0.5,0.3,"[2,3,1]",0.987054883,stimuli/card_100_transparent.png,100,6,0,6,0,1,,,,,,,,,,
,,,,65be01834062b6540bf90833,B,2024-08-16_15h42.27.420,Slot Machine Game,2023.1.3,Win32,59.52380952,,,,,,,,,,,,,,,,,,,,,,,,,,,,,,,,520,,,,,,,,,,,,,6,4,,,548.9041,7,right,0.6847,549.6207,0.5,0.3,"[1,2,3]",0.177547807,stimuli/card_10_transparent.png,10,7,0,7,0,1,,,,,,,,,,
,,,,65be01834062b6540bf90833,B,2024-08-16_15h42.27.420,Slot Machine Game,2023.1.3,Win32,59.52380952,,,,,,,,,,,,,,,,,,,,,,,,,,,,,,,,520,,,,,,,,,,,,,6,4,,,550.4206,8,up,0.5186,550.9707,1,0.3,"[1,2,3]",0.030995905,stimuli/card_0_transparent.png,0,8,0,8,0,1,,,,,,,,,,
,,,,65be01834062b6540bf90833,B,2024-08-16_15h42.27.420,Slot Machine Game,2023.1.3,Win32,59.52380952,,,,,,,,,,,,,,,,,,,,,,,,,,,,,,,,520,,,,,,,,,,,,,6,4,,,552.2706,9,right,0.6181,552.9208,0.5,0.3,"[1,2,3]",0.618398164,stimuli/card_0_transparent.png,0,9,0,9,0,1,,,,,,,,,,
,,,,65be01834062b6540bf90833,B,2024-08-16_15h42.27.420,Slot Machine Game,2023.1.3,Win32,59.52380952,,,,,,,,,,,,,,,,,,,,,,,,,,,,,,,,530,,,,,,,,,,,,,6,4,,,553.7205,10,up,0.7526,554.5033,1.5,0.3,"[1,2,3]",0.296352789,stimuli/card_10_transparent.png,10,10,0,10,0,1,,,,,,,,,,
,,,,65be01834062b6540bf90833,B,2024-08-16_15h42.27.420,Slot Machine Game,2023.1.3,Win32,59.52380952,,,,,,,,,,,,,,,,,,,,,,,,,,,,,,,,530,,,,,,,,,,,,,6,4,,,556.3036,11,right,0.8073,557.1372,1,0.3,"[1,2,3]",0.361352771,stimuli/card_0_transparent.png,0,11,0,11,0,1,,,,,,,,,,
,,,,65be01834062b6540bf90833,B,2024-08-16_15h42.27.420,Slot Machine Game,2023.1.3,Win32,59.52380952,,,,,,,,,,,,,,,,,,,,,,,,,,,,,,,,630,,,,,,,,,,,,,6,4,,,558.4366,12,left,0.5032,558.97,1.5,0.3,"[1,2,3]",0.297093862,stimuli/card_100_transparent.png,100,12,0,12,0,1,,,,,,,,,,
,,,,65be01834062b6540bf90833,B,2024-08-16_15h42.27.420,Slot Machine Game,2023.1.3,Win32,59.52380952,,,,,,,,,,,,,,,,,,,,,,,,,,,,,,,,730,,,,,,,,,,,,,6,4,,,560.7697,13,left,1.3691,562.17,0.5,0.3,"[1,2,3]",0.340766929,stimuli/card_100_transparent.png,100,13,0,13,0,1,,,,,,,,,,
,,,,65be01834062b6540bf90833,B,2024-08-16_15h42.27.420,Slot Machine Game,2023.1.3,Win32,59.52380952,,,,,,,,,,,,,,,,,,,,,,,,,,,,,,,,740,,,,,,,,,,,,,6,4,,,562.9694,14,left,0.8538,563.8529,1.5,0.3,"[1,2,3]",0.183713408,stimuli/card_10_transparent.png,10,14,0,14,0,1,,,,,,,,,,
,,,,65be01834062b6540bf90833,B,2024-08-16_15h42.27.420,Slot Machine Game,2023.1.3,Win32,59.52380952,,,,,,,,,,,,,,,,,,,,,,,,,,,,,,,,,,565.6531,,,,,,,,,,,,,,,,,,,,,,,,,,,,,,,"[910,750,840,640,750,740]",5,0,5,0,1,,,,
,,,,65be01834062b6540bf90833,B,2024-08-16_15h42.27.420,Slot Machine Game,2023.1.3,Win32,59.52380952,,,,,,,,,,,,,,,,,,,,,,,,,,,,,,,,10,,,,,,,,,,,,,7,10,"[10,15]","[[3,1,2],[1,3,2]]",570.6799,0,right,1.6042,572.3028,1.5,0.3,"[3,1,2]",0.501949469,stimuli/card_10_transparent.png,10,0,0,0,0,1,,,,,,,,,,
,,,,65be01834062b6540bf90833,B,2024-08-16_15h42.27.420,Slot Machine Game,2023.1.3,Win32,59.52380952,,,,,,,,,,,,,,,,,,,,,,,,,,,,,,,,20,,,,,,,,,,,,,7,10,,,574.1025,1,right,0.9031,575.036,1.5,0.3,"[3,1,2]",0.442018892,stimuli/card_10_transparent.png,10,1,0,1,0,1,,,,,,,,,,
,,,,65be01834062b6540bf90833,B,2024-08-16_15h42.27.420,Slot Machine Game,2023.1.3,Win32,59.52380952,,,,,,,,,,,,,,,,,,,,,,,,,,,,,,,,20,,,,,,,,,,,,,7,10,,,576.8357,2,up,0.6044,577.4689,0.5,0.3,"[3,1,2]",0.058931495,stimuli/card_0_transparent.png,0,2,0,2,0,1,,,,,,,,,,
,,,,65be01834062b6540bf90833,B,2024-08-16_15h42.27.420,Slot Machine Game,2023.1.3,Win32,59.52380952,,,,,,,,,,,,,,,,,,,,,,,,,,,,,,,,120,,,,,,,,,,,,,7,10,,,578.2687,3,up,0.8019,579.1024,0.5,0.3,"[3,1,2]",0.452589298,stimuli/card_100_transparent.png,100,3,0,3,0,1,,,,,,,,,,
,,,,65be01834062b6540bf90833,B,2024-08-16_15h42.27.420,Slot Machine Game,2023.1.3,Win32,59.52380952,,,,,,,,,,,,,,,,,,,,,,,,,,,,,,,,220,,,,,,,,,,,,,7,10,,,579.9019,4,up,0.7339,580.6688,1,0.3,"[3,1,2]",0.818515659,stimuli/card_100_transparent.png,100,4,0,4,0,1,,,,,,,,,,
,,,,65be01834062b6540bf90833,B,2024-08-16_15h42.27.420,Slot Machine Game,2023.1.3,Win32,59.52380952,,,,,,,,,,,,,,,,,,,,,,,,,,,,,,,,320,,,,,,,,,,,,,7,10,,,581.9687,5,up,1.0109,583.0026,0.5,0.3,"[3,1,2]",0.843686476,stimuli/card_100_transparent.png,100,5,0,5,0,1,,,,,,,,,,
,,,,65be01834062b6540bf90833,B,2024-08-16_15h42.27.420,Slot Machine Game,2023.1.3,Win32,59.52380952,,,,,,,,,,,,,,,,,,,,,,,,,,,,,,,,330,,,,,,,,,,,,,7,10,,,583.8017,6,up,0.778,584.6013,1.5,0.3,"[3,1,2]",0.137519634,stimuli/card_10_transparent.png,10,6,0,6,0,1,,,,,,,,,,
,,,,65be01834062b6540bf90833,B,2024-08-16_15h42.27.420,Slot Machine Game,2023.1.3,Win32,59.52380952,,,,,,,,,,,,,,,,,,,,,,,,,,,,,,,,340,,,,,,,,,,,,,7,10,,,586.401,7,left,0.5361,586.9687,0.5,0.3,"[3,1,2]",0.181639802,stimuli/card_10_transparent.png,10,7,0,7,0,1,,,,,,,,,,
,,,,65be01834062b6540bf90833,B,2024-08-16_15h42.27.420,Slot Machine Game,2023.1.3,Win32,59.52380952,,,,,,,,,,,,,,,,,,,,,,,,,,,,,,,,340,,,,,,,,,,,,,7,10,,,587.7683,8,left,0.7358,588.5351,1,0.3,"[3,1,2]",0.906522457,stimuli/card_0_transparent.png,0,8,0,8,0,1,,,,,,,,,,
,,,,65be01834062b6540bf90833,B,2024-08-16_15h42.27.420,Slot Machine Game,2023.1.3,Win32,59.52380952,,,,,,,,,,,,,,,,,,,,,,,,,,,,,,,,340,,,,,,,,,,,,,7,10,,,589.835,9,right,0.5938,590.4512,0.5,0.3,"[3,1,2]",0.05376052,stimuli/card_0_transparent.png,0,9,0,9,0,1,,,,,,,,,,
,,,,65be01834062b6540bf90833,B,2024-08-16_15h42.27.420,Slot Machine Game,2023.1.3,Win32,59.52380952,,,,,,,,,,,,,,,,,,,,,,,,,,,,,,,,350,,,,,,,,,,,,,7,10,,,591.2515,10,right,0.7029,591.9848,1.5,0.3,"[1,3,2]",0.999232084,stimuli/card_10_transparent.png,10,10,0,10,0,1,,,,,,,,,,
,,,,65be01834062b6540bf90833,B,2024-08-16_15h42.27.420,Slot Machine Game,2023.1.3,Win32,59.52380952,,,,,,,,,,,,,,,,,,,,,,,,,,,,,,,,350,,,,,,,,,,,,,7,10,,,593.7846,11,up,0.6084,594.418,0.5,0.3,"[1,3,2]",0.416061717,stimuli/card_0_transparent.png,0,11,0,11,0,1,,,,,,,,,,
,,,,65be01834062b6540bf90833,B,2024-08-16_15h42.27.420,Slot Machine Game,2023.1.3,Win32,59.52380952,,,,,,,,,,,,,,,,,,,,,,,,,,,,,,,,350,,,,,,,,,,,,,7,10,,,595.2173,12,up,0.6599,595.9024,1.5,0.3,"[1,3,2]",0.565670508,stimuli/card_0_transparent.png,0,12,0,12,0,1,,,,,,,,,,
,,,,65be01834062b6540bf90833,B,2024-08-16_15h42.27.420,Slot Machine Game,2023.1.3,Win32,59.52380952,,,,,,,,,,,,,,,,,,,,,,,,,,,,,,,,360,,,,,,,,,,,,,7,10,,,597.7011,13,right,0.7012,598.4345,0.5,0.3,"[1,3,2]",0.51758791,stimuli/card_10_transparent.png,10,13,0,13,0,1,,,,,,,,,,
,,,,65be01834062b6540bf90833,B,2024-08-16_15h42.27.420,Slot Machine Game,2023.1.3,Win32,59.52380952,,,,,,,,,,,,,,,,,,,,,,,,,,,,,,,,360,,,,,,,,,,,,,7,10,,,599.2341,14,up,0.6585,599.9179,1,0.3,"[1,3,2]",0.770257088,stimuli/card_0_transparent.png,0,14,0,14,0,1,,,,,,,,,,
,,,,65be01834062b6540bf90833,B,2024-08-16_15h42.27.420,Slot Machine Game,2023.1.3,Win32,59.52380952,,,,,,,,,,,,,,,,,,,,,,,,,,,,,,,,,,601.2169,,,,,,,,,,,,,,,,,,,,,,,,,,,,,,,"[910,750,840,640,750,740,360]",6,0,6,0,1,,,,
,,,,65be01834062b6540bf90833,B,2024-08-16_15h42.27.420,Slot Machine Game,2023.1.3,Win32,59.52380952,,,,,,,,,,,,,,,,,,,,,,,,,,,,,,,,0,,,,,,,,,,,,,8,7,"[9,15]","[[1,3,2],[2,3,1]]",606.235,0,up,1.1015,607.3668,0.5,0.3,"[1,3,2]",0.972944987,stimuli/card_0_transparent.png,0,0,0,0,0,1,,,,,,,,,,
,,,,65be01834062b6540bf90833,B,2024-08-16_15h42.27.420,Slot Machine Game,2023.1.3,Win32,59.52380952,,,,,,,,,,,,,,,,,,,,,,,,,,,,,,,,100,,,,,,,,,,,,,8,7,,,608.1665,1,up,0.8749,609.0666,1.5,0.3,"[1,3,2]",0.065626992,stimuli/card_100_transparent.png,100,1,0,1,0,1,,,,,,,,,,
,,,,65be01834062b6540bf90833,B,2024-08-16_15h42.27.420,Slot Machine Game,2023.1.3,Win32,59.52380952,,,,,,,,,,,,,,,,,,,,,,,,,,,,,,,,100,,,,,,,,,,,,,8,7,,,610.8667,2,up,0.7195,611.6162,1,0.3,"[1,3,2]",0.535603641,stimuli/card_0_transparent.png,0,2,0,2,0,1,,,,,,,,,,
,,,,65be01834062b6540bf90833,B,2024-08-16_15h42.27.420,Slot Machine Game,2023.1.3,Win32,59.52380952,,,,,,,,,,,,,,,,,,,,,,,,,,,,,,,,110,,,,,,,,,,,,,8,7,,,612.9166,3,left,1.456,614.3998,1,0.3,"[1,3,2]",0.115864508,stimuli/card_10_transparent.png,10,3,0,3,0,1,,,,,,,,,,
,,,,65be01834062b6540bf90833,B,2024-08-16_15h42.27.420,Slot Machine Game,2023.1.3,Win32,59.52380952,,,,,,,,,,,,,,,,,,,,,,,,,,,,,,,,210,,,,,,,,,,,,,8,7,,,615.6997,4,left,0.8368,616.5669,0.5,0.3,"[1,3,2]",0.663305951,stimuli/card_100_transparent.png,100,4,0,4,0,1,,,,,,,,,,
,,,,65be01834062b6540bf90833,B,2024-08-16_15h42.27.420,Slot Machine Game,2023.1.3,Win32,59.52380952,,,,,,,,,,,,,,,,,,,,,,,,,,,,,,,,310,,,,,,,,,,,,,8,7,,,617.3662,5,left,0.6782,618.066,1,0.3,"[1,3,2]",0.530840222,stimuli/card_100_transparent.png,100,5,0,5,0,1,,,,,,,,,,
,,,,65be01834062b6540bf90833,B,2024-08-16_15h42.27.420,Slot Machine Game,2023.1.3,Win32,59.52380952,,,,,,,,,,,,,,,,,,,,,,,,,,,,,,,,410,,,,,,,,,,,,,8,7,,,619.3662,6,left,0.5388,619.9331,1.5,0.3,"[1,3,2]",0.35228111,stimuli/card_100_transparent.png,100,6,0,6,0,1,,,,,,,,,,
,,,,65be01834062b6540bf90833,B,2024-08-16_15h42.27.420,Slot Machine Game,2023.1.3,Win32,59.52380952,,,,,,,,,,,,,,,,,,,,,,,,,,,,,,,,510,,,,,,,,,,,,,8,7,,,621.7329,7,left,1.4441,623.1998,1.5,0.3,"[1,3,2]",0.453045941,stimuli/card_100_transparent.png,100,7,0,7,0,1,,,,,,,,,,
,,,,65be01834062b6540bf90833,B,2024-08-16_15h42.27.420,Slot Machine Game,2023.1.3,Win32,59.52380952,,,,,,,,,,,,,,,,,,,,,,,,,,,,,,,,610,,,,,,,,,,,,,8,7,,,624.9989,8,left,0.6197,625.6495,1.5,0.3,"[1,3,2]",0.354683966,stimuli/card_100_transparent.png,100,8,0,8,0,1,,,,,,,,,,
,,,,65be01834062b6540bf90833,B,2024-08-16_15h42.27.420,Slot Machine Game,2023.1.3,Win32,59.52380952,,,,,,,,,,,,,,,,,,,,,,,,,,,,,,,,620,,,,,,,,,,,,,8,7,,,627.4488,9,left,0.9409,628.4163,1.5,0.3,"[2,3,1]",0.316521401,stimuli/card_10_transparent.png,10,9,0,9,0,1,,,,,,,,,,
,,,,65be01834062b6540bf90833,B,2024-08-16_15h42.27.420,Slot Machine Game,2023.1.3,Win32,59.52380952,,,,,,,,,,,,,,,,,,,,,,,,,,,,,,,,720,,,,,,,,,,,,,8,7,,,630.2154,10,right,0.6079,630.8495,1,0.3,"[2,3,1]",0.945284864,stimuli/card_100_transparent.png,100,10,0,10,0,1,,,,,,,,,,
,,,,65be01834062b6540bf90833,B,2024-08-16_15h42.27.420,Slot Machine Game,2023.1.3,Win32,59.52380952,,,,,,,,,,,,,,,,,,,,,,,,,,,,,,,,820,,,,,,,,,,,,,8,7,,,632.1486,11,right,0.7854,632.9655,1,0.3,"[2,3,1]",0.288884176,stimuli/card_100_transparent.png,100,11,0,11,0,1,,,,,,,,,,
,,,,65be01834062b6540bf90833,B,2024-08-16_15h42.27.420,Slot Machine Game,2023.1.3,Win32,59.52380952,,,,,,,,,,,,,,,,,,,,,,,,,,,,,,,,830,,,,,,,,,,,,,8,7,,,634.2653,12,right,0.5609,634.8482,1.5,0.3,"[2,3,1]",0.105306233,stimuli/card_10_transparent.png,10,12,0,12,0,1,,,,,,,,,,
,,,,65be01834062b6540bf90833,B,2024-08-16_15h42.27.420,Slot Machine Game,2023.1.3,Win32,59.52380952,,,,,,,,,,,,,,,,,,,,,,,,,,,,,,,,840,,,,,,,,,,,,,8,7,,,636.6483,13,left,0.6585,637.3317,1.5,0.3,"[2,3,1]",0.397327397,stimuli/card_10_transparent.png,10,13,0,13,0,1,,,,,,,,,,
,,,,65be01834062b6540bf90833,B,2024-08-16_15h42.27.420,Slot Machine Game,2023.1.3,Win32,59.52380952,,,,,,,,,,,,,,,,,,,,,,,,,,,,,,,,850,,,,,,,,,,,,,8,7,,,639.1314,14,up,0.5359,639.699,1,0.3,"[2,3,1]",0.166641701,stimuli/card_10_transparent.png,10,14,0,14,0,1,,,,,,,,,,
,,,,65be01834062b6540bf90833,B,2024-08-16_15h42.27.420,Slot Machine Game,2023.1.3,Win32,59.52380952,,,,,,,,,,,,,,,,,,,,,,,,,,,,,,,,,,640.9984,,,,,,,,,,,,,,,,,,,,,,,,,,,,,,,"[910,750,840,640,750,740,360,850]",7,0,7,0,1,,,,
,,,,65be01834062b6540bf90833,B,2024-08-16_15h42.27.420,Slot Machine Game,2023.1.3,Win32,59.52380952,,,,,,,,,,,,,,,,,,,,,,,,,,,,,,,,100,,,,,,,,,,,,,9,9,"[8,15]","[[3,2,1],[3,1,2]]",646.0338,0,right,1.8015,647.8651,1,0.3,"[3,2,1]",0.68460562,stimuli/card_100_transparent.png,100,0,0,0,0,1,,,,,,,,,,
,,,,65be01834062b6540bf90833,B,2024-08-16_15h42.27.420,Slot Machine Game,2023.1.3,Win32,59.52380952,,,,,,,,,,,,,,,,,,,,,,,,,,,,,,,,200,,,,,,,,,,,,,9,9,,,649.1644,1,right,0.9022,650.099,1,0.3,"[3,2,1]",0.449362239,stimuli/card_100_transparent.png,100,1,0,1,0,1,,,,,,,,,,
,,,,65be01834062b6540bf90833,B,2024-08-16_15h42.27.420,Slot Machine Game,2023.1.3,Win32,59.52380952,,,,,,,,,,,,,,,,,,,,,,,,,,,,,,,,300,,,,,,,,,,,,,9,9,,,651.3974,2,right,0.5676,651.9978,1.5,0.3,"[3,2,1]",0.825907643,stimuli/card_100_transparent.png,100,2,0,2,0,1,,,,,,,,,,
,,,,65be01834062b6540bf90833,B,2024-08-16_15h42.27.420,Slot Machine Game,2023.1.3,Win32,59.52380952,,,,,,,,,,,,,,,,,,,,,,,,,,,,,,,,400,,,,,,,,,,,,,9,9,,,653.7972,3,right,0.701,654.531,0.5,0.3,"[3,2,1]",0.853596337,stimuli/card_100_transparent.png,100,3,0,3,0,1,,,,,,,,,,
,,,,65be01834062b6540bf90833,B,2024-08-16_15h42.27.420,Slot Machine Game,2023.1.3,Win32,59.52380952,,,,,,,,,,,,,,,,,,,,,,,,,,,,,,,,500,,,,,,,,,,,,,9,9,,,655.3306,4,right,0.6685,656.0312,1.5,0.3,"[3,2,1]",0.6977243,stimuli/card_100_transparent.png,100,4,0,4,0,1,,,,,,,,,,
,,,,65be01834062b6540bf90833,B,2024-08-16_15h42.27.420,Slot Machine Game,2023.1.3,Win32,59.52380952,,,,,,,,,,,,,,,,,,,,,,,,,,,,,,,,510,,,,,,,,,,,,,9,9,,,657.8308,5,right,0.6891,658.5478,1.5,0.3,"[3,2,1]",0.169905361,stimuli/card_10_transparent.png,10,5,0,5,0,1,,,,,,,,,,
,,,,65be01834062b6540bf90833,B,2024-08-16_15h42.27.420,Slot Machine Game,2023.1.3,Win32,59.52380952,,,,,,,,,,,,,,,,,,,,,,,,,,,,,,,,610,,,,,,,,,,,,,9,9,,,660.347,6,right,0.7514,661.1309,1.5,0.3,"[3,2,1]",0.290379958,stimuli/card_100_transparent.png,100,6,0,6,0,1,,,,,,,,,,
,,,,65be01834062b6540bf90833,B,2024-08-16_15h42.27.420,Slot Machine Game,2023.1.3,Win32,59.52380952,,,,,,,,,,,,,,,,,,,,,,,,,,,,,,,,710,,,,,,,,,,,,,9,9,,,662.9301,7,right,0.6681,663.6304,0.5,0.3,"[3,2,1]",0.917027674,stimuli/card_100_transparent.png,100,7,0,7,0,1,,,,,,,,,,
,,,,65be01834062b6540bf90833,B,2024-08-16_15h42.27.420,Slot Machine Game,2023.1.3,Win32,59.52380952,,,,,,,,,,,,,,,,,,,,,,,,,,,,,,,,720,,,,,,,,,,,,,9,9,,,664.4301,8,right,0.7102,665.1633,0.5,0.3,"[3,1,2]",0.793880517,stimuli/card_10_transparent.png,10,8,0,8,0,1,,,,,,,,,,
,,,,65be01834062b6540bf90833,B,2024-08-16_15h42.27.420,Slot Machine Game,2023.1.3,Win32,59.52380952,,,,,,,,,,,,,,,,,,,,,,,,,,,,,,,,820,,,,,,,,,,,,,9,9,,,665.9638,9,right,0.7697,666.7637,1,0.3,"[3,1,2]",0.126992649,stimuli/card_100_transparent.png,100,9,0,9,0,1,,,,,,,,,,
,,,,65be01834062b6540bf90833,B,2024-08-16_15h42.27.420,Slot Machine Game,2023.1.3,Win32,59.52380952,,,,,,,,,,,,,,,,,,,,,,,,,,,,,,,,830,,,,,,,,,,,,,9,9,,,668.0635,10,right,0.6182,668.7135,1.5,0.3,"[3,1,2]",0.410167023,stimuli/card_10_transparent.png,10,10,0,10,0,1,,,,,,,,,,
,,,,65be01834062b6540bf90833,B,2024-08-16_15h42.27.420,Slot Machine Game,2023.1.3,Win32,59.52380952,,,,,,,,,,,,,,,,,,,,,,,,,,,,,,,,930,,,,,,,,,,,,,9,9,,,670.513,11,up,0.7543,671.2965,1,0.3,"[3,1,2]",0.965198504,stimuli/card_100_transparent.png,100,11,0,11,0,1,,,,,,,,,,
,,,,65be01834062b6540bf90833,B,2024-08-16_15h42.27.420,Slot Machine Game,2023.1.3,Win32,59.52380952,,,,,,,,,,,,,,,,,,,,,,,,,,,,,,,,1030,,,,,,,,,,,,,9,9,,,672.5964,12,up,0.7609,673.3804,0.5,0.3,"[3,1,2]",0.761885429,stimuli/card_100_transparent.png,100,12,0,12,0,1,,,,,,,,,,
,,,,65be01834062b6540bf90833,B,2024-08-16_15h42.27.420,Slot Machine Game,2023.1.3,Win32,59.52380952,,,,,,,,,,,,,,,,,,,,,,,,,,,,,,,,1130,,,,,,,,,,,,,9,9,,,674.1794,13,up,0.6857,674.896,1,0.3,"[3,1,2]",0.477584217,stimuli/card_100_transparent.png,100,13,0,13,0,1,,,,,,,,,,
,,,,65be01834062b6540bf90833,B,2024-08-16_15h42.27.420,Slot Machine Game,2023.1.3,Win32,59.52380952,,,,,,,,,,,,,,,,,,,,,,,,,,,,,,,,1230,,,,,,,,,,,,,9,9,,,676.1959,14,up,0.5186,676.7459,1.5,0.3,"[3,1,2]",0.577069049,stimuli/card_100_transparent.png,100,14,0,14,0,1,,,,,,,,,,
,,,,65be01834062b6540bf90833,B,2024-08-16_15h42.27.420,Slot Machine Game,2023.1.3,Win32,59.52380952,,,,,,,,,,,,,,,,,,,,,,,,,,,,,,,,,,678.5461,,,,,,,,,,,,,,,,,,,,,,,,,,,,,,,"[910,750,840,640,750,740,360,850,1230]",8,0,8,0,1,,,,
,,,,65be01834062b6540bf90833,B,2024-08-16_15h42.27.420,Slot Machine Game,2023.1.3,Win32,59.52380952,,,,,,,,,,,,,,,,,,,,,,,,,,,,,,,,0,,,,,,,,,,,,,10,6,"[4,10,15]","[[2,3,1],[1,3,2],[3,2,1]]",683.5776,0,up,2.3864,685.9794,1.5,0.3,"[2,3,1]",0.570310578,stimuli/card_0_transparent.png,0,0,0,0,0,1,,,,,,,,,,
,,,,65be01834062b6540bf90833,B,2024-08-16_15h42.27.420,Slot Machine Game,2023.1.3,Win32,59.52380952,,,,,,,,,,,,,,,,,,,,,,,,,,,,,,,,100,,,,,,,,,,,,,10,6,,,687.7789,1,right,0.7527,688.5621,1.5,0.3,"[2,3,1]",0.260840441,stimuli/card_100_transparent.png,100,1,0,1,0,1,,,,,,,,,,
,,,,65be01834062b6540bf90833,B,2024-08-16_15h42.27.420,Slot Machine Game,2023.1.3,Win32,59.52380952,,,,,,,,,,,,,,,,,,,,,,,,,,,,,,,,200,,,,,,,,,,,,,10,6,,,690.3618,2,right,0.7859,691.1787,1,0.3,"[2,3,1]",0.985613447,stimuli/card_100_transparent.png,100,2,0,2,0,1,,,,,,,,,,
,,,,65be01834062b6540bf90833,B,2024-08-16_15h42.27.420,Slot Machine Game,2023.1.3,Win32,59.52380952,,,,,,,,,,,,,,,,,,,,,,,,,,,,,,,,300,,,,,,,,,,,,,10,6,,,692.4785,3,right,0.5882,693.0953,0.5,0.3,"[2,3,1]",0.930328886,stimuli/card_100_transparent.png,100,3,0,3,0,1,,,,,,,,,,
,,,,65be01834062b6540bf90833,B,2024-08-16_15h42.27.420,Slot Machine Game,2023.1.3,Win32,59.52380952,,,,,,,,,,,,,,,,,,,,,,,,,,,,,,,,310,,,,,,,,,,,,,10,6,,,693.8952,4,right,0.6372,694.5619,1.5,0.3,"[1,3,2]",0.411316687,stimuli/card_10_transparent.png,10,4,0,4,0,1,,,,,,,,,,
,,,,65be01834062b6540bf90833,B,2024-08-16_15h42.27.420,Slot Machine Game,2023.1.3,Win32,59.52380952,,,,,,,,,,,,,,,,,,,,,,,,,,,,,,,,320,,,,,,,,,,,,,10,6,,,696.3618,5,right,1.1014,697.4951,1.5,0.3,"[1,3,2]",0.477686361,stimuli/card_10_transparent.png,10,5,0,5,0,1,,,,,,,,,,
,,,,65be01834062b6540bf90833,B,2024-08-16_15h42.27.420,Slot Machine Game,2023.1.3,Win32,59.52380952,,,,,,,,,,,,,,,,,,,,,,,,,,,,,,,,420,,,,,,,,,,,,,10,6,,,699.2948,6,left,0.7154,700.0447,1,0.3,"[1,3,2]",0.615289156,stimuli/card_100_transparent.png,100,6,0,6,0,1,,,,,,,,,,
,,,,65be01834062b6540bf90833,B,2024-08-16_15h42.27.420,Slot Machine Game,2023.1.3,Win32,59.52380952,,,,,,,,,,,,,,,,,,,,,,,,,,,,,,,,520,,,,,,,,,,,,,10,6,,,701.3445,7,left,0.5054,701.8782,1,0.3,"[1,3,2]",0.705710376,stimuli/card_100_transparent.png,100,7,0,7,0,1,,,,,,,,,,
,,,,65be01834062b6540bf90833,B,2024-08-16_15h42.27.420,Slot Machine Game,2023.1.3,Win32,59.52380952,,,,,,,,,,,,,,,,,,,,,,,,,,,,,,,,520,,,,,,,,,,,,,10,6,,,703.1777,8,left,0.803,704.0114,1,0.3,"[1,3,2]",0.050428601,stimuli/card_0_transparent.png,0,8,0,8,0,1,,,,,,,,,,
,,,,65be01834062b6540bf90833,B,2024-08-16_15h42.27.420,Slot Machine Game,2023.1.3,Win32,59.52380952,,,,,,,,,,,,,,,,,,,,,,,,,,,,,,,,520,,,,,,,,,,,,,10,6,,,705.3112,9,up,0.7072,706.0446,1.5,0.3,"[1,3,2]",0.202016179,stimuli/card_0_transparent.png,0,9,0,9,0,1,,,,,,,,,,
,,,,65be01834062b6540bf90833,B,2024-08-16_15h42.27.420,Slot Machine Game,2023.1.3,Win32,59.52380952,,,,,,,,,,,,,,,,,,,,,,,,,,,,,,,,530,,,,,,,,,,,,,10,6,,,707.8444,10,up,0.9347,708.8111,1,0.3,"[3,2,1]",0.355247255,stimuli/card_10_transparent.png,10,10,0,10,0,1,,,,,,,,,,
,,,,65be01834062b6540bf90833,B,2024-08-16_15h42.27.420,Slot Machine Game,2023.1.3,Win32,59.52380952,,,,,,,,,,,,,,,,,,,,,,,,,,,,,,,,630,,,,,,,,,,,,,10,6,,,710.1104,11,right,0.7213,710.8443,1,0.3,"[3,2,1]",0.392703962,stimuli/card_100_transparent.png,100,11,0,11,0,1,,,,,,,,,,
,,,,65be01834062b6540bf90833,B,2024-08-16_15h42.27.420,Slot Machine Game,2023.1.3,Win32,59.52380952,,,,,,,,,,,,,,,,,,,,,,,,,,,,,,,,730,,,,,,,,,,,,,10,6,,,712.1441,12,right,0.7397,712.9108,1,0.3,"[3,2,1]",0.522155106,stimuli/card_100_transparent.png,100,12,0,12,0,1,,,,,,,,,,
,,,,65be01834062b6540bf90833,B,2024-08-16_15h42.27.420,Slot Machine Game,2023.1.3,Win32,59.52380952,,,,,,,,,,,,,,,,,,,,,,,,,,,,,,,,830,,,,,,,,,,,,,10,6,,,714.2103,13,right,0.5246,714.7604,0.5,0.3,"[3,2,1]",0.589568875,stimuli/card_100_transparent.png,100,13,0,13,0,1,,,,,,,,,,
,,,,65be01834062b6540bf90833,B,2024-08-16_15h42.27.420,Slot Machine Game,2023.1.3,Win32,59.52380952,,,,,,,,,,,,,,,,,,,,,,,,,,,,,,,,930,,,,,,,,,,,,,10,6,,,715.5602,14,right,0.9004,716.4938,0.5,0.3,"[3,2,1]",0.967965887,stimuli/card_100_transparent.png,100,14,0,14,0,1,,,,,,,,,,
,,,,65be01834062b6540bf90833,B,2024-08-16_15h42.27.420,Slot Machine Game,2023.1.3,Win32,59.52380952,,,,,,,,,,,,,,,,,,,,,,,,,,,,,,,,,,717.2936,,,,,,,,,,,,,,,,,,,,,,,,,,,,,,,"[910,750,840,640,750,740,360,850,1230,930]",9,0,9,0,1,,,,
,,,,65be01834062b6540bf90833,B,2024-08-16_15h42.27.420,Slot Machine Game,2023.1.3,Win32,59.52380952,,,,,,,,,,,,,,,,,,,,,,,,,,,,,,,,,,,,,,,,,,,,,,,,,,,,,,,,,,,,,,,,,,,,,,,9,"[910,750,840,640,750,740,360,850,1230,930]",8.4,2024-08-16_15h54.34.273
