key_resp_welcome_started,key_resp_welcome_keys,key_resp_welcome_rt,key_resp_welcome_duration,prolific_pid,path_id,date,expName,psychopyVersion,OS,frameRate,key_resp_instruction1_started,key_resp_instruction1_keys,key_resp_instruction1_rt,key_resp_instruction1_duration,key_resp_instruction2_started,key_resp_instruction2_keys,key_resp_instruction2_rt,key_resp_instruction2_duration,key_resp_instruction3_started,key_resp_instruction3_keys,key_resp_instruction3_rt,key_resp_instruction3_duration,key_resp_instruction4_started,key_resp_instruction4_keys,key_resp_instruction4_rt,key_resp_instruction4_duration,practiceCondition,practice_reward_seqs,practice_trial_started,practice_trial_num,practice_resp_rt,practice_keypress_time,practice_resp_keys,prac_presentationInterval,practice_reward_seq,reward_img,cumulative_reward,trial_reward,practice_trials.thisRepN,practice_trials.thisTrialN,practice_trials.thisN,practice_trials.thisIndex,practice_trials.ran,block_break_started,practice_end_time,practice_end_keys,practice_end_rt,practice_end_duration,main_instruction_text_started,block_condition,block_order_indices,main_instruction_keys,main_instruction_rt,main_instruction_duration,block_number,block_assignment,current_condition,main_reward_seqs,main_trial_started,main_trial_num,main_trial_keys,main_trial_rt,main_trial_keypress_time,main_presentationInterval,reward_presentation_time,main_reward_seq,reward_rand_val,main_reward_img,current_reward,main_trials.thisRepN,main_trials.thisTrialN,main_trials.thisN,main_trials.thisIndex,main_trials.ran,block_reward,block.thisRepN,block.thisTrialN,block.thisN,block.thisIndex,block.ran,block_reward.length,block_reward_all,reward_amount,date_end_task
0.0003,l,2.6401,,ACVEFRSUAPSEQ,B,2024-08-19_10h26.11.177,Slot Machine Game,2023.1.3,Win32,60.24096386,,,,,,,,,,,,,,,,,,,,,,,,,,,,,,,,,,,,,,,,,,,,,,,,,,,,,,,,,,,,,,,,,,,,,,,,,,
,,,,ACVEFRSUAPSEQ,B,2024-08-19_10h26.11.177,Slot Machine Game,2023.1.3,Win32,60.24096386,2.6601,k,7.0368,,,,,,,,,,,,,,,,,,,,,,,,,,,,,,,,,,,,,,,,,,,,,,,,,,,,,,,,,,,,,,,,,,,,,,,
,,,,ACVEFRSUAPSEQ,B,2024-08-19_10h26.11.177,Slot Machine Game,2023.1.3,Win32,60.24096386,,,,,9.7288,k,17.6649,,,,,,,,,,,,,,,,,,,,,,,,,,,,,,,,,,,,,,,,,,,,,,,,,,,,,,,,,,,,,,,,,,,
,,,,ACVEFRSUAPSEQ,B,2024-08-19_10h26.11.177,Slot Machine Game,2023.1.3,Win32,60.24096386,,,,,,,,,27.4185,comma,7.3883,,,,,,,,,,,,,,,,,,,,,,,,,,,,,,,,,,,,,,,,,,,,,,,,,,,,,,,,,,,,,,,
,,,,ACVEFRSUAPSEQ,B,2024-08-19_10h26.11.177,Slot Machine Game,2023.1.3,Win32,60.24096386,,,,,,,,,,,,,,,,,,,,,,,,,,,,,,,,,,,,,,,,,,,,,,,,,,,,,,,,,,,,,,,,,,,,,,,,,,
,,,,ACVEFRSUAPSEQ,B,2024-08-19_10h26.11.177,Slot Machine Game,2023.1.3,Win32,60.24096386,,,,,,,,,,,,,176.5424,h,2.7397,,,,,,,,,,,,,,,,,,,,,,,,,,,,,,,,,,,,,,,,,,,,,,,,,,,,,,,,,,,
,,,,ACVEFRSUAPSEQ,B,2024-08-19_10h26.11.177,Slot Machine Game,2023.1.3,Win32,60.24096386,,,,,,,,,,,,,,,,,"[9,15]","[[2,1,3],[2,3,1]]",179.3127,0,3.9515,183.2939,left,1.5,"[2,1,3]",stimuli/card_0_transparent.png,0,0,0,0,0,0,1,,,,,,,,,,,,,,,,,,,,,,,,,,,,,,,,,,,,,,,,,
,,,,ACVEFRSUAPSEQ,B,2024-08-19_10h26.11.177,Slot Machine Game,2023.1.3,Win32,60.24096386,,,,,,,,,,,,,,,,,,,185.0945,1,1.8076,186.9284,right,0.5,"[2,1,3]",stimuli/card_0_transparent.png,0,0,1,0,1,0,1,,,,,,,,,,,,,,,,,,,,,,,,,,,,,,,,,,,,,,,,,
,,,,ACVEFRSUAPSEQ,B,2024-08-19_10h26.11.177,Slot Machine Game,2023.1.3,Win32,60.24096386,,,,,,,,,,,,,,,,,,,187.7171,2,1.5189,189.2631,up,0.5,"[2,1,3]",stimuli/card_100_transparent.png,100,100,2,0,2,0,1,,,,,,,,,,,,,,,,,,,,,,,,,,,,,,,,,,,,,,,,,
,,,,ACVEFRSUAPSEQ,B,2024-08-19_10h26.11.177,Slot Machine Game,2023.1.3,Win32,60.24096386,,,,,,,,,,,,,,,,,,,190.0634,3,0.6672,190.7639,up,1.5,"[2,1,3]",stimuli/card_100_transparent.png,200,100,3,0,3,0,1,,,,,,,,,,,,,,,,,,,,,,,,,,,,,,,,,,,,,,,,,
,,,,ACVEFRSUAPSEQ,B,2024-08-19_10h26.11.177,Slot Machine Game,2023.1.3,Win32,60.24096386,,,,,,,,,,,,,,,,,,,192.5646,4,3.6086,196.1991,up,1,"[2,1,3]",stimuli/card_100_transparent.png,300,100,4,0,4,0,1,,,,,,,,,,,,,,,,,,,,,,,,,,,,,,,,,,,,,,,,,
,,,,ACVEFRSUAPSEQ,B,2024-08-19_10h26.11.177,Slot Machine Game,2023.1.3,Win32,60.24096386,,,,,,,,,,,,,,,,,,,197.4987,5,0.7513,198.2832,up,0.5,"[2,1,3]",stimuli/card_0_transparent.png,300,0,5,0,5,0,1,,,,,,,,,,,,,,,,,,,,,,,,,,,,,,,,,,,,,,,,,
,,,,ACVEFRSUAPSEQ,B,2024-08-19_10h26.11.177,Slot Machine Game,2023.1.3,Win32,60.24096386,,,,,,,,,,,,,,,,,,,199.0832,6,0.6836,199.8,up,1.5,"[2,1,3]",stimuli/card_100_transparent.png,400,100,6,0,6,0,1,,,,,,,,,,,,,,,,,,,,,,,,,,,,,,,,,,,,,,,,,
,,,,ACVEFRSUAPSEQ,B,2024-08-19_10h26.11.177,Slot Machine Game,2023.1.3,Win32,60.24096386,,,,,,,,,,,,,,,,,,,201.6014,7,1.5585,203.1852,up,1,"[2,1,3]",stimuli/card_100_transparent.png,500,100,7,0,7,0,1,,,,,,,,,,,,,,,,,,,,,,,,,,,,,,,,,,,,,,,,,
,,,,ACVEFRSUAPSEQ,B,2024-08-19_10h26.11.177,Slot Machine Game,2023.1.3,Win32,60.24096386,,,,,,,,,,,,,,,,,,,204.4857,8,0.8383,205.3525,up,0.5,"[2,1,3]",stimuli/card_0_transparent.png,500,0,8,0,8,0,1,,,,,,,,,,,,,,,,,,,,,,,,,,,,,,,,,,,,,,,,,
,,,,ACVEFRSUAPSEQ,B,2024-08-19_10h26.11.177,Slot Machine Game,2023.1.3,Win32,60.24096386,,,,,,,,,,,,,,,,,,,206.1531,9,0.7907,206.9697,up,1.5,"[2,3,1]",stimuli/card_0_transparent.png,500,0,9,0,9,0,1,,,,,,,,,,,,,,,,,,,,,,,,,,,,,,,,,,,,,,,,,
,,,,ACVEFRSUAPSEQ,B,2024-08-19_10h26.11.177,Slot Machine Game,2023.1.3,Win32,60.24096386,,,,,,,,,,,,,,,,,,,208.7704,10,0.5335,209.3373,left,0.5,"[2,3,1]",stimuli/card_10_transparent.png,510,10,10,0,10,0,1,,,,,,,,,,,,,,,,,,,,,,,,,,,,,,,,,,,,,,,,,
,,,,ACVEFRSUAPSEQ,B,2024-08-19_10h26.11.177,Slot Machine Game,2023.1.3,Win32,60.24096386,,,,,,,,,,,,,,,,,,,210.1417,11,0.9189,211.0878,right,0.5,"[2,3,1]",stimuli/card_100_transparent.png,610,100,11,0,11,0,1,,,,,,,,,,,,,,,,,,,,,,,,,,,,,,,,,,,,,,,,,
,,,,ACVEFRSUAPSEQ,B,2024-08-19_10h26.11.177,Slot Machine Game,2023.1.3,Win32,60.24096386,,,,,,,,,,,,,,,,,,,211.8883,12,0.5167,212.4376,right,0.5,"[2,3,1]",stimuli/card_100_transparent.png,710,100,12,0,12,0,1,,,,,,,,,,,,,,,,,,,,,,,,,,,,,,,,,,,,,,,,,
,,,,ACVEFRSUAPSEQ,B,2024-08-19_10h26.11.177,Slot Machine Game,2023.1.3,Win32,60.24096386,,,,,,,,,,,,,,,,,,,213.2387,13,0.5004,213.7559,right,0.5,"[2,3,1]",stimuli/card_10_transparent.png,720,10,13,0,13,0,1,,,,,,,,,,,,,,,,,,,,,,,,,,,,,,,,,,,,,,,,,
,,,,ACVEFRSUAPSEQ,B,2024-08-19_10h26.11.177,Slot Machine Game,2023.1.3,Win32,60.24096386,,,,,,,,,,,,,,,,,,,214.5562,14,1.255,215.8399,right,1,"[2,3,1]",stimuli/card_100_transparent.png,820,100,14,0,14,0,1,,,,,,,,,,,,,,,,,,,,,,,,,,,,,,,,,,,,,,,,,
,,,,ACVEFRSUAPSEQ,B,2024-08-19_10h26.11.177,Slot Machine Game,2023.1.3,Win32,60.24096386,,,,,,,,,,,,,,,,,"[6,15]","[[1,3,2],[3,1,2]]",222.1521,0,0.9179,223.0926,left,1,"[1,3,2]",stimuli/card_10_transparent.png,10,10,0,0,0,0,1,217.1507,,,,,,,,,,,,,,,,,,,,,,,,,,,,,,,,,,,,,,,,
,,,,ACVEFRSUAPSEQ,B,2024-08-19_10h26.11.177,Slot Machine Game,2023.1.3,Win32,60.24096386,,,,,,,,,,,,,,,,,,,224.3931,1,0.601,225.0096,right,1,"[1,3,2]",stimuli/card_10_transparent.png,20,10,1,0,1,0,1,,,,,,,,,,,,,,,,,,,,,,,,,,,,,,,,,,,,,,,,,
,,,,ACVEFRSUAPSEQ,B,2024-08-19_10h26.11.177,Slot Machine Game,2023.1.3,Win32,60.24096386,,,,,,,,,,,,,,,,,,,226.3104,2,0.9904,227.3275,up,0.5,"[1,3,2]",stimuli/card_100_transparent.png,120,100,2,0,2,0,1,,,,,,,,,,,,,,,,,,,,,,,,,,,,,,,,,,,,,,,,,
,,,,ACVEFRSUAPSEQ,B,2024-08-19_10h26.11.177,Slot Machine Game,2023.1.3,Win32,60.24096386,,,,,,,,,,,,,,,,,,,228.1277,3,0.5055,228.6619,up,1,"[1,3,2]",stimuli/card_0_transparent.png,120,0,3,0,3,0,1,,,,,,,,,,,,,,,,,,,,,,,,,,,,,,,,,,,,,,,,,
,,,,ACVEFRSUAPSEQ,B,2024-08-19_10h26.11.177,Slot Machine Game,2023.1.3,Win32,60.24096386,,,,,,,,,,,,,,,,,,,229.9619,4,1.1062,231.096,up,1.5,"[1,3,2]",stimuli/card_0_transparent.png,120,0,4,0,4,0,1,,,,,,,,,,,,,,,,,,,,,,,,,,,,,,,,,,,,,,,,,
,,,,ACVEFRSUAPSEQ,B,2024-08-19_10h26.11.177,Slot Machine Game,2023.1.3,Win32,60.24096386,,,,,,,,,,,,,,,,,,,232.8966,5,0.517,233.4466,left,1,"[1,3,2]",stimuli/card_10_transparent.png,130,10,5,0,5,0,1,,,,,,,,,,,,,,,,,,,,,,,,,,,,,,,,,,,,,,,,,
,,,,ACVEFRSUAPSEQ,B,2024-08-19_10h26.11.177,Slot Machine Game,2023.1.3,Win32,60.24096386,,,,,,,,,,,,,,,,,,,234.7469,6,1.1175,235.8812,right,0.5,"[3,1,2]",stimuli/card_10_transparent.png,140,10,6,0,6,0,1,,,,,,,,,,,,,,,,,,,,,,,,,,,,,,,,,,,,,,,,,
,,,,ACVEFRSUAPSEQ,B,2024-08-19_10h26.11.177,Slot Machine Game,2023.1.3,Win32,60.24096386,,,,,,,,,,,,,,,,,,,236.6813,7,1.1668,237.8806,right,1,"[3,1,2]",stimuli/card_10_transparent.png,150,10,7,0,7,0,1,,,,,,,,,,,,,,,,,,,,,,,,,,,,,,,,,,,,,,,,,
,,,,ACVEFRSUAPSEQ,B,2024-08-19_10h26.11.177,Slot Machine Game,2023.1.3,Win32,60.24096386,,,,,,,,,,,,,,,,,,,239.182,8,1.2178,240.4323,left,1,"[3,1,2]",stimuli/card_0_transparent.png,150,0,8,0,8,0,1,,,,,,,,,,,,,,,,,,,,,,,,,,,,,,,,,,,,,,,,,
,,,,ACVEFRSUAPSEQ,B,2024-08-19_10h26.11.177,Slot Machine Game,2023.1.3,Win32,60.24096386,,,,,,,,,,,,,,,,,,,241.7331,9,1.0391,242.7999,up,1,"[3,1,2]",stimuli/card_100_transparent.png,250,100,9,0,9,0,1,,,,,,,,,,,,,,,,,,,,,,,,,,,,,,,,,,,,,,,,,
,,,,ACVEFRSUAPSEQ,B,2024-08-19_10h26.11.177,Slot Machine Game,2023.1.3,Win32,60.24096386,,,,,,,,,,,,,,,,,,,244.1004,10,0.5799,244.7005,up,1,"[3,1,2]",stimuli/card_100_transparent.png,350,100,10,0,10,0,1,,,,,,,,,,,,,,,,,,,,,,,,,,,,,,,,,,,,,,,,,
,,,,ACVEFRSUAPSEQ,B,2024-08-19_10h26.11.177,Slot Machine Game,2023.1.3,Win32,60.24096386,,,,,,,,,,,,,,,,,,,246.0011,11,0.9636,246.9852,up,1.5,"[3,1,2]",stimuli/card_100_transparent.png,450,100,11,0,11,0,1,,,,,,,,,,,,,,,,,,,,,,,,,,,,,,,,,,,,,,,,,
,,,,ACVEFRSUAPSEQ,B,2024-08-19_10h26.11.177,Slot Machine Game,2023.1.3,Win32,60.24096386,,,,,,,,,,,,,,,,,,,248.7695,12,0.6452,249.4409,up,1.5,"[3,1,2]",stimuli/card_100_transparent.png,550,100,12,0,12,0,1,,,,,,,,,,,,,,,,,,,,,,,,,,,,,,,,,,,,,,,,,
,,,,ACVEFRSUAPSEQ,B,2024-08-19_10h26.11.177,Slot Machine Game,2023.1.3,Win32,60.24096386,,,,,,,,,,,,,,,,,,,251.2369,13,0.7059,251.9703,up,1.5,"[3,1,2]",stimuli/card_100_transparent.png,650,100,13,0,13,0,1,,,,,,,,,,,,,,,,,,,,,,,,,,,,,,,,,,,,,,,,,
,,,,ACVEFRSUAPSEQ,B,2024-08-19_10h26.11.177,Slot Machine Game,2023.1.3,Win32,60.24096386,,,,,,,,,,,,,,,,,,,253.7711,14,0.5906,254.3882,up,1,"[3,1,2]",stimuli/card_0_transparent.png,650,0,14,0,14,0,1,,,,,,,,,,,,,,,,,,,,,,,,,,,,,,,,,,,,,,,,,
,,,,ACVEFRSUAPSEQ,B,2024-08-19_10h26.11.177,Slot Machine Game,2023.1.3,Win32,60.24096386,,,,,,,,,,,,,,,,,,,,,,,,,,,,,,,,,,255.6932,260.6908,space,257.8501,,,,,,,,,,,,,,,,,,,,,,,,,,,,,,,,,,,,,
,,,,ACVEFRSUAPSEQ,B,2024-08-19_10h26.11.177,Slot Machine Game,2023.1.3,Win32,60.24096386,,,,,,,,,,,,,,,,,,,,,,,,,,,,,,,,,,,,,,,518.5739,1,"[0,1,2,3,4,5,6,7,8,9]",space,3.2513,,,,,,,,,,,,,,,,,,,,,,,,,,,,,,,
,,,,ACVEFRSUAPSEQ,B,2024-08-19_10h26.11.177,Slot Machine Game,2023.1.3,Win32,60.24096386,,,,,,,,,,,,,,,,,,,,,,,,,,,10,,,,,,,,,,,,,,,,,,1,1,"[12,15]","[[2,1,3],[2,3,1]]",521.8535,0,left,1.7684,523.6415,0.5,0.3,"[2,1,3]",0.835034966,stimuli/card_10_transparent.png,10,0,0,0,0,1,,,,,,,,,,
,,,,ACVEFRSUAPSEQ,B,2024-08-19_10h26.11.177,Slot Machine Game,2023.1.3,Win32,60.24096386,,,,,,,,,,,,,,,,,,,,,,,,,,,10,,,,,,,,,,,,,,,,,,1,1,,,524.4418,1,right,0.886,525.3583,0.5,0.3,"[2,1,3]",0.850944803,stimuli/card_0_transparent.png,0,1,0,1,0,1,,,,,,,,,,
,,,,ACVEFRSUAPSEQ,B,2024-08-19_10h26.11.177,Slot Machine Game,2023.1.3,Win32,60.24096386,,,,,,,,,,,,,,,,,,,,,,,,,,,110,,,,,,,,,,,,,,,,,,1,1,,,526.1585,2,up,1.4342,527.6258,1,0.3,"[2,1,3]",0.887773312,stimuli/card_100_transparent.png,100,2,0,2,0,1,,,,,,,,,,
,,,,ACVEFRSUAPSEQ,B,2024-08-19_10h26.11.177,Slot Machine Game,2023.1.3,Win32,60.24096386,,,,,,,,,,,,,,,,,,,,,,,,,,,210,,,,,,,,,,,,,,,,,,1,1,,,528.9265,3,up,1.0172,529.9767,1,0.3,"[2,1,3]",0.448008909,stimuli/card_100_transparent.png,100,3,0,3,0,1,,,,,,,,,,
,,,,ACVEFRSUAPSEQ,B,2024-08-19_10h26.11.177,Slot Machine Game,2023.1.3,Win32,60.24096386,,,,,,,,,,,,,,,,,,,,,,,,,,,220,,,,,,,,,,,,,,,,,,1,1,,,531.2816,4,up,0.8212,532.1273,1.5,0.3,"[2,1,3]",0.122282333,stimuli/card_10_transparent.png,10,4,0,4,0,1,,,,,,,,,,
,,,,ACVEFRSUAPSEQ,B,2024-08-19_10h26.11.177,Slot Machine Game,2023.1.3,Win32,60.24096386,,,,,,,,,,,,,,,,,,,,,,,,,,,320,,,,,,,,,,,,,,,,,,1,1,,,533.9283,5,up,0.5613,534.5122,1.5,0.3,"[2,1,3]",0.685101039,stimuli/card_100_transparent.png,100,5,0,5,0,1,,,,,,,,,,
,,,,ACVEFRSUAPSEQ,B,2024-08-19_10h26.11.177,Slot Machine Game,2023.1.3,Win32,60.24096386,,,,,,,,,,,,,,,,,,,,,,,,,,,420,,,,,,,,,,,,,,,,,,1,1,,,536.3127,6,up,0.5191,536.8623,0.5,0.3,"[2,1,3]",0.229169799,stimuli/card_100_transparent.png,100,6,0,6,0,1,,,,,,,,,,
,,,,ACVEFRSUAPSEQ,B,2024-08-19_10h26.11.177,Slot Machine Game,2023.1.3,Win32,60.24096386,,,,,,,,,,,,,,,,,,,,,,,,,,,520,,,,,,,,,,,,,,,,,,1,1,,,537.6625,7,up,1.287,538.9633,0.5,0.3,"[2,1,3]",0.993876878,stimuli/card_100_transparent.png,100,7,0,7,0,1,,,,,,,,,,
,,,,ACVEFRSUAPSEQ,B,2024-08-19_10h26.11.177,Slot Machine Game,2023.1.3,Win32,60.24096386,,,,,,,,,,,,,,,,,,,,,,,,,,,620,,,,,,,,,,,,,,,,,,1,1,,,539.7636,8,up,1.1784,540.9644,0.5,0.3,"[2,1,3]",0.353194325,stimuli/card_100_transparent.png,100,8,0,8,0,1,,,,,,,,,,
,,,,ACVEFRSUAPSEQ,B,2024-08-19_10h26.11.177,Slot Machine Game,2023.1.3,Win32,60.24096386,,,,,,,,,,,,,,,,,,,,,,,,,,,720,,,,,,,,,,,,,,,,,,1,1,,,541.7649,9,up,1.0445,542.8314,1,0.3,"[2,1,3]",0.467776614,stimuli/card_100_transparent.png,100,9,0,9,0,1,,,,,,,,,,
,,,,ACVEFRSUAPSEQ,B,2024-08-19_10h26.11.177,Slot Machine Game,2023.1.3,Win32,60.24096386,,,,,,,,,,,,,,,,,,,,,,,,,,,820,,,,,,,,,,,,,,,,,,1,1,,,544.1326,10,up,0.7355,544.8988,1,0.3,"[2,1,3]",0.571231303,stimuli/card_100_transparent.png,100,10,0,10,0,1,,,,,,,,,,
,,,,ACVEFRSUAPSEQ,B,2024-08-19_10h26.11.177,Slot Machine Game,2023.1.3,Win32,60.24096386,,,,,,,,,,,,,,,,,,,,,,,,,,,920,,,,,,,,,,,,,,,,,,1,1,,,546.1995,11,up,0.5499,546.7708,1.5,0.3,"[2,1,3]",0.999285087,stimuli/card_100_transparent.png,100,11,0,11,0,1,,,,,,,,,,
,,,,ACVEFRSUAPSEQ,B,2024-08-19_10h26.11.177,Slot Machine Game,2023.1.3,Win32,60.24096386,,,,,,,,,,,,,,,,,,,,,,,,,,,1020,,,,,,,,,,,,,,,,,,1,1,,,548.5662,12,up,0.5436,549.1168,0.5,0.3,"[2,3,1]",0.097452749,stimuli/card_100_transparent.png,100,12,0,12,0,1,,,,,,,,,,
,,,,ACVEFRSUAPSEQ,B,2024-08-19_10h26.11.177,Slot Machine Game,2023.1.3,Win32,60.24096386,,,,,,,,,,,,,,,,,,,,,,,,,,,1020,,,,,,,,,,,,,,,,,,1,1,,,549.9176,13,up,0.842,550.7846,1,0.3,"[2,3,1]",0.251596071,stimuli/card_0_transparent.png,0,13,0,13,0,1,,,,,,,,,,
,,,,ACVEFRSUAPSEQ,B,2024-08-19_10h26.11.177,Slot Machine Game,2023.1.3,Win32,60.24096386,,,,,,,,,,,,,,,,,,,,,,,,,,,1120,,,,,,,,,,,,,,,,,,1,1,,,552.0851,14,up,0.7008,552.8189,1.5,0.3,"[2,3,1]",0.009281481,stimuli/card_100_transparent.png,100,14,0,14,0,1,,,,,,,,,,
,,,,ACVEFRSUAPSEQ,B,2024-08-19_10h26.11.177,Slot Machine Game,2023.1.3,Win32,60.24096386,,,,,,,,,,,,,,,,,,,,,,,,,,,,,,,,,,554.6199,,,,,,,,,,,,,,,,,,,,,,,,,,,,,,,[1120],0,0,0,0,1,,,,
,,,,ACVEFRSUAPSEQ,B,2024-08-19_10h26.11.177,Slot Machine Game,2023.1.3,Win32,60.24096386,,,,,,,,,,,,,,,,,,,,,,,,,,,0,,,,,,,,,,,,,,,,,,2,2,"[6,15]","[[1,3,2],[3,2,1]]",559.6213,0,up,0.8118,560.4551,1,0.3,"[1,3,2]",0.796648306,stimuli/card_0_transparent.png,0,0,0,0,0,1,,,,,,,,,,
,,,,ACVEFRSUAPSEQ,B,2024-08-19_10h26.11.177,Slot Machine Game,2023.1.3,Win32,60.24096386,,,,,,,,,,,,,,,,,,,,,,,,,,,10,,,,,,,,,,,,,,,,,,2,2,,,561.7556,1,right,1.0208,562.8223,0.5,0.3,"[1,3,2]",0.355783432,stimuli/card_10_transparent.png,10,1,0,1,0,1,,,,,,,,,,
,,,,ACVEFRSUAPSEQ,B,2024-08-19_10h26.11.177,Slot Machine Game,2023.1.3,Win32,60.24096386,,,,,,,,,,,,,,,,,,,,,,,,,,,110,,,,,,,,,,,,,,,,,,2,2,,,563.6228,2,left,0.9354,564.5733,0.5,0.3,"[1,3,2]",0.886010255,stimuli/card_100_transparent.png,100,2,0,2,0,1,,,,,,,,,,
,,,,ACVEFRSUAPSEQ,B,2024-08-19_10h26.11.177,Slot Machine Game,2023.1.3,Win32,60.24096386,,,,,,,,,,,,,,,,,,,,,,,,,,,210,,,,,,,,,,,,,,,,,,2,2,,,565.3737,3,left,0.5005,565.907,0.5,0.3,"[1,3,2]",0.780943439,stimuli/card_100_transparent.png,100,3,0,3,0,1,,,,,,,,,,
,,,,ACVEFRSUAPSEQ,B,2024-08-19_10h26.11.177,Slot Machine Game,2023.1.3,Win32,60.24096386,,,,,,,,,,,,,,,,,,,,,,,,,,,310,,,,,,,,,,,,,,,,,,2,2,,,566.7072,4,left,1.137,567.8577,1,0.3,"[1,3,2]",0.479730142,stimuli/card_100_transparent.png,100,4,0,4,0,1,,,,,,,,,,
,,,,ACVEFRSUAPSEQ,B,2024-08-19_10h26.11.177,Slot Machine Game,2023.1.3,Win32,60.24096386,,,,,,,,,,,,,,,,,,,,,,,,,,,410,,,,,,,,,,,,,,,,,,2,2,,,569.1463,5,left,0.6582,569.8252,1.5,0.3,"[1,3,2]",0.61534467,stimuli/card_100_transparent.png,100,5,0,5,0,1,,,,,,,,,,
,,,,ACVEFRSUAPSEQ,B,2024-08-19_10h26.11.177,Slot Machine Game,2023.1.3,Win32,60.24096386,,,,,,,,,,,,,,,,,,,,,,,,,,,410,,,,,,,,,,,,,,,,,,2,2,,,571.626,6,left,0.6004,572.2593,1.5,0.3,"[3,2,1]",0.627785032,stimuli/card_0_transparent.png,0,6,0,6,0,1,,,,,,,,,,
,,,,ACVEFRSUAPSEQ,B,2024-08-19_10h26.11.177,Slot Machine Game,2023.1.3,Win32,60.24096386,,,,,,,,,,,,,,,,,,,,,,,,,,,410,,,,,,,,,,,,,,,,,,2,2,,,574.06,7,left,0.8834,574.9773,1,0.3,"[3,2,1]",0.304921081,stimuli/card_0_transparent.png,0,7,0,7,0,1,,,,,,,,,,
,,,,ACVEFRSUAPSEQ,B,2024-08-19_10h26.11.177,Slot Machine Game,2023.1.3,Win32,60.24096386,,,,,,,,,,,,,,,,,,,,,,,,,,,410,,,,,,,,,,,,,,,,,,2,2,,,576.278,8,left,0.8852,577.1948,1.5,0.3,"[3,2,1]",0.443972336,stimuli/card_0_transparent.png,0,8,0,8,0,1,,,,,,,,,,
,,,,ACVEFRSUAPSEQ,B,2024-08-19_10h26.11.177,Slot Machine Game,2023.1.3,Win32,60.24096386,,,,,,,,,,,,,,,,,,,,,,,,,,,510,,,,,,,,,,,,,,,,,,2,2,,,578.9951,9,right,1.032,580.0331,1,0.3,"[3,2,1]",0.489282548,stimuli/card_100_transparent.png,100,9,0,9,0,1,,,,,,,,,,
,,,,ACVEFRSUAPSEQ,B,2024-08-19_10h26.11.177,Slot Machine Game,2023.1.3,Win32,60.24096386,,,,,,,,,,,,,,,,,,,,,,,,,,,510,,,,,,,,,,,,,,,,,,2,2,,,581.3294,10,right,0.5712,581.913,1.5,0.3,"[3,2,1]",0.077754705,stimuli/card_0_transparent.png,0,10,0,10,0,1,,,,,,,,,,
,,,,ACVEFRSUAPSEQ,B,2024-08-19_10h26.11.177,Slot Machine Game,2023.1.3,Win32,60.24096386,,,,,,,,,,,,,,,,,,,,,,,,,,,610,,,,,,,,,,,,,,,,,,2,2,,,583.6967,11,right,0.9845,584.6977,1.5,0.3,"[3,2,1]",0.545458704,stimuli/card_100_transparent.png,100,11,0,11,0,1,,,,,,,,,,
,,,,ACVEFRSUAPSEQ,B,2024-08-19_10h26.11.177,Slot Machine Game,2023.1.3,Win32,60.24096386,,,,,,,,,,,,,,,,,,,,,,,,,,,620,,,,,,,,,,,,,,,,,,2,2,,,586.4983,12,right,0.5672,587.0816,0.5,0.3,"[3,2,1]",0.107692789,stimuli/card_10_transparent.png,10,12,0,12,0,1,,,,,,,,,,
,,,,ACVEFRSUAPSEQ,B,2024-08-19_10h26.11.177,Slot Machine Game,2023.1.3,Win32,60.24096386,,,,,,,,,,,,,,,,,,,,,,,,,,,720,,,,,,,,,,,,,,,,,,2,2,,,587.8828,13,right,0.7013,588.6159,1.5,0.3,"[3,2,1]",0.502246282,stimuli/card_100_transparent.png,100,13,0,13,0,1,,,,,,,,,,
,,,,ACVEFRSUAPSEQ,B,2024-08-19_10h26.11.177,Slot Machine Game,2023.1.3,Win32,60.24096386,,,,,,,,,,,,,,,,,,,,,,,,,,,820,,,,,,,,,,,,,,,,,,2,2,,,590.4164,14,right,0.5099,590.9498,1.5,0.3,"[3,2,1]",0.875911569,stimuli/card_100_transparent.png,100,14,0,14,0,1,,,,,,,,,,
,,,,ACVEFRSUAPSEQ,B,2024-08-19_10h26.11.177,Slot Machine Game,2023.1.3,Win32,60.24096386,,,,,,,,,,,,,,,,,,,,,,,,,,,,,,,,,,592.7507,,,,,,,,,,,,,,,,,,,,,,,,,,,,,,,"[1120,820]",1,0,1,0,1,,,,
,,,,ACVEFRSUAPSEQ,B,2024-08-19_10h26.11.177,Slot Machine Game,2023.1.3,Win32,60.24096386,,,,,,,,,,,,,,,,,,,,,,,,,,,10,,,,,,,,,,,,,,,,,,3,3,"[15,15]","[[3,1,2],[3,1,2]]",597.7648,0,left,0.6344,598.4195,1,0.3,"[3,1,2]",0.159850275,stimuli/card_10_transparent.png,10,0,0,0,0,1,,,,,,,,,,
,,,,ACVEFRSUAPSEQ,B,2024-08-19_10h26.11.177,Slot Machine Game,2023.1.3,Win32,60.24096386,,,,,,,,,,,,,,,,,,,,,,,,,,,110,,,,,,,,,,,,,,,,,,3,3,,,599.7077,1,up,0.9359,600.6534,0.5,0.3,"[3,1,2]",0.816938629,stimuli/card_100_transparent.png,100,1,0,1,0,1,,,,,,,,,,
,,,,ACVEFRSUAPSEQ,B,2024-08-19_10h26.11.177,Slot Machine Game,2023.1.3,Win32,60.24096386,,,,,,,,,,,,,,,,,,,,,,,,,,,210,,,,,,,,,,,,,,,,,,3,3,,,601.4539,2,up,1.0684,602.5544,1.5,0.3,"[3,1,2]",0.701439959,stimuli/card_100_transparent.png,100,2,0,2,0,1,,,,,,,,,,
,,,,ACVEFRSUAPSEQ,B,2024-08-19_10h26.11.177,Slot Machine Game,2023.1.3,Win32,60.24096386,,,,,,,,,,,,,,,,,,,,,,,,,,,220,,,,,,,,,,,,,,,,,,3,3,,,604.3552,3,up,0.8753,605.272,0.5,0.3,"[3,1,2]",0.184060132,stimuli/card_10_transparent.png,10,3,0,3,0,1,,,,,,,,,,
,,,,ACVEFRSUAPSEQ,B,2024-08-19_10h26.11.177,Slot Machine Game,2023.1.3,Win32,60.24096386,,,,,,,,,,,,,,,,,,,,,,,,,,,320,,,,,,,,,,,,,,,,,,3,3,,,606.0725,4,up,0.834,606.9392,1.5,0.3,"[3,1,2]",0.953598036,stimuli/card_100_transparent.png,100,4,0,4,0,1,,,,,,,,,,
,,,,ACVEFRSUAPSEQ,B,2024-08-19_10h26.11.177,Slot Machine Game,2023.1.3,Win32,60.24096386,,,,,,,,,,,,,,,,,,,,,,,,,,,420,,,,,,,,,,,,,,,,,,3,3,,,608.7398,5,up,0.7643,609.5226,1,0.3,"[3,1,2]",0.473565451,stimuli/card_100_transparent.png,100,5,0,5,0,1,,,,,,,,,,
,,,,ACVEFRSUAPSEQ,B,2024-08-19_10h26.11.177,Slot Machine Game,2023.1.3,Win32,60.24096386,,,,,,,,,,,,,,,,,,,,,,,,,,,520,,,,,,,,,,,,,,,,,,3,3,,,610.8122,6,up,0.617,611.4576,1,0.3,"[3,1,2]",0.696915418,stimuli/card_100_transparent.png,100,6,0,6,0,1,,,,,,,,,,
,,,,ACVEFRSUAPSEQ,B,2024-08-19_10h26.11.177,Slot Machine Game,2023.1.3,Win32,60.24096386,,,,,,,,,,,,,,,,,,,,,,,,,,,620,,,,,,,,,,,,,,,,,,3,3,,,612.7585,7,up,1.1677,613.9586,1.5,0.3,"[3,1,2]",0.21676402,stimuli/card_100_transparent.png,100,7,0,7,0,1,,,,,,,,,,
,,,,ACVEFRSUAPSEQ,B,2024-08-19_10h26.11.177,Slot Machine Game,2023.1.3,Win32,60.24096386,,,,,,,,,,,,,,,,,,,,,,,,,,,720,,,,,,,,,,,,,,,,,,3,3,,,615.7426,8,up,0.9334,616.6937,0.5,0.3,"[3,1,2]",0.911836808,stimuli/card_100_transparent.png,100,8,0,8,0,1,,,,,,,,,,
,,,,ACVEFRSUAPSEQ,B,2024-08-19_10h26.11.177,Slot Machine Game,2023.1.3,Win32,60.24096386,,,,,,,,,,,,,,,,,,,,,,,,,,,820,,,,,,,,,,,,,,,,,,3,3,,,617.4937,9,up,0.6652,618.1771,0.5,0.3,"[3,1,2]",0.979075793,stimuli/card_100_transparent.png,100,9,0,9,0,1,,,,,,,,,,
,,,,ACVEFRSUAPSEQ,B,2024-08-19_10h26.11.177,Slot Machine Game,2023.1.3,Win32,60.24096386,,,,,,,,,,,,,,,,,,,,,,,,,,,830,,,,,,,,,,,,,,,,,,3,3,,,618.9778,10,up,0.595,619.5936,0.5,0.3,"[3,1,2]",0.192024821,stimuli/card_10_transparent.png,10,10,0,10,0,1,,,,,,,,,,
,,,,ACVEFRSUAPSEQ,B,2024-08-19_10h26.11.177,Slot Machine Game,2023.1.3,Win32,60.24096386,,,,,,,,,,,,,,,,,,,,,,,,,,,930,,,,,,,,,,,,,,,,,,3,3,,,620.3987,11,up,0.821,621.2448,1,0.3,"[3,1,2]",0.530277162,stimuli/card_100_transparent.png,100,11,0,11,0,1,,,,,,,,,,
,,,,ACVEFRSUAPSEQ,B,2024-08-19_10h26.11.177,Slot Machine Game,2023.1.3,Win32,60.24096386,,,,,,,,,,,,,,,,,,,,,,,,,,,940,,,,,,,,,,,,,,,,,,3,3,,,622.5286,12,up,0.6716,623.2289,1,0.3,"[3,1,2]",0.164054768,stimuli/card_10_transparent.png,10,12,0,12,0,1,,,,,,,,,,
,,,,ACVEFRSUAPSEQ,B,2024-08-19_10h26.11.177,Slot Machine Game,2023.1.3,Win32,60.24096386,,,,,,,,,,,,,,,,,,,,,,,,,,,950,,,,,,,,,,,,,,,,,,3,3,,,624.5174,13,up,0.5352,625.0794,1,0.3,"[3,1,2]",0.142397577,stimuli/card_10_transparent.png,10,13,0,13,0,1,,,,,,,,,,
,,,,ACVEFRSUAPSEQ,B,2024-08-19_10h26.11.177,Slot Machine Game,2023.1.3,Win32,60.24096386,,,,,,,,,,,,,,,,,,,,,,,,,,,960,,,,,,,,,,,,,,,,,,3,3,,,626.3799,14,up,0.5929,626.9973,1,0.3,"[3,1,2]",0.122047936,stimuli/card_10_transparent.png,10,14,0,14,0,1,,,,,,,,,,
,,,,ACVEFRSUAPSEQ,B,2024-08-19_10h26.11.177,Slot Machine Game,2023.1.3,Win32,60.24096386,,,,,,,,,,,,,,,,,,,,,,,,,,,,,,,,,,628.2977,,,,,,,,,,,,,,,,,,,,,,,,,,,,,,,"[1120,820,960]",2,0,2,0,1,,,,
,,,,ACVEFRSUAPSEQ,B,2024-08-19_10h26.11.177,Slot Machine Game,2023.1.3,Win32,60.24096386,,,,,,,,,,,,,,,,,,,,,,,,,,,10,,,,,,,,,,,,,,,,,,4,4,"[7,15]","[[2,3,1],[1,2,3]]",633.3117,0,left,0.5569,633.8993,1.5,0.3,"[2,3,1]",0.973486585,stimuli/card_10_transparent.png,10,0,0,0,0,1,,,,,,,,,,
,,,,ACVEFRSUAPSEQ,B,2024-08-19_10h26.11.177,Slot Machine Game,2023.1.3,Win32,60.24096386,,,,,,,,,,,,,,,,,,,,,,,,,,,110,,,,,,,,,,,,,,,,,,4,4,,,635.7005,1,right,0.9857,636.7177,1,0.3,"[2,3,1]",0.309665651,stimuli/card_100_transparent.png,100,1,0,1,0,1,,,,,,,,,,
,,,,ACVEFRSUAPSEQ,B,2024-08-19_10h26.11.177,Slot Machine Game,2023.1.3,Win32,60.24096386,,,,,,,,,,,,,,,,,,,,,,,,,,,210,,,,,,,,,,,,,,,,,,4,4,,,638.0179,2,right,0.8354,638.8682,1.5,0.3,"[2,3,1]",0.921300939,stimuli/card_100_transparent.png,100,2,0,2,0,1,,,,,,,,,,
,,,,ACVEFRSUAPSEQ,B,2024-08-19_10h26.11.177,Slot Machine Game,2023.1.3,Win32,60.24096386,,,,,,,,,,,,,,,,,,,,,,,,,,,310,,,,,,,,,,,,,,,,,,4,4,,,640.6691,3,right,0.9173,641.6029,1.5,0.3,"[2,3,1]",0.215331568,stimuli/card_100_transparent.png,100,3,0,3,0,1,,,,,,,,,,
,,,,ACVEFRSUAPSEQ,B,2024-08-19_10h26.11.177,Slot Machine Game,2023.1.3,Win32,60.24096386,,,,,,,,,,,,,,,,,,,,,,,,,,,410,,,,,,,,,,,,,,,,,,4,4,,,643.4032,4,right,0.51,643.9198,1,0.3,"[2,3,1]",0.22730271,stimuli/card_100_transparent.png,100,4,0,4,0,1,,,,,,,,,,
,,,,ACVEFRSUAPSEQ,B,2024-08-19_10h26.11.177,Slot Machine Game,2023.1.3,Win32,60.24096386,,,,,,,,,,,,,,,,,,,,,,,,,,,510,,,,,,,,,,,,,,,,,,4,4,,,645.2201,5,right,0.5042,645.7377,1.5,0.3,"[2,3,1]",0.513442929,stimuli/card_100_transparent.png,100,5,0,5,0,1,,,,,,,,,,
,,,,ACVEFRSUAPSEQ,B,2024-08-19_10h26.11.177,Slot Machine Game,2023.1.3,Win32,60.24096386,,,,,,,,,,,,,,,,,,,,,,,,,,,610,,,,,,,,,,,,,,,,,,4,4,,,647.5387,6,right,0.9011,648.4721,1,0.3,"[2,3,1]",0.782076381,stimuli/card_100_transparent.png,100,6,0,6,0,1,,,,,,,,,,
,,,,ACVEFRSUAPSEQ,B,2024-08-19_10h26.11.177,Slot Machine Game,2023.1.3,Win32,60.24096386,,,,,,,,,,,,,,,,,,,,,,,,,,,610,,,,,,,,,,,,,,,,,,4,4,,,649.7724,7,right,0.793,650.5893,1.5,0.3,"[1,2,3]",0.388204963,stimuli/card_0_transparent.png,0,7,0,7,0,1,,,,,,,,,,
,,,,ACVEFRSUAPSEQ,B,2024-08-19_10h26.11.177,Slot Machine Game,2023.1.3,Win32,60.24096386,,,,,,,,,,,,,,,,,,,,,,,,,,,710,,,,,,,,,,,,,,,,,,4,4,,,652.39,8,right,0.8824,653.278,1,0.3,"[1,2,3]",0.097156537,stimuli/card_100_transparent.png,100,8,0,8,0,1,,,,,,,,,,
,,,,ACVEFRSUAPSEQ,B,2024-08-19_10h26.11.177,Slot Machine Game,2023.1.3,Win32,60.24096386,,,,,,,,,,,,,,,,,,,,,,,,,,,710,,,,,,,,,,,,,,,,,,4,4,,,654.5743,9,right,0.8229,655.4248,1.5,0.3,"[1,2,3]",0.580521992,stimuli/card_0_transparent.png,0,9,0,9,0,1,,,,,,,,,,
,,,,ACVEFRSUAPSEQ,B,2024-08-19_10h26.11.177,Slot Machine Game,2023.1.3,Win32,60.24096386,,,,,,,,,,,,,,,,,,,,,,,,,,,710,,,,,,,,,,,,,,,,,,4,4,,,657.2256,10,right,0.8159,658.0631,1,0.3,"[1,2,3]",0.732565676,stimuli/card_0_transparent.png,0,10,0,10,0,1,,,,,,,,,,
,,,,ACVEFRSUAPSEQ,B,2024-08-19_10h26.11.177,Slot Machine Game,2023.1.3,Win32,60.24096386,,,,,,,,,,,,,,,,,,,,,,,,,,,710,,,,,,,,,,,,,,,,,,4,4,,,659.3593,11,right,0.7509,660.1432,1.5,0.3,"[1,2,3]",0.451890594,stimuli/card_0_transparent.png,0,11,0,11,0,1,,,,,,,,,,
,,,,ACVEFRSUAPSEQ,B,2024-08-19_10h26.11.177,Slot Machine Game,2023.1.3,Win32,60.24096386,,,,,,,,,,,,,,,,,,,,,,,,,,,810,,,,,,,,,,,,,,,,,,4,4,,,661.9439,12,up,0.9278,662.8939,1.5,0.3,"[1,2,3]",0.177319717,stimuli/card_100_transparent.png,100,12,0,12,0,1,,,,,,,,,,
,,,,ACVEFRSUAPSEQ,B,2024-08-19_10h26.11.177,Slot Machine Game,2023.1.3,Win32,60.24096386,,,,,,,,,,,,,,,,,,,,,,,,,,,820,,,,,,,,,,,,,,,,,,4,4,,,664.6955,13,up,0.5062,665.2113,1.5,0.3,"[1,2,3]",0.779530687,stimuli/card_10_transparent.png,10,13,0,13,0,1,,,,,,,,,,
,,,,ACVEFRSUAPSEQ,B,2024-08-19_10h26.11.177,Slot Machine Game,2023.1.3,Win32,60.24096386,,,,,,,,,,,,,,,,,,,,,,,,,,,830,,,,,,,,,,,,,,,,,,4,4,,,667.0002,14,up,0.9344,667.9628,1,0.3,"[1,2,3]",0.438550855,stimuli/card_10_transparent.png,10,14,0,14,0,1,,,,,,,,,,
,,,,ACVEFRSUAPSEQ,B,2024-08-19_10h26.11.177,Slot Machine Game,2023.1.3,Win32,60.24096386,,,,,,,,,,,,,,,,,,,,,,,,,,,,,,,,,,669.263,,,,,,,,,,,,,,,,,,,,,,,,,,,,,,,"[1120,820,960,830]",3,0,3,0,1,,,,
,,,,ACVEFRSUAPSEQ,B,2024-08-19_10h26.11.177,Slot Machine Game,2023.1.3,Win32,60.24096386,,,,,,,,,,,,,,,,,,,,,,,,,,,100,,,,,,,,,,,,,,,,,,5,5,"[5,15]","[[1,2,3],[3,1,2]]",674.277,0,left,0.555,674.8486,1,0.3,"[1,2,3]",0.370451607,stimuli/card_100_transparent.png,100,0,0,0,0,1,,,,,,,,,,
,,,,ACVEFRSUAPSEQ,B,2024-08-19_10h26.11.177,Slot Machine Game,2023.1.3,Win32,60.24096386,,,,,,,,,,,,,,,,,,,,,,,,,,,200,,,,,,,,,,,,,,,,,,5,5,,,676.1491,1,left,0.585,676.7658,1,0.3,"[1,2,3]",0.253985588,stimuli/card_100_transparent.png,100,1,0,1,0,1,,,,,,,,,,
,,,,ACVEFRSUAPSEQ,B,2024-08-19_10h26.11.177,Slot Machine Game,2023.1.3,Win32,60.24096386,,,,,,,,,,,,,,,,,,,,,,,,,,,300,,,,,,,,,,,,,,,,,,5,5,,,678.0668,2,left,0.9392,679.0325,1,0.3,"[1,2,3]",0.343395794,stimuli/card_100_transparent.png,100,2,0,2,0,1,,,,,,,,,,
,,,,ACVEFRSUAPSEQ,B,2024-08-19_10h26.11.177,Slot Machine Game,2023.1.3,Win32,60.24096386,,,,,,,,,,,,,,,,,,,,,,,,,,,400,,,,,,,,,,,,,,,,,,5,5,,,680.3344,3,left,1.1674,681.5348,1.5,0.3,"[1,2,3]",0.201528632,stimuli/card_100_transparent.png,100,3,0,3,0,1,,,,,,,,,,
,,,,ACVEFRSUAPSEQ,B,2024-08-19_10h26.11.177,Slot Machine Game,2023.1.3,Win32,60.24096386,,,,,,,,,,,,,,,,,,,,,,,,,,,500,,,,,,,,,,,,,,,,,,5,5,,,683.3187,4,left,0.6756,684.0187,0.5,0.3,"[1,2,3]",0.589954962,stimuli/card_100_transparent.png,100,4,0,4,0,1,,,,,,,,,,
,,,,ACVEFRSUAPSEQ,B,2024-08-19_10h26.11.177,Slot Machine Game,2023.1.3,Win32,60.24096386,,,,,,,,,,,,,,,,,,,,,,,,,,,500,,,,,,,,,,,,,,,,,,5,5,,,684.8192,5,left,0.684,685.5364,1.5,0.3,"[3,1,2]",0.380250787,stimuli/card_0_transparent.png,0,5,0,5,0,1,,,,,,,,,,
,,,,ACVEFRSUAPSEQ,B,2024-08-19_10h26.11.177,Slot Machine Game,2023.1.3,Win32,60.24096386,,,,,,,,,,,,,,,,,,,,,,,,,,,500,,,,,,,,,,,,,,,,,,5,5,,,687.337,6,left,1.5058,688.8705,1.5,0.3,"[3,1,2]",0.886408976,stimuli/card_0_transparent.png,0,6,0,6,0,1,,,,,,,,,,
,,,,ACVEFRSUAPSEQ,B,2024-08-19_10h26.11.177,Slot Machine Game,2023.1.3,Win32,60.24096386,,,,,,,,,,,,,,,,,,,,,,,,,,,510,,,,,,,,,,,,,,,,,,5,5,,,690.6715,7,right,1.0299,691.7221,0.5,0.3,"[3,1,2]",0.732490435,stimuli/card_10_transparent.png,10,7,0,7,0,1,,,,,,,,,,
,,,,ACVEFRSUAPSEQ,B,2024-08-19_10h26.11.177,Slot Machine Game,2023.1.3,Win32,60.24096386,,,,,,,,,,,,,,,,,,,,,,,,,,,520,,,,,,,,,,,,,,,,,,5,5,,,692.5223,8,up,0.7818,693.3264,1,0.3,"[3,1,2]",0.137993946,stimuli/card_10_transparent.png,10,8,0,8,0,1,,,,,,,,,,
,,,,ACVEFRSUAPSEQ,B,2024-08-19_10h26.11.177,Slot Machine Game,2023.1.3,Win32,60.24096386,,,,,,,,,,,,,,,,,,,,,,,,,,,530,,,,,,,,,,,,,,,,,,5,5,,,694.6231,9,right,0.9543,695.6069,1,0.3,"[3,1,2]",0.55033578,stimuli/card_10_transparent.png,10,9,0,9,0,1,,,,,,,,,,
,,,,ACVEFRSUAPSEQ,B,2024-08-19_10h26.11.177,Slot Machine Game,2023.1.3,Win32,60.24096386,,,,,,,,,,,,,,,,,,,,,,,,,,,630,,,,,,,,,,,,,,,,,,5,5,,,696.895,10,up,0.9508,697.8741,1.5,0.3,"[3,1,2]",0.389120712,stimuli/card_100_transparent.png,100,10,0,10,0,1,,,,,,,,,,
,,,,ACVEFRSUAPSEQ,B,2024-08-19_10h26.11.177,Slot Machine Game,2023.1.3,Win32,60.24096386,,,,,,,,,,,,,,,,,,,,,,,,,,,730,,,,,,,,,,,,,,,,,,5,5,,,699.6753,11,up,1.0548,700.7586,0.5,0.3,"[3,1,2]",0.871033742,stimuli/card_100_transparent.png,100,11,0,11,0,1,,,,,,,,,,
,,,,ACVEFRSUAPSEQ,B,2024-08-19_10h26.11.177,Slot Machine Game,2023.1.3,Win32,60.24096386,,,,,,,,,,,,,,,,,,,,,,,,,,,830,,,,,,,,,,,,,,,,,,5,5,,,701.5592,12,up,0.8825,702.4634,1,0.3,"[3,1,2]",0.490229229,stimuli/card_100_transparent.png,100,12,0,12,0,1,,,,,,,,,,
,,,,ACVEFRSUAPSEQ,B,2024-08-19_10h26.11.177,Slot Machine Game,2023.1.3,Win32,60.24096386,,,,,,,,,,,,,,,,,,,,,,,,,,,840,,,,,,,,,,,,,,,,,,5,5,,,703.7593,13,up,3.5914,707.3786,1.5,0.3,"[3,1,2]",0.16328298,stimuli/card_10_transparent.png,10,13,0,13,0,1,,,,,,,,,,
,,,,ACVEFRSUAPSEQ,B,2024-08-19_10h26.11.177,Slot Machine Game,2023.1.3,Win32,60.24096386,,,,,,,,,,,,,,,,,,,,,,,,,,,940,,,,,,,,,,,,,,,,,,5,5,,,709.1778,14,up,0.9308,710.1291,0.5,0.3,"[3,1,2]",0.771481722,stimuli/card_100_transparent.png,100,14,0,14,0,1,,,,,,,,,,
,,,,ACVEFRSUAPSEQ,B,2024-08-19_10h26.11.177,Slot Machine Game,2023.1.3,Win32,60.24096386,,,,,,,,,,,,,,,,,,,,,,,,,,,,,,,,,,710.929,,,,,,,,,,,,,,,,,,,,,,,,,,,,,,,"[1120,820,960,830,940]",4,0,4,0,1,,,,
,,,,ACVEFRSUAPSEQ,B,2024-08-19_10h26.11.177,Slot Machine Game,2023.1.3,Win32,60.24096386,,,,,,,,,,,,,,,,,,,,,,,,,,,0,,,,,,,,,,,,,,,,,,6,6,"[4,10,15]","[[2,3,1],[1,3,2],[3,2,1]]",715.9428,0,up,0.8665,716.8313,0.5,0.3,"[2,3,1]",0.518992594,stimuli/card_0_transparent.png,0,0,0,0,0,1,,,,,,,,,,
,,,,ACVEFRSUAPSEQ,B,2024-08-19_10h26.11.177,Slot Machine Game,2023.1.3,Win32,60.24096386,,,,,,,,,,,,,,,,,,,,,,,,,,,10,,,,,,,,,,,,,,,,,,6,6,,,717.6321,1,left,0.8431,718.4987,0.5,0.3,"[2,3,1]",0.56404734,stimuli/card_10_transparent.png,10,1,0,1,0,1,,,,,,,,,,
,,,,ACVEFRSUAPSEQ,B,2024-08-19_10h26.11.177,Slot Machine Game,2023.1.3,Win32,60.24096386,,,,,,,,,,,,,,,,,,,,,,,,,,,110,,,,,,,,,,,,,,,,,,6,6,,,719.299,2,right,0.7673,720.0991,1.5,0.3,"[2,3,1]",0.92761858,stimuli/card_100_transparent.png,100,2,0,2,0,1,,,,,,,,,,
,,,,ACVEFRSUAPSEQ,B,2024-08-19_10h26.11.177,Slot Machine Game,2023.1.3,Win32,60.24096386,,,,,,,,,,,,,,,,,,,,,,,,,,,210,,,,,,,,,,,,,,,,,,6,6,,,721.9322,3,right,1.2702,723.217,0.5,0.3,"[2,3,1]",0.200767038,stimuli/card_100_transparent.png,100,3,0,3,0,1,,,,,,,,,,
,,,,ACVEFRSUAPSEQ,B,2024-08-19_10h26.11.177,Slot Machine Game,2023.1.3,Win32,60.24096386,,,,,,,,,,,,,,,,,,,,,,,,,,,220,,,,,,,,,,,,,,,,,,6,6,,,724.0166,4,right,0.532,724.5671,1.5,0.3,"[1,3,2]",0.218630893,stimuli/card_10_transparent.png,10,4,0,4,0,1,,,,,,,,,,
,,,,ACVEFRSUAPSEQ,B,2024-08-19_10h26.11.177,Slot Machine Game,2023.1.3,Win32,60.24096386,,,,,,,,,,,,,,,,,,,,,,,,,,,230,,,,,,,,,,,,,,,,,,6,6,,,726.3675,5,right,1.1399,727.5191,1,0.3,"[1,3,2]",0.684794777,stimuli/card_10_transparent.png,10,5,0,5,0,1,,,,,,,,,,
,,,,ACVEFRSUAPSEQ,B,2024-08-19_10h26.11.177,Slot Machine Game,2023.1.3,Win32,60.24096386,,,,,,,,,,,,,,,,,,,,,,,,,,,330,,,,,,,,,,,,,,,,,,6,6,,,728.8192,6,left,0.9493,729.8029,1.5,0.3,"[1,3,2]",0.270772137,stimuli/card_100_transparent.png,100,6,0,6,0,1,,,,,,,,,,
,,,,ACVEFRSUAPSEQ,B,2024-08-19_10h26.11.177,Slot Machine Game,2023.1.3,Win32,60.24096386,,,,,,,,,,,,,,,,,,,,,,,,,,,430,,,,,,,,,,,,,,,,,,6,6,,,731.6036,7,left,1.0392,732.6707,1.5,0.3,"[1,3,2]",0.630927722,stimuli/card_100_transparent.png,100,7,0,7,0,1,,,,,,,,,,
,,,,ACVEFRSUAPSEQ,B,2024-08-19_10h26.11.177,Slot Machine Game,2023.1.3,Win32,60.24096386,,,,,,,,,,,,,,,,,,,,,,,,,,,530,,,,,,,,,,,,,,,,,,6,6,,,734.4712,8,left,1.1154,735.6087,1.5,0.3,"[1,3,2]",0.746706125,stimuli/card_100_transparent.png,100,8,0,8,0,1,,,,,,,,,,
,,,,ACVEFRSUAPSEQ,B,2024-08-19_10h26.11.177,Slot Machine Game,2023.1.3,Win32,60.24096386,,,,,,,,,,,,,,,,,,,,,,,,,,,630,,,,,,,,,,,,,,,,,,6,6,,,737.4058,9,left,1.0195,738.4395,1,0.3,"[1,3,2]",0.633864225,stimuli/card_100_transparent.png,100,9,0,9,0,1,,,,,,,,,,
,,,,ACVEFRSUAPSEQ,B,2024-08-19_10h26.11.177,Slot Machine Game,2023.1.3,Win32,60.24096386,,,,,,,,,,,,,,,,,,,,,,,,,,,730,,,,,,,,,,,,,,,,,,6,6,,,739.7402,10,left,0.9676,740.7407,0.5,0.3,"[3,2,1]",0.089270319,stimuli/card_100_transparent.png,100,10,0,10,0,1,,,,,,,,,,
,,,,ACVEFRSUAPSEQ,B,2024-08-19_10h26.11.177,Slot Machine Game,2023.1.3,Win32,60.24096386,,,,,,,,,,,,,,,,,,,,,,,,,,,730,,,,,,,,,,,,,,,,,,6,6,,,741.5408,11,left,0.5878,742.1577,1,0.3,"[3,2,1]",0.596611144,stimuli/card_0_transparent.png,0,11,0,11,0,1,,,,,,,,,,
,,,,ACVEFRSUAPSEQ,B,2024-08-19_10h26.11.177,Slot Machine Game,2023.1.3,Win32,60.24096386,,,,,,,,,,,,,,,,,,,,,,,,,,,730,,,,,,,,,,,,,,,,,,6,6,,,743.4579,12,left,0.8414,744.3252,1.5,0.3,"[3,2,1]",0.600962509,stimuli/card_0_transparent.png,0,12,0,12,0,1,,,,,,,,,,
,,,,ACVEFRSUAPSEQ,B,2024-08-19_10h26.11.177,Slot Machine Game,2023.1.3,Win32,60.24096386,,,,,,,,,,,,,,,,,,,,,,,,,,,740,,,,,,,,,,,,,,,,,,6,6,,,746.1261,13,up,0.97,747.1262,1,0.3,"[3,2,1]",0.306882187,stimuli/card_10_transparent.png,10,13,0,13,0,1,,,,,,,,,,
,,,,ACVEFRSUAPSEQ,B,2024-08-19_10h26.11.177,Slot Machine Game,2023.1.3,Win32,60.24096386,,,,,,,,,,,,,,,,,,,,,,,,,,,840,,,,,,,,,,,,,,,,,,6,6,,,748.4272,14,right,0.5036,748.96,1,0.3,"[3,2,1]",0.768842957,stimuli/card_100_transparent.png,100,14,0,14,0,1,,,,,,,,,,
,,,,ACVEFRSUAPSEQ,B,2024-08-19_10h26.11.177,Slot Machine Game,2023.1.3,Win32,60.24096386,,,,,,,,,,,,,,,,,,,,,,,,,,,,,,,,,,750.2612,,,,,,,,,,,,,,,,,,,,,,,,,,,,,,,"[1120,820,960,830,940,840]",5,0,5,0,1,,,,
,,,,ACVEFRSUAPSEQ,B,2024-08-19_10h26.11.177,Slot Machine Game,2023.1.3,Win32,60.24096386,,,,,,,,,,,,,,,,,,,,,,,,,,,100,,,,,,,,,,,,,,,,,,7,7,"[9,15]","[[1,3,2],[2,3,1]]",755.2699,0,up,0.8097,756.0961,0.5,0.3,"[1,3,2]",0.02744574,stimuli/card_100_transparent.png,100,0,0,0,0,1,,,,,,,,,,
,,,,ACVEFRSUAPSEQ,B,2024-08-19_10h26.11.177,Slot Machine Game,2023.1.3,Win32,60.24096386,,,,,,,,,,,,,,,,,,,,,,,,,,,100,,,,,,,,,,,,,,,,,,7,7,,,756.8969,1,up,1.0309,757.9496,1,0.3,"[1,3,2]",0.551569449,stimuli/card_0_transparent.png,0,1,0,1,0,1,,,,,,,,,,
,,,,ACVEFRSUAPSEQ,B,2024-08-19_10h26.11.177,Slot Machine Game,2023.1.3,Win32,60.24096386,,,,,,,,,,,,,,,,,,,,,,,,,,,100,,,,,,,,,,,,,,,,,,7,7,,,759.2476,2,up,0.6291,759.8979,0.5,0.3,"[1,3,2]",0.6124524,stimuli/card_0_transparent.png,0,2,0,2,0,1,,,,,,,,,,
,,,,ACVEFRSUAPSEQ,B,2024-08-19_10h26.11.177,Slot Machine Game,2023.1.3,Win32,60.24096386,,,,,,,,,,,,,,,,,,,,,,,,,,,110,,,,,,,,,,,,,,,,,,7,7,,,760.6983,3,up,1.6671,762.3989,1.5,0.3,"[1,3,2]",0.100110584,stimuli/card_10_transparent.png,10,3,0,3,0,1,,,,,,,,,,
,,,,ACVEFRSUAPSEQ,B,2024-08-19_10h26.11.177,Slot Machine Game,2023.1.3,Win32,60.24096386,,,,,,,,,,,,,,,,,,,,,,,,,,,120,,,,,,,,,,,,,,,,,,7,7,,,764.1994,4,right,0.9852,765.1999,1.5,0.3,"[1,3,2]",0.60356942,stimuli/card_10_transparent.png,10,4,0,4,0,1,,,,,,,,,,
,,,,ACVEFRSUAPSEQ,B,2024-08-19_10h26.11.177,Slot Machine Game,2023.1.3,Win32,60.24096386,,,,,,,,,,,,,,,,,,,,,,,,,,,220,,,,,,,,,,,,,,,,,,7,7,,,767.0003,5,left,0.7843,767.8169,1,0.3,"[1,3,2]",0.971771226,stimuli/card_100_transparent.png,100,5,0,5,0,1,,,,,,,,,,
,,,,ACVEFRSUAPSEQ,B,2024-08-19_10h26.11.177,Slot Machine Game,2023.1.3,Win32,60.24096386,,,,,,,,,,,,,,,,,,,,,,,,,,,320,,,,,,,,,,,,,,,,,,7,7,,,769.1176,6,left,0.8336,769.984,0.5,0.3,"[1,3,2]",0.205310049,stimuli/card_100_transparent.png,100,6,0,6,0,1,,,,,,,,,,
,,,,ACVEFRSUAPSEQ,B,2024-08-19_10h26.11.177,Slot Machine Game,2023.1.3,Win32,60.24096386,,,,,,,,,,,,,,,,,,,,,,,,,,,420,,,,,,,,,,,,,,,,,,7,7,,,770.7848,7,left,0.8304,771.636,1.5,0.3,"[1,3,2]",0.856542926,stimuli/card_100_transparent.png,100,7,0,7,0,1,,,,,,,,,,
,,,,ACVEFRSUAPSEQ,B,2024-08-19_10h26.11.177,Slot Machine Game,2023.1.3,Win32,60.24096386,,,,,,,,,,,,,,,,,,,,,,,,,,,520,,,,,,,,,,,,,,,,,,7,7,,,773.4364,8,left,0.8713,774.32,1.5,0.3,"[1,3,2]",0.485607659,stimuli/card_100_transparent.png,100,8,0,8,0,1,,,,,,,,,,
,,,,ACVEFRSUAPSEQ,B,2024-08-19_10h26.11.177,Slot Machine Game,2023.1.3,Win32,60.24096386,,,,,,,,,,,,,,,,,,,,,,,,,,,530,,,,,,,,,,,,,,,,,,7,7,,,776.1209,9,left,0.9677,777.1213,0.5,0.3,"[2,3,1]",0.861081713,stimuli/card_10_transparent.png,10,9,0,9,0,1,,,,,,,,,,
,,,,ACVEFRSUAPSEQ,B,2024-08-19_10h26.11.177,Slot Machine Game,2023.1.3,Win32,60.24096386,,,,,,,,,,,,,,,,,,,,,,,,,,,540,,,,,,,,,,,,,,,,,,7,7,,,777.9218,10,left,1.1187,779.0719,1.5,0.3,"[2,3,1]",0.41409807,stimuli/card_10_transparent.png,10,10,0,10,0,1,,,,,,,,,,
,,,,ACVEFRSUAPSEQ,B,2024-08-19_10h26.11.177,Slot Machine Game,2023.1.3,Win32,60.24096386,,,,,,,,,,,,,,,,,,,,,,,,,,,550,,,,,,,,,,,,,,,,,,7,7,,,780.8729,11,left,0.7237,781.6225,0.5,0.3,"[2,3,1]",0.376526715,stimuli/card_10_transparent.png,10,11,0,11,0,1,,,,,,,,,,
,,,,ACVEFRSUAPSEQ,B,2024-08-19_10h26.11.177,Slot Machine Game,2023.1.3,Win32,60.24096386,,,,,,,,,,,,,,,,,,,,,,,,,,,560,,,,,,,,,,,,,,,,,,7,7,,,782.4227,12,left,0.8596,783.3063,1.5,0.3,"[2,3,1]",0.476064189,stimuli/card_10_transparent.png,10,12,0,12,0,1,,,,,,,,,,
,,,,ACVEFRSUAPSEQ,B,2024-08-19_10h26.11.177,Slot Machine Game,2023.1.3,Win32,60.24096386,,,,,,,,,,,,,,,,,,,,,,,,,,,660,,,,,,,,,,,,,,,,,,7,7,,,785.1073,13,right,0.9485,786.0616,0.5,0.3,"[2,3,1]",0.973998629,stimuli/card_100_transparent.png,100,13,0,13,0,1,,,,,,,,,,
,,,,ACVEFRSUAPSEQ,B,2024-08-19_10h26.11.177,Slot Machine Game,2023.1.3,Win32,60.24096386,,,,,,,,,,,,,,,,,,,,,,,,,,,760,,,,,,,,,,,,,,,,,,7,7,,,786.8584,14,right,1.4777,788.3582,0.5,0.3,"[2,3,1]",0.562177472,stimuli/card_100_transparent.png,100,14,0,14,0,1,,,,,,,,,,
,,,,ACVEFRSUAPSEQ,B,2024-08-19_10h26.11.177,Slot Machine Game,2023.1.3,Win32,60.24096386,,,,,,,,,,,,,,,,,,,,,,,,,,,,,,,,,,789.1585,,,,,,,,,,,,,,,,,,,,,,,,,,,,,,,"[1120,820,960,830,940,840,760]",6,0,6,0,1,,,,
,,,,ACVEFRSUAPSEQ,B,2024-08-19_10h26.11.177,Slot Machine Game,2023.1.3,Win32,60.24096386,,,,,,,,,,,,,,,,,,,,,,,,,,,10,,,,,,,,,,,,,,,,,,8,8,"[11,15]","[[2,1,3],[1,2,3]]",794.1726,0,left,0.8506,795.0445,1.5,0.3,"[2,1,3]",0.562805404,stimuli/card_10_transparent.png,10,0,0,0,0,1,,,,,,,,,,
,,,,ACVEFRSUAPSEQ,B,2024-08-19_10h26.11.177,Slot Machine Game,2023.1.3,Win32,60.24096386,,,,,,,,,,,,,,,,,,,,,,,,,,,10,,,,,,,,,,,,,,,,,,8,8,,,796.8453,1,right,1.1341,798.0127,0.5,0.3,"[2,1,3]",0.819949433,stimuli/card_0_transparent.png,0,1,0,1,0,1,,,,,,,,,,
,,,,ACVEFRSUAPSEQ,B,2024-08-19_10h26.11.177,Slot Machine Game,2023.1.3,Win32,60.24096386,,,,,,,,,,,,,,,,,,,,,,,,,,,110,,,,,,,,,,,,,,,,,,8,8,,,798.8125,2,up,0.6335,799.4794,1.5,0.3,"[2,1,3]",0.306887798,stimuli/card_100_transparent.png,100,2,0,2,0,1,,,,,,,,,,
,,,,ACVEFRSUAPSEQ,B,2024-08-19_10h26.11.177,Slot Machine Game,2023.1.3,Win32,60.24096386,,,,,,,,,,,,,,,,,,,,,,,,,,,210,,,,,,,,,,,,,,,,,,8,8,,,801.2805,3,up,0.9348,802.2474,1.5,0.3,"[2,1,3]",0.723163623,stimuli/card_100_transparent.png,100,3,0,3,0,1,,,,,,,,,,
,,,,ACVEFRSUAPSEQ,B,2024-08-19_10h26.11.177,Slot Machine Game,2023.1.3,Win32,60.24096386,,,,,,,,,,,,,,,,,,,,,,,,,,,310,,,,,,,,,,,,,,,,,,8,8,,,804.0479,4,up,0.5005,804.5695,1,0.3,"[2,1,3]",0.454790034,stimuli/card_100_transparent.png,100,4,0,4,0,1,,,,,,,,,,
,,,,ACVEFRSUAPSEQ,B,2024-08-19_10h26.11.177,Slot Machine Game,2023.1.3,Win32,60.24096386,,,,,,,,,,,,,,,,,,,,,,,,,,,320,,,,,,,,,,,,,,,,,,8,8,,,805.8651,5,up,0.7734,806.6486,1.5,0.3,"[2,1,3]",0.186896766,stimuli/card_10_transparent.png,10,5,0,5,0,1,,,,,,,,,,
,,,,ACVEFRSUAPSEQ,B,2024-08-19_10h26.11.177,Slot Machine Game,2023.1.3,Win32,60.24096386,,,,,,,,,,,,,,,,,,,,,,,,,,,420,,,,,,,,,,,,,,,,,,8,8,,,808.4499,6,up,1.3865,809.8502,1,0.3,"[2,1,3]",0.382184049,stimuli/card_100_transparent.png,100,6,0,6,0,1,,,,,,,,,,
,,,,ACVEFRSUAPSEQ,B,2024-08-19_10h26.11.177,Slot Machine Game,2023.1.3,Win32,60.24096386,,,,,,,,,,,,,,,,,,,,,,,,,,,520,,,,,,,,,,,,,,,,,,8,8,,,811.1508,7,up,0.5004,811.6842,0.5,0.3,"[2,1,3]",0.616001467,stimuli/card_100_transparent.png,100,7,0,7,0,1,,,,,,,,,,
,,,,ACVEFRSUAPSEQ,B,2024-08-19_10h26.11.177,Slot Machine Game,2023.1.3,Win32,60.24096386,,,,,,,,,,,,,,,,,,,,,,,,,,,620,,,,,,,,,,,,,,,,,,8,8,,,812.4842,8,up,0.5862,813.085,1,0.3,"[2,1,3]",0.228294949,stimuli/card_100_transparent.png,100,8,0,8,0,1,,,,,,,,,,
,,,,ACVEFRSUAPSEQ,B,2024-08-19_10h26.11.177,Slot Machine Game,2023.1.3,Win32,60.24096386,,,,,,,,,,,,,,,,,,,,,,,,,,,720,,,,,,,,,,,,,,,,,,8,8,,,814.3857,9,up,0.5186,814.9353,1.5,0.3,"[2,1,3]",0.279629072,stimuli/card_100_transparent.png,100,9,0,9,0,1,,,,,,,,,,
,,,,ACVEFRSUAPSEQ,B,2024-08-19_10h26.11.177,Slot Machine Game,2023.1.3,Win32,60.24096386,,,,,,,,,,,,,,,,,,,,,,,,,,,820,,,,,,,,,,,,,,,,,,8,8,,,816.7364,10,up,0.5524,817.3189,0.5,0.3,"[2,1,3]",0.325275226,stimuli/card_100_transparent.png,100,10,0,10,0,1,,,,,,,,,,
,,,,ACVEFRSUAPSEQ,B,2024-08-19_10h26.11.177,Slot Machine Game,2023.1.3,Win32,60.24096386,,,,,,,,,,,,,,,,,,,,,,,,,,,830,,,,,,,,,,,,,,,,,,8,8,,,818.12,11,up,0.6177,818.7704,1,0.3,"[1,2,3]",0.969866534,stimuli/card_10_transparent.png,10,11,0,11,0,1,,,,,,,,,,
,,,,ACVEFRSUAPSEQ,B,2024-08-19_10h26.11.177,Slot Machine Game,2023.1.3,Win32,60.24096386,,,,,,,,,,,,,,,,,,,,,,,,,,,840,,,,,,,,,,,,,,,,,,8,8,,,820.0709,12,up,0.5004,820.5876,0.5,0.3,"[1,2,3]",0.928144363,stimuli/card_10_transparent.png,10,12,0,12,0,1,,,,,,,,,,
,,,,ACVEFRSUAPSEQ,B,2024-08-19_10h26.11.177,Slot Machine Game,2023.1.3,Win32,60.24096386,,,,,,,,,,,,,,,,,,,,,,,,,,,940,,,,,,,,,,,,,,,,,,8,8,,,821.3916,13,up,0.5502,821.9717,1.5,0.3,"[1,2,3]",0.110708486,stimuli/card_100_transparent.png,100,13,0,13,0,1,,,,,,,,,,
,,,,ACVEFRSUAPSEQ,B,2024-08-19_10h26.11.177,Slot Machine Game,2023.1.3,Win32,60.24096386,,,,,,,,,,,,,,,,,,,,,,,,,,,950,,,,,,,,,,,,,,,,,,8,8,,,823.7721,14,up,0.8319,824.6222,0.5,0.3,"[1,2,3]",0.335494882,stimuli/card_10_transparent.png,10,14,0,14,0,1,,,,,,,,,,
,,,,ACVEFRSUAPSEQ,B,2024-08-19_10h26.11.177,Slot Machine Game,2023.1.3,Win32,60.24096386,,,,,,,,,,,,,,,,,,,,,,,,,,,,,,,,,,825.4226,,,,,,,,,,,,,,,,,,,,,,,,,,,,,,,"[1120,820,960,830,940,840,760,950]",7,0,7,0,1,,,,
,,,,ACVEFRSUAPSEQ,B,2024-08-19_10h26.11.177,Slot Machine Game,2023.1.3,Win32,60.24096386,,,,,,,,,,,,,,,,,,,,,,,,,,,10,,,,,,,,,,,,,,,,,,9,9,"[8,15]","[[3,2,1],[3,1,2]]",830.437,0,up,0.6103,831.0581,1,0.3,"[3,2,1]",0.291613392,stimuli/card_10_transparent.png,10,0,0,0,0,1,,,,,,,,,,
,,,,ACVEFRSUAPSEQ,B,2024-08-19_10h26.11.177,Slot Machine Game,2023.1.3,Win32,60.24096386,,,,,,,,,,,,,,,,,,,,,,,,,,,10,,,,,,,,,,,,,,,,,,9,9,,,832.3593,1,left,0.8688,833.2592,0.5,0.3,"[3,2,1]",0.309323441,stimuli/card_0_transparent.png,0,1,0,1,0,1,,,,,,,,,,
,,,,ACVEFRSUAPSEQ,B,2024-08-19_10h26.11.177,Slot Machine Game,2023.1.3,Win32,60.24096386,,,,,,,,,,,,,,,,,,,,,,,,,,,110,,,,,,,,,,,,,,,,,,9,9,,,834.0596,2,right,0.6692,834.7769,1,0.3,"[3,2,1]",0.362251475,stimuli/card_100_transparent.png,100,2,0,2,0,1,,,,,,,,,,
,,,,ACVEFRSUAPSEQ,B,2024-08-19_10h26.11.177,Slot Machine Game,2023.1.3,Win32,60.24096386,,,,,,,,,,,,,,,,,,,,,,,,,,,210,,,,,,,,,,,,,,,,,,9,9,,,836.0768,3,right,0.5494,836.6319,0.5,0.3,"[3,2,1]",0.823708965,stimuli/card_100_transparent.png,100,3,0,3,0,1,,,,,,,,,,
,,,,ACVEFRSUAPSEQ,B,2024-08-19_10h26.11.177,Slot Machine Game,2023.1.3,Win32,60.24096386,,,,,,,,,,,,,,,,,,,,,,,,,,,310,,,,,,,,,,,,,,,,,,9,9,,,837.4278,4,right,0.9317,838.3946,1,0.3,"[3,2,1]",0.911406918,stimuli/card_100_transparent.png,100,4,0,4,0,1,,,,,,,,,,
,,,,ACVEFRSUAPSEQ,B,2024-08-19_10h26.11.177,Slot Machine Game,2023.1.3,Win32,60.24096386,,,,,,,,,,,,,,,,,,,,,,,,,,,410,,,,,,,,,,,,,,,,,,9,9,,,839.6951,5,right,0.886,840.6124,0.5,0.3,"[3,2,1]",0.304870556,stimuli/card_100_transparent.png,100,5,0,5,0,1,,,,,,,,,,
,,,,ACVEFRSUAPSEQ,B,2024-08-19_10h26.11.177,Slot Machine Game,2023.1.3,Win32,60.24096386,,,,,,,,,,,,,,,,,,,,,,,,,,,510,,,,,,,,,,,,,,,,,,9,9,,,841.4124,6,right,0.9326,842.3667,1,0.3,"[3,2,1]",0.921691515,stimuli/card_100_transparent.png,100,6,0,6,0,1,,,,,,,,,,
,,,,ACVEFRSUAPSEQ,B,2024-08-19_10h26.11.177,Slot Machine Game,2023.1.3,Win32,60.24096386,,,,,,,,,,,,,,,,,,,,,,,,,,,610,,,,,,,,,,,,,,,,,,9,9,,,843.6623,7,right,0.9201,844.5968,0.5,0.3,"[3,2,1]",0.821631965,stimuli/card_100_transparent.png,100,7,0,7,0,1,,,,,,,,,,
,,,,ACVEFRSUAPSEQ,B,2024-08-19_10h26.11.177,Slot Machine Game,2023.1.3,Win32,60.24096386,,,,,,,,,,,,,,,,,,,,,,,,,,,620,,,,,,,,,,,,,,,,,,9,9,,,845.3971,8,right,0.8357,846.2644,0.5,0.3,"[3,1,2]",0.318462707,stimuli/card_10_transparent.png,10,8,0,8,0,1,,,,,,,,,,
,,,,ACVEFRSUAPSEQ,B,2024-08-19_10h26.11.177,Slot Machine Game,2023.1.3,Win32,60.24096386,,,,,,,,,,,,,,,,,,,,,,,,,,,720,,,,,,,,,,,,,,,,,,9,9,,,847.0649,9,right,0.6698,847.7484,1,0.3,"[3,1,2]",0.192813924,stimuli/card_100_transparent.png,100,9,0,9,0,1,,,,,,,,,,
,,,,ACVEFRSUAPSEQ,B,2024-08-19_10h26.11.177,Slot Machine Game,2023.1.3,Win32,60.24096386,,,,,,,,,,,,,,,,,,,,,,,,,,,730,,,,,,,,,,,,,,,,,,9,9,,,849.0489,10,right,0.5768,849.6485,1,0.3,"[3,1,2]",0.499989124,stimuli/card_10_transparent.png,10,10,0,10,0,1,,,,,,,,,,
,,,,ACVEFRSUAPSEQ,B,2024-08-19_10h26.11.177,Slot Machine Game,2023.1.3,Win32,60.24096386,,,,,,,,,,,,,,,,,,,,,,,,,,,740,,,,,,,,,,,,,,,,,,9,9,,,850.9495,11,right,0.5733,851.5495,1,0.3,"[3,1,2]",0.464498598,stimuli/card_10_transparent.png,10,11,0,11,0,1,,,,,,,,,,
,,,,ACVEFRSUAPSEQ,B,2024-08-19_10h26.11.177,Slot Machine Game,2023.1.3,Win32,60.24096386,,,,,,,,,,,,,,,,,,,,,,,,,,,750,,,,,,,,,,,,,,,,,,9,9,,,852.85,12,right,0.539,853.4165,0.5,0.3,"[3,1,2]",0.98105044,stimuli/card_10_transparent.png,10,12,0,12,0,1,,,,,,,,,,
,,,,ACVEFRSUAPSEQ,B,2024-08-19_10h26.11.177,Slot Machine Game,2023.1.3,Win32,60.24096386,,,,,,,,,,,,,,,,,,,,,,,,,,,760,,,,,,,,,,,,,,,,,,9,9,,,854.2171,13,right,0.7885,855.0177,1,0.3,"[3,1,2]",0.377530811,stimuli/card_10_transparent.png,10,13,0,13,0,1,,,,,,,,,,
,,,,ACVEFRSUAPSEQ,B,2024-08-19_10h26.11.177,Slot Machine Game,2023.1.3,Win32,60.24096386,,,,,,,,,,,,,,,,,,,,,,,,,,,860,,,,,,,,,,,,,,,,,,9,9,,,856.3184,14,up,0.8426,857.1851,1.5,0.3,"[3,1,2]",0.5093917,stimuli/card_100_transparent.png,100,14,0,14,0,1,,,,,,,,,,
,,,,ACVEFRSUAPSEQ,B,2024-08-19_10h26.11.177,Slot Machine Game,2023.1.3,Win32,60.24096386,,,,,,,,,,,,,,,,,,,,,,,,,,,,,,,,,,858.9853,,,,,,,,,,,,,,,,,,,,,,,,,,,,,,,"[1120,820,960,830,940,840,760,950,860]",8,0,8,0,1,,,,
,,,,ACVEFRSUAPSEQ,B,2024-08-19_10h26.11.177,Slot Machine Game,2023.1.3,Win32,60.24096386,,,,,,,,,,,,,,,,,,,,,,,,,,,0,,,,,,,,,,,,,,,,,,10,10,"[10,15]","[[3,1,2],[1,3,2]]",863.9949,0,left,1.7467,865.7719,1.5,0.3,"[3,1,2]",0.50619768,stimuli/card_0_transparent.png,0,0,0,0,0,1,,,,,,,,,,
,,,,ACVEFRSUAPSEQ,B,2024-08-19_10h26.11.177,Slot Machine Game,2023.1.3,Win32,60.24096386,,,,,,,,,,,,,,,,,,,,,,,,,,,10,,,,,,,,,,,,,,,,,,10,10,,,867.5726,1,right,0.8737,868.4728,0.5,0.3,"[3,1,2]",0.426088767,stimuli/card_10_transparent.png,10,1,0,1,0,1,,,,,,,,,,
,,,,ACVEFRSUAPSEQ,B,2024-08-19_10h26.11.177,Slot Machine Game,2023.1.3,Win32,60.24096386,,,,,,,,,,,,,,,,,,,,,,,,,,,110,,,,,,,,,,,,,,,,,,10,10,,,869.2726,2,up,0.9195,870.2069,1.5,0.3,"[3,1,2]",0.71295588,stimuli/card_100_transparent.png,100,2,0,2,0,1,,,,,,,,,,
,,,,ACVEFRSUAPSEQ,B,2024-08-19_10h26.11.177,Slot Machine Game,2023.1.3,Win32,60.24096386,,,,,,,,,,,,,,,,,,,,,,,,,,,210,,,,,,,,,,,,,,,,,,10,10,,,871.9911,3,up,0.5851,872.6079,1,0.3,"[3,1,2]",0.857532765,stimuli/card_100_transparent.png,100,3,0,3,0,1,,,,,,,,,,
,,,,ACVEFRSUAPSEQ,B,2024-08-19_10h26.11.177,Slot Machine Game,2023.1.3,Win32,60.24096386,,,,,,,,,,,,,,,,,,,,,,,,,,,310,,,,,,,,,,,,,,,,,,10,10,,,873.9085,4,up,0.5998,874.5421,1.5,0.3,"[3,1,2]",0.425727652,stimuli/card_100_transparent.png,100,4,0,4,0,1,,,,,,,,,,
,,,,ACVEFRSUAPSEQ,B,2024-08-19_10h26.11.177,Slot Machine Game,2023.1.3,Win32,60.24096386,,,,,,,,,,,,,,,,,,,,,,,,,,,410,,,,,,,,,,,,,,,,,,10,10,,,876.3425,5,up,1.5936,877.9595,1,0.3,"[3,1,2]",0.234825633,stimuli/card_100_transparent.png,100,5,0,5,0,1,,,,,,,,,,
,,,,ACVEFRSUAPSEQ,B,2024-08-19_10h26.11.177,Slot Machine Game,2023.1.3,Win32,60.24096386,,,,,,,,,,,,,,,,,,,,,,,,,,,510,,,,,,,,,,,,,,,,,,10,10,,,879.26,6,up,0.9717,880.2437,1,0.3,"[3,1,2]",0.760522061,stimuli/card_100_transparent.png,100,6,0,6,0,1,,,,,,,,,,
,,,,ACVEFRSUAPSEQ,B,2024-08-19_10h26.11.177,Slot Machine Game,2023.1.3,Win32,60.24096386,,,,,,,,,,,,,,,,,,,,,,,,,,,610,,,,,,,,,,,,,,,,,,10,10,,,881.5447,7,up,0.829,882.4117,1,0.3,"[3,1,2]",0.930805128,stimuli/card_100_transparent.png,100,7,0,7,0,1,,,,,,,,,,
,,,,ACVEFRSUAPSEQ,B,2024-08-19_10h26.11.177,Slot Machine Game,2023.1.3,Win32,60.24096386,,,,,,,,,,,,,,,,,,,,,,,,,,,710,,,,,,,,,,,,,,,,,,10,10,,,883.7117,8,up,2.0492,885.7793,1,0.3,"[3,1,2]",0.653477541,stimuli/card_100_transparent.png,100,8,0,8,0,1,,,,,,,,,,
,,,,ACVEFRSUAPSEQ,B,2024-08-19_10h26.11.177,Slot Machine Game,2023.1.3,Win32,60.24096386,,,,,,,,,,,,,,,,,,,,,,,,,,,810,,,,,,,,,,,,,,,,,,10,10,,,887.0798,9,up,0.6432,887.7465,0.5,0.3,"[3,1,2]",0.765747937,stimuli/card_100_transparent.png,100,9,0,9,0,1,,,,,,,,,,
,,,,ACVEFRSUAPSEQ,B,2024-08-19_10h26.11.177,Slot Machine Game,2023.1.3,Win32,60.24096386,,,,,,,,,,,,,,,,,,,,,,,,,,,810,,,,,,,,,,,,,,,,,,10,10,,,888.5473,10,up,1.1291,889.6972,1.5,0.3,"[1,3,2]",0.54355427,stimuli/card_0_transparent.png,0,10,0,10,0,1,,,,,,,,,,
,,,,ACVEFRSUAPSEQ,B,2024-08-19_10h26.11.177,Slot Machine Game,2023.1.3,Win32,60.24096386,,,,,,,,,,,,,,,,,,,,,,,,,,,810,,,,,,,,,,,,,,,,,,10,10,,,891.4986,11,up,1.0211,892.5487,1.5,0.3,"[1,3,2]",0.978931497,stimuli/card_0_transparent.png,0,11,0,11,0,1,,,,,,,,,,
,,,,ACVEFRSUAPSEQ,B,2024-08-19_10h26.11.177,Slot Machine Game,2023.1.3,Win32,60.24096386,,,,,,,,,,,,,,,,,,,,,,,,,,,820,,,,,,,,,,,,,,,,,,10,10,,,894.3327,12,right,1.5845,895.9496,0.5,0.3,"[1,3,2]",0.769585399,stimuli/card_10_transparent.png,10,12,0,12,0,1,,,,,,,,,,
,,,,ACVEFRSUAPSEQ,B,2024-08-19_10h26.11.177,Slot Machine Game,2023.1.3,Win32,60.24096386,,,,,,,,,,,,,,,,,,,,,,,,,,,920,,,,,,,,,,,,,,,,,,10,10,,,896.7546,13,left,0.5657,897.3374,0.5,0.3,"[1,3,2]",0.757771019,stimuli/card_100_transparent.png,100,13,0,13,0,1,,,,,,,,,,
,,,,ACVEFRSUAPSEQ,B,2024-08-19_10h26.11.177,Slot Machine Game,2023.1.3,Win32,60.24096386,,,,,,,,,,,,,,,,,,,,,,,,,,,1020,,,,,,,,,,,,,,,,,,10,10,,,898.1342,14,left,0.9709,899.1344,1.5,0.3,"[1,3,2]",0.225950005,stimuli/card_100_transparent.png,100,14,0,14,0,1,,,,,,,,,,
,,,,ACVEFRSUAPSEQ,B,2024-08-19_10h26.11.177,Slot Machine Game,2023.1.3,Win32,60.24096386,,,,,,,,,,,,,,,,,,,,,,,,,,,,,,,,,,900.9345,,,,,,,,,,,,,,,,,,,,,,,,,,,,,,,"[1120,820,960,830,940,840,760,950,860,1020]",9,0,9,0,1,,,,
,,,,ACVEFRSUAPSEQ,B,2024-08-19_10h26.11.177,Slot Machine Game,2023.1.3,Win32,60.24096386,,,,,,,,,,,,,,,,,,,,,,,,,,,,,,,,,,,,,,,,,,,,,,,,,,,,,,,,,,,,,,,,,,,,,,,9,"[1120,820,960,830,940,840,760,950,860,1020]",7.6,2024-08-19_10h41.21.222
