key_resp_welcome_started,key_resp_welcome_keys,key_resp_welcome_rt,key_resp_welcome_duration,prolific_pid,path_id,date,expName,psychopyVersion,OS,frameRate,key_resp_instruction1_started,key_resp_instruction1_keys,key_resp_instruction1_rt,key_resp_instruction1_duration,key_resp_instruction2_started,key_resp_instruction2_keys,key_resp_instruction2_rt,key_resp_instruction2_duration,key_resp_instruction3_started,key_resp_instruction3_keys,key_resp_instruction3_rt,key_resp_instruction3_duration,key_resp_instruction4_started,key_resp_instruction4_keys,key_resp_instruction4_rt,key_resp_instruction4_duration,practiceCondition,practice_reward_seqs,practice_trial_started,practice_trial_num,practice_resp_rt,practice_keypress_time,practice_resp_keys,prac_presentationInterval,practice_reward_seq,reward_img,cumulative_reward,trial_reward,practice_trials.thisRepN,practice_trials.thisTrialN,practice_trials.thisN,practice_trials.thisIndex,practice_trials.ran,block_break_started,practice_end_time,practice_end_keys,practice_end_rt,practice_end_duration,main_instruction_text_started,block_condition,block_order_indices,main_instruction_keys,main_instruction_rt,main_instruction_duration,block_number,block_assignment,current_condition,main_reward_seqs,main_trial_started,main_trial_num,main_trial_keys,main_trial_rt,main_trial_keypress_time,main_presentationInterval,reward_presentation_time,main_reward_seq,reward_rand_val,main_reward_img,current_reward,main_trials.thisRepN,main_trials.thisTrialN,main_trials.thisN,main_trials.thisIndex,main_trials.ran,block_reward,block.thisRepN,block.thisTrialN,block.thisN,block.thisIndex,block.ran,block_reward.length,block_reward_all,reward_amount,date_end_task
0.0008,return,3.6215,,5ddcd77f23f9f1c2c45d6c18,B,2024-08-16_17h14.04.688,Slot Machine Game,2023.1.3,Win32,60.24096386,,,,,,,,,,,,,,,,,,,,,,,,,,,,,,,,,,,,,,,,,,,,,,,,,,,,,,,,,,,,,,,,,,,,,,,,,,
,,,,5ddcd77f23f9f1c2c45d6c18,B,2024-08-16_17h14.04.688,Slot Machine Game,2023.1.3,Win32,60.24096386,3.6635,return,38.616,,,,,,,,,,,,,,,,,,,,,,,,,,,,,,,,,,,,,,,,,,,,,,,,,,,,,,,,,,,,,,,,,,,,,,,
,,,,5ddcd77f23f9f1c2c45d6c18,B,2024-08-16_17h14.04.688,Slot Machine Game,2023.1.3,Win32,60.24096386,,,,,42.3456,return,65.017,,,,,,,,,,,,,,,,,,,,,,,,,,,,,,,,,,,,,,,,,,,,,,,,,,,,,,,,,,,,,,,,,,,
,,,,5ddcd77f23f9f1c2c45d6c18,B,2024-08-16_17h14.04.688,Slot Machine Game,2023.1.3,Win32,60.24096386,,,,,,,,,107.4401,return,9.2155,,,,,,,,,,,,,,,,,,,,,,,,,,,,,,,,,,,,,,,,,,,,,,,,,,,,,,,,,,,,,,,
,,,,5ddcd77f23f9f1c2c45d6c18,B,2024-08-16_17h14.04.688,Slot Machine Game,2023.1.3,Win32,60.24096386,,,,,,,,,,,,,,,,,,,,,,,,,,,,,,,,,,,,,,,,,,,,,,,,,,,,,,,,,,,,,,,,,,,,,,,,,,
,,,,5ddcd77f23f9f1c2c45d6c18,B,2024-08-16_17h14.04.688,Slot Machine Game,2023.1.3,Win32,60.24096386,,,,,,,,,,,,,258.9725,left,4.8214,,,,,,,,,,,,,,,,,,,,,,,,,,,,,,,,,,,,,,,,,,,,,,,,,,,,,,,,,,,
,,,,5ddcd77f23f9f1c2c45d6c18,B,2024-08-16_17h14.04.688,Slot Machine Game,2023.1.3,Win32,60.24096386,,,,,,,,,,,,,,,,,"[9,15]","[[2,1,3],[2,3,1]]",263.8572,0,2.4541,266.3423,left,1.5,"[2,1,3]",stimuli/card_100_transparent.png,100,100,0,0,0,0,1,,,,,,,,,,,,,,,,,,,,,,,,,,,,,,,,,,,,,,,,,
,,,,5ddcd77f23f9f1c2c45d6c18,B,2024-08-16_17h14.04.688,Slot Machine Game,2023.1.3,Win32,60.24096386,,,,,,,,,,,,,,,,,,,268.1343,1,1.7337,269.8868,left,1,"[2,1,3]",stimuli/card_10_transparent.png,110,10,1,0,1,0,1,,,,,,,,,,,,,,,,,,,,,,,,,,,,,,,,,,,,,,,,,
,,,,5ddcd77f23f9f1c2c45d6c18,B,2024-08-16_17h14.04.688,Slot Machine Game,2023.1.3,Win32,60.24096386,,,,,,,,,,,,,,,,,,,271.1863,2,1.3073,272.5245,left,0.5,"[2,1,3]",stimuli/card_10_transparent.png,120,10,2,0,2,0,1,,,,,,,,,,,,,,,,,,,,,,,,,,,,,,,,,,,,,,,,,
,,,,5ddcd77f23f9f1c2c45d6c18,B,2024-08-16_17h14.04.688,Slot Machine Game,2023.1.3,Win32,60.24096386,,,,,,,,,,,,,,,,,,,273.3143,3,1.222,274.5673,left,1,"[2,1,3]",stimuli/card_10_transparent.png,130,10,3,0,3,0,1,,,,,,,,,,,,,,,,,,,,,,,,,,,,,,,,,,,,,,,,,
,,,,5ddcd77f23f9f1c2c45d6c18,B,2024-08-16_17h14.04.688,Slot Machine Game,2023.1.3,Win32,60.24096386,,,,,,,,,,,,,,,,,,,275.8669,4,,,,1,"[2,1,3]",,,,4,0,4,0,1,,,,,,,,,,,,,,,,,,,,,,,,,,,,,,,,,,,,,,,,,
,,,,5ddcd77f23f9f1c2c45d6c18,B,2024-08-16_17h14.04.688,Slot Machine Game,2023.1.3,Win32,60.24096386,,,,,,,,,,,,,,,,,,,281.3796,5,,,,1.5,"[2,1,3]",,,,5,0,5,0,1,,,,,,,,,,,,,,,,,,,,,,,,,,,,,,,,,,,,,,,,,
,,,,5ddcd77f23f9f1c2c45d6c18,B,2024-08-16_17h14.04.688,Slot Machine Game,2023.1.3,Win32,60.24096386,,,,,,,,,,,,,,,,,,,286.8989,6,1.1032,288.031,left,1,"[2,1,3]",stimuli/card_10_transparent.png,140,10,6,0,6,0,1,,,,,,,,,,,,,,,,,,,,,,,,,,,,,,,,,,,,,,,,,
,,,,5ddcd77f23f9f1c2c45d6c18,B,2024-08-16_17h14.04.688,Slot Machine Game,2023.1.3,Win32,60.24096386,,,,,,,,,,,,,,,,,,,289.3307,7,1.9412,291.3014,right,1,"[2,1,3]",stimuli/card_0_transparent.png,140,0,7,0,7,0,1,,,,,,,,,,,,,,,,,,,,,,,,,,,,,,,,,,,,,,,,,
,,,,5ddcd77f23f9f1c2c45d6c18,B,2024-08-16_17h14.04.688,Slot Machine Game,2023.1.3,Win32,60.24096386,,,,,,,,,,,,,,,,,,,292.6008,8,2.7529,295.3899,right,1.5,"[2,1,3]",stimuli/card_0_transparent.png,140,0,8,0,8,0,1,,,,,,,,,,,,,,,,,,,,,,,,,,,,,,,,,,,,,,,,,
,,,,5ddcd77f23f9f1c2c45d6c18,B,2024-08-16_17h14.04.688,Slot Machine Game,2023.1.3,Win32,60.24096386,,,,,,,,,,,,,,,,,,,297.189,9,0.6507,297.8743,right,1.5,"[2,3,1]",stimuli/card_100_transparent.png,240,100,9,0,9,0,1,,,,,,,,,,,,,,,,,,,,,,,,,,,,,,,,,,,,,,,,,
,,,,5ddcd77f23f9f1c2c45d6c18,B,2024-08-16_17h14.04.688,Slot Machine Game,2023.1.3,Win32,60.24096386,,,,,,,,,,,,,,,,,,,299.6749,10,0.7005,300.4094,right,1,"[2,3,1]",stimuli/card_0_transparent.png,240,0,10,0,10,0,1,,,,,,,,,,,,,,,,,,,,,,,,,,,,,,,,,,,,,,,,,
,,,,5ddcd77f23f9f1c2c45d6c18,B,2024-08-16_17h14.04.688,Slot Machine Game,2023.1.3,Win32,60.24096386,,,,,,,,,,,,,,,,,,,301.7102,11,2.2854,304.0311,right,1,"[2,3,1]",stimuli/card_100_transparent.png,340,100,11,0,11,0,1,,,,,,,,,,,,,,,,,,,,,,,,,,,,,,,,,,,,,,,,,
,,,,5ddcd77f23f9f1c2c45d6c18,B,2024-08-16_17h14.04.688,Slot Machine Game,2023.1.3,Win32,60.24096386,,,,,,,,,,,,,,,,,,,305.3308,12,1.7562,307.1184,right,1,"[2,3,1]",stimuli/card_100_transparent.png,440,100,12,0,12,0,1,,,,,,,,,,,,,,,,,,,,,,,,,,,,,,,,,,,,,,,,,
,,,,5ddcd77f23f9f1c2c45d6c18,B,2024-08-16_17h14.04.688,Slot Machine Game,2023.1.3,Win32,60.24096386,,,,,,,,,,,,,,,,,,,308.417,13,0.7339,309.185,right,1.5,"[2,3,1]",stimuli/card_100_transparent.png,540,100,13,0,13,0,1,,,,,,,,,,,,,,,,,,,,,,,,,,,,,,,,,,,,,,,,,
,,,,5ddcd77f23f9f1c2c45d6c18,B,2024-08-16_17h14.04.688,Slot Machine Game,2023.1.3,Win32,60.24096386,,,,,,,,,,,,,,,,,,,310.9865,14,0.9852,312.0046,right,1.5,"[2,3,1]",stimuli/card_100_transparent.png,640,100,14,0,14,0,1,,,,,,,,,,,,,,,,,,,,,,,,,,,,,,,,,,,,,,,,,
,,,,5ddcd77f23f9f1c2c45d6c18,B,2024-08-16_17h14.04.688,Slot Machine Game,2023.1.3,Win32,60.24096386,,,,,,,,,,,,,,,,,"[6,15]","[[1,3,2],[3,1,2]]",318.8582,0,0.9541,319.8308,left,1,"[1,3,2]",stimuli/card_100_transparent.png,100,100,0,0,0,0,1,313.8309,,,,,,,,,,,,,,,,,,,,,,,,,,,,,,,,,,,,,,,,
,,,,5ddcd77f23f9f1c2c45d6c18,B,2024-08-16_17h14.04.688,Slot Machine Game,2023.1.3,Win32,60.24096386,,,,,,,,,,,,,,,,,,,321.1305,1,1.9571,323.1016,left,0.5,"[1,3,2]",stimuli/card_100_transparent.png,200,100,1,0,1,0,1,,,,,,,,,,,,,,,,,,,,,,,,,,,,,,,,,,,,,,,,,
,,,,5ddcd77f23f9f1c2c45d6c18,B,2024-08-16_17h14.04.688,Slot Machine Game,2023.1.3,Win32,60.24096386,,,,,,,,,,,,,,,,,,,323.9,2,1.1385,325.0694,left,0.5,"[1,3,2]",stimuli/card_100_transparent.png,300,100,2,0,2,0,1,,,,,,,,,,,,,,,,,,,,,,,,,,,,,,,,,,,,,,,,,
,,,,5ddcd77f23f9f1c2c45d6c18,B,2024-08-16_17h14.04.688,Slot Machine Game,2023.1.3,Win32,60.24096386,,,,,,,,,,,,,,,,,,,325.8685,3,0.8188,326.7212,left,1,"[1,3,2]",stimuli/card_100_transparent.png,400,100,3,0,3,0,1,,,,,,,,,,,,,,,,,,,,,,,,,,,,,,,,,,,,,,,,,
,,,,5ddcd77f23f9f1c2c45d6c18,B,2024-08-16_17h14.04.688,Slot Machine Game,2023.1.3,Win32,60.24096386,,,,,,,,,,,,,,,,,,,328.021,4,0.9061,328.9557,left,1.5,"[1,3,2]",stimuli/card_100_transparent.png,500,100,4,0,4,0,1,,,,,,,,,,,,,,,,,,,,,,,,,,,,,,,,,,,,,,,,,
,,,,5ddcd77f23f9f1c2c45d6c18,B,2024-08-16_17h14.04.688,Slot Machine Game,2023.1.3,Win32,60.24096386,,,,,,,,,,,,,,,,,,,330.7572,5,0.5832,331.3592,left,1.5,"[1,3,2]",stimuli/card_100_transparent.png,600,100,5,0,5,0,1,,,,,,,,,,,,,,,,,,,,,,,,,,,,,,,,,,,,,,,,,
,,,,5ddcd77f23f9f1c2c45d6c18,B,2024-08-16_17h14.04.688,Slot Machine Game,2023.1.3,Win32,60.24096386,,,,,,,,,,,,,,,,,,,333.1593,6,0.8841,334.0607,left,1,"[3,1,2]",stimuli/card_0_transparent.png,600,0,6,0,6,0,1,,,,,,,,,,,,,,,,,,,,,,,,,,,,,,,,,,,,,,,,,
,,,,5ddcd77f23f9f1c2c45d6c18,B,2024-08-16_17h14.04.688,Slot Machine Game,2023.1.3,Win32,60.24096386,,,,,,,,,,,,,,,,,,,335.3616,7,0.6843,336.0628,left,1,"[3,1,2]",stimuli/card_0_transparent.png,600,0,7,0,7,0,1,,,,,,,,,,,,,,,,,,,,,,,,,,,,,,,,,,,,,,,,,
,,,,5ddcd77f23f9f1c2c45d6c18,B,2024-08-16_17h14.04.688,Slot Machine Game,2023.1.3,Win32,60.24096386,,,,,,,,,,,,,,,,,,,337.3639,8,4.4268,341.8045,up,1.5,"[3,1,2]",stimuli/card_100_transparent.png,700,100,8,0,8,0,1,,,,,,,,,,,,,,,,,,,,,,,,,,,,,,,,,,,,,,,,,
,,,,5ddcd77f23f9f1c2c45d6c18,B,2024-08-16_17h14.04.688,Slot Machine Game,2023.1.3,Win32,60.24096386,,,,,,,,,,,,,,,,,,,343.6037,9,0.5174,344.1379,up,0.5,"[3,1,2]",stimuli/card_100_transparent.png,800,100,9,0,9,0,1,,,,,,,,,,,,,,,,,,,,,,,,,,,,,,,,,,,,,,,,,
,,,,5ddcd77f23f9f1c2c45d6c18,B,2024-08-16_17h14.04.688,Slot Machine Game,2023.1.3,Win32,60.24096386,,,,,,,,,,,,,,,,,,,344.9384,10,0.6526,345.6227,up,1.5,"[3,1,2]",stimuli/card_100_transparent.png,900,100,10,0,10,0,1,,,,,,,,,,,,,,,,,,,,,,,,,,,,,,,,,,,,,,,,,
,,,,5ddcd77f23f9f1c2c45d6c18,B,2024-08-16_17h14.04.688,Slot Machine Game,2023.1.3,Win32,60.24096386,,,,,,,,,,,,,,,,,,,347.4244,11,0.5866,348.0417,up,1,"[3,1,2]",stimuli/card_100_transparent.png,1000,100,11,0,11,0,1,,,,,,,,,,,,,,,,,,,,,,,,,,,,,,,,,,,,,,,,,
,,,,5ddcd77f23f9f1c2c45d6c18,B,2024-08-16_17h14.04.688,Slot Machine Game,2023.1.3,Win32,60.24096386,,,,,,,,,,,,,,,,,,,349.3427,12,0.9356,350.2955,up,1,"[3,1,2]",stimuli/card_100_transparent.png,1100,100,12,0,12,0,1,,,,,,,,,,,,,,,,,,,,,,,,,,,,,,,,,,,,,,,,,
,,,,5ddcd77f23f9f1c2c45d6c18,B,2024-08-16_17h14.04.688,Slot Machine Game,2023.1.3,Win32,60.24096386,,,,,,,,,,,,,,,,,,,351.595,13,0.6675,352.2962,up,1,"[3,1,2]",stimuli/card_100_transparent.png,1200,100,13,0,13,0,1,,,,,,,,,,,,,,,,,,,,,,,,,,,,,,,,,,,,,,,,,
,,,,5ddcd77f23f9f1c2c45d6c18,B,2024-08-16_17h14.04.688,Slot Machine Game,2023.1.3,Win32,60.24096386,,,,,,,,,,,,,,,,,,,353.5974,14,0.6691,354.2996,up,0.5,"[3,1,2]",stimuli/card_0_transparent.png,1200,0,14,0,14,0,1,,,,,,,,,,,,,,,,,,,,,,,,,,,,,,,,,,,,,,,,,
,,,,5ddcd77f23f9f1c2c45d6c18,B,2024-08-16_17h14.04.688,Slot Machine Game,2023.1.3,Win32,60.24096386,,,,,,,,,,,,,,,,,,,,,,,,,,,,,,,,,,355.0989,360.0899,space,4.5373,,,,,,,,,,,,,,,,,,,,,,,,,,,,,,,,,,,,,
,,,,5ddcd77f23f9f1c2c45d6c18,B,2024-08-16_17h14.04.688,Slot Machine Game,2023.1.3,Win32,60.24096386,,,,,,,,,,,,,,,,,,,,,,,,,,,,,,,,,,,,,,,364.6549,3,"[0,4,6,3,5,7,8,1,9,2]",space,4.4448,,,,,,,,,,,,,,,,,,,,,,,,,,,,,,,
,,,,5ddcd77f23f9f1c2c45d6c18,B,2024-08-16_17h14.04.688,Slot Machine Game,2023.1.3,Win32,60.24096386,,,,,,,,,,,,,,,,,,,,,,,,,,,100,,,,,,,,,,,,,,,,,,1,1,"[12,15]","[[2,1,3],[2,3,1]]",369.1653,0,up,0.5388,369.7243,1.5,0.3,"[2,1,3]",0.618748116,stimuli/card_100_transparent.png,100,0,0,0,0,1,,,,,,,,,,
,,,,5ddcd77f23f9f1c2c45d6c18,B,2024-08-16_17h14.04.688,Slot Machine Game,2023.1.3,Win32,60.24096386,,,,,,,,,,,,,,,,,,,,,,,,,,,110,,,,,,,,,,,,,,,,,,1,1,,,371.5164,1,up,1.8215,373.3699,1.5,0.3,"[2,1,3]",0.11576812,stimuli/card_10_transparent.png,10,1,0,1,0,1,,,,,,,,,,
,,,,5ddcd77f23f9f1c2c45d6c18,B,2024-08-16_17h14.04.688,Slot Machine Game,2023.1.3,Win32,60.24096386,,,,,,,,,,,,,,,,,,,,,,,,,,,210,,,,,,,,,,,,,,,,,,1,1,,,375.1694,2,up,1.3041,376.4893,1.5,0.3,"[2,1,3]",0.873961553,stimuli/card_100_transparent.png,100,2,0,2,0,1,,,,,,,,,,
,,,,5ddcd77f23f9f1c2c45d6c18,B,2024-08-16_17h14.04.688,Slot Machine Game,2023.1.3,Win32,60.24096386,,,,,,,,,,,,,,,,,,,,,,,,,,,210,,,,,,,,,,,,,,,,,,1,1,,,378.2894,3,up,0.8556,379.1751,1.5,0.3,"[2,1,3]",0.039789097,stimuli/card_0_transparent.png,0,3,0,3,0,1,,,,,,,,,,
,,,,5ddcd77f23f9f1c2c45d6c18,B,2024-08-16_17h14.04.688,Slot Machine Game,2023.1.3,Win32,60.24096386,,,,,,,,,,,,,,,,,,,,,,,,,,,310,,,,,,,,,,,,,,,,,,1,1,,,380.9755,4,up,0.986,381.9946,0.5,0.3,"[2,1,3]",0.737727948,stimuli/card_100_transparent.png,100,4,0,4,0,1,,,,,,,,,,
,,,,5ddcd77f23f9f1c2c45d6c18,B,2024-08-16_17h14.04.688,Slot Machine Game,2023.1.3,Win32,60.24096386,,,,,,,,,,,,,,,,,,,,,,,,,,,410,,,,,,,,,,,,,,,,,,1,1,,,382.794,5,up,0.9529,383.78,0.5,0.3,"[2,1,3]",0.301074833,stimuli/card_100_transparent.png,100,5,0,5,0,1,,,,,,,,,,
,,,,5ddcd77f23f9f1c2c45d6c18,B,2024-08-16_17h14.04.688,Slot Machine Game,2023.1.3,Win32,60.24096386,,,,,,,,,,,,,,,,,,,,,,,,,,,510,,,,,,,,,,,,,,,,,,1,1,,,384.579,6,up,0.8522,385.4484,1,0.3,"[2,1,3]",0.763259538,stimuli/card_100_transparent.png,100,6,0,6,0,1,,,,,,,,,,
,,,,5ddcd77f23f9f1c2c45d6c18,B,2024-08-16_17h14.04.688,Slot Machine Game,2023.1.3,Win32,60.24096386,,,,,,,,,,,,,,,,,,,,,,,,,,,610,,,,,,,,,,,,,,,,,,1,1,,,386.7479,7,up,0.591,387.3507,1,0.3,"[2,1,3]",0.712735902,stimuli/card_100_transparent.png,100,7,0,7,0,1,,,,,,,,,,
,,,,5ddcd77f23f9f1c2c45d6c18,B,2024-08-16_17h14.04.688,Slot Machine Game,2023.1.3,Win32,60.24096386,,,,,,,,,,,,,,,,,,,,,,,,,,,710,,,,,,,,,,,,,,,,,,1,1,,,388.6499,8,up,0.5854,389.2523,0.5,0.3,"[2,1,3]",0.731746459,stimuli/card_100_transparent.png,100,8,0,8,0,1,,,,,,,,,,
,,,,5ddcd77f23f9f1c2c45d6c18,B,2024-08-16_17h14.04.688,Slot Machine Game,2023.1.3,Win32,60.24096386,,,,,,,,,,,,,,,,,,,,,,,,,,,810,,,,,,,,,,,,,,,,,,1,1,,,390.0514,9,up,1.1357,391.2041,1,0.3,"[2,1,3]",0.370273174,stimuli/card_100_transparent.png,100,9,0,9,0,1,,,,,,,,,,
,,,,5ddcd77f23f9f1c2c45d6c18,B,2024-08-16_17h14.04.688,Slot Machine Game,2023.1.3,Win32,60.24096386,,,,,,,,,,,,,,,,,,,,,,,,,,,910,,,,,,,,,,,,,,,,,,1,1,,,392.5039,10,up,0.5689,393.1063,1,0.3,"[2,1,3]",0.542976696,stimuli/card_100_transparent.png,100,10,0,10,0,1,,,,,,,,,,
,,,,5ddcd77f23f9f1c2c45d6c18,B,2024-08-16_17h14.04.688,Slot Machine Game,2023.1.3,Win32,60.24096386,,,,,,,,,,,,,,,,,,,,,,,,,,,1010,,,,,,,,,,,,,,,,,,1,1,,,394.4061,11,up,0.6044,395.0414,0.5,0.3,"[2,1,3]",0.383058158,stimuli/card_100_transparent.png,100,11,0,11,0,1,,,,,,,,,,
,,,,5ddcd77f23f9f1c2c45d6c18,B,2024-08-16_17h14.04.688,Slot Machine Game,2023.1.3,Win32,60.24096386,,,,,,,,,,,,,,,,,,,,,,,,,,,1010,,,,,,,,,,,,,,,,,,1,1,,,395.8407,12,up,0.9863,396.8436,1.5,0.3,"[2,3,1]",0.441056233,stimuli/card_0_transparent.png,0,12,0,12,0,1,,,,,,,,,,
,,,,5ddcd77f23f9f1c2c45d6c18,B,2024-08-16_17h14.04.688,Slot Machine Game,2023.1.3,Win32,60.24096386,,,,,,,,,,,,,,,,,,,,,,,,,,,1010,,,,,,,,,,,,,,,,,,1,1,,,398.6436,13,up,0.7191,399.396,0.5,0.3,"[2,3,1]",0.322706821,stimuli/card_0_transparent.png,0,13,0,13,0,1,,,,,,,,,,
,,,,5ddcd77f23f9f1c2c45d6c18,B,2024-08-16_17h14.04.688,Slot Machine Game,2023.1.3,Win32,60.24096386,,,,,,,,,,,,,,,,,,,,,,,,,,,1010,,,,,,,,,,,,,,,,,,1,1,,,400.1952,14,up,0.776,400.9989,0.5,0.3,"[2,3,1]",0.572818459,stimuli/card_0_transparent.png,0,14,0,14,0,1,,,,,,,,,,
,,,,5ddcd77f23f9f1c2c45d6c18,B,2024-08-16_17h14.04.688,Slot Machine Game,2023.1.3,Win32,60.24096386,,,,,,,,,,,,,,,,,,,,,,,,,,,,,,,,,,401.7972,,,,,,,,,,,,,,,,,,,,,,,,,,,,,,,[1010],0,0,0,0,1,,,,
,,,,5ddcd77f23f9f1c2c45d6c18,B,2024-08-16_17h14.04.688,Slot Machine Game,2023.1.3,Win32,60.24096386,,,,,,,,,,,,,,,,,,,,,,,,,,,0,,,,,,,,,,,,,,,,,,2,5,"[5,15]","[[1,2,3],[3,1,2]]",406.8145,0,left,0.7182,407.5623,1.5,0.3,"[1,2,3]",0.047422703,stimuli/card_0_transparent.png,0,0,0,0,0,1,,,,,,,,,,
,,,,5ddcd77f23f9f1c2c45d6c18,B,2024-08-16_17h14.04.688,Slot Machine Game,2023.1.3,Win32,60.24096386,,,,,,,,,,,,,,,,,,,,,,,,,,,10,,,,,,,,,,,,,,,,,,2,5,,,409.355,1,left,1.3037,410.6911,0.5,0.3,"[1,2,3]",0.167035985,stimuli/card_10_transparent.png,10,1,0,1,0,1,,,,,,,,,,
,,,,5ddcd77f23f9f1c2c45d6c18,B,2024-08-16_17h14.04.688,Slot Machine Game,2023.1.3,Win32,60.24096386,,,,,,,,,,,,,,,,,,,,,,,,,,,110,,,,,,,,,,,,,,,,,,2,5,,,411.4907,2,left,0.568,412.0914,1.5,0.3,"[1,2,3]",0.375929556,stimuli/card_100_transparent.png,100,2,0,2,0,1,,,,,,,,,,
,,,,5ddcd77f23f9f1c2c45d6c18,B,2024-08-16_17h14.04.688,Slot Machine Game,2023.1.3,Win32,60.24096386,,,,,,,,,,,,,,,,,,,,,,,,,,,210,,,,,,,,,,,,,,,,,,2,5,,,413.8926,3,left,0.6539,414.5784,1,0.3,"[1,2,3]",0.861189455,stimuli/card_100_transparent.png,100,3,0,3,0,1,,,,,,,,,,
,,,,5ddcd77f23f9f1c2c45d6c18,B,2024-08-16_17h14.04.688,Slot Machine Game,2023.1.3,Win32,60.24096386,,,,,,,,,,,,,,,,,,,,,,,,,,,310,,,,,,,,,,,,,,,,,,2,5,,,415.8781,4,left,0.5513,416.4481,1,0.3,"[1,2,3]",0.79563788,stimuli/card_100_transparent.png,100,4,0,4,0,1,,,,,,,,,,
,,,,5ddcd77f23f9f1c2c45d6c18,B,2024-08-16_17h14.04.688,Slot Machine Game,2023.1.3,Win32,60.24096386,,,,,,,,,,,,,,,,,,,,,,,,,,,310,,,,,,,,,,,,,,,,,,2,5,,,417.7468,5,left,0.9529,418.7328,1.5,0.3,"[3,1,2]",0.908044576,stimuli/card_0_transparent.png,0,5,0,5,0,1,,,,,,,,,,
,,,,5ddcd77f23f9f1c2c45d6c18,B,2024-08-16_17h14.04.688,Slot Machine Game,2023.1.3,Win32,60.24096386,,,,,,,,,,,,,,,,,,,,,,,,,,,310,,,,,,,,,,,,,,,,,,2,5,,,420.5331,6,left,0.5754,421.1201,0.5,0.3,"[3,1,2]",0.542000787,stimuli/card_0_transparent.png,0,6,0,6,0,1,,,,,,,,,,
,,,,5ddcd77f23f9f1c2c45d6c18,B,2024-08-16_17h14.04.688,Slot Machine Game,2023.1.3,Win32,60.24096386,,,,,,,,,,,,,,,,,,,,,,,,,,,310,,,,,,,,,,,,,,,,,,2,5,,,421.9178,7,left,0.773,422.7202,1,0.3,"[3,1,2]",0.693792394,stimuli/card_0_transparent.png,0,7,0,7,0,1,,,,,,,,,,
,,,,5ddcd77f23f9f1c2c45d6c18,B,2024-08-16_17h14.04.688,Slot Machine Game,2023.1.3,Win32,60.24096386,,,,,,,,,,,,,,,,,,,,,,,,,,,410,,,,,,,,,,,,,,,,,,2,5,,,424.02,8,up,0.8059,424.8559,1,0.3,"[3,1,2]",0.29022938,stimuli/card_100_transparent.png,100,8,0,8,0,1,,,,,,,,,,
,,,,5ddcd77f23f9f1c2c45d6c18,B,2024-08-16_17h14.04.688,Slot Machine Game,2023.1.3,Win32,60.24096386,,,,,,,,,,,,,,,,,,,,,,,,,,,510,,,,,,,,,,,,,,,,,,2,5,,,426.1464,9,up,0.7358,426.9149,1.5,0.3,"[3,1,2]",0.999804306,stimuli/card_100_transparent.png,100,9,0,9,0,1,,,,,,,,,,
,,,,5ddcd77f23f9f1c2c45d6c18,B,2024-08-16_17h14.04.688,Slot Machine Game,2023.1.3,Win32,60.24096386,,,,,,,,,,,,,,,,,,,,,,,,,,,610,,,,,,,,,,,,,,,,,,2,5,,,428.7166,10,up,0.5522,429.2938,1,0.3,"[3,1,2]",0.460838673,stimuli/card_100_transparent.png,100,10,0,10,0,1,,,,,,,,,,
,,,,5ddcd77f23f9f1c2c45d6c18,B,2024-08-16_17h14.04.688,Slot Machine Game,2023.1.3,Win32,60.24096386,,,,,,,,,,,,,,,,,,,,,,,,,,,710,,,,,,,,,,,,,,,,,,2,5,,,430.5934,11,up,0.803,431.429,1,0.3,"[3,1,2]",0.792660969,stimuli/card_100_transparent.png,100,11,0,11,0,1,,,,,,,,,,
,,,,5ddcd77f23f9f1c2c45d6c18,B,2024-08-16_17h14.04.688,Slot Machine Game,2023.1.3,Win32,60.24096386,,,,,,,,,,,,,,,,,,,,,,,,,,,810,,,,,,,,,,,,,,,,,,2,5,,,432.7287,12,up,0.6762,433.4159,0.5,0.3,"[3,1,2]",0.363990511,stimuli/card_100_transparent.png,100,12,0,12,0,1,,,,,,,,,,
,,,,5ddcd77f23f9f1c2c45d6c18,B,2024-08-16_17h14.04.688,Slot Machine Game,2023.1.3,Win32,60.24096386,,,,,,,,,,,,,,,,,,,,,,,,,,,910,,,,,,,,,,,,,,,,,,2,5,,,434.2138,13,up,0.6697,434.9162,1,0.3,"[3,1,2]",0.83740759,stimuli/card_100_transparent.png,100,13,0,13,0,1,,,,,,,,,,
,,,,5ddcd77f23f9f1c2c45d6c18,B,2024-08-16_17h14.04.688,Slot Machine Game,2023.1.3,Win32,60.24096386,,,,,,,,,,,,,,,,,,,,,,,,,,,920,,,,,,,,,,,,,,,,,,2,5,,,436.2158,14,up,0.7552,437.0017,0.5,0.3,"[3,1,2]",0.16351686,stimuli/card_10_transparent.png,10,14,0,14,0,1,,,,,,,,,,
,,,,5ddcd77f23f9f1c2c45d6c18,B,2024-08-16_17h14.04.688,Slot Machine Game,2023.1.3,Win32,60.24096386,,,,,,,,,,,,,,,,,,,,,,,,,,,,,,,,,,437.8009,,,,,,,,,,,,,,,,,,,,,,,,,,,,,,,"[1010,920]",1,0,1,0,1,,,,
,,,,5ddcd77f23f9f1c2c45d6c18,B,2024-08-16_17h14.04.688,Slot Machine Game,2023.1.3,Win32,60.24096386,,,,,,,,,,,,,,,,,,,,,,,,,,,10,,,,,,,,,,,,,,,,,,3,7,"[9,15]","[[1,3,2],[2,3,1]]",442.8169,0,right,1.7541,444.603,1,0.3,"[1,3,2]",0.384312854,stimuli/card_10_transparent.png,10,0,0,0,0,1,,,,,,,,,,
,,,,5ddcd77f23f9f1c2c45d6c18,B,2024-08-16_17h14.04.688,Slot Machine Game,2023.1.3,Win32,60.24096386,,,,,,,,,,,,,,,,,,,,,,,,,,,20,,,,,,,,,,,,,,,,,,3,7,,,445.8924,1,right,0.7763,446.6968,0.5,0.3,"[1,3,2]",0.834096186,stimuli/card_10_transparent.png,10,1,0,1,0,1,,,,,,,,,,
,,,,5ddcd77f23f9f1c2c45d6c18,B,2024-08-16_17h14.04.688,Slot Machine Game,2023.1.3,Win32,60.24096386,,,,,,,,,,,,,,,,,,,,,,,,,,,30,,,,,,,,,,,,,,,,,,3,7,,,447.4943,2,right,0.5852,448.1119,1,0.3,"[1,3,2]",0.592956929,stimuli/card_10_transparent.png,10,2,0,2,0,1,,,,,,,,,,
,,,,5ddcd77f23f9f1c2c45d6c18,B,2024-08-16_17h14.04.688,Slot Machine Game,2023.1.3,Win32,60.24096386,,,,,,,,,,,,,,,,,,,,,,,,,,,130,,,,,,,,,,,,,,,,,,3,7,,,449.4127,3,left,0.5033,449.9314,1,0.3,"[1,3,2]",0.326387565,stimuli/card_100_transparent.png,100,3,0,3,0,1,,,,,,,,,,
,,,,5ddcd77f23f9f1c2c45d6c18,B,2024-08-16_17h14.04.688,Slot Machine Game,2023.1.3,Win32,60.24096386,,,,,,,,,,,,,,,,,,,,,,,,,,,230,,,,,,,,,,,,,,,,,,3,7,,,451.2312,4,left,0.9183,452.1672,1.5,0.3,"[1,3,2]",0.872755488,stimuli/card_100_transparent.png,100,4,0,4,0,1,,,,,,,,,,
,,,,5ddcd77f23f9f1c2c45d6c18,B,2024-08-16_17h14.04.688,Slot Machine Game,2023.1.3,Win32,60.24096386,,,,,,,,,,,,,,,,,,,,,,,,,,,330,,,,,,,,,,,,,,,,,,3,7,,,453.9675,5,left,0.9413,454.9373,1,0.3,"[1,3,2]",0.449989466,stimuli/card_100_transparent.png,100,5,0,5,0,1,,,,,,,,,,
,,,,5ddcd77f23f9f1c2c45d6c18,B,2024-08-16_17h14.04.688,Slot Machine Game,2023.1.3,Win32,60.24096386,,,,,,,,,,,,,,,,,,,,,,,,,,,330,,,,,,,,,,,,,,,,,,3,7,,,456.2364,6,left,0.9353,457.2045,1.5,0.3,"[1,3,2]",0.031722994,stimuli/card_0_transparent.png,0,6,0,6,0,1,,,,,,,,,,
,,,,5ddcd77f23f9f1c2c45d6c18,B,2024-08-16_17h14.04.688,Slot Machine Game,2023.1.3,Win32,60.24096386,,,,,,,,,,,,,,,,,,,,,,,,,,,330,,,,,,,,,,,,,,,,,,3,7,,,459.0063,7,left,0.9349,459.9754,1.5,0.3,"[1,3,2]",0.037744755,stimuli/card_0_transparent.png,0,7,0,7,0,1,,,,,,,,,,
,,,,5ddcd77f23f9f1c2c45d6c18,B,2024-08-16_17h14.04.688,Slot Machine Game,2023.1.3,Win32,60.24096386,,,,,,,,,,,,,,,,,,,,,,,,,,,430,,,,,,,,,,,,,,,,,,3,7,,,461.7755,8,left,0.7252,462.5291,0.5,0.3,"[1,3,2]",0.572199784,stimuli/card_100_transparent.png,100,8,0,8,0,1,,,,,,,,,,
,,,,5ddcd77f23f9f1c2c45d6c18,B,2024-08-16_17h14.04.688,Slot Machine Game,2023.1.3,Win32,60.24096386,,,,,,,,,,,,,,,,,,,,,,,,,,,430,,,,,,,,,,,,,,,,,,3,7,,,463.3272,9,left,0.884,464.2283,0.5,0.3,"[2,3,1]",0.004647236,stimuli/card_0_transparent.png,0,9,0,9,0,1,,,,,,,,,,
,,,,5ddcd77f23f9f1c2c45d6c18,B,2024-08-16_17h14.04.688,Slot Machine Game,2023.1.3,Win32,60.24096386,,,,,,,,,,,,,,,,,,,,,,,,,,,440,,,,,,,,,,,,,,,,,,3,7,,,465.0288,10,left,0.7708,465.8315,1.5,0.3,"[2,3,1]",0.978054662,stimuli/card_10_transparent.png,10,10,0,10,0,1,,,,,,,,,,
,,,,5ddcd77f23f9f1c2c45d6c18,B,2024-08-16_17h14.04.688,Slot Machine Game,2023.1.3,Win32,60.24096386,,,,,,,,,,,,,,,,,,,,,,,,,,,450,,,,,,,,,,,,,,,,,,3,7,,,467.6223,11,left,0.8639,468.5198,1.5,0.3,"[2,3,1]",0.554825269,stimuli/card_10_transparent.png,10,11,0,11,0,1,,,,,,,,,,
,,,,5ddcd77f23f9f1c2c45d6c18,B,2024-08-16_17h14.04.688,Slot Machine Game,2023.1.3,Win32,60.24096386,,,,,,,,,,,,,,,,,,,,,,,,,,,450,,,,,,,,,,,,,,,,,,3,7,,,470.3208,12,up,0.5517,470.8952,1.5,0.3,"[2,3,1]",0.887950734,stimuli/card_0_transparent.png,0,12,0,12,0,1,,,,,,,,,,
,,,,5ddcd77f23f9f1c2c45d6c18,B,2024-08-16_17h14.04.688,Slot Machine Game,2023.1.3,Win32,60.24096386,,,,,,,,,,,,,,,,,,,,,,,,,,,460,,,,,,,,,,,,,,,,,,3,7,,,472.688,13,up,0.719,473.4232,0.5,0.3,"[2,3,1]",0.149687167,stimuli/card_10_transparent.png,10,13,0,13,0,1,,,,,,,,,,
,,,,5ddcd77f23f9f1c2c45d6c18,B,2024-08-16_17h14.04.688,Slot Machine Game,2023.1.3,Win32,60.24096386,,,,,,,,,,,,,,,,,,,,,,,,,,,460,,,,,,,,,,,,,,,,,,3,7,,,474.2247,14,up,0.5194,474.7753,1,0.3,"[2,3,1]",0.794296319,stimuli/card_0_transparent.png,0,14,0,14,0,1,,,,,,,,,,
,,,,5ddcd77f23f9f1c2c45d6c18,B,2024-08-16_17h14.04.688,Slot Machine Game,2023.1.3,Win32,60.24096386,,,,,,,,,,,,,,,,,,,,,,,,,,,,,,,,,,476.0752,,,,,,,,,,,,,,,,,,,,,,,,,,,,,,,"[1010,920,460]",2,0,2,0,1,,,,
,,,,5ddcd77f23f9f1c2c45d6c18,B,2024-08-16_17h14.04.688,Slot Machine Game,2023.1.3,Win32,60.24096386,,,,,,,,,,,,,,,,,,,,,,,,,,,10,,,,,,,,,,,,,,,,,,4,4,"[7,15]","[[2,3,1],[1,2,3]]",481.0921,0,left,0.6184,481.7324,0.5,0.3,"[2,3,1]",0.874373456,stimuli/card_10_transparent.png,10,0,0,0,0,1,,,,,,,,,,
,,,,5ddcd77f23f9f1c2c45d6c18,B,2024-08-16_17h14.04.688,Slot Machine Game,2023.1.3,Win32,60.24096386,,,,,,,,,,,,,,,,,,,,,,,,,,,20,,,,,,,,,,,,,,,,,,4,4,,,482.5318,1,left,0.6283,483.1689,1.5,0.3,"[2,3,1]",0.924859034,stimuli/card_10_transparent.png,10,1,0,1,0,1,,,,,,,,,,
,,,,5ddcd77f23f9f1c2c45d6c18,B,2024-08-16_17h14.04.688,Slot Machine Game,2023.1.3,Win32,60.24096386,,,,,,,,,,,,,,,,,,,,,,,,,,,30,,,,,,,,,,,,,,,,,,4,4,,,484.9664,2,left,0.5528,485.5359,1.5,0.3,"[2,3,1]",0.935218301,stimuli/card_10_transparent.png,10,2,0,2,0,1,,,,,,,,,,
,,,,5ddcd77f23f9f1c2c45d6c18,B,2024-08-16_17h14.04.688,Slot Machine Game,2023.1.3,Win32,60.24096386,,,,,,,,,,,,,,,,,,,,,,,,,,,30,,,,,,,,,,,,,,,,,,4,4,,,487.3364,3,up,0.7117,488.0574,1.5,0.3,"[2,3,1]",0.520862641,stimuli/card_0_transparent.png,0,3,0,3,0,1,,,,,,,,,,
,,,,5ddcd77f23f9f1c2c45d6c18,B,2024-08-16_17h14.04.688,Slot Machine Game,2023.1.3,Win32,60.24096386,,,,,,,,,,,,,,,,,,,,,,,,,,,130,,,,,,,,,,,,,,,,,,4,4,,,489.8557,4,up,0.6553,490.5245,0.5,0.3,"[2,3,1]",0.031065181,stimuli/card_100_transparent.png,100,4,0,4,0,1,,,,,,,,,,
,,,,5ddcd77f23f9f1c2c45d6c18,B,2024-08-16_17h14.04.688,Slot Machine Game,2023.1.3,Win32,60.24096386,,,,,,,,,,,,,,,,,,,,,,,,,,,130,,,,,,,,,,,,,,,,,,4,4,,,491.3244,5,up,0.5229,491.8595,1.5,0.3,"[2,3,1]",0.866049074,stimuli/card_0_transparent.png,0,5,0,5,0,1,,,,,,,,,,
,,,,5ddcd77f23f9f1c2c45d6c18,B,2024-08-16_17h14.04.688,Slot Machine Game,2023.1.3,Win32,60.24096386,,,,,,,,,,,,,,,,,,,,,,,,,,,130,,,,,,,,,,,,,,,,,,4,4,,,493.6601,6,up,0.8849,494.5616,1,0.3,"[2,3,1]",0.319241893,stimuli/card_0_transparent.png,0,6,0,6,0,1,,,,,,,,,,
,,,,5ddcd77f23f9f1c2c45d6c18,B,2024-08-16_17h14.04.688,Slot Machine Game,2023.1.3,Win32,60.24096386,,,,,,,,,,,,,,,,,,,,,,,,,,,130,,,,,,,,,,,,,,,,,,4,4,,,495.8619,7,right,0.5856,496.4638,0.5,0.3,"[1,2,3]",0.690609204,stimuli/card_0_transparent.png,0,7,0,7,0,1,,,,,,,,,,
,,,,5ddcd77f23f9f1c2c45d6c18,B,2024-08-16_17h14.04.688,Slot Machine Game,2023.1.3,Win32,60.24096386,,,,,,,,,,,,,,,,,,,,,,,,,,,130,,,,,,,,,,,,,,,,,,4,4,,,497.2634,8,right,0.7525,498.032,1,0.3,"[1,2,3]",0.829317086,stimuli/card_0_transparent.png,0,8,0,8,0,1,,,,,,,,,,
,,,,5ddcd77f23f9f1c2c45d6c18,B,2024-08-16_17h14.04.688,Slot Machine Game,2023.1.3,Win32,60.24096386,,,,,,,,,,,,,,,,,,,,,,,,,,,130,,,,,,,,,,,,,,,,,,4,4,,,499.3326,9,right,0.8609,500.2194,1.5,0.3,"[1,2,3]",0.965100285,stimuli/card_0_transparent.png,0,9,0,9,0,1,,,,,,,,,,
,,,,5ddcd77f23f9f1c2c45d6c18,B,2024-08-16_17h14.04.688,Slot Machine Game,2023.1.3,Win32,60.24096386,,,,,,,,,,,,,,,,,,,,,,,,,,,230,,,,,,,,,,,,,,,,,,4,4,,,502.0189,10,up,0.8353,502.8874,0.5,0.3,"[1,2,3]",0.148980559,stimuli/card_100_transparent.png,100,10,0,10,0,1,,,,,,,,,,
,,,,5ddcd77f23f9f1c2c45d6c18,B,2024-08-16_17h14.04.688,Slot Machine Game,2023.1.3,Win32,60.24096386,,,,,,,,,,,,,,,,,,,,,,,,,,,240,,,,,,,,,,,,,,,,,,4,4,,,503.6873,11,up,0.8686,504.5886,1,0.3,"[1,2,3]",0.366207132,stimuli/card_10_transparent.png,10,11,0,11,0,1,,,,,,,,,,
,,,,5ddcd77f23f9f1c2c45d6c18,B,2024-08-16_17h14.04.688,Slot Machine Game,2023.1.3,Win32,60.24096386,,,,,,,,,,,,,,,,,,,,,,,,,,,250,,,,,,,,,,,,,,,,,,4,4,,,505.8894,12,up,0.7344,506.6588,1,0.3,"[1,2,3]",0.735714852,stimuli/card_10_transparent.png,10,12,0,12,0,1,,,,,,,,,,
,,,,5ddcd77f23f9f1c2c45d6c18,B,2024-08-16_17h14.04.688,Slot Machine Game,2023.1.3,Win32,60.24096386,,,,,,,,,,,,,,,,,,,,,,,,,,,260,,,,,,,,,,,,,,,,,,4,4,,,507.9587,13,up,0.5516,508.5433,0.5,0.3,"[1,2,3]",0.401114415,stimuli/card_10_transparent.png,10,13,0,13,0,1,,,,,,,,,,
,,,,5ddcd77f23f9f1c2c45d6c18,B,2024-08-16_17h14.04.688,Slot Machine Game,2023.1.3,Win32,60.24096386,,,,,,,,,,,,,,,,,,,,,,,,,,,360,,,,,,,,,,,,,,,,,,4,4,,,509.3434,14,left,0.7366,510.1112,0.5,0.3,"[1,2,3]",0.330608848,stimuli/card_100_transparent.png,100,14,0,14,0,1,,,,,,,,,,
,,,,5ddcd77f23f9f1c2c45d6c18,B,2024-08-16_17h14.04.688,Slot Machine Game,2023.1.3,Win32,60.24096386,,,,,,,,,,,,,,,,,,,,,,,,,,,,,,,,,,510.9113,,,,,,,,,,,,,,,,,,,,,,,,,,,,,,,"[1010,920,460,360]",3,0,3,0,1,,,,
,,,,5ddcd77f23f9f1c2c45d6c18,B,2024-08-16_17h14.04.688,Slot Machine Game,2023.1.3,Win32,60.24096386,,,,,,,,,,,,,,,,,,,,,,,,,,,10,,,,,,,,,,,,,,,,,,5,6,"[4,10,15]","[[2,3,1],[1,3,2],[3,2,1]]",515.9441,0,left,0.6774,516.6362,1,0.3,"[2,3,1]",0.925652408,stimuli/card_10_transparent.png,10,0,0,0,0,1,,,,,,,,,,
,,,,5ddcd77f23f9f1c2c45d6c18,B,2024-08-16_17h14.04.688,Slot Machine Game,2023.1.3,Win32,60.24096386,,,,,,,,,,,,,,,,,,,,,,,,,,,20,,,,,,,,,,,,,,,,,,5,6,,,517.9335,1,left,0.5694,518.5201,1.5,0.3,"[2,3,1]",0.984911427,stimuli/card_10_transparent.png,10,1,0,1,0,1,,,,,,,,,,
,,,,5ddcd77f23f9f1c2c45d6c18,B,2024-08-16_17h14.04.688,Slot Machine Game,2023.1.3,Win32,60.24096386,,,,,,,,,,,,,,,,,,,,,,,,,,,30,,,,,,,,,,,,,,,,,,5,6,,,520.3228,2,left,0.7193,521.073,1.5,0.3,"[2,3,1]",0.569375592,stimuli/card_10_transparent.png,10,2,0,2,0,1,,,,,,,,,,
,,,,5ddcd77f23f9f1c2c45d6c18,B,2024-08-16_17h14.04.688,Slot Machine Game,2023.1.3,Win32,60.24096386,,,,,,,,,,,,,,,,,,,,,,,,,,,30,,,,,,,,,,,,,,,,,,5,6,,,522.8735,3,up,0.7274,523.6269,1,0.3,"[2,3,1]",0.534375244,stimuli/card_0_transparent.png,0,3,0,3,0,1,,,,,,,,,,
,,,,5ddcd77f23f9f1c2c45d6c18,B,2024-08-16_17h14.04.688,Slot Machine Game,2023.1.3,Win32,60.24096386,,,,,,,,,,,,,,,,,,,,,,,,,,,30,,,,,,,,,,,,,,,,,,5,6,,,524.9255,4,up,0.5512,525.4936,0.5,0.3,"[1,3,2]",0.543689875,stimuli/card_0_transparent.png,0,4,0,4,0,1,,,,,,,,,,
,,,,5ddcd77f23f9f1c2c45d6c18,B,2024-08-16_17h14.04.688,Slot Machine Game,2023.1.3,Win32,60.24096386,,,,,,,,,,,,,,,,,,,,,,,,,,,30,,,,,,,,,,,,,,,,,,5,6,,,526.2939,5,up,0.8843,527.1954,1.5,0.3,"[1,3,2]",0.809046101,stimuli/card_0_transparent.png,0,5,0,5,0,1,,,,,,,,,,
,,,,5ddcd77f23f9f1c2c45d6c18,B,2024-08-16_17h14.04.688,Slot Machine Game,2023.1.3,Win32,60.24096386,,,,,,,,,,,,,,,,,,,,,,,,,,,40,,,,,,,,,,,,,,,,,,5,6,,,528.9961,6,right,0.5109,529.5164,0.5,0.3,"[1,3,2]",0.456209622,stimuli/card_10_transparent.png,10,6,0,6,0,1,,,,,,,,,,
,,,,5ddcd77f23f9f1c2c45d6c18,B,2024-08-16_17h14.04.688,Slot Machine Game,2023.1.3,Win32,60.24096386,,,,,,,,,,,,,,,,,,,,,,,,,,,140,,,,,,,,,,,,,,,,,,5,6,,,530.3163,7,right,0.8864,531.2331,1,0.3,"[1,3,2]",0.166057013,stimuli/card_100_transparent.png,100,7,0,7,0,1,,,,,,,,,,
,,,,5ddcd77f23f9f1c2c45d6c18,B,2024-08-16_17h14.04.688,Slot Machine Game,2023.1.3,Win32,60.24096386,,,,,,,,,,,,,,,,,,,,,,,,,,,150,,,,,,,,,,,,,,,,,,5,6,,,532.5335,8,right,0.8686,533.4354,1,0.3,"[1,3,2]",0.866802766,stimuli/card_10_transparent.png,10,8,0,8,0,1,,,,,,,,,,
,,,,5ddcd77f23f9f1c2c45d6c18,B,2024-08-16_17h14.04.688,Slot Machine Game,2023.1.3,Win32,60.24096386,,,,,,,,,,,,,,,,,,,,,,,,,,,160,,,,,,,,,,,,,,,,,,5,6,,,534.7357,9,right,0.5013,535.254,0.5,0.3,"[1,3,2]",0.809710983,stimuli/card_10_transparent.png,10,9,0,9,0,1,,,,,,,,,,
,,,,5ddcd77f23f9f1c2c45d6c18,B,2024-08-16_17h14.04.688,Slot Machine Game,2023.1.3,Win32,60.24096386,,,,,,,,,,,,,,,,,,,,,,,,,,,260,,,,,,,,,,,,,,,,,,5,6,,,536.0524,10,right,0.934,537.0062,1,0.3,"[3,2,1]",0.262087475,stimuli/card_100_transparent.png,100,10,0,10,0,1,,,,,,,,,,
,,,,5ddcd77f23f9f1c2c45d6c18,B,2024-08-16_17h14.04.688,Slot Machine Game,2023.1.3,Win32,60.24096386,,,,,,,,,,,,,,,,,,,,,,,,,,,360,,,,,,,,,,,,,,,,,,5,6,,,538.3062,11,right,0.5897,538.9254,1,0.3,"[3,2,1]",0.685464669,stimuli/card_100_transparent.png,100,11,0,11,0,1,,,,,,,,,,
,,,,5ddcd77f23f9f1c2c45d6c18,B,2024-08-16_17h14.04.688,Slot Machine Game,2023.1.3,Win32,60.24096386,,,,,,,,,,,,,,,,,,,,,,,,,,,460,,,,,,,,,,,,,,,,,,5,6,,,540.2243,12,right,0.8854,541.1269,1.5,0.3,"[3,2,1]",0.695960507,stimuli/card_100_transparent.png,100,12,0,12,0,1,,,,,,,,,,
,,,,5ddcd77f23f9f1c2c45d6c18,B,2024-08-16_17h14.04.688,Slot Machine Game,2023.1.3,Win32,60.24096386,,,,,,,,,,,,,,,,,,,,,,,,,,,560,,,,,,,,,,,,,,,,,,5,6,,,542.9273,13,right,0.8524,543.7962,0.5,0.3,"[3,2,1]",0.925457415,stimuli/card_100_transparent.png,100,13,0,13,0,1,,,,,,,,,,
,,,,5ddcd77f23f9f1c2c45d6c18,B,2024-08-16_17h14.04.688,Slot Machine Game,2023.1.3,Win32,60.24096386,,,,,,,,,,,,,,,,,,,,,,,,,,,660,,,,,,,,,,,,,,,,,,5,6,,,544.596,14,right,0.5184,545.1475,0.5,0.3,"[3,2,1]",0.268703669,stimuli/card_100_transparent.png,100,14,0,14,0,1,,,,,,,,,,
,,,,5ddcd77f23f9f1c2c45d6c18,B,2024-08-16_17h14.04.688,Slot Machine Game,2023.1.3,Win32,60.24096386,,,,,,,,,,,,,,,,,,,,,,,,,,,,,,,,,,545.9398,,,,,,,,,,,,,,,,,,,,,,,,,,,,,,,"[1010,920,460,360,660]",4,0,4,0,1,,,,
,,,,5ddcd77f23f9f1c2c45d6c18,B,2024-08-16_17h14.04.688,Slot Machine Game,2023.1.3,Win32,60.24096386,,,,,,,,,,,,,,,,,,,,,,,,,,,10,,,,,,,,,,,,,,,,,,6,8,"[11,15]","[[2,1,3],[1,2,3]]",550.9633,0,left,0.8186,551.805,0.5,0.3,"[2,1,3]",0.641747432,stimuli/card_10_transparent.png,10,0,0,0,0,1,,,,,,,,,,
,,,,5ddcd77f23f9f1c2c45d6c18,B,2024-08-16_17h14.04.688,Slot Machine Game,2023.1.3,Win32,60.24096386,,,,,,,,,,,,,,,,,,,,,,,,,,,20,,,,,,,,,,,,,,,,,,6,8,,,552.6043,1,left,0.5563,553.189,1.5,0.3,"[2,1,3]",0.397724154,stimuli/card_10_transparent.png,10,1,0,1,0,1,,,,,,,,,,
,,,,5ddcd77f23f9f1c2c45d6c18,B,2024-08-16_17h14.04.688,Slot Machine Game,2023.1.3,Win32,60.24096386,,,,,,,,,,,,,,,,,,,,,,,,,,,30,,,,,,,,,,,,,,,,,,6,8,,,554.9901,2,left,0.6442,555.6598,1,0.3,"[2,1,3]",0.894759406,stimuli/card_10_transparent.png,10,2,0,2,0,1,,,,,,,,,,
,,,,5ddcd77f23f9f1c2c45d6c18,B,2024-08-16_17h14.04.688,Slot Machine Game,2023.1.3,Win32,60.24096386,,,,,,,,,,,,,,,,,,,,,,,,,,,30,,,,,,,,,,,,,,,,,,6,8,,,556.9587,3,right,0.8508,557.827,1.5,0.3,"[2,1,3]",0.540918423,stimuli/card_0_transparent.png,0,3,0,3,0,1,,,,,,,,,,
,,,,5ddcd77f23f9f1c2c45d6c18,B,2024-08-16_17h14.04.688,Slot Machine Game,2023.1.3,Win32,60.24096386,,,,,,,,,,,,,,,,,,,,,,,,,,,40,,,,,,,,,,,,,,,,,,6,8,,,559.6282,4,right,0.819,560.4806,1.5,0.3,"[2,1,3]",0.104403905,stimuli/card_10_transparent.png,10,4,0,4,0,1,,,,,,,,,,
,,,,5ddcd77f23f9f1c2c45d6c18,B,2024-08-16_17h14.04.688,Slot Machine Game,2023.1.3,Win32,60.24096386,,,,,,,,,,,,,,,,,,,,,,,,,,,40,,,,,,,,,,,,,,,,,,6,8,,,562.2806,5,right,0.8423,563.134,1,0.3,"[2,1,3]",0.34695771,stimuli/card_0_transparent.png,0,5,0,5,0,1,,,,,,,,,,
,,,,5ddcd77f23f9f1c2c45d6c18,B,2024-08-16_17h14.04.688,Slot Machine Game,2023.1.3,Win32,60.24096386,,,,,,,,,,,,,,,,,,,,,,,,,,,140,,,,,,,,,,,,,,,,,,6,8,,,564.4331,6,up,0.8515,565.3018,1,0.3,"[2,1,3]",0.611797124,stimuli/card_100_transparent.png,100,6,0,6,0,1,,,,,,,,,,
,,,,5ddcd77f23f9f1c2c45d6c18,B,2024-08-16_17h14.04.688,Slot Machine Game,2023.1.3,Win32,60.24096386,,,,,,,,,,,,,,,,,,,,,,,,,,,240,,,,,,,,,,,,,,,,,,6,8,,,566.602,7,up,0.9034,567.5365,1,0.3,"[2,1,3]",0.241003378,stimuli/card_100_transparent.png,100,7,0,7,0,1,,,,,,,,,,
,,,,5ddcd77f23f9f1c2c45d6c18,B,2024-08-16_17h14.04.688,Slot Machine Game,2023.1.3,Win32,60.24096386,,,,,,,,,,,,,,,,,,,,,,,,,,,240,,,,,,,,,,,,,,,,,,6,8,,,568.8362,8,up,0.8698,569.7228,1.5,0.3,"[2,1,3]",0.058634757,stimuli/card_0_transparent.png,0,8,0,8,0,1,,,,,,,,,,
,,,,5ddcd77f23f9f1c2c45d6c18,B,2024-08-16_17h14.04.688,Slot Machine Game,2023.1.3,Win32,60.24096386,,,,,,,,,,,,,,,,,,,,,,,,,,,340,,,,,,,,,,,,,,,,,,6,8,,,571.5265,9,up,0.8376,572.3922,1,0.3,"[2,1,3]",0.354348069,stimuli/card_100_transparent.png,100,9,0,9,0,1,,,,,,,,,,
,,,,5ddcd77f23f9f1c2c45d6c18,B,2024-08-16_17h14.04.688,Slot Machine Game,2023.1.3,Win32,60.24096386,,,,,,,,,,,,,,,,,,,,,,,,,,,440,,,,,,,,,,,,,,,,,,6,8,,,573.6924,10,up,0.8941,574.6132,1.5,0.3,"[2,1,3]",0.817310476,stimuli/card_100_transparent.png,100,10,0,10,0,1,,,,,,,,,,
,,,,5ddcd77f23f9f1c2c45d6c18,B,2024-08-16_17h14.04.688,Slot Machine Game,2023.1.3,Win32,60.24096386,,,,,,,,,,,,,,,,,,,,,,,,,,,450,,,,,,,,,,,,,,,,,,6,8,,,576.4118,11,up,0.6184,577.0474,1.5,0.3,"[1,2,3]",0.693856561,stimuli/card_10_transparent.png,10,11,0,11,0,1,,,,,,,,,,
,,,,5ddcd77f23f9f1c2c45d6c18,B,2024-08-16_17h14.04.688,Slot Machine Game,2023.1.3,Win32,60.24096386,,,,,,,,,,,,,,,,,,,,,,,,,,,460,,,,,,,,,,,,,,,,,,6,8,,,578.8482,12,up,0.6601,579.5342,1,0.3,"[1,2,3]",0.782140371,stimuli/card_10_transparent.png,10,12,0,12,0,1,,,,,,,,,,
,,,,5ddcd77f23f9f1c2c45d6c18,B,2024-08-16_17h14.04.688,Slot Machine Game,2023.1.3,Win32,60.24096386,,,,,,,,,,,,,,,,,,,,,,,,,,,560,,,,,,,,,,,,,,,,,,6,8,,,580.8334,13,up,0.6563,581.5182,1.5,0.3,"[1,2,3]",0.172985079,stimuli/card_100_transparent.png,100,13,0,13,0,1,,,,,,,,,,
,,,,5ddcd77f23f9f1c2c45d6c18,B,2024-08-16_17h14.04.688,Slot Machine Game,2023.1.3,Win32,60.24096386,,,,,,,,,,,,,,,,,,,,,,,,,,,560,,,,,,,,,,,,,,,,,,6,8,,,583.3198,14,up,0.6357,583.9877,0.5,0.3,"[1,2,3]",0.075603975,stimuli/card_0_transparent.png,0,14,0,14,0,1,,,,,,,,,,
,,,,5ddcd77f23f9f1c2c45d6c18,B,2024-08-16_17h14.04.688,Slot Machine Game,2023.1.3,Win32,60.24096386,,,,,,,,,,,,,,,,,,,,,,,,,,,,,,,,,,584.7875,,,,,,,,,,,,,,,,,,,,,,,,,,,,,,,"[1010,920,460,360,660,560]",5,0,5,0,1,,,,
,,,,5ddcd77f23f9f1c2c45d6c18,B,2024-08-16_17h14.04.688,Slot Machine Game,2023.1.3,Win32,60.24096386,,,,,,,,,,,,,,,,,,,,,,,,,,,0,,,,,,,,,,,,,,,,,,7,9,"[8,15]","[[3,2,1],[3,1,2]]",589.8028,0,left,0.755,590.5845,0.5,0.3,"[3,2,1]",0.26373236,stimuli/card_0_transparent.png,0,0,0,0,0,1,,,,,,,,,,
,,,,5ddcd77f23f9f1c2c45d6c18,B,2024-08-16_17h14.04.688,Slot Machine Game,2023.1.3,Win32,60.24096386,,,,,,,,,,,,,,,,,,,,,,,,,,,0,,,,,,,,,,,,,,,,,,7,9,,,591.3784,1,left,0.9532,592.3629,1,0.3,"[3,2,1]",0.373235153,stimuli/card_0_transparent.png,0,1,0,1,0,1,,,,,,,,,,
,,,,5ddcd77f23f9f1c2c45d6c18,B,2024-08-16_17h14.04.688,Slot Machine Game,2023.1.3,Win32,60.24096386,,,,,,,,,,,,,,,,,,,,,,,,,,,0,,,,,,,,,,,,,,,,,,7,9,,,593.6632,2,left,0.6686,594.365,1,0.3,"[3,2,1]",0.793531891,stimuli/card_0_transparent.png,0,2,0,2,0,1,,,,,,,,,,
,,,,5ddcd77f23f9f1c2c45d6c18,B,2024-08-16_17h14.04.688,Slot Machine Game,2023.1.3,Win32,60.24096386,,,,,,,,,,,,,,,,,,,,,,,,,,,0,,,,,,,,,,,,,,,,,,7,9,,,595.6651,3,up,0.8446,596.5188,1.5,0.3,"[3,2,1]",0.048912904,stimuli/card_0_transparent.png,0,3,0,3,0,1,,,,,,,,,,
,,,,5ddcd77f23f9f1c2c45d6c18,B,2024-08-16_17h14.04.688,Slot Machine Game,2023.1.3,Win32,60.24096386,,,,,,,,,,,,,,,,,,,,,,,,,,,10,,,,,,,,,,,,,,,,,,7,9,,,598.3183,4,up,0.8693,599.2208,1.5,0.3,"[3,2,1]",0.222434743,stimuli/card_10_transparent.png,10,4,0,4,0,1,,,,,,,,,,
,,,,5ddcd77f23f9f1c2c45d6c18,B,2024-08-16_17h14.04.688,Slot Machine Game,2023.1.3,Win32,60.24096386,,,,,,,,,,,,,,,,,,,,,,,,,,,20,,,,,,,,,,,,,,,,,,7,9,,,601.0218,5,up,0.8055,601.856,1,0.3,"[3,2,1]",0.306478877,stimuli/card_10_transparent.png,10,5,0,5,0,1,,,,,,,,,,
,,,,5ddcd77f23f9f1c2c45d6c18,B,2024-08-16_17h14.04.688,Slot Machine Game,2023.1.3,Win32,60.24096386,,,,,,,,,,,,,,,,,,,,,,,,,,,20,,,,,,,,,,,,,,,,,,7,9,,,603.1561,6,right,0.7846,603.9583,1,0.3,"[3,2,1]",0.016367053,stimuli/card_0_transparent.png,0,6,0,6,0,1,,,,,,,,,,
,,,,5ddcd77f23f9f1c2c45d6c18,B,2024-08-16_17h14.04.688,Slot Machine Game,2023.1.3,Win32,60.24096386,,,,,,,,,,,,,,,,,,,,,,,,,,,120,,,,,,,,,,,,,,,,,,7,9,,,605.259,7,right,0.8088,606.0949,0.5,0.3,"[3,2,1]",0.695077971,stimuli/card_100_transparent.png,100,7,0,7,0,1,,,,,,,,,,
,,,,5ddcd77f23f9f1c2c45d6c18,B,2024-08-16_17h14.04.688,Slot Machine Game,2023.1.3,Win32,60.24096386,,,,,,,,,,,,,,,,,,,,,,,,,,,130,,,,,,,,,,,,,,,,,,7,9,,,606.8937,8,right,0.8865,607.8119,0.5,0.3,"[3,1,2]",0.515168822,stimuli/card_10_transparent.png,10,8,0,8,0,1,,,,,,,,,,
,,,,5ddcd77f23f9f1c2c45d6c18,B,2024-08-16_17h14.04.688,Slot Machine Game,2023.1.3,Win32,60.24096386,,,,,,,,,,,,,,,,,,,,,,,,,,,140,,,,,,,,,,,,,,,,,,7,9,,,608.612,9,right,0.8355,609.4808,1,0.3,"[3,1,2]",0.205332051,stimuli/card_10_transparent.png,10,9,0,9,0,1,,,,,,,,,,
,,,,5ddcd77f23f9f1c2c45d6c18,B,2024-08-16_17h14.04.688,Slot Machine Game,2023.1.3,Win32,60.24096386,,,,,,,,,,,,,,,,,,,,,,,,,,,150,,,,,,,,,,,,,,,,,,7,9,,,610.7795,10,right,0.7847,611.5828,0.5,0.3,"[3,1,2]",0.434718897,stimuli/card_10_transparent.png,10,10,0,10,0,1,,,,,,,,,,
,,,,5ddcd77f23f9f1c2c45d6c18,B,2024-08-16_17h14.04.688,Slot Machine Game,2023.1.3,Win32,60.24096386,,,,,,,,,,,,,,,,,,,,,,,,,,,160,,,,,,,,,,,,,,,,,,7,9,,,612.3822,11,right,0.8021,613.201,0.5,0.3,"[3,1,2]",0.298852946,stimuli/card_10_transparent.png,10,11,0,11,0,1,,,,,,,,,,
,,,,5ddcd77f23f9f1c2c45d6c18,B,2024-08-16_17h14.04.688,Slot Machine Game,2023.1.3,Win32,60.24096386,,,,,,,,,,,,,,,,,,,,,,,,,,,260,,,,,,,,,,,,,,,,,,7,9,,,614.0006,12,up,0.938,614.9698,1,0.3,"[3,1,2]",0.482098538,stimuli/card_100_transparent.png,100,12,0,12,0,1,,,,,,,,,,
,,,,5ddcd77f23f9f1c2c45d6c18,B,2024-08-16_17h14.04.688,Slot Machine Game,2023.1.3,Win32,60.24096386,,,,,,,,,,,,,,,,,,,,,,,,,,,360,,,,,,,,,,,,,,,,,,7,9,,,616.2696,13,up,0.5603,616.8394,1.5,0.3,"[3,1,2]",0.384478662,stimuli/card_100_transparent.png,100,13,0,13,0,1,,,,,,,,,,
,,,,5ddcd77f23f9f1c2c45d6c18,B,2024-08-16_17h14.04.688,Slot Machine Game,2023.1.3,Win32,60.24096386,,,,,,,,,,,,,,,,,,,,,,,,,,,460,,,,,,,,,,,,,,,,,,7,9,,,618.6389,14,up,0.8364,619.4908,1,0.3,"[3,1,2]",0.83348752,stimuli/card_100_transparent.png,100,14,0,14,0,1,,,,,,,,,,
,,,,5ddcd77f23f9f1c2c45d6c18,B,2024-08-16_17h14.04.688,Slot Machine Game,2023.1.3,Win32,60.24096386,,,,,,,,,,,,,,,,,,,,,,,,,,,,,,,,,,620.7926,,,,,,,,,,,,,,,,,,,,,,,,,,,,,,,"[1010,920,460,360,660,560,460]",6,0,6,0,1,,,,
,,,,5ddcd77f23f9f1c2c45d6c18,B,2024-08-16_17h14.04.688,Slot Machine Game,2023.1.3,Win32,60.24096386,,,,,,,,,,,,,,,,,,,,,,,,,,,100,,,,,,,,,,,,,,,,,,8,2,"[6,15]","[[1,3,2],[3,2,1]]",625.8249,0,left,0.6523,626.4984,1.5,0.3,"[1,3,2]",0.869075171,stimuli/card_100_transparent.png,100,0,0,0,0,1,,,,,,,,,,
,,,,5ddcd77f23f9f1c2c45d6c18,B,2024-08-16_17h14.04.688,Slot Machine Game,2023.1.3,Win32,60.24096386,,,,,,,,,,,,,,,,,,,,,,,,,,,200,,,,,,,,,,,,,,,,,,8,2,,,628.2976,1,left,0.9204,629.2344,1.5,0.3,"[1,3,2]",0.344778936,stimuli/card_100_transparent.png,100,1,0,1,0,1,,,,,,,,,,
,,,,5ddcd77f23f9f1c2c45d6c18,B,2024-08-16_17h14.04.688,Slot Machine Game,2023.1.3,Win32,60.24096386,,,,,,,,,,,,,,,,,,,,,,,,,,,200,,,,,,,,,,,,,,,,,,8,2,,,631.0364,2,left,0.7781,631.839,0.5,0.3,"[1,3,2]",0.046095419,stimuli/card_0_transparent.png,0,2,0,2,0,1,,,,,,,,,,
,,,,5ddcd77f23f9f1c2c45d6c18,B,2024-08-16_17h14.04.688,Slot Machine Game,2023.1.3,Win32,60.24096386,,,,,,,,,,,,,,,,,,,,,,,,,,,300,,,,,,,,,,,,,,,,,,8,2,,,632.6372,3,left,0.8386,633.5055,0.5,0.3,"[1,3,2]",0.996900415,stimuli/card_100_transparent.png,100,3,0,3,0,1,,,,,,,,,,
,,,,5ddcd77f23f9f1c2c45d6c18,B,2024-08-16_17h14.04.688,Slot Machine Game,2023.1.3,Win32,60.24096386,,,,,,,,,,,,,,,,,,,,,,,,,,,400,,,,,,,,,,,,,,,,,,8,2,,,634.3054,4,left,0.8921,635.2083,1,0.3,"[1,3,2]",0.696395745,stimuli/card_100_transparent.png,100,4,0,4,0,1,,,,,,,,,,
,,,,5ddcd77f23f9f1c2c45d6c18,B,2024-08-16_17h14.04.688,Slot Machine Game,2023.1.3,Win32,60.24096386,,,,,,,,,,,,,,,,,,,,,,,,,,,500,,,,,,,,,,,,,,,,,,8,2,,,636.5072,5,left,0.8514,637.3941,0.5,0.3,"[1,3,2]",0.528457882,stimuli/card_100_transparent.png,100,5,0,5,0,1,,,,,,,,,,
,,,,5ddcd77f23f9f1c2c45d6c18,B,2024-08-16_17h14.04.688,Slot Machine Game,2023.1.3,Win32,60.24096386,,,,,,,,,,,,,,,,,,,,,,,,,,,500,,,,,,,,,,,,,,,,,,8,2,,,638.1927,6,left,0.8286,639.0465,1,0.3,"[3,2,1]",0.226549046,stimuli/card_0_transparent.png,0,6,0,6,0,1,,,,,,,,,,
,,,,5ddcd77f23f9f1c2c45d6c18,B,2024-08-16_17h14.04.688,Slot Machine Game,2023.1.3,Win32,60.24096386,,,,,,,,,,,,,,,,,,,,,,,,,,,500,,,,,,,,,,,,,,,,,,8,2,,,640.3445,7,left,0.8029,641.1632,1.5,0.3,"[3,2,1]",0.927310714,stimuli/card_0_transparent.png,0,7,0,7,0,1,,,,,,,,,,
,,,,5ddcd77f23f9f1c2c45d6c18,B,2024-08-16_17h14.04.688,Slot Machine Game,2023.1.3,Win32,60.24096386,,,,,,,,,,,,,,,,,,,,,,,,,,,600,,,,,,,,,,,,,,,,,,8,2,,,642.9638,8,up,0.7688,643.7491,1,0.3,"[3,2,1]",0.125101415,stimuli/card_100_transparent.png,100,8,0,8,0,1,,,,,,,,,,
,,,,5ddcd77f23f9f1c2c45d6c18,B,2024-08-16_17h14.04.688,Slot Machine Game,2023.1.3,Win32,60.24096386,,,,,,,,,,,,,,,,,,,,,,,,,,,610,,,,,,,,,,,,,,,,,,8,2,,,645.0497,9,up,0.8681,645.9352,0.5,0.3,"[3,2,1]",0.629812926,stimuli/card_10_transparent.png,10,9,0,9,0,1,,,,,,,,,,
,,,,5ddcd77f23f9f1c2c45d6c18,B,2024-08-16_17h14.04.688,Slot Machine Game,2023.1.3,Win32,60.24096386,,,,,,,,,,,,,,,,,,,,,,,,,,,610,,,,,,,,,,,,,,,,,,8,2,,,646.7347,10,up,0.869,647.6363,1,0.3,"[3,2,1]",0.077466717,stimuli/card_0_transparent.png,0,10,0,10,0,1,,,,,,,,,,
,,,,5ddcd77f23f9f1c2c45d6c18,B,2024-08-16_17h14.04.688,Slot Machine Game,2023.1.3,Win32,60.24096386,,,,,,,,,,,,,,,,,,,,,,,,,,,620,,,,,,,,,,,,,,,,,,8,2,,,648.937,11,up,0.7521,649.7053,0.5,0.3,"[3,2,1]",0.214925886,stimuli/card_10_transparent.png,10,11,0,11,0,1,,,,,,,,,,
,,,,5ddcd77f23f9f1c2c45d6c18,B,2024-08-16_17h14.04.688,Slot Machine Game,2023.1.3,Win32,60.24096386,,,,,,,,,,,,,,,,,,,,,,,,,,,630,,,,,,,,,,,,,,,,,,8,2,,,650.5063,12,up,0.736,651.2738,0.5,0.3,"[3,2,1]",0.241754807,stimuli/card_10_transparent.png,10,12,0,12,0,1,,,,,,,,,,
,,,,5ddcd77f23f9f1c2c45d6c18,B,2024-08-16_17h14.04.688,Slot Machine Game,2023.1.3,Win32,60.24096386,,,,,,,,,,,,,,,,,,,,,,,,,,,630,,,,,,,,,,,,,,,,,,8,2,,,652.0736,13,left,0.7855,652.8919,1,0.3,"[3,2,1]",0.761886642,stimuli/card_0_transparent.png,0,13,0,13,0,1,,,,,,,,,,
,,,,5ddcd77f23f9f1c2c45d6c18,B,2024-08-16_17h14.04.688,Slot Machine Game,2023.1.3,Win32,60.24096386,,,,,,,,,,,,,,,,,,,,,,,,,,,730,,,,,,,,,,,,,,,,,,8,2,,,654.1925,14,right,0.751,654.9776,1.5,0.3,"[3,2,1]",0.654980282,stimuli/card_100_transparent.png,100,14,0,14,0,1,,,,,,,,,,
,,,,5ddcd77f23f9f1c2c45d6c18,B,2024-08-16_17h14.04.688,Slot Machine Game,2023.1.3,Win32,60.24096386,,,,,,,,,,,,,,,,,,,,,,,,,,,,,,,,,,656.7786,,,,,,,,,,,,,,,,,,,,,,,,,,,,,,,"[1010,920,460,360,660,560,460,730]",7,0,7,0,1,,,,
,,,,5ddcd77f23f9f1c2c45d6c18,B,2024-08-16_17h14.04.688,Slot Machine Game,2023.1.3,Win32,60.24096386,,,,,,,,,,,,,,,,,,,,,,,,,,,100,,,,,,,,,,,,,,,,,,9,10,"[10,15]","[[3,1,2],[1,3,2]]",661.8114,0,left,0.7043,662.5398,0.5,0.3,"[3,1,2]",0.093461,stimuli/card_100_transparent.png,100,0,0,0,0,1,,,,,,,,,,
,,,,5ddcd77f23f9f1c2c45d6c18,B,2024-08-16_17h14.04.688,Slot Machine Game,2023.1.3,Win32,60.24096386,,,,,,,,,,,,,,,,,,,,,,,,,,,100,,,,,,,,,,,,,,,,,,9,10,,,663.3337,1,left,0.8861,664.2363,1.5,0.3,"[3,1,2]",0.638038572,stimuli/card_0_transparent.png,0,1,0,1,0,1,,,,,,,,,,
,,,,5ddcd77f23f9f1c2c45d6c18,B,2024-08-16_17h14.04.688,Slot Machine Game,2023.1.3,Win32,60.24096386,,,,,,,,,,,,,,,,,,,,,,,,,,,100,,,,,,,,,,,,,,,,,,9,10,,,666.0364,2,left,0.5676,666.6389,1,0.3,"[3,1,2]",0.389193225,stimuli/card_0_transparent.png,0,2,0,2,0,1,,,,,,,,,,
,,,,5ddcd77f23f9f1c2c45d6c18,B,2024-08-16_17h14.04.688,Slot Machine Game,2023.1.3,Win32,60.24096386,,,,,,,,,,,,,,,,,,,,,,,,,,,100,,,,,,,,,,,,,,,,,,9,10,,,667.9384,3,left,0.7021,668.6742,1,0.3,"[3,1,2]",0.973307135,stimuli/card_0_transparent.png,0,3,0,3,0,1,,,,,,,,,,
,,,,5ddcd77f23f9f1c2c45d6c18,B,2024-08-16_17h14.04.688,Slot Machine Game,2023.1.3,Win32,60.24096386,,,,,,,,,,,,,,,,,,,,,,,,,,,200,,,,,,,,,,,,,,,,,,9,10,,,669.9744,4,left,0.6522,670.6593,1,0.3,"[3,1,2]",0.009377912,stimuli/card_100_transparent.png,100,4,0,4,0,1,,,,,,,,,,
,,,,5ddcd77f23f9f1c2c45d6c18,B,2024-08-16_17h14.04.688,Slot Machine Game,2023.1.3,Win32,60.24096386,,,,,,,,,,,,,,,,,,,,,,,,,,,200,,,,,,,,,,,,,,,,,,9,10,,,671.9593,5,left,0.7561,672.7451,1.5,0.3,"[3,1,2]",0.58004979,stimuli/card_0_transparent.png,0,5,0,5,0,1,,,,,,,,,,
,,,,5ddcd77f23f9f1c2c45d6c18,B,2024-08-16_17h14.04.688,Slot Machine Game,2023.1.3,Win32,60.24096386,,,,,,,,,,,,,,,,,,,,,,,,,,,210,,,,,,,,,,,,,,,,,,9,10,,,674.5453,6,left,0.636,675.2144,0.5,0.3,"[3,1,2]",0.117880297,stimuli/card_10_transparent.png,10,6,0,6,0,1,,,,,,,,,,
,,,,5ddcd77f23f9f1c2c45d6c18,B,2024-08-16_17h14.04.688,Slot Machine Game,2023.1.3,Win32,60.24096386,,,,,,,,,,,,,,,,,,,,,,,,,,,210,,,,,,,,,,,,,,,,,,9,10,,,676.0137,7,left,0.5184,676.5657,1,0.3,"[3,1,2]",0.278283814,stimuli/card_0_transparent.png,0,7,0,7,0,1,,,,,,,,,,
,,,,5ddcd77f23f9f1c2c45d6c18,B,2024-08-16_17h14.04.688,Slot Machine Game,2023.1.3,Win32,60.24096386,,,,,,,,,,,,,,,,,,,,,,,,,,,310,,,,,,,,,,,,,,,,,,9,10,,,677.8665,8,up,0.6587,678.5519,1,0.3,"[3,1,2]",0.625929661,stimuli/card_100_transparent.png,100,8,0,8,0,1,,,,,,,,,,
,,,,5ddcd77f23f9f1c2c45d6c18,B,2024-08-16_17h14.04.688,Slot Machine Game,2023.1.3,Win32,60.24096386,,,,,,,,,,,,,,,,,,,,,,,,,,,410,,,,,,,,,,,,,,,,,,9,10,,,679.8509,9,up,0.7696,680.6534,0.5,0.3,"[3,1,2]",0.572500726,stimuli/card_100_transparent.png,100,9,0,9,0,1,,,,,,,,,,
,,,,5ddcd77f23f9f1c2c45d6c18,B,2024-08-16_17h14.04.688,Slot Machine Game,2023.1.3,Win32,60.24096386,,,,,,,,,,,,,,,,,,,,,,,,,,,410,,,,,,,,,,,,,,,,,,9,10,,,681.4523,10,up,0.7689,682.238,0.5,0.3,"[1,3,2]",0.747112318,stimuli/card_0_transparent.png,0,10,0,10,0,1,,,,,,,,,,
,,,,5ddcd77f23f9f1c2c45d6c18,B,2024-08-16_17h14.04.688,Slot Machine Game,2023.1.3,Win32,60.24096386,,,,,,,,,,,,,,,,,,,,,,,,,,,410,,,,,,,,,,,,,,,,,,9,10,,,683.0374,11,up,0.6358,683.7062,0.5,0.3,"[1,3,2]",0.661678809,stimuli/card_0_transparent.png,0,11,0,11,0,1,,,,,,,,,,
,,,,5ddcd77f23f9f1c2c45d6c18,B,2024-08-16_17h14.04.688,Slot Machine Game,2023.1.3,Win32,60.24096386,,,,,,,,,,,,,,,,,,,,,,,,,,,410,,,,,,,,,,,,,,,,,,9,10,,,684.5057,12,up,0.7526,685.292,0.5,0.3,"[1,3,2]",0.221862389,stimuli/card_0_transparent.png,0,12,0,12,0,1,,,,,,,,,,
,,,,5ddcd77f23f9f1c2c45d6c18,B,2024-08-16_17h14.04.688,Slot Machine Game,2023.1.3,Win32,60.24096386,,,,,,,,,,,,,,,,,,,,,,,,,,,510,,,,,,,,,,,,,,,,,,9,10,,,686.091,13,left,0.6892,686.8101,0.5,0.3,"[1,3,2]",0.508913387,stimuli/card_100_transparent.png,100,13,0,13,0,1,,,,,,,,,,
,,,,5ddcd77f23f9f1c2c45d6c18,B,2024-08-16_17h14.04.688,Slot Machine Game,2023.1.3,Win32,60.24096386,,,,,,,,,,,,,,,,,,,,,,,,,,,610,,,,,,,,,,,,,,,,,,9,10,,,687.6092,14,left,0.7383,688.3778,1,0.3,"[1,3,2]",0.898794533,stimuli/card_100_transparent.png,100,14,0,14,0,1,,,,,,,,,,
,,,,5ddcd77f23f9f1c2c45d6c18,B,2024-08-16_17h14.04.688,Slot Machine Game,2023.1.3,Win32,60.24096386,,,,,,,,,,,,,,,,,,,,,,,,,,,,,,,,,,689.6794,,,,,,,,,,,,,,,,,,,,,,,,,,,,,,,"[1010,920,460,360,660,560,460,730,610]",8,0,8,0,1,,,,
,,,,5ddcd77f23f9f1c2c45d6c18,B,2024-08-16_17h14.04.688,Slot Machine Game,2023.1.3,Win32,60.24096386,,,,,,,,,,,,,,,,,,,,,,,,,,,100,,,,,,,,,,,,,,,,,,10,3,"[15,15]","[[3,1,2],[3,1,2]]",694.7105,0,up,1.0911,695.8287,1.5,0.3,"[3,1,2]",0.987519458,stimuli/card_100_transparent.png,100,0,0,0,0,1,,,,,,,,,,
,,,,5ddcd77f23f9f1c2c45d6c18,B,2024-08-16_17h14.04.688,Slot Machine Game,2023.1.3,Win32,60.24096386,,,,,,,,,,,,,,,,,,,,,,,,,,,200,,,,,,,,,,,,,,,,,,10,3,,,697.6191,1,up,0.8352,698.4881,1,0.3,"[3,1,2]",0.897845324,stimuli/card_100_transparent.png,100,1,0,1,0,1,,,,,,,,,,
,,,,5ddcd77f23f9f1c2c45d6c18,B,2024-08-16_17h14.04.688,Slot Machine Game,2023.1.3,Win32,60.24096386,,,,,,,,,,,,,,,,,,,,,,,,,,,200,,,,,,,,,,,,,,,,,,10,3,,,699.788,2,up,0.6513,700.4738,0.5,0.3,"[3,1,2]",0.050454226,stimuli/card_0_transparent.png,0,2,0,2,0,1,,,,,,,,,,
,,,,5ddcd77f23f9f1c2c45d6c18,B,2024-08-16_17h14.04.688,Slot Machine Game,2023.1.3,Win32,60.24096386,,,,,,,,,,,,,,,,,,,,,,,,,,,210,,,,,,,,,,,,,,,,,,10,3,,,701.2729,3,up,0.7392,702.0408,1.5,0.3,"[3,1,2]",0.11933573,stimuli/card_10_transparent.png,10,3,0,3,0,1,,,,,,,,,,
,,,,5ddcd77f23f9f1c2c45d6c18,B,2024-08-16_17h14.04.688,Slot Machine Game,2023.1.3,Win32,60.24096386,,,,,,,,,,,,,,,,,,,,,,,,,,,310,,,,,,,,,,,,,,,,,,10,3,,,703.8422,4,up,0.7697,704.6446,1.5,0.3,"[3,1,2]",0.679574658,stimuli/card_100_transparent.png,100,4,0,4,0,1,,,,,,,,,,
,,,,5ddcd77f23f9f1c2c45d6c18,B,2024-08-16_17h14.04.688,Slot Machine Game,2023.1.3,Win32,60.24096386,,,,,,,,,,,,,,,,,,,,,,,,,,,410,,,,,,,,,,,,,,,,,,10,3,,,706.4451,5,up,0.5343,707.0135,1.5,0.3,"[3,1,2]",0.366689117,stimuli/card_100_transparent.png,100,5,0,5,0,1,,,,,,,,,,
,,,,5ddcd77f23f9f1c2c45d6c18,B,2024-08-16_17h14.04.688,Slot Machine Game,2023.1.3,Win32,60.24096386,,,,,,,,,,,,,,,,,,,,,,,,,,,510,,,,,,,,,,,,,,,,,,10,3,,,708.814,6,up,0.7524,709.5997,1.5,0.3,"[3,1,2]",0.784491119,stimuli/card_100_transparent.png,100,6,0,6,0,1,,,,,,,,,,
,,,,5ddcd77f23f9f1c2c45d6c18,B,2024-08-16_17h14.04.688,Slot Machine Game,2023.1.3,Win32,60.24096386,,,,,,,,,,,,,,,,,,,,,,,,,,,610,,,,,,,,,,,,,,,,,,10,3,,,711.4,7,up,0.8185,712.2357,0.5,0.3,"[3,1,2]",0.767586265,stimuli/card_100_transparent.png,100,7,0,7,0,1,,,,,,,,,,
,,,,5ddcd77f23f9f1c2c45d6c18,B,2024-08-16_17h14.04.688,Slot Machine Game,2023.1.3,Win32,60.24096386,,,,,,,,,,,,,,,,,,,,,,,,,,,710,,,,,,,,,,,,,,,,,,10,3,,,713.0352,8,up,0.6352,713.7047,1.5,0.3,"[3,1,2]",0.983849514,stimuli/card_100_transparent.png,100,8,0,8,0,1,,,,,,,,,,
,,,,5ddcd77f23f9f1c2c45d6c18,B,2024-08-16_17h14.04.688,Slot Machine Game,2023.1.3,Win32,60.24096386,,,,,,,,,,,,,,,,,,,,,,,,,,,810,,,,,,,,,,,,,,,,,,10,3,,,715.5044,9,up,0.7521,716.2901,1.5,0.3,"[3,1,2]",0.744211021,stimuli/card_100_transparent.png,100,9,0,9,0,1,,,,,,,,,,
,,,,5ddcd77f23f9f1c2c45d6c18,B,2024-08-16_17h14.04.688,Slot Machine Game,2023.1.3,Win32,60.24096386,,,,,,,,,,,,,,,,,,,,,,,,,,,910,,,,,,,,,,,,,,,,,,10,3,,,718.0902,10,up,0.6193,718.7424,0.5,0.3,"[3,1,2]",0.801455196,stimuli/card_100_transparent.png,100,10,0,10,0,1,,,,,,,,,,
,,,,5ddcd77f23f9f1c2c45d6c18,B,2024-08-16_17h14.04.688,Slot Machine Game,2023.1.3,Win32,60.24096386,,,,,,,,,,,,,,,,,,,,,,,,,,,1010,,,,,,,,,,,,,,,,,,10,3,,,719.5428,11,up,0.5349,720.1105,1,0.3,"[3,1,2]",0.626982819,stimuli/card_100_transparent.png,100,11,0,11,0,1,,,,,,,,,,
,,,,5ddcd77f23f9f1c2c45d6c18,B,2024-08-16_17h14.04.688,Slot Machine Game,2023.1.3,Win32,60.24096386,,,,,,,,,,,,,,,,,,,,,,,,,,,1110,,,,,,,,,,,,,,,,,,10,3,,,721.4102,12,up,0.7172,722.1458,1,0.3,"[3,1,2]",0.494835182,stimuli/card_100_transparent.png,100,12,0,12,0,1,,,,,,,,,,
,,,,5ddcd77f23f9f1c2c45d6c18,B,2024-08-16_17h14.04.688,Slot Machine Game,2023.1.3,Win32,60.24096386,,,,,,,,,,,,,,,,,,,,,,,,,,,1210,,,,,,,,,,,,,,,,,,10,3,,,723.4457,13,up,0.6873,724.1648,1.5,0.3,"[3,1,2]",0.644345055,stimuli/card_100_transparent.png,100,13,0,13,0,1,,,,,,,,,,
,,,,5ddcd77f23f9f1c2c45d6c18,B,2024-08-16_17h14.04.688,Slot Machine Game,2023.1.3,Win32,60.24096386,,,,,,,,,,,,,,,,,,,,,,,,,,,1310,,,,,,,,,,,,,,,,,,10,3,,,725.965,14,up,0.8244,726.8179,1,0.3,"[3,1,2]",0.831048026,stimuli/card_100_transparent.png,100,14,0,14,0,1,,,,,,,,,,
,,,,5ddcd77f23f9f1c2c45d6c18,B,2024-08-16_17h14.04.688,Slot Machine Game,2023.1.3,Win32,60.24096386,,,,,,,,,,,,,,,,,,,,,,,,,,,,,,,,,,728.1172,,,,,,,,,,,,,,,,,,,,,,,,,,,,,,,"[1010,920,460,360,660,560,460,730,610,1310]",9,0,9,0,1,,,,
,,,,5ddcd77f23f9f1c2c45d6c18,B,2024-08-16_17h14.04.688,Slot Machine Game,2023.1.3,Win32,60.24096386,,,,,,,,,,,,,,,,,,,,,,,,,,,,,,,,,,,,,,,,,,,,,,,,,,,,,,,,,,,,,,,,,,,,,,,9,"[1010,920,460,360,660,560,460,730,610,1310]",7.3,2024-08-16_17h26.22.867
