participant,date,expName,psychopyVersion,OS,frameRate,key_resp_instruction1.started,key_resp_instruction1.keys,key_resp_instruction1.rt,key_resp_instruction1.duration,key_resp_instruction2.started,key_resp_instruction2.keys,key_resp_instruction2.rt,key_resp_instruction2.duration,key_resp_instruction3.started,key_resp_instruction3.keys,key_resp_instruction3.rt,key_resp_instruction3.duration,practiceCondition,practice_reward_seqs,key_resp_practice_slots.started,key_resp_practice_slots.keys,key_resp_practice_slots.rt,key_resp_practice_slots.duration,presentationInterval,"practice_reward_seq: 2,1,3",reward_Img,Cuml_rew,currentPracticeTrialReward,practice_trials.thisRepN,practice_trials.thisTrialN,practice_trials.thisN,practice_trials.thisIndex,practice_trials.ran,"practice_reward_seq: 2,3,1",text_block_break.started,practice_block.thisRepN,practice_block.thisTrialN,practice_block.thisN,practice_block.thisIndex,practice_block.ran
,2023-09-26_11h15.06.387,slotMachine_updated,2023.1.3,MacIntel,60.0024001,,,,,,,,,,,,,,,,,,,,,,,,,,,,,,,,,,,
,2023-09-26_11h15.06.387,slotMachine_updated,2023.1.3,MacIntel,60.0024001,124.9579,space,1.2417,,,,,,,,,,,,,,,,,,,,,,,,,,,,,,,,
,2023-09-26_11h15.06.387,slotMachine_updated,2023.1.3,MacIntel,60.0024001,,,,,126.3234,space,1.2045,,,,,,,,,,,,,,,,,,,,,,,,,,,,
,2023-09-26_11h15.06.387,slotMachine_updated,2023.1.3,MacIntel,60.0024001,,,,,,,,,127.5394,space,3.9129,,,,,,,,,,,,,,,,,,,,,,,,
,2023-09-26_11h15.06.387,slotMachine_updated,2023.1.3,MacIntel,60.0024001,,,,,,,,,,,,,"[9,15]","[[2,1,3],[2,3,1]]",131.466,up,1.0168,,1.5,,stimuli/card_100_transparent.png,100,100,0,0,0,0,1,,,,,,,
,2023-09-26_11h15.06.387,slotMachine_updated,2023.1.3,MacIntel,60.0024001,,,,,,,,,,,,,,,134.3452,up,0.5908,,1.5,,stimuli/card_100_transparent.png,200,100,1,0,1,0,1,,,,,,,
,2023-09-26_11h15.06.387,slotMachine_updated,2023.1.3,MacIntel,60.0024001,,,,,,,,,,,,,,,136.7649,up,0.3355,,1,,stimuli/card_100_transparent.png,300,100,2,0,2,0,1,,,,,,,
,2023-09-26_11h15.06.387,slotMachine_updated,2023.1.3,MacIntel,60.0024001,,,,,,,,,,,,,,,138.4332,up,0.3279,,0.5,,stimuli/card_100_transparent.png,400,100,3,0,3,0,1,,,,,,,
,2023-09-26_11h15.06.387,slotMachine_updated,2023.1.3,MacIntel,60.0024001,,,,,,,,,,,,,,,139.5823,up,0.5306,,1,,stimuli/card_10_transparent.png,410,10,4,0,4,0,1,,,,,,,
,2023-09-26_11h15.06.387,slotMachine_updated,2023.1.3,MacIntel,60.0024001,,,,,,,,,,,,,,,141.4356,up,0.2494,,0.5,,stimuli/card_100_transparent.png,510,100,5,0,5,0,1,,,,,,,
,2023-09-26_11h15.06.387,slotMachine_updated,2023.1.3,MacIntel,60.0024001,,,,,,,,,,,,,,,142.5024,up,0.3249,,0.5,,stimuli/card_100_transparent.png,610,100,6,0,6,0,1,,,,,,,
,2023-09-26_11h15.06.387,slotMachine_updated,2023.1.3,MacIntel,60.0024001,,,,,,,,,,,,,,,143.6519,up,0.4061,,1.5,,stimuli/card_100_transparent.png,710,100,7,0,7,0,1,,,,,,,
,2023-09-26_11h15.06.387,slotMachine_updated,2023.1.3,MacIntel,60.0024001,,,,,,,,,,,,,,,145.8847,up,0.6828,,1.5,,stimuli/card_100_transparent.png,810,100,8,0,8,0,1,,,,,,,
,2023-09-26_11h15.06.387,slotMachine_updated,2023.1.3,MacIntel,60.0024001,,,,,,,,,,,,,,,148.388,up,0.3833,,1.5,,stimuli/card_0_transparent.png,810,0,9,0,9,0,1,,,,,,,
,2023-09-26_11h15.06.387,slotMachine_updated,2023.1.3,MacIntel,60.0024001,,,,,,,,,,,,,,,150.5905,up,1.4207,,1.5,,stimuli/card_0_transparent.png,810,0,10,0,10,0,1,,,,,,,
,2023-09-26_11h15.06.387,slotMachine_updated,2023.1.3,MacIntel,60.0024001,,,,,,,,,,,,,,,153.8248,right,0.4105,,0.5,,stimuli/card_100_transparent.png,910,100,11,0,11,0,1,,,,,,,
,2023-09-26_11h15.06.387,slotMachine_updated,2023.1.3,MacIntel,60.0024001,,,,,,,,,,,,,,,155.0571,right,1.4273,,1.5,,stimuli/card_10_transparent.png,920,10,12,0,12,0,1,,,,,,,
,2023-09-26_11h15.06.387,slotMachine_updated,2023.1.3,MacIntel,60.0024001,,,,,,,,,,,,,,,158.2941,right,0.5588,,1.5,,stimuli/card_100_transparent.png,1020,100,13,0,13,0,1,,,,,,,
,2023-09-26_11h15.06.387,slotMachine_updated,2023.1.3,MacIntel,60.0024001,,,,,,,,,,,,,,,160.679,right,0.4618,,1.5,,stimuli/card_100_transparent.png,1120,100,14,0,14,0,1,,,,,,,
,2023-09-26_11h15.06.387,slotMachine_updated,2023.1.3,MacIntel,60.0024001,,,,,,,,,,,,,,,,,,,,,,,,,,,,,,162.9634,0,0,0,0,1
,2023-09-26_11h15.06.387,slotMachine_updated,2023.1.3,MacIntel,60.0024001,,,,,,,,,,,,,"[6,15]","[[2,3,1]]",167.9681,up,1.4267,,0.5,,stimuli/card_0_transparent.png,0,0,0,0,0,0,1,,,,,,,
,2023-09-26_11h15.06.387,slotMachine_updated,2023.1.3,MacIntel,60.0024001,,,,,,,,,,,,,,,170.2158,up,0.859,,1.5,,stimuli/card_0_transparent.png,0,0,1,0,1,0,1,,,,,,,
,2023-09-26_11h15.06.387,slotMachine_updated,2023.1.3,MacIntel,60.0024001,,,,,,,,,,,,,,,172.8854,right,1.422,,0.5,,stimuli/card_100_transparent.png,100,100,2,0,2,0,1,,,,,,,
,2023-09-26_11h15.06.387,slotMachine_updated,2023.1.3,MacIntel,60.0024001,,,,,,,,,,,,,,,175.1188,right,0.4458,,1,,stimuli/card_10_transparent.png,110,10,3,0,3,0,1,,,,,,,
,2023-09-26_11h15.06.387,slotMachine_updated,2023.1.3,MacIntel,60.0024001,,,,,,,,,,,,,,,176.8841,right,0.5654,,1,,stimuli/card_0_transparent.png,110,0,4,0,4,0,1,,,,,,,
,2023-09-26_11h15.06.387,slotMachine_updated,2023.1.3,MacIntel,60.0024001,,,,,,,,,,,,,,,178.7722,right,0.7317,,1.5,,stimuli/card_100_transparent.png,210,100,5,0,5,0,1,,,,,,,
