participant,date,expName,psychopyVersion,OS,frameRate,key_resp_instruction1.started,key_resp_instruction1.keys,key_resp_instruction1.rt,key_resp_instruction1.duration,key_resp_instruction2.started,key_resp_instruction2.keys,key_resp_instruction2.rt,key_resp_instruction2.duration,key_resp_instruction3.started,key_resp_instruction3.keys,key_resp_instruction3.rt,key_resp_instruction3.duration,practiceCondition,practice_reward_seqs,key_resp_practice_slots.started,key_resp_practice_slots.keys,key_resp_practice_slots.rt,key_resp_practice_slots.duration,presentationInterval,"practice_reward_seq: 2,1,3",reward_Img,Cuml_rew,currentPracticeTrialReward,practice_trials.thisRepN,practice_trials.thisTrialN,practice_trials.thisN,practice_trials.thisIndex,practice_trials.ran,"practice_reward_seq: 2,3,1",text_block_break.started,practice_block.thisRepN,practice_block.thisTrialN,practice_block.thisN,practice_block.thisIndex,practice_block.ran,"practice_reward_seq: 1,3,2","practice_reward_seq: 3,1,2",key_resp_practice_end.started,key_resp_practice_end.keys,key_resp_practice_end.rt,key_resp_practice_end.duration,text_main_instruction.started,BlockCondition,BlockOrderIndices,key_resp_main_instruction.started,key_resp_main_instruction.keys,key_resp_main_instruction.rt,key_resp_main_instruction.duration,mainConditions,currentCondition,main_reward_seqs,key_resp_slots_presentation.started,key_resp_slots_presentation.keys,key_resp_slots_presentation.rt,key_resp_slots_presentation.duration,Main_presentationInterval,Main_reward_seq,Random value generated,Main_reward_Img,Main_Cumul_Reward,Main_currentTrialReward,main_trials.thisRepN,main_trials.thisTrialN,main_trials.thisN,main_trials.thisIndex,main_trials.ran,block.thisRepN,block.thisTrialN,block.thisN,block.thisIndex,block.ran
,2023-09-27_18h33.56.573,slotMachine_updated,2023.1.3,MacIntel,60.06006006,,,,,,,,,,,,,,,,,,,,,,,,,,,,,,,,,,,,,,,,,,,,,,,,,,,,,,,,,,,,,,,,,,,,,,,
,2023-09-27_18h33.56.573,slotMachine_updated,2023.1.3,MacIntel,60.06006006,124.934,space,43.1445,,,,,,,,,,,,,,,,,,,,,,,,,,,,,,,,,,,,,,,,,,,,,,,,,,,,,,,,,,,,,,,,,,,,
,2023-09-27_18h33.56.573,slotMachine_updated,2023.1.3,MacIntel,60.06006006,,,,,168.0929,space,0.3994,,,,,,,,,,,,,,,,,,,,,,,,,,,,,,,,,,,,,,,,,,,,,,,,,,,,,,,,,,,,,,,,
,2023-09-27_18h33.56.573,slotMachine_updated,2023.1.3,MacIntel,60.06006006,,,,,,,,,168.507,space,0.4729,,,,,,,,,,,,,,,,,,,,,,,,,,,,,,,,,,,,,,,,,,,,,,,,,,,,,,,,,,,,
,2023-09-27_18h33.56.573,slotMachine_updated,2023.1.3,MacIntel,60.06006006,,,,,,,,,,,,,"[9,15]","[[2,1,3],[2,3,1]]",168.9961,left,2.4189,,0.5,,stimuli/card_100_transparent.png,100,100,0,0,0,0,1,,,,,,,,,,,,,,,,,,,,,,,,,,,,,,,,,,,,,,,,,,,
,2023-09-27_18h33.56.573,slotMachine_updated,2023.1.3,MacIntel,60.06006006,,,,,,,,,,,,,,,172.273,up,0.6829,,1,,stimuli/card_100_transparent.png,200,100,1,0,1,0,1,,,,,,,,,,,,,,,,,,,,,,,,,,,,,,,,,,,,,,,,,,,
,2023-09-27_18h33.56.573,slotMachine_updated,2023.1.3,MacIntel,60.06006006,,,,,,,,,,,,,,,174.288,up,0.0416,,1.5,,stimuli/card_100_transparent.png,300,100,2,0,2,0,1,,,,,,,,,,,,,,,,,,,,,,,,,,,,,,,,,,,,,,,,,,,
,2023-09-27_18h33.56.573,slotMachine_updated,2023.1.3,MacIntel,60.06006006,,,,,,,,,,,,,,,176.1508,up,1.2072,,0.5,,stimuli/card_100_transparent.png,400,100,3,0,3,0,1,,,,,,,,,,,,,,,,,,,,,,,,,,,,,,,,,,,,,,,,,,,
,2023-09-27_18h33.56.573,slotMachine_updated,2023.1.3,MacIntel,60.06006006,,,,,,,,,,,,,,,178.1865,up,0.0888,,1.5,,stimuli/card_100_transparent.png,500,100,4,0,4,0,1,,,,,,,,,,,,,,,,,,,,,,,,,,,,,,,,,,,,,,,,,,,
,2023-09-27_18h33.56.573,slotMachine_updated,2023.1.3,MacIntel,60.06006006,,,,,,,,,,,,,,,180.1006,up,0.0017,,1,,stimuli/card_10_transparent.png,510,10,5,0,5,0,1,,,,,,,,,,,,,,,,,,,,,,,,,,,,,,,,,,,,,,,,,,,
,2023-09-27_18h33.56.573,slotMachine_updated,2023.1.3,MacIntel,60.06006006,,,,,,,,,,,,,,,181.4147,up,0.4208,,1.5,,stimuli/card_100_transparent.png,610,100,6,0,6,0,1,,,,,,,,,,,,,,,,,,,,,,,,,,,,,,,,,,,,,,,,,,,
,2023-09-27_18h33.56.573,slotMachine_updated,2023.1.3,MacIntel,60.06006006,,,,,,,,,,,,,,,183.6647,up,0.0009,,1.5,,stimuli/card_100_transparent.png,710,100,7,0,7,0,1,,,,,,,,,,,,,,,,,,,,,,,,,,,,,,,,,,,,,,,,,,,
,2023-09-27_18h33.56.573,slotMachine_updated,2023.1.3,MacIntel,60.06006006,,,,,,,,,,,,,,,185.479,up,0.2233,,0.5,,stimuli/card_100_transparent.png,810,100,8,0,8,0,1,,,,,,,,,,,,,,,,,,,,,,,,,,,,,,,,,,,,,,,,,,,
,2023-09-27_18h33.56.573,slotMachine_updated,2023.1.3,MacIntel,60.06006006,,,,,,,,,,,,,,,186.5183,up,0.2598,,1.5,,stimuli/card_10_transparent.png,820,10,9,0,9,0,1,,,,,,,,,,,,,,,,,,,,,,,,,,,,,,,,,,,,,,,,,,,
,2023-09-27_18h33.56.573,slotMachine_updated,2023.1.3,MacIntel,60.06006006,,,,,,,,,,,,,,,188.5999,up,0.0736,,0.5,,stimuli/card_0_transparent.png,820,0,10,0,10,0,1,,,,,,,,,,,,,,,,,,,,,,,,,,,,,,,,,,,,,,,,,,,
,2023-09-27_18h33.56.573,slotMachine_updated,2023.1.3,MacIntel,60.06006006,,,,,,,,,,,,,,,189.4996,right,0.2114,,1,,stimuli/card_100_transparent.png,920,100,11,0,11,0,1,,,,,,,,,,,,,,,,,,,,,,,,,,,,,,,,,,,,,,,,,,,
,2023-09-27_18h33.56.573,slotMachine_updated,2023.1.3,MacIntel,60.06006006,,,,,,,,,,,,,,,191.0304,right,0.1037,,1,,stimuli/card_100_transparent.png,1020,100,12,0,12,0,1,,,,,,,,,,,,,,,,,,,,,,,,,,,,,,,,,,,,,,,,,,,
,2023-09-27_18h33.56.573,slotMachine_updated,2023.1.3,MacIntel,60.06006006,,,,,,,,,,,,,,,192.4682,right,0.0473,,1.5,,stimuli/card_100_transparent.png,1120,100,13,0,13,0,1,,,,,,,,,,,,,,,,,,,,,,,,,,,,,,,,,,,,,,,,,,,
,2023-09-27_18h33.56.573,slotMachine_updated,2023.1.3,MacIntel,60.06006006,,,,,,,,,,,,,,,194.3451,right,0.0237,,1.5,,stimuli/card_0_transparent.png,1120,0,14,0,14,0,1,,,,,,,,,,,,,,,,,,,,,,,,,,,,,,,,,,,,,,,,,,,
,2023-09-27_18h33.56.573,slotMachine_updated,2023.1.3,MacIntel,60.06006006,,,,,,,,,,,,,,,,,,,,,,,,,,,,,,196.194,0,0,0,0,1,,,,,,,,,,,,,,,,,,,,,,,,,,,,,,,,,,,,
,2023-09-27_18h33.56.573,slotMachine_updated,2023.1.3,MacIntel,60.06006006,,,,,,,,,,,,,"[6,15]","[[1,3,2],[3,1,2]]",,,,,,,,,,,,,,,,,,,,,,,,,,,,,,,,,,,,,,,,,,,,,,,,,,,,,,,,,
,2023-09-27_18h33.56.573,slotMachine_updated,2023.1.3,MacIntel,60.06006006,,,,,,,,,,,,,,,201.1951,left,1.8129,,1,,stimuli/card_100_transparent.png,100,100,0,0,0,0,1,,,,,,,,,,,,,,,,,,,,,,,,,,,,,,,,,,,,,,,,,,,
,2023-09-27_18h33.56.573,slotMachine_updated,2023.1.3,MacIntel,60.06006006,,,,,,,,,,,,,,,204.3373,left,0.4004,,1.5,,stimuli/card_100_transparent.png,200,100,1,0,1,0,1,,,,,,,,,,,,,,,,,,,,,,,,,,,,,,,,,,,,,,,,,,,
,2023-09-27_18h33.56.573,slotMachine_updated,2023.1.3,MacIntel,60.06006006,,,,,,,,,,,,,,,206.5566,left,0.5222,,1.5,,stimuli/card_100_transparent.png,300,100,2,0,2,0,1,,,,,,,,,,,,,,,,,,,,,,,,,,,,,,,,,,,,,,,,,,,
,2023-09-27_18h33.56.573,slotMachine_updated,2023.1.3,MacIntel,60.06006006,,,,,,,,,,,,,,,208.9023,left,2.5732,,1,,stimuli/card_100_transparent.png,400,100,3,0,3,0,1,,,,,,,,,,,,,,,,,,,,,,,,,,,,,,,,,,,,,,,,,,,
,2023-09-27_18h33.56.573,slotMachine_updated,2023.1.3,MacIntel,60.06006006,,,,,,,,,,,,,,,212.8012,left,0.0594,,1.5,,stimuli/card_100_transparent.png,500,100,4,0,4,0,1,,,,,,,,,,,,,,,,,,,,,,,,,,,,,,,,,,,,,,,,,,,
,2023-09-27_18h33.56.573,slotMachine_updated,2023.1.3,MacIntel,60.06006006,,,,,,,,,,,,,,,214.6806,left,0.5627,,0.5,,stimuli/card_100_transparent.png,600,100,5,0,5,0,1,,,,,,,,,,,,,,,,,,,,,,,,,,,,,,,,,,,,,,,,,,,
,2023-09-27_18h33.56.573,slotMachine_updated,2023.1.3,MacIntel,60.06006006,,,,,,,,,,,,,,,216.0633,left,3.7253,,1,,stimuli/card_0_transparent.png,600,0,6,0,6,0,1,,,,,,,,,,,,,,,,,,,,,,,,,,,,,,,,,,,,,,,,,,,
,2023-09-27_18h33.56.573,slotMachine_updated,2023.1.3,MacIntel,60.06006006,,,,,,,,,,,,,,,221.1158,up,0.1163,,1,,stimuli/card_100_transparent.png,700,100,7,0,7,0,1,,,,,,,,,,,,,,,,,,,,,,,,,,,,,,,,,,,,,,,,,,,
,2023-09-27_18h33.56.573,slotMachine_updated,2023.1.3,MacIntel,60.06006006,,,,,,,,,,,,,,,222.5458,up,0.3625,,1,,stimuli/card_100_transparent.png,800,100,8,0,8,0,1,,,,,,,,,,,,,,,,,,,,,,,,,,,,,,,,,,,,,,,,,,,
,2023-09-27_18h33.56.573,slotMachine_updated,2023.1.3,MacIntel,60.06006006,,,,,,,,,,,,,,,224.2275,up,0.0745,,0.5,,stimuli/card_100_transparent.png,900,100,9,0,9,0,1,,,,,,,,,,,,,,,,,,,,,,,,,,,,,,,,,,,,,,,,,,,
,2023-09-27_18h33.56.573,slotMachine_updated,2023.1.3,MacIntel,60.06006006,,,,,,,,,,,,,,,225.1295,up,0.056,,1,,stimuli/card_100_transparent.png,1000,100,10,0,10,0,1,,,,,,,,,,,,,,,,,,,,,,,,,,,,,,,,,,,,,,,,,,,
,2023-09-27_18h33.56.573,slotMachine_updated,2023.1.3,MacIntel,60.06006006,,,,,,,,,,,,,,,226.5092,up,0.3106,,0.5,,stimuli/card_0_transparent.png,1000,0,11,0,11,0,1,,,,,,,,,,,,,,,,,,,,,,,,,,,,,,,,,,,,,,,,,,,
,2023-09-27_18h33.56.573,slotMachine_updated,2023.1.3,MacIntel,60.06006006,,,,,,,,,,,,,,,227.6511,up,0.0457,,1,,stimuli/card_100_transparent.png,1100,100,12,0,12,0,1,,,,,,,,,,,,,,,,,,,,,,,,,,,,,,,,,,,,,,,,,,,
,2023-09-27_18h33.56.573,slotMachine_updated,2023.1.3,MacIntel,60.06006006,,,,,,,,,,,,,,,229.0146,up,0.026,,0.5,,stimuli/card_100_transparent.png,1200,100,13,0,13,0,1,,,,,,,,,,,,,,,,,,,,,,,,,,,,,,,,,,,,,,,,,,,
,2023-09-27_18h33.56.573,slotMachine_updated,2023.1.3,MacIntel,60.06006006,,,,,,,,,,,,,,,229.8654,up,0.0241,,0.5,,stimuli/card_100_transparent.png,1300,100,14,0,14,0,1,,,,,,,,,,,,,,,,,,,,,,,,,,,,,,,,,,,,,,,,,,,
,2023-09-27_18h33.56.573,slotMachine_updated,2023.1.3,MacIntel,60.06006006,,,,,,,,,,,,,,,,,,,,,,,,,,,,,,,,,,,,,,230.7139,space,1.0604,,,,,,,,,,,,,,,,,,,,,,,,,,,,,,,
,2023-09-27_18h33.56.573,slotMachine_updated,2023.1.3,MacIntel,60.06006006,,,,,,,,,,,,,,,,,,,,,,,,,,,,,,,,,,,,,,,,,,231.7981,3,"[0,4,6,3,5,7,8,1,9,2]",231.7981,space,0.9626,,,,,,,,,,,,,,,,,,,,,,,,
,2023-09-27_18h33.56.573,slotMachine_updated,2023.1.3,MacIntel,60.06006006,,,,,,,,,,,,,,,,,,,,,,,,,,,,,,,,,,,,,,,,,,,,,,,,,"[[12,15],[6,15],[15,15],[7,15],[5,15],[4,10,15],[9,15],[11,15],[8,15],[10,15]]","[12,15]","[[2,1,3],[2,3,1]]",232.7838,up,2.0943,,1.5,"[2,1,3]",0.405431412,stimuli/card_100_transparent.png,100,100,0,0,0,0,1,,,,,
,2023-09-27_18h33.56.573,slotMachine_updated,2023.1.3,MacIntel,60.06006006,,,,,,,,,,,,,,,,,,,,,,,,,,,,,,,,,,,,,,,,,,,,,,,,,,,,236.7302,right,0.4988,,1.5,"[2,1,3]",0.076219004,stimuli/card_100_transparent.png,200,100,1,0,1,0,1,,,,,
,2023-09-27_18h33.56.573,slotMachine_updated,2023.1.3,MacIntel,60.06006006,,,,,,,,,,,,,,,,,,,,,,,,,,,,,,,,,,,,,,,,,,,,,,,,,,,,239.0449,right,0.4682,,1.5,"[2,1,3]",0.408800197,stimuli/card_0_transparent.png,200,0,2,0,2,0,1,,,,,
,2023-09-27_18h33.56.573,slotMachine_updated,2023.1.3,MacIntel,60.06006006,,,,,,,,,,,,,,,,,,,,,,,,,,,,,,,,,,,,,,,,,,,,,,,,,,,,241.3404,up,0.5513,,0.5,"[2,1,3]",0.960092624,stimuli/card_100_transparent.png,300,100,3,0,3,0,1,,,,,
,2023-09-27_18h33.56.573,slotMachine_updated,2023.1.3,MacIntel,60.06006006,,,,,,,,,,,,,,,,,,,,,,,,,,,,,,,,,,,,,,,,,,,,,,,,,,,,242.7054,up,1.065,,1,"[2,1,3]",0.323801067,stimuli/card_100_transparent.png,400,100,4,0,4,0,1,,,,,
,2023-09-27_18h33.56.573,slotMachine_updated,2023.1.3,MacIntel,60.06006006,,,,,,,,,,,,,,,,,,,,,,,,,,,,,,,,,,,,,,,,,,,,,,,,,,,,245.0867,up,1.6625,,1,"[2,1,3]",0.74718766,stimuli/card_100_transparent.png,500,100,5,0,5,0,1,,,,,
,2023-09-27_18h33.56.573,slotMachine_updated,2023.1.3,MacIntel,60.06006006,,,,,,,,,,,,,,,,,,,,,,,,,,,,,,,,,,,,,,,,,,,,,,,,,,,,248.0712,up,1.2058,,1.5,"[2,1,3]",0.402223996,stimuli/card_100_transparent.png,600,100,6,0,6,0,1,,,,,
,2023-09-27_18h33.56.573,slotMachine_updated,2023.1.3,MacIntel,60.06006006,,,,,,,,,,,,,,,,,,,,,,,,,,,,,,,,,,,,,,,,,,,,,,,,,,,,251.1022,up,1.5118,,1.5,"[2,1,3]",0.644096662,stimuli/card_100_transparent.png,700,100,7,0,7,0,1,,,,,
,2023-09-27_18h33.56.573,slotMachine_updated,2023.1.3,MacIntel,60.06006006,,,,,,,,,,,,,,,,,,,,,,,,,,,,,,,,,,,,,,,,,,,,,,,,,,,,254.4158,up,0.4098,,0.5,"[2,1,3]",0.989436153,stimuli/card_100_transparent.png,800,100,8,0,8,0,1,,,,,
,2023-09-27_18h33.56.573,slotMachine_updated,2023.1.3,MacIntel,60.06006006,,,,,,,,,,,,,,,,,,,,,,,,,,,,,,,,,,,,,,,,,,,,,,,,,,,,255.6472,up,2.1989,,0.5,"[2,1,3]",0.429022887,stimuli/card_100_transparent.png,900,100,9,0,9,0,1,,,,,
,2023-09-27_18h33.56.573,slotMachine_updated,2023.1.3,MacIntel,60.06006006,,,,,,,,,,,,,,,,,,,,,,,,,,,,,,,,,,,,,,,,,,,,,,,,,,,,258.6829,up,0.519,,1.5,"[2,1,3]",0.914633181,stimuli/card_100_transparent.png,1000,100,10,0,10,0,1,,,,,
,2023-09-27_18h33.56.573,slotMachine_updated,2023.1.3,MacIntel,60.06006006,,,,,,,,,,,,,,,,,,,,,,,,,,,,,,,,,,,,,,,,,,,,,,,,,,,,261.0121,up,1.75,,0.5,"[2,1,3]",0.847754263,stimuli/card_100_transparent.png,1100,100,11,0,11,0,1,,,,,
,2023-09-27_18h33.56.573,slotMachine_updated,2023.1.3,MacIntel,60.06006006,,,,,,,,,,,,,,,,,,,,,,,,,,,,,,,,,,,,,,,,,,,,,,,,,,,,263.5776,up,2.6254,,0.5,"[2,3,1]",0.171240682,stimuli/card_10_transparent.png,1110,10,12,0,12,0,1,,,,,
,2023-09-27_18h33.56.573,slotMachine_updated,2023.1.3,MacIntel,60.06006006,,,,,,,,,,,,,,,,,,,,,,,,,,,,,,,,,,,,,,,,,,,,,,,,,,,,267.0266,right,0.6171,,1.5,"[2,3,1]",0.676671172,stimuli/card_100_transparent.png,1210,100,13,0,13,0,1,,,,,
,2023-09-27_18h33.56.573,slotMachine_updated,2023.1.3,MacIntel,60.06006006,,,,,,,,,,,,,,,,,,,,,,,,,,,,,,,,,,,,,,,,,,,,,,,,,,,,269.4576,right,0.7327,,1,"[2,3,1]",0.840026025,stimuli/card_100_transparent.png,1310,100,14,0,14,0,1,,,,,
,2023-09-27_18h33.56.573,slotMachine_updated,2023.1.3,MacIntel,60.06006006,,,,,,,,,,,,,,,,,,,,,,,,,,,,,,271.5049,,,,,,,,,,,,,,,,,,,,,,,,,,,,,,,,,,,,,0,0,0,0,1
,2023-09-27_18h33.56.573,slotMachine_updated,2023.1.3,MacIntel,60.06006006,,,,,,,,,,,,,,,,,,,,,,,,,,,,,,,,,,,,,,,,,,,,,,,,,"[[15],[6,15],[15,15],[7,15],[5,15],[4,10,15],[9,15],[11,15],[8,15],[10,15]]","[5,15]","[[1,2,3],[3,1,2]]",276.5041,left,0.7431,,1.5,"[1,2,3]",0.696977241,stimuli/card_100_transparent.png,100,100,0,0,0,0,1,,,,,
,2023-09-27_18h33.56.573,slotMachine_updated,2023.1.3,MacIntel,60.06006006,,,,,,,,,,,,,,,,,,,,,,,,,,,,,,,,,,,,,,,,,,,,,,,,,,,,279.0686,left,0.3945,,0.5,"[1,2,3]",0.215027763,stimuli/card_100_transparent.png,200,100,1,0,1,0,1,,,,,
,2023-09-27_18h33.56.573,slotMachine_updated,2023.1.3,MacIntel,60.06006006,,,,,,,,,,,,,,,,,,,,,,,,,,,,,,,,,,,,,,,,,,,,,,,,,,,,280.2827,left,0.8492,,1.5,"[1,2,3]",0.89176216,stimuli/card_100_transparent.png,300,100,2,0,2,0,1,,,,,
,2023-09-27_18h33.56.573,slotMachine_updated,2023.1.3,MacIntel,60.06006006,,,,,,,,,,,,,,,,,,,,,,,,,,,,,,,,,,,,,,,,,,,,,,,,,,,,282.9473,left,2.6096,,1,"[1,2,3]",0.361244578,stimuli/card_100_transparent.png,400,100,3,0,3,0,1,,,,,
,2023-09-27_18h33.56.573,slotMachine_updated,2023.1.3,MacIntel,60.06006006,,,,,,,,,,,,,,,,,,,,,,,,,,,,,,,,,,,,,,,,,,,,,,,,,,,,286.8778,left,0.2473,,1,"[1,2,3]",0.65776042,stimuli/card_100_transparent.png,500,100,4,0,4,0,1,,,,,
,2023-09-27_18h33.56.573,slotMachine_updated,2023.1.3,MacIntel,60.06006006,,,,,,,,,,,,,,,,,,,,,,,,,,,,,,,,,,,,,,,,,,,,,,,,,,,,288.4443,left,1.258,,1,"[3,1,2]",0.219355117,stimuli/card_0_transparent.png,500,0,5,0,5,0,1,,,,,
,2023-09-27_18h33.56.573,slotMachine_updated,2023.1.3,MacIntel,60.06006006,,,,,,,,,,,,,,,,,,,,,,,,,,,,,,,,,,,,,,,,,,,,,,,,,,,,291.0238,left,0.512,,1.5,"[3,1,2]",0.132219764,stimuli/card_10_transparent.png,510,10,6,0,6,0,1,,,,,
,2023-09-27_18h33.56.573,slotMachine_updated,2023.1.3,MacIntel,60.06006006,,,,,,,,,,,,,,,,,,,,,,,,,,,,,,,,,,,,,,,,,,,,,,,,,,,,293.3543,left,0.4245,,0.5,"[3,1,2]",0.76303705,stimuli/card_0_transparent.png,510,0,7,0,7,0,1,,,,,
,2023-09-27_18h33.56.573,slotMachine_updated,2023.1.3,MacIntel,60.06006006,,,,,,,,,,,,,,,,,,,,,,,,,,,,,,,,,,,,,,,,,,,,,,,,,,,,294.6045,left,2.4966,,1.5,"[3,1,2]",0.367798821,stimuli/card_0_transparent.png,510,0,8,0,8,0,1,,,,,
,2023-09-27_18h33.56.573,slotMachine_updated,2023.1.3,MacIntel,60.06006006,,,,,,,,,,,,,,,,,,,,,,,,,,,,,,,,,,,,,,,,,,,,,,,,,,,,298.9198,left,0.1239,,0.5,"[3,1,2]",0.754688097,stimuli/card_0_transparent.png,510,0,9,0,9,0,1,,,,,
,2023-09-27_18h33.56.573,slotMachine_updated,2023.1.3,MacIntel,60.06006006,,,,,,,,,,,,,,,,,,,,,,,,,,,,,,,,,,,,,,,,,,,,,,,,,,,,299.8535,left,1.8836,,1,"[3,1,2]",0.579378106,stimuli/card_0_transparent.png,510,0,10,0,10,0,1,,,,,
,2023-09-27_18h33.56.573,slotMachine_updated,2023.1.3,MacIntel,60.06006006,,,,,,,,,,,,,,,,,,,,,,,,,,,,,,,,,,,,,,,,,,,,,,,,,,,,303.0506,left,1.4969,,0.5,"[3,1,2]",0.375437373,stimuli/card_0_transparent.png,510,0,11,0,11,0,1,,,,,
,2023-09-27_18h33.56.573,slotMachine_updated,2023.1.3,MacIntel,60.06006006,,,,,,,,,,,,,,,,,,,,,,,,,,,,,,,,,,,,,,,,,,,,,,,,,,,,305.363,left,1.6251,,0.5,"[3,1,2]",0.285093335,stimuli/card_0_transparent.png,510,0,12,0,12,0,1,,,,,
,2023-09-27_18h33.56.573,slotMachine_updated,2023.1.3,MacIntel,60.06006006,,,,,,,,,,,,,,,,,,,,,,,,,,,,,,,,,,,,,,,,,,,,,,,,,,,,307.7995,right,0.0516,,0.5,"[3,1,2]",0.796533558,stimuli/card_10_transparent.png,520,10,13,0,13,0,1,,,,,
,2023-09-27_18h33.56.573,slotMachine_updated,2023.1.3,MacIntel,60.06006006,,,,,,,,,,,,,,,,,,,,,,,,,,,,,,,,,,,,,,,,,,,,,,,,,,,,308.6679,up,0.4743,,1,"[3,1,2]",0.3514576,stimuli/card_100_transparent.png,620,100,14,0,14,0,1,,,,,
,2023-09-27_18h33.56.573,slotMachine_updated,2023.1.3,MacIntel,60.06006006,,,,,,,,,,,,,,,,,,,,,,,,,,,,,,310.465,,,,,,,,,,,,,,,,,,,,,,,,,,,,,,,,,,,,,1,0,1,0,1
,2023-09-27_18h33.56.573,slotMachine_updated,2023.1.3,MacIntel,60.06006006,,,,,,,,,,,,,,,,,,,,,,,,,,,,,,,,,,,,,,,,,,,,,,,,,"[[15],[6,15],[15,15],[7,15],[15],[4,10,15],[9,15],[11,15],[8,15],[10,15]]","[9,15]","[[1,3,2],[2,3,1]]",315.4632,up,1.1769,,1,"[1,3,2]",0.295306262,stimuli/card_0_transparent.png,0,0,0,0,0,0,1,,,,,
,2023-09-27_18h33.56.573,slotMachine_updated,2023.1.3,MacIntel,60.06006006,,,,,,,,,,,,,,,,,,,,,,,,,,,,,,,,,,,,,,,,,,,,,,,,,,,,317.9762,up,0.6971,,1.5,"[1,3,2]",0.511960273,stimuli/card_0_transparent.png,0,0,1,0,1,0,1,,,,,
,2023-09-27_18h33.56.573,slotMachine_updated,2023.1.3,MacIntel,60.06006006,,,,,,,,,,,,,,,,,,,,,,,,,,,,,,,,,,,,,,,,,,,,,,,,,,,,320.4921,up,0.7694,,1,"[1,3,2]",0.045980227,stimuli/card_100_transparent.png,100,100,2,0,2,0,1,,,,,
,2023-09-27_18h33.56.573,slotMachine_updated,2023.1.3,MacIntel,60.06006006,,,,,,,,,,,,,,,,,,,,,,,,,,,,,,,,,,,,,,,,,,,,,,,,,,,,322.5737,right,1.1616,,1,"[1,3,2]",0.073243938,stimuli/card_0_transparent.png,100,0,3,0,3,0,1,,,,,
,2023-09-27_18h33.56.573,slotMachine_updated,2023.1.3,MacIntel,60.06006006,,,,,,,,,,,,,,,,,,,,,,,,,,,,,,,,,,,,,,,,,,,,,,,,,,,,325.0536,right,0.897,,1,"[1,3,2]",0.749971294,stimuli/card_10_transparent.png,110,10,4,0,4,0,1,,,,,
,2023-09-27_18h33.56.573,slotMachine_updated,2023.1.3,MacIntel,60.06006006,,,,,,,,,,,,,,,,,,,,,,,,,,,,,,,,,,,,,,,,,,,,,,,,,,,,327.2722,right,1.0565,,1.5,"[1,3,2]",0.830934349,stimuli/card_10_transparent.png,120,10,5,0,5,0,1,,,,,
,2023-09-27_18h33.56.573,slotMachine_updated,2023.1.3,MacIntel,60.06006006,,,,,,,,,,,,,,,,,,,,,,,,,,,,,,,,,,,,,,,,,,,,,,,,,,,,330.1518,right,0.0072,,1.5,"[1,3,2]",0.128951084,stimuli/card_100_transparent.png,220,100,6,0,6,0,1,,,,,
,2023-09-27_18h33.56.573,slotMachine_updated,2023.1.3,MacIntel,60.06006006,,,,,,,,,,,,,,,,,,,,,,,,,,,,,,,,,,,,,,,,,,,,,,,,,,,,331.9868,right,0.5066,,0.5,"[1,3,2]",0.790279381,stimuli/card_10_transparent.png,230,10,7,0,7,0,1,,,,,
,2023-09-27_18h33.56.573,slotMachine_updated,2023.1.3,MacIntel,60.06006006,,,,,,,,,,,,,,,,,,,,,,,,,,,,,,,,,,,,,,,,,,,,,,,,,,,,333.3164,right,0.4768,,1.5,"[1,3,2]",0.262988241,stimuli/card_10_transparent.png,240,10,8,0,8,0,1,,,,,
,2023-09-27_18h33.56.573,slotMachine_updated,2023.1.3,MacIntel,60.06006006,,,,,,,,,,,,,,,,,,,,,,,,,,,,,,,,,,,,,,,,,,,,,,,,,,,,335.613,right,2.3604,,1,"[2,3,1]",0.366146973,stimuli/card_100_transparent.png,340,100,9,0,9,0,1,,,,,
,2023-09-27_18h33.56.573,slotMachine_updated,2023.1.3,MacIntel,60.06006006,,,,,,,,,,,,,,,,,,,,,,,,,,,,,,,,,,,,,,,,,,,,,,,,,,,,339.2987,right,0.4758,,1,"[2,3,1]",0.511314549,stimuli/card_100_transparent.png,440,100,10,0,10,0,1,,,,,
,2023-09-27_18h33.56.573,slotMachine_updated,2023.1.3,MacIntel,60.06006006,,,,,,,,,,,,,,,,,,,,,,,,,,,,,,,,,,,,,,,,,,,,,,,,,,,,341.0969,right,0.1344,,1,"[2,3,1]",0.890238986,stimuli/card_100_transparent.png,540,100,11,0,11,0,1,,,,,
,2023-09-27_18h33.56.573,slotMachine_updated,2023.1.3,MacIntel,60.06006006,,,,,,,,,,,,,,,,,,,,,,,,,,,,,,,,,,,,,,,,,,,,,,,,,,,,342.5465,right,0.1284,,0.5,"[2,3,1]",0.560485392,stimuli/card_100_transparent.png,640,100,12,0,12,0,1,,,,,
,2023-09-27_18h33.56.573,slotMachine_updated,2023.1.3,MacIntel,60.06006006,,,,,,,,,,,,,,,,,,,,,,,,,,,,,,,,,,,,,,,,,,,,,,,,,,,,343.4967,right,0.3921,,0.5,"[2,3,1]",0.201312725,stimuli/card_100_transparent.png,740,100,13,0,13,0,1,,,,,
,2023-09-27_18h33.56.573,slotMachine_updated,2023.1.3,MacIntel,60.06006006,,,,,,,,,,,,,,,,,,,,,,,,,,,,,,,,,,,,,,,,,,,,,,,,,,,,344.7123,right,0.2231,,1.5,"[2,3,1]",0.017085885,stimuli/card_0_transparent.png,740,0,14,0,14,0,1,,,,,
,2023-09-27_18h33.56.573,slotMachine_updated,2023.1.3,MacIntel,60.06006006,,,,,,,,,,,,,,,,,,,,,,,,,,,,,,346.7603,,,,,,,,,,,,,,,,,,,,,,,,,,,,,,,,,,,,,2,0,2,0,1
,2023-09-27_18h33.56.573,slotMachine_updated,2023.1.3,MacIntel,60.06006006,,,,,,,,,,,,,,,,,,,,,,,,,,,,,,,,,,,,,,,,,,,,,,,,,"[[15],[6,15],[15,15],[7,15],[15],[4,10,15],[15],[11,15],[8,15],[10,15]]","[7,15]","[[2,3,1],[1,2,3]]",351.7586,up,0.3819,,1,"[2,3,1]",0.629701003,stimuli/card_0_transparent.png,0,0,0,0,0,0,1,,,,,
,2023-09-27_18h33.56.573,slotMachine_updated,2023.1.3,MacIntel,60.06006006,,,,,,,,,,,,,,,,,,,,,,,,,,,,,,,,,,,,,,,,,,,,,,,,,,,,353.4875,up,0.4652,,1,"[2,3,1]",0.908863333,stimuli/card_0_transparent.png,0,0,1,0,1,0,1,,,,,
,2023-09-27_18h33.56.573,slotMachine_updated,2023.1.3,MacIntel,60.06006006,,,,,,,,,,,,,,,,,,,,,,,,,,,,,,,,,,,,,,,,,,,,,,,,,,,,355.271,right,0.3337,,1,"[2,3,1]",0.492692842,stimuli/card_100_transparent.png,100,100,2,0,2,0,1,,,,,
,2023-09-27_18h33.56.573,slotMachine_updated,2023.1.3,MacIntel,60.06006006,,,,,,,,,,,,,,,,,,,,,,,,,,,,,,,,,,,,,,,,,,,,,,,,,,,,356.9188,right,0.0141,,1,"[2,3,1]",0.17780817,stimuli/card_10_transparent.png,110,10,3,0,3,0,1,,,,,
,2023-09-27_18h33.56.573,slotMachine_updated,2023.1.3,MacIntel,60.06006006,,,,,,,,,,,,,,,,,,,,,,,,,,,,,,,,,,,,,,,,,,,,,,,,,,,,358.2541,right,0.0492,,0.5,"[2,3,1]",0.180422307,stimuli/card_10_transparent.png,120,10,4,0,4,0,1,,,,,
,2023-09-27_18h33.56.573,slotMachine_updated,2023.1.3,MacIntel,60.06006006,,,,,,,,,,,,,,,,,,,,,,,,,,,,,,,,,,,,,,,,,,,,,,,,,,,,359.1353,right,0.2327,,0.5,"[2,3,1]",0.717612455,stimuli/card_100_transparent.png,220,100,5,0,5,0,1,,,,,
,2023-09-27_18h33.56.573,slotMachine_updated,2023.1.3,MacIntel,60.06006006,,,,,,,,,,,,,,,,,,,,,,,,,,,,,,,,,,,,,,,,,,,,,,,,,,,,360.2008,right,0.2268,,1.5,"[2,3,1]",0.270315188,stimuli/card_100_transparent.png,320,100,6,0,6,0,1,,,,,
,2023-09-27_18h33.56.573,slotMachine_updated,2023.1.3,MacIntel,60.06006006,,,,,,,,,,,,,,,,,,,,,,,,,,,,,,,,,,,,,,,,,,,,,,,,,,,,362.2821,right,0.6929,,1,"[1,2,3]",0.443634112,stimuli/card_0_transparent.png,320,0,7,0,7,0,1,,,,,
,2023-09-27_18h33.56.573,slotMachine_updated,2023.1.3,MacIntel,60.06006006,,,,,,,,,,,,,,,,,,,,,,,,,,,,,,,,,,,,,,,,,,,,,,,,,,,,364.2961,right,0.1652,,0.5,"[1,2,3]",0.212631617,stimuli/card_0_transparent.png,320,0,8,0,8,0,1,,,,,
,2023-09-27_18h33.56.573,slotMachine_updated,2023.1.3,MacIntel,60.06006006,,,,,,,,,,,,,,,,,,,,,,,,,,,,,,,,,,,,,,,,,,,,,,,,,,,,365.2793,left,0.3483,,1.5,"[1,2,3]",0.525814823,stimuli/card_100_transparent.png,420,100,9,0,9,0,1,,,,,
,2023-09-27_18h33.56.573,slotMachine_updated,2023.1.3,MacIntel,60.06006006,,,,,,,,,,,,,,,,,,,,,,,,,,,,,,,,,,,,,,,,,,,,,,,,,,,,367.4522,left,0.3637,,0.5,"[1,2,3]",0.886044423,stimuli/card_100_transparent.png,520,100,10,0,10,0,1,,,,,
,2023-09-27_18h33.56.573,slotMachine_updated,2023.1.3,MacIntel,60.06006006,,,,,,,,,,,,,,,,,,,,,,,,,,,,,,,,,,,,,,,,,,,,,,,,,,,,368.6339,left,1.2547,,1.5,"[1,2,3]",0.661078895,stimuli/card_100_transparent.png,620,100,11,0,11,0,1,,,,,
,2023-09-27_18h33.56.573,slotMachine_updated,2023.1.3,MacIntel,60.06006006,,,,,,,,,,,,,,,,,,,,,,,,,,,,,,,,,,,,,,,,,,,,,,,,,,,,371.715,left,1.1269,,1,"[1,2,3]",0.698987428,stimuli/card_100_transparent.png,720,100,12,0,12,0,1,,,,,
,2023-09-27_18h33.56.573,slotMachine_updated,2023.1.3,MacIntel,60.06006006,,,,,,,,,,,,,,,,,,,,,,,,,,,,,,,,,,,,,,,,,,,,,,,,,,,,374.1624,left,3.3618,,1,"[1,2,3]",0.128800178,stimuli/card_10_transparent.png,730,10,13,0,13,0,1,,,,,
,2023-09-27_18h33.56.573,slotMachine_updated,2023.1.3,MacIntel,60.06006006,,,,,,,,,,,,,,,,,,,,,,,,,,,,,,,,,,,,,,,,,,,,,,,,,,,,378.8445,left,0.3908,,0.5,"[1,2,3]",0.997651887,stimuli/card_100_transparent.png,830,100,14,0,14,0,1,,,,,
,2023-09-27_18h33.56.573,slotMachine_updated,2023.1.3,MacIntel,60.06006006,,,,,,,,,,,,,,,,,,,,,,,,,,,,,,380.06,,,,,,,,,,,,,,,,,,,,,,,,,,,,,,,,,,,,,3,0,3,0,1
,2023-09-27_18h33.56.573,slotMachine_updated,2023.1.3,MacIntel,60.06006006,,,,,,,,,,,,,,,,,,,,,,,,,,,,,,,,,,,,,,,,,,,,,,,,,"[[15],[6,15],[15,15],[15],[15],[4,10,15],[15],[11,15],[8,15],[10,15]]","[4,10,15]","[[2,3,1],[1,3,2],[3,2,1]]",385.0581,right,0.6672,,1,"[2,3,1]",0.975057898,stimuli/card_100_transparent.png,100,100,0,0,0,0,1,,,,,
,2023-09-27_18h33.56.573,slotMachine_updated,2023.1.3,MacIntel,60.06006006,,,,,,,,,,,,,,,,,,,,,,,,,,,,,,,,,,,,,,,,,,,,,,,,,,,,387.07,right,1.6913,,1,"[2,3,1]",0.904640612,stimuli/card_100_transparent.png,200,100,1,0,1,0,1,,,,,
,2023-09-27_18h33.56.573,slotMachine_updated,2023.1.3,MacIntel,60.06006006,,,,,,,,,,,,,,,,,,,,,,,,,,,,,,,,,,,,,,,,,,,,,,,,,,,,390.0881,right,0.9959,,1.5,"[2,3,1]",0.374601752,stimuli/card_100_transparent.png,300,100,2,0,2,0,1,,,,,
,2023-09-27_18h33.56.573,slotMachine_updated,2023.1.3,MacIntel,60.06006006,,,,,,,,,,,,,,,,,,,,,,,,,,,,,,,,,,,,,,,,,,,,,,,,,,,,392.9,right,0.6117,,0.5,"[2,3,1]",0.205946725,stimuli/card_100_transparent.png,400,100,3,0,3,0,1,,,,,
,2023-09-27_18h33.56.573,slotMachine_updated,2023.1.3,MacIntel,60.06006006,,,,,,,,,,,,,,,,,,,,,,,,,,,,,,,,,,,,,,,,,,,,,,,,,,,,394.3318,right,3.395,,1.5,"[1,3,2]",0.570128806,stimuli/card_10_transparent.png,410,10,4,0,4,0,1,,,,,
,2023-09-27_18h33.56.573,slotMachine_updated,2023.1.3,MacIntel,60.06006006,,,,,,,,,,,,,,,,,,,,,,,,,,,,,,,,,,,,,,,,,,,,,,,,,,,,399.5486,right,2.0093,,0.5,"[1,3,2]",0.381825506,stimuli/card_10_transparent.png,420,10,5,0,5,0,1,,,,,
,2023-09-27_18h33.56.573,slotMachine_updated,2023.1.3,MacIntel,60.06006006,,,,,,,,,,,,,,,,,,,,,,,,,,,,,,,,,,,,,,,,,,,,,,,,,,,,402.3772,right,3.5817,,1,"[1,3,2]",0.263018927,stimuli/card_10_transparent.png,430,10,6,0,6,0,1,,,,,
,2023-09-27_18h33.56.573,slotMachine_updated,2023.1.3,MacIntel,60.06006006,,,,,,,,,,,,,,,,,,,,,,,,,,,,,,,,,,,,,,,,,,,,,,,,,,,,407.2736,right,1.6833,,1.5,"[1,3,2]",0.366359686,stimuli/card_10_transparent.png,440,10,7,0,7,0,1,,,,,
,2023-09-27_18h33.56.573,slotMachine_updated,2023.1.3,MacIntel,60.06006006,,,,,,,,,,,,,,,,,,,,,,,,,,,,,,,,,,,,,,,,,,,,,,,,,,,,410.7736,right,0.294,,0.5,"[1,3,2]",0.289087297,stimuli/card_10_transparent.png,450,10,8,0,8,0,1,,,,,
,2023-09-27_18h33.56.573,slotMachine_updated,2023.1.3,MacIntel,60.06006006,,,,,,,,,,,,,,,,,,,,,,,,,,,,,,,,,,,,,,,,,,,,,,,,,,,,411.8895,right,1.5293,,0.5,"[1,3,2]",0.472796255,stimuli/card_10_transparent.png,460,10,9,0,9,0,1,,,,,
,2023-09-27_18h33.56.573,slotMachine_updated,2023.1.3,MacIntel,60.06006006,,,,,,,,,,,,,,,,,,,,,,,,,,,,,,,,,,,,,,,,,,,,,,,,,,,,414.2382,right,1.2754,,0.5,"[3,2,1]",0.769845565,stimuli/card_100_transparent.png,560,100,10,0,10,0,1,,,,,
,2023-09-27_18h33.56.573,slotMachine_updated,2023.1.3,MacIntel,60.06006006,,,,,,,,,,,,,,,,,,,,,,,,,,,,,,,,,,,,,,,,,,,,,,,,,,,,416.3353,right,0.7057,,0.5,"[3,2,1]",0.536361015,stimuli/card_100_transparent.png,660,100,11,0,11,0,1,,,,,
,2023-09-27_18h33.56.573,slotMachine_updated,2023.1.3,MacIntel,60.06006006,,,,,,,,,,,,,,,,,,,,,,,,,,,,,,,,,,,,,,,,,,,,,,,,,,,,417.8693,right,1.354,,0.5,"[3,2,1]",0.638402224,stimuli/card_100_transparent.png,760,100,12,0,12,0,1,,,,,
,2023-09-27_18h33.56.573,slotMachine_updated,2023.1.3,MacIntel,60.06006006,,,,,,,,,,,,,,,,,,,,,,,,,,,,,,,,,,,,,,,,,,,,,,,,,,,,420.049,right,1.6286,,1.5,"[3,2,1]",0.093006406,stimuli/card_0_transparent.png,760,0,13,0,13,0,1,,,,,
,2023-09-27_18h33.56.573,slotMachine_updated,2023.1.3,MacIntel,60.06006006,,,,,,,,,,,,,,,,,,,,,,,,,,,,,,,,,,,,,,,,,,,,,,,,,,,,423.4971,right,0.0646,,0.5,"[3,2,1]",0.68055582,stimuli/card_100_transparent.png,860,100,14,0,14,0,1,,,,,
,2023-09-27_18h33.56.573,slotMachine_updated,2023.1.3,MacIntel,60.06006006,,,,,,,,,,,,,,,,,,,,,,,,,,,,,,424.3777,,,,,,,,,,,,,,,,,,,,,,,,,,,,,,,,,,,,,4,0,4,0,1
,2023-09-27_18h33.56.573,slotMachine_updated,2023.1.3,MacIntel,60.06006006,,,,,,,,,,,,,,,,,,,,,,,,,,,,,,,,,,,,,,,,,,,,,,,,,"[[15],[6,15],[15,15],[15],[15],[15],[15],[11,15],[8,15],[10,15]]","[11,15]","[[2,1,3],[1,2,3]]",429.3785,right,0.6664,,1.5,"[2,1,3]",0.39544421,stimuli/card_0_transparent.png,0,0,0,0,0,0,1,,,,,
,2023-09-27_18h33.56.573,slotMachine_updated,2023.1.3,MacIntel,60.06006006,,,,,,,,,,,,,,,,,,,,,,,,,,,,,,,,,,,,,,,,,,,,,,,,,,,,431.8761,right,0.4983,,1,"[2,1,3]",0.697394698,stimuli/card_0_transparent.png,0,0,1,0,1,0,1,,,,,
,2023-09-27_18h33.56.573,slotMachine_updated,2023.1.3,MacIntel,60.06006006,,,,,,,,,,,,,,,,,,,,,,,,,,,,,,,,,,,,,,,,,,,,,,,,,,,,433.692,up,0.4427,,0.5,"[2,1,3]",0.337761277,stimuli/card_100_transparent.png,100,100,2,0,2,0,1,,,,,
,2023-09-27_18h33.56.573,slotMachine_updated,2023.1.3,MacIntel,60.06006006,,,,,,,,,,,,,,,,,,,,,,,,,,,,,,,,,,,,,,,,,,,,,,,,,,,,434.9569,up,0.3826,,1,"[2,1,3]",0.819730173,stimuli/card_100_transparent.png,200,100,3,0,3,0,1,,,,,
,2023-09-27_18h33.56.573,slotMachine_updated,2023.1.3,MacIntel,60.06006006,,,,,,,,,,,,,,,,,,,,,,,,,,,,,,,,,,,,,,,,,,,,,,,,,,,,436.6709,up,1.1586,,0.5,"[2,1,3]",0.479155264,stimuli/card_100_transparent.png,300,100,4,0,4,0,1,,,,,
,2023-09-27_18h33.56.573,slotMachine_updated,2023.1.3,MacIntel,60.06006006,,,,,,,,,,,,,,,,,,,,,,,,,,,,,,,,,,,,,,,,,,,,,,,,,,,,438.6506,up,0.2772,,1.5,"[2,1,3]",0.837080397,stimuli/card_100_transparent.png,400,100,5,0,5,0,1,,,,,
,2023-09-27_18h33.56.573,slotMachine_updated,2023.1.3,MacIntel,60.06006006,,,,,,,,,,,,,,,,,,,,,,,,,,,,,,,,,,,,,,,,,,,,,,,,,,,,440.7514,up,0.1215,,1.5,"[2,1,3]",0.212463176,stimuli/card_100_transparent.png,500,100,6,0,6,0,1,,,,,
,2023-09-27_18h33.56.573,slotMachine_updated,2023.1.3,MacIntel,60.06006006,,,,,,,,,,,,,,,,,,,,,,,,,,,,,,,,,,,,,,,,,,,,,,,,,,,,442.6811,up,0.4011,,0.5,"[2,1,3]",0.352105889,stimuli/card_100_transparent.png,600,100,7,0,7,0,1,,,,,
,2023-09-27_18h33.56.573,slotMachine_updated,2023.1.3,MacIntel,60.06006006,,,,,,,,,,,,,,,,,,,,,,,,,,,,,,,,,,,,,,,,,,,,,,,,,,,,443.8978,up,1.172,,1.5,"[2,1,3]",0.283122035,stimuli/card_100_transparent.png,700,100,8,0,8,0,1,,,,,
,2023-09-27_18h33.56.573,slotMachine_updated,2023.1.3,MacIntel,60.06006006,,,,,,,,,,,,,,,,,,,,,,,,,,,,,,,,,,,,,,,,,,,,,,,,,,,,446.8867,up,1.218,,0.5,"[2,1,3]",0.008223465,stimuli/card_0_transparent.png,700,0,9,0,9,0,1,,,,,
,2023-09-27_18h33.56.573,slotMachine_updated,2023.1.3,MacIntel,60.06006006,,,,,,,,,,,,,,,,,,,,,,,,,,,,,,,,,,,,,,,,,,,,,,,,,,,,448.9185,up,0.806,,1.5,"[2,1,3]",0.769622861,stimuli/card_100_transparent.png,800,100,10,0,10,0,1,,,,,
,2023-09-27_18h33.56.573,slotMachine_updated,2023.1.3,MacIntel,60.06006006,,,,,,,,,,,,,,,,,,,,,,,,,,,,,,,,,,,,,,,,,,,,,,,,,,,,451.5312,up,3.3789,,1,"[1,2,3]",0.558895221,stimuli/card_10_transparent.png,810,10,11,0,11,0,1,,,,,
,2023-09-27_18h33.56.573,slotMachine_updated,2023.1.3,MacIntel,60.06006006,,,,,,,,,,,,,,,,,,,,,,,,,,,,,,,,,,,,,,,,,,,,,,,,,,,,456.2285,up,2.0104,,1.5,"[1,2,3]",0.980512332,stimuli/card_10_transparent.png,820,10,12,0,12,0,1,,,,,
,2023-09-27_18h33.56.573,slotMachine_updated,2023.1.3,MacIntel,60.06006006,,,,,,,,,,,,,,,,,,,,,,,,,,,,,,,,,,,,,,,,,,,,,,,,,,,,460.0642,left,1.2915,,1,"[1,2,3]",0.618651299,stimuli/card_100_transparent.png,920,100,13,0,13,0,1,,,,,
,2023-09-27_18h33.56.573,slotMachine_updated,2023.1.3,MacIntel,60.06006006,,,,,,,,,,,,,,,,,,,,,,,,,,,,,,,,,,,,,,,,,,,,,,,,,,,,462.6774,left,1.9475,,1.5,"[1,2,3]",0.344572431,stimuli/card_100_transparent.png,1020,100,14,0,14,0,1,,,,,
,2023-09-27_18h33.56.573,slotMachine_updated,2023.1.3,MacIntel,60.06006006,,,,,,,,,,,,,,,,,,,,,,,,,,,,,,466.442,,,,,,,,,,,,,,,,,,,,,,,,,,,,,,,,,,,,,5,0,5,0,1
,2023-09-27_18h33.56.573,slotMachine_updated,2023.1.3,MacIntel,60.06006006,,,,,,,,,,,,,,,,,,,,,,,,,,,,,,,,,,,,,,,,,,,,,,,,,"[[15],[6,15],[15,15],[15],[15],[15],[15],[15],[8,15],[10,15]]","[8,15]","[[3,2,1],[3,1,2]]",471.4458,right,1.0342,,1.5,"[3,2,1]",0.063518989,stimuli/card_0_transparent.png,0,0,0,0,0,0,1,,,,,
,2023-09-27_18h33.56.573,slotMachine_updated,2023.1.3,MacIntel,60.06006006,,,,,,,,,,,,,,,,,,,,,,,,,,,,,,,,,,,,,,,,,,,,,,,,,,,,474.3223,up,0.6928,,0.5,"[3,2,1]",0.179499648,stimuli/card_100_transparent.png,100,100,1,0,1,0,1,,,,,
,2023-09-27_18h33.56.573,slotMachine_updated,2023.1.3,MacIntel,60.06006006,,,,,,,,,,,,,,,,,,,,,,,,,,,,,,,,,,,,,,,,,,,,,,,,,,,,475.8356,up,3.4033,,0.5,"[3,2,1]",0.929525488,stimuli/card_10_transparent.png,110,10,2,0,2,0,1,,,,,
,2023-09-27_18h33.56.573,slotMachine_updated,2023.1.3,MacIntel,60.06006006,,,,,,,,,,,,,,,,,,,,,,,,,,,,,,,,,,,,,,,,,,,,,,,,,,,,480.0686,left,2.2866,,1.5,"[3,2,1]",0.853645775,stimuli/card_0_transparent.png,110,0,3,0,3,0,1,,,,,
,2023-09-27_18h33.56.573,slotMachine_updated,2023.1.3,MacIntel,60.06006006,,,,,,,,,,,,,,,,,,,,,,,,,,,,,,,,,,,,,,,,,,,,,,,,,,,,484.1798,up,1.4669,,0.5,"[3,2,1]",0.180913422,stimuli/card_100_transparent.png,210,100,4,0,4,0,1,,,,,
,2023-09-27_18h33.56.573,slotMachine_updated,2023.1.3,MacIntel,60.06006006,,,,,,,,,,,,,,,,,,,,,,,,,,,,,,,,,,,,,,,,,,,,,,,,,,,,486.4618,up,1.3915,,0.5,"[3,2,1]",0.362473418,stimuli/card_10_transparent.png,220,10,5,0,5,0,1,,,,,
,2023-09-27_18h33.56.573,slotMachine_updated,2023.1.3,MacIntel,60.06006006,,,,,,,,,,,,,,,,,,,,,,,,,,,,,,,,,,,,,,,,,,,,,,,,,,,,488.6772,up,1.2731,,1.5,"[3,2,1]",0.871368796,stimuli/card_10_transparent.png,230,10,6,0,6,0,1,,,,,
,2023-09-27_18h33.56.573,slotMachine_updated,2023.1.3,MacIntel,60.06006006,,,,,,,,,,,,,,,,,,,,,,,,,,,,,,,,,,,,,,,,,,,,,,,,,,,,491.7756,up,1.6377,,1,"[3,2,1]",0.981653156,stimuli/card_10_transparent.png,240,10,7,0,7,0,1,,,,,
,2023-09-27_18h33.56.573,slotMachine_updated,2023.1.3,MacIntel,60.06006006,,,,,,,,,,,,,,,,,,,,,,,,,,,,,,,,,,,,,,,,,,,,,,,,,,,,494.7412,up,1.4769,,1.5,"[3,1,2]",0.113455798,stimuli/card_10_transparent.png,250,10,8,0,8,0,1,,,,,
,2023-09-27_18h33.56.573,slotMachine_updated,2023.1.3,MacIntel,60.06006006,,,,,,,,,,,,,,,,,,,,,,,,,,,,,,,,,,,,,,,,,,,,,,,,,,,,498.0392,left,1.5439,,1.5,"[3,1,2]",0.029929961,stimuli/card_100_transparent.png,350,100,9,0,9,0,1,,,,,
,2023-09-27_18h33.56.573,slotMachine_updated,2023.1.3,MacIntel,60.06006006,,,,,,,,,,,,,,,,,,,,,,,,,,,,,,,,,,,,,,,,,,,,,,,,,,,,501.4023,right,2.9071,,1,"[3,1,2]",0.674006371,stimuli/card_10_transparent.png,360,10,10,0,10,0,1,,,,,
,2023-09-27_18h33.56.573,slotMachine_updated,2023.1.3,MacIntel,60.06006006,,,,,,,,,,,,,,,,,,,,,,,,,,,,,,,,,,,,,,,,,,,,,,,,,,,,505.631,up,0.7465,,1.5,"[3,1,2]",0.05565325,stimuli/card_0_transparent.png,360,0,11,0,11,0,1,,,,,
,2023-09-27_18h33.56.573,slotMachine_updated,2023.1.3,MacIntel,60.06006006,,,,,,,,,,,,,,,,,,,,,,,,,,,,,,,,,,,,,,,,,,,,,,,,,,,,508.2018,up,2.0698,,1,"[3,1,2]",0.371821528,stimuli/card_100_transparent.png,460,100,12,0,12,0,1,,,,,
,2023-09-27_18h33.56.573,slotMachine_updated,2023.1.3,MacIntel,60.06006006,,,,,,,,,,,,,,,,,,,,,,,,,,,,,,,,,,,,,,,,,,,,,,,,,,,,511.5837,up,1.8889,,1.5,"[3,1,2]",0.19497461,stimuli/card_10_transparent.png,470,10,13,0,13,0,1,,,,,
,2023-09-27_18h33.56.573,slotMachine_updated,2023.1.3,MacIntel,60.06006006,,,,,,,,,,,,,,,,,,,,,,,,,,,,,,,,,,,,,,,,,,,,,,,,,,,,515.2963,,,,1.5,,,,,,14,0,14,0,1,,,,,
,2023-09-27_18h33.56.573,slotMachine_updated,2023.1.3,MacIntel,60.06006006,,,,,,,,,,,,,,,,,,,,,,,,,,,,,,520.8087,,,,,,,,,,,,,,,,,,,,,,,,,,,,,,,,,,,,,6,0,6,0,1
,2023-09-27_18h33.56.573,slotMachine_updated,2023.1.3,MacIntel,60.06006006,,,,,,,,,,,,,,,,,,,,,,,,,,,,,,,,,,,,,,,,,,,,,,,,,"[[15],[6,15],[15,15],[15],[15],[15],[15],[15],[15],[10,15]]","[6,15]","[[1,3,2],[3,2,1]]",525.8088,up,4.3229,,1.5,"[1,3,2]",0.805381049,stimuli/card_0_transparent.png,0,0,0,0,0,0,1,,,,,
,2023-09-27_18h33.56.573,slotMachine_updated,2023.1.3,MacIntel,60.06006006,,,,,,,,,,,,,,,,,,,,,,,,,,,,,,,,,,,,,,,,,,,,,,,,,,,,531.9564,right,1.053,,1,"[1,3,2]",0.048561376,stimuli/card_0_transparent.png,0,0,1,0,1,0,1,,,,,
,2023-09-27_18h33.56.573,slotMachine_updated,2023.1.3,MacIntel,60.06006006,,,,,,,,,,,,,,,,,,,,,,,,,,,,,,,,,,,,,,,,,,,,,,,,,,,,534.3196,right,0.0112,,1,"[1,3,2]",0.194218367,stimuli/card_100_transparent.png,100,100,2,0,2,0,1,,,,,
,2023-09-27_18h33.56.573,slotMachine_updated,2023.1.3,MacIntel,60.06006006,,,,,,,,,,,,,,,,,,,,,,,,,,,,,,,,,,,,,,,,,,,,,,,,,,,,535.6535,right,0.7524,,1,"[1,3,2]",0.184676695,stimuli/card_100_transparent.png,200,100,3,0,3,0,1,,,,,
,2023-09-27_18h33.56.573,slotMachine_updated,2023.1.3,MacIntel,60.06006006,,,,,,,,,,,,,,,,,,,,,,,,,,,,,,,,,,,,,,,,,,,,,,,,,,,,537.7342,right,0.1671,,1.5,"[1,3,2]",0.417833089,stimuli/card_10_transparent.png,210,10,4,0,4,0,1,,,,,
,2023-09-27_18h33.56.573,slotMachine_updated,2023.1.3,MacIntel,60.06006006,,,,,,,,,,,,,,,,,,,,,,,,,,,,,,,,,,,,,,,,,,,,,,,,,,,,539.7168,right,0.4306,,0.5,"[1,3,2]",0.098163285,stimuli/card_0_transparent.png,210,0,5,0,5,0,1,,,,,
,2023-09-27_18h33.56.573,slotMachine_updated,2023.1.3,MacIntel,60.06006006,,,,,,,,,,,,,,,,,,,,,,,,,,,,,,,,,,,,,,,,,,,,,,,,,,,,540.9604,right,2.9597,,1.5,"[3,2,1]",0.174324859,stimuli/card_10_transparent.png,220,10,6,0,6,0,1,,,,,
,2023-09-27_18h33.56.573,slotMachine_updated,2023.1.3,MacIntel,60.06006006,,,,,,,,,,,,,,,,,,,,,,,,,,,,,,,,,,,,,,,,,,,,,,,,,,,,545.7454,right,0.9419,,1,"[3,2,1]",0.715580731,stimuli/card_100_transparent.png,320,100,7,0,7,0,1,,,,,
,2023-09-27_18h33.56.573,slotMachine_updated,2023.1.3,MacIntel,60.06006006,,,,,,,,,,,,,,,,,,,,,,,,,,,,,,,,,,,,,,,,,,,,,,,,,,,,548.0019,,,,0.5,,,,,,8,0,8,0,1,,,,,
,2023-09-27_18h33.56.573,slotMachine_updated,2023.1.3,MacIntel,60.06006006,,,,,,,,,,,,,,,,,,,,,,,,,,,,,,,,,,,,,,,,,,,,,,,,,,,,553.5231,right,1.3152,,0.5,"[3,2,1]",0.042199189,stimuli/card_0_transparent.png,320,0,9,0,9,0,1,,,,,
,2023-09-27_18h33.56.573,slotMachine_updated,2023.1.3,MacIntel,60.06006006,,,,,,,,,,,,,,,,,,,,,,,,,,,,,,,,,,,,,,,,,,,,,,,,,,,,555.6589,right,1.1413,,0.5,"[3,2,1]",0.779643717,stimuli/card_100_transparent.png,420,100,10,0,10,0,1,,,,,
,2023-09-27_18h33.56.573,slotMachine_updated,2023.1.3,MacIntel,60.06006006,,,,,,,,,,,,,,,,,,,,,,,,,,,,,,,,,,,,,,,,,,,,,,,,,,,,557.6231,right,0.7492,,1.5,"[3,2,1]",0.005820808,stimuli/card_0_transparent.png,420,0,11,0,11,0,1,,,,,
,2023-09-27_18h33.56.573,slotMachine_updated,2023.1.3,MacIntel,60.06006006,,,,,,,,,,,,,,,,,,,,,,,,,,,,,,,,,,,,,,,,,,,,,,,,,,,,560.1915,right,0.3662,,0.5,"[3,2,1]",0.027016882,stimuli/card_0_transparent.png,420,0,12,0,12,0,1,,,,,
,2023-09-27_18h33.56.573,slotMachine_updated,2023.1.3,MacIntel,60.06006006,,,,,,,,,,,,,,,,,,,,,,,,,,,,,,,,,,,,,,,,,,,,,,,,,,,,561.3727,right,0.3355,,0.5,"[3,2,1]",0.842594975,stimuli/card_100_transparent.png,520,100,13,0,13,0,1,,,,,
,2023-09-27_18h33.56.573,slotMachine_updated,2023.1.3,MacIntel,60.06006006,,,,,,,,,,,,,,,,,,,,,,,,,,,,,,,,,,,,,,,,,,,,,,,,,,,,562.5225,right,0.2445,,0.5,"[3,2,1]",0.894930256,stimuli/card_100_transparent.png,620,100,14,0,14,0,1,,,,,
,2023-09-27_18h33.56.573,slotMachine_updated,2023.1.3,MacIntel,60.06006006,,,,,,,,,,,,,,,,,,,,,,,,,,,,,,563.5887,,,,,,,,,,,,,,,,,,,,,,,,,,,,,,,,,,,,,7,0,7,0,1
,2023-09-27_18h33.56.573,slotMachine_updated,2023.1.3,MacIntel,60.06006006,,,,,,,,,,,,,,,,,,,,,,,,,,,,,,,,,,,,,,,,,,,,,,,,,"[[15],[15],[15,15],[15],[15],[15],[15],[15],[15],[10,15]]","[10,15]","[[3,1,2],[1,3,2]]",568.589,right,0.1786,,1.5,"[3,1,2]",0.808634742,stimuli/card_10_transparent.png,10,10,0,0,0,0,1,,,,,
,2023-09-27_18h33.56.573,slotMachine_updated,2023.1.3,MacIntel,60.06006006,,,,,,,,,,,,,,,,,,,,,,,,,,,,,,,,,,,,,,,,,,,,,,,,,,,,570.5993,right,0.3128,,1.5,"[3,1,2]",0.552810612,stimuli/card_10_transparent.png,20,10,1,0,1,0,1,,,,,
,2023-09-27_18h33.56.573,slotMachine_updated,2023.1.3,MacIntel,60.06006006,,,,,,,,,,,,,,,,,,,,,,,,,,,,,,,,,,,,,,,,,,,,,,,,,,,,572.7316,right,1.2592,,0.5,"[3,1,2]",0.982478165,stimuli/card_10_transparent.png,30,10,2,0,2,0,1,,,,,
,2023-09-27_18h33.56.573,slotMachine_updated,2023.1.3,MacIntel,60.06006006,,,,,,,,,,,,,,,,,,,,,,,,,,,,,,,,,,,,,,,,,,,,,,,,,,,,574.8141,right,0.8264,,1,"[3,1,2]",0.764902554,stimuli/card_10_transparent.png,40,10,3,0,3,0,1,,,,,
,2023-09-27_18h33.56.573,slotMachine_updated,2023.1.3,MacIntel,60.06006006,,,,,,,,,,,,,,,,,,,,,,,,,,,,,,,,,,,,,,,,,,,,,,,,,,,,576.9618,right,0.6781,,1,"[3,1,2]",0.936313564,stimuli/card_10_transparent.png,50,10,4,0,4,0,1,,,,,
,2023-09-27_18h33.56.573,slotMachine_updated,2023.1.3,MacIntel,60.06006006,,,,,,,,,,,,,,,,,,,,,,,,,,,,,,,,,,,,,,,,,,,,,,,,,,,,578.9608,up,0.18,,1.5,"[3,1,2]",0.266780777,stimuli/card_100_transparent.png,150,100,5,0,5,0,1,,,,,
,2023-09-27_18h33.56.573,slotMachine_updated,2023.1.3,MacIntel,60.06006006,,,,,,,,,,,,,,,,,,,,,,,,,,,,,,,,,,,,,,,,,,,,,,,,,,,,580.9583,up,0.1543,,0.5,"[3,1,2]",0.668729029,stimuli/card_100_transparent.png,250,100,6,0,6,0,1,,,,,
,2023-09-27_18h33.56.573,slotMachine_updated,2023.1.3,MacIntel,60.06006006,,,,,,,,,,,,,,,,,,,,,,,,,,,,,,,,,,,,,,,,,,,,,,,,,,,,581.9395,up,0.8621,,0.5,"[3,1,2]",0.702551749,stimuli/card_100_transparent.png,350,100,7,0,7,0,1,,,,,
,2023-09-27_18h33.56.573,slotMachine_updated,2023.1.3,MacIntel,60.06006006,,,,,,,,,,,,,,,,,,,,,,,,,,,,,,,,,,,,,,,,,,,,,,,,,,,,583.6219,up,1.0136,,1.5,"[3,1,2]",0.281534795,stimuli/card_100_transparent.png,450,100,8,0,8,0,1,,,,,
,2023-09-27_18h33.56.573,slotMachine_updated,2023.1.3,MacIntel,60.06006006,,,,,,,,,,,,,,,,,,,,,,,,,,,,,,,,,,,,,,,,,,,,,,,,,,,,586.4567,up,0.034,,1.5,"[3,1,2]",0.146138055,stimuli/card_10_transparent.png,460,10,9,0,9,0,1,,,,,
,2023-09-27_18h33.56.573,slotMachine_updated,2023.1.3,MacIntel,60.06006006,,,,,,,,,,,,,,,,,,,,,,,,,,,,,,,,,,,,,,,,,,,,,,,,,,,,588.3041,up,0.3778,,1.5,"[1,3,2]",0.198474694,stimuli/card_10_transparent.png,470,10,10,0,10,0,1,,,,,
,2023-09-27_18h33.56.573,slotMachine_updated,2023.1.3,MacIntel,60.06006006,,,,,,,,,,,,,,,,,,,,,,,,,,,,,,,,,,,,,,,,,,,,,,,,,,,,590.4997,up,0.4847,,0.5,"[1,3,2]",0.940833556,stimuli/card_0_transparent.png,470,0,11,0,11,0,1,,,,,
,2023-09-27_18h33.56.573,slotMachine_updated,2023.1.3,MacIntel,60.06006006,,,,,,,,,,,,,,,,,,,,,,,,,,,,,,,,,,,,,,,,,,,,,,,,,,,,591.8168,up,0.6987,,1.5,"[1,3,2]",0.244918704,stimuli/card_0_transparent.png,470,0,12,0,12,0,1,,,,,
,2023-09-27_18h33.56.573,slotMachine_updated,2023.1.3,MacIntel,60.06006006,,,,,,,,,,,,,,,,,,,,,,,,,,,,,,,,,,,,,,,,,,,,,,,,,,,,594.331,up,1.4199,,1.5,"[1,3,2]",0.999347266,stimuli/card_0_transparent.png,470,0,13,0,13,0,1,,,,,
,2023-09-27_18h33.56.573,slotMachine_updated,2023.1.3,MacIntel,60.06006006,,,,,,,,,,,,,,,,,,,,,,,,,,,,,,,,,,,,,,,,,,,,,,,,,,,,597.5596,left,1.2351,,0.5,"[1,3,2]",0.002750271,stimuli/card_0_transparent.png,470,0,14,0,14,0,1,,,,,
,2023-09-27_18h33.56.573,slotMachine_updated,2023.1.3,MacIntel,60.06006006,,,,,,,,,,,,,,,,,,,,,,,,,,,,,,599.6112,,,,,,,,,,,,,,,,,,,,,,,,,,,,,,,,,,,,,8,0,8,0,1
,2023-09-27_18h33.56.573,slotMachine_updated,2023.1.3,MacIntel,60.06006006,,,,,,,,,,,,,,,,,,,,,,,,,,,,,,,,,,,,,,,,,,,,,,,,,"[[15],[15],[15,15],[15],[15],[15],[15],[15],[15],[15]]","[15,15]","[[3,1,2],[3,1,2]]",604.6106,right,0.5853,,1,"[3,1,2]",0.380820483,stimuli/card_10_transparent.png,10,10,0,0,0,0,1,,,,,
,2023-09-27_18h33.56.573,slotMachine_updated,2023.1.3,MacIntel,60.06006006,,,,,,,,,,,,,,,,,,,,,,,,,,,,,,,,,,,,,,,,,,,,,,,,,,,,606.5261,right,0.435,,0.5,"[3,1,2]",0.024997769,stimuli/card_0_transparent.png,10,0,1,0,1,0,1,,,,,
,2023-09-27_18h33.56.573,slotMachine_updated,2023.1.3,MacIntel,60.06006006,,,,,,,,,,,,,,,,,,,,,,,,,,,,,,,,,,,,,,,,,,,,,,,,,,,,607.8024,up,0.3483,,0.5,"[3,1,2]",0.801070193,stimuli/card_100_transparent.png,110,100,2,0,2,0,1,,,,,
,2023-09-27_18h33.56.573,slotMachine_updated,2023.1.3,MacIntel,60.06006006,,,,,,,,,,,,,,,,,,,,,,,,,,,,,,,,,,,,,,,,,,,,,,,,,,,,608.9763,up,0.5671,,1,"[3,1,2]",0.840040148,stimuli/card_100_transparent.png,210,100,3,0,3,0,1,,,,,
,2023-09-27_18h33.56.573,slotMachine_updated,2023.1.3,MacIntel,60.06006006,,,,,,,,,,,,,,,,,,,,,,,,,,,,,,,,,,,,,,,,,,,,,,,,,,,,610.8498,up,0.4783,,1.5,"[3,1,2]",0.242509263,stimuli/card_100_transparent.png,310,100,4,0,4,0,1,,,,,
,2023-09-27_18h33.56.573,slotMachine_updated,2023.1.3,MacIntel,60.06006006,,,,,,,,,,,,,,,,,,,,,,,,,,,,,,,,,,,,,,,,,,,,,,,,,,,,613.148,up,0.9723,,0.5,"[3,1,2]",0.000220206,stimuli/card_0_transparent.png,310,0,5,0,5,0,1,,,,,
,2023-09-27_18h33.56.573,slotMachine_updated,2023.1.3,MacIntel,60.06006006,,,,,,,,,,,,,,,,,,,,,,,,,,,,,,,,,,,,,,,,,,,,,,,,,,,,614.947,up,1.3983,,1,"[3,1,2]",0.654958248,stimuli/card_100_transparent.png,410,100,6,0,6,0,1,,,,,
,2023-09-27_18h33.56.573,slotMachine_updated,2023.1.3,MacIntel,60.06006006,,,,,,,,,,,,,,,,,,,,,,,,,,,,,,,,,,,,,,,,,,,,,,,,,,,,617.6627,up,0.7756,,1.5,"[3,1,2]",0.840370734,stimuli/card_100_transparent.png,510,100,7,0,7,0,1,,,,,
,2023-09-27_18h33.56.573,slotMachine_updated,2023.1.3,MacIntel,60.06006006,,,,,,,,,,,,,,,,,,,,,,,,,,,,,,,,,,,,,,,,,,,,,,,,,,,,620.2628,up,1.2243,,1.5,"[3,1,2]",0.683729131,stimuli/card_100_transparent.png,610,100,8,0,8,0,1,,,,,
,2023-09-27_18h33.56.573,slotMachine_updated,2023.1.3,MacIntel,60.06006006,,,,,,,,,,,,,,,,,,,,,,,,,,,,,,,,,,,,,,,,,,,,,,,,,,,,623.3077,up,0.0953,,1.5,"[3,1,2]",0.527176253,stimuli/card_100_transparent.png,710,100,9,0,9,0,1,,,,,
,2023-09-27_18h33.56.573,slotMachine_updated,2023.1.3,MacIntel,60.06006006,,,,,,,,,,,,,,,,,,,,,,,,,,,,,,,,,,,,,,,,,,,,,,,,,,,,625.2241,up,0.026,,1.5,"[3,1,2]",0.696475448,stimuli/card_100_transparent.png,810,100,10,0,10,0,1,,,,,
,2023-09-27_18h33.56.573,slotMachine_updated,2023.1.3,MacIntel,60.06006006,,,,,,,,,,,,,,,,,,,,,,,,,,,,,,,,,,,,,,,,,,,,,,,,,,,,627.0711,up,3.1108,,1,"[3,1,2]",0.274783181,stimuli/card_100_transparent.png,910,100,11,0,11,0,1,,,,,
,2023-09-27_18h33.56.573,slotMachine_updated,2023.1.3,MacIntel,60.06006006,,,,,,,,,,,,,,,,,,,,,,,,,,,,,,,,,,,,,,,,,,,,,,,,,,,,631.5051,up,0.3304,,0.5,"[3,1,2]",0.142686646,stimuli/card_10_transparent.png,920,10,12,0,12,0,1,,,,,
,2023-09-27_18h33.56.573,slotMachine_updated,2023.1.3,MacIntel,60.06006006,,,,,,,,,,,,,,,,,,,,,,,,,,,,,,,,,,,,,,,,,,,,,,,,,,,,632.6515,left,0.6865,,1,"[3,1,2]",0.287969695,stimuli/card_0_transparent.png,920,0,13,0,13,0,1,,,,,
,2023-09-27_18h33.56.573,slotMachine_updated,2023.1.3,MacIntel,60.06006006,,,,,,,,,,,,,,,,,,,,,,,,,,,,,,,,,,,,,,,,,,,,,,,,,,,,634.6672,up,0.1796,,1,"[3,1,2]",0.778799298,stimuli/card_100_transparent.png,1020,100,14,0,14,0,1,,,,,
,2023-09-27_18h33.56.573,slotMachine_updated,2023.1.3,MacIntel,60.06006006,,,,,,,,,,,,,,,,,,,,,,,,,,,,,,636.1652,,,,,,,,,,,,,,,,,,,,,,,,,,,,,,,,,,,,,9,0,9,0,1
,2023-09-27_18h33.56.573,slotMachine_updated,2023.1.3,MacIntel,60.06006006,,,,,,,,,,,,,,,,,,,,,,,,,,,,,,,,,,,,,,,,,,,,,,,,,,,,,,,,,,,,,,,,,,,,,,,
