key_resp_welcome_started,key_resp_welcome_keys,key_resp_welcome_rt,key_resp_welcome_duration,prolific_id,path_id,date,expName,psychopyVersion,OS,frameRate,key_resp_instruction1_started,key_resp_instruction1_keys,key_resp_instruction1_rt,key_resp_instruction1_duration,key_resp_instruction2_started,key_resp_instruction2_keys,key_resp_instruction2_rt,key_resp_instruction2_duration,key_resp_instruction3_started,key_resp_instruction3_keys,key_resp_instruction3_rt,key_resp_instruction3_duration,key_resp_instruction4_started,key_resp_instruction4_keys,key_resp_instruction4_rt,key_resp_instruction4_duration,practiceCondition,practice_reward_seqs,practice_trial_started,practice_trial_num,practice_resp_rt,practice_resp_duration,practice_resp_keys,prac_presentationInterval,"practice_reward_seq: 2,1,3",reward_img,cumulative_reward,trial_reward,practice_trials.thisRepN,practice_trials.thisTrialN,practice_trials.thisN,practice_trials.thisIndex,practice_trials.ran,"practice_reward_seq: 2,3,1",block_break_started,"practice_reward_seq: 1,3,2","practice_reward_seq: 3,1,2",practice_end_time,practice_end_keys,practice_end_rt,practice_end_duration,main_instruction_text_started,block_condition,block_order_indices,main_instruction_keys,main_instruction_rt,main_instruction_duration,block_number,block_assignment,current_condition,main_reward_seqs,main_trial_started,main_trial_num,main_trial_keys,main_trial_rt,main_trial_duration,main_presentationInterval,reward_presentation_time,main_reward_seq,reward_rand_val,main_reward_img,current_reward,main_trials.thisRepN,main_trials.thisTrialN,main_trials.thisN,main_trials.thisIndex,main_trials.ran,block_reward,block.thisRepN,block.thisTrialN,block.thisN,block.thisIndex,block.ran,block_reward.length,block_reward_all,reward_amount,date_end_task
0.0001,space,3.2401,,5fb2c8b4b04a8594fc0a3825,A,2024-05-20_18h03.38.141,Slot Machine Game,2023.1.3,Win32,147.0588235,,,,,,,,,,,,,,,,,,,,,,,,,,,,,,,,,,,,,,,,,,,,,,,,,,,,,,,,,,,,,,,,,,,,,,,,,,,,,
,,,,5fb2c8b4b04a8594fc0a3825,A,2024-05-20_18h03.38.141,Slot Machine Game,2023.1.3,Win32,147.0588235,3.2462,space,7.6894,,,,,,,,,,,,,,,,,,,,,,,,,,,,,,,,,,,,,,,,,,,,,,,,,,,,,,,,,,,,,,,,,,,,,,,,,,
,,,,5fb2c8b4b04a8594fc0a3825,A,2024-05-20_18h03.38.141,Slot Machine Game,2023.1.3,Win32,147.0588235,,,,,10.9466,space,63.1382,,,,,,,,,,,,,,,,,,,,,,,,,,,,,,,,,,,,,,,,,,,,,,,,,,,,,,,,,,,,,,,,,,,,,,
,,,,5fb2c8b4b04a8594fc0a3825,A,2024-05-20_18h03.38.141,Slot Machine Game,2023.1.3,Win32,147.0588235,,,,,,,,,74.1036,space,9.0567,,,,,,,,,,,,,,,,,,,,,,,,,,,,,,,,,,,,,,,,,,,,,,,,,,,,,,,,,,,,,,,,,,
,,,,5fb2c8b4b04a8594fc0a3825,A,2024-05-20_18h03.38.141,Slot Machine Game,2023.1.3,Win32,147.0588235,,,,,,,,,,,,,,,,,,,,,,,,,,,,,,,,,,,,,,,,,,,,,,,,,,,,,,,,,,,,,,,,,,,,,,,,,,,,,
,,,,5fb2c8b4b04a8594fc0a3825,A,2024-05-20_18h03.38.141,Slot Machine Game,2023.1.3,Win32,147.0588235,,,,,,,,,,,,,224.9522,space,4.5864,,,,,,,,,,,,,,,,,,,,,,,,,,,,,,,,,,,,,,,,,,,,,,,,,,,,,,,,,,,,,,
,,,,5fb2c8b4b04a8594fc0a3825,A,2024-05-20_18h03.38.141,Slot Machine Game,2023.1.3,Win32,147.0588235,,,,,,,,,,,,,,,,,"[9,15]","[[2,1,3],[2,3,1]]",229.5537,0,1.4015,,up,1.5,,stimuli/card_0_transparent.png,0,0,0,0,0,0,1,,,,,,,,,,,,,,,,,,,,,,,,,,,,,,,,,,,,,,,,,,,,
,,,,5fb2c8b4b04a8594fc0a3825,A,2024-05-20_18h03.38.141,Slot Machine Game,2023.1.3,Win32,147.0588235,,,,,,,,,,,,,,,,,,,233.2658,1,0.3407,,up,0.5,,stimuli/card_100_transparent.png,100,100,1,0,1,0,1,,,,,,,,,,,,,,,,,,,,,,,,,,,,,,,,,,,,,,,,,,,,
,,,,5fb2c8b4b04a8594fc0a3825,A,2024-05-20_18h03.38.141,Slot Machine Game,2023.1.3,Win32,147.0588235,,,,,,,,,,,,,,,,,,,234.9228,2,0.2154,,up,1.5,,stimuli/card_0_transparent.png,100,0,2,0,2,0,1,,,,,,,,,,,,,,,,,,,,,,,,,,,,,,,,,,,,,,,,,,,,
,,,,5fb2c8b4b04a8594fc0a3825,A,2024-05-20_18h03.38.141,Slot Machine Game,2023.1.3,Win32,147.0588235,,,,,,,,,,,,,,,,,,,237.4541,3,0.2296,,up,0.5,,stimuli/card_100_transparent.png,200,100,3,0,3,0,1,,,,,,,,,,,,,,,,,,,,,,,,,,,,,,,,,,,,,,,,,,,,
,,,,5fb2c8b4b04a8594fc0a3825,A,2024-05-20_18h03.38.141,Slot Machine Game,2023.1.3,Win32,147.0588235,,,,,,,,,,,,,,,,,,,238.9943,4,0.0207,,up,1,,stimuli/card_100_transparent.png,300,100,4,0,4,0,1,,,,,,,,,,,,,,,,,,,,,,,,,,,,,,,,,,,,,,,,,,,,
,,,,5fb2c8b4b04a8594fc0a3825,A,2024-05-20_18h03.38.141,Slot Machine Game,2023.1.3,Win32,147.0588235,,,,,,,,,,,,,,,,,,,240.8258,5,0.2392,,up,0.5,,stimuli/card_100_transparent.png,400,100,5,0,5,0,1,,,,,,,,,,,,,,,,,,,,,,,,,,,,,,,,,,,,,,,,,,,,
,,,,5fb2c8b4b04a8594fc0a3825,A,2024-05-20_18h03.38.141,Slot Machine Game,2023.1.3,Win32,147.0588235,,,,,,,,,,,,,,,,,,,242.3729,6,0.0304,,up,1,,stimuli/card_0_transparent.png,400,0,6,0,6,0,1,,,,,,,,,,,,,,,,,,,,,,,,,,,,,,,,,,,,,,,,,,,,
,,,,5fb2c8b4b04a8594fc0a3825,A,2024-05-20_18h03.38.141,Slot Machine Game,2023.1.3,Win32,147.0588235,,,,,,,,,,,,,,,,,,,244.2116,7,0.1808,,up,0.5,,stimuli/card_100_transparent.png,500,100,7,0,7,0,1,,,,,,,,,,,,,,,,,,,,,,,,,,,,,,,,,,,,,,,,,,,,
,,,,5fb2c8b4b04a8594fc0a3825,A,2024-05-20_18h03.38.141,Slot Machine Game,2023.1.3,Win32,147.0588235,,,,,,,,,,,,,,,,,,,245.7026,8,0.2015,,up,1,,stimuli/card_100_transparent.png,600,100,8,0,8,0,1,,,,,,,,,,,,,,,,,,,,,,,,,,,,,,,,,,,,,,,,,,,,
,,,,5fb2c8b4b04a8594fc0a3825,A,2024-05-20_18h03.38.141,Slot Machine Game,2023.1.3,Win32,147.0588235,,,,,,,,,,,,,,,,,,,247.7078,9,0.0706,,up,0.5,,stimuli/card_0_transparent.png,600,0,9,0,9,0,1,,,,,,,,,,,,,,,,,,,,,,,,,,,,,,,,,,,,,,,,,,,,
,,,,5fb2c8b4b04a8594fc0a3825,A,2024-05-20_18h03.38.141,Slot Machine Game,2023.1.3,Win32,147.0588235,,,,,,,,,,,,,,,,,,,249.0879,10,0.1863,,up,1.5,,stimuli/card_0_transparent.png,600,0,10,0,10,0,1,,,,,,,,,,,,,,,,,,,,,,,,,,,,,,,,,,,,,,,,,,,,
,,,,5fb2c8b4b04a8594fc0a3825,A,2024-05-20_18h03.38.141,Slot Machine Game,2023.1.3,Win32,147.0588235,,,,,,,,,,,,,,,,,,,251.5806,11,0.1177,,left,1.5,,stimuli/card_10_transparent.png,610,10,11,0,11,0,1,,,,,,,,,,,,,,,,,,,,,,,,,,,,,,,,,,,,,,,,,,,,
,,,,5fb2c8b4b04a8594fc0a3825,A,2024-05-20_18h03.38.141,Slot Machine Game,2023.1.3,Win32,147.0588235,,,,,,,,,,,,,,,,,,,254.0066,12,0.1187,,left,1.5,,stimuli/card_10_transparent.png,620,10,12,0,12,0,1,,,,,,,,,,,,,,,,,,,,,,,,,,,,,,,,,,,,,,,,,,,,
,,,,5fb2c8b4b04a8594fc0a3825,A,2024-05-20_18h03.38.141,Slot Machine Game,2023.1.3,Win32,147.0588235,,,,,,,,,,,,,,,,,,,256.4348,13,0.0501,,right,0.5,,stimuli/card_100_transparent.png,720,100,13,0,13,0,1,,,,,,,,,,,,,,,,,,,,,,,,,,,,,,,,,,,,,,,,,,,,
,,,,5fb2c8b4b04a8594fc0a3825,A,2024-05-20_18h03.38.141,Slot Machine Game,2023.1.3,Win32,147.0588235,,,,,,,,,,,,,,,,,,,257.7943,14,0.0619,,right,1,,stimuli/card_100_transparent.png,820,100,14,0,14,0,1,,,,,,,,,,,,,,,,,,,,,,,,,,,,,,,,,,,,,,,,,,,,
,,,,5fb2c8b4b04a8594fc0a3825,A,2024-05-20_18h03.38.141,Slot Machine Game,2023.1.3,Win32,147.0588235,,,,,,,,,,,,,,,,,"[6,15]","[[1,3,2],[3,1,2]]",264.6798,0,1.3112,,up,1,,stimuli/card_0_transparent.png,0,0,0,0,0,0,1,,259.6757,,,,,,,,,,,,,,,,,,,,,,,,,,,,,,,,,,,,,,,,,,
,,,,5fb2c8b4b04a8594fc0a3825,A,2024-05-20_18h03.38.141,Slot Machine Game,2023.1.3,Win32,147.0588235,,,,,,,,,,,,,,,,,,,267.8,1,0.2141,,up,1.5,,stimuli/card_0_transparent.png,0,0,1,0,1,0,1,,,,,,,,,,,,,,,,,,,,,,,,,,,,,,,,,,,,,,,,,,,,
,,,,5fb2c8b4b04a8594fc0a3825,A,2024-05-20_18h03.38.141,Slot Machine Game,2023.1.3,Win32,147.0588235,,,,,,,,,,,,,,,,,,,270.3235,2,0.1051,,left,1,,stimuli/card_100_transparent.png,100,100,2,0,2,0,1,,,,,,,,,,,,,,,,,,,,,,,,,,,,,,,,,,,,,,,,,,,,
,,,,5fb2c8b4b04a8594fc0a3825,A,2024-05-20_18h03.38.141,Slot Machine Game,2023.1.3,Win32,147.0588235,,,,,,,,,,,,,,,,,,,272.238,3,0.0628,,left,1.5,,stimuli/card_100_transparent.png,200,100,3,0,3,0,1,,,,,,,,,,,,,,,,,,,,,,,,,,,,,,,,,,,,,,,,,,,,
,,,,5fb2c8b4b04a8594fc0a3825,A,2024-05-20_18h03.38.141,Slot Machine Game,2023.1.3,Win32,147.0588235,,,,,,,,,,,,,,,,,,,274.6134,4,0.148,,left,0.5,,stimuli/card_100_transparent.png,300,100,4,0,4,0,1,,,,,,,,,,,,,,,,,,,,,,,,,,,,,,,,,,,,,,,,,,,,
,,,,5fb2c8b4b04a8594fc0a3825,A,2024-05-20_18h03.38.141,Slot Machine Game,2023.1.3,Win32,147.0588235,,,,,,,,,,,,,,,,,,,276.0644,5,0.0816,,left,1,,stimuli/card_0_transparent.png,300,0,5,0,5,0,1,,,,,,,,,,,,,,,,,,,,,,,,,,,,,,,,,,,,,,,,,,,,
,,,,5fb2c8b4b04a8594fc0a3825,A,2024-05-20_18h03.38.141,Slot Machine Game,2023.1.3,Win32,147.0588235,,,,,,,,,,,,,,,,,,,277.9547,6,0.2795,,left,0.5,,stimuli/card_0_transparent.png,300,0,6,0,6,0,1,,,,,,,,,,,,,,,,,,,,,,,,,,,,,,,,,,,,,,,,,,,,
,,,,5fb2c8b4b04a8594fc0a3825,A,2024-05-20_18h03.38.141,Slot Machine Game,2023.1.3,Win32,147.0588235,,,,,,,,,,,,,,,,,,,279.5499,7,0.2485,,up,0.5,,stimuli/card_100_transparent.png,400,100,7,0,7,0,1,,,,,,,,,,,,,,,,,,,,,,,,,,,,,,,,,,,,,,,,,,,,
,,,,5fb2c8b4b04a8594fc0a3825,A,2024-05-20_18h03.38.141,Slot Machine Game,2023.1.3,Win32,147.0588235,,,,,,,,,,,,,,,,,,,281.0966,8,0.0004,,up,0.5,,stimuli/card_100_transparent.png,500,100,8,0,8,0,1,,,,,,,,,,,,,,,,,,,,,,,,,,,,,,,,,,,,,,,,,,,,
,,,,5fb2c8b4b04a8594fc0a3825,A,2024-05-20_18h03.38.141,Slot Machine Game,2023.1.3,Win32,147.0588235,,,,,,,,,,,,,,,,,,,282.4077,9,0.4304,,up,1.5,,stimuli/card_100_transparent.png,600,100,9,0,9,0,1,,,,,,,,,,,,,,,,,,,,,,,,,,,,,,,,,,,,,,,,,,,,
,,,,5fb2c8b4b04a8594fc0a3825,A,2024-05-20_18h03.38.141,Slot Machine Game,2023.1.3,Win32,147.0588235,,,,,,,,,,,,,,,,,,,285.1501,10,0.1114,,up,1,,stimuli/card_100_transparent.png,700,100,10,0,10,0,1,,,,,,,,,,,,,,,,,,,,,,,,,,,,,,,,,,,,,,,,,,,,
,,,,5fb2c8b4b04a8594fc0a3825,A,2024-05-20_18h03.38.141,Slot Machine Game,2023.1.3,Win32,147.0588235,,,,,,,,,,,,,,,,,,,287.0628,11,0.2472,,up,1,,stimuli/card_10_transparent.png,710,10,11,0,11,0,1,,,,,,,,,,,,,,,,,,,,,,,,,,,,,,,,,,,,,,,,,,,,
,,,,5fb2c8b4b04a8594fc0a3825,A,2024-05-20_18h03.38.141,Slot Machine Game,2023.1.3,Win32,147.0588235,,,,,,,,,,,,,,,,,,,289.1131,12,0.1811,,up,0.5,,stimuli/card_100_transparent.png,810,100,12,0,12,0,1,,,,,,,,,,,,,,,,,,,,,,,,,,,,,,,,,,,,,,,,,,,,
,,,,5fb2c8b4b04a8594fc0a3825,A,2024-05-20_18h03.38.141,Slot Machine Game,2023.1.3,Win32,147.0588235,,,,,,,,,,,,,,,,,,,290.601,13,0.0212,,up,1.5,,stimuli/card_10_transparent.png,820,10,13,0,13,0,1,,,,,,,,,,,,,,,,,,,,,,,,,,,,,,,,,,,,,,,,,,,,
,,,,5fb2c8b4b04a8594fc0a3825,A,2024-05-20_18h03.38.141,Slot Machine Game,2023.1.3,Win32,147.0588235,,,,,,,,,,,,,,,,,,,292.9319,14,0.2505,,up,1,,stimuli/card_100_transparent.png,920,100,14,0,14,0,1,,,,,,,,,,,,,,,,,,,,,,,,,,,,,,,,,,,,,,,,,,,,
,,,,5fb2c8b4b04a8594fc0a3825,A,2024-05-20_18h03.38.141,Slot Machine Game,2023.1.3,Win32,147.0588235,,,,,,,,,,,,,,,,,,,,,,,,,,,,,,,,,,,294.9927,,,299.9947,space,2.2036,,,,,,,,,,,,,,,,,,,,,,,,,,,,,,,,,,,,,
,,,,5fb2c8b4b04a8594fc0a3825,A,2024-05-20_18h03.38.141,Slot Machine Game,2023.1.3,Win32,147.0588235,,,,,,,,,,,,,,,,,,,,,,,,,,,,,,,,,,,,,,,,,,302.2073,3,"[0,4,6,3,5,7,8,1,9,2]",space,2.5612,,,,,,,,,,,,,,,,,,,,,,,,,,,,,,,
,,,,5fb2c8b4b04a8594fc0a3825,A,2024-05-20_18h03.38.141,Slot Machine Game,2023.1.3,Win32,147.0588235,,,,,,,,,,,,,,,,,,,,,,,,,,,100,,,,,,,,,,,,,,,,,,,,,1,1,"[12,15]","[[2,1,3],[2,3,1]]",304.7898,0,up,0.5393,,1,0.3,"[2,1,3]",0.210849527,stimuli/card_100_transparent.png,100,0,0,0,0,1,,,,,,,,,,
,,,,5fb2c8b4b04a8594fc0a3825,A,2024-05-20_18h03.38.141,Slot Machine Game,2023.1.3,Win32,147.0588235,,,,,,,,,,,,,,,,,,,,,,,,,,,200,,,,,,,,,,,,,,,,,,,,,1,1,,,307.14,1,up,0.049,,0.5,0.3,"[2,1,3]",0.449785498,stimuli/card_100_transparent.png,100,1,0,1,0,1,,,,,,,,,,
,,,,5fb2c8b4b04a8594fc0a3825,A,2024-05-20_18h03.38.141,Slot Machine Game,2023.1.3,Win32,147.0588235,,,,,,,,,,,,,,,,,,,,,,,,,,,300,,,,,,,,,,,,,,,,,,,,,1,1,,,308.4958,2,up,0.1527,,0.5,0.3,"[2,1,3]",0.228844202,stimuli/card_100_transparent.png,100,2,0,2,0,1,,,,,,,,,,
,,,,5fb2c8b4b04a8594fc0a3825,A,2024-05-20_18h03.38.141,Slot Machine Game,2023.1.3,Win32,147.0588235,,,,,,,,,,,,,,,,,,,,,,,,,,,310,,,,,,,,,,,,,,,,,,,,,1,1,,,309.9568,3,up,0.1325,,0.5,0.3,"[2,1,3]",0.184345762,stimuli/card_10_transparent.png,10,3,0,3,0,1,,,,,,,,,,
,,,,5fb2c8b4b04a8594fc0a3825,A,2024-05-20_18h03.38.141,Slot Machine Game,2023.1.3,Win32,147.0588235,,,,,,,,,,,,,,,,,,,,,,,,,,,410,,,,,,,,,,,,,,,,,,,,,1,1,,,311.3993,4,up,0.0198,,0.5,0.3,"[2,1,3]",0.654653395,stimuli/card_100_transparent.png,100,4,0,4,0,1,,,,,,,,,,
,,,,5fb2c8b4b04a8594fc0a3825,A,2024-05-20_18h03.38.141,Slot Machine Game,2023.1.3,Win32,147.0588235,,,,,,,,,,,,,,,,,,,,,,,,,,,510,,,,,,,,,,,,,,,,,,,,,1,1,,,312.7311,5,up,0.0349,,1.5,0.3,"[2,1,3]",0.869013516,stimuli/card_100_transparent.png,100,5,0,5,0,1,,,,,,,,,,
,,,,5fb2c8b4b04a8594fc0a3825,A,2024-05-20_18h03.38.141,Slot Machine Game,2023.1.3,Win32,147.0588235,,,,,,,,,,,,,,,,,,,,,,,,,,,610,,,,,,,,,,,,,,,,,,,,,1,1,,,315.0828,6,up,0.1352,,1,0.3,"[2,1,3]",0.72103583,stimuli/card_100_transparent.png,100,6,0,6,0,1,,,,,,,,,,
,,,,5fb2c8b4b04a8594fc0a3825,A,2024-05-20_18h03.38.141,Slot Machine Game,2023.1.3,Win32,147.0588235,,,,,,,,,,,,,,,,,,,,,,,,,,,710,,,,,,,,,,,,,,,,,,,,,1,1,,,317.018,7,up,0.1397,,1.5,0.3,"[2,1,3]",0.655327515,stimuli/card_100_transparent.png,100,7,0,7,0,1,,,,,,,,,,
,,,,5fb2c8b4b04a8594fc0a3825,A,2024-05-20_18h03.38.141,Slot Machine Game,2023.1.3,Win32,147.0588235,,,,,,,,,,,,,,,,,,,,,,,,,,,810,,,,,,,,,,,,,,,,,,,,,1,1,,,319.4669,8,up,0.2075,,0.5,0.3,"[2,1,3]",0.688336989,stimuli/card_100_transparent.png,100,8,0,8,0,1,,,,,,,,,,
,,,,5fb2c8b4b04a8594fc0a3825,A,2024-05-20_18h03.38.141,Slot Machine Game,2023.1.3,Win32,147.0588235,,,,,,,,,,,,,,,,,,,,,,,,,,,820,,,,,,,,,,,,,,,,,,,,,1,1,,,320.9857,9,up,1.0224,,1.5,0.3,"[2,1,3]",0.162478704,stimuli/card_10_transparent.png,10,9,0,9,0,1,,,,,,,,,,
,,,,5fb2c8b4b04a8594fc0a3825,A,2024-05-20_18h03.38.141,Slot Machine Game,2023.1.3,Win32,147.0588235,,,,,,,,,,,,,,,,,,,,,,,,,,,920,,,,,,,,,,,,,,,,,,,,,1,1,,,324.3163,10,up,0.0726,,0.5,0.3,"[2,1,3]",0.838218906,stimuli/card_100_transparent.png,100,10,0,10,0,1,,,,,,,,,,
,,,,5fb2c8b4b04a8594fc0a3825,A,2024-05-20_18h03.38.141,Slot Machine Game,2023.1.3,Win32,147.0588235,,,,,,,,,,,,,,,,,,,,,,,,,,,1020,,,,,,,,,,,,,,,,,,,,,1,1,,,325.6951,11,up,1.4078,,1,0.3,"[2,1,3]",0.785346597,stimuli/card_100_transparent.png,100,11,0,11,0,1,,,,,,,,,,
,,,,5fb2c8b4b04a8594fc0a3825,A,2024-05-20_18h03.38.141,Slot Machine Game,2023.1.3,Win32,147.0588235,,,,,,,,,,,,,,,,,,,,,,,,,,,1020,,,,,,,,,,,,,,,,,,,,,1,1,,,328.91,12,up,0.1243,,1.5,0.3,"[2,3,1]",0.340848598,stimuli/card_0_transparent.png,0,12,0,12,0,1,,,,,,,,,,
,,,,5fb2c8b4b04a8594fc0a3825,A,2024-05-20_18h03.38.141,Slot Machine Game,2023.1.3,Win32,147.0588235,,,,,,,,,,,,,,,,,,,,,,,,,,,1020,,,,,,,,,,,,,,,,,,,,,1,1,,,331.3439,13,up,0.1713,,0.5,0.3,"[2,3,1]",0.3007753,stimuli/card_0_transparent.png,0,13,0,13,0,1,,,,,,,,,,
,,,,5fb2c8b4b04a8594fc0a3825,A,2024-05-20_18h03.38.141,Slot Machine Game,2023.1.3,Win32,147.0588235,,,,,,,,,,,,,,,,,,,,,,,,,,,1120,,,,,,,,,,,,,,,,,,,,,1,1,,,332.8279,14,right,0.2214,,1,0.3,"[2,3,1]",0.666887947,stimuli/card_100_transparent.png,100,14,0,14,0,1,,,,,,,,,,
,,,,5fb2c8b4b04a8594fc0a3825,A,2024-05-20_18h03.38.141,Slot Machine Game,2023.1.3,Win32,147.0588235,,,,,,,,,,,,,,,,,,,,,,,,,,,,,,,,,,,334.8605,,,,,,,,,,,,,,,,,,,,,,,,,,,,,,,,,[1120],0,0,0,0,1,,,,
,,,,5fb2c8b4b04a8594fc0a3825,A,2024-05-20_18h03.38.141,Slot Machine Game,2023.1.3,Win32,147.0588235,,,,,,,,,,,,,,,,,,,,,,,,,,,10,,,,,,,,,,,,,,,,,,,,,2,5,"[5,15]","[[1,2,3],[3,1,2]]",339.8641,0,up,0.4375,,1.5,0.3,"[1,2,3]",0.298656826,stimuli/card_10_transparent.png,10,0,0,0,0,1,,,,,,,,,,
,,,,5fb2c8b4b04a8594fc0a3825,A,2024-05-20_18h03.38.141,Slot Machine Game,2023.1.3,Win32,147.0588235,,,,,,,,,,,,,,,,,,,,,,,,,,,20,,,,,,,,,,,,,,,,,,,,,2,5,,,342.6135,1,up,0.086,,0.5,0.3,"[1,2,3]",0.976423114,stimuli/card_10_transparent.png,10,1,0,1,0,1,,,,,,,,,,
,,,,5fb2c8b4b04a8594fc0a3825,A,2024-05-20_18h03.38.141,Slot Machine Game,2023.1.3,Win32,147.0588235,,,,,,,,,,,,,,,,,,,,,,,,,,,20,,,,,,,,,,,,,,,,,,,,,2,5,,,344.0106,2,left,0.132,,1,0.3,"[1,2,3]",0.079503474,stimuli/card_0_transparent.png,0,2,0,2,0,1,,,,,,,,,,
,,,,5fb2c8b4b04a8594fc0a3825,A,2024-05-20_18h03.38.141,Slot Machine Game,2023.1.3,Win32,147.0588235,,,,,,,,,,,,,,,,,,,,,,,,,,,120,,,,,,,,,,,,,,,,,,,,,2,5,,,345.9574,3,left,0.0321,,0.5,0.3,"[1,2,3]",0.318773329,stimuli/card_100_transparent.png,100,3,0,3,0,1,,,,,,,,,,
,,,,5fb2c8b4b04a8594fc0a3825,A,2024-05-20_18h03.38.141,Slot Machine Game,2023.1.3,Win32,147.0588235,,,,,,,,,,,,,,,,,,,,,,,,,,,120,,,,,,,,,,,,,,,,,,,,,2,5,,,347.299,4,left,0.0858,,1,0.3,"[1,2,3]",0.061063506,stimuli/card_0_transparent.png,0,4,0,4,0,1,,,,,,,,,,
,,,,5fb2c8b4b04a8594fc0a3825,A,2024-05-20_18h03.38.141,Slot Machine Game,2023.1.3,Win32,147.0588235,,,,,,,,,,,,,,,,,,,,,,,,,,,220,,,,,,,,,,,,,,,,,,,,,2,5,,,349.1927,5,left,0.0418,,0.5,0.3,"[3,1,2]",0.0490928,stimuli/card_100_transparent.png,100,5,0,5,0,1,,,,,,,,,,
,,,,5fb2c8b4b04a8594fc0a3825,A,2024-05-20_18h03.38.141,Slot Machine Game,2023.1.3,Win32,147.0588235,,,,,,,,,,,,,,,,,,,,,,,,,,,220,,,,,,,,,,,,,,,,,,,,,2,5,,,350.5455,6,left,0.2099,,0.5,0.3,"[3,1,2]",0.20051664,stimuli/card_0_transparent.png,0,6,0,6,0,1,,,,,,,,,,
,,,,5fb2c8b4b04a8594fc0a3825,A,2024-05-20_18h03.38.141,Slot Machine Game,2023.1.3,Win32,147.0588235,,,,,,,,,,,,,,,,,,,,,,,,,,,230,,,,,,,,,,,,,,,,,,,,,2,5,,,352.0647,7,left,0.0519,,1.5,0.3,"[3,1,2]",0.155673603,stimuli/card_10_transparent.png,10,7,0,7,0,1,,,,,,,,,,
,,,,5fb2c8b4b04a8594fc0a3825,A,2024-05-20_18h03.38.141,Slot Machine Game,2023.1.3,Win32,147.0588235,,,,,,,,,,,,,,,,,,,,,,,,,,,230,,,,,,,,,,,,,,,,,,,,,2,5,,,354.431,8,right,0.1553,,1.5,0.3,"[3,1,2]",0.0092581,stimuli/card_0_transparent.png,0,8,0,8,0,1,,,,,,,,,,
,,,,5fb2c8b4b04a8594fc0a3825,A,2024-05-20_18h03.38.141,Slot Machine Game,2023.1.3,Win32,147.0588235,,,,,,,,,,,,,,,,,,,,,,,,,,,330,,,,,,,,,,,,,,,,,,,,,2,5,,,356.8864,9,right,0.0003,,0.5,0.3,"[3,1,2]",0.100028059,stimuli/card_100_transparent.png,100,9,0,9,0,1,,,,,,,,,,
,,,,5fb2c8b4b04a8594fc0a3825,A,2024-05-20_18h03.38.141,Slot Machine Game,2023.1.3,Win32,147.0588235,,,,,,,,,,,,,,,,,,,,,,,,,,,340,,,,,,,,,,,,,,,,,,,,,2,5,,,358.2004,10,right,0.1789,,0.5,0.3,"[3,1,2]",0.568444353,stimuli/card_10_transparent.png,10,10,0,10,0,1,,,,,,,,,,
,,,,5fb2c8b4b04a8594fc0a3825,A,2024-05-20_18h03.38.141,Slot Machine Game,2023.1.3,Win32,147.0588235,,,,,,,,,,,,,,,,,,,,,,,,,,,350,,,,,,,,,,,,,,,,,,,,,2,5,,,359.682,11,right,0.0619,,1.5,0.3,"[3,1,2]",0.349094283,stimuli/card_10_transparent.png,10,11,0,11,0,1,,,,,,,,,,
,,,,5fb2c8b4b04a8594fc0a3825,A,2024-05-20_18h03.38.141,Slot Machine Game,2023.1.3,Win32,147.0588235,,,,,,,,,,,,,,,,,,,,,,,,,,,360,,,,,,,,,,,,,,,,,,,,,2,5,,,362.0545,12,right,0.2214,,1.5,0.3,"[3,1,2]",0.281095828,stimuli/card_10_transparent.png,10,12,0,12,0,1,,,,,,,,,,
,,,,5fb2c8b4b04a8594fc0a3825,A,2024-05-20_18h03.38.141,Slot Machine Game,2023.1.3,Win32,147.0588235,,,,,,,,,,,,,,,,,,,,,,,,,,,370,,,,,,,,,,,,,,,,,,,,,2,5,,,364.5865,13,up,0.1946,,0.5,0.3,"[3,1,2]",0.143696963,stimuli/card_10_transparent.png,10,13,0,13,0,1,,,,,,,,,,
,,,,5fb2c8b4b04a8594fc0a3825,A,2024-05-20_18h03.38.141,Slot Machine Game,2023.1.3,Win32,147.0588235,,,,,,,,,,,,,,,,,,,,,,,,,,,470,,,,,,,,,,,,,,,,,,,,,2,5,,,366.0919,14,up,0.1477,,1.5,0.3,"[3,1,2]",0.861834554,stimuli/card_100_transparent.png,100,14,0,14,0,1,,,,,,,,,,
,,,,5fb2c8b4b04a8594fc0a3825,A,2024-05-20_18h03.38.141,Slot Machine Game,2023.1.3,Win32,147.0588235,,,,,,,,,,,,,,,,,,,,,,,,,,,,,,,,,,,368.548,,,,,,,,,,,,,,,,,,,,,,,,,,,,,,,,,"[1120,470]",1,0,1,0,1,,,,
,,,,5fb2c8b4b04a8594fc0a3825,A,2024-05-20_18h03.38.141,Slot Machine Game,2023.1.3,Win32,147.0588235,,,,,,,,,,,,,,,,,,,,,,,,,,,100,,,,,,,,,,,,,,,,,,,,,3,7,"[9,15]","[[1,3,2],[2,3,1]]",373.5591,0,up,0.2618,,1,0.3,"[1,3,2]",0.088534155,stimuli/card_100_transparent.png,100,0,0,0,0,1,,,,,,,,,,
,,,,5fb2c8b4b04a8594fc0a3825,A,2024-05-20_18h03.38.141,Slot Machine Game,2023.1.3,Win32,147.0588235,,,,,,,,,,,,,,,,,,,,,,,,,,,100,,,,,,,,,,,,,,,,,,,,,3,7,,,375.6278,1,up,0.0277,,1.5,0.3,"[1,3,2]",0.711099922,stimuli/card_0_transparent.png,0,1,0,1,0,1,,,,,,,,,,
,,,,5fb2c8b4b04a8594fc0a3825,A,2024-05-20_18h03.38.141,Slot Machine Game,2023.1.3,Win32,147.0588235,,,,,,,,,,,,,,,,,,,,,,,,,,,100,,,,,,,,,,,,,,,,,,,,,3,7,,,377.9631,2,up,0.1671,,0.5,0.3,"[1,3,2]",0.720063227,stimuli/card_0_transparent.png,0,2,0,2,0,1,,,,,,,,,,
,,,,5fb2c8b4b04a8594fc0a3825,A,2024-05-20_18h03.38.141,Slot Machine Game,2023.1.3,Win32,147.0588235,,,,,,,,,,,,,,,,,,,,,,,,,,,100,,,,,,,,,,,,,,,,,,,,,3,7,,,379.4394,3,up,0.106,,1.5,0.3,"[1,3,2]",0.957580636,stimuli/card_0_transparent.png,0,3,0,3,0,1,,,,,,,,,,
,,,,5fb2c8b4b04a8594fc0a3825,A,2024-05-20_18h03.38.141,Slot Machine Game,2023.1.3,Win32,147.0588235,,,,,,,,,,,,,,,,,,,,,,,,,,,100,,,,,,,,,,,,,,,,,,,,,3,7,,,381.8536,4,left,0.2454,,0.5,0.3,"[1,3,2]",0.003820883,stimuli/card_0_transparent.png,0,4,0,4,0,1,,,,,,,,,,
,,,,5fb2c8b4b04a8594fc0a3825,A,2024-05-20_18h03.38.141,Slot Machine Game,2023.1.3,Win32,147.0588235,,,,,,,,,,,,,,,,,,,,,,,,,,,200,,,,,,,,,,,,,,,,,,,,,3,7,,,383.4025,5,left,0.0174,,0.5,0.3,"[1,3,2]",0.63273639,stimuli/card_100_transparent.png,100,5,0,5,0,1,,,,,,,,,,
,,,,5fb2c8b4b04a8594fc0a3825,A,2024-05-20_18h03.38.141,Slot Machine Game,2023.1.3,Win32,147.0588235,,,,,,,,,,,,,,,,,,,,,,,,,,,300,,,,,,,,,,,,,,,,,,,,,3,7,,,384.7192,6,left,0.1324,,1,0.3,"[1,3,2]",0.811902656,stimuli/card_100_transparent.png,100,6,0,6,0,1,,,,,,,,,,
,,,,5fb2c8b4b04a8594fc0a3825,A,2024-05-20_18h03.38.141,Slot Machine Game,2023.1.3,Win32,147.0588235,,,,,,,,,,,,,,,,,,,,,,,,,,,400,,,,,,,,,,,,,,,,,,,,,3,7,,,386.6614,7,left,0.1548,,1.5,0.3,"[1,3,2]",0.357639489,stimuli/card_100_transparent.png,100,7,0,7,0,1,,,,,,,,,,
,,,,5fb2c8b4b04a8594fc0a3825,A,2024-05-20_18h03.38.141,Slot Machine Game,2023.1.3,Win32,147.0588235,,,,,,,,,,,,,,,,,,,,,,,,,,,500,,,,,,,,,,,,,,,,,,,,,3,7,,,389.1274,8,left,0.0414,,0.5,0.3,"[1,3,2]",0.977508375,stimuli/card_100_transparent.png,100,8,0,8,0,1,,,,,,,,,,
,,,,5fb2c8b4b04a8594fc0a3825,A,2024-05-20_18h03.38.141,Slot Machine Game,2023.1.3,Win32,147.0588235,,,,,,,,,,,,,,,,,,,,,,,,,,,510,,,,,,,,,,,,,,,,,,,,,3,7,,,390.4787,9,left,0.0367,,1.5,0.3,"[2,3,1]",0.519819088,stimuli/card_10_transparent.png,10,9,0,9,0,1,,,,,,,,,,
,,,,5fb2c8b4b04a8594fc0a3825,A,2024-05-20_18h03.38.141,Slot Machine Game,2023.1.3,Win32,147.0588235,,,,,,,,,,,,,,,,,,,,,,,,,,,520,,,,,,,,,,,,,,,,,,,,,3,7,,,392.8351,10,left,0.1356,,1,0.3,"[2,3,1]",0.547464546,stimuli/card_10_transparent.png,10,10,0,10,0,1,,,,,,,,,,
,,,,5fb2c8b4b04a8594fc0a3825,A,2024-05-20_18h03.38.141,Slot Machine Game,2023.1.3,Win32,147.0588235,,,,,,,,,,,,,,,,,,,,,,,,,,,520,,,,,,,,,,,,,,,,,,,,,3,7,,,394.7846,11,right,0.3479,,1.5,0.3,"[2,3,1]",0.071726959,stimuli/card_0_transparent.png,0,11,0,11,0,1,,,,,,,,,,
,,,,5fb2c8b4b04a8594fc0a3825,A,2024-05-20_18h03.38.141,Slot Machine Game,2023.1.3,Win32,147.0588235,,,,,,,,,,,,,,,,,,,,,,,,,,,530,,,,,,,,,,,,,,,,,,,,,3,7,,,397.4417,12,right,0.0361,,1.5,0.3,"[2,3,1]",0.163944334,stimuli/card_10_transparent.png,10,12,0,12,0,1,,,,,,,,,,
,,,,5fb2c8b4b04a8594fc0a3825,A,2024-05-20_18h03.38.141,Slot Machine Game,2023.1.3,Win32,147.0588235,,,,,,,,,,,,,,,,,,,,,,,,,,,530,,,,,,,,,,,,,,,,,,,,,3,7,,,399.7863,13,up,0.0122,,1,0.3,"[2,3,1]",0.819196631,stimuli/card_0_transparent.png,0,13,0,13,0,1,,,,,,,,,,
,,,,5fb2c8b4b04a8594fc0a3825,A,2024-05-20_18h03.38.141,Slot Machine Game,2023.1.3,Win32,147.0588235,,,,,,,,,,,,,,,,,,,,,,,,,,,530,,,,,,,,,,,,,,,,,,,,,3,7,,,401.6107,14,up,0.0003,,0.5,0.3,"[2,3,1]",0.448498094,stimuli/card_0_transparent.png,0,14,0,14,0,1,,,,,,,,,,
,,,,5fb2c8b4b04a8594fc0a3825,A,2024-05-20_18h03.38.141,Slot Machine Game,2023.1.3,Win32,147.0588235,,,,,,,,,,,,,,,,,,,,,,,,,,,,,,,,,,,402.9221,,,,,,,,,,,,,,,,,,,,,,,,,,,,,,,,,"[1120,470,530]",2,0,2,0,1,,,,
,,,,5fb2c8b4b04a8594fc0a3825,A,2024-05-20_18h03.38.141,Slot Machine Game,2023.1.3,Win32,147.0588235,,,,,,,,,,,,,,,,,,,,,,,,,,,0,,,,,,,,,,,,,,,,,,,,,4,4,"[7,15]","[[2,3,1],[1,2,3]]",407.9354,0,up,0.1898,,1,0.3,"[2,3,1]",0.280165247,stimuli/card_0_transparent.png,0,0,0,0,0,1,,,,,,,,,,
,,,,5fb2c8b4b04a8594fc0a3825,A,2024-05-20_18h03.38.141,Slot Machine Game,2023.1.3,Win32,147.0588235,,,,,,,,,,,,,,,,,,,,,,,,,,,100,,,,,,,,,,,,,,,,,,,,,4,4,,,409.9392,1,up,0.1928,,0.5,0.3,"[2,3,1]",0.030812892,stimuli/card_100_transparent.png,100,1,0,1,0,1,,,,,,,,,,
,,,,5fb2c8b4b04a8594fc0a3825,A,2024-05-20_18h03.38.141,Slot Machine Game,2023.1.3,Win32,147.0588235,,,,,,,,,,,,,,,,,,,,,,,,,,,200,,,,,,,,,,,,,,,,,,,,,4,4,,,411.4416,2,up,0.1328,,1.5,0.3,"[2,3,1]",0.041275724,stimuli/card_100_transparent.png,100,2,0,2,0,1,,,,,,,,,,
,,,,5fb2c8b4b04a8594fc0a3825,A,2024-05-20_18h03.38.141,Slot Machine Game,2023.1.3,Win32,147.0588235,,,,,,,,,,,,,,,,,,,,,,,,,,,200,,,,,,,,,,,,,,,,,,,,,4,4,,,413.8799,3,up,0.0183,,1,0.3,"[2,3,1]",0.377800344,stimuli/card_0_transparent.png,0,3,0,3,0,1,,,,,,,,,,
,,,,5fb2c8b4b04a8594fc0a3825,A,2024-05-20_18h03.38.141,Slot Machine Game,2023.1.3,Win32,147.0588235,,,,,,,,,,,,,,,,,,,,,,,,,,,200,,,,,,,,,,,,,,,,,,,,,4,4,,,415.7011,4,up,0.0988,,1.5,0.3,"[2,3,1]",0.546697048,stimuli/card_0_transparent.png,0,4,0,4,0,1,,,,,,,,,,
,,,,5fb2c8b4b04a8594fc0a3825,A,2024-05-20_18h03.38.141,Slot Machine Game,2023.1.3,Win32,147.0588235,,,,,,,,,,,,,,,,,,,,,,,,,,,300,,,,,,,,,,,,,,,,,,,,,4,4,,,418.1082,5,right,0.5454,,1,0.3,"[2,3,1]",0.838192009,stimuli/card_100_transparent.png,100,5,0,5,0,1,,,,,,,,,,
,,,,5fb2c8b4b04a8594fc0a3825,A,2024-05-20_18h03.38.141,Slot Machine Game,2023.1.3,Win32,147.0588235,,,,,,,,,,,,,,,,,,,,,,,,,,,400,,,,,,,,,,,,,,,,,,,,,4,4,,,420.4667,6,right,0.2049,,0.5,0.3,"[2,3,1]",0.414716429,stimuli/card_100_transparent.png,100,6,0,6,0,1,,,,,,,,,,
,,,,5fb2c8b4b04a8594fc0a3825,A,2024-05-20_18h03.38.141,Slot Machine Game,2023.1.3,Win32,147.0588235,,,,,,,,,,,,,,,,,,,,,,,,,,,410,,,,,,,,,,,,,,,,,,,,,4,4,,,421.9825,7,right,0.0945,,1.5,0.3,"[1,2,3]",0.103128034,stimuli/card_10_transparent.png,10,7,0,7,0,1,,,,,,,,,,
,,,,5fb2c8b4b04a8594fc0a3825,A,2024-05-20_18h03.38.141,Slot Machine Game,2023.1.3,Win32,147.0588235,,,,,,,,,,,,,,,,,,,,,,,,,,,420,,,,,,,,,,,,,,,,,,,,,4,4,,,424.3857,8,right,0.3212,,1.5,0.3,"[1,2,3]",0.173771844,stimuli/card_10_transparent.png,10,8,0,8,0,1,,,,,,,,,,
,,,,5fb2c8b4b04a8594fc0a3825,A,2024-05-20_18h03.38.141,Slot Machine Game,2023.1.3,Win32,147.0588235,,,,,,,,,,,,,,,,,,,,,,,,,,,420,,,,,,,,,,,,,,,,,,,,,4,4,,,427.0226,9,right,0.2677,,0.5,0.3,"[1,2,3]",0.606889366,stimuli/card_0_transparent.png,0,9,0,9,0,1,,,,,,,,,,
,,,,5fb2c8b4b04a8594fc0a3825,A,2024-05-20_18h03.38.141,Slot Machine Game,2023.1.3,Win32,147.0588235,,,,,,,,,,,,,,,,,,,,,,,,,,,430,,,,,,,,,,,,,,,,,,,,,4,4,,,428.6082,10,left,0.0376,,1,0.3,"[1,2,3]",0.1831037,stimuli/card_10_transparent.png,10,10,0,10,0,1,,,,,,,,,,
,,,,5fb2c8b4b04a8594fc0a3825,A,2024-05-20_18h03.38.141,Slot Machine Game,2023.1.3,Win32,147.0588235,,,,,,,,,,,,,,,,,,,,,,,,,,,430,,,,,,,,,,,,,,,,,,,,,4,4,,,430.465,11,left,0.198,,1.5,0.3,"[1,2,3]",0.061778889,stimuli/card_0_transparent.png,0,11,0,11,0,1,,,,,,,,,,
,,,,5fb2c8b4b04a8594fc0a3825,A,2024-05-20_18h03.38.141,Slot Machine Game,2023.1.3,Win32,147.0588235,,,,,,,,,,,,,,,,,,,,,,,,,,,440,,,,,,,,,,,,,,,,,,,,,4,4,,,432.9607,12,up,0.1954,,1.5,0.3,"[1,2,3]",0.882167622,stimuli/card_10_transparent.png,10,12,0,12,0,1,,,,,,,,,,
,,,,5fb2c8b4b04a8594fc0a3825,A,2024-05-20_18h03.38.141,Slot Machine Game,2023.1.3,Win32,147.0588235,,,,,,,,,,,,,,,,,,,,,,,,,,,440,,,,,,,,,,,,,,,,,,,,,4,4,,,435.4582,13,up,0.0722,,1,0.3,"[1,2,3]",0.052216256,stimuli/card_0_transparent.png,0,13,0,13,0,1,,,,,,,,,,
,,,,5fb2c8b4b04a8594fc0a3825,A,2024-05-20_18h03.38.141,Slot Machine Game,2023.1.3,Win32,147.0588235,,,,,,,,,,,,,,,,,,,,,,,,,,,450,,,,,,,,,,,,,,,,,,,,,4,4,,,437.341,14,up,0.6334,,1,0.3,"[1,2,3]",0.25708673,stimuli/card_10_transparent.png,10,14,0,14,0,1,,,,,,,,,,
,,,,5fb2c8b4b04a8594fc0a3825,A,2024-05-20_18h03.38.141,Slot Machine Game,2023.1.3,Win32,147.0588235,,,,,,,,,,,,,,,,,,,,,,,,,,,,,,,,,,,439.787,,,,,,,,,,,,,,,,,,,,,,,,,,,,,,,,,"[1120,470,530,450]",3,0,3,0,1,,,,
,,,,5fb2c8b4b04a8594fc0a3825,A,2024-05-20_18h03.38.141,Slot Machine Game,2023.1.3,Win32,147.0588235,,,,,,,,,,,,,,,,,,,,,,,,,,,10,,,,,,,,,,,,,,,,,,,,,5,6,"[4,10,15]","[[2,3,1],[1,3,2],[3,2,1]]",444.7913,0,up,1.6165,,1,0.3,"[2,3,1]",0.140325217,stimuli/card_10_transparent.png,10,0,0,0,0,1,,,,,,,,,,
,,,,5fb2c8b4b04a8594fc0a3825,A,2024-05-20_18h03.38.141,Slot Machine Game,2023.1.3,Win32,147.0588235,,,,,,,,,,,,,,,,,,,,,,,,,,,10,,,,,,,,,,,,,,,,,,,,,5,6,,,448.2089,1,up,0.2224,,1,0.3,"[2,3,1]",0.436017616,stimuli/card_0_transparent.png,0,1,0,1,0,1,,,,,,,,,,
,,,,5fb2c8b4b04a8594fc0a3825,A,2024-05-20_18h03.38.141,Slot Machine Game,2023.1.3,Win32,147.0588235,,,,,,,,,,,,,,,,,,,,,,,,,,,110,,,,,,,,,,,,,,,,,,,,,5,6,,,450.241,2,up,0.0213,,1,0.3,"[2,3,1]",0.028831362,stimuli/card_100_transparent.png,100,2,0,2,0,1,,,,,,,,,,
,,,,5fb2c8b4b04a8594fc0a3825,A,2024-05-20_18h03.38.141,Slot Machine Game,2023.1.3,Win32,147.0588235,,,,,,,,,,,,,,,,,,,,,,,,,,,110,,,,,,,,,,,,,,,,,,,,,5,6,,,452.0723,3,up,0.2568,,1,0.3,"[2,3,1]",0.475860494,stimuli/card_0_transparent.png,0,3,0,3,0,1,,,,,,,,,,
,,,,5fb2c8b4b04a8594fc0a3825,A,2024-05-20_18h03.38.141,Slot Machine Game,2023.1.3,Win32,147.0588235,,,,,,,,,,,,,,,,,,,,,,,,,,,110,,,,,,,,,,,,,,,,,,,,,5,6,,,454.14,4,up,0.1532,,1,0.3,"[1,3,2]",0.482958492,stimuli/card_0_transparent.png,0,4,0,4,0,1,,,,,,,,,,
,,,,5fb2c8b4b04a8594fc0a3825,A,2024-05-20_18h03.38.141,Slot Machine Game,2023.1.3,Win32,147.0588235,,,,,,,,,,,,,,,,,,,,,,,,,,,120,,,,,,,,,,,,,,,,,,,,,5,6,,,456.1033,5,right,0.6112,,1,0.3,"[1,3,2]",0.688295271,stimuli/card_10_transparent.png,10,5,0,5,0,1,,,,,,,,,,
,,,,5fb2c8b4b04a8594fc0a3825,A,2024-05-20_18h03.38.141,Slot Machine Game,2023.1.3,Win32,147.0588235,,,,,,,,,,,,,,,,,,,,,,,,,,,130,,,,,,,,,,,,,,,,,,,,,5,6,,,458.5242,6,right,0.0698,,1.5,0.3,"[1,3,2]",0.794085955,stimuli/card_10_transparent.png,10,6,0,6,0,1,,,,,,,,,,
,,,,5fb2c8b4b04a8594fc0a3825,A,2024-05-20_18h03.38.141,Slot Machine Game,2023.1.3,Win32,147.0588235,,,,,,,,,,,,,,,,,,,,,,,,,,,140,,,,,,,,,,,,,,,,,,,,,5,6,,,460.9035,7,right,0.0706,,1,0.3,"[1,3,2]",0.741066924,stimuli/card_10_transparent.png,10,7,0,7,0,1,,,,,,,,,,
,,,,5fb2c8b4b04a8594fc0a3825,A,2024-05-20_18h03.38.141,Slot Machine Game,2023.1.3,Win32,147.0588235,,,,,,,,,,,,,,,,,,,,,,,,,,,140,,,,,,,,,,,,,,,,,,,,,5,6,,,462.7836,8,right,0.0693,,1.5,0.3,"[1,3,2]",0.033728775,stimuli/card_0_transparent.png,0,8,0,8,0,1,,,,,,,,,,
,,,,5fb2c8b4b04a8594fc0a3825,A,2024-05-20_18h03.38.141,Slot Machine Game,2023.1.3,Win32,147.0588235,,,,,,,,,,,,,,,,,,,,,,,,,,,150,,,,,,,,,,,,,,,,,,,,,5,6,,,465.1634,9,left,0.278,,0.5,0.3,"[1,3,2]",0.183774008,stimuli/card_10_transparent.png,10,9,0,9,0,1,,,,,,,,,,
,,,,5fb2c8b4b04a8594fc0a3825,A,2024-05-20_18h03.38.141,Slot Machine Game,2023.1.3,Win32,147.0588235,,,,,,,,,,,,,,,,,,,,,,,,,,,150,,,,,,,,,,,,,,,,,,,,,5,6,,,466.757,10,left,0.1943,,1,0.3,"[3,2,1]",0.887649338,stimuli/card_0_transparent.png,0,10,0,10,0,1,,,,,,,,,,
,,,,5fb2c8b4b04a8594fc0a3825,A,2024-05-20_18h03.38.141,Slot Machine Game,2023.1.3,Win32,147.0588235,,,,,,,,,,,,,,,,,,,,,,,,,,,150,,,,,,,,,,,,,,,,,,,,,5,6,,,468.7566,11,up,0.2777,,1,0.3,"[3,2,1]",0.036404676,stimuli/card_0_transparent.png,0,11,0,11,0,1,,,,,,,,,,
,,,,5fb2c8b4b04a8594fc0a3825,A,2024-05-20_18h03.38.141,Slot Machine Game,2023.1.3,Win32,147.0588235,,,,,,,,,,,,,,,,,,,,,,,,,,,160,,,,,,,,,,,,,,,,,,,,,5,6,,,470.8446,12,up,0.1528,,1.5,0.3,"[3,2,1]",0.460446554,stimuli/card_10_transparent.png,10,12,0,12,0,1,,,,,,,,,,
,,,,5fb2c8b4b04a8594fc0a3825,A,2024-05-20_18h03.38.141,Slot Machine Game,2023.1.3,Win32,147.0588235,,,,,,,,,,,,,,,,,,,,,,,,,,,260,,,,,,,,,,,,,,,,,,,,,5,6,,,473.3076,13,right,0.0281,,0.5,0.3,"[3,2,1]",0.47645153,stimuli/card_100_transparent.png,100,13,0,13,0,1,,,,,,,,,,
,,,,5fb2c8b4b04a8594fc0a3825,A,2024-05-20_18h03.38.141,Slot Machine Game,2023.1.3,Win32,147.0588235,,,,,,,,,,,,,,,,,,,,,,,,,,,270,,,,,,,,,,,,,,,,,,,,,5,6,,,474.6464,14,right,0.106,,1.5,0.3,"[3,2,1]",0.198595704,stimuli/card_10_transparent.png,10,14,0,14,0,1,,,,,,,,,,
,,,,5fb2c8b4b04a8594fc0a3825,A,2024-05-20_18h03.38.141,Slot Machine Game,2023.1.3,Win32,147.0588235,,,,,,,,,,,,,,,,,,,,,,,,,,,,,,,,,,,477.0605,,,,,,,,,,,,,,,,,,,,,,,,,,,,,,,,,"[1120,470,530,450,270]",4,0,4,0,1,,,,
,,,,5fb2c8b4b04a8594fc0a3825,A,2024-05-20_18h03.38.141,Slot Machine Game,2023.1.3,Win32,147.0588235,,,,,,,,,,,,,,,,,,,,,,,,,,,100,,,,,,,,,,,,,,,,,,,,,6,8,"[11,15]","[[2,1,3],[1,2,3]]",482.0748,0,up,0.2494,,1.5,0.3,"[2,1,3]",0.627202439,stimuli/card_100_transparent.png,100,0,0,0,0,1,,,,,,,,,,
,,,,5fb2c8b4b04a8594fc0a3825,A,2024-05-20_18h03.38.141,Slot Machine Game,2023.1.3,Win32,147.0588235,,,,,,,,,,,,,,,,,,,,,,,,,,,200,,,,,,,,,,,,,,,,,,,,,6,8,,,484.6292,1,up,0.0488,,1.5,0.3,"[2,1,3]",0.599019267,stimuli/card_100_transparent.png,100,1,0,1,0,1,,,,,,,,,,
,,,,5fb2c8b4b04a8594fc0a3825,A,2024-05-20_18h03.38.141,Slot Machine Game,2023.1.3,Win32,147.0588235,,,,,,,,,,,,,,,,,,,,,,,,,,,200,,,,,,,,,,,,,,,,,,,,,6,8,,,486.9876,2,up,0.0493,,0.5,0.3,"[2,1,3]",0.022748067,stimuli/card_0_transparent.png,0,2,0,2,0,1,,,,,,,,,,
,,,,5fb2c8b4b04a8594fc0a3825,A,2024-05-20_18h03.38.141,Slot Machine Game,2023.1.3,Win32,147.0588235,,,,,,,,,,,,,,,,,,,,,,,,,,,210,,,,,,,,,,,,,,,,,,,,,6,8,,,488.3476,3,left,0.207,,1,0.3,"[2,1,3]",0.258796826,stimuli/card_10_transparent.png,10,3,0,3,0,1,,,,,,,,,,
,,,,5fb2c8b4b04a8594fc0a3825,A,2024-05-20_18h03.38.141,Slot Machine Game,2023.1.3,Win32,147.0588235,,,,,,,,,,,,,,,,,,,,,,,,,,,220,,,,,,,,,,,,,,,,,,,,,6,8,,,490.3662,4,up,0.1802,,0.5,0.3,"[2,1,3]",0.102680613,stimuli/card_10_transparent.png,10,4,0,4,0,1,,,,,,,,,,
,,,,5fb2c8b4b04a8594fc0a3825,A,2024-05-20_18h03.38.141,Slot Machine Game,2023.1.3,Win32,147.0588235,,,,,,,,,,,,,,,,,,,,,,,,,,,320,,,,,,,,,,,,,,,,,,,,,6,8,,,491.8576,5,up,0.0827,,0.5,0.3,"[2,1,3]",0.854883899,stimuli/card_100_transparent.png,100,5,0,5,0,1,,,,,,,,,,
,,,,5fb2c8b4b04a8594fc0a3825,A,2024-05-20_18h03.38.141,Slot Machine Game,2023.1.3,Win32,147.0588235,,,,,,,,,,,,,,,,,,,,,,,,,,,420,,,,,,,,,,,,,,,,,,,,,6,8,,,493.2525,6,up,0.0827,,1.5,0.3,"[2,1,3]",0.856208654,stimuli/card_100_transparent.png,100,6,0,6,0,1,,,,,,,,,,
,,,,5fb2c8b4b04a8594fc0a3825,A,2024-05-20_18h03.38.141,Slot Machine Game,2023.1.3,Win32,147.0588235,,,,,,,,,,,,,,,,,,,,,,,,,,,520,,,,,,,,,,,,,,,,,,,,,6,8,,,495.6456,7,up,0.2229,,1,0.3,"[2,1,3]",0.87471478,stimuli/card_100_transparent.png,100,7,0,7,0,1,,,,,,,,,,
,,,,5fb2c8b4b04a8594fc0a3825,A,2024-05-20_18h03.38.141,Slot Machine Game,2023.1.3,Win32,147.0588235,,,,,,,,,,,,,,,,,,,,,,,,,,,620,,,,,,,,,,,,,,,,,,,,,6,8,,,497.6781,8,up,0.2175,,1,0.3,"[2,1,3]",0.874783219,stimuli/card_100_transparent.png,100,8,0,8,0,1,,,,,,,,,,
,,,,5fb2c8b4b04a8594fc0a3825,A,2024-05-20_18h03.38.141,Slot Machine Game,2023.1.3,Win32,147.0588235,,,,,,,,,,,,,,,,,,,,,,,,,,,720,,,,,,,,,,,,,,,,,,,,,6,8,,,499.7038,9,up,0.0155,,1.5,0.3,"[2,1,3]",0.387445974,stimuli/card_100_transparent.png,100,9,0,9,0,1,,,,,,,,,,
,,,,5fb2c8b4b04a8594fc0a3825,A,2024-05-20_18h03.38.141,Slot Machine Game,2023.1.3,Win32,147.0588235,,,,,,,,,,,,,,,,,,,,,,,,,,,820,,,,,,,,,,,,,,,,,,,,,6,8,,,502.0278,10,up,0.2673,,0.5,0.3,"[2,1,3]",0.927799535,stimuli/card_100_transparent.png,100,10,0,10,0,1,,,,,,,,,,
,,,,5fb2c8b4b04a8594fc0a3825,A,2024-05-20_18h03.38.141,Slot Machine Game,2023.1.3,Win32,147.0588235,,,,,,,,,,,,,,,,,,,,,,,,,,,830,,,,,,,,,,,,,,,,,,,,,6,8,,,503.6024,11,up,0.1663,,0.5,0.3,"[1,2,3]",0.761555681,stimuli/card_10_transparent.png,10,11,0,11,0,1,,,,,,,,,,
,,,,5fb2c8b4b04a8594fc0a3825,A,2024-05-20_18h03.38.141,Slot Machine Game,2023.1.3,Win32,147.0588235,,,,,,,,,,,,,,,,,,,,,,,,,,,840,,,,,,,,,,,,,,,,,,,,,6,8,,,505.0905,12,up,0.03,,1,0.3,"[1,2,3]",0.529617044,stimuli/card_10_transparent.png,10,12,0,12,0,1,,,,,,,,,,
,,,,5fb2c8b4b04a8594fc0a3825,A,2024-05-20_18h03.38.141,Slot Machine Game,2023.1.3,Win32,147.0588235,,,,,,,,,,,,,,,,,,,,,,,,,,,840,,,,,,,,,,,,,,,,,,,,,6,8,,,506.933,13,up,0.0895,,1.5,0.3,"[1,2,3]",0.083678661,stimuli/card_0_transparent.png,0,13,0,13,0,1,,,,,,,,,,
,,,,5fb2c8b4b04a8594fc0a3825,A,2024-05-20_18h03.38.141,Slot Machine Game,2023.1.3,Win32,147.0588235,,,,,,,,,,,,,,,,,,,,,,,,,,,840,,,,,,,,,,,,,,,,,,,,,6,8,,,509.34,14,right,0.121,,1.5,0.3,"[1,2,3]",0.475820977,stimuli/card_0_transparent.png,0,14,0,14,0,1,,,,,,,,,,
,,,,5fb2c8b4b04a8594fc0a3825,A,2024-05-20_18h03.38.141,Slot Machine Game,2023.1.3,Win32,147.0588235,,,,,,,,,,,,,,,,,,,,,,,,,,,,,,,,,,,511.7746,,,,,,,,,,,,,,,,,,,,,,,,,,,,,,,,,"[1120,470,530,450,270,840]",5,0,5,0,1,,,,
,,,,5fb2c8b4b04a8594fc0a3825,A,2024-05-20_18h03.38.141,Slot Machine Game,2023.1.3,Win32,147.0588235,,,,,,,,,,,,,,,,,,,,,,,,,,,10,,,,,,,,,,,,,,,,,,,,,7,9,"[8,15]","[[3,2,1],[3,1,2]]",516.7873,0,up,0.0623,,0.5,0.3,"[3,2,1]",0.22814346,stimuli/card_10_transparent.png,10,0,0,0,0,1,,,,,,,,,,
,,,,5fb2c8b4b04a8594fc0a3825,A,2024-05-20_18h03.38.141,Slot Machine Game,2023.1.3,Win32,147.0588235,,,,,,,,,,,,,,,,,,,,,,,,,,,20,,,,,,,,,,,,,,,,,,,,,7,9,,,518.1539,1,up,0.0488,,1,0.3,"[3,2,1]",0.741410747,stimuli/card_10_transparent.png,10,1,0,1,0,1,,,,,,,,,,
,,,,5fb2c8b4b04a8594fc0a3825,A,2024-05-20_18h03.38.141,Slot Machine Game,2023.1.3,Win32,147.0588235,,,,,,,,,,,,,,,,,,,,,,,,,,,30,,,,,,,,,,,,,,,,,,,,,7,9,,,520.0163,2,up,0.063,,1.5,0.3,"[3,2,1]",0.458311816,stimuli/card_10_transparent.png,10,2,0,2,0,1,,,,,,,,,,
,,,,5fb2c8b4b04a8594fc0a3825,A,2024-05-20_18h03.38.141,Slot Machine Game,2023.1.3,Win32,147.0588235,,,,,,,,,,,,,,,,,,,,,,,,,,,30,,,,,,,,,,,,,,,,,,,,,7,9,,,522.3887,3,left,0.064,,1,0.3,"[3,2,1]",0.902380467,stimuli/card_0_transparent.png,0,3,0,3,0,1,,,,,,,,,,
,,,,5fb2c8b4b04a8594fc0a3825,A,2024-05-20_18h03.38.141,Slot Machine Game,2023.1.3,Win32,147.0588235,,,,,,,,,,,,,,,,,,,,,,,,,,,30,,,,,,,,,,,,,,,,,,,,,7,9,,,524.2636,4,left,0.11,,1.5,0.3,"[3,2,1]",0.798274587,stimuli/card_0_transparent.png,0,4,0,4,0,1,,,,,,,,,,
,,,,5fb2c8b4b04a8594fc0a3825,A,2024-05-20_18h03.38.141,Slot Machine Game,2023.1.3,Win32,147.0588235,,,,,,,,,,,,,,,,,,,,,,,,,,,130,,,,,,,,,,,,,,,,,,,,,7,9,,,526.6825,5,right,0.0721,,1,0.3,"[3,2,1]",0.227258382,stimuli/card_100_transparent.png,100,5,0,5,0,1,,,,,,,,,,
,,,,5fb2c8b4b04a8594fc0a3825,A,2024-05-20_18h03.38.141,Slot Machine Game,2023.1.3,Win32,147.0588235,,,,,,,,,,,,,,,,,,,,,,,,,,,230,,,,,,,,,,,,,,,,,,,,,7,9,,,528.5559,6,right,0.0764,,1,0.3,"[3,2,1]",0.851344416,stimuli/card_100_transparent.png,100,6,0,6,0,1,,,,,,,,,,
,,,,5fb2c8b4b04a8594fc0a3825,A,2024-05-20_18h03.38.141,Slot Machine Game,2023.1.3,Win32,147.0588235,,,,,,,,,,,,,,,,,,,,,,,,,,,330,,,,,,,,,,,,,,,,,,,,,7,9,,,530.4426,7,right,0.3679,,1.5,0.3,"[3,2,1]",0.419908987,stimuli/card_100_transparent.png,100,7,0,7,0,1,,,,,,,,,,
,,,,5fb2c8b4b04a8594fc0a3825,A,2024-05-20_18h03.38.141,Slot Machine Game,2023.1.3,Win32,147.0588235,,,,,,,,,,,,,,,,,,,,,,,,,,,430,,,,,,,,,,,,,,,,,,,,,7,9,,,533.1207,8,right,0.1756,,1,0.3,"[3,1,2]",0.117080809,stimuli/card_100_transparent.png,100,8,0,8,0,1,,,,,,,,,,
,,,,5fb2c8b4b04a8594fc0a3825,A,2024-05-20_18h03.38.141,Slot Machine Game,2023.1.3,Win32,147.0588235,,,,,,,,,,,,,,,,,,,,,,,,,,,440,,,,,,,,,,,,,,,,,,,,,7,9,,,535.1045,9,right,0.0637,,1,0.3,"[3,1,2]",0.577586632,stimuli/card_10_transparent.png,10,9,0,9,0,1,,,,,,,,,,
,,,,5fb2c8b4b04a8594fc0a3825,A,2024-05-20_18h03.38.141,Slot Machine Game,2023.1.3,Win32,147.0588235,,,,,,,,,,,,,,,,,,,,,,,,,,,450,,,,,,,,,,,,,,,,,,,,,7,9,,,536.9739,10,right,0.1812,,1.5,0.3,"[3,1,2]",0.69610284,stimuli/card_10_transparent.png,10,10,0,10,0,1,,,,,,,,,,
,,,,5fb2c8b4b04a8594fc0a3825,A,2024-05-20_18h03.38.141,Slot Machine Game,2023.1.3,Win32,147.0588235,,,,,,,,,,,,,,,,,,,,,,,,,,,550,,,,,,,,,,,,,,,,,,,,,7,9,,,539.4611,11,up,0.0962,,1,0.3,"[3,1,2]",0.646860395,stimuli/card_100_transparent.png,100,11,0,11,0,1,,,,,,,,,,
,,,,5fb2c8b4b04a8594fc0a3825,A,2024-05-20_18h03.38.141,Slot Machine Game,2023.1.3,Win32,147.0588235,,,,,,,,,,,,,,,,,,,,,,,,,,,650,,,,,,,,,,,,,,,,,,,,,7,9,,,541.3688,12,up,0.0332,,1.5,0.3,"[3,1,2]",0.30282451,stimuli/card_100_transparent.png,100,12,0,12,0,1,,,,,,,,,,
,,,,5fb2c8b4b04a8594fc0a3825,A,2024-05-20_18h03.38.141,Slot Machine Game,2023.1.3,Win32,147.0588235,,,,,,,,,,,,,,,,,,,,,,,,,,,750,,,,,,,,,,,,,,,,,,,,,7,9,,,543.7137,13,up,0.2288,,1,0.3,"[3,1,2]",0.837540623,stimuli/card_100_transparent.png,100,13,0,13,0,1,,,,,,,,,,
,,,,5fb2c8b4b04a8594fc0a3825,A,2024-05-20_18h03.38.141,Slot Machine Game,2023.1.3,Win32,147.0588235,,,,,,,,,,,,,,,,,,,,,,,,,,,850,,,,,,,,,,,,,,,,,,,,,7,9,,,545.7603,14,up,0.1123,,1,0.3,"[3,1,2]",0.272193788,stimuli/card_100_transparent.png,100,14,0,14,0,1,,,,,,,,,,
,,,,5fb2c8b4b04a8594fc0a3825,A,2024-05-20_18h03.38.141,Slot Machine Game,2023.1.3,Win32,147.0588235,,,,,,,,,,,,,,,,,,,,,,,,,,,,,,,,,,,547.6818,,,,,,,,,,,,,,,,,,,,,,,,,,,,,,,,,"[1120,470,530,450,270,840,850]",6,0,6,0,1,,,,
,,,,5fb2c8b4b04a8594fc0a3825,A,2024-05-20_18h03.38.141,Slot Machine Game,2023.1.3,Win32,147.0588235,,,,,,,,,,,,,,,,,,,,,,,,,,,100,,,,,,,,,,,,,,,,,,,,,8,2,"[6,15]","[[1,3,2],[3,2,1]]",552.6863,0,left,0.7584,,1,0.3,"[1,3,2]",0.636495269,stimuli/card_100_transparent.png,100,0,0,0,0,1,,,,,,,,,,
,,,,5fb2c8b4b04a8594fc0a3825,A,2024-05-20_18h03.38.141,Slot Machine Game,2023.1.3,Win32,147.0588235,,,,,,,,,,,,,,,,,,,,,,,,,,,100,,,,,,,,,,,,,,,,,,,,,8,2,,,555.2542,1,left,0.1732,,1,0.3,"[1,3,2]",0.074013091,stimuli/card_0_transparent.png,0,1,0,1,0,1,,,,,,,,,,
,,,,5fb2c8b4b04a8594fc0a3825,A,2024-05-20_18h03.38.141,Slot Machine Game,2023.1.3,Win32,147.0588235,,,,,,,,,,,,,,,,,,,,,,,,,,,100,,,,,,,,,,,,,,,,,,,,,8,2,,,557.2387,2,left,0.2879,,1,0.3,"[1,3,2]",0.017362303,stimuli/card_0_transparent.png,0,2,0,2,0,1,,,,,,,,,,
,,,,5fb2c8b4b04a8594fc0a3825,A,2024-05-20_18h03.38.141,Slot Machine Game,2023.1.3,Win32,147.0588235,,,,,,,,,,,,,,,,,,,,,,,,,,,200,,,,,,,,,,,,,,,,,,,,,8,2,,,559.3305,3,left,0.1628,,1,0.3,"[1,3,2]",0.918350049,stimuli/card_100_transparent.png,100,3,0,3,0,1,,,,,,,,,,
,,,,5fb2c8b4b04a8594fc0a3825,A,2024-05-20_18h03.38.141,Slot Machine Game,2023.1.3,Win32,147.0588235,,,,,,,,,,,,,,,,,,,,,,,,,,,300,,,,,,,,,,,,,,,,,,,,,8,2,,,561.2931,4,left,0.086,,1.5,0.3,"[1,3,2]",0.35534705,stimuli/card_100_transparent.png,100,4,0,4,0,1,,,,,,,,,,
,,,,5fb2c8b4b04a8594fc0a3825,A,2024-05-20_18h03.38.141,Slot Machine Game,2023.1.3,Win32,147.0588235,,,,,,,,,,,,,,,,,,,,,,,,,,,400,,,,,,,,,,,,,,,,,,,,,8,2,,,563.6832,5,left,0.0229,,0.5,0.3,"[1,3,2]",0.384281527,stimuli/card_100_transparent.png,100,5,0,5,0,1,,,,,,,,,,
,,,,5fb2c8b4b04a8594fc0a3825,A,2024-05-20_18h03.38.141,Slot Machine Game,2023.1.3,Win32,147.0588235,,,,,,,,,,,,,,,,,,,,,,,,,,,400,,,,,,,,,,,,,,,,,,,,,8,2,,,565.014,6,left,0.1006,,1,0.3,"[3,2,1]",0.770943162,stimuli/card_0_transparent.png,0,6,0,6,0,1,,,,,,,,,,
,,,,5fb2c8b4b04a8594fc0a3825,A,2024-05-20_18h03.38.141,Slot Machine Game,2023.1.3,Win32,147.0588235,,,,,,,,,,,,,,,,,,,,,,,,,,,400,,,,,,,,,,,,,,,,,,,,,8,2,,,566.9262,7,left,0.2349,,0.5,0.3,"[3,2,1]",0.451800581,stimuli/card_0_transparent.png,0,7,0,7,0,1,,,,,,,,,,
,,,,5fb2c8b4b04a8594fc0a3825,A,2024-05-20_18h03.38.141,Slot Machine Game,2023.1.3,Win32,147.0588235,,,,,,,,,,,,,,,,,,,,,,,,,,,400,,,,,,,,,,,,,,,,,,,,,8,2,,,568.4665,8,left,0.1319,,1,0.3,"[3,2,1]",0.514078222,stimuli/card_0_transparent.png,0,8,0,8,0,1,,,,,,,,,,
,,,,5fb2c8b4b04a8594fc0a3825,A,2024-05-20_18h03.38.141,Slot Machine Game,2023.1.3,Win32,147.0588235,,,,,,,,,,,,,,,,,,,,,,,,,,,410,,,,,,,,,,,,,,,,,,,,,8,2,,,570.4087,9,up,0.2222,,1,0.3,"[3,2,1]",0.778995168,stimuli/card_10_transparent.png,10,9,0,9,0,1,,,,,,,,,,
,,,,5fb2c8b4b04a8594fc0a3825,A,2024-05-20_18h03.38.141,Slot Machine Game,2023.1.3,Win32,147.0588235,,,,,,,,,,,,,,,,,,,,,,,,,,,410,,,,,,,,,,,,,,,,,,,,,8,2,,,572.4381,10,up,0.2186,,1,0.3,"[3,2,1]",0.039694033,stimuli/card_0_transparent.png,0,10,0,10,0,1,,,,,,,,,,
,,,,5fb2c8b4b04a8594fc0a3825,A,2024-05-20_18h03.38.141,Slot Machine Game,2023.1.3,Win32,147.0588235,,,,,,,,,,,,,,,,,,,,,,,,,,,510,,,,,,,,,,,,,,,,,,,,,8,2,,,574.4668,11,up,0.1178,,1,0.3,"[3,2,1]",0.198673055,stimuli/card_100_transparent.png,100,11,0,11,0,1,,,,,,,,,,
,,,,5fb2c8b4b04a8594fc0a3825,A,2024-05-20_18h03.38.141,Slot Machine Game,2023.1.3,Win32,147.0588235,,,,,,,,,,,,,,,,,,,,,,,,,,,510,,,,,,,,,,,,,,,,,,,,,8,2,,,576.3951,12,up,0.1184,,1.5,0.3,"[3,2,1]",0.012901609,stimuli/card_0_transparent.png,0,12,0,12,0,1,,,,,,,,,,
,,,,5fb2c8b4b04a8594fc0a3825,A,2024-05-20_18h03.38.141,Slot Machine Game,2023.1.3,Win32,147.0588235,,,,,,,,,,,,,,,,,,,,,,,,,,,520,,,,,,,,,,,,,,,,,,,,,8,2,,,578.8238,13,up,0.0483,,1.5,0.3,"[3,2,1]",0.691739358,stimuli/card_10_transparent.png,10,13,0,13,0,1,,,,,,,,,,
,,,,5fb2c8b4b04a8594fc0a3825,A,2024-05-20_18h03.38.141,Slot Machine Game,2023.1.3,Win32,147.0588235,,,,,,,,,,,,,,,,,,,,,,,,,,,530,,,,,,,,,,,,,,,,,,,,,8,2,,,581.1826,14,right,0.0346,,1.5,0.3,"[3,2,1]",0.141646911,stimuli/card_10_transparent.png,10,14,0,14,0,1,,,,,,,,,,
,,,,5fb2c8b4b04a8594fc0a3825,A,2024-05-20_18h03.38.141,Slot Machine Game,2023.1.3,Win32,147.0588235,,,,,,,,,,,,,,,,,,,,,,,,,,,,,,,,,,,583.527,,,,,,,,,,,,,,,,,,,,,,,,,,,,,,,,,"[1120,470,530,450,270,840,850,530]",7,0,7,0,1,,,,
,,,,5fb2c8b4b04a8594fc0a3825,A,2024-05-20_18h03.38.141,Slot Machine Game,2023.1.3,Win32,147.0588235,,,,,,,,,,,,,,,,,,,,,,,,,,,10,,,,,,,,,,,,,,,,,,,,,9,10,"[10,15]","[[3,1,2],[1,3,2]]",588.5378,0,right,0.5774,,0.5,0.3,"[3,1,2]",0.692929335,stimuli/card_10_transparent.png,10,0,0,0,0,1,,,,,,,,,,
,,,,5fb2c8b4b04a8594fc0a3825,A,2024-05-20_18h03.38.141,Slot Machine Game,2023.1.3,Win32,147.0588235,,,,,,,,,,,,,,,,,,,,,,,,,,,20,,,,,,,,,,,,,,,,,,,,,9,10,,,590.4129,1,right,0.1031,,1,0.3,"[3,1,2]",0.947086705,stimuli/card_10_transparent.png,10,1,0,1,0,1,,,,,,,,,,
,,,,5fb2c8b4b04a8594fc0a3825,A,2024-05-20_18h03.38.141,Slot Machine Game,2023.1.3,Win32,147.0588235,,,,,,,,,,,,,,,,,,,,,,,,,,,30,,,,,,,,,,,,,,,,,,,,,9,10,,,592.3307,2,right,0.3559,,0.5,0.3,"[3,1,2]",0.245026098,stimuli/card_10_transparent.png,10,2,0,2,0,1,,,,,,,,,,
,,,,5fb2c8b4b04a8594fc0a3825,A,2024-05-20_18h03.38.141,Slot Machine Game,2023.1.3,Win32,147.0588235,,,,,,,,,,,,,,,,,,,,,,,,,,,40,,,,,,,,,,,,,,,,,,,,,9,10,,,594.0024,3,right,0.1881,,0.5,0.3,"[3,1,2]",0.726330002,stimuli/card_10_transparent.png,10,3,0,3,0,1,,,,,,,,,,
,,,,5fb2c8b4b04a8594fc0a3825,A,2024-05-20_18h03.38.141,Slot Machine Game,2023.1.3,Win32,147.0588235,,,,,,,,,,,,,,,,,,,,,,,,,,,140,,,,,,,,,,,,,,,,,,,,,9,10,,,595.5004,4,up,0.0702,,0.5,0.3,"[3,1,2]",0.367954607,stimuli/card_100_transparent.png,100,4,0,4,0,1,,,,,,,,,,
,,,,5fb2c8b4b04a8594fc0a3825,A,2024-05-20_18h03.38.141,Slot Machine Game,2023.1.3,Win32,147.0588235,,,,,,,,,,,,,,,,,,,,,,,,,,,240,,,,,,,,,,,,,,,,,,,,,9,10,,,596.881,5,up,0.1061,,1.5,0.3,"[3,1,2]",0.917136562,stimuli/card_100_transparent.png,100,5,0,5,0,1,,,,,,,,,,
,,,,5fb2c8b4b04a8594fc0a3825,A,2024-05-20_18h03.38.141,Slot Machine Game,2023.1.3,Win32,147.0588235,,,,,,,,,,,,,,,,,,,,,,,,,,,240,,,,,,,,,,,,,,,,,,,,,9,10,,,599.295,6,up,0.0496,,1.5,0.3,"[3,1,2]",0.057062422,stimuli/card_0_transparent.png,0,6,0,6,0,1,,,,,,,,,,
,,,,5fb2c8b4b04a8594fc0a3825,A,2024-05-20_18h03.38.141,Slot Machine Game,2023.1.3,Win32,147.0588235,,,,,,,,,,,,,,,,,,,,,,,,,,,340,,,,,,,,,,,,,,,,,,,,,9,10,,,601.6552,7,up,0.2154,,0.5,0.3,"[3,1,2]",0.604014377,stimuli/card_100_transparent.png,100,7,0,7,0,1,,,,,,,,,,
,,,,5fb2c8b4b04a8594fc0a3825,A,2024-05-20_18h03.38.141,Slot Machine Game,2023.1.3,Win32,147.0588235,,,,,,,,,,,,,,,,,,,,,,,,,,,440,,,,,,,,,,,,,,,,,,,,,9,10,,,603.1801,8,up,0.0422,,1.5,0.3,"[3,1,2]",0.961693391,stimuli/card_100_transparent.png,100,8,0,8,0,1,,,,,,,,,,
,,,,5fb2c8b4b04a8594fc0a3825,A,2024-05-20_18h03.38.141,Slot Machine Game,2023.1.3,Win32,147.0588235,,,,,,,,,,,,,,,,,,,,,,,,,,,540,,,,,,,,,,,,,,,,,,,,,9,10,,,605.5316,9,up,0.223,,1.5,0.3,"[3,1,2]",0.604946689,stimuli/card_100_transparent.png,100,9,0,9,0,1,,,,,,,,,,
,,,,5fb2c8b4b04a8594fc0a3825,A,2024-05-20_18h03.38.141,Slot Machine Game,2023.1.3,Win32,147.0588235,,,,,,,,,,,,,,,,,,,,,,,,,,,540,,,,,,,,,,,,,,,,,,,,,9,10,,,608.0638,10,up,0.0559,,1.5,0.3,"[1,3,2]",0.751209081,stimuli/card_0_transparent.png,0,10,0,10,0,1,,,,,,,,,,
,,,,5fb2c8b4b04a8594fc0a3825,A,2024-05-20_18h03.38.141,Slot Machine Game,2023.1.3,Win32,147.0588235,,,,,,,,,,,,,,,,,,,,,,,,,,,640,,,,,,,,,,,,,,,,,,,,,9,10,,,610.4296,11,left,0.2354,,1.5,0.3,"[1,3,2]",0.615101994,stimuli/card_100_transparent.png,100,11,0,11,0,1,,,,,,,,,,
,,,,5fb2c8b4b04a8594fc0a3825,A,2024-05-20_18h03.38.141,Slot Machine Game,2023.1.3,Win32,147.0588235,,,,,,,,,,,,,,,,,,,,,,,,,,,650,,,,,,,,,,,,,,,,,,,,,9,10,,,612.9753,12,left,0.1366,,1,0.3,"[1,3,2]",0.118672855,stimuli/card_10_transparent.png,10,12,0,12,0,1,,,,,,,,,,
,,,,5fb2c8b4b04a8594fc0a3825,A,2024-05-20_18h03.38.141,Slot Machine Game,2023.1.3,Win32,147.0588235,,,,,,,,,,,,,,,,,,,,,,,,,,,750,,,,,,,,,,,,,,,,,,,,,9,10,,,614.925,13,left,0.216,,1.5,0.3,"[1,3,2]",0.424419964,stimuli/card_100_transparent.png,100,13,0,13,0,1,,,,,,,,,,
,,,,5fb2c8b4b04a8594fc0a3825,A,2024-05-20_18h03.38.141,Slot Machine Game,2023.1.3,Win32,147.0588235,,,,,,,,,,,,,,,,,,,,,,,,,,,850,,,,,,,,,,,,,,,,,,,,,9,10,,,617.4508,14,left,0.1104,,0.5,0.3,"[1,3,2]",0.962943137,stimuli/card_100_transparent.png,100,14,0,14,0,1,,,,,,,,,,
,,,,5fb2c8b4b04a8594fc0a3825,A,2024-05-20_18h03.38.141,Slot Machine Game,2023.1.3,Win32,147.0588235,,,,,,,,,,,,,,,,,,,,,,,,,,,,,,,,,,,618.8724,,,,,,,,,,,,,,,,,,,,,,,,,,,,,,,,,"[1120,470,530,450,270,840,850,530,850]",8,0,8,0,1,,,,
,,,,5fb2c8b4b04a8594fc0a3825,A,2024-05-20_18h03.38.141,Slot Machine Game,2023.1.3,Win32,147.0588235,,,,,,,,,,,,,,,,,,,,,,,,,,,0,,,,,,,,,,,,,,,,,,,,,10,3,"[15,15]","[[3,1,2],[3,1,2]]",623.8835,0,left,0.9835,,0.5,0.3,"[3,1,2]",0.24839674,stimuli/card_0_transparent.png,0,0,0,0,0,1,,,,,,,,,,
,,,,5fb2c8b4b04a8594fc0a3825,A,2024-05-20_18h03.38.141,Slot Machine Game,2023.1.3,Win32,147.0588235,,,,,,,,,,,,,,,,,,,,,,,,,,,0,,,,,,,,,,,,,,,,,,,,,10,3,,,626.1718,1,left,0.2084,,0.5,0.3,"[3,1,2]",0.207092671,stimuli/card_0_transparent.png,0,1,0,1,0,1,,,,,,,,,,
,,,,5fb2c8b4b04a8594fc0a3825,A,2024-05-20_18h03.38.141,Slot Machine Game,2023.1.3,Win32,147.0588235,,,,,,,,,,,,,,,,,,,,,,,,,,,100,,,,,,,,,,,,,,,,,,,,,10,3,,,627.6963,2,up,0.7129,,0.5,0.3,"[3,1,2]",0.253165538,stimuli/card_100_transparent.png,100,2,0,2,0,1,,,,,,,,,,
,,,,5fb2c8b4b04a8594fc0a3825,A,2024-05-20_18h03.38.141,Slot Machine Game,2023.1.3,Win32,147.0588235,,,,,,,,,,,,,,,,,,,,,,,,,,,200,,,,,,,,,,,,,,,,,,,,,10,3,,,629.7225,3,up,0.2898,,0.5,0.3,"[3,1,2]",0.383419897,stimuli/card_100_transparent.png,100,3,0,3,0,1,,,,,,,,,,
,,,,5fb2c8b4b04a8594fc0a3825,A,2024-05-20_18h03.38.141,Slot Machine Game,2023.1.3,Win32,147.0588235,,,,,,,,,,,,,,,,,,,,,,,,,,,300,,,,,,,,,,,,,,,,,,,,,10,3,,,631.3173,4,up,0.145,,0.5,0.3,"[3,1,2]",0.940484479,stimuli/card_100_transparent.png,100,4,0,4,0,1,,,,,,,,,,
,,,,5fb2c8b4b04a8594fc0a3825,A,2024-05-20_18h03.38.141,Slot Machine Game,2023.1.3,Win32,147.0588235,,,,,,,,,,,,,,,,,,,,,,,,,,,300,,,,,,,,,,,,,,,,,,,,,10,3,,,632.7753,5,up,0.0816,,1.5,0.3,"[3,1,2]",0.05134834,stimuli/card_0_transparent.png,0,5,0,5,0,1,,,,,,,,,,
,,,,5fb2c8b4b04a8594fc0a3825,A,2024-05-20_18h03.38.141,Slot Machine Game,2023.1.3,Win32,147.0588235,,,,,,,,,,,,,,,,,,,,,,,,,,,400,,,,,,,,,,,,,,,,,,,,,10,3,,,635.1676,6,up,0.0352,,0.5,0.3,"[3,1,2]",0.296355046,stimuli/card_100_transparent.png,100,6,0,6,0,1,,,,,,,,,,
,,,,5fb2c8b4b04a8594fc0a3825,A,2024-05-20_18h03.38.141,Slot Machine Game,2023.1.3,Win32,147.0588235,,,,,,,,,,,,,,,,,,,,,,,,,,,500,,,,,,,,,,,,,,,,,,,,,10,3,,,636.5137,7,up,0.0736,,0.5,0.3,"[3,1,2]",0.48206034,stimuli/card_100_transparent.png,100,7,0,7,0,1,,,,,,,,,,
,,,,5fb2c8b4b04a8594fc0a3825,A,2024-05-20_18h03.38.141,Slot Machine Game,2023.1.3,Win32,147.0588235,,,,,,,,,,,,,,,,,,,,,,,,,,,600,,,,,,,,,,,,,,,,,,,,,10,3,,,637.8941,8,up,0.001,,1,0.3,"[3,1,2]",0.626171514,stimuli/card_100_transparent.png,100,8,0,8,0,1,,,,,,,,,,
,,,,5fb2c8b4b04a8594fc0a3825,A,2024-05-20_18h03.38.141,Slot Machine Game,2023.1.3,Win32,147.0588235,,,,,,,,,,,,,,,,,,,,,,,,,,,700,,,,,,,,,,,,,,,,,,,,,10,3,,,639.705,9,up,0.3006,,0.5,0.3,"[3,1,2]",0.259839261,stimuli/card_100_transparent.png,100,9,0,9,0,1,,,,,,,,,,
,,,,5fb2c8b4b04a8594fc0a3825,A,2024-05-20_18h03.38.141,Slot Machine Game,2023.1.3,Win32,147.0588235,,,,,,,,,,,,,,,,,,,,,,,,,,,800,,,,,,,,,,,,,,,,,,,,,10,3,,,641.3147,10,up,0.195,,0.5,0.3,"[3,1,2]",0.986056985,stimuli/card_100_transparent.png,100,10,0,10,0,1,,,,,,,,,,
,,,,5fb2c8b4b04a8594fc0a3825,A,2024-05-20_18h03.38.141,Slot Machine Game,2023.1.3,Win32,147.0588235,,,,,,,,,,,,,,,,,,,,,,,,,,,900,,,,,,,,,,,,,,,,,,,,,10,3,,,642.8196,11,up,0.0559,,1,0.3,"[3,1,2]",0.876213618,stimuli/card_100_transparent.png,100,11,0,11,0,1,,,,,,,,,,
,,,,5fb2c8b4b04a8594fc0a3825,A,2024-05-20_18h03.38.141,Slot Machine Game,2023.1.3,Win32,147.0588235,,,,,,,,,,,,,,,,,,,,,,,,,,,1000,,,,,,,,,,,,,,,,,,,,,10,3,,,644.6858,12,up,0.188,,1.5,0.3,"[3,1,2]",0.388440534,stimuli/card_100_transparent.png,100,12,0,12,0,1,,,,,,,,,,
,,,,5fb2c8b4b04a8594fc0a3825,A,2024-05-20_18h03.38.141,Slot Machine Game,2023.1.3,Win32,147.0588235,,,,,,,,,,,,,,,,,,,,,,,,,,,1100,,,,,,,,,,,,,,,,,,,,,10,3,,,647.1831,13,up,0.244,,1.5,0.3,"[3,1,2]",0.854054152,stimuli/card_100_transparent.png,100,13,0,13,0,1,,,,,,,,,,
,,,,5fb2c8b4b04a8594fc0a3825,A,2024-05-20_18h03.38.141,Slot Machine Game,2023.1.3,Win32,147.0588235,,,,,,,,,,,,,,,,,,,,,,,,,,,1200,,,,,,,,,,,,,,,,,,,,,10,3,,,649.736,14,up,0.0632,,0.5,0.3,"[3,1,2]",0.548007619,stimuli/card_100_transparent.png,100,14,0,14,0,1,,,,,,,,,,
,,,,5fb2c8b4b04a8594fc0a3825,A,2024-05-20_18h03.38.141,Slot Machine Game,2023.1.3,Win32,147.0588235,,,,,,,,,,,,,,,,,,,,,,,,,,,,,,,,,,,651.1099,,,,,,,,,,,,,,,,,,,,,,,,,,,,,,,,,"[1120,470,530,450,270,840,850,530,850,1200]",9,0,9,0,1,,,,
,,,,5fb2c8b4b04a8594fc0a3825,A,2024-05-20_18h03.38.141,Slot Machine Game,2023.1.3,Win32,147.0588235,,,,,,,,,,,,,,,,,,,,,,,,,,,,,,,,,,,,,,,,,,,,,,,,,,,,,,,,,,,,,,,,,,,,,,,,,,9,"[1120,470,530,450,270,840,850,530,850,1200]",11.2,2024-05-20_18h14.38.320
