key_resp_welcome_started,key_resp_welcome_keys,key_resp_welcome_rt,key_resp_welcome_duration,prolific_pid,path_id,date,expName,psychopyVersion,OS,frameRate,key_resp_instruction1_started,key_resp_instruction1_keys,key_resp_instruction1_rt,key_resp_instruction1_duration,key_resp_instruction2_started,key_resp_instruction2_keys,key_resp_instruction2_rt,key_resp_instruction2_duration,key_resp_instruction3_started,key_resp_instruction3_keys,key_resp_instruction3_rt,key_resp_instruction3_duration,key_resp_instruction4_started,key_resp_instruction4_keys,key_resp_instruction4_rt,key_resp_instruction4_duration,practiceCondition,practice_reward_seqs,practice_trial_started,practice_trial_num,practice_resp_rt,practice_keypress_time,practice_resp_keys,prac_presentationInterval,practice_reward_seq,reward_img,cumulative_reward,trial_reward,practice_trials.thisRepN,practice_trials.thisTrialN,practice_trials.thisN,practice_trials.thisIndex,practice_trials.ran,block_break_started,practice_end_time,practice_end_keys,practice_end_rt,practice_end_duration,main_instruction_text_started,block_condition,block_order_indices,main_instruction_keys,main_instruction_rt,main_instruction_duration,block_number,block_assignment,current_condition,main_reward_seqs,main_trial_started,main_trial_num,main_trial_keys,main_trial_rt,main_trial_keypress_time,main_presentationInterval,reward_presentation_time,main_reward_seq,reward_rand_val,main_reward_img,current_reward,main_trials.thisRepN,main_trials.thisTrialN,main_trials.thisN,main_trials.thisIndex,main_trials.ran,block_reward,block.thisRepN,block.thisTrialN,block.thisN,block.thisIndex,block.ran,block_reward.length,block_reward_all,reward_amount,date_end_task
0.0002,space,7.0075,,5eeba783164680119f2e30c7,B,2024-08-16_15h57.15.117,Slot Machine Game,2023.1.3,Win32,60.60606061,,,,,,,,,,,,,,,,,,,,,,,,,,,,,,,,,,,,,,,,,,,,,,,,,,,,,,,,,,,,,,,,,,,,,,,,,,
,,,,5eeba783164680119f2e30c7,B,2024-08-16_15h57.15.117,Slot Machine Game,2023.1.3,Win32,60.60606061,7.0262,space,26.191,,,,,,,,,,,,,,,,,,,,,,,,,,,,,,,,,,,,,,,,,,,,,,,,,,,,,,,,,,,,,,,,,,,,,,,
,,,,5eeba783164680119f2e30c7,B,2024-08-16_15h57.15.117,Slot Machine Game,2023.1.3,Win32,60.60606061,,,,,33.2368,space,49.0521,,,,,,,,,,,,,,,,,,,,,,,,,,,,,,,,,,,,,,,,,,,,,,,,,,,,,,,,,,,,,,,,,,,
,,,,5eeba783164680119f2e30c7,B,2024-08-16_15h57.15.117,Slot Machine Game,2023.1.3,Win32,60.60606061,,,,,,,,,82.3234,space,19.1813,,,,,,,,,,,,,,,,,,,,,,,,,,,,,,,,,,,,,,,,,,,,,,,,,,,,,,,,,,,,,,,
,,,,5eeba783164680119f2e30c7,B,2024-08-16_15h57.15.117,Slot Machine Game,2023.1.3,Win32,60.60606061,,,,,,,,,,,,,,,,,,,,,,,,,,,,,,,,,,,,,,,,,,,,,,,,,,,,,,,,,,,,,,,,,,,,,,,,,,
,,,,5eeba783164680119f2e30c7,B,2024-08-16_15h57.15.117,Slot Machine Game,2023.1.3,Win32,60.60606061,,,,,,,,,,,,,243.2129,space,27.2237,,,,,,,,,,,,,,,,,,,,,,,,,,,,,,,,,,,,,,,,,,,,,,,,,,,,,,,,,,,
,,,,5eeba783164680119f2e30c7,B,2024-08-16_15h57.15.117,Slot Machine Game,2023.1.3,Win32,60.60606061,,,,,,,,,,,,,,,,,"[9,15]","[[2,1,3],[2,3,1]]",270.4674,0,2.586,273.0816,right,0.5,"[2,1,3]",stimuli/card_10_transparent.png,10,10,0,0,0,0,1,,,,,,,,,,,,,,,,,,,,,,,,,,,,,,,,,,,,,,,,,
,,,,5eeba783164680119f2e30c7,B,2024-08-16_15h57.15.117,Slot Machine Game,2023.1.3,Win32,60.60606061,,,,,,,,,,,,,,,,,,,273.8813,1,2.9796,276.8966,left,1,"[2,1,3]",stimuli/card_10_transparent.png,20,10,1,0,1,0,1,,,,,,,,,,,,,,,,,,,,,,,,,,,,,,,,,,,,,,,,,
,,,,5eeba783164680119f2e30c7,B,2024-08-16_15h57.15.117,Slot Machine Game,2023.1.3,Win32,60.60606061,,,,,,,,,,,,,,,,,,,278.1956,2,2.7548,280.9904,up,1.5,"[2,1,3]",stimuli/card_100_transparent.png,120,100,2,0,2,0,1,,,,,,,,,,,,,,,,,,,,,,,,,,,,,,,,,,,,,,,,,
,,,,5eeba783164680119f2e30c7,B,2024-08-16_15h57.15.117,Slot Machine Game,2023.1.3,Win32,60.60606061,,,,,,,,,,,,,,,,,,,282.7904,3,3.1643,285.9852,left,0.5,"[2,1,3]",stimuli/card_0_transparent.png,120,0,3,0,3,0,1,,,,,,,,,,,,,,,,,,,,,,,,,,,,,,,,,,,,,,,,,
,,,,5eeba783164680119f2e30c7,B,2024-08-16_15h57.15.117,Slot Machine Game,2023.1.3,Win32,60.60606061,,,,,,,,,,,,,,,,,,,286.7848,4,2.682,289.4987,right,0.5,"[2,1,3]",stimuli/card_0_transparent.png,120,0,4,0,4,0,1,,,,,,,,,,,,,,,,,,,,,,,,,,,,,,,,,,,,,,,,,
,,,,5eeba783164680119f2e30c7,B,2024-08-16_15h57.15.117,Slot Machine Game,2023.1.3,Win32,60.60606061,,,,,,,,,,,,,,,,,,,290.298,5,2.4817,292.8119,up,1.5,"[2,1,3]",stimuli/card_100_transparent.png,220,100,5,0,5,0,1,,,,,,,,,,,,,,,,,,,,,,,,,,,,,,,,,,,,,,,,,
,,,,5eeba783164680119f2e30c7,B,2024-08-16_15h57.15.117,Slot Machine Game,2023.1.3,Win32,60.60606061,,,,,,,,,,,,,,,,,,,294.6105,6,2.3815,297.0246,up,1.5,"[2,1,3]",stimuli/card_100_transparent.png,320,100,6,0,6,0,1,,,,,,,,,,,,,,,,,,,,,,,,,,,,,,,,,,,,,,,,,
,,,,5eeba783164680119f2e30c7,B,2024-08-16_15h57.15.117,Slot Machine Game,2023.1.3,Win32,60.60606061,,,,,,,,,,,,,,,,,,,298.8228,7,2.5715,301.4202,left,0.5,"[2,1,3]",stimuli/card_10_transparent.png,330,10,7,0,7,0,1,,,,,,,,,,,,,,,,,,,,,,,,,,,,,,,,,,,,,,,,,
,,,,5eeba783164680119f2e30c7,B,2024-08-16_15h57.15.117,Slot Machine Game,2023.1.3,Win32,60.60606061,,,,,,,,,,,,,,,,,,,302.2196,8,2.3071,304.5506,right,0.5,"[2,1,3]",stimuli/card_100_transparent.png,430,100,8,0,8,0,1,,,,,,,,,,,,,,,,,,,,,,,,,,,,,,,,,,,,,,,,,
,,,,5eeba783164680119f2e30c7,B,2024-08-16_15h57.15.117,Slot Machine Game,2023.1.3,Win32,60.60606061,,,,,,,,,,,,,,,,,,,305.35,9,1.8659,307.2479,right,1.5,"[2,3,1]",stimuli/card_100_transparent.png,530,100,9,0,9,0,1,,,,,,,,,,,,,,,,,,,,,,,,,,,,,,,,,,,,,,,,,
,,,,5eeba783164680119f2e30c7,B,2024-08-16_15h57.15.117,Slot Machine Game,2023.1.3,Win32,60.60606061,,,,,,,,,,,,,,,,,,,309.0462,10,2.7141,311.7767,up,1,"[2,3,1]",stimuli/card_0_transparent.png,530,0,10,0,10,0,1,,,,,,,,,,,,,,,,,,,,,,,,,,,,,,,,,,,,,,,,,
,,,,5eeba783164680119f2e30c7,B,2024-08-16_15h57.15.117,Slot Machine Game,2023.1.3,Win32,60.60606061,,,,,,,,,,,,,,,,,,,313.0738,11,1.6735,314.7776,left,0.5,"[2,3,1]",stimuli/card_10_transparent.png,540,10,11,0,11,0,1,,,,,,,,,,,,,,,,,,,,,,,,,,,,,,,,,,,,,,,,,
,,,,5eeba783164680119f2e30c7,B,2024-08-16_15h57.15.117,Slot Machine Game,2023.1.3,Win32,60.60606061,,,,,,,,,,,,,,,,,,,315.5765,12,2.2488,317.8578,right,0.5,"[2,3,1]",stimuli/card_100_transparent.png,640,100,12,0,12,0,1,,,,,,,,,,,,,,,,,,,,,,,,,,,,,,,,,,,,,,,,,
,,,,5eeba783164680119f2e30c7,B,2024-08-16_15h57.15.117,Slot Machine Game,2023.1.3,Win32,60.60606061,,,,,,,,,,,,,,,,,,,318.6569,13,2.6818,321.3709,right,0.5,"[2,3,1]",stimuli/card_100_transparent.png,740,100,13,0,13,0,1,,,,,,,,,,,,,,,,,,,,,,,,,,,,,,,,,,,,,,,,,
,,,,5eeba783164680119f2e30c7,B,2024-08-16_15h57.15.117,Slot Machine Game,2023.1.3,Win32,60.60606061,,,,,,,,,,,,,,,,,,,322.1698,14,2.2822,324.4847,right,0.5,"[2,3,1]",stimuli/card_100_transparent.png,840,100,14,0,14,0,1,,,,,,,,,,,,,,,,,,,,,,,,,,,,,,,,,,,,,,,,,
,,,,5eeba783164680119f2e30c7,B,2024-08-16_15h57.15.117,Slot Machine Game,2023.1.3,Win32,60.60606061,,,,,,,,,,,,,,,,,"[6,15]","[[1,3,2],[3,1,2]]",330.3052,0,2.2653,332.5933,left,1,"[1,3,2]",stimuli/card_100_transparent.png,100,100,0,0,0,0,1,325.2927,,,,,,,,,,,,,,,,,,,,,,,,,,,,,,,,,,,,,,,,
,,,,5eeba783164680119f2e30c7,B,2024-08-16_15h57.15.117,Slot Machine Game,2023.1.3,Win32,60.60606061,,,,,,,,,,,,,,,,,,,333.8917,1,2.6655,336.5897,left,0.5,"[1,3,2]",stimuli/card_100_transparent.png,200,100,1,0,1,0,1,,,,,,,,,,,,,,,,,,,,,,,,,,,,,,,,,,,,,,,,,
,,,,5eeba783164680119f2e30c7,B,2024-08-16_15h57.15.117,Slot Machine Game,2023.1.3,Win32,60.60606061,,,,,,,,,,,,,,,,,,,337.3885,2,2.5151,339.936,left,0.5,"[1,3,2]",stimuli/card_100_transparent.png,300,100,2,0,2,0,1,,,,,,,,,,,,,,,,,,,,,,,,,,,,,,,,,,,,,,,,,
,,,,5eeba783164680119f2e30c7,B,2024-08-16_15h57.15.117,Slot Machine Game,2023.1.3,Win32,60.60606061,,,,,,,,,,,,,,,,,,,340.735,3,2.3657,343.1332,left,1.5,"[1,3,2]",stimuli/card_100_transparent.png,400,100,3,0,3,0,1,,,,,,,,,,,,,,,,,,,,,,,,,,,,,,,,,,,,,,,,,
,,,,5eeba783164680119f2e30c7,B,2024-08-16_15h57.15.117,Slot Machine Game,2023.1.3,Win32,60.60606061,,,,,,,,,,,,,,,,,,,344.9309,4,1.8661,346.8298,up,1.5,"[1,3,2]",stimuli/card_0_transparent.png,400,0,4,0,4,0,1,,,,,,,,,,,,,,,,,,,,,,,,,,,,,,,,,,,,,,,,,
,,,,5eeba783164680119f2e30c7,B,2024-08-16_15h57.15.117,Slot Machine Game,2023.1.3,Win32,60.60606061,,,,,,,,,,,,,,,,,,,348.6274,5,1.8823,350.5424,right,0.5,"[1,3,2]",stimuli/card_10_transparent.png,410,10,5,0,5,0,1,,,,,,,,,,,,,,,,,,,,,,,,,,,,,,,,,,,,,,,,,
,,,,5eeba783164680119f2e30c7,B,2024-08-16_15h57.15.117,Slot Machine Game,2023.1.3,Win32,60.60606061,,,,,,,,,,,,,,,,,,,351.3414,6,1.7494,353.1231,right,0.5,"[3,1,2]",stimuli/card_10_transparent.png,420,10,6,0,6,0,1,,,,,,,,,,,,,,,,,,,,,,,,,,,,,,,,,,,,,,,,,
,,,,5eeba783164680119f2e30c7,B,2024-08-16_15h57.15.117,Slot Machine Game,2023.1.3,Win32,60.60606061,,,,,,,,,,,,,,,,,,,353.9221,7,2.8482,356.803,right,1.5,"[3,1,2]",stimuli/card_10_transparent.png,430,10,7,0,7,0,1,,,,,,,,,,,,,,,,,,,,,,,,,,,,,,,,,,,,,,,,,
,,,,5eeba783164680119f2e30c7,B,2024-08-16_15h57.15.117,Slot Machine Game,2023.1.3,Win32,60.60606061,,,,,,,,,,,,,,,,,,,358.6006,8,2.5485,361.1822,right,1,"[3,1,2]",stimuli/card_0_transparent.png,430,0,8,0,8,0,1,,,,,,,,,,,,,,,,,,,,,,,,,,,,,,,,,,,,,,,,,
,,,,5eeba783164680119f2e30c7,B,2024-08-16_15h57.15.117,Slot Machine Game,2023.1.3,Win32,60.60606061,,,,,,,,,,,,,,,,,,,362.4804,9,0.7833,363.2962,left,1.5,"[3,1,2]",stimuli/card_0_transparent.png,430,0,9,0,9,0,1,,,,,,,,,,,,,,,,,,,,,,,,,,,,,,,,,,,,,,,,,
,,,,5eeba783164680119f2e30c7,B,2024-08-16_15h57.15.117,Slot Machine Game,2023.1.3,Win32,60.60606061,,,,,,,,,,,,,,,,,,,365.0943,10,0.7002,365.8272,up,1,"[3,1,2]",stimuli/card_100_transparent.png,530,100,10,0,10,0,1,,,,,,,,,,,,,,,,,,,,,,,,,,,,,,,,,,,,,,,,,
,,,,5eeba783164680119f2e30c7,B,2024-08-16_15h57.15.117,Slot Machine Game,2023.1.3,Win32,60.60606061,,,,,,,,,,,,,,,,,,,367.1258,11,1.6826,368.8413,up,1,"[3,1,2]",stimuli/card_100_transparent.png,630,100,11,0,11,0,1,,,,,,,,,,,,,,,,,,,,,,,,,,,,,,,,,,,,,,,,,
,,,,5eeba783164680119f2e30c7,B,2024-08-16_15h57.15.117,Slot Machine Game,2023.1.3,Win32,60.60606061,,,,,,,,,,,,,,,,,,,370.1396,12,2.1322,372.3045,up,1.5,"[3,1,2]",stimuli/card_100_transparent.png,730,100,12,0,12,0,1,,,,,,,,,,,,,,,,,,,,,,,,,,,,,,,,,,,,,,,,,
,,,,5eeba783164680119f2e30c7,B,2024-08-16_15h57.15.117,Slot Machine Game,2023.1.3,Win32,60.60606061,,,,,,,,,,,,,,,,,,,374.1021,13,3.0595,377.1964,up,1.5,"[3,1,2]",stimuli/card_10_transparent.png,740,10,13,0,13,0,1,,,,,,,,,,,,,,,,,,,,,,,,,,,,,,,,,,,,,,,,,
,,,,5eeba783164680119f2e30c7,B,2024-08-16_15h57.15.117,Slot Machine Game,2023.1.3,Win32,60.60606061,,,,,,,,,,,,,,,,,,,378.9924,14,1.052,380.0771,left,0.5,"[3,1,2]",stimuli/card_0_transparent.png,740,0,14,0,14,0,1,,,,,,,,,,,,,,,,,,,,,,,,,,,,,,,,,,,,,,,,,
,,,,5eeba783164680119f2e30c7,B,2024-08-16_15h57.15.117,Slot Machine Game,2023.1.3,Win32,60.60606061,,,,,,,,,,,,,,,,,,,,,,,,,,,,,,,,,,380.8746,385.8722,space,40.6028,,,,,,,,,,,,,,,,,,,,,,,,,,,,,,,,,,,,,
,,,,5eeba783164680119f2e30c7,B,2024-08-16_15h57.15.117,Slot Machine Game,2023.1.3,Win32,60.60606061,,,,,,,,,,,,,,,,,,,,,,,,,,,,,,,,,,,,,,,426.4998,3,"[0,4,6,3,5,7,8,1,9,2]",space,18.3731,,,,,,,,,,,,,,,,,,,,,,,,,,,,,,,
,,,,5eeba783164680119f2e30c7,B,2024-08-16_15h57.15.117,Slot Machine Game,2023.1.3,Win32,60.60606061,,,,,,,,,,,,,,,,,,,,,,,,,,,0,,,,,,,,,,,,,,,,,,1,1,"[12,15]","[[2,1,3],[2,3,1]]",444.908,0,right,0.8843,445.8133,0.5,0.3,"[2,1,3]",0.868425412,stimuli/card_0_transparent.png,0,0,0,0,0,1,,,,,,,,,,
,,,,5eeba783164680119f2e30c7,B,2024-08-16_15h57.15.117,Slot Machine Game,2023.1.3,Win32,60.60606061,,,,,,,,,,,,,,,,,,,,,,,,,,,100,,,,,,,,,,,,,,,,,,1,1,,,446.6122,1,up,2.3347,448.9771,1.5,0.3,"[2,1,3]",0.592017496,stimuli/card_100_transparent.png,100,1,0,1,0,1,,,,,,,,,,
,,,,5eeba783164680119f2e30c7,B,2024-08-16_15h57.15.117,Slot Machine Game,2023.1.3,Win32,60.60606061,,,,,,,,,,,,,,,,,,,,,,,,,,,200,,,,,,,,,,,,,,,,,,1,1,,,450.7741,2,up,1.9823,452.7887,1.5,0.3,"[2,1,3]",0.341458444,stimuli/card_100_transparent.png,100,2,0,2,0,1,,,,,,,,,,
,,,,5eeba783164680119f2e30c7,B,2024-08-16_15h57.15.117,Slot Machine Game,2023.1.3,Win32,60.60606061,,,,,,,,,,,,,,,,,,,,,,,,,,,300,,,,,,,,,,,,,,,,,,1,1,,,454.587,3,up,2.3586,456.9691,0.5,0.3,"[2,1,3]",0.203514965,stimuli/card_100_transparent.png,100,3,0,3,0,1,,,,,,,,,,
,,,,5eeba783164680119f2e30c7,B,2024-08-16_15h57.15.117,Slot Machine Game,2023.1.3,Win32,60.60606061,,,,,,,,,,,,,,,,,,,,,,,,,,,400,,,,,,,,,,,,,,,,,,1,1,,,457.7672,4,up,2.4253,460.2148,0.5,0.3,"[2,1,3]",0.829979383,stimuli/card_100_transparent.png,100,4,0,4,0,1,,,,,,,,,,
,,,,5eeba783164680119f2e30c7,B,2024-08-16_15h57.15.117,Slot Machine Game,2023.1.3,Win32,60.60606061,,,,,,,,,,,,,,,,,,,,,,,,,,,500,,,,,,,,,,,,,,,,,,1,1,,,461.014,5,up,2.9599,463.9955,1.5,0.3,"[2,1,3]",0.647301028,stimuli/card_100_transparent.png,100,5,0,5,0,1,,,,,,,,,,
,,,,5eeba783164680119f2e30c7,B,2024-08-16_15h57.15.117,Slot Machine Game,2023.1.3,Win32,60.60606061,,,,,,,,,,,,,,,,,,,,,,,,,,,600,,,,,,,,,,,,,,,,,,1,1,,,465.7925,6,up,3.2053,469.0238,1,0.3,"[2,1,3]",0.870687738,stimuli/card_100_transparent.png,100,6,0,6,0,1,,,,,,,,,,
,,,,5eeba783164680119f2e30c7,B,2024-08-16_15h57.15.117,Slot Machine Game,2023.1.3,Win32,60.60606061,,,,,,,,,,,,,,,,,,,,,,,,,,,700,,,,,,,,,,,,,,,,,,1,1,,,470.3217,7,up,2.7383,473.0866,1,0.3,"[2,1,3]",0.225576727,stimuli/card_100_transparent.png,100,7,0,7,0,1,,,,,,,,,,
,,,,5eeba783164680119f2e30c7,B,2024-08-16_15h57.15.117,Slot Machine Game,2023.1.3,Win32,60.60606061,,,,,,,,,,,,,,,,,,,,,,,,,,,800,,,,,,,,,,,,,,,,,,1,1,,,474.3845,8,up,1.6496,476.0663,0.5,0.3,"[2,1,3]",0.578156657,stimuli/card_100_transparent.png,100,8,0,8,0,1,,,,,,,,,,
,,,,5eeba783164680119f2e30c7,B,2024-08-16_15h57.15.117,Slot Machine Game,2023.1.3,Win32,60.60606061,,,,,,,,,,,,,,,,,,,,,,,,,,,800,,,,,,,,,,,,,,,,,,1,1,,,476.8651,9,up,2.4985,479.397,1.5,0.3,"[2,1,3]",0.055063178,stimuli/card_0_transparent.png,0,9,0,9,0,1,,,,,,,,,,
,,,,5eeba783164680119f2e30c7,B,2024-08-16_15h57.15.117,Slot Machine Game,2023.1.3,Win32,60.60606061,,,,,,,,,,,,,,,,,,,,,,,,,,,810,,,,,,,,,,,,,,,,,,1,1,,,481.1944,10,left,1.4651,482.6794,1,0.3,"[2,1,3]",0.812801915,stimuli/card_10_transparent.png,10,10,0,10,0,1,,,,,,,,,,
,,,,5eeba783164680119f2e30c7,B,2024-08-16_15h57.15.117,Slot Machine Game,2023.1.3,Win32,60.60606061,,,,,,,,,,,,,,,,,,,,,,,,,,,810,,,,,,,,,,,,,,,,,,1,1,,,483.9748,11,right,2.6822,486.6888,1,0.3,"[2,1,3]",0.723117834,stimuli/card_0_transparent.png,0,11,0,11,0,1,,,,,,,,,,
,,,,5eeba783164680119f2e30c7,B,2024-08-16_15h57.15.117,Slot Machine Game,2023.1.3,Win32,60.60606061,,,,,,,,,,,,,,,,,,,,,,,,,,,820,,,,,,,,,,,,,,,,,,1,1,,,487.9877,12,left,2.1586,490.1685,0.5,0.3,"[2,3,1]",0.748730803,stimuli/card_10_transparent.png,10,12,0,12,0,1,,,,,,,,,,
,,,,5eeba783164680119f2e30c7,B,2024-08-16_15h57.15.117,Slot Machine Game,2023.1.3,Win32,60.60606061,,,,,,,,,,,,,,,,,,,,,,,,,,,830,,,,,,,,,,,,,,,,,,1,1,,,490.9681,13,left,2.6313,493.6334,1.5,0.3,"[2,3,1]",0.376725808,stimuli/card_10_transparent.png,10,13,0,13,0,1,,,,,,,,,,
,,,,5eeba783164680119f2e30c7,B,2024-08-16_15h57.15.117,Slot Machine Game,2023.1.3,Win32,60.60606061,,,,,,,,,,,,,,,,,,,,,,,,,,,840,,,,,,,,,,,,,,,,,,1,1,,,495.4306,14,up,3.5974,499.0613,1,0.3,"[2,3,1]",0.125766067,stimuli/card_10_transparent.png,10,14,0,14,0,1,,,,,,,,,,
,,,,5eeba783164680119f2e30c7,B,2024-08-16_15h57.15.117,Slot Machine Game,2023.1.3,Win32,60.60606061,,,,,,,,,,,,,,,,,,,,,,,,,,,,,,,,,,500.3589,,,,,,,,,,,,,,,,,,,,,,,,,,,,,,,[840],0,0,0,0,1,,,,
,,,,5eeba783164680119f2e30c7,B,2024-08-16_15h57.15.117,Slot Machine Game,2023.1.3,Win32,60.60606061,,,,,,,,,,,,,,,,,,,,,,,,,,,0,,,,,,,,,,,,,,,,,,2,5,"[5,15]","[[1,2,3],[3,1,2]]",505.3646,0,right,0.9956,506.3696,1.5,0.3,"[1,2,3]",0.748439096,stimuli/card_0_transparent.png,0,0,0,0,0,1,,,,,,,,,,
,,,,5eeba783164680119f2e30c7,B,2024-08-16_15h57.15.117,Slot Machine Game,2023.1.3,Win32,60.60606061,,,,,,,,,,,,,,,,,,,,,,,,,,,10,,,,,,,,,,,,,,,,,,2,5,,,508.1679,1,up,1.2339,509.4331,1,0.3,"[1,2,3]",0.678934368,stimuli/card_10_transparent.png,10,1,0,1,0,1,,,,,,,,,,
,,,,5eeba783164680119f2e30c7,B,2024-08-16_15h57.15.117,Slot Machine Game,2023.1.3,Win32,60.60606061,,,,,,,,,,,,,,,,,,,,,,,,,,,20,,,,,,,,,,,,,,,,,,2,5,,,510.7321,2,left,1.2933,512.0474,1.5,0.3,"[1,2,3]",0.116390004,stimuli/card_10_transparent.png,10,2,0,2,0,1,,,,,,,,,,
,,,,5eeba783164680119f2e30c7,B,2024-08-16_15h57.15.117,Slot Machine Game,2023.1.3,Win32,60.60606061,,,,,,,,,,,,,,,,,,,,,,,,,,,120,,,,,,,,,,,,,,,,,,2,5,,,513.8456,3,left,1.3486,515.2143,1,0.3,"[1,2,3]",0.613719931,stimuli/card_100_transparent.png,100,3,0,3,0,1,,,,,,,,,,
,,,,5eeba783164680119f2e30c7,B,2024-08-16_15h57.15.117,Slot Machine Game,2023.1.3,Win32,60.60606061,,,,,,,,,,,,,,,,,,,,,,,,,,,120,,,,,,,,,,,,,,,,,,2,5,,,516.5097,4,right,2.048,518.5777,1,0.3,"[1,2,3]",0.448503437,stimuli/card_0_transparent.png,0,4,0,4,0,1,,,,,,,,,,
,,,,5eeba783164680119f2e30c7,B,2024-08-16_15h57.15.117,Slot Machine Game,2023.1.3,Win32,60.60606061,,,,,,,,,,,,,,,,,,,,,,,,,,,120,,,,,,,,,,,,,,,,,,2,5,,,519.8732,5,left,0.8335,520.7387,0.5,0.3,"[3,1,2]",0.642260544,stimuli/card_0_transparent.png,0,5,0,5,0,1,,,,,,,,,,
,,,,5eeba783164680119f2e30c7,B,2024-08-16_15h57.15.117,Slot Machine Game,2023.1.3,Win32,60.60606061,,,,,,,,,,,,,,,,,,,,,,,,,,,120,,,,,,,,,,,,,,,,,,2,5,,,521.5381,6,left,1.9525,523.5196,1,0.3,"[3,1,2]",0.833966746,stimuli/card_0_transparent.png,0,6,0,6,0,1,,,,,,,,,,
,,,,5eeba783164680119f2e30c7,B,2024-08-16_15h57.15.117,Slot Machine Game,2023.1.3,Win32,60.60606061,,,,,,,,,,,,,,,,,,,,,,,,,,,120,,,,,,,,,,,,,,,,,,2,5,,,524.8181,7,left,1.0841,525.9505,1.5,0.3,"[3,1,2]",0.773127397,stimuli/card_0_transparent.png,0,7,0,7,0,1,,,,,,,,,,
,,,,5eeba783164680119f2e30c7,B,2024-08-16_15h57.15.117,Slot Machine Game,2023.1.3,Win32,60.60606061,,,,,,,,,,,,,,,,,,,,,,,,,,,220,,,,,,,,,,,,,,,,,,2,5,,,527.7487,8,up,0.9005,528.6811,1.5,0.3,"[3,1,2]",0.739918075,stimuli/card_100_transparent.png,100,8,0,8,0,1,,,,,,,,,,
,,,,5eeba783164680119f2e30c7,B,2024-08-16_15h57.15.117,Slot Machine Game,2023.1.3,Win32,60.60606061,,,,,,,,,,,,,,,,,,,,,,,,,,,320,,,,,,,,,,,,,,,,,,2,5,,,530.4793,9,up,0.9426,531.4453,0.5,0.3,"[3,1,2]",0.38894546,stimuli/card_100_transparent.png,100,9,0,9,0,1,,,,,,,,,,
,,,,5eeba783164680119f2e30c7,B,2024-08-16_15h57.15.117,Slot Machine Game,2023.1.3,Win32,60.60606061,,,,,,,,,,,,,,,,,,,,,,,,,,,420,,,,,,,,,,,,,,,,,,2,5,,,532.2443,10,up,1.0396,533.3097,1,0.3,"[3,1,2]",0.579079206,stimuli/card_100_transparent.png,100,10,0,10,0,1,,,,,,,,,,
,,,,5eeba783164680119f2e30c7,B,2024-08-16_15h57.15.117,Slot Machine Game,2023.1.3,Win32,60.60606061,,,,,,,,,,,,,,,,,,,,,,,,,,,430,,,,,,,,,,,,,,,,,,2,5,,,534.6087,11,up,0.7102,535.3411,0.5,0.3,"[3,1,2]",0.105099758,stimuli/card_10_transparent.png,10,11,0,11,0,1,,,,,,,,,,
,,,,5eeba783164680119f2e30c7,B,2024-08-16_15h57.15.117,Slot Machine Game,2023.1.3,Win32,60.60606061,,,,,,,,,,,,,,,,,,,,,,,,,,,440,,,,,,,,,,,,,,,,,,2,5,,,536.1406,12,up,1.206,537.373,0.5,0.3,"[3,1,2]",0.105914237,stimuli/card_10_transparent.png,10,12,0,12,0,1,,,,,,,,,,
,,,,5eeba783164680119f2e30c7,B,2024-08-16_15h57.15.117,Slot Machine Game,2023.1.3,Win32,60.60606061,,,,,,,,,,,,,,,,,,,,,,,,,,,540,,,,,,,,,,,,,,,,,,2,5,,,538.1719,13,up,0.8183,539.0209,0.5,0.3,"[3,1,2]",0.953169077,stimuli/card_100_transparent.png,100,13,0,13,0,1,,,,,,,,,,
,,,,5eeba783164680119f2e30c7,B,2024-08-16_15h57.15.117,Slot Machine Game,2023.1.3,Win32,60.60606061,,,,,,,,,,,,,,,,,,,,,,,,,,,640,,,,,,,,,,,,,,,,,,2,5,,,539.8201,14,up,0.7021,540.5527,1.5,0.3,"[3,1,2]",0.464923765,stimuli/card_100_transparent.png,100,14,0,14,0,1,,,,,,,,,,
,,,,5eeba783164680119f2e30c7,B,2024-08-16_15h57.15.117,Slot Machine Game,2023.1.3,Win32,60.60606061,,,,,,,,,,,,,,,,,,,,,,,,,,,,,,,,,,542.3511,,,,,,,,,,,,,,,,,,,,,,,,,,,,,,,"[840,640]",1,0,1,0,1,,,,
,,,,5eeba783164680119f2e30c7,B,2024-08-16_15h57.15.117,Slot Machine Game,2023.1.3,Win32,60.60606061,,,,,,,,,,,,,,,,,,,,,,,,,,,10,,,,,,,,,,,,,,,,,,3,7,"[9,15]","[[1,3,2],[2,3,1]]",547.3569,0,left,1.3533,548.7282,1,0.3,"[1,3,2]",0.180861014,stimuli/card_10_transparent.png,10,0,0,0,0,1,,,,,,,,,,
,,,,5eeba783164680119f2e30c7,B,2024-08-16_15h57.15.117,Slot Machine Game,2023.1.3,Win32,60.60606061,,,,,,,,,,,,,,,,,,,,,,,,,,,20,,,,,,,,,,,,,,,,,,3,7,,,550.0271,1,right,1.0889,551.1424,0.5,0.3,"[1,3,2]",0.56581814,stimuli/card_10_transparent.png,10,1,0,1,0,1,,,,,,,,,,
,,,,5eeba783164680119f2e30c7,B,2024-08-16_15h57.15.117,Slot Machine Game,2023.1.3,Win32,60.60606061,,,,,,,,,,,,,,,,,,,,,,,,,,,20,,,,,,,,,,,,,,,,,,3,7,,,551.9416,2,up,1.449,553.4233,1.5,0.3,"[1,3,2]",0.79828953,stimuli/card_0_transparent.png,0,2,0,2,0,1,,,,,,,,,,
,,,,5eeba783164680119f2e30c7,B,2024-08-16_15h57.15.117,Slot Machine Game,2023.1.3,Win32,60.60606061,,,,,,,,,,,,,,,,,,,,,,,,,,,20,,,,,,,,,,,,,,,,,,3,7,,,555.2218,3,right,0.6396,555.871,1,0.3,"[1,3,2]",0.069954254,stimuli/card_0_transparent.png,0,3,0,3,0,1,,,,,,,,,,
,,,,5eeba783164680119f2e30c7,B,2024-08-16_15h57.15.117,Slot Machine Game,2023.1.3,Win32,60.60606061,,,,,,,,,,,,,,,,,,,,,,,,,,,30,,,,,,,,,,,,,,,,,,3,7,,,557.1702,4,left,0.7557,557.9526,0.5,0.3,"[1,3,2]",0.180023083,stimuli/card_10_transparent.png,10,4,0,4,0,1,,,,,,,,,,
,,,,5eeba783164680119f2e30c7,B,2024-08-16_15h57.15.117,Slot Machine Game,2023.1.3,Win32,60.60606061,,,,,,,,,,,,,,,,,,,,,,,,,,,130,,,,,,,,,,,,,,,,,,3,7,,,558.752,5,left,1.0384,559.8173,0.5,0.3,"[1,3,2]",0.532609897,stimuli/card_100_transparent.png,100,5,0,5,0,1,,,,,,,,,,
,,,,5eeba783164680119f2e30c7,B,2024-08-16_15h57.15.117,Slot Machine Game,2023.1.3,Win32,60.60606061,,,,,,,,,,,,,,,,,,,,,,,,,,,230,,,,,,,,,,,,,,,,,,3,7,,,560.6165,6,left,1.6828,562.3313,1.5,0.3,"[1,3,2]",0.98957116,stimuli/card_100_transparent.png,100,6,0,6,0,1,,,,,,,,,,
,,,,5eeba783164680119f2e30c7,B,2024-08-16_15h57.15.117,Slot Machine Game,2023.1.3,Win32,60.60606061,,,,,,,,,,,,,,,,,,,,,,,,,,,330,,,,,,,,,,,,,,,,,,3,7,,,564.1299,7,left,0.8667,565.0288,1.5,0.3,"[1,3,2]",0.227581879,stimuli/card_100_transparent.png,100,7,0,7,0,1,,,,,,,,,,
,,,,5eeba783164680119f2e30c7,B,2024-08-16_15h57.15.117,Slot Machine Game,2023.1.3,Win32,60.60606061,,,,,,,,,,,,,,,,,,,,,,,,,,,430,,,,,,,,,,,,,,,,,,3,7,,,566.8272,8,left,1.1989,568.0461,0.5,0.3,"[1,3,2]",0.295489598,stimuli/card_100_transparent.png,100,8,0,8,0,1,,,,,,,,,,
,,,,5eeba783164680119f2e30c7,B,2024-08-16_15h57.15.117,Slot Machine Game,2023.1.3,Win32,60.60606061,,,,,,,,,,,,,,,,,,,,,,,,,,,440,,,,,,,,,,,,,,,,,,3,7,,,568.8417,9,left,1.1988,570.0739,0.5,0.3,"[2,3,1]",0.543605391,stimuli/card_10_transparent.png,10,9,0,9,0,1,,,,,,,,,,
,,,,5eeba783164680119f2e30c7,B,2024-08-16_15h57.15.117,Slot Machine Game,2023.1.3,Win32,60.60606061,,,,,,,,,,,,,,,,,,,,,,,,,,,450,,,,,,,,,,,,,,,,,,3,7,,,570.8731,10,left,1.359,572.2551,0.5,0.3,"[2,3,1]",0.367655218,stimuli/card_10_transparent.png,10,10,0,10,0,1,,,,,,,,,,
,,,,5eeba783164680119f2e30c7,B,2024-08-16_15h57.15.117,Slot Machine Game,2023.1.3,Win32,60.60606061,,,,,,,,,,,,,,,,,,,,,,,,,,,550,,,,,,,,,,,,,,,,,,3,7,,,573.0544,11,left,0.6939,573.7701,1,0.3,"[2,3,1]",0.123657721,stimuli/card_100_transparent.png,100,11,0,11,0,1,,,,,,,,,,
,,,,5eeba783164680119f2e30c7,B,2024-08-16_15h57.15.117,Slot Machine Game,2023.1.3,Win32,60.60606061,,,,,,,,,,,,,,,,,,,,,,,,,,,550,,,,,,,,,,,,,,,,,,3,7,,,575.0692,12,left,0.5836,575.6851,1.5,0.3,"[2,3,1]",0.049452404,stimuli/card_0_transparent.png,0,12,0,12,0,1,,,,,,,,,,
,,,,5eeba783164680119f2e30c7,B,2024-08-16_15h57.15.117,Slot Machine Game,2023.1.3,Win32,60.60606061,,,,,,,,,,,,,,,,,,,,,,,,,,,650,,,,,,,,,,,,,,,,,,3,7,,,577.4866,13,up,0.5937,578.0994,1.5,0.3,"[2,3,1]",0.03938876,stimuli/card_100_transparent.png,100,13,0,13,0,1,,,,,,,,,,
,,,,5eeba783164680119f2e30c7,B,2024-08-16_15h57.15.117,Slot Machine Game,2023.1.3,Win32,60.60606061,,,,,,,,,,,,,,,,,,,,,,,,,,,650,,,,,,,,,,,,,,,,,,3,7,,,579.8977,14,up,0.6783,580.5968,1.5,0.3,"[2,3,1]",0.819733399,stimuli/card_0_transparent.png,0,14,0,14,0,1,,,,,,,,,,
,,,,5eeba783164680119f2e30c7,B,2024-08-16_15h57.15.117,Slot Machine Game,2023.1.3,Win32,60.60606061,,,,,,,,,,,,,,,,,,,,,,,,,,,,,,,,,,582.3952,,,,,,,,,,,,,,,,,,,,,,,,,,,,,,,"[840,640,650]",2,0,2,0,1,,,,
,,,,5eeba783164680119f2e30c7,B,2024-08-16_15h57.15.117,Slot Machine Game,2023.1.3,Win32,60.60606061,,,,,,,,,,,,,,,,,,,,,,,,,,,100,,,,,,,,,,,,,,,,,,4,4,"[7,15]","[[2,3,1],[1,2,3]]",587.4025,0,right,1.1397,588.556,1.5,0.3,"[2,3,1]",0.860280622,stimuli/card_100_transparent.png,100,0,0,0,0,1,,,,,,,,,,
,,,,5eeba783164680119f2e30c7,B,2024-08-16_15h57.15.117,Slot Machine Game,2023.1.3,Win32,60.60606061,,,,,,,,,,,,,,,,,,,,,,,,,,,200,,,,,,,,,,,,,,,,,,4,4,,,590.3542,1,right,0.9419,591.32,1.5,0.3,"[2,3,1]",0.589084928,stimuli/card_100_transparent.png,100,1,0,1,0,1,,,,,,,,,,
,,,,5eeba783164680119f2e30c7,B,2024-08-16_15h57.15.117,Slot Machine Game,2023.1.3,Win32,60.60606061,,,,,,,,,,,,,,,,,,,,,,,,,,,300,,,,,,,,,,,,,,,,,,4,4,,,593.1181,2,right,1.0082,594.1502,0.5,0.3,"[2,3,1]",0.704758572,stimuli/card_100_transparent.png,100,2,0,2,0,1,,,,,,,,,,
,,,,5eeba783164680119f2e30c7,B,2024-08-16_15h57.15.117,Slot Machine Game,2023.1.3,Win32,60.60606061,,,,,,,,,,,,,,,,,,,,,,,,,,,310,,,,,,,,,,,,,,,,,,4,4,,,594.9496,3,right,1.0777,596.0486,1.5,0.3,"[2,3,1]",0.107824265,stimuli/card_10_transparent.png,10,3,0,3,0,1,,,,,,,,,,
,,,,5eeba783164680119f2e30c7,B,2024-08-16_15h57.15.117,Slot Machine Game,2023.1.3,Win32,60.60606061,,,,,,,,,,,,,,,,,,,,,,,,,,,320,,,,,,,,,,,,,,,,,,4,4,,,597.8467,4,left,1.3749,599.2454,1,0.3,"[2,3,1]",0.528477191,stimuli/card_10_transparent.png,10,4,0,4,0,1,,,,,,,,,,
,,,,5eeba783164680119f2e30c7,B,2024-08-16_15h57.15.117,Slot Machine Game,2023.1.3,Win32,60.60606061,,,,,,,,,,,,,,,,,,,,,,,,,,,330,,,,,,,,,,,,,,,,,,4,4,,,600.5441,5,left,1.051,601.6264,1.5,0.3,"[2,3,1]",0.497412338,stimuli/card_10_transparent.png,10,5,0,5,0,1,,,,,,,,,,
,,,,5eeba783164680119f2e30c7,B,2024-08-16_15h57.15.117,Slot Machine Game,2023.1.3,Win32,60.60606061,,,,,,,,,,,,,,,,,,,,,,,,,,,340,,,,,,,,,,,,,,,,,,4,4,,,603.4246,6,left,1.0503,604.5238,1,0.3,"[2,3,1]",0.881577224,stimuli/card_10_transparent.png,10,6,0,6,0,1,,,,,,,,,,
,,,,5eeba783164680119f2e30c7,B,2024-08-16_15h57.15.117,Slot Machine Game,2023.1.3,Win32,60.60606061,,,,,,,,,,,,,,,,,,,,,,,,,,,340,,,,,,,,,,,,,,,,,,4,4,,,605.8226,7,left,1.0218,606.8711,0.5,0.3,"[1,2,3]",0.073824381,stimuli/card_0_transparent.png,0,7,0,7,0,1,,,,,,,,,,
,,,,5eeba783164680119f2e30c7,B,2024-08-16_15h57.15.117,Slot Machine Game,2023.1.3,Win32,60.60606061,,,,,,,,,,,,,,,,,,,,,,,,,,,440,,,,,,,,,,,,,,,,,,4,4,,,607.6705,8,left,1.9023,609.5852,1,0.3,"[1,2,3]",0.667492023,stimuli/card_100_transparent.png,100,8,0,8,0,1,,,,,,,,,,
,,,,5eeba783164680119f2e30c7,B,2024-08-16_15h57.15.117,Slot Machine Game,2023.1.3,Win32,60.60606061,,,,,,,,,,,,,,,,,,,,,,,,,,,440,,,,,,,,,,,,,,,,,,4,4,,,610.8839,9,left,0.7314,611.6357,1.5,0.3,"[1,2,3]",0.089700868,stimuli/card_0_transparent.png,0,9,0,9,0,1,,,,,,,,,,
,,,,5eeba783164680119f2e30c7,B,2024-08-16_15h57.15.117,Slot Machine Game,2023.1.3,Win32,60.60606061,,,,,,,,,,,,,,,,,,,,,,,,,,,450,,,,,,,,,,,,,,,,,,4,4,,,613.4315,10,up,0.753,614.1974,1.5,0.3,"[1,2,3]",0.978268428,stimuli/card_10_transparent.png,10,10,0,10,0,1,,,,,,,,,,
,,,,5eeba783164680119f2e30c7,B,2024-08-16_15h57.15.117,Slot Machine Game,2023.1.3,Win32,60.60606061,,,,,,,,,,,,,,,,,,,,,,,,,,,460,,,,,,,,,,,,,,,,,,4,4,,,615.9956,11,up,0.5397,616.5618,1.5,0.3,"[1,2,3]",0.766209815,stimuli/card_10_transparent.png,10,11,0,11,0,1,,,,,,,,,,
,,,,5eeba783164680119f2e30c7,B,2024-08-16_15h57.15.117,Slot Machine Game,2023.1.3,Win32,60.60606061,,,,,,,,,,,,,,,,,,,,,,,,,,,460,,,,,,,,,,,,,,,,,,4,4,,,618.3599,12,up,0.6953,619.0758,0.5,0.3,"[1,2,3]",0.093518121,stimuli/card_0_transparent.png,0,12,0,12,0,1,,,,,,,,,,
,,,,5eeba783164680119f2e30c7,B,2024-08-16_15h57.15.117,Slot Machine Game,2023.1.3,Win32,60.60606061,,,,,,,,,,,,,,,,,,,,,,,,,,,460,,,,,,,,,,,,,,,,,,4,4,,,619.8753,13,up,0.8155,620.7077,0.5,0.3,"[1,2,3]",0.029663111,stimuli/card_0_transparent.png,0,13,0,13,0,1,,,,,,,,,,
,,,,5eeba783164680119f2e30c7,B,2024-08-16_15h57.15.117,Slot Machine Game,2023.1.3,Win32,60.60606061,,,,,,,,,,,,,,,,,,,,,,,,,,,470,,,,,,,,,,,,,,,,,,4,4,,,621.507,14,right,0.6607,622.1896,1,0.3,"[1,2,3]",0.195943038,stimuli/card_10_transparent.png,10,14,0,14,0,1,,,,,,,,,,
,,,,5eeba783164680119f2e30c7,B,2024-08-16_15h57.15.117,Slot Machine Game,2023.1.3,Win32,60.60606061,,,,,,,,,,,,,,,,,,,,,,,,,,,,,,,,,,623.4884,,,,,,,,,,,,,,,,,,,,,,,,,,,,,,,"[840,640,650,470]",3,0,3,0,1,,,,
,,,,5eeba783164680119f2e30c7,B,2024-08-16_15h57.15.117,Slot Machine Game,2023.1.3,Win32,60.60606061,,,,,,,,,,,,,,,,,,,,,,,,,,,10,,,,,,,,,,,,,,,,,,5,6,"[4,10,15]","[[2,3,1],[1,3,2],[3,2,1]]",628.4939,0,left,0.8589,629.3658,1,0.3,"[2,3,1]",0.568873905,stimuli/card_10_transparent.png,10,0,0,0,0,1,,,,,,,,,,
,,,,5eeba783164680119f2e30c7,B,2024-08-16_15h57.15.117,Slot Machine Game,2023.1.3,Win32,60.60606061,,,,,,,,,,,,,,,,,,,,,,,,,,,110,,,,,,,,,,,,,,,,,,5,6,,,630.6646,1,up,0.7524,631.4306,0.5,0.3,"[2,3,1]",0.038527458,stimuli/card_100_transparent.png,100,1,0,1,0,1,,,,,,,,,,
,,,,5eeba783164680119f2e30c7,B,2024-08-16_15h57.15.117,Slot Machine Game,2023.1.3,Win32,60.60606061,,,,,,,,,,,,,,,,,,,,,,,,,,,210,,,,,,,,,,,,,,,,,,5,6,,,632.2298,2,up,1.3932,633.6451,1,0.3,"[2,3,1]",0.034428072,stimuli/card_100_transparent.png,100,2,0,2,0,1,,,,,,,,,,
,,,,5eeba783164680119f2e30c7,B,2024-08-16_15h57.15.117,Slot Machine Game,2023.1.3,Win32,60.60606061,,,,,,,,,,,,,,,,,,,,,,,,,,,210,,,,,,,,,,,,,,,,,,5,6,,,634.9438,3,up,2.3207,637.2926,0.5,0.3,"[2,3,1]",0.562910896,stimuli/card_0_transparent.png,0,3,0,3,0,1,,,,,,,,,,
,,,,5eeba783164680119f2e30c7,B,2024-08-16_15h57.15.117,Slot Machine Game,2023.1.3,Win32,60.60606061,,,,,,,,,,,,,,,,,,,,,,,,,,,220,,,,,,,,,,,,,,,,,,5,6,,,638.0908,4,right,1.448,639.556,1,0.3,"[1,3,2]",0.610996323,stimuli/card_10_transparent.png,10,4,0,4,0,1,,,,,,,,,,
,,,,5eeba783164680119f2e30c7,B,2024-08-16_15h57.15.117,Slot Machine Game,2023.1.3,Win32,60.60606061,,,,,,,,,,,,,,,,,,,,,,,,,,,320,,,,,,,,,,,,,,,,,,5,6,,,640.8547,5,left,1.0854,641.9702,1,0.3,"[1,3,2]",0.773546807,stimuli/card_100_transparent.png,100,5,0,5,0,1,,,,,,,,,,
,,,,5eeba783164680119f2e30c7,B,2024-08-16_15h57.15.117,Slot Machine Game,2023.1.3,Win32,60.60606061,,,,,,,,,,,,,,,,,,,,,,,,,,,420,,,,,,,,,,,,,,,,,,5,6,,,643.2688,6,left,0.9466,644.2514,1.5,0.3,"[1,3,2]",0.617907276,stimuli/card_100_transparent.png,100,6,0,6,0,1,,,,,,,,,,
,,,,5eeba783164680119f2e30c7,B,2024-08-16_15h57.15.117,Slot Machine Game,2023.1.3,Win32,60.60606061,,,,,,,,,,,,,,,,,,,,,,,,,,,520,,,,,,,,,,,,,,,,,,5,6,,,646.0495,7,left,0.771,646.8487,1.5,0.3,"[1,3,2]",0.840078324,stimuli/card_100_transparent.png,100,7,0,7,0,1,,,,,,,,,,
,,,,5eeba783164680119f2e30c7,B,2024-08-16_15h57.15.117,Slot Machine Game,2023.1.3,Win32,60.60606061,,,,,,,,,,,,,,,,,,,,,,,,,,,620,,,,,,,,,,,,,,,,,,5,6,,,648.6471,8,left,0.628,649.2963,1.5,0.3,"[1,3,2]",0.348175698,stimuli/card_100_transparent.png,100,8,0,8,0,1,,,,,,,,,,
,,,,5eeba783164680119f2e30c7,B,2024-08-16_15h57.15.117,Slot Machine Game,2023.1.3,Win32,60.60606061,,,,,,,,,,,,,,,,,,,,,,,,,,,720,,,,,,,,,,,,,,,,,,5,6,,,651.0943,9,left,0.5229,651.6441,1,0.3,"[1,3,2]",0.868054026,stimuli/card_100_transparent.png,100,9,0,9,0,1,,,,,,,,,,
,,,,5eeba783164680119f2e30c7,B,2024-08-16_15h57.15.117,Slot Machine Game,2023.1.3,Win32,60.60606061,,,,,,,,,,,,,,,,,,,,,,,,,,,720,,,,,,,,,,,,,,,,,,5,6,,,652.9429,10,left,0.5684,653.5422,1,0.3,"[3,2,1]",0.879207104,stimuli/card_0_transparent.png,0,10,0,10,0,1,,,,,,,,,,
,,,,5eeba783164680119f2e30c7,B,2024-08-16_15h57.15.117,Slot Machine Game,2023.1.3,Win32,60.60606061,,,,,,,,,,,,,,,,,,,,,,,,,,,720,,,,,,,,,,,,,,,,,,5,6,,,654.8441,11,up,0.6738,655.5403,1,0.3,"[3,2,1]",0.081261566,stimuli/card_0_transparent.png,0,11,0,11,0,1,,,,,,,,,,
,,,,5eeba783164680119f2e30c7,B,2024-08-16_15h57.15.117,Slot Machine Game,2023.1.3,Win32,60.60606061,,,,,,,,,,,,,,,,,,,,,,,,,,,820,,,,,,,,,,,,,,,,,,5,6,,,656.839,12,right,0.5339,657.405,0.5,0.3,"[3,2,1]",0.367811711,stimuli/card_100_transparent.png,100,12,0,12,0,1,,,,,,,,,,
,,,,5eeba783164680119f2e30c7,B,2024-08-16_15h57.15.117,Slot Machine Game,2023.1.3,Win32,60.60606061,,,,,,,,,,,,,,,,,,,,,,,,,,,820,,,,,,,,,,,,,,,,,,5,6,,,658.2063,13,right,0.617,658.8537,1.5,0.3,"[3,2,1]",0.054265581,stimuli/card_0_transparent.png,0,13,0,13,0,1,,,,,,,,,,
,,,,5eeba783164680119f2e30c7,B,2024-08-16_15h57.15.117,Slot Machine Game,2023.1.3,Win32,60.60606061,,,,,,,,,,,,,,,,,,,,,,,,,,,830,,,,,,,,,,,,,,,,,,5,6,,,660.6519,14,up,0.6838,661.3547,1,0.3,"[3,2,1]",0.397000307,stimuli/card_10_transparent.png,10,14,0,14,0,1,,,,,,,,,,
,,,,5eeba783164680119f2e30c7,B,2024-08-16_15h57.15.117,Slot Machine Game,2023.1.3,Win32,60.60606061,,,,,,,,,,,,,,,,,,,,,,,,,,,,,,,,,,662.6498,,,,,,,,,,,,,,,,,,,,,,,,,,,,,,,"[840,640,650,470,830]",4,0,4,0,1,,,,
,,,,5eeba783164680119f2e30c7,B,2024-08-16_15h57.15.117,Slot Machine Game,2023.1.3,Win32,60.60606061,,,,,,,,,,,,,,,,,,,,,,,,,,,10,,,,,,,,,,,,,,,,,,6,8,"[11,15]","[[2,1,3],[1,2,3]]",667.6551,0,left,1.2238,668.894,1.5,0.3,"[2,1,3]",0.316447211,stimuli/card_10_transparent.png,10,0,0,0,0,1,,,,,,,,,,
,,,,5eeba783164680119f2e30c7,B,2024-08-16_15h57.15.117,Slot Machine Game,2023.1.3,Win32,60.60606061,,,,,,,,,,,,,,,,,,,,,,,,,,,110,,,,,,,,,,,,,,,,,,6,8,,,670.692,1,up,0.8351,671.5578,1,0.3,"[2,1,3]",0.420146419,stimuli/card_100_transparent.png,100,1,0,1,0,1,,,,,,,,,,
,,,,5eeba783164680119f2e30c7,B,2024-08-16_15h57.15.117,Slot Machine Game,2023.1.3,Win32,60.60606061,,,,,,,,,,,,,,,,,,,,,,,,,,,210,,,,,,,,,,,,,,,,,,6,8,,,672.8575,2,up,0.956,673.839,1.5,0.3,"[2,1,3]",0.371701572,stimuli/card_100_transparent.png,100,2,0,2,0,1,,,,,,,,,,
,,,,5eeba783164680119f2e30c7,B,2024-08-16_15h57.15.117,Slot Machine Game,2023.1.3,Win32,60.60606061,,,,,,,,,,,,,,,,,,,,,,,,,,,310,,,,,,,,,,,,,,,,,,6,8,,,675.6374,3,up,0.6004,676.27,1.5,0.3,"[2,1,3]",0.221607276,stimuli/card_100_transparent.png,100,3,0,3,0,1,,,,,,,,,,
,,,,5eeba783164680119f2e30c7,B,2024-08-16_15h57.15.117,Slot Machine Game,2023.1.3,Win32,60.60606061,,,,,,,,,,,,,,,,,,,,,,,,,,,410,,,,,,,,,,,,,,,,,,6,8,,,678.0681,4,up,0.8227,678.9175,1.5,0.3,"[2,1,3]",0.986140427,stimuli/card_100_transparent.png,100,4,0,4,0,1,,,,,,,,,,
,,,,5eeba783164680119f2e30c7,B,2024-08-16_15h57.15.117,Slot Machine Game,2023.1.3,Win32,60.60606061,,,,,,,,,,,,,,,,,,,,,,,,,,,510,,,,,,,,,,,,,,,,,,6,8,,,680.7157,5,up,0.5004,681.252,1,0.3,"[2,1,3]",0.58682071,stimuli/card_100_transparent.png,100,5,0,5,0,1,,,,,,,,,,
,,,,5eeba783164680119f2e30c7,B,2024-08-16_15h57.15.117,Slot Machine Game,2023.1.3,Win32,60.60606061,,,,,,,,,,,,,,,,,,,,,,,,,,,520,,,,,,,,,,,,,,,,,,6,8,,,682.5472,6,up,0.6315,683.1988,1.5,0.3,"[2,1,3]",0.190441184,stimuli/card_10_transparent.png,10,6,0,6,0,1,,,,,,,,,,
,,,,5eeba783164680119f2e30c7,B,2024-08-16_15h57.15.117,Slot Machine Game,2023.1.3,Win32,60.60606061,,,,,,,,,,,,,,,,,,,,,,,,,,,520,,,,,,,,,,,,,,,,,,6,8,,,684.9947,7,right,0.5632,685.5778,0.5,0.3,"[2,1,3]",0.330370475,stimuli/card_0_transparent.png,0,7,0,7,0,1,,,,,,,,,,
,,,,5eeba783164680119f2e30c7,B,2024-08-16_15h57.15.117,Slot Machine Game,2023.1.3,Win32,60.60606061,,,,,,,,,,,,,,,,,,,,,,,,,,,530,,,,,,,,,,,,,,,,,,6,8,,,686.3767,8,left,0.5413,686.9427,0.5,0.3,"[2,1,3]",0.814478958,stimuli/card_10_transparent.png,10,8,0,8,0,1,,,,,,,,,,
,,,,5eeba783164680119f2e30c7,B,2024-08-16_15h57.15.117,Slot Machine Game,2023.1.3,Win32,60.60606061,,,,,,,,,,,,,,,,,,,,,,,,,,,540,,,,,,,,,,,,,,,,,,6,8,,,687.742,9,left,0.7017,688.4747,1.5,0.3,"[2,1,3]",0.86582707,stimuli/card_10_transparent.png,10,9,0,9,0,1,,,,,,,,,,
,,,,5eeba783164680119f2e30c7,B,2024-08-16_15h57.15.117,Slot Machine Game,2023.1.3,Win32,60.60606061,,,,,,,,,,,,,,,,,,,,,,,,,,,540,,,,,,,,,,,,,,,,,,6,8,,,690.2729,10,up,0.8658,691.1555,1,0.3,"[2,1,3]",0.050502596,stimuli/card_0_transparent.png,0,10,0,10,0,1,,,,,,,,,,
,,,,5eeba783164680119f2e30c7,B,2024-08-16_15h57.15.117,Slot Machine Game,2023.1.3,Win32,60.60606061,,,,,,,,,,,,,,,,,,,,,,,,,,,640,,,,,,,,,,,,,,,,,,6,8,,,692.4542,11,left,0.7337,693.2201,1.5,0.3,"[1,2,3]",0.69725399,stimuli/card_100_transparent.png,100,11,0,11,0,1,,,,,,,,,,
,,,,5eeba783164680119f2e30c7,B,2024-08-16_15h57.15.117,Slot Machine Game,2023.1.3,Win32,60.60606061,,,,,,,,,,,,,,,,,,,,,,,,,,,740,,,,,,,,,,,,,,,,,,6,8,,,695.0183,12,left,0.6667,695.7177,1.5,0.3,"[1,2,3]",0.973955629,stimuli/card_100_transparent.png,100,12,0,12,0,1,,,,,,,,,,
,,,,5eeba783164680119f2e30c7,B,2024-08-16_15h57.15.117,Slot Machine Game,2023.1.3,Win32,60.60606061,,,,,,,,,,,,,,,,,,,,,,,,,,,840,,,,,,,,,,,,,,,,,,6,8,,,697.5159,13,left,0.8454,698.3816,1.5,0.3,"[1,2,3]",0.485496196,stimuli/card_100_transparent.png,100,13,0,13,0,1,,,,,,,,,,
,,,,5eeba783164680119f2e30c7,B,2024-08-16_15h57.15.117,Slot Machine Game,2023.1.3,Win32,60.60606061,,,,,,,,,,,,,,,,,,,,,,,,,,,940,,,,,,,,,,,,,,,,,,6,8,,,700.18,14,left,0.5222,700.7294,0.5,0.3,"[1,2,3]",0.552180274,stimuli/card_100_transparent.png,100,14,0,14,0,1,,,,,,,,,,
,,,,5eeba783164680119f2e30c7,B,2024-08-16_15h57.15.117,Slot Machine Game,2023.1.3,Win32,60.60606061,,,,,,,,,,,,,,,,,,,,,,,,,,,,,,,,,,701.5287,,,,,,,,,,,,,,,,,,,,,,,,,,,,,,,"[840,640,650,470,830,940]",5,0,5,0,1,,,,
,,,,5eeba783164680119f2e30c7,B,2024-08-16_15h57.15.117,Slot Machine Game,2023.1.3,Win32,60.60606061,,,,,,,,,,,,,,,,,,,,,,,,,,,10,,,,,,,,,,,,,,,,,,7,9,"[8,15]","[[3,2,1],[3,1,2]]",706.5366,0,up,1.0287,707.5725,1.5,0.3,"[3,2,1]",0.543255421,stimuli/card_10_transparent.png,10,0,0,0,0,1,,,,,,,,,,
,,,,5eeba783164680119f2e30c7,B,2024-08-16_15h57.15.117,Slot Machine Game,2023.1.3,Win32,60.60606061,,,,,,,,,,,,,,,,,,,,,,,,,,,10,,,,,,,,,,,,,,,,,,7,9,,,709.3742,1,left,0.7105,710.1034,1.5,0.3,"[3,2,1]",0.691210721,stimuli/card_0_transparent.png,0,1,0,1,0,1,,,,,,,,,,
,,,,5eeba783164680119f2e30c7,B,2024-08-16_15h57.15.117,Slot Machine Game,2023.1.3,Win32,60.60606061,,,,,,,,,,,,,,,,,,,,,,,,,,,110,,,,,,,,,,,,,,,,,,7,9,,,711.9017,2,right,0.6286,712.551,1.5,0.3,"[3,2,1]",0.657440739,stimuli/card_100_transparent.png,100,2,0,2,0,1,,,,,,,,,,
,,,,5eeba783164680119f2e30c7,B,2024-08-16_15h57.15.117,Slot Machine Game,2023.1.3,Win32,60.60606061,,,,,,,,,,,,,,,,,,,,,,,,,,,210,,,,,,,,,,,,,,,,,,7,9,,,714.3492,3,right,0.6335,715.0152,0.5,0.3,"[3,2,1]",0.227748001,stimuli/card_100_transparent.png,100,3,0,3,0,1,,,,,,,,,,
,,,,5eeba783164680119f2e30c7,B,2024-08-16_15h57.15.117,Slot Machine Game,2023.1.3,Win32,60.60606061,,,,,,,,,,,,,,,,,,,,,,,,,,,310,,,,,,,,,,,,,,,,,,7,9,,,715.8146,4,right,0.7828,716.6305,1,0.3,"[3,2,1]",0.902091111,stimuli/card_100_transparent.png,100,4,0,4,0,1,,,,,,,,,,
,,,,5eeba783164680119f2e30c7,B,2024-08-16_15h57.15.117,Slot Machine Game,2023.1.3,Win32,60.60606061,,,,,,,,,,,,,,,,,,,,,,,,,,,410,,,,,,,,,,,,,,,,,,7,9,,,717.929,5,right,0.9166,718.8782,0.5,0.3,"[3,2,1]",0.31730635,stimuli/card_100_transparent.png,100,5,0,5,0,1,,,,,,,,,,
,,,,5eeba783164680119f2e30c7,B,2024-08-16_15h57.15.117,Slot Machine Game,2023.1.3,Win32,60.60606061,,,,,,,,,,,,,,,,,,,,,,,,,,,510,,,,,,,,,,,,,,,,,,7,9,,,719.6775,6,right,0.9027,720.6098,1.5,0.3,"[3,2,1]",0.749108221,stimuli/card_100_transparent.png,100,6,0,6,0,1,,,,,,,,,,
,,,,5eeba783164680119f2e30c7,B,2024-08-16_15h57.15.117,Slot Machine Game,2023.1.3,Win32,60.60606061,,,,,,,,,,,,,,,,,,,,,,,,,,,510,,,,,,,,,,,,,,,,,,7,9,,,722.4081,7,right,0.6673,723.1074,0.5,0.3,"[3,2,1]",0.072571927,stimuli/card_0_transparent.png,0,7,0,7,0,1,,,,,,,,,,
,,,,5eeba783164680119f2e30c7,B,2024-08-16_15h57.15.117,Slot Machine Game,2023.1.3,Win32,60.60606061,,,,,,,,,,,,,,,,,,,,,,,,,,,610,,,,,,,,,,,,,,,,,,7,9,,,723.9067,8,up,0.6904,724.6228,1,0.3,"[3,1,2]",0.427087317,stimuli/card_100_transparent.png,100,8,0,8,0,1,,,,,,,,,,
,,,,5eeba783164680119f2e30c7,B,2024-08-16_15h57.15.117,Slot Machine Game,2023.1.3,Win32,60.60606061,,,,,,,,,,,,,,,,,,,,,,,,,,,710,,,,,,,,,,,,,,,,,,7,9,,,725.9212,9,up,0.7348,726.6873,1.5,0.3,"[3,1,2]",0.283466332,stimuli/card_100_transparent.png,100,9,0,9,0,1,,,,,,,,,,
,,,,5eeba783164680119f2e30c7,B,2024-08-16_15h57.15.117,Slot Machine Game,2023.1.3,Win32,60.60606061,,,,,,,,,,,,,,,,,,,,,,,,,,,810,,,,,,,,,,,,,,,,,,7,9,,,728.4855,10,up,0.5167,729.0348,0.5,0.3,"[3,1,2]",0.533481185,stimuli/card_100_transparent.png,100,10,0,10,0,1,,,,,,,,,,
,,,,5eeba783164680119f2e30c7,B,2024-08-16_15h57.15.117,Slot Machine Game,2023.1.3,Win32,60.60606061,,,,,,,,,,,,,,,,,,,,,,,,,,,910,,,,,,,,,,,,,,,,,,7,9,,,729.8342,11,up,0.8428,730.6998,1,0.3,"[3,1,2]",0.223722309,stimuli/card_100_transparent.png,100,11,0,11,0,1,,,,,,,,,,
,,,,5eeba783164680119f2e30c7,B,2024-08-16_15h57.15.117,Slot Machine Game,2023.1.3,Win32,60.60606061,,,,,,,,,,,,,,,,,,,,,,,,,,,910,,,,,,,,,,,,,,,,,,7,9,,,731.9988,12,up,0.5709,732.598,0.5,0.3,"[3,1,2]",0.032008557,stimuli/card_0_transparent.png,0,12,0,12,0,1,,,,,,,,,,
,,,,5eeba783164680119f2e30c7,B,2024-08-16_15h57.15.117,Slot Machine Game,2023.1.3,Win32,60.60606061,,,,,,,,,,,,,,,,,,,,,,,,,,,910,,,,,,,,,,,,,,,,,,7,9,,,733.3976,13,left,0.666,734.0835,1.5,0.3,"[3,1,2]",0.691186126,stimuli/card_0_transparent.png,0,13,0,13,0,1,,,,,,,,,,
,,,,5eeba783164680119f2e30c7,B,2024-08-16_15h57.15.117,Slot Machine Game,2023.1.3,Win32,60.60606061,,,,,,,,,,,,,,,,,,,,,,,,,,,920,,,,,,,,,,,,,,,,,,7,9,,,735.8783,14,right,0.6838,736.5943,1,0.3,"[3,1,2]",0.316451118,stimuli/card_10_transparent.png,10,14,0,14,0,1,,,,,,,,,,
,,,,5eeba783164680119f2e30c7,B,2024-08-16_15h57.15.117,Slot Machine Game,2023.1.3,Win32,60.60606061,,,,,,,,,,,,,,,,,,,,,,,,,,,,,,,,,,737.8931,,,,,,,,,,,,,,,,,,,,,,,,,,,,,,,"[840,640,650,470,830,940,920]",6,0,6,0,1,,,,
,,,,5eeba783164680119f2e30c7,B,2024-08-16_15h57.15.117,Slot Machine Game,2023.1.3,Win32,60.60606061,,,,,,,,,,,,,,,,,,,,,,,,,,,10,,,,,,,,,,,,,,,,,,8,2,"[6,15]","[[1,3,2],[3,2,1]]",742.8981,0,right,0.6656,743.5741,1.5,0.3,"[1,3,2]",0.437369573,stimuli/card_10_transparent.png,10,0,0,0,0,1,,,,,,,,,,
,,,,5eeba783164680119f2e30c7,B,2024-08-16_15h57.15.117,Slot Machine Game,2023.1.3,Win32,60.60606061,,,,,,,,,,,,,,,,,,,,,,,,,,,110,,,,,,,,,,,,,,,,,,8,2,,,745.3689,1,left,0.7232,746.119,1.5,0.3,"[1,3,2]",0.223865093,stimuli/card_100_transparent.png,100,1,0,1,0,1,,,,,,,,,,
,,,,5eeba783164680119f2e30c7,B,2024-08-16_15h57.15.117,Slot Machine Game,2023.1.3,Win32,60.60606061,,,,,,,,,,,,,,,,,,,,,,,,,,,110,,,,,,,,,,,,,,,,,,8,2,,,747.9165,2,up,0.7025,748.6492,1,0.3,"[1,3,2]",0.440222163,stimuli/card_0_transparent.png,0,2,0,2,0,1,,,,,,,,,,
,,,,5eeba783164680119f2e30c7,B,2024-08-16_15h57.15.117,Slot Machine Game,2023.1.3,Win32,60.60606061,,,,,,,,,,,,,,,,,,,,,,,,,,,110,,,,,,,,,,,,,,,,,,8,2,,,749.9479,3,left,0.5122,750.4805,1.5,0.3,"[1,3,2]",0.069140276,stimuli/card_0_transparent.png,0,3,0,3,0,1,,,,,,,,,,
,,,,5eeba783164680119f2e30c7,B,2024-08-16_15h57.15.117,Slot Machine Game,2023.1.3,Win32,60.60606061,,,,,,,,,,,,,,,,,,,,,,,,,,,120,,,,,,,,,,,,,,,,,,8,2,,,752.279,4,right,0.6363,752.9451,0.5,0.3,"[1,3,2]",0.27579678,stimuli/card_10_transparent.png,10,4,0,4,0,1,,,,,,,,,,
,,,,5eeba783164680119f2e30c7,B,2024-08-16_15h57.15.117,Slot Machine Game,2023.1.3,Win32,60.60606061,,,,,,,,,,,,,,,,,,,,,,,,,,,130,,,,,,,,,,,,,,,,,,8,2,,,753.744,5,right,0.7587,754.5268,1.5,0.3,"[1,3,2]",0.901427755,stimuli/card_10_transparent.png,10,5,0,5,0,1,,,,,,,,,,
,,,,5eeba783164680119f2e30c7,B,2024-08-16_15h57.15.117,Slot Machine Game,2023.1.3,Win32,60.60606061,,,,,,,,,,,,,,,,,,,,,,,,,,,130,,,,,,,,,,,,,,,,,,8,2,,,756.3249,6,right,0.651,757.0076,1,0.3,"[3,2,1]",0.074286297,stimuli/card_0_transparent.png,0,6,0,6,0,1,,,,,,,,,,
,,,,5eeba783164680119f2e30c7,B,2024-08-16_15h57.15.117,Slot Machine Game,2023.1.3,Win32,60.60606061,,,,,,,,,,,,,,,,,,,,,,,,,,,140,,,,,,,,,,,,,,,,,,8,2,,,758.3063,7,up,0.7339,759.0724,1.5,0.3,"[3,2,1]",0.606653729,stimuli/card_10_transparent.png,10,7,0,7,0,1,,,,,,,,,,
,,,,5eeba783164680119f2e30c7,B,2024-08-16_15h57.15.117,Slot Machine Game,2023.1.3,Win32,60.60606061,,,,,,,,,,,,,,,,,,,,,,,,,,,150,,,,,,,,,,,,,,,,,,8,2,,,760.8707,8,up,0.5201,761.42,1,0.3,"[3,2,1]",0.738045157,stimuli/card_10_transparent.png,10,8,0,8,0,1,,,,,,,,,,
,,,,5eeba783164680119f2e30c7,B,2024-08-16_15h57.15.117,Slot Machine Game,2023.1.3,Win32,60.60606061,,,,,,,,,,,,,,,,,,,,,,,,,,,150,,,,,,,,,,,,,,,,,,8,2,,,762.7188,9,up,0.8335,763.5844,0.5,0.3,"[3,2,1]",0.093650538,stimuli/card_0_transparent.png,0,9,0,9,0,1,,,,,,,,,,
,,,,5eeba783164680119f2e30c7,B,2024-08-16_15h57.15.117,Slot Machine Game,2023.1.3,Win32,60.60606061,,,,,,,,,,,,,,,,,,,,,,,,,,,150,,,,,,,,,,,,,,,,,,8,2,,,764.3839,10,left,0.6532,765.0665,1.5,0.3,"[3,2,1]",0.536337278,stimuli/card_0_transparent.png,0,10,0,10,0,1,,,,,,,,,,
,,,,5eeba783164680119f2e30c7,B,2024-08-16_15h57.15.117,Slot Machine Game,2023.1.3,Win32,60.60606061,,,,,,,,,,,,,,,,,,,,,,,,,,,160,,,,,,,,,,,,,,,,,,8,2,,,766.8646,11,up,0.8372,767.7304,1,0.3,"[3,2,1]",0.77650168,stimuli/card_10_transparent.png,10,11,0,11,0,1,,,,,,,,,,
,,,,5eeba783164680119f2e30c7,B,2024-08-16_15h57.15.117,Slot Machine Game,2023.1.3,Win32,60.60606061,,,,,,,,,,,,,,,,,,,,,,,,,,,170,,,,,,,,,,,,,,,,,,8,2,,,769.0323,12,up,0.5312,769.5953,1.5,0.3,"[3,2,1]",0.896043131,stimuli/card_10_transparent.png,10,12,0,12,0,1,,,,,,,,,,
,,,,5eeba783164680119f2e30c7,B,2024-08-16_15h57.15.117,Slot Machine Game,2023.1.3,Win32,60.60606061,,,,,,,,,,,,,,,,,,,,,,,,,,,180,,,,,,,,,,,,,,,,,,8,2,,,771.3933,13,up,0.8251,772.2428,1.5,0.3,"[3,2,1]",0.532423945,stimuli/card_10_transparent.png,10,13,0,13,0,1,,,,,,,,,,
,,,,5eeba783164680119f2e30c7,B,2024-08-16_15h57.15.117,Slot Machine Game,2023.1.3,Win32,60.60606061,,,,,,,,,,,,,,,,,,,,,,,,,,,190,,,,,,,,,,,,,,,,,,8,2,,,774.0411,14,up,0.5049,774.5737,1.5,0.3,"[3,2,1]",0.728517507,stimuli/card_10_transparent.png,10,14,0,14,0,1,,,,,,,,,,
,,,,5eeba783164680119f2e30c7,B,2024-08-16_15h57.15.117,Slot Machine Game,2023.1.3,Win32,60.60606061,,,,,,,,,,,,,,,,,,,,,,,,,,,,,,,,,,776.372,,,,,,,,,,,,,,,,,,,,,,,,,,,,,,,"[840,640,650,470,830,940,920,190]",7,0,7,0,1,,,,
,,,,5eeba783164680119f2e30c7,B,2024-08-16_15h57.15.117,Slot Machine Game,2023.1.3,Win32,60.60606061,,,,,,,,,,,,,,,,,,,,,,,,,,,10,,,,,,,,,,,,,,,,,,9,10,"[10,15]","[[3,1,2],[1,3,2]]",781.3774,0,right,0.7669,782.1663,0.5,0.3,"[3,1,2]",0.325562098,stimuli/card_10_transparent.png,10,0,0,0,0,1,,,,,,,,,,
,,,,5eeba783164680119f2e30c7,B,2024-08-16_15h57.15.117,Slot Machine Game,2023.1.3,Win32,60.60606061,,,,,,,,,,,,,,,,,,,,,,,,,,,10,,,,,,,,,,,,,,,,,,9,10,,,782.9654,1,right,0.5674,783.5649,0.5,0.3,"[3,1,2]",0.044458161,stimuli/card_0_transparent.png,0,1,0,1,0,1,,,,,,,,,,
,,,,5eeba783164680119f2e30c7,B,2024-08-16_15h57.15.117,Slot Machine Game,2023.1.3,Win32,60.60606061,,,,,,,,,,,,,,,,,,,,,,,,,,,20,,,,,,,,,,,,,,,,,,9,10,,,784.3642,2,right,1.067,785.463,1.5,0.3,"[3,1,2]",0.414056734,stimuli/card_10_transparent.png,10,2,0,2,0,1,,,,,,,,,,
,,,,5eeba783164680119f2e30c7,B,2024-08-16_15h57.15.117,Slot Machine Game,2023.1.3,Win32,60.60606061,,,,,,,,,,,,,,,,,,,,,,,,,,,120,,,,,,,,,,,,,,,,,,9,10,,,787.2615,3,up,0.888,788.177,1,0.3,"[3,1,2]",0.785550576,stimuli/card_100_transparent.png,100,3,0,3,0,1,,,,,,,,,,
,,,,5eeba783164680119f2e30c7,B,2024-08-16_15h57.15.117,Slot Machine Game,2023.1.3,Win32,60.60606061,,,,,,,,,,,,,,,,,,,,,,,,,,,130,,,,,,,,,,,,,,,,,,9,10,,,789.4759,4,up,0.7328,790.2287,1,0.3,"[3,1,2]",0.189675373,stimuli/card_10_transparent.png,10,4,0,4,0,1,,,,,,,,,,
,,,,5eeba783164680119f2e30c7,B,2024-08-16_15h57.15.117,Slot Machine Game,2023.1.3,Win32,60.60606061,,,,,,,,,,,,,,,,,,,,,,,,,,,230,,,,,,,,,,,,,,,,,,9,10,,,791.5239,5,up,0.7051,792.2563,0.5,0.3,"[3,1,2]",0.305272373,stimuli/card_100_transparent.png,100,5,0,5,0,1,,,,,,,,,,
,,,,5eeba783164680119f2e30c7,B,2024-08-16_15h57.15.117,Slot Machine Game,2023.1.3,Win32,60.60606061,,,,,,,,,,,,,,,,,,,,,,,,,,,330,,,,,,,,,,,,,,,,,,9,10,,,793.0557,6,up,0.8109,793.8881,0.5,0.3,"[3,1,2]",0.88186227,stimuli/card_100_transparent.png,100,6,0,6,0,1,,,,,,,,,,
,,,,5eeba783164680119f2e30c7,B,2024-08-16_15h57.15.117,Slot Machine Game,2023.1.3,Win32,60.60606061,,,,,,,,,,,,,,,,,,,,,,,,,,,430,,,,,,,,,,,,,,,,,,9,10,,,794.6875,7,up,0.5693,795.2869,1.5,0.3,"[3,1,2]",0.381057914,stimuli/card_100_transparent.png,100,7,0,7,0,1,,,,,,,,,,
,,,,5eeba783164680119f2e30c7,B,2024-08-16_15h57.15.117,Slot Machine Game,2023.1.3,Win32,60.60606061,,,,,,,,,,,,,,,,,,,,,,,,,,,530,,,,,,,,,,,,,,,,,,9,10,,,797.0853,8,up,0.817,797.934,1,0.3,"[3,1,2]",0.636734437,stimuli/card_100_transparent.png,100,8,0,8,0,1,,,,,,,,,,
,,,,5eeba783164680119f2e30c7,B,2024-08-16_15h57.15.117,Slot Machine Game,2023.1.3,Win32,60.60606061,,,,,,,,,,,,,,,,,,,,,,,,,,,630,,,,,,,,,,,,,,,,,,9,10,,,799.233,9,up,0.5851,799.849,1.5,0.3,"[3,1,2]",0.708122203,stimuli/card_100_transparent.png,100,9,0,9,0,1,,,,,,,,,,
,,,,5eeba783164680119f2e30c7,B,2024-08-16_15h57.15.117,Slot Machine Game,2023.1.3,Win32,60.60606061,,,,,,,,,,,,,,,,,,,,,,,,,,,640,,,,,,,,,,,,,,,,,,9,10,,,801.6472,10,up,0.7442,802.4133,0.5,0.3,"[1,3,2]",0.130745496,stimuli/card_10_transparent.png,10,10,0,10,0,1,,,,,,,,,,
,,,,5eeba783164680119f2e30c7,B,2024-08-16_15h57.15.117,Slot Machine Game,2023.1.3,Win32,60.60606061,,,,,,,,,,,,,,,,,,,,,,,,,,,640,,,,,,,,,,,,,,,,,,9,10,,,803.2125,11,left,0.6859,803.9285,1,0.3,"[1,3,2]",0.021972144,stimuli/card_0_transparent.png,0,11,0,11,0,1,,,,,,,,,,
,,,,5eeba783164680119f2e30c7,B,2024-08-16_15h57.15.117,Slot Machine Game,2023.1.3,Win32,60.60606061,,,,,,,,,,,,,,,,,,,,,,,,,,,650,,,,,,,,,,,,,,,,,,9,10,,,805.2271,12,right,0.6321,805.8765,0.5,0.3,"[1,3,2]",0.218101398,stimuli/card_10_transparent.png,10,12,0,12,0,1,,,,,,,,,,
,,,,5eeba783164680119f2e30c7,B,2024-08-16_15h57.15.117,Slot Machine Game,2023.1.3,Win32,60.60606061,,,,,,,,,,,,,,,,,,,,,,,,,,,650,,,,,,,,,,,,,,,,,,9,10,,,806.6755,13,up,0.7858,807.4916,0.5,0.3,"[1,3,2]",0.523869509,stimuli/card_0_transparent.png,0,13,0,13,0,1,,,,,,,,,,
,,,,5eeba783164680119f2e30c7,B,2024-08-16_15h57.15.117,Slot Machine Game,2023.1.3,Win32,60.60606061,,,,,,,,,,,,,,,,,,,,,,,,,,,650,,,,,,,,,,,,,,,,,,9,10,,,808.291,14,right,0.6666,808.9903,1.5,0.3,"[1,3,2]",0.06894558,stimuli/card_0_transparent.png,0,14,0,14,0,1,,,,,,,,,,
,,,,5eeba783164680119f2e30c7,B,2024-08-16_15h57.15.117,Slot Machine Game,2023.1.3,Win32,60.60606061,,,,,,,,,,,,,,,,,,,,,,,,,,,,,,,,,,810.7884,,,,,,,,,,,,,,,,,,,,,,,,,,,,,,,"[840,640,650,470,830,940,920,190,650]",8,0,8,0,1,,,,
,,,,5eeba783164680119f2e30c7,B,2024-08-16_15h57.15.117,Slot Machine Game,2023.1.3,Win32,60.60606061,,,,,,,,,,,,,,,,,,,,,,,,,,,100,,,,,,,,,,,,,,,,,,10,3,"[15,15]","[[3,1,2],[3,1,2]]",815.7939,0,up,0.8834,816.6992,1.5,0.3,"[3,1,2]",0.781155118,stimuli/card_100_transparent.png,100,0,0,0,0,1,,,,,,,,,,
,,,,5eeba783164680119f2e30c7,B,2024-08-16_15h57.15.117,Slot Machine Game,2023.1.3,Win32,60.60606061,,,,,,,,,,,,,,,,,,,,,,,,,,,200,,,,,,,,,,,,,,,,,,10,3,,,818.4974,1,up,0.551,819.0801,1,0.3,"[3,1,2]",0.606609206,stimuli/card_100_transparent.png,100,1,0,1,0,1,,,,,,,,,,
,,,,5eeba783164680119f2e30c7,B,2024-08-16_15h57.15.117,Slot Machine Game,2023.1.3,Win32,60.60606061,,,,,,,,,,,,,,,,,,,,,,,,,,,200,,,,,,,,,,,,,,,,,,10,3,,,820.379,2,left,2.3544,822.76,0.5,0.3,"[3,1,2]",0.512165575,stimuli/card_0_transparent.png,0,2,0,2,0,1,,,,,,,,,,
,,,,5eeba783164680119f2e30c7,B,2024-08-16_15h57.15.117,Slot Machine Game,2023.1.3,Win32,60.60606061,,,,,,,,,,,,,,,,,,,,,,,,,,,300,,,,,,,,,,,,,,,,,,10,3,,,823.5593,3,up,0.7764,824.3584,0.5,0.3,"[3,1,2]",0.993034163,stimuli/card_100_transparent.png,100,3,0,3,0,1,,,,,,,,,,
,,,,5eeba783164680119f2e30c7,B,2024-08-16_15h57.15.117,Slot Machine Game,2023.1.3,Win32,60.60606061,,,,,,,,,,,,,,,,,,,,,,,,,,,400,,,,,,,,,,,,,,,,,,10,3,,,825.1578,4,up,0.6893,825.8735,1,0.3,"[3,1,2]",0.931681097,stimuli/card_100_transparent.png,100,4,0,4,0,1,,,,,,,,,,
,,,,5eeba783164680119f2e30c7,B,2024-08-16_15h57.15.117,Slot Machine Game,2023.1.3,Win32,60.60606061,,,,,,,,,,,,,,,,,,,,,,,,,,,410,,,,,,,,,,,,,,,,,,10,3,,,827.1721,5,up,0.7493,827.9415,1,0.3,"[3,1,2]",0.149101341,stimuli/card_10_transparent.png,10,5,0,5,0,1,,,,,,,,,,
,,,,5eeba783164680119f2e30c7,B,2024-08-16_15h57.15.117,Slot Machine Game,2023.1.3,Win32,60.60606061,,,,,,,,,,,,,,,,,,,,,,,,,,,420,,,,,,,,,,,,,,,,,,10,3,,,829.2369,6,right,0.5104,829.7697,1.5,0.3,"[3,1,2]",0.504759234,stimuli/card_10_transparent.png,10,6,0,6,0,1,,,,,,,,,,
,,,,5eeba783164680119f2e30c7,B,2024-08-16_15h57.15.117,Slot Machine Game,2023.1.3,Win32,60.60606061,,,,,,,,,,,,,,,,,,,,,,,,,,,430,,,,,,,,,,,,,,,,,,10,3,,,831.5679,7,right,0.6909,832.2839,1.5,0.3,"[3,1,2]",0.627738467,stimuli/card_10_transparent.png,10,7,0,7,0,1,,,,,,,,,,
,,,,5eeba783164680119f2e30c7,B,2024-08-16_15h57.15.117,Slot Machine Game,2023.1.3,Win32,60.60606061,,,,,,,,,,,,,,,,,,,,,,,,,,,530,,,,,,,,,,,,,,,,,,10,3,,,834.0821,8,up,2.1937,836.2966,1,0.3,"[3,1,2]",0.742273841,stimuli/card_100_transparent.png,100,8,0,8,0,1,,,,,,,,,,
,,,,5eeba783164680119f2e30c7,B,2024-08-16_15h57.15.117,Slot Machine Game,2023.1.3,Win32,60.60606061,,,,,,,,,,,,,,,,,,,,,,,,,,,540,,,,,,,,,,,,,,,,,,10,3,,,837.5955,9,up,0.6187,838.2447,1,0.3,"[3,1,2]",0.133619776,stimuli/card_10_transparent.png,10,9,0,9,0,1,,,,,,,,,,
,,,,5eeba783164680119f2e30c7,B,2024-08-16_15h57.15.117,Slot Machine Game,2023.1.3,Win32,60.60606061,,,,,,,,,,,,,,,,,,,,,,,,,,,640,,,,,,,,,,,,,,,,,,10,3,,,839.5435,10,up,0.6008,840.1763,1,0.3,"[3,1,2]",0.263249042,stimuli/card_100_transparent.png,100,10,0,10,0,1,,,,,,,,,,
,,,,5eeba783164680119f2e30c7,B,2024-08-16_15h57.15.117,Slot Machine Game,2023.1.3,Win32,60.60606061,,,,,,,,,,,,,,,,,,,,,,,,,,,650,,,,,,,,,,,,,,,,,,10,3,,,841.4749,11,right,0.6369,842.1408,1.5,0.3,"[3,1,2]",0.840891621,stimuli/card_10_transparent.png,10,11,0,11,0,1,,,,,,,,,,
,,,,5eeba783164680119f2e30c7,B,2024-08-16_15h57.15.117,Slot Machine Game,2023.1.3,Win32,60.60606061,,,,,,,,,,,,,,,,,,,,,,,,,,,750,,,,,,,,,,,,,,,,,,10,3,,,843.9391,12,up,0.5684,844.5387,0.5,0.3,"[3,1,2]",0.539108766,stimuli/card_100_transparent.png,100,12,0,12,0,1,,,,,,,,,,
,,,,5eeba783164680119f2e30c7,B,2024-08-16_15h57.15.117,Slot Machine Game,2023.1.3,Win32,60.60606061,,,,,,,,,,,,,,,,,,,,,,,,,,,850,,,,,,,,,,,,,,,,,,10,3,,,845.3381,13,up,0.7998,846.1703,0.5,0.3,"[3,1,2]",0.299344873,stimuli/card_100_transparent.png,100,13,0,13,0,1,,,,,,,,,,
,,,,5eeba783164680119f2e30c7,B,2024-08-16_15h57.15.117,Slot Machine Game,2023.1.3,Win32,60.60606061,,,,,,,,,,,,,,,,,,,,,,,,,,,950,,,,,,,,,,,,,,,,,,10,3,,,846.9697,14,up,0.5112,847.5024,0.5,0.3,"[3,1,2]",0.23885885,stimuli/card_100_transparent.png,100,14,0,14,0,1,,,,,,,,,,
,,,,5eeba783164680119f2e30c7,B,2024-08-16_15h57.15.117,Slot Machine Game,2023.1.3,Win32,60.60606061,,,,,,,,,,,,,,,,,,,,,,,,,,,,,,,,,,848.3019,,,,,,,,,,,,,,,,,,,,,,,,,,,,,,,"[840,640,650,470,830,940,920,190,650,950]",9,0,9,0,1,,,,
,,,,5eeba783164680119f2e30c7,B,2024-08-16_15h57.15.117,Slot Machine Game,2023.1.3,Win32,60.60606061,,,,,,,,,,,,,,,,,,,,,,,,,,,,,,,,,,,,,,,,,,,,,,,,,,,,,,,,,,,,,,,,,,,,,,,9,"[840,640,650,470,830,940,920,190,650,950]",9.2,2024-08-16_16h11.32.505
