key_resp_welcome_started,key_resp_welcome_keys,key_resp_welcome_rt,key_resp_welcome_duration,prolific_id,path_id,date,expName,psychopyVersion,OS,frameRate,key_resp_instruction1_started,key_resp_instruction1_keys,key_resp_instruction1_rt,key_resp_instruction1_duration,key_resp_instruction2_started,key_resp_instruction2_keys,key_resp_instruction2_rt,key_resp_instruction2_duration,key_resp_instruction3_started,key_resp_instruction3_keys,key_resp_instruction3_rt,key_resp_instruction3_duration,key_resp_instruction4_started,key_resp_instruction4_keys,key_resp_instruction4_rt,key_resp_instruction4_duration,practiceCondition,practice_reward_seqs,practice_trial_started,practice_trial_num,practice_resp_rt,practice_resp_duration,practice_resp_keys,prac_presentationInterval,"practice_reward_seq: 2,1,3",reward_img,cumulative_reward,trial_reward,practice_trials.thisRepN,practice_trials.thisTrialN,practice_trials.thisN,practice_trials.thisIndex,practice_trials.ran,"practice_reward_seq: 2,3,1",block_break_started,"practice_reward_seq: 1,3,2","practice_reward_seq: 3,1,2",practice_end_time,practice_end_keys,practice_end_rt,practice_end_duration,main_instruction_text_started,block_condition,block_order_indices,main_instruction_keys,main_instruction_rt,main_instruction_duration,block_number,block_assignment,current_condition,main_reward_seqs,main_trial_started,main_trial_num,main_trial_keys,main_trial_rt,main_trial_duration,main_presentationInterval,reward_presentation_time,main_reward_seq,reward_rand_val,main_reward_img,current_reward,main_trials.thisRepN,main_trials.thisTrialN,main_trials.thisN,main_trials.thisIndex,main_trials.ran,block_reward,block.thisRepN,block.thisTrialN,block.thisN,block.thisIndex,block.ran,block_reward.length,block_reward_all,reward_amount,date_end_task
0.0007,right,2.0943,,5fff542aeed8c2065133114e,A,2024-05-20_14h09.14.218,Slot Machine Game,2023.1.3,Win32,59.88023952,,,,,,,,,,,,,,,,,,,,,,,,,,,,,,,,,,,,,,,,,,,,,,,,,,,,,,,,,,,,,,,,,,,,,,,,,,,,,
,,,,5fff542aeed8c2065133114e,A,2024-05-20_14h09.14.218,Slot Machine Game,2023.1.3,Win32,59.88023952,2.1123,space,3.3696,,,,,,,,,,,,,,,,,,,,,,,,,,,,,,,,,,,,,,,,,,,,,,,,,,,,,,,,,,,,,,,,,,,,,,,,,,
,,,,5fff542aeed8c2065133114e,A,2024-05-20_14h09.14.218,Slot Machine Game,2023.1.3,Win32,59.88023952,,,,,5.5123,space,14.1515,,,,,,,,,,,,,,,,,,,,,,,,,,,,,,,,,,,,,,,,,,,,,,,,,,,,,,,,,,,,,,,,,,,,,,
,,,,5fff542aeed8c2065133114e,A,2024-05-20_14h09.14.218,Slot Machine Game,2023.1.3,Win32,59.88023952,,,,,,,,,19.6953,space,1.9599,,,,,,,,,,,,,,,,,,,,,,,,,,,,,,,,,,,,,,,,,,,,,,,,,,,,,,,,,,,,,,,,,,
,,,,5fff542aeed8c2065133114e,A,2024-05-20_14h09.14.218,Slot Machine Game,2023.1.3,Win32,59.88023952,,,,,,,,,,,,,,,,,,,,,,,,,,,,,,,,,,,,,,,,,,,,,,,,,,,,,,,,,,,,,,,,,,,,,,,,,,,,,
,,,,5fff542aeed8c2065133114e,A,2024-05-20_14h09.14.218,Slot Machine Game,2023.1.3,Win32,59.88023952,,,,,,,,,,,,,163.375,space,7.3093,,,,,,,,,,,,,,,,,,,,,,,,,,,,,,,,,,,,,,,,,,,,,,,,,,,,,,,,,,,,,,
,,,,5fff542aeed8c2065133114e,A,2024-05-20_14h09.14.218,Slot Machine Game,2023.1.3,Win32,59.88023952,,,,,,,,,,,,,,,,,"[9,15]","[[2,1,3],[2,3,1]]",170.7147,0,0.8186,,up,0.5,,stimuli/card_0_transparent.png,0,0,0,0,0,0,1,,,,,,,,,,,,,,,,,,,,,,,,,,,,,,,,,,,,,,,,,,,,
,,,,5fff542aeed8c2065133114e,A,2024-05-20_14h09.14.218,Slot Machine Game,2023.1.3,Win32,59.88023952,,,,,,,,,,,,,,,,,,,172.8736,1,0.1134,,right,1,,stimuli/card_0_transparent.png,0,0,1,0,1,0,1,,,,,,,,,,,,,,,,,,,,,,,,,,,,,,,,,,,,,,,,,,,,
,,,,5fff542aeed8c2065133114e,A,2024-05-20_14h09.14.218,Slot Machine Game,2023.1.3,Win32,59.88023952,,,,,,,,,,,,,,,,,,,174.8068,2,1.0015,,left,1,,stimuli/card_10_transparent.png,10,10,2,0,2,0,1,,,,,,,,,,,,,,,,,,,,,,,,,,,,,,,,,,,,,,,,,,,,
,,,,5fff542aeed8c2065133114e,A,2024-05-20_14h09.14.218,Slot Machine Game,2023.1.3,Win32,59.88023952,,,,,,,,,,,,,,,,,,,177.6566,3,0.8419,,up,1,,stimuli/card_100_transparent.png,110,100,3,0,3,0,1,,,,,,,,,,,,,,,,,,,,,,,,,,,,,,,,,,,,,,,,,,,,
,,,,5fff542aeed8c2065133114e,A,2024-05-20_14h09.14.218,Slot Machine Game,2023.1.3,Win32,59.88023952,,,,,,,,,,,,,,,,,,,180.3233,4,0.1718,,up,1.5,,stimuli/card_10_transparent.png,120,10,4,0,4,0,1,,,,,,,,,,,,,,,,,,,,,,,,,,,,,,,,,,,,,,,,,,,,
,,,,5fff542aeed8c2065133114e,A,2024-05-20_14h09.14.218,Slot Machine Game,2023.1.3,Win32,59.88023952,,,,,,,,,,,,,,,,,,,182.8231,5,0.2753,,up,1.5,,stimuli/card_10_transparent.png,130,10,5,0,5,0,1,,,,,,,,,,,,,,,,,,,,,,,,,,,,,,,,,,,,,,,,,,,,
,,,,5fff542aeed8c2065133114e,A,2024-05-20_14h09.14.218,Slot Machine Game,2023.1.3,Win32,59.88023952,,,,,,,,,,,,,,,,,,,185.4229,6,0.585,,right,1,,stimuli/card_0_transparent.png,130,0,6,0,6,0,1,,,,,,,,,,,,,,,,,,,,,,,,,,,,,,,,,,,,,,,,,,,,
,,,,5fff542aeed8c2065133114e,A,2024-05-20_14h09.14.218,Slot Machine Game,2023.1.3,Win32,59.88023952,,,,,,,,,,,,,,,,,,,187.8394,7,0.091,,right,1.5,,stimuli/card_0_transparent.png,130,0,7,0,7,0,1,,,,,,,,,,,,,,,,,,,,,,,,,,,,,,,,,,,,,,,,,,,,
,,,,5fff542aeed8c2065133114e,A,2024-05-20_14h09.14.218,Slot Machine Game,2023.1.3,Win32,59.88023952,,,,,,,,,,,,,,,,,,,190.2561,8,1.3196,,right,0.5,,stimuli/card_0_transparent.png,130,0,8,0,8,0,1,,,,,,,,,,,,,,,,,,,,,,,,,,,,,,,,,,,,,,,,,,,,
,,,,5fff542aeed8c2065133114e,A,2024-05-20_14h09.14.218,Slot Machine Game,2023.1.3,Win32,59.88023952,,,,,,,,,,,,,,,,,,,192.9061,9,0.3764,,left,1,,stimuli/card_10_transparent.png,140,10,9,0,9,0,1,,,,,,,,,,,,,,,,,,,,,,,,,,,,,,,,,,,,,,,,,,,,
,,,,5fff542aeed8c2065133114e,A,2024-05-20_14h09.14.218,Slot Machine Game,2023.1.3,Win32,59.88023952,,,,,,,,,,,,,,,,,,,195.1058,10,0.2334,,left,0.5,,stimuli/card_10_transparent.png,150,10,10,0,10,0,1,,,,,,,,,,,,,,,,,,,,,,,,,,,,,,,,,,,,,,,,,,,,
,,,,5fff542aeed8c2065133114e,A,2024-05-20_14h09.14.218,Slot Machine Game,2023.1.3,Win32,59.88023952,,,,,,,,,,,,,,,,,,,196.6561,11,0.3165,,up,1.5,,stimuli/card_0_transparent.png,150,0,11,0,11,0,1,,,,,,,,,,,,,,,,,,,,,,,,,,,,,,,,,,,,,,,,,,,,
,,,,5fff542aeed8c2065133114e,A,2024-05-20_14h09.14.218,Slot Machine Game,2023.1.3,Win32,59.88023952,,,,,,,,,,,,,,,,,,,199.3058,12,0.995,,up,1,,stimuli/card_0_transparent.png,150,0,12,0,12,0,1,,,,,,,,,,,,,,,,,,,,,,,,,,,,,,,,,,,,,,,,,,,,
,,,,5fff542aeed8c2065133114e,A,2024-05-20_14h09.14.218,Slot Machine Game,2023.1.3,Win32,59.88023952,,,,,,,,,,,,,,,,,,,202.1058,13,1.8672,,left,1.5,,stimuli/card_10_transparent.png,160,10,13,0,13,0,1,,,,,,,,,,,,,,,,,,,,,,,,,,,,,,,,,,,,,,,,,,,,
,,,,5fff542aeed8c2065133114e,A,2024-05-20_14h09.14.218,Slot Machine Game,2023.1.3,Win32,59.88023952,,,,,,,,,,,,,,,,,,,206.3055,14,1.17,,right,1.5,,stimuli/card_100_transparent.png,260,100,14,0,14,0,1,,,,,,,,,,,,,,,,,,,,,,,,,,,,,,,,,,,,,,,,,,,,
,,,,5fff542aeed8c2065133114e,A,2024-05-20_14h09.14.218,Slot Machine Game,2023.1.3,Win32,59.88023952,,,,,,,,,,,,,,,,,"[6,15]","[[1,3,2],[3,1,2]]",214.8115,0,0.5523,,right,1,,stimuli/card_10_transparent.png,10,10,0,0,0,0,1,,209.8119,,,,,,,,,,,,,,,,,,,,,,,,,,,,,,,,,,,,,,,,,,
,,,,5fff542aeed8c2065133114e,A,2024-05-20_14h09.14.218,Slot Machine Game,2023.1.3,Win32,59.88023952,,,,,,,,,,,,,,,,,,,217.2055,1,2.622,,up,1,,stimuli/card_0_transparent.png,10,0,1,0,1,0,1,,,,,,,,,,,,,,,,,,,,,,,,,,,,,,,,,,,,,,,,,,,,
,,,,5fff542aeed8c2065133114e,A,2024-05-20_14h09.14.218,Slot Machine Game,2023.1.3,Win32,59.88023952,,,,,,,,,,,,,,,,,,,221.6553,2,0.2127,,left,1,,stimuli/card_100_transparent.png,110,100,2,0,2,0,1,,,,,,,,,,,,,,,,,,,,,,,,,,,,,,,,,,,,,,,,,,,,
,,,,5fff542aeed8c2065133114e,A,2024-05-20_14h09.14.218,Slot Machine Game,2023.1.3,Win32,59.88023952,,,,,,,,,,,,,,,,,,,223.6888,3,0.0305,,left,0.5,,stimuli/card_100_transparent.png,210,100,3,0,3,0,1,,,,,,,,,,,,,,,,,,,,,,,,,,,,,,,,,,,,,,,,,,,,
,,,,5fff542aeed8c2065133114e,A,2024-05-20_14h09.14.218,Slot Machine Game,2023.1.3,Win32,59.88023952,,,,,,,,,,,,,,,,,,,225.0385,4,0.1279,,left,0.5,,stimuli/card_10_transparent.png,220,10,4,0,4,0,1,,,,,,,,,,,,,,,,,,,,,,,,,,,,,,,,,,,,,,,,,,,,
,,,,5fff542aeed8c2065133114e,A,2024-05-20_14h09.14.218,Slot Machine Game,2023.1.3,Win32,59.88023952,,,,,,,,,,,,,,,,,,,226.4885,5,0.0223,,left,1,,stimuli/card_10_transparent.png,230,10,5,0,5,0,1,,,,,,,,,,,,,,,,,,,,,,,,,,,,,,,,,,,,,,,,,,,,
,,,,5fff542aeed8c2065133114e,A,2024-05-20_14h09.14.218,Slot Machine Game,2023.1.3,Win32,59.88023952,,,,,,,,,,,,,,,,,,,228.3383,6,0.1976,,up,1.5,,stimuli/card_100_transparent.png,330,100,6,0,6,0,1,,,,,,,,,,,,,,,,,,,,,,,,,,,,,,,,,,,,,,,,,,,,
,,,,5fff542aeed8c2065133114e,A,2024-05-20_14h09.14.218,Slot Machine Game,2023.1.3,Win32,59.88023952,,,,,,,,,,,,,,,,,,,230.8551,7,0.0231,,up,0.5,,stimuli/card_10_transparent.png,340,10,7,0,7,0,1,,,,,,,,,,,,,,,,,,,,,,,,,,,,,,,,,,,,,,,,,,,,
,,,,5fff542aeed8c2065133114e,A,2024-05-20_14h09.14.218,Slot Machine Game,2023.1.3,Win32,59.88023952,,,,,,,,,,,,,,,,,,,232.2048,8,0.1211,,up,1,,stimuli/card_100_transparent.png,440,100,8,0,8,0,1,,,,,,,,,,,,,,,,,,,,,,,,,,,,,,,,,,,,,,,,,,,,
,,,,5fff542aeed8c2065133114e,A,2024-05-20_14h09.14.218,Slot Machine Game,2023.1.3,Win32,59.88023952,,,,,,,,,,,,,,,,,,,234.1548,9,0.4125,,up,1,,stimuli/card_100_transparent.png,540,100,9,0,9,0,1,,,,,,,,,,,,,,,,,,,,,,,,,,,,,,,,,,,,,,,,,,,,
,,,,5fff542aeed8c2065133114e,A,2024-05-20_14h09.14.218,Slot Machine Game,2023.1.3,Win32,59.88023952,,,,,,,,,,,,,,,,,,,236.3881,10,0.348,,up,0.5,,stimuli/card_100_transparent.png,640,100,10,0,10,0,1,,,,,,,,,,,,,,,,,,,,,,,,,,,,,,,,,,,,,,,,,,,,
,,,,5fff542aeed8c2065133114e,A,2024-05-20_14h09.14.218,Slot Machine Game,2023.1.3,Win32,59.88023952,,,,,,,,,,,,,,,,,,,238.0547,11,0.1437,,up,1,,stimuli/card_10_transparent.png,650,10,11,0,11,0,1,,,,,,,,,,,,,,,,,,,,,,,,,,,,,,,,,,,,,,,,,,,,
,,,,5fff542aeed8c2065133114e,A,2024-05-20_14h09.14.218,Slot Machine Game,2023.1.3,Win32,59.88023952,,,,,,,,,,,,,,,,,,,240.0212,12,0.042,,up,1,,stimuli/card_100_transparent.png,750,100,12,0,12,0,1,,,,,,,,,,,,,,,,,,,,,,,,,,,,,,,,,,,,,,,,,,,,
,,,,5fff542aeed8c2065133114e,A,2024-05-20_14h09.14.218,Slot Machine Game,2023.1.3,Win32,59.88023952,,,,,,,,,,,,,,,,,,,241.888,13,0.1424,,up,1.5,,stimuli/card_100_transparent.png,850,100,13,0,13,0,1,,,,,,,,,,,,,,,,,,,,,,,,,,,,,,,,,,,,,,,,,,,,
,,,,5fff542aeed8c2065133114e,A,2024-05-20_14h09.14.218,Slot Machine Game,2023.1.3,Win32,59.88023952,,,,,,,,,,,,,,,,,,,244.3544,14,0.1086,,up,1,,stimuli/card_100_transparent.png,950,100,14,0,14,0,1,,,,,,,,,,,,,,,,,,,,,,,,,,,,,,,,,,,,,,,,,,,,
,,,,5fff542aeed8c2065133114e,A,2024-05-20_14h09.14.218,Slot Machine Game,2023.1.3,Win32,59.88023952,,,,,,,,,,,,,,,,,,,,,,,,,,,,,,,,,,,246.2711,,,251.2713,space,2.4501,,,,,,,,,,,,,,,,,,,,,,,,,,,,,,,,,,,,,
,,,,5fff542aeed8c2065133114e,A,2024-05-20_14h09.14.218,Slot Machine Game,2023.1.3,Win32,59.88023952,,,,,,,,,,,,,,,,,,,,,,,,,,,,,,,,,,,,,,,,,,253.739,1,"[0,1,2,3,4,5,6,7,8,9]",space,1.2003,,,,,,,,,,,,,,,,,,,,,,,,,,,,,,,
,,,,5fff542aeed8c2065133114e,A,2024-05-20_14h09.14.218,Slot Machine Game,2023.1.3,Win32,59.88023952,,,,,,,,,,,,,,,,,,,,,,,,,,,10,,,,,,,,,,,,,,,,,,,,,1,1,"[12,15]","[[2,1,3],[2,3,1]]",254.9633,0,left,0.0373,,1.5,0.3,"[2,1,3]",0.874230668,stimuli/card_10_transparent.png,10,0,0,0,0,1,,,,,,,,,,
,,,,5fff542aeed8c2065133114e,A,2024-05-20_14h09.14.218,Slot Machine Game,2023.1.3,Win32,59.88023952,,,,,,,,,,,,,,,,,,,,,,,,,,,110,,,,,,,,,,,,,,,,,,,,,1,1,,,257.3378,1,up,0.0568,,1,0.3,"[2,1,3]",0.716453913,stimuli/card_100_transparent.png,100,1,0,1,0,1,,,,,,,,,,
,,,,5fff542aeed8c2065133114e,A,2024-05-20_14h09.14.218,Slot Machine Game,2023.1.3,Win32,59.88023952,,,,,,,,,,,,,,,,,,,,,,,,,,,210,,,,,,,,,,,,,,,,,,,,,1,1,,,259.221,2,up,0.0003,,0.5,0.3,"[2,1,3]",0.798135098,stimuli/card_100_transparent.png,100,2,0,2,0,1,,,,,,,,,,
,,,,5fff542aeed8c2065133114e,A,2024-05-20_14h09.14.218,Slot Machine Game,2023.1.3,Win32,59.88023952,,,,,,,,,,,,,,,,,,,,,,,,,,,310,,,,,,,,,,,,,,,,,,,,,1,1,,,260.554,3,up,0.3422,,0.5,0.3,"[2,1,3]",0.45328414,stimuli/card_100_transparent.png,100,3,0,3,0,1,,,,,,,,,,
,,,,5fff542aeed8c2065133114e,A,2024-05-20_14h09.14.218,Slot Machine Game,2023.1.3,Win32,59.88023952,,,,,,,,,,,,,,,,,,,,,,,,,,,410,,,,,,,,,,,,,,,,,,,,,1,1,,,262.2046,4,up,0.0215,,1.5,0.3,"[2,1,3]",0.403043228,stimuli/card_100_transparent.png,100,4,0,4,0,1,,,,,,,,,,
,,,,5fff542aeed8c2065133114e,A,2024-05-20_14h09.14.218,Slot Machine Game,2023.1.3,Win32,59.88023952,,,,,,,,,,,,,,,,,,,,,,,,,,,510,,,,,,,,,,,,,,,,,,,,,1,1,,,264.5541,5,up,0.4487,,1.5,0.3,"[2,1,3]",0.667010434,stimuli/card_100_transparent.png,100,5,0,5,0,1,,,,,,,,,,
,,,,5fff542aeed8c2065133114e,A,2024-05-20_14h09.14.218,Slot Machine Game,2023.1.3,Win32,59.88023952,,,,,,,,,,,,,,,,,,,,,,,,,,,610,,,,,,,,,,,,,,,,,,,,,1,1,,,267.3036,6,up,0.6003,,0.5,0.3,"[2,1,3]",0.348824362,stimuli/card_100_transparent.png,100,6,0,6,0,1,,,,,,,,,,
,,,,5fff542aeed8c2065133114e,A,2024-05-20_14h09.14.218,Slot Machine Game,2023.1.3,Win32,59.88023952,,,,,,,,,,,,,,,,,,,,,,,,,,,710,,,,,,,,,,,,,,,,,,,,,1,1,,,269.2206,7,up,0.4839,,1,0.3,"[2,1,3]",0.277598086,stimuli/card_100_transparent.png,100,7,0,7,0,1,,,,,,,,,,
,,,,5fff542aeed8c2065133114e,A,2024-05-20_14h09.14.218,Slot Machine Game,2023.1.3,Win32,59.88023952,,,,,,,,,,,,,,,,,,,,,,,,,,,810,,,,,,,,,,,,,,,,,,,,,1,1,,,271.5371,8,up,0.107,,0.5,0.3,"[2,1,3]",0.878480545,stimuli/card_100_transparent.png,100,8,0,8,0,1,,,,,,,,,,
,,,,5fff542aeed8c2065133114e,A,2024-05-20_14h09.14.218,Slot Machine Game,2023.1.3,Win32,59.88023952,,,,,,,,,,,,,,,,,,,,,,,,,,,910,,,,,,,,,,,,,,,,,,,,,1,1,,,272.9538,9,up,0.5683,,1,0.3,"[2,1,3]",0.831208996,stimuli/card_100_transparent.png,100,9,0,9,0,1,,,,,,,,,,
,,,,5fff542aeed8c2065133114e,A,2024-05-20_14h09.14.218,Slot Machine Game,2023.1.3,Win32,59.88023952,,,,,,,,,,,,,,,,,,,,,,,,,,,1010,,,,,,,,,,,,,,,,,,,,,1,1,,,275.3538,10,up,0.2676,,1,0.3,"[2,1,3]",0.956574141,stimuli/card_100_transparent.png,100,10,0,10,0,1,,,,,,,,,,
,,,,5fff542aeed8c2065133114e,A,2024-05-20_14h09.14.218,Slot Machine Game,2023.1.3,Win32,59.88023952,,,,,,,,,,,,,,,,,,,,,,,,,,,1110,,,,,,,,,,,,,,,,,,,,,1,1,,,277.4538,11,up,0.4958,,1.5,0.3,"[2,1,3]",0.909872053,stimuli/card_100_transparent.png,100,11,0,11,0,1,,,,,,,,,,
,,,,5fff542aeed8c2065133114e,A,2024-05-20_14h09.14.218,Slot Machine Game,2023.1.3,Win32,59.88023952,,,,,,,,,,,,,,,,,,,,,,,,,,,1210,,,,,,,,,,,,,,,,,,,,,1,1,,,280.2871,12,up,0.2377,,0.5,0.3,"[2,3,1]",0.005423757,stimuli/card_100_transparent.png,100,12,0,12,0,1,,,,,,,,,,
,,,,5fff542aeed8c2065133114e,A,2024-05-20_14h09.14.218,Slot Machine Game,2023.1.3,Win32,59.88023952,,,,,,,,,,,,,,,,,,,,,,,,,,,1210,,,,,,,,,,,,,,,,,,,,,1,1,,,281.8534,13,up,0.2932,,1.5,0.3,"[2,3,1]",0.422312081,stimuli/card_0_transparent.png,0,13,0,13,0,1,,,,,,,,,,
,,,,5fff542aeed8c2065133114e,A,2024-05-20_14h09.14.218,Slot Machine Game,2023.1.3,Win32,59.88023952,,,,,,,,,,,,,,,,,,,,,,,,,,,1210,,,,,,,,,,,,,,,,,,,,,1,1,,,284.4701,14,up,0.4553,,1.5,0.3,"[2,3,1]",0.989590701,stimuli/card_0_transparent.png,0,14,0,14,0,1,,,,,,,,,,
,,,,5fff542aeed8c2065133114e,A,2024-05-20_14h09.14.218,Slot Machine Game,2023.1.3,Win32,59.88023952,,,,,,,,,,,,,,,,,,,,,,,,,,,,,,,,,,,287.2368,,,,,,,,,,,,,,,,,,,,,,,,,,,,,,,,,[1210],0,0,0,0,1,,,,
,,,,5fff542aeed8c2065133114e,A,2024-05-20_14h09.14.218,Slot Machine Game,2023.1.3,Win32,59.88023952,,,,,,,,,,,,,,,,,,,,,,,,,,,100,,,,,,,,,,,,,,,,,,,,,2,2,"[6,15]","[[1,3,2],[3,2,1]]",292.2472,0,left,0.2092,,1,0.3,"[1,3,2]",0.999959301,stimuli/card_100_transparent.png,100,0,0,0,0,1,,,,,,,,,,
,,,,5fff542aeed8c2065133114e,A,2024-05-20_14h09.14.218,Slot Machine Game,2023.1.3,Win32,59.88023952,,,,,,,,,,,,,,,,,,,,,,,,,,,200,,,,,,,,,,,,,,,,,,,,,2,2,,,294.2701,1,left,0.1289,,0.5,0.3,"[1,3,2]",0.244894574,stimuli/card_100_transparent.png,100,1,0,1,0,1,,,,,,,,,,
,,,,5fff542aeed8c2065133114e,A,2024-05-20_14h09.14.218,Slot Machine Game,2023.1.3,Win32,59.88023952,,,,,,,,,,,,,,,,,,,,,,,,,,,300,,,,,,,,,,,,,,,,,,,,,2,2,,,295.7201,2,left,0.2847,,1.5,0.3,"[1,3,2]",0.521400841,stimuli/card_100_transparent.png,100,2,0,2,0,1,,,,,,,,,,
,,,,5fff542aeed8c2065133114e,A,2024-05-20_14h09.14.218,Slot Machine Game,2023.1.3,Win32,59.88023952,,,,,,,,,,,,,,,,,,,,,,,,,,,400,,,,,,,,,,,,,,,,,,,,,2,2,,,298.3365,3,left,0.3589,,1,0.3,"[1,3,2]",0.370591224,stimuli/card_100_transparent.png,100,3,0,3,0,1,,,,,,,,,,
,,,,5fff542aeed8c2065133114e,A,2024-05-20_14h09.14.218,Slot Machine Game,2023.1.3,Win32,59.88023952,,,,,,,,,,,,,,,,,,,,,,,,,,,500,,,,,,,,,,,,,,,,,,,,,2,2,,,300.5197,4,left,0.2736,,0.5,0.3,"[1,3,2]",0.282007239,stimuli/card_100_transparent.png,100,4,0,4,0,1,,,,,,,,,,
,,,,5fff542aeed8c2065133114e,A,2024-05-20_14h09.14.218,Slot Machine Game,2023.1.3,Win32,59.88023952,,,,,,,,,,,,,,,,,,,,,,,,,,,510,,,,,,,,,,,,,,,,,,,,,2,2,,,302.1199,5,left,0.3092,,1.5,0.3,"[1,3,2]",0.136388525,stimuli/card_10_transparent.png,10,5,0,5,0,1,,,,,,,,,,
,,,,5fff542aeed8c2065133114e,A,2024-05-20_14h09.14.218,Slot Machine Game,2023.1.3,Win32,59.88023952,,,,,,,,,,,,,,,,,,,,,,,,,,,510,,,,,,,,,,,,,,,,,,,,,2,2,,,304.7528,6,left,0.0835,,1.5,0.3,"[3,2,1]",0.853297832,stimuli/card_0_transparent.png,0,6,0,6,0,1,,,,,,,,,,
,,,,5fff542aeed8c2065133114e,A,2024-05-20_14h09.14.218,Slot Machine Game,2023.1.3,Win32,59.88023952,,,,,,,,,,,,,,,,,,,,,,,,,,,510,,,,,,,,,,,,,,,,,,,,,2,2,,,307.1694,7,left,0.9297,,1.5,0.3,"[3,2,1]",0.747248616,stimuli/card_0_transparent.png,0,7,0,7,0,1,,,,,,,,,,
,,,,5fff542aeed8c2065133114e,A,2024-05-20_14h09.14.218,Slot Machine Game,2023.1.3,Win32,59.88023952,,,,,,,,,,,,,,,,,,,,,,,,,,,610,,,,,,,,,,,,,,,,,,,,,2,2,,,310.4192,8,up,0.0239,,1,0.3,"[3,2,1]",0.117589013,stimuli/card_100_transparent.png,100,8,0,8,0,1,,,,,,,,,,
,,,,5fff542aeed8c2065133114e,A,2024-05-20_14h09.14.218,Slot Machine Game,2023.1.3,Win32,59.88023952,,,,,,,,,,,,,,,,,,,,,,,,,,,710,,,,,,,,,,,,,,,,,,,,,2,2,,,312.2694,9,up,0.2134,,1.5,0.3,"[3,2,1]",0.172968724,stimuli/card_100_transparent.png,100,9,0,9,0,1,,,,,,,,,,
,,,,5fff542aeed8c2065133114e,A,2024-05-20_14h09.14.218,Slot Machine Game,2023.1.3,Win32,59.88023952,,,,,,,,,,,,,,,,,,,,,,,,,,,720,,,,,,,,,,,,,,,,,,,,,2,2,,,314.8192,10,up,0.3685,,0.5,0.3,"[3,2,1]",0.273231677,stimuli/card_10_transparent.png,10,10,0,10,0,1,,,,,,,,,,
,,,,5fff542aeed8c2065133114e,A,2024-05-20_14h09.14.218,Slot Machine Game,2023.1.3,Win32,59.88023952,,,,,,,,,,,,,,,,,,,,,,,,,,,730,,,,,,,,,,,,,,,,,,,,,2,2,,,316.5358,11,up,0.5341,,1,0.3,"[3,2,1]",0.544092498,stimuli/card_10_transparent.png,10,11,0,11,0,1,,,,,,,,,,
,,,,5fff542aeed8c2065133114e,A,2024-05-20_14h09.14.218,Slot Machine Game,2023.1.3,Win32,59.88023952,,,,,,,,,,,,,,,,,,,,,,,,,,,740,,,,,,,,,,,,,,,,,,,,,2,2,,,318.8859,12,up,0.2825,,1,0.3,"[3,2,1]",0.216710539,stimuli/card_10_transparent.png,10,12,0,12,0,1,,,,,,,,,,
,,,,5fff542aeed8c2065133114e,A,2024-05-20_14h09.14.218,Slot Machine Game,2023.1.3,Win32,59.88023952,,,,,,,,,,,,,,,,,,,,,,,,,,,740,,,,,,,,,,,,,,,,,,,,,2,2,,,320.986,13,left,0.0901,,0.5,0.3,"[3,2,1]",0.946791355,stimuli/card_0_transparent.png,0,13,0,13,0,1,,,,,,,,,,
,,,,5fff542aeed8c2065133114e,A,2024-05-20_14h09.14.218,Slot Machine Game,2023.1.3,Win32,59.88023952,,,,,,,,,,,,,,,,,,,,,,,,,,,750,,,,,,,,,,,,,,,,,,,,,2,2,,,322.4023,14,right,0.9307,,0.5,0.3,"[3,2,1]",0.135518885,stimuli/card_10_transparent.png,10,14,0,14,0,1,,,,,,,,,,
,,,,5fff542aeed8c2065133114e,A,2024-05-20_14h09.14.218,Slot Machine Game,2023.1.3,Win32,59.88023952,,,,,,,,,,,,,,,,,,,,,,,,,,,,,,,,,,,324.6522,,,,,,,,,,,,,,,,,,,,,,,,,,,,,,,,,"[1210,750]",1,0,1,0,1,,,,
,,,,5fff542aeed8c2065133114e,A,2024-05-20_14h09.14.218,Slot Machine Game,2023.1.3,Win32,59.88023952,,,,,,,,,,,,,,,,,,,,,,,,,,,0,,,,,,,,,,,,,,,,,,,,,3,3,"[15,15]","[[3,1,2],[3,1,2]]",329.6592,0,left,0.6102,,0.5,0.3,"[3,1,2]",0.832011569,stimuli/card_0_transparent.png,0,0,0,0,0,1,,,,,,,,,,
,,,,5fff542aeed8c2065133114e,A,2024-05-20_14h09.14.218,Slot Machine Game,2023.1.3,Win32,59.88023952,,,,,,,,,,,,,,,,,,,,,,,,,,,100,,,,,,,,,,,,,,,,,,,,,3,3,,,331.5854,1,up,0.1538,,1.5,0.3,"[3,1,2]",0.571753344,stimuli/card_100_transparent.png,100,1,0,1,0,1,,,,,,,,,,
,,,,5fff542aeed8c2065133114e,A,2024-05-20_14h09.14.218,Slot Machine Game,2023.1.3,Win32,59.88023952,,,,,,,,,,,,,,,,,,,,,,,,,,,200,,,,,,,,,,,,,,,,,,,,,3,3,,,334.052,2,up,0.2603,,0.5,0.3,"[3,1,2]",0.839092676,stimuli/card_100_transparent.png,100,2,0,2,0,1,,,,,,,,,,
,,,,5fff542aeed8c2065133114e,A,2024-05-20_14h09.14.218,Slot Machine Game,2023.1.3,Win32,59.88023952,,,,,,,,,,,,,,,,,,,,,,,,,,,300,,,,,,,,,,,,,,,,,,,,,3,3,,,335.6354,3,up,0.3541,,0.5,0.3,"[3,1,2]",0.341750215,stimuli/card_100_transparent.png,100,3,0,3,0,1,,,,,,,,,,
,,,,5fff542aeed8c2065133114e,A,2024-05-20_14h09.14.218,Slot Machine Game,2023.1.3,Win32,59.88023952,,,,,,,,,,,,,,,,,,,,,,,,,,,310,,,,,,,,,,,,,,,,,,,,,3,3,,,337.3185,4,up,0.1183,,1.5,0.3,"[3,1,2]",0.126968108,stimuli/card_10_transparent.png,10,4,0,4,0,1,,,,,,,,,,
,,,,5fff542aeed8c2065133114e,A,2024-05-20_14h09.14.218,Slot Machine Game,2023.1.3,Win32,59.88023952,,,,,,,,,,,,,,,,,,,,,,,,,,,410,,,,,,,,,,,,,,,,,,,,,3,3,,,339.7687,5,up,0.0695,,0.5,0.3,"[3,1,2]",0.736417951,stimuli/card_100_transparent.png,100,5,0,5,0,1,,,,,,,,,,
,,,,5fff542aeed8c2065133114e,A,2024-05-20_14h09.14.218,Slot Machine Game,2023.1.3,Win32,59.88023952,,,,,,,,,,,,,,,,,,,,,,,,,,,410,,,,,,,,,,,,,,,,,,,,,3,3,,,341.1685,6,up,0.1191,,1.5,0.3,"[3,1,2]",0.071318163,stimuli/card_0_transparent.png,0,6,0,6,0,1,,,,,,,,,,
,,,,5fff542aeed8c2065133114e,A,2024-05-20_14h09.14.218,Slot Machine Game,2023.1.3,Win32,59.88023952,,,,,,,,,,,,,,,,,,,,,,,,,,,420,,,,,,,,,,,,,,,,,,,,,3,3,,,343.6017,7,up,0.0844,,1.5,0.3,"[3,1,2]",0.142651744,stimuli/card_10_transparent.png,10,7,0,7,0,1,,,,,,,,,,
,,,,5fff542aeed8c2065133114e,A,2024-05-20_14h09.14.218,Slot Machine Game,2023.1.3,Win32,59.88023952,,,,,,,,,,,,,,,,,,,,,,,,,,,430,,,,,,,,,,,,,,,,,,,,,3,3,,,346.035,8,right,0.9502,,1.5,0.3,"[3,1,2]",0.739155433,stimuli/card_10_transparent.png,10,8,0,8,0,1,,,,,,,,,,
,,,,5fff542aeed8c2065133114e,A,2024-05-20_14h09.14.218,Slot Machine Game,2023.1.3,Win32,59.88023952,,,,,,,,,,,,,,,,,,,,,,,,,,,440,,,,,,,,,,,,,,,,,,,,,3,3,,,349.3016,9,left,0.1287,,0.5,0.3,"[3,1,2]",0.119881593,stimuli/card_10_transparent.png,10,9,0,9,0,1,,,,,,,,,,
,,,,5fff542aeed8c2065133114e,A,2024-05-20_14h09.14.218,Slot Machine Game,2023.1.3,Win32,59.88023952,,,,,,,,,,,,,,,,,,,,,,,,,,,440,,,,,,,,,,,,,,,,,,,,,3,3,,,350.7516,10,up,1.3406,,1.5,0.3,"[3,1,2]",0.053072429,stimuli/card_0_transparent.png,0,10,0,10,0,1,,,,,,,,,,
,,,,5fff542aeed8c2065133114e,A,2024-05-20_14h09.14.218,Slot Machine Game,2023.1.3,Win32,59.88023952,,,,,,,,,,,,,,,,,,,,,,,,,,,450,,,,,,,,,,,,,,,,,,,,,3,3,,,354.4015,11,right,0.2789,,1,0.3,"[3,1,2]",0.808741363,stimuli/card_10_transparent.png,10,11,0,11,0,1,,,,,,,,,,
,,,,5fff542aeed8c2065133114e,A,2024-05-20_14h09.14.218,Slot Machine Game,2023.1.3,Win32,59.88023952,,,,,,,,,,,,,,,,,,,,,,,,,,,450,,,,,,,,,,,,,,,,,,,,,3,3,,,356.5012,12,left,0.1773,,1.5,0.3,"[3,1,2]",0.485550816,stimuli/card_0_transparent.png,0,12,0,12,0,1,,,,,,,,,,
,,,,5fff542aeed8c2065133114e,A,2024-05-20_14h09.14.218,Slot Machine Game,2023.1.3,Win32,59.88023952,,,,,,,,,,,,,,,,,,,,,,,,,,,450,,,,,,,,,,,,,,,,,,,,,3,3,,,358.9848,13,left,0.1805,,0.5,0.3,"[3,1,2]",0.986056416,stimuli/card_0_transparent.png,0,13,0,13,0,1,,,,,,,,,,
,,,,5fff542aeed8c2065133114e,A,2024-05-20_14h09.14.218,Slot Machine Game,2023.1.3,Win32,59.88023952,,,,,,,,,,,,,,,,,,,,,,,,,,,460,,,,,,,,,,,,,,,,,,,,,3,3,,,360.485,14,right,0.1844,,1.5,0.3,"[3,1,2]",0.554524025,stimuli/card_10_transparent.png,10,14,0,14,0,1,,,,,,,,,,
,,,,5fff542aeed8c2065133114e,A,2024-05-20_14h09.14.218,Slot Machine Game,2023.1.3,Win32,59.88023952,,,,,,,,,,,,,,,,,,,,,,,,,,,,,,,,,,,363.001,,,,,,,,,,,,,,,,,,,,,,,,,,,,,,,,,"[1210,750,460]",2,0,2,0,1,,,,
,,,,5fff542aeed8c2065133114e,A,2024-05-20_14h09.14.218,Slot Machine Game,2023.1.3,Win32,59.88023952,,,,,,,,,,,,,,,,,,,,,,,,,,,100,,,,,,,,,,,,,,,,,,,,,4,4,"[7,15]","[[2,3,1],[1,2,3]]",368.0079,0,up,0.3783,,1.5,0.3,"[2,3,1]",0.065455006,stimuli/card_100_transparent.png,100,0,0,0,0,1,,,,,,,,,,
,,,,5fff542aeed8c2065133114e,A,2024-05-20_14h09.14.218,Slot Machine Game,2023.1.3,Win32,59.88023952,,,,,,,,,,,,,,,,,,,,,,,,,,,100,,,,,,,,,,,,,,,,,,,,,4,4,,,370.7009,1,up,0.4492,,1.5,0.3,"[2,3,1]",0.27071582,stimuli/card_0_transparent.png,0,1,0,1,0,1,,,,,,,,,,
,,,,5fff542aeed8c2065133114e,A,2024-05-20_14h09.14.218,Slot Machine Game,2023.1.3,Win32,59.88023952,,,,,,,,,,,,,,,,,,,,,,,,,,,200,,,,,,,,,,,,,,,,,,,,,4,4,,,373.4675,2,up,0.3971,,1,0.3,"[2,3,1]",0.03336975,stimuli/card_100_transparent.png,100,2,0,2,0,1,,,,,,,,,,
,,,,5fff542aeed8c2065133114e,A,2024-05-20_14h09.14.218,Slot Machine Game,2023.1.3,Win32,59.88023952,,,,,,,,,,,,,,,,,,,,,,,,,,,200,,,,,,,,,,,,,,,,,,,,,4,4,,,375.6677,3,up,0.1918,,1.5,0.3,"[2,3,1]",0.312373039,stimuli/card_0_transparent.png,0,3,0,3,0,1,,,,,,,,,,
,,,,5fff542aeed8c2065133114e,A,2024-05-20_14h09.14.218,Slot Machine Game,2023.1.3,Win32,59.88023952,,,,,,,,,,,,,,,,,,,,,,,,,,,200,,,,,,,,,,,,,,,,,,,,,4,4,,,378.1845,4,up,0.4952,,0.5,0.3,"[2,3,1]",0.768329228,stimuli/card_0_transparent.png,0,4,0,4,0,1,,,,,,,,,,
,,,,5fff542aeed8c2065133114e,A,2024-05-20_14h09.14.218,Slot Machine Game,2023.1.3,Win32,59.88023952,,,,,,,,,,,,,,,,,,,,,,,,,,,200,,,,,,,,,,,,,,,,,,,,,4,4,,,380.0008,5,up,0.5741,,0.5,0.3,"[2,3,1]",0.452529393,stimuli/card_0_transparent.png,0,5,0,5,0,1,,,,,,,,,,
,,,,5fff542aeed8c2065133114e,A,2024-05-20_14h09.14.218,Slot Machine Game,2023.1.3,Win32,59.88023952,,,,,,,,,,,,,,,,,,,,,,,,,,,300,,,,,,,,,,,,,,,,,,,,,4,4,,,381.9005,6,right,0.0067,,1,0.3,"[2,3,1]",0.342044742,stimuli/card_100_transparent.png,100,6,0,6,0,1,,,,,,,,,,
,,,,5fff542aeed8c2065133114e,A,2024-05-20_14h09.14.218,Slot Machine Game,2023.1.3,Win32,59.88023952,,,,,,,,,,,,,,,,,,,,,,,,,,,300,,,,,,,,,,,,,,,,,,,,,4,4,,,383.7177,7,right,0.0402,,1,0.3,"[1,2,3]",0.687073752,stimuli/card_0_transparent.png,0,7,0,7,0,1,,,,,,,,,,
,,,,5fff542aeed8c2065133114e,A,2024-05-20_14h09.14.218,Slot Machine Game,2023.1.3,Win32,59.88023952,,,,,,,,,,,,,,,,,,,,,,,,,,,400,,,,,,,,,,,,,,,,,,,,,4,4,,,385.5844,8,right,0.0537,,1,0.3,"[1,2,3]",0.091883197,stimuli/card_100_transparent.png,100,8,0,8,0,1,,,,,,,,,,
,,,,5fff542aeed8c2065133114e,A,2024-05-20_14h09.14.218,Slot Machine Game,2023.1.3,Win32,59.88023952,,,,,,,,,,,,,,,,,,,,,,,,,,,400,,,,,,,,,,,,,,,,,,,,,4,4,,,387.4675,9,right,0.1522,,1.5,0.3,"[1,2,3]",0.416466178,stimuli/card_0_transparent.png,0,9,0,9,0,1,,,,,,,,,,
,,,,5fff542aeed8c2065133114e,A,2024-05-20_14h09.14.218,Slot Machine Game,2023.1.3,Win32,59.88023952,,,,,,,,,,,,,,,,,,,,,,,,,,,400,,,,,,,,,,,,,,,,,,,,,4,4,,,389.9505,10,right,1.0677,,1.5,0.3,"[1,2,3]",0.72788823,stimuli/card_0_transparent.png,0,10,0,10,0,1,,,,,,,,,,
,,,,5fff542aeed8c2065133114e,A,2024-05-20_14h09.14.218,Slot Machine Game,2023.1.3,Win32,59.88023952,,,,,,,,,,,,,,,,,,,,,,,,,,,410,,,,,,,,,,,,,,,,,,,,,4,4,,,393.3671,11,up,1.079,,0.5,0.3,"[1,2,3]",0.332782587,stimuli/card_10_transparent.png,10,11,0,11,0,1,,,,,,,,,,
,,,,5fff542aeed8c2065133114e,A,2024-05-20_14h09.14.218,Slot Machine Game,2023.1.3,Win32,59.88023952,,,,,,,,,,,,,,,,,,,,,,,,,,,510,,,,,,,,,,,,,,,,,,,,,4,4,,,395.7839,12,left,0.428,,1,0.3,"[1,2,3]",0.320951163,stimuli/card_100_transparent.png,100,12,0,12,0,1,,,,,,,,,,
,,,,5fff542aeed8c2065133114e,A,2024-05-20_14h09.14.218,Slot Machine Game,2023.1.3,Win32,59.88023952,,,,,,,,,,,,,,,,,,,,,,,,,,,520,,,,,,,,,,,,,,,,,,,,,4,4,,,398.0338,13,left,0.4501,,1,0.3,"[1,2,3]",0.121931762,stimuli/card_10_transparent.png,10,13,0,13,0,1,,,,,,,,,,
,,,,5fff542aeed8c2065133114e,A,2024-05-20_14h09.14.218,Slot Machine Game,2023.1.3,Win32,59.88023952,,,,,,,,,,,,,,,,,,,,,,,,,,,620,,,,,,,,,,,,,,,,,,,,,4,4,,,400.317,14,left,0.1344,,1,0.3,"[1,2,3]",0.592818372,stimuli/card_100_transparent.png,100,14,0,14,0,1,,,,,,,,,,
,,,,5fff542aeed8c2065133114e,A,2024-05-20_14h09.14.218,Slot Machine Game,2023.1.3,Win32,59.88023952,,,,,,,,,,,,,,,,,,,,,,,,,,,,,,,,,,,402.2835,,,,,,,,,,,,,,,,,,,,,,,,,,,,,,,,,"[1210,750,460,620]",3,0,3,0,1,,,,
,,,,5fff542aeed8c2065133114e,A,2024-05-20_14h09.14.218,Slot Machine Game,2023.1.3,Win32,59.88023952,,,,,,,,,,,,,,,,,,,,,,,,,,,10,,,,,,,,,,,,,,,,,,,,,5,5,"[5,15]","[[1,2,3],[3,1,2]]",407.2902,0,up,0.3006,,1.5,0.3,"[1,2,3]",0.717321032,stimuli/card_10_transparent.png,10,0,0,0,0,1,,,,,,,,,,
,,,,5fff542aeed8c2065133114e,A,2024-05-20_14h09.14.218,Slot Machine Game,2023.1.3,Win32,59.88023952,,,,,,,,,,,,,,,,,,,,,,,,,,,10,,,,,,,,,,,,,,,,,,,,,5,5,,,409.9166,1,right,0.14,,1.5,0.3,"[1,2,3]",0.900557719,stimuli/card_0_transparent.png,0,1,0,1,0,1,,,,,,,,,,
,,,,5fff542aeed8c2065133114e,A,2024-05-20_14h09.14.218,Slot Machine Game,2023.1.3,Win32,59.88023952,,,,,,,,,,,,,,,,,,,,,,,,,,,110,,,,,,,,,,,,,,,,,,,,,5,5,,,412.3667,2,left,0.3496,,1,0.3,"[1,2,3]",0.511426239,stimuli/card_100_transparent.png,100,2,0,2,0,1,,,,,,,,,,
,,,,5fff542aeed8c2065133114e,A,2024-05-20_14h09.14.218,Slot Machine Game,2023.1.3,Win32,59.88023952,,,,,,,,,,,,,,,,,,,,,,,,,,,210,,,,,,,,,,,,,,,,,,,,,5,5,,,414.5498,3,left,0.3356,,0.5,0.3,"[1,2,3]",0.381325459,stimuli/card_100_transparent.png,100,3,0,3,0,1,,,,,,,,,,
,,,,5fff542aeed8c2065133114e,A,2024-05-20_14h09.14.218,Slot Machine Game,2023.1.3,Win32,59.88023952,,,,,,,,,,,,,,,,,,,,,,,,,,,220,,,,,,,,,,,,,,,,,,,,,5,5,,,416.2332,4,left,0.765,,1.5,0.3,"[1,2,3]",0.134702119,stimuli/card_10_transparent.png,10,4,0,4,0,1,,,,,,,,,,
,,,,5fff542aeed8c2065133114e,A,2024-05-20_14h09.14.218,Slot Machine Game,2023.1.3,Win32,59.88023952,,,,,,,,,,,,,,,,,,,,,,,,,,,220,,,,,,,,,,,,,,,,,,,,,5,5,,,419.3164,5,left,0.2321,,1.5,0.3,"[3,1,2]",0.468699638,stimuli/card_0_transparent.png,0,5,0,5,0,1,,,,,,,,,,
,,,,5fff542aeed8c2065133114e,A,2024-05-20_14h09.14.218,Slot Machine Game,2023.1.3,Win32,59.88023952,,,,,,,,,,,,,,,,,,,,,,,,,,,220,,,,,,,,,,,,,,,,,,,,,5,5,,,421.8663,6,left,1.6844,,1.5,0.3,"[3,1,2]",0.687555363,stimuli/card_0_transparent.png,0,6,0,6,0,1,,,,,,,,,,
,,,,5fff542aeed8c2065133114e,A,2024-05-20_14h09.14.218,Slot Machine Game,2023.1.3,Win32,59.88023952,,,,,,,,,,,,,,,,,,,,,,,,,,,220,,,,,,,,,,,,,,,,,,,,,5,5,,,425.8832,7,up,0.243,,1.5,0.3,"[3,1,2]",0.095758254,stimuli/card_0_transparent.png,0,7,0,7,0,1,,,,,,,,,,
,,,,5fff542aeed8c2065133114e,A,2024-05-20_14h09.14.218,Slot Machine Game,2023.1.3,Win32,59.88023952,,,,,,,,,,,,,,,,,,,,,,,,,,,230,,,,,,,,,,,,,,,,,,,,,5,5,,,428.4496,8,right,0.7862,,1,0.3,"[3,1,2]",0.811418087,stimuli/card_10_transparent.png,10,8,0,8,0,1,,,,,,,,,,
,,,,5fff542aeed8c2065133114e,A,2024-05-20_14h09.14.218,Slot Machine Game,2023.1.3,Win32,59.88023952,,,,,,,,,,,,,,,,,,,,,,,,,,,330,,,,,,,,,,,,,,,,,,,,,5,5,,,431.0663,9,up,1.4683,,0.5,0.3,"[3,1,2]",0.256575896,stimuli/card_100_transparent.png,100,9,0,9,0,1,,,,,,,,,,
,,,,5fff542aeed8c2065133114e,A,2024-05-20_14h09.14.218,Slot Machine Game,2023.1.3,Win32,59.88023952,,,,,,,,,,,,,,,,,,,,,,,,,,,430,,,,,,,,,,,,,,,,,,,,,5,5,,,433.8828,10,up,0.4315,,0.5,0.3,"[3,1,2]",0.538363282,stimuli/card_100_transparent.png,100,10,0,10,0,1,,,,,,,,,,
,,,,5fff542aeed8c2065133114e,A,2024-05-20_14h09.14.218,Slot Machine Game,2023.1.3,Win32,59.88023952,,,,,,,,,,,,,,,,,,,,,,,,,,,530,,,,,,,,,,,,,,,,,,,,,5,5,,,435.6329,11,up,0.1284,,0.5,0.3,"[3,1,2]",0.699667108,stimuli/card_100_transparent.png,100,11,0,11,0,1,,,,,,,,,,
,,,,5fff542aeed8c2065133114e,A,2024-05-20_14h09.14.218,Slot Machine Game,2023.1.3,Win32,59.88023952,,,,,,,,,,,,,,,,,,,,,,,,,,,630,,,,,,,,,,,,,,,,,,,,,5,5,,,437.0829,12,up,0.2843,,1,0.3,"[3,1,2]",0.684051343,stimuli/card_100_transparent.png,100,12,0,12,0,1,,,,,,,,,,
,,,,5fff542aeed8c2065133114e,A,2024-05-20_14h09.14.218,Slot Machine Game,2023.1.3,Win32,59.88023952,,,,,,,,,,,,,,,,,,,,,,,,,,,730,,,,,,,,,,,,,,,,,,,,,5,5,,,439.1992,13,up,0.3374,,1.5,0.3,"[3,1,2]",0.995032906,stimuli/card_100_transparent.png,100,13,0,13,0,1,,,,,,,,,,
,,,,5fff542aeed8c2065133114e,A,2024-05-20_14h09.14.218,Slot Machine Game,2023.1.3,Win32,59.88023952,,,,,,,,,,,,,,,,,,,,,,,,,,,830,,,,,,,,,,,,,,,,,,,,,5,5,,,441.8658,14,up,1.4897,,1,0.3,"[3,1,2]",0.383921772,stimuli/card_100_transparent.png,100,14,0,14,0,1,,,,,,,,,,
,,,,5fff542aeed8c2065133114e,A,2024-05-20_14h09.14.218,Slot Machine Game,2023.1.3,Win32,59.88023952,,,,,,,,,,,,,,,,,,,,,,,,,,,,,,,,,,,445.1824,,,,,,,,,,,,,,,,,,,,,,,,,,,,,,,,,"[1210,750,460,620,830]",4,0,4,0,1,,,,
,,,,5fff542aeed8c2065133114e,A,2024-05-20_14h09.14.218,Slot Machine Game,2023.1.3,Win32,59.88023952,,,,,,,,,,,,,,,,,,,,,,,,,,,0,,,,,,,,,,,,,,,,,,,,,6,6,"[4,10,15]","[[2,3,1],[1,3,2],[3,2,1]]",450.1894,0,up,1.1439,,1,0.3,"[2,3,1]",0.946302665,stimuli/card_0_transparent.png,0,0,0,0,0,1,,,,,,,,,,
,,,,5fff542aeed8c2065133114e,A,2024-05-20_14h09.14.218,Slot Machine Game,2023.1.3,Win32,59.88023952,,,,,,,,,,,,,,,,,,,,,,,,,,,100,,,,,,,,,,,,,,,,,,,,,6,6,,,453.1488,1,left,0.2021,,1,0.3,"[2,3,1]",0.168534122,stimuli/card_100_transparent.png,100,1,0,1,0,1,,,,,,,,,,
,,,,5fff542aeed8c2065133114e,A,2024-05-20_14h09.14.218,Slot Machine Game,2023.1.3,Win32,59.88023952,,,,,,,,,,,,,,,,,,,,,,,,,,,200,,,,,,,,,,,,,,,,,,,,,6,6,,,455.1821,2,left,0.6439,,1,0.3,"[2,3,1]",0.199212858,stimuli/card_100_transparent.png,100,2,0,2,0,1,,,,,,,,,,
,,,,5fff542aeed8c2065133114e,A,2024-05-20_14h09.14.218,Slot Machine Game,2023.1.3,Win32,59.88023952,,,,,,,,,,,,,,,,,,,,,,,,,,,210,,,,,,,,,,,,,,,,,,,,,6,6,,,457.6487,3,left,0.0714,,1.5,0.3,"[2,3,1]",0.427235329,stimuli/card_10_transparent.png,10,3,0,3,0,1,,,,,,,,,,
,,,,5fff542aeed8c2065133114e,A,2024-05-20_14h09.14.218,Slot Machine Game,2023.1.3,Win32,59.88023952,,,,,,,,,,,,,,,,,,,,,,,,,,,310,,,,,,,,,,,,,,,,,,,,,6,6,,,460.0489,4,left,0.5781,,1.5,0.3,"[1,3,2]",0.771407879,stimuli/card_100_transparent.png,100,4,0,4,0,1,,,,,,,,,,
,,,,5fff542aeed8c2065133114e,A,2024-05-20_14h09.14.218,Slot Machine Game,2023.1.3,Win32,59.88023952,,,,,,,,,,,,,,,,,,,,,,,,,,,410,,,,,,,,,,,,,,,,,,,,,6,6,,,462.9487,5,left,0.4712,,0.5,0.3,"[1,3,2]",0.7653797,stimuli/card_100_transparent.png,100,5,0,5,0,1,,,,,,,,,,
,,,,5fff542aeed8c2065133114e,A,2024-05-20_14h09.14.218,Slot Machine Game,2023.1.3,Win32,59.88023952,,,,,,,,,,,,,,,,,,,,,,,,,,,510,,,,,,,,,,,,,,,,,,,,,6,6,,,464.7485,6,left,1.1616,,1,0.3,"[1,3,2]",0.726127645,stimuli/card_100_transparent.png,100,6,0,6,0,1,,,,,,,,,,
,,,,5fff542aeed8c2065133114e,A,2024-05-20_14h09.14.218,Slot Machine Game,2023.1.3,Win32,59.88023952,,,,,,,,,,,,,,,,,,,,,,,,,,,510,,,,,,,,,,,,,,,,,,,,,6,6,,,467.7151,7,left,1.462,,1.5,0.3,"[1,3,2]",0.095135145,stimuli/card_0_transparent.png,0,7,0,7,0,1,,,,,,,,,,
,,,,5fff542aeed8c2065133114e,A,2024-05-20_14h09.14.218,Slot Machine Game,2023.1.3,Win32,59.88023952,,,,,,,,,,,,,,,,,,,,,,,,,,,510,,,,,,,,,,,,,,,,,,,,,6,6,,,471.4984,8,left,0.5822,,1.5,0.3,"[1,3,2]",0.042732115,stimuli/card_0_transparent.png,0,8,0,8,0,1,,,,,,,,,,
,,,,5fff542aeed8c2065133114e,A,2024-05-20_14h09.14.218,Slot Machine Game,2023.1.3,Win32,59.88023952,,,,,,,,,,,,,,,,,,,,,,,,,,,510,,,,,,,,,,,,,,,,,,,,,6,6,,,474.3982,9,right,0.0727,,1,0.3,"[1,3,2]",0.023173524,stimuli/card_0_transparent.png,0,9,0,9,0,1,,,,,,,,,,
,,,,5fff542aeed8c2065133114e,A,2024-05-20_14h09.14.218,Slot Machine Game,2023.1.3,Win32,59.88023952,,,,,,,,,,,,,,,,,,,,,,,,,,,520,,,,,,,,,,,,,,,,,,,,,6,6,,,476.2979,10,up,0.141,,1.5,0.3,"[3,2,1]",0.43719789,stimuli/card_10_transparent.png,10,10,0,10,0,1,,,,,,,,,,
,,,,5fff542aeed8c2065133114e,A,2024-05-20_14h09.14.218,Slot Machine Game,2023.1.3,Win32,59.88023952,,,,,,,,,,,,,,,,,,,,,,,,,,,520,,,,,,,,,,,,,,,,,,,,,6,6,,,478.7648,11,left,2.6194,,1,0.3,"[3,2,1]",0.428139749,stimuli/card_0_transparent.png,0,11,0,11,0,1,,,,,,,,,,
,,,,5fff542aeed8c2065133114e,A,2024-05-20_14h09.14.218,Slot Machine Game,2023.1.3,Win32,59.88023952,,,,,,,,,,,,,,,,,,,,,,,,,,,620,,,,,,,,,,,,,,,,,,,,,6,6,,,483.2316,12,right,0.0201,,0.5,0.3,"[3,2,1]",0.324277779,stimuli/card_100_transparent.png,100,12,0,12,0,1,,,,,,,,,,
,,,,5fff542aeed8c2065133114e,A,2024-05-20_14h09.14.218,Slot Machine Game,2023.1.3,Win32,59.88023952,,,,,,,,,,,,,,,,,,,,,,,,,,,720,,,,,,,,,,,,,,,,,,,,,6,6,,,484.5813,13,right,0.1322,,0.5,0.3,"[3,2,1]",0.379215958,stimuli/card_100_transparent.png,100,13,0,13,0,1,,,,,,,,,,
,,,,5fff542aeed8c2065133114e,A,2024-05-20_14h09.14.218,Slot Machine Game,2023.1.3,Win32,59.88023952,,,,,,,,,,,,,,,,,,,,,,,,,,,820,,,,,,,,,,,,,,,,,,,,,6,6,,,486.0318,14,right,0.1857,,0.5,0.3,"[3,2,1]",0.340806741,stimuli/card_100_transparent.png,100,14,0,14,0,1,,,,,,,,,,
,,,,5fff542aeed8c2065133114e,A,2024-05-20_14h09.14.218,Slot Machine Game,2023.1.3,Win32,59.88023952,,,,,,,,,,,,,,,,,,,,,,,,,,,,,,,,,,,487.548,,,,,,,,,,,,,,,,,,,,,,,,,,,,,,,,,"[1210,750,460,620,830,820]",5,0,5,0,1,,,,
,,,,5fff542aeed8c2065133114e,A,2024-05-20_14h09.14.218,Slot Machine Game,2023.1.3,Win32,59.88023952,,,,,,,,,,,,,,,,,,,,,,,,,,,0,,,,,,,,,,,,,,,,,,,,,7,7,"[9,15]","[[1,3,2],[2,3,1]]",492.5548,0,up,0.6415,,0.5,0.3,"[1,3,2]",0.253590866,stimuli/card_0_transparent.png,0,0,0,0,0,1,,,,,,,,,,
,,,,5fff542aeed8c2065133114e,A,2024-05-20_14h09.14.218,Slot Machine Game,2023.1.3,Win32,59.88023952,,,,,,,,,,,,,,,,,,,,,,,,,,,10,,,,,,,,,,,,,,,,,,,,,7,7,,,494.5308,1,right,0.2941,,1.5,0.3,"[1,3,2]",0.21557555,stimuli/card_10_transparent.png,10,1,0,1,0,1,,,,,,,,,,
,,,,5fff542aeed8c2065133114e,A,2024-05-20_14h09.14.218,Slot Machine Game,2023.1.3,Win32,59.88023952,,,,,,,,,,,,,,,,,,,,,,,,,,,110,,,,,,,,,,,,,,,,,,,,,7,7,,,497.1474,2,left,0.4557,,1.5,0.3,"[1,3,2]",0.96852352,stimuli/card_100_transparent.png,100,2,0,2,0,1,,,,,,,,,,
,,,,5fff542aeed8c2065133114e,A,2024-05-20_14h09.14.218,Slot Machine Game,2023.1.3,Win32,59.88023952,,,,,,,,,,,,,,,,,,,,,,,,,,,120,,,,,,,,,,,,,,,,,,,,,7,7,,,499.9307,3,left,0.1758,,0.5,0.3,"[1,3,2]",0.176247806,stimuli/card_10_transparent.png,10,3,0,3,0,1,,,,,,,,,,
,,,,5fff542aeed8c2065133114e,A,2024-05-20_14h09.14.218,Slot Machine Game,2023.1.3,Win32,59.88023952,,,,,,,,,,,,,,,,,,,,,,,,,,,220,,,,,,,,,,,,,,,,,,,,,7,7,,,501.4142,4,left,0.3247,,0.5,0.3,"[1,3,2]",0.518510058,stimuli/card_100_transparent.png,100,4,0,4,0,1,,,,,,,,,,
,,,,5fff542aeed8c2065133114e,A,2024-05-20_14h09.14.218,Slot Machine Game,2023.1.3,Win32,59.88023952,,,,,,,,,,,,,,,,,,,,,,,,,,,320,,,,,,,,,,,,,,,,,,,,,7,7,,,503.0807,5,left,0.2949,,1,0.3,"[1,3,2]",0.460463596,stimuli/card_100_transparent.png,100,5,0,5,0,1,,,,,,,,,,
,,,,5fff542aeed8c2065133114e,A,2024-05-20_14h09.14.218,Slot Machine Game,2023.1.3,Win32,59.88023952,,,,,,,,,,,,,,,,,,,,,,,,,,,420,,,,,,,,,,,,,,,,,,,,,7,7,,,505.1974,6,left,0.0878,,0.5,0.3,"[1,3,2]",0.758724813,stimuli/card_100_transparent.png,100,6,0,6,0,1,,,,,,,,,,
,,,,5fff542aeed8c2065133114e,A,2024-05-20_14h09.14.218,Slot Machine Game,2023.1.3,Win32,59.88023952,,,,,,,,,,,,,,,,,,,,,,,,,,,420,,,,,,,,,,,,,,,,,,,,,7,7,,,506.5974,7,left,1.3155,,0.5,0.3,"[1,3,2]",0.061516866,stimuli/card_0_transparent.png,0,7,0,7,0,1,,,,,,,,,,
,,,,5fff542aeed8c2065133114e,A,2024-05-20_14h09.14.218,Slot Machine Game,2023.1.3,Win32,59.88023952,,,,,,,,,,,,,,,,,,,,,,,,,,,520,,,,,,,,,,,,,,,,,,,,,7,7,,,509.2306,8,left,1.3043,,1.5,0.3,"[1,3,2]",0.315930718,stimuli/card_100_transparent.png,100,8,0,8,0,1,,,,,,,,,,
,,,,5fff542aeed8c2065133114e,A,2024-05-20_14h09.14.218,Slot Machine Game,2023.1.3,Win32,59.88023952,,,,,,,,,,,,,,,,,,,,,,,,,,,530,,,,,,,,,,,,,,,,,,,,,7,7,,,512.864,9,left,0.1876,,0.5,0.3,"[2,3,1]",0.901487226,stimuli/card_10_transparent.png,10,9,0,9,0,1,,,,,,,,,,
,,,,5fff542aeed8c2065133114e,A,2024-05-20_14h09.14.218,Slot Machine Game,2023.1.3,Win32,59.88023952,,,,,,,,,,,,,,,,,,,,,,,,,,,540,,,,,,,,,,,,,,,,,,,,,7,7,,,514.3804,10,left,1.0012,,0.5,0.3,"[2,3,1]",0.476490337,stimuli/card_10_transparent.png,10,10,0,10,0,1,,,,,,,,,,
,,,,5fff542aeed8c2065133114e,A,2024-05-20_14h09.14.218,Slot Machine Game,2023.1.3,Win32,59.88023952,,,,,,,,,,,,,,,,,,,,,,,,,,,540,,,,,,,,,,,,,,,,,,,,,7,7,,,516.7137,11,up,0.113,,1,0.3,"[2,3,1]",0.35835344,stimuli/card_0_transparent.png,0,11,0,11,0,1,,,,,,,,,,
,,,,5fff542aeed8c2065133114e,A,2024-05-20_14h09.14.218,Slot Machine Game,2023.1.3,Win32,59.88023952,,,,,,,,,,,,,,,,,,,,,,,,,,,640,,,,,,,,,,,,,,,,,,,,,7,7,,,518.6471,12,right,0.2638,,0.5,0.3,"[2,3,1]",0.893138013,stimuli/card_100_transparent.png,100,12,0,12,0,1,,,,,,,,,,
,,,,5fff542aeed8c2065133114e,A,2024-05-20_14h09.14.218,Slot Machine Game,2023.1.3,Win32,59.88023952,,,,,,,,,,,,,,,,,,,,,,,,,,,740,,,,,,,,,,,,,,,,,,,,,7,7,,,520.2303,13,right,0.1269,,1,0.3,"[2,3,1]",0.319587721,stimuli/card_100_transparent.png,100,13,0,13,0,1,,,,,,,,,,
,,,,5fff542aeed8c2065133114e,A,2024-05-20_14h09.14.218,Slot Machine Game,2023.1.3,Win32,59.88023952,,,,,,,,,,,,,,,,,,,,,,,,,,,840,,,,,,,,,,,,,,,,,,,,,7,7,,,522.1803,14,right,1.5044,,1,0.3,"[2,3,1]",0.983824639,stimuli/card_100_transparent.png,100,14,0,14,0,1,,,,,,,,,,
,,,,5fff542aeed8c2065133114e,A,2024-05-20_14h09.14.218,Slot Machine Game,2023.1.3,Win32,59.88023952,,,,,,,,,,,,,,,,,,,,,,,,,,,,,,,,,,,525.5137,,,,,,,,,,,,,,,,,,,,,,,,,,,,,,,,,"[1210,750,460,620,830,820,840]",6,0,6,0,1,,,,
,,,,5fff542aeed8c2065133114e,A,2024-05-20_14h09.14.218,Slot Machine Game,2023.1.3,Win32,59.88023952,,,,,,,,,,,,,,,,,,,,,,,,,,,0,,,,,,,,,,,,,,,,,,,,,8,8,"[11,15]","[[2,1,3],[1,2,3]]",530.5231,0,up,0.4467,,1.5,0.3,"[2,1,3]",0.003678346,stimuli/card_0_transparent.png,0,0,0,0,0,1,,,,,,,,,,
,,,,5fff542aeed8c2065133114e,A,2024-05-20_14h09.14.218,Slot Machine Game,2023.1.3,Win32,59.88023952,,,,,,,,,,,,,,,,,,,,,,,,,,,0,,,,,,,,,,,,,,,,,,,,,8,8,,,533.2801,1,right,0.2262,,1,0.3,"[2,1,3]",0.744305028,stimuli/card_0_transparent.png,0,1,0,1,0,1,,,,,,,,,,
,,,,5fff542aeed8c2065133114e,A,2024-05-20_14h09.14.218,Slot Machine Game,2023.1.3,Win32,59.88023952,,,,,,,,,,,,,,,,,,,,,,,,,,,100,,,,,,,,,,,,,,,,,,,,,8,8,,,535.33,2,left,0.3314,,1.5,0.3,"[2,1,3]",0.17977338,stimuli/card_100_transparent.png,100,2,0,2,0,1,,,,,,,,,,
,,,,5fff542aeed8c2065133114e,A,2024-05-20_14h09.14.218,Slot Machine Game,2023.1.3,Win32,59.88023952,,,,,,,,,,,,,,,,,,,,,,,,,,,110,,,,,,,,,,,,,,,,,,,,,8,8,,,537.9796,3,left,0.1419,,1,0.3,"[2,1,3]",0.466939545,stimuli/card_10_transparent.png,10,3,0,3,0,1,,,,,,,,,,
,,,,5fff542aeed8c2065133114e,A,2024-05-20_14h09.14.218,Slot Machine Game,2023.1.3,Win32,59.88023952,,,,,,,,,,,,,,,,,,,,,,,,,,,120,,,,,,,,,,,,,,,,,,,,,8,8,,,539.9467,4,left,0.1127,,0.5,0.3,"[2,1,3]",0.481099283,stimuli/card_10_transparent.png,10,4,0,4,0,1,,,,,,,,,,
,,,,5fff542aeed8c2065133114e,A,2024-05-20_14h09.14.218,Slot Machine Game,2023.1.3,Win32,59.88023952,,,,,,,,,,,,,,,,,,,,,,,,,,,120,,,,,,,,,,,,,,,,,,,,,8,8,,,541.3797,5,right,0.6052,,1.5,0.3,"[2,1,3]",0.886766824,stimuli/card_0_transparent.png,0,5,0,5,0,1,,,,,,,,,,
,,,,5fff542aeed8c2065133114e,A,2024-05-20_14h09.14.218,Slot Machine Game,2023.1.3,Win32,59.88023952,,,,,,,,,,,,,,,,,,,,,,,,,,,220,,,,,,,,,,,,,,,,,,,,,8,8,,,544.2963,6,up,0.2319,,0.5,0.3,"[2,1,3]",0.71005969,stimuli/card_100_transparent.png,100,6,0,6,0,1,,,,,,,,,,
,,,,5fff542aeed8c2065133114e,A,2024-05-20_14h09.14.218,Slot Machine Game,2023.1.3,Win32,59.88023952,,,,,,,,,,,,,,,,,,,,,,,,,,,320,,,,,,,,,,,,,,,,,,,,,8,8,,,545.8462,7,up,0.1497,,1.5,0.3,"[2,1,3]",0.630495748,stimuli/card_100_transparent.png,100,7,0,7,0,1,,,,,,,,,,
,,,,5fff542aeed8c2065133114e,A,2024-05-20_14h09.14.218,Slot Machine Game,2023.1.3,Win32,59.88023952,,,,,,,,,,,,,,,,,,,,,,,,,,,420,,,,,,,,,,,,,,,,,,,,,8,8,,,548.3128,8,up,0.2671,,1.5,0.3,"[2,1,3]",0.382925535,stimuli/card_100_transparent.png,100,8,0,8,0,1,,,,,,,,,,
,,,,5fff542aeed8c2065133114e,A,2024-05-20_14h09.14.218,Slot Machine Game,2023.1.3,Win32,59.88023952,,,,,,,,,,,,,,,,,,,,,,,,,,,520,,,,,,,,,,,,,,,,,,,,,8,8,,,550.9127,9,up,0.4462,,0.5,0.3,"[2,1,3]",0.204593551,stimuli/card_100_transparent.png,100,9,0,9,0,1,,,,,,,,,,
,,,,5fff542aeed8c2065133114e,A,2024-05-20_14h09.14.218,Slot Machine Game,2023.1.3,Win32,59.88023952,,,,,,,,,,,,,,,,,,,,,,,,,,,620,,,,,,,,,,,,,,,,,,,,,8,8,,,552.6793,10,up,0.2266,,0.5,0.3,"[2,1,3]",0.202661041,stimuli/card_100_transparent.png,100,10,0,10,0,1,,,,,,,,,,
,,,,5fff542aeed8c2065133114e,A,2024-05-20_14h09.14.218,Slot Machine Game,2023.1.3,Win32,59.88023952,,,,,,,,,,,,,,,,,,,,,,,,,,,630,,,,,,,,,,,,,,,,,,,,,8,8,,,554.2294,11,up,0.3548,,1,0.3,"[1,2,3]",0.676440822,stimuli/card_10_transparent.png,10,11,0,11,0,1,,,,,,,,,,
,,,,5fff542aeed8c2065133114e,A,2024-05-20_14h09.14.218,Slot Machine Game,2023.1.3,Win32,59.88023952,,,,,,,,,,,,,,,,,,,,,,,,,,,640,,,,,,,,,,,,,,,,,,,,,8,8,,,556.4127,12,up,0.0963,,1.5,0.3,"[1,2,3]",0.351737275,stimuli/card_10_transparent.png,10,12,0,12,0,1,,,,,,,,,,
,,,,5fff542aeed8c2065133114e,A,2024-05-20_14h09.14.218,Slot Machine Game,2023.1.3,Win32,59.88023952,,,,,,,,,,,,,,,,,,,,,,,,,,,650,,,,,,,,,,,,,,,,,,,,,8,8,,,558.8292,13,left,0.6163,,1,0.3,"[1,2,3]",0.141524551,stimuli/card_10_transparent.png,10,13,0,13,0,1,,,,,,,,,,
,,,,5fff542aeed8c2065133114e,A,2024-05-20_14h09.14.218,Slot Machine Game,2023.1.3,Win32,59.88023952,,,,,,,,,,,,,,,,,,,,,,,,,,,650,,,,,,,,,,,,,,,,,,,,,8,8,,,561.2792,14,right,0.3347,,1,0.3,"[1,2,3]",0.234411902,stimuli/card_0_transparent.png,0,14,0,14,0,1,,,,,,,,,,
,,,,5fff542aeed8c2065133114e,A,2024-05-20_14h09.14.218,Slot Machine Game,2023.1.3,Win32,59.88023952,,,,,,,,,,,,,,,,,,,,,,,,,,,,,,,,,,,563.4623,,,,,,,,,,,,,,,,,,,,,,,,,,,,,,,,,"[1210,750,460,620,830,820,840,650]",7,0,7,0,1,,,,
,,,,5fff542aeed8c2065133114e,A,2024-05-20_14h09.14.218,Slot Machine Game,2023.1.3,Win32,59.88023952,,,,,,,,,,,,,,,,,,,,,,,,,,,100,,,,,,,,,,,,,,,,,,,,,9,9,"[8,15]","[[3,2,1],[3,1,2]]",568.4634,0,up,3.3508,,1.5,0.3,"[3,2,1]",0.147468565,stimuli/card_100_transparent.png,100,0,0,0,0,1,,,,,,,,,,
,,,,5fff542aeed8c2065133114e,A,2024-05-20_14h09.14.218,Slot Machine Game,2023.1.3,Win32,59.88023952,,,,,,,,,,,,,,,,,,,,,,,,,,,110,,,,,,,,,,,,,,,,,,,,,9,9,,,574.1454,1,up,0.1138,,1.5,0.3,"[3,2,1]",0.224263524,stimuli/card_10_transparent.png,10,1,0,1,0,1,,,,,,,,,,
,,,,5fff542aeed8c2065133114e,A,2024-05-20_14h09.14.218,Slot Machine Game,2023.1.3,Win32,59.88023952,,,,,,,,,,,,,,,,,,,,,,,,,,,120,,,,,,,,,,,,,,,,,,,,,9,9,,,576.5621,2,up,0.0395,,0.5,0.3,"[3,2,1]",0.912080404,stimuli/card_10_transparent.png,10,2,0,2,0,1,,,,,,,,,,
,,,,5fff542aeed8c2065133114e,A,2024-05-20_14h09.14.218,Slot Machine Game,2023.1.3,Win32,59.88023952,,,,,,,,,,,,,,,,,,,,,,,,,,,120,,,,,,,,,,,,,,,,,,,,,9,9,,,577.9289,3,left,0.1912,,0.5,0.3,"[3,2,1]",0.638493226,stimuli/card_0_transparent.png,0,3,0,3,0,1,,,,,,,,,,
,,,,5fff542aeed8c2065133114e,A,2024-05-20_14h09.14.218,Slot Machine Game,2023.1.3,Win32,59.88023952,,,,,,,,,,,,,,,,,,,,,,,,,,,220,,,,,,,,,,,,,,,,,,,,,9,9,,,579.4619,4,right,0.3812,,0.5,0.3,"[3,2,1]",0.610009556,stimuli/card_100_transparent.png,100,4,0,4,0,1,,,,,,,,,,
,,,,5fff542aeed8c2065133114e,A,2024-05-20_14h09.14.218,Slot Machine Game,2023.1.3,Win32,59.88023952,,,,,,,,,,,,,,,,,,,,,,,,,,,320,,,,,,,,,,,,,,,,,,,,,9,9,,,581.1621,5,right,0.1701,,0.5,0.3,"[3,2,1]",0.402911771,stimuli/card_100_transparent.png,100,5,0,5,0,1,,,,,,,,,,
,,,,5fff542aeed8c2065133114e,A,2024-05-20_14h09.14.218,Slot Machine Game,2023.1.3,Win32,59.88023952,,,,,,,,,,,,,,,,,,,,,,,,,,,420,,,,,,,,,,,,,,,,,,,,,9,9,,,582.662,6,right,0.2599,,1,0.3,"[3,2,1]",0.270852147,stimuli/card_100_transparent.png,100,6,0,6,0,1,,,,,,,,,,
,,,,5fff542aeed8c2065133114e,A,2024-05-20_14h09.14.218,Slot Machine Game,2023.1.3,Win32,59.88023952,,,,,,,,,,,,,,,,,,,,,,,,,,,520,,,,,,,,,,,,,,,,,,,,,9,9,,,584.7618,7,right,0.3913,,1.5,0.3,"[3,2,1]",0.419766064,stimuli/card_100_transparent.png,100,7,0,7,0,1,,,,,,,,,,
,,,,5fff542aeed8c2065133114e,A,2024-05-20_14h09.14.218,Slot Machine Game,2023.1.3,Win32,59.88023952,,,,,,,,,,,,,,,,,,,,,,,,,,,530,,,,,,,,,,,,,,,,,,,,,9,9,,,587.4616,8,right,0.4838,,0.5,0.3,"[3,1,2]",0.69471403,stimuli/card_10_transparent.png,10,8,0,8,0,1,,,,,,,,,,
,,,,5fff542aeed8c2065133114e,A,2024-05-20_14h09.14.218,Slot Machine Game,2023.1.3,Win32,59.88023952,,,,,,,,,,,,,,,,,,,,,,,,,,,540,,,,,,,,,,,,,,,,,,,,,9,9,,,589.2617,9,right,0.6195,,1,0.3,"[3,1,2]",0.293291047,stimuli/card_10_transparent.png,10,9,0,9,0,1,,,,,,,,,,
,,,,5fff542aeed8c2065133114e,A,2024-05-20_14h09.14.218,Slot Machine Game,2023.1.3,Win32,59.88023952,,,,,,,,,,,,,,,,,,,,,,,,,,,640,,,,,,,,,,,,,,,,,,,,,9,9,,,591.7116,10,up,0.0378,,0.5,0.3,"[3,1,2]",0.437571785,stimuli/card_100_transparent.png,100,10,0,10,0,1,,,,,,,,,,
,,,,5fff542aeed8c2065133114e,A,2024-05-20_14h09.14.218,Slot Machine Game,2023.1.3,Win32,59.88023952,,,,,,,,,,,,,,,,,,,,,,,,,,,740,,,,,,,,,,,,,,,,,,,,,9,9,,,593.062,11,up,0.1487,,0.5,0.3,"[3,1,2]",0.856605857,stimuli/card_100_transparent.png,100,11,0,11,0,1,,,,,,,,,,
,,,,5fff542aeed8c2065133114e,A,2024-05-20_14h09.14.218,Slot Machine Game,2023.1.3,Win32,59.88023952,,,,,,,,,,,,,,,,,,,,,,,,,,,840,,,,,,,,,,,,,,,,,,,,,9,9,,,594.5279,12,up,0.1572,,0.5,0.3,"[3,1,2]",0.617988273,stimuli/card_100_transparent.png,100,12,0,12,0,1,,,,,,,,,,
,,,,5fff542aeed8c2065133114e,A,2024-05-20_14h09.14.218,Slot Machine Game,2023.1.3,Win32,59.88023952,,,,,,,,,,,,,,,,,,,,,,,,,,,940,,,,,,,,,,,,,,,,,,,,,9,9,,,595.9948,13,up,0.2094,,1,0.3,"[3,1,2]",0.493558557,stimuli/card_100_transparent.png,100,13,0,13,0,1,,,,,,,,,,
,,,,5fff542aeed8c2065133114e,A,2024-05-20_14h09.14.218,Slot Machine Game,2023.1.3,Win32,59.88023952,,,,,,,,,,,,,,,,,,,,,,,,,,,1040,,,,,,,,,,,,,,,,,,,,,9,9,,,598.0115,14,up,0.1865,,0.5,0.3,"[3,1,2]",0.3753717,stimuli/card_100_transparent.png,100,14,0,14,0,1,,,,,,,,,,
,,,,5fff542aeed8c2065133114e,A,2024-05-20_14h09.14.218,Slot Machine Game,2023.1.3,Win32,59.88023952,,,,,,,,,,,,,,,,,,,,,,,,,,,,,,,,,,,599.528,,,,,,,,,,,,,,,,,,,,,,,,,,,,,,,,,"[1210,750,460,620,830,820,840,650,1040]",8,0,8,0,1,,,,
,,,,5fff542aeed8c2065133114e,A,2024-05-20_14h09.14.218,Slot Machine Game,2023.1.3,Win32,59.88023952,,,,,,,,,,,,,,,,,,,,,,,,,,,0,,,,,,,,,,,,,,,,,,,,,10,10,"[10,15]","[[3,1,2],[1,3,2]]",604.5364,0,left,0.3525,,1,0.3,"[3,1,2]",0.769592288,stimuli/card_0_transparent.png,0,0,0,0,0,1,,,,,,,,,,
,,,,5fff542aeed8c2065133114e,A,2024-05-20_14h09.14.218,Slot Machine Game,2023.1.3,Win32,59.88023952,,,,,,,,,,,,,,,,,,,,,,,,,,,100,,,,,,,,,,,,,,,,,,,,,10,10,,,606.7111,1,up,0.4433,,1.5,0.3,"[3,1,2]",0.390442264,stimuli/card_100_transparent.png,100,1,0,1,0,1,,,,,,,,,,
,,,,5fff542aeed8c2065133114e,A,2024-05-20_14h09.14.218,Slot Machine Game,2023.1.3,Win32,59.88023952,,,,,,,,,,,,,,,,,,,,,,,,,,,200,,,,,,,,,,,,,,,,,,,,,10,10,,,609.4613,2,up,0.2197,,1.5,0.3,"[3,1,2]",0.335994237,stimuli/card_100_transparent.png,100,2,0,2,0,1,,,,,,,,,,
,,,,5fff542aeed8c2065133114e,A,2024-05-20_14h09.14.218,Slot Machine Game,2023.1.3,Win32,59.88023952,,,,,,,,,,,,,,,,,,,,,,,,,,,210,,,,,,,,,,,,,,,,,,,,,10,10,,,612.0278,3,up,0.1693,,0.5,0.3,"[3,1,2]",0.190901449,stimuli/card_10_transparent.png,10,3,0,3,0,1,,,,,,,,,,
,,,,5fff542aeed8c2065133114e,A,2024-05-20_14h09.14.218,Slot Machine Game,2023.1.3,Win32,59.88023952,,,,,,,,,,,,,,,,,,,,,,,,,,,310,,,,,,,,,,,,,,,,,,,,,10,10,,,613.5446,4,up,0.7089,,0.5,0.3,"[3,1,2]",0.300368455,stimuli/card_100_transparent.png,100,4,0,4,0,1,,,,,,,,,,
,,,,5fff542aeed8c2065133114e,A,2024-05-20_14h09.14.218,Slot Machine Game,2023.1.3,Win32,59.88023952,,,,,,,,,,,,,,,,,,,,,,,,,,,410,,,,,,,,,,,,,,,,,,,,,10,10,,,615.5775,5,up,0.2945,,0.5,0.3,"[3,1,2]",0.511042934,stimuli/card_100_transparent.png,100,5,0,5,0,1,,,,,,,,,,
,,,,5fff542aeed8c2065133114e,A,2024-05-20_14h09.14.218,Slot Machine Game,2023.1.3,Win32,59.88023952,,,,,,,,,,,,,,,,,,,,,,,,,,,510,,,,,,,,,,,,,,,,,,,,,10,10,,,617.211,6,up,0.2256,,0.5,0.3,"[3,1,2]",0.221861917,stimuli/card_100_transparent.png,100,6,0,6,0,1,,,,,,,,,,
,,,,5fff542aeed8c2065133114e,A,2024-05-20_14h09.14.218,Slot Machine Game,2023.1.3,Win32,59.88023952,,,,,,,,,,,,,,,,,,,,,,,,,,,610,,,,,,,,,,,,,,,,,,,,,10,10,,,618.7444,7,up,0.0526,,1,0.3,"[3,1,2]",0.923639829,stimuli/card_100_transparent.png,100,7,0,7,0,1,,,,,,,,,,
,,,,5fff542aeed8c2065133114e,A,2024-05-20_14h09.14.218,Slot Machine Game,2023.1.3,Win32,59.88023952,,,,,,,,,,,,,,,,,,,,,,,,,,,620,,,,,,,,,,,,,,,,,,,,,10,10,,,620.6112,8,up,1.2638,,1.5,0.3,"[3,1,2]",0.126529815,stimuli/card_10_transparent.png,10,8,0,8,0,1,,,,,,,,,,
,,,,5fff542aeed8c2065133114e,A,2024-05-20_14h09.14.218,Slot Machine Game,2023.1.3,Win32,59.88023952,,,,,,,,,,,,,,,,,,,,,,,,,,,630,,,,,,,,,,,,,,,,,,,,,10,10,,,624.2108,9,right,0.5441,,0.5,0.3,"[3,1,2]",0.534986219,stimuli/card_10_transparent.png,10,9,0,9,0,1,,,,,,,,,,
,,,,5fff542aeed8c2065133114e,A,2024-05-20_14h09.14.218,Slot Machine Game,2023.1.3,Win32,59.88023952,,,,,,,,,,,,,,,,,,,,,,,,,,,730,,,,,,,,,,,,,,,,,,,,,10,10,,,626.0773,10,left,0.2851,,0.5,0.3,"[1,3,2]",0.730460645,stimuli/card_100_transparent.png,100,10,0,10,0,1,,,,,,,,,,
,,,,5fff542aeed8c2065133114e,A,2024-05-20_14h09.14.218,Slot Machine Game,2023.1.3,Win32,59.88023952,,,,,,,,,,,,,,,,,,,,,,,,,,,830,,,,,,,,,,,,,,,,,,,,,10,10,,,627.6771,11,left,0.1004,,1,0.3,"[1,3,2]",0.643770639,stimuli/card_100_transparent.png,100,11,0,11,0,1,,,,,,,,,,
,,,,5fff542aeed8c2065133114e,A,2024-05-20_14h09.14.218,Slot Machine Game,2023.1.3,Win32,59.88023952,,,,,,,,,,,,,,,,,,,,,,,,,,,930,,,,,,,,,,,,,,,,,,,,,10,10,,,629.6107,12,left,0.0614,,1,0.3,"[1,3,2]",0.349654263,stimuli/card_100_transparent.png,100,12,0,12,0,1,,,,,,,,,,
,,,,5fff542aeed8c2065133114e,A,2024-05-20_14h09.14.218,Slot Machine Game,2023.1.3,Win32,59.88023952,,,,,,,,,,,,,,,,,,,,,,,,,,,1030,,,,,,,,,,,,,,,,,,,,,10,10,,,631.5106,13,left,3.0088,,1.5,0.3,"[1,3,2]",0.600753083,stimuli/card_100_transparent.png,100,13,0,13,0,1,,,,,,,,,,
,,,,5fff542aeed8c2065133114e,A,2024-05-20_14h09.14.218,Slot Machine Game,2023.1.3,Win32,59.88023952,,,,,,,,,,,,,,,,,,,,,,,,,,,1040,,,,,,,,,,,,,,,,,,,,,10,10,,,636.8435,14,left,0.1356,,1.5,0.3,"[1,3,2]",0.151446616,stimuli/card_10_transparent.png,10,14,0,14,0,1,,,,,,,,,,
,,,,5fff542aeed8c2065133114e,A,2024-05-20_14h09.14.218,Slot Machine Game,2023.1.3,Win32,59.88023952,,,,,,,,,,,,,,,,,,,,,,,,,,,,,,,,,,,639.3107,,,,,,,,,,,,,,,,,,,,,,,,,,,,,,,,,"[1210,750,460,620,830,820,840,650,1040,1040]",9,0,9,0,1,,,,
,,,,5fff542aeed8c2065133114e,A,2024-05-20_14h09.14.218,Slot Machine Game,2023.1.3,Win32,59.88023952,,,,,,,,,,,,,,,,,,,,,,,,,,,,,,,,,,,,,,,,,,,,,,,,,,,,,,,,,,,,,,,,,,,,,,,,,,9,"[1210,750,460,620,830,820,840,650,1040,1040]",7.5,2024-05-20_14h20.02.606
