key_resp_welcome_started,key_resp_welcome_keys,key_resp_welcome_rt,key_resp_welcome_duration,prolific_id,path_id,date,expName,psychopyVersion,OS,frameRate,key_resp_instruction1_started,key_resp_instruction1_keys,key_resp_instruction1_rt,key_resp_instruction1_duration,key_resp_instruction2_started,key_resp_instruction2_keys,key_resp_instruction2_rt,key_resp_instruction2_duration,key_resp_instruction3_started,key_resp_instruction3_keys,key_resp_instruction3_rt,key_resp_instruction3_duration,key_resp_instruction4_started,key_resp_instruction4_keys,key_resp_instruction4_rt,key_resp_instruction4_duration,practiceCondition,practice_reward_seqs,practice_trial_started,practice_trial_num,practice_resp_rt,practice_resp_duration,practice_resp_keys,prac_presentationInterval,"practice_reward_seq: 2,1,3",reward_img,cumulative_reward,trial_reward,practice_trials.thisRepN,practice_trials.thisTrialN,practice_trials.thisN,practice_trials.thisIndex,practice_trials.ran,"practice_reward_seq: 2,3,1",block_break_started,"practice_reward_seq: 1,3,2","practice_reward_seq: 3,1,2",practice_end_time,practice_end_keys,practice_end_rt,practice_end_duration,main_instruction_text_started,block_condition,block_order_indices,main_instruction_keys,main_instruction_rt,main_instruction_duration,block_number,block_assignment,current_condition,main_reward_seqs,main_trial_started,main_trial_num,main_trial_keys,main_trial_rt,main_trial_duration,main_presentationInterval,reward_presentation_time,main_reward_seq,reward_rand_val,main_reward_img,current_reward,main_trials.thisRepN,main_trials.thisTrialN,main_trials.thisN,main_trials.thisIndex,main_trials.ran,block_reward,block.thisRepN,block.thisTrialN,block.thisN,block.thisIndex,block.ran,block_reward.length,block_reward_all,reward_amount,date_end_task
0.0004,space,2.4514,,61078e2c584e66eab1969aca,A,2024-06-03_18h40.09.818,Slot Machine Game,2023.1.3,MacIntel,60.60606061,,,,,,,,,,,,,,,,,,,,,,,,,,,,,,,,,,,,,,,,,,,,,,,,,,,,,,,,,,,,,,,,,,,,,,,,,,,,,
,,,,61078e2c584e66eab1969aca,A,2024-06-03_18h40.09.818,Slot Machine Game,2023.1.3,MacIntel,60.60606061,2.4781,space,10.4184,,,,,,,,,,,,,,,,,,,,,,,,,,,,,,,,,,,,,,,,,,,,,,,,,,,,,,,,,,,,,,,,,,,,,,,,,,
,,,,61078e2c584e66eab1969aca,A,2024-06-03_18h40.09.818,Slot Machine Game,2023.1.3,MacIntel,60.60606061,,,,,12.9334,space,19.0422,,,,,,,,,,,,,,,,,,,,,,,,,,,,,,,,,,,,,,,,,,,,,,,,,,,,,,,,,,,,,,,,,,,,,,
,,,,61078e2c584e66eab1969aca,A,2024-06-03_18h40.09.818,Slot Machine Game,2023.1.3,MacIntel,60.60606061,,,,,,,,,32.023,space,6.4858,,,,,,,,,,,,,,,,,,,,,,,,,,,,,,,,,,,,,,,,,,,,,,,,,,,,,,,,,,,,,,,,,,
,,,,61078e2c584e66eab1969aca,A,2024-06-03_18h40.09.818,Slot Machine Game,2023.1.3,MacIntel,60.60606061,,,,,,,,,,,,,,,,,,,,,,,,,,,,,,,,,,,,,,,,,,,,,,,,,,,,,,,,,,,,,,,,,,,,,,,,,,,,,
,,,,61078e2c584e66eab1969aca,A,2024-06-03_18h40.09.818,Slot Machine Game,2023.1.3,MacIntel,60.60606061,,,,,,,,,,,,,180.4287,space,2.3935,,,,,,,,,,,,,,,,,,,,,,,,,,,,,,,,,,,,,,,,,,,,,,,,,,,,,,,,,,,,,,
,,,,61078e2c584e66eab1969aca,A,2024-06-03_18h40.09.818,Slot Machine Game,2023.1.3,MacIntel,60.60606061,,,,,,,,,,,,,,,,,"[9,15]","[[2,1,3],[2,3,1]]",182.8592,0,0.6902,,up,1,,stimuli/card_100_transparent.png,100,100,0,0,0,0,1,,,,,,,,,,,,,,,,,,,,,,,,,,,,,,,,,,,,,,,,,,,,
,,,,61078e2c584e66eab1969aca,A,2024-06-03_18h40.09.818,Slot Machine Game,2023.1.3,MacIntel,60.60606061,,,,,,,,,,,,,,,,,,,185.3938,1,0.119,,up,0.5,,stimuli/card_100_transparent.png,200,100,1,0,1,0,1,,,,,,,,,,,,,,,,,,,,,,,,,,,,,,,,,,,,,,,,,,,,
,,,,61078e2c584e66eab1969aca,A,2024-06-03_18h40.09.818,Slot Machine Game,2023.1.3,MacIntel,60.60606061,,,,,,,,,,,,,,,,,,,186.8451,2,0.2861,,up,0.5,,stimuli/card_100_transparent.png,300,100,2,0,2,0,1,,,,,,,,,,,,,,,,,,,,,,,,,,,,,,,,,,,,,,,,,,,,
,,,,61078e2c584e66eab1969aca,A,2024-06-03_18h40.09.818,Slot Machine Game,2023.1.3,MacIntel,60.60606061,,,,,,,,,,,,,,,,,,,188.461,3,0.3105,,up,1,,stimuli/card_10_transparent.png,310,10,3,0,3,0,1,,,,,,,,,,,,,,,,,,,,,,,,,,,,,,,,,,,,,,,,,,,,
,,,,61078e2c584e66eab1969aca,A,2024-06-03_18h40.09.818,Slot Machine Game,2023.1.3,MacIntel,60.60606061,,,,,,,,,,,,,,,,,,,190.5879,4,0.1775,,up,0.5,,stimuli/card_100_transparent.png,410,100,4,0,4,0,1,,,,,,,,,,,,,,,,,,,,,,,,,,,,,,,,,,,,,,,,,,,,
,,,,61078e2c584e66eab1969aca,A,2024-06-03_18h40.09.818,Slot Machine Game,2023.1.3,MacIntel,60.60606061,,,,,,,,,,,,,,,,,,,192.0661,5,0.1739,,up,1.5,,stimuli/card_100_transparent.png,510,100,5,0,5,0,1,,,,,,,,,,,,,,,,,,,,,,,,,,,,,,,,,,,,,,,,,,,,
,,,,61078e2c584e66eab1969aca,A,2024-06-03_18h40.09.818,Slot Machine Game,2023.1.3,MacIntel,60.60606061,,,,,,,,,,,,,,,,,,,194.5328,6,0.361,,up,1.5,,stimuli/card_100_transparent.png,610,100,6,0,6,0,1,,,,,,,,,,,,,,,,,,,,,,,,,,,,,,,,,,,,,,,,,,,,
,,,,61078e2c584e66eab1969aca,A,2024-06-03_18h40.09.818,Slot Machine Game,2023.1.3,MacIntel,60.60606061,,,,,,,,,,,,,,,,,,,197.2024,7,0.3497,,up,0.5,,stimuli/card_10_transparent.png,620,10,7,0,7,0,1,,,,,,,,,,,,,,,,,,,,,,,,,,,,,,,,,,,,,,,,,,,,
,,,,61078e2c584e66eab1969aca,A,2024-06-03_18h40.09.818,Slot Machine Game,2023.1.3,MacIntel,60.60606061,,,,,,,,,,,,,,,,,,,198.8803,8,0.4202,,up,0.5,,stimuli/card_100_transparent.png,720,100,8,0,8,0,1,,,,,,,,,,,,,,,,,,,,,,,,,,,,,,,,,,,,,,,,,,,,
,,,,61078e2c584e66eab1969aca,A,2024-06-03_18h40.09.818,Slot Machine Game,2023.1.3,MacIntel,60.60606061,,,,,,,,,,,,,,,,,,,200.6337,9,0.4061,,up,1,,stimuli/card_0_transparent.png,720,0,9,0,9,0,1,,,,,,,,,,,,,,,,,,,,,,,,,,,,,,,,,,,,,,,,,,,,
,,,,61078e2c584e66eab1969aca,A,2024-06-03_18h40.09.818,Slot Machine Game,2023.1.3,MacIntel,60.60606061,,,,,,,,,,,,,,,,,,,202.8738,10,0.7846,,right,0.5,,stimuli/card_100_transparent.png,820,100,10,0,10,0,1,,,,,,,,,,,,,,,,,,,,,,,,,,,,,,,,,,,,,,,,,,,,
,,,,61078e2c584e66eab1969aca,A,2024-06-03_18h40.09.818,Slot Machine Game,2023.1.3,MacIntel,60.60606061,,,,,,,,,,,,,,,,,,,204.9846,11,0.0329,,right,0.5,,stimuli/card_100_transparent.png,920,100,11,0,11,0,1,,,,,,,,,,,,,,,,,,,,,,,,,,,,,,,,,,,,,,,,,,,,
,,,,61078e2c584e66eab1969aca,A,2024-06-03_18h40.09.818,Slot Machine Game,2023.1.3,MacIntel,60.60606061,,,,,,,,,,,,,,,,,,,206.3323,12,0.3493,,right,1.5,,stimuli/card_100_transparent.png,1020,100,12,0,12,0,1,,,,,,,,,,,,,,,,,,,,,,,,,,,,,,,,,,,,,,,,,,,,
,,,,61078e2c584e66eab1969aca,A,2024-06-03_18h40.09.818,Slot Machine Game,2023.1.3,MacIntel,60.60606061,,,,,,,,,,,,,,,,,,,209.0043,13,0.2332,,right,1,,stimuli/card_0_transparent.png,1020,0,13,0,13,0,1,,,,,,,,,,,,,,,,,,,,,,,,,,,,,,,,,,,,,,,,,,,,
,,,,61078e2c584e66eab1969aca,A,2024-06-03_18h40.09.818,Slot Machine Game,2023.1.3,MacIntel,60.60606061,,,,,,,,,,,,,,,,,,,211.045,14,0.9156,,left,0.5,,stimuli/card_0_transparent.png,1020,0,14,0,14,0,1,,,,,,,,,,,,,,,,,,,,,,,,,,,,,,,,,,,,,,,,,,,,
,,,,61078e2c584e66eab1969aca,A,2024-06-03_18h40.09.818,Slot Machine Game,2023.1.3,MacIntel,60.60606061,,,,,,,,,,,,,,,,,"[6,15]","[[1,3,2],[3,1,2]]",218.2849,0,0.4194,,left,1.5,,stimuli/card_100_transparent.png,100,100,0,0,0,0,1,,213.2821,,,,,,,,,,,,,,,,,,,,,,,,,,,,,,,,,,,,,,,,,,
,,,,61078e2c584e66eab1969aca,A,2024-06-03_18h40.09.818,Slot Machine Game,2023.1.3,MacIntel,60.60606061,,,,,,,,,,,,,,,,,,,221.0112,1,0.1201,,left,0.5,,stimuli/card_100_transparent.png,200,100,1,0,1,0,1,,,,,,,,,,,,,,,,,,,,,,,,,,,,,,,,,,,,,,,,,,,,
,,,,61078e2c584e66eab1969aca,A,2024-06-03_18h40.09.818,Slot Machine Game,2023.1.3,MacIntel,60.60606061,,,,,,,,,,,,,,,,,,,222.4659,2,0.2105,,left,1.5,,stimuli/card_100_transparent.png,300,100,2,0,2,0,1,,,,,,,,,,,,,,,,,,,,,,,,,,,,,,,,,,,,,,,,,,,,
,,,,61078e2c584e66eab1969aca,A,2024-06-03_18h40.09.818,Slot Machine Game,2023.1.3,MacIntel,60.60606061,,,,,,,,,,,,,,,,,,,225.0103,3,0.039,,left,1,,stimuli/card_100_transparent.png,400,100,3,0,3,0,1,,,,,,,,,,,,,,,,,,,,,,,,,,,,,,,,,,,,,,,,,,,,
,,,,61078e2c584e66eab1969aca,A,2024-06-03_18h40.09.818,Slot Machine Game,2023.1.3,MacIntel,60.60606061,,,,,,,,,,,,,,,,,,,226.8683,4,0.1602,,left,0.5,,stimuli/card_100_transparent.png,500,100,4,0,4,0,1,,,,,,,,,,,,,,,,,,,,,,,,,,,,,,,,,,,,,,,,,,,,
,,,,61078e2c584e66eab1969aca,A,2024-06-03_18h40.09.818,Slot Machine Game,2023.1.3,MacIntel,60.60606061,,,,,,,,,,,,,,,,,,,228.3654,5,0.1766,,left,1.5,,stimuli/card_100_transparent.png,600,100,5,0,5,0,1,,,,,,,,,,,,,,,,,,,,,,,,,,,,,,,,,,,,,,,,,,,,
,,,,61078e2c584e66eab1969aca,A,2024-06-03_18h40.09.818,Slot Machine Game,2023.1.3,MacIntel,60.60606061,,,,,,,,,,,,,,,,,,,230.8506,6,0.82,,left,1,,stimuli/card_0_transparent.png,600,0,6,0,6,0,1,,,,,,,,,,,,,,,,,,,,,,,,,,,,,,,,,,,,,,,,,,,,
,,,,61078e2c584e66eab1969aca,A,2024-06-03_18h40.09.818,Slot Machine Game,2023.1.3,MacIntel,60.60606061,,,,,,,,,,,,,,,,,,,233.5028,7,0.3656,,right,1,,stimuli/card_10_transparent.png,610,10,7,0,7,0,1,,,,,,,,,,,,,,,,,,,,,,,,,,,,,,,,,,,,,,,,,,,,
,,,,61078e2c584e66eab1969aca,A,2024-06-03_18h40.09.818,Slot Machine Game,2023.1.3,MacIntel,60.60606061,,,,,,,,,,,,,,,,,,,235.6971,8,0.7136,,up,1,,stimuli/card_100_transparent.png,710,100,8,0,8,0,1,,,,,,,,,,,,,,,,,,,,,,,,,,,,,,,,,,,,,,,,,,,,
,,,,61078e2c584e66eab1969aca,A,2024-06-03_18h40.09.818,Slot Machine Game,2023.1.3,MacIntel,60.60606061,,,,,,,,,,,,,,,,,,,238.238,9,0.3859,,up,0.5,,stimuli/card_100_transparent.png,810,100,9,0,9,0,1,,,,,,,,,,,,,,,,,,,,,,,,,,,,,,,,,,,,,,,,,,,,
,,,,61078e2c584e66eab1969aca,A,2024-06-03_18h40.09.818,Slot Machine Game,2023.1.3,MacIntel,60.60606061,,,,,,,,,,,,,,,,,,,239.9543,10,0.189,,up,1.5,,stimuli/card_100_transparent.png,910,100,10,0,10,0,1,,,,,,,,,,,,,,,,,,,,,,,,,,,,,,,,,,,,,,,,,,,,
,,,,61078e2c584e66eab1969aca,A,2024-06-03_18h40.09.818,Slot Machine Game,2023.1.3,MacIntel,60.60606061,,,,,,,,,,,,,,,,,,,242.4592,11,0.0873,,up,1,,stimuli/card_100_transparent.png,1010,100,11,0,11,0,1,,,,,,,,,,,,,,,,,,,,,,,,,,,,,,,,,,,,,,,,,,,,
,,,,61078e2c584e66eab1969aca,A,2024-06-03_18h40.09.818,Slot Machine Game,2023.1.3,MacIntel,60.60606061,,,,,,,,,,,,,,,,,,,244.366,12,0.3051,,up,0.5,,stimuli/card_100_transparent.png,1110,100,12,0,12,0,1,,,,,,,,,,,,,,,,,,,,,,,,,,,,,,,,,,,,,,,,,,,,
,,,,61078e2c584e66eab1969aca,A,2024-06-03_18h40.09.818,Slot Machine Game,2023.1.3,MacIntel,60.60606061,,,,,,,,,,,,,,,,,,,245.9892,13,0.3103,,up,1,,stimuli/card_100_transparent.png,1210,100,13,0,13,0,1,,,,,,,,,,,,,,,,,,,,,,,,,,,,,,,,,,,,,,,,,,,,
,,,,61078e2c584e66eab1969aca,A,2024-06-03_18h40.09.818,Slot Machine Game,2023.1.3,MacIntel,60.60606061,,,,,,,,,,,,,,,,,,,248.0921,14,0.3178,,up,1.5,,stimuli/card_0_transparent.png,1210,0,14,0,14,0,1,,,,,,,,,,,,,,,,,,,,,,,,,,,,,,,,,,,,,,,,,,,,
,,,,61078e2c584e66eab1969aca,A,2024-06-03_18h40.09.818,Slot Machine Game,2023.1.3,MacIntel,60.60606061,,,,,,,,,,,,,,,,,,,,,,,,,,,,,,,,,,,250.7342,,,255.7319,space,1.3738,,,,,,,,,,,,,,,,,,,,,,,,,,,,,,,,,,,,,
,,,,61078e2c584e66eab1969aca,A,2024-06-03_18h40.09.818,Slot Machine Game,2023.1.3,MacIntel,60.60606061,,,,,,,,,,,,,,,,,,,,,,,,,,,,,,,,,,,,,,,,,,257.1358,3,"[0,4,6,3,5,7,8,1,9,2]",space,1.2831,,,,,,,,,,,,,,,,,,,,,,,,,,,,,,,
,,,,61078e2c584e66eab1969aca,A,2024-06-03_18h40.09.818,Slot Machine Game,2023.1.3,MacIntel,60.60606061,,,,,,,,,,,,,,,,,,,,,,,,,,,10,,,,,,,,,,,,,,,,,,,,,1,1,"[12,15]","[[2,1,3],[2,3,1]]",258.4647,0,up,0.3015,,0.5,0.3,"[2,1,3]",0.148812178,stimuli/card_10_transparent.png,10,0,0,0,0,1,,,,,,,,,,
,,,,61078e2c584e66eab1969aca,A,2024-06-03_18h40.09.818,Slot Machine Game,2023.1.3,MacIntel,60.60606061,,,,,,,,,,,,,,,,,,,,,,,,,,,110,,,,,,,,,,,,,,,,,,,,,1,1,,,260.0785,1,right,0.0006,,1.5,0.3,"[2,1,3]",0.097992058,stimuli/card_100_transparent.png,100,1,0,1,0,1,,,,,,,,,,
,,,,61078e2c584e66eab1969aca,A,2024-06-03_18h40.09.818,Slot Machine Game,2023.1.3,MacIntel,60.60606061,,,,,,,,,,,,,,,,,,,,,,,,,,,110,,,,,,,,,,,,,,,,,,,,,1,1,,,262.381,2,right,0.1679,,0.5,0.3,"[2,1,3]",0.973756991,stimuli/card_0_transparent.png,0,2,0,2,0,1,,,,,,,,,,
,,,,61078e2c584e66eab1969aca,A,2024-06-03_18h40.09.818,Slot Machine Game,2023.1.3,MacIntel,60.60606061,,,,,,,,,,,,,,,,,,,,,,,,,,,110,,,,,,,,,,,,,,,,,,,,,1,1,,,263.8672,3,left,0.4909,,0.5,0.3,"[2,1,3]",0.029816131,stimuli/card_0_transparent.png,0,3,0,3,0,1,,,,,,,,,,
,,,,61078e2c584e66eab1969aca,A,2024-06-03_18h40.09.818,Slot Machine Game,2023.1.3,MacIntel,60.60606061,,,,,,,,,,,,,,,,,,,,,,,,,,,120,,,,,,,,,,,,,,,,,,,,,1,1,,,265.6882,4,up,0.4034,,1,0.3,"[2,1,3]",0.150829359,stimuli/card_10_transparent.png,10,4,0,4,0,1,,,,,,,,,,
,,,,61078e2c584e66eab1969aca,A,2024-06-03_18h40.09.818,Slot Machine Game,2023.1.3,MacIntel,60.60606061,,,,,,,,,,,,,,,,,,,,,,,,,,,120,,,,,,,,,,,,,,,,,,,,,1,1,,,267.9054,5,right,0.4312,,1,0.3,"[2,1,3]",0.587029191,stimuli/card_0_transparent.png,0,5,0,5,0,1,,,,,,,,,,
,,,,61078e2c584e66eab1969aca,A,2024-06-03_18h40.09.818,Slot Machine Game,2023.1.3,MacIntel,60.60606061,,,,,,,,,,,,,,,,,,,,,,,,,,,130,,,,,,,,,,,,,,,,,,,,,1,1,,,270.1531,6,left,0.0814,,1,0.3,"[2,1,3]",0.931048166,stimuli/card_10_transparent.png,10,6,0,6,0,1,,,,,,,,,,
,,,,61078e2c584e66eab1969aca,A,2024-06-03_18h40.09.818,Slot Machine Game,2023.1.3,MacIntel,60.60606061,,,,,,,,,,,,,,,,,,,,,,,,,,,230,,,,,,,,,,,,,,,,,,,,,1,1,,,272.0364,7,up,0.3328,,1.5,0.3,"[2,1,3]",0.423950112,stimuli/card_100_transparent.png,100,7,0,7,0,1,,,,,,,,,,
,,,,61078e2c584e66eab1969aca,A,2024-06-03_18h40.09.818,Slot Machine Game,2023.1.3,MacIntel,60.60606061,,,,,,,,,,,,,,,,,,,,,,,,,,,240,,,,,,,,,,,,,,,,,,,,,1,1,,,274.6905,8,up,0.2711,,1.5,0.3,"[2,1,3]",0.101377797,stimuli/card_10_transparent.png,10,8,0,8,0,1,,,,,,,,,,
,,,,61078e2c584e66eab1969aca,A,2024-06-03_18h40.09.818,Slot Machine Game,2023.1.3,MacIntel,60.60606061,,,,,,,,,,,,,,,,,,,,,,,,,,,240,,,,,,,,,,,,,,,,,,,,,1,1,,,277.2862,9,up,0.2328,,1,0.3,"[2,1,3]",0.075530578,stimuli/card_0_transparent.png,0,9,0,9,0,1,,,,,,,,,,
,,,,61078e2c584e66eab1969aca,A,2024-06-03_18h40.09.818,Slot Machine Game,2023.1.3,MacIntel,60.60606061,,,,,,,,,,,,,,,,,,,,,,,,,,,340,,,,,,,,,,,,,,,,,,,,,1,1,,,279.3426,10,up,0.3347,,0.5,0.3,"[2,1,3]",0.864642482,stimuli/card_100_transparent.png,100,10,0,10,0,1,,,,,,,,,,
,,,,61078e2c584e66eab1969aca,A,2024-06-03_18h40.09.818,Slot Machine Game,2023.1.3,MacIntel,60.60606061,,,,,,,,,,,,,,,,,,,,,,,,,,,440,,,,,,,,,,,,,,,,,,,,,1,1,,,280.9938,11,up,0.1627,,1,0.3,"[2,1,3]",0.571093894,stimuli/card_100_transparent.png,100,11,0,11,0,1,,,,,,,,,,
,,,,61078e2c584e66eab1969aca,A,2024-06-03_18h40.09.818,Slot Machine Game,2023.1.3,MacIntel,60.60606061,,,,,,,,,,,,,,,,,,,,,,,,,,,450,,,,,,,,,,,,,,,,,,,,,1,1,,,282.9764,12,up,0.0817,,1.5,0.3,"[2,3,1]",0.166146567,stimuli/card_10_transparent.png,10,12,0,12,0,1,,,,,,,,,,
,,,,61078e2c584e66eab1969aca,A,2024-06-03_18h40.09.818,Slot Machine Game,2023.1.3,MacIntel,60.60606061,,,,,,,,,,,,,,,,,,,,,,,,,,,450,,,,,,,,,,,,,,,,,,,,,1,1,,,285.3667,13,up,0.2862,,1,0.3,"[2,3,1]",0.395166541,stimuli/card_0_transparent.png,0,13,0,13,0,1,,,,,,,,,,
,,,,61078e2c584e66eab1969aca,A,2024-06-03_18h40.09.818,Slot Machine Game,2023.1.3,MacIntel,60.60606061,,,,,,,,,,,,,,,,,,,,,,,,,,,450,,,,,,,,,,,,,,,,,,,,,1,1,,,287.4682,14,up,0.3397,,0.5,0.3,"[2,3,1]",0.530373666,stimuli/card_0_transparent.png,0,14,0,14,0,1,,,,,,,,,,
,,,,61078e2c584e66eab1969aca,A,2024-06-03_18h40.09.818,Slot Machine Game,2023.1.3,MacIntel,60.60606061,,,,,,,,,,,,,,,,,,,,,,,,,,,,,,,,,,,289.1426,,,,,,,,,,,,,,,,,,,,,,,,,,,,,,,,,[450],0,0,0,0,1,,,,
,,,,61078e2c584e66eab1969aca,A,2024-06-03_18h40.09.818,Slot Machine Game,2023.1.3,MacIntel,60.60606061,,,,,,,,,,,,,,,,,,,,,,,,,,,100,,,,,,,,,,,,,,,,,,,,,2,5,"[5,15]","[[1,2,3],[3,1,2]]",294.1705,0,left,0.1919,,1,0.3,"[1,2,3]",0.886841065,stimuli/card_100_transparent.png,100,0,0,0,0,1,,,,,,,,,,
,,,,61078e2c584e66eab1969aca,A,2024-06-03_18h40.09.818,Slot Machine Game,2023.1.3,MacIntel,60.60606061,,,,,,,,,,,,,,,,,,,,,,,,,,,200,,,,,,,,,,,,,,,,,,,,,2,5,,,296.1841,1,left,0.3269,,1,0.3,"[1,2,3]",0.577235585,stimuli/card_100_transparent.png,100,1,0,1,0,1,,,,,,,,,,
,,,,61078e2c584e66eab1969aca,A,2024-06-03_18h40.09.818,Slot Machine Game,2023.1.3,MacIntel,60.60606061,,,,,,,,,,,,,,,,,,,,,,,,,,,200,,,,,,,,,,,,,,,,,,,,,2,5,,,298.3555,2,left,0.2344,,0.5,0.3,"[1,2,3]",0.076045696,stimuli/card_0_transparent.png,0,2,0,2,0,1,,,,,,,,,,
,,,,61078e2c584e66eab1969aca,A,2024-06-03_18h40.09.818,Slot Machine Game,2023.1.3,MacIntel,60.60606061,,,,,,,,,,,,,,,,,,,,,,,,,,,200,,,,,,,,,,,,,,,,,,,,,2,5,,,299.9092,3,right,0.7953,,0.5,0.3,"[1,2,3]",0.988501885,stimuli/card_0_transparent.png,0,3,0,3,0,1,,,,,,,,,,
,,,,61078e2c584e66eab1969aca,A,2024-06-03_18h40.09.818,Slot Machine Game,2023.1.3,MacIntel,60.60606061,,,,,,,,,,,,,,,,,,,,,,,,,,,210,,,,,,,,,,,,,,,,,,,,,2,5,,,302.0412,4,up,0.0953,,1.5,0.3,"[1,2,3]",0.492055567,stimuli/card_10_transparent.png,10,4,0,4,0,1,,,,,,,,,,
,,,,61078e2c584e66eab1969aca,A,2024-06-03_18h40.09.818,Slot Machine Game,2023.1.3,MacIntel,60.60606061,,,,,,,,,,,,,,,,,,,,,,,,,,,310,,,,,,,,,,,,,,,,,,,,,2,5,,,304.4698,5,up,0.1804,,1.5,0.3,"[3,1,2]",0.506114961,stimuli/card_100_transparent.png,100,5,0,5,0,1,,,,,,,,,,
,,,,61078e2c584e66eab1969aca,A,2024-06-03_18h40.09.818,Slot Machine Game,2023.1.3,MacIntel,60.60606061,,,,,,,,,,,,,,,,,,,,,,,,,,,410,,,,,,,,,,,,,,,,,,,,,2,5,,,306.977,6,up,0.2764,,0.5,0.3,"[3,1,2]",0.431816077,stimuli/card_100_transparent.png,100,6,0,6,0,1,,,,,,,,,,
,,,,61078e2c584e66eab1969aca,A,2024-06-03_18h40.09.818,Slot Machine Game,2023.1.3,MacIntel,60.60606061,,,,,,,,,,,,,,,,,,,,,,,,,,,510,,,,,,,,,,,,,,,,,,,,,2,5,,,308.5807,7,up,1.0137,,0.5,0.3,"[3,1,2]",0.37213972,stimuli/card_100_transparent.png,100,7,0,7,0,1,,,,,,,,,,
,,,,61078e2c584e66eab1969aca,A,2024-06-03_18h40.09.818,Slot Machine Game,2023.1.3,MacIntel,60.60606061,,,,,,,,,,,,,,,,,,,,,,,,,,,610,,,,,,,,,,,,,,,,,,,,,2,5,,,310.9062,8,up,0.2866,,1,0.3,"[3,1,2]",0.502693256,stimuli/card_100_transparent.png,100,8,0,8,0,1,,,,,,,,,,
,,,,61078e2c584e66eab1969aca,A,2024-06-03_18h40.09.818,Slot Machine Game,2023.1.3,MacIntel,60.60606061,,,,,,,,,,,,,,,,,,,,,,,,,,,710,,,,,,,,,,,,,,,,,,,,,2,5,,,313.0316,9,up,0.263,,0.5,0.3,"[3,1,2]",0.553451306,stimuli/card_100_transparent.png,100,9,0,9,0,1,,,,,,,,,,
,,,,61078e2c584e66eab1969aca,A,2024-06-03_18h40.09.818,Slot Machine Game,2023.1.3,MacIntel,60.60606061,,,,,,,,,,,,,,,,,,,,,,,,,,,810,,,,,,,,,,,,,,,,,,,,,2,5,,,314.6247,10,up,0.1023,,1.5,0.3,"[3,1,2]",0.482686532,stimuli/card_100_transparent.png,100,10,0,10,0,1,,,,,,,,,,
,,,,61078e2c584e66eab1969aca,A,2024-06-03_18h40.09.818,Slot Machine Game,2023.1.3,MacIntel,60.60606061,,,,,,,,,,,,,,,,,,,,,,,,,,,910,,,,,,,,,,,,,,,,,,,,,2,5,,,317.0287,11,up,0.0206,,1.5,0.3,"[3,1,2]",0.934158489,stimuli/card_100_transparent.png,100,11,0,11,0,1,,,,,,,,,,
,,,,61078e2c584e66eab1969aca,A,2024-06-03_18h40.09.818,Slot Machine Game,2023.1.3,MacIntel,60.60606061,,,,,,,,,,,,,,,,,,,,,,,,,,,920,,,,,,,,,,,,,,,,,,,,,2,5,,,319.3734,12,up,0.6637,,1,0.3,"[3,1,2]",0.12281555,stimuli/card_10_transparent.png,10,12,0,12,0,1,,,,,,,,,,
,,,,61078e2c584e66eab1969aca,A,2024-06-03_18h40.09.818,Slot Machine Game,2023.1.3,MacIntel,60.60606061,,,,,,,,,,,,,,,,,,,,,,,,,,,1020,,,,,,,,,,,,,,,,,,,,,2,5,,,321.8434,13,up,0.0483,,1.5,0.3,"[3,1,2]",0.915528312,stimuli/card_100_transparent.png,100,13,0,13,0,1,,,,,,,,,,
,,,,61078e2c584e66eab1969aca,A,2024-06-03_18h40.09.818,Slot Machine Game,2023.1.3,MacIntel,60.60606061,,,,,,,,,,,,,,,,,,,,,,,,,,,1120,,,,,,,,,,,,,,,,,,,,,2,5,,,324.2086,14,up,0.1974,,0.5,0.3,"[3,1,2]",0.712353023,stimuli/card_100_transparent.png,100,14,0,14,0,1,,,,,,,,,,
,,,,61078e2c584e66eab1969aca,A,2024-06-03_18h40.09.818,Slot Machine Game,2023.1.3,MacIntel,60.60606061,,,,,,,,,,,,,,,,,,,,,,,,,,,,,,,,,,,325.7318,,,,,,,,,,,,,,,,,,,,,,,,,,,,,,,,,"[450,1120]",1,0,1,0,1,,,,
,,,,61078e2c584e66eab1969aca,A,2024-06-03_18h40.09.818,Slot Machine Game,2023.1.3,MacIntel,60.60606061,,,,,,,,,,,,,,,,,,,,,,,,,,,10,,,,,,,,,,,,,,,,,,,,,3,7,"[9,15]","[[1,3,2],[2,3,1]]",330.7477,0,right,0.8555,,1.5,0.3,"[1,3,2]",0.534775591,stimuli/card_10_transparent.png,10,0,0,0,0,1,,,,,,,,,,
,,,,61078e2c584e66eab1969aca,A,2024-06-03_18h40.09.818,Slot Machine Game,2023.1.3,MacIntel,60.60606061,,,,,,,,,,,,,,,,,,,,,,,,,,,20,,,,,,,,,,,,,,,,,,,,,3,7,,,333.9111,1,right,0.5903,,0.5,0.3,"[1,3,2]",0.574409971,stimuli/card_10_transparent.png,10,1,0,1,0,1,,,,,,,,,,
,,,,61078e2c584e66eab1969aca,A,2024-06-03_18h40.09.818,Slot Machine Game,2023.1.3,MacIntel,60.60606061,,,,,,,,,,,,,,,,,,,,,,,,,,,30,,,,,,,,,,,,,,,,,,,,,3,7,,,335.8049,2,right,0.5827,,1.5,0.3,"[1,3,2]",0.761407676,stimuli/card_10_transparent.png,10,2,0,2,0,1,,,,,,,,,,
,,,,61078e2c584e66eab1969aca,A,2024-06-03_18h40.09.818,Slot Machine Game,2023.1.3,MacIntel,60.60606061,,,,,,,,,,,,,,,,,,,,,,,,,,,30,,,,,,,,,,,,,,,,,,,,,3,7,,,338.7146,3,up,0.2157,,1,0.3,"[1,3,2]",0.652732626,stimuli/card_0_transparent.png,0,3,0,3,0,1,,,,,,,,,,
,,,,61078e2c584e66eab1969aca,A,2024-06-03_18h40.09.818,Slot Machine Game,2023.1.3,MacIntel,60.60606061,,,,,,,,,,,,,,,,,,,,,,,,,,,130,,,,,,,,,,,,,,,,,,,,,3,7,,,340.7614,4,left,0.9605,,0.5,0.3,"[1,3,2]",0.691558739,stimuli/card_100_transparent.png,100,4,0,4,0,1,,,,,,,,,,
,,,,61078e2c584e66eab1969aca,A,2024-06-03_18h40.09.818,Slot Machine Game,2023.1.3,MacIntel,60.60606061,,,,,,,,,,,,,,,,,,,,,,,,,,,230,,,,,,,,,,,,,,,,,,,,,3,7,,,343.0528,5,left,0.7058,,1.5,0.3,"[1,3,2]",0.790944299,stimuli/card_100_transparent.png,100,5,0,5,0,1,,,,,,,,,,
,,,,61078e2c584e66eab1969aca,A,2024-06-03_18h40.09.818,Slot Machine Game,2023.1.3,MacIntel,60.60606061,,,,,,,,,,,,,,,,,,,,,,,,,,,330,,,,,,,,,,,,,,,,,,,,,3,7,,,346.068,6,left,0.2956,,1,0.3,"[1,3,2]",0.579436272,stimuli/card_100_transparent.png,100,6,0,6,0,1,,,,,,,,,,
,,,,61078e2c584e66eab1969aca,A,2024-06-03_18h40.09.818,Slot Machine Game,2023.1.3,MacIntel,60.60606061,,,,,,,,,,,,,,,,,,,,,,,,,,,430,,,,,,,,,,,,,,,,,,,,,3,7,,,348.1723,7,left,0.0204,,0.5,0.3,"[1,3,2]",0.880960641,stimuli/card_100_transparent.png,100,7,0,7,0,1,,,,,,,,,,
,,,,61078e2c584e66eab1969aca,A,2024-06-03_18h40.09.818,Slot Machine Game,2023.1.3,MacIntel,60.60606061,,,,,,,,,,,,,,,,,,,,,,,,,,,530,,,,,,,,,,,,,,,,,,,,,3,7,,,349.523,8,left,0.6276,,0.5,0.3,"[1,3,2]",0.864449503,stimuli/card_100_transparent.png,100,8,0,8,0,1,,,,,,,,,,
,,,,61078e2c584e66eab1969aca,A,2024-06-03_18h40.09.818,Slot Machine Game,2023.1.3,MacIntel,60.60606061,,,,,,,,,,,,,,,,,,,,,,,,,,,540,,,,,,,,,,,,,,,,,,,,,3,7,,,351.4753,9,left,0.1294,,0.5,0.3,"[2,3,1]",0.29398867,stimuli/card_10_transparent.png,10,9,0,9,0,1,,,,,,,,,,
,,,,61078e2c584e66eab1969aca,A,2024-06-03_18h40.09.818,Slot Machine Game,2023.1.3,MacIntel,60.60606061,,,,,,,,,,,,,,,,,,,,,,,,,,,550,,,,,,,,,,,,,,,,,,,,,3,7,,,352.9271,10,left,0.4103,,1.5,0.3,"[2,3,1]",0.30949376,stimuli/card_10_transparent.png,10,10,0,10,0,1,,,,,,,,,,
,,,,61078e2c584e66eab1969aca,A,2024-06-03_18h40.09.818,Slot Machine Game,2023.1.3,MacIntel,60.60606061,,,,,,,,,,,,,,,,,,,,,,,,,,,560,,,,,,,,,,,,,,,,,,,,,3,7,,,355.6777,11,left,0.1966,,0.5,0.3,"[2,3,1]",0.347077498,stimuli/card_10_transparent.png,10,11,0,11,0,1,,,,,,,,,,
,,,,61078e2c584e66eab1969aca,A,2024-06-03_18h40.09.818,Slot Machine Game,2023.1.3,MacIntel,60.60606061,,,,,,,,,,,,,,,,,,,,,,,,,,,660,,,,,,,,,,,,,,,,,,,,,3,7,,,357.1935,12,right,1.7634,,1,0.3,"[2,3,1]",0.551835341,stimuli/card_100_transparent.png,100,12,0,12,0,1,,,,,,,,,,
,,,,61078e2c584e66eab1969aca,A,2024-06-03_18h40.09.818,Slot Machine Game,2023.1.3,MacIntel,60.60606061,,,,,,,,,,,,,,,,,,,,,,,,,,,670,,,,,,,,,,,,,,,,,,,,,3,7,,,360.7922,13,right,0.4986,,1.5,0.3,"[2,3,1]",0.114286201,stimuli/card_10_transparent.png,10,13,0,13,0,1,,,,,,,,,,
,,,,61078e2c584e66eab1969aca,A,2024-06-03_18h40.09.818,Slot Machine Game,2023.1.3,MacIntel,60.60606061,,,,,,,,,,,,,,,,,,,,,,,,,,,770,,,,,,,,,,,,,,,,,,,,,3,7,,,363.6133,14,right,0.3726,,1.5,0.3,"[2,3,1]",0.938010374,stimuli/card_100_transparent.png,100,14,0,14,0,1,,,,,,,,,,
,,,,61078e2c584e66eab1969aca,A,2024-06-03_18h40.09.818,Slot Machine Game,2023.1.3,MacIntel,60.60606061,,,,,,,,,,,,,,,,,,,,,,,,,,,,,,,,,,,366.3118,,,,,,,,,,,,,,,,,,,,,,,,,,,,,,,,,"[450,1120,770]",2,0,2,0,1,,,,
,,,,61078e2c584e66eab1969aca,A,2024-06-03_18h40.09.818,Slot Machine Game,2023.1.3,MacIntel,60.60606061,,,,,,,,,,,,,,,,,,,,,,,,,,,0,,,,,,,,,,,,,,,,,,,,,4,4,"[7,15]","[[2,3,1],[1,2,3]]",371.3343,0,up,0.5372,,1.5,0.3,"[2,3,1]",0.316193494,stimuli/card_0_transparent.png,0,0,0,0,0,1,,,,,,,,,,
,,,,61078e2c584e66eab1969aca,A,2024-06-03_18h40.09.818,Slot Machine Game,2023.1.3,MacIntel,60.60606061,,,,,,,,,,,,,,,,,,,,,,,,,,,100,,,,,,,,,,,,,,,,,,,,,4,4,,,374.188,1,right,0.2753,,1,0.3,"[2,3,1]",0.91140856,stimuli/card_100_transparent.png,100,1,0,1,0,1,,,,,,,,,,
,,,,61078e2c584e66eab1969aca,A,2024-06-03_18h40.09.818,Slot Machine Game,2023.1.3,MacIntel,60.60606061,,,,,,,,,,,,,,,,,,,,,,,,,,,200,,,,,,,,,,,,,,,,,,,,,4,4,,,376.2692,2,right,0.0009,,0.5,0.3,"[2,3,1]",0.945936924,stimuli/card_100_transparent.png,100,2,0,2,0,1,,,,,,,,,,
,,,,61078e2c584e66eab1969aca,A,2024-06-03_18h40.09.818,Slot Machine Game,2023.1.3,MacIntel,60.60606061,,,,,,,,,,,,,,,,,,,,,,,,,,,300,,,,,,,,,,,,,,,,,,,,,4,4,,,377.6023,3,right,0.0452,,0.5,0.3,"[2,3,1]",0.660753548,stimuli/card_100_transparent.png,100,3,0,3,0,1,,,,,,,,,,
,,,,61078e2c584e66eab1969aca,A,2024-06-03_18h40.09.818,Slot Machine Game,2023.1.3,MacIntel,60.60606061,,,,,,,,,,,,,,,,,,,,,,,,,,,400,,,,,,,,,,,,,,,,,,,,,4,4,,,378.9665,4,right,0.3185,,1,0.3,"[2,3,1]",0.577336144,stimuli/card_100_transparent.png,100,4,0,4,0,1,,,,,,,,,,
,,,,61078e2c584e66eab1969aca,A,2024-06-03_18h40.09.818,Slot Machine Game,2023.1.3,MacIntel,60.60606061,,,,,,,,,,,,,,,,,,,,,,,,,,,410,,,,,,,,,,,,,,,,,,,,,4,4,,,381.1204,5,right,0.1556,,1,0.3,"[2,3,1]",0.108836076,stimuli/card_10_transparent.png,10,5,0,5,0,1,,,,,,,,,,
,,,,61078e2c584e66eab1969aca,A,2024-06-03_18h40.09.818,Slot Machine Game,2023.1.3,MacIntel,60.60606061,,,,,,,,,,,,,,,,,,,,,,,,,,,510,,,,,,,,,,,,,,,,,,,,,4,4,,,383.0939,6,right,0.0416,,1.5,0.3,"[2,3,1]",0.929741173,stimuli/card_100_transparent.png,100,6,0,6,0,1,,,,,,,,,,
,,,,61078e2c584e66eab1969aca,A,2024-06-03_18h40.09.818,Slot Machine Game,2023.1.3,MacIntel,60.60606061,,,,,,,,,,,,,,,,,,,,,,,,,,,510,,,,,,,,,,,,,,,,,,,,,4,4,,,385.4526,7,right,0.1976,,1.5,0.3,"[1,2,3]",0.893675309,stimuli/card_0_transparent.png,0,7,0,7,0,1,,,,,,,,,,
,,,,61078e2c584e66eab1969aca,A,2024-06-03_18h40.09.818,Slot Machine Game,2023.1.3,MacIntel,60.60606061,,,,,,,,,,,,,,,,,,,,,,,,,,,610,,,,,,,,,,,,,,,,,,,,,4,4,,,387.9713,8,left,1.9608,,1.5,0.3,"[1,2,3]",0.293721125,stimuli/card_100_transparent.png,100,8,0,8,0,1,,,,,,,,,,
,,,,61078e2c584e66eab1969aca,A,2024-06-03_18h40.09.818,Slot Machine Game,2023.1.3,MacIntel,60.60606061,,,,,,,,,,,,,,,,,,,,,,,,,,,710,,,,,,,,,,,,,,,,,,,,,4,4,,,392.2604,9,left,0.1163,,0.5,0.3,"[1,2,3]",0.279917603,stimuli/card_100_transparent.png,100,9,0,9,0,1,,,,,,,,,,
,,,,61078e2c584e66eab1969aca,A,2024-06-03_18h40.09.818,Slot Machine Game,2023.1.3,MacIntel,60.60606061,,,,,,,,,,,,,,,,,,,,,,,,,,,710,,,,,,,,,,,,,,,,,,,,,4,4,,,393.7037,10,left,0.4389,,1.5,0.3,"[1,2,3]",0.019561139,stimuli/card_0_transparent.png,0,10,0,10,0,1,,,,,,,,,,
,,,,61078e2c584e66eab1969aca,A,2024-06-03_18h40.09.818,Slot Machine Game,2023.1.3,MacIntel,60.60606061,,,,,,,,,,,,,,,,,,,,,,,,,,,720,,,,,,,,,,,,,,,,,,,,,4,4,,,396.4679,11,up,0.1921,,0.5,0.3,"[1,2,3]",0.686505379,stimuli/card_10_transparent.png,10,11,0,11,0,1,,,,,,,,,,
,,,,61078e2c584e66eab1969aca,A,2024-06-03_18h40.09.818,Slot Machine Game,2023.1.3,MacIntel,60.60606061,,,,,,,,,,,,,,,,,,,,,,,,,,,730,,,,,,,,,,,,,,,,,,,,,4,4,,,397.9632,12,up,0.2871,,0.5,0.3,"[1,2,3]",0.844769042,stimuli/card_10_transparent.png,10,12,0,12,0,1,,,,,,,,,,
,,,,61078e2c584e66eab1969aca,A,2024-06-03_18h40.09.818,Slot Machine Game,2023.1.3,MacIntel,60.60606061,,,,,,,,,,,,,,,,,,,,,,,,,,,730,,,,,,,,,,,,,,,,,,,,,4,4,,,399.582,13,right,0.8922,,1,0.3,"[1,2,3]",0.829725912,stimuli/card_0_transparent.png,0,13,0,13,0,1,,,,,,,,,,
,,,,61078e2c584e66eab1969aca,A,2024-06-03_18h40.09.818,Slot Machine Game,2023.1.3,MacIntel,60.60606061,,,,,,,,,,,,,,,,,,,,,,,,,,,830,,,,,,,,,,,,,,,,,,,,,4,4,,,402.3165,14,left,0.3267,,1,0.3,"[1,2,3]",0.615260262,stimuli/card_100_transparent.png,100,14,0,14,0,1,,,,,,,,,,
,,,,61078e2c584e66eab1969aca,A,2024-06-03_18h40.09.818,Slot Machine Game,2023.1.3,MacIntel,60.60606061,,,,,,,,,,,,,,,,,,,,,,,,,,,,,,,,,,,404.4799,,,,,,,,,,,,,,,,,,,,,,,,,,,,,,,,,"[450,1120,770,830]",3,0,3,0,1,,,,
,,,,61078e2c584e66eab1969aca,A,2024-06-03_18h40.09.818,Slot Machine Game,2023.1.3,MacIntel,60.60606061,,,,,,,,,,,,,,,,,,,,,,,,,,,10,,,,,,,,,,,,,,,,,,,,,5,6,"[4,10,15]","[[2,3,1],[1,3,2],[3,2,1]]",409.5048,0,left,2.5024,,0.5,0.3,"[2,3,1]",0.239607873,stimuli/card_10_transparent.png,10,0,0,0,0,1,,,,,,,,,,
,,,,61078e2c584e66eab1969aca,A,2024-06-03_18h40.09.818,Slot Machine Game,2023.1.3,MacIntel,60.60606061,,,,,,,,,,,,,,,,,,,,,,,,,,,10,,,,,,,,,,,,,,,,,,,,,5,6,,,413.3453,1,up,0.6106,,1.5,0.3,"[2,3,1]",0.241709087,stimuli/card_0_transparent.png,0,1,0,1,0,1,,,,,,,,,,
,,,,61078e2c584e66eab1969aca,A,2024-06-03_18h40.09.818,Slot Machine Game,2023.1.3,MacIntel,60.60606061,,,,,,,,,,,,,,,,,,,,,,,,,,,110,,,,,,,,,,,,,,,,,,,,,5,6,,,416.2742,2,right,0.3268,,0.5,0.3,"[2,3,1]",0.797413694,stimuli/card_100_transparent.png,100,2,0,2,0,1,,,,,,,,,,
,,,,61078e2c584e66eab1969aca,A,2024-06-03_18h40.09.818,Slot Machine Game,2023.1.3,MacIntel,60.60606061,,,,,,,,,,,,,,,,,,,,,,,,,,,210,,,,,,,,,,,,,,,,,,,,,5,6,,,417.9259,3,right,0.2097,,0.5,0.3,"[2,3,1]",0.251430348,stimuli/card_100_transparent.png,100,3,0,3,0,1,,,,,,,,,,
,,,,61078e2c584e66eab1969aca,A,2024-06-03_18h40.09.818,Slot Machine Game,2023.1.3,MacIntel,60.60606061,,,,,,,,,,,,,,,,,,,,,,,,,,,210,,,,,,,,,,,,,,,,,,,,,5,6,,,419.4647,4,right,0.4418,,1,0.3,"[1,3,2]",0.02227559,stimuli/card_0_transparent.png,0,4,0,4,0,1,,,,,,,,,,
,,,,61078e2c584e66eab1969aca,A,2024-06-03_18h40.09.818,Slot Machine Game,2023.1.3,MacIntel,60.60606061,,,,,,,,,,,,,,,,,,,,,,,,,,,310,,,,,,,,,,,,,,,,,,,,,5,6,,,421.718,5,left,0.0492,,1,0.3,"[1,3,2]",0.902892785,stimuli/card_100_transparent.png,100,5,0,5,0,1,,,,,,,,,,
,,,,61078e2c584e66eab1969aca,A,2024-06-03_18h40.09.818,Slot Machine Game,2023.1.3,MacIntel,60.60606061,,,,,,,,,,,,,,,,,,,,,,,,,,,410,,,,,,,,,,,,,,,,,,,,,5,6,,,423.575,6,left,0.0294,,1.5,0.3,"[1,3,2]",0.996264325,stimuli/card_100_transparent.png,100,6,0,6,0,1,,,,,,,,,,
,,,,61078e2c584e66eab1969aca,A,2024-06-03_18h40.09.818,Slot Machine Game,2023.1.3,MacIntel,60.60606061,,,,,,,,,,,,,,,,,,,,,,,,,,,410,,,,,,,,,,,,,,,,,,,,,5,6,,,425.9245,7,left,0.2572,,1.5,0.3,"[1,3,2]",0.067125464,stimuli/card_0_transparent.png,0,7,0,7,0,1,,,,,,,,,,
,,,,61078e2c584e66eab1969aca,A,2024-06-03_18h40.09.818,Slot Machine Game,2023.1.3,MacIntel,60.60606061,,,,,,,,,,,,,,,,,,,,,,,,,,,410,,,,,,,,,,,,,,,,,,,,,5,6,,,428.4755,8,up,0.0424,,1,0.3,"[1,3,2]",0.201504623,stimuli/card_0_transparent.png,0,8,0,8,0,1,,,,,,,,,,
,,,,61078e2c584e66eab1969aca,A,2024-06-03_18h40.09.818,Slot Machine Game,2023.1.3,MacIntel,60.60606061,,,,,,,,,,,,,,,,,,,,,,,,,,,420,,,,,,,,,,,,,,,,,,,,,5,6,,,430.3158,9,right,0.4151,,0.5,0.3,"[1,3,2]",0.40418471,stimuli/card_10_transparent.png,10,9,0,9,0,1,,,,,,,,,,
,,,,61078e2c584e66eab1969aca,A,2024-06-03_18h40.09.818,Slot Machine Game,2023.1.3,MacIntel,60.60606061,,,,,,,,,,,,,,,,,,,,,,,,,,,430,,,,,,,,,,,,,,,,,,,,,5,6,,,432.0613,10,right,0.4915,,0.5,0.3,"[3,2,1]",0.181243692,stimuli/card_10_transparent.png,10,10,0,10,0,1,,,,,,,,,,
,,,,61078e2c584e66eab1969aca,A,2024-06-03_18h40.09.818,Slot Machine Game,2023.1.3,MacIntel,60.60606061,,,,,,,,,,,,,,,,,,,,,,,,,,,430,,,,,,,,,,,,,,,,,,,,,5,6,,,433.8892,11,left,0.4809,,1,0.3,"[3,2,1]",0.600879679,stimuli/card_0_transparent.png,0,11,0,11,0,1,,,,,,,,,,
,,,,61078e2c584e66eab1969aca,A,2024-06-03_18h40.09.818,Slot Machine Game,2023.1.3,MacIntel,60.60606061,,,,,,,,,,,,,,,,,,,,,,,,,,,440,,,,,,,,,,,,,,,,,,,,,5,6,,,436.185,12,right,0.3041,,1.5,0.3,"[3,2,1]",0.180039925,stimuli/card_10_transparent.png,10,12,0,12,0,1,,,,,,,,,,
,,,,61078e2c584e66eab1969aca,A,2024-06-03_18h40.09.818,Slot Machine Game,2023.1.3,MacIntel,60.60606061,,,,,,,,,,,,,,,,,,,,,,,,,,,450,,,,,,,,,,,,,,,,,,,,,5,6,,,438.7908,13,up,0.4149,,1.5,0.3,"[3,2,1]",0.206761225,stimuli/card_10_transparent.png,10,13,0,13,0,1,,,,,,,,,,
,,,,61078e2c584e66eab1969aca,A,2024-06-03_18h40.09.818,Slot Machine Game,2023.1.3,MacIntel,60.60606061,,,,,,,,,,,,,,,,,,,,,,,,,,,460,,,,,,,,,,,,,,,,,,,,,5,6,,,441.5349,14,up,0.1706,,1,0.3,"[3,2,1]",0.514896251,stimuli/card_10_transparent.png,10,14,0,14,0,1,,,,,,,,,,
,,,,61078e2c584e66eab1969aca,A,2024-06-03_18h40.09.818,Slot Machine Game,2023.1.3,MacIntel,60.60606061,,,,,,,,,,,,,,,,,,,,,,,,,,,,,,,,,,,443.5386,,,,,,,,,,,,,,,,,,,,,,,,,,,,,,,,,"[450,1120,770,830,460]",4,0,4,0,1,,,,
,,,,61078e2c584e66eab1969aca,A,2024-06-03_18h40.09.818,Slot Machine Game,2023.1.3,MacIntel,60.60606061,,,,,,,,,,,,,,,,,,,,,,,,,,,10,,,,,,,,,,,,,,,,,,,,,6,8,"[11,15]","[[2,1,3],[1,2,3]]",448.5602,0,up,0.6049,,0.5,0.3,"[2,1,3]",0.148799498,stimuli/card_10_transparent.png,10,0,0,0,0,1,,,,,,,,,,
,,,,61078e2c584e66eab1969aca,A,2024-06-03_18h40.09.818,Slot Machine Game,2023.1.3,MacIntel,60.60606061,,,,,,,,,,,,,,,,,,,,,,,,,,,110,,,,,,,,,,,,,,,,,,,,,6,8,,,450.4543,1,up,0.2589,,1,0.3,"[2,1,3]",0.399040566,stimuli/card_100_transparent.png,100,1,0,1,0,1,,,,,,,,,,
,,,,61078e2c584e66eab1969aca,A,2024-06-03_18h40.09.818,Slot Machine Game,2023.1.3,MacIntel,60.60606061,,,,,,,,,,,,,,,,,,,,,,,,,,,110,,,,,,,,,,,,,,,,,,,,,6,8,,,452.539,2,up,0.1517,,1.5,0.3,"[2,1,3]",0.069236702,stimuli/card_0_transparent.png,0,2,0,2,0,1,,,,,,,,,,
,,,,61078e2c584e66eab1969aca,A,2024-06-03_18h40.09.818,Slot Machine Game,2023.1.3,MacIntel,60.60606061,,,,,,,,,,,,,,,,,,,,,,,,,,,110,,,,,,,,,,,,,,,,,,,,,6,8,,,455.0271,3,right,0.2571,,1.5,0.3,"[2,1,3]",0.222072232,stimuli/card_0_transparent.png,0,3,0,3,0,1,,,,,,,,,,
,,,,61078e2c584e66eab1969aca,A,2024-06-03_18h40.09.818,Slot Machine Game,2023.1.3,MacIntel,60.60606061,,,,,,,,,,,,,,,,,,,,,,,,,,,120,,,,,,,,,,,,,,,,,,,,,6,8,,,457.608,4,left,0.2698,,0.5,0.3,"[2,1,3]",0.789999113,stimuli/card_10_transparent.png,10,4,0,4,0,1,,,,,,,,,,
,,,,61078e2c584e66eab1969aca,A,2024-06-03_18h40.09.818,Slot Machine Game,2023.1.3,MacIntel,60.60606061,,,,,,,,,,,,,,,,,,,,,,,,,,,120,,,,,,,,,,,,,,,,,,,,,6,8,,,459.1971,5,left,0.2212,,1.5,0.3,"[2,1,3]",0.059806283,stimuli/card_0_transparent.png,0,5,0,5,0,1,,,,,,,,,,
,,,,61078e2c584e66eab1969aca,A,2024-06-03_18h40.09.818,Slot Machine Game,2023.1.3,MacIntel,60.60606061,,,,,,,,,,,,,,,,,,,,,,,,,,,220,,,,,,,,,,,,,,,,,,,,,6,8,,,461.7319,6,up,0.2371,,1.5,0.3,"[2,1,3]",0.246564014,stimuli/card_100_transparent.png,100,6,0,6,0,1,,,,,,,,,,
,,,,61078e2c584e66eab1969aca,A,2024-06-03_18h40.09.818,Slot Machine Game,2023.1.3,MacIntel,60.60606061,,,,,,,,,,,,,,,,,,,,,,,,,,,320,,,,,,,,,,,,,,,,,,,,,6,8,,,464.3158,7,up,0.1382,,0.5,0.3,"[2,1,3]",0.614397602,stimuli/card_100_transparent.png,100,7,0,7,0,1,,,,,,,,,,
,,,,61078e2c584e66eab1969aca,A,2024-06-03_18h40.09.818,Slot Machine Game,2023.1.3,MacIntel,60.60606061,,,,,,,,,,,,,,,,,,,,,,,,,,,420,,,,,,,,,,,,,,,,,,,,,6,8,,,465.7763,8,up,0.1956,,0.5,0.3,"[2,1,3]",0.214521837,stimuli/card_100_transparent.png,100,8,0,8,0,1,,,,,,,,,,
,,,,61078e2c584e66eab1969aca,A,2024-06-03_18h40.09.818,Slot Machine Game,2023.1.3,MacIntel,60.60606061,,,,,,,,,,,,,,,,,,,,,,,,,,,520,,,,,,,,,,,,,,,,,,,,,6,8,,,467.2852,9,up,0.098,,0.5,0.3,"[2,1,3]",0.227704198,stimuli/card_100_transparent.png,100,9,0,9,0,1,,,,,,,,,,
,,,,61078e2c584e66eab1969aca,A,2024-06-03_18h40.09.818,Slot Machine Game,2023.1.3,MacIntel,60.60606061,,,,,,,,,,,,,,,,,,,,,,,,,,,620,,,,,,,,,,,,,,,,,,,,,6,8,,,468.6956,10,up,0.059,,0.5,0.3,"[2,1,3]",0.6868691,stimuli/card_100_transparent.png,100,10,0,10,0,1,,,,,,,,,,
,,,,61078e2c584e66eab1969aca,A,2024-06-03_18h40.09.818,Slot Machine Game,2023.1.3,MacIntel,60.60606061,,,,,,,,,,,,,,,,,,,,,,,,,,,630,,,,,,,,,,,,,,,,,,,,,6,8,,,470.0693,11,up,0.1518,,1.5,0.3,"[1,2,3]",0.606289599,stimuli/card_10_transparent.png,10,11,0,11,0,1,,,,,,,,,,
,,,,61078e2c584e66eab1969aca,A,2024-06-03_18h40.09.818,Slot Machine Game,2023.1.3,MacIntel,60.60606061,,,,,,,,,,,,,,,,,,,,,,,,,,,730,,,,,,,,,,,,,,,,,,,,,6,8,,,472.5382,12,up,0.0005,,1,0.3,"[1,2,3]",0.154560698,stimuli/card_100_transparent.png,100,12,0,12,0,1,,,,,,,,,,
,,,,61078e2c584e66eab1969aca,A,2024-06-03_18h40.09.818,Slot Machine Game,2023.1.3,MacIntel,60.60606061,,,,,,,,,,,,,,,,,,,,,,,,,,,740,,,,,,,,,,,,,,,,,,,,,6,8,,,474.3691,13,up,0.2395,,0.5,0.3,"[1,2,3]",0.412784511,stimuli/card_10_transparent.png,10,13,0,13,0,1,,,,,,,,,,
,,,,61078e2c584e66eab1969aca,A,2024-06-03_18h40.09.818,Slot Machine Game,2023.1.3,MacIntel,60.60606061,,,,,,,,,,,,,,,,,,,,,,,,,,,740,,,,,,,,,,,,,,,,,,,,,6,8,,,475.9356,14,up,0.23,,0.5,0.3,"[1,2,3]",0.021742621,stimuli/card_0_transparent.png,0,14,0,14,0,1,,,,,,,,,,
,,,,61078e2c584e66eab1969aca,A,2024-06-03_18h40.09.818,Slot Machine Game,2023.1.3,MacIntel,60.60606061,,,,,,,,,,,,,,,,,,,,,,,,,,,,,,,,,,,477.5021,,,,,,,,,,,,,,,,,,,,,,,,,,,,,,,,,"[450,1120,770,830,460,740]",5,0,5,0,1,,,,
,,,,61078e2c584e66eab1969aca,A,2024-06-03_18h40.09.818,Slot Machine Game,2023.1.3,MacIntel,60.60606061,,,,,,,,,,,,,,,,,,,,,,,,,,,0,,,,,,,,,,,,,,,,,,,,,7,9,"[8,15]","[[3,2,1],[3,1,2]]",482.5195,0,right,0.1386,,0.5,0.3,"[3,2,1]",0.086027666,stimuli/card_0_transparent.png,0,0,0,0,0,1,,,,,,,,,,
,,,,61078e2c584e66eab1969aca,A,2024-06-03_18h40.09.818,Slot Machine Game,2023.1.3,MacIntel,60.60606061,,,,,,,,,,,,,,,,,,,,,,,,,,,0,,,,,,,,,,,,,,,,,,,,,7,9,,,483.9674,1,left,0.1509,,1,0.3,"[3,2,1]",0.852237301,stimuli/card_0_transparent.png,0,1,0,1,0,1,,,,,,,,,,
,,,,61078e2c584e66eab1969aca,A,2024-06-03_18h40.09.818,Slot Machine Game,2023.1.3,MacIntel,60.60606061,,,,,,,,,,,,,,,,,,,,,,,,,,,10,,,,,,,,,,,,,,,,,,,,,7,9,,,485.9434,2,up,0.0811,,1.5,0.3,"[3,2,1]",0.33654788,stimuli/card_10_transparent.png,10,2,0,2,0,1,,,,,,,,,,
,,,,61078e2c584e66eab1969aca,A,2024-06-03_18h40.09.818,Slot Machine Game,2023.1.3,MacIntel,60.60606061,,,,,,,,,,,,,,,,,,,,,,,,,,,20,,,,,,,,,,,,,,,,,,,,,7,9,,,488.3562,3,up,0.1197,,0.5,0.3,"[3,2,1]",0.29959145,stimuli/card_10_transparent.png,10,3,0,3,0,1,,,,,,,,,,
,,,,61078e2c584e66eab1969aca,A,2024-06-03_18h40.09.818,Slot Machine Game,2023.1.3,MacIntel,60.60606061,,,,,,,,,,,,,,,,,,,,,,,,,,,20,,,,,,,,,,,,,,,,,,,,,7,9,,,489.806,4,up,0.1788,,0.5,0.3,"[3,2,1]",0.005633626,stimuli/card_0_transparent.png,0,4,0,4,0,1,,,,,,,,,,
,,,,61078e2c584e66eab1969aca,A,2024-06-03_18h40.09.818,Slot Machine Game,2023.1.3,MacIntel,60.60606061,,,,,,,,,,,,,,,,,,,,,,,,,,,120,,,,,,,,,,,,,,,,,,,,,7,9,,,491.3053,5,right,0.1282,,1,0.3,"[3,2,1]",0.253687243,stimuli/card_100_transparent.png,100,5,0,5,0,1,,,,,,,,,,
,,,,61078e2c584e66eab1969aca,A,2024-06-03_18h40.09.818,Slot Machine Game,2023.1.3,MacIntel,60.60606061,,,,,,,,,,,,,,,,,,,,,,,,,,,220,,,,,,,,,,,,,,,,,,,,,7,9,,,493.2442,6,right,0.147,,1.5,0.3,"[3,2,1]",0.894026088,stimuli/card_100_transparent.png,100,6,0,6,0,1,,,,,,,,,,
,,,,61078e2c584e66eab1969aca,A,2024-06-03_18h40.09.818,Slot Machine Game,2023.1.3,MacIntel,60.60606061,,,,,,,,,,,,,,,,,,,,,,,,,,,320,,,,,,,,,,,,,,,,,,,,,7,9,,,495.7212,7,right,0.1336,,1.5,0.3,"[3,2,1]",0.79097138,stimuli/card_100_transparent.png,100,7,0,7,0,1,,,,,,,,,,
,,,,61078e2c584e66eab1969aca,A,2024-06-03_18h40.09.818,Slot Machine Game,2023.1.3,MacIntel,60.60606061,,,,,,,,,,,,,,,,,,,,,,,,,,,330,,,,,,,,,,,,,,,,,,,,,7,9,,,498.152,8,right,0.32,,0.5,0.3,"[3,1,2]",0.496608732,stimuli/card_10_transparent.png,10,8,0,8,0,1,,,,,,,,,,
,,,,61078e2c584e66eab1969aca,A,2024-06-03_18h40.09.818,Slot Machine Game,2023.1.3,MacIntel,60.60606061,,,,,,,,,,,,,,,,,,,,,,,,,,,340,,,,,,,,,,,,,,,,,,,,,7,9,,,499.7998,9,right,0.0757,,1.5,0.3,"[3,1,2]",0.709905564,stimuli/card_10_transparent.png,10,9,0,9,0,1,,,,,,,,,,
,,,,61078e2c584e66eab1969aca,A,2024-06-03_18h40.09.818,Slot Machine Game,2023.1.3,MacIntel,60.60606061,,,,,,,,,,,,,,,,,,,,,,,,,,,350,,,,,,,,,,,,,,,,,,,,,7,9,,,502.1971,10,right,0.2178,,0.5,0.3,"[3,1,2]",0.300457109,stimuli/card_10_transparent.png,10,10,0,10,0,1,,,,,,,,,,
,,,,61078e2c584e66eab1969aca,A,2024-06-03_18h40.09.818,Slot Machine Game,2023.1.3,MacIntel,60.60606061,,,,,,,,,,,,,,,,,,,,,,,,,,,450,,,,,,,,,,,,,,,,,,,,,7,9,,,503.7477,11,left,0.3543,,0.5,0.3,"[3,1,2]",0.031884675,stimuli/card_100_transparent.png,100,11,0,11,0,1,,,,,,,,,,
,,,,61078e2c584e66eab1969aca,A,2024-06-03_18h40.09.818,Slot Machine Game,2023.1.3,MacIntel,60.60606061,,,,,,,,,,,,,,,,,,,,,,,,,,,450,,,,,,,,,,,,,,,,,,,,,7,9,,,505.4379,12,left,0.0998,,0.5,0.3,"[3,1,2]",0.760879463,stimuli/card_0_transparent.png,0,12,0,12,0,1,,,,,,,,,,
,,,,61078e2c584e66eab1969aca,A,2024-06-03_18h40.09.818,Slot Machine Game,2023.1.3,MacIntel,60.60606061,,,,,,,,,,,,,,,,,,,,,,,,,,,450,,,,,,,,,,,,,,,,,,,,,7,9,,,506.8739,13,left,0.0411,,1,0.3,"[3,1,2]",0.399148348,stimuli/card_0_transparent.png,0,13,0,13,0,1,,,,,,,,,,
,,,,61078e2c584e66eab1969aca,A,2024-06-03_18h40.09.818,Slot Machine Game,2023.1.3,MacIntel,60.60606061,,,,,,,,,,,,,,,,,,,,,,,,,,,550,,,,,,,,,,,,,,,,,,,,,7,9,,,508.7148,14,up,0.3803,,1,0.3,"[3,1,2]",0.395857853,stimuli/card_100_transparent.png,100,14,0,14,0,1,,,,,,,,,,
,,,,61078e2c584e66eab1969aca,A,2024-06-03_18h40.09.818,Slot Machine Game,2023.1.3,MacIntel,60.60606061,,,,,,,,,,,,,,,,,,,,,,,,,,,,,,,,,,,510.9131,,,,,,,,,,,,,,,,,,,,,,,,,,,,,,,,,"[450,1120,770,830,460,740,550]",6,0,6,0,1,,,,
,,,,61078e2c584e66eab1969aca,A,2024-06-03_18h40.09.818,Slot Machine Game,2023.1.3,MacIntel,60.60606061,,,,,,,,,,,,,,,,,,,,,,,,,,,10,,,,,,,,,,,,,,,,,,,,,8,2,"[6,15]","[[1,3,2],[3,2,1]]",515.936,0,left,0.4035,,0.5,0.3,"[1,3,2]",0.175703181,stimuli/card_10_transparent.png,10,0,0,0,0,1,,,,,,,,,,
,,,,61078e2c584e66eab1969aca,A,2024-06-03_18h40.09.818,Slot Machine Game,2023.1.3,MacIntel,60.60606061,,,,,,,,,,,,,,,,,,,,,,,,,,,110,,,,,,,,,,,,,,,,,,,,,8,2,,,517.6533,1,left,0.5106,,1.5,0.3,"[1,3,2]",0.988958128,stimuli/card_100_transparent.png,100,1,0,1,0,1,,,,,,,,,,
,,,,61078e2c584e66eab1969aca,A,2024-06-03_18h40.09.818,Slot Machine Game,2023.1.3,MacIntel,60.60606061,,,,,,,,,,,,,,,,,,,,,,,,,,,210,,,,,,,,,,,,,,,,,,,,,8,2,,,520.4895,2,left,0.1959,,1.5,0.3,"[1,3,2]",0.437252299,stimuli/card_100_transparent.png,100,2,0,2,0,1,,,,,,,,,,
,,,,61078e2c584e66eab1969aca,A,2024-06-03_18h40.09.818,Slot Machine Game,2023.1.3,MacIntel,60.60606061,,,,,,,,,,,,,,,,,,,,,,,,,,,310,,,,,,,,,,,,,,,,,,,,,8,2,,,523.0257,3,left,0.4049,,1.5,0.3,"[1,3,2]",0.238704289,stimuli/card_100_transparent.png,100,3,0,3,0,1,,,,,,,,,,
,,,,61078e2c584e66eab1969aca,A,2024-06-03_18h40.09.818,Slot Machine Game,2023.1.3,MacIntel,60.60606061,,,,,,,,,,,,,,,,,,,,,,,,,,,410,,,,,,,,,,,,,,,,,,,,,8,2,,,525.7585,4,left,0.1226,,1,0.3,"[1,3,2]",0.819074942,stimuli/card_100_transparent.png,100,4,0,4,0,1,,,,,,,,,,
,,,,61078e2c584e66eab1969aca,A,2024-06-03_18h40.09.818,Slot Machine Game,2023.1.3,MacIntel,60.60606061,,,,,,,,,,,,,,,,,,,,,,,,,,,420,,,,,,,,,,,,,,,,,,,,,8,2,,,527.7004,5,left,0.1325,,1.5,0.3,"[1,3,2]",0.142496354,stimuli/card_10_transparent.png,10,5,0,5,0,1,,,,,,,,,,
,,,,61078e2c584e66eab1969aca,A,2024-06-03_18h40.09.818,Slot Machine Game,2023.1.3,MacIntel,60.60606061,,,,,,,,,,,,,,,,,,,,,,,,,,,420,,,,,,,,,,,,,,,,,,,,,8,2,,,530.144,6,left,0.3025,,1,0.3,"[3,2,1]",0.865433373,stimuli/card_0_transparent.png,0,6,0,6,0,1,,,,,,,,,,
,,,,61078e2c584e66eab1969aca,A,2024-06-03_18h40.09.818,Slot Machine Game,2023.1.3,MacIntel,60.60606061,,,,,,,,,,,,,,,,,,,,,,,,,,,520,,,,,,,,,,,,,,,,,,,,,8,2,,,532.2515,7,right,1.0759,,1.5,0.3,"[3,2,1]",0.786109787,stimuli/card_100_transparent.png,100,7,0,7,0,1,,,,,,,,,,
,,,,61078e2c584e66eab1969aca,A,2024-06-03_18h40.09.818,Slot Machine Game,2023.1.3,MacIntel,60.60606061,,,,,,,,,,,,,,,,,,,,,,,,,,,520,,,,,,,,,,,,,,,,,,,,,8,2,,,535.6586,8,right,0.3597,,0.5,0.3,"[3,2,1]",0.075284545,stimuli/card_0_transparent.png,0,8,0,8,0,1,,,,,,,,,,
,,,,61078e2c584e66eab1969aca,A,2024-06-03_18h40.09.818,Slot Machine Game,2023.1.3,MacIntel,60.60606061,,,,,,,,,,,,,,,,,,,,,,,,,,,620,,,,,,,,,,,,,,,,,,,,,8,2,,,537.3636,9,right,0.3963,,1,0.3,"[3,2,1]",0.239262623,stimuli/card_100_transparent.png,100,9,0,9,0,1,,,,,,,,,,
,,,,61078e2c584e66eab1969aca,A,2024-06-03_18h40.09.818,Slot Machine Game,2023.1.3,MacIntel,60.60606061,,,,,,,,,,,,,,,,,,,,,,,,,,,720,,,,,,,,,,,,,,,,,,,,,8,2,,,539.582,10,right,0.1115,,0.5,0.3,"[3,2,1]",0.802996745,stimuli/card_100_transparent.png,100,10,0,10,0,1,,,,,,,,,,
,,,,61078e2c584e66eab1969aca,A,2024-06-03_18h40.09.818,Slot Machine Game,2023.1.3,MacIntel,60.60606061,,,,,,,,,,,,,,,,,,,,,,,,,,,820,,,,,,,,,,,,,,,,,,,,,8,2,,,541.0161,11,right,0.1227,,1.5,0.3,"[3,2,1]",0.41287093,stimuli/card_100_transparent.png,100,11,0,11,0,1,,,,,,,,,,
,,,,61078e2c584e66eab1969aca,A,2024-06-03_18h40.09.818,Slot Machine Game,2023.1.3,MacIntel,60.60606061,,,,,,,,,,,,,,,,,,,,,,,,,,,920,,,,,,,,,,,,,,,,,,,,,8,2,,,543.4655,12,right,0.0729,,1,0.3,"[3,2,1]",0.899717318,stimuli/card_100_transparent.png,100,12,0,12,0,1,,,,,,,,,,
,,,,61078e2c584e66eab1969aca,A,2024-06-03_18h40.09.818,Slot Machine Game,2023.1.3,MacIntel,60.60606061,,,,,,,,,,,,,,,,,,,,,,,,,,,920,,,,,,,,,,,,,,,,,,,,,8,2,,,545.3686,13,right,0.3862,,1,0.3,"[3,2,1]",0.042332105,stimuli/card_0_transparent.png,0,13,0,13,0,1,,,,,,,,,,
,,,,61078e2c584e66eab1969aca,A,2024-06-03_18h40.09.818,Slot Machine Game,2023.1.3,MacIntel,60.60606061,,,,,,,,,,,,,,,,,,,,,,,,,,,930,,,,,,,,,,,,,,,,,,,,,8,2,,,547.5602,14,up,0.4817,,1.5,0.3,"[3,2,1]",0.990634699,stimuli/card_10_transparent.png,10,14,0,14,0,1,,,,,,,,,,
,,,,61078e2c584e66eab1969aca,A,2024-06-03_18h40.09.818,Slot Machine Game,2023.1.3,MacIntel,60.60606061,,,,,,,,,,,,,,,,,,,,,,,,,,,,,,,,,,,550.3561,,,,,,,,,,,,,,,,,,,,,,,,,,,,,,,,,"[450,1120,770,830,460,740,550,930]",7,0,7,0,1,,,,
,,,,61078e2c584e66eab1969aca,A,2024-06-03_18h40.09.818,Slot Machine Game,2023.1.3,MacIntel,60.60606061,,,,,,,,,,,,,,,,,,,,,,,,,,,10,,,,,,,,,,,,,,,,,,,,,9,10,"[10,15]","[[3,1,2],[1,3,2]]",555.3592,0,right,1.116,,1.5,0.3,"[3,1,2]",0.41304021,stimuli/card_10_transparent.png,10,0,0,0,0,1,,,,,,,,,,
,,,,61078e2c584e66eab1969aca,A,2024-06-03_18h40.09.818,Slot Machine Game,2023.1.3,MacIntel,60.60606061,,,,,,,,,,,,,,,,,,,,,,,,,,,110,,,,,,,,,,,,,,,,,,,,,9,10,,,558.7556,1,up,0.1706,,1.5,0.3,"[3,1,2]",0.96068182,stimuli/card_100_transparent.png,100,1,0,1,0,1,,,,,,,,,,
,,,,61078e2c584e66eab1969aca,A,2024-06-03_18h40.09.818,Slot Machine Game,2023.1.3,MacIntel,60.60606061,,,,,,,,,,,,,,,,,,,,,,,,,,,210,,,,,,,,,,,,,,,,,,,,,9,10,,,561.2466,2,up,0.1585,,1,0.3,"[3,1,2]",0.867269602,stimuli/card_100_transparent.png,100,2,0,2,0,1,,,,,,,,,,
,,,,61078e2c584e66eab1969aca,A,2024-06-03_18h40.09.818,Slot Machine Game,2023.1.3,MacIntel,60.60606061,,,,,,,,,,,,,,,,,,,,,,,,,,,310,,,,,,,,,,,,,,,,,,,,,9,10,,,563.2237,3,up,0.0554,,0.5,0.3,"[3,1,2]",0.305012765,stimuli/card_100_transparent.png,100,3,0,3,0,1,,,,,,,,,,
,,,,61078e2c584e66eab1969aca,A,2024-06-03_18h40.09.818,Slot Machine Game,2023.1.3,MacIntel,60.60606061,,,,,,,,,,,,,,,,,,,,,,,,,,,410,,,,,,,,,,,,,,,,,,,,,9,10,,,564.6121,4,up,0.061,,1,0.3,"[3,1,2]",0.970405361,stimuli/card_100_transparent.png,100,4,0,4,0,1,,,,,,,,,,
,,,,61078e2c584e66eab1969aca,A,2024-06-03_18h40.09.818,Slot Machine Game,2023.1.3,MacIntel,60.60606061,,,,,,,,,,,,,,,,,,,,,,,,,,,510,,,,,,,,,,,,,,,,,,,,,9,10,,,566.4806,5,up,0.2787,,1,0.3,"[3,1,2]",0.557548533,stimuli/card_100_transparent.png,100,5,0,5,0,1,,,,,,,,,,
,,,,61078e2c584e66eab1969aca,A,2024-06-03_18h40.09.818,Slot Machine Game,2023.1.3,MacIntel,60.60606061,,,,,,,,,,,,,,,,,,,,,,,,,,,610,,,,,,,,,,,,,,,,,,,,,9,10,,,568.5809,6,up,0.1856,,1.5,0.3,"[3,1,2]",0.38379384,stimuli/card_100_transparent.png,100,6,0,6,0,1,,,,,,,,,,
,,,,61078e2c584e66eab1969aca,A,2024-06-03_18h40.09.818,Slot Machine Game,2023.1.3,MacIntel,60.60606061,,,,,,,,,,,,,,,,,,,,,,,,,,,710,,,,,,,,,,,,,,,,,,,,,9,10,,,571.0879,7,up,0.0914,,1.5,0.3,"[3,1,2]",0.672376645,stimuli/card_100_transparent.png,100,7,0,7,0,1,,,,,,,,,,
,,,,61078e2c584e66eab1969aca,A,2024-06-03_18h40.09.818,Slot Machine Game,2023.1.3,MacIntel,60.60606061,,,,,,,,,,,,,,,,,,,,,,,,,,,720,,,,,,,,,,,,,,,,,,,,,9,10,,,573.487,8,up,0.2336,,1.5,0.3,"[3,1,2]",0.149914894,stimuli/card_10_transparent.png,10,8,0,8,0,1,,,,,,,,,,
,,,,61078e2c584e66eab1969aca,A,2024-06-03_18h40.09.818,Slot Machine Game,2023.1.3,MacIntel,60.60606061,,,,,,,,,,,,,,,,,,,,,,,,,,,820,,,,,,,,,,,,,,,,,,,,,9,10,,,576.0504,9,up,0.2201,,1,0.3,"[3,1,2]",0.473708343,stimuli/card_100_transparent.png,100,9,0,9,0,1,,,,,,,,,,
,,,,61078e2c584e66eab1969aca,A,2024-06-03_18h40.09.818,Slot Machine Game,2023.1.3,MacIntel,60.60606061,,,,,,,,,,,,,,,,,,,,,,,,,,,820,,,,,,,,,,,,,,,,,,,,,9,10,,,578.1148,10,up,0.1212,,1,0.3,"[1,3,2]",0.265840838,stimuli/card_0_transparent.png,0,10,0,10,0,1,,,,,,,,,,
,,,,61078e2c584e66eab1969aca,A,2024-06-03_18h40.09.818,Slot Machine Game,2023.1.3,MacIntel,60.60606061,,,,,,,,,,,,,,,,,,,,,,,,,,,820,,,,,,,,,,,,,,,,,,,,,9,10,,,580.0664,11,left,1.368,,1.5,0.3,"[1,3,2]",0.017622316,stimuli/card_0_transparent.png,0,11,0,11,0,1,,,,,,,,,,
,,,,61078e2c584e66eab1969aca,A,2024-06-03_18h40.09.818,Slot Machine Game,2023.1.3,MacIntel,60.60606061,,,,,,,,,,,,,,,,,,,,,,,,,,,820,,,,,,,,,,,,,,,,,,,,,9,10,,,583.7337,12,up,0.0129,,0.5,0.3,"[1,3,2]",0.87909662,stimuli/card_0_transparent.png,0,12,0,12,0,1,,,,,,,,,,
,,,,61078e2c584e66eab1969aca,A,2024-06-03_18h40.09.818,Slot Machine Game,2023.1.3,MacIntel,60.60606061,,,,,,,,,,,,,,,,,,,,,,,,,,,830,,,,,,,,,,,,,,,,,,,,,9,10,,,585.0707,13,right,0.2033,,1.5,0.3,"[1,3,2]",0.660765379,stimuli/card_10_transparent.png,10,13,0,13,0,1,,,,,,,,,,
,,,,61078e2c584e66eab1969aca,A,2024-06-03_18h40.09.818,Slot Machine Game,2023.1.3,MacIntel,60.60606061,,,,,,,,,,,,,,,,,,,,,,,,,,,930,,,,,,,,,,,,,,,,,,,,,9,10,,,587.6023,14,right,0.1881,,0.5,0.3,"[1,3,2]",0.151941386,stimuli/card_100_transparent.png,100,14,0,14,0,1,,,,,,,,,,
,,,,61078e2c584e66eab1969aca,A,2024-06-03_18h40.09.818,Slot Machine Game,2023.1.3,MacIntel,60.60606061,,,,,,,,,,,,,,,,,,,,,,,,,,,,,,,,,,,589.1257,,,,,,,,,,,,,,,,,,,,,,,,,,,,,,,,,"[450,1120,770,830,460,740,550,930,930]",8,0,8,0,1,,,,
,,,,61078e2c584e66eab1969aca,A,2024-06-03_18h40.09.818,Slot Machine Game,2023.1.3,MacIntel,60.60606061,,,,,,,,,,,,,,,,,,,,,,,,,,,10,,,,,,,,,,,,,,,,,,,,,10,3,"[15,15]","[[3,1,2],[3,1,2]]",594.1361,0,right,1.2435,0.0001,1,0.3,"[3,1,2]",0.820457276,stimuli/card_10_transparent.png,10,0,0,0,0,1,,,,,,,,,,
,,,,61078e2c584e66eab1969aca,A,2024-06-03_18h40.09.818,Slot Machine Game,2023.1.3,MacIntel,60.60606061,,,,,,,,,,,,,,,,,,,,,,,,,,,20,,,,,,,,,,,,,,,,,,,,,10,3,,,597.2111,1,right,0.2183,,1,0.3,"[3,1,2]",0.257298225,stimuli/card_10_transparent.png,10,1,0,1,0,1,,,,,,,,,,
,,,,61078e2c584e66eab1969aca,A,2024-06-03_18h40.09.818,Slot Machine Game,2023.1.3,MacIntel,60.60606061,,,,,,,,,,,,,,,,,,,,,,,,,,,20,,,,,,,,,,,,,,,,,,,,,10,3,,,599.2409,2,up,0.2572,,1,0.3,"[3,1,2]",0.061381236,stimuli/card_0_transparent.png,0,2,0,2,0,1,,,,,,,,,,
,,,,61078e2c584e66eab1969aca,A,2024-06-03_18h40.09.818,Slot Machine Game,2023.1.3,MacIntel,60.60606061,,,,,,,,,,,,,,,,,,,,,,,,,,,20,,,,,,,,,,,,,,,,,,,,,10,3,,,601.3097,3,left,0.1005,,0.5,0.3,"[3,1,2]",0.320835279,stimuli/card_0_transparent.png,0,3,0,3,0,1,,,,,,,,,,
,,,,61078e2c584e66eab1969aca,A,2024-06-03_18h40.09.818,Slot Machine Game,2023.1.3,MacIntel,60.60606061,,,,,,,,,,,,,,,,,,,,,,,,,,,20,,,,,,,,,,,,,,,,,,,,,10,3,,,602.7296,4,left,0.1993,,0.5,0.3,"[3,1,2]",0.39047254,stimuli/card_0_transparent.png,0,4,0,4,0,1,,,,,,,,,,
,,,,61078e2c584e66eab1969aca,A,2024-06-03_18h40.09.818,Slot Machine Game,2023.1.3,MacIntel,60.60606061,,,,,,,,,,,,,,,,,,,,,,,,,,,120,,,,,,,,,,,,,,,,,,,,,10,3,,,604.2624,5,up,0.2619,,1,0.3,"[3,1,2]",0.68280677,stimuli/card_100_transparent.png,100,5,0,5,0,1,,,,,,,,,,
,,,,61078e2c584e66eab1969aca,A,2024-06-03_18h40.09.818,Slot Machine Game,2023.1.3,MacIntel,60.60606061,,,,,,,,,,,,,,,,,,,,,,,,,,,220,,,,,,,,,,,,,,,,,,,,,10,3,,,606.3748,6,up,0.0208,,1.5,0.3,"[3,1,2]",0.967368803,stimuli/card_100_transparent.png,100,6,0,6,0,1,,,,,,,,,,
,,,,61078e2c584e66eab1969aca,A,2024-06-03_18h40.09.818,Slot Machine Game,2023.1.3,MacIntel,60.60606061,,,,,,,,,,,,,,,,,,,,,,,,,,,220,,,,,,,,,,,,,,,,,,,,,10,3,,,608.7032,7,up,0.1002,,1,0.3,"[3,1,2]",0.019822081,stimuli/card_0_transparent.png,0,7,0,7,0,1,,,,,,,,,,
,,,,61078e2c584e66eab1969aca,A,2024-06-03_18h40.09.818,Slot Machine Game,2023.1.3,MacIntel,60.60606061,,,,,,,,,,,,,,,,,,,,,,,,,,,320,,,,,,,,,,,,,,,,,,,,,10,3,,,610.6335,8,up,0.1209,,1,0.3,"[3,1,2]",0.763496439,stimuli/card_100_transparent.png,100,8,0,8,0,1,,,,,,,,,,
,,,,61078e2c584e66eab1969aca,A,2024-06-03_18h40.09.818,Slot Machine Game,2023.1.3,MacIntel,60.60606061,,,,,,,,,,,,,,,,,,,,,,,,,,,420,,,,,,,,,,,,,,,,,,,,,10,3,,,612.5678,9,up,0.0214,,1,0.3,"[3,1,2]",0.982935751,stimuli/card_100_transparent.png,100,9,0,9,0,1,,,,,,,,,,
,,,,61078e2c584e66eab1969aca,A,2024-06-03_18h40.09.818,Slot Machine Game,2023.1.3,MacIntel,60.60606061,,,,,,,,,,,,,,,,,,,,,,,,,,,520,,,,,,,,,,,,,,,,,,,,,10,3,,,614.4,10,up,0.1314,,1,0.3,"[3,1,2]",0.789027293,stimuli/card_100_transparent.png,100,10,0,10,0,1,,,,,,,,,,
,,,,61078e2c584e66eab1969aca,A,2024-06-03_18h40.09.818,Slot Machine Game,2023.1.3,MacIntel,60.60606061,,,,,,,,,,,,,,,,,,,,,,,,,,,620,,,,,,,,,,,,,,,,,,,,,10,3,,,616.3603,11,up,0.0722,,1.5,0.3,"[3,1,2]",0.451253923,stimuli/card_100_transparent.png,100,11,0,11,0,1,,,,,,,,,,
,,,,61078e2c584e66eab1969aca,A,2024-06-03_18h40.09.818,Slot Machine Game,2023.1.3,MacIntel,60.60606061,,,,,,,,,,,,,,,,,,,,,,,,,,,720,,,,,,,,,,,,,,,,,,,,,10,3,,,618.767,12,up,0.3133,,1,0.3,"[3,1,2]",0.906815278,stimuli/card_100_transparent.png,100,12,0,12,0,1,,,,,,,,,,
,,,,61078e2c584e66eab1969aca,A,2024-06-03_18h40.09.818,Slot Machine Game,2023.1.3,MacIntel,60.60606061,,,,,,,,,,,,,,,,,,,,,,,,,,,820,,,,,,,,,,,,,,,,,,,,,10,3,,,620.9088,13,up,0.1396,,1,0.3,"[3,1,2]",0.301182866,stimuli/card_100_transparent.png,100,13,0,13,0,1,,,,,,,,,,
,,,,61078e2c584e66eab1969aca,A,2024-06-03_18h40.09.818,Slot Machine Game,2023.1.3,MacIntel,60.60606061,,,,,,,,,,,,,,,,,,,,,,,,,,,920,,,,,,,,,,,,,,,,,,,,,10,3,,,622.8703,14,up,0.12,,0.5,0.3,"[3,1,2]",0.893022502,stimuli/card_100_transparent.png,100,14,0,14,0,1,,,,,,,,,,
,,,,61078e2c584e66eab1969aca,A,2024-06-03_18h40.09.818,Slot Machine Game,2023.1.3,MacIntel,60.60606061,,,,,,,,,,,,,,,,,,,,,,,,,,,,,,,,,,,624.3187,,,,,,,,,,,,,,,,,,,,,,,,,,,,,,,,,"[450,1120,770,830,460,740,550,930,930,920]",9,0,9,0,1,,,,
,,,,61078e2c584e66eab1969aca,A,2024-06-03_18h40.09.818,Slot Machine Game,2023.1.3,MacIntel,60.60606061,,,,,,,,,,,,,,,,,,,,,,,,,,,,,,,,,,,,,,,,,,,,,,,,,,,,,,,,,,,,,,,,,,,,,,,,,,9,"[450,1120,770,830,460,740,550,930,930,920]",11.2,2024-06-03_18h50.43.297
