key_resp_welcome_started,key_resp_welcome_keys,key_resp_welcome_rt,key_resp_welcome_duration,prolific_id,path_id,date,expName,psychopyVersion,OS,frameRate,key_resp_instruction1_started,key_resp_instruction1_keys,key_resp_instruction1_rt,key_resp_instruction1_duration,key_resp_instruction2_started,key_resp_instruction2_keys,key_resp_instruction2_rt,key_resp_instruction2_duration,key_resp_instruction3_started,key_resp_instruction3_keys,key_resp_instruction3_rt,key_resp_instruction3_duration,key_resp_instruction4_started,key_resp_instruction4_keys,key_resp_instruction4_rt,key_resp_instruction4_duration,practiceCondition,practice_reward_seqs,practice_trial_started,practice_trial_num,practice_resp_rt,practice_resp_duration,practice_resp_keys,prac_presentationInterval,"practice_reward_seq: 2,1,3",reward_img,cumulative_reward,trial_reward,practice_trials.thisRepN,practice_trials.thisTrialN,practice_trials.thisN,practice_trials.thisIndex,practice_trials.ran,"practice_reward_seq: 2,3,1",block_break_started,"practice_reward_seq: 1,3,2","practice_reward_seq: 3,1,2",practice_end_time,practice_end_keys,practice_end_rt,practice_end_duration,main_instruction_text_started,block_condition,block_order_indices,main_instruction_keys,main_instruction_rt,main_instruction_duration,block_number,block_assignment,current_condition,main_reward_seqs,main_trial_started,main_trial_num,main_trial_keys,main_trial_rt,main_trial_duration,main_presentationInterval,reward_presentation_time,main_reward_seq,reward_rand_val,main_reward_img,current_reward,main_trials.thisRepN,main_trials.thisTrialN,main_trials.thisN,main_trials.thisIndex,main_trials.ran,block_reward,block.thisRepN,block.thisTrialN,block.thisN,block.thisIndex,block.ran,block_reward.length,block_reward_all,reward_amount,date_end_task
0.0002,space,2.8408,,662e701588c74240a03b4027,A,2024-05-21_18h37.32.931,Slot Machine Game,2023.1.3,Win32,60.24096386,,,,,,,,,,,,,,,,,,,,,,,,,,,,,,,,,,,,,,,,,,,,,,,,,,,,,,,,,,,,,,,,,,,,,,,,,,,,,
,,,,662e701588c74240a03b4027,A,2024-05-21_18h37.32.931,Slot Machine Game,2023.1.3,Win32,60.24096386,2.8517,space,9.0233,,,,,,,,,,,,,,,,,,,,,,,,,,,,,,,,,,,,,,,,,,,,,,,,,,,,,,,,,,,,,,,,,,,,,,,,,,
,,,,662e701588c74240a03b4027,A,2024-05-21_18h37.32.931,Slot Machine Game,2023.1.3,Win32,60.24096386,,,,,11.9087,space,29.5738,,,,,,,,,,,,,,,,,,,,,,,,,,,,,,,,,,,,,,,,,,,,,,,,,,,,,,,,,,,,,,,,,,,,,,
,,,,662e701588c74240a03b4027,A,2024-05-21_18h37.32.931,Slot Machine Game,2023.1.3,Win32,60.24096386,,,,,,,,,41.5337,space,9.6887,,,,,,,,,,,,,,,,,,,,,,,,,,,,,,,,,,,,,,,,,,,,,,,,,,,,,,,,,,,,,,,,,,
,,,,662e701588c74240a03b4027,A,2024-05-21_18h37.32.931,Slot Machine Game,2023.1.3,Win32,60.24096386,,,,,,,,,,,,,,,,,,,,,,,,,,,,,,,,,,,,,,,,,,,,,,,,,,,,,,,,,,,,,,,,,,,,,,,,,,,,,
,,,,662e701588c74240a03b4027,A,2024-05-21_18h37.32.931,Slot Machine Game,2023.1.3,Win32,60.24096386,,,,,,,,,,,,,193.1167,up,5.2162,,,,,,,,,,,,,,,,,,,,,,,,,,,,,,,,,,,,,,,,,,,,,,,,,,,,,,,,,,,,,,
,,,,662e701588c74240a03b4027,A,2024-05-21_18h37.32.931,Slot Machine Game,2023.1.3,Win32,60.24096386,,,,,,,,,,,,,,,,,"[9,15]","[[2,1,3],[2,3,1]]",198.3502,0,1.1184,,left,1.5,,stimuli/card_10_transparent.png,10,10,0,0,0,0,1,,,,,,,,,,,,,,,,,,,,,,,,,,,,,,,,,,,,,,,,,,,,
,,,,662e701588c74240a03b4027,A,2024-05-21_18h37.32.931,Slot Machine Game,2023.1.3,Win32,60.24096386,,,,,,,,,,,,,,,,,,,201.8149,1,0.4923,,left,1.5,,stimuli/card_100_transparent.png,110,100,1,0,1,0,1,,,,,,,,,,,,,,,,,,,,,,,,,,,,,,,,,,,,,,,,,,,,
,,,,662e701588c74240a03b4027,A,2024-05-21_18h37.32.931,Slot Machine Game,2023.1.3,Win32,60.24096386,,,,,,,,,,,,,,,,,,,204.6334,2,0.3348,,left,0.5,,stimuli/card_10_transparent.png,120,10,2,0,2,0,1,,,,,,,,,,,,,,,,,,,,,,,,,,,,,,,,,,,,,,,,,,,,
,,,,662e701588c74240a03b4027,A,2024-05-21_18h37.32.931,Slot Machine Game,2023.1.3,Win32,60.24096386,,,,,,,,,,,,,,,,,,,206.3009,3,1.9227,,left,1,,stimuli/card_0_transparent.png,120,0,3,0,3,0,1,,,,,,,,,,,,,,,,,,,,,,,,,,,,,,,,,,,,,,,,,,,,
,,,,662e701588c74240a03b4027,A,2024-05-21_18h37.32.931,Slot Machine Game,2023.1.3,Win32,60.24096386,,,,,,,,,,,,,,,,,,,210.021,4,0.0348,,up,1.5,,stimuli/card_100_transparent.png,220,100,4,0,4,0,1,,,,,,,,,,,,,,,,,,,,,,,,,,,,,,,,,,,,,,,,,,,,
,,,,662e701588c74240a03b4027,A,2024-05-21_18h37.32.931,Slot Machine Game,2023.1.3,Win32,60.24096386,,,,,,,,,,,,,,,,,,,212.3901,5,2.4339,,up,1.5,,stimuli/card_10_transparent.png,230,10,5,0,5,0,1,,,,,,,,,,,,,,,,,,,,,,,,,,,,,,,,,,,,,,,,,,,,
,,,,662e701588c74240a03b4027,A,2024-05-21_18h37.32.931,Slot Machine Game,2023.1.3,Win32,60.24096386,,,,,,,,,,,,,,,,,,,217.1434,6,0.1497,,up,0.5,,stimuli/card_0_transparent.png,230,0,6,0,6,0,1,,,,,,,,,,,,,,,,,,,,,,,,,,,,,,,,,,,,,,,,,,,,
,,,,662e701588c74240a03b4027,A,2024-05-21_18h37.32.931,Slot Machine Game,2023.1.3,Win32,60.24096386,,,,,,,,,,,,,,,,,,,218.6114,7,0.0003,,right,1.5,,stimuli/card_0_transparent.png,230,0,7,0,7,0,1,,,,,,,,,,,,,,,,,,,,,,,,,,,,,,,,,,,,,,,,,,,,
,,,,662e701588c74240a03b4027,A,2024-05-21_18h37.32.931,Slot Machine Game,2023.1.3,Win32,60.24096386,,,,,,,,,,,,,,,,,,,220.9547,8,2.235,,up,1,,stimuli/card_100_transparent.png,330,100,8,0,8,0,1,,,,,,,,,,,,,,,,,,,,,,,,,,,,,,,,,,,,,,,,,,,,
,,,,662e701588c74240a03b4027,A,2024-05-21_18h37.32.931,Slot Machine Game,2023.1.3,Win32,60.24096386,,,,,,,,,,,,,,,,,,,225.0167,9,0.5188,,up,1.5,,stimuli/card_0_transparent.png,330,0,9,0,9,0,1,,,,,,,,,,,,,,,,,,,,,,,,,,,,,,,,,,,,,,,,,,,,
,,,,662e701588c74240a03b4027,A,2024-05-21_18h37.32.931,Slot Machine Game,2023.1.3,Win32,60.24096386,,,,,,,,,,,,,,,,,,,227.8692,10,0.5014,,left,1,,stimuli/card_10_transparent.png,340,10,10,0,10,0,1,,,,,,,,,,,,,,,,,,,,,,,,,,,,,,,,,,,,,,,,,,,,
,,,,662e701588c74240a03b4027,A,2024-05-21_18h37.32.931,Slot Machine Game,2023.1.3,Win32,60.24096386,,,,,,,,,,,,,,,,,,,230.195,11,0.0762,,left,1,,stimuli/card_10_transparent.png,350,10,11,0,11,0,1,,,,,,,,,,,,,,,,,,,,,,,,,,,,,,,,,,,,,,,,,,,,
,,,,662e701588c74240a03b4027,A,2024-05-21_18h37.32.931,Slot Machine Game,2023.1.3,Win32,60.24096386,,,,,,,,,,,,,,,,,,,232.1052,12,0.5352,,up,0.5,,stimuli/card_0_transparent.png,350,0,12,0,12,0,1,,,,,,,,,,,,,,,,,,,,,,,,,,,,,,,,,,,,,,,,,,,,
,,,,662e701588c74240a03b4027,A,2024-05-21_18h37.32.931,Slot Machine Game,2023.1.3,Win32,60.24096386,,,,,,,,,,,,,,,,,,,233.9572,13,0.1006,,right,1.5,,stimuli/card_100_transparent.png,450,100,13,0,13,0,1,,,,,,,,,,,,,,,,,,,,,,,,,,,,,,,,,,,,,,,,,,,,
,,,,662e701588c74240a03b4027,A,2024-05-21_18h37.32.931,Slot Machine Game,2023.1.3,Win32,60.24096386,,,,,,,,,,,,,,,,,,,236.3756,14,0.407,,right,1.5,,stimuli/card_100_transparent.png,550,100,14,0,14,0,1,,,,,,,,,,,,,,,,,,,,,,,,,,,,,,,,,,,,,,,,,,,,
,,,,662e701588c74240a03b4027,A,2024-05-21_18h37.32.931,Slot Machine Game,2023.1.3,Win32,60.24096386,,,,,,,,,,,,,,,,,"[6,15]","[[1,3,2],[3,1,2]]",244.1137,0,1.5949,,left,1,,stimuli/card_0_transparent.png,0,0,0,0,0,0,1,,239.1071,,,,,,,,,,,,,,,,,,,,,,,,,,,,,,,,,,,,,,,,,,
,,,,662e701588c74240a03b4027,A,2024-05-21_18h37.32.931,Slot Machine Game,2023.1.3,Win32,60.24096386,,,,,,,,,,,,,,,,,,,247.535,1,0.2844,,up,1,,stimuli/card_10_transparent.png,10,10,1,0,1,0,1,,,,,,,,,,,,,,,,,,,,,,,,,,,,,,,,,,,,,,,,,,,,
,,,,662e701588c74240a03b4027,A,2024-05-21_18h37.32.931,Slot Machine Game,2023.1.3,Win32,60.24096386,,,,,,,,,,,,,,,,,,,249.6456,2,0.6431,,right,1.5,,stimuli/card_10_transparent.png,20,10,2,0,2,0,1,,,,,,,,,,,,,,,,,,,,,,,,,,,,,,,,,,,,,,,,,,,,
,,,,662e701588c74240a03b4027,A,2024-05-21_18h37.32.931,Slot Machine Game,2023.1.3,Win32,60.24096386,,,,,,,,,,,,,,,,,,,252.6227,3,1.3382,,left,0.5,,stimuli/card_100_transparent.png,120,100,3,0,3,0,1,,,,,,,,,,,,,,,,,,,,,,,,,,,,,,,,,,,,,,,,,,,,
,,,,662e701588c74240a03b4027,A,2024-05-21_18h37.32.931,Slot Machine Game,2023.1.3,Win32,60.24096386,,,,,,,,,,,,,,,,,,,255.2746,4,0.1213,,left,0.5,,stimuli/card_10_transparent.png,130,10,4,0,4,0,1,,,,,,,,,,,,,,,,,,,,,,,,,,,,,,,,,,,,,,,,,,,,
,,,,662e701588c74240a03b4027,A,2024-05-21_18h37.32.931,Slot Machine Game,2023.1.3,Win32,60.24096386,,,,,,,,,,,,,,,,,,,256.7095,5,0.5662,,left,0.5,,stimuli/card_100_transparent.png,230,100,5,0,5,0,1,,,,,,,,,,,,,,,,,,,,,,,,,,,,,,,,,,,,,,,,,,,,
,,,,662e701588c74240a03b4027,A,2024-05-21_18h37.32.931,Slot Machine Game,2023.1.3,Win32,60.24096386,,,,,,,,,,,,,,,,,,,258.6186,6,0.0181,,left,1.5,,stimuli/card_0_transparent.png,230,0,6,0,6,0,1,,,,,,,,,,,,,,,,,,,,,,,,,,,,,,,,,,,,,,,,,,,,
,,,,662e701588c74240a03b4027,A,2024-05-21_18h37.32.931,Slot Machine Game,2023.1.3,Win32,60.24096386,,,,,,,,,,,,,,,,,,,260.9626,7,0.2014,,up,1.5,,stimuli/card_100_transparent.png,330,100,7,0,7,0,1,,,,,,,,,,,,,,,,,,,,,,,,,,,,,,,,,,,,,,,,,,,,
,,,,662e701588c74240a03b4027,A,2024-05-21_18h37.32.931,Slot Machine Game,2023.1.3,Win32,60.24096386,,,,,,,,,,,,,,,,,,,263.4815,8,0.0346,,up,0.5,,stimuli/card_100_transparent.png,430,100,8,0,8,0,1,,,,,,,,,,,,,,,,,,,,,,,,,,,,,,,,,,,,,,,,,,,,
,,,,662e701588c74240a03b4027,A,2024-05-21_18h37.32.931,Slot Machine Game,2023.1.3,Win32,60.24096386,,,,,,,,,,,,,,,,,,,264.8326,9,0.7517,,up,1,,stimuli/card_10_transparent.png,440,10,9,0,9,0,1,,,,,,,,,,,,,,,,,,,,,,,,,,,,,,,,,,,,,,,,,,,,
,,,,662e701588c74240a03b4027,A,2024-05-21_18h37.32.931,Slot Machine Game,2023.1.3,Win32,60.24096386,,,,,,,,,,,,,,,,,,,267.4013,10,0.2559,,up,1.5,,stimuli/card_10_transparent.png,450,10,10,0,10,0,1,,,,,,,,,,,,,,,,,,,,,,,,,,,,,,,,,,,,,,,,,,,,
,,,,662e701588c74240a03b4027,A,2024-05-21_18h37.32.931,Slot Machine Game,2023.1.3,Win32,60.24096386,,,,,,,,,,,,,,,,,,,269.9704,11,0.3167,,right,1.5,,stimuli/card_10_transparent.png,460,10,11,0,11,0,1,,,,,,,,,,,,,,,,,,,,,,,,,,,,,,,,,,,,,,,,,,,,
,,,,662e701588c74240a03b4027,A,2024-05-21_18h37.32.931,Slot Machine Game,2023.1.3,Win32,60.24096386,,,,,,,,,,,,,,,,,,,272.5887,12,0.4002,,up,1,,stimuli/card_100_transparent.png,560,100,12,0,12,0,1,,,,,,,,,,,,,,,,,,,,,,,,,,,,,,,,,,,,,,,,,,,,
,,,,662e701588c74240a03b4027,A,2024-05-21_18h37.32.931,Slot Machine Game,2023.1.3,Win32,60.24096386,,,,,,,,,,,,,,,,,,,274.8075,13,0.1075,,up,0.5,,stimuli/card_10_transparent.png,570,10,13,0,13,0,1,,,,,,,,,,,,,,,,,,,,,,,,,,,,,,,,,,,,,,,,,,,,
,,,,662e701588c74240a03b4027,A,2024-05-21_18h37.32.931,Slot Machine Game,2023.1.3,Win32,60.24096386,,,,,,,,,,,,,,,,,,,276.2251,14,0.3181,,up,1.5,,stimuli/card_100_transparent.png,670,100,14,0,14,0,1,,,,,,,,,,,,,,,,,,,,,,,,,,,,,,,,,,,,,,,,,,,,
,,,,662e701588c74240a03b4027,A,2024-05-21_18h37.32.931,Slot Machine Game,2023.1.3,Win32,60.24096386,,,,,,,,,,,,,,,,,,,,,,,,,,,,,,,,,,,278.8611,,,283.8663,space,5.6374,,,,,,,,,,,,,,,,,,,,,,,,,,,,,,,,,,,,,
,,,,662e701588c74240a03b4027,A,2024-05-21_18h37.32.931,Slot Machine Game,2023.1.3,Win32,60.24096386,,,,,,,,,,,,,,,,,,,,,,,,,,,,,,,,,,,,,,,,,,289.5375,2,"[2,4,8,0,1,3,9,6,8,5]",space,5.5057,,,,,,,,,,,,,,,,,,,,,,,,,,,,,,,
,,,,662e701588c74240a03b4027,A,2024-05-21_18h37.32.931,Slot Machine Game,2023.1.3,Win32,60.24096386,,,,,,,,,,,,,,,,,,,,,,,,,,,0,,,,,,,,,,,,,,,,,,,,,1,3,"[15,15]","[[3,1,2],[3,1,2]]",295.0884,0,left,0.6175,,1,0.3,"[3,1,2]",0.431109759,stimuli/card_0_transparent.png,0,0,0,0,0,1,,,,,,,,,,
,,,,662e701588c74240a03b4027,A,2024-05-21_18h37.32.931,Slot Machine Game,2023.1.3,Win32,60.24096386,,,,,,,,,,,,,,,,,,,,,,,,,,,0,,,,,,,,,,,,,,,,,,,,,1,3,,,297.5266,1,up,0.6988,,1,0.3,"[3,1,2]",0.011475095,stimuli/card_0_transparent.png,0,1,0,1,0,1,,,,,,,,,,
,,,,662e701588c74240a03b4027,A,2024-05-21_18h37.32.931,Slot Machine Game,2023.1.3,Win32,60.24096386,,,,,,,,,,,,,,,,,,,,,,,,,,,0,,,,,,,,,,,,,,,,,,,,,1,3,,,300.0451,2,right,0.3345,,1,0.3,"[3,1,2]",0.017403526,stimuli/card_0_transparent.png,0,2,0,2,0,1,,,,,,,,,,
,,,,662e701588c74240a03b4027,A,2024-05-21_18h37.32.931,Slot Machine Game,2023.1.3,Win32,60.24096386,,,,,,,,,,,,,,,,,,,,,,,,,,,100,,,,,,,,,,,,,,,,,,,,,1,3,,,302.2053,3,left,0.2707,,0.5,0.3,"[3,1,2]",0.094489481,stimuli/card_100_transparent.png,100,3,0,3,0,1,,,,,,,,,,
,,,,662e701588c74240a03b4027,A,2024-05-21_18h37.32.931,Slot Machine Game,2023.1.3,Win32,60.24096386,,,,,,,,,,,,,,,,,,,,,,,,,,,100,,,,,,,,,,,,,,,,,,,,,1,3,,,303.7984,4,left,0.0819,,0.5,0.3,"[3,1,2]",0.742893685,stimuli/card_0_transparent.png,0,4,0,4,0,1,,,,,,,,,,
,,,,662e701588c74240a03b4027,A,2024-05-21_18h37.32.931,Slot Machine Game,2023.1.3,Win32,60.24096386,,,,,,,,,,,,,,,,,,,,,,,,,,,100,,,,,,,,,,,,,,,,,,,,,1,3,,,305.1994,5,left,0.5754,,1,0.3,"[3,1,2]",0.340893569,stimuli/card_0_transparent.png,0,5,0,5,0,1,,,,,,,,,,
,,,,662e701588c74240a03b4027,A,2024-05-21_18h37.32.931,Slot Machine Game,2023.1.3,Win32,60.24096386,,,,,,,,,,,,,,,,,,,,,,,,,,,200,,,,,,,,,,,,,,,,,,,,,1,3,,,307.5849,6,up,0.3909,,0.5,0.3,"[3,1,2]",0.622725348,stimuli/card_100_transparent.png,100,6,0,6,0,1,,,,,,,,,,
,,,,662e701588c74240a03b4027,A,2024-05-21_18h37.32.931,Slot Machine Game,2023.1.3,Win32,60.24096386,,,,,,,,,,,,,,,,,,,,,,,,,,,200,,,,,,,,,,,,,,,,,,,,,1,3,,,309.3028,7,up,0.1381,,1,0.3,"[3,1,2]",0.097274282,stimuli/card_0_transparent.png,0,7,0,7,0,1,,,,,,,,,,
,,,,662e701588c74240a03b4027,A,2024-05-21_18h37.32.931,Slot Machine Game,2023.1.3,Win32,60.24096386,,,,,,,,,,,,,,,,,,,,,,,,,,,300,,,,,,,,,,,,,,,,,,,,,1,3,,,311.2712,8,up,0.5018,,0.5,0.3,"[3,1,2]",0.786544905,stimuli/card_100_transparent.png,100,8,0,8,0,1,,,,,,,,,,
,,,,662e701588c74240a03b4027,A,2024-05-21_18h37.32.931,Slot Machine Game,2023.1.3,Win32,60.24096386,,,,,,,,,,,,,,,,,,,,,,,,,,,400,,,,,,,,,,,,,,,,,,,,,1,3,,,313.0888,9,up,0.268,,1,0.3,"[3,1,2]",0.971956932,stimuli/card_100_transparent.png,100,9,0,9,0,1,,,,,,,,,,
,,,,662e701588c74240a03b4027,A,2024-05-21_18h37.32.931,Slot Machine Game,2023.1.3,Win32,60.24096386,,,,,,,,,,,,,,,,,,,,,,,,,,,500,,,,,,,,,,,,,,,,,,,,,1,3,,,315.1749,10,up,0.0675,,0.5,0.3,"[3,1,2]",0.359560808,stimuli/card_100_transparent.png,100,10,0,10,0,1,,,,,,,,,,
,,,,662e701588c74240a03b4027,A,2024-05-21_18h37.32.931,Slot Machine Game,2023.1.3,Win32,60.24096386,,,,,,,,,,,,,,,,,,,,,,,,,,,600,,,,,,,,,,,,,,,,,,,,,1,3,,,316.5753,11,up,0.2273,,1,0.3,"[3,1,2]",0.281984138,stimuli/card_100_transparent.png,100,11,0,11,0,1,,,,,,,,,,
,,,,662e701588c74240a03b4027,A,2024-05-21_18h37.32.931,Slot Machine Game,2023.1.3,Win32,60.24096386,,,,,,,,,,,,,,,,,,,,,,,,,,,600,,,,,,,,,,,,,,,,,,,,,1,3,,,318.6271,12,up,0.1013,,1,0.3,"[3,1,2]",0.083795532,stimuli/card_0_transparent.png,0,12,0,12,0,1,,,,,,,,,,
,,,,662e701588c74240a03b4027,A,2024-05-21_18h37.32.931,Slot Machine Game,2023.1.3,Win32,60.24096386,,,,,,,,,,,,,,,,,,,,,,,,,,,700,,,,,,,,,,,,,,,,,,,,,1,3,,,320.5705,13,up,0.2014,,0.5,0.3,"[3,1,2]",0.665255539,stimuli/card_100_transparent.png,100,13,0,13,0,1,,,,,,,,,,
,,,,662e701588c74240a03b4027,A,2024-05-21_18h37.32.931,Slot Machine Game,2023.1.3,Win32,60.24096386,,,,,,,,,,,,,,,,,,,,,,,,,,,800,,,,,,,,,,,,,,,,,,,,,1,3,,,322.0965,14,up,0.373,,1.5,0.3,"[3,1,2]",0.77156041,stimuli/card_100_transparent.png,100,14,0,14,0,1,,,,,,,,,,
,,,,662e701588c74240a03b4027,A,2024-05-21_18h37.32.931,Slot Machine Game,2023.1.3,Win32,60.24096386,,,,,,,,,,,,,,,,,,,,,,,,,,,,,,,,,,,324.7895,,,,,,,,,,,,,,,,,,,,,,,,,,,,,,,,,[800],0,0,0,0,1,,,,
,,,,662e701588c74240a03b4027,A,2024-05-21_18h37.32.931,Slot Machine Game,2023.1.3,Win32,60.24096386,,,,,,,,,,,,,,,,,,,,,,,,,,,100,,,,,,,,,,,,,,,,,,,,,2,5,"[5,15]","[[1,2,3],[3,1,2]]",329.7993,0,left,0.9022,,1,0.3,"[1,2,3]",0.374033091,stimuli/card_100_transparent.png,100,0,0,0,0,1,,,,,,,,,,
,,,,662e701588c74240a03b4027,A,2024-05-21_18h37.32.931,Slot Machine Game,2023.1.3,Win32,60.24096386,,,,,,,,,,,,,,,,,,,,,,,,,,,200,,,,,,,,,,,,,,,,,,,,,2,5,,,332.5122,1,left,0.1742,,1,0.3,"[1,2,3]",0.597229287,stimuli/card_100_transparent.png,100,1,0,1,0,1,,,,,,,,,,
,,,,662e701588c74240a03b4027,A,2024-05-21_18h37.32.931,Slot Machine Game,2023.1.3,Win32,60.24096386,,,,,,,,,,,,,,,,,,,,,,,,,,,300,,,,,,,,,,,,,,,,,,,,,2,5,,,334.5067,2,left,0.1169,,1.5,0.3,"[1,2,3]",0.297819623,stimuli/card_100_transparent.png,100,2,0,2,0,1,,,,,,,,,,
,,,,662e701588c74240a03b4027,A,2024-05-21_18h37.32.931,Slot Machine Game,2023.1.3,Win32,60.24096386,,,,,,,,,,,,,,,,,,,,,,,,,,,310,,,,,,,,,,,,,,,,,,,,,2,5,,,336.9501,3,left,0.0405,,0.5,0.3,"[1,2,3]",0.121895327,stimuli/card_10_transparent.png,10,3,0,3,0,1,,,,,,,,,,
,,,,662e701588c74240a03b4027,A,2024-05-21_18h37.32.931,Slot Machine Game,2023.1.3,Win32,60.24096386,,,,,,,,,,,,,,,,,,,,,,,,,,,410,,,,,,,,,,,,,,,,,,,,,2,5,,,338.31,4,left,0.6342,,0.5,0.3,"[1,2,3]",0.749194812,stimuli/card_100_transparent.png,100,4,0,4,0,1,,,,,,,,,,
,,,,662e701588c74240a03b4027,A,2024-05-21_18h37.32.931,Slot Machine Game,2023.1.3,Win32,60.24096386,,,,,,,,,,,,,,,,,,,,,,,,,,,420,,,,,,,,,,,,,,,,,,,,,2,5,,,340.2781,5,left,0.0025,,0.5,0.3,"[3,1,2]",0.17024513,stimuli/card_10_transparent.png,10,5,0,5,0,1,,,,,,,,,,
,,,,662e701588c74240a03b4027,A,2024-05-21_18h37.32.931,Slot Machine Game,2023.1.3,Win32,60.24096386,,,,,,,,,,,,,,,,,,,,,,,,,,,520,,,,,,,,,,,,,,,,,,,,,2,5,,,341.5963,6,left,0.351,,0.5,0.3,"[3,1,2]",0.081411247,stimuli/card_100_transparent.png,100,6,0,6,0,1,,,,,,,,,,
,,,,662e701588c74240a03b4027,A,2024-05-21_18h37.32.931,Slot Machine Game,2023.1.3,Win32,60.24096386,,,,,,,,,,,,,,,,,,,,,,,,,,,520,,,,,,,,,,,,,,,,,,,,,2,5,,,343.2802,7,left,0.1421,,0.5,0.3,"[3,1,2]",0.443098928,stimuli/card_0_transparent.png,0,7,0,7,0,1,,,,,,,,,,
,,,,662e701588c74240a03b4027,A,2024-05-21_18h37.32.931,Slot Machine Game,2023.1.3,Win32,60.24096386,,,,,,,,,,,,,,,,,,,,,,,,,,,520,,,,,,,,,,,,,,,,,,,,,2,5,,,344.7317,8,left,0.2914,,1,0.3,"[3,1,2]",0.854840488,stimuli/card_0_transparent.png,0,8,0,8,0,1,,,,,,,,,,
,,,,662e701588c74240a03b4027,A,2024-05-21_18h37.32.931,Slot Machine Game,2023.1.3,Win32,60.24096386,,,,,,,,,,,,,,,,,,,,,,,,,,,620,,,,,,,,,,,,,,,,,,,,,2,5,,,346.8339,9,up,0.4689,,0.5,0.3,"[3,1,2]",0.614055208,stimuli/card_100_transparent.png,100,9,0,9,0,1,,,,,,,,,,
,,,,662e701588c74240a03b4027,A,2024-05-21_18h37.32.931,Slot Machine Game,2023.1.3,Win32,60.24096386,,,,,,,,,,,,,,,,,,,,,,,,,,,720,,,,,,,,,,,,,,,,,,,,,2,5,,,348.6519,10,up,0.0999,,1,0.3,"[3,1,2]",0.835758187,stimuli/card_100_transparent.png,100,10,0,10,0,1,,,,,,,,,,
,,,,662e701588c74240a03b4027,A,2024-05-21_18h37.32.931,Slot Machine Game,2023.1.3,Win32,60.24096386,,,,,,,,,,,,,,,,,,,,,,,,,,,820,,,,,,,,,,,,,,,,,,,,,2,5,,,350.5868,11,up,0.435,,0.5,0.3,"[3,1,2]",0.250179239,stimuli/card_100_transparent.png,100,11,0,11,0,1,,,,,,,,,,
,,,,662e701588c74240a03b4027,A,2024-05-21_18h37.32.931,Slot Machine Game,2023.1.3,Win32,60.24096386,,,,,,,,,,,,,,,,,,,,,,,,,,,920,,,,,,,,,,,,,,,,,,,,,2,5,,,352.3382,12,up,0.2012,,1,0.3,"[3,1,2]",0.307451797,stimuli/card_100_transparent.png,100,12,0,12,0,1,,,,,,,,,,
,,,,662e701588c74240a03b4027,A,2024-05-21_18h37.32.931,Slot Machine Game,2023.1.3,Win32,60.24096386,,,,,,,,,,,,,,,,,,,,,,,,,,,1020,,,,,,,,,,,,,,,,,,,,,2,5,,,354.3564,13,up,0.35,,0.5,0.3,"[3,1,2]",0.538553692,stimuli/card_100_transparent.png,100,13,0,13,0,1,,,,,,,,,,
,,,,662e701588c74240a03b4027,A,2024-05-21_18h37.32.931,Slot Machine Game,2023.1.3,Win32,60.24096386,,,,,,,,,,,,,,,,,,,,,,,,,,,1120,,,,,,,,,,,,,,,,,,,,,2,5,,,356.0082,14,up,0.2505,,0.5,0.3,"[3,1,2]",0.658244382,stimuli/card_100_transparent.png,100,14,0,14,0,1,,,,,,,,,,
,,,,662e701588c74240a03b4027,A,2024-05-21_18h37.32.931,Slot Machine Game,2023.1.3,Win32,60.24096386,,,,,,,,,,,,,,,,,,,,,,,,,,,,,,,,,,,357.5839,,,,,,,,,,,,,,,,,,,,,,,,,,,,,,,,,"[800,1120]",1,0,1,0,1,,,,
,,,,662e701588c74240a03b4027,A,2024-05-21_18h37.32.931,Slot Machine Game,2023.1.3,Win32,60.24096386,,,,,,,,,,,,,,,,,,,,,,,,,,,0,,,,,,,,,,,,,,,,,,,,,3,9,"[8,15]","[[3,2,1],[3,1,2]]",362.5951,0,right,0.7721,,1.5,0.3,"[3,2,1]",0.073822976,stimuli/card_0_transparent.png,0,0,0,0,0,1,,,,,,,,,,
,,,,662e701588c74240a03b4027,A,2024-05-21_18h37.32.931,Slot Machine Game,2023.1.3,Win32,60.24096386,,,,,,,,,,,,,,,,,,,,,,,,,,,10,,,,,,,,,,,,,,,,,,,,,3,9,,,365.6725,1,up,0.1252,,1.5,0.3,"[3,2,1]",0.729503396,stimuli/card_10_transparent.png,10,1,0,1,0,1,,,,,,,,,,
,,,,662e701588c74240a03b4027,A,2024-05-21_18h37.32.931,Slot Machine Game,2023.1.3,Win32,60.24096386,,,,,,,,,,,,,,,,,,,,,,,,,,,10,,,,,,,,,,,,,,,,,,,,,3,9,,,368.1174,2,left,0.076,,1.5,0.3,"[3,2,1]",0.251773496,stimuli/card_0_transparent.png,0,2,0,2,0,1,,,,,,,,,,
,,,,662e701588c74240a03b4027,A,2024-05-21_18h37.32.931,Slot Machine Game,2023.1.3,Win32,60.24096386,,,,,,,,,,,,,,,,,,,,,,,,,,,10,,,,,,,,,,,,,,,,,,,,,3,9,,,370.503,3,left,0.5003,,1.5,0.3,"[3,2,1]",0.349692318,stimuli/card_0_transparent.png,0,3,0,3,0,1,,,,,,,,,,
,,,,662e701588c74240a03b4027,A,2024-05-21_18h37.32.931,Slot Machine Game,2023.1.3,Win32,60.24096386,,,,,,,,,,,,,,,,,,,,,,,,,,,20,,,,,,,,,,,,,,,,,,,,,3,9,,,373.3134,4,up,0.2685,,1.5,0.3,"[3,2,1]",0.936054946,stimuli/card_10_transparent.png,10,4,0,4,0,1,,,,,,,,,,
,,,,662e701588c74240a03b4027,A,2024-05-21_18h37.32.931,Slot Machine Game,2023.1.3,Win32,60.24096386,,,,,,,,,,,,,,,,,,,,,,,,,,,20,,,,,,,,,,,,,,,,,,,,,3,9,,,375.9075,5,right,0.2264,,1.5,0.3,"[3,2,1]",0.026573557,stimuli/card_0_transparent.png,0,5,0,5,0,1,,,,,,,,,,
,,,,662e701588c74240a03b4027,A,2024-05-21_18h37.32.931,Slot Machine Game,2023.1.3,Win32,60.24096386,,,,,,,,,,,,,,,,,,,,,,,,,,,120,,,,,,,,,,,,,,,,,,,,,3,9,,,378.4593,6,right,0.5185,,0.5,0.3,"[3,2,1]",0.883580184,stimuli/card_100_transparent.png,100,6,0,6,0,1,,,,,,,,,,
,,,,662e701588c74240a03b4027,A,2024-05-21_18h37.32.931,Slot Machine Game,2023.1.3,Win32,60.24096386,,,,,,,,,,,,,,,,,,,,,,,,,,,220,,,,,,,,,,,,,,,,,,,,,3,9,,,380.3023,7,right,0.3502,,1,0.3,"[3,2,1]",0.834243105,stimuli/card_100_transparent.png,100,7,0,7,0,1,,,,,,,,,,
,,,,662e701588c74240a03b4027,A,2024-05-21_18h37.32.931,Slot Machine Game,2023.1.3,Win32,60.24096386,,,,,,,,,,,,,,,,,,,,,,,,,,,230,,,,,,,,,,,,,,,,,,,,,3,9,,,382.4798,8,right,0.2695,,1.5,0.3,"[3,1,2]",0.501671264,stimuli/card_10_transparent.png,10,8,0,8,0,1,,,,,,,,,,
,,,,662e701588c74240a03b4027,A,2024-05-21_18h37.32.931,Slot Machine Game,2023.1.3,Win32,60.24096386,,,,,,,,,,,,,,,,,,,,,,,,,,,240,,,,,,,,,,,,,,,,,,,,,3,9,,,385.0648,9,right,0.0725,,1,0.3,"[3,1,2]",0.323308177,stimuli/card_10_transparent.png,10,9,0,9,0,1,,,,,,,,,,
,,,,662e701588c74240a03b4027,A,2024-05-21_18h37.32.931,Slot Machine Game,2023.1.3,Win32,60.24096386,,,,,,,,,,,,,,,,,,,,,,,,,,,340,,,,,,,,,,,,,,,,,,,,,3,9,,,386.9669,10,up,0.3343,,0.5,0.3,"[3,1,2]",0.742902118,stimuli/card_100_transparent.png,100,10,0,10,0,1,,,,,,,,,,
,,,,662e701588c74240a03b4027,A,2024-05-21_18h37.32.931,Slot Machine Game,2023.1.3,Win32,60.24096386,,,,,,,,,,,,,,,,,,,,,,,,,,,440,,,,,,,,,,,,,,,,,,,,,3,9,,,388.6347,11,up,0.1333,,0.5,0.3,"[3,1,2]",0.281403523,stimuli/card_100_transparent.png,100,11,0,11,0,1,,,,,,,,,,
,,,,662e701588c74240a03b4027,A,2024-05-21_18h37.32.931,Slot Machine Game,2023.1.3,Win32,60.24096386,,,,,,,,,,,,,,,,,,,,,,,,,,,450,,,,,,,,,,,,,,,,,,,,,3,9,,,390.0688,12,up,0.1042,,0.5,0.3,"[3,1,2]",0.19614425,stimuli/card_10_transparent.png,10,12,0,12,0,1,,,,,,,,,,
,,,,662e701588c74240a03b4027,A,2024-05-21_18h37.32.931,Slot Machine Game,2023.1.3,Win32,60.24096386,,,,,,,,,,,,,,,,,,,,,,,,,,,550,,,,,,,,,,,,,,,,,,,,,3,9,,,391.4864,13,up,0.1347,,1,0.3,"[3,1,2]",0.778056909,stimuli/card_100_transparent.png,100,13,0,13,0,1,,,,,,,,,,
,,,,662e701588c74240a03b4027,A,2024-05-21_18h37.32.931,Slot Machine Game,2023.1.3,Win32,60.24096386,,,,,,,,,,,,,,,,,,,,,,,,,,,650,,,,,,,,,,,,,,,,,,,,,3,9,,,393.4384,14,up,0.0058,,1.5,0.3,"[3,1,2]",0.203075318,stimuli/card_100_transparent.png,100,14,0,14,0,1,,,,,,,,,,
,,,,662e701588c74240a03b4027,A,2024-05-21_18h37.32.931,Slot Machine Game,2023.1.3,Win32,60.24096386,,,,,,,,,,,,,,,,,,,,,,,,,,,,,,,,,,,395.7732,,,,,,,,,,,,,,,,,,,,,,,,,,,,,,,,,"[800,1120,650]",2,0,2,0,1,,,,
,,,,662e701588c74240a03b4027,A,2024-05-21_18h37.32.931,Slot Machine Game,2023.1.3,Win32,60.24096386,,,,,,,,,,,,,,,,,,,,,,,,,,,10,,,,,,,,,,,,,,,,,,,,,4,1,"[12,15]","[[2,1,3],[2,3,1]]",400.7912,0,left,0.2167,,0.5,0.3,"[2,1,3]",0.864202477,stimuli/card_10_transparent.png,10,0,0,0,0,1,,,,,,,,,,
,,,,662e701588c74240a03b4027,A,2024-05-21_18h37.32.931,Slot Machine Game,2023.1.3,Win32,60.24096386,,,,,,,,,,,,,,,,,,,,,,,,,,,20,,,,,,,,,,,,,,,,,,,,,4,1,,,402.3291,1,up,0.1728,,0.5,0.3,"[2,1,3]",0.128802416,stimuli/card_10_transparent.png,10,1,0,1,0,1,,,,,,,,,,
,,,,662e701588c74240a03b4027,A,2024-05-21_18h37.32.931,Slot Machine Game,2023.1.3,Win32,60.24096386,,,,,,,,,,,,,,,,,,,,,,,,,,,20,,,,,,,,,,,,,,,,,,,,,4,1,,,403.8138,2,right,0.2417,,0.5,0.3,"[2,1,3]",0.854271767,stimuli/card_0_transparent.png,0,2,0,2,0,1,,,,,,,,,,
,,,,662e701588c74240a03b4027,A,2024-05-21_18h37.32.931,Slot Machine Game,2023.1.3,Win32,60.24096386,,,,,,,,,,,,,,,,,,,,,,,,,,,120,,,,,,,,,,,,,,,,,,,,,4,1,,,405.3569,3,left,0.274,,1,0.3,"[2,1,3]",0.170670469,stimuli/card_100_transparent.png,100,3,0,3,0,1,,,,,,,,,,
,,,,662e701588c74240a03b4027,A,2024-05-21_18h37.32.931,Slot Machine Game,2023.1.3,Win32,60.24096386,,,,,,,,,,,,,,,,,,,,,,,,,,,220,,,,,,,,,,,,,,,,,,,,,4,1,,,407.4498,4,left,0.3677,,0.5,0.3,"[2,1,3]",0.188341896,stimuli/card_100_transparent.png,100,4,0,4,0,1,,,,,,,,,,
,,,,662e701588c74240a03b4027,A,2024-05-21_18h37.32.931,Slot Machine Game,2023.1.3,Win32,60.24096386,,,,,,,,,,,,,,,,,,,,,,,,,,,230,,,,,,,,,,,,,,,,,,,,,4,1,,,409.1352,5,left,0.0438,,0.5,0.3,"[2,1,3]",0.508782685,stimuli/card_10_transparent.png,10,5,0,5,0,1,,,,,,,,,,
,,,,662e701588c74240a03b4027,A,2024-05-21_18h37.32.931,Slot Machine Game,2023.1.3,Win32,60.24096386,,,,,,,,,,,,,,,,,,,,,,,,,,,240,,,,,,,,,,,,,,,,,,,,,4,1,,,410.5113,6,left,0.3324,,1,0.3,"[2,1,3]",0.571269214,stimuli/card_10_transparent.png,10,6,0,6,0,1,,,,,,,,,,
,,,,662e701588c74240a03b4027,A,2024-05-21_18h37.32.931,Slot Machine Game,2023.1.3,Win32,60.24096386,,,,,,,,,,,,,,,,,,,,,,,,,,,250,,,,,,,,,,,,,,,,,,,,,4,1,,,412.6546,7,left,0.3275,,1.5,0.3,"[2,1,3]",0.829321025,stimuli/card_10_transparent.png,10,7,0,7,0,1,,,,,,,,,,
,,,,662e701588c74240a03b4027,A,2024-05-21_18h37.32.931,Slot Machine Game,2023.1.3,Win32,60.24096386,,,,,,,,,,,,,,,,,,,,,,,,,,,350,,,,,,,,,,,,,,,,,,,,,4,1,,,415.3068,8,up,0.2831,,1,0.3,"[2,1,3]",0.951469099,stimuli/card_100_transparent.png,100,8,0,8,0,1,,,,,,,,,,
,,,,662e701588c74240a03b4027,A,2024-05-21_18h37.32.931,Slot Machine Game,2023.1.3,Win32,60.24096386,,,,,,,,,,,,,,,,,,,,,,,,,,,450,,,,,,,,,,,,,,,,,,,,,4,1,,,417.4086,9,up,0.0354,,1,0.3,"[2,1,3]",0.476168046,stimuli/card_100_transparent.png,100,9,0,9,0,1,,,,,,,,,,
,,,,662e701588c74240a03b4027,A,2024-05-21_18h37.32.931,Slot Machine Game,2023.1.3,Win32,60.24096386,,,,,,,,,,,,,,,,,,,,,,,,,,,550,,,,,,,,,,,,,,,,,,,,,4,1,,,419.2765,10,up,0.2748,,1,0.3,"[2,1,3]",0.992905254,stimuli/card_100_transparent.png,100,10,0,10,0,1,,,,,,,,,,
,,,,662e701588c74240a03b4027,A,2024-05-21_18h37.32.931,Slot Machine Game,2023.1.3,Win32,60.24096386,,,,,,,,,,,,,,,,,,,,,,,,,,,650,,,,,,,,,,,,,,,,,,,,,4,1,,,421.3781,11,up,0.0007,,0.5,0.3,"[2,1,3]",0.33884663,stimuli/card_100_transparent.png,100,11,0,11,0,1,,,,,,,,,,
,,,,662e701588c74240a03b4027,A,2024-05-21_18h37.32.931,Slot Machine Game,2023.1.3,Win32,60.24096386,,,,,,,,,,,,,,,,,,,,,,,,,,,650,,,,,,,,,,,,,,,,,,,,,4,1,,,422.6956,12,up,0.0026,,1,0.3,"[2,3,1]",0.911997422,stimuli/card_0_transparent.png,0,12,0,12,0,1,,,,,,,,,,
,,,,662e701588c74240a03b4027,A,2024-05-21_18h37.32.931,Slot Machine Game,2023.1.3,Win32,60.24096386,,,,,,,,,,,,,,,,,,,,,,,,,,,650,,,,,,,,,,,,,,,,,,,,,4,1,,,424.5141,13,up,0.0739,,1,0.3,"[2,3,1]",0.838514242,stimuli/card_0_transparent.png,0,13,0,13,0,1,,,,,,,,,,
,,,,662e701588c74240a03b4027,A,2024-05-21_18h37.32.931,Slot Machine Game,2023.1.3,Win32,60.24096386,,,,,,,,,,,,,,,,,,,,,,,,,,,750,,,,,,,,,,,,,,,,,,,,,4,1,,,426.3821,14,right,0.2526,,1.5,0.3,"[2,3,1]",0.377309858,stimuli/card_100_transparent.png,100,14,0,14,0,1,,,,,,,,,,
,,,,662e701588c74240a03b4027,A,2024-05-21_18h37.32.931,Slot Machine Game,2023.1.3,Win32,60.24096386,,,,,,,,,,,,,,,,,,,,,,,,,,,,,,,,,,,428.9677,,,,,,,,,,,,,,,,,,,,,,,,,,,,,,,,,"[800,1120,650,750]",3,0,3,0,1,,,,
,,,,662e701588c74240a03b4027,A,2024-05-21_18h37.32.931,Slot Machine Game,2023.1.3,Win32,60.24096386,,,,,,,,,,,,,,,,,,,,,,,,,,,10,,,,,,,,,,,,,,,,,,,,,5,2,"[6,15]","[[1,3,2],[3,2,1]]",433.9882,0,right,1.6101,,1,0.3,"[1,3,2]",0.293689316,stimuli/card_10_transparent.png,10,0,0,0,0,1,,,,,,,,,,
,,,,662e701588c74240a03b4027,A,2024-05-21_18h37.32.931,Slot Machine Game,2023.1.3,Win32,60.24096386,,,,,,,,,,,,,,,,,,,,,,,,,,,10,,,,,,,,,,,,,,,,,,,,,5,2,,,437.4081,1,up,0.1007,,0.5,0.3,"[1,3,2]",0.46074607,stimuli/card_0_transparent.png,0,1,0,1,0,1,,,,,,,,,,
,,,,662e701588c74240a03b4027,A,2024-05-21_18h37.32.931,Slot Machine Game,2023.1.3,Win32,60.24096386,,,,,,,,,,,,,,,,,,,,,,,,,,,10,,,,,,,,,,,,,,,,,,,,,5,2,,,438.8091,2,left,0.3335,,0.5,0.3,"[1,3,2]",0.049888399,stimuli/card_0_transparent.png,0,2,0,2,0,1,,,,,,,,,,
,,,,662e701588c74240a03b4027,A,2024-05-21_18h37.32.931,Slot Machine Game,2023.1.3,Win32,60.24096386,,,,,,,,,,,,,,,,,,,,,,,,,,,110,,,,,,,,,,,,,,,,,,,,,5,2,,,440.4775,3,right,0.3506,,0.5,0.3,"[1,3,2]",0.150433347,stimuli/card_100_transparent.png,100,3,0,3,0,1,,,,,,,,,,
,,,,662e701588c74240a03b4027,A,2024-05-21_18h37.32.931,Slot Machine Game,2023.1.3,Win32,60.24096386,,,,,,,,,,,,,,,,,,,,,,,,,,,120,,,,,,,,,,,,,,,,,,,,,5,2,,,442.1617,4,right,0.4498,,1,0.3,"[1,3,2]",0.280741088,stimuli/card_10_transparent.png,10,4,0,4,0,1,,,,,,,,,,
,,,,662e701588c74240a03b4027,A,2024-05-21_18h37.32.931,Slot Machine Game,2023.1.3,Win32,60.24096386,,,,,,,,,,,,,,,,,,,,,,,,,,,130,,,,,,,,,,,,,,,,,,,,,5,2,,,444.4142,5,right,0.1268,,1.5,0.3,"[1,3,2]",0.725870623,stimuli/card_10_transparent.png,10,5,0,5,0,1,,,,,,,,,,
,,,,662e701588c74240a03b4027,A,2024-05-21_18h37.32.931,Slot Machine Game,2023.1.3,Win32,60.24096386,,,,,,,,,,,,,,,,,,,,,,,,,,,140,,,,,,,,,,,,,,,,,,,,,5,2,,,446.866,6,up,0.2721,,0.5,0.3,"[3,2,1]",0.444383849,stimuli/card_10_transparent.png,10,6,0,6,0,1,,,,,,,,,,
,,,,662e701588c74240a03b4027,A,2024-05-21_18h37.32.931,Slot Machine Game,2023.1.3,Win32,60.24096386,,,,,,,,,,,,,,,,,,,,,,,,,,,140,,,,,,,,,,,,,,,,,,,,,5,2,,,448.4503,7,left,1.1179,,1,0.3,"[3,2,1]",0.295265869,stimuli/card_0_transparent.png,0,7,0,7,0,1,,,,,,,,,,
,,,,662e701588c74240a03b4027,A,2024-05-21_18h37.32.931,Slot Machine Game,2023.1.3,Win32,60.24096386,,,,,,,,,,,,,,,,,,,,,,,,,,,240,,,,,,,,,,,,,,,,,,,,,5,2,,,451.386,8,right,0.8551,,1,0.3,"[3,2,1]",0.749826855,stimuli/card_100_transparent.png,100,8,0,8,0,1,,,,,,,,,,
,,,,662e701588c74240a03b4027,A,2024-05-21_18h37.32.931,Slot Machine Game,2023.1.3,Win32,60.24096386,,,,,,,,,,,,,,,,,,,,,,,,,,,250,,,,,,,,,,,,,,,,,,,,,5,2,,,454.0386,9,right,0.059,,1.5,0.3,"[3,2,1]",0.196000036,stimuli/card_10_transparent.png,10,9,0,9,0,1,,,,,,,,,,
,,,,662e701588c74240a03b4027,A,2024-05-21_18h37.32.931,Slot Machine Game,2023.1.3,Win32,60.24096386,,,,,,,,,,,,,,,,,,,,,,,,,,,260,,,,,,,,,,,,,,,,,,,,,5,2,,,456.396,10,up,1.0029,,0.5,0.3,"[3,2,1]",0.548174734,stimuli/card_10_transparent.png,10,10,0,10,0,1,,,,,,,,,,
,,,,662e701588c74240a03b4027,A,2024-05-21_18h37.32.931,Slot Machine Game,2023.1.3,Win32,60.24096386,,,,,,,,,,,,,,,,,,,,,,,,,,,360,,,,,,,,,,,,,,,,,,,,,5,2,,,458.7254,11,right,0.1526,,1,0.3,"[3,2,1]",0.961443778,stimuli/card_100_transparent.png,100,11,0,11,0,1,,,,,,,,,,
,,,,662e701588c74240a03b4027,A,2024-05-21_18h37.32.931,Slot Machine Game,2023.1.3,Win32,60.24096386,,,,,,,,,,,,,,,,,,,,,,,,,,,460,,,,,,,,,,,,,,,,,,,,,5,2,,,460.7106,12,right,0.1505,,1,0.3,"[3,2,1]",0.730855255,stimuli/card_100_transparent.png,100,12,0,12,0,1,,,,,,,,,,
,,,,662e701588c74240a03b4027,A,2024-05-21_18h37.32.931,Slot Machine Game,2023.1.3,Win32,60.24096386,,,,,,,,,,,,,,,,,,,,,,,,,,,460,,,,,,,,,,,,,,,,,,,,,5,2,,,462.6789,13,right,0.0157,,1.5,0.3,"[3,2,1]",0.066744135,stimuli/card_0_transparent.png,0,13,0,13,0,1,,,,,,,,,,
,,,,662e701588c74240a03b4027,A,2024-05-21_18h37.32.931,Slot Machine Game,2023.1.3,Win32,60.24096386,,,,,,,,,,,,,,,,,,,,,,,,,,,560,,,,,,,,,,,,,,,,,,,,,5,2,,,465.0138,14,right,0.0506,,0.5,0.3,"[3,2,1]",0.656233307,stimuli/card_100_transparent.png,100,14,0,14,0,1,,,,,,,,,,
,,,,662e701588c74240a03b4027,A,2024-05-21_18h37.32.931,Slot Machine Game,2023.1.3,Win32,60.24096386,,,,,,,,,,,,,,,,,,,,,,,,,,,,,,,,,,,466.3814,,,,,,,,,,,,,,,,,,,,,,,,,,,,,,,,,"[800,1120,650,750,560]",4,0,4,0,1,,,,
,,,,662e701588c74240a03b4027,A,2024-05-21_18h37.32.931,Slot Machine Game,2023.1.3,Win32,60.24096386,,,,,,,,,,,,,,,,,,,,,,,,,,,0,,,,,,,,,,,,,,,,,,,,,6,4,"[7,15]","[[2,3,1],[1,2,3]]",471.3996,0,up,1.4561,,0.5,0.3,"[2,3,1]",0.536457108,stimuli/card_0_transparent.png,0,0,0,0,0,1,,,,,,,,,,
,,,,662e701588c74240a03b4027,A,2024-05-21_18h37.32.931,Slot Machine Game,2023.1.3,Win32,60.24096386,,,,,,,,,,,,,,,,,,,,,,,,,,,0,,,,,,,,,,,,,,,,,,,,,6,4,,,474.1714,1,left,0.3025,,1.5,0.3,"[2,3,1]",0.074391415,stimuli/card_0_transparent.png,0,1,0,1,0,1,,,,,,,,,,
,,,,662e701588c74240a03b4027,A,2024-05-21_18h37.32.931,Slot Machine Game,2023.1.3,Win32,60.24096386,,,,,,,,,,,,,,,,,,,,,,,,,,,0,,,,,,,,,,,,,,,,,,,,,6,4,,,476.791,2,right,0.2342,,1,0.3,"[2,3,1]",0.063125803,stimuli/card_0_transparent.png,0,2,0,2,0,1,,,,,,,,,,
,,,,662e701588c74240a03b4027,A,2024-05-21_18h37.32.931,Slot Machine Game,2023.1.3,Win32,60.24096386,,,,,,,,,,,,,,,,,,,,,,,,,,,10,,,,,,,,,,,,,,,,,,,,,6,4,,,478.859,3,left,0.1334,,0.5,0.3,"[2,3,1]",0.392986218,stimuli/card_10_transparent.png,10,3,0,3,0,1,,,,,,,,,,
,,,,662e701588c74240a03b4027,A,2024-05-21_18h37.32.931,Slot Machine Game,2023.1.3,Win32,60.24096386,,,,,,,,,,,,,,,,,,,,,,,,,,,110,,,,,,,,,,,,,,,,,,,,,6,4,,,480.3437,4,up,0.2747,,1.5,0.3,"[2,3,1]",0.027371143,stimuli/card_100_transparent.png,100,4,0,4,0,1,,,,,,,,,,
,,,,662e701588c74240a03b4027,A,2024-05-21_18h37.32.931,Slot Machine Game,2023.1.3,Win32,60.24096386,,,,,,,,,,,,,,,,,,,,,,,,,,,120,,,,,,,,,,,,,,,,,,,,,6,4,,,482.9456,5,up,0.0581,,1,0.3,"[2,3,1]",0.179911657,stimuli/card_10_transparent.png,10,5,0,5,0,1,,,,,,,,,,
,,,,662e701588c74240a03b4027,A,2024-05-21_18h37.32.931,Slot Machine Game,2023.1.3,Win32,60.24096386,,,,,,,,,,,,,,,,,,,,,,,,,,,220,,,,,,,,,,,,,,,,,,,,,6,4,,,484.8298,6,right,0.4151,,0.5,0.3,"[2,3,1]",0.425596275,stimuli/card_100_transparent.png,100,6,0,6,0,1,,,,,,,,,,
,,,,662e701588c74240a03b4027,A,2024-05-21_18h37.32.931,Slot Machine Game,2023.1.3,Win32,60.24096386,,,,,,,,,,,,,,,,,,,,,,,,,,,320,,,,,,,,,,,,,,,,,,,,,6,4,,,486.565,7,right,0.0006,,1.5,0.3,"[1,2,3]",0.090731456,stimuli/card_100_transparent.png,100,7,0,7,0,1,,,,,,,,,,
,,,,662e701588c74240a03b4027,A,2024-05-21_18h37.32.931,Slot Machine Game,2023.1.3,Win32,60.24096386,,,,,,,,,,,,,,,,,,,,,,,,,,,420,,,,,,,,,,,,,,,,,,,,,6,4,,,488.8841,8,right,0.3409,,1,0.3,"[1,2,3]",0.038704468,stimuli/card_100_transparent.png,100,8,0,8,0,1,,,,,,,,,,
,,,,662e701588c74240a03b4027,A,2024-05-21_18h37.32.931,Slot Machine Game,2023.1.3,Win32,60.24096386,,,,,,,,,,,,,,,,,,,,,,,,,,,420,,,,,,,,,,,,,,,,,,,,,6,4,,,491.052,9,right,0.3004,,1,0.3,"[1,2,3]",0.433742634,stimuli/card_0_transparent.png,0,9,0,9,0,1,,,,,,,,,,
,,,,662e701588c74240a03b4027,A,2024-05-21_18h37.32.931,Slot Machine Game,2023.1.3,Win32,60.24096386,,,,,,,,,,,,,,,,,,,,,,,,,,,520,,,,,,,,,,,,,,,,,,,,,6,4,,,493.1705,10,right,0.102,,1.5,0.3,"[1,2,3]",0.032730197,stimuli/card_100_transparent.png,100,10,0,10,0,1,,,,,,,,,,
,,,,662e701588c74240a03b4027,A,2024-05-21_18h37.32.931,Slot Machine Game,2023.1.3,Win32,60.24096386,,,,,,,,,,,,,,,,,,,,,,,,,,,530,,,,,,,,,,,,,,,,,,,,,6,4,,,495.589,11,right,0.1832,,1,0.3,"[1,2,3]",0.156796182,stimuli/card_10_transparent.png,10,11,0,11,0,1,,,,,,,,,,
,,,,662e701588c74240a03b4027,A,2024-05-21_18h37.32.931,Slot Machine Game,2023.1.3,Win32,60.24096386,,,,,,,,,,,,,,,,,,,,,,,,,,,530,,,,,,,,,,,,,,,,,,,,,6,4,,,497.5981,12,right,0.3077,,1.5,0.3,"[1,2,3]",0.930289923,stimuli/card_0_transparent.png,0,12,0,12,0,1,,,,,,,,,,
,,,,662e701588c74240a03b4027,A,2024-05-21_18h37.32.931,Slot Machine Game,2023.1.3,Win32,60.24096386,,,,,,,,,,,,,,,,,,,,,,,,,,,540,,,,,,,,,,,,,,,,,,,,,6,4,,,500.2263,13,up,0.2821,,0.5,0.3,"[1,2,3]",0.792523505,stimuli/card_10_transparent.png,10,13,0,13,0,1,,,,,,,,,,
,,,,662e701588c74240a03b4027,A,2024-05-21_18h37.32.931,Slot Machine Game,2023.1.3,Win32,60.24096386,,,,,,,,,,,,,,,,,,,,,,,,,,,640,,,,,,,,,,,,,,,,,,,,,6,4,,,501.8278,14,left,0.3171,,1.5,0.3,"[1,2,3]",0.265906954,stimuli/card_100_transparent.png,100,14,0,14,0,1,,,,,,,,,,
,,,,662e701588c74240a03b4027,A,2024-05-21_18h37.32.931,Slot Machine Game,2023.1.3,Win32,60.24096386,,,,,,,,,,,,,,,,,,,,,,,,,,,,,,,,,,,504.4534,,,,,,,,,,,,,,,,,,,,,,,,,,,,,,,,,"[800,1120,650,750,560,640]",5,0,5,0,1,,,,
,,,,662e701588c74240a03b4027,A,2024-05-21_18h37.32.931,Slot Machine Game,2023.1.3,Win32,60.24096386,,,,,,,,,,,,,,,,,,,,,,,,,,,100,,,,,,,,,,,,,,,,,,,,,7,10,"[10,15]","[[3,1,2],[1,3,2]]",509.4647,0,left,1.3021,,1.5,0.3,"[3,1,2]",0.012453524,stimuli/card_100_transparent.png,100,0,0,0,0,1,,,,,,,,,,
,,,,662e701588c74240a03b4027,A,2024-05-21_18h37.32.931,Slot Machine Game,2023.1.3,Win32,60.24096386,,,,,,,,,,,,,,,,,,,,,,,,,,,100,,,,,,,,,,,,,,,,,,,,,7,10,,,513.0787,1,left,0.3088,,1,0.3,"[3,1,2]",0.682121853,stimuli/card_0_transparent.png,0,1,0,1,0,1,,,,,,,,,,
,,,,662e701588c74240a03b4027,A,2024-05-21_18h37.32.931,Slot Machine Game,2023.1.3,Win32,60.24096386,,,,,,,,,,,,,,,,,,,,,,,,,,,100,,,,,,,,,,,,,,,,,,,,,7,10,,,515.2224,2,left,0.2186,,1,0.3,"[3,1,2]",0.365198679,stimuli/card_0_transparent.png,0,2,0,2,0,1,,,,,,,,,,
,,,,662e701588c74240a03b4027,A,2024-05-21_18h37.32.931,Slot Machine Game,2023.1.3,Win32,60.24096386,,,,,,,,,,,,,,,,,,,,,,,,,,,200,,,,,,,,,,,,,,,,,,,,,7,10,,,517.274,3,up,0.1011,,1,0.3,"[3,1,2]",0.513546744,stimuli/card_100_transparent.png,100,3,0,3,0,1,,,,,,,,,,
,,,,662e701588c74240a03b4027,A,2024-05-21_18h37.32.931,Slot Machine Game,2023.1.3,Win32,60.24096386,,,,,,,,,,,,,,,,,,,,,,,,,,,300,,,,,,,,,,,,,,,,,,,,,7,10,,,519.2087,4,up,0.249,,1,0.3,"[3,1,2]",0.238563439,stimuli/card_100_transparent.png,100,4,0,4,0,1,,,,,,,,,,
,,,,662e701588c74240a03b4027,A,2024-05-21_18h37.32.931,Slot Machine Game,2023.1.3,Win32,60.24096386,,,,,,,,,,,,,,,,,,,,,,,,,,,400,,,,,,,,,,,,,,,,,,,,,7,10,,,521.2605,5,up,0.2028,,1.5,0.3,"[3,1,2]",0.992301398,stimuli/card_100_transparent.png,100,5,0,5,0,1,,,,,,,,,,
,,,,662e701588c74240a03b4027,A,2024-05-21_18h37.32.931,Slot Machine Game,2023.1.3,Win32,60.24096386,,,,,,,,,,,,,,,,,,,,,,,,,,,500,,,,,,,,,,,,,,,,,,,,,7,10,,,523.7791,6,up,0.1055,,1.5,0.3,"[3,1,2]",0.301569032,stimuli/card_100_transparent.png,100,6,0,6,0,1,,,,,,,,,,
,,,,662e701588c74240a03b4027,A,2024-05-21_18h37.32.931,Slot Machine Game,2023.1.3,Win32,60.24096386,,,,,,,,,,,,,,,,,,,,,,,,,,,600,,,,,,,,,,,,,,,,,,,,,7,10,,,526.2019,7,up,0.1192,,1.5,0.3,"[3,1,2]",0.833068932,stimuli/card_100_transparent.png,100,7,0,7,0,1,,,,,,,,,,
,,,,662e701588c74240a03b4027,A,2024-05-21_18h37.32.931,Slot Machine Game,2023.1.3,Win32,60.24096386,,,,,,,,,,,,,,,,,,,,,,,,,,,700,,,,,,,,,,,,,,,,,,,,,7,10,,,528.6495,8,up,0.1578,,1,0.3,"[3,1,2]",0.655207281,stimuli/card_100_transparent.png,100,8,0,8,0,1,,,,,,,,,,
,,,,662e701588c74240a03b4027,A,2024-05-21_18h37.32.931,Slot Machine Game,2023.1.3,Win32,60.24096386,,,,,,,,,,,,,,,,,,,,,,,,,,,800,,,,,,,,,,,,,,,,,,,,,7,10,,,530.6261,9,up,0.1703,,1,0.3,"[3,1,2]",0.547848522,stimuli/card_100_transparent.png,100,9,0,9,0,1,,,,,,,,,,
,,,,662e701588c74240a03b4027,A,2024-05-21_18h37.32.931,Slot Machine Game,2023.1.3,Win32,60.24096386,,,,,,,,,,,,,,,,,,,,,,,,,,,800,,,,,,,,,,,,,,,,,,,,,7,10,,,532.6107,10,up,0.2442,,1.5,0.3,"[1,3,2]",0.881150226,stimuli/card_0_transparent.png,0,10,0,10,0,1,,,,,,,,,,
,,,,662e701588c74240a03b4027,A,2024-05-21_18h37.32.931,Slot Machine Game,2023.1.3,Win32,60.24096386,,,,,,,,,,,,,,,,,,,,,,,,,,,810,,,,,,,,,,,,,,,,,,,,,7,10,,,535.172,11,up,0.5872,,1,0.3,"[1,3,2]",0.15863137,stimuli/card_10_transparent.png,10,11,0,11,0,1,,,,,,,,,,
,,,,662e701588c74240a03b4027,A,2024-05-21_18h37.32.931,Slot Machine Game,2023.1.3,Win32,60.24096386,,,,,,,,,,,,,,,,,,,,,,,,,,,820,,,,,,,,,,,,,,,,,,,,,7,10,,,537.5908,12,right,0.903,,0.5,0.3,"[1,3,2]",0.503424722,stimuli/card_10_transparent.png,10,12,0,12,0,1,,,,,,,,,,
,,,,662e701588c74240a03b4027,A,2024-05-21_18h37.32.931,Slot Machine Game,2023.1.3,Win32,60.24096386,,,,,,,,,,,,,,,,,,,,,,,,,,,920,,,,,,,,,,,,,,,,,,,,,7,10,,,539.8259,13,left,0.4009,,1,0.3,"[1,3,2]",0.309158647,stimuli/card_100_transparent.png,100,13,0,13,0,1,,,,,,,,,,
,,,,662e701588c74240a03b4027,A,2024-05-21_18h37.32.931,Slot Machine Game,2023.1.3,Win32,60.24096386,,,,,,,,,,,,,,,,,,,,,,,,,,,930,,,,,,,,,,,,,,,,,,,,,7,10,,,542.0607,14,left,0.2195,,1,0.3,"[1,3,2]",0.190918913,stimuli/card_10_transparent.png,10,14,0,14,0,1,,,,,,,,,,
,,,,662e701588c74240a03b4027,A,2024-05-21_18h37.32.931,Slot Machine Game,2023.1.3,Win32,60.24096386,,,,,,,,,,,,,,,,,,,,,,,,,,,,,,,,,,,544.0959,,,,,,,,,,,,,,,,,,,,,,,,,,,,,,,,,"[800,1120,650,750,560,640,930]",6,0,6,0,1,,,,
,,,,662e701588c74240a03b4027,A,2024-05-21_18h37.32.931,Slot Machine Game,2023.1.3,Win32,60.24096386,,,,,,,,,,,,,,,,,,,,,,,,,,,10,,,,,,,,,,,,,,,,,,,,,8,7,"[9,15]","[[1,3,2],[2,3,1]]",549.1058,0,right,0.9406,,0.5,0.3,"[1,3,2]",0.906391473,stimuli/card_10_transparent.png,10,0,0,0,0,1,,,,,,,,,,
,,,,662e701588c74240a03b4027,A,2024-05-21_18h37.32.931,Slot Machine Game,2023.1.3,Win32,60.24096386,,,,,,,,,,,,,,,,,,,,,,,,,,,20,,,,,,,,,,,,,,,,,,,,,8,7,,,551.3685,1,right,0.2701,,0.5,0.3,"[1,3,2]",0.60104029,stimuli/card_10_transparent.png,10,1,0,1,0,1,,,,,,,,,,
,,,,662e701588c74240a03b4027,A,2024-05-21_18h37.32.931,Slot Machine Game,2023.1.3,Win32,60.24096386,,,,,,,,,,,,,,,,,,,,,,,,,,,30,,,,,,,,,,,,,,,,,,,,,8,7,,,552.9528,2,up,0.2012,,0.5,0.3,"[1,3,2]",0.114948606,stimuli/card_10_transparent.png,10,2,0,2,0,1,,,,,,,,,,
,,,,662e701588c74240a03b4027,A,2024-05-21_18h37.32.931,Slot Machine Game,2023.1.3,Win32,60.24096386,,,,,,,,,,,,,,,,,,,,,,,,,,,130,,,,,,,,,,,,,,,,,,,,,8,7,,,554.4706,3,left,0.1583,,1,0.3,"[1,3,2]",0.279913781,stimuli/card_100_transparent.png,100,3,0,3,0,1,,,,,,,,,,
,,,,662e701588c74240a03b4027,A,2024-05-21_18h37.32.931,Slot Machine Game,2023.1.3,Win32,60.24096386,,,,,,,,,,,,,,,,,,,,,,,,,,,230,,,,,,,,,,,,,,,,,,,,,8,7,,,556.4392,4,left,0.3894,,0.5,0.3,"[1,3,2]",0.87029014,stimuli/card_100_transparent.png,100,4,0,4,0,1,,,,,,,,,,
,,,,662e701588c74240a03b4027,A,2024-05-21_18h37.32.931,Slot Machine Game,2023.1.3,Win32,60.24096386,,,,,,,,,,,,,,,,,,,,,,,,,,,330,,,,,,,,,,,,,,,,,,,,,8,7,,,558.1405,5,left,0.0271,,1.5,0.3,"[1,3,2]",0.816897706,stimuli/card_100_transparent.png,100,5,0,5,0,1,,,,,,,,,,
,,,,662e701588c74240a03b4027,A,2024-05-21_18h37.32.931,Slot Machine Game,2023.1.3,Win32,60.24096386,,,,,,,,,,,,,,,,,,,,,,,,,,,430,,,,,,,,,,,,,,,,,,,,,8,7,,,560.4922,6,left,0.2177,,1,0.3,"[1,3,2]",0.547703286,stimuli/card_100_transparent.png,100,6,0,6,0,1,,,,,,,,,,
,,,,662e701588c74240a03b4027,A,2024-05-21_18h37.32.931,Slot Machine Game,2023.1.3,Win32,60.24096386,,,,,,,,,,,,,,,,,,,,,,,,,,,530,,,,,,,,,,,,,,,,,,,,,8,7,,,562.528,7,left,0.0748,,0.5,0.3,"[1,3,2]",0.725657474,stimuli/card_100_transparent.png,100,7,0,7,0,1,,,,,,,,,,
,,,,662e701588c74240a03b4027,A,2024-05-21_18h37.32.931,Slot Machine Game,2023.1.3,Win32,60.24096386,,,,,,,,,,,,,,,,,,,,,,,,,,,630,,,,,,,,,,,,,,,,,,,,,8,7,,,563.9284,8,left,0.0092,,1,0.3,"[1,3,2]",0.669020841,stimuli/card_100_transparent.png,100,8,0,8,0,1,,,,,,,,,,
,,,,662e701588c74240a03b4027,A,2024-05-21_18h37.32.931,Slot Machine Game,2023.1.3,Win32,60.24096386,,,,,,,,,,,,,,,,,,,,,,,,,,,640,,,,,,,,,,,,,,,,,,,,,8,7,,,565.7714,9,left,0.1875,,1.5,0.3,"[2,3,1]",0.526247366,stimuli/card_10_transparent.png,10,9,0,9,0,1,,,,,,,,,,
,,,,662e701588c74240a03b4027,A,2024-05-21_18h37.32.931,Slot Machine Game,2023.1.3,Win32,60.24096386,,,,,,,,,,,,,,,,,,,,,,,,,,,650,,,,,,,,,,,,,,,,,,,,,8,7,,,568.2826,10,left,1.0578,,1,0.3,"[2,3,1]",0.51026088,stimuli/card_10_transparent.png,10,10,0,10,0,1,,,,,,,,,,
,,,,662e701588c74240a03b4027,A,2024-05-21_18h37.32.931,Slot Machine Game,2023.1.3,Win32,60.24096386,,,,,,,,,,,,,,,,,,,,,,,,,,,650,,,,,,,,,,,,,,,,,,,,,8,7,,,571.1517,11,up,0.4006,,1.5,0.3,"[2,3,1]",0.976332612,stimuli/card_0_transparent.png,0,11,0,11,0,1,,,,,,,,,,
,,,,662e701588c74240a03b4027,A,2024-05-21_18h37.32.931,Slot Machine Game,2023.1.3,Win32,60.24096386,,,,,,,,,,,,,,,,,,,,,,,,,,,660,,,,,,,,,,,,,,,,,,,,,8,7,,,573.8699,12,right,0.8775,,0.5,0.3,"[2,3,1]",0.159699439,stimuli/card_10_transparent.png,10,12,0,12,0,1,,,,,,,,,,
,,,,662e701588c74240a03b4027,A,2024-05-21_18h37.32.931,Slot Machine Game,2023.1.3,Win32,60.24096386,,,,,,,,,,,,,,,,,,,,,,,,,,,660,,,,,,,,,,,,,,,,,,,,,8,7,,,576.0722,13,up,0.7339,,0.5,0.3,"[2,3,1]",0.656737524,stimuli/card_0_transparent.png,0,13,0,13,0,1,,,,,,,,,,
,,,,662e701588c74240a03b4027,A,2024-05-21_18h37.32.931,Slot Machine Game,2023.1.3,Win32,60.24096386,,,,,,,,,,,,,,,,,,,,,,,,,,,660,,,,,,,,,,,,,,,,,,,,,8,7,,,578.1236,14,right,0.1834,,1,0.3,"[2,3,1]",0.065739657,stimuli/card_0_transparent.png,0,14,0,14,0,1,,,,,,,,,,
,,,,662e701588c74240a03b4027,A,2024-05-21_18h37.32.931,Slot Machine Game,2023.1.3,Win32,60.24096386,,,,,,,,,,,,,,,,,,,,,,,,,,,,,,,,,,,580.1089,,,,,,,,,,,,,,,,,,,,,,,,,,,,,,,,,"[800,1120,650,750,560,640,930,660]",7,0,7,0,1,,,,
,,,,662e701588c74240a03b4027,A,2024-05-21_18h37.32.931,Slot Machine Game,2023.1.3,Win32,60.24096386,,,,,,,,,,,,,,,,,,,,,,,,,,,0,,,,,,,,,,,,,,,,,,,,,9,9,[15],"[[3,1,2]]",585.1275,0,left,0.2682,,1,0.3,"[3,1,2]",0.999911843,stimuli/card_0_transparent.png,0,0,0,0,0,1,,,,,,,,,,
,,,,662e701588c74240a03b4027,A,2024-05-21_18h37.32.931,Slot Machine Game,2023.1.3,Win32,60.24096386,,,,,,,,,,,,,,,,,,,,,,,,,,,10,,,,,,,,,,,,,,,,,,,,,9,9,,,587.1978,1,right,0.3349,,0.5,0.3,"[3,1,2]",0.380884982,stimuli/card_10_transparent.png,10,1,0,1,0,1,,,,,,,,,,
,,,,662e701588c74240a03b4027,A,2024-05-21_18h37.32.931,Slot Machine Game,2023.1.3,Win32,60.24096386,,,,,,,,,,,,,,,,,,,,,,,,,,,110,,,,,,,,,,,,,,,,,,,,,9,9,,,588.8494,2,up,0.0677,,1.5,0.3,"[3,1,2]",0.808176677,stimuli/card_100_transparent.png,100,2,0,2,0,1,,,,,,,,,,
,,,,662e701588c74240a03b4027,A,2024-05-21_18h37.32.931,Slot Machine Game,2023.1.3,Win32,60.24096386,,,,,,,,,,,,,,,,,,,,,,,,,,,210,,,,,,,,,,,,,,,,,,,,,9,9,,,591.2512,3,up,0.1504,,0.5,0.3,"[3,1,2]",0.46723186,stimuli/card_100_transparent.png,100,3,0,3,0,1,,,,,,,,,,
,,,,662e701588c74240a03b4027,A,2024-05-21_18h37.32.931,Slot Machine Game,2023.1.3,Win32,60.24096386,,,,,,,,,,,,,,,,,,,,,,,,,,,310,,,,,,,,,,,,,,,,,,,,,9,9,,,592.7192,4,up,0.0413,,1.5,0.3,"[3,1,2]",0.862679404,stimuli/card_100_transparent.png,100,4,0,4,0,1,,,,,,,,,,
,,,,662e701588c74240a03b4027,A,2024-05-21_18h37.32.931,Slot Machine Game,2023.1.3,Win32,60.24096386,,,,,,,,,,,,,,,,,,,,,,,,,,,410,,,,,,,,,,,,,,,,,,,,,9,9,,,595.096,5,up,0.008,,1,0.3,"[3,1,2]",0.370467054,stimuli/card_100_transparent.png,100,5,0,5,0,1,,,,,,,,,,
,,,,662e701588c74240a03b4027,A,2024-05-21_18h37.32.931,Slot Machine Game,2023.1.3,Win32,60.24096386,,,,,,,,,,,,,,,,,,,,,,,,,,,510,,,,,,,,,,,,,,,,,,,,,9,9,,,596.9224,6,up,0.3742,,1,0.3,"[3,1,2]",0.470487282,stimuli/card_100_transparent.png,100,6,0,6,0,1,,,,,,,,,,
,,,,662e701588c74240a03b4027,A,2024-05-21_18h37.32.931,Slot Machine Game,2023.1.3,Win32,60.24096386,,,,,,,,,,,,,,,,,,,,,,,,,,,610,,,,,,,,,,,,,,,,,,,,,9,9,,,599.1077,7,up,0.1013,,1.5,0.3,"[3,1,2]",0.373254131,stimuli/card_100_transparent.png,100,7,0,7,0,1,,,,,,,,,,
,,,,662e701588c74240a03b4027,A,2024-05-21_18h37.32.931,Slot Machine Game,2023.1.3,Win32,60.24096386,,,,,,,,,,,,,,,,,,,,,,,,,,,710,,,,,,,,,,,,,,,,,,,,,9,9,,,601.5265,8,up,0.0497,,1,0.3,"[3,1,2]",0.478819436,stimuli/card_100_transparent.png,100,8,0,8,0,1,,,,,,,,,,
,,,,662e701588c74240a03b4027,A,2024-05-21_18h37.32.931,Slot Machine Game,2023.1.3,Win32,60.24096386,,,,,,,,,,,,,,,,,,,,,,,,,,,810,,,,,,,,,,,,,,,,,,,,,9,9,,,603.3949,9,up,0.1095,,1,0.3,"[3,1,2]",0.545751897,stimuli/card_100_transparent.png,100,9,0,9,0,1,,,,,,,,,,
,,,,662e701588c74240a03b4027,A,2024-05-21_18h37.32.931,Slot Machine Game,2023.1.3,Win32,60.24096386,,,,,,,,,,,,,,,,,,,,,,,,,,,910,,,,,,,,,,,,,,,,,,,,,9,9,,,605.3498,10,up,0.1055,,1.5,0.3,"[3,1,2]",0.956511565,stimuli/card_100_transparent.png,100,10,0,10,0,1,,,,,,,,,,
,,,,662e701588c74240a03b4027,A,2024-05-21_18h37.32.931,Slot Machine Game,2023.1.3,Win32,60.24096386,,,,,,,,,,,,,,,,,,,,,,,,,,,920,,,,,,,,,,,,,,,,,,,,,9,9,,,607.7812,11,up,0.0845,,0.5,0.3,"[3,1,2]",0.161959408,stimuli/card_10_transparent.png,10,11,0,11,0,1,,,,,,,,,,
,,,,662e701588c74240a03b4027,A,2024-05-21_18h37.32.931,Slot Machine Game,2023.1.3,Win32,60.24096386,,,,,,,,,,,,,,,,,,,,,,,,,,,1020,,,,,,,,,,,,,,,,,,,,,9,9,,,609.1826,12,up,0.1166,,1.5,0.3,"[3,1,2]",0.707296883,stimuli/card_100_transparent.png,100,12,0,12,0,1,,,,,,,,,,
,,,,662e701588c74240a03b4027,A,2024-05-21_18h37.32.931,Slot Machine Game,2023.1.3,Win32,60.24096386,,,,,,,,,,,,,,,,,,,,,,,,,,,1030,,,,,,,,,,,,,,,,,,,,,9,9,,,611.6091,13,up,0.3333,,1,0.3,"[3,1,2]",0.10706534,stimuli/card_10_transparent.png,10,13,0,13,0,1,,,,,,,,,,
,,,,662e701588c74240a03b4027,A,2024-05-21_18h37.32.931,Slot Machine Game,2023.1.3,Win32,60.24096386,,,,,,,,,,,,,,,,,,,,,,,,,,,1130,,,,,,,,,,,,,,,,,,,,,9,9,,,613.7696,14,up,0.0705,,1,0.3,"[3,1,2]",0.25523484,stimuli/card_100_transparent.png,100,14,0,14,0,1,,,,,,,,,,
,,,,662e701588c74240a03b4027,A,2024-05-21_18h37.32.931,Slot Machine Game,2023.1.3,Win32,60.24096386,,,,,,,,,,,,,,,,,,,,,,,,,,,,,,,,,,,615.6714,,,,,,,,,,,,,,,,,,,,,,,,,,,,,,,,,"[800,1120,650,750,560,640,930,660,1130]",8,0,8,0,1,,,,
,,,,662e701588c74240a03b4027,A,2024-05-21_18h37.32.931,Slot Machine Game,2023.1.3,Win32,60.24096386,,,,,,,,,,,,,,,,,,,,,,,,,,,100,,,,,,,,,,,,,,,,,,,,,10,6,"[4,10,15]","[[2,3,1],[1,3,2],[3,2,1]]",620.6904,0,right,0.3228,,1.5,0.3,"[2,3,1]",0.812193566,stimuli/card_100_transparent.png,100,0,0,0,0,1,,,,,,,,,,
,,,,662e701588c74240a03b4027,A,2024-05-21_18h37.32.931,Slot Machine Game,2023.1.3,Win32,60.24096386,,,,,,,,,,,,,,,,,,,,,,,,,,,200,,,,,,,,,,,,,,,,,,,,,10,6,,,623.3282,1,right,0.1509,,0.5,0.3,"[2,3,1]",0.371382775,stimuli/card_100_transparent.png,100,1,0,1,0,1,,,,,,,,,,
,,,,662e701588c74240a03b4027,A,2024-05-21_18h37.32.931,Slot Machine Game,2023.1.3,Win32,60.24096386,,,,,,,,,,,,,,,,,,,,,,,,,,,300,,,,,,,,,,,,,,,,,,,,,10,6,,,624.8206,2,right,0.1904,,0.5,0.3,"[2,3,1]",0.714876871,stimuli/card_100_transparent.png,100,2,0,2,0,1,,,,,,,,,,
,,,,662e701588c74240a03b4027,A,2024-05-21_18h37.32.931,Slot Machine Game,2023.1.3,Win32,60.24096386,,,,,,,,,,,,,,,,,,,,,,,,,,,400,,,,,,,,,,,,,,,,,,,,,10,6,,,626.3306,3,right,0.0094,,1,0.3,"[2,3,1]",0.793619295,stimuli/card_100_transparent.png,100,3,0,3,0,1,,,,,,,,,,
,,,,662e701588c74240a03b4027,A,2024-05-21_18h37.32.931,Slot Machine Game,2023.1.3,Win32,60.24096386,,,,,,,,,,,,,,,,,,,,,,,,,,,410,,,,,,,,,,,,,,,,,,,,,10,6,,,628.165,4,right,0.1673,,0.5,0.3,"[1,3,2]",0.467492899,stimuli/card_10_transparent.png,10,4,0,4,0,1,,,,,,,,,,
,,,,662e701588c74240a03b4027,A,2024-05-21_18h37.32.931,Slot Machine Game,2023.1.3,Win32,60.24096386,,,,,,,,,,,,,,,,,,,,,,,,,,,420,,,,,,,,,,,,,,,,,,,,,10,6,,,629.6495,5,right,0.2177,,1,0.3,"[1,3,2]",0.443502729,stimuli/card_10_transparent.png,10,5,0,5,0,1,,,,,,,,,,
,,,,662e701588c74240a03b4027,A,2024-05-21_18h37.32.931,Slot Machine Game,2023.1.3,Win32,60.24096386,,,,,,,,,,,,,,,,,,,,,,,,,,,420,,,,,,,,,,,,,,,,,,,,,10,6,,,631.6764,6,up,0.2352,,1,0.3,"[1,3,2]",0.3506542,stimuli/card_0_transparent.png,0,6,0,6,0,1,,,,,,,,,,
,,,,662e701588c74240a03b4027,A,2024-05-21_18h37.32.931,Slot Machine Game,2023.1.3,Win32,60.24096386,,,,,,,,,,,,,,,,,,,,,,,,,,,520,,,,,,,,,,,,,,,,,,,,,10,6,,,633.7362,7,left,0.237,,1.5,0.3,"[1,3,2]",0.213334991,stimuli/card_100_transparent.png,100,7,0,7,0,1,,,,,,,,,,
,,,,662e701588c74240a03b4027,A,2024-05-21_18h37.32.931,Slot Machine Game,2023.1.3,Win32,60.24096386,,,,,,,,,,,,,,,,,,,,,,,,,,,620,,,,,,,,,,,,,,,,,,,,,10,6,,,636.2958,8,left,0.0174,,1.5,0.3,"[1,3,2]",0.56754924,stimuli/card_100_transparent.png,100,8,0,8,0,1,,,,,,,,,,
,,,,662e701588c74240a03b4027,A,2024-05-21_18h37.32.931,Slot Machine Game,2023.1.3,Win32,60.24096386,,,,,,,,,,,,,,,,,,,,,,,,,,,720,,,,,,,,,,,,,,,,,,,,,10,6,,,638.6405,9,left,0.4584,,0.5,0.3,"[1,3,2]",0.935253074,stimuli/card_100_transparent.png,100,9,0,9,0,1,,,,,,,,,,
,,,,662e701588c74240a03b4027,A,2024-05-21_18h37.32.931,Slot Machine Game,2023.1.3,Win32,60.24096386,,,,,,,,,,,,,,,,,,,,,,,,,,,720,,,,,,,,,,,,,,,,,,,,,10,6,,,640.4084,10,left,0.1837,,1,0.3,"[3,2,1]",0.670956984,stimuli/card_0_transparent.png,0,10,0,10,0,1,,,,,,,,,,
,,,,662e701588c74240a03b4027,A,2024-05-21_18h37.32.931,Slot Machine Game,2023.1.3,Win32,60.24096386,,,,,,,,,,,,,,,,,,,,,,,,,,,720,,,,,,,,,,,,,,,,,,,,,10,6,,,642.4101,11,left,0.1381,,0.5,0.3,"[3,2,1]",0.546978363,stimuli/card_0_transparent.png,0,11,0,11,0,1,,,,,,,,,,
,,,,662e701588c74240a03b4027,A,2024-05-21_18h37.32.931,Slot Machine Game,2023.1.3,Win32,60.24096386,,,,,,,,,,,,,,,,,,,,,,,,,,,730,,,,,,,,,,,,,,,,,,,,,10,6,,,643.8614,12,up,0.6921,,1,0.3,"[3,2,1]",0.905762311,stimuli/card_10_transparent.png,10,12,0,12,0,1,,,,,,,,,,
,,,,662e701588c74240a03b4027,A,2024-05-21_18h37.32.931,Slot Machine Game,2023.1.3,Win32,60.24096386,,,,,,,,,,,,,,,,,,,,,,,,,,,830,,,,,,,,,,,,,,,,,,,,,10,6,,,646.3802,13,right,0.2096,,1,0.3,"[3,2,1]",0.27837922,stimuli/card_100_transparent.png,100,13,0,13,0,1,,,,,,,,,,
,,,,662e701588c74240a03b4027,A,2024-05-21_18h37.32.931,Slot Machine Game,2023.1.3,Win32,60.24096386,,,,,,,,,,,,,,,,,,,,,,,,,,,930,,,,,,,,,,,,,,,,,,,,,10,6,,,648.4153,14,right,0.3398,,1.5,0.3,"[3,2,1]",0.5397295,stimuli/card_100_transparent.png,100,14,0,14,0,1,,,,,,,,,,
,,,,662e701588c74240a03b4027,A,2024-05-21_18h37.32.931,Slot Machine Game,2023.1.3,Win32,60.24096386,,,,,,,,,,,,,,,,,,,,,,,,,,,,,,,,,,,651.1008,,,,,,,,,,,,,,,,,,,,,,,,,,,,,,,,,"[800,1120,650,750,560,640,930,660,1130,930]",9,0,9,0,1,,,,
,,,,662e701588c74240a03b4027,A,2024-05-21_18h37.32.931,Slot Machine Game,2023.1.3,Win32,60.24096386,,,,,,,,,,,,,,,,,,,,,,,,,,,,,,,,,,,,,,,,,,,,,,,,,,,,,,,,,,,,,,,,,,,,,,,,,,9,"[800,1120,650,750,560,640,930,660,1130,930]",6.4,2024-05-21_18h48.33.119
