key_resp_welcome_started,key_resp_welcome_keys,key_resp_welcome_rt,key_resp_welcome_duration,prolific_pid,path_id,date,expName,psychopyVersion,OS,frameRate,key_resp_instruction1_started,key_resp_instruction1_keys,key_resp_instruction1_rt,key_resp_instruction1_duration,key_resp_instruction2_started,key_resp_instruction2_keys,key_resp_instruction2_rt,key_resp_instruction2_duration,key_resp_instruction3_started,key_resp_instruction3_keys,key_resp_instruction3_rt,key_resp_instruction3_duration,key_resp_instruction4_started,key_resp_instruction4_keys,key_resp_instruction4_rt,key_resp_instruction4_duration,practiceCondition,practice_reward_seqs,practice_trial_started,practice_trial_num,practice_resp_rt,practice_keypress_time,practice_resp_keys,prac_presentationInterval,practice_reward_seq,reward_img,cumulative_reward,trial_reward,practice_trials.thisRepN,practice_trials.thisTrialN,practice_trials.thisN,practice_trials.thisIndex,practice_trials.ran,block_break_started,practice_end_time,practice_end_keys,practice_end_rt,practice_end_duration,main_instruction_text_started,block_condition,block_order_indices,main_instruction_keys,main_instruction_rt,main_instruction_duration,block_number,block_assignment,current_condition,main_reward_seqs,main_trial_started,main_trial_num,main_trial_keys,main_trial_rt,main_trial_keypress_time,main_presentationInterval,reward_presentation_time,main_reward_seq,reward_rand_val,main_reward_img,current_reward,main_trials.thisRepN,main_trials.thisTrialN,main_trials.thisN,main_trials.thisIndex,main_trials.ran,block_reward,block.thisRepN,block.thisTrialN,block.thisN,block.thisIndex,block.ran,block_reward.length,block_reward_all,reward_amount,date_end_task
0.0001,h,4.0947,,62e70e152763c4635bc6ebb4,B,2024-08-16_14h29.54.611,Slot Machine Game,2023.1.3,Win32,59.88023952,,,,,,,,,,,,,,,,,,,,,,,,,,,,,,,,,,,,,,,,,,,,,,,,,,,,,,,,,,,,,,,,,,,,,,,,,,
,,,,62e70e152763c4635bc6ebb4,B,2024-08-16_14h29.54.611,Slot Machine Game,2023.1.3,Win32,59.88023952,4.1041,l,6.2219,,,,,,,,,,,,,,,,,,,,,,,,,,,,,,,,,,,,,,,,,,,,,,,,,,,,,,,,,,,,,,,,,,,,,,,
,,,,62e70e152763c4635bc6ebb4,B,2024-08-16_14h29.54.611,Slot Machine Game,2023.1.3,Win32,59.88023952,,,,,10.3534,k,3.0201,,,,,,,,,,,,,,,,,,,,,,,,,,,,,,,,,,,,,,,,,,,,,,,,,,,,,,,,,,,,,,,,,,,
,,,,62e70e152763c4635bc6ebb4,B,2024-08-16_14h29.54.611,Slot Machine Game,2023.1.3,Win32,59.88023952,,,,,,,,,13.4191,l,2.786,,,,,,,,,,,,,,,,,,,,,,,,,,,,,,,,,,,,,,,,,,,,,,,,,,,,,,,,,,,,,,,
,,,,62e70e152763c4635bc6ebb4,B,2024-08-16_14h29.54.611,Slot Machine Game,2023.1.3,Win32,59.88023952,,,,,,,,,,,,,,,,,,,,,,,,,,,,,,,,,,,,,,,,,,,,,,,,,,,,,,,,,,,,,,,,,,,,,,,,,,
,,,,62e70e152763c4635bc6ebb4,B,2024-08-16_14h29.54.611,Slot Machine Game,2023.1.3,Win32,59.88023952,,,,,,,,,,,,,157.9215,m,3.7399,,,,,,,,,,,,,,,,,,,,,,,,,,,,,,,,,,,,,,,,,,,,,,,,,,,,,,,,,,,
,,,,62e70e152763c4635bc6ebb4,B,2024-08-16_14h29.54.611,Slot Machine Game,2023.1.3,Win32,59.88023952,,,,,,,,,,,,,,,,,"[9,15]","[[2,1,3],[2,3,1]]",161.6856,0,1.3902,163.0995,right,1.5,"[2,1,3]",stimuli/card_0_transparent.png,0,0,0,0,0,0,1,,,,,,,,,,,,,,,,,,,,,,,,,,,,,,,,,,,,,,,,,
,,,,62e70e152763c4635bc6ebb4,B,2024-08-16_14h29.54.611,Slot Machine Game,2023.1.3,Win32,59.88023952,,,,,,,,,,,,,,,,,,,164.9001,1,1.6825,166.6155,right,0.5,"[2,1,3]",stimuli/card_10_transparent.png,10,10,1,0,1,0,1,,,,,,,,,,,,,,,,,,,,,,,,,,,,,,,,,,,,,,,,,
,,,,62e70e152763c4635bc6ebb4,B,2024-08-16_14h29.54.611,Slot Machine Game,2023.1.3,Win32,59.88023952,,,,,,,,,,,,,,,,,,,167.4151,2,1.6697,169.1155,right,1,"[2,1,3]",stimuli/card_0_transparent.png,10,0,2,0,2,0,1,,,,,,,,,,,,,,,,,,,,,,,,,,,,,,,,,,,,,,,,,
,,,,62e70e152763c4635bc6ebb4,B,2024-08-16_14h29.54.611,Slot Machine Game,2023.1.3,Win32,59.88023952,,,,,,,,,,,,,,,,,,,170.4153,3,0.6129,171.0657,left,1.5,"[2,1,3]",stimuli/card_10_transparent.png,20,10,3,0,3,0,1,,,,,,,,,,,,,,,,,,,,,,,,,,,,,,,,,,,,,,,,,
,,,,62e70e152763c4635bc6ebb4,B,2024-08-16_14h29.54.611,Slot Machine Game,2023.1.3,Win32,59.88023952,,,,,,,,,,,,,,,,,,,172.8652,4,2.2834,175.1813,up,1,"[2,1,3]",stimuli/card_100_transparent.png,120,100,4,0,4,0,1,,,,,,,,,,,,,,,,,,,,,,,,,,,,,,,,,,,,,,,,,
,,,,62e70e152763c4635bc6ebb4,B,2024-08-16_14h29.54.611,Slot Machine Game,2023.1.3,Win32,59.88023952,,,,,,,,,,,,,,,,,,,176.4811,5,1.2698,177.781,up,0.5,"[2,1,3]",stimuli/card_100_transparent.png,220,100,5,0,5,0,1,,,,,,,,,,,,,,,,,,,,,,,,,,,,,,,,,,,,,,,,,
,,,,62e70e152763c4635bc6ebb4,B,2024-08-16_14h29.54.611,Slot Machine Game,2023.1.3,Win32,59.88023952,,,,,,,,,,,,,,,,,,,178.5807,6,1.406,179.997,up,1.5,"[2,1,3]",stimuli/card_100_transparent.png,320,100,6,0,6,0,1,,,,,,,,,,,,,,,,,,,,,,,,,,,,,,,,,,,,,,,,,
,,,,62e70e152763c4635bc6ebb4,B,2024-08-16_14h29.54.611,Slot Machine Game,2023.1.3,Win32,59.88023952,,,,,,,,,,,,,,,,,,,181.7977,7,1.4866,183.3138,up,0.5,"[2,1,3]",stimuli/card_100_transparent.png,420,100,7,0,7,0,1,,,,,,,,,,,,,,,,,,,,,,,,,,,,,,,,,,,,,,,,,
,,,,62e70e152763c4635bc6ebb4,B,2024-08-16_14h29.54.611,Slot Machine Game,2023.1.3,Win32,59.88023952,,,,,,,,,,,,,,,,,,,184.1136,8,1.4771,185.613,up,0.5,"[2,1,3]",stimuli/card_100_transparent.png,520,100,8,0,8,0,1,,,,,,,,,,,,,,,,,,,,,,,,,,,,,,,,,,,,,,,,,
,,,,62e70e152763c4635bc6ebb4,B,2024-08-16_14h29.54.611,Slot Machine Game,2023.1.3,Win32,59.88023952,,,,,,,,,,,,,,,,,,,186.4135,9,0.6827,187.1298,up,1.5,"[2,3,1]",stimuli/card_0_transparent.png,520,0,9,0,9,0,1,,,,,,,,,,,,,,,,,,,,,,,,,,,,,,,,,,,,,,,,,
,,,,62e70e152763c4635bc6ebb4,B,2024-08-16_14h29.54.611,Slot Machine Game,2023.1.3,Win32,59.88023952,,,,,,,,,,,,,,,,,,,188.9298,10,1.4824,190.4334,up,1,"[2,3,1]",stimuli/card_0_transparent.png,520,0,10,0,10,0,1,,,,,,,,,,,,,,,,,,,,,,,,,,,,,,,,,,,,,,,,,
,,,,62e70e152763c4635bc6ebb4,B,2024-08-16_14h29.54.611,Slot Machine Game,2023.1.3,Win32,59.88023952,,,,,,,,,,,,,,,,,,,191.7292,11,3.9181,195.6621,right,1.5,"[2,3,1]",stimuli/card_100_transparent.png,620,100,11,0,11,0,1,,,,,,,,,,,,,,,,,,,,,,,,,,,,,,,,,,,,,,,,,
,,,,62e70e152763c4635bc6ebb4,B,2024-08-16_14h29.54.611,Slot Machine Game,2023.1.3,Win32,59.88023952,,,,,,,,,,,,,,,,,,,197.4618,12,1.7052,199.1949,right,0.5,"[2,3,1]",stimuli/card_100_transparent.png,720,100,12,0,12,0,1,,,,,,,,,,,,,,,,,,,,,,,,,,,,,,,,,,,,,,,,,
,,,,62e70e152763c4635bc6ebb4,B,2024-08-16_14h29.54.611,Slot Machine Game,2023.1.3,Win32,59.88023952,,,,,,,,,,,,,,,,,,,199.9948,13,1.8498,201.8615,right,1,"[2,3,1]",stimuli/card_0_transparent.png,720,0,13,0,13,0,1,,,,,,,,,,,,,,,,,,,,,,,,,,,,,,,,,,,,,,,,,
,,,,62e70e152763c4635bc6ebb4,B,2024-08-16_14h29.54.611,Slot Machine Game,2023.1.3,Win32,59.88023952,,,,,,,,,,,,,,,,,,,203.1615,14,2.6847,205.8774,left,1,"[2,3,1]",stimuli/card_10_transparent.png,730,10,14,0,14,0,1,,,,,,,,,,,,,,,,,,,,,,,,,,,,,,,,,,,,,,,,,
,,,,62e70e152763c4635bc6ebb4,B,2024-08-16_14h29.54.611,Slot Machine Game,2023.1.3,Win32,59.88023952,,,,,,,,,,,,,,,,,"[6,15]","[[1,3,2],[3,1,2]]",212.187,0,2.3029,214.5097,left,1.5,"[1,3,2]",stimuli/card_100_transparent.png,100,100,0,0,0,0,1,207.1873,,,,,,,,,,,,,,,,,,,,,,,,,,,,,,,,,,,,,,,,
,,,,62e70e152763c4635bc6ebb4,B,2024-08-16_14h29.54.611,Slot Machine Game,2023.1.3,Win32,59.88023952,,,,,,,,,,,,,,,,,,,216.3091,1,0.5886,216.9094,left,0.5,"[1,3,2]",stimuli/card_100_transparent.png,200,100,1,0,1,0,1,,,,,,,,,,,,,,,,,,,,,,,,,,,,,,,,,,,,,,,,,
,,,,62e70e152763c4635bc6ebb4,B,2024-08-16_14h29.54.611,Slot Machine Game,2023.1.3,Win32,59.88023952,,,,,,,,,,,,,,,,,,,217.7091,2,0.7116,218.4421,left,1.5,"[1,3,2]",stimuli/card_100_transparent.png,300,100,2,0,2,0,1,,,,,,,,,,,,,,,,,,,,,,,,,,,,,,,,,,,,,,,,,
,,,,62e70e152763c4635bc6ebb4,B,2024-08-16_14h29.54.611,Slot Machine Game,2023.1.3,Win32,59.88023952,,,,,,,,,,,,,,,,,,,220.2425,3,0.8194,221.0925,left,1,"[1,3,2]",stimuli/card_100_transparent.png,400,100,3,0,3,0,1,,,,,,,,,,,,,,,,,,,,,,,,,,,,,,,,,,,,,,,,,
,,,,62e70e152763c4635bc6ebb4,B,2024-08-16_14h29.54.611,Slot Machine Game,2023.1.3,Win32,59.88023952,,,,,,,,,,,,,,,,,,,222.3917,4,0.7254,223.1246,left,0.5,"[1,3,2]",stimuli/card_100_transparent.png,500,100,4,0,4,0,1,,,,,,,,,,,,,,,,,,,,,,,,,,,,,,,,,,,,,,,,,
,,,,62e70e152763c4635bc6ebb4,B,2024-08-16_14h29.54.611,Slot Machine Game,2023.1.3,Win32,59.88023952,,,,,,,,,,,,,,,,,,,223.925,5,,,,1.5,"[1,3,2]",,,,5,0,5,0,1,,,,,,,,,,,,,,,,,,,,,,,,,,,,,,,,,,,,,,,,,
,,,,62e70e152763c4635bc6ebb4,B,2024-08-16_14h29.54.611,Slot Machine Game,2023.1.3,Win32,59.88023952,,,,,,,,,,,,,,,,,,,229.4307,6,2.2422,231.6902,left,1,"[3,1,2]",stimuli/card_0_transparent.png,500,0,6,0,6,0,1,,,,,,,,,,,,,,,,,,,,,,,,,,,,,,,,,,,,,,,,,
,,,,62e70e152763c4635bc6ebb4,B,2024-08-16_14h29.54.611,Slot Machine Game,2023.1.3,Win32,59.88023952,,,,,,,,,,,,,,,,,,,232.9896,7,0.5172,233.5398,right,0.5,"[3,1,2]",stimuli/card_10_transparent.png,510,10,7,0,7,0,1,,,,,,,,,,,,,,,,,,,,,,,,,,,,,,,,,,,,,,,,,
,,,,62e70e152763c4635bc6ebb4,B,2024-08-16_14h29.54.611,Slot Machine Game,2023.1.3,Win32,59.88023952,,,,,,,,,,,,,,,,,,,234.3397,8,1.0864,235.4727,up,1,"[3,1,2]",stimuli/card_100_transparent.png,610,100,8,0,8,0,1,,,,,,,,,,,,,,,,,,,,,,,,,,,,,,,,,,,,,,,,,
,,,,62e70e152763c4635bc6ebb4,B,2024-08-16_14h29.54.611,Slot Machine Game,2023.1.3,Win32,59.88023952,,,,,,,,,,,,,,,,,,,236.7739,9,0.5387,237.3396,up,1,"[3,1,2]",stimuli/card_100_transparent.png,710,100,9,0,9,0,1,,,,,,,,,,,,,,,,,,,,,,,,,,,,,,,,,,,,,,,,,
,,,,62e70e152763c4635bc6ebb4,B,2024-08-16_14h29.54.611,Slot Machine Game,2023.1.3,Win32,59.88023952,,,,,,,,,,,,,,,,,,,238.6396,10,0.6953,239.3555,up,1,"[3,1,2]",stimuli/card_10_transparent.png,720,10,10,0,10,0,1,,,,,,,,,,,,,,,,,,,,,,,,,,,,,,,,,,,,,,,,,
,,,,62e70e152763c4635bc6ebb4,B,2024-08-16_14h29.54.611,Slot Machine Game,2023.1.3,Win32,59.88023952,,,,,,,,,,,,,,,,,,,240.6442,11,0.5704,241.2392,right,1,"[3,1,2]",stimuli/card_10_transparent.png,730,10,11,0,11,0,1,,,,,,,,,,,,,,,,,,,,,,,,,,,,,,,,,,,,,,,,,
,,,,62e70e152763c4635bc6ebb4,B,2024-08-16_14h29.54.611,Slot Machine Game,2023.1.3,Win32,59.88023952,,,,,,,,,,,,,,,,,,,242.5393,12,2.8996,245.4724,left,1.5,"[3,1,2]",stimuli/card_0_transparent.png,730,0,12,0,12,0,1,,,,,,,,,,,,,,,,,,,,,,,,,,,,,,,,,,,,,,,,,
,,,,62e70e152763c4635bc6ebb4,B,2024-08-16_14h29.54.611,Slot Machine Game,2023.1.3,Win32,59.88023952,,,,,,,,,,,,,,,,,,,247.2725,13,0.6891,247.9888,right,1.5,"[3,1,2]",stimuli/card_10_transparent.png,740,10,13,0,13,0,1,,,,,,,,,,,,,,,,,,,,,,,,,,,,,,,,,,,,,,,,,
,,,,62e70e152763c4635bc6ebb4,B,2024-08-16_14h29.54.611,Slot Machine Game,2023.1.3,Win32,59.88023952,,,,,,,,,,,,,,,,,,,249.7887,14,2.8338,252.6547,up,1,"[3,1,2]",stimuli/card_100_transparent.png,840,100,14,0,14,0,1,,,,,,,,,,,,,,,,,,,,,,,,,,,,,,,,,,,,,,,,,
,,,,62e70e152763c4635bc6ebb4,B,2024-08-16_14h29.54.611,Slot Machine Game,2023.1.3,Win32,59.88023952,,,,,,,,,,,,,,,,,,,,,,,,,,,,,,,,,,253.9543,258.9552,space,7.6501,,,,,,,,,,,,,,,,,,,,,,,,,,,,,,,,,,,,,
,,,,62e70e152763c4635bc6ebb4,B,2024-08-16_14h29.54.611,Slot Machine Game,2023.1.3,Win32,59.88023952,,,,,,,,,,,,,,,,,,,,,,,,,,,,,,,,,,,,,,,266.6377,3,"[0,4,6,3,5,7,8,1,9,2]",space,2.1703,,,,,,,,,,,,,,,,,,,,,,,,,,,,,,,
,,,,62e70e152763c4635bc6ebb4,B,2024-08-16_14h29.54.611,Slot Machine Game,2023.1.3,Win32,59.88023952,,,,,,,,,,,,,,,,,,,,,,,,,,,10,,,,,,,,,,,,,,,,,,1,1,"[12,15]","[[2,1,3],[2,3,1]]",268.8496,0,left,1.9985,270.8685,1,0.3,"[2,1,3]",0.580345116,stimuli/card_10_transparent.png,10,0,0,0,0,1,,,,,,,,,,
,,,,62e70e152763c4635bc6ebb4,B,2024-08-16_14h29.54.611,Slot Machine Game,2023.1.3,Win32,59.88023952,,,,,,,,,,,,,,,,,,,,,,,,,,,10,,,,,,,,,,,,,,,,,,1,1,,,272.1696,1,right,0.9402,273.1352,1.5,0.3,"[2,1,3]",0.455982587,stimuli/card_0_transparent.png,0,1,0,1,0,1,,,,,,,,,,
,,,,62e70e152763c4635bc6ebb4,B,2024-08-16_14h29.54.611,Slot Machine Game,2023.1.3,Win32,59.88023952,,,,,,,,,,,,,,,,,,,,,,,,,,,110,,,,,,,,,,,,,,,,,,1,1,,,274.9349,2,up,1.178,276.1345,1,0.3,"[2,1,3]",0.555102176,stimuli/card_100_transparent.png,100,2,0,2,0,1,,,,,,,,,,
,,,,62e70e152763c4635bc6ebb4,B,2024-08-16_14h29.54.611,Slot Machine Game,2023.1.3,Win32,59.88023952,,,,,,,,,,,,,,,,,,,,,,,,,,,210,,,,,,,,,,,,,,,,,,1,1,,,277.435,3,up,0.5466,278.0179,0.5,0.3,"[2,1,3]",0.494574401,stimuli/card_100_transparent.png,100,3,0,3,0,1,,,,,,,,,,
,,,,62e70e152763c4635bc6ebb4,B,2024-08-16_14h29.54.611,Slot Machine Game,2023.1.3,Win32,59.88023952,,,,,,,,,,,,,,,,,,,,,,,,,,,310,,,,,,,,,,,,,,,,,,1,1,,,278.8179,4,up,0.5415,279.3842,1,0.3,"[2,1,3]",0.69500455,stimuli/card_100_transparent.png,100,4,0,4,0,1,,,,,,,,,,
,,,,62e70e152763c4635bc6ebb4,B,2024-08-16_14h29.54.611,Slot Machine Game,2023.1.3,Win32,59.88023952,,,,,,,,,,,,,,,,,,,,,,,,,,,410,,,,,,,,,,,,,,,,,,1,1,,,280.6842,5,up,2.5776,283.285,1.5,0.3,"[2,1,3]",0.248813431,stimuli/card_100_transparent.png,100,5,0,5,0,1,,,,,,,,,,
,,,,62e70e152763c4635bc6ebb4,B,2024-08-16_14h29.54.611,Slot Machine Game,2023.1.3,Win32,59.88023952,,,,,,,,,,,,,,,,,,,,,,,,,,,510,,,,,,,,,,,,,,,,,,1,1,,,285.0836,6,up,0.9613,286.0664,0.5,0.3,"[2,1,3]",0.782827836,stimuli/card_100_transparent.png,100,6,0,6,0,1,,,,,,,,,,
,,,,62e70e152763c4635bc6ebb4,B,2024-08-16_14h29.54.611,Slot Machine Game,2023.1.3,Win32,59.88023952,,,,,,,,,,,,,,,,,,,,,,,,,,,610,,,,,,,,,,,,,,,,,,1,1,,,286.8667,7,up,0.7179,287.6165,1.5,0.3,"[2,1,3]",0.751098844,stimuli/card_100_transparent.png,100,7,0,7,0,1,,,,,,,,,,
,,,,62e70e152763c4635bc6ebb4,B,2024-08-16_14h29.54.611,Slot Machine Game,2023.1.3,Win32,59.88023952,,,,,,,,,,,,,,,,,,,,,,,,,,,710,,,,,,,,,,,,,,,,,,1,1,,,289.4165,8,up,0.5266,289.9665,1,0.3,"[2,1,3]",0.27628948,stimuli/card_100_transparent.png,100,8,0,8,0,1,,,,,,,,,,
,,,,62e70e152763c4635bc6ebb4,B,2024-08-16_14h29.54.611,Slot Machine Game,2023.1.3,Win32,59.88023952,,,,,,,,,,,,,,,,,,,,,,,,,,,810,,,,,,,,,,,,,,,,,,1,1,,,291.2666,9,up,0.5582,291.8493,1,0.3,"[2,1,3]",0.227246633,stimuli/card_100_transparent.png,100,9,0,9,0,1,,,,,,,,,,
,,,,62e70e152763c4635bc6ebb4,B,2024-08-16_14h29.54.611,Slot Machine Game,2023.1.3,Win32,59.88023952,,,,,,,,,,,,,,,,,,,,,,,,,,,910,,,,,,,,,,,,,,,,,,1,1,,,293.1489,10,up,4.4502,297.6164,1,0.3,"[2,1,3]",0.228428886,stimuli/card_100_transparent.png,100,10,0,10,0,1,,,,,,,,,,
,,,,62e70e152763c4635bc6ebb4,B,2024-08-16_14h29.54.611,Slot Machine Game,2023.1.3,Win32,59.88023952,,,,,,,,,,,,,,,,,,,,,,,,,,,1010,,,,,,,,,,,,,,,,,,1,1,,,298.9151,11,up,0.661,299.598,1,0.3,"[2,1,3]",0.88383919,stimuli/card_100_transparent.png,100,11,0,11,0,1,,,,,,,,,,
,,,,62e70e152763c4635bc6ebb4,B,2024-08-16_14h29.54.611,Slot Machine Game,2023.1.3,Win32,59.88023952,,,,,,,,,,,,,,,,,,,,,,,,,,,1010,,,,,,,,,,,,,,,,,,1,1,,,300.898,12,up,0.6407,301.548,1.5,0.3,"[2,3,1]",0.304603376,stimuli/card_0_transparent.png,0,12,0,12,0,1,,,,,,,,,,
,,,,62e70e152763c4635bc6ebb4,B,2024-08-16_14h29.54.611,Slot Machine Game,2023.1.3,Win32,59.88023952,,,,,,,,,,,,,,,,,,,,,,,,,,,1020,,,,,,,,,,,,,,,,,,1,1,,,303.3478,13,left,0.6668,304.0483,0.5,0.3,"[2,3,1]",0.918042655,stimuli/card_10_transparent.png,10,13,0,13,0,1,,,,,,,,,,
,,,,62e70e152763c4635bc6ebb4,B,2024-08-16_14h29.54.611,Slot Machine Game,2023.1.3,Win32,59.88023952,,,,,,,,,,,,,,,,,,,,,,,,,,,1120,,,,,,,,,,,,,,,,,,1,1,,,304.8481,14,right,2.2754,307.1485,1.5,0.3,"[2,3,1]",0.409555594,stimuli/card_100_transparent.png,100,14,0,14,0,1,,,,,,,,,,
,,,,62e70e152763c4635bc6ebb4,B,2024-08-16_14h29.54.611,Slot Machine Game,2023.1.3,Win32,59.88023952,,,,,,,,,,,,,,,,,,,,,,,,,,,,,,,,,,308.9474,,,,,,,,,,,,,,,,,,,,,,,,,,,,,,,[1120],0,0,0,0,1,,,,
,,,,62e70e152763c4635bc6ebb4,B,2024-08-16_14h29.54.611,Slot Machine Game,2023.1.3,Win32,59.88023952,,,,,,,,,,,,,,,,,,,,,,,,,,,,,,,,,,,,,,,,,,,,,2,5,"[5,15]","[[1,2,3],[3,1,2]]",313.959,0,,,,0.5,0.3,,,,,0,0,0,0,1,,,,,,,,,,
,,,,62e70e152763c4635bc6ebb4,B,2024-08-16_14h29.54.611,Slot Machine Game,2023.1.3,Win32,59.88023952,,,,,,,,,,,,,,,,,,,,,,,,,,,0,,,,,,,,,,,,,,,,,,2,5,,,319.4658,1,left,1.1506,320.6466,1.5,0.3,"[1,2,3]",0.090891816,stimuli/card_0_transparent.png,0,1,0,1,0,1,,,,,,,,,,
,,,,62e70e152763c4635bc6ebb4,B,2024-08-16_14h29.54.611,Slot Machine Game,2023.1.3,Win32,59.88023952,,,,,,,,,,,,,,,,,,,,,,,,,,,10,,,,,,,,,,,,,,,,,,2,5,,,322.4494,2,up,2.7748,325.2462,0.5,0.3,"[1,2,3]",0.808372689,stimuli/card_10_transparent.png,10,2,0,2,0,1,,,,,,,,,,
,,,,62e70e152763c4635bc6ebb4,B,2024-08-16_14h29.54.611,Slot Machine Game,2023.1.3,Win32,59.88023952,,,,,,,,,,,,,,,,,,,,,,,,,,,10,,,,,,,,,,,,,,,,,,2,5,,,326.0448,3,right,0.5236,326.578,0.5,0.3,"[1,2,3]",0.247978068,stimuli/card_0_transparent.png,0,3,0,3,0,1,,,,,,,,,,
,,,,62e70e152763c4635bc6ebb4,B,2024-08-16_14h29.54.611,Slot Machine Game,2023.1.3,Win32,59.88023952,,,,,,,,,,,,,,,,,,,,,,,,,,,110,,,,,,,,,,,,,,,,,,2,5,,,327.378,4,left,0.7545,328.1616,0.5,0.3,"[1,2,3]",0.597695319,stimuli/card_100_transparent.png,100,4,0,4,0,1,,,,,,,,,,
,,,,62e70e152763c4635bc6ebb4,B,2024-08-16_14h29.54.611,Slot Machine Game,2023.1.3,Win32,59.88023952,,,,,,,,,,,,,,,,,,,,,,,,,,,110,,,,,,,,,,,,,,,,,,2,5,,,328.961,5,left,3.2411,332.2284,0.5,0.3,"[3,1,2]",0.653394239,stimuli/card_0_transparent.png,0,5,0,5,0,1,,,,,,,,,,
,,,,62e70e152763c4635bc6ebb4,B,2024-08-16_14h29.54.611,Slot Machine Game,2023.1.3,Win32,59.88023952,,,,,,,,,,,,,,,,,,,,,,,,,,,110,,,,,,,,,,,,,,,,,,2,5,,,333.0271,6,right,0.7261,333.7606,1.5,0.3,"[3,1,2]",0.025317583,stimuli/card_0_transparent.png,0,6,0,6,0,1,,,,,,,,,,
,,,,62e70e152763c4635bc6ebb4,B,2024-08-16_14h29.54.611,Slot Machine Game,2023.1.3,Win32,59.88023952,,,,,,,,,,,,,,,,,,,,,,,,,,,210,,,,,,,,,,,,,,,,,,2,5,,,335.5605,7,up,2.4154,337.9935,0.5,0.3,"[3,1,2]",0.906008217,stimuli/card_100_transparent.png,100,7,0,7,0,1,,,,,,,,,,
,,,,62e70e152763c4635bc6ebb4,B,2024-08-16_14h29.54.611,Slot Machine Game,2023.1.3,Win32,59.88023952,,,,,,,,,,,,,,,,,,,,,,,,,,,210,,,,,,,,,,,,,,,,,,2,5,,,338.7932,8,up,1.7396,340.5596,1,0.3,"[3,1,2]",0.038884452,stimuli/card_0_transparent.png,0,8,0,8,0,1,,,,,,,,,,
,,,,62e70e152763c4635bc6ebb4,B,2024-08-16_14h29.54.611,Slot Machine Game,2023.1.3,Win32,59.88023952,,,,,,,,,,,,,,,,,,,,,,,,,,,310,,,,,,,,,,,,,,,,,,2,5,,,341.8601,9,left,0.6507,342.5428,1.5,0.3,"[3,1,2]",0.099323265,stimuli/card_100_transparent.png,100,9,0,9,0,1,,,,,,,,,,
,,,,62e70e152763c4635bc6ebb4,B,2024-08-16_14h29.54.611,Slot Machine Game,2023.1.3,Win32,59.88023952,,,,,,,,,,,,,,,,,,,,,,,,,,,310,,,,,,,,,,,,,,,,,,2,5,,,344.3426,10,left,1.6517,346.0255,1,0.3,"[3,1,2]",0.946967895,stimuli/card_0_transparent.png,0,10,0,10,0,1,,,,,,,,,,
,,,,62e70e152763c4635bc6ebb4,B,2024-08-16_14h29.54.611,Slot Machine Game,2023.1.3,Win32,59.88023952,,,,,,,,,,,,,,,,,,,,,,,,,,,320,,,,,,,,,,,,,,,,,,2,5,,,347.3261,11,right,0.5829,347.9423,0.5,0.3,"[3,1,2]",0.642754685,stimuli/card_10_transparent.png,10,11,0,11,0,1,,,,,,,,,,
,,,,62e70e152763c4635bc6ebb4,B,2024-08-16_14h29.54.611,Slot Machine Game,2023.1.3,Win32,59.88023952,,,,,,,,,,,,,,,,,,,,,,,,,,,420,,,,,,,,,,,,,,,,,,2,5,,,348.7415,12,up,0.7669,349.5252,1,0.3,"[3,1,2]",0.633017944,stimuli/card_100_transparent.png,100,12,0,12,0,1,,,,,,,,,,
,,,,62e70e152763c4635bc6ebb4,B,2024-08-16_14h29.54.611,Slot Machine Game,2023.1.3,Win32,59.88023952,,,,,,,,,,,,,,,,,,,,,,,,,,,520,,,,,,,,,,,,,,,,,,2,5,,,350.8248,13,up,1.3676,352.2087,1.5,0.3,"[3,1,2]",0.606101858,stimuli/card_100_transparent.png,100,13,0,13,0,1,,,,,,,,,,
,,,,62e70e152763c4635bc6ebb4,B,2024-08-16_14h29.54.611,Slot Machine Game,2023.1.3,Win32,59.88023952,,,,,,,,,,,,,,,,,,,,,,,,,,,620,,,,,,,,,,,,,,,,,,2,5,,,354.008,14,up,0.6746,354.7245,0.5,0.3,"[3,1,2]",0.54327488,stimuli/card_100_transparent.png,100,14,0,14,0,1,,,,,,,,,,
,,,,62e70e152763c4635bc6ebb4,B,2024-08-16_14h29.54.611,Slot Machine Game,2023.1.3,Win32,59.88023952,,,,,,,,,,,,,,,,,,,,,,,,,,,,,,,,,,355.5243,,,,,,,,,,,,,,,,,,,,,,,,,,,,,,,"[1120,620]",1,0,1,0,1,,,,
,,,,62e70e152763c4635bc6ebb4,B,2024-08-16_14h29.54.611,Slot Machine Game,2023.1.3,Win32,59.88023952,,,,,,,,,,,,,,,,,,,,,,,,,,,0,,,,,,,,,,,,,,,,,,3,7,"[9,15]","[[1,3,2],[2,3,1]]",360.536,0,left,1.4161,361.9618,1,0.3,"[1,3,2]",0.077926026,stimuli/card_0_transparent.png,0,0,0,0,0,1,,,,,,,,,,
,,,,62e70e152763c4635bc6ebb4,B,2024-08-16_14h29.54.611,Slot Machine Game,2023.1.3,Win32,59.88023952,,,,,,,,,,,,,,,,,,,,,,,,,,,0,,,,,,,,,,,,,,,,,,3,7,,,363.2607,1,up,1.5215,364.8066,1,0.3,"[1,3,2]",0.753637279,stimuli/card_0_transparent.png,0,1,0,1,0,1,,,,,,,,,,
,,,,62e70e152763c4635bc6ebb4,B,2024-08-16_14h29.54.611,Slot Machine Game,2023.1.3,Win32,59.88023952,,,,,,,,,,,,,,,,,,,,,,,,,,,10,,,,,,,,,,,,,,,,,,3,7,,,366.1062,2,right,2.4214,368.5561,0.5,0.3,"[1,3,2]",0.448306642,stimuli/card_10_transparent.png,10,2,0,2,0,1,,,,,,,,,,
,,,,62e70e152763c4635bc6ebb4,B,2024-08-16_14h29.54.611,Slot Machine Game,2023.1.3,Win32,59.88023952,,,,,,,,,,,,,,,,,,,,,,,,,,,20,,,,,,,,,,,,,,,,,,3,7,,,369.3563,3,left,0.5517,369.9397,1,0.3,"[1,3,2]",0.174330011,stimuli/card_10_transparent.png,10,3,0,3,0,1,,,,,,,,,,
,,,,62e70e152763c4635bc6ebb4,B,2024-08-16_14h29.54.611,Slot Machine Game,2023.1.3,Win32,59.88023952,,,,,,,,,,,,,,,,,,,,,,,,,,,20,,,,,,,,,,,,,,,,,,3,7,,,371.2388,4,up,2.5351,373.8056,0.5,0.3,"[1,3,2]",0.539456217,stimuli/card_0_transparent.png,0,4,0,4,0,1,,,,,,,,,,
,,,,62e70e152763c4635bc6ebb4,B,2024-08-16_14h29.54.611,Slot Machine Game,2023.1.3,Win32,59.88023952,,,,,,,,,,,,,,,,,,,,,,,,,,,30,,,,,,,,,,,,,,,,,,3,7,,,374.6057,5,right,0.603,375.2391,1.5,0.3,"[1,3,2]",0.624726765,stimuli/card_10_transparent.png,10,5,0,5,0,1,,,,,,,,,,
,,,,62e70e152763c4635bc6ebb4,B,2024-08-16_14h29.54.611,Slot Machine Game,2023.1.3,Win32,59.88023952,,,,,,,,,,,,,,,,,,,,,,,,,,,130,,,,,,,,,,,,,,,,,,3,7,,,377.0388,6,left,1.1128,378.172,1.5,0.3,"[1,3,2]",0.820298284,stimuli/card_100_transparent.png,100,6,0,6,0,1,,,,,,,,,,
,,,,62e70e152763c4635bc6ebb4,B,2024-08-16_14h29.54.611,Slot Machine Game,2023.1.3,Win32,59.88023952,,,,,,,,,,,,,,,,,,,,,,,,,,,230,,,,,,,,,,,,,,,,,,3,7,,,379.9718,7,left,0.6337,380.6379,1,0.3,"[1,3,2]",0.672078503,stimuli/card_100_transparent.png,100,7,0,7,0,1,,,,,,,,,,
,,,,62e70e152763c4635bc6ebb4,B,2024-08-16_14h29.54.611,Slot Machine Game,2023.1.3,Win32,59.88023952,,,,,,,,,,,,,,,,,,,,,,,,,,,330,,,,,,,,,,,,,,,,,,3,7,,,381.9378,8,left,2.505,384.4708,1,0.3,"[1,3,2]",0.791271595,stimuli/card_100_transparent.png,100,8,0,8,0,1,,,,,,,,,,
,,,,62e70e152763c4635bc6ebb4,B,2024-08-16_14h29.54.611,Slot Machine Game,2023.1.3,Win32,59.88023952,,,,,,,,,,,,,,,,,,,,,,,,,,,340,,,,,,,,,,,,,,,,,,3,7,,,385.7707,9,left,0.674,386.4537,1,0.3,"[2,3,1]",0.52938929,stimuli/card_10_transparent.png,10,9,0,9,0,1,,,,,,,,,,
,,,,62e70e152763c4635bc6ebb4,B,2024-08-16_14h29.54.611,Slot Machine Game,2023.1.3,Win32,59.88023952,,,,,,,,,,,,,,,,,,,,,,,,,,,440,,,,,,,,,,,,,,,,,,3,7,,,387.7535,10,up,0.5193,388.3035,1,0.3,"[2,3,1]",0.058621656,stimuli/card_100_transparent.png,100,10,0,10,0,1,,,,,,,,,,
,,,,62e70e152763c4635bc6ebb4,B,2024-08-16_14h29.54.611,Slot Machine Game,2023.1.3,Win32,59.88023952,,,,,,,,,,,,,,,,,,,,,,,,,,,440,,,,,,,,,,,,,,,,,,3,7,,,389.6037,11,up,1.2579,390.8864,1.5,0.3,"[2,3,1]",0.513952163,stimuli/card_0_transparent.png,0,11,0,11,0,1,,,,,,,,,,
,,,,62e70e152763c4635bc6ebb4,B,2024-08-16_14h29.54.611,Slot Machine Game,2023.1.3,Win32,59.88023952,,,,,,,,,,,,,,,,,,,,,,,,,,,440,,,,,,,,,,,,,,,,,,3,7,,,392.6862,12,right,0.5114,393.2194,1,0.3,"[2,3,1]",0.078352954,stimuli/card_0_transparent.png,0,12,0,12,0,1,,,,,,,,,,
,,,,62e70e152763c4635bc6ebb4,B,2024-08-16_14h29.54.611,Slot Machine Game,2023.1.3,Win32,59.88023952,,,,,,,,,,,,,,,,,,,,,,,,,,,450,,,,,,,,,,,,,,,,,,3,7,,,394.5198,13,left,1.884,396.4365,1.5,0.3,"[2,3,1]",0.387349463,stimuli/card_10_transparent.png,10,13,0,13,0,1,,,,,,,,,,
,,,,62e70e152763c4635bc6ebb4,B,2024-08-16_14h29.54.611,Slot Machine Game,2023.1.3,Win32,59.88023952,,,,,,,,,,,,,,,,,,,,,,,,,,,450,,,,,,,,,,,,,,,,,,3,7,,,398.2354,14,up,1.5601,399.8189,0.5,0.3,"[2,3,1]",0.918380586,stimuli/card_0_transparent.png,0,14,0,14,0,1,,,,,,,,,,
,,,,62e70e152763c4635bc6ebb4,B,2024-08-16_14h29.54.611,Slot Machine Game,2023.1.3,Win32,59.88023952,,,,,,,,,,,,,,,,,,,,,,,,,,,,,,,,,,400.619,,,,,,,,,,,,,,,,,,,,,,,,,,,,,,,"[1120,620,450]",2,0,2,0,1,,,,
,,,,62e70e152763c4635bc6ebb4,B,2024-08-16_14h29.54.611,Slot Machine Game,2023.1.3,Win32,59.88023952,,,,,,,,,,,,,,,,,,,,,,,,,,,100,,,,,,,,,,,,,,,,,,4,4,"[7,15]","[[2,3,1],[1,2,3]]",405.6308,0,right,0.671,406.3175,0.5,0.3,"[2,3,1]",0.464309796,stimuli/card_100_transparent.png,100,0,0,0,0,1,,,,,,,,,,
,,,,62e70e152763c4635bc6ebb4,B,2024-08-16_14h29.54.611,Slot Machine Game,2023.1.3,Win32,59.88023952,,,,,,,,,,,,,,,,,,,,,,,,,,,200,,,,,,,,,,,,,,,,,,4,4,,,407.1178,1,right,0.9017,408.0344,1,0.3,"[2,3,1]",0.472595731,stimuli/card_100_transparent.png,100,1,0,1,0,1,,,,,,,,,,
,,,,62e70e152763c4635bc6ebb4,B,2024-08-16_14h29.54.611,Slot Machine Game,2023.1.3,Win32,59.88023952,,,,,,,,,,,,,,,,,,,,,,,,,,,300,,,,,,,,,,,,,,,,,,4,4,,,409.3333,2,right,0.6175,409.9679,1.5,0.3,"[2,3,1]",0.560534857,stimuli/card_100_transparent.png,100,2,0,2,0,1,,,,,,,,,,
,,,,62e70e152763c4635bc6ebb4,B,2024-08-16_14h29.54.611,Slot Machine Game,2023.1.3,Win32,59.88023952,,,,,,,,,,,,,,,,,,,,,,,,,,,400,,,,,,,,,,,,,,,,,,4,4,,,411.767,3,right,0.5662,412.3669,1,0.3,"[2,3,1]",0.518774201,stimuli/card_100_transparent.png,100,3,0,3,0,1,,,,,,,,,,
,,,,62e70e152763c4635bc6ebb4,B,2024-08-16_14h29.54.611,Slot Machine Game,2023.1.3,Win32,59.88023952,,,,,,,,,,,,,,,,,,,,,,,,,,,500,,,,,,,,,,,,,,,,,,4,4,,,413.6668,4,right,0.6042,414.3001,1,0.3,"[2,3,1]",0.763906586,stimuli/card_100_transparent.png,100,4,0,4,0,1,,,,,,,,,,
,,,,62e70e152763c4635bc6ebb4,B,2024-08-16_14h29.54.611,Slot Machine Game,2023.1.3,Win32,59.88023952,,,,,,,,,,,,,,,,,,,,,,,,,,,600,,,,,,,,,,,,,,,,,,4,4,,,415.5999,5,right,3.0997,418.7333,0.5,0.3,"[2,3,1]",0.385523027,stimuli/card_100_transparent.png,100,5,0,5,0,1,,,,,,,,,,
,,,,62e70e152763c4635bc6ebb4,B,2024-08-16_14h29.54.611,Slot Machine Game,2023.1.3,Win32,59.88023952,,,,,,,,,,,,,,,,,,,,,,,,,,,700,,,,,,,,,,,,,,,,,,4,4,,,419.5325,6,right,0.5862,420.1327,0.5,0.3,"[2,3,1]",0.549472793,stimuli/card_100_transparent.png,100,6,0,6,0,1,,,,,,,,,,
,,,,62e70e152763c4635bc6ebb4,B,2024-08-16_14h29.54.611,Slot Machine Game,2023.1.3,Win32,59.88023952,,,,,,,,,,,,,,,,,,,,,,,,,,,700,,,,,,,,,,,,,,,,,,4,4,,,420.933,7,right,0.5668,421.5329,1.5,0.3,"[1,2,3]",0.272070423,stimuli/card_0_transparent.png,0,7,0,7,0,1,,,,,,,,,,
,,,,62e70e152763c4635bc6ebb4,B,2024-08-16_14h29.54.611,Slot Machine Game,2023.1.3,Win32,59.88023952,,,,,,,,,,,,,,,,,,,,,,,,,,,800,,,,,,,,,,,,,,,,,,4,4,,,423.3322,8,left,0.7016,424.0654,1.5,0.3,"[1,2,3]",0.821150709,stimuli/card_100_transparent.png,100,8,0,8,0,1,,,,,,,,,,
,,,,62e70e152763c4635bc6ebb4,B,2024-08-16_14h29.54.611,Slot Machine Game,2023.1.3,Win32,59.88023952,,,,,,,,,,,,,,,,,,,,,,,,,,,900,,,,,,,,,,,,,,,,,,4,4,,,425.8657,9,left,0.5856,426.4819,1.5,0.3,"[1,2,3]",0.775437343,stimuli/card_100_transparent.png,100,9,0,9,0,1,,,,,,,,,,
,,,,62e70e152763c4635bc6ebb4,B,2024-08-16_14h29.54.611,Slot Machine Game,2023.1.3,Win32,59.88023952,,,,,,,,,,,,,,,,,,,,,,,,,,,1000,,,,,,,,,,,,,,,,,,4,4,,,428.286,10,left,2.9146,431.2309,1,0.3,"[1,2,3]",0.454393887,stimuli/card_100_transparent.png,100,10,0,10,0,1,,,,,,,,,,
,,,,62e70e152763c4635bc6ebb4,B,2024-08-16_14h29.54.611,Slot Machine Game,2023.1.3,Win32,59.88023952,,,,,,,,,,,,,,,,,,,,,,,,,,,1100,,,,,,,,,,,,,,,,,,4,4,,,432.5313,11,left,0.5171,433.0812,1.5,0.3,"[1,2,3]",0.470994227,stimuli/card_100_transparent.png,100,11,0,11,0,1,,,,,,,,,,
,,,,62e70e152763c4635bc6ebb4,B,2024-08-16_14h29.54.611,Slot Machine Game,2023.1.3,Win32,59.88023952,,,,,,,,,,,,,,,,,,,,,,,,,,,1200,,,,,,,,,,,,,,,,,,4,4,,,434.8812,12,left,0.5908,435.4974,1,0.3,"[1,2,3]",0.662217057,stimuli/card_100_transparent.png,100,12,0,12,0,1,,,,,,,,,,
,,,,62e70e152763c4635bc6ebb4,B,2024-08-16_14h29.54.611,Slot Machine Game,2023.1.3,Win32,59.88023952,,,,,,,,,,,,,,,,,,,,,,,,,,,1300,,,,,,,,,,,,,,,,,,4,4,,,436.7971,13,left,0.5164,437.3468,1,0.3,"[1,2,3]",0.725559045,stimuli/card_100_transparent.png,100,13,0,13,0,1,,,,,,,,,,
,,,,62e70e152763c4635bc6ebb4,B,2024-08-16_14h29.54.611,Slot Machine Game,2023.1.3,Win32,59.88023952,,,,,,,,,,,,,,,,,,,,,,,,,,,1400,,,,,,,,,,,,,,,,,,4,4,,,438.647,14,left,0.5171,439.1967,1,0.3,"[1,2,3]",0.93437936,stimuli/card_100_transparent.png,100,14,0,14,0,1,,,,,,,,,,
,,,,62e70e152763c4635bc6ebb4,B,2024-08-16_14h29.54.611,Slot Machine Game,2023.1.3,Win32,59.88023952,,,,,,,,,,,,,,,,,,,,,,,,,,,,,,,,,,440.4966,,,,,,,,,,,,,,,,,,,,,,,,,,,,,,,"[1120,620,450,1400]",3,0,3,0,1,,,,
,,,,62e70e152763c4635bc6ebb4,B,2024-08-16_14h29.54.611,Slot Machine Game,2023.1.3,Win32,59.88023952,,,,,,,,,,,,,,,,,,,,,,,,,,,10,,,,,,,,,,,,,,,,,,5,6,"[4,10,15]","[[2,3,1],[1,3,2],[3,2,1]]",445.5042,0,left,0.9334,446.4629,1,0.3,"[2,3,1]",0.861018214,stimuli/card_10_transparent.png,10,0,0,0,0,1,,,,,,,,,,
,,,,62e70e152763c4635bc6ebb4,B,2024-08-16_14h29.54.611,Slot Machine Game,2023.1.3,Win32,59.88023952,,,,,,,,,,,,,,,,,,,,,,,,,,,110,,,,,,,,,,,,,,,,,,5,6,,,447.7665,1,right,0.6005,448.3998,1,0.3,"[2,3,1]",0.305246236,stimuli/card_100_transparent.png,100,1,0,1,0,1,,,,,,,,,,
,,,,62e70e152763c4635bc6ebb4,B,2024-08-16_14h29.54.611,Slot Machine Game,2023.1.3,Win32,59.88023952,,,,,,,,,,,,,,,,,,,,,,,,,,,210,,,,,,,,,,,,,,,,,,5,6,,,449.6994,2,right,0.5005,450.2328,1.5,0.3,"[2,3,1]",0.239517991,stimuli/card_100_transparent.png,100,2,0,2,0,1,,,,,,,,,,
,,,,62e70e152763c4635bc6ebb4,B,2024-08-16_14h29.54.611,Slot Machine Game,2023.1.3,Win32,59.88023952,,,,,,,,,,,,,,,,,,,,,,,,,,,220,,,,,,,,,,,,,,,,,,5,6,,,452.0324,3,right,0.5655,452.6313,1,0.3,"[2,3,1]",0.148613622,stimuli/card_10_transparent.png,10,3,0,3,0,1,,,,,,,,,,
,,,,62e70e152763c4635bc6ebb4,B,2024-08-16_14h29.54.611,Slot Machine Game,2023.1.3,Win32,59.88023952,,,,,,,,,,,,,,,,,,,,,,,,,,,220,,,,,,,,,,,,,,,,,,5,6,,,453.9319,4,up,1.1002,455.0487,1.5,0.3,"[1,3,2]",0.882554784,stimuli/card_0_transparent.png,0,4,0,4,0,1,,,,,,,,,,
,,,,62e70e152763c4635bc6ebb4,B,2024-08-16_14h29.54.611,Slot Machine Game,2023.1.3,Win32,59.88023952,,,,,,,,,,,,,,,,,,,,,,,,,,,230,,,,,,,,,,,,,,,,,,5,6,,,456.8489,5,left,0.6165,457.4984,1,0.3,"[1,3,2]",0.139396396,stimuli/card_10_transparent.png,10,5,0,5,0,1,,,,,,,,,,
,,,,62e70e152763c4635bc6ebb4,B,2024-08-16_14h29.54.611,Slot Machine Game,2023.1.3,Win32,59.88023952,,,,,,,,,,,,,,,,,,,,,,,,,,,230,,,,,,,,,,,,,,,,,,5,6,,,458.7981,6,up,0.7838,459.6151,1,0.3,"[1,3,2]",0.769554913,stimuli/card_0_transparent.png,0,6,0,6,0,1,,,,,,,,,,
,,,,62e70e152763c4635bc6ebb4,B,2024-08-16_14h29.54.611,Slot Machine Game,2023.1.3,Win32,59.88023952,,,,,,,,,,,,,,,,,,,,,,,,,,,240,,,,,,,,,,,,,,,,,,5,6,,,460.9147,7,right,0.533,461.4811,1,0.3,"[1,3,2]",0.222479872,stimuli/card_10_transparent.png,10,7,0,7,0,1,,,,,,,,,,
,,,,62e70e152763c4635bc6ebb4,B,2024-08-16_14h29.54.611,Slot Machine Game,2023.1.3,Win32,59.88023952,,,,,,,,,,,,,,,,,,,,,,,,,,,240,,,,,,,,,,,,,,,,,,5,6,,,462.7812,8,up,0.6338,463.4477,1.5,0.3,"[1,3,2]",0.770966413,stimuli/card_0_transparent.png,0,8,0,8,0,1,,,,,,,,,,
,,,,62e70e152763c4635bc6ebb4,B,2024-08-16_14h29.54.611,Slot Machine Game,2023.1.3,Win32,59.88023952,,,,,,,,,,,,,,,,,,,,,,,,,,,240,,,,,,,,,,,,,,,,,,5,6,,,465.2476,9,left,0.601,465.8646,1.5,0.3,"[1,3,2]",0.044839547,stimuli/card_0_transparent.png,0,9,0,9,0,1,,,,,,,,,,
,,,,62e70e152763c4635bc6ebb4,B,2024-08-16_14h29.54.611,Slot Machine Game,2023.1.3,Win32,59.88023952,,,,,,,,,,,,,,,,,,,,,,,,,,,250,,,,,,,,,,,,,,,,,,5,6,,,467.6637,10,up,0.5838,468.2805,1.5,0.3,"[3,2,1]",0.442516771,stimuli/card_10_transparent.png,10,10,0,10,0,1,,,,,,,,,,
,,,,62e70e152763c4635bc6ebb4,B,2024-08-16_14h29.54.611,Slot Machine Game,2023.1.3,Win32,59.88023952,,,,,,,,,,,,,,,,,,,,,,,,,,,350,,,,,,,,,,,,,,,,,,5,6,,,470.08,11,right,0.5672,470.6804,0.5,0.3,"[3,2,1]",0.889288633,stimuli/card_100_transparent.png,100,11,0,11,0,1,,,,,,,,,,
,,,,62e70e152763c4635bc6ebb4,B,2024-08-16_14h29.54.611,Slot Machine Game,2023.1.3,Win32,59.88023952,,,,,,,,,,,,,,,,,,,,,,,,,,,450,,,,,,,,,,,,,,,,,,5,6,,,471.4804,12,right,0.6503,472.1632,1.5,0.3,"[3,2,1]",0.651514169,stimuli/card_100_transparent.png,100,12,0,12,0,1,,,,,,,,,,
,,,,62e70e152763c4635bc6ebb4,B,2024-08-16_14h29.54.611,Slot Machine Game,2023.1.3,Win32,59.88023952,,,,,,,,,,,,,,,,,,,,,,,,,,,550,,,,,,,,,,,,,,,,,,5,6,,,473.9631,13,right,3.4336,477.4135,1.5,0.3,"[3,2,1]",0.785698375,stimuli/card_100_transparent.png,100,13,0,13,0,1,,,,,,,,,,
,,,,62e70e152763c4635bc6ebb4,B,2024-08-16_14h29.54.611,Slot Machine Game,2023.1.3,Win32,59.88023952,,,,,,,,,,,,,,,,,,,,,,,,,,,550,,,,,,,,,,,,,,,,,,5,6,,,479.2127,14,right,0.6839,479.9291,1,0.3,"[3,2,1]",0.052258411,stimuli/card_0_transparent.png,0,14,0,14,0,1,,,,,,,,,,
,,,,62e70e152763c4635bc6ebb4,B,2024-08-16_14h29.54.611,Slot Machine Game,2023.1.3,Win32,59.88023952,,,,,,,,,,,,,,,,,,,,,,,,,,,,,,,,,,481.2291,,,,,,,,,,,,,,,,,,,,,,,,,,,,,,,"[1120,620,450,1400,550]",4,0,4,0,1,,,,
,,,,62e70e152763c4635bc6ebb4,B,2024-08-16_14h29.54.611,Slot Machine Game,2023.1.3,Win32,59.88023952,,,,,,,,,,,,,,,,,,,,,,,,,,,10,,,,,,,,,,,,,,,,,,6,8,"[11,15]","[[2,1,3],[1,2,3]]",486.2396,0,left,0.7078,486.9573,0.5,0.3,"[2,1,3]",0.994469035,stimuli/card_10_transparent.png,10,0,0,0,0,1,,,,,,,,,,
,,,,62e70e152763c4635bc6ebb4,B,2024-08-16_14h29.54.611,Slot Machine Game,2023.1.3,Win32,59.88023952,,,,,,,,,,,,,,,,,,,,,,,,,,,110,,,,,,,,,,,,,,,,,,6,8,,,487.7573,1,up,0.8009,488.5908,0.5,0.3,"[2,1,3]",0.69754139,stimuli/card_100_transparent.png,100,1,0,1,0,1,,,,,,,,,,
,,,,62e70e152763c4635bc6ebb4,B,2024-08-16_14h29.54.611,Slot Machine Game,2023.1.3,Win32,59.88023952,,,,,,,,,,,,,,,,,,,,,,,,,,,210,,,,,,,,,,,,,,,,,,6,8,,,489.3903,2,up,0.6257,490.0401,1,0.3,"[2,1,3]",0.234718923,stimuli/card_100_transparent.png,100,2,0,2,0,1,,,,,,,,,,
,,,,62e70e152763c4635bc6ebb4,B,2024-08-16_14h29.54.611,Slot Machine Game,2023.1.3,Win32,59.88023952,,,,,,,,,,,,,,,,,,,,,,,,,,,310,,,,,,,,,,,,,,,,,,6,8,,,491.3405,3,up,0.6373,492.0066,0.5,0.3,"[2,1,3]",0.568499177,stimuli/card_100_transparent.png,100,3,0,3,0,1,,,,,,,,,,
,,,,62e70e152763c4635bc6ebb4,B,2024-08-16_14h29.54.611,Slot Machine Game,2023.1.3,Win32,59.88023952,,,,,,,,,,,,,,,,,,,,,,,,,,,410,,,,,,,,,,,,,,,,,,6,8,,,492.8064,4,up,2.3247,495.1562,0.5,0.3,"[2,1,3]",0.221777635,stimuli/card_100_transparent.png,100,4,0,4,0,1,,,,,,,,,,
,,,,62e70e152763c4635bc6ebb4,B,2024-08-16_14h29.54.611,Slot Machine Game,2023.1.3,Win32,59.88023952,,,,,,,,,,,,,,,,,,,,,,,,,,,510,,,,,,,,,,,,,,,,,,6,8,,,495.9566,5,up,0.6272,496.6055,1.5,0.3,"[2,1,3]",0.646275924,stimuli/card_100_transparent.png,100,5,0,5,0,1,,,,,,,,,,
,,,,62e70e152763c4635bc6ebb4,B,2024-08-16_14h29.54.611,Slot Machine Game,2023.1.3,Win32,59.88023952,,,,,,,,,,,,,,,,,,,,,,,,,,,610,,,,,,,,,,,,,,,,,,6,8,,,498.405,6,up,3.8948,502.3061,1,0.3,"[2,1,3]",0.301652755,stimuli/card_100_transparent.png,100,6,0,6,0,1,,,,,,,,,,
,,,,62e70e152763c4635bc6ebb4,B,2024-08-16_14h29.54.611,Slot Machine Game,2023.1.3,Win32,59.88023952,,,,,,,,,,,,,,,,,,,,,,,,,,,710,,,,,,,,,,,,,,,,,,6,8,,,503.605,7,up,0.7996,504.4389,1,0.3,"[2,1,3]",0.790656938,stimuli/card_100_transparent.png,100,7,0,7,0,1,,,,,,,,,,
,,,,62e70e152763c4635bc6ebb4,B,2024-08-16_14h29.54.611,Slot Machine Game,2023.1.3,Win32,59.88023952,,,,,,,,,,,,,,,,,,,,,,,,,,,810,,,,,,,,,,,,,,,,,,6,8,,,505.7382,8,up,0.5161,506.2717,1,0.3,"[2,1,3]",0.678272514,stimuli/card_100_transparent.png,100,8,0,8,0,1,,,,,,,,,,
,,,,62e70e152763c4635bc6ebb4,B,2024-08-16_14h29.54.611,Slot Machine Game,2023.1.3,Win32,59.88023952,,,,,,,,,,,,,,,,,,,,,,,,,,,910,,,,,,,,,,,,,,,,,,6,8,,,507.5717,9,up,0.5758,508.1717,0.5,0.3,"[2,1,3]",0.538565878,stimuli/card_100_transparent.png,100,9,0,9,0,1,,,,,,,,,,
,,,,62e70e152763c4635bc6ebb4,B,2024-08-16_14h29.54.611,Slot Machine Game,2023.1.3,Win32,59.88023952,,,,,,,,,,,,,,,,,,,,,,,,,,,1010,,,,,,,,,,,,,,,,,,6,8,,,508.9713,10,up,2.4717,511.472,1.5,0.3,"[2,1,3]",0.414836767,stimuli/card_100_transparent.png,100,10,0,10,0,1,,,,,,,,,,
,,,,62e70e152763c4635bc6ebb4,B,2024-08-16_14h29.54.611,Slot Machine Game,2023.1.3,Win32,59.88023952,,,,,,,,,,,,,,,,,,,,,,,,,,,1020,,,,,,,,,,,,,,,,,,6,8,,,513.2707,11,up,0.6682,513.9708,1,0.3,"[1,2,3]",0.31349567,stimuli/card_10_transparent.png,10,11,0,11,0,1,,,,,,,,,,
,,,,62e70e152763c4635bc6ebb4,B,2024-08-16_14h29.54.611,Slot Machine Game,2023.1.3,Win32,59.88023952,,,,,,,,,,,,,,,,,,,,,,,,,,,1020,,,,,,,,,,,,,,,,,,6,8,,,515.2697,12,right,0.6847,515.9701,1,0.3,"[1,2,3]",0.603457638,stimuli/card_0_transparent.png,0,12,0,12,0,1,,,,,,,,,,
,,,,62e70e152763c4635bc6ebb4,B,2024-08-16_14h29.54.611,Slot Machine Game,2023.1.3,Win32,59.88023952,,,,,,,,,,,,,,,,,,,,,,,,,,,1120,,,,,,,,,,,,,,,,,,6,8,,,517.2701,13,left,0.6942,517.9865,1,0.3,"[1,2,3]",0.690073674,stimuli/card_100_transparent.png,100,13,0,13,0,1,,,,,,,,,,
,,,,62e70e152763c4635bc6ebb4,B,2024-08-16_14h29.54.611,Slot Machine Game,2023.1.3,Win32,59.88023952,,,,,,,,,,,,,,,,,,,,,,,,,,,1220,,,,,,,,,,,,,,,,,,6,8,,,519.2861,14,left,0.5004,519.8242,1,0.3,"[1,2,3]",0.260842152,stimuli/card_100_transparent.png,100,14,0,14,0,1,,,,,,,,,,
,,,,62e70e152763c4635bc6ebb4,B,2024-08-16_14h29.54.611,Slot Machine Game,2023.1.3,Win32,59.88023952,,,,,,,,,,,,,,,,,,,,,,,,,,,,,,,,,,521.1194,,,,,,,,,,,,,,,,,,,,,,,,,,,,,,,"[1120,620,450,1400,550,1220]",5,0,5,0,1,,,,
,,,,62e70e152763c4635bc6ebb4,B,2024-08-16_14h29.54.611,Slot Machine Game,2023.1.3,Win32,59.88023952,,,,,,,,,,,,,,,,,,,,,,,,,,,0,,,,,,,,,,,,,,,,,,7,9,"[8,15]","[[3,2,1],[3,1,2]]",526.131,0,left,0.9001,527.0522,1.5,0.3,"[3,2,1]",0.696157461,stimuli/card_0_transparent.png,0,0,0,0,0,1,,,,,,,,,,
,,,,62e70e152763c4635bc6ebb4,B,2024-08-16_14h29.54.611,Slot Machine Game,2023.1.3,Win32,59.88023952,,,,,,,,,,,,,,,,,,,,,,,,,,,10,,,,,,,,,,,,,,,,,,7,9,,,528.8523,1,up,0.7091,529.5845,1.5,0.3,"[3,2,1]",0.793386413,stimuli/card_10_transparent.png,10,1,0,1,0,1,,,,,,,,,,
,,,,62e70e152763c4635bc6ebb4,B,2024-08-16_14h29.54.611,Slot Machine Game,2023.1.3,Win32,59.88023952,,,,,,,,,,,,,,,,,,,,,,,,,,,110,,,,,,,,,,,,,,,,,,7,9,,,531.3848,2,right,0.7009,532.102,1.5,0.3,"[3,2,1]",0.89243816,stimuli/card_100_transparent.png,100,2,0,2,0,1,,,,,,,,,,
,,,,62e70e152763c4635bc6ebb4,B,2024-08-16_14h29.54.611,Slot Machine Game,2023.1.3,Win32,59.88023952,,,,,,,,,,,,,,,,,,,,,,,,,,,210,,,,,,,,,,,,,,,,,,7,9,,,533.9016,3,right,2.5284,536.4506,0.5,0.3,"[3,2,1]",0.57014732,stimuli/card_100_transparent.png,100,3,0,3,0,1,,,,,,,,,,
,,,,62e70e152763c4635bc6ebb4,B,2024-08-16_14h29.54.611,Slot Machine Game,2023.1.3,Win32,59.88023952,,,,,,,,,,,,,,,,,,,,,,,,,,,310,,,,,,,,,,,,,,,,,,7,9,,,537.2507,4,right,0.606,537.8838,0.5,0.3,"[3,2,1]",0.523747807,stimuli/card_100_transparent.png,100,4,0,4,0,1,,,,,,,,,,
,,,,62e70e152763c4635bc6ebb4,B,2024-08-16_14h29.54.611,Slot Machine Game,2023.1.3,Win32,59.88023952,,,,,,,,,,,,,,,,,,,,,,,,,,,410,,,,,,,,,,,,,,,,,,7,9,,,538.6838,5,right,0.6014,539.3174,1.5,0.3,"[3,2,1]",0.377105601,stimuli/card_100_transparent.png,100,5,0,5,0,1,,,,,,,,,,
,,,,62e70e152763c4635bc6ebb4,B,2024-08-16_14h29.54.611,Slot Machine Game,2023.1.3,Win32,59.88023952,,,,,,,,,,,,,,,,,,,,,,,,,,,510,,,,,,,,,,,,,,,,,,7,9,,,541.1166,6,right,0.5171,541.6669,1,0.3,"[3,2,1]",0.273517289,stimuli/card_100_transparent.png,100,6,0,6,0,1,,,,,,,,,,
,,,,62e70e152763c4635bc6ebb4,B,2024-08-16_14h29.54.611,Slot Machine Game,2023.1.3,Win32,59.88023952,,,,,,,,,,,,,,,,,,,,,,,,,,,610,,,,,,,,,,,,,,,,,,7,9,,,542.9666,7,right,1.4824,544.4836,1,0.3,"[3,2,1]",0.471377888,stimuli/card_100_transparent.png,100,7,0,7,0,1,,,,,,,,,,
,,,,62e70e152763c4635bc6ebb4,B,2024-08-16_14h29.54.611,Slot Machine Game,2023.1.3,Win32,59.88023952,,,,,,,,,,,,,,,,,,,,,,,,,,,620,,,,,,,,,,,,,,,,,,7,9,,,545.783,8,right,0.8213,546.633,0.5,0.3,"[3,1,2]",0.498292383,stimuli/card_10_transparent.png,10,8,0,8,0,1,,,,,,,,,,
,,,,62e70e152763c4635bc6ebb4,B,2024-08-16_14h29.54.611,Slot Machine Game,2023.1.3,Win32,59.88023952,,,,,,,,,,,,,,,,,,,,,,,,,,,720,,,,,,,,,,,,,,,,,,7,9,,,547.4329,9,up,0.8176,548.2663,1,0.3,"[3,1,2]",0.803948896,stimuli/card_100_transparent.png,100,9,0,9,0,1,,,,,,,,,,
,,,,62e70e152763c4635bc6ebb4,B,2024-08-16_14h29.54.611,Slot Machine Game,2023.1.3,Win32,59.88023952,,,,,,,,,,,,,,,,,,,,,,,,,,,820,,,,,,,,,,,,,,,,,,7,9,,,549.5657,10,up,0.7231,550.299,0.5,0.3,"[3,1,2]",0.953008071,stimuli/card_100_transparent.png,100,10,0,10,0,1,,,,,,,,,,
,,,,62e70e152763c4635bc6ebb4,B,2024-08-16_14h29.54.611,Slot Machine Game,2023.1.3,Win32,59.88023952,,,,,,,,,,,,,,,,,,,,,,,,,,,920,,,,,,,,,,,,,,,,,,7,9,,,551.0994,11,up,0.801,551.9317,0.5,0.3,"[3,1,2]",0.737213295,stimuli/card_100_transparent.png,100,11,0,11,0,1,,,,,,,,,,
,,,,62e70e152763c4635bc6ebb4,B,2024-08-16_14h29.54.611,Slot Machine Game,2023.1.3,Win32,59.88023952,,,,,,,,,,,,,,,,,,,,,,,,,,,1020,,,,,,,,,,,,,,,,,,7,9,,,552.7317,12,up,0.512,553.2482,0.5,0.3,"[3,1,2]",0.997311765,stimuli/card_100_transparent.png,100,12,0,12,0,1,,,,,,,,,,
,,,,62e70e152763c4635bc6ebb4,B,2024-08-16_14h29.54.611,Slot Machine Game,2023.1.3,Win32,59.88023952,,,,,,,,,,,,,,,,,,,,,,,,,,,1120,,,,,,,,,,,,,,,,,,7,9,,,554.0485,13,up,0.6395,554.7151,1,0.3,"[3,1,2]",0.492705461,stimuli/card_100_transparent.png,100,13,0,13,0,1,,,,,,,,,,
,,,,62e70e152763c4635bc6ebb4,B,2024-08-16_14h29.54.611,Slot Machine Game,2023.1.3,Win32,59.88023952,,,,,,,,,,,,,,,,,,,,,,,,,,,1130,,,,,,,,,,,,,,,,,,7,9,,,556.0149,14,up,0.6179,556.6652,1.5,0.3,"[3,1,2]",0.194591478,stimuli/card_10_transparent.png,10,14,0,14,0,1,,,,,,,,,,
,,,,62e70e152763c4635bc6ebb4,B,2024-08-16_14h29.54.611,Slot Machine Game,2023.1.3,Win32,59.88023952,,,,,,,,,,,,,,,,,,,,,,,,,,,,,,,,,,558.4643,,,,,,,,,,,,,,,,,,,,,,,,,,,,,,,"[1120,620,450,1400,550,1220,1130]",6,0,6,0,1,,,,
,,,,62e70e152763c4635bc6ebb4,B,2024-08-16_14h29.54.611,Slot Machine Game,2023.1.3,Win32,59.88023952,,,,,,,,,,,,,,,,,,,,,,,,,,,0,,,,,,,,,,,,,,,,,,8,2,"[6,15]","[[1,3,2],[3,2,1]]",563.4769,0,left,0.7017,564.1974,1.5,0.3,"[1,3,2]",0.083444448,stimuli/card_0_transparent.png,0,0,0,0,0,1,,,,,,,,,,
,,,,62e70e152763c4635bc6ebb4,B,2024-08-16_14h29.54.611,Slot Machine Game,2023.1.3,Win32,59.88023952,,,,,,,,,,,,,,,,,,,,,,,,,,,0,,,,,,,,,,,,,,,,,,8,2,,,565.9966,1,up,0.5841,566.6134,0.5,0.3,"[1,3,2]",0.845661343,stimuli/card_0_transparent.png,0,1,0,1,0,1,,,,,,,,,,
,,,,62e70e152763c4635bc6ebb4,B,2024-08-16_14h29.54.611,Slot Machine Game,2023.1.3,Win32,59.88023952,,,,,,,,,,,,,,,,,,,,,,,,,,,10,,,,,,,,,,,,,,,,,,8,2,,,567.4135,2,right,0.5393,567.9799,1.5,0.3,"[1,3,2]",0.498699104,stimuli/card_10_transparent.png,10,2,0,2,0,1,,,,,,,,,,
,,,,62e70e152763c4635bc6ebb4,B,2024-08-16_14h29.54.611,Slot Machine Game,2023.1.3,Win32,59.88023952,,,,,,,,,,,,,,,,,,,,,,,,,,,10,,,,,,,,,,,,,,,,,,8,2,,,569.7799,3,up,0.6919,570.4963,1,0.3,"[1,3,2]",0.574489439,stimuli/card_0_transparent.png,0,3,0,3,0,1,,,,,,,,,,
,,,,62e70e152763c4635bc6ebb4,B,2024-08-16_14h29.54.611,Slot Machine Game,2023.1.3,Win32,59.88023952,,,,,,,,,,,,,,,,,,,,,,,,,,,110,,,,,,,,,,,,,,,,,,8,2,,,571.7962,4,left,0.6054,572.429,1.5,0.3,"[1,3,2]",0.454693102,stimuli/card_100_transparent.png,100,4,0,4,0,1,,,,,,,,,,
,,,,62e70e152763c4635bc6ebb4,B,2024-08-16_14h29.54.611,Slot Machine Game,2023.1.3,Win32,59.88023952,,,,,,,,,,,,,,,,,,,,,,,,,,,210,,,,,,,,,,,,,,,,,,8,2,,,574.2291,5,left,0.6066,574.8624,1.5,0.3,"[1,3,2]",0.640212896,stimuli/card_100_transparent.png,100,5,0,5,0,1,,,,,,,,,,
,,,,62e70e152763c4635bc6ebb4,B,2024-08-16_14h29.54.611,Slot Machine Game,2023.1.3,Win32,59.88023952,,,,,,,,,,,,,,,,,,,,,,,,,,,220,,,,,,,,,,,,,,,,,,8,2,,,576.6627,6,left,0.6075,577.2954,1,0.3,"[3,2,1]",0.132747516,stimuli/card_10_transparent.png,10,6,0,6,0,1,,,,,,,,,,
,,,,62e70e152763c4635bc6ebb4,B,2024-08-16_14h29.54.611,Slot Machine Game,2023.1.3,Win32,59.88023952,,,,,,,,,,,,,,,,,,,,,,,,,,,230,,,,,,,,,,,,,,,,,,8,2,,,578.5958,7,up,2.5879,581.2117,1,0.3,"[3,2,1]",0.334023704,stimuli/card_10_transparent.png,10,7,0,7,0,1,,,,,,,,,,
,,,,62e70e152763c4635bc6ebb4,B,2024-08-16_14h29.54.611,Slot Machine Game,2023.1.3,Win32,59.88023952,,,,,,,,,,,,,,,,,,,,,,,,,,,330,,,,,,,,,,,,,,,,,,8,2,,,582.5119,8,right,0.7112,583.2441,1,0.3,"[3,2,1]",0.87940063,stimuli/card_100_transparent.png,100,8,0,8,0,1,,,,,,,,,,
,,,,62e70e152763c4635bc6ebb4,B,2024-08-16_14h29.54.611,Slot Machine Game,2023.1.3,Win32,59.88023952,,,,,,,,,,,,,,,,,,,,,,,,,,,430,,,,,,,,,,,,,,,,,,8,2,,,584.5442,9,right,0.5004,585.0614,1.5,0.3,"[3,2,1]",0.812920914,stimuli/card_100_transparent.png,100,9,0,9,0,1,,,,,,,,,,
,,,,62e70e152763c4635bc6ebb4,B,2024-08-16_14h29.54.611,Slot Machine Game,2023.1.3,Win32,59.88023952,,,,,,,,,,,,,,,,,,,,,,,,,,,440,,,,,,,,,,,,,,,,,,8,2,,,586.861,10,right,3.3031,590.1689,0.5,0.3,"[3,2,1]",0.10197889,stimuli/card_10_transparent.png,10,10,0,10,0,1,,,,,,,,,,
,,,,62e70e152763c4635bc6ebb4,B,2024-08-16_14h29.54.611,Slot Machine Game,2023.1.3,Win32,59.88023952,,,,,,,,,,,,,,,,,,,,,,,,,,,450,,,,,,,,,,,,,,,,,,8,2,,,590.9608,11,up,0.6262,591.6098,1,0.3,"[3,2,1]",0.940416753,stimuli/card_10_transparent.png,10,11,0,11,0,1,,,,,,,,,,
,,,,62e70e152763c4635bc6ebb4,B,2024-08-16_14h29.54.611,Slot Machine Game,2023.1.3,Win32,59.88023952,,,,,,,,,,,,,,,,,,,,,,,,,,,460,,,,,,,,,,,,,,,,,,8,2,,,592.9104,12,left,0.5892,593.5265,0.5,0.3,"[3,2,1]",0.123487232,stimuli/card_10_transparent.png,10,12,0,12,0,1,,,,,,,,,,
,,,,62e70e152763c4635bc6ebb4,B,2024-08-16_14h29.54.611,Slot Machine Game,2023.1.3,Win32,59.88023952,,,,,,,,,,,,,,,,,,,,,,,,,,,470,,,,,,,,,,,,,,,,,,8,2,,,594.3263,13,up,0.6338,594.9935,0.5,0.3,"[3,2,1]",0.450507339,stimuli/card_10_transparent.png,10,13,0,13,0,1,,,,,,,,,,
,,,,62e70e152763c4635bc6ebb4,B,2024-08-16_14h29.54.611,Slot Machine Game,2023.1.3,Win32,59.88023952,,,,,,,,,,,,,,,,,,,,,,,,,,,570,,,,,,,,,,,,,,,,,,8,2,,,595.7935,14,right,0.7337,596.5598,1,0.3,"[3,2,1]",0.269804284,stimuli/card_100_transparent.png,100,14,0,14,0,1,,,,,,,,,,
,,,,62e70e152763c4635bc6ebb4,B,2024-08-16_14h29.54.611,Slot Machine Game,2023.1.3,Win32,59.88023952,,,,,,,,,,,,,,,,,,,,,,,,,,,,,,,,,,597.8595,,,,,,,,,,,,,,,,,,,,,,,,,,,,,,,"[1120,620,450,1400,550,1220,1130,570]",7,0,7,0,1,,,,
,,,,62e70e152763c4635bc6ebb4,B,2024-08-16_14h29.54.611,Slot Machine Game,2023.1.3,Win32,59.88023952,,,,,,,,,,,,,,,,,,,,,,,,,,,0,,,,,,,,,,,,,,,,,,9,10,"[10,15]","[[3,1,2],[1,3,2]]",602.868,0,left,0.8118,603.6917,1.5,0.3,"[3,1,2]",0.697626263,stimuli/card_0_transparent.png,0,0,0,0,0,1,,,,,,,,,,
,,,,62e70e152763c4635bc6ebb4,B,2024-08-16_14h29.54.611,Slot Machine Game,2023.1.3,Win32,59.88023952,,,,,,,,,,,,,,,,,,,,,,,,,,,100,,,,,,,,,,,,,,,,,,9,10,,,605.492,1,up,0.517,606.0415,0.5,0.3,"[3,1,2]",0.502243542,stimuli/card_100_transparent.png,100,1,0,1,0,1,,,,,,,,,,
,,,,62e70e152763c4635bc6ebb4,B,2024-08-16_14h29.54.611,Slot Machine Game,2023.1.3,Win32,59.88023952,,,,,,,,,,,,,,,,,,,,,,,,,,,200,,,,,,,,,,,,,,,,,,9,10,,,606.8423,2,up,0.6513,607.5248,1,0.3,"[3,1,2]",0.672690951,stimuli/card_100_transparent.png,100,2,0,2,0,1,,,,,,,,,,
,,,,62e70e152763c4635bc6ebb4,B,2024-08-16_14h29.54.611,Slot Machine Game,2023.1.3,Win32,59.88023952,,,,,,,,,,,,,,,,,,,,,,,,,,,300,,,,,,,,,,,,,,,,,,9,10,,,608.8251,3,up,0.6413,609.4912,1,0.3,"[3,1,2]",0.832361799,stimuli/card_100_transparent.png,100,3,0,3,0,1,,,,,,,,,,
,,,,62e70e152763c4635bc6ebb4,B,2024-08-16_14h29.54.611,Slot Machine Game,2023.1.3,Win32,59.88023952,,,,,,,,,,,,,,,,,,,,,,,,,,,400,,,,,,,,,,,,,,,,,,9,10,,,610.7917,4,up,0.6007,611.4244,1,0.3,"[3,1,2]",0.463993432,stimuli/card_100_transparent.png,100,4,0,4,0,1,,,,,,,,,,
,,,,62e70e152763c4635bc6ebb4,B,2024-08-16_14h29.54.611,Slot Machine Game,2023.1.3,Win32,59.88023952,,,,,,,,,,,,,,,,,,,,,,,,,,,500,,,,,,,,,,,,,,,,,,9,10,,,612.7243,5,up,0.6013,613.3576,1.5,0.3,"[3,1,2]",0.918836515,stimuli/card_100_transparent.png,100,5,0,5,0,1,,,,,,,,,,
,,,,62e70e152763c4635bc6ebb4,B,2024-08-16_14h29.54.611,Slot Machine Game,2023.1.3,Win32,59.88023952,,,,,,,,,,,,,,,,,,,,,,,,,,,600,,,,,,,,,,,,,,,,,,9,10,,,615.1576,6,up,0.5951,615.7733,1,0.3,"[3,1,2]",0.256278401,stimuli/card_100_transparent.png,100,6,0,6,0,1,,,,,,,,,,
,,,,62e70e152763c4635bc6ebb4,B,2024-08-16_14h29.54.611,Slot Machine Game,2023.1.3,Win32,59.88023952,,,,,,,,,,,,,,,,,,,,,,,,,,,610,,,,,,,,,,,,,,,,,,9,10,,,617.0737,7,up,0.5605,617.6567,1.5,0.3,"[3,1,2]",0.130089148,stimuli/card_10_transparent.png,10,7,0,7,0,1,,,,,,,,,,
,,,,62e70e152763c4635bc6ebb4,B,2024-08-16_14h29.54.611,Slot Machine Game,2023.1.3,Win32,59.88023952,,,,,,,,,,,,,,,,,,,,,,,,,,,710,,,,,,,,,,,,,,,,,,9,10,,,619.4604,8,right,0.6268,620.1063,0.5,0.3,"[3,1,2]",0.134149081,stimuli/card_100_transparent.png,100,8,0,8,0,1,,,,,,,,,,
,,,,62e70e152763c4635bc6ebb4,B,2024-08-16_14h29.54.611,Slot Machine Game,2023.1.3,Win32,59.88023952,,,,,,,,,,,,,,,,,,,,,,,,,,,810,,,,,,,,,,,,,,,,,,9,10,,,620.9064,9,right,0.5834,621.5236,0.5,0.3,"[3,1,2]",0.104104212,stimuli/card_100_transparent.png,100,9,0,9,0,1,,,,,,,,,,
,,,,62e70e152763c4635bc6ebb4,B,2024-08-16_14h29.54.611,Slot Machine Game,2023.1.3,Win32,59.88023952,,,,,,,,,,,,,,,,,,,,,,,,,,,820,,,,,,,,,,,,,,,,,,9,10,,,622.3235,10,right,1.7492,624.0896,0.5,0.3,"[1,3,2]",0.377802038,stimuli/card_10_transparent.png,10,10,0,10,0,1,,,,,,,,,,
,,,,62e70e152763c4635bc6ebb4,B,2024-08-16_14h29.54.611,Slot Machine Game,2023.1.3,Win32,59.88023952,,,,,,,,,,,,,,,,,,,,,,,,,,,820,,,,,,,,,,,,,,,,,,9,10,,,624.8898,11,up,0.5483,625.4724,1.5,0.3,"[1,3,2]",0.808655055,stimuli/card_0_transparent.png,0,11,0,11,0,1,,,,,,,,,,
,,,,62e70e152763c4635bc6ebb4,B,2024-08-16_14h29.54.611,Slot Machine Game,2023.1.3,Win32,59.88023952,,,,,,,,,,,,,,,,,,,,,,,,,,,820,,,,,,,,,,,,,,,,,,9,10,,,627.2727,12,left,1.9736,629.2731,1,0.3,"[1,3,2]",0.073494155,stimuli/card_0_transparent.png,0,12,0,12,0,1,,,,,,,,,,
,,,,62e70e152763c4635bc6ebb4,B,2024-08-16_14h29.54.611,Slot Machine Game,2023.1.3,Win32,59.88023952,,,,,,,,,,,,,,,,,,,,,,,,,,,820,,,,,,,,,,,,,,,,,,9,10,,,630.5722,13,up,0.6953,631.3047,1.5,0.3,"[1,3,2]",0.469269338,stimuli/card_0_transparent.png,0,13,0,13,0,1,,,,,,,,,,
,,,,62e70e152763c4635bc6ebb4,B,2024-08-16_14h29.54.611,Slot Machine Game,2023.1.3,Win32,59.88023952,,,,,,,,,,,,,,,,,,,,,,,,,,,820,,,,,,,,,,,,,,,,,,9,10,,,633.1047,14,right,0.6554,633.7715,0.5,0.3,"[1,3,2]",0.038280642,stimuli/card_0_transparent.png,0,14,0,14,0,1,,,,,,,,,,
,,,,62e70e152763c4635bc6ebb4,B,2024-08-16_14h29.54.611,Slot Machine Game,2023.1.3,Win32,59.88023952,,,,,,,,,,,,,,,,,,,,,,,,,,,,,,,,,,634.5713,,,,,,,,,,,,,,,,,,,,,,,,,,,,,,,"[1120,620,450,1400,550,1220,1130,570,820]",8,0,8,0,1,,,,
,,,,62e70e152763c4635bc6ebb4,B,2024-08-16_14h29.54.611,Slot Machine Game,2023.1.3,Win32,59.88023952,,,,,,,,,,,,,,,,,,,,,,,,,,,0,,,,,,,,,,,,,,,,,,10,3,"[15,15]","[[3,1,2],[3,1,2]]",639.5829,0,left,0.7173,640.3209,0.5,0.3,"[3,1,2]",0.339115552,stimuli/card_0_transparent.png,0,0,0,0,0,1,,,,,,,,,,
,,,,62e70e152763c4635bc6ebb4,B,2024-08-16_14h29.54.611,Slot Machine Game,2023.1.3,Win32,59.88023952,,,,,,,,,,,,,,,,,,,,,,,,,,,100,,,,,,,,,,,,,,,,,,10,3,,,641.1208,1,up,0.5843,641.7372,1,0.3,"[3,1,2]",0.50431699,stimuli/card_100_transparent.png,100,1,0,1,0,1,,,,,,,,,,
,,,,62e70e152763c4635bc6ebb4,B,2024-08-16_14h29.54.611,Slot Machine Game,2023.1.3,Win32,59.88023952,,,,,,,,,,,,,,,,,,,,,,,,,,,200,,,,,,,,,,,,,,,,,,10,3,,,643.0367,2,up,0.6001,643.6575,1,0.3,"[3,1,2]",0.695868321,stimuli/card_100_transparent.png,100,2,0,2,0,1,,,,,,,,,,
,,,,62e70e152763c4635bc6ebb4,B,2024-08-16_14h29.54.611,Slot Machine Game,2023.1.3,Win32,59.88023952,,,,,,,,,,,,,,,,,,,,,,,,,,,200,,,,,,,,,,,,,,,,,,10,3,,,644.9533,3,up,0.7185,645.7037,1,0.3,"[3,1,2]",0.049845798,stimuli/card_0_transparent.png,0,3,0,3,0,1,,,,,,,,,,
,,,,62e70e152763c4635bc6ebb4,B,2024-08-16_14h29.54.611,Slot Machine Game,2023.1.3,Win32,59.88023952,,,,,,,,,,,,,,,,,,,,,,,,,,,210,,,,,,,,,,,,,,,,,,10,3,,,647.0034,4,right,0.5543,647.5864,1.5,0.3,"[3,1,2]",0.355170433,stimuli/card_10_transparent.png,10,4,0,4,0,1,,,,,,,,,,
,,,,62e70e152763c4635bc6ebb4,B,2024-08-16_14h29.54.611,Slot Machine Game,2023.1.3,Win32,59.88023952,,,,,,,,,,,,,,,,,,,,,,,,,,,220,,,,,,,,,,,,,,,,,,10,3,,,649.3859,5,right,0.935,650.3353,0.5,0.3,"[3,1,2]",0.616830683,stimuli/card_10_transparent.png,10,5,0,5,0,1,,,,,,,,,,
,,,,62e70e152763c4635bc6ebb4,B,2024-08-16_14h29.54.611,Slot Machine Game,2023.1.3,Win32,59.88023952,,,,,,,,,,,,,,,,,,,,,,,,,,,320,,,,,,,,,,,,,,,,,,10,3,,,651.136,6,up,0.6278,651.7856,1,0.3,"[3,1,2]",0.219967035,stimuli/card_100_transparent.png,100,6,0,6,0,1,,,,,,,,,,
,,,,62e70e152763c4635bc6ebb4,B,2024-08-16_14h29.54.611,Slot Machine Game,2023.1.3,Win32,59.88023952,,,,,,,,,,,,,,,,,,,,,,,,,,,420,,,,,,,,,,,,,,,,,,10,3,,,653.086,7,up,0.7082,653.8186,0.5,0.3,"[3,1,2]",0.821351865,stimuli/card_100_transparent.png,100,7,0,7,0,1,,,,,,,,,,
,,,,62e70e152763c4635bc6ebb4,B,2024-08-16_14h29.54.611,Slot Machine Game,2023.1.3,Win32,59.88023952,,,,,,,,,,,,,,,,,,,,,,,,,,,420,,,,,,,,,,,,,,,,,,10,3,,,654.6188,8,left,1.0497,655.7024,0.5,0.3,"[3,1,2]",0.394741005,stimuli/card_0_transparent.png,0,8,0,8,0,1,,,,,,,,,,
,,,,62e70e152763c4635bc6ebb4,B,2024-08-16_14h29.54.611,Slot Machine Game,2023.1.3,Win32,59.88023952,,,,,,,,,,,,,,,,,,,,,,,,,,,520,,,,,,,,,,,,,,,,,,10,3,,,656.5019,9,up,0.6573,657.1846,0.5,0.3,"[3,1,2]",0.349020174,stimuli/card_100_transparent.png,100,9,0,9,0,1,,,,,,,,,,
,,,,62e70e152763c4635bc6ebb4,B,2024-08-16_14h29.54.611,Slot Machine Game,2023.1.3,Win32,59.88023952,,,,,,,,,,,,,,,,,,,,,,,,,,,620,,,,,,,,,,,,,,,,,,10,3,,,657.9853,10,up,0.5899,658.6016,1.5,0.3,"[3,1,2]",0.406873775,stimuli/card_100_transparent.png,100,10,0,10,0,1,,,,,,,,,,
,,,,62e70e152763c4635bc6ebb4,B,2024-08-16_14h29.54.611,Slot Machine Game,2023.1.3,Win32,59.88023952,,,,,,,,,,,,,,,,,,,,,,,,,,,720,,,,,,,,,,,,,,,,,,10,3,,,660.4014,11,up,0.546,660.9672,1.5,0.3,"[3,1,2]",0.954231045,stimuli/card_100_transparent.png,100,11,0,11,0,1,,,,,,,,,,
,,,,62e70e152763c4635bc6ebb4,B,2024-08-16_14h29.54.611,Slot Machine Game,2023.1.3,Win32,59.88023952,,,,,,,,,,,,,,,,,,,,,,,,,,,820,,,,,,,,,,,,,,,,,,10,3,,,662.7677,12,up,0.5482,663.3372,1,0.3,"[3,1,2]",0.201633856,stimuli/card_100_transparent.png,100,12,0,12,0,1,,,,,,,,,,
,,,,62e70e152763c4635bc6ebb4,B,2024-08-16_14h29.54.611,Slot Machine Game,2023.1.3,Win32,59.88023952,,,,,,,,,,,,,,,,,,,,,,,,,,,920,,,,,,,,,,,,,,,,,,10,3,,,664.634,13,up,3.3859,668.0514,1.5,0.3,"[3,1,2]",0.583254617,stimuli/card_100_transparent.png,100,13,0,13,0,1,,,,,,,,,,
,,,,62e70e152763c4635bc6ebb4,B,2024-08-16_14h29.54.611,Slot Machine Game,2023.1.3,Win32,59.88023952,,,,,,,,,,,,,,,,,,,,,,,,,,,920,,,,,,,,,,,,,,,,,,10,3,,,669.8504,14,up,1.0667,670.9499,1.5,0.3,"[3,1,2]",0.087555812,stimuli/card_0_transparent.png,0,14,0,14,0,1,,,,,,,,,,
,,,,62e70e152763c4635bc6ebb4,B,2024-08-16_14h29.54.611,Slot Machine Game,2023.1.3,Win32,59.88023952,,,,,,,,,,,,,,,,,,,,,,,,,,,,,,,,,,672.7504,,,,,,,,,,,,,,,,,,,,,,,,,,,,,,,"[1120,620,450,1400,550,1220,1130,570,820,920]",9,0,9,0,1,,,,
,,,,62e70e152763c4635bc6ebb4,B,2024-08-16_14h29.54.611,Slot Machine Game,2023.1.3,Win32,59.88023952,,,,,,,,,,,,,,,,,,,,,,,,,,,,,,,,,,,,,,,,,,,,,,,,,,,,,,,,,,,,,,,,,,,,,,,9,"[1120,620,450,1400,550,1220,1130,570,820,920]",12.2,2024-08-16_14h41.16.468
