key_resp_welcome.started,key_resp_welcome.keys,key_resp_welcome.rt,key_resp_welcome.duration,participant,date,expName,psychopyVersion,OS,frameRate,key_resp_instruction1.started,key_resp_instruction1.keys,key_resp_instruction1.rt,key_resp_instruction1.duration,key_resp_instruction2.started,key_resp_instruction2.keys,key_resp_instruction2.rt,key_resp_instruction2.duration,key_resp_instruction3.started,key_resp_instruction3.keys,key_resp_instruction3.rt,key_resp_instruction3.duration,practiceCondition,practice_reward_seqs,key_resp_practice_slots.rt,key_resp_practice_slots.duration,key_resp_practice_slots.keys,presentationInterval,"practice_reward_seq: 2,1,3",practice_trials.thisRepN,practice_trials.thisTrialN,practice_trials.thisN,practice_trials.thisIndex,practice_trials.ran,"practice_reward_seq: 2,3,1",reward_Img,Cuml_rew,currentPracticeTrialReward,text_block_break.started,"practice_reward_seq: 1,3,2","practice_reward_seq: 3,1,2",key_resp_practice_end.started,key_resp_practice_end.keys,key_resp_practice_end.rt,key_resp_practice_end.duration,text_main_instruction.started,BlockCondition,BlockOrderIndices,key_resp_main_instruction.started,key_resp_main_instruction.keys,key_resp_main_instruction.rt,key_resp_main_instruction.duration,blockNumber,blockAssignment,currentCondition,main_reward_seqs,key_resp_slots_presentation.started,key_resp_slots_presentation.keys,Main_presentationInterval,rewardPresentationTime,main_trials.thisRepN,main_trials.thisTrialN,main_trials.thisN,main_trials.thisIndex,main_trials.ran,key_resp_slots_presentation.rt,key_resp_slots_presentation.duration,Main_reward_seq,Random value generated,Main_reward_Img,Main_Cumul_Reward,Main_currentTrialReward,block.thisRepN,block.thisTrialN,block.thisN,block.thisIndex,block.ran
0.0004,space,44.4902,,,2023-10-30_10h39.05.505,SlotMachine_updated,2023.1.3,MacIntel,60.0024001,,,,,,,,,,,,,,,,,,,,,,,,,,,,,,,,,,,,,,,,,,,,,,,,,,,,,,,,,,,,,,,,,,,
,,,,,2023-10-30_10h39.05.505,SlotMachine_updated,2023.1.3,MacIntel,60.0024001,,,,,,,,,,,,,,,,,,,,,,,,,,,,,,,,,,,,,,,,,,,,,,,,,,,,,,,,,,,,,,,,,,,
,,,,,2023-10-30_10h39.05.505,SlotMachine_updated,2023.1.3,MacIntel,60.0024001,186.1968,space,16.7475,,,,,,,,,,,,,,,,,,,,,,,,,,,,,,,,,,,,,,,,,,,,,,,,,,,,,,,,,,,,,,,,
,,,,,2023-10-30_10h39.05.505,SlotMachine_updated,2023.1.3,MacIntel,60.0024001,,,,,202.9715,space,5.0964,,,,,,,,,,,,,,,,,,,,,,,,,,,,,,,,,,,,,,,,,,,,,,,,,,,,,,,,,,,,
,,,,,2023-10-30_10h39.05.505,SlotMachine_updated,2023.1.3,MacIntel,60.0024001,,,,,,,,,208.0949,space,9.2277,,,,,,,,,,,,,,,,,,,,,,,,,,,,,,,,,,,,,,,,,,,,,,,,,,,,,,,,
,,,,,2023-10-30_10h39.05.505,SlotMachine_updated,2023.1.3,MacIntel,60.0024001,,,,,,,,,,,,,"[9,15]","[[2,1,3],[2,3,1]]",[],,[],1.5,,0,0,0,0,1,,,,,,,,,,,,,,,,,,,,,,,,,,,,,,,,,,,,,,,,,,,
,,,,,2023-10-30_10h39.05.505,SlotMachine_updated,2023.1.3,MacIntel,60.0024001,,,,,,,,,,,,,,,[],,[],0.5,,1,0,1,0,1,,,,,,,,,,,,,,,,,,,,,,,,,,,,,,,,,,,,,,,,,,,
,,,,,2023-10-30_10h39.05.505,SlotMachine_updated,2023.1.3,MacIntel,60.0024001,,,,,,,,,,,,,,,[],,[],1.5,,2,0,2,0,1,,,,,,,,,,,,,,,,,,,,,,,,,,,,,,,,,,,,,,,,,,,
,,,,,2023-10-30_10h39.05.505,SlotMachine_updated,2023.1.3,MacIntel,60.0024001,,,,,,,,,,,,,,,[],,[],1.5,,3,0,3,0,1,,,,,,,,,,,,,,,,,,,,,,,,,,,,,,,,,,,,,,,,,,,
,,,,,2023-10-30_10h39.05.505,SlotMachine_updated,2023.1.3,MacIntel,60.0024001,,,,,,,,,,,,,,,[],,[],1.5,,4,0,4,0,1,,,,,,,,,,,,,,,,,,,,,,,,,,,,,,,,,,,,,,,,,,,
,,,,,2023-10-30_10h39.05.505,SlotMachine_updated,2023.1.3,MacIntel,60.0024001,,,,,,,,,,,,,,,[],,[],1.5,,5,0,5,0,1,,,,,,,,,,,,,,,,,,,,,,,,,,,,,,,,,,,,,,,,,,,
,,,,,2023-10-30_10h39.05.505,SlotMachine_updated,2023.1.3,MacIntel,60.0024001,,,,,,,,,,,,,,,[],,[],1,,6,0,6,0,1,,,,,,,,,,,,,,,,,,,,,,,,,,,,,,,,,,,,,,,,,,,
,,,,,2023-10-30_10h39.05.505,SlotMachine_updated,2023.1.3,MacIntel,60.0024001,,,,,,,,,,,,,,,[],,[],1.5,,7,0,7,0,1,,,,,,,,,,,,,,,,,,,,,,,,,,,,,,,,,,,,,,,,,,,
,,,,,2023-10-30_10h39.05.505,SlotMachine_updated,2023.1.3,MacIntel,60.0024001,,,,,,,,,,,,,,,[],,[],1.5,,8,0,8,0,1,,,,,,,,,,,,,,,,,,,,,,,,,,,,,,,,,,,,,,,,,,,
,,,,,2023-10-30_10h39.05.505,SlotMachine_updated,2023.1.3,MacIntel,60.0024001,,,,,,,,,,,,,,,[],,[],1.5,,9,0,9,0,1,,,,,,,,,,,,,,,,,,,,,,,,,,,,,,,,,,,,,,,,,,,
,,,,,2023-10-30_10h39.05.505,SlotMachine_updated,2023.1.3,MacIntel,60.0024001,,,,,,,,,,,,,,,[],,[],1.5,,10,0,10,0,1,,,,,,,,,,,,,,,,,,,,,,,,,,,,,,,,,,,,,,,,,,,
,,,,,2023-10-30_10h39.05.505,SlotMachine_updated,2023.1.3,MacIntel,60.0024001,,,,,,,,,,,,,,,[],,[],1.5,,11,0,11,0,1,,,,,,,,,,,,,,,,,,,,,,,,,,,,,,,,,,,,,,,,,,,
,,,,,2023-10-30_10h39.05.505,SlotMachine_updated,2023.1.3,MacIntel,60.0024001,,,,,,,,,,,,,,,3.8366,,right,1.5,,12,0,12,0,1,,stimuli/card_10_transparent.png,10,10,,,,,,,,,,,,,,,,,,,,,,,,,,,,,,,,,,,,,,,
,,,,,2023-10-30_10h39.05.505,SlotMachine_updated,2023.1.3,MacIntel,60.0024001,,,,,,,,,,,,,,,1.1664,,up,1.5,,13,0,13,0,1,,stimuli/card_10_transparent.png,20,10,,,,,,,,,,,,,,,,,,,,,,,,,,,,,,,,,,,,,,,
,,,,,2023-10-30_10h39.05.505,SlotMachine_updated,2023.1.3,MacIntel,60.0024001,,,,,,,,,,,,,,,1.0755,,up,1,,14,0,14,0,1,,stimuli/card_10_transparent.png,30,10,,,,,,,,,,,,,,,,,,,,,,,,,,,,,,,,,,,,,,,
,,,,,2023-10-30_10h39.05.505,SlotMachine_updated,2023.1.3,MacIntel,60.0024001,,,,,,,,,,,,,"[6,15]","[[1,3,2],[3,1,2]]",1.726,,up,1,,0,0,0,0,1,,stimuli/card_0_transparent.png,0,0,294.5112,,,,,,,,,,,,,,,,,,,,,,,,,,,,,,,,,,,,,,
,,,,,2023-10-30_10h39.05.505,SlotMachine_updated,2023.1.3,MacIntel,60.0024001,,,,,,,,,,,,,,,[],,[],1,,1,0,1,0,1,,,,,,,,,,,,,,,,,,,,,,,,,,,,,,,,,,,,,,,,,,,
,,,,,2023-10-30_10h39.05.505,SlotMachine_updated,2023.1.3,MacIntel,60.0024001,,,,,,,,,,,,,,,1.6634,,left,1.5,,2,0,2,0,1,,stimuli/card_100_transparent.png,100,100,,,,,,,,,,,,,,,,,,,,,,,,,,,,,,,,,,,,,,,
,,,,,2023-10-30_10h39.05.505,SlotMachine_updated,2023.1.3,MacIntel,60.0024001,,,,,,,,,,,,,,,[],,[],1.5,,3,0,3,0,1,,,,,,,,,,,,,,,,,,,,,,,,,,,,,,,,,,,,,,,,,,,
,,,,,2023-10-30_10h39.05.505,SlotMachine_updated,2023.1.3,MacIntel,60.0024001,,,,,,,,,,,,,,,[],,[],0.5,,4,0,4,0,1,,,,,,,,,,,,,,,,,,,,,,,,,,,,,,,,,,,,,,,,,,,
,,,,,2023-10-30_10h39.05.505,SlotMachine_updated,2023.1.3,MacIntel,60.0024001,,,,,,,,,,,,,,,[],,[],1,,5,0,5,0,1,,,,,,,,,,,,,,,,,,,,,,,,,,,,,,,,,,,,,,,,,,,
,,,,,2023-10-30_10h39.05.505,SlotMachine_updated,2023.1.3,MacIntel,60.0024001,,,,,,,,,,,,,,,[],,[],0.5,,6,0,6,0,1,,,,,,,,,,,,,,,,,,,,,,,,,,,,,,,,,,,,,,,,,,,
,,,,,2023-10-30_10h39.05.505,SlotMachine_updated,2023.1.3,MacIntel,60.0024001,,,,,,,,,,,,,,,[],,[],1,,7,0,7,0,1,,,,,,,,,,,,,,,,,,,,,,,,,,,,,,,,,,,,,,,,,,,
,,,,,2023-10-30_10h39.05.505,SlotMachine_updated,2023.1.3,MacIntel,60.0024001,,,,,,,,,,,,,,,[],,[],1,,8,0,8,0,1,,,,,,,,,,,,,,,,,,,,,,,,,,,,,,,,,,,,,,,,,,,
,,,,,2023-10-30_10h39.05.505,SlotMachine_updated,2023.1.3,MacIntel,60.0024001,,,,,,,,,,,,,,,[],,[],1,,9,0,9,0,1,,,,,,,,,,,,,,,,,,,,,,,,,,,,,,,,,,,,,,,,,,,
,,,,,2023-10-30_10h39.05.505,SlotMachine_updated,2023.1.3,MacIntel,60.0024001,,,,,,,,,,,,,,,[],,[],1.5,,10,0,10,0,1,,,,,,,,,,,,,,,,,,,,,,,,,,,,,,,,,,,,,,,,,,,
,,,,,2023-10-30_10h39.05.505,SlotMachine_updated,2023.1.3,MacIntel,60.0024001,,,,,,,,,,,,,,,[],,[],1.5,,11,0,11,0,1,,,,,,,,,,,,,,,,,,,,,,,,,,,,,,,,,,,,,,,,,,,
,,,,,2023-10-30_10h39.05.505,SlotMachine_updated,2023.1.3,MacIntel,60.0024001,,,,,,,,,,,,,,,[],,[],1,,12,0,12,0,1,,,,,,,,,,,,,,,,,,,,,,,,,,,,,,,,,,,,,,,,,,,
,,,,,2023-10-30_10h39.05.505,SlotMachine_updated,2023.1.3,MacIntel,60.0024001,,,,,,,,,,,,,,,[],,[],0.5,,13,0,13,0,1,,,,,,,,,,,,,,,,,,,,,,,,,,,,,,,,,,,,,,,,,,,
,,,,,2023-10-30_10h39.05.505,SlotMachine_updated,2023.1.3,MacIntel,60.0024001,,,,,,,,,,,,,,,[],,[],1,,14,0,14,0,1,,,,,,,,,,,,,,,,,,,,,,,,,,,,,,,,,,,,,,,,,,,
,,,,,2023-10-30_10h39.05.505,SlotMachine_updated,2023.1.3,MacIntel,60.0024001,,,,,,,,,,,,,,,,,,,,,,,,,,,,,377.6755,,,382.6741,space,15.2431,,,,,,,,,,,,,,,,,,,,,,,,,,,,,,,,,
,,,,,2023-10-30_10h39.05.505,SlotMachine_updated,2023.1.3,MacIntel,60.0024001,,,,,,,,,,,,,,,,,,,,,,,,,,,,,,,,,,,,397.9297,2,"[2,4,8,0,1,3,9,6,8,5]",397.9297,space,64.181,,,,,,,,,,,,,,,,,,,,,,,,,,
,,,,,2023-10-30_10h39.05.505,SlotMachine_updated,2023.1.3,MacIntel,60.0024001,,,,,,,,,,,,,,,,,,,,,,,,,,,,,,,,,,,,,,,,,,,1,3,"[15,15]","[[3,1,2],[3,1,2]]",462.1374,,1.5,0.3,0,0,0,0,1,,,,,,,,,,,,
,,,,,2023-10-30_10h39.05.505,SlotMachine_updated,2023.1.3,MacIntel,60.0024001,,,,,,,,,,,,,,,,,,,,,,,,,,,,,,,,,,,,,,,,,,,,,,,467.6491,,0.5,0.3,1,0,1,0,1,,,,,,,,,,,,
,,,,,2023-10-30_10h39.05.505,SlotMachine_updated,2023.1.3,MacIntel,60.0024001,,,,,,,,,,,,,,,,,,,,,,,,,,,,,,,,,,,,,,,,,,,,,,,473.1605,,0.5,0.3,2,0,2,0,1,,,,,,,,,,,,
,,,,,2023-10-30_10h39.05.505,SlotMachine_updated,2023.1.3,MacIntel,60.0024001,,,,,,,,,,,,,,,,,,,,,,,,,,,,,,,,,,,,,,,,,,,,,,,478.6657,,0.5,0.3,3,0,3,0,1,,,,,,,,,,,,
,,,,,2023-10-30_10h39.05.505,SlotMachine_updated,2023.1.3,MacIntel,60.0024001,,,,,,,,,,,,,,,,,,,,,,,,,,,,,,,,,,,,,,,,,,,,,,,484.1694,up,1.5,0.3,4,0,4,0,1,0.2301,,"[3,1,2]",0.851720234,stimuli/card_100_transparent.png,100,100,,,,,
,,,,,2023-10-30_10h39.05.505,SlotMachine_updated,2023.1.3,MacIntel,60.0024001,,,,,,,,,,,,,,,,,,,,,,,,,,,,,,,,,,,,,,,,,,,,,,,486.2024,right,1.5,0.3,5,0,5,0,1,0.3404,,"[3,1,2]",0.553778839,stimuli/card_10_transparent.png,110,10,,,,,
,,,,,2023-10-30_10h39.05.505,SlotMachine_updated,2023.1.3,MacIntel,60.0024001,,,,,,,,,,,,,,,,,,,,,,,,,,,,,,,,,,,,,,,,,,,,,,,488.3534,left,1,0.3,6,0,6,0,1,0.214,,"[3,1,2]",0.707116885,stimuli/card_0_transparent.png,110,0,,,,,
,,,,,2023-10-30_10h39.05.505,SlotMachine_updated,2023.1.3,MacIntel,60.0024001,,,,,,,,,,,,,,,,,,,,,,,,,,,,,,,,,,,,,,,,,,,,,,,489.8868,up,1.5,0.3,7,0,7,0,1,0.0811,,"[3,1,2]",0.977415885,stimuli/card_100_transparent.png,210,100,,,,,
,,,,,2023-10-30_10h39.05.505,SlotMachine_updated,2023.1.3,MacIntel,60.0024001,,,,,,,,,,,,,,,,,,,,,,,,,,,,,,,,,,,,,,,,,,,,,,,491.7836,up,0.5,0.3,8,0,8,0,1,0.0697,,"[3,1,2]",0.597770973,stimuli/card_100_transparent.png,310,100,,,,,
,,,,,2023-10-30_10h39.05.505,SlotMachine_updated,2023.1.3,MacIntel,60.0024001,,,,,,,,,,,,,,,,,,,,,,,,,,,,,,,,,,,,,,,,,,,,,,,492.6691,up,1,0.3,9,0,9,0,1,0.4991,,"[3,1,2]",0.686766947,stimuli/card_100_transparent.png,410,100,,,,,
,,,,,2023-10-30_10h39.05.505,SlotMachine_updated,2023.1.3,MacIntel,60.0024001,,,,,,,,,,,,,,,,,,,,,,,,,,,,,,,,,,,,,,,,,,,,,,,494.4757,up,1,0.3,10,0,10,0,1,0.0946,,"[3,1,2]",0.502636589,stimuli/card_100_transparent.png,510,100,,,,,
,,,,,2023-10-30_10h39.05.505,SlotMachine_updated,2023.1.3,MacIntel,60.0024001,,,,,,,,,,,,,,,,,,,,,,,,,,,,,,,,,,,,,,,,,,,,,,,495.892,up,1,0.3,11,0,11,0,1,0.1953,,"[3,1,2]",0.022881043,stimuli/card_0_transparent.png,510,0,,,,,
,,,,,2023-10-30_10h39.05.505,SlotMachine_updated,2023.1.3,MacIntel,60.0024001,,,,,,,,,,,,,,,,,,,,,,,,,,,,,,,,,,,,,,,,,,,,,,,497.4079,up,0.5,0.3,12,0,12,0,1,0.1221,,"[3,1,2]",0.09345628,stimuli/card_0_transparent.png,510,0,,,,,
,,,,,2023-10-30_10h39.05.505,SlotMachine_updated,2023.1.3,MacIntel,60.0024001,,,,,,,,,,,,,,,,,,,,,,,,,,,,,,,,,,,,,,,,,,,,,,,498.3403,up,1,0.3,13,0,13,0,1,0.2772,,"[3,1,2]",0.443397166,stimuli/card_100_transparent.png,610,100,,,,,
,,,,,2023-10-30_10h39.05.505,SlotMachine_updated,2023.1.3,MacIntel,60.0024001,,,,,,,,,,,,,,,,,,,,,,,,,,,,,,,,,,,,,,,,,,,,,,,499.9249,up,1.5,0.3,14,0,14,0,1,0.3695,,"[3,1,2]",0.169466722,stimuli/card_10_transparent.png,620,10,,,,,
,,,,,2023-10-30_10h39.05.505,SlotMachine_updated,2023.1.3,MacIntel,60.0024001,,,,,,,,,,,,,,,,,,,,,,,,,,,,,502.1063,,,,,,,,,,,,,,,,,,,,,,,,,,,,,,,,,,0,0,0,0,1
,,,,,2023-10-30_10h39.05.505,SlotMachine_updated,2023.1.3,MacIntel,60.0024001,,,,,,,,,,,,,,,,,,,,,,,,,,,,,,,,,,,,,,,,,,,2,5,"[5,15]","[[1,2,3],[3,1,2]]",507.1015,,0.5,0.3,0,0,0,0,1,,,,,,,,,,,,
,,,,,2023-10-30_10h39.05.505,SlotMachine_updated,2023.1.3,MacIntel,60.0024001,,,,,,,,,,,,,,,,,,,,,,,,,,,,,,,,,,,,,,,,,,,,,,,512.6181,,1,0.3,1,0,1,0,1,,,,,,,,,,,,
,,,,,2023-10-30_10h39.05.505,SlotMachine_updated,2023.1.3,MacIntel,60.0024001,,,,,,,,,,,,,,,,,,,,,,,,,,,,,,,,,,,,,,,,,,,,,,,524.7429,,1.5,0.3,2,0,2,0,1,,,,,,,,,,,,
,,,,,2023-10-30_10h39.05.505,SlotMachine_updated,2023.1.3,MacIntel,60.0024001,,,,,,,,,,,,,,,,,,,,,,,,,,,,,,,,,,,,,,,,,,,,,,,530.2573,,1.5,0.3,3,0,3,0,1,,,,,,,,,,,,
,,,,,2023-10-30_10h39.05.505,SlotMachine_updated,2023.1.3,MacIntel,60.0024001,,,,,,,,,,,,,,,,,,,,,,,,,,,,,,,,,,,,,,,,,,,,,,,1088.969,,1,0.3,4,0,4,0,1,,,,,,,,,,,,
,,,,,2023-10-30_10h39.05.505,SlotMachine_updated,2023.1.3,MacIntel,60.0024001,,,,,,,,,,,,,,,,,,,,,,,,,,,,,,,,,,,,,,,,,,,,,,,3360.8192,,1.5,0.3,5,0,5,0,1,,,,,,,,,,,,
,,,,,2023-10-30_10h39.05.505,SlotMachine_updated,2023.1.3,MacIntel,60.0024001,,,,,,,,,,,,,,,,,,,,,,,,,,,,,,,,,,,,,,,,,,,,,,,3730.1909,,1,0.3,6,0,6,0,1,,,,,,,,,,,,
,,,,,2023-10-30_10h39.05.505,SlotMachine_updated,2023.1.3,MacIntel,60.0024001,,,,,,,,,,,,,,,,,,,,,,,,,,,,,,,,,,,,,,,,,,,,,,,4227.9151,,1,0.3,7,0,7,0,1,,,,,,,,,,,,
,,,,,2023-10-30_10h39.05.505,SlotMachine_updated,2023.1.3,MacIntel,60.0024001,,,,,,,,,,,,,,,,,,,,,,,,,,,,,,,,,,,,,,,,,,,,,,,4233.424,,1,0.3,8,0,8,0,1,,,,,,,,,,,,
,,,,,2023-10-30_10h39.05.505,SlotMachine_updated,2023.1.3,MacIntel,60.0024001,,,,,,,,,,,,,,,,,,,,,,,,,,,,,,,,,,,,,,,,,,,,,,,4238.9275,,1,0.3,9,0,9,0,1,,,,,,,,,,,,
,,,,,2023-10-30_10h39.05.505,SlotMachine_updated,2023.1.3,MacIntel,60.0024001,,,,,,,,,,,,,,,,,,,,,,,,,,,,,,,,,,,,,,,,,,,,,,,4244.4303,,1.5,0.3,10,0,10,0,1,,,,,,,,,,,,
,,,,,2023-10-30_10h39.05.505,SlotMachine_updated,2023.1.3,MacIntel,60.0024001,,,,,,,,,,,,,,,,,,,,,,,,,,,,,,,,,,,,,,,,,,,,,,,4249.9349,,1.5,0.3,11,0,11,0,1,,,,,,,,,,,,
,,,,,2023-10-30_10h39.05.505,SlotMachine_updated,2023.1.3,MacIntel,60.0024001,,,,,,,,,,,,,,,,,,,,,,,,,,,,,,,,,,,,,,,,,,,,,,,26389.7312,,1,0.3,12,0,12,0,1,,,,,,,,,,,,
,,,,,2023-10-30_10h39.05.505,SlotMachine_updated,2023.1.3,MacIntel,60.0024001,,,,,,,,,,,,,,,,,,,,,,,,,,,,,,,,,,,,,,,,,,,,,,,61781.6372,,1,0.3,13,0,13,0,1,,,,,,,,,,,,
,,,,,2023-10-30_10h39.05.505,SlotMachine_updated,2023.1.3,MacIntel,60.0024001,,,,,,,,,,,,,,,,,,,,,,,,,,,,,,,,,,,,,,,,,,,,,,,62624.2006,,0.5,0.3,14,0,14,0,1,,,,,,,,,,,,
