key_resp_welcome_started,key_resp_welcome_keys,key_resp_welcome_rt,key_resp_welcome_duration,prolific_pid,path_id,date,expName,psychopyVersion,OS,frameRate,PROLIFIC_PID,STUDY_ID,SESSION_ID,key_resp_instruction1_started,key_resp_instruction1_keys,key_resp_instruction1_rt,key_resp_instruction1_duration,key_resp_instruction2_started,key_resp_instruction2_keys,key_resp_instruction2_rt,key_resp_instruction2_duration,key_resp_instruction3_started,key_resp_instruction3_keys,key_resp_instruction3_rt,key_resp_instruction3_duration,key_resp_instruction4_started,key_resp_instruction4_keys,key_resp_instruction4_rt,key_resp_instruction4_duration,practiceCondition,practice_reward_seqs,practice_trial_started,practice_trial_num,practice_resp_rt,practice_keypress_time,practice_resp_keys,prac_presentationInterval,practice_reward_seq,reward_img,cumulative_reward,trial_reward,practice_trials.thisRepN,practice_trials.thisTrialN,practice_trials.thisN,practice_trials.thisIndex,practice_trials.ran,block_break_started,practice_end_time,practice_end_keys,practice_end_rt,practice_end_duration,main_instruction_text_started,block_condition,block_order_indices,main_instruction_keys,main_instruction_rt,main_instruction_duration,block_number,block_assignment,current_condition,main_reward_seqs,main_trial_started,main_trial_num,main_trial_keys,main_trial_rt,main_trial_keypress_time,main_presentationInterval,reward_presentation_time,main_reward_seq,reward_rand_val,main_reward_img,current_reward,main_trials.thisRepN,main_trials.thisTrialN,main_trials.thisN,main_trials.thisIndex,main_trials.ran,block_reward,block.thisRepN,block.thisTrialN,block.thisN,block.thisIndex,block.ran,block_reward.length,block_reward_all,reward_amount,date_end_task
0.0008,space,2.6224,,5f179bd584e8e802ef9c187d,C,2024-10-25_12h00.42.385,Slot Machine Game,2023.1.3,Win32,59.88023952,5f179bd584e8e802ef9c187d,67167c13dd87566d3602e731,671bdc7e471133fdcbc62329,,,,,,,,,,,,,,,,,,,,,,,,,,,,,,,,,,,,,,,,,,,,,,,,,,,,,,,,,,,,,,,,,,,,,,,,,,
,,,,5f179bd584e8e802ef9c187d,C,2024-10-25_12h00.42.385,Slot Machine Game,2023.1.3,Win32,59.88023952,5f179bd584e8e802ef9c187d,67167c13dd87566d3602e731,671bdc7e471133fdcbc62329,2.6563,space,2.2215,,,,,,,,,,,,,,,,,,,,,,,,,,,,,,,,,,,,,,,,,,,,,,,,,,,,,,,,,,,,,,,,,,,,,,,
,,,,5f179bd584e8e802ef9c187d,C,2024-10-25_12h00.42.385,Slot Machine Game,2023.1.3,Win32,59.88023952,5f179bd584e8e802ef9c187d,67167c13dd87566d3602e731,671bdc7e471133fdcbc62329,,,,,4.9159,space,4.3038,,,,,,,,,,,,,,,,,,,,,,,,,,,,,,,,,,,,,,,,,,,,,,,,,,,,,,,,,,,,,,,,,,,
,,,,5f179bd584e8e802ef9c187d,C,2024-10-25_12h00.42.385,Slot Machine Game,2023.1.3,Win32,59.88023952,5f179bd584e8e802ef9c187d,67167c13dd87566d3602e731,671bdc7e471133fdcbc62329,,,,,,,,,9.3161,space,2.442,,,,,,,,,,,,,,,,,,,,,,,,,,,,,,,,,,,,,,,,,,,,,,,,,,,,,,,,,,,,,,,
,,,,5f179bd584e8e802ef9c187d,C,2024-10-25_12h00.42.385,Slot Machine Game,2023.1.3,Win32,59.88023952,5f179bd584e8e802ef9c187d,67167c13dd87566d3602e731,671bdc7e471133fdcbc62329,,,,,,,,,,,,,,,,,,,,,,,,,,,,,,,,,,,,,,,,,,,,,,,,,,,,,,,,,,,,,,,,,,,,,,,,,,
,,,,5f179bd584e8e802ef9c187d,C,2024-10-25_12h00.42.385,Slot Machine Game,2023.1.3,Win32,59.88023952,5f179bd584e8e802ef9c187d,67167c13dd87566d3602e731,671bdc7e471133fdcbc62329,,,,,,,,,,,,,212.9095,space,7.3517,,,,,,,,,,,,,,,,,,,,,,,,,,,,,,,,,,,,,,,,,,,,,,,,,,,,,,,,,,,
,,,,5f179bd584e8e802ef9c187d,C,2024-10-25_12h00.42.385,Slot Machine Game,2023.1.3,Win32,59.88023952,5f179bd584e8e802ef9c187d,67167c13dd87566d3602e731,671bdc7e471133fdcbc62329,,,,,,,,,,,,,,,,,"[9,15]","[[2,1,3],[2,3,1]]",220.313,0,2.7207,223.0549,left,1,"[2,1,3]",stimuli/card_10_transparent.png,10,10,0,0,0,0,1,,,,,,,,,,,,,,,,,,,,,,,,,,,,,,,,,,,,,,,,,
,,,,5f179bd584e8e802ef9c187d,C,2024-10-25_12h00.42.385,Slot Machine Game,2023.1.3,Win32,59.88023952,5f179bd584e8e802ef9c187d,67167c13dd87566d3602e731,671bdc7e471133fdcbc62329,,,,,,,,,,,,,,,,,,,224.3458,1,1.2373,225.5967,up,1.5,"[2,1,3]",stimuli/card_100_transparent.png,110,100,1,0,1,0,1,,,,,,,,,,,,,,,,,,,,,,,,,,,,,,,,,,,,,,,,,
,,,,5f179bd584e8e802ef9c187d,C,2024-10-25_12h00.42.385,Slot Machine Game,2023.1.3,Win32,59.88023952,5f179bd584e8e802ef9c187d,67167c13dd87566d3602e731,671bdc7e471133fdcbc62329,,,,,,,,,,,,,,,,,,,227.3981,2,1.2049,228.6162,up,1.5,"[2,1,3]",stimuli/card_10_transparent.png,120,10,2,0,2,0,1,,,,,,,,,,,,,,,,,,,,,,,,,,,,,,,,,,,,,,,,,
,,,,5f179bd584e8e802ef9c187d,C,2024-10-25_12h00.42.385,Slot Machine Game,2023.1.3,Win32,59.88023952,5f179bd584e8e802ef9c187d,67167c13dd87566d3602e731,671bdc7e471133fdcbc62329,,,,,,,,,,,,,,,,,,,230.4168,3,1.0595,231.5024,right,1,"[2,1,3]",stimuli/card_0_transparent.png,120,0,3,0,3,0,1,,,,,,,,,,,,,,,,,,,,,,,,,,,,,,,,,,,,,,,,,
,,,,5f179bd584e8e802ef9c187d,C,2024-10-25_12h00.42.385,Slot Machine Game,2023.1.3,Win32,59.88023952,5f179bd584e8e802ef9c187d,67167c13dd87566d3602e731,671bdc7e471133fdcbc62329,,,,,,,,,,,,,,,,,,,232.8019,4,1.7635,234.592,up,1.5,"[2,1,3]",stimuli/card_100_transparent.png,220,100,4,0,4,0,1,,,,,,,,,,,,,,,,,,,,,,,,,,,,,,,,,,,,,,,,,
,,,,5f179bd584e8e802ef9c187d,C,2024-10-25_12h00.42.385,Slot Machine Game,2023.1.3,Win32,59.88023952,5f179bd584e8e802ef9c187d,67167c13dd87566d3602e731,671bdc7e471133fdcbc62329,,,,,,,,,,,,,,,,,,,236.3797,5,0.9694,237.3823,up,0.5,"[2,1,3]",stimuli/card_100_transparent.png,320,100,5,0,5,0,1,,,,,,,,,,,,,,,,,,,,,,,,,,,,,,,,,,,,,,,,,
,,,,5f179bd584e8e802ef9c187d,C,2024-10-25_12h00.42.385,Slot Machine Game,2023.1.3,Win32,59.88023952,5f179bd584e8e802ef9c187d,67167c13dd87566d3602e731,671bdc7e471133fdcbc62329,,,,,,,,,,,,,,,,,,,238.1811,6,0.9495,239.165,up,1,"[2,1,3]",stimuli/card_10_transparent.png,330,10,6,0,6,0,1,,,,,,,,,,,,,,,,,,,,,,,,,,,,,,,,,,,,,,,,,
,,,,5f179bd584e8e802ef9c187d,C,2024-10-25_12h00.42.385,Slot Machine Game,2023.1.3,Win32,59.88023952,5f179bd584e8e802ef9c187d,67167c13dd87566d3602e731,671bdc7e471133fdcbc62329,,,,,,,,,,,,,,,,,,,240.4655,7,0.8029,241.3014,left,0.5,"[2,1,3]",stimuli/card_10_transparent.png,340,10,7,0,7,0,1,,,,,,,,,,,,,,,,,,,,,,,,,,,,,,,,,,,,,,,,,
,,,,5f179bd584e8e802ef9c187d,C,2024-10-25_12h00.42.385,Slot Machine Game,2023.1.3,Win32,59.88023952,5f179bd584e8e802ef9c187d,67167c13dd87566d3602e731,671bdc7e471133fdcbc62329,,,,,,,,,,,,,,,,,,,242.0989,8,0.5735,242.6928,right,1,"[2,1,3]",stimuli/card_0_transparent.png,340,0,8,0,8,0,1,,,,,,,,,,,,,,,,,,,,,,,,,,,,,,,,,,,,,,,,,
,,,,5f179bd584e8e802ef9c187d,C,2024-10-25_12h00.42.385,Slot Machine Game,2023.1.3,Win32,59.88023952,5f179bd584e8e802ef9c187d,67167c13dd87566d3602e731,671bdc7e471133fdcbc62329,,,,,,,,,,,,,,,,,,,243.9923,9,0.7376,244.7431,up,1,"[2,3,1]",stimuli/card_0_transparent.png,340,0,9,0,9,0,1,,,,,,,,,,,,,,,,,,,,,,,,,,,,,,,,,,,,,,,,,
,,,,5f179bd584e8e802ef9c187d,C,2024-10-25_12h00.42.385,Slot Machine Game,2023.1.3,Win32,59.88023952,5f179bd584e8e802ef9c187d,67167c13dd87566d3602e731,671bdc7e471133fdcbc62329,,,,,,,,,,,,,,,,,,,246.0442,10,0.9889,247.0615,up,0.5,"[2,3,1]",stimuli/card_0_transparent.png,340,0,10,0,10,0,1,,,,,,,,,,,,,,,,,,,,,,,,,,,,,,,,,,,,,,,,,
,,,,5f179bd584e8e802ef9c187d,C,2024-10-25_12h00.42.385,Slot Machine Game,2023.1.3,Win32,59.88023952,5f179bd584e8e802ef9c187d,67167c13dd87566d3602e731,671bdc7e471133fdcbc62329,,,,,,,,,,,,,,,,,,,247.8701,11,0.9789,248.8728,left,1.5,"[2,3,1]",stimuli/card_10_transparent.png,350,10,11,0,11,0,1,,,,,,,,,,,,,,,,,,,,,,,,,,,,,,,,,,,,,,,,,
,,,,5f179bd584e8e802ef9c187d,C,2024-10-25_12h00.42.385,Slot Machine Game,2023.1.3,Win32,59.88023952,5f179bd584e8e802ef9c187d,67167c13dd87566d3602e731,671bdc7e471133fdcbc62329,,,,,,,,,,,,,,,,,,,250.6722,12,1.0708,251.7647,right,1.5,"[2,3,1]",stimuli/card_100_transparent.png,450,100,12,0,12,0,1,,,,,,,,,,,,,,,,,,,,,,,,,,,,,,,,,,,,,,,,,
,,,,5f179bd584e8e802ef9c187d,C,2024-10-25_12h00.42.385,Slot Machine Game,2023.1.3,Win32,59.88023952,5f179bd584e8e802ef9c187d,67167c13dd87566d3602e731,671bdc7e471133fdcbc62329,,,,,,,,,,,,,,,,,,,253.5658,13,1.0701,254.6665,up,0.5,"[2,3,1]",stimuli/card_100_transparent.png,550,100,13,0,13,0,1,,,,,,,,,,,,,,,,,,,,,,,,,,,,,,,,,,,,,,,,,
,,,,5f179bd584e8e802ef9c187d,C,2024-10-25_12h00.42.385,Slot Machine Game,2023.1.3,Win32,59.88023952,5f179bd584e8e802ef9c187d,67167c13dd87566d3602e731,671bdc7e471133fdcbc62329,,,,,,,,,,,,,,,,,,,255.4668,14,0.7363,256.2177,left,0.5,"[2,3,1]",stimuli/card_10_transparent.png,560,10,14,0,14,0,1,,,,,,,,,,,,,,,,,,,,,,,,,,,,,,,,,,,,,,,,,
,,,,5f179bd584e8e802ef9c187d,C,2024-10-25_12h00.42.385,Slot Machine Game,2023.1.3,Win32,59.88023952,5f179bd584e8e802ef9c187d,67167c13dd87566d3602e731,671bdc7e471133fdcbc62329,,,,,,,,,,,,,,,,,"[6,15]","[[1,3,2],[3,1,2]]",262.023,0,1.3596,263.4095,up,1,"[1,3,2]",stimuli/card_100_transparent.png,100,100,0,0,0,0,1,257.0186,,,,,,,,,,,,,,,,,,,,,,,,,,,,,,,,,,,,,,,,
,,,,5f179bd584e8e802ef9c187d,C,2024-10-25_12h00.42.385,Slot Machine Game,2023.1.3,Win32,59.88023952,5f179bd584e8e802ef9c187d,67167c13dd87566d3602e731,671bdc7e471133fdcbc62329,,,,,,,,,,,,,,,,,,,264.7066,1,0.6361,265.3577,up,0.5,"[1,3,2]",stimuli/card_0_transparent.png,100,0,1,0,1,0,1,,,,,,,,,,,,,,,,,,,,,,,,,,,,,,,,,,,,,,,,,
,,,,5f179bd584e8e802ef9c187d,C,2024-10-25_12h00.42.385,Slot Machine Game,2023.1.3,Win32,59.88023952,5f179bd584e8e802ef9c187d,67167c13dd87566d3602e731,671bdc7e471133fdcbc62329,,,,,,,,,,,,,,,,,,,266.1576,2,0.6356,266.8183,right,1,"[1,3,2]",stimuli/card_100_transparent.png,200,100,2,0,2,0,1,,,,,,,,,,,,,,,,,,,,,,,,,,,,,,,,,,,,,,,,,
,,,,5f179bd584e8e802ef9c187d,C,2024-10-25_12h00.42.385,Slot Machine Game,2023.1.3,Win32,59.88023952,5f179bd584e8e802ef9c187d,67167c13dd87566d3602e731,671bdc7e471133fdcbc62329,,,,,,,,,,,,,,,,,,,268.1174,3,0.8126,268.963,left,0.5,"[1,3,2]",stimuli/card_100_transparent.png,300,100,3,0,3,0,1,,,,,,,,,,,,,,,,,,,,,,,,,,,,,,,,,,,,,,,,,
,,,,5f179bd584e8e802ef9c187d,C,2024-10-25_12h00.42.385,Slot Machine Game,2023.1.3,Win32,59.88023952,5f179bd584e8e802ef9c187d,67167c13dd87566d3602e731,671bdc7e471133fdcbc62329,,,,,,,,,,,,,,,,,,,269.7687,4,0.7301,270.5066,right,1,"[1,3,2]",stimuli/card_10_transparent.png,310,10,4,0,4,0,1,,,,,,,,,,,,,,,,,,,,,,,,,,,,,,,,,,,,,,,,,
,,,,5f179bd584e8e802ef9c187d,C,2024-10-25_12h00.42.385,Slot Machine Game,2023.1.3,Win32,59.88023952,5f179bd584e8e802ef9c187d,67167c13dd87566d3602e731,671bdc7e471133fdcbc62329,,,,,,,,,,,,,,,,,,,271.8122,5,0.6253,272.4644,left,1.5,"[1,3,2]",stimuli/card_0_transparent.png,310,0,5,0,5,0,1,,,,,,,,,,,,,,,,,,,,,,,,,,,,,,,,,,,,,,,,,
,,,,5f179bd584e8e802ef9c187d,C,2024-10-25_12h00.42.385,Slot Machine Game,2023.1.3,Win32,59.88023952,5f179bd584e8e802ef9c187d,67167c13dd87566d3602e731,671bdc7e471133fdcbc62329,,,,,,,,,,,,,,,,,,,274.2556,6,1.134,275.4225,up,1.5,"[3,1,2]",stimuli/card_0_transparent.png,310,0,6,0,6,0,1,,,,,,,,,,,,,,,,,,,,,,,,,,,,,,,,,,,,,,,,,
,,,,5f179bd584e8e802ef9c187d,C,2024-10-25_12h00.42.385,Slot Machine Game,2023.1.3,Win32,59.88023952,5f179bd584e8e802ef9c187d,67167c13dd87566d3602e731,671bdc7e471133fdcbc62329,,,,,,,,,,,,,,,,,,,277.2239,7,0.6906,277.9218,up,0.5,"[3,1,2]",stimuli/card_100_transparent.png,410,100,7,0,7,0,1,,,,,,,,,,,,,,,,,,,,,,,,,,,,,,,,,,,,,,,,,
,,,,5f179bd584e8e802ef9c187d,C,2024-10-25_12h00.42.385,Slot Machine Game,2023.1.3,Win32,59.88023952,5f179bd584e8e802ef9c187d,67167c13dd87566d3602e731,671bdc7e471133fdcbc62329,,,,,,,,,,,,,,,,,,,278.7257,8,0.9208,279.6687,right,1.5,"[3,1,2]",stimuli/card_10_transparent.png,420,10,8,0,8,0,1,,,,,,,,,,,,,,,,,,,,,,,,,,,,,,,,,,,,,,,,,
,,,,5f179bd584e8e802ef9c187d,C,2024-10-25_12h00.42.385,Slot Machine Game,2023.1.3,Win32,59.88023952,5f179bd584e8e802ef9c187d,67167c13dd87566d3602e731,671bdc7e471133fdcbc62329,,,,,,,,,,,,,,,,,,,281.4772,9,1.2555,282.7523,left,0.5,"[3,1,2]",stimuli/card_0_transparent.png,420,0,9,0,9,0,1,,,,,,,,,,,,,,,,,,,,,,,,,,,,,,,,,,,,,,,,,
,,,,5f179bd584e8e802ef9c187d,C,2024-10-25_12h00.42.385,Slot Machine Game,2023.1.3,Win32,59.88023952,5f179bd584e8e802ef9c187d,67167c13dd87566d3602e731,671bdc7e471133fdcbc62329,,,,,,,,,,,,,,,,,,,283.5385,10,1.0193,284.5814,left,1,"[3,1,2]",stimuli/card_0_transparent.png,420,0,10,0,10,0,1,,,,,,,,,,,,,,,,,,,,,,,,,,,,,,,,,,,,,,,,,
,,,,5f179bd584e8e802ef9c187d,C,2024-10-25_12h00.42.385,Slot Machine Game,2023.1.3,Win32,59.88023952,5f179bd584e8e802ef9c187d,67167c13dd87566d3602e731,671bdc7e471133fdcbc62329,,,,,,,,,,,,,,,,,,,285.8739,11,1.0433,286.9475,up,0.5,"[3,1,2]",stimuli/card_100_transparent.png,520,100,11,0,11,0,1,,,,,,,,,,,,,,,,,,,,,,,,,,,,,,,,,,,,,,,,,
,,,,5f179bd584e8e802ef9c187d,C,2024-10-25_12h00.42.385,Slot Machine Game,2023.1.3,Win32,59.88023952,5f179bd584e8e802ef9c187d,67167c13dd87566d3602e731,671bdc7e471133fdcbc62329,,,,,,,,,,,,,,,,,,,287.7403,12,1.005,288.7595,up,1,"[3,1,2]",stimuli/card_100_transparent.png,620,100,12,0,12,0,1,,,,,,,,,,,,,,,,,,,,,,,,,,,,,,,,,,,,,,,,,
,,,,5f179bd584e8e802ef9c187d,C,2024-10-25_12h00.42.385,Slot Machine Game,2023.1.3,Win32,59.88023952,5f179bd584e8e802ef9c187d,67167c13dd87566d3602e731,671bdc7e471133fdcbc62329,,,,,,,,,,,,,,,,,,,290.0457,13,1.0457,291.1187,right,0.5,"[3,1,2]",stimuli/card_0_transparent.png,620,0,13,0,13,0,1,,,,,,,,,,,,,,,,,,,,,,,,,,,,,,,,,,,,,,,,,
,,,,5f179bd584e8e802ef9c187d,C,2024-10-25_12h00.42.385,Slot Machine Game,2023.1.3,Win32,59.88023952,5f179bd584e8e802ef9c187d,67167c13dd87566d3602e731,671bdc7e471133fdcbc62329,,,,,,,,,,,,,,,,,,,291.9088,14,0.8295,292.753,left,1.5,"[3,1,2]",stimuli/card_0_transparent.png,620,0,14,0,14,0,1,,,,,,,,,,,,,,,,,,,,,,,,,,,,,,,,,,,,,,,,,
,,,,5f179bd584e8e802ef9c187d,C,2024-10-25_12h00.42.385,Slot Machine Game,2023.1.3,Win32,59.88023952,5f179bd584e8e802ef9c187d,67167c13dd87566d3602e731,671bdc7e471133fdcbc62329,,,,,,,,,,,,,,,,,,,,,,,,,,,,,,,,,,294.5436,299.5529,space,1.7962,,,,,,,,,,,,,,,,,,,,,,,,,,,,,,,,,,,,,
,,,,5f179bd584e8e802ef9c187d,C,2024-10-25_12h00.42.385,Slot Machine Game,2023.1.3,Win32,59.88023952,5f179bd584e8e802ef9c187d,67167c13dd87566d3602e731,671bdc7e471133fdcbc62329,,,,,,,,,,,,,,,,,,,,,,,,,,,,,,,,,,,,,,,301.3843,3,"[0,4,6,3,5,7,8,1,9,2]",space,2.0664,,,,,,,,,,,,,,,,,,,,,,,,,,,,,,,
,,,,5f179bd584e8e802ef9c187d,C,2024-10-25_12h00.42.385,Slot Machine Game,2023.1.3,Win32,59.88023952,5f179bd584e8e802ef9c187d,67167c13dd87566d3602e731,671bdc7e471133fdcbc62329,,,,,,,,,,,,,,,,,,,,,,,,,,,100,,,,,,,,,,,,,,,,,,1,1,"[12,15]","[[2,1,3],[2,3,1]]",303.4847,0,up,0.8359,304.3513,1.5,0.3,"[2,1,3]",0.541052056,stimuli/card_100_transparent.png,100,0,0,0,0,1,,,,,,,,,,
,,,,5f179bd584e8e802ef9c187d,C,2024-10-25_12h00.42.385,Slot Machine Game,2023.1.3,Win32,59.88023952,5f179bd584e8e802ef9c187d,67167c13dd87566d3602e731,671bdc7e471133fdcbc62329,,,,,,,,,,,,,,,,,,,,,,,,,,,200,,,,,,,,,,,,,,,,,,1,1,,,306.1417,1,up,0.7966,306.9632,1.5,0.3,"[2,1,3]",0.906932264,stimuli/card_100_transparent.png,100,1,0,1,0,1,,,,,,,,,,
,,,,5f179bd584e8e802ef9c187d,C,2024-10-25_12h00.42.385,Slot Machine Game,2023.1.3,Win32,59.88023952,5f179bd584e8e802ef9c187d,67167c13dd87566d3602e731,671bdc7e471133fdcbc62329,,,,,,,,,,,,,,,,,,,,,,,,,,,300,,,,,,,,,,,,,,,,,,1,1,,,308.7397,2,up,1.0343,309.8043,1.5,0.3,"[2,1,3]",0.78887017,stimuli/card_100_transparent.png,100,2,0,2,0,1,,,,,,,,,,
,,,,5f179bd584e8e802ef9c187d,C,2024-10-25_12h00.42.385,Slot Machine Game,2023.1.3,Win32,59.88023952,5f179bd584e8e802ef9c187d,67167c13dd87566d3602e731,671bdc7e471133fdcbc62329,,,,,,,,,,,,,,,,,,,,,,,,,,,400,,,,,,,,,,,,,,,,,,1,1,,,311.6054,3,up,0.6364,312.2562,1.5,0.3,"[2,1,3]",0.979323104,stimuli/card_100_transparent.png,100,3,0,3,0,1,,,,,,,,,,
,,,,5f179bd584e8e802ef9c187d,C,2024-10-25_12h00.42.385,Slot Machine Game,2023.1.3,Win32,59.88023952,5f179bd584e8e802ef9c187d,67167c13dd87566d3602e731,671bdc7e471133fdcbc62329,,,,,,,,,,,,,,,,,,,,,,,,,,,500,,,,,,,,,,,,,,,,,,1,1,,,314.0576,4,up,1.3326,315.4247,1.5,0.3,"[2,1,3]",0.920007543,stimuli/card_100_transparent.png,100,4,0,4,0,1,,,,,,,,,,
,,,,5f179bd584e8e802ef9c187d,C,2024-10-25_12h00.42.385,Slot Machine Game,2023.1.3,Win32,59.88023952,5f179bd584e8e802ef9c187d,67167c13dd87566d3602e731,671bdc7e471133fdcbc62329,,,,,,,,,,,,,,,,,,,,,,,,,,,510,,,,,,,,,,,,,,,,,,1,1,,,317.226,5,up,0.5096,317.7618,1,0.3,"[2,1,3]",0.180625521,stimuli/card_10_transparent.png,10,5,0,5,0,1,,,,,,,,,,
,,,,5f179bd584e8e802ef9c187d,C,2024-10-25_12h00.42.385,Slot Machine Game,2023.1.3,Win32,59.88023952,5f179bd584e8e802ef9c187d,67167c13dd87566d3602e731,671bdc7e471133fdcbc62329,,,,,,,,,,,,,,,,,,,,,,,,,,,520,,,,,,,,,,,,,,,,,,1,1,,,319.061,6,left,0.7364,319.8283,0.5,0.3,"[2,1,3]",0.961600417,stimuli/card_10_transparent.png,10,6,0,6,0,1,,,,,,,,,,
,,,,5f179bd584e8e802ef9c187d,C,2024-10-25_12h00.42.385,Slot Machine Game,2023.1.3,Win32,59.88023952,5f179bd584e8e802ef9c187d,67167c13dd87566d3602e731,671bdc7e471133fdcbc62329,,,,,,,,,,,,,,,,,,,,,,,,,,,520,,,,,,,,,,,,,,,,,,1,1,,,320.6295,7,right,0.5521,321.2125,1.5,0.3,"[2,1,3]",0.566161581,stimuli/card_0_transparent.png,0,7,0,7,0,1,,,,,,,,,,
,,,,5f179bd584e8e802ef9c187d,C,2024-10-25_12h00.42.385,Slot Machine Game,2023.1.3,Win32,59.88023952,5f179bd584e8e802ef9c187d,67167c13dd87566d3602e731,671bdc7e471133fdcbc62329,,,,,,,,,,,,,,,,,,,,,,,,,,,530,,,,,,,,,,,,,,,,,,1,1,,,323.013,8,left,0.7539,323.7808,0.5,0.3,"[2,1,3]",0.722557077,stimuli/card_10_transparent.png,10,8,0,8,0,1,,,,,,,,,,
,,,,5f179bd584e8e802ef9c187d,C,2024-10-25_12h00.42.385,Slot Machine Game,2023.1.3,Win32,59.88023952,5f179bd584e8e802ef9c187d,67167c13dd87566d3602e731,671bdc7e471133fdcbc62329,,,,,,,,,,,,,,,,,,,,,,,,,,,630,,,,,,,,,,,,,,,,,,1,1,,,324.5808,9,up,0.9878,325.5827,0.5,0.3,"[2,1,3]",0.327571113,stimuli/card_100_transparent.png,100,9,0,9,0,1,,,,,,,,,,
,,,,5f179bd584e8e802ef9c187d,C,2024-10-25_12h00.42.385,Slot Machine Game,2023.1.3,Win32,59.88023952,5f179bd584e8e802ef9c187d,67167c13dd87566d3602e731,671bdc7e471133fdcbc62329,,,,,,,,,,,,,,,,,,,,,,,,,,,730,,,,,,,,,,,,,,,,,,1,1,,,326.3824,10,up,1.1915,327.602,0.5,0.3,"[2,1,3]",0.30024805,stimuli/card_100_transparent.png,100,10,0,10,0,1,,,,,,,,,,
,,,,5f179bd584e8e802ef9c187d,C,2024-10-25_12h00.42.385,Slot Machine Game,2023.1.3,Win32,59.88023952,5f179bd584e8e802ef9c187d,67167c13dd87566d3602e731,671bdc7e471133fdcbc62329,,,,,,,,,,,,,,,,,,,,,,,,,,,830,,,,,,,,,,,,,,,,,,1,1,,,328.4002,11,up,1.0348,329.4522,1,0.3,"[2,1,3]",0.716720992,stimuli/card_100_transparent.png,100,11,0,11,0,1,,,,,,,,,,
,,,,5f179bd584e8e802ef9c187d,C,2024-10-25_12h00.42.385,Slot Machine Game,2023.1.3,Win32,59.88023952,5f179bd584e8e802ef9c187d,67167c13dd87566d3602e731,671bdc7e471133fdcbc62329,,,,,,,,,,,,,,,,,,,,,,,,,,,830,,,,,,,,,,,,,,,,,,1,1,,,330.7517,12,up,1.01,331.7734,1,0.3,"[2,3,1]",0.724168132,stimuli/card_0_transparent.png,0,12,0,12,0,1,,,,,,,,,,
,,,,5f179bd584e8e802ef9c187d,C,2024-10-25_12h00.42.385,Slot Machine Game,2023.1.3,Win32,59.88023952,5f179bd584e8e802ef9c187d,67167c13dd87566d3602e731,671bdc7e471133fdcbc62329,,,,,,,,,,,,,,,,,,,,,,,,,,,930,,,,,,,,,,,,,,,,,,1,1,,,333.07,13,right,0.6082,333.7039,1,0.3,"[2,3,1]",0.871208176,stimuli/card_100_transparent.png,100,13,0,13,0,1,,,,,,,,,,
,,,,5f179bd584e8e802ef9c187d,C,2024-10-25_12h00.42.385,Slot Machine Game,2023.1.3,Win32,59.88023952,5f179bd584e8e802ef9c187d,67167c13dd87566d3602e731,671bdc7e471133fdcbc62329,,,,,,,,,,,,,,,,,,,,,,,,,,,940,,,,,,,,,,,,,,,,,,1,1,,,334.9885,14,right,1.2098,336.2281,1,0.3,"[2,3,1]",0.191669895,stimuli/card_10_transparent.png,10,14,0,14,0,1,,,,,,,,,,
,,,,5f179bd584e8e802ef9c187d,C,2024-10-25_12h00.42.385,Slot Machine Game,2023.1.3,Win32,59.88023952,5f179bd584e8e802ef9c187d,67167c13dd87566d3602e731,671bdc7e471133fdcbc62329,,,,,,,,,,,,,,,,,,,,,,,,,,,,,,,,,,337.515,,,,,,,,,,,,,,,,,,,,,,,,,,,,,,,[940],0,0,0,0,1,,,,
,,,,5f179bd584e8e802ef9c187d,C,2024-10-25_12h00.42.385,Slot Machine Game,2023.1.3,Win32,59.88023952,5f179bd584e8e802ef9c187d,67167c13dd87566d3602e731,671bdc7e471133fdcbc62329,,,,,,,,,,,,,,,,,,,,,,,,,,,100,,,,,,,,,,,,,,,,,,2,5,"[5,15]","[[1,2,3],[3,1,2]]",342.5198,0,left,0.9821,343.5334,1.5,0.3,"[1,2,3]",0.624701896,stimuli/card_100_transparent.png,100,0,0,0,0,1,,,,,,,,,,
,,,,5f179bd584e8e802ef9c187d,C,2024-10-25_12h00.42.385,Slot Machine Game,2023.1.3,Win32,59.88023952,5f179bd584e8e802ef9c187d,67167c13dd87566d3602e731,671bdc7e471133fdcbc62329,,,,,,,,,,,,,,,,,,,,,,,,,,,200,,,,,,,,,,,,,,,,,,2,5,,,345.3209,1,left,0.6551,346.0081,0.5,0.3,"[1,2,3]",0.352137559,stimuli/card_100_transparent.png,100,1,0,1,0,1,,,,,,,,,,
,,,,5f179bd584e8e802ef9c187d,C,2024-10-25_12h00.42.385,Slot Machine Game,2023.1.3,Win32,59.88023952,5f179bd584e8e802ef9c187d,67167c13dd87566d3602e731,671bdc7e471133fdcbc62329,,,,,,,,,,,,,,,,,,,,,,,,,,,300,,,,,,,,,,,,,,,,,,2,5,,,346.7962,2,left,0.7402,347.5737,1.5,0.3,"[1,2,3]",0.761164806,stimuli/card_100_transparent.png,100,2,0,2,0,1,,,,,,,,,,
,,,,5f179bd584e8e802ef9c187d,C,2024-10-25_12h00.42.385,Slot Machine Game,2023.1.3,Win32,59.88023952,5f179bd584e8e802ef9c187d,67167c13dd87566d3602e731,671bdc7e471133fdcbc62329,,,,,,,,,,,,,,,,,,,,,,,,,,,310,,,,,,,,,,,,,,,,,,2,5,,,349.3644,3,left,0.5355,349.9255,0.5,0.3,"[1,2,3]",0.102931486,stimuli/card_10_transparent.png,10,3,0,3,0,1,,,,,,,,,,
,,,,5f179bd584e8e802ef9c187d,C,2024-10-25_12h00.42.385,Slot Machine Game,2023.1.3,Win32,59.88023952,5f179bd584e8e802ef9c187d,67167c13dd87566d3602e731,671bdc7e471133fdcbc62329,,,,,,,,,,,,,,,,,,,,,,,,,,,310,,,,,,,,,,,,,,,,,,2,5,,,350.7057,4,right,0.9793,351.7094,0.5,0.3,"[1,2,3]",0.316529633,stimuli/card_0_transparent.png,0,4,0,4,0,1,,,,,,,,,,
,,,,5f179bd584e8e802ef9c187d,C,2024-10-25_12h00.42.385,Slot Machine Game,2023.1.3,Win32,59.88023952,5f179bd584e8e802ef9c187d,67167c13dd87566d3602e731,671bdc7e471133fdcbc62329,,,,,,,,,,,,,,,,,,,,,,,,,,,410,,,,,,,,,,,,,,,,,,2,5,,,352.5081,5,up,0.5792,353.0939,1.5,0.3,"[3,1,2]",0.755077776,stimuli/card_100_transparent.png,100,5,0,5,0,1,,,,,,,,,,
,,,,5f179bd584e8e802ef9c187d,C,2024-10-25_12h00.42.385,Slot Machine Game,2023.1.3,Win32,59.88023952,5f179bd584e8e802ef9c187d,67167c13dd87566d3602e731,671bdc7e471133fdcbc62329,,,,,,,,,,,,,,,,,,,,,,,,,,,510,,,,,,,,,,,,,,,,,,2,5,,,354.8916,6,up,0.6291,355.5299,0.5,0.3,"[3,1,2]",0.358651709,stimuli/card_100_transparent.png,100,6,0,6,0,1,,,,,,,,,,
,,,,5f179bd584e8e802ef9c187d,C,2024-10-25_12h00.42.385,Slot Machine Game,2023.1.3,Win32,59.88023952,5f179bd584e8e802ef9c187d,67167c13dd87566d3602e731,671bdc7e471133fdcbc62329,,,,,,,,,,,,,,,,,,,,,,,,,,,610,,,,,,,,,,,,,,,,,,2,5,,,356.3117,7,up,0.8353,357.1557,1.5,0.3,"[3,1,2]",0.724702483,stimuli/card_100_transparent.png,100,7,0,7,0,1,,,,,,,,,,
,,,,5f179bd584e8e802ef9c187d,C,2024-10-25_12h00.42.385,Slot Machine Game,2023.1.3,Win32,59.88023952,5f179bd584e8e802ef9c187d,67167c13dd87566d3602e731,671bdc7e471133fdcbc62329,,,,,,,,,,,,,,,,,,,,,,,,,,,710,,,,,,,,,,,,,,,,,,2,5,,,358.9466,8,up,1.4711,360.4557,0.5,0.3,"[3,1,2]",0.311658844,stimuli/card_100_transparent.png,100,8,0,8,0,1,,,,,,,,,,
,,,,5f179bd584e8e802ef9c187d,C,2024-10-25_12h00.42.385,Slot Machine Game,2023.1.3,Win32,59.88023952,5f179bd584e8e802ef9c187d,67167c13dd87566d3602e731,671bdc7e471133fdcbc62329,,,,,,,,,,,,,,,,,,,,,,,,,,,810,,,,,,,,,,,,,,,,,,2,5,,,361.2392,9,up,0.6019,361.8565,1,0.3,"[3,1,2]",0.91547611,stimuli/card_100_transparent.png,100,9,0,9,0,1,,,,,,,,,,
,,,,5f179bd584e8e802ef9c187d,C,2024-10-25_12h00.42.385,Slot Machine Game,2023.1.3,Win32,59.88023952,5f179bd584e8e802ef9c187d,67167c13dd87566d3602e731,671bdc7e471133fdcbc62329,,,,,,,,,,,,,,,,,,,,,,,,,,,910,,,,,,,,,,,,,,,,,,2,5,,,363.1652,10,up,0.6625,363.8514,0.5,0.3,"[3,1,2]",0.623984959,stimuli/card_100_transparent.png,100,10,0,10,0,1,,,,,,,,,,
,,,,5f179bd584e8e802ef9c187d,C,2024-10-25_12h00.42.385,Slot Machine Game,2023.1.3,Win32,59.88023952,5f179bd584e8e802ef9c187d,67167c13dd87566d3602e731,671bdc7e471133fdcbc62329,,,,,,,,,,,,,,,,,,,,,,,,,,,1010,,,,,,,,,,,,,,,,,,2,5,,,364.6519,11,up,0.8515,365.5259,0.5,0.3,"[3,1,2]",0.726129296,stimuli/card_100_transparent.png,100,11,0,11,0,1,,,,,,,,,,
,,,,5f179bd584e8e802ef9c187d,C,2024-10-25_12h00.42.385,Slot Machine Game,2023.1.3,Win32,59.88023952,5f179bd584e8e802ef9c187d,67167c13dd87566d3602e731,671bdc7e471133fdcbc62329,,,,,,,,,,,,,,,,,,,,,,,,,,,1010,,,,,,,,,,,,,,,,,,2,5,,,366.3261,12,up,0.9706,367.3105,1.5,0.3,"[3,1,2]",0.064759526,stimuli/card_0_transparent.png,0,12,0,12,0,1,,,,,,,,,,
,,,,5f179bd584e8e802ef9c187d,C,2024-10-25_12h00.42.385,Slot Machine Game,2023.1.3,Win32,59.88023952,5f179bd584e8e802ef9c187d,67167c13dd87566d3602e731,671bdc7e471133fdcbc62329,,,,,,,,,,,,,,,,,,,,,,,,,,,1020,,,,,,,,,,,,,,,,,,2,5,,,369.1117,13,right,0.5936,369.7343,1.5,0.3,"[3,1,2]",0.443545896,stimuli/card_10_transparent.png,10,13,0,13,0,1,,,,,,,,,,
,,,,5f179bd584e8e802ef9c187d,C,2024-10-25_12h00.42.385,Slot Machine Game,2023.1.3,Win32,59.88023952,5f179bd584e8e802ef9c187d,67167c13dd87566d3602e731,671bdc7e471133fdcbc62329,,,,,,,,,,,,,,,,,,,,,,,,,,,1020,,,,,,,,,,,,,,,,,,2,5,,,371.5216,14,left,1.2331,372.773,0.5,0.3,"[3,1,2]",0.523678418,stimuli/card_0_transparent.png,0,14,0,14,0,1,,,,,,,,,,
,,,,5f179bd584e8e802ef9c187d,C,2024-10-25_12h00.42.385,Slot Machine Game,2023.1.3,Win32,59.88023952,5f179bd584e8e802ef9c187d,67167c13dd87566d3602e731,671bdc7e471133fdcbc62329,,,,,,,,,,,,,,,,,,,,,,,,,,,,,,,,,,373.5645,,,,,,,,,,,,,,,,,,,,,,,,,,,,,,,"[940,1020]",1,0,1,0,1,,,,
,,,,5f179bd584e8e802ef9c187d,C,2024-10-25_12h00.42.385,Slot Machine Game,2023.1.3,Win32,59.88023952,5f179bd584e8e802ef9c187d,67167c13dd87566d3602e731,671bdc7e471133fdcbc62329,,,,,,,,,,,,,,,,,,,,,,,,,,,0,,,,,,,,,,,,,,,,,,3,7,"[9,15]","[[1,3,2],[2,3,1]]",378.5792,0,up,1.1467,379.7447,1.5,0.3,"[1,3,2]",0.544033625,stimuli/card_0_transparent.png,0,0,0,0,0,1,,,,,,,,,,
,,,,5f179bd584e8e802ef9c187d,C,2024-10-25_12h00.42.385,Slot Machine Game,2023.1.3,Win32,59.88023952,5f179bd584e8e802ef9c187d,67167c13dd87566d3602e731,671bdc7e471133fdcbc62329,,,,,,,,,,,,,,,,,,,,,,,,,,,100,,,,,,,,,,,,,,,,,,3,7,,,381.5373,1,left,0.5292,382.08,1,0.3,"[1,3,2]",0.871466856,stimuli/card_100_transparent.png,100,1,0,1,0,1,,,,,,,,,,
,,,,5f179bd584e8e802ef9c187d,C,2024-10-25_12h00.42.385,Slot Machine Game,2023.1.3,Win32,59.88023952,5f179bd584e8e802ef9c187d,67167c13dd87566d3602e731,671bdc7e471133fdcbc62329,,,,,,,,,,,,,,,,,,,,,,,,,,,200,,,,,,,,,,,,,,,,,,3,7,,,383.3712,2,left,0.8961,384.2828,0.5,0.3,"[1,3,2]",0.853004722,stimuli/card_100_transparent.png,100,2,0,2,0,1,,,,,,,,,,
,,,,5f179bd584e8e802ef9c187d,C,2024-10-25_12h00.42.385,Slot Machine Game,2023.1.3,Win32,59.88023952,5f179bd584e8e802ef9c187d,67167c13dd87566d3602e731,671bdc7e471133fdcbc62329,,,,,,,,,,,,,,,,,,,,,,,,,,,300,,,,,,,,,,,,,,,,,,3,7,,,385.0805,3,left,0.7463,385.8498,1.5,0.3,"[1,3,2]",0.806536288,stimuli/card_100_transparent.png,100,3,0,3,0,1,,,,,,,,,,
,,,,5f179bd584e8e802ef9c187d,C,2024-10-25_12h00.42.385,Slot Machine Game,2023.1.3,Win32,59.88023952,5f179bd584e8e802ef9c187d,67167c13dd87566d3602e731,671bdc7e471133fdcbc62329,,,,,,,,,,,,,,,,,,,,,,,,,,,310,,,,,,,,,,,,,,,,,,3,7,,,387.6333,4,left,0.5319,388.1864,0.5,0.3,"[1,3,2]",0.190159421,stimuli/card_10_transparent.png,10,4,0,4,0,1,,,,,,,,,,
,,,,5f179bd584e8e802ef9c187d,C,2024-10-25_12h00.42.385,Slot Machine Game,2023.1.3,Win32,59.88023952,5f179bd584e8e802ef9c187d,67167c13dd87566d3602e731,671bdc7e471133fdcbc62329,,,,,,,,,,,,,,,,,,,,,,,,,,,320,,,,,,,,,,,,,,,,,,3,7,,,388.9834,5,right,0.8318,389.843,1,0.3,"[1,3,2]",0.948424661,stimuli/card_10_transparent.png,10,5,0,5,0,1,,,,,,,,,,
,,,,5f179bd584e8e802ef9c187d,C,2024-10-25_12h00.42.385,Slot Machine Game,2023.1.3,Win32,59.88023952,5f179bd584e8e802ef9c187d,67167c13dd87566d3602e731,671bdc7e471133fdcbc62329,,,,,,,,,,,,,,,,,,,,,,,,,,,320,,,,,,,,,,,,,,,,,,3,7,,,391.1444,6,up,0.9884,392.1607,1.5,0.3,"[1,3,2]",0.558703156,stimuli/card_0_transparent.png,0,6,0,6,0,1,,,,,,,,,,
,,,,5f179bd584e8e802ef9c187d,C,2024-10-25_12h00.42.385,Slot Machine Game,2023.1.3,Win32,59.88023952,5f179bd584e8e802ef9c187d,67167c13dd87566d3602e731,671bdc7e471133fdcbc62329,,,,,,,,,,,,,,,,,,,,,,,,,,,320,,,,,,,,,,,,,,,,,,3,7,,,393.9616,7,up,0.5609,394.5317,1,0.3,"[1,3,2]",0.477589673,stimuli/card_0_transparent.png,0,7,0,7,0,1,,,,,,,,,,
,,,,5f179bd584e8e802ef9c187d,C,2024-10-25_12h00.42.385,Slot Machine Game,2023.1.3,Win32,59.88023952,5f179bd584e8e802ef9c187d,67167c13dd87566d3602e731,671bdc7e471133fdcbc62329,,,,,,,,,,,,,,,,,,,,,,,,,,,330,,,,,,,,,,,,,,,,,,3,7,,,395.8295,8,right,0.9881,396.8305,0.5,0.3,"[1,3,2]",0.359829091,stimuli/card_10_transparent.png,10,8,0,8,0,1,,,,,,,,,,
,,,,5f179bd584e8e802ef9c187d,C,2024-10-25_12h00.42.385,Slot Machine Game,2023.1.3,Win32,59.88023952,5f179bd584e8e802ef9c187d,67167c13dd87566d3602e731,671bdc7e471133fdcbc62329,,,,,,,,,,,,,,,,,,,,,,,,,,,340,,,,,,,,,,,,,,,,,,3,7,,,397.6311,9,left,1.2182,398.883,0.5,0.3,"[2,3,1]",0.83606742,stimuli/card_10_transparent.png,10,9,0,9,0,1,,,,,,,,,,
,,,,5f179bd584e8e802ef9c187d,C,2024-10-25_12h00.42.385,Slot Machine Game,2023.1.3,Win32,59.88023952,5f179bd584e8e802ef9c187d,67167c13dd87566d3602e731,671bdc7e471133fdcbc62329,,,,,,,,,,,,,,,,,,,,,,,,,,,350,,,,,,,,,,,,,,,,,,3,7,,,399.6825,10,left,0.6205,400.3338,1.5,0.3,"[2,3,1]",0.753217538,stimuli/card_10_transparent.png,10,10,0,10,0,1,,,,,,,,,,
,,,,5f179bd584e8e802ef9c187d,C,2024-10-25_12h00.42.385,Slot Machine Game,2023.1.3,Win32,59.88023952,5f179bd584e8e802ef9c187d,67167c13dd87566d3602e731,671bdc7e471133fdcbc62329,,,,,,,,,,,,,,,,,,,,,,,,,,,350,,,,,,,,,,,,,,,,,,3,7,,,402.1339,11,up,0.9759,403.1194,1.5,0.3,"[2,3,1]",0.56953322,stimuli/card_0_transparent.png,0,11,0,11,0,1,,,,,,,,,,
,,,,5f179bd584e8e802ef9c187d,C,2024-10-25_12h00.42.385,Slot Machine Game,2023.1.3,Win32,59.88023952,5f179bd584e8e802ef9c187d,67167c13dd87566d3602e731,671bdc7e471133fdcbc62329,,,,,,,,,,,,,,,,,,,,,,,,,,,360,,,,,,,,,,,,,,,,,,3,7,,,404.919,12,right,1.0523,405.9868,1,0.3,"[2,3,1]",0.131778742,stimuli/card_10_transparent.png,10,12,0,12,0,1,,,,,,,,,,
,,,,5f179bd584e8e802ef9c187d,C,2024-10-25_12h00.42.385,Slot Machine Game,2023.1.3,Win32,59.88023952,5f179bd584e8e802ef9c187d,67167c13dd87566d3602e731,671bdc7e471133fdcbc62329,,,,,,,,,,,,,,,,,,,,,,,,,,,460,,,,,,,,,,,,,,,,,,3,7,,,407.2875,13,right,0.5026,407.8045,1.5,0.3,"[2,3,1]",0.650292688,stimuli/card_100_transparent.png,100,13,0,13,0,1,,,,,,,,,,
,,,,5f179bd584e8e802ef9c187d,C,2024-10-25_12h00.42.385,Slot Machine Game,2023.1.3,Win32,59.88023952,5f179bd584e8e802ef9c187d,67167c13dd87566d3602e731,671bdc7e471133fdcbc62329,,,,,,,,,,,,,,,,,,,,,,,,,,,560,,,,,,,,,,,,,,,,,,3,7,,,409.606,14,right,0.509,410.141,0.5,0.3,"[2,3,1]",0.904085882,stimuli/card_100_transparent.png,100,14,0,14,0,1,,,,,,,,,,
,,,,5f179bd584e8e802ef9c187d,C,2024-10-25_12h00.42.385,Slot Machine Game,2023.1.3,Win32,59.88023952,5f179bd584e8e802ef9c187d,67167c13dd87566d3602e731,671bdc7e471133fdcbc62329,,,,,,,,,,,,,,,,,,,,,,,,,,,,,,,,,,410.94,,,,,,,,,,,,,,,,,,,,,,,,,,,,,,,"[940,1020,560]",2,0,2,0,1,,,,
,,,,5f179bd584e8e802ef9c187d,C,2024-10-25_12h00.42.385,Slot Machine Game,2023.1.3,Win32,59.88023952,5f179bd584e8e802ef9c187d,67167c13dd87566d3602e731,671bdc7e471133fdcbc62329,,,,,,,,,,,,,,,,,,,,,,,,,,,100,,,,,,,,,,,,,,,,,,4,4,"[7,15]","[[2,3,1],[1,2,3]]",415.9449,0,right,1.9912,417.9625,1.5,0.3,"[2,3,1]",0.545771085,stimuli/card_100_transparent.png,100,0,0,0,0,1,,,,,,,,,,
,,,,5f179bd584e8e802ef9c187d,C,2024-10-25_12h00.42.385,Slot Machine Game,2023.1.3,Win32,59.88023952,5f179bd584e8e802ef9c187d,67167c13dd87566d3602e731,671bdc7e471133fdcbc62329,,,,,,,,,,,,,,,,,,,,,,,,,,,200,,,,,,,,,,,,,,,,,,4,4,,,419.7626,1,right,0.6381,420.4331,1.5,0.3,"[2,3,1]",0.802403276,stimuli/card_100_transparent.png,100,1,0,1,0,1,,,,,,,,,,
,,,,5f179bd584e8e802ef9c187d,C,2024-10-25_12h00.42.385,Slot Machine Game,2023.1.3,Win32,59.88023952,5f179bd584e8e802ef9c187d,67167c13dd87566d3602e731,671bdc7e471133fdcbc62329,,,,,,,,,,,,,,,,,,,,,,,,,,,300,,,,,,,,,,,,,,,,,,4,4,,,422.2224,2,right,0.5294,422.7587,0.5,0.3,"[2,3,1]",0.592943556,stimuli/card_100_transparent.png,100,2,0,2,0,1,,,,,,,,,,
,,,,5f179bd584e8e802ef9c187d,C,2024-10-25_12h00.42.385,Slot Machine Game,2023.1.3,Win32,59.88023952,5f179bd584e8e802ef9c187d,67167c13dd87566d3602e731,671bdc7e471133fdcbc62329,,,,,,,,,,,,,,,,,,,,,,,,,,,400,,,,,,,,,,,,,,,,,,4,4,,,423.5557,3,right,0.5813,424.143,0.5,0.3,"[2,3,1]",0.877845066,stimuli/card_100_transparent.png,100,3,0,3,0,1,,,,,,,,,,
,,,,5f179bd584e8e802ef9c187d,C,2024-10-25_12h00.42.385,Slot Machine Game,2023.1.3,Win32,59.88023952,5f179bd584e8e802ef9c187d,67167c13dd87566d3602e731,671bdc7e471133fdcbc62329,,,,,,,,,,,,,,,,,,,,,,,,,,,410,,,,,,,,,,,,,,,,,,4,4,,,424.925,4,right,1.8624,426.8216,0.5,0.3,"[2,3,1]",0.141535147,stimuli/card_10_transparent.png,10,4,0,4,0,1,,,,,,,,,,
,,,,5f179bd584e8e802ef9c187d,C,2024-10-25_12h00.42.385,Slot Machine Game,2023.1.3,Win32,59.88023952,5f179bd584e8e802ef9c187d,67167c13dd87566d3602e731,671bdc7e471133fdcbc62329,,,,,,,,,,,,,,,,,,,,,,,,,,,410,,,,,,,,,,,,,,,,,,4,4,,,427.6183,5,left,0.9687,428.6021,0.5,0.3,"[2,3,1]",0.04346292,stimuli/card_0_transparent.png,0,5,0,5,0,1,,,,,,,,,,
,,,,5f179bd584e8e802ef9c187d,C,2024-10-25_12h00.42.385,Slot Machine Game,2023.1.3,Win32,59.88023952,5f179bd584e8e802ef9c187d,67167c13dd87566d3602e731,671bdc7e471133fdcbc62329,,,,,,,,,,,,,,,,,,,,,,,,,,,410,,,,,,,,,,,,,,,,,,4,4,,,429.3859,6,up,0.5774,429.9815,0.5,0.3,"[2,3,1]",0.279953271,stimuli/card_0_transparent.png,0,6,0,6,0,1,,,,,,,,,,
,,,,5f179bd584e8e802ef9c187d,C,2024-10-25_12h00.42.385,Slot Machine Game,2023.1.3,Win32,59.88023952,5f179bd584e8e802ef9c187d,67167c13dd87566d3602e731,671bdc7e471133fdcbc62329,,,,,,,,,,,,,,,,,,,,,,,,,,,410,,,,,,,,,,,,,,,,,,4,4,,,430.7707,7,left,0.5703,431.3722,1,0.3,"[1,2,3]",0.021279427,stimuli/card_0_transparent.png,0,7,0,7,0,1,,,,,,,,,,
,,,,5f179bd584e8e802ef9c187d,C,2024-10-25_12h00.42.385,Slot Machine Game,2023.1.3,Win32,59.88023952,5f179bd584e8e802ef9c187d,67167c13dd87566d3602e731,671bdc7e471133fdcbc62329,,,,,,,,,,,,,,,,,,,,,,,,,,,510,,,,,,,,,,,,,,,,,,4,4,,,432.6803,8,right,0.6515,433.3559,0.5,0.3,"[1,2,3]",0.008152249,stimuli/card_100_transparent.png,100,8,0,8,0,1,,,,,,,,,,
,,,,5f179bd584e8e802ef9c187d,C,2024-10-25_12h00.42.385,Slot Machine Game,2023.1.3,Win32,59.88023952,5f179bd584e8e802ef9c187d,67167c13dd87566d3602e731,671bdc7e471133fdcbc62329,,,,,,,,,,,,,,,,,,,,,,,,,,,510,,,,,,,,,,,,,,,,,,4,4,,,434.165,9,right,0.9126,435.1005,1.5,0.3,"[1,2,3]",0.848382023,stimuli/card_0_transparent.png,0,9,0,9,0,1,,,,,,,,,,
,,,,5f179bd584e8e802ef9c187d,C,2024-10-25_12h00.42.385,Slot Machine Game,2023.1.3,Win32,59.88023952,5f179bd584e8e802ef9c187d,67167c13dd87566d3602e731,671bdc7e471133fdcbc62329,,,,,,,,,,,,,,,,,,,,,,,,,,,520,,,,,,,,,,,,,,,,,,4,4,,,436.8997,10,up,0.896,437.8201,1,0.3,"[1,2,3]",0.302411938,stimuli/card_10_transparent.png,10,10,0,10,0,1,,,,,,,,,,
,,,,5f179bd584e8e802ef9c187d,C,2024-10-25_12h00.42.385,Slot Machine Game,2023.1.3,Win32,59.88023952,5f179bd584e8e802ef9c187d,67167c13dd87566d3602e731,671bdc7e471133fdcbc62329,,,,,,,,,,,,,,,,,,,,,,,,,,,620,,,,,,,,,,,,,,,,,,4,4,,,439.1092,11,left,0.6796,439.8043,1.5,0.3,"[1,2,3]",0.405086379,stimuli/card_100_transparent.png,100,11,0,11,0,1,,,,,,,,,,
,,,,5f179bd584e8e802ef9c187d,C,2024-10-25_12h00.42.385,Slot Machine Game,2023.1.3,Win32,59.88023952,5f179bd584e8e802ef9c187d,67167c13dd87566d3602e731,671bdc7e471133fdcbc62329,,,,,,,,,,,,,,,,,,,,,,,,,,,620,,,,,,,,,,,,,,,,,,4,4,,,441.5818,12,left,0.6448,442.2371,1.5,0.3,"[1,2,3]",0.009270016,stimuli/card_0_transparent.png,0,12,0,12,0,1,,,,,,,,,,
,,,,5f179bd584e8e802ef9c187d,C,2024-10-25_12h00.42.385,Slot Machine Game,2023.1.3,Win32,59.88023952,5f179bd584e8e802ef9c187d,67167c13dd87566d3602e731,671bdc7e471133fdcbc62329,,,,,,,,,,,,,,,,,,,,,,,,,,,630,,,,,,,,,,,,,,,,,,4,4,,,444.0364,13,up,1.1587,445.2132,1,0.3,"[1,2,3]",0.858662637,stimuli/card_10_transparent.png,10,13,0,13,0,1,,,,,,,,,,
,,,,5f179bd584e8e802ef9c187d,C,2024-10-25_12h00.42.385,Slot Machine Game,2023.1.3,Win32,59.88023952,5f179bd584e8e802ef9c187d,67167c13dd87566d3602e731,671bdc7e471133fdcbc62329,,,,,,,,,,,,,,,,,,,,,,,,,,,630,,,,,,,,,,,,,,,,,,4,4,,,446.5152,14,right,0.8947,447.4237,1.5,0.3,"[1,2,3]",0.700486266,stimuli/card_0_transparent.png,0,14,0,14,0,1,,,,,,,,,,
,,,,5f179bd584e8e802ef9c187d,C,2024-10-25_12h00.42.385,Slot Machine Game,2023.1.3,Win32,59.88023952,5f179bd584e8e802ef9c187d,67167c13dd87566d3602e731,671bdc7e471133fdcbc62329,,,,,,,,,,,,,,,,,,,,,,,,,,,,,,,,,,449.222,,,,,,,,,,,,,,,,,,,,,,,,,,,,,,,"[940,1020,560,630]",3,0,3,0,1,,,,
,,,,5f179bd584e8e802ef9c187d,C,2024-10-25_12h00.42.385,Slot Machine Game,2023.1.3,Win32,59.88023952,5f179bd584e8e802ef9c187d,67167c13dd87566d3602e731,671bdc7e471133fdcbc62329,,,,,,,,,,,,,,,,,,,,,,,,,,,10,,,,,,,,,,,,,,,,,,5,6,"[4,10,15]","[[2,3,1],[1,3,2],[3,2,1]]",454.2217,0,left,1.3245,455.5712,1,0.3,"[2,3,1]",0.520247979,stimuli/card_10_transparent.png,10,0,0,0,0,1,,,,,,,,,,
,,,,5f179bd584e8e802ef9c187d,C,2024-10-25_12h00.42.385,Slot Machine Game,2023.1.3,Win32,59.88023952,5f179bd584e8e802ef9c187d,67167c13dd87566d3602e731,671bdc7e471133fdcbc62329,,,,,,,,,,,,,,,,,,,,,,,,,,,110,,,,,,,,,,,,,,,,,,5,6,,,456.8719,1,right,0.6933,457.5909,0.5,0.3,"[2,3,1]",0.350545984,stimuli/card_100_transparent.png,100,1,0,1,0,1,,,,,,,,,,
,,,,5f179bd584e8e802ef9c187d,C,2024-10-25_12h00.42.385,Slot Machine Game,2023.1.3,Win32,59.88023952,5f179bd584e8e802ef9c187d,67167c13dd87566d3602e731,671bdc7e471133fdcbc62329,,,,,,,,,,,,,,,,,,,,,,,,,,,110,,,,,,,,,,,,,,,,,,5,6,,,458.3891,2,right,0.7688,459.1896,0.5,0.3,"[2,3,1]",0.089616789,stimuli/card_0_transparent.png,0,2,0,2,0,1,,,,,,,,,,
,,,,5f179bd584e8e802ef9c187d,C,2024-10-25_12h00.42.385,Slot Machine Game,2023.1.3,Win32,59.88023952,5f179bd584e8e802ef9c187d,67167c13dd87566d3602e731,671bdc7e471133fdcbc62329,,,,,,,,,,,,,,,,,,,,,,,,,,,120,,,,,,,,,,,,,,,,,,5,6,,,459.9901,3,up,0.9045,460.9077,1.5,0.3,"[2,3,1]",0.147099913,stimuli/card_10_transparent.png,10,3,0,3,0,1,,,,,,,,,,
,,,,5f179bd584e8e802ef9c187d,C,2024-10-25_12h00.42.385,Slot Machine Game,2023.1.3,Win32,59.88023952,5f179bd584e8e802ef9c187d,67167c13dd87566d3602e731,671bdc7e471133fdcbc62329,,,,,,,,,,,,,,,,,,,,,,,,,,,130,,,,,,,,,,,,,,,,,,5,6,,,462.7088,4,up,0.6348,463.3592,0.5,0.3,"[1,3,2]",0.167138017,stimuli/card_10_transparent.png,10,4,0,4,0,1,,,,,,,,,,
,,,,5f179bd584e8e802ef9c187d,C,2024-10-25_12h00.42.385,Slot Machine Game,2023.1.3,Win32,59.88023952,5f179bd584e8e802ef9c187d,67167c13dd87566d3602e731,671bdc7e471133fdcbc62329,,,,,,,,,,,,,,,,,,,,,,,,,,,140,,,,,,,,,,,,,,,,,,5,6,,,464.1599,5,right,1.7699,465.9611,1,0.3,"[1,3,2]",0.672909839,stimuli/card_10_transparent.png,10,5,0,5,0,1,,,,,,,,,,
,,,,5f179bd584e8e802ef9c187d,C,2024-10-25_12h00.42.385,Slot Machine Game,2023.1.3,Win32,59.88023952,5f179bd584e8e802ef9c187d,67167c13dd87566d3602e731,671bdc7e471133fdcbc62329,,,,,,,,,,,,,,,,,,,,,,,,,,,150,,,,,,,,,,,,,,,,,,5,6,,,467.262,6,right,1.9388,469.2135,1,0.3,"[1,3,2]",0.342418032,stimuli/card_10_transparent.png,10,6,0,6,0,1,,,,,,,,,,
,,,,5f179bd584e8e802ef9c187d,C,2024-10-25_12h00.42.385,Slot Machine Game,2023.1.3,Win32,59.88023952,5f179bd584e8e802ef9c187d,67167c13dd87566d3602e731,671bdc7e471133fdcbc62329,,,,,,,,,,,,,,,,,,,,,,,,,,,250,,,,,,,,,,,,,,,,,,5,6,,,470.5143,7,left,1.149,471.6988,0.5,0.3,"[1,3,2]",0.81953714,stimuli/card_100_transparent.png,100,7,0,7,0,1,,,,,,,,,,
,,,,5f179bd584e8e802ef9c187d,C,2024-10-25_12h00.42.385,Slot Machine Game,2023.1.3,Win32,59.88023952,5f179bd584e8e802ef9c187d,67167c13dd87566d3602e731,671bdc7e471133fdcbc62329,,,,,,,,,,,,,,,,,,,,,,,,,,,250,,,,,,,,,,,,,,,,,,5,6,,,472.4988,8,left,1.2704,473.7834,1.5,0.3,"[1,3,2]",0.019509454,stimuli/card_0_transparent.png,0,8,0,8,0,1,,,,,,,,,,
,,,,5f179bd584e8e802ef9c187d,C,2024-10-25_12h00.42.385,Slot Machine Game,2023.1.3,Win32,59.88023952,5f179bd584e8e802ef9c187d,67167c13dd87566d3602e731,671bdc7e471133fdcbc62329,,,,,,,,,,,,,,,,,,,,,,,,,,,260,,,,,,,,,,,,,,,,,,5,6,,,475.5847,9,right,0.8698,476.485,0.5,0.3,"[1,3,2]",0.638146508,stimuli/card_10_transparent.png,10,9,0,9,0,1,,,,,,,,,,
,,,,5f179bd584e8e802ef9c187d,C,2024-10-25_12h00.42.385,Slot Machine Game,2023.1.3,Win32,59.88023952,5f179bd584e8e802ef9c187d,67167c13dd87566d3602e731,671bdc7e471133fdcbc62329,,,,,,,,,,,,,,,,,,,,,,,,,,,270,,,,,,,,,,,,,,,,,,5,6,,,477.2855,10,up,0.6073,477.9052,1.5,0.3,"[3,2,1]",0.667273994,stimuli/card_10_transparent.png,10,10,0,10,0,1,,,,,,,,,,
,,,,5f179bd584e8e802ef9c187d,C,2024-10-25_12h00.42.385,Slot Machine Game,2023.1.3,Win32,59.88023952,5f179bd584e8e802ef9c187d,67167c13dd87566d3602e731,671bdc7e471133fdcbc62329,,,,,,,,,,,,,,,,,,,,,,,,,,,280,,,,,,,,,,,,,,,,,,5,6,,,479.7037,11,up,0.5091,480.2374,1.5,0.3,"[3,2,1]",0.21591525,stimuli/card_10_transparent.png,10,11,0,11,0,1,,,,,,,,,,
,,,,5f179bd584e8e802ef9c187d,C,2024-10-25_12h00.42.385,Slot Machine Game,2023.1.3,Win32,59.88023952,5f179bd584e8e802ef9c187d,67167c13dd87566d3602e731,671bdc7e471133fdcbc62329,,,,,,,,,,,,,,,,,,,,,,,,,,,280,,,,,,,,,,,,,,,,,,5,6,,,482.0465,12,left,0.9591,483.0324,1.5,0.3,"[3,2,1]",0.701093477,stimuli/card_0_transparent.png,0,12,0,12,0,1,,,,,,,,,,
,,,,5f179bd584e8e802ef9c187d,C,2024-10-25_12h00.42.385,Slot Machine Game,2023.1.3,Win32,59.88023952,5f179bd584e8e802ef9c187d,67167c13dd87566d3602e731,671bdc7e471133fdcbc62329,,,,,,,,,,,,,,,,,,,,,,,,,,,280,,,,,,,,,,,,,,,,,,5,6,,,484.8323,13,left,0.5842,485.441,1.5,0.3,"[3,2,1]",0.474001414,stimuli/card_0_transparent.png,0,13,0,13,0,1,,,,,,,,,,
,,,,5f179bd584e8e802ef9c187d,C,2024-10-25_12h00.42.385,Slot Machine Game,2023.1.3,Win32,59.88023952,5f179bd584e8e802ef9c187d,67167c13dd87566d3602e731,671bdc7e471133fdcbc62329,,,,,,,,,,,,,,,,,,,,,,,,,,,280,,,,,,,,,,,,,,,,,,5,6,,,487.2298,14,right,1.1442,488.4013,0.5,0.3,"[3,2,1]",0.091631786,stimuli/card_0_transparent.png,0,14,0,14,0,1,,,,,,,,,,
,,,,5f179bd584e8e802ef9c187d,C,2024-10-25_12h00.42.385,Slot Machine Game,2023.1.3,Win32,59.88023952,5f179bd584e8e802ef9c187d,67167c13dd87566d3602e731,671bdc7e471133fdcbc62329,,,,,,,,,,,,,,,,,,,,,,,,,,,,,,,,,,489.1991,,,,,,,,,,,,,,,,,,,,,,,,,,,,,,,"[940,1020,560,630,280]",4,0,4,0,1,,,,
,,,,5f179bd584e8e802ef9c187d,C,2024-10-25_12h00.42.385,Slot Machine Game,2023.1.3,Win32,59.88023952,5f179bd584e8e802ef9c187d,67167c13dd87566d3602e731,671bdc7e471133fdcbc62329,,,,,,,,,,,,,,,,,,,,,,,,,,,0,,,,,,,,,,,,,,,,,,6,8,"[11,15]","[[2,1,3],[1,2,3]]",494.1988,0,right,1.3567,495.5818,1,0.3,"[2,1,3]",0.641854535,stimuli/card_0_transparent.png,0,0,0,0,0,1,,,,,,,,,,
,,,,5f179bd584e8e802ef9c187d,C,2024-10-25_12h00.42.385,Slot Machine Game,2023.1.3,Win32,59.88023952,5f179bd584e8e802ef9c187d,67167c13dd87566d3602e731,671bdc7e471133fdcbc62329,,,,,,,,,,,,,,,,,,,,,,,,,,,100,,,,,,,,,,,,,,,,,,6,8,,,496.8821,1,up,0.8044,497.7166,1,0.3,"[2,1,3]",0.292948316,stimuli/card_100_transparent.png,100,1,0,1,0,1,,,,,,,,,,
,,,,5f179bd584e8e802ef9c187d,C,2024-10-25_12h00.42.385,Slot Machine Game,2023.1.3,Win32,59.88023952,5f179bd584e8e802ef9c187d,67167c13dd87566d3602e731,671bdc7e471133fdcbc62329,,,,,,,,,,,,,,,,,,,,,,,,,,,100,,,,,,,,,,,,,,,,,,6,8,,,499.0171,2,up,0.5949,499.6239,1,0.3,"[2,1,3]",0.062458664,stimuli/card_0_transparent.png,0,2,0,2,0,1,,,,,,,,,,
,,,,5f179bd584e8e802ef9c187d,C,2024-10-25_12h00.42.385,Slot Machine Game,2023.1.3,Win32,59.88023952,5f179bd584e8e802ef9c187d,67167c13dd87566d3602e731,671bdc7e471133fdcbc62329,,,,,,,,,,,,,,,,,,,,,,,,,,,110,,,,,,,,,,,,,,,,,,6,8,,,500.9266,3,left,0.7037,501.6636,0.5,0.3,"[2,1,3]",0.394504107,stimuli/card_10_transparent.png,10,3,0,3,0,1,,,,,,,,,,
,,,,5f179bd584e8e802ef9c187d,C,2024-10-25_12h00.42.385,Slot Machine Game,2023.1.3,Win32,59.88023952,5f179bd584e8e802ef9c187d,67167c13dd87566d3602e731,671bdc7e471133fdcbc62329,,,,,,,,,,,,,,,,,,,,,,,,,,,210,,,,,,,,,,,,,,,,,,6,8,,,502.4427,4,right,0.7544,503.2159,1,0.3,"[2,1,3]",0.049722063,stimuli/card_100_transparent.png,100,4,0,4,0,1,,,,,,,,,,
,,,,5f179bd584e8e802ef9c187d,C,2024-10-25_12h00.42.385,Slot Machine Game,2023.1.3,Win32,59.88023952,5f179bd584e8e802ef9c187d,67167c13dd87566d3602e731,671bdc7e471133fdcbc62329,,,,,,,,,,,,,,,,,,,,,,,,,,,210,,,,,,,,,,,,,,,,,,6,8,,,504.5043,5,right,0.6942,505.2096,1,0.3,"[2,1,3]",0.359607243,stimuli/card_0_transparent.png,0,5,0,5,0,1,,,,,,,,,,
,,,,5f179bd584e8e802ef9c187d,C,2024-10-25_12h00.42.385,Slot Machine Game,2023.1.3,Win32,59.88023952,5f179bd584e8e802ef9c187d,67167c13dd87566d3602e731,671bdc7e471133fdcbc62329,,,,,,,,,,,,,,,,,,,,,,,,,,,310,,,,,,,,,,,,,,,,,,6,8,,,506.4976,6,up,0.5047,507.0127,0.5,0.3,"[2,1,3]",0.280593795,stimuli/card_100_transparent.png,100,6,0,6,0,1,,,,,,,,,,
,,,,5f179bd584e8e802ef9c187d,C,2024-10-25_12h00.42.385,Slot Machine Game,2023.1.3,Win32,59.88023952,5f179bd584e8e802ef9c187d,67167c13dd87566d3602e731,671bdc7e471133fdcbc62329,,,,,,,,,,,,,,,,,,,,,,,,,,,410,,,,,,,,,,,,,,,,,,6,8,,,507.8003,7,up,0.9284,508.7493,1,0.3,"[2,1,3]",0.82371234,stimuli/card_100_transparent.png,100,7,0,7,0,1,,,,,,,,,,
,,,,5f179bd584e8e802ef9c187d,C,2024-10-25_12h00.42.385,Slot Machine Game,2023.1.3,Win32,59.88023952,5f179bd584e8e802ef9c187d,67167c13dd87566d3602e731,671bdc7e471133fdcbc62329,,,,,,,,,,,,,,,,,,,,,,,,,,,410,,,,,,,,,,,,,,,,,,6,8,,,510.0505,8,up,0.5799,510.6554,1.5,0.3,"[2,1,3]",0.067815431,stimuli/card_0_transparent.png,0,8,0,8,0,1,,,,,,,,,,
,,,,5f179bd584e8e802ef9c187d,C,2024-10-25_12h00.42.385,Slot Machine Game,2023.1.3,Win32,59.88023952,5f179bd584e8e802ef9c187d,67167c13dd87566d3602e731,671bdc7e471133fdcbc62329,,,,,,,,,,,,,,,,,,,,,,,,,,,410,,,,,,,,,,,,,,,,,,6,8,,,512.4593,9,left,0.8855,513.3612,0.5,0.3,"[2,1,3]",0.070013051,stimuli/card_0_transparent.png,0,9,0,9,0,1,,,,,,,,,,
,,,,5f179bd584e8e802ef9c187d,C,2024-10-25_12h00.42.385,Slot Machine Game,2023.1.3,Win32,59.88023952,5f179bd584e8e802ef9c187d,67167c13dd87566d3602e731,671bdc7e471133fdcbc62329,,,,,,,,,,,,,,,,,,,,,,,,,,,410,,,,,,,,,,,,,,,,,,6,8,,,514.17,10,right,0.7854,514.9718,1.5,0.3,"[2,1,3]",0.387507622,stimuli/card_0_transparent.png,0,10,0,10,0,1,,,,,,,,,,
,,,,5f179bd584e8e802ef9c187d,C,2024-10-25_12h00.42.385,Slot Machine Game,2023.1.3,Win32,59.88023952,5f179bd584e8e802ef9c187d,67167c13dd87566d3602e731,671bdc7e471133fdcbc62329,,,,,,,,,,,,,,,,,,,,,,,,,,,510,,,,,,,,,,,,,,,,,,6,8,,,516.7714,11,left,0.7014,517.5059,1,0.3,"[1,2,3]",0.542909572,stimuli/card_100_transparent.png,100,11,0,11,0,1,,,,,,,,,,
,,,,5f179bd584e8e802ef9c187d,C,2024-10-25_12h00.42.385,Slot Machine Game,2023.1.3,Win32,59.88023952,5f179bd584e8e802ef9c187d,67167c13dd87566d3602e731,671bdc7e471133fdcbc62329,,,,,,,,,,,,,,,,,,,,,,,,,,,610,,,,,,,,,,,,,,,,,,6,8,,,518.7849,12,left,0.6686,519.491,1,0.3,"[1,2,3]",0.974956388,stimuli/card_100_transparent.png,100,12,0,12,0,1,,,,,,,,,,
,,,,5f179bd584e8e802ef9c187d,C,2024-10-25_12h00.42.385,Slot Machine Game,2023.1.3,Win32,59.88023952,5f179bd584e8e802ef9c187d,67167c13dd87566d3602e731,671bdc7e471133fdcbc62329,,,,,,,,,,,,,,,,,,,,,,,,,,,620,,,,,,,,,,,,,,,,,,6,8,,,520.7917,13,left,0.5795,521.3914,1,0.3,"[1,2,3]",0.160594902,stimuli/card_10_transparent.png,10,13,0,13,0,1,,,,,,,,,,
,,,,5f179bd584e8e802ef9c187d,C,2024-10-25_12h00.42.385,Slot Machine Game,2023.1.3,Win32,59.88023952,5f179bd584e8e802ef9c187d,67167c13dd87566d3602e731,671bdc7e471133fdcbc62329,,,,,,,,,,,,,,,,,,,,,,,,,,,630,,,,,,,,,,,,,,,,,,6,8,,,522.6856,14,up,1.0779,523.777,1.5,0.3,"[1,2,3]",0.215119694,stimuli/card_10_transparent.png,10,14,0,14,0,1,,,,,,,,,,
,,,,5f179bd584e8e802ef9c187d,C,2024-10-25_12h00.42.385,Slot Machine Game,2023.1.3,Win32,59.88023952,5f179bd584e8e802ef9c187d,67167c13dd87566d3602e731,671bdc7e471133fdcbc62329,,,,,,,,,,,,,,,,,,,,,,,,,,,,,,,,,,525.5683,,,,,,,,,,,,,,,,,,,,,,,,,,,,,,,"[940,1020,560,630,280,630]",5,0,5,0,1,,,,
,,,,5f179bd584e8e802ef9c187d,C,2024-10-25_12h00.42.385,Slot Machine Game,2023.1.3,Win32,59.88023952,5f179bd584e8e802ef9c187d,67167c13dd87566d3602e731,671bdc7e471133fdcbc62329,,,,,,,,,,,,,,,,,,,,,,,,,,,100,,,,,,,,,,,,,,,,,,7,9,"[8,15]","[[3,2,1],[3,1,2]]",530.5812,0,right,0.9965,531.5997,1.5,0.3,"[3,2,1]",0.42498405,stimuli/card_100_transparent.png,100,0,0,0,0,1,,,,,,,,,,
,,,,5f179bd584e8e802ef9c187d,C,2024-10-25_12h00.42.385,Slot Machine Game,2023.1.3,Win32,59.88023952,5f179bd584e8e802ef9c187d,67167c13dd87566d3602e731,671bdc7e471133fdcbc62329,,,,,,,,,,,,,,,,,,,,,,,,,,,200,,,,,,,,,,,,,,,,,,7,9,,,533.3902,1,right,0.6967,534.1106,1,0.3,"[3,2,1]",0.252989808,stimuli/card_100_transparent.png,100,1,0,1,0,1,,,,,,,,,,
,,,,5f179bd584e8e802ef9c187d,C,2024-10-25_12h00.42.385,Slot Machine Game,2023.1.3,Win32,59.88023952,5f179bd584e8e802ef9c187d,67167c13dd87566d3602e731,671bdc7e471133fdcbc62329,,,,,,,,,,,,,,,,,,,,,,,,,,,300,,,,,,,,,,,,,,,,,,7,9,,,535.4001,2,right,0.6518,536.0876,1.5,0.3,"[3,2,1]",0.999012863,stimuli/card_100_transparent.png,100,2,0,2,0,1,,,,,,,,,,
,,,,5f179bd584e8e802ef9c187d,C,2024-10-25_12h00.42.385,Slot Machine Game,2023.1.3,Win32,59.88023952,5f179bd584e8e802ef9c187d,67167c13dd87566d3602e731,671bdc7e471133fdcbc62329,,,,,,,,,,,,,,,,,,,,,,,,,,,310,,,,,,,,,,,,,,,,,,7,9,,,537.8766,3,right,0.6711,538.5733,0.5,0.3,"[3,2,1]",0.112726304,stimuli/card_10_transparent.png,10,3,0,3,0,1,,,,,,,,,,
,,,,5f179bd584e8e802ef9c187d,C,2024-10-25_12h00.42.385,Slot Machine Game,2023.1.3,Win32,59.88023952,5f179bd584e8e802ef9c187d,67167c13dd87566d3602e731,671bdc7e471133fdcbc62329,,,,,,,,,,,,,,,,,,,,,,,,,,,310,,,,,,,,,,,,,,,,,,7,9,,,539.3777,4,left,1.0215,540.4243,1,0.3,"[3,2,1]",0.870734406,stimuli/card_0_transparent.png,0,4,0,4,0,1,,,,,,,,,,
,,,,5f179bd584e8e802ef9c187d,C,2024-10-25_12h00.42.385,Slot Machine Game,2023.1.3,Win32,59.88023952,5f179bd584e8e802ef9c187d,67167c13dd87566d3602e731,671bdc7e471133fdcbc62329,,,,,,,,,,,,,,,,,,,,,,,,,,,320,,,,,,,,,,,,,,,,,,7,9,,,541.7215,5,up,1.1106,542.8392,1,0.3,"[3,2,1]",0.515943505,stimuli/card_10_transparent.png,10,5,0,5,0,1,,,,,,,,,,
,,,,5f179bd584e8e802ef9c187d,C,2024-10-25_12h00.42.385,Slot Machine Game,2023.1.3,Win32,59.88023952,5f179bd584e8e802ef9c187d,67167c13dd87566d3602e731,671bdc7e471133fdcbc62329,,,,,,,,,,,,,,,,,,,,,,,,,,,330,,,,,,,,,,,,,,,,,,7,9,,,544.1232,6,up,0.6344,544.791,0.5,0.3,"[3,2,1]",0.959466607,stimuli/card_10_transparent.png,10,6,0,6,0,1,,,,,,,,,,
,,,,5f179bd584e8e802ef9c187d,C,2024-10-25_12h00.42.385,Slot Machine Game,2023.1.3,Win32,59.88023952,5f179bd584e8e802ef9c187d,67167c13dd87566d3602e731,671bdc7e471133fdcbc62329,,,,,,,,,,,,,,,,,,,,,,,,,,,430,,,,,,,,,,,,,,,,,,7,9,,,545.5742,7,right,0.6123,546.2095,1,0.3,"[3,2,1]",0.414590624,stimuli/card_100_transparent.png,100,7,0,7,0,1,,,,,,,,,,
,,,,5f179bd584e8e802ef9c187d,C,2024-10-25_12h00.42.385,Slot Machine Game,2023.1.3,Win32,59.88023952,5f179bd584e8e802ef9c187d,67167c13dd87566d3602e731,671bdc7e471133fdcbc62329,,,,,,,,,,,,,,,,,,,,,,,,,,,530,,,,,,,,,,,,,,,,,,7,9,,,547.5007,8,right,0.5657,548.0942,1,0.3,"[3,1,2]",0.126534917,stimuli/card_100_transparent.png,100,8,0,8,0,1,,,,,,,,,,
,,,,5f179bd584e8e802ef9c187d,C,2024-10-25_12h00.42.385,Slot Machine Game,2023.1.3,Win32,59.88023952,5f179bd584e8e802ef9c187d,67167c13dd87566d3602e731,671bdc7e471133fdcbc62329,,,,,,,,,,,,,,,,,,,,,,,,,,,540,,,,,,,,,,,,,,,,,,7,9,,,549.394,9,right,0.5726,550.0022,1.5,0.3,"[3,1,2]",0.695145646,stimuli/card_10_transparent.png,10,9,0,9,0,1,,,,,,,,,,
,,,,5f179bd584e8e802ef9c187d,C,2024-10-25_12h00.42.385,Slot Machine Game,2023.1.3,Win32,59.88023952,5f179bd584e8e802ef9c187d,67167c13dd87566d3602e731,671bdc7e471133fdcbc62329,,,,,,,,,,,,,,,,,,,,,,,,,,,540,,,,,,,,,,,,,,,,,,7,9,,,551.8082,10,left,0.8196,552.6484,0.5,0.3,"[3,1,2]",0.934942613,stimuli/card_0_transparent.png,0,10,0,10,0,1,,,,,,,,,,
,,,,5f179bd584e8e802ef9c187d,C,2024-10-25_12h00.42.385,Slot Machine Game,2023.1.3,Win32,59.88023952,5f179bd584e8e802ef9c187d,67167c13dd87566d3602e731,671bdc7e471133fdcbc62329,,,,,,,,,,,,,,,,,,,,,,,,,,,640,,,,,,,,,,,,,,,,,,7,9,,,553.4472,11,up,0.8126,554.2827,1.5,0.3,"[3,1,2]",0.848751641,stimuli/card_100_transparent.png,100,11,0,11,0,1,,,,,,,,,,
,,,,5f179bd584e8e802ef9c187d,C,2024-10-25_12h00.42.385,Slot Machine Game,2023.1.3,Win32,59.88023952,5f179bd584e8e802ef9c187d,67167c13dd87566d3602e731,671bdc7e471133fdcbc62329,,,,,,,,,,,,,,,,,,,,,,,,,,,650,,,,,,,,,,,,,,,,,,7,9,,,556.0646,12,up,0.6262,556.7241,1,0.3,"[3,1,2]",0.103037552,stimuli/card_10_transparent.png,10,12,0,12,0,1,,,,,,,,,,
,,,,5f179bd584e8e802ef9c187d,C,2024-10-25_12h00.42.385,Slot Machine Game,2023.1.3,Win32,59.88023952,5f179bd584e8e802ef9c187d,67167c13dd87566d3602e731,671bdc7e471133fdcbc62329,,,,,,,,,,,,,,,,,,,,,,,,,,,660,,,,,,,,,,,,,,,,,,7,9,,,558.0333,13,right,1.117,559.1826,1.5,0.3,"[3,1,2]",0.791775525,stimuli/card_10_transparent.png,10,13,0,13,0,1,,,,,,,,,,
,,,,5f179bd584e8e802ef9c187d,C,2024-10-25_12h00.42.385,Slot Machine Game,2023.1.3,Win32,59.88023952,5f179bd584e8e802ef9c187d,67167c13dd87566d3602e731,671bdc7e471133fdcbc62329,,,,,,,,,,,,,,,,,,,,,,,,,,,670,,,,,,,,,,,,,,,,,,7,9,,,560.9703,14,right,0.6795,561.6702,1,0.3,"[3,1,2]",0.61780395,stimuli/card_10_transparent.png,10,14,0,14,0,1,,,,,,,,,,
,,,,5f179bd584e8e802ef9c187d,C,2024-10-25_12h00.42.385,Slot Machine Game,2023.1.3,Win32,59.88023952,5f179bd584e8e802ef9c187d,67167c13dd87566d3602e731,671bdc7e471133fdcbc62329,,,,,,,,,,,,,,,,,,,,,,,,,,,,,,,,,,562.9691,,,,,,,,,,,,,,,,,,,,,,,,,,,,,,,"[940,1020,560,630,280,630,670]",6,0,6,0,1,,,,
,,,,5f179bd584e8e802ef9c187d,C,2024-10-25_12h00.42.385,Slot Machine Game,2023.1.3,Win32,59.88023952,5f179bd584e8e802ef9c187d,67167c13dd87566d3602e731,671bdc7e471133fdcbc62329,,,,,,,,,,,,,,,,,,,,,,,,,,,10,,,,,,,,,,,,,,,,,,8,2,"[6,15]","[[1,3,2],[3,2,1]]",567.9673,0,right,0.8781,568.8851,1.5,0.3,"[1,3,2]",0.604020576,stimuli/card_10_transparent.png,10,0,0,0,0,1,,,,,,,,,,
,,,,5f179bd584e8e802ef9c187d,C,2024-10-25_12h00.42.385,Slot Machine Game,2023.1.3,Win32,59.88023952,5f179bd584e8e802ef9c187d,67167c13dd87566d3602e731,671bdc7e471133fdcbc62329,,,,,,,,,,,,,,,,,,,,,,,,,,,20,,,,,,,,,,,,,,,,,,8,2,,,570.6664,1,up,0.7498,571.4502,1,0.3,"[1,3,2]",0.106472483,stimuli/card_10_transparent.png,10,1,0,1,0,1,,,,,,,,,,
,,,,5f179bd584e8e802ef9c187d,C,2024-10-25_12h00.42.385,Slot Machine Game,2023.1.3,Win32,59.88023952,5f179bd584e8e802ef9c187d,67167c13dd87566d3602e731,671bdc7e471133fdcbc62329,,,,,,,,,,,,,,,,,,,,,,,,,,,30,,,,,,,,,,,,,,,,,,8,2,,,572.751,2,left,0.7126,573.4952,1,0.3,"[1,3,2]",0.111321606,stimuli/card_10_transparent.png,10,2,0,2,0,1,,,,,,,,,,
,,,,5f179bd584e8e802ef9c187d,C,2024-10-25_12h00.42.385,Slot Machine Game,2023.1.3,Win32,59.88023952,5f179bd584e8e802ef9c187d,67167c13dd87566d3602e731,671bdc7e471133fdcbc62329,,,,,,,,,,,,,,,,,,,,,,,,,,,130,,,,,,,,,,,,,,,,,,8,2,,,574.7853,3,left,0.9195,575.7301,0.5,0.3,"[1,3,2]",0.410402572,stimuli/card_100_transparent.png,100,3,0,3,0,1,,,,,,,,,,
,,,,5f179bd584e8e802ef9c187d,C,2024-10-25_12h00.42.385,Slot Machine Game,2023.1.3,Win32,59.88023952,5f179bd584e8e802ef9c187d,67167c13dd87566d3602e731,671bdc7e471133fdcbc62329,,,,,,,,,,,,,,,,,,,,,,,,,,,230,,,,,,,,,,,,,,,,,,8,2,,,576.5287,4,left,0.8136,577.3643,0.5,0.3,"[1,3,2]",0.267917052,stimuli/card_100_transparent.png,100,4,0,4,0,1,,,,,,,,,,
,,,,5f179bd584e8e802ef9c187d,C,2024-10-25_12h00.42.385,Slot Machine Game,2023.1.3,Win32,59.88023952,5f179bd584e8e802ef9c187d,67167c13dd87566d3602e731,671bdc7e471133fdcbc62329,,,,,,,,,,,,,,,,,,,,,,,,,,,330,,,,,,,,,,,,,,,,,,8,2,,,578.1617,5,left,0.6818,578.8496,1,0.3,"[1,3,2]",0.866825105,stimuli/card_100_transparent.png,100,5,0,5,0,1,,,,,,,,,,
,,,,5f179bd584e8e802ef9c187d,C,2024-10-25_12h00.42.385,Slot Machine Game,2023.1.3,Win32,59.88023952,5f179bd584e8e802ef9c187d,67167c13dd87566d3602e731,671bdc7e471133fdcbc62329,,,,,,,,,,,,,,,,,,,,,,,,,,,330,,,,,,,,,,,,,,,,,,8,2,,,580.1421,6,left,1.8927,582.0672,0.5,0.3,"[3,2,1]",0.521739994,stimuli/card_0_transparent.png,0,6,0,6,0,1,,,,,,,,,,
,,,,5f179bd584e8e802ef9c187d,C,2024-10-25_12h00.42.385,Slot Machine Game,2023.1.3,Win32,59.88023952,5f179bd584e8e802ef9c187d,67167c13dd87566d3602e731,671bdc7e471133fdcbc62329,,,,,,,,,,,,,,,,,,,,,,,,,,,430,,,,,,,,,,,,,,,,,,8,2,,,582.8667,7,right,0.9589,583.8529,1.5,0.3,"[3,2,1]",0.971745583,stimuli/card_100_transparent.png,100,7,0,7,0,1,,,,,,,,,,
,,,,5f179bd584e8e802ef9c187d,C,2024-10-25_12h00.42.385,Slot Machine Game,2023.1.3,Win32,59.88023952,5f179bd584e8e802ef9c187d,67167c13dd87566d3602e731,671bdc7e471133fdcbc62329,,,,,,,,,,,,,,,,,,,,,,,,,,,530,,,,,,,,,,,,,,,,,,8,2,,,585.6348,8,right,0.6587,586.3241,0.5,0.3,"[3,2,1]",0.540185112,stimuli/card_100_transparent.png,100,8,0,8,0,1,,,,,,,,,,
,,,,5f179bd584e8e802ef9c187d,C,2024-10-25_12h00.42.385,Slot Machine Game,2023.1.3,Win32,59.88023952,5f179bd584e8e802ef9c187d,67167c13dd87566d3602e731,671bdc7e471133fdcbc62329,,,,,,,,,,,,,,,,,,,,,,,,,,,630,,,,,,,,,,,,,,,,,,8,2,,,587.1103,9,right,0.8208,587.9392,1,0.3,"[3,2,1]",0.565914225,stimuli/card_100_transparent.png,100,9,0,9,0,1,,,,,,,,,,
,,,,5f179bd584e8e802ef9c187d,C,2024-10-25_12h00.42.385,Slot Machine Game,2023.1.3,Win32,59.88023952,5f179bd584e8e802ef9c187d,67167c13dd87566d3602e731,671bdc7e471133fdcbc62329,,,,,,,,,,,,,,,,,,,,,,,,,,,630,,,,,,,,,,,,,,,,,,8,2,,,589.2226,10,right,1.0944,590.3395,1,0.3,"[3,2,1]",0.016718243,stimuli/card_0_transparent.png,0,10,0,10,0,1,,,,,,,,,,
,,,,5f179bd584e8e802ef9c187d,C,2024-10-25_12h00.42.385,Slot Machine Game,2023.1.3,Win32,59.88023952,5f179bd584e8e802ef9c187d,67167c13dd87566d3602e731,671bdc7e471133fdcbc62329,,,,,,,,,,,,,,,,,,,,,,,,,,,640,,,,,,,,,,,,,,,,,,8,2,,,591.6302,11,up,0.5306,592.1747,1,0.3,"[3,2,1]",0.651197176,stimuli/card_10_transparent.png,10,11,0,11,0,1,,,,,,,,,,
,,,,5f179bd584e8e802ef9c187d,C,2024-10-25_12h00.42.385,Slot Machine Game,2023.1.3,Win32,59.88023952,5f179bd584e8e802ef9c187d,67167c13dd87566d3602e731,671bdc7e471133fdcbc62329,,,,,,,,,,,,,,,,,,,,,,,,,,,740,,,,,,,,,,,,,,,,,,8,2,,,593.4653,12,left,1.0128,594.509,0.5,0.3,"[3,2,1]",0.016075917,stimuli/card_100_transparent.png,100,12,0,12,0,1,,,,,,,,,,
,,,,5f179bd584e8e802ef9c187d,C,2024-10-25_12h00.42.385,Slot Machine Game,2023.1.3,Win32,59.88023952,5f179bd584e8e802ef9c187d,67167c13dd87566d3602e731,671bdc7e471133fdcbc62329,,,,,,,,,,,,,,,,,,,,,,,,,,,740,,,,,,,,,,,,,,,,,,8,2,,,595.3086,13,left,1.3785,596.712,0.5,0.3,"[3,2,1]",0.927491545,stimuli/card_0_transparent.png,0,13,0,13,0,1,,,,,,,,,,
,,,,5f179bd584e8e802ef9c187d,C,2024-10-25_12h00.42.385,Slot Machine Game,2023.1.3,Win32,59.88023952,5f179bd584e8e802ef9c187d,67167c13dd87566d3602e731,671bdc7e471133fdcbc62329,,,,,,,,,,,,,,,,,,,,,,,,,,,750,,,,,,,,,,,,,,,,,,8,2,,,597.5009,14,up,0.6889,598.2125,1,0.3,"[3,2,1]",0.693316336,stimuli/card_10_transparent.png,10,14,0,14,0,1,,,,,,,,,,
,,,,5f179bd584e8e802ef9c187d,C,2024-10-25_12h00.42.385,Slot Machine Game,2023.1.3,Win32,59.88023952,5f179bd584e8e802ef9c187d,67167c13dd87566d3602e731,671bdc7e471133fdcbc62329,,,,,,,,,,,,,,,,,,,,,,,,,,,,,,,,,,599.5112,,,,,,,,,,,,,,,,,,,,,,,,,,,,,,,"[940,1020,560,630,280,630,670,750]",7,0,7,0,1,,,,
,,,,5f179bd584e8e802ef9c187d,C,2024-10-25_12h00.42.385,Slot Machine Game,2023.1.3,Win32,59.88023952,5f179bd584e8e802ef9c187d,67167c13dd87566d3602e731,671bdc7e471133fdcbc62329,,,,,,,,,,,,,,,,,,,,,,,,,,,10,,,,,,,,,,,,,,,,,,9,10,"[10,15]","[[3,1,2],[1,3,2]]",604.5151,0,right,1.0098,605.5343,0.5,0.3,"[3,1,2]",0.700534585,stimuli/card_10_transparent.png,10,0,0,0,0,1,,,,,,,,,,
,,,,5f179bd584e8e802ef9c187d,C,2024-10-25_12h00.42.385,Slot Machine Game,2023.1.3,Win32,59.88023952,5f179bd584e8e802ef9c187d,67167c13dd87566d3602e731,671bdc7e471133fdcbc62329,,,,,,,,,,,,,,,,,,,,,,,,,,,10,,,,,,,,,,,,,,,,,,9,10,,,606.3327,1,left,0.5718,606.9227,1,0.3,"[3,1,2]",0.344157629,stimuli/card_0_transparent.png,0,1,0,1,0,1,,,,,,,,,,
,,,,5f179bd584e8e802ef9c187d,C,2024-10-25_12h00.42.385,Slot Machine Game,2023.1.3,Win32,59.88023952,5f179bd584e8e802ef9c187d,67167c13dd87566d3602e731,671bdc7e471133fdcbc62329,,,,,,,,,,,,,,,,,,,,,,,,,,,110,,,,,,,,,,,,,,,,,,9,10,,,608.2341,2,up,0.7523,609.0263,1,0.3,"[3,1,2]",0.208912379,stimuli/card_100_transparent.png,100,2,0,2,0,1,,,,,,,,,,
,,,,5f179bd584e8e802ef9c187d,C,2024-10-25_12h00.42.385,Slot Machine Game,2023.1.3,Win32,59.88023952,5f179bd584e8e802ef9c187d,67167c13dd87566d3602e731,671bdc7e471133fdcbc62329,,,,,,,,,,,,,,,,,,,,,,,,,,,210,,,,,,,,,,,,,,,,,,9,10,,,610.3103,3,up,0.6699,611.0063,0.5,0.3,"[3,1,2]",0.750366068,stimuli/card_100_transparent.png,100,3,0,3,0,1,,,,,,,,,,
,,,,5f179bd584e8e802ef9c187d,C,2024-10-25_12h00.42.385,Slot Machine Game,2023.1.3,Win32,59.88023952,5f179bd584e8e802ef9c187d,67167c13dd87566d3602e731,671bdc7e471133fdcbc62329,,,,,,,,,,,,,,,,,,,,,,,,,,,310,,,,,,,,,,,,,,,,,,9,10,,,611.8127,4,up,0.6553,612.4906,1,0.3,"[3,1,2]",0.497110499,stimuli/card_100_transparent.png,100,4,0,4,0,1,,,,,,,,,,
,,,,5f179bd584e8e802ef9c187d,C,2024-10-25_12h00.42.385,Slot Machine Game,2023.1.3,Win32,59.88023952,5f179bd584e8e802ef9c187d,67167c13dd87566d3602e731,671bdc7e471133fdcbc62329,,,,,,,,,,,,,,,,,,,,,,,,,,,410,,,,,,,,,,,,,,,,,,9,10,,,613.7786,5,up,0.5386,614.3413,1,0.3,"[3,1,2]",0.378050612,stimuli/card_100_transparent.png,100,5,0,5,0,1,,,,,,,,,,
,,,,5f179bd584e8e802ef9c187d,C,2024-10-25_12h00.42.385,Slot Machine Game,2023.1.3,Win32,59.88023952,5f179bd584e8e802ef9c187d,67167c13dd87566d3602e731,671bdc7e471133fdcbc62329,,,,,,,,,,,,,,,,,,,,,,,,,,,510,,,,,,,,,,,,,,,,,,9,10,,,615.6331,6,up,0.5986,616.2584,1,0.3,"[3,1,2]",0.955513713,stimuli/card_100_transparent.png,100,6,0,6,0,1,,,,,,,,,,
,,,,5f179bd584e8e802ef9c187d,C,2024-10-25_12h00.42.385,Slot Machine Game,2023.1.3,Win32,59.88023952,5f179bd584e8e802ef9c187d,67167c13dd87566d3602e731,671bdc7e471133fdcbc62329,,,,,,,,,,,,,,,,,,,,,,,,,,,610,,,,,,,,,,,,,,,,,,9,10,,,617.548,7,up,0.5279,618.0923,0.5,0.3,"[3,1,2]",0.577665588,stimuli/card_100_transparent.png,100,7,0,7,0,1,,,,,,,,,,
,,,,5f179bd584e8e802ef9c187d,C,2024-10-25_12h00.42.385,Slot Machine Game,2023.1.3,Win32,59.88023952,5f179bd584e8e802ef9c187d,67167c13dd87566d3602e731,671bdc7e471133fdcbc62329,,,,,,,,,,,,,,,,,,,,,,,,,,,620,,,,,,,,,,,,,,,,,,9,10,,,618.8741,8,up,0.8023,619.7016,0.5,0.3,"[3,1,2]",0.125202525,stimuli/card_10_transparent.png,10,8,0,8,0,1,,,,,,,,,,
,,,,5f179bd584e8e802ef9c187d,C,2024-10-25_12h00.42.385,Slot Machine Game,2023.1.3,Win32,59.88023952,5f179bd584e8e802ef9c187d,67167c13dd87566d3602e731,671bdc7e471133fdcbc62329,,,,,,,,,,,,,,,,,,,,,,,,,,,630,,,,,,,,,,,,,,,,,,9,10,,,620.4876,9,right,1.3461,621.8453,1.5,0.3,"[3,1,2]",0.461541149,stimuli/card_10_transparent.png,10,9,0,9,0,1,,,,,,,,,,
,,,,5f179bd584e8e802ef9c187d,C,2024-10-25_12h00.42.385,Slot Machine Game,2023.1.3,Win32,59.88023952,5f179bd584e8e802ef9c187d,67167c13dd87566d3602e731,671bdc7e471133fdcbc62329,,,,,,,,,,,,,,,,,,,,,,,,,,,730,,,,,,,,,,,,,,,,,,9,10,,,623.6436,10,left,0.5744,624.2302,1,0.3,"[1,3,2]",0.841159679,stimuli/card_100_transparent.png,100,10,0,10,0,1,,,,,,,,,,
,,,,5f179bd584e8e802ef9c187d,C,2024-10-25_12h00.42.385,Slot Machine Game,2023.1.3,Win32,59.88023952,5f179bd584e8e802ef9c187d,67167c13dd87566d3602e731,671bdc7e471133fdcbc62329,,,,,,,,,,,,,,,,,,,,,,,,,,,830,,,,,,,,,,,,,,,,,,9,10,,,625.5286,11,left,0.8836,626.4374,1.5,0.3,"[1,3,2]",0.213102366,stimuli/card_100_transparent.png,100,11,0,11,0,1,,,,,,,,,,
,,,,5f179bd584e8e802ef9c187d,C,2024-10-25_12h00.42.385,Slot Machine Game,2023.1.3,Win32,59.88023952,5f179bd584e8e802ef9c187d,67167c13dd87566d3602e731,671bdc7e471133fdcbc62329,,,,,,,,,,,,,,,,,,,,,,,,,,,930,,,,,,,,,,,,,,,,,,9,10,,,628.2475,12,left,0.5792,628.8336,0.5,0.3,"[1,3,2]",0.733068442,stimuli/card_100_transparent.png,100,12,0,12,0,1,,,,,,,,,,
,,,,5f179bd584e8e802ef9c187d,C,2024-10-25_12h00.42.385,Slot Machine Game,2023.1.3,Win32,59.88023952,5f179bd584e8e802ef9c187d,67167c13dd87566d3602e731,671bdc7e471133fdcbc62329,,,,,,,,,,,,,,,,,,,,,,,,,,,1030,,,,,,,,,,,,,,,,,,9,10,,,629.6234,13,left,0.6714,630.3346,1.5,0.3,"[1,3,2]",0.541338306,stimuli/card_100_transparent.png,100,13,0,13,0,1,,,,,,,,,,
,,,,5f179bd584e8e802ef9c187d,C,2024-10-25_12h00.42.385,Slot Machine Game,2023.1.3,Win32,59.88023952,5f179bd584e8e802ef9c187d,67167c13dd87566d3602e731,671bdc7e471133fdcbc62329,,,,,,,,,,,,,,,,,,,,,,,,,,,1040,,,,,,,,,,,,,,,,,,9,10,,,632.1256,14,left,0.7105,632.8613,1.5,0.3,"[1,3,2]",0.151966624,stimuli/card_10_transparent.png,10,14,0,14,0,1,,,,,,,,,,
,,,,5f179bd584e8e802ef9c187d,C,2024-10-25_12h00.42.385,Slot Machine Game,2023.1.3,Win32,59.88023952,5f179bd584e8e802ef9c187d,67167c13dd87566d3602e731,671bdc7e471133fdcbc62329,,,,,,,,,,,,,,,,,,,,,,,,,,,,,,,,,,634.6602,,,,,,,,,,,,,,,,,,,,,,,,,,,,,,,"[940,1020,560,630,280,630,670,750,1040]",8,0,8,0,1,,,,
,,,,5f179bd584e8e802ef9c187d,C,2024-10-25_12h00.42.385,Slot Machine Game,2023.1.3,Win32,59.88023952,5f179bd584e8e802ef9c187d,67167c13dd87566d3602e731,671bdc7e471133fdcbc62329,,,,,,,,,,,,,,,,,,,,,,,,,,,10,,,,,,,,,,,,,,,,,,10,3,"[15,15]","[[3,1,2],[3,1,2]]",639.6662,0,right,0.6385,640.3304,1,0.3,"[3,1,2]",0.446929911,stimuli/card_10_transparent.png,10,0,0,0,0,1,,,,,,,,,,
,,,,5f179bd584e8e802ef9c187d,C,2024-10-25_12h00.42.385,Slot Machine Game,2023.1.3,Win32,59.88023952,5f179bd584e8e802ef9c187d,67167c13dd87566d3602e731,671bdc7e471133fdcbc62329,,,,,,,,,,,,,,,,,,,,,,,,,,,110,,,,,,,,,,,,,,,,,,10,3,,,641.6316,1,up,0.7432,642.4018,1.5,0.3,"[3,1,2]",0.414098706,stimuli/card_100_transparent.png,100,1,0,1,0,1,,,,,,,,,,
,,,,5f179bd584e8e802ef9c187d,C,2024-10-25_12h00.42.385,Slot Machine Game,2023.1.3,Win32,59.88023952,5f179bd584e8e802ef9c187d,67167c13dd87566d3602e731,671bdc7e471133fdcbc62329,,,,,,,,,,,,,,,,,,,,,,,,,,,110,,,,,,,,,,,,,,,,,,10,3,,,644.2007,2,up,0.5744,644.8036,1,0.3,"[3,1,2]",0.050460106,stimuli/card_0_transparent.png,0,2,0,2,0,1,,,,,,,,,,
,,,,5f179bd584e8e802ef9c187d,C,2024-10-25_12h00.42.385,Slot Machine Game,2023.1.3,Win32,59.88023952,5f179bd584e8e802ef9c187d,67167c13dd87566d3602e731,671bdc7e471133fdcbc62329,,,,,,,,,,,,,,,,,,,,,,,,,,,120,,,,,,,,,,,,,,,,,,10,3,,,646.1018,3,right,1.0523,647.1862,1.5,0.3,"[3,1,2]",0.71933931,stimuli/card_10_transparent.png,10,3,0,3,0,1,,,,,,,,,,
,,,,5f179bd584e8e802ef9c187d,C,2024-10-25_12h00.42.385,Slot Machine Game,2023.1.3,Win32,59.88023952,5f179bd584e8e802ef9c187d,67167c13dd87566d3602e731,671bdc7e471133fdcbc62329,,,,,,,,,,,,,,,,,,,,,,,,,,,120,,,,,,,,,,,,,,,,,,10,3,,,648.9864,4,left,0.5356,649.5372,0.5,0.3,"[3,1,2]",0.980631871,stimuli/card_0_transparent.png,0,4,0,4,0,1,,,,,,,,,,
,,,,5f179bd584e8e802ef9c187d,C,2024-10-25_12h00.42.385,Slot Machine Game,2023.1.3,Win32,59.88023952,5f179bd584e8e802ef9c187d,67167c13dd87566d3602e731,671bdc7e471133fdcbc62329,,,,,,,,,,,,,,,,,,,,,,,,,,,220,,,,,,,,,,,,,,,,,,10,3,,,650.3373,5,up,1.0198,651.3733,0.5,0.3,"[3,1,2]",0.708784985,stimuli/card_100_transparent.png,100,5,0,5,0,1,,,,,,,,,,
,,,,5f179bd584e8e802ef9c187d,C,2024-10-25_12h00.42.385,Slot Machine Game,2023.1.3,Win32,59.88023952,5f179bd584e8e802ef9c187d,67167c13dd87566d3602e731,671bdc7e471133fdcbc62329,,,,,,,,,,,,,,,,,,,,,,,,,,,320,,,,,,,,,,,,,,,,,,10,3,,,652.172,6,up,0.5353,652.7389,0.5,0.3,"[3,1,2]",0.994003092,stimuli/card_100_transparent.png,100,6,0,6,0,1,,,,,,,,,,
,,,,5f179bd584e8e802ef9c187d,C,2024-10-25_12h00.42.385,Slot Machine Game,2023.1.3,Win32,59.88023952,5f179bd584e8e802ef9c187d,67167c13dd87566d3602e731,671bdc7e471133fdcbc62329,,,,,,,,,,,,,,,,,,,,,,,,,,,420,,,,,,,,,,,,,,,,,,10,3,,,653.5399,7,up,0.7357,654.3072,1.5,0.3,"[3,1,2]",0.590831838,stimuli/card_100_transparent.png,100,7,0,7,0,1,,,,,,,,,,
,,,,5f179bd584e8e802ef9c187d,C,2024-10-25_12h00.42.385,Slot Machine Game,2023.1.3,Win32,59.88023952,5f179bd584e8e802ef9c187d,67167c13dd87566d3602e731,671bdc7e471133fdcbc62329,,,,,,,,,,,,,,,,,,,,,,,,,,,520,,,,,,,,,,,,,,,,,,10,3,,,656.1084,8,up,0.5427,656.6624,0.5,0.3,"[3,1,2]",0.280325831,stimuli/card_100_transparent.png,100,8,0,8,0,1,,,,,,,,,,
,,,,5f179bd584e8e802ef9c187d,C,2024-10-25_12h00.42.385,Slot Machine Game,2023.1.3,Win32,59.88023952,5f179bd584e8e802ef9c187d,67167c13dd87566d3602e731,671bdc7e471133fdcbc62329,,,,,,,,,,,,,,,,,,,,,,,,,,,620,,,,,,,,,,,,,,,,,,10,3,,,657.4589,9,up,0.5362,658.0095,1,0.3,"[3,1,2]",0.565918766,stimuli/card_100_transparent.png,100,9,0,9,0,1,,,,,,,,,,
,,,,5f179bd584e8e802ef9c187d,C,2024-10-25_12h00.42.385,Slot Machine Game,2023.1.3,Win32,59.88023952,5f179bd584e8e802ef9c187d,67167c13dd87566d3602e731,671bdc7e471133fdcbc62329,,,,,,,,,,,,,,,,,,,,,,,,,,,720,,,,,,,,,,,,,,,,,,10,3,,,659.3099,10,up,2.1403,661.4621,0.5,0.3,"[3,1,2]",0.810146025,stimuli/card_100_transparent.png,100,10,0,10,0,1,,,,,,,,,,
,,,,5f179bd584e8e802ef9c187d,C,2024-10-25_12h00.42.385,Slot Machine Game,2023.1.3,Win32,59.88023952,5f179bd584e8e802ef9c187d,67167c13dd87566d3602e731,671bdc7e471133fdcbc62329,,,,,,,,,,,,,,,,,,,,,,,,,,,820,,,,,,,,,,,,,,,,,,10,3,,,662.2625,11,up,0.8527,663.1462,0.5,0.3,"[3,1,2]",0.619447507,stimuli/card_100_transparent.png,100,11,0,11,0,1,,,,,,,,,,
,,,,5f179bd584e8e802ef9c187d,C,2024-10-25_12h00.42.385,Slot Machine Game,2023.1.3,Win32,59.88023952,5f179bd584e8e802ef9c187d,67167c13dd87566d3602e731,671bdc7e471133fdcbc62329,,,,,,,,,,,,,,,,,,,,,,,,,,,920,,,,,,,,,,,,,,,,,,10,3,,,663.9469,12,up,0.6375,664.5975,1,0.3,"[3,1,2]",0.504326175,stimuli/card_100_transparent.png,100,12,0,12,0,1,,,,,,,,,,
,,,,5f179bd584e8e802ef9c187d,C,2024-10-25_12h00.42.385,Slot Machine Game,2023.1.3,Win32,59.88023952,5f179bd584e8e802ef9c187d,67167c13dd87566d3602e731,671bdc7e471133fdcbc62329,,,,,,,,,,,,,,,,,,,,,,,,,,,1020,,,,,,,,,,,,,,,,,,10,3,,,665.898,13,up,1.4692,667.3826,0.5,0.3,"[3,1,2]",0.434208272,stimuli/card_100_transparent.png,100,13,0,13,0,1,,,,,,,,,,
,,,,5f179bd584e8e802ef9c187d,C,2024-10-25_12h00.42.385,Slot Machine Game,2023.1.3,Win32,59.88023952,5f179bd584e8e802ef9c187d,67167c13dd87566d3602e731,671bdc7e471133fdcbc62329,,,,,,,,,,,,,,,,,,,,,,,,,,,1120,,,,,,,,,,,,,,,,,,10,3,,,668.1845,14,up,0.9215,669.1343,0.5,0.3,"[3,1,2]",0.843105762,stimuli/card_100_transparent.png,100,14,0,14,0,1,,,,,,,,,,
,,,,5f179bd584e8e802ef9c187d,C,2024-10-25_12h00.42.385,Slot Machine Game,2023.1.3,Win32,59.88023952,5f179bd584e8e802ef9c187d,67167c13dd87566d3602e731,671bdc7e471133fdcbc62329,,,,,,,,,,,,,,,,,,,,,,,,,,,,,,,,,,669.9342,,,,,,,,,,,,,,,,,,,,,,,,,,,,,,,"[940,1020,560,630,280,630,670,750,1040,1120]",9,0,9,0,1,,,,
,,,,5f179bd584e8e802ef9c187d,C,2024-10-25_12h00.42.385,Slot Machine Game,2023.1.3,Win32,59.88023952,5f179bd584e8e802ef9c187d,67167c13dd87566d3602e731,671bdc7e471133fdcbc62329,,,,,,,,,,,,,,,,,,,,,,,,,,,,,,,,,,,,,,,,,,,,,,,,,,,,,,,,,,,,,,,,,,,,,,,9,"[940,1020,560,630,280,630,670,750,1040,1120]",10.2,2024-10-25_12h12.01.654
