key_resp_welcome_started,key_resp_welcome_keys,key_resp_welcome_rt,key_resp_welcome_duration,prolific_pid,path_id,date,expName,psychopyVersion,OS,frameRate,key_resp_instruction1_started,key_resp_instruction1_keys,key_resp_instruction1_rt,key_resp_instruction1_duration,key_resp_instruction2_started,key_resp_instruction2_keys,key_resp_instruction2_rt,key_resp_instruction2_duration,key_resp_instruction3_started,key_resp_instruction3_keys,key_resp_instruction3_rt,key_resp_instruction3_duration,key_resp_instruction4_started,key_resp_instruction4_keys,key_resp_instruction4_rt,key_resp_instruction4_duration,practiceCondition,practice_reward_seqs,practice_trial_started,practice_trial_num,practice_resp_rt,practice_keypress_time,practice_resp_keys,prac_presentationInterval,practice_reward_seq,reward_img,cumulative_reward,trial_reward,practice_trials.thisRepN,practice_trials.thisTrialN,practice_trials.thisN,practice_trials.thisIndex,practice_trials.ran,block_break_started,practice_end_time,practice_end_keys,practice_end_rt,practice_end_duration,main_instruction_text_started,block_condition,block_order_indices,main_instruction_keys,main_instruction_rt,main_instruction_duration,block_number,block_assignment,current_condition,main_reward_seqs,main_trial_started,main_trial_num,main_trial_keys,main_trial_rt,main_trial_keypress_time,main_presentationInterval,reward_presentation_time,main_reward_seq,reward_rand_val,main_reward_img,current_reward,main_trials.thisRepN,main_trials.thisTrialN,main_trials.thisN,main_trials.thisIndex,main_trials.ran,block_reward,block.thisRepN,block.thisTrialN,block.thisN,block.thisIndex,block.ran,block_reward.length,block_reward_all,reward_amount,date_end_task
0.0003,space,2.0323,,5bf4afe0b8e9f800014c9c0b,B,2024-08-21_15h40.23.754,Slot Machine Game,2023.1.3,Win32,59.88023952,,,,,,,,,,,,,,,,,,,,,,,,,,,,,,,,,,,,,,,,,,,,,,,,,,,,,,,,,,,,,,,,,,,,,,,,,,
,,,,5bf4afe0b8e9f800014c9c0b,B,2024-08-21_15h40.23.754,Slot Machine Game,2023.1.3,Win32,59.88023952,2.0544,space,7.1913,,,,,,,,,,,,,,,,,,,,,,,,,,,,,,,,,,,,,,,,,,,,,,,,,,,,,,,,,,,,,,,,,,,,,,,
,,,,5bf4afe0b8e9f800014c9c0b,B,2024-08-21_15h40.23.754,Slot Machine Game,2023.1.3,Win32,59.88023952,,,,,9.268,space,14.9105,,,,,,,,,,,,,,,,,,,,,,,,,,,,,,,,,,,,,,,,,,,,,,,,,,,,,,,,,,,,,,,,,,,
,,,,5bf4afe0b8e9f800014c9c0b,B,2024-08-21_15h40.23.754,Slot Machine Game,2023.1.3,Win32,59.88023952,,,,,,,,,24.2438,space,8.7814,,,,,,,,,,,,,,,,,,,,,,,,,,,,,,,,,,,,,,,,,,,,,,,,,,,,,,,,,,,,,,,
,,,,5bf4afe0b8e9f800014c9c0b,B,2024-08-21_15h40.23.754,Slot Machine Game,2023.1.3,Win32,59.88023952,,,,,,,,,,,,,,,,,,,,,,,,,,,,,,,,,,,,,,,,,,,,,,,,,,,,,,,,,,,,,,,,,,,,,,,,,,
,,,,5bf4afe0b8e9f800014c9c0b,B,2024-08-21_15h40.23.754,Slot Machine Game,2023.1.3,Win32,59.88023952,,,,,,,,,,,,,174.9047,space,4.1332,,,,,,,,,,,,,,,,,,,,,,,,,,,,,,,,,,,,,,,,,,,,,,,,,,,,,,,,,,,
,,,,5bf4afe0b8e9f800014c9c0b,B,2024-08-21_15h40.23.754,Slot Machine Game,2023.1.3,Win32,59.88023952,,,,,,,,,,,,,,,,,"[9,15]","[[2,1,3],[2,3,1]]",179.1046,0,1.8389,180.9646,left,1,"[2,1,3]",stimuli/card_100_transparent.png,100,100,0,0,0,0,1,,,,,,,,,,,,,,,,,,,,,,,,,,,,,,,,,,,,,,,,,
,,,,5bf4afe0b8e9f800014c9c0b,B,2024-08-21_15h40.23.754,Slot Machine Game,2023.1.3,Win32,59.88023952,,,,,,,,,,,,,,,,,,,182.266,1,1.7736,184.0672,left,1,"[2,1,3]",stimuli/card_10_transparent.png,110,10,1,0,1,0,1,,,,,,,,,,,,,,,,,,,,,,,,,,,,,,,,,,,,,,,,,
,,,,5bf4afe0b8e9f800014c9c0b,B,2024-08-21_15h40.23.754,Slot Machine Game,2023.1.3,Win32,59.88023952,,,,,,,,,,,,,,,,,,,185.3676,2,0.9344,186.3195,left,0.5,"[2,1,3]",stimuli/card_100_transparent.png,210,100,2,0,2,0,1,,,,,,,,,,,,,,,,,,,,,,,,,,,,,,,,,,,,,,,,,
,,,,5bf4afe0b8e9f800014c9c0b,B,2024-08-21_15h40.23.754,Slot Machine Game,2023.1.3,Win32,59.88023952,,,,,,,,,,,,,,,,,,,187.1199,3,1.1656,188.3043,left,1.5,"[2,1,3]",stimuli/card_10_transparent.png,220,10,3,0,3,0,1,,,,,,,,,,,,,,,,,,,,,,,,,,,,,,,,,,,,,,,,,
,,,,5bf4afe0b8e9f800014c9c0b,B,2024-08-21_15h40.23.754,Slot Machine Game,2023.1.3,Win32,59.88023952,,,,,,,,,,,,,,,,,,,190.1066,4,0.6033,190.7235,left,0.5,"[2,1,3]",stimuli/card_10_transparent.png,230,10,4,0,4,0,1,,,,,,,,,,,,,,,,,,,,,,,,,,,,,,,,,,,,,,,,,
,,,,5bf4afe0b8e9f800014c9c0b,B,2024-08-21_15h40.23.754,Slot Machine Game,2023.1.3,Win32,59.88023952,,,,,,,,,,,,,,,,,,,191.5243,5,0.8554,192.3921,left,0.5,"[2,1,3]",stimuli/card_10_transparent.png,240,10,5,0,5,0,1,,,,,,,,,,,,,,,,,,,,,,,,,,,,,,,,,,,,,,,,,
,,,,5bf4afe0b8e9f800014c9c0b,B,2024-08-21_15h40.23.754,Slot Machine Game,2023.1.3,Win32,59.88023952,,,,,,,,,,,,,,,,,,,193.1946,6,0.6541,193.8772,up,1.5,"[2,1,3]",stimuli/card_0_transparent.png,240,0,6,0,6,0,1,,,,,,,,,,,,,,,,,,,,,,,,,,,,,,,,,,,,,,,,,
,,,,5bf4afe0b8e9f800014c9c0b,B,2024-08-21_15h40.23.754,Slot Machine Game,2023.1.3,Win32,59.88023952,,,,,,,,,,,,,,,,,,,195.6785,7,0.5573,196.2465,right,1.5,"[2,1,3]",stimuli/card_100_transparent.png,340,100,7,0,7,0,1,,,,,,,,,,,,,,,,,,,,,,,,,,,,,,,,,,,,,,,,,
,,,,5bf4afe0b8e9f800014c9c0b,B,2024-08-21_15h40.23.754,Slot Machine Game,2023.1.3,Win32,59.88023952,,,,,,,,,,,,,,,,,,,198.0474,8,2.7672,200.8339,right,1.5,"[2,1,3]",stimuli/card_0_transparent.png,340,0,8,0,8,0,1,,,,,,,,,,,,,,,,,,,,,,,,,,,,,,,,,,,,,,,,,
,,,,5bf4afe0b8e9f800014c9c0b,B,2024-08-21_15h40.23.754,Slot Machine Game,2023.1.3,Win32,59.88023952,,,,,,,,,,,,,,,,,,,202.6353,9,0.6004,203.2528,right,0.5,"[2,3,1]",stimuli/card_100_transparent.png,440,100,9,0,9,0,1,,,,,,,,,,,,,,,,,,,,,,,,,,,,,,,,,,,,,,,,,
,,,,5bf4afe0b8e9f800014c9c0b,B,2024-08-21_15h40.23.754,Slot Machine Game,2023.1.3,Win32,59.88023952,,,,,,,,,,,,,,,,,,,204.0537,10,0.6733,204.7545,right,1.5,"[2,3,1]",stimuli/card_10_transparent.png,450,10,10,0,10,0,1,,,,,,,,,,,,,,,,,,,,,,,,,,,,,,,,,,,,,,,,,
,,,,5bf4afe0b8e9f800014c9c0b,B,2024-08-21_15h40.23.754,Slot Machine Game,2023.1.3,Win32,59.88023952,,,,,,,,,,,,,,,,,,,206.5557,11,0.5346,207.1064,right,0.5,"[2,3,1]",stimuli/card_100_transparent.png,550,100,11,0,11,0,1,,,,,,,,,,,,,,,,,,,,,,,,,,,,,,,,,,,,,,,,,
,,,,5bf4afe0b8e9f800014c9c0b,B,2024-08-21_15h40.23.754,Slot Machine Game,2023.1.3,Win32,59.88023952,,,,,,,,,,,,,,,,,,,207.9073,12,0.635,208.5583,right,1,"[2,3,1]",stimuli/card_100_transparent.png,650,100,12,0,12,0,1,,,,,,,,,,,,,,,,,,,,,,,,,,,,,,,,,,,,,,,,,
,,,,5bf4afe0b8e9f800014c9c0b,B,2024-08-21_15h40.23.754,Slot Machine Game,2023.1.3,Win32,59.88023952,,,,,,,,,,,,,,,,,,,209.8594,13,2.5558,212.4283,right,0.5,"[2,3,1]",stimuli/card_100_transparent.png,750,100,13,0,13,0,1,,,,,,,,,,,,,,,,,,,,,,,,,,,,,,,,,,,,,,,,,
,,,,5bf4afe0b8e9f800014c9c0b,B,2024-08-21_15h40.23.754,Slot Machine Game,2023.1.3,Win32,59.88023952,,,,,,,,,,,,,,,,,,,213.2294,14,1.4327,214.6812,right,1.5,"[2,3,1]",stimuli/card_10_transparent.png,760,10,14,0,14,0,1,,,,,,,,,,,,,,,,,,,,,,,,,,,,,,,,,,,,,,,,,
,,,,5bf4afe0b8e9f800014c9c0b,B,2024-08-21_15h40.23.754,Slot Machine Game,2023.1.3,Win32,59.88023952,,,,,,,,,,,,,,,,,"[6,15]","[[1,3,2],[3,1,2]]",221.5208,0,0.918,222.4632,left,1,"[1,3,2]",stimuli/card_100_transparent.png,100,100,0,0,0,0,1,216.5175,,,,,,,,,,,,,,,,,,,,,,,,,,,,,,,,,,,,,,,,
,,,,5bf4afe0b8e9f800014c9c0b,B,2024-08-21_15h40.23.754,Slot Machine Game,2023.1.3,Win32,59.88023952,,,,,,,,,,,,,,,,,,,223.7621,1,0.7379,224.5153,left,1.5,"[1,3,2]",stimuli/card_100_transparent.png,200,100,1,0,1,0,1,,,,,,,,,,,,,,,,,,,,,,,,,,,,,,,,,,,,,,,,,
,,,,5bf4afe0b8e9f800014c9c0b,B,2024-08-21_15h40.23.754,Slot Machine Game,2023.1.3,Win32,59.88023952,,,,,,,,,,,,,,,,,,,226.3101,2,0.5268,226.8676,left,1.5,"[1,3,2]",stimuli/card_100_transparent.png,300,100,2,0,2,0,1,,,,,,,,,,,,,,,,,,,,,,,,,,,,,,,,,,,,,,,,,
,,,,5bf4afe0b8e9f800014c9c0b,B,2024-08-21_15h40.23.754,Slot Machine Game,2023.1.3,Win32,59.88023952,,,,,,,,,,,,,,,,,,,228.6616,3,2.0846,230.755,left,0.5,"[1,3,2]",stimuli/card_100_transparent.png,400,100,3,0,3,0,1,,,,,,,,,,,,,,,,,,,,,,,,,,,,,,,,,,,,,,,,,
,,,,5bf4afe0b8e9f800014c9c0b,B,2024-08-21_15h40.23.754,Slot Machine Game,2023.1.3,Win32,59.88023952,,,,,,,,,,,,,,,,,,,231.5478,4,1.8354,233.4065,left,1.5,"[1,3,2]",stimuli/card_100_transparent.png,500,100,4,0,4,0,1,,,,,,,,,,,,,,,,,,,,,,,,,,,,,,,,,,,,,,,,,
,,,,5bf4afe0b8e9f800014c9c0b,B,2024-08-21_15h40.23.754,Slot Machine Game,2023.1.3,Win32,59.88023952,,,,,,,,,,,,,,,,,,,235.2027,5,0.5345,235.7534,left,1,"[1,3,2]",stimuli/card_100_transparent.png,600,100,5,0,5,0,1,,,,,,,,,,,,,,,,,,,,,,,,,,,,,,,,,,,,,,,,,
,,,,5bf4afe0b8e9f800014c9c0b,B,2024-08-21_15h40.23.754,Slot Machine Game,2023.1.3,Win32,59.88023952,,,,,,,,,,,,,,,,,,,237.0543,6,3.3869,240.4812,left,0.5,"[3,1,2]",stimuli/card_10_transparent.png,610,10,6,0,6,0,1,,,,,,,,,,,,,,,,,,,,,,,,,,,,,,,,,,,,,,,,,
,,,,5bf4afe0b8e9f800014c9c0b,B,2024-08-21_15h40.23.754,Slot Machine Game,2023.1.3,Win32,59.88023952,,,,,,,,,,,,,,,,,,,241.2736,7,1.3868,242.6933,left,0.5,"[3,1,2]",stimuli/card_0_transparent.png,610,0,7,0,7,0,1,,,,,,,,,,,,,,,,,,,,,,,,,,,,,,,,,,,,,,,,,
,,,,5bf4afe0b8e9f800014c9c0b,B,2024-08-21_15h40.23.754,Slot Machine Game,2023.1.3,Win32,59.88023952,,,,,,,,,,,,,,,,,,,243.4995,8,1.4182,244.9292,right,1,"[3,1,2]",stimuli/card_10_transparent.png,620,10,8,0,8,0,1,,,,,,,,,,,,,,,,,,,,,,,,,,,,,,,,,,,,,,,,,
,,,,5bf4afe0b8e9f800014c9c0b,B,2024-08-21_15h40.23.754,Slot Machine Game,2023.1.3,Win32,59.88023952,,,,,,,,,,,,,,,,,,,246.2291,9,1.1016,247.3714,up,0.5,"[3,1,2]",stimuli/card_100_transparent.png,720,100,9,0,9,0,1,,,,,,,,,,,,,,,,,,,,,,,,,,,,,,,,,,,,,,,,,
,,,,5bf4afe0b8e9f800014c9c0b,B,2024-08-21_15h40.23.754,Slot Machine Game,2023.1.3,Win32,59.88023952,,,,,,,,,,,,,,,,,,,248.1649,10,1.2516,249.4327,up,0.5,"[3,1,2]",stimuli/card_100_transparent.png,820,100,10,0,10,0,1,,,,,,,,,,,,,,,,,,,,,,,,,,,,,,,,,,,,,,,,,
,,,,5bf4afe0b8e9f800014c9c0b,B,2024-08-21_15h40.23.754,Slot Machine Game,2023.1.3,Win32,59.88023952,,,,,,,,,,,,,,,,,,,250.2335,11,1.4593,251.7185,up,1.5,"[3,1,2]",stimuli/card_100_transparent.png,920,100,11,0,11,0,1,,,,,,,,,,,,,,,,,,,,,,,,,,,,,,,,,,,,,,,,,
,,,,5bf4afe0b8e9f800014c9c0b,B,2024-08-21_15h40.23.754,Slot Machine Game,2023.1.3,Win32,59.88023952,,,,,,,,,,,,,,,,,,,253.52,12,0.7429,254.2798,up,1,"[3,1,2]",stimuli/card_100_transparent.png,1020,100,12,0,12,0,1,,,,,,,,,,,,,,,,,,,,,,,,,,,,,,,,,,,,,,,,,
,,,,5bf4afe0b8e9f800014c9c0b,B,2024-08-21_15h40.23.754,Slot Machine Game,2023.1.3,Win32,59.88023952,,,,,,,,,,,,,,,,,,,255.5771,13,0.8619,256.4737,up,1.5,"[3,1,2]",stimuli/card_100_transparent.png,1120,100,13,0,13,0,1,,,,,,,,,,,,,,,,,,,,,,,,,,,,,,,,,,,,,,,,,
,,,,5bf4afe0b8e9f800014c9c0b,B,2024-08-21_15h40.23.754,Slot Machine Game,2023.1.3,Win32,59.88023952,,,,,,,,,,,,,,,,,,,258.2625,14,3.0593,261.3614,up,1,"[3,1,2]",stimuli/card_100_transparent.png,1220,100,14,0,14,0,1,,,,,,,,,,,,,,,,,,,,,,,,,,,,,,,,,,,,,,,,,
,,,,5bf4afe0b8e9f800014c9c0b,B,2024-08-21_15h40.23.754,Slot Machine Game,2023.1.3,Win32,59.88023952,,,,,,,,,,,,,,,,,,,,,,,,,,,,,,,,,,262.6623,267.6532,space,1.7881,,,,,,,,,,,,,,,,,,,,,,,,,,,,,,,,,,,,,
,,,,5bf4afe0b8e9f800014c9c0b,B,2024-08-21_15h40.23.754,Slot Machine Game,2023.1.3,Win32,59.88023952,,,,,,,,,,,,,,,,,,,,,,,,,,,,,,,,,,,,,,,269.4711,1,"[0,1,2,3,4,5,6,7,8,9]",space,1.7004,,,,,,,,,,,,,,,,,,,,,,,,,,,,,,,
,,,,5bf4afe0b8e9f800014c9c0b,B,2024-08-21_15h40.23.754,Slot Machine Game,2023.1.3,Win32,59.88023952,,,,,,,,,,,,,,,,,,,,,,,,,,,10,,,,,,,,,,,,,,,,,,1,1,"[12,15]","[[2,1,3],[2,3,1]]",271.2383,0,left,0.7668,272.0401,0.5,0.3,"[2,1,3]",0.256010719,stimuli/card_10_transparent.png,10,0,0,0,0,1,,,,,,,,,,
,,,,5bf4afe0b8e9f800014c9c0b,B,2024-08-21_15h40.23.754,Slot Machine Game,2023.1.3,Win32,59.88023952,,,,,,,,,,,,,,,,,,,,,,,,,,,110,,,,,,,,,,,,,,,,,,1,1,,,272.8399,1,up,0.7425,273.6064,0.5,0.3,"[2,1,3]",0.816125118,stimuli/card_100_transparent.png,100,1,0,1,0,1,,,,,,,,,,
,,,,5bf4afe0b8e9f800014c9c0b,B,2024-08-21_15h40.23.754,Slot Machine Game,2023.1.3,Win32,59.88023952,,,,,,,,,,,,,,,,,,,,,,,,,,,210,,,,,,,,,,,,,,,,,,1,1,,,274.4076,2,up,1.101,275.5414,1.5,0.3,"[2,1,3]",0.260362431,stimuli/card_100_transparent.png,100,2,0,2,0,1,,,,,,,,,,
,,,,5bf4afe0b8e9f800014c9c0b,B,2024-08-21_15h40.23.754,Slot Machine Game,2023.1.3,Win32,59.88023952,,,,,,,,,,,,,,,,,,,,,,,,,,,310,,,,,,,,,,,,,,,,,,1,1,,,277.3275,3,up,1.0465,278.4119,0.5,0.3,"[2,1,3]",0.48296838,stimuli/card_100_transparent.png,100,3,0,3,0,1,,,,,,,,,,
,,,,5bf4afe0b8e9f800014c9c0b,B,2024-08-21_15h40.23.754,Slot Machine Game,2023.1.3,Win32,59.88023952,,,,,,,,,,,,,,,,,,,,,,,,,,,410,,,,,,,,,,,,,,,,,,1,1,,,279.2019,4,up,1.3159,280.5468,0.5,0.3,"[2,1,3]",0.422983902,stimuli/card_100_transparent.png,100,4,0,4,0,1,,,,,,,,,,
,,,,5bf4afe0b8e9f800014c9c0b,B,2024-08-21_15h40.23.754,Slot Machine Game,2023.1.3,Win32,59.88023952,,,,,,,,,,,,,,,,,,,,,,,,,,,510,,,,,,,,,,,,,,,,,,1,1,,,281.3313,5,up,1.4242,282.783,1,0.3,"[2,1,3]",0.477301206,stimuli/card_100_transparent.png,100,5,0,5,0,1,,,,,,,,,,
,,,,5bf4afe0b8e9f800014c9c0b,B,2024-08-21_15h40.23.754,Slot Machine Game,2023.1.3,Win32,59.88023952,,,,,,,,,,,,,,,,,,,,,,,,,,,610,,,,,,,,,,,,,,,,,,1,1,,,284.0839,6,up,1.0899,285.22,1,0.3,"[2,1,3]",0.702962247,stimuli/card_100_transparent.png,100,6,0,6,0,1,,,,,,,,,,
,,,,5bf4afe0b8e9f800014c9c0b,B,2024-08-21_15h40.23.754,Slot Machine Game,2023.1.3,Win32,59.88023952,,,,,,,,,,,,,,,,,,,,,,,,,,,710,,,,,,,,,,,,,,,,,,1,1,,,286.5036,7,up,1.2504,287.7777,0.5,0.3,"[2,1,3]",0.74441446,stimuli/card_100_transparent.png,100,7,0,7,0,1,,,,,,,,,,
,,,,5bf4afe0b8e9f800014c9c0b,B,2024-08-21_15h40.23.754,Slot Machine Game,2023.1.3,Win32,59.88023952,,,,,,,,,,,,,,,,,,,,,,,,,,,810,,,,,,,,,,,,,,,,,,1,1,,,288.5613,8,up,1.5181,290.0976,0.5,0.3,"[2,1,3]",0.695765879,stimuli/card_100_transparent.png,100,8,0,8,0,1,,,,,,,,,,
,,,,5bf4afe0b8e9f800014c9c0b,B,2024-08-21_15h40.23.754,Slot Machine Game,2023.1.3,Win32,59.88023952,,,,,,,,,,,,,,,,,,,,,,,,,,,910,,,,,,,,,,,,,,,,,,1,1,,,290.8906,9,up,1.4239,292.3593,0.5,0.3,"[2,1,3]",0.906396639,stimuli/card_100_transparent.png,100,9,0,9,0,1,,,,,,,,,,
,,,,5bf4afe0b8e9f800014c9c0b,B,2024-08-21_15h40.23.754,Slot Machine Game,2023.1.3,Win32,59.88023952,,,,,,,,,,,,,,,,,,,,,,,,,,,920,,,,,,,,,,,,,,,,,,1,1,,,293.1596,10,up,1.4528,294.6279,1.5,0.3,"[2,1,3]",0.110732573,stimuli/card_10_transparent.png,10,10,0,10,0,1,,,,,,,,,,
,,,,5bf4afe0b8e9f800014c9c0b,B,2024-08-21_15h40.23.754,Slot Machine Game,2023.1.3,Win32,59.88023952,,,,,,,,,,,,,,,,,,,,,,,,,,,1020,,,,,,,,,,,,,,,,,,1,1,,,296.4291,11,up,2.2682,298.7055,1,0.3,"[2,1,3]",0.682689053,stimuli/card_100_transparent.png,100,11,0,11,0,1,,,,,,,,,,
,,,,5bf4afe0b8e9f800014c9c0b,B,2024-08-21_15h40.23.754,Slot Machine Game,2023.1.3,Win32,59.88023952,,,,,,,,,,,,,,,,,,,,,,,,,,,1020,,,,,,,,,,,,,,,,,,1,1,,,299.9996,12,up,0.8203,300.8506,1,0.3,"[2,3,1]",0.789519423,stimuli/card_0_transparent.png,0,12,0,12,0,1,,,,,,,,,,
,,,,5bf4afe0b8e9f800014c9c0b,B,2024-08-21_15h40.23.754,Slot Machine Game,2023.1.3,Win32,59.88023952,,,,,,,,,,,,,,,,,,,,,,,,,,,1020,,,,,,,,,,,,,,,,,,1,1,,,302.151,13,left,0.571,302.7356,1.5,0.3,"[2,3,1]",0.060912157,stimuli/card_0_transparent.png,0,13,0,13,0,1,,,,,,,,,,
,,,,5bf4afe0b8e9f800014c9c0b,B,2024-08-21_15h40.23.754,Slot Machine Game,2023.1.3,Win32,59.88023952,,,,,,,,,,,,,,,,,,,,,,,,,,,1120,,,,,,,,,,,,,,,,,,1,1,,,304.5272,14,right,2.3853,306.9292,1.5,0.3,"[2,3,1]",0.977242498,stimuli/card_100_transparent.png,100,14,0,14,0,1,,,,,,,,,,
,,,,5bf4afe0b8e9f800014c9c0b,B,2024-08-21_15h40.23.754,Slot Machine Game,2023.1.3,Win32,59.88023952,,,,,,,,,,,,,,,,,,,,,,,,,,,,,,,,,,308.7256,,,,,,,,,,,,,,,,,,,,,,,,,,,,,,,[1120],0,0,0,0,1,,,,
,,,,5bf4afe0b8e9f800014c9c0b,B,2024-08-21_15h40.23.754,Slot Machine Game,2023.1.3,Win32,59.88023952,,,,,,,,,,,,,,,,,,,,,,,,,,,100,,,,,,,,,,,,,,,,,,2,2,"[6,15]","[[1,3,2],[3,2,1]]",313.7659,0,left,0.7866,314.5803,1.5,0.3,"[1,3,2]",0.626830667,stimuli/card_100_transparent.png,100,0,0,0,0,1,,,,,,,,,,
,,,,5bf4afe0b8e9f800014c9c0b,B,2024-08-21_15h40.23.754,Slot Machine Game,2023.1.3,Win32,59.88023952,,,,,,,,,,,,,,,,,,,,,,,,,,,200,,,,,,,,,,,,,,,,,,2,2,,,316.3822,1,left,0.7177,317.1162,1.5,0.3,"[1,3,2]",0.579435688,stimuli/card_100_transparent.png,100,1,0,1,0,1,,,,,,,,,,
,,,,5bf4afe0b8e9f800014c9c0b,B,2024-08-21_15h40.23.754,Slot Machine Game,2023.1.3,Win32,59.88023952,,,,,,,,,,,,,,,,,,,,,,,,,,,300,,,,,,,,,,,,,,,,,,2,2,,,318.9179,2,left,0.6727,319.6019,1.5,0.3,"[1,3,2]",0.406721831,stimuli/card_100_transparent.png,100,2,0,2,0,1,,,,,,,,,,
,,,,5bf4afe0b8e9f800014c9c0b,B,2024-08-21_15h40.23.754,Slot Machine Game,2023.1.3,Win32,59.88023952,,,,,,,,,,,,,,,,,,,,,,,,,,,400,,,,,,,,,,,,,,,,,,2,2,,,321.4028,3,left,0.859,322.2712,1,0.3,"[1,3,2]",0.635673927,stimuli/card_100_transparent.png,100,3,0,3,0,1,,,,,,,,,,
,,,,5bf4afe0b8e9f800014c9c0b,B,2024-08-21_15h40.23.754,Slot Machine Game,2023.1.3,Win32,59.88023952,,,,,,,,,,,,,,,,,,,,,,,,,,,410,,,,,,,,,,,,,,,,,,2,2,,,323.5722,4,left,1.138,324.7239,0.5,0.3,"[1,3,2]",0.176880097,stimuli/card_10_transparent.png,10,4,0,4,0,1,,,,,,,,,,
,,,,5bf4afe0b8e9f800014c9c0b,B,2024-08-21_15h40.23.754,Slot Machine Game,2023.1.3,Win32,59.88023952,,,,,,,,,,,,,,,,,,,,,,,,,,,420,,,,,,,,,,,,,,,,,,2,2,,,325.5245,5,right,2.3212,327.8603,1,0.3,"[1,3,2]",0.205113217,stimuli/card_10_transparent.png,10,5,0,5,0,1,,,,,,,,,,
,,,,5bf4afe0b8e9f800014c9c0b,B,2024-08-21_15h40.23.754,Slot Machine Game,2023.1.3,Win32,59.88023952,,,,,,,,,,,,,,,,,,,,,,,,,,,430,,,,,,,,,,,,,,,,,,2,2,,,329.162,6,up,1.3397,330.5336,0.5,0.3,"[3,2,1]",0.789922331,stimuli/card_10_transparent.png,10,6,0,6,0,1,,,,,,,,,,
,,,,5bf4afe0b8e9f800014c9c0b,B,2024-08-21_15h40.23.754,Slot Machine Game,2023.1.3,Win32,59.88023952,,,,,,,,,,,,,,,,,,,,,,,,,,,430,,,,,,,,,,,,,,,,,,2,2,,,331.3302,7,left,1.4509,332.7988,1,0.3,"[3,2,1]",0.513582359,stimuli/card_0_transparent.png,0,7,0,7,0,1,,,,,,,,,,
,,,,5bf4afe0b8e9f800014c9c0b,B,2024-08-21_15h40.23.754,Slot Machine Game,2023.1.3,Win32,59.88023952,,,,,,,,,,,,,,,,,,,,,,,,,,,530,,,,,,,,,,,,,,,,,,2,2,,,334.0996,8,right,1.1524,335.2676,1,0.3,"[3,2,1]",0.41202373,stimuli/card_100_transparent.png,100,8,0,8,0,1,,,,,,,,,,
,,,,5bf4afe0b8e9f800014c9c0b,B,2024-08-21_15h40.23.754,Slot Machine Game,2023.1.3,Win32,59.88023952,,,,,,,,,,,,,,,,,,,,,,,,,,,630,,,,,,,,,,,,,,,,,,2,2,,,336.5689,9,right,1.1037,337.7042,1.5,0.3,"[3,2,1]",0.587789561,stimuli/card_100_transparent.png,100,9,0,9,0,1,,,,,,,,,,
,,,,5bf4afe0b8e9f800014c9c0b,B,2024-08-21_15h40.23.754,Slot Machine Game,2023.1.3,Win32,59.88023952,,,,,,,,,,,,,,,,,,,,,,,,,,,730,,,,,,,,,,,,,,,,,,2,2,,,339.505,10,right,0.6844,340.2057,1.5,0.3,"[3,2,1]",0.366454411,stimuli/card_100_transparent.png,100,10,0,10,0,1,,,,,,,,,,
,,,,5bf4afe0b8e9f800014c9c0b,B,2024-08-21_15h40.23.754,Slot Machine Game,2023.1.3,Win32,59.88023952,,,,,,,,,,,,,,,,,,,,,,,,,,,730,,,,,,,,,,,,,,,,,,2,2,,,342.0076,11,right,0.5423,342.5742,1,0.3,"[3,2,1]",0.074383867,stimuli/card_0_transparent.png,0,11,0,11,0,1,,,,,,,,,,
,,,,5bf4afe0b8e9f800014c9c0b,B,2024-08-21_15h40.23.754,Slot Machine Game,2023.1.3,Win32,59.88023952,,,,,,,,,,,,,,,,,,,,,,,,,,,740,,,,,,,,,,,,,,,,,,2,2,,,343.8758,12,up,1.0205,344.9107,1.5,0.3,"[3,2,1]",0.290255391,stimuli/card_10_transparent.png,10,12,0,12,0,1,,,,,,,,,,
,,,,5bf4afe0b8e9f800014c9c0b,B,2024-08-21_15h40.23.754,Slot Machine Game,2023.1.3,Win32,59.88023952,,,,,,,,,,,,,,,,,,,,,,,,,,,840,,,,,,,,,,,,,,,,,,2,2,,,346.7126,13,right,0.5579,347.2969,0.5,0.3,"[3,2,1]",0.544548864,stimuli/card_100_transparent.png,100,13,0,13,0,1,,,,,,,,,,
,,,,5bf4afe0b8e9f800014c9c0b,B,2024-08-21_15h40.23.754,Slot Machine Game,2023.1.3,Win32,59.88023952,,,,,,,,,,,,,,,,,,,,,,,,,,,940,,,,,,,,,,,,,,,,,,2,2,,,348.0969,14,right,1.5253,349.6318,1,0.3,"[3,2,1]",0.654085719,stimuli/card_100_transparent.png,100,14,0,14,0,1,,,,,,,,,,
,,,,5bf4afe0b8e9f800014c9c0b,B,2024-08-21_15h40.23.754,Slot Machine Game,2023.1.3,Win32,59.88023952,,,,,,,,,,,,,,,,,,,,,,,,,,,,,,,,,,350.9328,,,,,,,,,,,,,,,,,,,,,,,,,,,,,,,"[1120,940]",1,0,1,0,1,,,,
,,,,5bf4afe0b8e9f800014c9c0b,B,2024-08-21_15h40.23.754,Slot Machine Game,2023.1.3,Win32,59.88023952,,,,,,,,,,,,,,,,,,,,,,,,,,,0,,,,,,,,,,,,,,,,,,3,3,"[15,15]","[[3,1,2],[3,1,2]]",355.9587,0,up,1.7684,357.7566,0.5,0.3,"[3,1,2]",0.002216522,stimuli/card_0_transparent.png,0,0,0,0,0,1,,,,,,,,,,
,,,,5bf4afe0b8e9f800014c9c0b,B,2024-08-21_15h40.23.754,Slot Machine Game,2023.1.3,Win32,59.88023952,,,,,,,,,,,,,,,,,,,,,,,,,,,10,,,,,,,,,,,,,,,,,,3,3,,,358.5572,1,right,0.5011,359.0746,1.5,0.3,"[3,1,2]",0.787236461,stimuli/card_10_transparent.png,10,1,0,1,0,1,,,,,,,,,,
,,,,5bf4afe0b8e9f800014c9c0b,B,2024-08-21_15h40.23.754,Slot Machine Game,2023.1.3,Win32,59.88023952,,,,,,,,,,,,,,,,,,,,,,,,,,,10,,,,,,,,,,,,,,,,,,3,3,,,360.8764,2,left,0.6736,361.5614,1.5,0.3,"[3,1,2]",0.869181028,stimuli/card_0_transparent.png,0,2,0,2,0,1,,,,,,,,,,
,,,,5bf4afe0b8e9f800014c9c0b,B,2024-08-21_15h40.23.754,Slot Machine Game,2023.1.3,Win32,59.88023952,,,,,,,,,,,,,,,,,,,,,,,,,,,20,,,,,,,,,,,,,,,,,,3,3,,,363.3622,3,right,0.6046,363.9796,1,0.3,"[3,1,2]",0.549139123,stimuli/card_10_transparent.png,10,3,0,3,0,1,,,,,,,,,,
,,,,5bf4afe0b8e9f800014c9c0b,B,2024-08-21_15h40.23.754,Slot Machine Game,2023.1.3,Win32,59.88023952,,,,,,,,,,,,,,,,,,,,,,,,,,,30,,,,,,,,,,,,,,,,,,3,3,,,365.2805,4,up,0.8209,366.1153,1,0.3,"[3,1,2]",0.141786713,stimuli/card_10_transparent.png,10,4,0,4,0,1,,,,,,,,,,
,,,,5bf4afe0b8e9f800014c9c0b,B,2024-08-21_15h40.23.754,Slot Machine Game,2023.1.3,Win32,59.88023952,,,,,,,,,,,,,,,,,,,,,,,,,,,30,,,,,,,,,,,,,,,,,,3,3,,,367.417,5,left,0.8061,368.2505,1.5,0.3,"[3,1,2]",0.331488555,stimuli/card_0_transparent.png,0,5,0,5,0,1,,,,,,,,,,
,,,,5bf4afe0b8e9f800014c9c0b,B,2024-08-21_15h40.23.754,Slot Machine Game,2023.1.3,Win32,59.88023952,,,,,,,,,,,,,,,,,,,,,,,,,,,40,,,,,,,,,,,,,,,,,,3,3,,,370.0521,6,right,0.6523,370.7196,1,0.3,"[3,1,2]",0.839504715,stimuli/card_10_transparent.png,10,6,0,6,0,1,,,,,,,,,,
,,,,5bf4afe0b8e9f800014c9c0b,B,2024-08-21_15h40.23.754,Slot Machine Game,2023.1.3,Win32,59.88023952,,,,,,,,,,,,,,,,,,,,,,,,,,,140,,,,,,,,,,,,,,,,,,3,3,,,372.0208,7,up,0.735,372.7717,1.5,0.3,"[3,1,2]",0.386675888,stimuli/card_100_transparent.png,100,7,0,7,0,1,,,,,,,,,,
,,,,5bf4afe0b8e9f800014c9c0b,B,2024-08-21_15h40.23.754,Slot Machine Game,2023.1.3,Win32,59.88023952,,,,,,,,,,,,,,,,,,,,,,,,,,,240,,,,,,,,,,,,,,,,,,3,3,,,374.5736,8,up,0.5678,375.1583,1,0.3,"[3,1,2]",0.58297998,stimuli/card_100_transparent.png,100,8,0,8,0,1,,,,,,,,,,
,,,,5bf4afe0b8e9f800014c9c0b,B,2024-08-21_15h40.23.754,Slot Machine Game,2023.1.3,Win32,59.88023952,,,,,,,,,,,,,,,,,,,,,,,,,,,340,,,,,,,,,,,,,,,,,,3,3,,,376.4588,9,up,1.1185,377.6098,1.5,0.3,"[3,1,2]",0.90454883,stimuli/card_100_transparent.png,100,9,0,9,0,1,,,,,,,,,,
,,,,5bf4afe0b8e9f800014c9c0b,B,2024-08-21_15h40.23.754,Slot Machine Game,2023.1.3,Win32,59.88023952,,,,,,,,,,,,,,,,,,,,,,,,,,,440,,,,,,,,,,,,,,,,,,3,3,,,379.4119,10,up,0.9713,380.396,0.5,0.3,"[3,1,2]",0.963063519,stimuli/card_100_transparent.png,100,10,0,10,0,1,,,,,,,,,,
,,,,5bf4afe0b8e9f800014c9c0b,B,2024-08-21_15h40.23.754,Slot Machine Game,2023.1.3,Win32,59.88023952,,,,,,,,,,,,,,,,,,,,,,,,,,,540,,,,,,,,,,,,,,,,,,3,3,,,381.1974,11,up,1.1937,382.4148,1,0.3,"[3,1,2]",0.470137118,stimuli/card_100_transparent.png,100,11,0,11,0,1,,,,,,,,,,
,,,,5bf4afe0b8e9f800014c9c0b,B,2024-08-21_15h40.23.754,Slot Machine Game,2023.1.3,Win32,59.88023952,,,,,,,,,,,,,,,,,,,,,,,,,,,640,,,,,,,,,,,,,,,,,,3,3,,,383.7157,12,up,1.0178,384.7503,1,0.3,"[3,1,2]",0.609993169,stimuli/card_100_transparent.png,100,12,0,12,0,1,,,,,,,,,,
,,,,5bf4afe0b8e9f800014c9c0b,B,2024-08-21_15h40.23.754,Slot Machine Game,2023.1.3,Win32,59.88023952,,,,,,,,,,,,,,,,,,,,,,,,,,,740,,,,,,,,,,,,,,,,,,3,3,,,386.0516,13,up,1.1872,387.2527,1,0.3,"[3,1,2]",0.210840556,stimuli/card_100_transparent.png,100,13,0,13,0,1,,,,,,,,,,
,,,,5bf4afe0b8e9f800014c9c0b,B,2024-08-21_15h40.23.754,Slot Machine Game,2023.1.3,Win32,59.88023952,,,,,,,,,,,,,,,,,,,,,,,,,,,840,,,,,,,,,,,,,,,,,,3,3,,,388.5541,14,up,1.2717,389.8385,1,0.3,"[3,1,2]",0.740541712,stimuli/card_100_transparent.png,100,14,0,14,0,1,,,,,,,,,,
,,,,5bf4afe0b8e9f800014c9c0b,B,2024-08-21_15h40.23.754,Slot Machine Game,2023.1.3,Win32,59.88023952,,,,,,,,,,,,,,,,,,,,,,,,,,,,,,,,,,391.1404,,,,,,,,,,,,,,,,,,,,,,,,,,,,,,,"[1120,940,840]",2,0,2,0,1,,,,
,,,,5bf4afe0b8e9f800014c9c0b,B,2024-08-21_15h40.23.754,Slot Machine Game,2023.1.3,Win32,59.88023952,,,,,,,,,,,,,,,,,,,,,,,,,,,10,,,,,,,,,,,,,,,,,,4,4,"[7,15]","[[2,3,1],[1,2,3]]",396.165,0,left,1.5032,397.6965,0.5,0.3,"[2,3,1]",0.86142091,stimuli/card_10_transparent.png,10,0,0,0,0,1,,,,,,,,,,
,,,,5bf4afe0b8e9f800014c9c0b,B,2024-08-21_15h40.23.754,Slot Machine Game,2023.1.3,Win32,59.88023952,,,,,,,,,,,,,,,,,,,,,,,,,,,20,,,,,,,,,,,,,,,,,,4,4,,,398.4972,1,right,1.135,399.6476,1,0.3,"[2,3,1]",0.144845416,stimuli/card_10_transparent.png,10,1,0,1,0,1,,,,,,,,,,
,,,,5bf4afe0b8e9f800014c9c0b,B,2024-08-21_15h40.23.754,Slot Machine Game,2023.1.3,Win32,59.88023952,,,,,,,,,,,,,,,,,,,,,,,,,,,20,,,,,,,,,,,,,,,,,,4,4,,,400.9497,2,up,0.8197,401.8002,1.5,0.3,"[2,3,1]",0.618626364,stimuli/card_0_transparent.png,0,2,0,2,0,1,,,,,,,,,,
,,,,5bf4afe0b8e9f800014c9c0b,B,2024-08-21_15h40.23.754,Slot Machine Game,2023.1.3,Win32,59.88023952,,,,,,,,,,,,,,,,,,,,,,,,,,,30,,,,,,,,,,,,,,,,,,4,4,,,403.6022,3,left,0.6016,404.2213,1.5,0.3,"[2,3,1]",0.274541382,stimuli/card_10_transparent.png,10,3,0,3,0,1,,,,,,,,,,
,,,,5bf4afe0b8e9f800014c9c0b,B,2024-08-21_15h40.23.754,Slot Machine Game,2023.1.3,Win32,59.88023952,,,,,,,,,,,,,,,,,,,,,,,,,,,130,,,,,,,,,,,,,,,,,,4,4,,,406.0212,4,right,0.5765,406.6059,1.5,0.3,"[2,3,1]",0.444580549,stimuli/card_100_transparent.png,100,4,0,4,0,1,,,,,,,,,,
,,,,5bf4afe0b8e9f800014c9c0b,B,2024-08-21_15h40.23.754,Slot Machine Game,2023.1.3,Win32,59.88023952,,,,,,,,,,,,,,,,,,,,,,,,,,,230,,,,,,,,,,,,,,,,,,4,4,,,408.407,5,right,0.6176,409.041,1,0.3,"[2,3,1]",0.948175908,stimuli/card_100_transparent.png,100,5,0,5,0,1,,,,,,,,,,
,,,,5bf4afe0b8e9f800014c9c0b,B,2024-08-21_15h40.23.754,Slot Machine Game,2023.1.3,Win32,59.88023952,,,,,,,,,,,,,,,,,,,,,,,,,,,230,,,,,,,,,,,,,,,,,,4,4,,,410.3423,6,right,0.9209,411.2764,1.5,0.3,"[2,3,1]",0.085569897,stimuli/card_0_transparent.png,0,6,0,6,0,1,,,,,,,,,,
,,,,5bf4afe0b8e9f800014c9c0b,B,2024-08-21_15h40.23.754,Slot Machine Game,2023.1.3,Win32,59.88023952,,,,,,,,,,,,,,,,,,,,,,,,,,,230,,,,,,,,,,,,,,,,,,4,4,,,413.0782,7,right,0.807,413.896,1,0.3,"[1,2,3]",0.877969433,stimuli/card_0_transparent.png,0,7,0,7,0,1,,,,,,,,,,
,,,,5bf4afe0b8e9f800014c9c0b,B,2024-08-21_15h40.23.754,Slot Machine Game,2023.1.3,Win32,59.88023952,,,,,,,,,,,,,,,,,,,,,,,,,,,240,,,,,,,,,,,,,,,,,,4,4,,,415.1977,8,up,0.5923,415.8142,0.5,0.3,"[1,2,3]",0.787176397,stimuli/card_10_transparent.png,10,8,0,8,0,1,,,,,,,,,,
,,,,5bf4afe0b8e9f800014c9c0b,B,2024-08-21_15h40.23.754,Slot Machine Game,2023.1.3,Win32,59.88023952,,,,,,,,,,,,,,,,,,,,,,,,,,,340,,,,,,,,,,,,,,,,,,4,4,,,416.615,9,left,1.0182,417.6494,0.5,0.3,"[1,2,3]",0.888313196,stimuli/card_100_transparent.png,100,9,0,9,0,1,,,,,,,,,,
,,,,5bf4afe0b8e9f800014c9c0b,B,2024-08-21_15h40.23.754,Slot Machine Game,2023.1.3,Win32,59.88023952,,,,,,,,,,,,,,,,,,,,,,,,,,,440,,,,,,,,,,,,,,,,,,4,4,,,418.4504,10,left,1.2034,419.6688,0.5,0.3,"[1,2,3]",0.697736147,stimuli/card_100_transparent.png,100,10,0,10,0,1,,,,,,,,,,
,,,,5bf4afe0b8e9f800014c9c0b,B,2024-08-21_15h40.23.754,Slot Machine Game,2023.1.3,Win32,59.88023952,,,,,,,,,,,,,,,,,,,,,,,,,,,540,,,,,,,,,,,,,,,,,,4,4,,,420.4691,11,left,1.0884,421.57,1,0.3,"[1,2,3]",0.580977754,stimuli/card_100_transparent.png,100,11,0,11,0,1,,,,,,,,,,
,,,,5bf4afe0b8e9f800014c9c0b,B,2024-08-21_15h40.23.754,Slot Machine Game,2023.1.3,Win32,59.88023952,,,,,,,,,,,,,,,,,,,,,,,,,,,550,,,,,,,,,,,,,,,,,,4,4,,,422.8715,12,left,0.8677,423.7558,1.5,0.3,"[1,2,3]",0.114753049,stimuli/card_10_transparent.png,10,12,0,12,0,1,,,,,,,,,,
,,,,5bf4afe0b8e9f800014c9c0b,B,2024-08-21_15h40.23.754,Slot Machine Game,2023.1.3,Win32,59.88023952,,,,,,,,,,,,,,,,,,,,,,,,,,,650,,,,,,,,,,,,,,,,,,4,4,,,425.5574,13,left,1.0733,426.6456,0.5,0.3,"[1,2,3]",0.950157281,stimuli/card_100_transparent.png,100,13,0,13,0,1,,,,,,,,,,
,,,,5bf4afe0b8e9f800014c9c0b,B,2024-08-21_15h40.23.754,Slot Machine Game,2023.1.3,Win32,59.88023952,,,,,,,,,,,,,,,,,,,,,,,,,,,750,,,,,,,,,,,,,,,,,,4,4,,,427.4443,14,left,0.9715,428.4434,0.5,0.3,"[1,2,3]",0.415068448,stimuli/card_100_transparent.png,100,14,0,14,0,1,,,,,,,,,,
,,,,5bf4afe0b8e9f800014c9c0b,B,2024-08-21_15h40.23.754,Slot Machine Game,2023.1.3,Win32,59.88023952,,,,,,,,,,,,,,,,,,,,,,,,,,,,,,,,,,429.2445,,,,,,,,,,,,,,,,,,,,,,,,,,,,,,,"[1120,940,840,750]",3,0,3,0,1,,,,
,,,,5bf4afe0b8e9f800014c9c0b,B,2024-08-21_15h40.23.754,Slot Machine Game,2023.1.3,Win32,59.88023952,,,,,,,,,,,,,,,,,,,,,,,,,,,10,,,,,,,,,,,,,,,,,,5,5,"[5,15]","[[1,2,3],[3,1,2]]",434.2691,0,up,0.6355,434.9338,1.5,0.3,"[1,2,3]",0.214720362,stimuli/card_10_transparent.png,10,0,0,0,0,1,,,,,,,,,,
,,,,5bf4afe0b8e9f800014c9c0b,B,2024-08-21_15h40.23.754,Slot Machine Game,2023.1.3,Win32,59.88023952,,,,,,,,,,,,,,,,,,,,,,,,,,,20,,,,,,,,,,,,,,,,,,5,5,,,436.7357,1,right,0.5014,437.2693,1,0.3,"[1,2,3]",0.107030079,stimuli/card_10_transparent.png,10,1,0,1,0,1,,,,,,,,,,
,,,,5bf4afe0b8e9f800014c9c0b,B,2024-08-21_15h40.23.754,Slot Machine Game,2023.1.3,Win32,59.88023952,,,,,,,,,,,,,,,,,,,,,,,,,,,20,,,,,,,,,,,,,,,,,,5,5,,,438.5706,2,left,0.7555,439.3376,1,0.3,"[1,2,3]",0.062364752,stimuli/card_0_transparent.png,0,2,0,2,0,1,,,,,,,,,,
,,,,5bf4afe0b8e9f800014c9c0b,B,2024-08-21_15h40.23.754,Slot Machine Game,2023.1.3,Win32,59.88023952,,,,,,,,,,,,,,,,,,,,,,,,,,,30,,,,,,,,,,,,,,,,,,5,5,,,440.639,3,up,0.8066,441.4569,1.5,0.3,"[1,2,3]",0.478129109,stimuli/card_10_transparent.png,10,3,0,3,0,1,,,,,,,,,,
,,,,5bf4afe0b8e9f800014c9c0b,B,2024-08-21_15h40.23.754,Slot Machine Game,2023.1.3,Win32,59.88023952,,,,,,,,,,,,,,,,,,,,,,,,,,,30,,,,,,,,,,,,,,,,,,5,5,,,443.258,4,right,1.6191,444.8936,1,0.3,"[1,2,3]",0.367501221,stimuli/card_0_transparent.png,0,4,0,4,0,1,,,,,,,,,,
,,,,5bf4afe0b8e9f800014c9c0b,B,2024-08-21_15h40.23.754,Slot Machine Game,2023.1.3,Win32,59.88023952,,,,,,,,,,,,,,,,,,,,,,,,,,,30,,,,,,,,,,,,,,,,,,5,5,,,446.1947,5,left,0.7074,446.929,0.5,0.3,"[3,1,2]",0.213311047,stimuli/card_0_transparent.png,0,5,0,5,0,1,,,,,,,,,,
,,,,5bf4afe0b8e9f800014c9c0b,B,2024-08-21_15h40.23.754,Slot Machine Game,2023.1.3,Win32,59.88023952,,,,,,,,,,,,,,,,,,,,,,,,,,,130,,,,,,,,,,,,,,,,,,5,5,,,447.7296,6,up,0.6202,448.3634,0.5,0.3,"[3,1,2]",0.304045954,stimuli/card_100_transparent.png,100,6,0,6,0,1,,,,,,,,,,
,,,,5bf4afe0b8e9f800014c9c0b,B,2024-08-21_15h40.23.754,Slot Machine Game,2023.1.3,Win32,59.88023952,,,,,,,,,,,,,,,,,,,,,,,,,,,230,,,,,,,,,,,,,,,,,,5,5,,,449.1643,7,up,1.3233,450.499,0.5,0.3,"[3,1,2]",0.94859051,stimuli/card_100_transparent.png,100,7,0,7,0,1,,,,,,,,,,
,,,,5bf4afe0b8e9f800014c9c0b,B,2024-08-21_15h40.23.754,Slot Machine Game,2023.1.3,Win32,59.88023952,,,,,,,,,,,,,,,,,,,,,,,,,,,330,,,,,,,,,,,,,,,,,,5,5,,,451.2996,8,up,1.11,452.4173,1,0.3,"[3,1,2]",0.28824987,stimuli/card_100_transparent.png,100,8,0,8,0,1,,,,,,,,,,
,,,,5bf4afe0b8e9f800014c9c0b,B,2024-08-21_15h40.23.754,Slot Machine Game,2023.1.3,Win32,59.88023952,,,,,,,,,,,,,,,,,,,,,,,,,,,430,,,,,,,,,,,,,,,,,,5,5,,,453.7185,9,up,0.9179,454.6529,1,0.3,"[3,1,2]",0.912595892,stimuli/card_100_transparent.png,100,9,0,9,0,1,,,,,,,,,,
,,,,5bf4afe0b8e9f800014c9c0b,B,2024-08-21_15h40.23.754,Slot Machine Game,2023.1.3,Win32,59.88023952,,,,,,,,,,,,,,,,,,,,,,,,,,,530,,,,,,,,,,,,,,,,,,5,5,,,455.9537,10,up,0.7018,456.6716,1.5,0.3,"[3,1,2]",0.643065063,stimuli/card_100_transparent.png,100,10,0,10,0,1,,,,,,,,,,
,,,,5bf4afe0b8e9f800014c9c0b,B,2024-08-21_15h40.23.754,Slot Machine Game,2023.1.3,Win32,59.88023952,,,,,,,,,,,,,,,,,,,,,,,,,,,630,,,,,,,,,,,,,,,,,,5,5,,,458.4739,11,up,0.5015,458.991,1.5,0.3,"[3,1,2]",0.369359507,stimuli/card_100_transparent.png,100,11,0,11,0,1,,,,,,,,,,
,,,,5bf4afe0b8e9f800014c9c0b,B,2024-08-21_15h40.23.754,Slot Machine Game,2023.1.3,Win32,59.88023952,,,,,,,,,,,,,,,,,,,,,,,,,,,730,,,,,,,,,,,,,,,,,,5,5,,,460.7926,12,up,0.5179,461.3262,1.5,0.3,"[3,1,2]",0.747526425,stimuli/card_100_transparent.png,100,12,0,12,0,1,,,,,,,,,,
,,,,5bf4afe0b8e9f800014c9c0b,B,2024-08-21_15h40.23.754,Slot Machine Game,2023.1.3,Win32,59.88023952,,,,,,,,,,,,,,,,,,,,,,,,,,,830,,,,,,,,,,,,,,,,,,5,5,,,463.1281,13,up,0.7072,463.8461,1,0.3,"[3,1,2]",0.928566454,stimuli/card_100_transparent.png,100,13,0,13,0,1,,,,,,,,,,
,,,,5bf4afe0b8e9f800014c9c0b,B,2024-08-21_15h40.23.754,Slot Machine Game,2023.1.3,Win32,59.88023952,,,,,,,,,,,,,,,,,,,,,,,,,,,930,,,,,,,,,,,,,,,,,,5,5,,,465.147,14,up,1.2349,466.3979,1,0.3,"[3,1,2]",0.450941921,stimuli/card_100_transparent.png,100,14,0,14,0,1,,,,,,,,,,
,,,,5bf4afe0b8e9f800014c9c0b,B,2024-08-21_15h40.23.754,Slot Machine Game,2023.1.3,Win32,59.88023952,,,,,,,,,,,,,,,,,,,,,,,,,,,,,,,,,,467.6995,,,,,,,,,,,,,,,,,,,,,,,,,,,,,,,"[1120,940,840,750,930]",4,0,4,0,1,,,,
,,,,5bf4afe0b8e9f800014c9c0b,B,2024-08-21_15h40.23.754,Slot Machine Game,2023.1.3,Win32,59.88023952,,,,,,,,,,,,,,,,,,,,,,,,,,,10,,,,,,,,,,,,,,,,,,6,6,"[4,10,15]","[[2,3,1],[1,3,2],[3,2,1]]",472.7404,0,left,0.6856,473.4552,1,0.3,"[2,3,1]",0.468740523,stimuli/card_10_transparent.png,10,0,0,0,0,1,,,,,,,,,,
,,,,5bf4afe0b8e9f800014c9c0b,B,2024-08-21_15h40.23.754,Slot Machine Game,2023.1.3,Win32,59.88023952,,,,,,,,,,,,,,,,,,,,,,,,,,,10,,,,,,,,,,,,,,,,,,6,6,,,474.7566,1,up,0.5933,475.3737,0.5,0.3,"[2,3,1]",0.817954612,stimuli/card_0_transparent.png,0,1,0,1,0,1,,,,,,,,,,
,,,,5bf4afe0b8e9f800014c9c0b,B,2024-08-21_15h40.23.754,Slot Machine Game,2023.1.3,Win32,59.88023952,,,,,,,,,,,,,,,,,,,,,,,,,,,110,,,,,,,,,,,,,,,,,,6,6,,,476.1745,2,right,0.8053,476.9923,1.5,0.3,"[2,3,1]",0.541791738,stimuli/card_100_transparent.png,100,2,0,2,0,1,,,,,,,,,,
,,,,5bf4afe0b8e9f800014c9c0b,B,2024-08-21_15h40.23.754,Slot Machine Game,2023.1.3,Win32,59.88023952,,,,,,,,,,,,,,,,,,,,,,,,,,,210,,,,,,,,,,,,,,,,,,6,6,,,478.7941,3,right,1.6118,480.4292,1,0.3,"[2,3,1]",0.553983041,stimuli/card_100_transparent.png,100,3,0,3,0,1,,,,,,,,,,
,,,,5bf4afe0b8e9f800014c9c0b,B,2024-08-21_15h40.23.754,Slot Machine Game,2023.1.3,Win32,59.88023952,,,,,,,,,,,,,,,,,,,,,,,,,,,220,,,,,,,,,,,,,,,,,,6,6,,,481.7302,4,right,1.443,483.1813,0.5,0.3,"[1,3,2]",0.419421663,stimuli/card_10_transparent.png,10,4,0,4,0,1,,,,,,,,,,
,,,,5bf4afe0b8e9f800014c9c0b,B,2024-08-21_15h40.23.754,Slot Machine Game,2023.1.3,Win32,59.88023952,,,,,,,,,,,,,,,,,,,,,,,,,,,230,,,,,,,,,,,,,,,,,,6,6,,,483.9824,5,right,1.3429,485.334,1,0.3,"[1,3,2]",0.666947096,stimuli/card_10_transparent.png,10,5,0,5,0,1,,,,,,,,,,
,,,,5bf4afe0b8e9f800014c9c0b,B,2024-08-21_15h40.23.754,Slot Machine Game,2023.1.3,Win32,59.88023952,,,,,,,,,,,,,,,,,,,,,,,,,,,330,,,,,,,,,,,,,,,,,,6,6,,,486.6354,6,left,0.686,487.3524,1.5,0.3,"[1,3,2]",0.699594217,stimuli/card_100_transparent.png,100,6,0,6,0,1,,,,,,,,,,
,,,,5bf4afe0b8e9f800014c9c0b,B,2024-08-21_15h40.23.754,Slot Machine Game,2023.1.3,Win32,59.88023952,,,,,,,,,,,,,,,,,,,,,,,,,,,430,,,,,,,,,,,,,,,,,,6,6,,,489.1541,7,left,0.5865,489.7548,0.5,0.3,"[1,3,2]",0.704715492,stimuli/card_100_transparent.png,100,7,0,7,0,1,,,,,,,,,,
,,,,5bf4afe0b8e9f800014c9c0b,B,2024-08-21_15h40.23.754,Slot Machine Game,2023.1.3,Win32,59.88023952,,,,,,,,,,,,,,,,,,,,,,,,,,,530,,,,,,,,,,,,,,,,,,6,6,,,490.5556,8,left,1.2854,491.8571,0.5,0.3,"[1,3,2]",0.979409458,stimuli/card_100_transparent.png,100,8,0,8,0,1,,,,,,,,,,
,,,,5bf4afe0b8e9f800014c9c0b,B,2024-08-21_15h40.23.754,Slot Machine Game,2023.1.3,Win32,59.88023952,,,,,,,,,,,,,,,,,,,,,,,,,,,530,,,,,,,,,,,,,,,,,,6,6,,,492.6574,9,left,1.5069,494.1757,1,0.3,"[1,3,2]",0.062741589,stimuli/card_0_transparent.png,0,9,0,9,0,1,,,,,,,,,,
,,,,5bf4afe0b8e9f800014c9c0b,B,2024-08-21_15h40.23.754,Slot Machine Game,2023.1.3,Win32,59.88023952,,,,,,,,,,,,,,,,,,,,,,,,,,,530,,,,,,,,,,,,,,,,,,6,6,,,495.4772,10,left,1.0405,496.5449,0.5,0.3,"[3,2,1]",0.374774725,stimuli/card_0_transparent.png,0,10,0,10,0,1,,,,,,,,,,
,,,,5bf4afe0b8e9f800014c9c0b,B,2024-08-21_15h40.23.754,Slot Machine Game,2023.1.3,Win32,59.88023952,,,,,,,,,,,,,,,,,,,,,,,,,,,540,,,,,,,,,,,,,,,,,,6,6,,,497.3458,11,up,1.919,499.281,0.5,0.3,"[3,2,1]",0.454468033,stimuli/card_10_transparent.png,10,11,0,11,0,1,,,,,,,,,,
,,,,5bf4afe0b8e9f800014c9c0b,B,2024-08-21_15h40.23.754,Slot Machine Game,2023.1.3,Win32,59.88023952,,,,,,,,,,,,,,,,,,,,,,,,,,,640,,,,,,,,,,,,,,,,,,6,6,,,500.0825,12,right,1.2915,501.3998,1,0.3,"[3,2,1]",0.907495981,stimuli/card_100_transparent.png,100,12,0,12,0,1,,,,,,,,,,
,,,,5bf4afe0b8e9f800014c9c0b,B,2024-08-21_15h40.23.754,Slot Machine Game,2023.1.3,Win32,59.88023952,,,,,,,,,,,,,,,,,,,,,,,,,,,740,,,,,,,,,,,,,,,,,,6,6,,,502.7009,13,right,1.0018,503.7185,1,0.3,"[3,2,1]",0.729370101,stimuli/card_100_transparent.png,100,13,0,13,0,1,,,,,,,,,,
,,,,5bf4afe0b8e9f800014c9c0b,B,2024-08-21_15h40.23.754,Slot Machine Game,2023.1.3,Win32,59.88023952,,,,,,,,,,,,,,,,,,,,,,,,,,,840,,,,,,,,,,,,,,,,,,6,6,,,505.0193,14,right,1.3383,506.371,0.5,0.3,"[3,2,1]",0.702738804,stimuli/card_100_transparent.png,100,14,0,14,0,1,,,,,,,,,,
,,,,5bf4afe0b8e9f800014c9c0b,B,2024-08-21_15h40.23.754,Slot Machine Game,2023.1.3,Win32,59.88023952,,,,,,,,,,,,,,,,,,,,,,,,,,,,,,,,,,507.172,,,,,,,,,,,,,,,,,,,,,,,,,,,,,,,"[1120,940,840,750,930,840]",5,0,5,0,1,,,,
,,,,5bf4afe0b8e9f800014c9c0b,B,2024-08-21_15h40.23.754,Slot Machine Game,2023.1.3,Win32,59.88023952,,,,,,,,,,,,,,,,,,,,,,,,,,,100,,,,,,,,,,,,,,,,,,7,7,"[9,15]","[[1,3,2],[2,3,1]]",512.1964,0,left,0.6277,512.8453,1.5,0.3,"[1,3,2]",0.482517152,stimuli/card_100_transparent.png,100,0,0,0,0,1,,,,,,,,,,
,,,,5bf4afe0b8e9f800014c9c0b,B,2024-08-21_15h40.23.754,Slot Machine Game,2023.1.3,Win32,59.88023952,,,,,,,,,,,,,,,,,,,,,,,,,,,110,,,,,,,,,,,,,,,,,,7,7,,,514.6464,1,left,0.5181,515.1967,0.5,0.3,"[1,3,2]",0.135968937,stimuli/card_10_transparent.png,10,1,0,1,0,1,,,,,,,,,,
,,,,5bf4afe0b8e9f800014c9c0b,B,2024-08-21_15h40.23.754,Slot Machine Game,2023.1.3,Win32,59.88023952,,,,,,,,,,,,,,,,,,,,,,,,,,,110,,,,,,,,,,,,,,,,,,7,7,,,515.9976,2,left,0.7591,516.7647,1,0.3,"[1,3,2]",0.050720983,stimuli/card_0_transparent.png,0,2,0,2,0,1,,,,,,,,,,
,,,,5bf4afe0b8e9f800014c9c0b,B,2024-08-21_15h40.23.754,Slot Machine Game,2023.1.3,Win32,59.88023952,,,,,,,,,,,,,,,,,,,,,,,,,,,110,,,,,,,,,,,,,,,,,,7,7,,,518.0661,3,up,1.4181,519.5011,1,0.3,"[1,3,2]",0.639182801,stimuli/card_0_transparent.png,0,3,0,3,0,1,,,,,,,,,,
,,,,5bf4afe0b8e9f800014c9c0b,B,2024-08-21_15h40.23.754,Slot Machine Game,2023.1.3,Win32,59.88023952,,,,,,,,,,,,,,,,,,,,,,,,,,,120,,,,,,,,,,,,,,,,,,7,7,,,520.8023,4,right,1.2684,522.0867,1,0.3,"[1,3,2]",0.620506242,stimuli/card_10_transparent.png,10,4,0,4,0,1,,,,,,,,,,
,,,,5bf4afe0b8e9f800014c9c0b,B,2024-08-21_15h40.23.754,Slot Machine Game,2023.1.3,Win32,59.88023952,,,,,,,,,,,,,,,,,,,,,,,,,,,220,,,,,,,,,,,,,,,,,,7,7,,,523.3881,5,left,0.9592,524.3553,1.5,0.3,"[1,3,2]",0.739441344,stimuli/card_100_transparent.png,100,5,0,5,0,1,,,,,,,,,,
,,,,5bf4afe0b8e9f800014c9c0b,B,2024-08-21_15h40.23.754,Slot Machine Game,2023.1.3,Win32,59.88023952,,,,,,,,,,,,,,,,,,,,,,,,,,,230,,,,,,,,,,,,,,,,,,7,7,,,526.1576,6,left,0.6346,526.8083,1,0.3,"[1,3,2]",0.14077233,stimuli/card_10_transparent.png,10,6,0,6,0,1,,,,,,,,,,
,,,,5bf4afe0b8e9f800014c9c0b,B,2024-08-21_15h40.23.754,Slot Machine Game,2023.1.3,Win32,59.88023952,,,,,,,,,,,,,,,,,,,,,,,,,,,330,,,,,,,,,,,,,,,,,,7,7,,,528.1093,7,left,0.6873,528.81,1,0.3,"[1,3,2]",0.334669971,stimuli/card_100_transparent.png,100,7,0,7,0,1,,,,,,,,,,
,,,,5bf4afe0b8e9f800014c9c0b,B,2024-08-21_15h40.23.754,Slot Machine Game,2023.1.3,Win32,59.88023952,,,,,,,,,,,,,,,,,,,,,,,,,,,430,,,,,,,,,,,,,,,,,,7,7,,,530.1114,8,left,1.1012,531.2294,1,0.3,"[1,3,2]",0.952130897,stimuli/card_100_transparent.png,100,8,0,8,0,1,,,,,,,,,,
,,,,5bf4afe0b8e9f800014c9c0b,B,2024-08-21_15h40.23.754,Slot Machine Game,2023.1.3,Win32,59.88023952,,,,,,,,,,,,,,,,,,,,,,,,,,,440,,,,,,,,,,,,,,,,,,7,7,,,532.5314,9,left,0.868,533.4319,0.5,0.3,"[2,3,1]",0.659327075,stimuli/card_10_transparent.png,10,9,0,9,0,1,,,,,,,,,,
,,,,5bf4afe0b8e9f800014c9c0b,B,2024-08-21_15h40.23.754,Slot Machine Game,2023.1.3,Win32,59.88023952,,,,,,,,,,,,,,,,,,,,,,,,,,,450,,,,,,,,,,,,,,,,,,7,7,,,534.2331,10,left,1.1629,535.4258,1.5,0.3,"[2,3,1]",0.665952204,stimuli/card_10_transparent.png,10,10,0,10,0,1,,,,,,,,,,
,,,,5bf4afe0b8e9f800014c9c0b,B,2024-08-21_15h40.23.754,Slot Machine Game,2023.1.3,Win32,59.88023952,,,,,,,,,,,,,,,,,,,,,,,,,,,450,,,,,,,,,,,,,,,,,,7,7,,,537.2192,11,right,0.5687,537.8196,1,0.3,"[2,3,1]",0.099360847,stimuli/card_0_transparent.png,0,11,0,11,0,1,,,,,,,,,,
,,,,5bf4afe0b8e9f800014c9c0b,B,2024-08-21_15h40.23.754,Slot Machine Game,2023.1.3,Win32,59.88023952,,,,,,,,,,,,,,,,,,,,,,,,,,,450,,,,,,,,,,,,,,,,,,7,7,,,539.1213,12,up,0.557,539.7049,0.5,0.3,"[2,3,1]",0.832743866,stimuli/card_0_transparent.png,0,12,0,12,0,1,,,,,,,,,,
,,,,5bf4afe0b8e9f800014c9c0b,B,2024-08-21_15h40.23.754,Slot Machine Game,2023.1.3,Win32,59.88023952,,,,,,,,,,,,,,,,,,,,,,,,,,,460,,,,,,,,,,,,,,,,,,7,7,,,540.4955,13,left,0.7899,541.3061,0.5,0.3,"[2,3,1]",0.475597492,stimuli/card_10_transparent.png,10,13,0,13,0,1,,,,,,,,,,
,,,,5bf4afe0b8e9f800014c9c0b,B,2024-08-21_15h40.23.754,Slot Machine Game,2023.1.3,Win32,59.88023952,,,,,,,,,,,,,,,,,,,,,,,,,,,560,,,,,,,,,,,,,,,,,,7,7,,,542.0975,14,right,1.4138,543.5293,0.5,0.3,"[2,3,1]",0.928229988,stimuli/card_100_transparent.png,100,14,0,14,0,1,,,,,,,,,,
,,,,5bf4afe0b8e9f800014c9c0b,B,2024-08-21_15h40.23.754,Slot Machine Game,2023.1.3,Win32,59.88023952,,,,,,,,,,,,,,,,,,,,,,,,,,,,,,,,,,544.3264,,,,,,,,,,,,,,,,,,,,,,,,,,,,,,,"[1120,940,840,750,930,840,560]",6,0,6,0,1,,,,
,,,,5bf4afe0b8e9f800014c9c0b,B,2024-08-21_15h40.23.754,Slot Machine Game,2023.1.3,Win32,59.88023952,,,,,,,,,,,,,,,,,,,,,,,,,,,10,,,,,,,,,,,,,,,,,,8,8,"[11,15]","[[2,1,3],[1,2,3]]",549.3512,0,left,0.7063,550.0817,0.5,0.3,"[2,1,3]",0.441476806,stimuli/card_10_transparent.png,10,0,0,0,0,1,,,,,,,,,,
,,,,5bf4afe0b8e9f800014c9c0b,B,2024-08-21_15h40.23.754,Slot Machine Game,2023.1.3,Win32,59.88023952,,,,,,,,,,,,,,,,,,,,,,,,,,,110,,,,,,,,,,,,,,,,,,8,8,,,550.8824,1,up,0.5868,551.4995,1,0.3,"[2,1,3]",0.807023896,stimuli/card_100_transparent.png,100,1,0,1,0,1,,,,,,,,,,
,,,,5bf4afe0b8e9f800014c9c0b,B,2024-08-21_15h40.23.754,Slot Machine Game,2023.1.3,Win32,59.88023952,,,,,,,,,,,,,,,,,,,,,,,,,,,210,,,,,,,,,,,,,,,,,,8,8,,,552.8008,2,up,0.7538,553.5681,1.5,0.3,"[2,1,3]",0.865586863,stimuli/card_100_transparent.png,100,2,0,2,0,1,,,,,,,,,,
,,,,5bf4afe0b8e9f800014c9c0b,B,2024-08-21_15h40.23.754,Slot Machine Game,2023.1.3,Win32,59.88023952,,,,,,,,,,,,,,,,,,,,,,,,,,,220,,,,,,,,,,,,,,,,,,8,8,,,555.3699,3,up,0.6537,556.0535,1.5,0.3,"[2,1,3]",0.121502519,stimuli/card_10_transparent.png,10,3,0,3,0,1,,,,,,,,,,
,,,,5bf4afe0b8e9f800014c9c0b,B,2024-08-21_15h40.23.754,Slot Machine Game,2023.1.3,Win32,59.88023952,,,,,,,,,,,,,,,,,,,,,,,,,,,230,,,,,,,,,,,,,,,,,,8,8,,,557.856,4,right,0.774,558.64,1.5,0.3,"[2,1,3]",0.13673125,stimuli/card_10_transparent.png,10,4,0,4,0,1,,,,,,,,,,
,,,,5bf4afe0b8e9f800014c9c0b,B,2024-08-21_15h40.23.754,Slot Machine Game,2023.1.3,Win32,59.88023952,,,,,,,,,,,,,,,,,,,,,,,,,,,330,,,,,,,,,,,,,,,,,,8,8,,,560.4421,5,up,0.8357,561.3092,1,0.3,"[2,1,3]",0.531675933,stimuli/card_100_transparent.png,100,5,0,5,0,1,,,,,,,,,,
,,,,5bf4afe0b8e9f800014c9c0b,B,2024-08-21_15h40.23.754,Slot Machine Game,2023.1.3,Win32,59.88023952,,,,,,,,,,,,,,,,,,,,,,,,,,,340,,,,,,,,,,,,,,,,,,8,8,,,562.6111,6,up,0.9875,563.6283,1,0.3,"[2,1,3]",0.199528713,stimuli/card_10_transparent.png,10,6,0,6,0,1,,,,,,,,,,
,,,,5bf4afe0b8e9f800014c9c0b,B,2024-08-21_15h40.23.754,Slot Machine Game,2023.1.3,Win32,59.88023952,,,,,,,,,,,,,,,,,,,,,,,,,,,340,,,,,,,,,,,,,,,,,,8,8,,,564.9298,7,up,0.7555,565.6971,1,0.3,"[2,1,3]",0.005219733,stimuli/card_0_transparent.png,0,7,0,7,0,1,,,,,,,,,,
,,,,5bf4afe0b8e9f800014c9c0b,B,2024-08-21_15h40.23.754,Slot Machine Game,2023.1.3,Win32,59.88023952,,,,,,,,,,,,,,,,,,,,,,,,,,,350,,,,,,,,,,,,,,,,,,8,8,,,566.9984,8,left,0.9275,567.9327,0.5,0.3,"[2,1,3]",0.43542913,stimuli/card_10_transparent.png,10,8,0,8,0,1,,,,,,,,,,
,,,,5bf4afe0b8e9f800014c9c0b,B,2024-08-21_15h40.23.754,Slot Machine Game,2023.1.3,Win32,59.88023952,,,,,,,,,,,,,,,,,,,,,,,,,,,350,,,,,,,,,,,,,,,,,,8,8,,,568.7334,9,right,1.0347,569.7844,1.5,0.3,"[2,1,3]",0.976330098,stimuli/card_0_transparent.png,0,9,0,9,0,1,,,,,,,,,,
,,,,5bf4afe0b8e9f800014c9c0b,B,2024-08-21_15h40.23.754,Slot Machine Game,2023.1.3,Win32,59.88023952,,,,,,,,,,,,,,,,,,,,,,,,,,,360,,,,,,,,,,,,,,,,,,8,8,,,571.5864,10,left,1.2427,572.8541,0.5,0.3,"[2,1,3]",0.776125442,stimuli/card_10_transparent.png,10,10,0,10,0,1,,,,,,,,,,
,,,,5bf4afe0b8e9f800014c9c0b,B,2024-08-21_15h40.23.754,Slot Machine Game,2023.1.3,Win32,59.88023952,,,,,,,,,,,,,,,,,,,,,,,,,,,370,,,,,,,,,,,,,,,,,,8,8,,,573.6549,11,up,0.6712,574.3387,0.5,0.3,"[1,2,3]",0.351607393,stimuli/card_10_transparent.png,10,11,0,11,0,1,,,,,,,,,,
,,,,5bf4afe0b8e9f800014c9c0b,B,2024-08-21_15h40.23.754,Slot Machine Game,2023.1.3,Win32,59.88023952,,,,,,,,,,,,,,,,,,,,,,,,,,,470,,,,,,,,,,,,,,,,,,8,8,,,575.1396,12,up,1.0912,576.2418,1,0.3,"[1,2,3]",0.196620251,stimuli/card_100_transparent.png,100,12,0,12,0,1,,,,,,,,,,
,,,,5bf4afe0b8e9f800014c9c0b,B,2024-08-21_15h40.23.754,Slot Machine Game,2023.1.3,Win32,59.88023952,,,,,,,,,,,,,,,,,,,,,,,,,,,480,,,,,,,,,,,,,,,,,,8,8,,,577.5422,13,up,0.7757,578.327,0.5,0.3,"[1,2,3]",0.589962433,stimuli/card_10_transparent.png,10,13,0,13,0,1,,,,,,,,,,
,,,,5bf4afe0b8e9f800014c9c0b,B,2024-08-21_15h40.23.754,Slot Machine Game,2023.1.3,Win32,59.88023952,,,,,,,,,,,,,,,,,,,,,,,,,,,580,,,,,,,,,,,,,,,,,,8,8,,,579.1269,14,left,1.2379,580.378,1.5,0.3,"[1,2,3]",0.99466378,stimuli/card_100_transparent.png,100,14,0,14,0,1,,,,,,,,,,
,,,,5bf4afe0b8e9f800014c9c0b,B,2024-08-21_15h40.23.754,Slot Machine Game,2023.1.3,Win32,59.88023952,,,,,,,,,,,,,,,,,,,,,,,,,,,,,,,,,,582.1803,,,,,,,,,,,,,,,,,,,,,,,,,,,,,,,"[1120,940,840,750,930,840,560,580]",7,0,7,0,1,,,,
,,,,5bf4afe0b8e9f800014c9c0b,B,2024-08-21_15h40.23.754,Slot Machine Game,2023.1.3,Win32,59.88023952,,,,,,,,,,,,,,,,,,,,,,,,,,,0,,,,,,,,,,,,,,,,,,9,9,"[8,15]","[[3,2,1],[3,1,2]]",587.2049,0,left,0.6027,587.8357,1,0.3,"[3,2,1]",0.520358331,stimuli/card_0_transparent.png,0,0,0,0,0,1,,,,,,,,,,
,,,,5bf4afe0b8e9f800014c9c0b,B,2024-08-21_15h40.23.754,Slot Machine Game,2023.1.3,Win32,59.88023952,,,,,,,,,,,,,,,,,,,,,,,,,,,10,,,,,,,,,,,,,,,,,,9,9,,,589.1372,1,up,1.3015,590.4551,0.5,0.3,"[3,2,1]",0.453328097,stimuli/card_10_transparent.png,10,1,0,1,0,1,,,,,,,,,,
,,,,5bf4afe0b8e9f800014c9c0b,B,2024-08-21_15h40.23.754,Slot Machine Game,2023.1.3,Win32,59.88023952,,,,,,,,,,,,,,,,,,,,,,,,,,,110,,,,,,,,,,,,,,,,,,9,9,,,591.2558,2,right,0.501,591.7899,1,0.3,"[3,2,1]",0.643920487,stimuli/card_100_transparent.png,100,2,0,2,0,1,,,,,,,,,,
,,,,5bf4afe0b8e9f800014c9c0b,B,2024-08-21_15h40.23.754,Slot Machine Game,2023.1.3,Win32,59.88023952,,,,,,,,,,,,,,,,,,,,,,,,,,,120,,,,,,,,,,,,,,,,,,9,9,,,593.0912,3,right,0.8356,593.9586,1.5,0.3,"[3,2,1]",0.146161732,stimuli/card_10_transparent.png,10,3,0,3,0,1,,,,,,,,,,
,,,,5bf4afe0b8e9f800014c9c0b,B,2024-08-21_15h40.23.754,Slot Machine Game,2023.1.3,Win32,59.88023952,,,,,,,,,,,,,,,,,,,,,,,,,,,120,,,,,,,,,,,,,,,,,,9,9,,,595.7603,4,right,0.5409,596.3113,1,0.3,"[3,2,1]",0.092409892,stimuli/card_0_transparent.png,0,4,0,4,0,1,,,,,,,,,,
,,,,5bf4afe0b8e9f800014c9c0b,B,2024-08-21_15h40.23.754,Slot Machine Game,2023.1.3,Win32,59.88023952,,,,,,,,,,,,,,,,,,,,,,,,,,,130,,,,,,,,,,,,,,,,,,9,9,,,597.6119,5,up,0.7704,598.3963,1,0.3,"[3,2,1]",0.540011554,stimuli/card_10_transparent.png,10,5,0,5,0,1,,,,,,,,,,
,,,,5bf4afe0b8e9f800014c9c0b,B,2024-08-21_15h40.23.754,Slot Machine Game,2023.1.3,Win32,59.88023952,,,,,,,,,,,,,,,,,,,,,,,,,,,230,,,,,,,,,,,,,,,,,,9,9,,,599.6977,6,left,0.6016,600.3318,0.5,0.3,"[3,2,1]",0.022017225,stimuli/card_100_transparent.png,100,6,0,6,0,1,,,,,,,,,,
,,,,5bf4afe0b8e9f800014c9c0b,B,2024-08-21_15h40.23.754,Slot Machine Game,2023.1.3,Win32,59.88023952,,,,,,,,,,,,,,,,,,,,,,,,,,,230,,,,,,,,,,,,,,,,,,9,9,,,601.1322,7,left,1.1547,602.3,0.5,0.3,"[3,2,1]",0.477541127,stimuli/card_0_transparent.png,0,7,0,7,0,1,,,,,,,,,,
,,,,5bf4afe0b8e9f800014c9c0b,B,2024-08-21_15h40.23.754,Slot Machine Game,2023.1.3,Win32,59.88023952,,,,,,,,,,,,,,,,,,,,,,,,,,,230,,,,,,,,,,,,,,,,,,9,9,,,603.1013,8,left,1.0882,604.2187,0.5,0.3,"[3,1,2]",0.96435602,stimuli/card_0_transparent.png,0,8,0,8,0,1,,,,,,,,,,
,,,,5bf4afe0b8e9f800014c9c0b,B,2024-08-21_15h40.23.754,Slot Machine Game,2023.1.3,Win32,59.88023952,,,,,,,,,,,,,,,,,,,,,,,,,,,330,,,,,,,,,,,,,,,,,,9,9,,,605.0193,9,up,0.7012,605.738,1.5,0.3,"[3,1,2]",0.417161881,stimuli/card_100_transparent.png,100,9,0,9,0,1,,,,,,,,,,
,,,,5bf4afe0b8e9f800014c9c0b,B,2024-08-21_15h40.23.754,Slot Machine Game,2023.1.3,Win32,59.88023952,,,,,,,,,,,,,,,,,,,,,,,,,,,430,,,,,,,,,,,,,,,,,,9,9,,,607.5388,10,up,1.0407,608.59,0.5,0.3,"[3,1,2]",0.903770649,stimuli/card_100_transparent.png,100,10,0,10,0,1,,,,,,,,,,
,,,,5bf4afe0b8e9f800014c9c0b,B,2024-08-21_15h40.23.754,Slot Machine Game,2023.1.3,Win32,59.88023952,,,,,,,,,,,,,,,,,,,,,,,,,,,530,,,,,,,,,,,,,,,,,,9,9,,,609.3904,11,up,0.9039,610.3081,1,0.3,"[3,1,2]",0.222990215,stimuli/card_100_transparent.png,100,11,0,11,0,1,,,,,,,,,,
,,,,5bf4afe0b8e9f800014c9c0b,B,2024-08-21_15h40.23.754,Slot Machine Game,2023.1.3,Win32,59.88023952,,,,,,,,,,,,,,,,,,,,,,,,,,,630,,,,,,,,,,,,,,,,,,9,9,,,611.6095,12,up,0.5849,612.2103,1,0.3,"[3,1,2]",0.802673757,stimuli/card_100_transparent.png,100,12,0,12,0,1,,,,,,,,,,
,,,,5bf4afe0b8e9f800014c9c0b,B,2024-08-21_15h40.23.754,Slot Machine Game,2023.1.3,Win32,59.88023952,,,,,,,,,,,,,,,,,,,,,,,,,,,730,,,,,,,,,,,,,,,,,,9,9,,,613.5117,13,up,0.5504,614.0784,0.5,0.3,"[3,1,2]",0.615316075,stimuli/card_100_transparent.png,100,13,0,13,0,1,,,,,,,,,,
,,,,5bf4afe0b8e9f800014c9c0b,B,2024-08-21_15h40.23.754,Slot Machine Game,2023.1.3,Win32,59.88023952,,,,,,,,,,,,,,,,,,,,,,,,,,,830,,,,,,,,,,,,,,,,,,9,9,,,614.8796,14,up,0.8648,615.7803,1.5,0.3,"[3,1,2]",0.876826349,stimuli/card_100_transparent.png,100,14,0,14,0,1,,,,,,,,,,
,,,,5bf4afe0b8e9f800014c9c0b,B,2024-08-21_15h40.23.754,Slot Machine Game,2023.1.3,Win32,59.88023952,,,,,,,,,,,,,,,,,,,,,,,,,,,,,,,,,,617.5823,,,,,,,,,,,,,,,,,,,,,,,,,,,,,,,"[1120,940,840,750,930,840,560,580,830]",8,0,8,0,1,,,,
,,,,5bf4afe0b8e9f800014c9c0b,B,2024-08-21_15h40.23.754,Slot Machine Game,2023.1.3,Win32,59.88023952,,,,,,,,,,,,,,,,,,,,,,,,,,,10,,,,,,,,,,,,,,,,,,10,10,"[10,15]","[[3,1,2],[1,3,2]]",622.6059,0,right,1.3513,623.9889,1.5,0.3,"[3,1,2]",0.500831824,stimuli/card_10_transparent.png,10,0,0,0,0,1,,,,,,,,,,
,,,,5bf4afe0b8e9f800014c9c0b,B,2024-08-21_15h40.23.754,Slot Machine Game,2023.1.3,Win32,59.88023952,,,,,,,,,,,,,,,,,,,,,,,,,,,10,,,,,,,,,,,,,,,,,,10,10,,,625.7906,1,left,0.6364,626.4578,1,0.3,"[3,1,2]",0.791702729,stimuli/card_0_transparent.png,0,1,0,1,0,1,,,,,,,,,,
,,,,5bf4afe0b8e9f800014c9c0b,B,2024-08-21_15h40.23.754,Slot Machine Game,2023.1.3,Win32,59.88023952,,,,,,,,,,,,,,,,,,,,,,,,,,,110,,,,,,,,,,,,,,,,,,10,10,,,627.7591,2,up,1.1077,628.8769,0.5,0.3,"[3,1,2]",0.82932557,stimuli/card_100_transparent.png,100,2,0,2,0,1,,,,,,,,,,
,,,,5bf4afe0b8e9f800014c9c0b,B,2024-08-21_15h40.23.754,Slot Machine Game,2023.1.3,Win32,59.88023952,,,,,,,,,,,,,,,,,,,,,,,,,,,210,,,,,,,,,,,,,,,,,,10,10,,,629.6785,3,up,1.0345,630.7455,1.5,0.3,"[3,1,2]",0.20947663,stimuli/card_100_transparent.png,100,3,0,3,0,1,,,,,,,,,,
,,,,5bf4afe0b8e9f800014c9c0b,B,2024-08-21_15h40.23.754,Slot Machine Game,2023.1.3,Win32,59.88023952,,,,,,,,,,,,,,,,,,,,,,,,,,,310,,,,,,,,,,,,,,,,,,10,10,,,632.5476,4,up,0.5343,633.115,0.5,0.3,"[3,1,2]",0.536184425,stimuli/card_100_transparent.png,100,4,0,4,0,1,,,,,,,,,,
,,,,5bf4afe0b8e9f800014c9c0b,B,2024-08-21_15h40.23.754,Slot Machine Game,2023.1.3,Win32,59.88023952,,,,,,,,,,,,,,,,,,,,,,,,,,,320,,,,,,,,,,,,,,,,,,10,10,,,633.916,5,up,0.7051,634.6503,0.5,0.3,"[3,1,2]",0.133808957,stimuli/card_10_transparent.png,10,5,0,5,0,1,,,,,,,,,,
,,,,5bf4afe0b8e9f800014c9c0b,B,2024-08-21_15h40.23.754,Slot Machine Game,2023.1.3,Win32,59.88023952,,,,,,,,,,,,,,,,,,,,,,,,,,,420,,,,,,,,,,,,,,,,,,10,10,,,635.452,6,up,1.2686,636.7517,1.5,0.3,"[3,1,2]",0.333707037,stimuli/card_100_transparent.png,100,6,0,6,0,1,,,,,,,,,,
,,,,5bf4afe0b8e9f800014c9c0b,B,2024-08-21_15h40.23.754,Slot Machine Game,2023.1.3,Win32,59.88023952,,,,,,,,,,,,,,,,,,,,,,,,,,,520,,,,,,,,,,,,,,,,,,10,10,,,638.5534,7,up,0.5543,639.1206,1.5,0.3,"[3,1,2]",0.412606588,stimuli/card_100_transparent.png,100,7,0,7,0,1,,,,,,,,,,
,,,,5bf4afe0b8e9f800014c9c0b,B,2024-08-21_15h40.23.754,Slot Machine Game,2023.1.3,Win32,59.88023952,,,,,,,,,,,,,,,,,,,,,,,,,,,520,,,,,,,,,,,,,,,,,,10,10,,,640.9226,8,up,1.0346,641.9745,1,0.3,"[3,1,2]",0.038716185,stimuli/card_0_transparent.png,0,8,0,8,0,1,,,,,,,,,,
,,,,5bf4afe0b8e9f800014c9c0b,B,2024-08-21_15h40.23.754,Slot Machine Game,2023.1.3,Win32,59.88023952,,,,,,,,,,,,,,,,,,,,,,,,,,,530,,,,,,,,,,,,,,,,,,10,10,,,643.2745,9,right,0.6002,643.8921,1.5,0.3,"[3,1,2]",0.683411394,stimuli/card_10_transparent.png,10,9,0,9,0,1,,,,,,,,,,
,,,,5bf4afe0b8e9f800014c9c0b,B,2024-08-21_15h40.23.754,Slot Machine Game,2023.1.3,Win32,59.88023952,,,,,,,,,,,,,,,,,,,,,,,,,,,530,,,,,,,,,,,,,,,,,,10,10,,,645.6943,10,left,0.5351,646.2459,0.5,0.3,"[1,3,2]",0.038480477,stimuli/card_0_transparent.png,0,10,0,10,0,1,,,,,,,,,,
,,,,5bf4afe0b8e9f800014c9c0b,B,2024-08-21_15h40.23.754,Slot Machine Game,2023.1.3,Win32,59.88023952,,,,,,,,,,,,,,,,,,,,,,,,,,,540,,,,,,,,,,,,,,,,,,10,10,,,647.0448,11,right,0.9347,647.9963,0.5,0.3,"[1,3,2]",0.935696939,stimuli/card_10_transparent.png,10,11,0,11,0,1,,,,,,,,,,
,,,,5bf4afe0b8e9f800014c9c0b,B,2024-08-21_15h40.23.754,Slot Machine Game,2023.1.3,Win32,59.88023952,,,,,,,,,,,,,,,,,,,,,,,,,,,540,,,,,,,,,,,,,,,,,,10,10,,,648.7967,12,up,0.7507,649.5648,1.5,0.3,"[1,3,2]",0.359666645,stimuli/card_0_transparent.png,0,12,0,12,0,1,,,,,,,,,,
,,,,5bf4afe0b8e9f800014c9c0b,B,2024-08-21_15h40.23.754,Slot Machine Game,2023.1.3,Win32,59.88023952,,,,,,,,,,,,,,,,,,,,,,,,,,,640,,,,,,,,,,,,,,,,,,10,10,,,651.3662,13,right,0.527,651.9197,1.5,0.3,"[1,3,2]",0.150290788,stimuli/card_100_transparent.png,100,13,0,13,0,1,,,,,,,,,,
,,,,5bf4afe0b8e9f800014c9c0b,B,2024-08-21_15h40.23.754,Slot Machine Game,2023.1.3,Win32,59.88023952,,,,,,,,,,,,,,,,,,,,,,,,,,,650,,,,,,,,,,,,,,,,,,10,10,,,653.7182,14,right,0.5842,654.3189,0.5,0.3,"[1,3,2]",0.286810776,stimuli/card_10_transparent.png,10,14,0,14,0,1,,,,,,,,,,
,,,,5bf4afe0b8e9f800014c9c0b,B,2024-08-21_15h40.23.754,Slot Machine Game,2023.1.3,Win32,59.88023952,,,,,,,,,,,,,,,,,,,,,,,,,,,,,,,,,,655.1198,,,,,,,,,,,,,,,,,,,,,,,,,,,,,,,"[1120,940,840,750,930,840,560,580,830,650]",9,0,9,0,1,,,,
,,,,5bf4afe0b8e9f800014c9c0b,B,2024-08-21_15h40.23.754,Slot Machine Game,2023.1.3,Win32,59.88023952,,,,,,,,,,,,,,,,,,,,,,,,,,,,,,,,,,,,,,,,,,,,,,,,,,,,,,,,,,,,,,,,,,,,,,,9,"[1120,940,840,750,930,840,560,580,830,650]",7.5,2024-08-21_15h51.28.126
