key_resp_welcome_started,key_resp_welcome_keys,key_resp_welcome_rt,key_resp_welcome_duration,prolific_id,path_id,date,expName,psychopyVersion,OS,frameRate,key_resp_instruction1_started,key_resp_instruction1_keys,key_resp_instruction1_rt,key_resp_instruction1_duration,key_resp_instruction2_started,key_resp_instruction2_keys,key_resp_instruction2_rt,key_resp_instruction2_duration,key_resp_instruction3_started,key_resp_instruction3_keys,key_resp_instruction3_rt,key_resp_instruction3_duration,key_resp_instruction4_started,key_resp_instruction4_keys,key_resp_instruction4_rt,key_resp_instruction4_duration,practiceCondition,practice_reward_seqs,practice_trial_started,practice_trial_num,practice_resp_rt,practice_resp_duration,practice_resp_keys,prac_presentationInterval,"practice_reward_seq: 2,1,3",reward_img,cumulative_reward,trial_reward,practice_trials.thisRepN,practice_trials.thisTrialN,practice_trials.thisN,practice_trials.thisIndex,practice_trials.ran,"practice_reward_seq: 2,3,1",block_break_started,"practice_reward_seq: 1,3,2","practice_reward_seq: 3,1,2",practice_end_time,practice_end_keys,practice_end_rt,practice_end_duration,main_instruction_text_started,block_condition,block_order_indices,main_instruction_keys,main_instruction_rt,main_instruction_duration,block_number,block_assignment,current_condition,main_reward_seqs,main_trial_started,main_trial_num,main_trial_keys,main_trial_rt,main_trial_duration,main_presentationInterval,reward_presentation_time,main_reward_seq,reward_rand_val,main_reward_img,current_reward,main_trials.thisRepN,main_trials.thisTrialN,main_trials.thisN,main_trials.thisIndex,main_trials.ran,block_reward,block.thisRepN,block.thisTrialN,block.thisN,block.thisIndex,block.ran,block_reward.length,block_reward_all,reward_amount,date_end_task
0.0009,space,2.8624,,ember,A,2024-05-08_15h24.53.448,Slot Machine Game,2023.1.3,MacIntel,57.14285714,,,,,,,,,,,,,,,,,,,,,,,,,,,,,,,,,,,,,,,,,,,,,,,,,,,,,,,,,,,,,,,,,,,,,,,,,,,,,
,,,,ember,A,2024-05-08_15h24.53.448,Slot Machine Game,2023.1.3,MacIntel,57.14285714,2.8922,space,1.0633,,,,,,,,,,,,,,,,,,,,,,,,,,,,,,,,,,,,,,,,,,,,,,,,,,,,,,,,,,,,,,,,,,,,,,,,,,
,,,,ember,A,2024-05-08_15h24.53.448,Slot Machine Game,2023.1.3,MacIntel,57.14285714,,,,,3.9762,space,0.571,,,,,,,,,,,,,,,,,,,,,,,,,,,,,,,,,,,,,,,,,,,,,,,,,,,,,,,,,,,,,,,,,,,,,,
,,,,ember,A,2024-05-08_15h24.53.448,Slot Machine Game,2023.1.3,MacIntel,57.14285714,,,,,,,,,4.5768,space,0.5303,,,,,,,,,,,,,,,,,,,,,,,,,,,,,,,,,,,,,,,,,,,,,,,,,,,,,,,,,,,,,,,,,,
,,,,ember,A,2024-05-08_15h24.53.448,Slot Machine Game,2023.1.3,MacIntel,57.14285714,,,,,,,,,,,,,,,,,,,,,,,,,,,,,,,,,,,,,,,,,,,,,,,,,,,,,,,,,,,,,,,,,,,,,,,,,,,,,
,,,,ember,A,2024-05-08_15h24.53.448,Slot Machine Game,2023.1.3,MacIntel,57.14285714,,,,,,,,,,,,,146.7096,space,68.6718,,,,,,,,,,,,,,,,,,,,,,,,,,,,,,,,,,,,,,,,,,,,,,,,,,,,,,,,,,,,,,
,,,,ember,A,2024-05-08_15h24.53.448,Slot Machine Game,2023.1.3,MacIntel,57.14285714,,,,,,,,,,,,,,,,,"[9,15]","[[2,1,3],[2,3,1]]",215.4004,0,3.3625,,left,1,,stimuli/card_10_transparent.png,10,10,0,0,0,0,1,,,,,,,,,,,,,,,,,,,,,,,,,,,,,,,,,,,,,,,,,,,,
,,,,ember,A,2024-05-08_15h24.53.448,Slot Machine Game,2023.1.3,MacIntel,57.14285714,,,,,,,,,,,,,,,,,,,220.5808,1,0.0419,,up,0.5,,stimuli/card_10_transparent.png,20,10,1,0,1,0,1,,,,,,,,,,,,,,,,,,,,,,,,,,,,,,,,,,,,,,,,,,,,
,,,,ember,A,2024-05-08_15h24.53.448,Slot Machine Game,2023.1.3,MacIntel,57.14285714,,,,,,,,,,,,,,,,,,,221.9269,2,0.1771,,right,1.5,,stimuli/card_0_transparent.png,20,0,2,0,2,0,1,,,,,,,,,,,,,,,,,,,,,,,,,,,,,,,,,,,,,,,,,,,,
,,,,ember,A,2024-05-08_15h24.53.448,Slot Machine Game,2023.1.3,MacIntel,57.14285714,,,,,,,,,,,,,,,,,,,224.5242,3,2.9626,,left,1,,stimuli/card_10_transparent.png,30,10,3,0,3,0,1,,,,,,,,,,,,,,,,,,,,,,,,,,,,,,,,,,,,,,,,,,,,
,,,,ember,A,2024-05-08_15h24.53.448,Slot Machine Game,2023.1.3,MacIntel,57.14285714,,,,,,,,,,,,,,,,,,,229.302,4,0.0302,,right,1.5,,stimuli/card_0_transparent.png,30,0,4,0,4,0,1,,,,,,,,,,,,,,,,,,,,,,,,,,,,,,,,,,,,,,,,,,,,
,,,,ember,A,2024-05-08_15h24.53.448,Slot Machine Game,2023.1.3,MacIntel,57.14285714,,,,,,,,,,,,,,,,,,,231.6367,5,0.1231,,up,0.5,,stimuli/card_0_transparent.png,30,0,5,0,5,0,1,,,,,,,,,,,,,,,,,,,,,,,,,,,,,,,,,,,,,,,,,,,,
,,,,ember,A,2024-05-08_15h24.53.448,Slot Machine Game,2023.1.3,MacIntel,57.14285714,,,,,,,,,,,,,,,,,,,233.0717,6,0.0761,,up,0.5,,stimuli/card_100_transparent.png,130,100,6,0,6,0,1,,,,,,,,,,,,,,,,,,,,,,,,,,,,,,,,,,,,,,,,,,,,
,,,,ember,A,2024-05-08_15h24.53.448,Slot Machine Game,2023.1.3,MacIntel,57.14285714,,,,,,,,,,,,,,,,,,,234.5444,7,0.0506,,up,1.5,,stimuli/card_100_transparent.png,230,100,7,0,7,0,1,,,,,,,,,,,,,,,,,,,,,,,,,,,,,,,,,,,,,,,,,,,,
,,,,ember,A,2024-05-08_15h24.53.448,Slot Machine Game,2023.1.3,MacIntel,57.14285714,,,,,,,,,,,,,,,,,,,236.9193,8,0.1624,,up,0.5,,stimuli/card_100_transparent.png,330,100,8,0,8,0,1,,,,,,,,,,,,,,,,,,,,,,,,,,,,,,,,,,,,,,,,,,,,
,,,,ember,A,2024-05-08_15h24.53.448,Slot Machine Game,2023.1.3,MacIntel,57.14285714,,,,,,,,,,,,,,,,,,,238.4205,9,0.0223,,up,1,,stimuli/card_100_transparent.png,430,100,9,0,9,0,1,,,,,,,,,,,,,,,,,,,,,,,,,,,,,,,,,,,,,,,,,,,,
,,,,ember,A,2024-05-08_15h24.53.448,Slot Machine Game,2023.1.3,MacIntel,57.14285714,,,,,,,,,,,,,,,,,,,240.2377,10,0.0757,,up,0.5,,stimuli/card_0_transparent.png,430,0,10,0,10,0,1,,,,,,,,,,,,,,,,,,,,,,,,,,,,,,,,,,,,,,,,,,,,
,,,,ember,A,2024-05-08_15h24.53.448,Slot Machine Game,2023.1.3,MacIntel,57.14285714,,,,,,,,,,,,,,,,,,,241.6254,11,0.0883,,up,0.5,,stimuli/card_0_transparent.png,430,0,11,0,11,0,1,,,,,,,,,,,,,,,,,,,,,,,,,,,,,,,,,,,,,,,,,,,,
,,,,ember,A,2024-05-08_15h24.53.448,Slot Machine Game,2023.1.3,MacIntel,57.14285714,,,,,,,,,,,,,,,,,,,243.0271,12,0.0039,,up,1.5,,stimuli/card_0_transparent.png,430,0,12,0,12,0,1,,,,,,,,,,,,,,,,,,,,,,,,,,,,,,,,,,,,,,,,,,,,
,,,,ember,A,2024-05-08_15h24.53.448,Slot Machine Game,2023.1.3,MacIntel,57.14285714,,,,,,,,,,,,,,,,,,,245.3616,13,0.2863,,right,0.5,,stimuli/card_10_transparent.png,440,10,13,0,13,0,1,,,,,,,,,,,,,,,,,,,,,,,,,,,,,,,,,,,,,,,,,,,,
,,,,ember,A,2024-05-08_15h24.53.448,Slot Machine Game,2023.1.3,MacIntel,57.14285714,,,,,,,,,,,,,,,,,,,246.9789,14,0.0357,,up,1,,stimuli/card_10_transparent.png,450,10,14,0,14,0,1,,,,,,,,,,,,,,,,,,,,,,,,,,,,,,,,,,,,,,,,,,,,
,,,,ember,A,2024-05-08_15h24.53.448,Slot Machine Game,2023.1.3,MacIntel,57.14285714,,,,,,,,,,,,,,,,,"[6,15]","[[1,3,2],[3,1,2]]",253.8183,0,0.4939,,up,1,,stimuli/card_0_transparent.png,0,0,0,0,0,0,1,,248.8184,,,,,,,,,,,,,,,,,,,,,,,,,,,,,,,,,,,,,,,,,,
,,,,ember,A,2024-05-08_15h24.53.448,Slot Machine Game,2023.1.3,MacIntel,57.14285714,,,,,,,,,,,,,,,,,,,256.1424,1,0.067,,up,1,,stimuli/card_0_transparent.png,0,0,1,0,1,0,1,,,,,,,,,,,,,,,,,,,,,,,,,,,,,,,,,,,,,,,,,,,,
,,,,ember,A,2024-05-08_15h24.53.448,Slot Machine Game,2023.1.3,MacIntel,57.14285714,,,,,,,,,,,,,,,,,,,258.0357,2,0.1732,,up,1,,stimuli/card_0_transparent.png,0,0,2,0,2,0,1,,,,,,,,,,,,,,,,,,,,,,,,,,,,,,,,,,,,,,,,,,,,
,,,,ember,A,2024-05-08_15h24.53.448,Slot Machine Game,2023.1.3,MacIntel,57.14285714,,,,,,,,,,,,,,,,,,,260.0367,3,0.1372,,left,1,,stimuli/card_100_transparent.png,100,100,3,0,3,0,1,,,,,,,,,,,,,,,,,,,,,,,,,,,,,,,,,,,,,,,,,,,,
,,,,ember,A,2024-05-08_15h24.53.448,Slot Machine Game,2023.1.3,MacIntel,57.14285714,,,,,,,,,,,,,,,,,,,262.0044,4,0.0723,,left,1,,stimuli/card_100_transparent.png,200,100,4,0,4,0,1,,,,,,,,,,,,,,,,,,,,,,,,,,,,,,,,,,,,,,,,,,,,
,,,,ember,A,2024-05-08_15h24.53.448,Slot Machine Game,2023.1.3,MacIntel,57.14285714,,,,,,,,,,,,,,,,,,,263.908,5,0.1227,,left,1,,stimuli/card_100_transparent.png,300,100,5,0,5,0,1,,,,,,,,,,,,,,,,,,,,,,,,,,,,,,,,,,,,,,,,,,,,
,,,,ember,A,2024-05-08_15h24.53.448,Slot Machine Game,2023.1.3,MacIntel,57.14285714,,,,,,,,,,,,,,,,,,,265.8576,6,0.1389,,left,1,,stimuli/card_0_transparent.png,300,0,6,0,6,0,1,,,,,,,,,,,,,,,,,,,,,,,,,,,,,,,,,,,,,,,,,,,,
,,,,ember,A,2024-05-08_15h24.53.448,Slot Machine Game,2023.1.3,MacIntel,57.14285714,,,,,,,,,,,,,,,,,,,267.8077,7,0.1428,,left,0.5,,stimuli/card_0_transparent.png,300,0,7,0,7,0,1,,,,,,,,,,,,,,,,,,,,,,,,,,,,,,,,,,,,,,,,,,,,
,,,,ember,A,2024-05-08_15h24.53.448,Slot Machine Game,2023.1.3,MacIntel,57.14285714,,,,,,,,,,,,,,,,,,,269.2715,8,0.0682,,left,1,,stimuli/card_0_transparent.png,300,0,8,0,8,0,1,,,,,,,,,,,,,,,,,,,,,,,,,,,,,,,,,,,,,,,,,,,,
,,,,ember,A,2024-05-08_15h24.53.448,Slot Machine Game,2023.1.3,MacIntel,57.14285714,,,,,,,,,,,,,,,,,,,271.1419,9,0.1325,,right,1,,stimuli/card_10_transparent.png,310,10,9,0,9,0,1,,,,,,,,,,,,,,,,,,,,,,,,,,,,,,,,,,,,,,,,,,,,
,,,,ember,A,2024-05-08_15h24.53.448,Slot Machine Game,2023.1.3,MacIntel,57.14285714,,,,,,,,,,,,,,,,,,,273.0945,10,0.1524,,up,0.5,,stimuli/card_100_transparent.png,410,100,10,0,10,0,1,,,,,,,,,,,,,,,,,,,,,,,,,,,,,,,,,,,,,,,,,,,,
,,,,ember,A,2024-05-08_15h24.53.448,Slot Machine Game,2023.1.3,MacIntel,57.14285714,,,,,,,,,,,,,,,,,,,274.5874,11,0.0832,,up,0.5,,stimuli/card_100_transparent.png,510,100,11,0,11,0,1,,,,,,,,,,,,,,,,,,,,,,,,,,,,,,,,,,,,,,,,,,,,
,,,,ember,A,2024-05-08_15h24.53.448,Slot Machine Game,2023.1.3,MacIntel,57.14285714,,,,,,,,,,,,,,,,,,,275.9949,12,0.0147,,up,0.5,,stimuli/card_100_transparent.png,610,100,12,0,12,0,1,,,,,,,,,,,,,,,,,,,,,,,,,,,,,,,,,,,,,,,,,,,,
,,,,ember,A,2024-05-08_15h24.53.448,Slot Machine Game,2023.1.3,MacIntel,57.14285714,,,,,,,,,,,,,,,,,,,277.3349,13,0.0387,,up,1.5,,stimuli/card_100_transparent.png,710,100,13,0,13,0,1,,,,,,,,,,,,,,,,,,,,,,,,,,,,,,,,,,,,,,,,,,,,
,,,,ember,A,2024-05-08_15h24.53.448,Slot Machine Game,2023.1.3,MacIntel,57.14285714,,,,,,,,,,,,,,,,,,,279.699,14,0.077,,up,0.5,,stimuli/card_100_transparent.png,810,100,14,0,14,0,1,,,,,,,,,,,,,,,,,,,,,,,,,,,,,,,,,,,,,,,,,,,,
,,,,ember,A,2024-05-08_15h24.53.448,Slot Machine Game,2023.1.3,MacIntel,57.14285714,,,,,,,,,,,,,,,,,,,,,,,,,,,,,,,,,,,281.0822,,,286.085,space,1.0233,,,,,,,,,,,,,,,,,,,,,,,,,,,,,,,,,,,,,
,,,,ember,A,2024-05-08_15h24.53.448,Slot Machine Game,2023.1.3,MacIntel,57.14285714,,,,,,,,,,,,,,,,,,,,,,,,,,,,,,,,,,,,,,,,,,287.1359,3,"[0,4,6,3,5,7,8,1,9,2]",space,0.4786,,,,,,,,,,,,,,,,,,,,,,,,,,,,,,,
,,,,ember,A,2024-05-08_15h24.53.448,Slot Machine Game,2023.1.3,MacIntel,57.14285714,,,,,,,,,,,,,,,,,,,,,,,,,,,100,,,,,,,,,,,,,,,,,,,,,1,1,"[12,15]","[[2,1,3],[2,3,1]]",287.6547,0,up,1.4421,,1,0.3,"[2,1,3]",0.800827096,stimuli/card_100_transparent.png,100,0,0,0,0,1,,,,,,,,,,
,,,,ember,A,2024-05-08_15h24.53.448,Slot Machine Game,2023.1.3,MacIntel,57.14285714,,,,,,,,,,,,,,,,,,,,,,,,,,,200,,,,,,,,,,,,,,,,,,,,,1,1,,,290.9542,1,up,0.1004,,1,0.3,"[2,1,3]",0.721570203,stimuli/card_100_transparent.png,100,1,0,1,0,1,,,,,,,,,,
,,,,ember,A,2024-05-08_15h24.53.448,Slot Machine Game,2023.1.3,MacIntel,57.14285714,,,,,,,,,,,,,,,,,,,,,,,,,,,300,,,,,,,,,,,,,,,,,,,,,1,1,,,292.8904,2,up,0.0934,,1.5,0.3,"[2,1,3]",0.848026258,stimuli/card_100_transparent.png,100,2,0,2,0,1,,,,,,,,,,
,,,,ember,A,2024-05-08_15h24.53.448,Slot Machine Game,2023.1.3,MacIntel,57.14285714,,,,,,,,,,,,,,,,,,,,,,,,,,,310,,,,,,,,,,,,,,,,,,,,,1,1,,,295.2848,3,up,0.0905,,1.5,0.3,"[2,1,3]",0.172216779,stimuli/card_10_transparent.png,10,3,0,3,0,1,,,,,,,,,,
,,,,ember,A,2024-05-08_15h24.53.448,Slot Machine Game,2023.1.3,MacIntel,57.14285714,,,,,,,,,,,,,,,,,,,,,,,,,,,410,,,,,,,,,,,,,,,,,,,,,1,1,,,297.6927,4,up,0.0367,,1,0.3,"[2,1,3]",0.885042464,stimuli/card_100_transparent.png,100,4,0,4,0,1,,,,,,,,,,
,,,,ember,A,2024-05-08_15h24.53.448,Slot Machine Game,2023.1.3,MacIntel,57.14285714,,,,,,,,,,,,,,,,,,,,,,,,,,,510,,,,,,,,,,,,,,,,,,,,,1,1,,,299.5548,5,up,0.014,,0.5,0.3,"[2,1,3]",0.593047314,stimuli/card_100_transparent.png,100,5,0,5,0,1,,,,,,,,,,
,,,,ember,A,2024-05-08_15h24.53.448,Slot Machine Game,2023.1.3,MacIntel,57.14285714,,,,,,,,,,,,,,,,,,,,,,,,,,,610,,,,,,,,,,,,,,,,,,,,,1,1,,,300.8764,6,up,0.0402,,0.5,0.3,"[2,1,3]",0.892346891,stimuli/card_100_transparent.png,100,6,0,6,0,1,,,,,,,,,,
,,,,ember,A,2024-05-08_15h24.53.448,Slot Machine Game,2023.1.3,MacIntel,57.14285714,,,,,,,,,,,,,,,,,,,,,,,,,,,710,,,,,,,,,,,,,,,,,,,,,1,1,,,302.227,7,up,0.0179,,1.5,0.3,"[2,1,3]",0.641484207,stimuli/card_100_transparent.png,100,7,0,7,0,1,,,,,,,,,,
,,,,ember,A,2024-05-08_15h24.53.448,Slot Machine Game,2023.1.3,MacIntel,57.14285714,,,,,,,,,,,,,,,,,,,,,,,,,,,810,,,,,,,,,,,,,,,,,,,,,1,1,,,304.495,8,up,0.0504,,0.5,0.3,"[2,1,3]",0.735759286,stimuli/card_100_transparent.png,100,8,0,8,0,1,,,,,,,,,,
,,,,ember,A,2024-05-08_15h24.53.448,Slot Machine Game,2023.1.3,MacIntel,57.14285714,,,,,,,,,,,,,,,,,,,,,,,,,,,910,,,,,,,,,,,,,,,,,,,,,1,1,,,305.8784,9,up,0.1222,,0.5,0.3,"[2,1,3]",0.804431584,stimuli/card_100_transparent.png,100,9,0,9,0,1,,,,,,,,,,
,,,,ember,A,2024-05-08_15h24.53.448,Slot Machine Game,2023.1.3,MacIntel,57.14285714,,,,,,,,,,,,,,,,,,,,,,,,,,,,,,,,,,,,,,,,,,,,,,,,1,1,,,307.3325,10,,,,0.5,0.3,,,,,10,0,10,0,1,,,,,,,,,,
,,,,ember,A,2024-05-08_15h24.53.448,Slot Machine Game,2023.1.3,MacIntel,57.14285714,,,,,,,,,,,,,,,,,,,,,,,,,,,1010,,,,,,,,,,,,,,,,,,,,,1,1,,,312.8514,11,up,0.0005,,1,0.3,"[2,1,3]",0.517882612,stimuli/card_100_transparent.png,100,11,0,11,0,1,,,,,,,,,,
,,,,ember,A,2024-05-08_15h24.53.448,Slot Machine Game,2023.1.3,MacIntel,57.14285714,,,,,,,,,,,,,,,,,,,,,,,,,,,1020,,,,,,,,,,,,,,,,,,,,,1,1,,,314.6832,12,left,0.0481,,1,0.3,"[2,3,1]",0.685636704,stimuli/card_10_transparent.png,10,12,0,12,0,1,,,,,,,,,,
,,,,ember,A,2024-05-08_15h24.53.448,Slot Machine Game,2023.1.3,MacIntel,57.14285714,,,,,,,,,,,,,,,,,,,,,,,,,,,1030,,,,,,,,,,,,,,,,,,,,,1,1,,,316.5518,13,left,0.0162,,1,0.3,"[2,3,1]",0.991450413,stimuli/card_10_transparent.png,10,13,0,13,0,1,,,,,,,,,,
,,,,ember,A,2024-05-08_15h24.53.448,Slot Machine Game,2023.1.3,MacIntel,57.14285714,,,,,,,,,,,,,,,,,,,,,,,,,,,1040,,,,,,,,,,,,,,,,,,,,,1,1,,,318.4028,14,left,0.0235,,1,0.3,"[2,3,1]",0.536963947,stimuli/card_10_transparent.png,10,14,0,14,0,1,,,,,,,,,,
,,,,ember,A,2024-05-08_15h24.53.448,Slot Machine Game,2023.1.3,MacIntel,57.14285714,,,,,,,,,,,,,,,,,,,,,,,,,,,,,,,,,,,320.254,,,,,,,,,,,,,,,,,,,,,,,,,,,,,,,,,[1040],0,0,0,0,1,,,,
,,,,ember,A,2024-05-08_15h24.53.448,Slot Machine Game,2023.1.3,MacIntel,57.14285714,,,,,,,,,,,,,,,,,,,,,,,,,,,100,,,,,,,,,,,,,,,,,,,,,2,5,"[5,15]","[[1,2,3],[3,1,2]]",325.2583,0,left,0.1678,,1.5,0.3,"[1,2,3]",0.653215141,stimuli/card_100_transparent.png,100,0,0,0,0,1,,,,,,,,,,
,,,,ember,A,2024-05-08_15h24.53.448,Slot Machine Game,2023.1.3,MacIntel,57.14285714,,,,,,,,,,,,,,,,,,,,,,,,,,,200,,,,,,,,,,,,,,,,,,,,,2,5,,,327.7577,1,left,0.0144,,0.5,0.3,"[1,2,3]",0.320789078,stimuli/card_100_transparent.png,100,1,0,1,0,1,,,,,,,,,,
,,,,ember,A,2024-05-08_15h24.53.448,Slot Machine Game,2023.1.3,MacIntel,57.14285714,,,,,,,,,,,,,,,,,,,,,,,,,,,300,,,,,,,,,,,,,,,,,,,,,2,5,,,329.0752,2,left,0.0626,,1.5,0.3,"[1,2,3]",0.561473177,stimuli/card_100_transparent.png,100,2,0,2,0,1,,,,,,,,,,
,,,,ember,A,2024-05-08_15h24.53.448,Slot Machine Game,2023.1.3,MacIntel,57.14285714,,,,,,,,,,,,,,,,,,,,,,,,,,,300,,,,,,,,,,,,,,,,,,,,,2,5,,,331.46,3,right,0.1017,,1,0.3,"[1,2,3]",0.725421462,stimuli/card_0_transparent.png,0,3,0,3,0,1,,,,,,,,,,
,,,,ember,A,2024-05-08_15h24.53.448,Slot Machine Game,2023.1.3,MacIntel,57.14285714,,,,,,,,,,,,,,,,,,,,,,,,,,,310,,,,,,,,,,,,,,,,,,,,,2,5,,,333.3771,4,right,0.1005,,1,0.3,"[1,2,3]",0.180441742,stimuli/card_10_transparent.png,10,4,0,4,0,1,,,,,,,,,,
,,,,ember,A,2024-05-08_15h24.53.448,Slot Machine Game,2023.1.3,MacIntel,57.14285714,,,,,,,,,,,,,,,,,,,,,,,,,,,310,,,,,,,,,,,,,,,,,,,,,2,5,,,335.2948,5,right,0.0459,,1.5,0.3,"[3,1,2]",0.040681106,stimuli/card_0_transparent.png,0,5,0,5,0,1,,,,,,,,,,
,,,,ember,A,2024-05-08_15h24.53.448,Slot Machine Game,2023.1.3,MacIntel,57.14285714,,,,,,,,,,,,,,,,,,,,,,,,,,,320,,,,,,,,,,,,,,,,,,,,,2,5,,,337.6487,6,right,0.0926,,1,0.3,"[3,1,2]",0.853462894,stimuli/card_10_transparent.png,10,6,0,6,0,1,,,,,,,,,,
,,,,ember,A,2024-05-08_15h24.53.448,Slot Machine Game,2023.1.3,MacIntel,57.14285714,,,,,,,,,,,,,,,,,,,,,,,,,,,330,,,,,,,,,,,,,,,,,,,,,2,5,,,339.5487,7,right,0.0083,,0.5,0.3,"[3,1,2]",0.86261955,stimuli/card_10_transparent.png,10,7,0,7,0,1,,,,,,,,,,
,,,,ember,A,2024-05-08_15h24.53.448,Slot Machine Game,2023.1.3,MacIntel,57.14285714,,,,,,,,,,,,,,,,,,,,,,,,,,,340,,,,,,,,,,,,,,,,,,,,,2,5,,,341.384,8,right,0.067,,1.5,0.3,"[3,1,2]",0.35065761,stimuli/card_10_transparent.png,10,8,0,8,0,1,,,,,,,,,,
,,,,ember,A,2024-05-08_15h24.53.448,Slot Machine Game,2023.1.3,MacIntel,57.14285714,,,,,,,,,,,,,,,,,,,,,,,,,,,350,,,,,,,,,,,,,,,,,,,,,2,5,,,343.7833,9,right,0.0005,,0.5,0.3,"[3,1,2]",0.230278516,stimuli/card_10_transparent.png,10,9,0,9,0,1,,,,,,,,,,
,,,,ember,A,2024-05-08_15h24.53.448,Slot Machine Game,2023.1.3,MacIntel,57.14285714,,,,,,,,,,,,,,,,,,,,,,,,,,,360,,,,,,,,,,,,,,,,,,,,,2,5,,,345.117,10,right,0.2014,,0.5,0.3,"[3,1,2]",0.616783706,stimuli/card_10_transparent.png,10,10,0,10,0,1,,,,,,,,,,
,,,,ember,A,2024-05-08_15h24.53.448,Slot Machine Game,2023.1.3,MacIntel,57.14285714,,,,,,,,,,,,,,,,,,,,,,,,,,,370,,,,,,,,,,,,,,,,,,,,,2,5,,,346.6344,11,right,0.9618,,0.5,0.3,"[3,1,2]",0.241160937,stimuli/card_10_transparent.png,10,11,0,11,0,1,,,,,,,,,,
,,,,ember,A,2024-05-08_15h24.53.448,Slot Machine Game,2023.1.3,MacIntel,57.14285714,,,,,,,,,,,,,,,,,,,,,,,,,,,380,,,,,,,,,,,,,,,,,,,,,2,5,,,348.9032,12,right,0.1156,,1,0.3,"[3,1,2]",0.467836589,stimuli/card_10_transparent.png,10,12,0,12,0,1,,,,,,,,,,
,,,,ember,A,2024-05-08_15h24.53.448,Slot Machine Game,2023.1.3,MacIntel,57.14285714,,,,,,,,,,,,,,,,,,,,,,,,,,,390,,,,,,,,,,,,,,,,,,,,,2,5,,,350.8367,13,right,0.0259,,1.5,0.3,"[3,1,2]",0.82244973,stimuli/card_10_transparent.png,10,13,0,13,0,1,,,,,,,,,,
,,,,ember,A,2024-05-08_15h24.53.448,Slot Machine Game,2023.1.3,MacIntel,57.14285714,,,,,,,,,,,,,,,,,,,,,,,,,,,400,,,,,,,,,,,,,,,,,,,,,2,5,,,353.1569,14,right,0.0582,,1.5,0.3,"[3,1,2]",0.759751438,stimuli/card_10_transparent.png,10,14,0,14,0,1,,,,,,,,,,
,,,,ember,A,2024-05-08_15h24.53.448,Slot Machine Game,2023.1.3,MacIntel,57.14285714,,,,,,,,,,,,,,,,,,,,,,,,,,,,,,,,,,,355.5245,,,,,,,,,,,,,,,,,,,,,,,,,,,,,,,,,"[1040,400]",1,0,1,0,1,,,,
,,,,ember,A,2024-05-08_15h24.53.448,Slot Machine Game,2023.1.3,MacIntel,57.14285714,,,,,,,,,,,,,,,,,,,,,,,,,,,10,,,,,,,,,,,,,,,,,,,,,3,7,"[9,15]","[[1,3,2],[2,3,1]]",360.5285,0,right,0.2893,,0.5,0.3,"[1,3,2]",0.680424376,stimuli/card_10_transparent.png,10,0,0,0,0,1,,,,,,,,,,
,,,,ember,A,2024-05-08_15h24.53.448,Slot Machine Game,2023.1.3,MacIntel,57.14285714,,,,,,,,,,,,,,,,,,,,,,,,,,,20,,,,,,,,,,,,,,,,,,,,,3,7,,,362.2607,1,right,0.1483,,1.5,0.3,"[1,3,2]",0.802616201,stimuli/card_10_transparent.png,10,1,0,1,0,1,,,,,,,,,,
,,,,ember,A,2024-05-08_15h24.53.448,Slot Machine Game,2023.1.3,MacIntel,57.14285714,,,,,,,,,,,,,,,,,,,,,,,,,,,30,,,,,,,,,,,,,,,,,,,,,3,7,,,364.7449,2,right,0.0281,,0.5,0.3,"[1,3,2]",0.22630751,stimuli/card_10_transparent.png,10,2,0,2,0,1,,,,,,,,,,
,,,,ember,A,2024-05-08_15h24.53.448,Slot Machine Game,2023.1.3,MacIntel,57.14285714,,,,,,,,,,,,,,,,,,,,,,,,,,,30,,,,,,,,,,,,,,,,,,,,,3,7,,,366.0792,3,right,0.0672,,1.5,0.3,"[1,3,2]",0.072303076,stimuli/card_0_transparent.png,0,3,0,3,0,1,,,,,,,,,,
,,,,ember,A,2024-05-08_15h24.53.448,Slot Machine Game,2023.1.3,MacIntel,57.14285714,,,,,,,,,,,,,,,,,,,,,,,,,,,40,,,,,,,,,,,,,,,,,,,,,3,7,,,368.482,4,right,0.2005,,0.5,0.3,"[1,3,2]",0.501406633,stimuli/card_10_transparent.png,10,4,0,4,0,1,,,,,,,,,,
,,,,ember,A,2024-05-08_15h24.53.448,Slot Machine Game,2023.1.3,MacIntel,57.14285714,,,,,,,,,,,,,,,,,,,,,,,,,,,50,,,,,,,,,,,,,,,,,,,,,3,7,,,370.0115,5,right,0.0055,,1,0.3,"[1,3,2]",0.592167769,stimuli/card_10_transparent.png,10,5,0,5,0,1,,,,,,,,,,
,,,,ember,A,2024-05-08_15h24.53.448,Slot Machine Game,2023.1.3,MacIntel,57.14285714,,,,,,,,,,,,,,,,,,,,,,,,,,,60,,,,,,,,,,,,,,,,,,,,,3,7,,,371.8323,6,right,0.1938,,0.5,0.3,"[1,3,2]",0.528942253,stimuli/card_10_transparent.png,10,6,0,6,0,1,,,,,,,,,,
,,,,ember,A,2024-05-08_15h24.53.448,Slot Machine Game,2023.1.3,MacIntel,57.14285714,,,,,,,,,,,,,,,,,,,,,,,,,,,160,,,,,,,,,,,,,,,,,,,,,3,7,,,373.3497,7,right,0.0676,,1.5,0.3,"[1,3,2]",0.119482671,stimuli/card_100_transparent.png,100,7,0,7,0,1,,,,,,,,,,
,,,,ember,A,2024-05-08_15h24.53.448,Slot Machine Game,2023.1.3,MacIntel,57.14285714,,,,,,,,,,,,,,,,,,,,,,,,,,,170,,,,,,,,,,,,,,,,,,,,,3,7,,,375.7517,8,right,0.1124,,0.5,0.3,"[1,3,2]",0.543497636,stimuli/card_10_transparent.png,10,8,0,8,0,1,,,,,,,,,,
,,,,ember,A,2024-05-08_15h24.53.448,Slot Machine Game,2023.1.3,MacIntel,57.14285714,,,,,,,,,,,,,,,,,,,,,,,,,,,270,,,,,,,,,,,,,,,,,,,,,3,7,,,377.185,9,right,1.9876,,1.5,0.3,"[2,3,1]",0.906903581,stimuli/card_100_transparent.png,100,9,0,9,0,1,,,,,,,,,,
,,,,ember,A,2024-05-08_15h24.53.448,Slot Machine Game,2023.1.3,MacIntel,57.14285714,,,,,,,,,,,,,,,,,,,,,,,,,,,280,,,,,,,,,,,,,,,,,,,,,3,7,,,381.5377,10,right,0.681,,0.5,0.3,"[2,3,1]",0.196532594,stimuli/card_10_transparent.png,10,10,0,10,0,1,,,,,,,,,,
,,,,ember,A,2024-05-08_15h24.53.448,Slot Machine Game,2023.1.3,MacIntel,57.14285714,,,,,,,,,,,,,,,,,,,,,,,,,,,280,,,,,,,,,,,,,,,,,,,,,3,7,,,383.5248,11,right,0.1342,,0.5,0.3,"[2,3,1]",0.088018665,stimuli/card_0_transparent.png,0,11,0,11,0,1,,,,,,,,,,
,,,,ember,A,2024-05-08_15h24.53.448,Slot Machine Game,2023.1.3,MacIntel,57.14285714,,,,,,,,,,,,,,,,,,,,,,,,,,,380,,,,,,,,,,,,,,,,,,,,,3,7,,,384.9919,12,right,0.0504,,0.5,0.3,"[2,3,1]",0.645501582,stimuli/card_100_transparent.png,100,12,0,12,0,1,,,,,,,,,,
,,,,ember,A,2024-05-08_15h24.53.448,Slot Machine Game,2023.1.3,MacIntel,57.14285714,,,,,,,,,,,,,,,,,,,,,,,,,,,480,,,,,,,,,,,,,,,,,,,,,3,7,,,386.3739,13,right,0.0384,,0.5,0.3,"[2,3,1]",0.40666854,stimuli/card_100_transparent.png,100,13,0,13,0,1,,,,,,,,,,
,,,,ember,A,2024-05-08_15h24.53.448,Slot Machine Game,2023.1.3,MacIntel,57.14285714,,,,,,,,,,,,,,,,,,,,,,,,,,,580,,,,,,,,,,,,,,,,,,,,,3,7,,,387.7243,14,right,0.1758,,1.5,0.3,"[2,3,1]",0.524286764,stimuli/card_100_transparent.png,100,14,0,14,0,1,,,,,,,,,,
,,,,ember,A,2024-05-08_15h24.53.448,Slot Machine Game,2023.1.3,MacIntel,57.14285714,,,,,,,,,,,,,,,,,,,,,,,,,,,,,,,,,,,390.2261,,,,,,,,,,,,,,,,,,,,,,,,,,,,,,,,,"[1040,400,580]",2,0,2,0,1,,,,
,,,,ember,A,2024-05-08_15h24.53.448,Slot Machine Game,2023.1.3,MacIntel,57.14285714,,,,,,,,,,,,,,,,,,,,,,,,,,,100,,,,,,,,,,,,,,,,,,,,,4,4,"[7,15]","[[2,3,1],[1,2,3]]",395.2302,0,right,1.2421,,1,0.3,"[2,3,1]",0.594122841,stimuli/card_100_transparent.png,100,0,0,0,0,1,,,,,,,,,,
,,,,ember,A,2024-05-08_15h24.53.448,Slot Machine Game,2023.1.3,MacIntel,57.14285714,,,,,,,,,,,,,,,,,,,,,,,,,,,200,,,,,,,,,,,,,,,,,,,,,4,4,,,398.2995,1,right,0.1683,,1.5,0.3,"[2,3,1]",0.284737132,stimuli/card_100_transparent.png,100,1,0,1,0,1,,,,,,,,,,
,,,,ember,A,2024-05-08_15h24.53.448,Slot Machine Game,2023.1.3,MacIntel,57.14285714,,,,,,,,,,,,,,,,,,,,,,,,,,,300,,,,,,,,,,,,,,,,,,,,,4,4,,,400.7827,2,right,0.0689,,1.5,0.3,"[2,3,1]",0.235588731,stimuli/card_100_transparent.png,100,2,0,2,0,1,,,,,,,,,,
,,,,ember,A,2024-05-08_15h24.53.448,Slot Machine Game,2023.1.3,MacIntel,57.14285714,,,,,,,,,,,,,,,,,,,,,,,,,,,310,,,,,,,,,,,,,,,,,,,,,4,4,,,403.1668,3,left,2.5146,,1.5,0.3,"[2,3,1]",0.748373413,stimuli/card_10_transparent.png,10,3,0,3,0,1,,,,,,,,,,
,,,,ember,A,2024-05-08_15h24.53.448,Slot Machine Game,2023.1.3,MacIntel,57.14285714,,,,,,,,,,,,,,,,,,,,,,,,,,,310,,,,,,,,,,,,,,,,,,,,,4,4,,,407.987,4,up,0.0108,,1.5,0.3,"[2,3,1]",0.958808255,stimuli/card_0_transparent.png,0,4,0,4,0,1,,,,,,,,,,
,,,,ember,A,2024-05-08_15h24.53.448,Slot Machine Game,2023.1.3,MacIntel,57.14285714,,,,,,,,,,,,,,,,,,,,,,,,,,,310,,,,,,,,,,,,,,,,,,,,,4,4,,,410.3209,5,up,0.0465,,0.5,0.3,"[2,3,1]",0.472072187,stimuli/card_0_transparent.png,0,5,0,5,0,1,,,,,,,,,,
,,,,ember,A,2024-05-08_15h24.53.448,Slot Machine Game,2023.1.3,MacIntel,57.14285714,,,,,,,,,,,,,,,,,,,,,,,,,,,410,,,,,,,,,,,,,,,,,,,,,4,4,,,411.6749,6,up,0.1092,,0.5,0.3,"[2,3,1]",0.087146448,stimuli/card_100_transparent.png,100,6,0,6,0,1,,,,,,,,,,
,,,,ember,A,2024-05-08_15h24.53.448,Slot Machine Game,2023.1.3,MacIntel,57.14285714,,,,,,,,,,,,,,,,,,,,,,,,,,,410,,,,,,,,,,,,,,,,,,,,,4,4,,,413.0962,7,up,0.1104,,1.5,0.3,"[1,2,3]",0.092013207,stimuli/card_0_transparent.png,0,7,0,7,0,1,,,,,,,,,,
,,,,ember,A,2024-05-08_15h24.53.448,Slot Machine Game,2023.1.3,MacIntel,57.14285714,,,,,,,,,,,,,,,,,,,,,,,,,,,420,,,,,,,,,,,,,,,,,,,,,4,4,,,415.5252,8,up,0.0943,,1,0.3,"[1,2,3]",0.693294977,stimuli/card_10_transparent.png,10,8,0,8,0,1,,,,,,,,,,
,,,,ember,A,2024-05-08_15h24.53.448,Slot Machine Game,2023.1.3,MacIntel,57.14285714,,,,,,,,,,,,,,,,,,,,,,,,,,,430,,,,,,,,,,,,,,,,,,,,,4,4,,,417.4411,9,up,0.0435,,0.5,0.3,"[1,2,3]",0.386490559,stimuli/card_10_transparent.png,10,9,0,9,0,1,,,,,,,,,,
,,,,ember,A,2024-05-08_15h24.53.448,Slot Machine Game,2023.1.3,MacIntel,57.14285714,,,,,,,,,,,,,,,,,,,,,,,,,,,440,,,,,,,,,,,,,,,,,,,,,4,4,,,418.7919,10,up,0.2983,,1,0.3,"[1,2,3]",0.409344738,stimuli/card_10_transparent.png,10,10,0,10,0,1,,,,,,,,,,
,,,,ember,A,2024-05-08_15h24.53.448,Slot Machine Game,2023.1.3,MacIntel,57.14285714,,,,,,,,,,,,,,,,,,,,,,,,,,,450,,,,,,,,,,,,,,,,,,,,,4,4,,,420.9095,11,up,0.088,,0.5,0.3,"[1,2,3]",0.250165717,stimuli/card_10_transparent.png,10,11,0,11,0,1,,,,,,,,,,
,,,,ember,A,2024-05-08_15h24.53.448,Slot Machine Game,2023.1.3,MacIntel,57.14285714,,,,,,,,,,,,,,,,,,,,,,,,,,,450,,,,,,,,,,,,,,,,,,,,,4,4,,,422.3114,12,up,0.0474,,0.5,0.3,"[1,2,3]",0.023868923,stimuli/card_0_transparent.png,0,12,0,12,0,1,,,,,,,,,,
,,,,ember,A,2024-05-08_15h24.53.448,Slot Machine Game,2023.1.3,MacIntel,57.14285714,,,,,,,,,,,,,,,,,,,,,,,,,,,460,,,,,,,,,,,,,,,,,,,,,4,4,,,423.6622,13,up,0.1205,,1.5,0.3,"[1,2,3]",0.738585522,stimuli/card_10_transparent.png,10,13,0,13,0,1,,,,,,,,,,
,,,,ember,A,2024-05-08_15h24.53.448,Slot Machine Game,2023.1.3,MacIntel,57.14285714,,,,,,,,,,,,,,,,,,,,,,,,,,,470,,,,,,,,,,,,,,,,,,,,,4,4,,,426.1157,14,up,0.0834,,0.5,0.3,"[1,2,3]",0.482176161,stimuli/card_10_transparent.png,10,14,0,14,0,1,,,,,,,,,,
,,,,ember,A,2024-05-08_15h24.53.448,Slot Machine Game,2023.1.3,MacIntel,57.14285714,,,,,,,,,,,,,,,,,,,,,,,,,,,,,,,,,,,427.5325,,,,,,,,,,,,,,,,,,,,,,,,,,,,,,,,,"[1040,400,580,470]",3,0,3,0,1,,,,
,,,,ember,A,2024-05-08_15h24.53.448,Slot Machine Game,2023.1.3,MacIntel,57.14285714,,,,,,,,,,,,,,,,,,,,,,,,,,,0,,,,,,,,,,,,,,,,,,,,,5,6,"[4,10,15]","[[2,3,1],[1,3,2],[3,2,1]]",432.5349,0,up,0.0877,,0.5,0.3,"[2,3,1]",0.449707783,stimuli/card_0_transparent.png,0,0,0,0,0,1,,,,,,,,,,
,,,,ember,A,2024-05-08_15h24.53.448,Slot Machine Game,2023.1.3,MacIntel,57.14285714,,,,,,,,,,,,,,,,,,,,,,,,,,,100,,,,,,,,,,,,,,,,,,,,,5,6,,,433.9501,1,right,0.0212,,1,0.3,"[2,3,1]",0.863029986,stimuli/card_100_transparent.png,100,1,0,1,0,1,,,,,,,,,,
,,,,ember,A,2024-05-08_15h24.53.448,Slot Machine Game,2023.1.3,MacIntel,57.14285714,,,,,,,,,,,,,,,,,,,,,,,,,,,,,,,,,,,,,,,,,,,,,,,,5,6,,,435.7852,2,,,,0.5,0.3,,,,,2,0,2,0,1,,,,,,,,,,
,,,,ember,A,2024-05-08_15h24.53.448,Slot Machine Game,2023.1.3,MacIntel,57.14285714,,,,,,,,,,,,,,,,,,,,,,,,,,,,,,,,,,,,,,,,,,,,,,,,5,6,,,441.2894,3,,,,1.5,0.3,,,,,3,0,3,0,1,,,,,,,,,,
,,,,ember,A,2024-05-08_15h24.53.448,Slot Machine Game,2023.1.3,MacIntel,57.14285714,,,,,,,,,,,,,,,,,,,,,,,,,,,,,,,,,,,,,,,,,,,,,,,,5,6,,,446.7925,4,,,,0.5,0.3,,,,,4,0,4,0,1,,,,,,,,,,
,,,,ember,A,2024-05-08_15h24.53.448,Slot Machine Game,2023.1.3,MacIntel,57.14285714,,,,,,,,,,,,,,,,,,,,,,,,,,,,,,,,,,,,,,,,,,,,,,,,5,6,,,452.2942,5,,,,0.5,0.3,,,,,5,0,5,0,1,,,,,,,,,,
,,,,ember,A,2024-05-08_15h24.53.448,Slot Machine Game,2023.1.3,MacIntel,57.14285714,,,,,,,,,,,,,,,,,,,,,,,,,,,,,,,,,,,,,,,,,,,,,,,,5,6,,,457.7993,6,,,,0.5,0.3,,,,,6,0,6,0,1,,,,,,,,,,
,,,,ember,A,2024-05-08_15h24.53.448,Slot Machine Game,2023.1.3,MacIntel,57.14285714,,,,,,,,,,,,,,,,,,,,,,,,,,,,,,,,,,,,,,,,,,,,,,,,5,6,,,463.3003,7,,,,1.5,0.3,,,,,7,0,7,0,1,,,,,,,,,,
,,,,ember,A,2024-05-08_15h24.53.448,Slot Machine Game,2023.1.3,MacIntel,57.14285714,,,,,,,,,,,,,,,,,,,,,,,,,,,,,,,,,,,,,,,,,,,,,,,,5,6,,,468.804,8,,,,1,0.3,,,,,8,0,8,0,1,,,,,,,,,,
,,,,ember,A,2024-05-08_15h24.53.448,Slot Machine Game,2023.1.3,MacIntel,57.14285714,,,,,,,,,,,,,,,,,,,,,,,,,,,,,,,,,,,,,,,,,,,,,,,,5,6,,,474.3088,9,,,,1.5,0.3,,,,,9,0,9,0,1,,,,,,,,,,
,,,,ember,A,2024-05-08_15h24.53.448,Slot Machine Game,2023.1.3,MacIntel,57.14285714,,,,,,,,,,,,,,,,,,,,,,,,,,,,,,,,,,,,,,,,,,,,,,,,5,6,,,479.8098,10,,,,1,0.3,,,,,10,0,10,0,1,,,,,,,,,,
,,,,ember,A,2024-05-08_15h24.53.448,Slot Machine Game,2023.1.3,MacIntel,57.14285714,,,,,,,,,,,,,,,,,,,,,,,,,,,,,,,,,,,,,,,,,,,,,,,,5,6,,,485.316,11,,,,0.5,0.3,,,,,11,0,11,0,1,,,,,,,,,,
,,,,ember,A,2024-05-08_15h24.53.448,Slot Machine Game,2023.1.3,MacIntel,57.14285714,,,,,,,,,,,,,,,,,,,,,,,,,,,,,,,,,,,,,,,,,,,,,,,,5,6,,,490.8341,12,,,,0.5,0.3,,,,,12,0,12,0,1,,,,,,,,,,
,,,,ember,A,2024-05-08_15h24.53.448,Slot Machine Game,2023.1.3,MacIntel,57.14285714,,,,,,,,,,,,,,,,,,,,,,,,,,,,,,,,,,,,,,,,,,,,,,,,5,6,,,496.3368,13,,,,0.5,0.3,,,,,13,0,13,0,1,,,,,,,,,,
,,,,ember,A,2024-05-08_15h24.53.448,Slot Machine Game,2023.1.3,MacIntel,57.14285714,,,,,,,,,,,,,,,,,,,,,,,,,,,,,,,,,,,,,,,,,,,,,,,,5,6,,,501.8429,14,,,,0.5,0.3,,,,,14,0,14,0,1,,,,,,,,,,
,,,,ember,A,2024-05-08_15h24.53.448,Slot Machine Game,2023.1.3,MacIntel,57.14285714,,,,,,,,,,,,,,,,,,,,,,,,,,,,,,,,,,,507.3588,,,,,,,,,,,,,,,,,,,,,,,,,,,,,,,,,"[1040,400,580,470,100]",4,0,4,0,1,,,,
,,,,ember,A,2024-05-08_15h24.53.448,Slot Machine Game,2023.1.3,MacIntel,57.14285714,,,,,,,,,,,,,,,,,,,,,,,,,,,,,,,,,,,,,,,,,,,,,,,,6,8,"[11,15]","[[2,1,3],[1,2,3]]",512.3645,0,,,,1.5,0.3,,,,,0,0,0,0,1,,,,,,,,,,
,,,,ember,A,2024-05-08_15h24.53.448,Slot Machine Game,2023.1.3,MacIntel,57.14285714,,,,,,,,,,,,,,,,,,,,,,,,,,,,,,,,,,,,,,,,,,,,,,,,6,8,,,517.8685,1,,,,1,0.3,,,,,1,0,1,0,1,,,,,,,,,,
,,,,ember,A,2024-05-08_15h24.53.448,Slot Machine Game,2023.1.3,MacIntel,57.14285714,,,,,,,,,,,,,,,,,,,,,,,,,,,,,,,,,,,,,,,,,,,,,,,,6,8,,,523.3848,2,,,,0.5,0.3,,,,,2,0,2,0,1,,,,,,,,,,
,,,,ember,A,2024-05-08_15h24.53.448,Slot Machine Game,2023.1.3,MacIntel,57.14285714,,,,,,,,,,,,,,,,,,,,,,,,,,,,,,,,,,,,,,,,,,,,,,,,6,8,,,528.8884,3,,,,1,0.3,,,,,3,0,3,0,1,,,,,,,,,,
,,,,ember,A,2024-05-08_15h24.53.448,Slot Machine Game,2023.1.3,MacIntel,57.14285714,,,,,,,,,,,,,,,,,,,,,,,,,,,,,,,,,,,,,,,,,,,,,,,,6,8,,,534.3919,4,,,,0.5,0.3,,,,,4,0,4,0,1,,,,,,,,,,
,,,,ember,A,2024-05-08_15h24.53.448,Slot Machine Game,2023.1.3,MacIntel,57.14285714,,,,,,,,,,,,,,,,,,,,,,,,,,,,,,,,,,,,,,,,,,,,,,,,6,8,,,539.8932,5,,,,1,0.3,,,,,5,0,5,0,1,,,,,,,,,,
,,,,ember,A,2024-05-08_15h24.53.448,Slot Machine Game,2023.1.3,MacIntel,57.14285714,,,,,,,,,,,,,,,,,,,,,,,,,,,,,,,,,,,,,,,,,,,,,,,,6,8,,,545.3991,6,,,,1.5,0.3,,,,,6,0,6,0,1,,,,,,,,,,
,,,,ember,A,2024-05-08_15h24.53.448,Slot Machine Game,2023.1.3,MacIntel,57.14285714,,,,,,,,,,,,,,,,,,,,,,,,,,,,,,,,,,,,,,,,,,,,,,,,6,8,,,550.9006,7,,,,1.5,0.3,,,,,7,0,7,0,1,,,,,,,,,,
,,,,ember,A,2024-05-08_15h24.53.448,Slot Machine Game,2023.1.3,MacIntel,57.14285714,,,,,,,,,,,,,,,,,,,,,,,,,,,,,,,,,,,,,,,,,,,,,,,,6,8,,,556.4029,8,,,,1,0.3,,,,,8,0,8,0,1,,,,,,,,,,
,,,,ember,A,2024-05-08_15h24.53.448,Slot Machine Game,2023.1.3,MacIntel,57.14285714,,,,,,,,,,,,,,,,,,,,,,,,,,,,,,,,,,,,,,,,,,,,,,,,6,8,,,561.9086,9,,,,1,0.3,,,,,9,0,9,0,1,,,,,,,,,,
,,,,ember,A,2024-05-08_15h24.53.448,Slot Machine Game,2023.1.3,MacIntel,57.14285714,,,,,,,,,,,,,,,,,,,,,,,,,,,,,,,,,,,,,,,,,,,,,,,,6,8,,,567.4256,10,,,,1,0.3,,,,,10,0,10,0,1,,,,,,,,,,
,,,,ember,A,2024-05-08_15h24.53.448,Slot Machine Game,2023.1.3,MacIntel,57.14285714,,,,,,,,,,,,,,,,,,,,,,,,,,,,,,,,,,,,,,,,,,,,,,,,6,8,,,572.9966,11,,,,1.5,0.3,,,,,11,0,11,0,1,,,,,,,,,,
,,,,ember,A,2024-05-08_15h24.53.448,Slot Machine Game,2023.1.3,MacIntel,57.14285714,,,,,,,,,,,,,,,,,,,,,,,,,,,,,,,,,,,,,,,,,,,,,,,,6,8,,,578.5002,12,,,,1,0.3,,,,,12,0,12,0,1,,,,,,,,,,
,,,,ember,A,2024-05-08_15h24.53.448,Slot Machine Game,2023.1.3,MacIntel,57.14285714,,,,,,,,,,,,,,,,,,,,,,,,,,,,,,,,,,,,,,,,,,,,,,,,6,8,,,584.003,13,,,,1.5,0.3,,,,,13,0,13,0,1,,,,,,,,,,
,,,,ember,A,2024-05-08_15h24.53.448,Slot Machine Game,2023.1.3,MacIntel,57.14285714,,,,,,,,,,,,,,,,,,,,,,,,,,,,,,,,,,,,,,,,,,,,,,,,6,8,,,589.5054,14,,,,1,0.3,,,,,14,0,14,0,1,,,,,,,,,,
,,,,ember,A,2024-05-08_15h24.53.448,Slot Machine Game,2023.1.3,MacIntel,57.14285714,,,,,,,,,,,,,,,,,,,,,,,,,,,,,,,,,,,595.01,,,,,,,,,,,,,,,,,,,,,,,,,,,,,,,,,"[1040,400,580,470,100,0]",5,0,5,0,1,,,,
,,,,ember,A,2024-05-08_15h24.53.448,Slot Machine Game,2023.1.3,MacIntel,57.14285714,,,,,,,,,,,,,,,,,,,,,,,,,,,,,,,,,,,,,,,,,,,,,,,,7,9,"[8,15]","[[3,2,1],[3,1,2]]",600.0131,0,,,,0.5,0.3,,,,,0,0,0,0,1,,,,,,,,,,
,,,,ember,A,2024-05-08_15h24.53.448,Slot Machine Game,2023.1.3,MacIntel,57.14285714,,,,,,,,,,,,,,,,,,,,,,,,,,,,,,,,,,,,,,,,,,,,,,,,7,9,,,605.5163,1,,,,0.5,0.3,,,,,1,0,1,0,1,,,,,,,,,,
,,,,ember,A,2024-05-08_15h24.53.448,Slot Machine Game,2023.1.3,MacIntel,57.14285714,,,,,,,,,,,,,,,,,,,,,,,,,,,,,,,,,,,,,,,,,,,,,,,,7,9,,,611.0175,2,,,,0.5,0.3,,,,,2,0,2,0,1,,,,,,,,,,
,,,,ember,A,2024-05-08_15h24.53.448,Slot Machine Game,2023.1.3,MacIntel,57.14285714,,,,,,,,,,,,,,,,,,,,,,,,,,,,,,,,,,,,,,,,,,,,,,,,7,9,,,616.5213,3,,,,0.5,0.3,,,,,3,0,3,0,1,,,,,,,,,,
,,,,ember,A,2024-05-08_15h24.53.448,Slot Machine Game,2023.1.3,MacIntel,57.14285714,,,,,,,,,,,,,,,,,,,,,,,,,,,,,,,,,,,,,,,,,,,,,,,,7,9,,,622.0261,4,,,,1,0.3,,,,,4,0,4,0,1,,,,,,,,,,
,,,,ember,A,2024-05-08_15h24.53.448,Slot Machine Game,2023.1.3,MacIntel,57.14285714,,,,,,,,,,,,,,,,,,,,,,,,,,,,,,,,,,,,,,,,,,,,,,,,7,9,,,627.5437,5,,,,0.5,0.3,,,,,5,0,5,0,1,,,,,,,,,,
,,,,ember,A,2024-05-08_15h24.53.448,Slot Machine Game,2023.1.3,MacIntel,57.14285714,,,,,,,,,,,,,,,,,,,,,,,,,,,,,,,,,,,,,,,,,,,,,,,,7,9,,,633.0507,6,,,,1,0.3,,,,,6,0,6,0,1,,,,,,,,,,
,,,,ember,A,2024-05-08_15h24.53.448,Slot Machine Game,2023.1.3,MacIntel,57.14285714,,,,,,,,,,,,,,,,,,,,,,,,,,,,,,,,,,,,,,,,,,,,,,,,7,9,,,638.5671,7,,,,1,0.3,,,,,7,0,7,0,1,,,,,,,,,,
,,,,ember,A,2024-05-08_15h24.53.448,Slot Machine Game,2023.1.3,MacIntel,57.14285714,,,,,,,,,,,,,,,,,,,,,,,,,,,,,,,,,,,,,,,,,,,,,,,,7,9,,,644.0686,8,,,,1,0.3,,,,,8,0,8,0,1,,,,,,,,,,
,,,,ember,A,2024-05-08_15h24.53.448,Slot Machine Game,2023.1.3,MacIntel,57.14285714,,,,,,,,,,,,,,,,,,,,,,,,,,,,,,,,,,,,,,,,,,,,,,,,7,9,,,649.5717,9,,,,0.5,0.3,,,,,9,0,9,0,1,,,,,,,,,,
,,,,ember,A,2024-05-08_15h24.53.448,Slot Machine Game,2023.1.3,MacIntel,57.14285714,,,,,,,,,,,,,,,,,,,,,,,,,,,,,,,,,,,,,,,,,,,,,,,,7,9,,,655.0748,10,,,,0.5,0.3,,,,,10,0,10,0,1,,,,,,,,,,
,,,,ember,A,2024-05-08_15h24.53.448,Slot Machine Game,2023.1.3,MacIntel,57.14285714,,,,,,,,,,,,,,,,,,,,,,,,,,,,,,,,,,,,,,,,,,,,,,,,7,9,,,660.5937,11,,,,1.5,0.3,,,,,11,0,11,0,1,,,,,,,,,,
,,,,ember,A,2024-05-08_15h24.53.448,Slot Machine Game,2023.1.3,MacIntel,57.14285714,,,,,,,,,,,,,,,,,,,,,,,,,,,,,,,,,,,,,,,,,,,,,,,,7,9,,,666.0993,12,,,,0.5,0.3,,,,,12,0,12,0,1,,,,,,,,,,
,,,,ember,A,2024-05-08_15h24.53.448,Slot Machine Game,2023.1.3,MacIntel,57.14285714,,,,,,,,,,,,,,,,,,,,,,,,,,,,,,,,,,,,,,,,,,,,,,,,7,9,,,671.6008,13,,,,0.5,0.3,,,,,13,0,13,0,1,,,,,,,,,,
,,,,ember,A,2024-05-08_15h24.53.448,Slot Machine Game,2023.1.3,MacIntel,57.14285714,,,,,,,,,,,,,,,,,,,,,,,,,,,,,,,,,,,,,,,,,,,,,,,,7,9,,,677.1047,14,,,,1.5,0.3,,,,,14,0,14,0,1,,,,,,,,,,
,,,,ember,A,2024-05-08_15h24.53.448,Slot Machine Game,2023.1.3,MacIntel,57.14285714,,,,,,,,,,,,,,,,,,,,,,,,,,,,,,,,,,,682.6093,,,,,,,,,,,,,,,,,,,,,,,,,,,,,,,,,"[1040,400,580,470,100,0,0]",6,0,6,0,1,,,,
,,,,ember,A,2024-05-08_15h24.53.448,Slot Machine Game,2023.1.3,MacIntel,57.14285714,,,,,,,,,,,,,,,,,,,,,,,,,,,,,,,,,,,,,,,,,,,,,,,,8,2,"[6,15]","[[1,3,2],[3,2,1]]",687.6124,0,,,,1,0.3,,,,,0,0,0,0,1,,,,,,,,,,
,,,,ember,A,2024-05-08_15h24.53.448,Slot Machine Game,2023.1.3,MacIntel,57.14285714,,,,,,,,,,,,,,,,,,,,,,,,,,,,,,,,,,,,,,,,,,,,,,,,8,2,,,693.1134,1,,,,1,0.3,,,,,1,0,1,0,1,,,,,,,,,,
,,,,ember,A,2024-05-08_15h24.53.448,Slot Machine Game,2023.1.3,MacIntel,57.14285714,,,,,,,,,,,,,,,,,,,,,,,,,,,,,,,,,,,,,,,,,,,,,,,,8,2,,,698.6169,2,,,,0.5,0.3,,,,,2,0,2,0,1,,,,,,,,,,
,,,,ember,A,2024-05-08_15h24.53.448,Slot Machine Game,2023.1.3,MacIntel,57.14285714,,,,,,,,,,,,,,,,,,,,,,,,,,,,,,,,,,,,,,,,,,,,,,,,8,2,,,704.1202,3,,,,1.5,0.3,,,,,3,0,3,0,1,,,,,,,,,,
,,,,ember,A,2024-05-08_15h24.53.448,Slot Machine Game,2023.1.3,MacIntel,57.14285714,,,,,,,,,,,,,,,,,,,,,,,,,,,,,,,,,,,,,,,,,,,,,,,,8,2,,,709.6265,4,,,,0.5,0.3,,,,,4,0,4,0,1,,,,,,,,,,
,,,,ember,A,2024-05-08_15h24.53.448,Slot Machine Game,2023.1.3,MacIntel,57.14285714,,,,,,,,,,,,,,,,,,,,,,,,,,,,,,,,,,,,,,,,,,,,,,,,8,2,,,715.1421,5,,,,0.5,0.3,,,,,5,0,5,0,1,,,,,,,,,,
,,,,ember,A,2024-05-08_15h24.53.448,Slot Machine Game,2023.1.3,MacIntel,57.14285714,,,,,,,,,,,,,,,,,,,,,,,,,,,,,,,,,,,,,,,,,,,,,,,,8,2,,,720.6463,6,,,,1.5,0.3,,,,,6,0,6,0,1,,,,,,,,,,
,,,,ember,A,2024-05-08_15h24.53.448,Slot Machine Game,2023.1.3,MacIntel,57.14285714,,,,,,,,,,,,,,,,,,,,,,,,,,,,,,,,,,,,,,,,,,,,,,,,8,2,,,726.1499,7,,,,1,0.3,,,,,7,0,7,0,1,,,,,,,,,,
,,,,ember,A,2024-05-08_15h24.53.448,Slot Machine Game,2023.1.3,MacIntel,57.14285714,,,,,,,,,,,,,,,,,,,,,,,,,,,,,,,,,,,,,,,,,,,,,,,,8,2,,,731.6517,8,,,,1.5,0.3,,,,,8,0,8,0,1,,,,,,,,,,
,,,,ember,A,2024-05-08_15h24.53.448,Slot Machine Game,2023.1.3,MacIntel,57.14285714,,,,,,,,,,,,,,,,,,,,,,,,,,,,,,,,,,,,,,,,,,,,,,,,8,2,,,737.1587,9,,,,1.5,0.3,,,,,9,0,9,0,1,,,,,,,,,,
,,,,ember,A,2024-05-08_15h24.53.448,Slot Machine Game,2023.1.3,MacIntel,57.14285714,,,,,,,,,,,,,,,,,,,,,,,,,,,,,,,,,,,,,,,,,,,,,,,,8,2,,,742.6601,10,,,,0.5,0.3,,,,,10,0,10,0,1,,,,,,,,,,
,,,,ember,A,2024-05-08_15h24.53.448,Slot Machine Game,2023.1.3,MacIntel,57.14285714,,,,,,,,,,,,,,,,,,,,,,,,,,,,,,,,,,,,,,,,,,,,,,,,8,2,,,748.1614,11,,,,1.5,0.3,,,,,11,0,11,0,1,,,,,,,,,,
,,,,ember,A,2024-05-08_15h24.53.448,Slot Machine Game,2023.1.3,MacIntel,57.14285714,,,,,,,,,,,,,,,,,,,,,,,,,,,,,,,,,,,,,,,,,,,,,,,,8,2,,,753.6671,12,,,,1,0.3,,,,,12,0,12,0,1,,,,,,,,,,
,,,,ember,A,2024-05-08_15h24.53.448,Slot Machine Game,2023.1.3,MacIntel,57.14285714,,,,,,,,,,,,,,,,,,,,,,,,,,,,,,,,,,,,,,,,,,,,,,,,8,2,,,759.2509,13,,,,0.5,0.3,,,,,13,0,13,0,1,,,,,,,,,,
,,,,ember,A,2024-05-08_15h24.53.448,Slot Machine Game,2023.1.3,MacIntel,57.14285714,,,,,,,,,,,,,,,,,,,,,,,,,,,,,,,,,,,,,,,,,,,,,,,,8,2,,,764.7535,14,,,,0.5,0.3,,,,,14,0,14,0,1,,,,,,,,,,
,,,,ember,A,2024-05-08_15h24.53.448,Slot Machine Game,2023.1.3,MacIntel,57.14285714,,,,,,,,,,,,,,,,,,,,,,,,,,,,,,,,,,,770.2583,,,,,,,,,,,,,,,,,,,,,,,,,,,,,,,,,"[1040,400,580,470,100,0,0,0]",7,0,7,0,1,,,,
,,,,ember,A,2024-05-08_15h24.53.448,Slot Machine Game,2023.1.3,MacIntel,57.14285714,,,,,,,,,,,,,,,,,,,,,,,,,,,,,,,,,,,,,,,,,,,,,,,,9,10,"[10,15]","[[3,1,2],[1,3,2]]",775.2606,0,,,,1.5,0.3,,,,,0,0,0,0,1,,,,,,,,,,
,,,,ember,A,2024-05-08_15h24.53.448,Slot Machine Game,2023.1.3,MacIntel,57.14285714,,,,,,,,,,,,,,,,,,,,,,,,,,,,,,,,,,,,,,,,,,,,,,,,9,10,,,780.7625,1,,,,0.5,0.3,,,,,1,0,1,0,1,,,,,,,,,,
,,,,ember,A,2024-05-08_15h24.53.448,Slot Machine Game,2023.1.3,MacIntel,57.14285714,,,,,,,,,,,,,,,,,,,,,,,,,,,,,,,,,,,,,,,,,,,,,,,,9,10,,,786.2668,2,,,,1.5,0.3,,,,,2,0,2,0,1,,,,,,,,,,
,,,,ember,A,2024-05-08_15h24.53.448,Slot Machine Game,2023.1.3,MacIntel,57.14285714,,,,,,,,,,,,,,,,,,,,,,,,,,,,,,,,,,,,,,,,,,,,,,,,9,10,,,791.7693,3,,,,1.5,0.3,,,,,3,0,3,0,1,,,,,,,,,,
,,,,ember,A,2024-05-08_15h24.53.448,Slot Machine Game,2023.1.3,MacIntel,57.14285714,,,,,,,,,,,,,,,,,,,,,,,,,,,,,,,,,,,,,,,,,,,,,,,,9,10,,,797.2728,4,,,,0.5,0.3,,,,,4,0,4,0,1,,,,,,,,,,
,,,,ember,A,2024-05-08_15h24.53.448,Slot Machine Game,2023.1.3,MacIntel,57.14285714,,,,,,,,,,,,,,,,,,,,,,,,,,,,,,,,,,,,,,,,,,,,,,,,9,10,,,802.7764,5,,,,0.5,0.3,,,,,5,0,5,0,1,,,,,,,,,,
,,,,ember,A,2024-05-08_15h24.53.448,Slot Machine Game,2023.1.3,MacIntel,57.14285714,,,,,,,,,,,,,,,,,,,,,,,,,,,,,,,,,,,,,,,,,,,,,,,,9,10,,,808.2775,6,,,,1,0.3,,,,,6,0,6,0,1,,,,,,,,,,
,,,,ember,A,2024-05-08_15h24.53.448,Slot Machine Game,2023.1.3,MacIntel,57.14285714,,,,,,,,,,,,,,,,,,,,,,,,,,,,,,,,,,,,,,,,,,,,,,,,9,10,,,813.7837,7,,,,0.5,0.3,,,,,7,0,7,0,1,,,,,,,,,,
,,,,ember,A,2024-05-08_15h24.53.448,Slot Machine Game,2023.1.3,MacIntel,57.14285714,,,,,,,,,,,,,,,,,,,,,,,,,,,,,,,,,,,,,,,,,,,,,,,,9,10,,,819.3074,8,,,,0.5,0.3,,,,,8,0,8,0,1,,,,,,,,,,
,,,,ember,A,2024-05-08_15h24.53.448,Slot Machine Game,2023.1.3,MacIntel,57.14285714,,,,,,,,,,,,,,,,,,,,,,,,,,,,,,,,,,,,,,,,,,,,,,,,9,10,,,824.8201,9,,,,1,0.3,,,,,9,0,9,0,1,,,,,,,,,,
,,,,ember,A,2024-05-08_15h24.53.448,Slot Machine Game,2023.1.3,MacIntel,57.14285714,,,,,,,,,,,,,,,,,,,,,,,,,,,,,,,,,,,,,,,,,,,,,,,,9,10,,,830.326,10,,,,1.5,0.3,,,,,10,0,10,0,1,,,,,,,,,,
,,,,ember,A,2024-05-08_15h24.53.448,Slot Machine Game,2023.1.3,MacIntel,57.14285714,,,,,,,,,,,,,,,,,,,,,,,,,,,,,,,,,,,,,,,,,,,,,,,,9,10,,,835.8275,11,,,,0.5,0.3,,,,,11,0,11,0,1,,,,,,,,,,
,,,,ember,A,2024-05-08_15h24.53.448,Slot Machine Game,2023.1.3,MacIntel,57.14285714,,,,,,,,,,,,,,,,,,,,,,,,,,,,,,,,,,,,,,,,,,,,,,,,9,10,,,841.3295,12,,,,1,0.3,,,,,12,0,12,0,1,,,,,,,,,,
,,,,ember,A,2024-05-08_15h24.53.448,Slot Machine Game,2023.1.3,MacIntel,57.14285714,,,,,,,,,,,,,,,,,,,,,,,,,,,,,,,,,,,,,,,,,,,,,,,,9,10,,,846.8349,13,,,,1,0.3,,,,,13,0,13,0,1,,,,,,,,,,
,,,,ember,A,2024-05-08_15h24.53.448,Slot Machine Game,2023.1.3,MacIntel,57.14285714,,,,,,,,,,,,,,,,,,,,,,,,,,,0,,,,,,,,,,,,,,,,,,,,,9,10,,,863.0452,14,up,1.1796,,1.5,0.3,"[1,3,2]",0.440982162,stimuli/card_0_transparent.png,0,14,0,14,0,1,,,,,,,,,,
,,,,ember,A,2024-05-08_15h24.53.448,Slot Machine Game,2023.1.3,MacIntel,57.14285714,,,,,,,,,,,,,,,,,,,,,,,,,,,,,,,,,,,866.577,,,,,,,,,,,,,,,,,,,,,,,,,,,,,,,,,"[1040,400,580,470,100,0,0,0,0]",8,0,8,0,1,,,,
,,,,ember,A,2024-05-08_15h24.53.448,Slot Machine Game,2023.1.3,MacIntel,57.14285714,,,,,,,,,,,,,,,,,,,,,,,,,,,100,,,,,,,,,,,,,,,,,,,,,10,3,"[15,15]","[[3,1,2],[3,1,2]]",871.5831,0,up,3.8558,,0.5,0.3,"[3,1,2]",0.717688781,stimuli/card_100_transparent.png,100,0,0,0,0,1,,,,,,,,,,
,,,,ember,A,2024-05-08_15h24.53.448,Slot Machine Game,2023.1.3,MacIntel,57.14285714,,,,,,,,,,,,,,,,,,,,,,,,,,,200,,,,,,,,,,,,,,,,,,,,,10,3,,,876.7668,1,up,0.5544,,1,0.3,"[3,1,2]",0.412209331,stimuli/card_100_transparent.png,100,1,0,1,0,1,,,,,,,,,,
,,,,ember,A,2024-05-08_15h24.53.448,Slot Machine Game,2023.1.3,MacIntel,57.14285714,,,,,,,,,,,,,,,,,,,,,,,,,,,,,,,,,,,,,,,,,,,,,,,,10,3,,,879.1502,2,,,,1.5,0.3,,,,,2,0,2,0,1,,,,,,,,,,
,,,,ember,A,2024-05-08_15h24.53.448,Slot Machine Game,2023.1.3,MacIntel,57.14285714,,,,,,,,,,,,,,,,,,,,,,,,,,,,,,,,,,,,,,,,,,,,,,,,10,3,,,884.6574,3,,,,1,0.3,,,,,3,0,3,0,1,,,,,,,,,,
,,,,ember,A,2024-05-08_15h24.53.448,Slot Machine Game,2023.1.3,MacIntel,57.14285714,,,,,,,,,,,,,,,,,,,,,,,,,,,,,,,,,,,,,,,,,,,,,,,,10,3,,,890.1589,4,,,,1.5,0.3,,,,,4,0,4,0,1,,,,,,,,,,
,,,,ember,A,2024-05-08_15h24.53.448,Slot Machine Game,2023.1.3,MacIntel,57.14285714,,,,,,,,,,,,,,,,,,,,,,,,,,,,,,,,,,,,,,,,,,,,,,,,10,3,,,895.6652,5,,,,1,0.3,,,,,5,0,5,0,1,,,,,,,,,,
,,,,ember,A,2024-05-08_15h24.53.448,Slot Machine Game,2023.1.3,MacIntel,57.14285714,,,,,,,,,,,,,,,,,,,,,,,,,,,200,,,,,,,,,,,,,,,,,,,,,10,3,,,901.1806,6,right,2.6211,,0.5,0.3,"[3,1,2]",0.023570129,stimuli/card_0_transparent.png,0,6,0,6,0,1,,,,,,,,,,
,,,,ember,A,2024-05-08_15h24.53.448,Slot Machine Game,2023.1.3,MacIntel,57.14285714,,,,,,,,,,,,,,,,,,,,,,,,,,,200,,,,,,,,,,,,,,,,,,,,,10,3,,,905.1157,7,left,0.0433,,1.5,0.3,"[3,1,2]",0.706080354,stimuli/card_0_transparent.png,0,7,0,7,0,1,,,,,,,,,,
,,,,ember,A,2024-05-08_15h24.53.448,Slot Machine Game,2023.1.3,MacIntel,57.14285714,,,,,,,,,,,,,,,,,,,,,,,,,,,200,,,,,,,,,,,,,,,,,,,,,10,3,,,907.4665,8,left,0.5093,,1.5,0.3,"[3,1,2]",0.240832345,stimuli/card_0_transparent.png,0,8,0,8,0,1,,,,,,,,,,
,,,,ember,A,2024-05-08_15h24.53.448,Slot Machine Game,2023.1.3,MacIntel,57.14285714,,,,,,,,,,,,,,,,,,,,,,,,,,,300,,,,,,,,,,,,,,,,,,,,,10,3,,,910.3027,9,up,0.0937,,1,0.3,"[3,1,2]",0.57874407,stimuli/card_100_transparent.png,100,9,0,9,0,1,,,,,,,,,,
,,,,ember,A,2024-05-08_15h24.53.448,Slot Machine Game,2023.1.3,MacIntel,57.14285714,,,,,,,,,,,,,,,,,,,,,,,,,,,,,,,,,,,,,,,,,,,,,,,,10,3,,,912.5367,10,,,,0.5,0.3,,,,,10,0,10,0,1,,,,,,,,,,
,,,,ember,A,2024-05-08_15h24.53.448,Slot Machine Game,2023.1.3,MacIntel,57.14285714,,,,,,,,,,,,,,,,,,,,,,,,,,,,,,,,,,,,,,,,,,,,,,,,10,3,,,918.0441,11,,,,0.5,0.3,,,,,11,0,11,0,1,,,,,,,,,,
,,,,ember,A,2024-05-08_15h24.53.448,Slot Machine Game,2023.1.3,MacIntel,57.14285714,,,,,,,,,,,,,,,,,,,,,,,,,,,,,,,,,,,,,,,,,,,,,,,,10,3,,,1214.3694,12,,,,1.5,0.3,,,,,12,0,12,0,1,,,,,,,,,,
,,,,ember,A,2024-05-08_15h24.53.448,Slot Machine Game,2023.1.3,MacIntel,57.14285714,,,,,,,,,,,,,,,,,,,,,,,,,,,400,,,,,,,,,,,,,,,,,,,,,10,3,,,1219.8756,13,up,3.7449,,1.5,0.3,"[3,1,2]",0.680919512,stimuli/card_100_transparent.png,100,13,0,13,0,1,,,,,,,,,,
,,,,ember,A,2024-05-08_15h24.53.448,Slot Machine Game,2023.1.3,MacIntel,57.14285714,,,,,,,,,,,,,,,,,,,,,,,,,,,500,,,,,,,,,,,,,,,,,,,,,10,3,,,1225.9294,14,up,0.1149,,1,0.3,"[3,1,2]",0.998690392,stimuli/card_100_transparent.png,100,14,0,14,0,1,,,,,,,,,,
,,,,ember,A,2024-05-08_15h24.53.448,Slot Machine Game,2023.1.3,MacIntel,57.14285714,,,,,,,,,,,,,,,,,,,,,,,,,,,,,,,,,,,1227.8643,,,,,,,,,,,,,,,,,,,,,,,,,,,,,,,,,"[1040,400,580,470,100,0,0,0,0,500]",9,0,9,0,1,,,,
,,,,ember,A,2024-05-08_15h24.53.448,Slot Machine Game,2023.1.3,MacIntel,57.14285714,,,,,,,,,,,,,,,,,,,,,,,,,,,,,,,,,,,,,,,,,,,,,,,,,,,,,,,,,,,,,,,,,,,,,,,,,,9,"[1040,400,580,470,100,0,0,0,0,500]",4.7,2024-05-08_15h45.30.420
