key_resp_welcome_started,key_resp_welcome_keys,key_resp_welcome_rt,key_resp_welcome_duration,prolific_id,path_id,date,expName,psychopyVersion,OS,frameRate,key_resp_instruction1_started,key_resp_instruction1_keys,key_resp_instruction1_rt,key_resp_instruction1_duration,key_resp_instruction2_started,key_resp_instruction2_keys,key_resp_instruction2_rt,key_resp_instruction2_duration,key_resp_instruction3_started,key_resp_instruction3_keys,key_resp_instruction3_rt,key_resp_instruction3_duration,key_resp_instruction4_started,key_resp_instruction4_keys,key_resp_instruction4_rt,key_resp_instruction4_duration,practiceCondition,practice_reward_seqs,practice_trial_started,practice_trial_num,practice_resp_rt,practice_resp_duration,practice_resp_keys,prac_presentationInterval,"practice_reward_seq: 2,1,3",reward_img,cumulative_reward,trial_reward,practice_trials.thisRepN,practice_trials.thisTrialN,practice_trials.thisN,practice_trials.thisIndex,practice_trials.ran,"practice_reward_seq: 2,3,1",block_break_started,"practice_reward_seq: 1,3,2","practice_reward_seq: 3,1,2",practice_end_time,practice_end_keys,practice_end_rt,practice_end_duration,main_instruction_text_started,block_condition,block_order_indices,main_instruction_keys,main_instruction_rt,main_instruction_duration,block_number,block_assignment,current_condition,main_reward_seqs,main_trial_started,main_trial_num,main_trial_keys,main_trial_rt,main_trial_duration,main_presentationInterval,reward_presentation_time,main_reward_seq,reward_rand_val,main_reward_img,current_reward,main_trials.thisRepN,main_trials.thisTrialN,main_trials.thisN,main_trials.thisIndex,main_trials.ran,block_reward,block.thisRepN,block.thisTrialN,block.thisN,block.thisIndex,block.ran,block_reward.length,block_reward_all,reward_amount,date_end_task
0.0002,return,3.3936,,5f4c49b249b99c1462dd2640,A,2024-05-17_23h40.41.754,Slot Machine Game,2023.1.3,Win32,178.5714286,,,,,,,,,,,,,,,,,,,,,,,,,,,,,,,,,,,,,,,,,,,,,,,,,,,,,,,,,,,,,,,,,,,,,,,,,,,,,
,,,,5f4c49b249b99c1462dd2640,A,2024-05-17_23h40.41.754,Slot Machine Game,2023.1.3,Win32,178.5714286,3.3994,return,6.331,,,,,,,,,,,,,,,,,,,,,,,,,,,,,,,,,,,,,,,,,,,,,,,,,,,,,,,,,,,,,,,,,,,,,,,,,,
,,,,5f4c49b249b99c1462dd2640,A,2024-05-17_23h40.41.754,Slot Machine Game,2023.1.3,Win32,178.5714286,,,,,9.7386,space,43.1234,,,,,,,,,,,,,,,,,,,,,,,,,,,,,,,,,,,,,,,,,,,,,,,,,,,,,,,,,,,,,,,,,,,,,,
,,,,5f4c49b249b99c1462dd2640,A,2024-05-17_23h40.41.754,Slot Machine Game,2023.1.3,Win32,178.5714286,,,,,,,,,52.8795,space,6.3221,,,,,,,,,,,,,,,,,,,,,,,,,,,,,,,,,,,,,,,,,,,,,,,,,,,,,,,,,,,,,,,,,,
,,,,5f4c49b249b99c1462dd2640,A,2024-05-17_23h40.41.754,Slot Machine Game,2023.1.3,Win32,178.5714286,,,,,,,,,,,,,,,,,,,,,,,,,,,,,,,,,,,,,,,,,,,,,,,,,,,,,,,,,,,,,,,,,,,,,,,,,,,,,
,,,,5f4c49b249b99c1462dd2640,A,2024-05-17_23h40.41.754,Slot Machine Game,2023.1.3,Win32,178.5714286,,,,,,,,,,,,,200.8825,left,10.2219,,,,,,,,,,,,,,,,,,,,,,,,,,,,,,,,,,,,,,,,,,,,,,,,,,,,,,,,,,,,,,
,,,,5f4c49b249b99c1462dd2640,A,2024-05-17_23h40.41.754,Slot Machine Game,2023.1.3,Win32,178.5714286,,,,,,,,,,,,,,,,,"[9,15]","[[2,1,3],[2,3,1]]",211.1116,0,1.9635,,right,1,,stimuli/card_0_transparent.png,0,0,0,0,0,0,1,,,,,,,,,,,,,,,,,,,,,,,,,,,,,,,,,,,,,,,,,,,,
,,,,5f4c49b249b99c1462dd2640,A,2024-05-17_23h40.41.754,Slot Machine Game,2023.1.3,Win32,178.5714286,,,,,,,,,,,,,,,,,,,214.8874,1,1.4054,,right,0.5,,stimuli/card_0_transparent.png,0,0,1,0,1,0,1,,,,,,,,,,,,,,,,,,,,,,,,,,,,,,,,,,,,,,,,,,,,
,,,,5f4c49b249b99c1462dd2640,A,2024-05-17_23h40.41.754,Slot Machine Game,2023.1.3,Win32,178.5714286,,,,,,,,,,,,,,,,,,,217.6039,2,0.3764,,up,1,,stimuli/card_100_transparent.png,100,100,2,0,2,0,1,,,,,,,,,,,,,,,,,,,,,,,,,,,,,,,,,,,,,,,,,,,,
,,,,5f4c49b249b99c1462dd2640,A,2024-05-17_23h40.41.754,Slot Machine Game,2023.1.3,Win32,178.5714286,,,,,,,,,,,,,,,,,,,219.7872,3,0.4724,,up,1.5,,stimuli/card_100_transparent.png,200,100,3,0,3,0,1,,,,,,,,,,,,,,,,,,,,,,,,,,,,,,,,,,,,,,,,,,,,
,,,,5f4c49b249b99c1462dd2640,A,2024-05-17_23h40.41.754,Slot Machine Game,2023.1.3,Win32,178.5714286,,,,,,,,,,,,,,,,,,,222.5651,4,0.9133,,up,0.5,,stimuli/card_100_transparent.png,300,100,4,0,4,0,1,,,,,,,,,,,,,,,,,,,,,,,,,,,,,,,,,,,,,,,,,,,,
,,,,5f4c49b249b99c1462dd2640,A,2024-05-17_23h40.41.754,Slot Machine Game,2023.1.3,Win32,178.5714286,,,,,,,,,,,,,,,,,,,224.7873,5,0.3071,,up,1,,stimuli/card_0_transparent.png,300,0,5,0,5,0,1,,,,,,,,,,,,,,,,,,,,,,,,,,,,,,,,,,,,,,,,,,,,
,,,,5f4c49b249b99c1462dd2640,A,2024-05-17_23h40.41.754,Slot Machine Game,2023.1.3,Win32,178.5714286,,,,,,,,,,,,,,,,,,,226.9041,6,0.1677,,up,1.5,,stimuli/card_100_transparent.png,400,100,6,0,6,0,1,,,,,,,,,,,,,,,,,,,,,,,,,,,,,,,,,,,,,,,,,,,,
,,,,5f4c49b249b99c1462dd2640,A,2024-05-17_23h40.41.754,Slot Machine Game,2023.1.3,Win32,178.5714286,,,,,,,,,,,,,,,,,,,229.3875,7,0.0686,,up,1,,stimuli/card_100_transparent.png,500,100,7,0,7,0,1,,,,,,,,,,,,,,,,,,,,,,,,,,,,,,,,,,,,,,,,,,,,
,,,,5f4c49b249b99c1462dd2640,A,2024-05-17_23h40.41.754,Slot Machine Game,2023.1.3,Win32,178.5714286,,,,,,,,,,,,,,,,,,,231.2653,8,2.6835,,up,1.5,,stimuli/card_100_transparent.png,600,100,8,0,8,0,1,,,,,,,,,,,,,,,,,,,,,,,,,,,,,,,,,,,,,,,,,,,,
,,,,5f4c49b249b99c1462dd2640,A,2024-05-17_23h40.41.754,Slot Machine Game,2023.1.3,Win32,178.5714286,,,,,,,,,,,,,,,,,,,236.2598,9,0.4064,,up,1,,stimuli/card_0_transparent.png,600,0,9,0,9,0,1,,,,,,,,,,,,,,,,,,,,,,,,,,,,,,,,,,,,,,,,,,,,
,,,,5f4c49b249b99c1462dd2640,A,2024-05-17_23h40.41.754,Slot Machine Game,2023.1.3,Win32,178.5714286,,,,,,,,,,,,,,,,,,,238.4765,10,1.2456,,up,1.5,,stimuli/card_0_transparent.png,600,0,10,0,10,0,1,,,,,,,,,,,,,,,,,,,,,,,,,,,,,,,,,,,,,,,,,,,,
,,,,5f4c49b249b99c1462dd2640,A,2024-05-17_23h40.41.754,Slot Machine Game,2023.1.3,Win32,178.5714286,,,,,,,,,,,,,,,,,,,242.0322,11,1.2346,,left,0.5,,stimuli/card_0_transparent.png,600,0,11,0,11,0,1,,,,,,,,,,,,,,,,,,,,,,,,,,,,,,,,,,,,,,,,,,,,
,,,,5f4c49b249b99c1462dd2640,A,2024-05-17_23h40.41.754,Slot Machine Game,2023.1.3,Win32,178.5714286,,,,,,,,,,,,,,,,,,,244.5713,12,0.735,,left,0.5,,stimuli/card_100_transparent.png,700,100,12,0,12,0,1,,,,,,,,,,,,,,,,,,,,,,,,,,,,,,,,,,,,,,,,,,,,
,,,,5f4c49b249b99c1462dd2640,A,2024-05-17_23h40.41.754,Slot Machine Game,2023.1.3,Win32,178.5714286,,,,,,,,,,,,,,,,,,,246.6167,13,0.4626,,left,1,,stimuli/card_10_transparent.png,710,10,13,0,13,0,1,,,,,,,,,,,,,,,,,,,,,,,,,,,,,,,,,,,,,,,,,,,,
,,,,5f4c49b249b99c1462dd2640,A,2024-05-17_23h40.41.754,Slot Machine Game,2023.1.3,Win32,178.5714286,,,,,,,,,,,,,,,,,,,248.8879,14,0.7777,,left,1,,stimuli/card_0_transparent.png,710,0,14,0,14,0,1,,,,,,,,,,,,,,,,,,,,,,,,,,,,,,,,,,,,,,,,,,,,
,,,,5f4c49b249b99c1462dd2640,A,2024-05-17_23h40.41.754,Slot Machine Game,2023.1.3,Win32,178.5714286,,,,,,,,,,,,,,,,,"[6,15]","[[1,3,2],[3,1,2]]",256.4769,0,1.3733,,up,1,,stimuli/card_0_transparent.png,0,0,0,0,0,0,1,,251.4765,,,,,,,,,,,,,,,,,,,,,,,,,,,,,,,,,,,,,,,,,,
,,,,5f4c49b249b99c1462dd2640,A,2024-05-17_23h40.41.754,Slot Machine Game,2023.1.3,Win32,178.5714286,,,,,,,,,,,,,,,,,,,259.6603,1,0.5777,,right,1,,stimuli/card_10_transparent.png,10,10,1,0,1,0,1,,,,,,,,,,,,,,,,,,,,,,,,,,,,,,,,,,,,,,,,,,,,
,,,,5f4c49b249b99c1462dd2640,A,2024-05-17_23h40.41.754,Slot Machine Game,2023.1.3,Win32,178.5714286,,,,,,,,,,,,,,,,,,,262.0437,2,0.3965,,right,0.5,,stimuli/card_10_transparent.png,20,10,2,0,2,0,1,,,,,,,,,,,,,,,,,,,,,,,,,,,,,,,,,,,,,,,,,,,,
,,,,5f4c49b249b99c1462dd2640,A,2024-05-17_23h40.41.754,Slot Machine Game,2023.1.3,Win32,178.5714286,,,,,,,,,,,,,,,,,,,263.7493,3,0.376,,left,1.5,,stimuli/card_100_transparent.png,120,100,3,0,3,0,1,,,,,,,,,,,,,,,,,,,,,,,,,,,,,,,,,,,,,,,,,,,,
,,,,5f4c49b249b99c1462dd2640,A,2024-05-17_23h40.41.754,Slot Machine Game,2023.1.3,Win32,178.5714286,,,,,,,,,,,,,,,,,,,266.4345,4,0.1219,,left,1,,stimuli/card_100_transparent.png,220,100,4,0,4,0,1,,,,,,,,,,,,,,,,,,,,,,,,,,,,,,,,,,,,,,,,,,,,
,,,,5f4c49b249b99c1462dd2640,A,2024-05-17_23h40.41.754,Slot Machine Game,2023.1.3,Win32,178.5714286,,,,,,,,,,,,,,,,,,,268.3661,5,0.0728,,left,1,,stimuli/card_100_transparent.png,320,100,5,0,5,0,1,,,,,,,,,,,,,,,,,,,,,,,,,,,,,,,,,,,,,,,,,,,,
,,,,5f4c49b249b99c1462dd2640,A,2024-05-17_23h40.41.754,Slot Machine Game,2023.1.3,Win32,178.5714286,,,,,,,,,,,,,,,,,,,270.2439,6,2.0528,,left,1.5,,stimuli/card_0_transparent.png,320,0,6,0,6,0,1,,,,,,,,,,,,,,,,,,,,,,,,,,,,,,,,,,,,,,,,,,,,
,,,,5f4c49b249b99c1462dd2640,A,2024-05-17_23h40.41.754,Slot Machine Game,2023.1.3,Win32,178.5714286,,,,,,,,,,,,,,,,,,,274.6007,7,0.3231,,left,1,,stimuli/card_0_transparent.png,320,0,7,0,7,0,1,,,,,,,,,,,,,,,,,,,,,,,,,,,,,,,,,,,,,,,,,,,,
,,,,5f4c49b249b99c1462dd2640,A,2024-05-17_23h40.41.754,Slot Machine Game,2023.1.3,Win32,178.5714286,,,,,,,,,,,,,,,,,,,276.7386,8,0.5897,,up,0.5,,stimuli/card_100_transparent.png,420,100,8,0,8,0,1,,,,,,,,,,,,,,,,,,,,,,,,,,,,,,,,,,,,,,,,,,,,
,,,,5f4c49b249b99c1462dd2640,A,2024-05-17_23h40.41.754,Slot Machine Game,2023.1.3,Win32,178.5714286,,,,,,,,,,,,,,,,,,,278.6385,9,0.3712,,up,0.5,,stimuli/card_100_transparent.png,520,100,9,0,9,0,1,,,,,,,,,,,,,,,,,,,,,,,,,,,,,,,,,,,,,,,,,,,,
,,,,5f4c49b249b99c1462dd2640,A,2024-05-17_23h40.41.754,Slot Machine Game,2023.1.3,Win32,178.5714286,,,,,,,,,,,,,,,,,,,280.3162,10,0.5875,,up,1,,stimuli/card_100_transparent.png,620,100,10,0,10,0,1,,,,,,,,,,,,,,,,,,,,,,,,,,,,,,,,,,,,,,,,,,,,
,,,,5f4c49b249b99c1462dd2640,A,2024-05-17_23h40.41.754,Slot Machine Game,2023.1.3,Win32,178.5714286,,,,,,,,,,,,,,,,,,,282.7053,11,0.3078,,up,1,,stimuli/card_100_transparent.png,720,100,11,0,11,0,1,,,,,,,,,,,,,,,,,,,,,,,,,,,,,,,,,,,,,,,,,,,,
,,,,5f4c49b249b99c1462dd2640,A,2024-05-17_23h40.41.754,Slot Machine Game,2023.1.3,Win32,178.5714286,,,,,,,,,,,,,,,,,,,284.819,12,0.2708,,up,1,,stimuli/card_100_transparent.png,820,100,12,0,12,0,1,,,,,,,,,,,,,,,,,,,,,,,,,,,,,,,,,,,,,,,,,,,,
,,,,5f4c49b249b99c1462dd2640,A,2024-05-17_23h40.41.754,Slot Machine Game,2023.1.3,Win32,178.5714286,,,,,,,,,,,,,,,,,,,286.8943,13,0.2516,,up,0.5,,stimuli/card_0_transparent.png,820,0,13,0,13,0,1,,,,,,,,,,,,,,,,,,,,,,,,,,,,,,,,,,,,,,,,,,,,
,,,,5f4c49b249b99c1462dd2640,A,2024-05-17_23h40.41.754,Slot Machine Game,2023.1.3,Win32,178.5714286,,,,,,,,,,,,,,,,,,,288.4499,14,0.6971,,up,0.5,,stimuli/card_10_transparent.png,830,10,14,0,14,0,1,,,,,,,,,,,,,,,,,,,,,,,,,,,,,,,,,,,,,,,,,,,,
,,,,5f4c49b249b99c1462dd2640,A,2024-05-17_23h40.41.754,Slot Machine Game,2023.1.3,Win32,178.5714286,,,,,,,,,,,,,,,,,,,,,,,,,,,,,,,,,,,290.461,,,295.4615,space,6.5091,,,,,,,,,,,,,,,,,,,,,,,,,,,,,,,,,,,,,
,,,,5f4c49b249b99c1462dd2640,A,2024-05-17_23h40.41.754,Slot Machine Game,2023.1.3,Win32,178.5714286,,,,,,,,,,,,,,,,,,,,,,,,,,,,,,,,,,,,,,,,,,301.9783,3,"[0,4,6,3,5,7,8,1,9,2]",space,2.9498,,,,,,,,,,,,,,,,,,,,,,,,,,,,,,,
,,,,5f4c49b249b99c1462dd2640,A,2024-05-17_23h40.41.754,Slot Machine Game,2023.1.3,Win32,178.5714286,,,,,,,,,,,,,,,,,,,,,,,,,,,10,,,,,,,,,,,,,,,,,,,,,1,1,"[12,15]","[[2,1,3],[2,3,1]]",304.9405,0,up,1.2766,,0.5,0.3,"[2,1,3]",0.109392891,stimuli/card_10_transparent.png,10,0,0,0,0,1,,,,,,,,,,
,,,,5f4c49b249b99c1462dd2640,A,2024-05-17_23h40.41.754,Slot Machine Game,2023.1.3,Win32,178.5714286,,,,,,,,,,,,,,,,,,,,,,,,,,,110,,,,,,,,,,,,,,,,,,,,,1,1,,,307.5282,1,up,0.5963,,1.5,0.3,"[2,1,3]",0.411059817,stimuli/card_100_transparent.png,100,1,0,1,0,1,,,,,,,,,,
,,,,5f4c49b249b99c1462dd2640,A,2024-05-17_23h40.41.754,Slot Machine Game,2023.1.3,Win32,178.5714286,,,,,,,,,,,,,,,,,,,,,,,,,,,210,,,,,,,,,,,,,,,,,,,,,1,1,,,310.4336,2,up,0.3067,,0.5,0.3,"[2,1,3]",0.527887552,stimuli/card_100_transparent.png,100,2,0,2,0,1,,,,,,,,,,
,,,,5f4c49b249b99c1462dd2640,A,2024-05-17_23h40.41.754,Slot Machine Game,2023.1.3,Win32,178.5714286,,,,,,,,,,,,,,,,,,,,,,,,,,,210,,,,,,,,,,,,,,,,,,,,,1,1,,,312.0514,3,up,0.1256,,1,0.3,"[2,1,3]",0.014293801,stimuli/card_0_transparent.png,0,3,0,3,0,1,,,,,,,,,,
,,,,5f4c49b249b99c1462dd2640,A,2024-05-17_23h40.41.754,Slot Machine Game,2023.1.3,Win32,178.5714286,,,,,,,,,,,,,,,,,,,,,,,,,,,310,,,,,,,,,,,,,,,,,,,,,1,1,,,313.9893,4,up,0.1296,,0.5,0.3,"[2,1,3]",0.877853147,stimuli/card_100_transparent.png,100,4,0,4,0,1,,,,,,,,,,
,,,,5f4c49b249b99c1462dd2640,A,2024-05-17_23h40.41.754,Slot Machine Game,2023.1.3,Win32,178.5714286,,,,,,,,,,,,,,,,,,,,,,,,,,,320,,,,,,,,,,,,,,,,,,,,,1,1,,,315.4337,5,up,0.5451,,1,0.3,"[2,1,3]",0.147062986,stimuli/card_10_transparent.png,10,5,0,5,0,1,,,,,,,,,,
,,,,5f4c49b249b99c1462dd2640,A,2024-05-17_23h40.41.754,Slot Machine Game,2023.1.3,Win32,178.5714286,,,,,,,,,,,,,,,,,,,,,,,,,,,420,,,,,,,,,,,,,,,,,,,,,1,1,,,317.7847,6,up,0.8586,,1,0.3,"[2,1,3]",0.581286341,stimuli/card_100_transparent.png,100,6,0,6,0,1,,,,,,,,,,
,,,,5f4c49b249b99c1462dd2640,A,2024-05-17_23h40.41.754,Slot Machine Game,2023.1.3,Win32,178.5714286,,,,,,,,,,,,,,,,,,,,,,,,,,,520,,,,,,,,,,,,,,,,,,,,,1,1,,,320.4506,7,up,0.3032,,1.5,0.3,"[2,1,3]",0.60513051,stimuli/card_100_transparent.png,100,7,0,7,0,1,,,,,,,,,,
,,,,5f4c49b249b99c1462dd2640,A,2024-05-17_23h40.41.754,Slot Machine Game,2023.1.3,Win32,178.5714286,,,,,,,,,,,,,,,,,,,,,,,,,,,620,,,,,,,,,,,,,,,,,,,,,1,1,,,323.0672,8,up,0.2351,,0.5,0.3,"[2,1,3]",0.204428872,stimuli/card_100_transparent.png,100,8,0,8,0,1,,,,,,,,,,
,,,,5f4c49b249b99c1462dd2640,A,2024-05-17_23h40.41.754,Slot Machine Game,2023.1.3,Win32,178.5714286,,,,,,,,,,,,,,,,,,,,,,,,,,,630,,,,,,,,,,,,,,,,,,,,,1,1,,,324.6117,9,up,0.3159,,0.5,0.3,"[2,1,3]",0.139209552,stimuli/card_10_transparent.png,10,9,0,9,0,1,,,,,,,,,,
,,,,5f4c49b249b99c1462dd2640,A,2024-05-17_23h40.41.754,Slot Machine Game,2023.1.3,Win32,178.5714286,,,,,,,,,,,,,,,,,,,,,,,,,,,730,,,,,,,,,,,,,,,,,,,,,1,1,,,326.2341,10,up,0.3545,,0.5,0.3,"[2,1,3]",0.654203629,stimuli/card_100_transparent.png,100,10,0,10,0,1,,,,,,,,,,
,,,,5f4c49b249b99c1462dd2640,A,2024-05-17_23h40.41.754,Slot Machine Game,2023.1.3,Win32,178.5714286,,,,,,,,,,,,,,,,,,,,,,,,,,,830,,,,,,,,,,,,,,,,,,,,,1,1,,,327.8896,11,up,0.2057,,0.5,0.3,"[2,1,3]",0.993333143,stimuli/card_100_transparent.png,100,11,0,11,0,1,,,,,,,,,,
,,,,5f4c49b249b99c1462dd2640,A,2024-05-17_23h40.41.754,Slot Machine Game,2023.1.3,Win32,178.5714286,,,,,,,,,,,,,,,,,,,,,,,,,,,840,,,,,,,,,,,,,,,,,,,,,1,1,,,329.4008,12,up,0.1202,,0.5,0.3,"[2,3,1]",0.174465486,stimuli/card_10_transparent.png,10,12,0,12,0,1,,,,,,,,,,
,,,,5f4c49b249b99c1462dd2640,A,2024-05-17_23h40.41.754,Slot Machine Game,2023.1.3,Win32,178.5714286,,,,,,,,,,,,,,,,,,,,,,,,,,,840,,,,,,,,,,,,,,,,,,,,,1,1,,,330.8229,13,up,0.3083,,0.5,0.3,"[2,3,1]",0.42963604,stimuli/card_0_transparent.png,0,13,0,13,0,1,,,,,,,,,,
,,,,5f4c49b249b99c1462dd2640,A,2024-05-17_23h40.41.754,Slot Machine Game,2023.1.3,Win32,178.5714286,,,,,,,,,,,,,,,,,,,,,,,,,,,840,,,,,,,,,,,,,,,,,,,,,1,1,,,332.4404,14,up,0.2449,,1.5,0.3,"[2,3,1]",0.440498451,stimuli/card_0_transparent.png,0,14,0,14,0,1,,,,,,,,,,
,,,,5f4c49b249b99c1462dd2640,A,2024-05-17_23h40.41.754,Slot Machine Game,2023.1.3,Win32,178.5714286,,,,,,,,,,,,,,,,,,,,,,,,,,,,,,,,,,,334.9953,,,,,,,,,,,,,,,,,,,,,,,,,,,,,,,,,[840],0,0,0,0,1,,,,
,,,,5f4c49b249b99c1462dd2640,A,2024-05-17_23h40.41.754,Slot Machine Game,2023.1.3,Win32,178.5714286,,,,,,,,,,,,,,,,,,,,,,,,,,,100,,,,,,,,,,,,,,,,,,,,,2,5,"[5,15]","[[1,2,3],[3,1,2]]",340.0012,0,right,1.089,,0.5,0.3,"[1,2,3]",0.039571337,stimuli/card_100_transparent.png,100,0,0,0,0,1,,,,,,,,,,
,,,,5f4c49b249b99c1462dd2640,A,2024-05-17_23h40.41.754,Slot Machine Game,2023.1.3,Win32,178.5714286,,,,,,,,,,,,,,,,,,,,,,,,,,,100,,,,,,,,,,,,,,,,,,,,,2,5,,,342.4011,1,right,0.6258,,1.5,0.3,"[1,2,3]",0.293684918,stimuli/card_0_transparent.png,0,1,0,1,0,1,,,,,,,,,,
,,,,5f4c49b249b99c1462dd2640,A,2024-05-17_23h40.41.754,Slot Machine Game,2023.1.3,Win32,178.5714286,,,,,,,,,,,,,,,,,,,,,,,,,,,100,,,,,,,,,,,,,,,,,,,,,2,5,,,345.34,2,right,0.3248,,0.5,0.3,"[1,2,3]",0.936783615,stimuli/card_0_transparent.png,0,2,0,2,0,1,,,,,,,,,,
,,,,5f4c49b249b99c1462dd2640,A,2024-05-17_23h40.41.754,Slot Machine Game,2023.1.3,Win32,178.5714286,,,,,,,,,,,,,,,,,,,,,,,,,,,100,,,,,,,,,,,,,,,,,,,,,2,5,,,346.9789,3,right,0.0614,,1,0.3,"[1,2,3]",0.74371002,stimuli/card_0_transparent.png,0,3,0,3,0,1,,,,,,,,,,
,,,,5f4c49b249b99c1462dd2640,A,2024-05-17_23h40.41.754,Slot Machine Game,2023.1.3,Win32,178.5714286,,,,,,,,,,,,,,,,,,,,,,,,,,,200,,,,,,,,,,,,,,,,,,,,,2,5,,,348.8513,4,left,1.4781,,1.5,0.3,"[1,2,3]",0.396822621,stimuli/card_100_transparent.png,100,4,0,4,0,1,,,,,,,,,,
,,,,5f4c49b249b99c1462dd2640,A,2024-05-17_23h40.41.754,Slot Machine Game,2023.1.3,Win32,178.5714286,,,,,,,,,,,,,,,,,,,,,,,,,,,200,,,,,,,,,,,,,,,,,,,,,2,5,,,352.6346,5,left,0.1527,,0.5,0.3,"[3,1,2]",0.791246952,stimuli/card_0_transparent.png,0,5,0,5,0,1,,,,,,,,,,
,,,,5f4c49b249b99c1462dd2640,A,2024-05-17_23h40.41.754,Slot Machine Game,2023.1.3,Win32,178.5714286,,,,,,,,,,,,,,,,,,,,,,,,,,,200,,,,,,,,,,,,,,,,,,,,,2,5,,,354.0913,6,left,0.4828,,1.5,0.3,"[3,1,2]",0.451721483,stimuli/card_0_transparent.png,0,6,0,6,0,1,,,,,,,,,,
,,,,5f4c49b249b99c1462dd2640,A,2024-05-17_23h40.41.754,Slot Machine Game,2023.1.3,Win32,178.5714286,,,,,,,,,,,,,,,,,,,,,,,,,,,300,,,,,,,,,,,,,,,,,,,,,2,5,,,356.8791,7,up,0.6377,,1,0.3,"[3,1,2]",0.994801274,stimuli/card_100_transparent.png,100,7,0,7,0,1,,,,,,,,,,
,,,,5f4c49b249b99c1462dd2640,A,2024-05-17_23h40.41.754,Slot Machine Game,2023.1.3,Win32,178.5714286,,,,,,,,,,,,,,,,,,,,,,,,,,,300,,,,,,,,,,,,,,,,,,,,,2,5,,,359.3238,8,up,0.1201,,1,0.3,"[3,1,2]",0.032813151,stimuli/card_0_transparent.png,0,8,0,8,0,1,,,,,,,,,,
,,,,5f4c49b249b99c1462dd2640,A,2024-05-17_23h40.41.754,Slot Machine Game,2023.1.3,Win32,178.5714286,,,,,,,,,,,,,,,,,,,,,,,,,,,310,,,,,,,,,,,,,,,,,,,,,2,5,,,361.257,9,up,0.0846,,1,0.3,"[3,1,2]",0.114997183,stimuli/card_10_transparent.png,10,9,0,9,0,1,,,,,,,,,,
,,,,5f4c49b249b99c1462dd2640,A,2024-05-17_23h40.41.754,Slot Machine Game,2023.1.3,Win32,178.5714286,,,,,,,,,,,,,,,,,,,,,,,,,,,410,,,,,,,,,,,,,,,,,,,,,2,5,,,363.1459,10,up,0.1101,,1,0.3,"[3,1,2]",0.688415763,stimuli/card_100_transparent.png,100,10,0,10,0,1,,,,,,,,,,
,,,,5f4c49b249b99c1462dd2640,A,2024-05-17_23h40.41.754,Slot Machine Game,2023.1.3,Win32,178.5714286,,,,,,,,,,,,,,,,,,,,,,,,,,,510,,,,,,,,,,,,,,,,,,,,,2,5,,,365.0682,11,up,0.0097,,1,0.3,"[3,1,2]",0.445775313,stimuli/card_100_transparent.png,100,11,0,11,0,1,,,,,,,,,,
,,,,5f4c49b249b99c1462dd2640,A,2024-05-17_23h40.41.754,Slot Machine Game,2023.1.3,Win32,178.5714286,,,,,,,,,,,,,,,,,,,,,,,,,,,510,,,,,,,,,,,,,,,,,,,,,2,5,,,366.8905,12,up,0.5226,,1,0.3,"[3,1,2]",0.087172504,stimuli/card_0_transparent.png,0,12,0,12,0,1,,,,,,,,,,
,,,,5f4c49b249b99c1462dd2640,A,2024-05-17_23h40.41.754,Slot Machine Game,2023.1.3,Win32,178.5714286,,,,,,,,,,,,,,,,,,,,,,,,,,,610,,,,,,,,,,,,,,,,,,,,,2,5,,,369.2239,13,up,0.2005,,1,0.3,"[3,1,2]",0.321328975,stimuli/card_100_transparent.png,100,13,0,13,0,1,,,,,,,,,,
,,,,5f4c49b249b99c1462dd2640,A,2024-05-17_23h40.41.754,Slot Machine Game,2023.1.3,Win32,178.5714286,,,,,,,,,,,,,,,,,,,,,,,,,,,710,,,,,,,,,,,,,,,,,,,,,2,5,,,371.236,14,up,0.1042,,0.5,0.3,"[3,1,2]",0.665235042,stimuli/card_100_transparent.png,100,14,0,14,0,1,,,,,,,,,,
,,,,5f4c49b249b99c1462dd2640,A,2024-05-17_23h40.41.754,Slot Machine Game,2023.1.3,Win32,178.5714286,,,,,,,,,,,,,,,,,,,,,,,,,,,,,,,,,,,372.6473,,,,,,,,,,,,,,,,,,,,,,,,,,,,,,,,,"[840,710]",1,0,1,0,1,,,,
,,,,5f4c49b249b99c1462dd2640,A,2024-05-17_23h40.41.754,Slot Machine Game,2023.1.3,Win32,178.5714286,,,,,,,,,,,,,,,,,,,,,,,,,,,100,,,,,,,,,,,,,,,,,,,,,3,7,"[9,15]","[[1,3,2],[2,3,1]]",377.6517,0,left,1.811,,0.5,0.3,"[1,3,2]",0.785875117,stimuli/card_100_transparent.png,100,0,0,0,0,1,,,,,,,,,,
,,,,5f4c49b249b99c1462dd2640,A,2024-05-17_23h40.41.754,Slot Machine Game,2023.1.3,Win32,178.5714286,,,,,,,,,,,,,,,,,,,,,,,,,,,110,,,,,,,,,,,,,,,,,,,,,3,7,,,380.7686,1,left,0.4818,,1.5,0.3,"[1,3,2]",0.163923393,stimuli/card_10_transparent.png,10,1,0,1,0,1,,,,,,,,,,
,,,,5f4c49b249b99c1462dd2640,A,2024-05-17_23h40.41.754,Slot Machine Game,2023.1.3,Win32,178.5714286,,,,,,,,,,,,,,,,,,,,,,,,,,,210,,,,,,,,,,,,,,,,,,,,,3,7,,,383.5576,2,left,0.1438,,1.5,0.3,"[1,3,2]",0.677368811,stimuli/card_100_transparent.png,100,2,0,2,0,1,,,,,,,,,,
,,,,5f4c49b249b99c1462dd2640,A,2024-05-17_23h40.41.754,Slot Machine Game,2023.1.3,Win32,178.5714286,,,,,,,,,,,,,,,,,,,,,,,,,,,310,,,,,,,,,,,,,,,,,,,,,3,7,,,386.0019,3,left,0.128,,1,0.3,"[1,3,2]",0.480804479,stimuli/card_100_transparent.png,100,3,0,3,0,1,,,,,,,,,,
,,,,5f4c49b249b99c1462dd2640,A,2024-05-17_23h40.41.754,Slot Machine Game,2023.1.3,Win32,178.5714286,,,,,,,,,,,,,,,,,,,,,,,,,,,320,,,,,,,,,,,,,,,,,,,,,3,7,,,387.9355,4,left,0.3174,,1,0.3,"[1,3,2]",0.118723288,stimuli/card_10_transparent.png,10,4,0,4,0,1,,,,,,,,,,
,,,,5f4c49b249b99c1462dd2640,A,2024-05-17_23h40.41.754,Slot Machine Game,2023.1.3,Win32,178.5714286,,,,,,,,,,,,,,,,,,,,,,,,,,,330,,,,,,,,,,,,,,,,,,,,,3,7,,,390.0577,5,left,0.3907,,1.5,0.3,"[1,3,2]",0.176785801,stimuli/card_10_transparent.png,10,5,0,5,0,1,,,,,,,,,,
,,,,5f4c49b249b99c1462dd2640,A,2024-05-17_23h40.41.754,Slot Machine Game,2023.1.3,Win32,178.5714286,,,,,,,,,,,,,,,,,,,,,,,,,,,430,,,,,,,,,,,,,,,,,,,,,3,7,,,392.7577,6,up,0.5258,,1.5,0.3,"[1,3,2]",0.09495449,stimuli/card_100_transparent.png,100,6,0,6,0,1,,,,,,,,,,
,,,,5f4c49b249b99c1462dd2640,A,2024-05-17_23h40.41.754,Slot Machine Game,2023.1.3,Win32,178.5714286,,,,,,,,,,,,,,,,,,,,,,,,,,,430,,,,,,,,,,,,,,,,,,,,,3,7,,,395.5911,7,up,0.1867,,1.5,0.3,"[1,3,2]",0.623078639,stimuli/card_0_transparent.png,0,7,0,7,0,1,,,,,,,,,,
,,,,5f4c49b249b99c1462dd2640,A,2024-05-17_23h40.41.754,Slot Machine Game,2023.1.3,Win32,178.5714286,,,,,,,,,,,,,,,,,,,,,,,,,,,430,,,,,,,,,,,,,,,,,,,,,3,7,,,398.0802,8,up,0.2527,,1.5,0.3,"[1,3,2]",0.373274692,stimuli/card_0_transparent.png,0,8,0,8,0,1,,,,,,,,,,
,,,,5f4c49b249b99c1462dd2640,A,2024-05-17_23h40.41.754,Slot Machine Game,2023.1.3,Win32,178.5714286,,,,,,,,,,,,,,,,,,,,,,,,,,,530,,,,,,,,,,,,,,,,,,,,,3,7,,,400.6413,9,right,1.7345,,0.5,0.3,"[2,3,1]",0.539401284,stimuli/card_100_transparent.png,100,9,0,9,0,1,,,,,,,,,,
,,,,5f4c49b249b99c1462dd2640,A,2024-05-17_23h40.41.754,Slot Machine Game,2023.1.3,Win32,178.5714286,,,,,,,,,,,,,,,,,,,,,,,,,,,630,,,,,,,,,,,,,,,,,,,,,3,7,,,403.6802,10,right,0.5168,,0.5,0.3,"[2,3,1]",0.844718464,stimuli/card_100_transparent.png,100,10,0,10,0,1,,,,,,,,,,
,,,,5f4c49b249b99c1462dd2640,A,2024-05-17_23h40.41.754,Slot Machine Game,2023.1.3,Win32,178.5714286,,,,,,,,,,,,,,,,,,,,,,,,,,,730,,,,,,,,,,,,,,,,,,,,,3,7,,,405.5081,11,right,0.4454,,1.5,0.3,"[2,3,1]",0.947746588,stimuli/card_100_transparent.png,100,11,0,11,0,1,,,,,,,,,,
,,,,5f4c49b249b99c1462dd2640,A,2024-05-17_23h40.41.754,Slot Machine Game,2023.1.3,Win32,178.5714286,,,,,,,,,,,,,,,,,,,,,,,,,,,830,,,,,,,,,,,,,,,,,,,,,3,7,,,408.2636,12,right,0.2612,,0.5,0.3,"[2,3,1]",0.293676221,stimuli/card_100_transparent.png,100,12,0,12,0,1,,,,,,,,,,
,,,,5f4c49b249b99c1462dd2640,A,2024-05-17_23h40.41.754,Slot Machine Game,2023.1.3,Win32,178.5714286,,,,,,,,,,,,,,,,,,,,,,,,,,,930,,,,,,,,,,,,,,,,,,,,,3,7,,,409.8369,13,right,0.639,,1,0.3,"[2,3,1]",0.905563207,stimuli/card_100_transparent.png,100,13,0,13,0,1,,,,,,,,,,
,,,,5f4c49b249b99c1462dd2640,A,2024-05-17_23h40.41.754,Slot Machine Game,2023.1.3,Win32,178.5714286,,,,,,,,,,,,,,,,,,,,,,,,,,,1030,,,,,,,,,,,,,,,,,,,,,3,7,,,412.286,14,right,0.1611,,1,0.3,"[2,3,1]",0.203876062,stimuli/card_100_transparent.png,100,14,0,14,0,1,,,,,,,,,,
,,,,5f4c49b249b99c1462dd2640,A,2024-05-17_23h40.41.754,Slot Machine Game,2023.1.3,Win32,178.5714286,,,,,,,,,,,,,,,,,,,,,,,,,,,,,,,,,,,414.2637,,,,,,,,,,,,,,,,,,,,,,,,,,,,,,,,,"[840,710,1030]",2,0,2,0,1,,,,
,,,,5f4c49b249b99c1462dd2640,A,2024-05-17_23h40.41.754,Slot Machine Game,2023.1.3,Win32,178.5714286,,,,,,,,,,,,,,,,,,,,,,,,,,,100,,,,,,,,,,,,,,,,,,,,,4,4,"[7,15]","[[2,3,1],[1,2,3]]",419.2704,0,right,1.4935,,1.5,0.3,"[2,3,1]",0.300064988,stimuli/card_100_transparent.png,100,0,0,0,0,1,,,,,,,,,,
,,,,5f4c49b249b99c1462dd2640,A,2024-05-17_23h40.41.754,Slot Machine Game,2023.1.3,Win32,178.5714286,,,,,,,,,,,,,,,,,,,,,,,,,,,110,,,,,,,,,,,,,,,,,,,,,4,4,,,423.0695,1,right,1.7018,,1.5,0.3,"[2,3,1]",0.190676037,stimuli/card_10_transparent.png,10,1,0,1,0,1,,,,,,,,,,
,,,,5f4c49b249b99c1462dd2640,A,2024-05-17_23h40.41.754,Slot Machine Game,2023.1.3,Win32,178.5714286,,,,,,,,,,,,,,,,,,,,,,,,,,,210,,,,,,,,,,,,,,,,,,,,,4,4,,,427.0807,2,right,0.174,,1,0.3,"[2,3,1]",0.886971896,stimuli/card_100_transparent.png,100,2,0,2,0,1,,,,,,,,,,
,,,,5f4c49b249b99c1462dd2640,A,2024-05-17_23h40.41.754,Slot Machine Game,2023.1.3,Win32,178.5714286,,,,,,,,,,,,,,,,,,,,,,,,,,,310,,,,,,,,,,,,,,,,,,,,,4,4,,,429.0586,3,right,0.0969,,1.5,0.3,"[2,3,1]",0.973422627,stimuli/card_100_transparent.png,100,3,0,3,0,1,,,,,,,,,,
,,,,5f4c49b249b99c1462dd2640,A,2024-05-17_23h40.41.754,Slot Machine Game,2023.1.3,Win32,178.5714286,,,,,,,,,,,,,,,,,,,,,,,,,,,320,,,,,,,,,,,,,,,,,,,,,4,4,,,431.4641,4,right,1.6523,,1,0.3,"[2,3,1]",0.180127544,stimuli/card_10_transparent.png,10,4,0,4,0,1,,,,,,,,,,
,,,,5f4c49b249b99c1462dd2640,A,2024-05-17_23h40.41.754,Slot Machine Game,2023.1.3,Win32,178.5714286,,,,,,,,,,,,,,,,,,,,,,,,,,,420,,,,,,,,,,,,,,,,,,,,,4,4,,,434.9254,5,right,0.3395,,0.5,0.3,"[2,3,1]",0.745161756,stimuli/card_100_transparent.png,100,5,0,5,0,1,,,,,,,,,,
,,,,5f4c49b249b99c1462dd2640,A,2024-05-17_23h40.41.754,Slot Machine Game,2023.1.3,Win32,178.5714286,,,,,,,,,,,,,,,,,,,,,,,,,,,520,,,,,,,,,,,,,,,,,,,,,4,4,,,436.5754,6,right,0.528,,1,0.3,"[2,3,1]",0.772625797,stimuli/card_100_transparent.png,100,6,0,6,0,1,,,,,,,,,,
,,,,5f4c49b249b99c1462dd2640,A,2024-05-17_23h40.41.754,Slot Machine Game,2023.1.3,Win32,178.5714286,,,,,,,,,,,,,,,,,,,,,,,,,,,520,,,,,,,,,,,,,,,,,,,,,4,4,,,438.9153,7,right,0.1134,,1,0.3,"[1,2,3]",0.775158209,stimuli/card_0_transparent.png,0,7,0,7,0,1,,,,,,,,,,
,,,,5f4c49b249b99c1462dd2640,A,2024-05-17_23h40.41.754,Slot Machine Game,2023.1.3,Win32,178.5714286,,,,,,,,,,,,,,,,,,,,,,,,,,,530,,,,,,,,,,,,,,,,,,,,,4,4,,,440.8366,8,up,0.2436,,1,0.3,"[1,2,3]",0.943543025,stimuli/card_10_transparent.png,10,8,0,8,0,1,,,,,,,,,,
,,,,5f4c49b249b99c1462dd2640,A,2024-05-17_23h40.41.754,Slot Machine Game,2023.1.3,Win32,178.5714286,,,,,,,,,,,,,,,,,,,,,,,,,,,540,,,,,,,,,,,,,,,,,,,,,4,4,,,442.8821,9,up,0.6004,,1.5,0.3,"[1,2,3]",0.280944588,stimuli/card_10_transparent.png,10,9,0,9,0,1,,,,,,,,,,
,,,,5f4c49b249b99c1462dd2640,A,2024-05-17_23h40.41.754,Slot Machine Game,2023.1.3,Win32,178.5714286,,,,,,,,,,,,,,,,,,,,,,,,,,,640,,,,,,,,,,,,,,,,,,,,,4,4,,,445.7923,10,left,0.6889,,1.5,0.3,"[1,2,3]",0.728218439,stimuli/card_100_transparent.png,100,10,0,10,0,1,,,,,,,,,,
,,,,5f4c49b249b99c1462dd2640,A,2024-05-17_23h40.41.754,Slot Machine Game,2023.1.3,Win32,178.5714286,,,,,,,,,,,,,,,,,,,,,,,,,,,740,,,,,,,,,,,,,,,,,,,,,4,4,,,448.7933,11,left,0.1268,,0.5,0.3,"[1,2,3]",0.830053962,stimuli/card_100_transparent.png,100,11,0,11,0,1,,,,,,,,,,
,,,,5f4c49b249b99c1462dd2640,A,2024-05-17_23h40.41.754,Slot Machine Game,2023.1.3,Win32,178.5714286,,,,,,,,,,,,,,,,,,,,,,,,,,,840,,,,,,,,,,,,,,,,,,,,,4,4,,,450.2312,12,left,0.2279,,1,0.3,"[1,2,3]",0.558620435,stimuli/card_100_transparent.png,100,12,0,12,0,1,,,,,,,,,,
,,,,5f4c49b249b99c1462dd2640,A,2024-05-17_23h40.41.754,Slot Machine Game,2023.1.3,Win32,178.5714286,,,,,,,,,,,,,,,,,,,,,,,,,,,940,,,,,,,,,,,,,,,,,,,,,4,4,,,452.2702,13,left,0.8992,,1,0.3,"[1,2,3]",0.640293543,stimuli/card_100_transparent.png,100,13,0,13,0,1,,,,,,,,,,
,,,,5f4c49b249b99c1462dd2640,A,2024-05-17_23h40.41.754,Slot Machine Game,2023.1.3,Win32,178.5714286,,,,,,,,,,,,,,,,,,,,,,,,,,,1040,,,,,,,,,,,,,,,,,,,,,4,4,,,454.9757,14,left,1.1395,,0.5,0.3,"[1,2,3]",0.569679784,stimuli/card_100_transparent.png,100,14,0,14,0,1,,,,,,,,,,
,,,,5f4c49b249b99c1462dd2640,A,2024-05-17_23h40.41.754,Slot Machine Game,2023.1.3,Win32,178.5714286,,,,,,,,,,,,,,,,,,,,,,,,,,,,,,,,,,,457.4259,,,,,,,,,,,,,,,,,,,,,,,,,,,,,,,,,"[840,710,1030,1040]",3,0,3,0,1,,,,
,,,,5f4c49b249b99c1462dd2640,A,2024-05-17_23h40.41.754,Slot Machine Game,2023.1.3,Win32,178.5714286,,,,,,,,,,,,,,,,,,,,,,,,,,,0,,,,,,,,,,,,,,,,,,,,,5,6,"[4,10,15]","[[2,3,1],[1,3,2],[3,2,1]]",462.4317,0,up,1.1964,,0.5,0.3,"[2,3,1]",0.361246339,stimuli/card_0_transparent.png,0,0,0,0,0,1,,,,,,,,,,
,,,,5f4c49b249b99c1462dd2640,A,2024-05-17_23h40.41.754,Slot Machine Game,2023.1.3,Win32,178.5714286,,,,,,,,,,,,,,,,,,,,,,,,,,,100,,,,,,,,,,,,,,,,,,,,,5,6,,,464.9426,1,right,0.2958,,1.5,0.3,"[2,3,1]",0.608681461,stimuli/card_100_transparent.png,100,1,0,1,0,1,,,,,,,,,,
,,,,5f4c49b249b99c1462dd2640,A,2024-05-17_23h40.41.754,Slot Machine Game,2023.1.3,Win32,178.5714286,,,,,,,,,,,,,,,,,,,,,,,,,,,200,,,,,,,,,,,,,,,,,,,,,5,6,,,467.5482,2,right,0.2613,,1,0.3,"[2,3,1]",0.861630654,stimuli/card_100_transparent.png,100,2,0,2,0,1,,,,,,,,,,
,,,,5f4c49b249b99c1462dd2640,A,2024-05-17_23h40.41.754,Slot Machine Game,2023.1.3,Win32,178.5714286,,,,,,,,,,,,,,,,,,,,,,,,,,,210,,,,,,,,,,,,,,,,,,,,,5,6,,,469.616,3,right,0.769,,0.5,0.3,"[2,3,1]",0.154884801,stimuli/card_10_transparent.png,10,3,0,3,0,1,,,,,,,,,,
,,,,5f4c49b249b99c1462dd2640,A,2024-05-17_23h40.41.754,Slot Machine Game,2023.1.3,Win32,178.5714286,,,,,,,,,,,,,,,,,,,,,,,,,,,310,,,,,,,,,,,,,,,,,,,,,5,6,,,471.6872,4,right,0.3464,,1.5,0.3,"[1,3,2]",0.192041981,stimuli/card_100_transparent.png,100,4,0,4,0,1,,,,,,,,,,
,,,,5f4c49b249b99c1462dd2640,A,2024-05-17_23h40.41.754,Slot Machine Game,2023.1.3,Win32,178.5714286,,,,,,,,,,,,,,,,,,,,,,,,,,,320,,,,,,,,,,,,,,,,,,,,,5,6,,,474.3429,5,right,0.1667,,1.5,0.3,"[1,3,2]",0.857501162,stimuli/card_10_transparent.png,10,5,0,5,0,1,,,,,,,,,,
,,,,5f4c49b249b99c1462dd2640,A,2024-05-17_23h40.41.754,Slot Machine Game,2023.1.3,Win32,178.5714286,,,,,,,,,,,,,,,,,,,,,,,,,,,330,,,,,,,,,,,,,,,,,,,,,5,6,,,476.8207,6,right,0.1535,,1,0.3,"[1,3,2]",0.464625256,stimuli/card_10_transparent.png,10,6,0,6,0,1,,,,,,,,,,
,,,,5f4c49b249b99c1462dd2640,A,2024-05-17_23h40.41.754,Slot Machine Game,2023.1.3,Win32,178.5714286,,,,,,,,,,,,,,,,,,,,,,,,,,,430,,,,,,,,,,,,,,,,,,,,,5,6,,,478.7819,7,left,0.0568,,1,0.3,"[1,3,2]",0.422792346,stimuli/card_100_transparent.png,100,7,0,7,0,1,,,,,,,,,,
,,,,5f4c49b249b99c1462dd2640,A,2024-05-17_23h40.41.754,Slot Machine Game,2023.1.3,Win32,178.5714286,,,,,,,,,,,,,,,,,,,,,,,,,,,530,,,,,,,,,,,,,,,,,,,,,5,6,,,480.6429,8,left,0.0517,,1,0.3,"[1,3,2]",0.341888711,stimuli/card_100_transparent.png,100,8,0,8,0,1,,,,,,,,,,
,,,,5f4c49b249b99c1462dd2640,A,2024-05-17_23h40.41.754,Slot Machine Game,2023.1.3,Win32,178.5714286,,,,,,,,,,,,,,,,,,,,,,,,,,,530,,,,,,,,,,,,,,,,,,,,,5,6,,,482.5041,9,left,0.447,,0.5,0.3,"[1,3,2]",0.031126269,stimuli/card_0_transparent.png,0,9,0,9,0,1,,,,,,,,,,
,,,,5f4c49b249b99c1462dd2640,A,2024-05-17_23h40.41.754,Slot Machine Game,2023.1.3,Win32,178.5714286,,,,,,,,,,,,,,,,,,,,,,,,,,,530,,,,,,,,,,,,,,,,,,,,,5,6,,,484.2541,10,left,0.9002,,1,0.3,"[3,2,1]",0.937946973,stimuli/card_0_transparent.png,0,10,0,10,0,1,,,,,,,,,,
,,,,5f4c49b249b99c1462dd2640,A,2024-05-17_23h40.41.754,Slot Machine Game,2023.1.3,Win32,178.5714286,,,,,,,,,,,,,,,,,,,,,,,,,,,540,,,,,,,,,,,,,,,,,,,,,5,6,,,486.955,11,up,0.4337,,1.5,0.3,"[3,2,1]",0.647017543,stimuli/card_10_transparent.png,10,11,0,11,0,1,,,,,,,,,,
,,,,5f4c49b249b99c1462dd2640,A,2024-05-17_23h40.41.754,Slot Machine Game,2023.1.3,Win32,178.5714286,,,,,,,,,,,,,,,,,,,,,,,,,,,550,,,,,,,,,,,,,,,,,,,,,5,6,,,489.7043,12,up,0.2728,,1.5,0.3,"[3,2,1]",0.396758921,stimuli/card_10_transparent.png,10,12,0,12,0,1,,,,,,,,,,
,,,,5f4c49b249b99c1462dd2640,A,2024-05-17_23h40.41.754,Slot Machine Game,2023.1.3,Win32,178.5714286,,,,,,,,,,,,,,,,,,,,,,,,,,,650,,,,,,,,,,,,,,,,,,,,,5,6,,,492.2832,13,right,1.1324,,1,0.3,"[3,2,1]",0.71924202,stimuli/card_100_transparent.png,100,13,0,13,0,1,,,,,,,,,,
,,,,5f4c49b249b99c1462dd2640,A,2024-05-17_23h40.41.754,Slot Machine Game,2023.1.3,Win32,178.5714286,,,,,,,,,,,,,,,,,,,,,,,,,,,750,,,,,,,,,,,,,,,,,,,,,5,6,,,495.2211,14,right,0.1578,,0.5,0.3,"[3,2,1]",0.504248634,stimuli/card_100_transparent.png,100,14,0,14,0,1,,,,,,,,,,
,,,,5f4c49b249b99c1462dd2640,A,2024-05-17_23h40.41.754,Slot Machine Game,2023.1.3,Win32,178.5714286,,,,,,,,,,,,,,,,,,,,,,,,,,,,,,,,,,,496.6944,,,,,,,,,,,,,,,,,,,,,,,,,,,,,,,,,"[840,710,1030,1040,750]",4,0,4,0,1,,,,
,,,,5f4c49b249b99c1462dd2640,A,2024-05-17_23h40.41.754,Slot Machine Game,2023.1.3,Win32,178.5714286,,,,,,,,,,,,,,,,,,,,,,,,,,,100,,,,,,,,,,,,,,,,,,,,,6,8,"[11,15]","[[2,1,3],[1,2,3]]",501.6993,0,up,1.0554,,1,0.3,"[2,1,3]",0.469177422,stimuli/card_100_transparent.png,100,0,0,0,0,1,,,,,,,,,,
,,,,5f4c49b249b99c1462dd2640,A,2024-05-17_23h40.41.754,Slot Machine Game,2023.1.3,Win32,178.5714286,,,,,,,,,,,,,,,,,,,,,,,,,,,110,,,,,,,,,,,,,,,,,,,,,6,8,,,504.5602,1,up,0.429,,1,0.3,"[2,1,3]",0.181663389,stimuli/card_10_transparent.png,10,1,0,1,0,1,,,,,,,,,,
,,,,5f4c49b249b99c1462dd2640,A,2024-05-17_23h40.41.754,Slot Machine Game,2023.1.3,Win32,178.5714286,,,,,,,,,,,,,,,,,,,,,,,,,,,210,,,,,,,,,,,,,,,,,,,,,6,8,,,506.7936,2,up,0.5923,,1.5,0.3,"[2,1,3]",0.32231865,stimuli/card_100_transparent.png,100,2,0,2,0,1,,,,,,,,,,
,,,,5f4c49b249b99c1462dd2640,A,2024-05-17_23h40.41.754,Slot Machine Game,2023.1.3,Win32,178.5714286,,,,,,,,,,,,,,,,,,,,,,,,,,,220,,,,,,,,,,,,,,,,,,,,,6,8,,,509.6938,3,up,0.1928,,1.5,0.3,"[2,1,3]",0.111558398,stimuli/card_10_transparent.png,10,3,0,3,0,1,,,,,,,,,,
,,,,5f4c49b249b99c1462dd2640,A,2024-05-17_23h40.41.754,Slot Machine Game,2023.1.3,Win32,178.5714286,,,,,,,,,,,,,,,,,,,,,,,,,,,230,,,,,,,,,,,,,,,,,,,,,6,8,,,512.1937,4,up,1.0325,,1,0.3,"[2,1,3]",0.114084073,stimuli/card_10_transparent.png,10,4,0,4,0,1,,,,,,,,,,
,,,,5f4c49b249b99c1462dd2640,A,2024-05-17_23h40.41.754,Slot Machine Game,2023.1.3,Win32,178.5714286,,,,,,,,,,,,,,,,,,,,,,,,,,,230,,,,,,,,,,,,,,,,,,,,,6,8,,,515.0272,5,right,1.591,,1.5,0.3,"[2,1,3]",0.965919615,stimuli/card_0_transparent.png,0,5,0,5,0,1,,,,,,,,,,
,,,,5f4c49b249b99c1462dd2640,A,2024-05-17_23h40.41.754,Slot Machine Game,2023.1.3,Win32,178.5714286,,,,,,,,,,,,,,,,,,,,,,,,,,,240,,,,,,,,,,,,,,,,,,,,,6,8,,,518.9327,6,left,0.4335,,1.5,0.3,"[2,1,3]",0.521439272,stimuli/card_10_transparent.png,10,6,0,6,0,1,,,,,,,,,,
,,,,5f4c49b249b99c1462dd2640,A,2024-05-17_23h40.41.754,Slot Machine Game,2023.1.3,Win32,178.5714286,,,,,,,,,,,,,,,,,,,,,,,,,,,240,,,,,,,,,,,,,,,,,,,,,6,8,,,521.6717,7,left,0.4168,,1,0.3,"[2,1,3]",0.042436104,stimuli/card_0_transparent.png,0,7,0,7,0,1,,,,,,,,,,
,,,,5f4c49b249b99c1462dd2640,A,2024-05-17_23h40.41.754,Slot Machine Game,2023.1.3,Win32,178.5714286,,,,,,,,,,,,,,,,,,,,,,,,,,,240,,,,,,,,,,,,,,,,,,,,,6,8,,,523.8951,8,right,0.1821,,1.5,0.3,"[2,1,3]",0.40714882,stimuli/card_0_transparent.png,0,8,0,8,0,1,,,,,,,,,,
,,,,5f4c49b249b99c1462dd2640,A,2024-05-17_23h40.41.754,Slot Machine Game,2023.1.3,Win32,178.5714286,,,,,,,,,,,,,,,,,,,,,,,,,,,340,,,,,,,,,,,,,,,,,,,,,6,8,,,526.3884,9,left,2.225,,1.5,0.3,"[2,1,3]",0.185327169,stimuli/card_100_transparent.png,100,9,0,9,0,1,,,,,,,,,,
,,,,5f4c49b249b99c1462dd2640,A,2024-05-17_23h40.41.754,Slot Machine Game,2023.1.3,Win32,178.5714286,,,,,,,,,,,,,,,,,,,,,,,,,,,440,,,,,,,,,,,,,,,,,,,,,6,8,,,530.9163,10,left,0.2412,,1,0.3,"[2,1,3]",0.119615037,stimuli/card_100_transparent.png,100,10,0,10,0,1,,,,,,,,,,
,,,,5f4c49b249b99c1462dd2640,A,2024-05-17_23h40.41.754,Slot Machine Game,2023.1.3,Win32,178.5714286,,,,,,,,,,,,,,,,,,,,,,,,,,,440,,,,,,,,,,,,,,,,,,,,,6,8,,,532.9664,11,left,0.1261,,1.5,0.3,"[1,2,3]",0.049171686,stimuli/card_0_transparent.png,0,11,0,11,0,1,,,,,,,,,,
,,,,5f4c49b249b99c1462dd2640,A,2024-05-17_23h40.41.754,Slot Machine Game,2023.1.3,Win32,178.5714286,,,,,,,,,,,,,,,,,,,,,,,,,,,540,,,,,,,,,,,,,,,,,,,,,6,8,,,535.3998,12,left,0.1114,,0.5,0.3,"[1,2,3]",0.349461601,stimuli/card_100_transparent.png,100,12,0,12,0,1,,,,,,,,,,
,,,,5f4c49b249b99c1462dd2640,A,2024-05-17_23h40.41.754,Slot Machine Game,2023.1.3,Win32,178.5714286,,,,,,,,,,,,,,,,,,,,,,,,,,,640,,,,,,,,,,,,,,,,,,,,,6,8,,,536.822,13,left,0.3443,,1.5,0.3,"[1,2,3]",0.736924908,stimuli/card_100_transparent.png,100,13,0,13,0,1,,,,,,,,,,
,,,,5f4c49b249b99c1462dd2640,A,2024-05-17_23h40.41.754,Slot Machine Game,2023.1.3,Win32,178.5714286,,,,,,,,,,,,,,,,,,,,,,,,,,,740,,,,,,,,,,,,,,,,,,,,,6,8,,,539.4777,14,left,0.1125,,1,0.3,"[1,2,3]",0.771901858,stimuli/card_100_transparent.png,100,14,0,14,0,1,,,,,,,,,,
,,,,5f4c49b249b99c1462dd2640,A,2024-05-17_23h40.41.754,Slot Machine Game,2023.1.3,Win32,178.5714286,,,,,,,,,,,,,,,,,,,,,,,,,,,,,,,,,,,541.3944,,,,,,,,,,,,,,,,,,,,,,,,,,,,,,,,,"[840,710,1030,1040,750,740]",5,0,5,0,1,,,,
,,,,5f4c49b249b99c1462dd2640,A,2024-05-17_23h40.41.754,Slot Machine Game,2023.1.3,Win32,178.5714286,,,,,,,,,,,,,,,,,,,,,,,,,,,100,,,,,,,,,,,,,,,,,,,,,7,9,"[8,15]","[[3,2,1],[3,1,2]]",546.4002,0,right,0.7124,,1,0.3,"[3,2,1]",0.29353274,stimuli/card_100_transparent.png,100,0,0,0,0,1,,,,,,,,,,
,,,,5f4c49b249b99c1462dd2640,A,2024-05-17_23h40.41.754,Slot Machine Game,2023.1.3,Win32,178.5714286,,,,,,,,,,,,,,,,,,,,,,,,,,,100,,,,,,,,,,,,,,,,,,,,,7,9,,,548.9178,1,right,0.3468,,1,0.3,"[3,2,1]",0.047611252,stimuli/card_0_transparent.png,0,1,0,1,0,1,,,,,,,,,,
,,,,5f4c49b249b99c1462dd2640,A,2024-05-17_23h40.41.754,Slot Machine Game,2023.1.3,Win32,178.5714286,,,,,,,,,,,,,,,,,,,,,,,,,,,200,,,,,,,,,,,,,,,,,,,,,7,9,,,551.0724,2,up,0.0115,,1,0.3,"[3,2,1]",0.153845351,stimuli/card_100_transparent.png,100,2,0,2,0,1,,,,,,,,,,
,,,,5f4c49b249b99c1462dd2640,A,2024-05-17_23h40.41.754,Slot Machine Game,2023.1.3,Win32,178.5714286,,,,,,,,,,,,,,,,,,,,,,,,,,,210,,,,,,,,,,,,,,,,,,,,,7,9,,,552.8953,3,up,0.0444,,0.5,0.3,"[3,2,1]",0.494293965,stimuli/card_10_transparent.png,10,3,0,3,0,1,,,,,,,,,,
,,,,5f4c49b249b99c1462dd2640,A,2024-05-17_23h40.41.754,Slot Machine Game,2023.1.3,Win32,178.5714286,,,,,,,,,,,,,,,,,,,,,,,,,,,310,,,,,,,,,,,,,,,,,,,,,7,9,,,554.2558,4,up,0.227,,0.5,0.3,"[3,2,1]",0.12942211,stimuli/card_100_transparent.png,100,4,0,4,0,1,,,,,,,,,,
,,,,5f4c49b249b99c1462dd2640,A,2024-05-17_23h40.41.754,Slot Machine Game,2023.1.3,Win32,178.5714286,,,,,,,,,,,,,,,,,,,,,,,,,,,320,,,,,,,,,,,,,,,,,,,,,7,9,,,555.7902,5,up,0.0918,,0.5,0.3,"[3,2,1]",0.276414427,stimuli/card_10_transparent.png,10,5,0,5,0,1,,,,,,,,,,
,,,,5f4c49b249b99c1462dd2640,A,2024-05-17_23h40.41.754,Slot Machine Game,2023.1.3,Win32,178.5714286,,,,,,,,,,,,,,,,,,,,,,,,,,,330,,,,,,,,,,,,,,,,,,,,,7,9,,,557.1948,6,up,0.1595,,0.5,0.3,"[3,2,1]",0.295527366,stimuli/card_10_transparent.png,10,6,0,6,0,1,,,,,,,,,,
,,,,5f4c49b249b99c1462dd2640,A,2024-05-17_23h40.41.754,Slot Machine Game,2023.1.3,Win32,178.5714286,,,,,,,,,,,,,,,,,,,,,,,,,,,340,,,,,,,,,,,,,,,,,,,,,7,9,,,558.6624,7,up,1.3057,,1.5,0.3,"[3,2,1]",0.848153438,stimuli/card_10_transparent.png,10,7,0,7,0,1,,,,,,,,,,
,,,,5f4c49b249b99c1462dd2640,A,2024-05-17_23h40.41.754,Slot Machine Game,2023.1.3,Win32,178.5714286,,,,,,,,,,,,,,,,,,,,,,,,,,,350,,,,,,,,,,,,,,,,,,,,,7,9,,,562.2738,8,up,0.0836,,1.5,0.3,"[3,1,2]",0.149289387,stimuli/card_10_transparent.png,10,8,0,8,0,1,,,,,,,,,,
,,,,5f4c49b249b99c1462dd2640,A,2024-05-17_23h40.41.754,Slot Machine Game,2023.1.3,Win32,178.5714286,,,,,,,,,,,,,,,,,,,,,,,,,,,450,,,,,,,,,,,,,,,,,,,,,7,9,,,564.6727,9,left,1.3568,,1,0.3,"[3,1,2]",0.075078281,stimuli/card_100_transparent.png,100,9,0,9,0,1,,,,,,,,,,
,,,,5f4c49b249b99c1462dd2640,A,2024-05-17_23h40.41.754,Slot Machine Game,2023.1.3,Win32,178.5714286,,,,,,,,,,,,,,,,,,,,,,,,,,,450,,,,,,,,,,,,,,,,,,,,,7,9,,,567.8394,10,left,0.1893,,0.5,0.3,"[3,1,2]",0.652877037,stimuli/card_0_transparent.png,0,10,0,10,0,1,,,,,,,,,,
,,,,5f4c49b249b99c1462dd2640,A,2024-05-17_23h40.41.754,Slot Machine Game,2023.1.3,Win32,178.5714286,,,,,,,,,,,,,,,,,,,,,,,,,,,450,,,,,,,,,,,,,,,,,,,,,7,9,,,569.3405,11,left,0.1613,,0.5,0.3,"[3,1,2]",0.588058877,stimuli/card_0_transparent.png,0,11,0,11,0,1,,,,,,,,,,
,,,,5f4c49b249b99c1462dd2640,A,2024-05-17_23h40.41.754,Slot Machine Game,2023.1.3,Win32,178.5714286,,,,,,,,,,,,,,,,,,,,,,,,,,,550,,,,,,,,,,,,,,,,,,,,,7,9,,,570.8117,12,up,1.3798,,0.5,0.3,"[3,1,2]",0.229449986,stimuli/card_100_transparent.png,100,12,0,12,0,1,,,,,,,,,,
,,,,5f4c49b249b99c1462dd2640,A,2024-05-17_23h40.41.754,Slot Machine Game,2023.1.3,Win32,178.5714286,,,,,,,,,,,,,,,,,,,,,,,,,,,650,,,,,,,,,,,,,,,,,,,,,7,9,,,573.5006,13,up,0.2767,,1.5,0.3,"[3,1,2]",0.477627704,stimuli/card_100_transparent.png,100,13,0,13,0,1,,,,,,,,,,
,,,,5f4c49b249b99c1462dd2640,A,2024-05-17_23h40.41.754,Slot Machine Game,2023.1.3,Win32,178.5714286,,,,,,,,,,,,,,,,,,,,,,,,,,,750,,,,,,,,,,,,,,,,,,,,,7,9,,,576.0785,14,up,0.0277,,0.5,0.3,"[3,1,2]",0.91291508,stimuli/card_100_transparent.png,100,14,0,14,0,1,,,,,,,,,,
,,,,5f4c49b249b99c1462dd2640,A,2024-05-17_23h40.41.754,Slot Machine Game,2023.1.3,Win32,178.5714286,,,,,,,,,,,,,,,,,,,,,,,,,,,,,,,,,,,577.4183,,,,,,,,,,,,,,,,,,,,,,,,,,,,,,,,,"[840,710,1030,1040,750,740,750]",6,0,6,0,1,,,,
,,,,5f4c49b249b99c1462dd2640,A,2024-05-17_23h40.41.754,Slot Machine Game,2023.1.3,Win32,178.5714286,,,,,,,,,,,,,,,,,,,,,,,,,,,10,,,,,,,,,,,,,,,,,,,,,8,2,"[6,15]","[[1,3,2],[3,2,1]]",582.4231,0,right,1.0059,,0.5,0.3,"[1,3,2]",0.795365216,stimuli/card_10_transparent.png,10,0,0,0,0,1,,,,,,,,,,
,,,,5f4c49b249b99c1462dd2640,A,2024-05-17_23h40.41.754,Slot Machine Game,2023.1.3,Win32,178.5714286,,,,,,,,,,,,,,,,,,,,,,,,,,,20,,,,,,,,,,,,,,,,,,,,,8,2,,,584.7464,1,right,0.5891,,0.5,0.3,"[1,3,2]",0.921688206,stimuli/card_10_transparent.png,10,1,0,1,0,1,,,,,,,,,,
,,,,5f4c49b249b99c1462dd2640,A,2024-05-17_23h40.41.754,Slot Machine Game,2023.1.3,Win32,178.5714286,,,,,,,,,,,,,,,,,,,,,,,,,,,20,,,,,,,,,,,,,,,,,,,,,8,2,,,586.6454,2,up,0.5639,,0.5,0.3,"[1,3,2]",0.347382413,stimuli/card_0_transparent.png,0,2,0,2,0,1,,,,,,,,,,
,,,,5f4c49b249b99c1462dd2640,A,2024-05-17_23h40.41.754,Slot Machine Game,2023.1.3,Win32,178.5714286,,,,,,,,,,,,,,,,,,,,,,,,,,,30,,,,,,,,,,,,,,,,,,,,,8,2,,,588.512,3,left,0.1902,,1,0.3,"[1,3,2]",0.104451201,stimuli/card_10_transparent.png,10,3,0,3,0,1,,,,,,,,,,
,,,,5f4c49b249b99c1462dd2640,A,2024-05-17_23h40.41.754,Slot Machine Game,2023.1.3,Win32,178.5714286,,,,,,,,,,,,,,,,,,,,,,,,,,,30,,,,,,,,,,,,,,,,,,,,,8,2,,,590.5066,4,up,0.0845,,1.5,0.3,"[1,3,2]",0.484616383,stimuli/card_0_transparent.png,0,4,0,4,0,1,,,,,,,,,,
,,,,5f4c49b249b99c1462dd2640,A,2024-05-17_23h40.41.754,Slot Machine Game,2023.1.3,Win32,178.5714286,,,,,,,,,,,,,,,,,,,,,,,,,,,130,,,,,,,,,,,,,,,,,,,,,8,2,,,592.9066,5,left,0.9901,,1.5,0.3,"[1,3,2]",0.315491171,stimuli/card_100_transparent.png,100,5,0,5,0,1,,,,,,,,,,
,,,,5f4c49b249b99c1462dd2640,A,2024-05-17_23h40.41.754,Slot Machine Game,2023.1.3,Win32,178.5714286,,,,,,,,,,,,,,,,,,,,,,,,,,,130,,,,,,,,,,,,,,,,,,,,,8,2,,,596.2013,6,left,0.2398,,0.5,0.3,"[3,2,1]",0.973348202,stimuli/card_0_transparent.png,0,6,0,6,0,1,,,,,,,,,,
,,,,5f4c49b249b99c1462dd2640,A,2024-05-17_23h40.41.754,Slot Machine Game,2023.1.3,Win32,178.5714286,,,,,,,,,,,,,,,,,,,,,,,,,,,140,,,,,,,,,,,,,,,,,,,,,8,2,,,597.7578,7,left,0.4379,,1.5,0.3,"[3,2,1]",0.115781097,stimuli/card_10_transparent.png,10,7,0,7,0,1,,,,,,,,,,
,,,,5f4c49b249b99c1462dd2640,A,2024-05-17_23h40.41.754,Slot Machine Game,2023.1.3,Win32,178.5714286,,,,,,,,,,,,,,,,,,,,,,,,,,,150,,,,,,,,,,,,,,,,,,,,,8,2,,,600.5022,8,right,0.3849,,1,0.3,"[3,2,1]",0.196570711,stimuli/card_10_transparent.png,10,8,0,8,0,1,,,,,,,,,,
,,,,5f4c49b249b99c1462dd2640,A,2024-05-17_23h40.41.754,Slot Machine Game,2023.1.3,Win32,178.5714286,,,,,,,,,,,,,,,,,,,,,,,,,,,160,,,,,,,,,,,,,,,,,,,,,8,2,,,602.7014,9,right,0.0852,,0.5,0.3,"[3,2,1]",0.146809726,stimuli/card_10_transparent.png,10,9,0,9,0,1,,,,,,,,,,
,,,,5f4c49b249b99c1462dd2640,A,2024-05-17_23h40.41.754,Slot Machine Game,2023.1.3,Win32,178.5714286,,,,,,,,,,,,,,,,,,,,,,,,,,,170,,,,,,,,,,,,,,,,,,,,,8,2,,,604.098,10,left,0.4848,,1.5,0.3,"[3,2,1]",0.130543589,stimuli/card_10_transparent.png,10,10,0,10,0,1,,,,,,,,,,
,,,,5f4c49b249b99c1462dd2640,A,2024-05-17_23h40.41.754,Slot Machine Game,2023.1.3,Win32,178.5714286,,,,,,,,,,,,,,,,,,,,,,,,,,,180,,,,,,,,,,,,,,,,,,,,,8,2,,,606.8902,11,up,0.0233,,1,0.3,"[3,2,1]",0.963926471,stimuli/card_10_transparent.png,10,11,0,11,0,1,,,,,,,,,,
,,,,5f4c49b249b99c1462dd2640,A,2024-05-17_23h40.41.754,Slot Machine Game,2023.1.3,Win32,178.5714286,,,,,,,,,,,,,,,,,,,,,,,,,,,190,,,,,,,,,,,,,,,,,,,,,8,2,,,608.7236,12,up,0.2891,,1.5,0.3,"[3,2,1]",0.871590088,stimuli/card_10_transparent.png,10,12,0,12,0,1,,,,,,,,,,
,,,,5f4c49b249b99c1462dd2640,A,2024-05-17_23h40.41.754,Slot Machine Game,2023.1.3,Win32,178.5714286,,,,,,,,,,,,,,,,,,,,,,,,,,,200,,,,,,,,,,,,,,,,,,,,,8,2,,,611.3182,13,up,0.3849,,1,0.3,"[3,2,1]",0.918149539,stimuli/card_10_transparent.png,10,13,0,13,0,1,,,,,,,,,,
,,,,5f4c49b249b99c1462dd2640,A,2024-05-17_23h40.41.754,Slot Machine Game,2023.1.3,Win32,178.5714286,,,,,,,,,,,,,,,,,,,,,,,,,,,300,,,,,,,,,,,,,,,,,,,,,8,2,,,613.5193,14,right,0.4226,,1,0.3,"[3,2,1]",0.231720839,stimuli/card_100_transparent.png,100,14,0,14,0,1,,,,,,,,,,
,,,,5f4c49b249b99c1462dd2640,A,2024-05-17_23h40.41.754,Slot Machine Game,2023.1.3,Win32,178.5714286,,,,,,,,,,,,,,,,,,,,,,,,,,,,,,,,,,,615.7572,,,,,,,,,,,,,,,,,,,,,,,,,,,,,,,,,"[840,710,1030,1040,750,740,750,300]",7,0,7,0,1,,,,
,,,,5f4c49b249b99c1462dd2640,A,2024-05-17_23h40.41.754,Slot Machine Game,2023.1.3,Win32,178.5714286,,,,,,,,,,,,,,,,,,,,,,,,,,,0,,,,,,,,,,,,,,,,,,,,,9,10,"[10,15]","[[3,1,2],[1,3,2]]",620.7629,0,right,0.361,,1.5,0.3,"[3,1,2]",0.049447155,stimuli/card_0_transparent.png,0,0,0,0,0,1,,,,,,,,,,
,,,,5f4c49b249b99c1462dd2640,A,2024-05-17_23h40.41.754,Slot Machine Game,2023.1.3,Win32,178.5714286,,,,,,,,,,,,,,,,,,,,,,,,,,,100,,,,,,,,,,,,,,,,,,,,,9,10,,,623.4353,1,up,0.0771,,1,0.3,"[3,1,2]",0.647540684,stimuli/card_100_transparent.png,100,1,0,1,0,1,,,,,,,,,,
,,,,5f4c49b249b99c1462dd2640,A,2024-05-17_23h40.41.754,Slot Machine Game,2023.1.3,Win32,178.5714286,,,,,,,,,,,,,,,,,,,,,,,,,,,200,,,,,,,,,,,,,,,,,,,,,9,10,,,625.3184,2,up,0.0117,,1,0.3,"[3,1,2]",0.214284884,stimuli/card_100_transparent.png,100,2,0,2,0,1,,,,,,,,,,
,,,,5f4c49b249b99c1462dd2640,A,2024-05-17_23h40.41.754,Slot Machine Game,2023.1.3,Win32,178.5714286,,,,,,,,,,,,,,,,,,,,,,,,,,,200,,,,,,,,,,,,,,,,,,,,,9,10,,,627.1351,3,up,2.8557,,1.5,0.3,"[3,1,2]",0.079118367,stimuli/card_0_transparent.png,0,3,0,3,0,1,,,,,,,,,,
,,,,5f4c49b249b99c1462dd2640,A,2024-05-17_23h40.41.754,Slot Machine Game,2023.1.3,Win32,178.5714286,,,,,,,,,,,,,,,,,,,,,,,,,,,300,,,,,,,,,,,,,,,,,,,,,9,10,,,632.2974,4,up,0.3783,,1,0.3,"[3,1,2]",0.991054842,stimuli/card_100_transparent.png,100,4,0,4,0,1,,,,,,,,,,
,,,,5f4c49b249b99c1462dd2640,A,2024-05-17_23h40.41.754,Slot Machine Game,2023.1.3,Win32,178.5714286,,,,,,,,,,,,,,,,,,,,,,,,,,,400,,,,,,,,,,,,,,,,,,,,,9,10,,,634.4909,5,up,0.2743,,1.5,0.3,"[3,1,2]",0.328819687,stimuli/card_100_transparent.png,100,5,0,5,0,1,,,,,,,,,,
,,,,5f4c49b249b99c1462dd2640,A,2024-05-17_23h40.41.754,Slot Machine Game,2023.1.3,Win32,178.5714286,,,,,,,,,,,,,,,,,,,,,,,,,,,500,,,,,,,,,,,,,,,,,,,,,9,10,,,637.0687,6,up,0.0527,,1.5,0.3,"[3,1,2]",0.215169646,stimuli/card_100_transparent.png,100,6,0,6,0,1,,,,,,,,,,
,,,,5f4c49b249b99c1462dd2640,A,2024-05-17_23h40.41.754,Slot Machine Game,2023.1.3,Win32,178.5714286,,,,,,,,,,,,,,,,,,,,,,,,,,,600,,,,,,,,,,,,,,,,,,,,,9,10,,,639.4253,7,up,2.8254,,1,0.3,"[3,1,2]",0.93093601,stimuli/card_100_transparent.png,100,7,0,7,0,1,,,,,,,,,,
,,,,5f4c49b249b99c1462dd2640,A,2024-05-17_23h40.41.754,Slot Machine Game,2023.1.3,Win32,178.5714286,,,,,,,,,,,,,,,,,,,,,,,,,,,700,,,,,,,,,,,,,,,,,,,,,9,10,,,644.0577,8,up,0.3928,,1,0.3,"[3,1,2]",0.248763624,stimuli/card_100_transparent.png,100,8,0,8,0,1,,,,,,,,,,
,,,,5f4c49b249b99c1462dd2640,A,2024-05-17_23h40.41.754,Slot Machine Game,2023.1.3,Win32,178.5714286,,,,,,,,,,,,,,,,,,,,,,,,,,,800,,,,,,,,,,,,,,,,,,,,,9,10,,,646.2578,9,up,0.1614,,1.5,0.3,"[3,1,2]",0.789032143,stimuli/card_100_transparent.png,100,9,0,9,0,1,,,,,,,,,,
,,,,5f4c49b249b99c1462dd2640,A,2024-05-17_23h40.41.754,Slot Machine Game,2023.1.3,Win32,178.5714286,,,,,,,,,,,,,,,,,,,,,,,,,,,800,,,,,,,,,,,,,,,,,,,,,9,10,,,648.7301,10,up,1.1935,,0.5,0.3,"[1,3,2]",0.870212455,stimuli/card_0_transparent.png,0,10,0,10,0,1,,,,,,,,,,
,,,,5f4c49b249b99c1462dd2640,A,2024-05-17_23h40.41.754,Slot Machine Game,2023.1.3,Win32,178.5714286,,,,,,,,,,,,,,,,,,,,,,,,,,,800,,,,,,,,,,,,,,,,,,,,,9,10,,,651.2301,11,up,0.0416,,0.5,0.3,"[1,3,2]",0.997394807,stimuli/card_0_transparent.png,0,11,0,11,0,1,,,,,,,,,,
,,,,5f4c49b249b99c1462dd2640,A,2024-05-17_23h40.41.754,Slot Machine Game,2023.1.3,Win32,178.5714286,,,,,,,,,,,,,,,,,,,,,,,,,,,900,,,,,,,,,,,,,,,,,,,,,9,10,,,652.5802,12,left,0.2889,,0.5,0.3,"[1,3,2]",0.532032546,stimuli/card_100_transparent.png,100,12,0,12,0,1,,,,,,,,,,
,,,,5f4c49b249b99c1462dd2640,A,2024-05-17_23h40.41.754,Slot Machine Game,2023.1.3,Win32,178.5714286,,,,,,,,,,,,,,,,,,,,,,,,,,,1000,,,,,,,,,,,,,,,,,,,,,9,10,,,654.1757,13,left,0.0624,,0.5,0.3,"[1,3,2]",0.565759918,stimuli/card_100_transparent.png,100,13,0,13,0,1,,,,,,,,,,
,,,,5f4c49b249b99c1462dd2640,A,2024-05-17_23h40.41.754,Slot Machine Game,2023.1.3,Win32,178.5714286,,,,,,,,,,,,,,,,,,,,,,,,,,,1100,,,,,,,,,,,,,,,,,,,,,9,10,,,655.5525,14,left,0.1822,,1.5,0.3,"[1,3,2]",0.524248558,stimuli/card_100_transparent.png,100,14,0,14,0,1,,,,,,,,,,
,,,,5f4c49b249b99c1462dd2640,A,2024-05-17_23h40.41.754,Slot Machine Game,2023.1.3,Win32,178.5714286,,,,,,,,,,,,,,,,,,,,,,,,,,,,,,,,,,,658.0425,,,,,,,,,,,,,,,,,,,,,,,,,,,,,,,,,"[840,710,1030,1040,750,740,750,300,1100]",8,0,8,0,1,,,,
,,,,5f4c49b249b99c1462dd2640,A,2024-05-17_23h40.41.754,Slot Machine Game,2023.1.3,Win32,178.5714286,,,,,,,,,,,,,,,,,,,,,,,,,,,10,,,,,,,,,,,,,,,,,,,,,10,3,"[15,15]","[[3,1,2],[3,1,2]]",663.047,0,right,0.5341,,0.5,0.3,"[3,1,2]",0.610617415,stimuli/card_10_transparent.png,10,0,0,0,0,1,,,,,,,,,,
,,,,5f4c49b249b99c1462dd2640,A,2024-05-17_23h40.41.754,Slot Machine Game,2023.1.3,Win32,178.5714286,,,,,,,,,,,,,,,,,,,,,,,,,,,10,,,,,,,,,,,,,,,,,,,,,10,3,,,664.886,1,left,0.9585,,1,0.3,"[3,1,2]",0.953563227,stimuli/card_0_transparent.png,0,1,0,1,0,1,,,,,,,,,,
,,,,5f4c49b249b99c1462dd2640,A,2024-05-17_23h40.41.754,Slot Machine Game,2023.1.3,Win32,178.5714286,,,,,,,,,,,,,,,,,,,,,,,,,,,110,,,,,,,,,,,,,,,,,,,,,10,3,,,667.6527,2,up,0.6083,,1,0.3,"[3,1,2]",0.685144999,stimuli/card_100_transparent.png,100,2,0,2,0,1,,,,,,,,,,
,,,,5f4c49b249b99c1462dd2640,A,2024-05-17_23h40.41.754,Slot Machine Game,2023.1.3,Win32,178.5714286,,,,,,,,,,,,,,,,,,,,,,,,,,,110,,,,,,,,,,,,,,,,,,,,,10,3,,,670.0759,3,up,0.0178,,1.5,0.3,"[3,1,2]",0.023496402,stimuli/card_0_transparent.png,0,3,0,3,0,1,,,,,,,,,,
,,,,5f4c49b249b99c1462dd2640,A,2024-05-17_23h40.41.754,Slot Machine Game,2023.1.3,Win32,178.5714286,,,,,,,,,,,,,,,,,,,,,,,,,,,210,,,,,,,,,,,,,,,,,,,,,10,3,,,672.4027,4,up,1.1724,,1,0.3,"[3,1,2]",0.447875372,stimuli/card_100_transparent.png,100,4,0,4,0,1,,,,,,,,,,
,,,,5f4c49b249b99c1462dd2640,A,2024-05-17_23h40.41.754,Slot Machine Game,2023.1.3,Win32,178.5714286,,,,,,,,,,,,,,,,,,,,,,,,,,,310,,,,,,,,,,,,,,,,,,,,,10,3,,,675.3872,5,up,0.2169,,1,0.3,"[3,1,2]",0.594906733,stimuli/card_100_transparent.png,100,5,0,5,0,1,,,,,,,,,,
,,,,5f4c49b249b99c1462dd2640,A,2024-05-17_23h40.41.754,Slot Machine Game,2023.1.3,Win32,178.5714286,,,,,,,,,,,,,,,,,,,,,,,,,,,310,,,,,,,,,,,,,,,,,,,,,10,3,,,677.4085,6,up,0.4187,,1,0.3,"[3,1,2]",0.09775494,stimuli/card_0_transparent.png,0,6,0,6,0,1,,,,,,,,,,
,,,,5f4c49b249b99c1462dd2640,A,2024-05-17_23h40.41.754,Slot Machine Game,2023.1.3,Win32,178.5714286,,,,,,,,,,,,,,,,,,,,,,,,,,,410,,,,,,,,,,,,,,,,,,,,,10,3,,,679.6419,7,up,0.5318,,1.5,0.3,"[3,1,2]",0.429067315,stimuli/card_100_transparent.png,100,7,0,7,0,1,,,,,,,,,,
,,,,5f4c49b249b99c1462dd2640,A,2024-05-17_23h40.41.754,Slot Machine Game,2023.1.3,Win32,178.5714286,,,,,,,,,,,,,,,,,,,,,,,,,,,410,,,,,,,,,,,,,,,,,,,,,10,3,,,682.4808,8,up,0.0884,,1,0.3,"[3,1,2]",0.082738032,stimuli/card_0_transparent.png,0,8,0,8,0,1,,,,,,,,,,
,,,,5f4c49b249b99c1462dd2640,A,2024-05-17_23h40.41.754,Slot Machine Game,2023.1.3,Win32,178.5714286,,,,,,,,,,,,,,,,,,,,,,,,,,,420,,,,,,,,,,,,,,,,,,,,,10,3,,,684.3819,9,up,0.0202,,0.5,0.3,"[3,1,2]",0.174647341,stimuli/card_10_transparent.png,10,9,0,9,0,1,,,,,,,,,,
,,,,5f4c49b249b99c1462dd2640,A,2024-05-17_23h40.41.754,Slot Machine Game,2023.1.3,Win32,178.5714286,,,,,,,,,,,,,,,,,,,,,,,,,,,430,,,,,,,,,,,,,,,,,,,,,10,3,,,685.7148,10,right,0.5865,,1,0.3,"[3,1,2]",0.395010934,stimuli/card_10_transparent.png,10,10,0,10,0,1,,,,,,,,,,
,,,,5f4c49b249b99c1462dd2640,A,2024-05-17_23h40.41.754,Slot Machine Game,2023.1.3,Win32,178.5714286,,,,,,,,,,,,,,,,,,,,,,,,,,,440,,,,,,,,,,,,,,,,,,,,,10,3,,,688.1087,11,right,0.4975,,0.5,0.3,"[3,1,2]",0.990665887,stimuli/card_10_transparent.png,10,11,0,11,0,1,,,,,,,,,,
,,,,5f4c49b249b99c1462dd2640,A,2024-05-17_23h40.41.754,Slot Machine Game,2023.1.3,Win32,178.5714286,,,,,,,,,,,,,,,,,,,,,,,,,,,440,,,,,,,,,,,,,,,,,,,,,10,3,,,689.9199,12,left,0.0198,,1,0.3,"[3,1,2]",0.277710219,stimuli/card_0_transparent.png,0,12,0,12,0,1,,,,,,,,,,
,,,,5f4c49b249b99c1462dd2640,A,2024-05-17_23h40.41.754,Slot Machine Game,2023.1.3,Win32,178.5714286,,,,,,,,,,,,,,,,,,,,,,,,,,,440,,,,,,,,,,,,,,,,,,,,,10,3,,,691.7477,13,left,0.6724,,0.5,0.3,"[3,1,2]",0.293434646,stimuli/card_0_transparent.png,0,13,0,13,0,1,,,,,,,,,,
,,,,5f4c49b249b99c1462dd2640,A,2024-05-17_23h40.41.754,Slot Machine Game,2023.1.3,Win32,178.5714286,,,,,,,,,,,,,,,,,,,,,,,,,,,540,,,,,,,,,,,,,,,,,,,,,10,3,,,693.7265,14,up,0.4253,,0.5,0.3,"[3,1,2]",0.45131434,stimuli/card_100_transparent.png,100,14,0,14,0,1,,,,,,,,,,
,,,,5f4c49b249b99c1462dd2640,A,2024-05-17_23h40.41.754,Slot Machine Game,2023.1.3,Win32,178.5714286,,,,,,,,,,,,,,,,,,,,,,,,,,,,,,,,,,,695.4645,,,,,,,,,,,,,,,,,,,,,,,,,,,,,,,,,"[840,710,1030,1040,750,740,750,300,1100,540]",9,0,9,0,1,,,,
,,,,5f4c49b249b99c1462dd2640,A,2024-05-17_23h40.41.754,Slot Machine Game,2023.1.3,Win32,178.5714286,,,,,,,,,,,,,,,,,,,,,,,,,,,,,,,,,,,,,,,,,,,,,,,,,,,,,,,,,,,,,,,,,,,,,,,,,,9,"[840,710,1030,1040,750,740,750,300,1100,540]",7.4,2024-05-17_23h52.26.273
