key_resp_welcome_started,key_resp_welcome_keys,key_resp_welcome_rt,key_resp_welcome_duration,prolific_pid,path_id,date,expName,psychopyVersion,OS,frameRate,key_resp_instruction1_started,key_resp_instruction1_keys,key_resp_instruction1_rt,key_resp_instruction1_duration,key_resp_instruction2_started,key_resp_instruction2_keys,key_resp_instruction2_rt,key_resp_instruction2_duration,key_resp_instruction3_started,key_resp_instruction3_keys,key_resp_instruction3_rt,key_resp_instruction3_duration,key_resp_instruction4_started,key_resp_instruction4_keys,key_resp_instruction4_rt,key_resp_instruction4_duration,practiceCondition,practice_reward_seqs,practice_trial_started,practice_trial_num,practice_resp_rt,practice_keypress_time,practice_resp_keys,prac_presentationInterval,practice_reward_seq,reward_img,cumulative_reward,trial_reward,practice_trials.thisRepN,practice_trials.thisTrialN,practice_trials.thisN,practice_trials.thisIndex,practice_trials.ran,block_break_started,practice_end_time,practice_end_keys,practice_end_rt,practice_end_duration,main_instruction_text_started,block_condition,block_order_indices,main_instruction_keys,main_instruction_rt,main_instruction_duration,block_number,block_assignment,current_condition,main_reward_seqs,main_trial_started,main_trial_num,main_trial_keys,main_trial_rt,main_trial_keypress_time,main_presentationInterval,reward_presentation_time,main_reward_seq,reward_rand_val,main_reward_img,current_reward,main_trials.thisRepN,main_trials.thisTrialN,main_trials.thisN,main_trials.thisIndex,main_trials.ran,block_reward,block.thisRepN,block.thisTrialN,block.thisN,block.thisIndex,block.ran,block_reward.length,block_reward_all,reward_amount,date_end_task
0.0008,space,3.0361,,666096aa3e8745239c08f8b1,B,2024-08-22_15h55.13.652,Slot Machine Game,2023.1.3,Linux x86_64,29.85074627,,,,,,,,,,,,,,,,,,,,,,,,,,,,,,,,,,,,,,,,,,,,,,,,,,,,,,,,,,,,,,,,,,,,,,,,,,
,,,,666096aa3e8745239c08f8b1,B,2024-08-22_15h55.13.652,Slot Machine Game,2023.1.3,Linux x86_64,29.85074627,3.0866,space,7.6174,,,,,,,,,,,,,,,,,,,,,,,,,,,,,,,,,,,,,,,,,,,,,,,,,,,,,,,,,,,,,,,,,,,,,,,
,,,,666096aa3e8745239c08f8b1,B,2024-08-22_15h55.13.652,Slot Machine Game,2023.1.3,Linux x86_64,29.85074627,,,,,10.7453,space,49.6858,,,,,,,,,,,,,,,,,,,,,,,,,,,,,,,,,,,,,,,,,,,,,,,,,,,,,,,,,,,,,,,,,,,
,,,,666096aa3e8745239c08f8b1,B,2024-08-22_15h55.13.652,Slot Machine Game,2023.1.3,Linux x86_64,29.85074627,,,,,,,,,60.4867,space,7.7256,,,,,,,,,,,,,,,,,,,,,,,,,,,,,,,,,,,,,,,,,,,,,,,,,,,,,,,,,,,,,,,
,,,,666096aa3e8745239c08f8b1,B,2024-08-22_15h55.13.652,Slot Machine Game,2023.1.3,Linux x86_64,29.85074627,,,,,,,,,,,,,,,,,,,,,,,,,,,,,,,,,,,,,,,,,,,,,,,,,,,,,,,,,,,,,,,,,,,,,,,,,,
,,,,666096aa3e8745239c08f8b1,B,2024-08-22_15h55.13.652,Slot Machine Game,2023.1.3,Linux x86_64,29.85074627,,,,,,,,,,,,,210.5745,left,3.0778,,,,,,,,,,,,,,,,,,,,,,,,,,,,,,,,,,,,,,,,,,,,,,,,,,,,,,,,,,,
,,,,666096aa3e8745239c08f8b1,B,2024-08-22_15h55.13.652,Slot Machine Game,2023.1.3,Linux x86_64,29.85074627,,,,,,,,,,,,,,,,,"[9,15]","[[2,1,3],[2,3,1]]",213.6998,0,2.986,216.7161,left,1.5,"[2,1,3]",stimuli/card_10_transparent.png,10,10,0,0,0,0,1,,,,,,,,,,,,,,,,,,,,,,,,,,,,,,,,,,,,,,,,,
,,,,666096aa3e8745239c08f8b1,B,2024-08-22_15h55.13.652,Slot Machine Game,2023.1.3,Linux x86_64,29.85074627,,,,,,,,,,,,,,,,,,,218.5171,1,1.0373,219.614,left,1,"[2,1,3]",stimuli/card_100_transparent.png,110,100,1,0,1,0,1,,,,,,,,,,,,,,,,,,,,,,,,,,,,,,,,,,,,,,,,,
,,,,666096aa3e8745239c08f8b1,B,2024-08-22_15h55.13.652,Slot Machine Game,2023.1.3,Linux x86_64,29.85074627,,,,,,,,,,,,,,,,,,,220.9136,2,1.232,222.2115,left,1.5,"[2,1,3]",stimuli/card_100_transparent.png,210,100,2,0,2,0,1,,,,,,,,,,,,,,,,,,,,,,,,,,,,,,,,,,,,,,,,,
,,,,666096aa3e8745239c08f8b1,B,2024-08-22_15h55.13.652,Slot Machine Game,2023.1.3,Linux x86_64,29.85074627,,,,,,,,,,,,,,,,,,,224.0112,3,0.8002,224.8762,left,1.5,"[2,1,3]",stimuli/card_0_transparent.png,210,0,3,0,3,0,1,,,,,,,,,,,,,,,,,,,,,,,,,,,,,,,,,,,,,,,,,
,,,,666096aa3e8745239c08f8b1,B,2024-08-22_15h55.13.652,Slot Machine Game,2023.1.3,Linux x86_64,29.85074627,,,,,,,,,,,,,,,,,,,226.6749,4,0.9997,227.74,left,1.5,"[2,1,3]",stimuli/card_10_transparent.png,220,10,4,0,4,0,1,,,,,,,,,,,,,,,,,,,,,,,,,,,,,,,,,,,,,,,,,
,,,,666096aa3e8745239c08f8b1,B,2024-08-22_15h55.13.652,Slot Machine Game,2023.1.3,Linux x86_64,29.85074627,,,,,,,,,,,,,,,,,,,229.5392,5,1.4355,231.0372,up,0.5,"[2,1,3]",stimuli/card_100_transparent.png,320,100,5,0,5,0,1,,,,,,,,,,,,,,,,,,,,,,,,,,,,,,,,,,,,,,,,,
,,,,666096aa3e8745239c08f8b1,B,2024-08-22_15h55.13.652,Slot Machine Game,2023.1.3,Linux x86_64,29.85074627,,,,,,,,,,,,,,,,,,,231.8376,6,0.9283,232.8368,up,1.5,"[2,1,3]",stimuli/card_100_transparent.png,420,100,6,0,6,0,1,,,,,,,,,,,,,,,,,,,,,,,,,,,,,,,,,,,,,,,,,
,,,,666096aa3e8745239c08f8b1,B,2024-08-22_15h55.13.652,Slot Machine Game,2023.1.3,Linux x86_64,29.85074627,,,,,,,,,,,,,,,,,,,234.6344,7,0.7652,235.4667,up,1,"[2,1,3]",stimuli/card_100_transparent.png,520,100,7,0,7,0,1,,,,,,,,,,,,,,,,,,,,,,,,,,,,,,,,,,,,,,,,,
,,,,666096aa3e8745239c08f8b1,B,2024-08-22_15h55.13.652,Slot Machine Game,2023.1.3,Linux x86_64,29.85074627,,,,,,,,,,,,,,,,,,,236.7663,8,0.9816,237.7983,up,1,"[2,1,3]",stimuli/card_100_transparent.png,620,100,8,0,8,0,1,,,,,,,,,,,,,,,,,,,,,,,,,,,,,,,,,,,,,,,,,
,,,,666096aa3e8745239c08f8b1,B,2024-08-22_15h55.13.652,Slot Machine Game,2023.1.3,Linux x86_64,29.85074627,,,,,,,,,,,,,,,,,,,239.0979,9,0.6078,239.7632,up,1,"[2,3,1]",stimuli/card_0_transparent.png,620,0,9,0,9,0,1,,,,,,,,,,,,,,,,,,,,,,,,,,,,,,,,,,,,,,,,,
,,,,666096aa3e8745239c08f8b1,B,2024-08-22_15h55.13.652,Slot Machine Game,2023.1.3,Linux x86_64,29.85074627,,,,,,,,,,,,,,,,,,,241.0625,10,0.7218,241.8277,up,1.5,"[2,3,1]",stimuli/card_0_transparent.png,620,0,10,0,10,0,1,,,,,,,,,,,,,,,,,,,,,,,,,,,,,,,,,,,,,,,,,
,,,,666096aa3e8745239c08f8b1,B,2024-08-22_15h55.13.652,Slot Machine Game,2023.1.3,Linux x86_64,29.85074627,,,,,,,,,,,,,,,,,,,243.6274,11,1.2009,244.8923,right,1.5,"[2,3,1]",stimuli/card_100_transparent.png,720,100,11,0,11,0,1,,,,,,,,,,,,,,,,,,,,,,,,,,,,,,,,,,,,,,,,,
,,,,666096aa3e8745239c08f8b1,B,2024-08-22_15h55.13.652,Slot Machine Game,2023.1.3,Linux x86_64,29.85074627,,,,,,,,,,,,,,,,,,,246.6908,12,0.5333,247.2898,right,1.5,"[2,3,1]",stimuli/card_100_transparent.png,820,100,12,0,12,0,1,,,,,,,,,,,,,,,,,,,,,,,,,,,,,,,,,,,,,,,,,
,,,,666096aa3e8745239c08f8b1,B,2024-08-22_15h55.13.652,Slot Machine Game,2023.1.3,Linux x86_64,29.85074627,,,,,,,,,,,,,,,,,,,249.0907,13,,,,1,"[2,3,1]",,,,13,0,13,0,1,,,,,,,,,,,,,,,,,,,,,,,,,,,,,,,,,,,,,,,,,
,,,,666096aa3e8745239c08f8b1,B,2024-08-22_15h55.13.652,Slot Machine Game,2023.1.3,Linux x86_64,29.85074627,,,,,,,,,,,,,,,,,,,254.6256,14,2.9035,257.5811,right,0.5,"[2,3,1]",stimuli/card_100_transparent.png,920,100,14,0,14,0,1,,,,,,,,,,,,,,,,,,,,,,,,,,,,,,,,,,,,,,,,,
,,,,666096aa3e8745239c08f8b1,B,2024-08-22_15h55.13.652,Slot Machine Game,2023.1.3,Linux x86_64,29.85074627,,,,,,,,,,,,,,,,,"[6,15]","[[1,3,2],[3,1,2]]",263.4374,0,1.6425,265.111,right,1,"[1,3,2]",stimuli/card_10_transparent.png,10,10,0,0,0,0,1,258.4068,,,,,,,,,,,,,,,,,,,,,,,,,,,,,,,,,,,,,,,,
,,,,666096aa3e8745239c08f8b1,B,2024-08-22_15h55.13.652,Slot Machine Game,2023.1.3,Linux x86_64,29.85074627,,,,,,,,,,,,,,,,,,,266.4075,1,1.5519,268.0051,right,1.5,"[1,3,2]",stimuli/card_10_transparent.png,20,10,1,0,1,0,1,,,,,,,,,,,,,,,,,,,,,,,,,,,,,,,,,,,,,,,,,
,,,,666096aa3e8745239c08f8b1,B,2024-08-22_15h55.13.652,Slot Machine Game,2023.1.3,Linux x86_64,29.85074627,,,,,,,,,,,,,,,,,,,269.8069,2,0.5889,270.4366,up,1.5,"[1,3,2]",stimuli/card_0_transparent.png,20,0,2,0,2,0,1,,,,,,,,,,,,,,,,,,,,,,,,,,,,,,,,,,,,,,,,,
,,,,666096aa3e8745239c08f8b1,B,2024-08-22_15h55.13.652,Slot Machine Game,2023.1.3,Linux x86_64,29.85074627,,,,,,,,,,,,,,,,,,,272.2368,3,1.2052,273.5007,left,1.5,"[1,3,2]",stimuli/card_0_transparent.png,20,0,3,0,3,0,1,,,,,,,,,,,,,,,,,,,,,,,,,,,,,,,,,,,,,,,,,
,,,,666096aa3e8745239c08f8b1,B,2024-08-22_15h55.13.652,Slot Machine Game,2023.1.3,Linux x86_64,29.85074627,,,,,,,,,,,,,,,,,,,275.3,4,0.6685,276.032,left,1,"[1,3,2]",stimuli/card_100_transparent.png,120,100,4,0,4,0,1,,,,,,,,,,,,,,,,,,,,,,,,,,,,,,,,,,,,,,,,,
,,,,666096aa3e8745239c08f8b1,B,2024-08-22_15h55.13.652,Slot Machine Game,2023.1.3,Linux x86_64,29.85074627,,,,,,,,,,,,,,,,,,,277.3316,5,0.8248,278.1966,left,1,"[1,3,2]",stimuli/card_100_transparent.png,220,100,5,0,5,0,1,,,,,,,,,,,,,,,,,,,,,,,,,,,,,,,,,,,,,,,,,
,,,,666096aa3e8745239c08f8b1,B,2024-08-22_15h55.13.652,Slot Machine Game,2023.1.3,Linux x86_64,29.85074627,,,,,,,,,,,,,,,,,,,279.4966,6,0.5214,280.0617,left,1.5,"[3,1,2]",stimuli/card_100_transparent.png,320,100,6,0,6,0,1,,,,,,,,,,,,,,,,,,,,,,,,,,,,,,,,,,,,,,,,,
,,,,666096aa3e8745239c08f8b1,B,2024-08-22_15h55.13.652,Slot Machine Game,2023.1.3,Linux x86_64,29.85074627,,,,,,,,,,,,,,,,,,,281.861,7,0.5336,282.4595,left,1,"[3,1,2]",stimuli/card_0_transparent.png,320,0,7,0,7,0,1,,,,,,,,,,,,,,,,,,,,,,,,,,,,,,,,,,,,,,,,,
,,,,666096aa3e8745239c08f8b1,B,2024-08-22_15h55.13.652,Slot Machine Game,2023.1.3,Linux x86_64,29.85074627,,,,,,,,,,,,,,,,,,,283.7593,8,0.7192,284.525,left,1.5,"[3,1,2]",stimuli/card_0_transparent.png,320,0,8,0,8,0,1,,,,,,,,,,,,,,,,,,,,,,,,,,,,,,,,,,,,,,,,,
,,,,666096aa3e8745239c08f8b1,B,2024-08-22_15h55.13.652,Slot Machine Game,2023.1.3,Linux x86_64,29.85074627,,,,,,,,,,,,,,,,,,,286.3234,9,0.5364,286.9225,up,1,"[3,1,2]",stimuli/card_10_transparent.png,330,10,9,0,9,0,1,,,,,,,,,,,,,,,,,,,,,,,,,,,,,,,,,,,,,,,,,
,,,,666096aa3e8745239c08f8b1,B,2024-08-22_15h55.13.652,Slot Machine Game,2023.1.3,Linux x86_64,29.85074627,,,,,,,,,,,,,,,,,,,288.2221,10,2.222,290.4859,right,1,"[3,1,2]",stimuli/card_0_transparent.png,330,0,10,0,10,0,1,,,,,,,,,,,,,,,,,,,,,,,,,,,,,,,,,,,,,,,,,
,,,,666096aa3e8745239c08f8b1,B,2024-08-22_15h55.13.652,Slot Machine Game,2023.1.3,Linux x86_64,29.85074627,,,,,,,,,,,,,,,,,,,291.7856,11,3.0988,294.9492,up,0.5,"[3,1,2]",stimuli/card_100_transparent.png,430,100,11,0,11,0,1,,,,,,,,,,,,,,,,,,,,,,,,,,,,,,,,,,,,,,,,,
,,,,666096aa3e8745239c08f8b1,B,2024-08-22_15h55.13.652,Slot Machine Game,2023.1.3,Linux x86_64,29.85074627,,,,,,,,,,,,,,,,,,,295.7488,12,0.7064,296.5148,up,1,"[3,1,2]",stimuli/card_100_transparent.png,530,100,12,0,12,0,1,,,,,,,,,,,,,,,,,,,,,,,,,,,,,,,,,,,,,,,,,
,,,,666096aa3e8745239c08f8b1,B,2024-08-22_15h55.13.652,Slot Machine Game,2023.1.3,Linux x86_64,29.85074627,,,,,,,,,,,,,,,,,,,297.8138,13,2.5119,300.3775,up,1.5,"[3,1,2]",stimuli/card_100_transparent.png,630,100,13,0,13,0,1,,,,,,,,,,,,,,,,,,,,,,,,,,,,,,,,,,,,,,,,,
,,,,666096aa3e8745239c08f8b1,B,2024-08-22_15h55.13.652,Slot Machine Game,2023.1.3,Linux x86_64,29.85074627,,,,,,,,,,,,,,,,,,,302.1769,14,2.9984,305.2466,up,0.5,"[3,1,2]",stimuli/card_100_transparent.png,730,100,14,0,14,0,1,,,,,,,,,,,,,,,,,,,,,,,,,,,,,,,,,,,,,,,,,
,,,,666096aa3e8745239c08f8b1,B,2024-08-22_15h55.13.652,Slot Machine Game,2023.1.3,Linux x86_64,29.85074627,,,,,,,,,,,,,,,,,,,,,,,,,,,,,,,,,,306.0401,311.0362,space,3.1222,,,,,,,,,,,,,,,,,,,,,,,,,,,,,,,,,,,,,
,,,,666096aa3e8745239c08f8b1,B,2024-08-22_15h55.13.652,Slot Machine Game,2023.1.3,Linux x86_64,29.85074627,,,,,,,,,,,,,,,,,,,,,,,,,,,,,,,,,,,,,,,314.2008,1,"[0,1,2,3,4,5,6,7,8,9]",space,3.5951,,,,,,,,,,,,,,,,,,,,,,,,,,,,,,,
,,,,666096aa3e8745239c08f8b1,B,2024-08-22_15h55.13.652,Slot Machine Game,2023.1.3,Linux x86_64,29.85074627,,,,,,,,,,,,,,,,,,,,,,,,,,,10,,,,,,,,,,,,,,,,,,1,1,"[12,15]","[[2,1,3],[2,3,1]]",317.8551,0,left,1.1784,319.0624,1,0.3,"[2,1,3]",0.743260044,stimuli/card_10_transparent.png,10,0,0,0,0,1,,,,,,,,,,
,,,,666096aa3e8745239c08f8b1,B,2024-08-22_15h55.13.652,Slot Machine Game,2023.1.3,Linux x86_64,29.85074627,,,,,,,,,,,,,,,,,,,,,,,,,,,20,,,,,,,,,,,,,,,,,,1,1,,,320.3618,1,left,0.5397,320.9599,1,0.3,"[2,1,3]",0.89589341,stimuli/card_10_transparent.png,10,1,0,1,0,1,,,,,,,,,,
,,,,666096aa3e8745239c08f8b1,B,2024-08-22_15h55.13.652,Slot Machine Game,2023.1.3,Linux x86_64,29.85074627,,,,,,,,,,,,,,,,,,,,,,,,,,,120,,,,,,,,,,,,,,,,,,1,1,,,322.2593,2,up,1.0652,323.3914,1,0.3,"[2,1,3]",0.723588825,stimuli/card_100_transparent.png,100,2,0,2,0,1,,,,,,,,,,
,,,,666096aa3e8745239c08f8b1,B,2024-08-22_15h55.13.652,Slot Machine Game,2023.1.3,Linux x86_64,29.85074627,,,,,,,,,,,,,,,,,,,,,,,,,,,220,,,,,,,,,,,,,,,,,,1,1,,,324.6902,3,up,2.4221,327.1555,0.5,0.3,"[2,1,3]",0.7576231,stimuli/card_100_transparent.png,100,3,0,3,0,1,,,,,,,,,,
,,,,666096aa3e8745239c08f8b1,B,2024-08-22_15h55.13.652,Slot Machine Game,2023.1.3,Linux x86_64,29.85074627,,,,,,,,,,,,,,,,,,,,,,,,,,,320,,,,,,,,,,,,,,,,,,1,1,,,327.9544,4,up,1.4533,329.4523,0.5,0.3,"[2,1,3]",0.375297859,stimuli/card_100_transparent.png,100,4,0,4,0,1,,,,,,,,,,
,,,,666096aa3e8745239c08f8b1,B,2024-08-22_15h55.13.652,Slot Machine Game,2023.1.3,Linux x86_64,29.85074627,,,,,,,,,,,,,,,,,,,,,,,,,,,420,,,,,,,,,,,,,,,,,,1,1,,,330.2525,5,up,0.5016,330.8181,1.5,0.3,"[2,1,3]",0.720568305,stimuli/card_100_transparent.png,100,5,0,5,0,1,,,,,,,,,,
,,,,666096aa3e8745239c08f8b1,B,2024-08-22_15h55.13.652,Slot Machine Game,2023.1.3,Linux x86_64,29.85074627,,,,,,,,,,,,,,,,,,,,,,,,,,,520,,,,,,,,,,,,,,,,,,1,1,,,332.6174,6,up,0.7054,333.3824,1.5,0.3,"[2,1,3]",0.651897878,stimuli/card_100_transparent.png,100,6,0,6,0,1,,,,,,,,,,
,,,,666096aa3e8745239c08f8b1,B,2024-08-22_15h55.13.652,Slot Machine Game,2023.1.3,Linux x86_64,29.85074627,,,,,,,,,,,,,,,,,,,,,,,,,,,620,,,,,,,,,,,,,,,,,,1,1,,,335.1493,7,up,0.6087,335.8141,0.5,0.3,"[2,1,3]",0.684408337,stimuli/card_100_transparent.png,100,7,0,7,0,1,,,,,,,,,,
,,,,666096aa3e8745239c08f8b1,B,2024-08-22_15h55.13.652,Slot Machine Game,2023.1.3,Linux x86_64,29.85074627,,,,,,,,,,,,,,,,,,,,,,,,,,,720,,,,,,,,,,,,,,,,,,1,1,,,336.6131,8,up,1.1223,337.7786,1.5,0.3,"[2,1,3]",0.993107646,stimuli/card_100_transparent.png,100,8,0,8,0,1,,,,,,,,,,
,,,,666096aa3e8745239c08f8b1,B,2024-08-22_15h55.13.652,Slot Machine Game,2023.1.3,Linux x86_64,29.85074627,,,,,,,,,,,,,,,,,,,,,,,,,,,820,,,,,,,,,,,,,,,,,,1,1,,,339.5778,9,up,1.8997,341.5421,0.5,0.3,"[2,1,3]",0.299363686,stimuli/card_100_transparent.png,100,9,0,9,0,1,,,,,,,,,,
,,,,666096aa3e8745239c08f8b1,B,2024-08-22_15h55.13.652,Slot Machine Game,2023.1.3,Linux x86_64,29.85074627,,,,,,,,,,,,,,,,,,,,,,,,,,,920,,,,,,,,,,,,,,,,,,1,1,,,342.3426,10,up,1.0008,343.4079,1,0.3,"[2,1,3]",0.610128435,stimuli/card_100_transparent.png,100,10,0,10,0,1,,,,,,,,,,
,,,,666096aa3e8745239c08f8b1,B,2024-08-22_15h55.13.652,Slot Machine Game,2023.1.3,Linux x86_64,29.85074627,,,,,,,,,,,,,,,,,,,,,,,,,,,1020,,,,,,,,,,,,,,,,,,1,1,,,344.7075,11,up,2.1135,346.8718,0.5,0.3,"[2,1,3]",0.300329203,stimuli/card_100_transparent.png,100,11,0,11,0,1,,,,,,,,,,
,,,,666096aa3e8745239c08f8b1,B,2024-08-22_15h55.13.652,Slot Machine Game,2023.1.3,Linux x86_64,29.85074627,,,,,,,,,,,,,,,,,,,,,,,,,,,1020,,,,,,,,,,,,,,,,,,1,1,,,347.6706,12,up,0.5767,348.3026,1.5,0.3,"[2,3,1]",0.371499759,stimuli/card_0_transparent.png,0,12,0,12,0,1,,,,,,,,,,
,,,,666096aa3e8745239c08f8b1,B,2024-08-22_15h55.13.652,Slot Machine Game,2023.1.3,Linux x86_64,29.85074627,,,,,,,,,,,,,,,,,,,,,,,,,,,1020,,,,,,,,,,,,,,,,,,1,1,,,350.1021,13,up,0.9206,351.0671,1,0.3,"[2,3,1]",0.339550557,stimuli/card_0_transparent.png,0,13,0,13,0,1,,,,,,,,,,
,,,,666096aa3e8745239c08f8b1,B,2024-08-22_15h55.13.652,Slot Machine Game,2023.1.3,Linux x86_64,29.85074627,,,,,,,,,,,,,,,,,,,,,,,,,,,1030,,,,,,,,,,,,,,,,,,1,1,,,352.3666,14,right,0.868,353.2983,1.5,0.3,"[2,3,1]",0.182536434,stimuli/card_10_transparent.png,10,14,0,14,0,1,,,,,,,,,,
,,,,666096aa3e8745239c08f8b1,B,2024-08-22_15h55.13.652,Slot Machine Game,2023.1.3,Linux x86_64,29.85074627,,,,,,,,,,,,,,,,,,,,,,,,,,,,,,,,,,355.0988,,,,,,,,,,,,,,,,,,,,,,,,,,,,,,,[1030],0,0,0,0,1,,,,
,,,,666096aa3e8745239c08f8b1,B,2024-08-22_15h55.13.652,Slot Machine Game,2023.1.3,Linux x86_64,29.85074627,,,,,,,,,,,,,,,,,,,,,,,,,,,0,,,,,,,,,,,,,,,,,,2,2,"[6,15]","[[1,3,2],[3,2,1]]",360.1255,0,up,1.3388,361.4916,1,0.3,"[1,3,2]",0.614066463,stimuli/card_0_transparent.png,0,0,0,0,0,1,,,,,,,,,,
,,,,666096aa3e8745239c08f8b1,B,2024-08-22_15h55.13.652,Slot Machine Game,2023.1.3,Linux x86_64,29.85074627,,,,,,,,,,,,,,,,,,,,,,,,,,,100,,,,,,,,,,,,,,,,,,2,2,,,362.7911,1,left,1.9192,364.7567,1.5,0.3,"[1,3,2]",0.442462349,stimuli/card_100_transparent.png,100,1,0,1,0,1,,,,,,,,,,
,,,,666096aa3e8745239c08f8b1,B,2024-08-22_15h55.13.652,Slot Machine Game,2023.1.3,Linux x86_64,29.85074627,,,,,,,,,,,,,,,,,,,,,,,,,,,200,,,,,,,,,,,,,,,,,,2,2,,,366.5544,2,left,1.7312,368.3521,1,0.3,"[1,3,2]",0.315705977,stimuli/card_100_transparent.png,100,2,0,2,0,1,,,,,,,,,,
,,,,666096aa3e8745239c08f8b1,B,2024-08-22_15h55.13.652,Slot Machine Game,2023.1.3,Linux x86_64,29.85074627,,,,,,,,,,,,,,,,,,,,,,,,,,,210,,,,,,,,,,,,,,,,,,2,2,,,369.6517,3,left,0.949,370.6507,1.5,0.3,"[1,3,2]",0.13453122,stimuli/card_10_transparent.png,10,3,0,3,0,1,,,,,,,,,,
,,,,666096aa3e8745239c08f8b1,B,2024-08-22_15h55.13.652,Slot Machine Game,2023.1.3,Linux x86_64,29.85074627,,,,,,,,,,,,,,,,,,,,,,,,,,,310,,,,,,,,,,,,,,,,,,2,2,,,372.4492,4,left,0.5138,373.0151,1.5,0.3,"[1,3,2]",0.550610552,stimuli/card_100_transparent.png,100,4,0,4,0,1,,,,,,,,,,
,,,,666096aa3e8745239c08f8b1,B,2024-08-22_15h55.13.652,Slot Machine Game,2023.1.3,Linux x86_64,29.85074627,,,,,,,,,,,,,,,,,,,,,,,,,,,410,,,,,,,,,,,,,,,,,,2,2,,,374.8134,5,left,1.5165,376.3784,1,0.3,"[1,3,2]",0.339344206,stimuli/card_100_transparent.png,100,5,0,5,0,1,,,,,,,,,,
,,,,666096aa3e8745239c08f8b1,B,2024-08-22_15h55.13.652,Slot Machine Game,2023.1.3,Linux x86_64,29.85074627,,,,,,,,,,,,,,,,,,,,,,,,,,,410,,,,,,,,,,,,,,,,,,2,2,,,377.6784,6,left,2.2832,380.0086,0.5,0.3,"[3,2,1]",0.544864602,stimuli/card_0_transparent.png,0,6,0,6,0,1,,,,,,,,,,
,,,,666096aa3e8745239c08f8b1,B,2024-08-22_15h55.13.652,Slot Machine Game,2023.1.3,Linux x86_64,29.85074627,,,,,,,,,,,,,,,,,,,,,,,,,,,410,,,,,,,,,,,,,,,,,,2,2,,,380.8089,7,left,1.3029,382.1735,0.5,0.3,"[3,2,1]",0.506405267,stimuli/card_0_transparent.png,0,7,0,7,0,1,,,,,,,,,,
,,,,666096aa3e8745239c08f8b1,B,2024-08-22_15h55.13.652,Slot Machine Game,2023.1.3,Linux x86_64,29.85074627,,,,,,,,,,,,,,,,,,,,,,,,,,,410,,,,,,,,,,,,,,,,,,2,2,,,382.9736,8,left,0.7795,383.7947,1.5,0.3,"[3,2,1]",0.500844686,stimuli/card_0_transparent.png,0,8,0,8,0,1,,,,,,,,,,
,,,,666096aa3e8745239c08f8b1,B,2024-08-22_15h55.13.652,Slot Machine Game,2023.1.3,Linux x86_64,29.85074627,,,,,,,,,,,,,,,,,,,,,,,,,,,510,,,,,,,,,,,,,,,,,,2,2,,,385.5714,9,right,1.0685,386.7034,0.5,0.3,"[3,2,1]",0.4685416,stimuli/card_100_transparent.png,100,9,0,9,0,1,,,,,,,,,,
,,,,666096aa3e8745239c08f8b1,B,2024-08-22_15h55.13.652,Slot Machine Game,2023.1.3,Linux x86_64,29.85074627,,,,,,,,,,,,,,,,,,,,,,,,,,,610,,,,,,,,,,,,,,,,,,2,2,,,387.503,10,right,0.58,388.1355,1.5,0.3,"[3,2,1]",0.277032136,stimuli/card_100_transparent.png,100,10,0,10,0,1,,,,,,,,,,
,,,,666096aa3e8745239c08f8b1,B,2024-08-22_15h55.13.652,Slot Machine Game,2023.1.3,Linux x86_64,29.85074627,,,,,,,,,,,,,,,,,,,,,,,,,,,710,,,,,,,,,,,,,,,,,,2,2,,,389.9343,11,right,0.6077,390.5995,1,0.3,"[3,2,1]",0.94970955,stimuli/card_100_transparent.png,100,11,0,11,0,1,,,,,,,,,,
,,,,666096aa3e8745239c08f8b1,B,2024-08-22_15h55.13.652,Slot Machine Game,2023.1.3,Linux x86_64,29.85074627,,,,,,,,,,,,,,,,,,,,,,,,,,,810,,,,,,,,,,,,,,,,,,2,2,,,391.8993,12,right,0.8009,392.7644,0.5,0.3,"[3,2,1]",0.210486955,stimuli/card_100_transparent.png,100,12,0,12,0,1,,,,,,,,,,
,,,,666096aa3e8745239c08f8b1,B,2024-08-22_15h55.13.652,Slot Machine Game,2023.1.3,Linux x86_64,29.85074627,,,,,,,,,,,,,,,,,,,,,,,,,,,910,,,,,,,,,,,,,,,,,,2,2,,,393.565,13,right,1.1691,394.7968,1,0.3,"[3,2,1]",0.473776788,stimuli/card_100_transparent.png,100,13,0,13,0,1,,,,,,,,,,
,,,,666096aa3e8745239c08f8b1,B,2024-08-22_15h55.13.652,Slot Machine Game,2023.1.3,Linux x86_64,29.85074627,,,,,,,,,,,,,,,,,,,,,,,,,,,1010,,,,,,,,,,,,,,,,,,2,2,,,396.0956,14,right,0.8864,397.0277,1,0.3,"[3,2,1]",0.496096685,stimuli/card_100_transparent.png,100,14,0,14,0,1,,,,,,,,,,
,,,,666096aa3e8745239c08f8b1,B,2024-08-22_15h55.13.652,Slot Machine Game,2023.1.3,Linux x86_64,29.85074627,,,,,,,,,,,,,,,,,,,,,,,,,,,,,,,,,,398.3271,,,,,,,,,,,,,,,,,,,,,,,,,,,,,,,"[1030,1010]",1,0,1,0,1,,,,
,,,,666096aa3e8745239c08f8b1,B,2024-08-22_15h55.13.652,Slot Machine Game,2023.1.3,Linux x86_64,29.85074627,,,,,,,,,,,,,,,,,,,,,,,,,,,10,,,,,,,,,,,,,,,,,,3,3,"[15,15]","[[3,1,2],[3,1,2]]",403.3535,0,right,0.7504,404.1213,0.5,0.3,"[3,1,2]",0.807461258,stimuli/card_10_transparent.png,10,0,0,0,0,1,,,,,,,,,,
,,,,666096aa3e8745239c08f8b1,B,2024-08-22_15h55.13.652,Slot Machine Game,2023.1.3,Linux x86_64,29.85074627,,,,,,,,,,,,,,,,,,,,,,,,,,,110,,,,,,,,,,,,,,,,,,3,3,,,404.9215,1,up,1.0033,405.9864,1.5,0.3,"[3,1,2]",0.507218912,stimuli/card_100_transparent.png,100,1,0,1,0,1,,,,,,,,,,
,,,,666096aa3e8745239c08f8b1,B,2024-08-22_15h55.13.652,Slot Machine Game,2023.1.3,Linux x86_64,29.85074627,,,,,,,,,,,,,,,,,,,,,,,,,,,210,,,,,,,,,,,,,,,,,,3,3,,,407.7863,2,up,0.6218,408.4506,1,0.3,"[3,1,2]",0.452871741,stimuli/card_100_transparent.png,100,2,0,2,0,1,,,,,,,,,,
,,,,666096aa3e8745239c08f8b1,B,2024-08-22_15h55.13.652,Slot Machine Game,2023.1.3,Linux x86_64,29.85074627,,,,,,,,,,,,,,,,,,,,,,,,,,,310,,,,,,,,,,,,,,,,,,3,3,,,409.7507,3,up,0.5153,410.3161,1.5,0.3,"[3,1,2]",0.771887792,stimuli/card_100_transparent.png,100,3,0,3,0,1,,,,,,,,,,
,,,,666096aa3e8745239c08f8b1,B,2024-08-22_15h55.13.652,Slot Machine Game,2023.1.3,Linux x86_64,29.85074627,,,,,,,,,,,,,,,,,,,,,,,,,,,410,,,,,,,,,,,,,,,,,,3,3,,,412.1155,4,up,2.6707,414.8464,1.5,0.3,"[3,1,2]",0.779539084,stimuli/card_100_transparent.png,100,4,0,4,0,1,,,,,,,,,,
,,,,666096aa3e8745239c08f8b1,B,2024-08-22_15h55.13.652,Slot Machine Game,2023.1.3,Linux x86_64,29.85074627,,,,,,,,,,,,,,,,,,,,,,,,,,,510,,,,,,,,,,,,,,,,,,3,3,,,416.6444,5,up,2.8314,419.5428,1,0.3,"[3,1,2]",0.829464601,stimuli/card_100_transparent.png,100,5,0,5,0,1,,,,,,,,,,
,,,,666096aa3e8745239c08f8b1,B,2024-08-22_15h55.13.652,Slot Machine Game,2023.1.3,Linux x86_64,29.85074627,,,,,,,,,,,,,,,,,,,,,,,,,,,610,,,,,,,,,,,,,,,,,,3,3,,,420.841,6,up,1.2149,422.106,1.5,0.3,"[3,1,2]",0.822741132,stimuli/card_100_transparent.png,100,6,0,6,0,1,,,,,,,,,,
,,,,666096aa3e8745239c08f8b1,B,2024-08-22_15h55.13.652,Slot Machine Game,2023.1.3,Linux x86_64,29.85074627,,,,,,,,,,,,,,,,,,,,,,,,,,,710,,,,,,,,,,,,,,,,,,3,3,,,423.905,7,up,0.5742,424.5036,0.5,0.3,"[3,1,2]",0.201243627,stimuli/card_100_transparent.png,100,7,0,7,0,1,,,,,,,,,,
,,,,666096aa3e8745239c08f8b1,B,2024-08-22_15h55.13.652,Slot Machine Game,2023.1.3,Linux x86_64,29.85074627,,,,,,,,,,,,,,,,,,,,,,,,,,,720,,,,,,,,,,,,,,,,,,3,3,,,425.3049,8,up,0.5386,425.9027,1.5,0.3,"[3,1,2]",0.1419698,stimuli/card_10_transparent.png,10,8,0,8,0,1,,,,,,,,,,
,,,,666096aa3e8745239c08f8b1,B,2024-08-22_15h55.13.652,Slot Machine Game,2023.1.3,Linux x86_64,29.85074627,,,,,,,,,,,,,,,,,,,,,,,,,,,820,,,,,,,,,,,,,,,,,,3,3,,,427.7015,9,up,2.5067,430.2658,1.5,0.3,"[3,1,2]",0.334199861,stimuli/card_100_transparent.png,100,9,0,9,0,1,,,,,,,,,,
,,,,666096aa3e8745239c08f8b1,B,2024-08-22_15h55.13.652,Slot Machine Game,2023.1.3,Linux x86_64,29.85074627,,,,,,,,,,,,,,,,,,,,,,,,,,,920,,,,,,,,,,,,,,,,,,3,3,,,432.0647,10,up,1.2349,433.3629,1.5,0.3,"[3,1,2]",0.779433643,stimuli/card_100_transparent.png,100,10,0,10,0,1,,,,,,,,,,
,,,,666096aa3e8745239c08f8b1,B,2024-08-22_15h55.13.652,Slot Machine Game,2023.1.3,Linux x86_64,29.85074627,,,,,,,,,,,,,,,,,,,,,,,,,,,1020,,,,,,,,,,,,,,,,,,3,3,,,435.1617,11,up,0.8115,436.0269,1.5,0.3,"[3,1,2]",0.590138023,stimuli/card_100_transparent.png,100,11,0,11,0,1,,,,,,,,,,
,,,,666096aa3e8745239c08f8b1,B,2024-08-22_15h55.13.652,Slot Machine Game,2023.1.3,Linux x86_64,29.85074627,,,,,,,,,,,,,,,,,,,,,,,,,,,1120,,,,,,,,,,,,,,,,,,3,3,,,437.8261,12,up,0.8681,438.7584,1.5,0.3,"[3,1,2]",0.928745844,stimuli/card_100_transparent.png,100,12,0,12,0,1,,,,,,,,,,
,,,,666096aa3e8745239c08f8b1,B,2024-08-22_15h55.13.652,Slot Machine Game,2023.1.3,Linux x86_64,29.85074627,,,,,,,,,,,,,,,,,,,,,,,,,,,1220,,,,,,,,,,,,,,,,,,3,3,,,440.5569,13,up,0.6677,441.2894,0.5,0.3,"[3,1,2]",0.259671285,stimuli/card_100_transparent.png,100,13,0,13,0,1,,,,,,,,,,
,,,,666096aa3e8745239c08f8b1,B,2024-08-22_15h55.13.652,Slot Machine Game,2023.1.3,Linux x86_64,29.85074627,,,,,,,,,,,,,,,,,,,,,,,,,,,1220,,,,,,,,,,,,,,,,,,3,3,,,442.0898,14,up,0.6496,442.7885,0.5,0.3,"[3,1,2]",0.001546549,stimuli/card_0_transparent.png,0,14,0,14,0,1,,,,,,,,,,
,,,,666096aa3e8745239c08f8b1,B,2024-08-22_15h55.13.652,Slot Machine Game,2023.1.3,Linux x86_64,29.85074627,,,,,,,,,,,,,,,,,,,,,,,,,,,,,,,,,,443.5879,,,,,,,,,,,,,,,,,,,,,,,,,,,,,,,"[1030,1010,1220]",2,0,2,0,1,,,,
,,,,666096aa3e8745239c08f8b1,B,2024-08-22_15h55.13.652,Slot Machine Game,2023.1.3,Linux x86_64,29.85074627,,,,,,,,,,,,,,,,,,,,,,,,,,,10,,,,,,,,,,,,,,,,,,4,4,"[7,15]","[[2,3,1],[1,2,3]]",448.6121,0,left,0.6714,449.3157,0.5,0.3,"[2,3,1]",0.623670403,stimuli/card_10_transparent.png,10,0,0,0,0,1,,,,,,,,,,
,,,,666096aa3e8745239c08f8b1,B,2024-08-22_15h55.13.652,Slot Machine Game,2023.1.3,Linux x86_64,29.85074627,,,,,,,,,,,,,,,,,,,,,,,,,,,110,,,,,,,,,,,,,,,,,,4,4,,,450.1158,1,up,0.6881,450.8478,1,0.3,"[2,3,1]",0.021765842,stimuli/card_100_transparent.png,100,1,0,1,0,1,,,,,,,,,,
,,,,666096aa3e8745239c08f8b1,B,2024-08-22_15h55.13.652,Slot Machine Game,2023.1.3,Linux x86_64,29.85074627,,,,,,,,,,,,,,,,,,,,,,,,,,,110,,,,,,,,,,,,,,,,,,4,4,,,452.1475,2,up,1.0992,453.3125,1.5,0.3,"[2,3,1]",0.363938884,stimuli/card_0_transparent.png,0,2,0,2,0,1,,,,,,,,,,
,,,,666096aa3e8745239c08f8b1,B,2024-08-22_15h55.13.652,Slot Machine Game,2023.1.3,Linux x86_64,29.85074627,,,,,,,,,,,,,,,,,,,,,,,,,,,210,,,,,,,,,,,,,,,,,,4,4,,,455.1116,3,up,0.6995,455.8766,1.5,0.3,"[2,3,1]",0.076960441,stimuli/card_100_transparent.png,100,3,0,3,0,1,,,,,,,,,,
,,,,666096aa3e8745239c08f8b1,B,2024-08-22_15h55.13.652,Slot Machine Game,2023.1.3,Linux x86_64,29.85074627,,,,,,,,,,,,,,,,,,,,,,,,,,,210,,,,,,,,,,,,,,,,,,4,4,,,457.6755,4,up,0.8704,458.6075,1,0.3,"[2,3,1]",0.222623026,stimuli/card_0_transparent.png,0,4,0,4,0,1,,,,,,,,,,
,,,,666096aa3e8745239c08f8b1,B,2024-08-22_15h55.13.652,Slot Machine Game,2023.1.3,Linux x86_64,29.85074627,,,,,,,,,,,,,,,,,,,,,,,,,,,210,,,,,,,,,,,,,,,,,,4,4,,,459.9075,5,up,0.5111,460.4731,0.5,0.3,"[2,3,1]",0.205610775,stimuli/card_0_transparent.png,0,5,0,5,0,1,,,,,,,,,,
,,,,666096aa3e8745239c08f8b1,B,2024-08-22_15h55.13.652,Slot Machine Game,2023.1.3,Linux x86_64,29.85074627,,,,,,,,,,,,,,,,,,,,,,,,,,,310,,,,,,,,,,,,,,,,,,4,4,,,461.2729,6,right,0.7996,462.1379,1,0.3,"[2,3,1]",0.588989,stimuli/card_100_transparent.png,100,6,0,6,0,1,,,,,,,,,,
,,,,666096aa3e8745239c08f8b1,B,2024-08-22_15h55.13.652,Slot Machine Game,2023.1.3,Linux x86_64,29.85074627,,,,,,,,,,,,,,,,,,,,,,,,,,,310,,,,,,,,,,,,,,,,,,4,4,,,463.4376,7,right,0.868,464.3696,1,0.3,"[1,2,3]",0.249051121,stimuli/card_0_transparent.png,0,7,0,7,0,1,,,,,,,,,,
,,,,666096aa3e8745239c08f8b1,B,2024-08-22_15h55.13.652,Slot Machine Game,2023.1.3,Linux x86_64,29.85074627,,,,,,,,,,,,,,,,,,,,,,,,,,,310,,,,,,,,,,,,,,,,,,4,4,,,465.6691,8,right,0.6472,466.3683,0.5,0.3,"[1,2,3]",0.984827384,stimuli/card_0_transparent.png,0,8,0,8,0,1,,,,,,,,,,
,,,,666096aa3e8745239c08f8b1,B,2024-08-22_15h55.13.652,Slot Machine Game,2023.1.3,Linux x86_64,29.85074627,,,,,,,,,,,,,,,,,,,,,,,,,,,410,,,,,,,,,,,,,,,,,,4,4,,,467.1678,9,left,0.6026,467.8332,1,0.3,"[1,2,3]",0.894449535,stimuli/card_100_transparent.png,100,9,0,9,0,1,,,,,,,,,,
,,,,666096aa3e8745239c08f8b1,B,2024-08-22_15h55.13.652,Slot Machine Game,2023.1.3,Linux x86_64,29.85074627,,,,,,,,,,,,,,,,,,,,,,,,,,,510,,,,,,,,,,,,,,,,,,4,4,,,469.1329,10,left,0.9016,470.0979,1.5,0.3,"[1,2,3]",0.480459503,stimuli/card_100_transparent.png,100,10,0,10,0,1,,,,,,,,,,
,,,,666096aa3e8745239c08f8b1,B,2024-08-22_15h55.13.652,Slot Machine Game,2023.1.3,Linux x86_64,29.85074627,,,,,,,,,,,,,,,,,,,,,,,,,,,610,,,,,,,,,,,,,,,,,,4,4,,,471.897,11,left,0.7326,472.6958,0.5,0.3,"[1,2,3]",0.564723843,stimuli/card_100_transparent.png,100,11,0,11,0,1,,,,,,,,,,
,,,,666096aa3e8745239c08f8b1,B,2024-08-22_15h55.13.652,Slot Machine Game,2023.1.3,Linux x86_64,29.85074627,,,,,,,,,,,,,,,,,,,,,,,,,,,710,,,,,,,,,,,,,,,,,,4,4,,,473.4955,12,left,0.634,474.1958,0.5,0.3,"[1,2,3]",0.628094255,stimuli/card_100_transparent.png,100,12,0,12,0,1,,,,,,,,,,
,,,,666096aa3e8745239c08f8b1,B,2024-08-22_15h55.13.652,Slot Machine Game,2023.1.3,Linux x86_64,29.85074627,,,,,,,,,,,,,,,,,,,,,,,,,,,810,,,,,,,,,,,,,,,,,,4,4,,,474.9942,13,left,0.9323,475.9929,1,0.3,"[1,2,3]",0.246363535,stimuli/card_100_transparent.png,100,13,0,13,0,1,,,,,,,,,,
,,,,666096aa3e8745239c08f8b1,B,2024-08-22_15h55.13.652,Slot Machine Game,2023.1.3,Linux x86_64,29.85074627,,,,,,,,,,,,,,,,,,,,,,,,,,,910,,,,,,,,,,,,,,,,,,4,4,,,477.293,14,left,0.5358,477.8912,1,0.3,"[1,2,3]",0.875474183,stimuli/card_100_transparent.png,100,14,0,14,0,1,,,,,,,,,,
,,,,666096aa3e8745239c08f8b1,B,2024-08-22_15h55.13.652,Slot Machine Game,2023.1.3,Linux x86_64,29.85074627,,,,,,,,,,,,,,,,,,,,,,,,,,,,,,,,,,479.1909,,,,,,,,,,,,,,,,,,,,,,,,,,,,,,,"[1030,1010,1220,910]",3,0,3,0,1,,,,
,,,,666096aa3e8745239c08f8b1,B,2024-08-22_15h55.13.652,Slot Machine Game,2023.1.3,Linux x86_64,29.85074627,,,,,,,,,,,,,,,,,,,,,,,,,,,100,,,,,,,,,,,,,,,,,,5,5,"[5,15]","[[1,2,3],[3,1,2]]",484.2177,0,left,1.4011,485.6511,1,0.3,"[1,2,3]",0.656946037,stimuli/card_100_transparent.png,100,0,0,0,0,1,,,,,,,,,,
,,,,666096aa3e8745239c08f8b1,B,2024-08-22_15h55.13.652,Slot Machine Game,2023.1.3,Linux x86_64,29.85074627,,,,,,,,,,,,,,,,,,,,,,,,,,,200,,,,,,,,,,,,,,,,,,5,5,,,486.9514,1,left,0.7013,487.7162,1.5,0.3,"[1,2,3]",0.353618505,stimuli/card_100_transparent.png,100,1,0,1,0,1,,,,,,,,,,
,,,,666096aa3e8745239c08f8b1,B,2024-08-22_15h55.13.652,Slot Machine Game,2023.1.3,Linux x86_64,29.85074627,,,,,,,,,,,,,,,,,,,,,,,,,,,300,,,,,,,,,,,,,,,,,,5,5,,,489.5153,2,left,0.7677,490.3472,0.5,0.3,"[1,2,3]",0.252906581,stimuli/card_100_transparent.png,100,2,0,2,0,1,,,,,,,,,,
,,,,666096aa3e8745239c08f8b1,B,2024-08-22_15h55.13.652,Slot Machine Game,2023.1.3,Linux x86_64,29.85074627,,,,,,,,,,,,,,,,,,,,,,,,,,,400,,,,,,,,,,,,,,,,,,5,5,,,491.1476,3,left,0.5682,491.7792,1.5,0.3,"[1,2,3]",0.919141584,stimuli/card_100_transparent.png,100,3,0,3,0,1,,,,,,,,,,
,,,,666096aa3e8745239c08f8b1,B,2024-08-22_15h55.13.652,Slot Machine Game,2023.1.3,Linux x86_64,29.85074627,,,,,,,,,,,,,,,,,,,,,,,,,,,500,,,,,,,,,,,,,,,,,,5,5,,,493.5783,4,left,0.534,494.178,1.5,0.3,"[1,2,3]",0.76233434,stimuli/card_100_transparent.png,100,4,0,4,0,1,,,,,,,,,,
,,,,666096aa3e8745239c08f8b1,B,2024-08-22_15h55.13.652,Slot Machine Game,2023.1.3,Linux x86_64,29.85074627,,,,,,,,,,,,,,,,,,,,,,,,,,,500,,,,,,,,,,,,,,,,,,5,5,,,495.9768,5,left,0.7154,496.7413,1,0.3,"[3,1,2]",0.375194754,stimuli/card_0_transparent.png,0,5,0,5,0,1,,,,,,,,,,
,,,,666096aa3e8745239c08f8b1,B,2024-08-22_15h55.13.652,Slot Machine Game,2023.1.3,Linux x86_64,29.85074627,,,,,,,,,,,,,,,,,,,,,,,,,,,500,,,,,,,,,,,,,,,,,,5,5,,,498.0418,6,left,1.4855,499.5726,0.5,0.3,"[3,1,2]",0.630274241,stimuli/card_0_transparent.png,0,6,0,6,0,1,,,,,,,,,,
,,,,666096aa3e8745239c08f8b1,B,2024-08-22_15h55.13.652,Slot Machine Game,2023.1.3,Linux x86_64,29.85074627,,,,,,,,,,,,,,,,,,,,,,,,,,,600,,,,,,,,,,,,,,,,,,5,5,,,500.3734,7,up,0.8044,501.2378,0.5,0.3,"[3,1,2]",0.679674286,stimuli/card_100_transparent.png,100,7,0,7,0,1,,,,,,,,,,
,,,,666096aa3e8745239c08f8b1,B,2024-08-22_15h55.13.652,Slot Machine Game,2023.1.3,Linux x86_64,29.85074627,,,,,,,,,,,,,,,,,,,,,,,,,,,700,,,,,,,,,,,,,,,,,,5,5,,,502.0378,8,up,0.8035,502.903,1.5,0.3,"[3,1,2]",0.311779619,stimuli/card_100_transparent.png,100,8,0,8,0,1,,,,,,,,,,
,,,,666096aa3e8745239c08f8b1,B,2024-08-22_15h55.13.652,Slot Machine Game,2023.1.3,Linux x86_64,29.85074627,,,,,,,,,,,,,,,,,,,,,,,,,,,710,,,,,,,,,,,,,,,,,,5,5,,,504.7029,9,up,0.9678,505.7338,1.5,0.3,"[3,1,2]",0.151876549,stimuli/card_10_transparent.png,10,9,0,9,0,1,,,,,,,,,,
,,,,666096aa3e8745239c08f8b1,B,2024-08-22_15h55.13.652,Slot Machine Game,2023.1.3,Linux x86_64,29.85074627,,,,,,,,,,,,,,,,,,,,,,,,,,,810,,,,,,,,,,,,,,,,,,5,5,,,507.5329,10,up,0.9191,508.498,1.5,0.3,"[3,1,2]",0.770937109,stimuli/card_100_transparent.png,100,10,0,10,0,1,,,,,,,,,,
,,,,666096aa3e8745239c08f8b1,B,2024-08-22_15h55.13.652,Slot Machine Game,2023.1.3,Linux x86_64,29.85074627,,,,,,,,,,,,,,,,,,,,,,,,,,,910,,,,,,,,,,,,,,,,,,5,5,,,510.2972,11,up,0.7033,511.0627,0.5,0.3,"[3,1,2]",0.808097505,stimuli/card_100_transparent.png,100,11,0,11,0,1,,,,,,,,,,
,,,,666096aa3e8745239c08f8b1,B,2024-08-22_15h55.13.652,Slot Machine Game,2023.1.3,Linux x86_64,29.85074627,,,,,,,,,,,,,,,,,,,,,,,,,,,1010,,,,,,,,,,,,,,,,,,5,5,,,511.8627,12,up,1.6708,513.5939,1.5,0.3,"[3,1,2]",0.902804601,stimuli/card_100_transparent.png,100,12,0,12,0,1,,,,,,,,,,
,,,,666096aa3e8745239c08f8b1,B,2024-08-22_15h55.13.652,Slot Machine Game,2023.1.3,Linux x86_64,29.85074627,,,,,,,,,,,,,,,,,,,,,,,,,,,1110,,,,,,,,,,,,,,,,,,5,5,,,515.393,13,up,0.7204,516.1581,0.5,0.3,"[3,1,2]",0.234873962,stimuli/card_100_transparent.png,100,13,0,13,0,1,,,,,,,,,,
,,,,666096aa3e8745239c08f8b1,B,2024-08-22_15h55.13.652,Slot Machine Game,2023.1.3,Linux x86_64,29.85074627,,,,,,,,,,,,,,,,,,,,,,,,,,,1210,,,,,,,,,,,,,,,,,,5,5,,,516.9583,14,up,1.4663,518.4896,1,0.3,"[3,1,2]",0.367280485,stimuli/card_100_transparent.png,100,14,0,14,0,1,,,,,,,,,,
,,,,666096aa3e8745239c08f8b1,B,2024-08-22_15h55.13.652,Slot Machine Game,2023.1.3,Linux x86_64,29.85074627,,,,,,,,,,,,,,,,,,,,,,,,,,,,,,,,,,519.7889,,,,,,,,,,,,,,,,,,,,,,,,,,,,,,,"[1030,1010,1220,910,1210]",4,0,4,0,1,,,,
,,,,666096aa3e8745239c08f8b1,B,2024-08-22_15h55.13.652,Slot Machine Game,2023.1.3,Linux x86_64,29.85074627,,,,,,,,,,,,,,,,,,,,,,,,,,,0,,,,,,,,,,,,,,,,,,6,6,"[4,10,15]","[[2,3,1],[1,3,2],[3,2,1]]",524.8146,0,up,1.2022,526.0501,0.5,0.3,"[2,3,1]",0.311186198,stimuli/card_0_transparent.png,0,0,0,0,0,1,,,,,,,,,,
,,,,666096aa3e8745239c08f8b1,B,2024-08-22_15h55.13.652,Slot Machine Game,2023.1.3,Linux x86_64,29.85074627,,,,,,,,,,,,,,,,,,,,,,,,,,,0,,,,,,,,,,,,,,,,,,6,6,,,526.8504,1,right,0.8058,527.7156,1,0.3,"[2,3,1]",0.017809024,stimuli/card_0_transparent.png,0,1,0,1,0,1,,,,,,,,,,
,,,,666096aa3e8745239c08f8b1,B,2024-08-22_15h55.13.652,Slot Machine Game,2023.1.3,Linux x86_64,29.85074627,,,,,,,,,,,,,,,,,,,,,,,,,,,10,,,,,,,,,,,,,,,,,,6,6,,,529.015,2,left,0.7352,529.8133,0.5,0.3,"[2,3,1]",0.654971797,stimuli/card_10_transparent.png,10,2,0,2,0,1,,,,,,,,,,
,,,,666096aa3e8745239c08f8b1,B,2024-08-22_15h55.13.652,Slot Machine Game,2023.1.3,Linux x86_64,29.85074627,,,,,,,,,,,,,,,,,,,,,,,,,,,110,,,,,,,,,,,,,,,,,,6,6,,,530.6125,3,right,1.3851,532.0442,1,0.3,"[2,3,1]",0.625432794,stimuli/card_100_transparent.png,100,3,0,3,0,1,,,,,,,,,,
,,,,666096aa3e8745239c08f8b1,B,2024-08-22_15h55.13.652,Slot Machine Game,2023.1.3,Linux x86_64,29.85074627,,,,,,,,,,,,,,,,,,,,,,,,,,,110,,,,,,,,,,,,,,,,,,6,6,,,533.3441,4,right,0.7905,534.1766,0.5,0.3,"[1,3,2]",0.082768987,stimuli/card_0_transparent.png,0,4,0,4,0,1,,,,,,,,,,
,,,,666096aa3e8745239c08f8b1,B,2024-08-22_15h55.13.652,Slot Machine Game,2023.1.3,Linux x86_64,29.85074627,,,,,,,,,,,,,,,,,,,,,,,,,,,110,,,,,,,,,,,,,,,,,,6,6,,,534.9759,5,up,0.6201,535.6415,1,0.3,"[1,3,2]",0.536771061,stimuli/card_0_transparent.png,0,5,0,5,0,1,,,,,,,,,,
,,,,666096aa3e8745239c08f8b1,B,2024-08-22_15h55.13.652,Slot Machine Game,2023.1.3,Linux x86_64,29.85074627,,,,,,,,,,,,,,,,,,,,,,,,,,,120,,,,,,,,,,,,,,,,,,6,6,,,536.9411,6,right,0.8564,537.8394,1,0.3,"[1,3,2]",0.808530597,stimuli/card_10_transparent.png,10,6,0,6,0,1,,,,,,,,,,
,,,,666096aa3e8745239c08f8b1,B,2024-08-22_15h55.13.652,Slot Machine Game,2023.1.3,Linux x86_64,29.85074627,,,,,,,,,,,,,,,,,,,,,,,,,,,220,,,,,,,,,,,,,,,,,,6,6,,,539.1389,7,left,0.5339,539.7378,1,0.3,"[1,3,2]",0.488287834,stimuli/card_100_transparent.png,100,7,0,7,0,1,,,,,,,,,,
,,,,666096aa3e8745239c08f8b1,B,2024-08-22_15h55.13.652,Slot Machine Game,2023.1.3,Linux x86_64,29.85074627,,,,,,,,,,,,,,,,,,,,,,,,,,,320,,,,,,,,,,,,,,,,,,6,6,,,541.0373,8,left,0.9714,542.0696,0.5,0.3,"[1,3,2]",0.3016776,stimuli/card_100_transparent.png,100,8,0,8,0,1,,,,,,,,,,
,,,,666096aa3e8745239c08f8b1,B,2024-08-22_15h55.13.652,Slot Machine Game,2023.1.3,Linux x86_64,29.85074627,,,,,,,,,,,,,,,,,,,,,,,,,,,420,,,,,,,,,,,,,,,,,,6,6,,,542.8692,9,left,0.7666,543.7012,1,0.3,"[1,3,2]",0.840132722,stimuli/card_100_transparent.png,100,9,0,9,0,1,,,,,,,,,,
,,,,666096aa3e8745239c08f8b1,B,2024-08-22_15h55.13.652,Slot Machine Game,2023.1.3,Linux x86_64,29.85074627,,,,,,,,,,,,,,,,,,,,,,,,,,,520,,,,,,,,,,,,,,,,,,6,6,,,545.0009,10,left,0.5678,545.6333,0.5,0.3,"[3,2,1]",0.085255249,stimuli/card_100_transparent.png,100,10,0,10,0,1,,,,,,,,,,
,,,,666096aa3e8745239c08f8b1,B,2024-08-22_15h55.13.652,Slot Machine Game,2023.1.3,Linux x86_64,29.85074627,,,,,,,,,,,,,,,,,,,,,,,,,,,520,,,,,,,,,,,,,,,,,,6,6,,,546.4326,11,left,0.5369,547.0316,0.5,0.3,"[3,2,1]",0.812720725,stimuli/card_0_transparent.png,0,11,0,11,0,1,,,,,,,,,,
,,,,666096aa3e8745239c08f8b1,B,2024-08-22_15h55.13.652,Slot Machine Game,2023.1.3,Linux x86_64,29.85074627,,,,,,,,,,,,,,,,,,,,,,,,,,,520,,,,,,,,,,,,,,,,,,6,6,,,547.8315,12,left,0.5327,548.4305,1,0.3,"[3,2,1]",0.261102652,stimuli/card_0_transparent.png,0,12,0,12,0,1,,,,,,,,,,
,,,,666096aa3e8745239c08f8b1,B,2024-08-22_15h55.13.652,Slot Machine Game,2023.1.3,Linux x86_64,29.85074627,,,,,,,,,,,,,,,,,,,,,,,,,,,530,,,,,,,,,,,,,,,,,,6,6,,,549.73,13,up,0.5593,550.3294,1,0.3,"[3,2,1]",0.264446896,stimuli/card_10_transparent.png,10,13,0,13,0,1,,,,,,,,,,
,,,,666096aa3e8745239c08f8b1,B,2024-08-22_15h55.13.652,Slot Machine Game,2023.1.3,Linux x86_64,29.85074627,,,,,,,,,,,,,,,,,,,,,,,,,,,630,,,,,,,,,,,,,,,,,,6,6,,,551.6285,14,right,1.0899,552.7601,0.5,0.3,"[3,2,1]",0.590157983,stimuli/card_100_transparent.png,100,14,0,14,0,1,,,,,,,,,,
,,,,666096aa3e8745239c08f8b1,B,2024-08-22_15h55.13.652,Slot Machine Game,2023.1.3,Linux x86_64,29.85074627,,,,,,,,,,,,,,,,,,,,,,,,,,,,,,,,,,553.5612,,,,,,,,,,,,,,,,,,,,,,,,,,,,,,,"[1030,1010,1220,910,1210,630]",5,0,5,0,1,,,,
,,,,666096aa3e8745239c08f8b1,B,2024-08-22_15h55.13.652,Slot Machine Game,2023.1.3,Linux x86_64,29.85074627,,,,,,,,,,,,,,,,,,,,,,,,,,,10,,,,,,,,,,,,,,,,,,7,7,"[9,15]","[[1,3,2],[2,3,1]]",558.5844,0,right,1.2016,559.8208,1,0.3,"[1,3,2]",0.304550686,stimuli/card_10_transparent.png,10,0,0,0,0,1,,,,,,,,,,
,,,,666096aa3e8745239c08f8b1,B,2024-08-22_15h55.13.652,Slot Machine Game,2023.1.3,Linux x86_64,29.85074627,,,,,,,,,,,,,,,,,,,,,,,,,,,10,,,,,,,,,,,,,,,,,,7,7,,,561.1203,1,up,0.5338,561.7191,0.5,0.3,"[1,3,2]",0.883738628,stimuli/card_0_transparent.png,0,1,0,1,0,1,,,,,,,,,,
,,,,666096aa3e8745239c08f8b1,B,2024-08-22_15h55.13.652,Slot Machine Game,2023.1.3,Linux x86_64,29.85074627,,,,,,,,,,,,,,,,,,,,,,,,,,,110,,,,,,,,,,,,,,,,,,7,7,,,562.5191,2,left,0.7893,563.3506,1.5,0.3,"[1,3,2]",0.922046292,stimuli/card_100_transparent.png,100,2,0,2,0,1,,,,,,,,,,
,,,,666096aa3e8745239c08f8b1,B,2024-08-22_15h55.13.652,Slot Machine Game,2023.1.3,Linux x86_64,29.85074627,,,,,,,,,,,,,,,,,,,,,,,,,,,210,,,,,,,,,,,,,,,,,,7,7,,,565.1502,3,left,0.5439,565.7492,0.5,0.3,"[1,3,2]",0.83603528,stimuli/card_100_transparent.png,100,3,0,3,0,1,,,,,,,,,,
,,,,666096aa3e8745239c08f8b1,B,2024-08-22_15h55.13.652,Slot Machine Game,2023.1.3,Linux x86_64,29.85074627,,,,,,,,,,,,,,,,,,,,,,,,,,,210,,,,,,,,,,,,,,,,,,7,7,,,566.5487,4,left,0.5417,567.1476,1.5,0.3,"[1,3,2]",0.012573859,stimuli/card_0_transparent.png,0,4,0,4,0,1,,,,,,,,,,
,,,,666096aa3e8745239c08f8b1,B,2024-08-22_15h55.13.652,Slot Machine Game,2023.1.3,Linux x86_64,29.85074627,,,,,,,,,,,,,,,,,,,,,,,,,,,220,,,,,,,,,,,,,,,,,,7,7,,,568.9474,5,left,0.5052,569.5128,0.5,0.3,"[1,3,2]",0.164830356,stimuli/card_10_transparent.png,10,5,0,5,0,1,,,,,,,,,,
,,,,666096aa3e8745239c08f8b1,B,2024-08-22_15h55.13.652,Slot Machine Game,2023.1.3,Linux x86_64,29.85074627,,,,,,,,,,,,,,,,,,,,,,,,,,,220,,,,,,,,,,,,,,,,,,7,7,,,570.3125,6,up,0.8335,571.2107,1,0.3,"[1,3,2]",0.909628196,stimuli/card_0_transparent.png,0,6,0,6,0,1,,,,,,,,,,
,,,,666096aa3e8745239c08f8b1,B,2024-08-22_15h55.13.652,Slot Machine Game,2023.1.3,Linux x86_64,29.85074627,,,,,,,,,,,,,,,,,,,,,,,,,,,230,,,,,,,,,,,,,,,,,,7,7,,,572.5104,7,right,0.7745,573.3423,0.5,0.3,"[1,3,2]",0.635187832,stimuli/card_10_transparent.png,10,7,0,7,0,1,,,,,,,,,,
,,,,666096aa3e8745239c08f8b1,B,2024-08-22_15h55.13.652,Slot Machine Game,2023.1.3,Linux x86_64,29.85074627,,,,,,,,,,,,,,,,,,,,,,,,,,,240,,,,,,,,,,,,,,,,,,7,7,,,574.1424,8,up,0.5097,574.7078,0.5,0.3,"[1,3,2]",0.137351232,stimuli/card_10_transparent.png,10,8,0,8,0,1,,,,,,,,,,
,,,,666096aa3e8745239c08f8b1,B,2024-08-22_15h55.13.652,Slot Machine Game,2023.1.3,Linux x86_64,29.85074627,,,,,,,,,,,,,,,,,,,,,,,,,,,340,,,,,,,,,,,,,,,,,,7,7,,,575.5081,9,right,0.9014,576.473,1,0.3,"[2,3,1]",0.923709582,stimuli/card_100_transparent.png,100,9,0,9,0,1,,,,,,,,,,
,,,,666096aa3e8745239c08f8b1,B,2024-08-22_15h55.13.652,Slot Machine Game,2023.1.3,Linux x86_64,29.85074627,,,,,,,,,,,,,,,,,,,,,,,,,,,350,,,,,,,,,,,,,,,,,,7,7,,,577.7726,10,right,0.6336,578.4715,0.5,0.3,"[2,3,1]",0.103486051,stimuli/card_10_transparent.png,10,10,0,10,0,1,,,,,,,,,,
,,,,666096aa3e8745239c08f8b1,B,2024-08-22_15h55.13.652,Slot Machine Game,2023.1.3,Linux x86_64,29.85074627,,,,,,,,,,,,,,,,,,,,,,,,,,,450,,,,,,,,,,,,,,,,,,7,7,,,579.272,11,right,0.798,580.1365,0.5,0.3,"[2,3,1]",0.772905221,stimuli/card_100_transparent.png,100,11,0,11,0,1,,,,,,,,,,
,,,,666096aa3e8745239c08f8b1,B,2024-08-22_15h55.13.652,Slot Machine Game,2023.1.3,Linux x86_64,29.85074627,,,,,,,,,,,,,,,,,,,,,,,,,,,450,,,,,,,,,,,,,,,,,,7,7,,,580.9364,12,right,1.1797,582.1678,0.5,0.3,"[2,3,1]",0.086215237,stimuli/card_0_transparent.png,0,12,0,12,0,1,,,,,,,,,,
,,,,666096aa3e8745239c08f8b1,B,2024-08-22_15h55.13.652,Slot Machine Game,2023.1.3,Linux x86_64,29.85074627,,,,,,,,,,,,,,,,,,,,,,,,,,,460,,,,,,,,,,,,,,,,,,7,7,,,582.9686,13,left,0.5994,583.6334,1.5,0.3,"[2,3,1]",0.213058784,stimuli/card_10_transparent.png,10,13,0,13,0,1,,,,,,,,,,
,,,,666096aa3e8745239c08f8b1,B,2024-08-22_15h55.13.652,Slot Machine Game,2023.1.3,Linux x86_64,29.85074627,,,,,,,,,,,,,,,,,,,,,,,,,,,560,,,,,,,,,,,,,,,,,,7,7,,,585.433,14,right,0.6663,586.1647,0.5,0.3,"[2,3,1]",0.778421963,stimuli/card_100_transparent.png,100,14,0,14,0,1,,,,,,,,,,
,,,,666096aa3e8745239c08f8b1,B,2024-08-22_15h55.13.652,Slot Machine Game,2023.1.3,Linux x86_64,29.85074627,,,,,,,,,,,,,,,,,,,,,,,,,,,,,,,,,,586.965,,,,,,,,,,,,,,,,,,,,,,,,,,,,,,,"[1030,1010,1220,910,1210,630,560]",6,0,6,0,1,,,,
,,,,666096aa3e8745239c08f8b1,B,2024-08-22_15h55.13.652,Slot Machine Game,2023.1.3,Linux x86_64,29.85074627,,,,,,,,,,,,,,,,,,,,,,,,,,,100,,,,,,,,,,,,,,,,,,8,8,"[11,15]","[[2,1,3],[1,2,3]]",591.9891,0,left,1.0364,593.0583,1.5,0.3,"[2,1,3]",0.127372664,stimuli/card_100_transparent.png,100,0,0,0,0,1,,,,,,,,,,
,,,,666096aa3e8745239c08f8b1,B,2024-08-22_15h55.13.652,Slot Machine Game,2023.1.3,Linux x86_64,29.85074627,,,,,,,,,,,,,,,,,,,,,,,,,,,110,,,,,,,,,,,,,,,,,,8,8,,,594.8576,1,left,0.5017,595.4234,1,0.3,"[2,1,3]",0.581332196,stimuli/card_10_transparent.png,10,1,0,1,0,1,,,,,,,,,,
,,,,666096aa3e8745239c08f8b1,B,2024-08-22_15h55.13.652,Slot Machine Game,2023.1.3,Linux x86_64,29.85074627,,,,,,,,,,,,,,,,,,,,,,,,,,,120,,,,,,,,,,,,,,,,,,8,8,,,596.723,2,left,1.1897,597.9544,0.5,0.3,"[2,1,3]",0.610962755,stimuli/card_10_transparent.png,10,2,0,2,0,1,,,,,,,,,,
,,,,666096aa3e8745239c08f8b1,B,2024-08-22_15h55.13.652,Slot Machine Game,2023.1.3,Linux x86_64,29.85074627,,,,,,,,,,,,,,,,,,,,,,,,,,,220,,,,,,,,,,,,,,,,,,8,8,,,598.7548,3,up,0.6151,599.4198,1.5,0.3,"[2,1,3]",0.75548357,stimuli/card_100_transparent.png,100,3,0,3,0,1,,,,,,,,,,
,,,,666096aa3e8745239c08f8b1,B,2024-08-22_15h55.13.652,Slot Machine Game,2023.1.3,Linux x86_64,29.85074627,,,,,,,,,,,,,,,,,,,,,,,,,,,320,,,,,,,,,,,,,,,,,,8,8,,,601.2189,4,up,1.1344,602.4172,1.5,0.3,"[2,1,3]",0.743810268,stimuli/card_100_transparent.png,100,4,0,4,0,1,,,,,,,,,,
,,,,666096aa3e8745239c08f8b1,B,2024-08-22_15h55.13.652,Slot Machine Game,2023.1.3,Linux x86_64,29.85074627,,,,,,,,,,,,,,,,,,,,,,,,,,,420,,,,,,,,,,,,,,,,,,8,8,,,604.2164,5,up,0.8687,605.1485,0.5,0.3,"[2,1,3]",0.673868093,stimuli/card_100_transparent.png,100,5,0,5,0,1,,,,,,,,,,
,,,,666096aa3e8745239c08f8b1,B,2024-08-22_15h55.13.652,Slot Machine Game,2023.1.3,Linux x86_64,29.85074627,,,,,,,,,,,,,,,,,,,,,,,,,,,520,,,,,,,,,,,,,,,,,,8,8,,,605.9481,6,up,0.7788,606.7803,0.5,0.3,"[2,1,3]",0.797820226,stimuli/card_100_transparent.png,100,6,0,6,0,1,,,,,,,,,,
,,,,666096aa3e8745239c08f8b1,B,2024-08-22_15h55.13.652,Slot Machine Game,2023.1.3,Linux x86_64,29.85074627,,,,,,,,,,,,,,,,,,,,,,,,,,,620,,,,,,,,,,,,,,,,,,8,8,,,607.5805,7,up,1.1497,608.7782,0.5,0.3,"[2,1,3]",0.396553821,stimuli/card_100_transparent.png,100,7,0,7,0,1,,,,,,,,,,
,,,,666096aa3e8745239c08f8b1,B,2024-08-22_15h55.13.652,Slot Machine Game,2023.1.3,Linux x86_64,29.85074627,,,,,,,,,,,,,,,,,,,,,,,,,,,630,,,,,,,,,,,,,,,,,,8,8,,,609.5784,8,up,0.6153,610.2441,1,0.3,"[2,1,3]",0.143516678,stimuli/card_10_transparent.png,10,8,0,8,0,1,,,,,,,,,,
,,,,666096aa3e8745239c08f8b1,B,2024-08-22_15h55.13.652,Slot Machine Game,2023.1.3,Linux x86_64,29.85074627,,,,,,,,,,,,,,,,,,,,,,,,,,,730,,,,,,,,,,,,,,,,,,8,8,,,611.5433,9,up,0.8007,612.4087,0.5,0.3,"[2,1,3]",0.341562807,stimuli/card_100_transparent.png,100,9,0,9,0,1,,,,,,,,,,
,,,,666096aa3e8745239c08f8b1,B,2024-08-22_15h55.13.652,Slot Machine Game,2023.1.3,Linux x86_64,29.85074627,,,,,,,,,,,,,,,,,,,,,,,,,,,830,,,,,,,,,,,,,,,,,,8,8,,,613.2095,10,up,0.5341,613.8079,0.5,0.3,"[2,1,3]",0.554530693,stimuli/card_100_transparent.png,100,10,0,10,0,1,,,,,,,,,,
,,,,666096aa3e8745239c08f8b1,B,2024-08-22_15h55.13.652,Slot Machine Game,2023.1.3,Linux x86_64,29.85074627,,,,,,,,,,,,,,,,,,,,,,,,,,,840,,,,,,,,,,,,,,,,,,8,8,,,614.6071,11,up,0.6768,615.3394,1.5,0.3,"[1,2,3]",0.418884058,stimuli/card_10_transparent.png,10,11,0,11,0,1,,,,,,,,,,
,,,,666096aa3e8745239c08f8b1,B,2024-08-22_15h55.13.652,Slot Machine Game,2023.1.3,Linux x86_64,29.85074627,,,,,,,,,,,,,,,,,,,,,,,,,,,850,,,,,,,,,,,,,,,,,,8,8,,,617.1382,12,up,0.9643,618.1703,1,0.3,"[1,2,3]",0.210793378,stimuli/card_10_transparent.png,10,12,0,12,0,1,,,,,,,,,,
,,,,666096aa3e8745239c08f8b1,B,2024-08-22_15h55.13.652,Slot Machine Game,2023.1.3,Linux x86_64,29.85074627,,,,,,,,,,,,,,,,,,,,,,,,,,,850,,,,,,,,,,,,,,,,,,8,8,,,619.4702,13,right,0.5155,620.0353,0.5,0.3,"[1,2,3]",0.284396341,stimuli/card_0_transparent.png,0,13,0,13,0,1,,,,,,,,,,
,,,,666096aa3e8745239c08f8b1,B,2024-08-22_15h55.13.652,Slot Machine Game,2023.1.3,Linux x86_64,29.85074627,,,,,,,,,,,,,,,,,,,,,,,,,,,950,,,,,,,,,,,,,,,,,,8,8,,,620.8358,14,right,0.6587,621.5352,0.5,0.3,"[1,2,3]",0.09936326,stimuli/card_100_transparent.png,100,14,0,14,0,1,,,,,,,,,,
,,,,666096aa3e8745239c08f8b1,B,2024-08-22_15h55.13.652,Slot Machine Game,2023.1.3,Linux x86_64,29.85074627,,,,,,,,,,,,,,,,,,,,,,,,,,,,,,,,,,622.335,,,,,,,,,,,,,,,,,,,,,,,,,,,,,,,"[1030,1010,1220,910,1210,630,560,950]",7,0,7,0,1,,,,
,,,,666096aa3e8745239c08f8b1,B,2024-08-22_15h55.13.652,Slot Machine Game,2023.1.3,Linux x86_64,29.85074627,,,,,,,,,,,,,,,,,,,,,,,,,,,0,,,,,,,,,,,,,,,,,,9,9,"[8,15]","[[3,2,1],[3,1,2]]",627.3601,0,left,2.049,629.4275,0.5,0.3,"[3,2,1]",0.973822591,stimuli/card_0_transparent.png,0,0,0,0,0,1,,,,,,,,,,
,,,,666096aa3e8745239c08f8b1,B,2024-08-22_15h55.13.652,Slot Machine Game,2023.1.3,Linux x86_64,29.85074627,,,,,,,,,,,,,,,,,,,,,,,,,,,10,,,,,,,,,,,,,,,,,,9,9,,,630.2274,1,up,0.5843,630.8593,1.5,0.3,"[3,2,1]",0.36451249,stimuli/card_10_transparent.png,10,1,0,1,0,1,,,,,,,,,,
,,,,666096aa3e8745239c08f8b1,B,2024-08-22_15h55.13.652,Slot Machine Game,2023.1.3,Linux x86_64,29.85074627,,,,,,,,,,,,,,,,,,,,,,,,,,,110,,,,,,,,,,,,,,,,,,9,9,,,632.6586,2,right,0.6023,633.3239,0.5,0.3,"[3,2,1]",0.96993143,stimuli/card_100_transparent.png,100,2,0,2,0,1,,,,,,,,,,
,,,,666096aa3e8745239c08f8b1,B,2024-08-22_15h55.13.652,Slot Machine Game,2023.1.3,Linux x86_64,29.85074627,,,,,,,,,,,,,,,,,,,,,,,,,,,210,,,,,,,,,,,,,,,,,,9,9,,,634.1247,3,right,0.9365,635.1229,1.5,0.3,"[3,2,1]",0.203275104,stimuli/card_100_transparent.png,100,3,0,3,0,1,,,,,,,,,,
,,,,666096aa3e8745239c08f8b1,B,2024-08-22_15h55.13.652,Slot Machine Game,2023.1.3,Linux x86_64,29.85074627,,,,,,,,,,,,,,,,,,,,,,,,,,,310,,,,,,,,,,,,,,,,,,9,9,,,636.9218,4,right,1.7664,638.7526,0.5,0.3,"[3,2,1]",0.42313532,stimuli/card_100_transparent.png,100,4,0,4,0,1,,,,,,,,,,
,,,,666096aa3e8745239c08f8b1,B,2024-08-22_15h55.13.652,Slot Machine Game,2023.1.3,Linux x86_64,29.85074627,,,,,,,,,,,,,,,,,,,,,,,,,,,310,,,,,,,,,,,,,,,,,,9,9,,,639.5529,5,right,0.6012,640.2183,0.5,0.3,"[3,2,1]",0.007952025,stimuli/card_0_transparent.png,0,5,0,5,0,1,,,,,,,,,,
,,,,666096aa3e8745239c08f8b1,B,2024-08-22_15h55.13.652,Slot Machine Game,2023.1.3,Linux x86_64,29.85074627,,,,,,,,,,,,,,,,,,,,,,,,,,,410,,,,,,,,,,,,,,,,,,9,9,,,641.0184,6,right,0.5532,641.6171,1,0.3,"[3,2,1]",0.3618938,stimuli/card_100_transparent.png,100,6,0,6,0,1,,,,,,,,,,
,,,,666096aa3e8745239c08f8b1,B,2024-08-22_15h55.13.652,Slot Machine Game,2023.1.3,Linux x86_64,29.85074627,,,,,,,,,,,,,,,,,,,,,,,,,,,510,,,,,,,,,,,,,,,,,,9,9,,,642.9166,7,right,0.8703,643.8485,1,0.3,"[3,2,1]",0.215986873,stimuli/card_100_transparent.png,100,7,0,7,0,1,,,,,,,,,,
,,,,666096aa3e8745239c08f8b1,B,2024-08-22_15h55.13.652,Slot Machine Game,2023.1.3,Linux x86_64,29.85074627,,,,,,,,,,,,,,,,,,,,,,,,,,,520,,,,,,,,,,,,,,,,,,9,9,,,645.1476,8,right,1.2856,646.4788,1,0.3,"[3,1,2]",0.959154217,stimuli/card_10_transparent.png,10,8,0,8,0,1,,,,,,,,,,
,,,,666096aa3e8745239c08f8b1,B,2024-08-22_15h55.13.652,Slot Machine Game,2023.1.3,Linux x86_64,29.85074627,,,,,,,,,,,,,,,,,,,,,,,,,,,530,,,,,,,,,,,,,,,,,,9,9,,,647.7789,9,right,0.5216,648.344,0.5,0.3,"[3,1,2]",0.508248251,stimuli/card_10_transparent.png,10,9,0,9,0,1,,,,,,,,,,
,,,,666096aa3e8745239c08f8b1,B,2024-08-22_15h55.13.652,Slot Machine Game,2023.1.3,Linux x86_64,29.85074627,,,,,,,,,,,,,,,,,,,,,,,,,,,530,,,,,,,,,,,,,,,,,,9,9,,,649.1444,10,left,0.9231,650.1095,1,0.3,"[3,1,2]",0.925461168,stimuli/card_0_transparent.png,0,10,0,10,0,1,,,,,,,,,,
,,,,666096aa3e8745239c08f8b1,B,2024-08-22_15h55.13.652,Slot Machine Game,2023.1.3,Linux x86_64,29.85074627,,,,,,,,,,,,,,,,,,,,,,,,,,,630,,,,,,,,,,,,,,,,,,9,9,,,651.4093,11,up,0.6018,652.0745,0.5,0.3,"[3,1,2]",0.531399759,stimuli/card_100_transparent.png,100,11,0,11,0,1,,,,,,,,,,
,,,,666096aa3e8745239c08f8b1,B,2024-08-22_15h55.13.652,Slot Machine Game,2023.1.3,Linux x86_64,29.85074627,,,,,,,,,,,,,,,,,,,,,,,,,,,730,,,,,,,,,,,,,,,,,,9,9,,,652.8745,12,up,0.6103,653.54,1,0.3,"[3,1,2]",0.953957336,stimuli/card_100_transparent.png,100,12,0,12,0,1,,,,,,,,,,
,,,,666096aa3e8745239c08f8b1,B,2024-08-22_15h55.13.652,Slot Machine Game,2023.1.3,Linux x86_64,29.85074627,,,,,,,,,,,,,,,,,,,,,,,,,,,830,,,,,,,,,,,,,,,,,,9,9,,,654.8395,13,up,0.7174,655.6046,0.5,0.3,"[3,1,2]",0.371965231,stimuli/card_100_transparent.png,100,13,0,13,0,1,,,,,,,,,,
,,,,666096aa3e8745239c08f8b1,B,2024-08-22_15h55.13.652,Slot Machine Game,2023.1.3,Linux x86_64,29.85074627,,,,,,,,,,,,,,,,,,,,,,,,,,,840,,,,,,,,,,,,,,,,,,9,9,,,656.4047,14,up,0.9211,657.3701,0.5,0.3,"[3,1,2]",0.16292135,stimuli/card_10_transparent.png,10,14,0,14,0,1,,,,,,,,,,
,,,,666096aa3e8745239c08f8b1,B,2024-08-22_15h55.13.652,Slot Machine Game,2023.1.3,Linux x86_64,29.85074627,,,,,,,,,,,,,,,,,,,,,,,,,,,,,,,,,,658.1701,,,,,,,,,,,,,,,,,,,,,,,,,,,,,,,"[1030,1010,1220,910,1210,630,560,950,840]",8,0,8,0,1,,,,
,,,,666096aa3e8745239c08f8b1,B,2024-08-22_15h55.13.652,Slot Machine Game,2023.1.3,Linux x86_64,29.85074627,,,,,,,,,,,,,,,,,,,,,,,,,,,100,,,,,,,,,,,,,,,,,,10,10,"[10,15]","[[3,1,2],[1,3,2]]",663.1943,0,up,0.6447,663.8647,0.5,0.3,"[3,1,2]",0.59960648,stimuli/card_100_transparent.png,100,0,0,0,0,1,,,,,,,,,,
,,,,666096aa3e8745239c08f8b1,B,2024-08-22_15h55.13.652,Slot Machine Game,2023.1.3,Linux x86_64,29.85074627,,,,,,,,,,,,,,,,,,,,,,,,,,,200,,,,,,,,,,,,,,,,,,10,10,,,664.6648,1,up,0.7734,665.4966,1.5,0.3,"[3,1,2]",0.227591448,stimuli/card_100_transparent.png,100,1,0,1,0,1,,,,,,,,,,
,,,,666096aa3e8745239c08f8b1,B,2024-08-22_15h55.13.652,Slot Machine Game,2023.1.3,Linux x86_64,29.85074627,,,,,,,,,,,,,,,,,,,,,,,,,,,300,,,,,,,,,,,,,,,,,,10,10,,,667.2956,2,up,0.9003,668.2604,0.5,0.3,"[3,1,2]",0.411208513,stimuli/card_100_transparent.png,100,2,0,2,0,1,,,,,,,,,,
,,,,666096aa3e8745239c08f8b1,B,2024-08-22_15h55.13.652,Slot Machine Game,2023.1.3,Linux x86_64,29.85074627,,,,,,,,,,,,,,,,,,,,,,,,,,,310,,,,,,,,,,,,,,,,,,10,10,,,669.0602,3,up,0.5374,669.6594,1,0.3,"[3,1,2]",0.144805532,stimuli/card_10_transparent.png,10,3,0,3,0,1,,,,,,,,,,
,,,,666096aa3e8745239c08f8b1,B,2024-08-22_15h55.13.652,Slot Machine Game,2023.1.3,Linux x86_64,29.85074627,,,,,,,,,,,,,,,,,,,,,,,,,,,410,,,,,,,,,,,,,,,,,,10,10,,,670.9597,4,up,0.8701,671.8905,0.5,0.3,"[3,1,2]",0.280731254,stimuli/card_100_transparent.png,100,4,0,4,0,1,,,,,,,,,,
,,,,666096aa3e8745239c08f8b1,B,2024-08-22_15h55.13.652,Slot Machine Game,2023.1.3,Linux x86_64,29.85074627,,,,,,,,,,,,,,,,,,,,,,,,,,,510,,,,,,,,,,,,,,,,,,10,10,,,672.6908,5,up,0.7054,673.4562,1.5,0.3,"[3,1,2]",0.594151147,stimuli/card_100_transparent.png,100,5,0,5,0,1,,,,,,,,,,
,,,,666096aa3e8745239c08f8b1,B,2024-08-22_15h55.13.652,Slot Machine Game,2023.1.3,Linux x86_64,29.85074627,,,,,,,,,,,,,,,,,,,,,,,,,,,610,,,,,,,,,,,,,,,,,,10,10,,,675.2552,6,up,0.5357,675.8542,0.5,0.3,"[3,1,2]",0.280656084,stimuli/card_100_transparent.png,100,6,0,6,0,1,,,,,,,,,,
,,,,666096aa3e8745239c08f8b1,B,2024-08-22_15h55.13.652,Slot Machine Game,2023.1.3,Linux x86_64,29.85074627,,,,,,,,,,,,,,,,,,,,,,,,,,,710,,,,,,,,,,,,,,,,,,10,10,,,676.6545,7,up,0.6441,677.3527,1.5,0.3,"[3,1,2]",0.755257391,stimuli/card_100_transparent.png,100,7,0,7,0,1,,,,,,,,,,
,,,,666096aa3e8745239c08f8b1,B,2024-08-22_15h55.13.652,Slot Machine Game,2023.1.3,Linux x86_64,29.85074627,,,,,,,,,,,,,,,,,,,,,,,,,,,810,,,,,,,,,,,,,,,,,,10,10,,,679.1519,8,up,0.5824,679.7839,0.5,0.3,"[3,1,2]",0.204085825,stimuli/card_100_transparent.png,100,8,0,8,0,1,,,,,,,,,,
,,,,666096aa3e8745239c08f8b1,B,2024-08-22_15h55.13.652,Slot Machine Game,2023.1.3,Linux x86_64,29.85074627,,,,,,,,,,,,,,,,,,,,,,,,,,,910,,,,,,,,,,,,,,,,,,10,10,,,680.584,9,up,0.5739,681.2161,0.5,0.3,"[3,1,2]",0.68878458,stimuli/card_100_transparent.png,100,9,0,9,0,1,,,,,,,,,,
,,,,666096aa3e8745239c08f8b1,B,2024-08-22_15h55.13.652,Slot Machine Game,2023.1.3,Linux x86_64,29.85074627,,,,,,,,,,,,,,,,,,,,,,,,,,,910,,,,,,,,,,,,,,,,,,10,10,,,682.0168,10,up,0.6157,682.6811,1.5,0.3,"[1,3,2]",0.867743671,stimuli/card_0_transparent.png,0,10,0,10,0,1,,,,,,,,,,
,,,,666096aa3e8745239c08f8b1,B,2024-08-22_15h55.13.652,Slot Machine Game,2023.1.3,Linux x86_64,29.85074627,,,,,,,,,,,,,,,,,,,,,,,,,,,910,,,,,,,,,,,,,,,,,,10,10,,,684.4801,11,up,0.577,685.1128,1,0.3,"[1,3,2]",0.580592282,stimuli/card_0_transparent.png,0,11,0,11,0,1,,,,,,,,,,
,,,,666096aa3e8745239c08f8b1,B,2024-08-22_15h55.13.652,Slot Machine Game,2023.1.3,Linux x86_64,29.85074627,,,,,,,,,,,,,,,,,,,,,,,,,,,920,,,,,,,,,,,,,,,,,,10,10,,,686.4125,12,right,0.6467,687.1112,0.5,0.3,"[1,3,2]",0.73614373,stimuli/card_10_transparent.png,10,12,0,12,0,1,,,,,,,,,,
,,,,666096aa3e8745239c08f8b1,B,2024-08-22_15h55.13.652,Slot Machine Game,2023.1.3,Linux x86_64,29.85074627,,,,,,,,,,,,,,,,,,,,,,,,,,,1020,,,,,,,,,,,,,,,,,,10,10,,,687.9109,13,left,0.5679,688.5431,1,0.3,"[1,3,2]",0.660542204,stimuli/card_100_transparent.png,100,13,0,13,0,1,,,,,,,,,,
,,,,666096aa3e8745239c08f8b1,B,2024-08-22_15h55.13.652,Slot Machine Game,2023.1.3,Linux x86_64,29.85074627,,,,,,,,,,,,,,,,,,,,,,,,,,,1120,,,,,,,,,,,,,,,,,,10,10,,,689.8434,14,left,0.5899,690.4791,1.5,0.3,"[1,3,2]",0.40598279,stimuli/card_100_transparent.png,100,14,0,14,0,1,,,,,,,,,,
,,,,666096aa3e8745239c08f8b1,B,2024-08-22_15h55.13.652,Slot Machine Game,2023.1.3,Linux x86_64,29.85074627,,,,,,,,,,,,,,,,,,,,,,,,,,,,,,,,,,692.2746,,,,,,,,,,,,,,,,,,,,,,,,,,,,,,,"[1030,1010,1220,910,1210,630,560,950,840,1120]",9,0,9,0,1,,,,
,,,,666096aa3e8745239c08f8b1,B,2024-08-22_15h55.13.652,Slot Machine Game,2023.1.3,Linux x86_64,29.85074627,,,,,,,,,,,,,,,,,,,,,,,,,,,,,,,,,,,,,,,,,,,,,,,,,,,,,,,,,,,,,,,,,,,,,,,9,"[1030,1010,1220,910,1210,630,560,950,840,1120]",10.1,2024-08-22_16h06.55.306
