key_resp_welcome.started,key_resp_welcome.keys,key_resp_welcome.rt,key_resp_welcome.duration,participant,date,expName,psychopyVersion,OS,frameRate,key_resp_instruction1.started,key_resp_instruction1.keys,key_resp_instruction1.rt,key_resp_instruction1.duration,key_resp_instruction2.started,key_resp_instruction2.keys,key_resp_instruction2.rt,key_resp_instruction2.duration,key_resp_instruction3.started,key_resp_instruction3.keys,key_resp_instruction3.rt,key_resp_instruction3.duration,practiceCondition,practice_reward_seqs,key_resp_practice_slots.started,key_resp_practice_slots.keys,key_resp_practice_slots.rt,key_resp_practice_slots.duration,presentationInterval,"practice_reward_seq: 2,1,3",reward_Img,Cuml_rew,currentPracticeTrialReward,practice_trials.thisRepN,practice_trials.thisTrialN,practice_trials.thisN,practice_trials.thisIndex,practice_trials.ran,"practice_reward_seq: 2,3,1",text_block_break.started,practice_block.thisRepN,practice_block.thisTrialN,practice_block.thisN,practice_block.thisIndex,practice_block.ran,"practice_reward_seq: 1,3,2","practice_reward_seq: 3,1,2",key_resp_practice_end.started,key_resp_practice_end.keys,key_resp_practice_end.rt,key_resp_practice_end.duration,text_main_instruction.started,BlockCondition,BlockOrderIndices,key_resp_main_instruction.started,key_resp_main_instruction.keys,key_resp_main_instruction.rt,key_resp_main_instruction.duration,blockNumber,blockAssignment,currentCondition,main_reward_seqs,key_resp_slots_presentation.started,key_resp_slots_presentation.keys,key_resp_slots_presentation.rt,key_resp_slots_presentation.duration,Main_presentationInterval,rewardPresentationTime,Main_reward_seq,Random value generated,Main_reward_Img,Main_Cumul_Reward,Main_currentTrialReward,main_trials.thisRepN,main_trials.thisTrialN,main_trials.thisN,main_trials.thisIndex,main_trials.ran,block.thisRepN,block.thisTrialN,block.thisN,block.thisIndex,block.ran
0.0016,space,1.6153,,,2023-10-06_14h47.33.123,slotMachine_updated,2023.1.3,MacIntel,60.0024001,,,,,,,,,,,,,,,,,,,,,,,,,,,,,,,,,,,,,,,,,,,,,,,,,,,,,,,,,,,,,,,,,,,,,,,,,
,,,,,2023-10-06_14h47.33.123,slotMachine_updated,2023.1.3,MacIntel,60.0024001,,,,,,,,,,,,,,,,,,,,,,,,,,,,,,,,,,,,,,,,,,,,,,,,,,,,,,,,,,,,,,,,,,,,,,,,,
,,,,,2023-10-06_14h47.33.123,slotMachine_updated,2023.1.3,MacIntel,60.0024001,143.2453,space,60.9599,,,,,,,,,,,,,,,,,,,,,,,,,,,,,,,,,,,,,,,,,,,,,,,,,,,,,,,,,,,,,,,,,,,,,,
,,,,,2023-10-06_14h47.33.123,slotMachine_updated,2023.1.3,MacIntel,60.0024001,,,,,204.2282,space,13.0477,,,,,,,,,,,,,,,,,,,,,,,,,,,,,,,,,,,,,,,,,,,,,,,,,,,,,,,,,,,,,,,,,,
,,,,,2023-10-06_14h47.33.123,slotMachine_updated,2023.1.3,MacIntel,60.0024001,,,,,,,,,217.2901,space,5.3352,,,,,,,,,,,,,,,,,,,,,,,,,,,,,,,,,,,,,,,,,,,,,,,,,,,,,,,,,,,,,,
,,,,,2023-10-06_14h47.33.123,slotMachine_updated,2023.1.3,MacIntel,60.0024001,,,,,,,,,,,,,"[9,15]","[[2,1,3],[2,3,1]]",222.6489,up,1.2445,,1.5,,stimuli/card_0_transparent.png,0,0,0,0,0,0,1,,,,,,,,,,,,,,,,,,,,,,,,,,,,,,,,,,,,,,,,,,,,,
,,,,,2023-10-06_14h47.33.123,slotMachine_updated,2023.1.3,MacIntel,60.0024001,,,,,,,,,,,,,,,225.742,left,0.3424,,1,,stimuli/card_10_transparent.png,10,10,1,0,1,0,1,,,,,,,,,,,,,,,,,,,,,,,,,,,,,,,,,,,,,,,,,,,,,
,,,,,2023-10-06_14h47.33.123,slotMachine_updated,2023.1.3,MacIntel,60.0024001,,,,,,,,,,,,,,,227.4126,up,0.9332,,1.5,,stimuli/card_100_transparent.png,110,100,2,0,2,0,1,,,,,,,,,,,,,,,,,,,,,,,,,,,,,,,,,,,,,,,,,,,,,
,,,,,2023-10-06_14h47.33.123,slotMachine_updated,2023.1.3,MacIntel,60.0024001,,,,,,,,,,,,,,,230.1634,right,0.128,,1,,stimuli/card_0_transparent.png,110,0,3,0,3,0,1,,,,,,,,,,,,,,,,,,,,,,,,,,,,,,,,,,,,,,,,,,,,,
,,,,,2023-10-06_14h47.33.123,slotMachine_updated,2023.1.3,MacIntel,60.0024001,,,,,,,,,,,,,,,231.6134,up,0.121,,1,,stimuli/card_0_transparent.png,110,0,4,0,4,0,1,,,,,,,,,,,,,,,,,,,,,,,,,,,,,,,,,,,,,,,,,,,,,
,,,,,2023-10-06_14h47.33.123,slotMachine_updated,2023.1.3,MacIntel,60.0024001,,,,,,,,,,,,,,,233.0475,up,0.1747,,1.5,,stimuli/card_100_transparent.png,210,100,5,0,5,0,1,,,,,,,,,,,,,,,,,,,,,,,,,,,,,,,,,,,,,,,,,,,,,
,,,,,2023-10-06_14h47.33.123,slotMachine_updated,2023.1.3,MacIntel,60.0024001,,,,,,,,,,,,,,,235.0292,up,0.0837,,0.5,,stimuli/card_100_transparent.png,310,100,6,0,6,0,1,,,,,,,,,,,,,,,,,,,,,,,,,,,,,,,,,,,,,,,,,,,,,
,,,,,2023-10-06_14h47.33.123,slotMachine_updated,2023.1.3,MacIntel,60.0024001,,,,,,,,,,,,,,,235.9295,up,0.0495,,1.5,,stimuli/card_0_transparent.png,310,0,7,0,7,0,1,,,,,,,,,,,,,,,,,,,,,,,,,,,,,,,,,,,,,,,,,,,,,
,,,,,2023-10-06_14h47.33.123,slotMachine_updated,2023.1.3,MacIntel,60.0024001,,,,,,,,,,,,,,,237.7842,up,0.0538,,0.5,,stimuli/card_100_transparent.png,410,100,8,0,8,0,1,,,,,,,,,,,,,,,,,,,,,,,,,,,,,,,,,,,,,,,,,,,,,
,,,,,2023-10-06_14h47.33.123,slotMachine_updated,2023.1.3,MacIntel,60.0024001,,,,,,,,,,,,,,,238.6511,up,0.041,,0.5,,stimuli/card_0_transparent.png,410,0,9,0,9,0,1,,,,,,,,,,,,,,,,,,,,,,,,,,,,,,,,,,,,,,,,,,,,,
,,,,,2023-10-06_14h47.33.123,slotMachine_updated,2023.1.3,MacIntel,60.0024001,,,,,,,,,,,,,,,239.5185,up,0.0544,,1.5,,stimuli/card_0_transparent.png,410,0,10,0,10,0,1,,,,,,,,,,,,,,,,,,,,,,,,,,,,,,,,,,,,,,,,,,,,,
,,,,,2023-10-06_14h47.33.123,slotMachine_updated,2023.1.3,MacIntel,60.0024001,,,,,,,,,,,,,,,241.3844,up,0.1883,,0.5,,stimuli/card_0_transparent.png,410,0,11,0,11,0,1,,,,,,,,,,,,,,,,,,,,,,,,,,,,,,,,,,,,,,,,,,,,,
,,,,,2023-10-06_14h47.33.123,slotMachine_updated,2023.1.3,MacIntel,60.0024001,,,,,,,,,,,,,,,242.3837,up,0.0767,,1,,stimuli/card_0_transparent.png,410,0,12,0,12,0,1,,,,,,,,,,,,,,,,,,,,,,,,,,,,,,,,,,,,,,,,,,,,,
,,,,,2023-10-06_14h47.33.123,slotMachine_updated,2023.1.3,MacIntel,60.0024001,,,,,,,,,,,,,,,243.7684,right,0.0064,,0.5,,stimuli/card_10_transparent.png,420,10,13,0,13,0,1,,,,,,,,,,,,,,,,,,,,,,,,,,,,,,,,,,,,,,,,,,,,,
,,,,,2023-10-06_14h47.33.123,slotMachine_updated,2023.1.3,MacIntel,60.0024001,,,,,,,,,,,,,,,244.5846,left,0.001,,0.5,,stimuli/card_10_transparent.png,430,10,14,0,14,0,1,,,,,,,,,,,,,,,,,,,,,,,,,,,,,,,,,,,,,,,,,,,,,
,,,,,2023-10-06_14h47.33.123,slotMachine_updated,2023.1.3,MacIntel,60.0024001,,,,,,,,,,,,,,,,,,,,,,,,,,,,,,245.4039,0,0,0,0,1,,,,,,,,,,,,,,,,,,,,,,,,,,,,,,,,,,,,,,
,,,,,2023-10-06_14h47.33.123,slotMachine_updated,2023.1.3,MacIntel,60.0024001,,,,,,,,,,,,,"[6,15]","[[1,3,2],[3,1,2]]",,,,,,,,,,,,,,,,,,,,,,,,,,,,,,,,,,,,,,,,,,,,,,,,,,,,,,,,,,,
,,,,,2023-10-06_14h47.33.123,slotMachine_updated,2023.1.3,MacIntel,60.0024001,,,,,,,,,,,,,,,250.4104,up,0.8272,,0.5,,stimuli/card_0_transparent.png,0,0,0,0,0,0,1,,,,,,,,,,,,,,,,,,,,,,,,,,,,,,,,,,,,,,,,,,,,,
,,,,,2023-10-06_14h47.33.123,slotMachine_updated,2023.1.3,MacIntel,60.0024001,,,,,,,,,,,,,,,252.0569,left,0.5714,,1,,stimuli/card_100_transparent.png,100,100,1,0,1,0,1,,,,,,,,,,,,,,,,,,,,,,,,,,,,,,,,,,,,,,,,,,,,,
,,,,,2023-10-06_14h47.33.123,slotMachine_updated,2023.1.3,MacIntel,60.0024001,,,,,,,,,,,,,,,253.9408,left,0.3247,,1.5,,stimuli/card_100_transparent.png,200,100,2,0,2,0,1,,,,,,,,,,,,,,,,,,,,,,,,,,,,,,,,,,,,,,,,,,,,,
,,,,,2023-10-06_14h47.33.123,slotMachine_updated,2023.1.3,MacIntel,60.0024001,,,,,,,,,,,,,,,256.0871,left,0.1727,,1.5,,stimuli/card_100_transparent.png,300,100,3,0,3,0,1,,,,,,,,,,,,,,,,,,,,,,,,,,,,,,,,,,,,,,,,,,,,,
,,,,,2023-10-06_14h47.33.123,slotMachine_updated,2023.1.3,MacIntel,60.0024001,,,,,,,,,,,,,,,258.0637,left,0.1638,,1,,stimuli/card_100_transparent.png,400,100,4,0,4,0,1,,,,,,,,,,,,,,,,,,,,,,,,,,,,,,,,,,,,,,,,,,,,,
,,,,,2023-10-06_14h47.33.123,slotMachine_updated,2023.1.3,MacIntel,60.0024001,,,,,,,,,,,,,,,259.5466,left,0.011,,0.5,,stimuli/card_100_transparent.png,500,100,5,0,5,0,1,,,,,,,,,,,,,,,,,,,,,,,,,,,,,,,,,,,,,,,,,,,,,
,,,,,2023-10-06_14h47.33.123,slotMachine_updated,2023.1.3,MacIntel,60.0024001,,,,,,,,,,,,,,,260.3789,left,0.0038,,1.5,,stimuli/card_0_transparent.png,500,0,6,0,6,0,1,,,,,,,,,,,,,,,,,,,,,,,,,,,,,,,,,,,,,,,,,,,,,
,,,,,2023-10-06_14h47.33.123,slotMachine_updated,2023.1.3,MacIntel,60.0024001,,,,,,,,,,,,,,,262.1976,left,0.0494,,1,,stimuli/card_0_transparent.png,500,0,7,0,7,0,1,,,,,,,,,,,,,,,,,,,,,,,,,,,,,,,,,,,,,,,,,,,,,
,,,,,2023-10-06_14h47.33.123,slotMachine_updated,2023.1.3,MacIntel,60.0024001,,,,,,,,,,,,,,,263.5614,left,0.0031,,1,,stimuli/card_0_transparent.png,500,0,8,0,8,0,1,,,,,,,,,,,,,,,,,,,,,,,,,,,,,,,,,,,,,,,,,,,,,
,,,,,2023-10-06_14h47.33.123,slotMachine_updated,2023.1.3,MacIntel,60.0024001,,,,,,,,,,,,,,,264.8789,left,0.0201,,1.5,,stimuli/card_0_transparent.png,500,0,9,0,9,0,1,,,,,,,,,,,,,,,,,,,,,,,,,,,,,,,,,,,,,,,,,,,,,
,,,,,2023-10-06_14h47.33.123,slotMachine_updated,2023.1.3,MacIntel,60.0024001,,,,,,,,,,,,,,,266.7013,right,0.2596,,1,,stimuli/card_10_transparent.png,510,10,10,0,10,0,1,,,,,,,,,,,,,,,,,,,,,,,,,,,,,,,,,,,,,,,,,,,,,
,,,,,2023-10-06_14h47.33.123,slotMachine_updated,2023.1.3,MacIntel,60.0024001,,,,,,,,,,,,,,,268.2689,up,0.0618,,0.5,,stimuli/card_100_transparent.png,610,100,11,0,11,0,1,,,,,,,,,,,,,,,,,,,,,,,,,,,,,,,,,,,,,,,,,,,,,
,,,,,2023-10-06_14h47.33.123,slotMachine_updated,2023.1.3,MacIntel,60.0024001,,,,,,,,,,,,,,,269.152,up,0.086,,0.5,,stimuli/card_100_transparent.png,710,100,12,0,12,0,1,,,,,,,,,,,,,,,,,,,,,,,,,,,,,,,,,,,,,,,,,,,,,
,,,,,2023-10-06_14h47.33.123,slotMachine_updated,2023.1.3,MacIntel,60.0024001,,,,,,,,,,,,,,,270.0508,up,0.0133,,1.5,,stimuli/card_100_transparent.png,810,100,13,0,13,0,1,,,,,,,,,,,,,,,,,,,,,,,,,,,,,,,,,,,,,,,,,,,,,
,,,,,2023-10-06_14h47.33.123,slotMachine_updated,2023.1.3,MacIntel,60.0024001,,,,,,,,,,,,,,,271.8854,up,0.0157,,1,,stimuli/card_100_transparent.png,910,100,14,0,14,0,1,,,,,,,,,,,,,,,,,,,,,,,,,,,,,,,,,,,,,,,,,,,,,
,,,,,2023-10-06_14h47.33.123,slotMachine_updated,2023.1.3,MacIntel,60.0024001,,,,,,,,,,,,,,,,,,,,,,,,,,,,,,,,,,,,,,273.2177,space,1.233,,,,,,,,,,,,,,,,,,,,,,,,,,,,,,,,,
,,,,,2023-10-06_14h47.33.123,slotMachine_updated,2023.1.3,MacIntel,60.0024001,,,,,,,,,,,,,,,,,,,,,,,,,,,,,,,,,,,,,,,,,,274.4695,1,"[0,1,2,3,4,5,6,7,8,9]",274.4695,space,0.7282,,,,,,,,,,,,,,,,,,,,,,,,,,
,,,,,2023-10-06_14h47.33.123,slotMachine_updated,2023.1.3,MacIntel,60.0024001,,,,,,,,,,,,,,,,,,,,,,,,,,,,,,,,,,,,,,,,,,,,,,,,,1,1,"[12,15]","[[2,1,3],[2,3,1]]",275.2276,up,1.6734,,1,0.3,"[2,1,3]",0.044572669,stimuli/card_0_transparent.png,0,0,0,0,0,0,1,,,,,
,,,,,2023-10-06_14h47.33.123,slotMachine_updated,2023.1.3,MacIntel,60.0024001,,,,,,,,,,,,,,,,,,,,,,,,,,,,,,,,,,,,,,,,,,,,,,,,,,,,,278.2229,up,0.172,,0.5,0.3,"[2,1,3]",0.510961898,stimuli/card_100_transparent.png,100,100,1,0,1,0,1,,,,,
,,,,,2023-10-06_14h47.33.123,slotMachine_updated,2023.1.3,MacIntel,60.0024001,,,,,,,,,,,,,,,,,,,,,,,,,,,,,,,,,,,,,,,,,,,,,,,,,,,,,279.2069,up,0.1993,,1.5,0.3,"[2,1,3]",0.529458143,stimuli/card_100_transparent.png,200,100,2,0,2,0,1,,,,,
,,,,,2023-10-06_14h47.33.123,slotMachine_updated,2023.1.3,MacIntel,60.0024001,,,,,,,,,,,,,,,,,,,,,,,,,,,,,,,,,,,,,,,,,,,,,,,,,,,,,281.2234,up,0.1653,,1,0.3,"[2,1,3]",0.123787671,stimuli/card_10_transparent.png,210,10,3,0,3,0,1,,,,,
,,,,,2023-10-06_14h47.33.123,slotMachine_updated,2023.1.3,MacIntel,60.0024001,,,,,,,,,,,,,,,,,,,,,,,,,,,,,,,,,,,,,,,,,,,,,,,,,,,,,282.7071,right,0.0369,,0.5,0.3,"[2,1,3]",0.535441711,stimuli/card_0_transparent.png,210,0,4,0,4,0,1,,,,,
,,,,,2023-10-06_14h47.33.123,slotMachine_updated,2023.1.3,MacIntel,60.0024001,,,,,,,,,,,,,,,,,,,,,,,,,,,,,,,,,,,,,,,,,,,,,,,,,,,,,283.5569,up,0.049,,0.5,0.3,"[2,1,3]",0.671167165,stimuli/card_100_transparent.png,310,100,5,0,5,0,1,,,,,
,,,,,2023-10-06_14h47.33.123,slotMachine_updated,2023.1.3,MacIntel,60.0024001,,,,,,,,,,,,,,,,,,,,,,,,,,,,,,,,,,,,,,,,,,,,,,,,,,,,,284.4234,left,0.254,,1,0.3,"[2,1,3]",0.510187707,stimuli/card_10_transparent.png,320,10,6,0,6,0,1,,,,,
,,,,,2023-10-06_14h47.33.123,slotMachine_updated,2023.1.3,MacIntel,60.0024001,,,,,,,,,,,,,,,,,,,,,,,,,,,,,,,,,,,,,,,,,,,,,,,,,,,,,285.9891,up,0.0011,,0.5,0.3,"[2,1,3]",0.748242165,stimuli/card_100_transparent.png,420,100,7,0,7,0,1,,,,,
,,,,,2023-10-06_14h47.33.123,slotMachine_updated,2023.1.3,MacIntel,60.0024001,,,,,,,,,,,,,,,,,,,,,,,,,,,,,,,,,,,,,,,,,,,,,,,,,,,,,286.8123,up,0.0492,,0.5,0.3,"[2,1,3]",0.549391396,stimuli/card_100_transparent.png,520,100,8,0,8,0,1,,,,,
,,,,,2023-10-06_14h47.33.123,slotMachine_updated,2023.1.3,MacIntel,60.0024001,,,,,,,,,,,,,,,,,,,,,,,,,,,,,,,,,,,,,,,,,,,,,,,,,,,,,287.6788,up,0.1167,,1,0.3,"[2,1,3]",0.211817129,stimuli/card_100_transparent.png,620,100,9,0,9,0,1,,,,,
,,,,,2023-10-06_14h47.33.123,slotMachine_updated,2023.1.3,MacIntel,60.0024001,,,,,,,,,,,,,,,,,,,,,,,,,,,,,,,,,,,,,,,,,,,,,,,,,,,,,289.1113,up,0.0173,,1.5,0.3,"[2,1,3]",0.621189251,stimuli/card_100_transparent.png,720,100,10,0,10,0,1,,,,,
,,,,,2023-10-06_14h47.33.123,slotMachine_updated,2023.1.3,MacIntel,60.0024001,,,,,,,,,,,,,,,,,,,,,,,,,,,,,,,,,,,,,,,,,,,,,,,,,,,,,290.9466,up,0.0506,,0.5,0.3,"[2,1,3]",0.086008645,stimuli/card_0_transparent.png,720,0,11,0,11,0,1,,,,,
,,,,,2023-10-06_14h47.33.123,slotMachine_updated,2023.1.3,MacIntel,60.0024001,,,,,,,,,,,,,,,,,,,,,,,,,,,,,,,,,,,,,,,,,,,,,,,,,,,,,291.8123,up,0.0898,,1.5,0.3,"[2,3,1]",0.788039702,stimuli/card_0_transparent.png,720,0,12,0,12,0,1,,,,,
,,,,,2023-10-06_14h47.33.123,slotMachine_updated,2023.1.3,MacIntel,60.0024001,,,,,,,,,,,,,,,,,,,,,,,,,,,,,,,,,,,,,,,,,,,,,,,,,,,,,293.7133,right,0.4898,,0.5,0.3,"[2,3,1]",0.248187149,stimuli/card_100_transparent.png,820,100,13,0,13,0,1,,,,,
,,,,,2023-10-06_14h47.33.123,slotMachine_updated,2023.1.3,MacIntel,60.0024001,,,,,,,,,,,,,,,,,,,,,,,,,,,,,,,,,,,,,,,,,,,,,,,,,,,,,295.0127,up,0.0007,,1.5,0.3,"[2,3,1]",0.77362407,stimuli/card_0_transparent.png,820,0,14,0,14,0,1,,,,,
,,,,,2023-10-06_14h47.33.123,slotMachine_updated,2023.1.3,MacIntel,60.0024001,,,,,,,,,,,,,,,,,,,,,,,,,,,,,,296.8173,,,,,,,,,,,,,,,,,,,,,,,,,,,,,,,,,,,,,,,0,0,0,0,1
,,,,,2023-10-06_14h47.33.123,slotMachine_updated,2023.1.3,MacIntel,60.0024001,,,,,,,,,,,,,,,,,,,,,,,,,,,,,,,,,,,,,,,,,,,,,,,,,2,2,"[6,15]","[[1,3,2],[3,2,1]]",301.8218,right,0.0783,,1,0.3,"[1,3,2]",0.120909033,stimuli/card_100_transparent.png,100,100,0,0,0,0,1,,,,,
,,,,,2023-10-06_14h47.33.123,slotMachine_updated,2023.1.3,MacIntel,60.0024001,,,,,,,,,,,,,,,,,,,,,,,,,,,,,,,,,,,,,,,,,,,,,,,,,,,,,303.2178,left,0.6665,,1,0.3,"[1,3,2]",0.425177216,stimuli/card_100_transparent.png,200,100,1,0,1,0,1,,,,,
,,,,,2023-10-06_14h47.33.123,slotMachine_updated,2023.1.3,MacIntel,60.0024001,,,,,,,,,,,,,,,,,,,,,,,,,,,,,,,,,,,,,,,,,,,,,,,,,,,,,305.2017,left,0.0477,,1.5,0.3,"[1,3,2]",0.733958726,stimuli/card_100_transparent.png,300,100,2,0,2,0,1,,,,,
,,,,,2023-10-06_14h47.33.123,slotMachine_updated,2023.1.3,MacIntel,60.0024001,,,,,,,,,,,,,,,,,,,,,,,,,,,,,,,,,,,,,,,,,,,,,,,,,,,,,307.0573,left,0.2516,,1,0.3,"[1,3,2]",0.953928565,stimuli/card_100_transparent.png,400,100,3,0,3,0,1,,,,,
,,,,,2023-10-06_14h47.33.123,slotMachine_updated,2023.1.3,MacIntel,60.0024001,,,,,,,,,,,,,,,,,,,,,,,,,,,,,,,,,,,,,,,,,,,,,,,,,,,,,308.6239,left,0.2121,,1.5,0.3,"[1,3,2]",0.870283578,stimuli/card_100_transparent.png,500,100,4,0,4,0,1,,,,,
,,,,,2023-10-06_14h47.33.123,slotMachine_updated,2023.1.3,MacIntel,60.0024001,,,,,,,,,,,,,,,,,,,,,,,,,,,,,,,,,,,,,,,,,,,,,,,,,,,,,310.6567,left,1.7905,,1.5,0.3,"[1,3,2]",0.398917016,stimuli/card_100_transparent.png,600,100,5,0,5,0,1,,,,,
,,,,,2023-10-06_14h47.33.123,slotMachine_updated,2023.1.3,MacIntel,60.0024001,,,,,,,,,,,,,,,,,,,,,,,,,,,,,,,,,,,,,,,,,,,,,,,,,,,,,314.256,left,0.0878,,0.5,0.3,"[3,2,1]",0.116953999,stimuli/card_10_transparent.png,610,10,6,0,6,0,1,,,,,
,,,,,2023-10-06_14h47.33.123,slotMachine_updated,2023.1.3,MacIntel,60.0024001,,,,,,,,,,,,,,,,,,,,,,,,,,,,,,,,,,,,,,,,,,,,,,,,,,,,,315.1473,left,0.0876,,0.5,0.3,"[3,2,1]",0.352796715,stimuli/card_0_transparent.png,610,0,7,0,7,0,1,,,,,
,,,,,2023-10-06_14h47.33.123,slotMachine_updated,2023.1.3,MacIntel,60.0024001,,,,,,,,,,,,,,,,,,,,,,,,,,,,,,,,,,,,,,,,,,,,,,,,,,,,,316.0575,left,0.0309,,1.5,0.3,"[3,2,1]",0.820047894,stimuli/card_0_transparent.png,610,0,8,0,8,0,1,,,,,
,,,,,2023-10-06_14h47.33.123,slotMachine_updated,2023.1.3,MacIntel,60.0024001,,,,,,,,,,,,,,,,,,,,,,,,,,,,,,,,,,,,,,,,,,,,,,,,,,,,,317.8966,up,0.1389,,1,0.3,"[3,2,1]",0.612696665,stimuli/card_10_transparent.png,620,10,9,0,9,0,1,,,,,
,,,,,2023-10-06_14h47.33.123,slotMachine_updated,2023.1.3,MacIntel,60.0024001,,,,,,,,,,,,,,,,,,,,,,,,,,,,,,,,,,,,,,,,,,,,,,,,,,,,,319.3462,right,0.3482,,1.5,0.3,"[3,2,1]",0.529297939,stimuli/card_100_transparent.png,720,100,10,0,10,0,1,,,,,
,,,,,2023-10-06_14h47.33.123,slotMachine_updated,2023.1.3,MacIntel,60.0024001,,,,,,,,,,,,,,,,,,,,,,,,,,,,,,,,,,,,,,,,,,,,,,,,,,,,,321.5129,right,0.018,,0.5,0.3,"[3,2,1]",0.152494024,stimuli/card_10_transparent.png,730,10,11,0,11,0,1,,,,,
,,,,,2023-10-06_14h47.33.123,slotMachine_updated,2023.1.3,MacIntel,60.0024001,,,,,,,,,,,,,,,,,,,,,,,,,,,,,,,,,,,,,,,,,,,,,,,,,,,,,322.3467,right,0.0103,,0.5,0.3,"[3,2,1]",0.429048185,stimuli/card_100_transparent.png,830,100,12,0,12,0,1,,,,,
,,,,,2023-10-06_14h47.33.123,slotMachine_updated,2023.1.3,MacIntel,60.0024001,,,,,,,,,,,,,,,,,,,,,,,,,,,,,,,,,,,,,,,,,,,,,,,,,,,,,323.1795,right,0.0216,,0.5,0.3,"[3,2,1]",0.700735282,stimuli/card_100_transparent.png,930,100,13,0,13,0,1,,,,,
,,,,,2023-10-06_14h47.33.123,slotMachine_updated,2023.1.3,MacIntel,60.0024001,,,,,,,,,,,,,,,,,,,,,,,,,,,,,,,,,,,,,,,,,,,,,,,,,,,,,324.0119,right,0.0344,,1,0.3,"[3,2,1]",0.603507478,stimuli/card_100_transparent.png,1030,100,14,0,14,0,1,,,,,
,,,,,2023-10-06_14h47.33.123,slotMachine_updated,2023.1.3,MacIntel,60.0024001,,,,,,,,,,,,,,,,,,,,,,,,,,,,,,325.3609,,,,,,,,,,,,,,,,,,,,,,,,,,,,,,,,,,,,,,,1,0,1,0,1
,,,,,2023-10-06_14h47.33.123,slotMachine_updated,2023.1.3,MacIntel,60.0024001,,,,,,,,,,,,,,,,,,,,,,,,,,,,,,,,,,,,,,,,,,,,,,,,,3,3,"[15,15]","[[3,1,2],[3,1,2]]",330.3542,left,0.7585,,1.5,0.3,"[3,1,2]",0.300287536,stimuli/card_0_transparent.png,0,0,0,0,0,0,1,,,,,
,,,,,2023-10-06_14h47.33.123,slotMachine_updated,2023.1.3,MacIntel,60.0024001,,,,,,,,,,,,,,,,,,,,,,,,,,,,,,,,,,,,,,,,,,,,,,,,,,,,,332.9188,up,0.0429,,1.5,0.3,"[3,1,2]",0.651653308,stimuli/card_100_transparent.png,100,100,1,0,1,0,1,,,,,
,,,,,2023-10-06_14h47.33.123,slotMachine_updated,2023.1.3,MacIntel,60.0024001,,,,,,,,,,,,,,,,,,,,,,,,,,,,,,,,,,,,,,,,,,,,,,,,,,,,,334.7685,up,0.0163,,1.5,0.3,"[3,1,2]",0.251413612,stimuli/card_100_transparent.png,200,100,2,0,2,0,1,,,,,
,,,,,2023-10-06_14h47.33.123,slotMachine_updated,2023.1.3,MacIntel,60.0024001,,,,,,,,,,,,,,,,,,,,,,,,,,,,,,,,,,,,,,,,,,,,,,,,,,,,,336.601,up,0.0705,,0.5,0.3,"[3,1,2]",0.357653274,stimuli/card_100_transparent.png,300,100,3,0,3,0,1,,,,,
,,,,,2023-10-06_14h47.33.123,slotMachine_updated,2023.1.3,MacIntel,60.0024001,,,,,,,,,,,,,,,,,,,,,,,,,,,,,,,,,,,,,,,,,,,,,,,,,,,,,337.473,up,0.0634,,1,0.3,"[3,1,2]",0.934978342,stimuli/card_100_transparent.png,400,100,4,0,4,0,1,,,,,
,,,,,2023-10-06_14h47.33.123,slotMachine_updated,2023.1.3,MacIntel,60.0024001,,,,,,,,,,,,,,,,,,,,,,,,,,,,,,,,,,,,,,,,,,,,,,,,,,,,,338.8561,up,0.2135,,0.5,0.3,"[3,1,2]",0.06614742,stimuli/card_0_transparent.png,400,0,5,0,5,0,1,,,,,
,,,,,2023-10-06_14h47.33.123,slotMachine_updated,2023.1.3,MacIntel,60.0024001,,,,,,,,,,,,,,,,,,,,,,,,,,,,,,,,,,,,,,,,,,,,,,,,,,,,,339.8911,up,0.1149,,0.5,0.3,"[3,1,2]",0.850732666,stimuli/card_100_transparent.png,500,100,6,0,6,0,1,,,,,
,,,,,2023-10-06_14h47.33.123,slotMachine_updated,2023.1.3,MacIntel,60.0024001,,,,,,,,,,,,,,,,,,,,,,,,,,,,,,,,,,,,,,,,,,,,,,,,,,,,,340.8249,up,0.0767,,1,0.3,"[3,1,2]",0.566313884,stimuli/card_100_transparent.png,600,100,7,0,7,0,1,,,,,
,,,,,2023-10-06_14h47.33.123,slotMachine_updated,2023.1.3,MacIntel,60.0024001,,,,,,,,,,,,,,,,,,,,,,,,,,,,,,,,,,,,,,,,,,,,,,,,,,,,,342.2253,up,0.0092,,1,0.3,"[3,1,2]",0.744037002,stimuli/card_100_transparent.png,700,100,8,0,8,0,1,,,,,
,,,,,2023-10-06_14h47.33.123,slotMachine_updated,2023.1.3,MacIntel,60.0024001,,,,,,,,,,,,,,,,,,,,,,,,,,,,,,,,,,,,,,,,,,,,,,,,,,,,,343.5558,up,0.0491,,0.5,0.3,"[3,1,2]",0.712156797,stimuli/card_100_transparent.png,800,100,9,0,9,0,1,,,,,
,,,,,2023-10-06_14h47.33.123,slotMachine_updated,2023.1.3,MacIntel,60.0024001,,,,,,,,,,,,,,,,,,,,,,,,,,,,,,,,,,,,,,,,,,,,,,,,,,,,,344.4246,up,0.0443,,1,0.3,"[3,1,2]",0.82596229,stimuli/card_100_transparent.png,900,100,10,0,10,0,1,,,,,
,,,,,2023-10-06_14h47.33.123,slotMachine_updated,2023.1.3,MacIntel,60.0024001,,,,,,,,,,,,,,,,,,,,,,,,,,,,,,,,,,,,,,,,,,,,,,,,,,,,,345.7913,up,0.1302,,0.5,0.3,"[3,1,2]",0.393694757,stimuli/card_100_transparent.png,1000,100,11,0,11,0,1,,,,,
,,,,,2023-10-06_14h47.33.123,slotMachine_updated,2023.1.3,MacIntel,60.0024001,,,,,,,,,,,,,,,,,,,,,,,,,,,,,,,,,,,,,,,,,,,,,,,,,,,,,346.7403,up,0.338,,1.5,0.3,"[3,1,2]",0.264344523,stimuli/card_100_transparent.png,1100,100,12,0,12,0,1,,,,,
,,,,,2023-10-06_14h47.33.123,slotMachine_updated,2023.1.3,MacIntel,60.0024001,,,,,,,,,,,,,,,,,,,,,,,,,,,,,,,,,,,,,,,,,,,,,,,,,,,,,348.8967,up,0.1658,,0.5,0.3,"[3,1,2]",0.457263352,stimuli/card_100_transparent.png,1200,100,13,0,13,0,1,,,,,
,,,,,2023-10-06_14h47.33.123,slotMachine_updated,2023.1.3,MacIntel,60.0024001,,,,,,,,,,,,,,,,,,,,,,,,,,,,,,,,,,,,,,,,,,,,,,,,,,,,,349.8794,up,0.1167,,1,0.3,"[3,1,2]",0.278128335,stimuli/card_100_transparent.png,1300,100,14,0,14,0,1,,,,,
,,,,,2023-10-06_14h47.33.123,slotMachine_updated,2023.1.3,MacIntel,60.0024001,,,,,,,,,,,,,,,,,,,,,,,,,,,,,,351.3134,,,,,,,,,,,,,,,,,,,,,,,,,,,,,,,,,,,,,,,2,0,2,0,1
,,,,,2023-10-06_14h47.33.123,slotMachine_updated,2023.1.3,MacIntel,60.0024001,,,,,,,,,,,,,,,,,,,,,,,,,,,,,,,,,,,,,,,,,,,,,,,,,4,4,"[7,15]","[[2,3,1],[1,2,3]]",356.3152,left,1.5686,,1.5,0.3,"[2,3,1]",0.715986747,stimuli/card_10_transparent.png,10,10,0,0,0,0,1,,,,,
,,,,,2023-10-06_14h47.33.123,slotMachine_updated,2023.1.3,MacIntel,60.0024001,,,,,,,,,,,,,,,,,,,,,,,,,,,,,,,,,,,,,,,,,,,,,,,,,,,,,359.7017,right,0.0437,,1.5,0.3,"[2,3,1]",0.172888676,stimuli/card_10_transparent.png,20,10,1,0,1,0,1,,,,,
,,,,,2023-10-06_14h47.33.123,slotMachine_updated,2023.1.3,MacIntel,60.0024001,,,,,,,,,,,,,,,,,,,,,,,,,,,,,,,,,,,,,,,,,,,,,,,,,,,,,361.5679,right,0.0547,,0.5,0.3,"[2,3,1]",0.939738973,stimuli/card_100_transparent.png,120,100,2,0,2,0,1,,,,,
,,,,,2023-10-06_14h47.33.123,slotMachine_updated,2023.1.3,MacIntel,60.0024001,,,,,,,,,,,,,,,,,,,,,,,,,,,,,,,,,,,,,,,,,,,,,,,,,,,,,362.4348,right,0.1343,,1,0.3,"[2,3,1]",0.194610905,stimuli/card_10_transparent.png,130,10,3,0,3,0,1,,,,,
,,,,,2023-10-06_14h47.33.123,slotMachine_updated,2023.1.3,MacIntel,60.0024001,,,,,,,,,,,,,,,,,,,,,,,,,,,,,,,,,,,,,,,,,,,,,,,,,,,,,363.8857,right,0.0292,,1,0.3,"[2,3,1]",0.433705069,stimuli/card_100_transparent.png,230,100,4,0,4,0,1,,,,,
,,,,,2023-10-06_14h47.33.123,slotMachine_updated,2023.1.3,MacIntel,60.0024001,,,,,,,,,,,,,,,,,,,,,,,,,,,,,,,,,,,,,,,,,,,,,,,,,,,,,365.235,right,0.0096,,1.5,0.3,"[2,3,1]",0.565119304,stimuli/card_100_transparent.png,330,100,5,0,5,0,1,,,,,
,,,,,2023-10-06_14h47.33.123,slotMachine_updated,2023.1.3,MacIntel,60.0024001,,,,,,,,,,,,,,,,,,,,,,,,,,,,,,,,,,,,,,,,,,,,,,,,,,,,,367.0568,right,0.3489,,1,0.3,"[2,3,1]",0.611680799,stimuli/card_100_transparent.png,430,100,6,0,6,0,1,,,,,
,,,,,2023-10-06_14h47.33.123,slotMachine_updated,2023.1.3,MacIntel,60.0024001,,,,,,,,,,,,,,,,,,,,,,,,,,,,,,,,,,,,,,,,,,,,,,,,,,,,,368.7243,right,1.9791,,0.5,0.3,"[1,2,3]",0.419927827,stimuli/card_0_transparent.png,430,0,7,0,7,0,1,,,,,
,,,,,2023-10-06_14h47.33.123,slotMachine_updated,2023.1.3,MacIntel,60.0024001,,,,,,,,,,,,,,,,,,,,,,,,,,,,,,,,,,,,,,,,,,,,,,,,,,,,,371.5256,right,0.1145,,1,0.3,"[1,2,3]",0.017527827,stimuli/card_100_transparent.png,530,100,8,0,8,0,1,,,,,
,,,,,2023-10-06_14h47.33.123,slotMachine_updated,2023.1.3,MacIntel,60.0024001,,,,,,,,,,,,,,,,,,,,,,,,,,,,,,,,,,,,,,,,,,,,,,,,,,,,,372.9561,right,0.0378,,1.5,0.3,"[1,2,3]",0.887400282,stimuli/card_0_transparent.png,530,0,9,0,9,0,1,,,,,
,,,,,2023-10-06_14h47.33.123,slotMachine_updated,2023.1.3,MacIntel,60.0024001,,,,,,,,,,,,,,,,,,,,,,,,,,,,,,,,,,,,,,,,,,,,,,,,,,,,,374.8067,right,0.0274,,1,0.3,"[1,2,3]",0.675002357,stimuli/card_0_transparent.png,530,0,10,0,10,0,1,,,,,
,,,,,2023-10-06_14h47.33.123,slotMachine_updated,2023.1.3,MacIntel,60.0024001,,,,,,,,,,,,,,,,,,,,,,,,,,,,,,,,,,,,,,,,,,,,,,,,,,,,,376.14,right,0.1054,,0.5,0.3,"[1,2,3]",0.823677938,stimuli/card_0_transparent.png,530,0,11,0,11,0,1,,,,,
,,,,,2023-10-06_14h47.33.123,slotMachine_updated,2023.1.3,MacIntel,60.0024001,,,,,,,,,,,,,,,,,,,,,,,,,,,,,,,,,,,,,,,,,,,,,,,,,,,,,377.0464,right,0.1157,,1,0.3,"[1,2,3]",0.461425403,stimuli/card_0_transparent.png,530,0,12,0,12,0,1,,,,,
,,,,,2023-10-06_14h47.33.123,slotMachine_updated,2023.1.3,MacIntel,60.0024001,,,,,,,,,,,,,,,,,,,,,,,,,,,,,,,,,,,,,,,,,,,,,,,,,,,,,378.4796,left,0.1515,,0.5,0.3,"[1,2,3]",0.82778938,stimuli/card_100_transparent.png,630,100,13,0,13,0,1,,,,,
,,,,,2023-10-06_14h47.33.123,slotMachine_updated,2023.1.3,MacIntel,60.0024001,,,,,,,,,,,,,,,,,,,,,,,,,,,,,,,,,,,,,,,,,,,,,,,,,,,,,379.447,left,0.9852,,1,0.3,"[1,2,3]",0.093550971,stimuli/card_0_transparent.png,630,0,14,0,14,0,1,,,,,
,,,,,2023-10-06_14h47.33.123,slotMachine_updated,2023.1.3,MacIntel,60.0024001,,,,,,,,,,,,,,,,,,,,,,,,,,,,,,381.7475,,,,,,,,,,,,,,,,,,,,,,,,,,,,,,,,,,,,,,,3,0,3,0,1
,,,,,2023-10-06_14h47.33.123,slotMachine_updated,2023.1.3,MacIntel,60.0024001,,,,,,,,,,,,,,,,,,,,,,,,,,,,,,,,,,,,,,,,,,,,,,,,,5,5,"[5,15]","[[1,2,3],[3,1,2]]",386.7472,left,0.3528,,1.5,0.3,"[1,2,3]",0.195040582,stimuli/card_10_transparent.png,10,10,0,0,0,0,1,,,,,
,,,,,2023-10-06_14h47.33.123,slotMachine_updated,2023.1.3,MacIntel,60.0024001,,,,,,,,,,,,,,,,,,,,,,,,,,,,,,,,,,,,,,,,,,,,,,,,,,,,,388.9184,left,0.0674,,1,0.3,"[1,2,3]",0.401499244,stimuli/card_100_transparent.png,110,100,1,0,1,0,1,,,,,
,,,,,2023-10-06_14h47.33.123,slotMachine_updated,2023.1.3,MacIntel,60.0024001,,,,,,,,,,,,,,,,,,,,,,,,,,,,,,,,,,,,,,,,,,,,,,,,,,,,,390.3017,left,0.1712,,1,0.3,"[1,2,3]",0.427456688,stimuli/card_100_transparent.png,210,100,2,0,2,0,1,,,,,
,,,,,2023-10-06_14h47.33.123,slotMachine_updated,2023.1.3,MacIntel,60.0024001,,,,,,,,,,,,,,,,,,,,,,,,,,,,,,,,,,,,,,,,,,,,,,,,,,,,,391.7851,left,0.1683,,1,0.3,"[1,2,3]",0.973186861,stimuli/card_100_transparent.png,310,100,3,0,3,0,1,,,,,
,,,,,2023-10-06_14h47.33.123,slotMachine_updated,2023.1.3,MacIntel,60.0024001,,,,,,,,,,,,,,,,,,,,,,,,,,,,,,,,,,,,,,,,,,,,,,,,,,,,,393.2689,left,0.0712,,0.5,0.3,"[1,2,3]",0.753710032,stimuli/card_100_transparent.png,410,100,4,0,4,0,1,,,,,
,,,,,2023-10-06_14h47.33.123,slotMachine_updated,2023.1.3,MacIntel,60.0024001,,,,,,,,,,,,,,,,,,,,,,,,,,,,,,,,,,,,,,,,,,,,,,,,,,,,,394.1521,left,0.1109,,0.5,0.3,"[3,1,2]",0.172896591,stimuli/card_10_transparent.png,420,10,5,0,5,0,1,,,,,
,,,,,2023-10-06_14h47.33.123,slotMachine_updated,2023.1.3,MacIntel,60.0024001,,,,,,,,,,,,,,,,,,,,,,,,,,,,,,,,,,,,,,,,,,,,,,,,,,,,,395.0852,left,0.0008,,1.5,0.3,"[3,1,2]",0.709079189,stimuli/card_0_transparent.png,420,0,6,0,6,0,1,,,,,
,,,,,2023-10-06_14h47.33.123,slotMachine_updated,2023.1.3,MacIntel,60.0024001,,,,,,,,,,,,,,,,,,,,,,,,,,,,,,,,,,,,,,,,,,,,,,,,,,,,,396.9085,up,0.3049,,1.5,0.3,"[3,1,2]",0.054775031,stimuli/card_0_transparent.png,420,0,7,0,7,0,1,,,,,
,,,,,2023-10-06_14h47.33.123,slotMachine_updated,2023.1.3,MacIntel,60.0024001,,,,,,,,,,,,,,,,,,,,,,,,,,,,,,,,,,,,,,,,,,,,,,,,,,,,,399.0219,up,0.1015,,0.5,0.3,"[3,1,2]",0.032574794,stimuli/card_0_transparent.png,420,0,8,0,8,0,1,,,,,
,,,,,2023-10-06_14h47.33.123,slotMachine_updated,2023.1.3,MacIntel,60.0024001,,,,,,,,,,,,,,,,,,,,,,,,,,,,,,,,,,,,,,,,,,,,,,,,,,,,,399.9424,up,0.1282,,1.5,0.3,"[3,1,2]",0.055638302,stimuli/card_0_transparent.png,420,0,9,0,9,0,1,,,,,
,,,,,2023-10-06_14h47.33.123,slotMachine_updated,2023.1.3,MacIntel,60.0024001,,,,,,,,,,,,,,,,,,,,,,,,,,,,,,,,,,,,,,,,,,,,,,,,,,,,,401.8748,up,0.1421,,0.5,0.3,"[3,1,2]",0.950970638,stimuli/card_100_transparent.png,520,100,10,0,10,0,1,,,,,
,,,,,2023-10-06_14h47.33.123,slotMachine_updated,2023.1.3,MacIntel,60.0024001,,,,,,,,,,,,,,,,,,,,,,,,,,,,,,,,,,,,,,,,,,,,,,,,,,,,,402.8249,up,0.048,,1.5,0.3,"[3,1,2]",0.10770635,stimuli/card_10_transparent.png,530,10,11,0,11,0,1,,,,,
,,,,,2023-10-06_14h47.33.123,slotMachine_updated,2023.1.3,MacIntel,60.0024001,,,,,,,,,,,,,,,,,,,,,,,,,,,,,,,,,,,,,,,,,,,,,,,,,,,,,404.6901,up,0.0805,,0.5,0.3,"[3,1,2]",0.441143318,stimuli/card_100_transparent.png,630,100,12,0,12,0,1,,,,,
,,,,,2023-10-06_14h47.33.123,slotMachine_updated,2023.1.3,MacIntel,60.0024001,,,,,,,,,,,,,,,,,,,,,,,,,,,,,,,,,,,,,,,,,,,,,,,,,,,,,405.5918,up,0.4343,,1,0.3,"[3,1,2]",0.975271339,stimuli/card_100_transparent.png,730,100,13,0,13,0,1,,,,,
,,,,,2023-10-06_14h47.33.123,slotMachine_updated,2023.1.3,MacIntel,60.0024001,,,,,,,,,,,,,,,,,,,,,,,,,,,,,,,,,,,,,,,,,,,,,,,,,,,,,407.3298,up,0.0653,,0.5,0.3,"[3,1,2]",0.531476407,stimuli/card_100_transparent.png,830,100,14,0,14,0,1,,,,,
,,,,,2023-10-06_14h47.33.123,slotMachine_updated,2023.1.3,MacIntel,60.0024001,,,,,,,,,,,,,,,,,,,,,,,,,,,,,,408.2137,,,,,,,,,,,,,,,,,,,,,,,,,,,,,,,,,,,,,,,4,0,4,0,1
,,,,,2023-10-06_14h47.33.123,slotMachine_updated,2023.1.3,MacIntel,60.0024001,,,,,,,,,,,,,,,,,,,,,,,,,,,,,,,,,,,,,,,,,,,,,,,,,6,6,"[4,10,15]","[[2,3,1],[1,3,2],[3,2,1]]",413.2193,right,3.2491,0.0004,0.5,0.3,"[2,3,1]",0.385996319,stimuli/card_100_transparent.png,100,100,0,0,0,0,1,,,,,
,,,,,2023-10-06_14h47.33.123,slotMachine_updated,2023.1.3,MacIntel,60.0024001,,,,,,,,,,,,,,,,,,,,,,,,,,,,,,,,,,,,,,,,,,,,,,,,,,,,,417.2676,right,0.0123,,1,0.3,"[2,3,1]",0.983020785,stimuli/card_100_transparent.png,200,100,1,0,1,0,1,,,,,
,,,,,2023-10-06_14h47.33.123,slotMachine_updated,2023.1.3,MacIntel,60.0024001,,,,,,,,,,,,,,,,,,,,,,,,,,,,,,,,,,,,,,,,,,,,,,,,,,,,,418.6017,right,0.087,,1,0.3,"[2,3,1]",0.92250912,stimuli/card_100_transparent.png,300,100,2,0,2,0,1,,,,,
,,,,,2023-10-06_14h47.33.123,slotMachine_updated,2023.1.3,MacIntel,60.0024001,,,,,,,,,,,,,,,,,,,,,,,,,,,,,,,,,,,,,,,,,,,,,,,,,,,,,420.0019,right,0.014,,1,0.3,"[2,3,1]",0.664101467,stimuli/card_100_transparent.png,400,100,3,0,3,0,1,,,,,
,,,,,2023-10-06_14h47.33.123,slotMachine_updated,2023.1.3,MacIntel,60.0024001,,,,,,,,,,,,,,,,,,,,,,,,,,,,,,,,,,,,,,,,,,,,,,,,,,,,,421.3363,right,0.0804,,1.5,0.3,"[1,3,2]",0.372839691,stimuli/card_10_transparent.png,410,10,4,0,4,0,1,,,,,
,,,,,2023-10-06_14h47.33.123,slotMachine_updated,2023.1.3,MacIntel,60.0024001,,,,,,,,,,,,,,,,,,,,,,,,,,,,,,,,,,,,,,,,,,,,,,,,,,,,,423.2362,right,0.088,,1,0.3,"[1,3,2]",0.226277584,stimuli/card_10_transparent.png,420,10,5,0,5,0,1,,,,,
,,,,,2023-10-06_14h47.33.123,slotMachine_updated,2023.1.3,MacIntel,60.0024001,,,,,,,,,,,,,,,,,,,,,,,,,,,,,,,,,,,,,,,,,,,,,,,,,,,,,424.6362,left,0.0626,,1.5,0.3,"[1,3,2]",0.187971917,stimuli/card_10_transparent.png,430,10,6,0,6,0,1,,,,,
,,,,,2023-10-06_14h47.33.123,slotMachine_updated,2023.1.3,MacIntel,60.0024001,,,,,,,,,,,,,,,,,,,,,,,,,,,,,,,,,,,,,,,,,,,,,,,,,,,,,426.5195,left,0.0848,,0.5,0.3,"[1,3,2]",0.040651972,stimuli/card_0_transparent.png,430,0,7,0,7,0,1,,,,,
,,,,,2023-10-06_14h47.33.123,slotMachine_updated,2023.1.3,MacIntel,60.0024001,,,,,,,,,,,,,,,,,,,,,,,,,,,,,,,,,,,,,,,,,,,,,,,,,,,,,427.4093,left,0.103,,1,0.3,"[1,3,2]",0.48821197,stimuli/card_100_transparent.png,530,100,8,0,8,0,1,,,,,
,,,,,2023-10-06_14h47.33.123,slotMachine_updated,2023.1.3,MacIntel,60.0024001,,,,,,,,,,,,,,,,,,,,,,,,,,,,,,,,,,,,,,,,,,,,,,,,,,,,,428.8245,left,0.0339,,0.5,0.3,"[1,3,2]",0.003866585,stimuli/card_0_transparent.png,530,0,9,0,9,0,1,,,,,
,,,,,2023-10-06_14h47.33.123,slotMachine_updated,2023.1.3,MacIntel,60.0024001,,,,,,,,,,,,,,,,,,,,,,,,,,,,,,,,,,,,,,,,,,,,,,,,,,,,,429.6747,left,0.0515,,0.5,0.3,"[3,2,1]",0.904879305,stimuli/card_0_transparent.png,530,0,10,0,10,0,1,,,,,
,,,,,2023-10-06_14h47.33.123,slotMachine_updated,2023.1.3,MacIntel,60.0024001,,,,,,,,,,,,,,,,,,,,,,,,,,,,,,,,,,,,,,,,,,,,,,,,,,,,,430.5421,left,0.12,,0.5,0.3,"[3,2,1]",0.334698793,stimuli/card_0_transparent.png,530,0,11,0,11,0,1,,,,,
,,,,,2023-10-06_14h47.33.123,slotMachine_updated,2023.1.3,MacIntel,60.0024001,,,,,,,,,,,,,,,,,,,,,,,,,,,,,,,,,,,,,,,,,,,,,,,,,,,,,431.4745,right,0.0742,,0.5,0.3,"[3,2,1]",0.247155953,stimuli/card_100_transparent.png,630,100,12,0,12,0,1,,,,,
,,,,,2023-10-06_14h47.33.123,slotMachine_updated,2023.1.3,MacIntel,60.0024001,,,,,,,,,,,,,,,,,,,,,,,,,,,,,,,,,,,,,,,,,,,,,,,,,,,,,432.3584,right,0.0506,,1.5,0.3,"[3,2,1]",0.875673911,stimuli/card_100_transparent.png,730,100,13,0,13,0,1,,,,,
,,,,,2023-10-06_14h47.33.123,slotMachine_updated,2023.1.3,MacIntel,60.0024001,,,,,,,,,,,,,,,,,,,,,,,,,,,,,,,,,,,,,,,,,,,,,,,,,,,,,434.2229,right,0.0491,,1.5,0.3,"[3,2,1]",0.104933418,stimuli/card_10_transparent.png,740,10,14,0,14,0,1,,,,,
,,,,,2023-10-06_14h47.33.123,slotMachine_updated,2023.1.3,MacIntel,60.0024001,,,,,,,,,,,,,,,,,,,,,,,,,,,,,,436.0903,,,,,,,,,,,,,,,,,,,,,,,,,,,,,,,,,,,,,,,5,0,5,0,1
,,,,,2023-10-06_14h47.33.123,slotMachine_updated,2023.1.3,MacIntel,60.0024001,,,,,,,,,,,,,,,,,,,,,,,,,,,,,,,,,,,,,,,,,,,,,,,,,7,7,"[9,15]","[[1,3,2],[2,3,1]]",441.0832,right,0.0636,,1.5,0.3,"[1,3,2]",0.745943554,stimuli/card_10_transparent.png,10,10,0,0,0,0,1,,,,,
,,,,,2023-10-06_14h47.33.123,slotMachine_updated,2023.1.3,MacIntel,60.0024001,,,,,,,,,,,,,,,,,,,,,,,,,,,,,,,,,,,,,,,,,,,,,,,,,,,,,442.9658,left,0.0221,,0.5,0.3,"[1,3,2]",0.562623765,stimuli/card_100_transparent.png,110,100,1,0,1,0,1,,,,,
,,,,,2023-10-06_14h47.33.123,slotMachine_updated,2023.1.3,MacIntel,60.0024001,,,,,,,,,,,,,,,,,,,,,,,,,,,,,,,,,,,,,,,,,,,,,,,,,,,,,443.8118,left,0.0359,,0.5,0.3,"[1,3,2]",0.292825053,stimuli/card_100_transparent.png,210,100,2,0,2,0,1,,,,,
,,,,,2023-10-06_14h47.33.123,slotMachine_updated,2023.1.3,MacIntel,60.0024001,,,,,,,,,,,,,,,,,,,,,,,,,,,,,,,,,,,,,,,,,,,,,,,,,,,,,444.6629,left,3.7932,,1,0.3,"[1,3,2]",0.109298612,stimuli/card_10_transparent.png,220,10,3,0,3,0,1,,,,,
,,,,,2023-10-06_14h47.33.123,slotMachine_updated,2023.1.3,MacIntel,60.0024001,,,,,,,,,,,,,,,,,,,,,,,,,,,,,,,,,,,,,,,,,,,,,,,,,,,,,449.7686,left,0.055,,0.5,0.3,"[1,3,2]",0.046196371,stimuli/card_0_transparent.png,220,0,4,0,4,0,1,,,,,
,,,,,2023-10-06_14h47.33.123,slotMachine_updated,2023.1.3,MacIntel,60.0024001,,,,,,,,,,,,,,,,,,,,,,,,,,,,,,,,,,,,,,,,,,,,,,,,,,,,,450.6358,left,0.1014,,0.5,0.3,"[1,3,2]",0.59179241,stimuli/card_100_transparent.png,320,100,5,0,5,0,1,,,,,
,,,,,2023-10-06_14h47.33.123,slotMachine_updated,2023.1.3,MacIntel,60.0024001,,,,,,,,,,,,,,,,,,,,,,,,,,,,,,,,,,,,,,,,,,,,,,,,,,,,,451.5528,left,2.3182,,0.5,0.3,"[1,3,2]",0.373544548,stimuli/card_100_transparent.png,420,100,6,0,6,0,1,,,,,
,,,,,2023-10-06_14h47.33.123,slotMachine_updated,2023.1.3,MacIntel,60.0024001,,,,,,,,,,,,,,,,,,,,,,,,,,,,,,,,,,,,,,,,,,,,,,,,,,,,,454.6845,left,0.001,,1,0.3,"[1,3,2]",0.985734812,stimuli/card_100_transparent.png,520,100,7,0,7,0,1,,,,,
,,,,,2023-10-06_14h47.33.123,slotMachine_updated,2023.1.3,MacIntel,60.0024001,,,,,,,,,,,,,,,,,,,,,,,,,,,,,,,,,,,,,,,,,,,,,,,,,,,,,456.0028,left,0.4617,,0.5,0.3,"[1,3,2]",0.803551574,stimuli/card_100_transparent.png,620,100,8,0,8,0,1,,,,,
,,,,,2023-10-06_14h47.33.123,slotMachine_updated,2023.1.3,MacIntel,60.0024001,,,,,,,,,,,,,,,,,,,,,,,,,,,,,,,,,,,,,,,,,,,,,,,,,,,,,457.2767,left,0.018,,1.5,0.3,"[2,3,1]",0.007101562,stimuli/card_0_transparent.png,620,0,9,0,9,0,1,,,,,
,,,,,2023-10-06_14h47.33.123,slotMachine_updated,2023.1.3,MacIntel,60.0024001,,,,,,,,,,,,,,,,,,,,,,,,,,,,,,,,,,,,,,,,,,,,,,,,,,,,,459.1076,left,0.0198,,1,0.3,"[2,3,1]",0.116343907,stimuli/card_100_transparent.png,720,100,10,0,10,0,1,,,,,
,,,,,2023-10-06_14h47.33.123,slotMachine_updated,2023.1.3,MacIntel,60.0024001,,,,,,,,,,,,,,,,,,,,,,,,,,,,,,,,,,,,,,,,,,,,,,,,,,,,,460.4423,right,0.1263,,1.5,0.3,"[2,3,1]",0.81742537,stimuli/card_100_transparent.png,820,100,11,0,11,0,1,,,,,
,,,,,2023-10-06_14h47.33.123,slotMachine_updated,2023.1.3,MacIntel,60.0024001,,,,,,,,,,,,,,,,,,,,,,,,,,,,,,,,,,,,,,,,,,,,,,,,,,,,,462.3933,right,0.0174,,1,0.3,"[2,3,1]",0.088464666,stimuli/card_0_transparent.png,820,0,12,0,12,0,1,,,,,
,,,,,2023-10-06_14h47.33.123,slotMachine_updated,2023.1.3,MacIntel,60.0024001,,,,,,,,,,,,,,,,,,,,,,,,,,,,,,,,,,,,,,,,,,,,,,,,,,,,,463.7181,right,0.0958,,1,0.3,"[2,3,1]",0.531143541,stimuli/card_100_transparent.png,920,100,13,0,13,0,1,,,,,
,,,,,2023-10-06_14h47.33.123,slotMachine_updated,2023.1.3,MacIntel,60.0024001,,,,,,,,,,,,,,,,,,,,,,,,,,,,,,,,,,,,,,,,,,,,,,,,,,,,,465.1405,right,0.137,,1.5,0.3,"[2,3,1]",0.799583033,stimuli/card_100_transparent.png,1020,100,14,0,14,0,1,,,,,
,,,,,2023-10-06_14h47.33.123,slotMachine_updated,2023.1.3,MacIntel,60.0024001,,,,,,,,,,,,,,,,,,,,,,,,,,,,,,467.0804,,,,,,,,,,,,,,,,,,,,,,,,,,,,,,,,,,,,,,,6,0,6,0,1
,,,,,2023-10-06_14h47.33.123,slotMachine_updated,2023.1.3,MacIntel,60.0024001,,,,,,,,,,,,,,,,,,,,,,,,,,,,,,,,,,,,,,,,,,,,,,,,,8,8,"[11,15]","[[2,1,3],[1,2,3]]",472.0826,up,1.7347,,1.5,0.3,"[2,1,3]",0.698207457,stimuli/card_100_transparent.png,100,100,0,0,0,0,1,,,,,
,,,,,2023-10-06_14h47.33.123,slotMachine_updated,2023.1.3,MacIntel,60.0024001,,,,,,,,,,,,,,,,,,,,,,,,,,,,,,,,,,,,,,,,,,,,,,,,,,,,,475.6309,up,0.0372,,0.5,0.3,"[2,1,3]",0.107127867,stimuli/card_10_transparent.png,110,10,1,0,1,0,1,,,,,
,,,,,2023-10-06_14h47.33.123,slotMachine_updated,2023.1.3,MacIntel,60.0024001,,,,,,,,,,,,,,,,,,,,,,,,,,,,,,,,,,,,,,,,,,,,,,,,,,,,,476.478,up,0.1103,,1.5,0.3,"[2,1,3]",0.492769312,stimuli/card_100_transparent.png,210,100,2,0,2,0,1,,,,,
,,,,,2023-10-06_14h47.33.123,slotMachine_updated,2023.1.3,MacIntel,60.0024001,,,,,,,,,,,,,,,,,,,,,,,,,,,,,,,,,,,,,,,,,,,,,,,,,,,,,478.3879,up,0.1156,,1.5,0.3,"[2,1,3]",0.193509089,stimuli/card_10_transparent.png,220,10,3,0,3,0,1,,,,,
,,,,,2023-10-06_14h47.33.123,slotMachine_updated,2023.1.3,MacIntel,60.0024001,,,,,,,,,,,,,,,,,,,,,,,,,,,,,,,,,,,,,,,,,,,,,,,,,,,,,480.3194,up,0.1846,,1,0.3,"[2,1,3]",0.091315821,stimuli/card_0_transparent.png,220,0,4,0,4,0,1,,,,,
,,,,,2023-10-06_14h47.33.123,slotMachine_updated,2023.1.3,MacIntel,60.0024001,,,,,,,,,,,,,,,,,,,,,,,,,,,,,,,,,,,,,,,,,,,,,,,,,,,,,481.8209,up,0.0045,,1,0.3,"[2,1,3]",0.345857236,stimuli/card_100_transparent.png,320,100,5,0,5,0,1,,,,,
,,,,,2023-10-06_14h47.33.123,slotMachine_updated,2023.1.3,MacIntel,60.0024001,,,,,,,,,,,,,,,,,,,,,,,,,,,,,,,,,,,,,,,,,,,,,,,,,,,,,483.1382,up,0.1263,,0.5,0.3,"[2,1,3]",0.279679795,stimuli/card_100_transparent.png,420,100,6,0,6,0,1,,,,,
,,,,,2023-10-06_14h47.33.123,slotMachine_updated,2023.1.3,MacIntel,60.0024001,,,,,,,,,,,,,,,,,,,,,,,,,,,,,,,,,,,,,,,,,,,,,,,,,,,,,484.0854,up,0.0225,,1.5,0.3,"[2,1,3]",0.621567621,stimuli/card_100_transparent.png,520,100,7,0,7,0,1,,,,,
,,,,,2023-10-06_14h47.33.123,slotMachine_updated,2023.1.3,MacIntel,60.0024001,,,,,,,,,,,,,,,,,,,,,,,,,,,,,,,,,,,,,,,,,,,,,,,,,,,,,485.9183,up,0.0444,,1,0.3,"[2,1,3]",0.83767679,stimuli/card_100_transparent.png,620,100,8,0,8,0,1,,,,,
,,,,,2023-10-06_14h47.33.123,slotMachine_updated,2023.1.3,MacIntel,60.0024001,,,,,,,,,,,,,,,,,,,,,,,,,,,,,,,,,,,,,,,,,,,,,,,,,,,,,487.2759,up,0.054,,0.5,0.3,"[2,1,3]",0.021073916,stimuli/card_0_transparent.png,620,0,9,0,9,0,1,,,,,
,,,,,2023-10-06_14h47.33.123,slotMachine_updated,2023.1.3,MacIntel,60.0024001,,,,,,,,,,,,,,,,,,,,,,,,,,,,,,,,,,,,,,,,,,,,,,,,,,,,,488.1421,up,0.1328,,0.5,0.3,"[2,1,3]",0.069278165,stimuli/card_0_transparent.png,620,0,10,0,10,0,1,,,,,
,,,,,2023-10-06_14h47.33.123,slotMachine_updated,2023.1.3,MacIntel,60.0024001,,,,,,,,,,,,,,,,,,,,,,,,,,,,,,,,,,,,,,,,,,,,,,,,,,,,,489.0908,up,0.1367,,0.5,0.3,"[1,2,3]",0.919478755,stimuli/card_10_transparent.png,630,10,11,0,11,0,1,,,,,
,,,,,2023-10-06_14h47.33.123,slotMachine_updated,2023.1.3,MacIntel,60.0024001,,,,,,,,,,,,,,,,,,,,,,,,,,,,,,,,,,,,,,,,,,,,,,,,,,,,,490.0421,up,0.0139,,0.5,0.3,"[1,2,3]",0.761307848,stimuli/card_10_transparent.png,640,10,12,0,12,0,1,,,,,
,,,,,2023-10-06_14h47.33.123,slotMachine_updated,2023.1.3,MacIntel,60.0024001,,,,,,,,,,,,,,,,,,,,,,,,,,,,,,,,,,,,,,,,,,,,,,,,,,,,,490.8767,left,0.0011,,1.5,0.3,"[1,2,3]",0.416837723,stimuli/card_100_transparent.png,740,100,13,0,13,0,1,,,,,
,,,,,2023-10-06_14h47.33.123,slotMachine_updated,2023.1.3,MacIntel,60.0024001,,,,,,,,,,,,,,,,,,,,,,,,,,,,,,,,,,,,,,,,,,,,,,,,,,,,,492.6929,left,0.1537,,1.5,0.3,"[1,2,3]",0.09374807,stimuli/card_0_transparent.png,740,0,14,0,14,0,1,,,,,
,,,,,2023-10-06_14h47.33.123,slotMachine_updated,2023.1.3,MacIntel,60.0024001,,,,,,,,,,,,,,,,,,,,,,,,,,,,,,494.6582,,,,,,,,,,,,,,,,,,,,,,,,,,,,,,,,,,,,,,,7,0,7,0,1
,,,,,2023-10-06_14h47.33.123,slotMachine_updated,2023.1.3,MacIntel,60.0024001,,,,,,,,,,,,,,,,,,,,,,,,,,,,,,,,,,,,,,,,,,,,,,,,,9,9,"[8,15]","[[3,2,1],[3,1,2]]",499.6643,right,1.472,,0.5,0.3,"[3,2,1]",0.609115449,stimuli/card_100_transparent.png,100,100,0,0,0,0,1,,,,,
,,,,,2023-10-06_14h47.33.123,slotMachine_updated,2023.1.3,MacIntel,60.0024001,,,,,,,,,,,,,,,,,,,,,,,,,,,,,,,,,,,,,,,,,,,,,,,,,,,,,501.9485,right,0.3208,,1,0.3,"[3,2,1]",0.435238187,stimuli/card_100_transparent.png,200,100,1,0,1,0,1,,,,,
,,,,,2023-10-06_14h47.33.123,slotMachine_updated,2023.1.3,MacIntel,60.0024001,,,,,,,,,,,,,,,,,,,,,,,,,,,,,,,,,,,,,,,,,,,,,,,,,,,,,503.5825,right,0.0178,,0.5,0.3,"[3,2,1]",0.524412483,stimuli/card_100_transparent.png,300,100,2,0,2,0,1,,,,,
,,,,,2023-10-06_14h47.33.123,slotMachine_updated,2023.1.3,MacIntel,60.0024001,,,,,,,,,,,,,,,,,,,,,,,,,,,,,,,,,,,,,,,,,,,,,,,,,,,,,504.4137,right,0.0513,,0.5,0.3,"[3,2,1]",0.445653421,stimuli/card_100_transparent.png,400,100,3,0,3,0,1,,,,,
,,,,,2023-10-06_14h47.33.123,slotMachine_updated,2023.1.3,MacIntel,60.0024001,,,,,,,,,,,,,,,,,,,,,,,,,,,,,,,,,,,,,,,,,,,,,,,,,,,,,505.2811,right,0.5531,,1.5,0.3,"[3,2,1]",0.92287093,stimuli/card_100_transparent.png,500,100,4,0,4,0,1,,,,,
,,,,,2023-10-06_14h47.33.123,slotMachine_updated,2023.1.3,MacIntel,60.0024001,,,,,,,,,,,,,,,,,,,,,,,,,,,,,,,,,,,,,,,,,,,,,,,,,,,,,507.6427,right,0.4462,,1.5,0.3,"[3,2,1]",0.230793142,stimuli/card_100_transparent.png,600,100,5,0,5,0,1,,,,,
,,,,,2023-10-06_14h47.33.123,slotMachine_updated,2023.1.3,MacIntel,60.0024001,,,,,,,,,,,,,,,,,,,,,,,,,,,,,,,,,,,,,,,,,,,,,,,,,,,,,509.9009,right,0.1765,,1,0.3,"[3,2,1]",0.457883569,stimuli/card_100_transparent.png,700,100,6,0,6,0,1,,,,,
,,,,,2023-10-06_14h47.33.123,slotMachine_updated,2023.1.3,MacIntel,60.0024001,,,,,,,,,,,,,,,,,,,,,,,,,,,,,,,,,,,,,,,,,,,,,,,,,,,,,511.4024,right,0.0888,,1.5,0.3,"[3,2,1]",0.867357266,stimuli/card_100_transparent.png,800,100,7,0,7,0,1,,,,,
,,,,,2023-10-06_14h47.33.123,slotMachine_updated,2023.1.3,MacIntel,60.0024001,,,,,,,,,,,,,,,,,,,,,,,,,,,,,,,,,,,,,,,,,,,,,,,,,,,,,513.3042,right,0.0666,,1.5,0.3,"[3,1,2]",0.76572297,stimuli/card_10_transparent.png,810,10,8,0,8,0,1,,,,,
,,,,,2023-10-06_14h47.33.123,slotMachine_updated,2023.1.3,MacIntel,60.0024001,,,,,,,,,,,,,,,,,,,,,,,,,,,,,,,,,,,,,,,,,,,,,,,,,,,,,515.1865,right,0.0176,,1,0.3,"[3,1,2]",0.667221874,stimuli/card_10_transparent.png,820,10,9,0,9,0,1,,,,,
,,,,,2023-10-06_14h47.33.123,slotMachine_updated,2023.1.3,MacIntel,60.0024001,,,,,,,,,,,,,,,,,,,,,,,,,,,,,,,,,,,,,,,,,,,,,,,,,,,,,516.5184,up,0.166,,0.5,0.3,"[3,1,2]",0.944082913,stimuli/card_100_transparent.png,920,100,10,0,10,0,1,,,,,
,,,,,2023-10-06_14h47.33.123,slotMachine_updated,2023.1.3,MacIntel,60.0024001,,,,,,,,,,,,,,,,,,,,,,,,,,,,,,,,,,,,,,,,,,,,,,,,,,,,,517.4902,up,0.2146,,1.5,0.3,"[3,1,2]",0.225941715,stimuli/card_100_transparent.png,1020,100,11,0,11,0,1,,,,,
,,,,,2023-10-06_14h47.33.123,slotMachine_updated,2023.1.3,MacIntel,60.0024001,,,,,,,,,,,,,,,,,,,,,,,,,,,,,,,,,,,,,,,,,,,,,,,,,,,,,519.5269,up,0.2858,,1.5,0.3,"[3,1,2]",0.456004963,stimuli/card_100_transparent.png,1120,100,12,0,12,0,1,,,,,
,,,,,2023-10-06_14h47.33.123,slotMachine_updated,2023.1.3,MacIntel,60.0024001,,,,,,,,,,,,,,,,,,,,,,,,,,,,,,,,,,,,,,,,,,,,,,,,,,,,,521.6258,up,0.1365,,0.5,0.3,"[3,1,2]",0.277458215,stimuli/card_100_transparent.png,1220,100,13,0,13,0,1,,,,,
,,,,,2023-10-06_14h47.33.123,slotMachine_updated,2023.1.3,MacIntel,60.0024001,,,,,,,,,,,,,,,,,,,,,,,,,,,,,,,,,,,,,,,,,,,,,,,,,,,,,522.5768,up,0.133,,1,0.3,"[3,1,2]",0.285242036,stimuli/card_100_transparent.png,1320,100,14,0,14,0,1,,,,,
,,,,,2023-10-06_14h47.33.123,slotMachine_updated,2023.1.3,MacIntel,60.0024001,,,,,,,,,,,,,,,,,,,,,,,,,,,,,,524.0238,,,,,,,,,,,,,,,,,,,,,,,,,,,,,,,,,,,,,,,8,0,8,0,1
,,,,,2023-10-06_14h47.33.123,slotMachine_updated,2023.1.3,MacIntel,60.0024001,,,,,,,,,,,,,,,,,,,,,,,,,,,,,,,,,,,,,,,,,,,,,,,,,10,10,"[10,15]","[[3,1,2],[1,3,2]]",529.0179,up,0.8614,,1.5,0.3,"[3,1,2]",0.511086519,stimuli/card_100_transparent.png,100,100,0,0,0,0,1,,,,,
,,,,,2023-10-06_14h47.33.123,slotMachine_updated,2023.1.3,MacIntel,60.0024001,,,,,,,,,,,,,,,,,,,,,,,,,,,,,,,,,,,,,,,,,,,,,,,,,,,,,531.6988,up,0.2058,,1,0.3,"[3,1,2]",0.20054641,stimuli/card_100_transparent.png,200,100,1,0,1,0,1,,,,,
,,,,,2023-10-06_14h47.33.123,slotMachine_updated,2023.1.3,MacIntel,60.0024001,,,,,,,,,,,,,,,,,,,,,,,,,,,,,,,,,,,,,,,,,,,,,,,,,,,,,533.2136,up,0.1192,,1.5,0.3,"[3,1,2]",0.780767925,stimuli/card_100_transparent.png,300,100,2,0,2,0,1,,,,,
,,,,,2023-10-06_14h47.33.123,slotMachine_updated,2023.1.3,MacIntel,60.0024001,,,,,,,,,,,,,,,,,,,,,,,,,,,,,,,,,,,,,,,,,,,,,,,,,,,,,535.1488,up,0.0986,,1,0.3,"[3,1,2]",0.59311244,stimuli/card_100_transparent.png,400,100,3,0,3,0,1,,,,,
,,,,,2023-10-06_14h47.33.123,slotMachine_updated,2023.1.3,MacIntel,60.0024001,,,,,,,,,,,,,,,,,,,,,,,,,,,,,,,,,,,,,,,,,,,,,,,,,,,,,536.5634,up,0.0246,,1,0.3,"[3,1,2]",0.376572921,stimuli/card_100_transparent.png,500,100,4,0,4,0,1,,,,,
,,,,,2023-10-06_14h47.33.123,slotMachine_updated,2023.1.3,MacIntel,60.0024001,,,,,,,,,,,,,,,,,,,,,,,,,,,,,,,,,,,,,,,,,,,,,,,,,,,,,537.919,up,0.131,,1.5,0.3,"[3,1,2]",0.369576992,stimuli/card_100_transparent.png,600,100,5,0,5,0,1,,,,,
,,,,,2023-10-06_14h47.33.123,slotMachine_updated,2023.1.3,MacIntel,60.0024001,,,,,,,,,,,,,,,,,,,,,,,,,,,,,,,,,,,,,,,,,,,,,,,,,,,,,539.87,up,0.193,,0.5,0.3,"[3,1,2]",0.629523498,stimuli/card_100_transparent.png,700,100,6,0,6,0,1,,,,,
,,,,,2023-10-06_14h47.33.123,slotMachine_updated,2023.1.3,MacIntel,60.0024001,,,,,,,,,,,,,,,,,,,,,,,,,,,,,,,,,,,,,,,,,,,,,,,,,,,,,540.8869,up,0.4684,,1.5,0.3,"[3,1,2]",0.910188859,stimuli/card_100_transparent.png,800,100,7,0,7,0,1,,,,,
,,,,,2023-10-06_14h47.33.123,slotMachine_updated,2023.1.3,MacIntel,60.0024001,,,,,,,,,,,,,,,,,,,,,,,,,,,,,,,,,,,,,,,,,,,,,,,,,,,,,543.171,up,1.4335,,0.5,0.3,"[3,1,2]",0.311610575,stimuli/card_100_transparent.png,900,100,8,0,8,0,1,,,,,
,,,,,2023-10-06_14h47.33.123,slotMachine_updated,2023.1.3,MacIntel,60.0024001,,,,,,,,,,,,,,,,,,,,,,,,,,,,,,,,,,,,,,,,,,,,,,,,,,,,,545.4201,up,0.249,,1.5,0.3,"[3,1,2]",0.328663337,stimuli/card_100_transparent.png,1000,100,9,0,9,0,1,,,,,
,,,,,2023-10-06_14h47.33.123,slotMachine_updated,2023.1.3,MacIntel,60.0024001,,,,,,,,,,,,,,,,,,,,,,,,,,,,,,,,,,,,,,,,,,,,,,,,,,,,,547.4749,up,0.3658,,1,0.3,"[1,3,2]",0.172728067,stimuli/card_10_transparent.png,1010,10,10,0,10,0,1,,,,,
,,,,,2023-10-06_14h47.33.123,slotMachine_updated,2023.1.3,MacIntel,60.0024001,,,,,,,,,,,,,,,,,,,,,,,,,,,,,,,,,,,,,,,,,,,,,,,,,,,,,549.1584,left,0.3295,,1.5,0.3,"[1,3,2]",0.973306316,stimuli/card_100_transparent.png,1110,100,11,0,11,0,1,,,,,
,,,,,2023-10-06_14h47.33.123,slotMachine_updated,2023.1.3,MacIntel,60.0024001,,,,,,,,,,,,,,,,,,,,,,,,,,,,,,,,,,,,,,,,,,,,,,,,,,,,,551.3095,left,0.9757,,1.5,0.3,"[1,3,2]",0.474764385,stimuli/card_100_transparent.png,1210,100,12,0,12,0,1,,,,,
,,,,,2023-10-06_14h47.33.123,slotMachine_updated,2023.1.3,MacIntel,60.0024001,,,,,,,,,,,,,,,,,,,,,,,,,,,,,,,,,,,,,,,,,,,,,,,,,,,,,554.1105,left,0.6283,,0.5,0.3,"[1,3,2]",0.658009629,stimuli/card_100_transparent.png,1310,100,13,0,13,0,1,,,,,
,,,,,2023-10-06_14h47.33.123,slotMachine_updated,2023.1.3,MacIntel,60.0024001,,,,,,,,,,,,,,,,,,,,,,,,,,,,,,,,,,,,,,,,,,,,,,,,,,,,,555.5578,left,0.1515,,0.5,0.3,"[1,3,2]",0.263565404,stimuli/card_100_transparent.png,1410,100,14,0,14,0,1,,,,,
,,,,,2023-10-06_14h47.33.123,slotMachine_updated,2023.1.3,MacIntel,60.0024001,,,,,,,,,,,,,,,,,,,,,,,,,,,,,,556.5407,,,,,,,,,,,,,,,,,,,,,,,,,,,,,,,,,,,,,,,9,0,9,0,1
,,,,,2023-10-06_14h47.33.123,slotMachine_updated,2023.1.3,MacIntel,60.0024001,,,,,,,,,,,,,,,,,,,,,,,,,,,,,,,,,,,,,,,,,,,,,,,,,,,,,,,,,,,,,,,,,,,,,,,,,
