key_resp_welcome.started,key_resp_welcome.keys,key_resp_welcome.rt,key_resp_welcome.duration,participant,date,expName,psychopyVersion,OS,frameRate,key_resp_instruction1.started,key_resp_instruction1.keys,key_resp_instruction1.rt,key_resp_instruction1.duration,key_resp_instruction2.started,key_resp_instruction2.keys,key_resp_instruction2.rt,key_resp_instruction2.duration,key_resp_instruction3.started,key_resp_instruction3.keys,key_resp_instruction3.rt,key_resp_instruction3.duration,practiceCondition,practice_reward_seqs,key_resp_practice_slots.started,key_resp_practice_slots.keys,key_resp_practice_slots.rt,key_resp_practice_slots.duration,presentationInterval,"practice_reward_seq: 2,1,3",reward_Img,Cuml_rew,currentPracticeTrialReward,practice_trials.thisRepN,practice_trials.thisTrialN,practice_trials.thisN,practice_trials.thisIndex,practice_trials.ran,"practice_reward_seq: 2,3,1",text_block_break.started,practice_block.thisRepN,practice_block.thisTrialN,practice_block.thisN,practice_block.thisIndex,practice_block.ran,"practice_reward_seq: 1,3,2","practice_reward_seq: 3,1,2",key_resp_practice_end.started,key_resp_practice_end.keys,key_resp_practice_end.rt,key_resp_practice_end.duration,text_main_instruction.started,BlockCondition,BlockOrderIndices,key_resp_main_instruction.started,key_resp_main_instruction.keys,key_resp_main_instruction.rt,key_resp_main_instruction.duration,currentCondition,main_reward_seqs,key_resp_slots_presentation.started,key_resp_slots_presentation.keys,key_resp_slots_presentation.rt,key_resp_slots_presentation.duration,Main_presentationInterval,rewardPresentationTime,Main_reward_seq,Random value generated,Main_reward_Img,Main_Cumul_Reward,Main_currentTrialReward,main_trials.thisRepN,main_trials.thisTrialN,main_trials.thisN,main_trials.thisIndex,main_trials.ran,block.thisRepN,block.thisTrialN,block.thisN,block.thisIndex,block.ran
0.0003,space,3.9111,,,2023-10-06_13h55.24.116,slotMachine_updated,2023.1.3,MacIntel,60.0024001,,,,,,,,,,,,,,,,,,,,,,,,,,,,,,,,,,,,,,,,,,,,,,,,,,,,,,,,,,,,,,,,,,,,,,,
,,,,,2023-10-06_13h55.24.116,slotMachine_updated,2023.1.3,MacIntel,60.0024001,,,,,,,,,,,,,,,,,,,,,,,,,,,,,,,,,,,,,,,,,,,,,,,,,,,,,,,,,,,,,,,,,,,,,,,
,,,,,2023-10-06_13h55.24.116,slotMachine_updated,2023.1.3,MacIntel,60.0024001,145.5619,space,9.5901,,,,,,,,,,,,,,,,,,,,,,,,,,,,,,,,,,,,,,,,,,,,,,,,,,,,,,,,,,,,,,,,,,,,
,,,,,2023-10-06_13h55.24.116,slotMachine_updated,2023.1.3,MacIntel,60.0024001,,,,,155.1833,space,14.8722,,,,,,,,,,,,,,,,,,,,,,,,,,,,,,,,,,,,,,,,,,,,,,,,,,,,,,,,,,,,,,,,
,,,,,2023-10-06_13h55.24.116,slotMachine_updated,2023.1.3,MacIntel,60.0024001,,,,,,,,,170.0758,space,11.0405,,,,,,,,,,,,,,,,,,,,,,,,,,,,,,,,,,,,,,,,,,,,,,,,,,,,,,,,,,,,
,,,,,2023-10-06_13h55.24.116,slotMachine_updated,2023.1.3,MacIntel,60.0024001,,,,,,,,,,,,,"[9,15]","[[2,1,3],[2,3,1]]",181.1366,up,1.0615,,1,,stimuli/card_100_transparent.png,100,100,0,0,0,0,1,,,,,,,,,,,,,,,,,,,,,,,,,,,,,,,,,,,,,,,,,,,
,,,,,2023-10-06_13h55.24.116,slotMachine_updated,2023.1.3,MacIntel,60.0024001,,,,,,,,,,,,,,,183.5311,right,1.3775,,0.5,,stimuli/card_100_transparent.png,200,100,1,0,1,0,1,,,,,,,,,,,,,,,,,,,,,,,,,,,,,,,,,,,,,,,,,,,
,,,,,2023-10-06_13h55.24.116,slotMachine_updated,2023.1.3,MacIntel,60.0024001,,,,,,,,,,,,,,,185.7289,up,0.7431,,1,,stimuli/card_100_transparent.png,300,100,2,0,2,0,1,,,,,,,,,,,,,,,,,,,,,,,,,,,,,,,,,,,,,,,,,,,
,,,,,2023-10-06_13h55.24.116,slotMachine_updated,2023.1.3,MacIntel,60.0024001,,,,,,,,,,,,,,,187.7872,up,0.433,,1,,stimuli/card_10_transparent.png,310,10,3,0,3,0,1,,,,,,,,,,,,,,,,,,,,,,,,,,,,,,,,,,,,,,,,,,,
,,,,,2023-10-06_13h55.24.116,slotMachine_updated,2023.1.3,MacIntel,60.0024001,,,,,,,,,,,,,,,189.5364,up,0.4158,,1,,stimuli/card_100_transparent.png,410,100,4,0,4,0,1,,,,,,,,,,,,,,,,,,,,,,,,,,,,,,,,,,,,,,,,,,,
,,,,,2023-10-06_13h55.24.116,slotMachine_updated,2023.1.3,MacIntel,60.0024001,,,,,,,,,,,,,,,191.2704,up,0.6351,,1,,stimuli/card_100_transparent.png,510,100,5,0,5,0,1,,,,,,,,,,,,,,,,,,,,,,,,,,,,,,,,,,,,,,,,,,,
,,,,,2023-10-06_13h55.24.116,slotMachine_updated,2023.1.3,MacIntel,60.0024001,,,,,,,,,,,,,,,193.2209,up,0.281,,1.5,,stimuli/card_100_transparent.png,610,100,6,0,6,0,1,,,,,,,,,,,,,,,,,,,,,,,,,,,,,,,,,,,,,,,,,,,
,,,,,2023-10-06_13h55.24.116,slotMachine_updated,2023.1.3,MacIntel,60.0024001,,,,,,,,,,,,,,,195.3218,up,0.2857,,1.5,,stimuli/card_100_transparent.png,710,100,7,0,7,0,1,,,,,,,,,,,,,,,,,,,,,,,,,,,,,,,,,,,,,,,,,,,
,,,,,2023-10-06_13h55.24.116,slotMachine_updated,2023.1.3,MacIntel,60.0024001,,,,,,,,,,,,,,,197.4085,up,0.3123,,1,,stimuli/card_100_transparent.png,810,100,8,0,8,0,1,,,,,,,,,,,,,,,,,,,,,,,,,,,,,,,,,,,,,,,,,,,
,,,,,2023-10-06_13h55.24.116,slotMachine_updated,2023.1.3,MacIntel,60.0024001,,,,,,,,,,,,,,,199.0431,left,0.3288,,0.5,,stimuli/card_10_transparent.png,820,10,9,0,9,0,1,,,,,,,,,,,,,,,,,,,,,,,,,,,,,,,,,,,,,,,,,,,
,,,,,2023-10-06_13h55.24.116,slotMachine_updated,2023.1.3,MacIntel,60.0024001,,,,,,,,,,,,,,,200.1938,right,0.5556,,0.5,,stimuli/card_100_transparent.png,920,100,10,0,10,0,1,,,,,,,,,,,,,,,,,,,,,,,,,,,,,,,,,,,,,,,,,,,
,,,,,2023-10-06_13h55.24.116,slotMachine_updated,2023.1.3,MacIntel,60.0024001,,,,,,,,,,,,,,,201.5562,right,0.8604,,1.5,,stimuli/card_100_transparent.png,1020,100,11,0,11,0,1,,,,,,,,,,,,,,,,,,,,,,,,,,,,,,,,,,,,,,,,,,,
,,,,,2023-10-06_13h55.24.116,slotMachine_updated,2023.1.3,MacIntel,60.0024001,,,,,,,,,,,,,,,204.2719,right,0.3098,,0.5,,stimuli/card_100_transparent.png,1120,100,12,0,12,0,1,,,,,,,,,,,,,,,,,,,,,,,,,,,,,,,,,,,,,,,,,,,
,,,,,2023-10-06_13h55.24.116,slotMachine_updated,2023.1.3,MacIntel,60.0024001,,,,,,,,,,,,,,,205.4238,right,0.779,,0.5,,stimuli/card_100_transparent.png,1220,100,13,0,13,0,1,,,,,,,,,,,,,,,,,,,,,,,,,,,,,,,,,,,,,,,,,,,
,,,,,2023-10-06_13h55.24.116,slotMachine_updated,2023.1.3,MacIntel,60.0024001,,,,,,,,,,,,,,,207.0146,right,0.2729,,0.5,,stimuli/card_10_transparent.png,1230,10,14,0,14,0,1,,,,,,,,,,,,,,,,,,,,,,,,,,,,,,,,,,,,,,,,,,,
,,,,,2023-10-06_13h55.24.116,slotMachine_updated,2023.1.3,MacIntel,60.0024001,,,,,,,,,,,,,,,,,,,,,,,,,,,,,,208.0986,0,0,0,0,1,,,,,,,,,,,,,,,,,,,,,,,,,,,,,,,,,,,,
,,,,,2023-10-06_13h55.24.116,slotMachine_updated,2023.1.3,MacIntel,60.0024001,,,,,,,,,,,,,"[6,15]","[[1,3,2],[3,1,2]]",,,,,,,,,,,,,,,,,,,,,,,,,,,,,,,,,,,,,,,,,,,,,,,,,,,,,,,,,
,,,,,2023-10-06_13h55.24.116,slotMachine_updated,2023.1.3,MacIntel,60.0024001,,,,,,,,,,,,,,,213.1023,up,0.8149,,1,,stimuli/card_0_transparent.png,0,0,0,0,0,0,1,,,,,,,,,,,,,,,,,,,,,,,,,,,,,,,,,,,,,,,,,,,
,,,,,2023-10-06_13h55.24.116,slotMachine_updated,2023.1.3,MacIntel,60.0024001,,,,,,,,,,,,,,,215.2322,left,0.2897,,0.5,,stimuli/card_100_transparent.png,100,100,1,0,1,0,1,,,,,,,,,,,,,,,,,,,,,,,,,,,,,,,,,,,,,,,,,,,
,,,,,2023-10-06_13h55.24.116,slotMachine_updated,2023.1.3,MacIntel,60.0024001,,,,,,,,,,,,,,,216.3202,left,0.3607,,1,,stimuli/card_100_transparent.png,200,100,2,0,2,0,1,,,,,,,,,,,,,,,,,,,,,,,,,,,,,,,,,,,,,,,,,,,
,,,,,2023-10-06_13h55.24.116,slotMachine_updated,2023.1.3,MacIntel,60.0024001,,,,,,,,,,,,,,,218.0024,left,0.0486,,0.5,,stimuli/card_100_transparent.png,300,100,3,0,3,0,1,,,,,,,,,,,,,,,,,,,,,,,,,,,,,,,,,,,,,,,,,,,
,,,,,2023-10-06_13h55.24.116,slotMachine_updated,2023.1.3,MacIntel,60.0024001,,,,,,,,,,,,,,,218.8701,left,0.3182,,1.5,,stimuli/card_100_transparent.png,400,100,4,0,4,0,1,,,,,,,,,,,,,,,,,,,,,,,,,,,,,,,,,,,,,,,,,,,
,,,,,2023-10-06_13h55.24.116,slotMachine_updated,2023.1.3,MacIntel,60.0024001,,,,,,,,,,,,,,,221.0048,left,0.5694,,1,,stimuli/card_10_transparent.png,410,10,5,0,5,0,1,,,,,,,,,,,,,,,,,,,,,,,,,,,,,,,,,,,,,,,,,,,
,,,,,2023-10-06_13h55.24.116,slotMachine_updated,2023.1.3,MacIntel,60.0024001,,,,,,,,,,,,,,,222.8858,right,0.2976,,1,,stimuli/card_10_transparent.png,420,10,6,0,6,0,1,,,,,,,,,,,,,,,,,,,,,,,,,,,,,,,,,,,,,,,,,,,
,,,,,2023-10-06_13h55.24.116,slotMachine_updated,2023.1.3,MacIntel,60.0024001,,,,,,,,,,,,,,,224.5015,right,0.0242,,1.5,,stimuli/card_10_transparent.png,430,10,7,0,7,0,1,,,,,,,,,,,,,,,,,,,,,,,,,,,,,,,,,,,,,,,,,,,
,,,,,2023-10-06_13h55.24.116,slotMachine_updated,2023.1.3,MacIntel,60.0024001,,,,,,,,,,,,,,,226.327,right,0.0501,,0.5,,stimuli/card_10_transparent.png,440,10,8,0,8,0,1,,,,,,,,,,,,,,,,,,,,,,,,,,,,,,,,,,,,,,,,,,,
,,,,,2023-10-06_13h55.24.116,slotMachine_updated,2023.1.3,MacIntel,60.0024001,,,,,,,,,,,,,,,227.1915,up,0.0347,,0.5,,stimuli/card_100_transparent.png,540,100,9,0,9,0,1,,,,,,,,,,,,,,,,,,,,,,,,,,,,,,,,,,,,,,,,,,,
,,,,,2023-10-06_13h55.24.116,slotMachine_updated,2023.1.3,MacIntel,60.0024001,,,,,,,,,,,,,,,228.043,up,0.1791,,1,,stimuli/card_100_transparent.png,640,100,10,0,10,0,1,,,,,,,,,,,,,,,,,,,,,,,,,,,,,,,,,,,,,,,,,,,
,,,,,2023-10-06_13h55.24.116,slotMachine_updated,2023.1.3,MacIntel,60.0024001,,,,,,,,,,,,,,,229.5431,up,0.0542,,1.5,,stimuli/card_0_transparent.png,640,0,11,0,11,0,1,,,,,,,,,,,,,,,,,,,,,,,,,,,,,,,,,,,,,,,,,,,
,,,,,2023-10-06_13h55.24.116,slotMachine_updated,2023.1.3,MacIntel,60.0024001,,,,,,,,,,,,,,,231.41,up,1.0209,,1.5,,stimuli/card_100_transparent.png,740,100,12,0,12,0,1,,,,,,,,,,,,,,,,,,,,,,,,,,,,,,,,,,,,,,,,,,,
,,,,,2023-10-06_13h55.24.116,slotMachine_updated,2023.1.3,MacIntel,60.0024001,,,,,,,,,,,,,,,234.2404,up,1.7611,,0.5,,stimuli/card_100_transparent.png,840,100,13,0,13,0,1,,,,,,,,,,,,,,,,,,,,,,,,,,,,,,,,,,,,,,,,,,,
,,,,,2023-10-06_13h55.24.116,slotMachine_updated,2023.1.3,MacIntel,60.0024001,,,,,,,,,,,,,,,236.8162,up,0.2827,,1,,stimuli/card_100_transparent.png,940,100,14,0,14,0,1,,,,,,,,,,,,,,,,,,,,,,,,,,,,,,,,,,,,,,,,,,,
,,,,,2023-10-06_13h55.24.116,slotMachine_updated,2023.1.3,MacIntel,60.0024001,,,,,,,,,,,,,,,,,,,,,,,,,,,,,,,,,,,,,,238.4161,space,4.35,,,,,,,,,,,,,,,,,,,,,,,,,,,,,,,
,,,,,2023-10-06_13h55.24.116,slotMachine_updated,2023.1.3,MacIntel,60.0024001,,,,,,,,,,,,,,,,,,,,,,,,,,,,,,,,,,,,,,,,,,242.7798,3,"[0,4,6,3,5,7,8,1,9,2]",242.7798,space,3.0057,,,,,,,,,,,,,,,,,,,,,,,,
,,,,,2023-10-06_13h55.24.116,slotMachine_updated,2023.1.3,MacIntel,60.0024001,,,,,,,,,,,,,,,,,,,,,,,,,,,,,,,,,,,,,,,,,,,,,,,,,"[12,15]","[[2,1,3],[2,3,1]]",245.8005,left,0.605,,0.5,0.3,"[2,1,3]",0.707377183,stimuli/card_10_transparent.png,10,10,0,0,0,0,1,,,,,
,,,,,2023-10-06_13h55.24.116,slotMachine_updated,2023.1.3,MacIntel,60.0024001,,,,,,,,,,,,,,,,,,,,,,,,,,,,,,,,,,,,,,,,,,,,,,,,,,,247.2213,up,0.4993,,1.5,0.3,"[2,1,3]",0.520269571,stimuli/card_100_transparent.png,110,100,1,0,1,0,1,,,,,
,,,,,2023-10-06_13h55.24.116,slotMachine_updated,2023.1.3,MacIntel,60.0024001,,,,,,,,,,,,,,,,,,,,,,,,,,,,,,,,,,,,,,,,,,,,,,,,,,,249.5352,up,0.4353,,0.5,0.3,"[2,1,3]",0.323421224,stimuli/card_100_transparent.png,210,100,2,0,2,0,1,,,,,
,,,,,2023-10-06_13h55.24.116,slotMachine_updated,2023.1.3,MacIntel,60.0024001,,,,,,,,,,,,,,,,,,,,,,,,,,,,,,,,,,,,,,,,,,,,,,,,,,,250.7871,up,0.6353,,1,0.3,"[2,1,3]",0.994394279,stimuli/card_100_transparent.png,310,100,3,0,3,0,1,,,,,
,,,,,2023-10-06_13h55.24.116,slotMachine_updated,2023.1.3,MacIntel,60.0024001,,,,,,,,,,,,,,,,,,,,,,,,,,,,,,,,,,,,,,,,,,,,,,,,,,,252.7358,up,0.2939,,1,0.3,"[2,1,3]",0.095044669,stimuli/card_0_transparent.png,310,0,4,0,4,0,1,,,,,
,,,,,2023-10-06_13h55.24.116,slotMachine_updated,2023.1.3,MacIntel,60.0024001,,,,,,,,,,,,,,,,,,,,,,,,,,,,,,,,,,,,,,,,,,,,,,,,,,,254.3519,up,0.0684,,1.5,0.3,"[2,1,3]",0.336931064,stimuli/card_100_transparent.png,410,100,5,0,5,0,1,,,,,
,,,,,2023-10-06_13h55.24.116,slotMachine_updated,2023.1.3,MacIntel,60.0024001,,,,,,,,,,,,,,,,,,,,,,,,,,,,,,,,,,,,,,,,,,,,,,,,,,,256.2446,right,0.0079,,1,0.3,"[2,1,3]",0.846144815,stimuli/card_0_transparent.png,410,0,6,0,6,0,1,,,,,
,,,,,2023-10-06_13h55.24.116,slotMachine_updated,2023.1.3,MacIntel,60.0024001,,,,,,,,,,,,,,,,,,,,,,,,,,,,,,,,,,,,,,,,,,,,,,,,,,,257.5755,up,0.2854,,1.5,0.3,"[2,1,3]",0.179835459,stimuli/card_10_transparent.png,420,10,7,0,7,0,1,,,,,
,,,,,2023-10-06_13h55.24.116,slotMachine_updated,2023.1.3,MacIntel,60.0024001,,,,,,,,,,,,,,,,,,,,,,,,,,,,,,,,,,,,,,,,,,,,,,,,,,,259.6765,up,0.0669,,1.5,0.3,"[2,1,3]",0.950045138,stimuli/card_100_transparent.png,520,100,8,0,8,0,1,,,,,
,,,,,2023-10-06_13h55.24.116,slotMachine_updated,2023.1.3,MacIntel,60.0024001,,,,,,,,,,,,,,,,,,,,,,,,,,,,,,,,,,,,,,,,,,,,,,,,,,,261.5576,up,0.231,,0.5,0.3,"[2,1,3]",0.547517683,stimuli/card_100_transparent.png,620,100,9,0,9,0,1,,,,,
,,,,,2023-10-06_13h55.24.116,slotMachine_updated,2023.1.3,MacIntel,60.0024001,,,,,,,,,,,,,,,,,,,,,,,,,,,,,,,,,,,,,,,,,,,,,,,,,,,262.6079,up,0.0842,,1,0.3,"[2,1,3]",0.519738396,stimuli/card_100_transparent.png,720,100,10,0,10,0,1,,,,,
,,,,,2023-10-06_13h55.24.116,slotMachine_updated,2023.1.3,MacIntel,60.0024001,,,,,,,,,,,,,,,,,,,,,,,,,,,,,,,,,,,,,,,,,,,,,,,,,,,264.0069,up,0.0641,,1,0.3,"[2,1,3]",0.757549433,stimuli/card_100_transparent.png,820,100,11,0,11,0,1,,,,,
,,,,,2023-10-06_13h55.24.116,slotMachine_updated,2023.1.3,MacIntel,60.0024001,,,,,,,,,,,,,,,,,,,,,,,,,,,,,,,,,,,,,,,,,,,,,,,,,,,265.3927,up,0.4418,,1,0.3,"[2,3,1]",0.831934845,stimuli/card_0_transparent.png,820,0,12,0,12,0,1,,,,,
,,,,,2023-10-06_13h55.24.116,slotMachine_updated,2023.1.3,MacIntel,60.0024001,,,,,,,,,,,,,,,,,,,,,,,,,,,,,,,,,,,,,,,,,,,,,,,,,,,267.1467,left,0.2902,,0.5,0.3,"[2,3,1]",0.980485098,stimuli/card_10_transparent.png,830,10,13,0,13,0,1,,,,,
,,,,,2023-10-06_13h55.24.116,slotMachine_updated,2023.1.3,MacIntel,60.0024001,,,,,,,,,,,,,,,,,,,,,,,,,,,,,,,,,,,,,,,,,,,,,,,,,,,268.2484,up,0.1331,,1,0.3,"[2,3,1]",0.206012528,stimuli/card_0_transparent.png,830,0,14,0,14,0,1,,,,,
,,,,,2023-10-06_13h55.24.116,slotMachine_updated,2023.1.3,MacIntel,60.0024001,,,,,,,,,,,,,,,,,,,,,,,,,,,,,,269.6955,,,,,,,,,,,,,,,,,,,,,,,,,,,,,,,,,,,,,0,0,0,0,1
,,,,,2023-10-06_13h55.24.116,slotMachine_updated,2023.1.3,MacIntel,60.0024001,,,,,,,,,,,,,,,,,,,,,,,,,,,,,,,,,,,,,,,,,,,,,,,,,"[5,15]","[[1,2,3],[3,1,2]]",274.7005,up,0.4662,,1,0.3,"[1,2,3]",0.556493897,stimuli/card_10_transparent.png,10,10,0,0,0,0,1,,,,,
,,,,,2023-10-06_13h55.24.116,slotMachine_updated,2023.1.3,MacIntel,60.0024001,,,,,,,,,,,,,,,,,,,,,,,,,,,,,,,,,,,,,,,,,,,,,,,,,,,276.4703,right,0.0037,,1.5,0.3,"[1,2,3]",0.651262822,stimuli/card_0_transparent.png,10,0,1,0,1,0,1,,,,,
,,,,,2023-10-06_13h55.24.116,slotMachine_updated,2023.1.3,MacIntel,60.0024001,,,,,,,,,,,,,,,,,,,,,,,,,,,,,,,,,,,,,,,,,,,,,,,,,,,278.2863,left,0.104,,0.5,0.3,"[1,2,3]",0.270651325,stimuli/card_100_transparent.png,110,100,2,0,2,0,1,,,,,
,,,,,2023-10-06_13h55.24.116,slotMachine_updated,2023.1.3,MacIntel,60.0024001,,,,,,,,,,,,,,,,,,,,,,,,,,,,,,,,,,,,,,,,,,,,,,,,,,,279.2014,left,0.253,,1.5,0.3,"[1,2,3]",0.622212897,stimuli/card_100_transparent.png,210,100,3,0,3,0,1,,,,,
,,,,,2023-10-06_13h55.24.116,slotMachine_updated,2023.1.3,MacIntel,60.0024001,,,,,,,,,,,,,,,,,,,,,,,,,,,,,,,,,,,,,,,,,,,,,,,,,,,281.27,left,0.0036,,0.5,0.3,"[1,2,3]",0.273744699,stimuli/card_100_transparent.png,310,100,4,0,4,0,1,,,,,
,,,,,2023-10-06_13h55.24.116,slotMachine_updated,2023.1.3,MacIntel,60.0024001,,,,,,,,,,,,,,,,,,,,,,,,,,,,,,,,,,,,,,,,,,,,,,,,,,,282.0859,left,0.3102,,0.5,0.3,"[3,1,2]",0.366650001,stimuli/card_0_transparent.png,310,0,5,0,5,0,1,,,,,
,,,,,2023-10-06_13h55.24.116,slotMachine_updated,2023.1.3,MacIntel,60.0024001,,,,,,,,,,,,,,,,,,,,,,,,,,,,,,,,,,,,,,,,,,,,,,,,,,,283.2191,left,0.1002,,1.5,0.3,"[3,1,2]",0.722906,stimuli/card_0_transparent.png,310,0,6,0,6,0,1,,,,,
,,,,,2023-10-06_13h55.24.116,slotMachine_updated,2023.1.3,MacIntel,60.0024001,,,,,,,,,,,,,,,,,,,,,,,,,,,,,,,,,,,,,,,,,,,,,,,,,,,285.1367,right,0.3403,,1.5,0.3,"[3,1,2]",0.28980411,stimuli/card_10_transparent.png,320,10,7,0,7,0,1,,,,,
,,,,,2023-10-06_13h55.24.116,slotMachine_updated,2023.1.3,MacIntel,60.0024001,,,,,,,,,,,,,,,,,,,,,,,,,,,,,,,,,,,,,,,,,,,,,,,,,,,287.2761,up,0.183,,0.5,0.3,"[3,1,2]",0.644719796,stimuli/card_100_transparent.png,420,100,8,0,8,0,1,,,,,
,,,,,2023-10-06_13h55.24.116,slotMachine_updated,2023.1.3,MacIntel,60.0024001,,,,,,,,,,,,,,,,,,,,,,,,,,,,,,,,,,,,,,,,,,,,,,,,,,,288.2755,up,0.2673,,0.5,0.3,"[3,1,2]",0.922393354,stimuli/card_100_transparent.png,520,100,9,0,9,0,1,,,,,
,,,,,2023-10-06_13h55.24.116,slotMachine_updated,2023.1.3,MacIntel,60.0024001,,,,,,,,,,,,,,,,,,,,,,,,,,,,,,,,,,,,,,,,,,,,,,,,,,,289.36,up,0.2676,,1.5,0.3,"[3,1,2]",0.605770775,stimuli/card_100_transparent.png,620,100,10,0,10,0,1,,,,,
,,,,,2023-10-06_13h55.24.116,slotMachine_updated,2023.1.3,MacIntel,60.0024001,,,,,,,,,,,,,,,,,,,,,,,,,,,,,,,,,,,,,,,,,,,,,,,,,,,291.4408,up,0.0154,,1.5,0.3,"[3,1,2]",0.761935772,stimuli/card_100_transparent.png,720,100,11,0,11,0,1,,,,,
,,,,,2023-10-06_13h55.24.116,slotMachine_updated,2023.1.3,MacIntel,60.0024001,,,,,,,,,,,,,,,,,,,,,,,,,,,,,,,,,,,,,,,,,,,,,,,,,,,293.2742,up,0.1565,,1.5,0.3,"[3,1,2]",0.127166895,stimuli/card_10_transparent.png,730,10,12,0,12,0,1,,,,,
,,,,,2023-10-06_13h55.24.116,slotMachine_updated,2023.1.3,MacIntel,60.0024001,,,,,,,,,,,,,,,,,,,,,,,,,,,,,,,,,,,,,,,,,,,,,,,,,,,295.2431,right,0.2849,,1.5,0.3,"[3,1,2]",0.661260877,stimuli/card_10_transparent.png,740,10,13,0,13,0,1,,,,,
,,,,,2023-10-06_13h55.24.116,slotMachine_updated,2023.1.3,MacIntel,60.0024001,,,,,,,,,,,,,,,,,,,,,,,,,,,,,,,,,,,,,,,,,,,,,,,,,,,297.3311,left,0.0347,,1,0.3,"[3,1,2]",0.823714487,stimuli/card_0_transparent.png,740,0,14,0,14,0,1,,,,,
,,,,,2023-10-06_13h55.24.116,slotMachine_updated,2023.1.3,MacIntel,60.0024001,,,,,,,,,,,,,,,,,,,,,,,,,,,,,,298.6813,,,,,,,,,,,,,,,,,,,,,,,,,,,,,,,,,,,,,1,0,1,0,1
,,,,,2023-10-06_13h55.24.116,slotMachine_updated,2023.1.3,MacIntel,60.0024001,,,,,,,,,,,,,,,,,,,,,,,,,,,,,,,,,,,,,,,,,,,,,,,,,"[9,15]","[[1,3,2],[2,3,1]]",303.684,left,0.0903,,1,0.3,"[1,3,2]",0.974202111,stimuli/card_100_transparent.png,100,100,0,0,0,0,1,,,,,
,,,,,2023-10-06_13h55.24.116,slotMachine_updated,2023.1.3,MacIntel,60.0024001,,,,,,,,,,,,,,,,,,,,,,,,,,,,,,,,,,,,,,,,,,,,,,,,,,,305.0963,left,0.1804,,1.5,0.3,"[1,3,2]",0.775984759,stimuli/card_100_transparent.png,200,100,1,0,1,0,1,,,,,
,,,,,2023-10-06_13h55.24.116,slotMachine_updated,2023.1.3,MacIntel,60.0024001,,,,,,,,,,,,,,,,,,,,,,,,,,,,,,,,,,,,,,,,,,,,,,,,,,,307.0864,left,0.1686,,1,0.3,"[1,3,2]",0.791288802,stimuli/card_100_transparent.png,300,100,2,0,2,0,1,,,,,
,,,,,2023-10-06_13h55.24.116,slotMachine_updated,2023.1.3,MacIntel,60.0024001,,,,,,,,,,,,,,,,,,,,,,,,,,,,,,,,,,,,,,,,,,,,,,,,,,,308.5585,,,,0.5,0.3,,,,,,3,0,3,0,1,,,,,
,,,,,2023-10-06_13h55.24.116,slotMachine_updated,2023.1.3,MacIntel,60.0024001,,,,,,,,,,,,,,,,,,,,,,,,,,,,,,,,,,,,,,,,,,,,,,,,,,,314.0732,left,2.1011,,1.5,0.3,"[1,3,2]",0.529362108,stimuli/card_100_transparent.png,400,100,4,0,4,0,1,,,,,
,,,,,2023-10-06_13h55.24.116,slotMachine_updated,2023.1.3,MacIntel,60.0024001,,,,,,,,,,,,,,,,,,,,,,,,,,,,,,,,,,,,,,,,,,,,,,,,,,,317.9945,left,1.8204,,0.5,0.3,"[1,3,2]",0.073706123,stimuli/card_0_transparent.png,400,0,5,0,5,0,1,,,,,
,,,,,2023-10-06_13h55.24.116,slotMachine_updated,2023.1.3,MacIntel,60.0024001,,,,,,,,,,,,,,,,,,,,,,,,,,,,,,,,,,,,,,,,,,,,,,,,,,,320.6274,right,0.4724,,1,0.3,"[1,3,2]",0.313159561,stimuli/card_10_transparent.png,410,10,6,0,6,0,1,,,,,
,,,,,2023-10-06_13h55.24.116,slotMachine_updated,2023.1.3,MacIntel,60.0024001,,,,,,,,,,,,,,,,,,,,,,,,,,,,,,,,,,,,,,,,,,,,,,,,,,,322.4087,left,0.1207,,0.5,0.3,"[1,3,2]",0.65957307,stimuli/card_100_transparent.png,510,100,7,0,7,0,1,,,,,
,,,,,2023-10-06_13h55.24.116,slotMachine_updated,2023.1.3,MacIntel,60.0024001,,,,,,,,,,,,,,,,,,,,,,,,,,,,,,,,,,,,,,,,,,,,,,,,,,,323.3429,up,0.4366,,0.5,0.3,"[1,3,2]",0.138371311,stimuli/card_10_transparent.png,520,10,8,0,8,0,1,,,,,
,,,,,2023-10-06_13h55.24.116,slotMachine_updated,2023.1.3,MacIntel,60.0024001,,,,,,,,,,,,,,,,,,,,,,,,,,,,,,,,,,,,,,,,,,,,,,,,,,,324.5939,left,0.1226,,1.5,0.3,"[2,3,1]",0.370231481,stimuli/card_10_transparent.png,530,10,9,0,9,0,1,,,,,
,,,,,2023-10-06_13h55.24.116,slotMachine_updated,2023.1.3,MacIntel,60.0024001,,,,,,,,,,,,,,,,,,,,,,,,,,,,,,,,,,,,,,,,,,,,,,,,,,,326.5302,right,0.001,,1,0.3,"[2,3,1]",0.272686036,stimuli/card_100_transparent.png,630,100,10,0,10,0,1,,,,,
,,,,,2023-10-06_13h55.24.116,slotMachine_updated,2023.1.3,MacIntel,60.0024001,,,,,,,,,,,,,,,,,,,,,,,,,,,,,,,,,,,,,,,,,,,,,,,,,,,327.8478,right,0.2512,,1.5,0.3,"[2,3,1]",0.784717346,stimuli/card_100_transparent.png,730,100,11,0,11,0,1,,,,,
,,,,,2023-10-06_13h55.24.116,slotMachine_updated,2023.1.3,MacIntel,60.0024001,,,,,,,,,,,,,,,,,,,,,,,,,,,,,,,,,,,,,,,,,,,,,,,,,,,329.9164,right,0.0447,,1,0.3,"[2,3,1]",0.235986512,stimuli/card_100_transparent.png,830,100,12,0,12,0,1,,,,,
,,,,,2023-10-06_13h55.24.116,slotMachine_updated,2023.1.3,MacIntel,60.0024001,,,,,,,,,,,,,,,,,,,,,,,,,,,,,,,,,,,,,,,,,,,,,,,,,,,331.2801,right,0.1371,,0.5,0.3,"[2,3,1]",0.765982481,stimuli/card_100_transparent.png,930,100,13,0,13,0,1,,,,,
,,,,,2023-10-06_13h55.24.116,slotMachine_updated,2023.1.3,MacIntel,60.0024001,,,,,,,,,,,,,,,,,,,,,,,,,,,,,,,,,,,,,,,,,,,,,,,,,,,332.232,right,0.2494,,0.5,0.3,"[2,3,1]",0.850928821,stimuli/card_100_transparent.png,1030,100,14,0,14,0,1,,,,,
,,,,,2023-10-06_13h55.24.116,slotMachine_updated,2023.1.3,MacIntel,60.0024001,,,,,,,,,,,,,,,,,,,,,,,,,,,,,,333.2971,,,,,,,,,,,,,,,,,,,,,,,,,,,,,,,,,,,,,2,0,2,0,1
,,,,,2023-10-06_13h55.24.116,slotMachine_updated,2023.1.3,MacIntel,60.0024001,,,,,,,,,,,,,,,,,,,,,,,,,,,,,,,,,,,,,,,,,,,,,,,,,"[7,15]","[[2,3,1],[1,2,3]]",338.2912,right,0.1287,,0.5,0.3,"[2,3,1]",0.733429127,stimuli/card_100_transparent.png,100,100,0,0,0,0,1,,,,,
,,,,,2023-10-06_13h55.24.116,slotMachine_updated,2023.1.3,MacIntel,60.0024001,,,,,,,,,,,,,,,,,,,,,,,,,,,,,,,,,,,,,,,,,,,,,,,,,,,339.2364,right,1.2831,,1,0.3,"[2,3,1]",0.421160894,stimuli/card_100_transparent.png,200,100,1,0,1,0,1,,,,,
,,,,,2023-10-06_13h55.24.116,slotMachine_updated,2023.1.3,MacIntel,60.0024001,,,,,,,,,,,,,,,,,,,,,,,,,,,,,,,,,,,,,,,,,,,,,,,,,,,341.8382,right,0.0141,,0.5,0.3,"[2,3,1]",0.819493603,stimuli/card_100_transparent.png,300,100,2,0,2,0,1,,,,,
,,,,,2023-10-06_13h55.24.116,slotMachine_updated,2023.1.3,MacIntel,60.0024001,,,,,,,,,,,,,,,,,,,,,,,,,,,,,,,,,,,,,,,,,,,,,,,,,,,342.6732,right,0.1165,,1.5,0.3,"[2,3,1]",0.524057137,stimuli/card_100_transparent.png,400,100,3,0,3,0,1,,,,,
,,,,,2023-10-06_13h55.24.116,slotMachine_updated,2023.1.3,MacIntel,60.0024001,,,,,,,,,,,,,,,,,,,,,,,,,,,,,,,,,,,,,,,,,,,,,,,,,,,344.6036,right,0.5657,,1.5,0.3,"[2,3,1]",0.740701021,stimuli/card_100_transparent.png,500,100,4,0,4,0,1,,,,,
,,,,,2023-10-06_13h55.24.116,slotMachine_updated,2023.1.3,MacIntel,60.0024001,,,,,,,,,,,,,,,,,,,,,,,,,,,,,,,,,,,,,,,,,,,,,,,,,,,346.9773,right,0.2644,,1,0.3,"[2,3,1]",0.911492917,stimuli/card_100_transparent.png,600,100,5,0,5,0,1,,,,,
,,,,,2023-10-06_13h55.24.116,slotMachine_updated,2023.1.3,MacIntel,60.0024001,,,,,,,,,,,,,,,,,,,,,,,,,,,,,,,,,,,,,,,,,,,,,,,,,,,348.561,right,0.5473,,1.5,0.3,"[2,3,1]",0.156318672,stimuli/card_10_transparent.png,610,10,6,0,6,0,1,,,,,
,,,,,2023-10-06_13h55.24.116,slotMachine_updated,2023.1.3,MacIntel,60.0024001,,,,,,,,,,,,,,,,,,,,,,,,,,,,,,,,,,,,,,,,,,,,,,,,,,,350.9284,right,0.1469,,1,0.3,"[1,2,3]",0.661695725,stimuli/card_0_transparent.png,610,0,7,0,7,0,1,,,,,
,,,,,2023-10-06_13h55.24.116,slotMachine_updated,2023.1.3,MacIntel,60.0024001,,,,,,,,,,,,,,,,,,,,,,,,,,,,,,,,,,,,,,,,,,,,,,,,,,,352.3932,right,0.0669,,0.5,0.3,"[1,2,3]",0.642633334,stimuli/card_0_transparent.png,610,0,8,0,8,0,1,,,,,
,,,,,2023-10-06_13h55.24.116,slotMachine_updated,2023.1.3,MacIntel,60.0024001,,,,,,,,,,,,,,,,,,,,,,,,,,,,,,,,,,,,,,,,,,,,,,,,,,,353.277,right,1.3337,,1,0.3,"[1,2,3]",0.137727256,stimuli/card_10_transparent.png,620,10,9,0,9,0,1,,,,,
,,,,,2023-10-06_13h55.24.116,slotMachine_updated,2023.1.3,MacIntel,60.0024001,,,,,,,,,,,,,,,,,,,,,,,,,,,,,,,,,,,,,,,,,,,,,,,,,,,355.9272,left,0.7276,,1.5,0.3,"[1,2,3]",0.413215234,stimuli/card_100_transparent.png,720,100,10,0,10,0,1,,,,,
,,,,,2023-10-06_13h55.24.116,slotMachine_updated,2023.1.3,MacIntel,60.0024001,,,,,,,,,,,,,,,,,,,,,,,,,,,,,,,,,,,,,,,,,,,,,,,,,,,358.4662,left,0.6823,,1.5,0.3,"[1,2,3]",0.613702436,stimuli/card_100_transparent.png,820,100,11,0,11,0,1,,,,,
,,,,,2023-10-06_13h55.24.116,slotMachine_updated,2023.1.3,MacIntel,60.0024001,,,,,,,,,,,,,,,,,,,,,,,,,,,,,,,,,,,,,,,,,,,,,,,,,,,360.9656,left,0.4183,,1.5,0.3,"[1,2,3]",0.582201943,stimuli/card_100_transparent.png,920,100,12,0,12,0,1,,,,,
,,,,,2023-10-06_13h55.24.116,slotMachine_updated,2023.1.3,MacIntel,60.0024001,,,,,,,,,,,,,,,,,,,,,,,,,,,,,,,,,,,,,,,,,,,,,,,,,,,363.2001,left,0.0205,,1.5,0.3,"[1,2,3]",0.979787293,stimuli/card_100_transparent.png,1020,100,13,0,13,0,1,,,,,
,,,,,2023-10-06_13h55.24.116,slotMachine_updated,2023.1.3,MacIntel,60.0024001,,,,,,,,,,,,,,,,,,,,,,,,,,,,,,,,,,,,,,,,,,,,,,,,,,,365.0317,left,0.0689,,1,0.3,"[1,2,3]",0.162195717,stimuli/card_10_transparent.png,1030,10,14,0,14,0,1,,,,,
,,,,,2023-10-06_13h55.24.116,slotMachine_updated,2023.1.3,MacIntel,60.0024001,,,,,,,,,,,,,,,,,,,,,,,,,,,,,,366.4201,,,,,,,,,,,,,,,,,,,,,,,,,,,,,,,,,,,,,3,0,3,0,1
,,,,,2023-10-06_13h55.24.116,slotMachine_updated,2023.1.3,MacIntel,60.0024001,,,,,,,,,,,,,,,,,,,,,,,,,,,,,,,,,,,,,,,,,,,,,,,,,"[4,10,15]","[[2,3,1],[1,3,2],[3,2,1]]",371.4249,left,0.4988,,1.5,0.3,"[2,3,1]",0.015083548,stimuli/card_0_transparent.png,0,0,0,0,0,0,1,,,,,
,,,,,2023-10-06_13h55.24.116,slotMachine_updated,2023.1.3,MacIntel,60.0024001,,,,,,,,,,,,,,,,,,,,,,,,,,,,,,,,,,,,,,,,,,,,,,,,,,,373.7377,up,0.4038,,0.5,0.3,"[2,3,1]",0.405423924,stimuli/card_0_transparent.png,0,0,1,0,1,0,1,,,,,
,,,,,2023-10-06_13h55.24.116,slotMachine_updated,2023.1.3,MacIntel,60.0024001,,,,,,,,,,,,,,,,,,,,,,,,,,,,,,,,,,,,,,,,,,,,,,,,,,,374.9525,right,0.4574,,1,0.3,"[2,3,1]",0.227092245,stimuli/card_100_transparent.png,100,100,2,0,2,0,1,,,,,
,,,,,2023-10-06_13h55.24.116,slotMachine_updated,2023.1.3,MacIntel,60.0024001,,,,,,,,,,,,,,,,,,,,,,,,,,,,,,,,,,,,,,,,,,,,,,,,,,,376.7111,right,0.1956,,1.5,0.3,"[2,3,1]",0.040664667,stimuli/card_0_transparent.png,100,0,3,0,3,0,1,,,,,
,,,,,2023-10-06_13h55.24.116,slotMachine_updated,2023.1.3,MacIntel,60.0024001,,,,,,,,,,,,,,,,,,,,,,,,,,,,,,,,,,,,,,,,,,,,,,,,,,,378.7276,right,0.1566,,0.5,0.3,"[1,3,2]",0.887417075,stimuli/card_10_transparent.png,110,10,4,0,4,0,1,,,,,
,,,,,2023-10-06_13h55.24.116,slotMachine_updated,2023.1.3,MacIntel,60.0024001,,,,,,,,,,,,,,,,,,,,,,,,,,,,,,,,,,,,,,,,,,,,,,,,,,,379.6942,right,0.001,,0.5,0.3,"[1,3,2]",0.931946904,stimuli/card_10_transparent.png,120,10,5,0,5,0,1,,,,,
,,,,,2023-10-06_13h55.24.116,slotMachine_updated,2023.1.3,MacIntel,60.0024001,,,,,,,,,,,,,,,,,,,,,,,,,,,,,,,,,,,,,,,,,,,,,,,,,,,380.511,right,0.4024,,0.5,0.3,"[1,3,2]",0.12337589,stimuli/card_100_transparent.png,220,100,6,0,6,0,1,,,,,
,,,,,2023-10-06_13h55.24.116,slotMachine_updated,2023.1.3,MacIntel,60.0024001,,,,,,,,,,,,,,,,,,,,,,,,,,,,,,,,,,,,,,,,,,,,,,,,,,,381.7274,up,0.0171,,1,0.3,"[1,3,2]",0.977868863,stimuli/card_0_transparent.png,220,0,7,0,7,0,1,,,,,
,,,,,2023-10-06_13h55.24.116,slotMachine_updated,2023.1.3,MacIntel,60.0024001,,,,,,,,,,,,,,,,,,,,,,,,,,,,,,,,,,,,,,,,,,,,,,,,,,,383.0598,left,0.1248,,1.5,0.3,"[1,3,2]",0.109292156,stimuli/card_10_transparent.png,230,10,8,0,8,0,1,,,,,
,,,,,2023-10-06_13h55.24.116,slotMachine_updated,2023.1.3,MacIntel,60.0024001,,,,,,,,,,,,,,,,,,,,,,,,,,,,,,,,,,,,,,,,,,,,,,,,,,,384.9938,left,0.003,,1,0.3,"[1,3,2]",0.154033623,stimuli/card_10_transparent.png,240,10,9,0,9,0,1,,,,,
,,,,,2023-10-06_13h55.24.116,slotMachine_updated,2023.1.3,MacIntel,60.0024001,,,,,,,,,,,,,,,,,,,,,,,,,,,,,,,,,,,,,,,,,,,,,,,,,,,386.3006,left,0.4199,,1.5,0.3,"[3,2,1]",0.415064289,stimuli/card_0_transparent.png,240,0,10,0,10,0,1,,,,,
,,,,,2023-10-06_13h55.24.116,slotMachine_updated,2023.1.3,MacIntel,60.0024001,,,,,,,,,,,,,,,,,,,,,,,,,,,,,,,,,,,,,,,,,,,,,,,,,,,388.5327,right,0.7681,,1.5,0.3,"[3,2,1]",0.731988812,stimuli/card_100_transparent.png,340,100,11,0,11,0,1,,,,,
,,,,,2023-10-06_13h55.24.116,slotMachine_updated,2023.1.3,MacIntel,60.0024001,,,,,,,,,,,,,,,,,,,,,,,,,,,,,,,,,,,,,,,,,,,,,,,,,,,391.1173,right,0.8646,,0.5,0.3,"[3,2,1]",0.904890899,stimuli/card_100_transparent.png,440,100,12,0,12,0,1,,,,,
,,,,,2023-10-06_13h55.24.116,slotMachine_updated,2023.1.3,MacIntel,60.0024001,,,,,,,,,,,,,,,,,,,,,,,,,,,,,,,,,,,,,,,,,,,,,,,,,,,392.8006,right,0.5311,,1,0.3,"[3,2,1]",0.007430141,stimuli/card_0_transparent.png,440,0,13,0,13,0,1,,,,,
,,,,,2023-10-06_13h55.24.116,slotMachine_updated,2023.1.3,MacIntel,60.0024001,,,,,,,,,,,,,,,,,,,,,,,,,,,,,,,,,,,,,,,,,,,,,,,,,,,394.6509,right,0.0875,,0.5,0.3,"[3,2,1]",0.201211711,stimuli/card_100_transparent.png,540,100,14,0,14,0,1,,,,,
,,,,,2023-10-06_13h55.24.116,slotMachine_updated,2023.1.3,MacIntel,60.0024001,,,,,,,,,,,,,,,,,,,,,,,,,,,,,,395.5481,,,,,,,,,,,,,,,,,,,,,,,,,,,,,,,,,,,,,4,0,4,0,1
,,,,,2023-10-06_13h55.24.116,slotMachine_updated,2023.1.3,MacIntel,60.0024001,,,,,,,,,,,,,,,,,,,,,,,,,,,,,,,,,,,,,,,,,,,,,,,,,"[11,15]","[[2,1,3],[1,2,3]]",400.5416,right,0.8282,,1.5,0.3,"[2,1,3]",0.420031608,stimuli/card_0_transparent.png,0,0,0,0,0,0,1,,,,,
,,,,,2023-10-06_13h55.24.116,slotMachine_updated,2023.1.3,MacIntel,60.0024001,,,,,,,,,,,,,,,,,,,,,,,,,,,,,,,,,,,,,,,,,,,,,,,,,,,403.1885,up,1.0233,,1.5,0.3,"[2,1,3]",0.872837103,stimuli/card_100_transparent.png,100,100,1,0,1,0,1,,,,,
,,,,,2023-10-06_13h55.24.116,slotMachine_updated,2023.1.3,MacIntel,60.0024001,,,,,,,,,,,,,,,,,,,,,,,,,,,,,,,,,,,,,,,,,,,,,,,,,,,406.0197,up,0.0878,,1.5,0.3,"[2,1,3]",0.753700597,stimuli/card_100_transparent.png,200,100,2,0,2,0,1,,,,,
,,,,,2023-10-06_13h55.24.116,slotMachine_updated,2023.1.3,MacIntel,60.0024001,,,,,,,,,,,,,,,,,,,,,,,,,,,,,,,,,,,,,,,,,,,,,,,,,,,407.9271,up,1.8526,,0.5,0.3,"[2,1,3]",0.520641252,stimuli/card_100_transparent.png,300,100,3,0,3,0,1,,,,,
,,,,,2023-10-06_13h55.24.116,slotMachine_updated,2023.1.3,MacIntel,60.0024001,,,,,,,,,,,,,,,,,,,,,,,,,,,,,,,,,,,,,,,,,,,,,,,,,,,410.5945,up,0.0598,,0.5,0.3,"[2,1,3]",0.278007932,stimuli/card_100_transparent.png,400,100,4,0,4,0,1,,,,,
,,,,,2023-10-06_13h55.24.116,slotMachine_updated,2023.1.3,MacIntel,60.0024001,,,,,,,,,,,,,,,,,,,,,,,,,,,,,,,,,,,,,,,,,,,,,,,,,,,411.4773,up,0.4888,0.0003,1,0.3,"[2,1,3]",0.243811618,stimuli/card_100_transparent.png,500,100,5,0,5,0,1,,,,,
,,,,,2023-10-06_13h55.24.116,slotMachine_updated,2023.1.3,MacIntel,60.0024001,,,,,,,,,,,,,,,,,,,,,,,,,,,,,,,,,,,,,,,,,,,,,,,,,,,413.2777,up,0.4956,,1,0.3,"[2,1,3]",0.666727807,stimuli/card_100_transparent.png,600,100,6,0,6,0,1,,,,,
,,,,,2023-10-06_13h55.24.116,slotMachine_updated,2023.1.3,MacIntel,60.0024001,,,,,,,,,,,,,,,,,,,,,,,,,,,,,,,,,,,,,,,,,,,,,,,,,,,415.0943,up,0.1443,,1,0.3,"[2,1,3]",0.695606858,stimuli/card_100_transparent.png,700,100,7,0,7,0,1,,,,,
,,,,,2023-10-06_13h55.24.116,slotMachine_updated,2023.1.3,MacIntel,60.0024001,,,,,,,,,,,,,,,,,,,,,,,,,,,,,,,,,,,,,,,,,,,,,,,,,,,416.5672,up,0.0384,,0.5,0.3,"[2,1,3]",0.288836476,stimuli/card_100_transparent.png,800,100,8,0,8,0,1,,,,,
,,,,,2023-10-06_13h55.24.116,slotMachine_updated,2023.1.3,MacIntel,60.0024001,,,,,,,,,,,,,,,,,,,,,,,,,,,,,,,,,,,,,,,,,,,,,,,,,,,417.4175,up,0.312,,0.5,0.3,"[2,1,3]",0.660469281,stimuli/card_100_transparent.png,900,100,9,0,9,0,1,,,,,
,,,,,2023-10-06_13h55.24.116,slotMachine_updated,2023.1.3,MacIntel,60.0024001,,,,,,,,,,,,,,,,,,,,,,,,,,,,,,,,,,,,,,,,,,,,,,,,,,,418.5497,up,0.2013,,1.5,0.3,"[2,1,3]",0.166558192,stimuli/card_10_transparent.png,910,10,10,0,10,0,1,,,,,
,,,,,2023-10-06_13h55.24.116,slotMachine_updated,2023.1.3,MacIntel,60.0024001,,,,,,,,,,,,,,,,,,,,,,,,,,,,,,,,,,,,,,,,,,,,,,,,,,,420.568,up,0.3184,,1,0.3,"[1,2,3]",0.297206985,stimuli/card_10_transparent.png,920,10,11,0,11,0,1,,,,,
,,,,,2023-10-06_13h55.24.116,slotMachine_updated,2023.1.3,MacIntel,60.0024001,,,,,,,,,,,,,,,,,,,,,,,,,,,,,,,,,,,,,,,,,,,,,,,,,,,422.2003,up,0.081,,1,0.3,"[1,2,3]",0.664020107,stimuli/card_10_transparent.png,930,10,12,0,12,0,1,,,,,
,,,,,2023-10-06_13h55.24.116,slotMachine_updated,2023.1.3,MacIntel,60.0024001,,,,,,,,,,,,,,,,,,,,,,,,,,,,,,,,,,,,,,,,,,,,,,,,,,,423.5996,left,1.655,,0.5,0.3,"[1,2,3]",0.605276015,stimuli/card_100_transparent.png,1030,100,13,0,13,0,1,,,,,
,,,,,2023-10-06_13h55.24.116,slotMachine_updated,2023.1.3,MacIntel,60.0024001,,,,,,,,,,,,,,,,,,,,,,,,,,,,,,,,,,,,,,,,,,,,,,,,,,,426.0671,left,0.073,,1.5,0.3,"[1,2,3]",0.102487974,stimuli/card_10_transparent.png,1040,10,14,0,14,0,1,,,,,
,,,,,2023-10-06_13h55.24.116,slotMachine_updated,2023.1.3,MacIntel,60.0024001,,,,,,,,,,,,,,,,,,,,,,,,,,,,,,427.9711,,,,,,,,,,,,,,,,,,,,,,,,,,,,,,,,,,,,,5,0,5,0,1
,,,,,2023-10-06_13h55.24.116,slotMachine_updated,2023.1.3,MacIntel,60.0024001,,,,,,,,,,,,,,,,,,,,,,,,,,,,,,,,,,,,,,,,,,,,,,,,,"[8,15]","[[3,2,1],[3,1,2]]",432.9759,right,1.5489,,0.5,0.3,"[3,2,1]",0.442243622,stimuli/card_100_transparent.png,100,100,0,0,0,0,1,,,,,
,,,,,2023-10-06_13h55.24.116,slotMachine_updated,2023.1.3,MacIntel,60.0024001,,,,,,,,,,,,,,,,,,,,,,,,,,,,,,,,,,,,,,,,,,,,,,,,,,,435.3366,up,1.3597,,0.5,0.3,"[3,2,1]",0.036029394,stimuli/card_0_transparent.png,100,0,1,0,1,0,1,,,,,
,,,,,2023-10-06_13h55.24.116,slotMachine_updated,2023.1.3,MacIntel,60.0024001,,,,,,,,,,,,,,,,,,,,,,,,,,,,,,,,,,,,,,,,,,,,,,,,,,,437.5123,up,0.9338,,1,0.3,"[3,2,1]",0.138135044,stimuli/card_100_transparent.png,200,100,2,0,2,0,1,,,,,
,,,,,2023-10-06_13h55.24.116,slotMachine_updated,2023.1.3,MacIntel,60.0024001,,,,,,,,,,,,,,,,,,,,,,,,,,,,,,,,,,,,,,,,,,,,,,,,,,,439.7609,up,0.751,,0.5,0.3,"[3,2,1]",0.633459391,stimuli/card_10_transparent.png,210,10,3,0,3,0,1,,,,,
,,,,,2023-10-06_13h55.24.116,slotMachine_updated,2023.1.3,MacIntel,60.0024001,,,,,,,,,,,,,,,,,,,,,,,,,,,,,,,,,,,,,,,,,,,,,,,,,,,441.3291,up,0.5174,,0.5,0.3,"[3,2,1]",0.538675928,stimuli/card_10_transparent.png,220,10,4,0,4,0,1,,,,,
,,,,,2023-10-06_13h55.24.116,slotMachine_updated,2023.1.3,MacIntel,60.0024001,,,,,,,,,,,,,,,,,,,,,,,,,,,,,,,,,,,,,,,,,,,,,,,,,,,442.6602,up,0.3686,,1,0.3,"[3,2,1]",0.641881984,stimuli/card_10_transparent.png,230,10,5,0,5,0,1,,,,,
,,,,,2023-10-06_13h55.24.116,slotMachine_updated,2023.1.3,MacIntel,60.0024001,,,,,,,,,,,,,,,,,,,,,,,,,,,,,,,,,,,,,,,,,,,,,,,,,,,444.3419,up,0.2849,,1,0.3,"[3,2,1]",0.23448492,stimuli/card_10_transparent.png,240,10,6,0,6,0,1,,,,,
,,,,,2023-10-06_13h55.24.116,slotMachine_updated,2023.1.3,MacIntel,60.0024001,,,,,,,,,,,,,,,,,,,,,,,,,,,,,,,,,,,,,,,,,,,,,,,,,,,445.9438,up,0.7937,,1.5,0.3,"[3,2,1]",0.596741825,stimuli/card_10_transparent.png,250,10,7,0,7,0,1,,,,,
,,,,,2023-10-06_13h55.24.116,slotMachine_updated,2023.1.3,MacIntel,60.0024001,,,,,,,,,,,,,,,,,,,,,,,,,,,,,,,,,,,,,,,,,,,,,,,,,,,448.5514,up,0.9173,,0.5,0.3,"[3,1,2]",0.469955427,stimuli/card_100_transparent.png,350,100,8,0,8,0,1,,,,,
,,,,,2023-10-06_13h55.24.116,slotMachine_updated,2023.1.3,MacIntel,60.0024001,,,,,,,,,,,,,,,,,,,,,,,,,,,,,,,,,,,,,,,,,,,,,,,,,,,450.2666,up,0.8784,,1.5,0.3,"[3,1,2]",0.862050427,stimuli/card_100_transparent.png,450,100,9,0,9,0,1,,,,,
,,,,,2023-10-06_13h55.24.116,slotMachine_updated,2023.1.3,MacIntel,60.0024001,,,,,,,,,,,,,,,,,,,,,,,,,,,,,,,,,,,,,,,,,,,,,,,,,,,452.965,up,0.0555,,1.5,0.3,"[3,1,2]",0.667499503,stimuli/card_100_transparent.png,550,100,10,0,10,0,1,,,,,
,,,,,2023-10-06_13h55.24.116,slotMachine_updated,2023.1.3,MacIntel,60.0024001,,,,,,,,,,,,,,,,,,,,,,,,,,,,,,,,,,,,,,,,,,,,,,,,,,,454.8347,up,0.4493,,0.5,0.3,"[3,1,2]",0.502877616,stimuli/card_100_transparent.png,650,100,11,0,11,0,1,,,,,
,,,,,2023-10-06_13h55.24.116,slotMachine_updated,2023.1.3,MacIntel,60.0024001,,,,,,,,,,,,,,,,,,,,,,,,,,,,,,,,,,,,,,,,,,,,,,,,,,,456.101,up,0.5754,,0.5,0.3,"[3,1,2]",0.426617131,stimuli/card_100_transparent.png,750,100,12,0,12,0,1,,,,,
,,,,,2023-10-06_13h55.24.116,slotMachine_updated,2023.1.3,MacIntel,60.0024001,,,,,,,,,,,,,,,,,,,,,,,,,,,,,,,,,,,,,,,,,,,,,,,,,,,457.4881,up,0.634,,1.5,0.3,"[3,1,2]",0.198125087,stimuli/card_10_transparent.png,760,10,13,0,13,0,1,,,,,
,,,,,2023-10-06_13h55.24.116,slotMachine_updated,2023.1.3,MacIntel,60.0024001,,,,,,,,,,,,,,,,,,,,,,,,,,,,,,,,,,,,,,,,,,,,,,,,,,,459.9388,up,0.3815,,0.5,0.3,"[3,1,2]",0.0050171,stimuli/card_0_transparent.png,760,0,14,0,14,0,1,,,,,
,,,,,2023-10-06_13h55.24.116,slotMachine_updated,2023.1.3,MacIntel,60.0024001,,,,,,,,,,,,,,,,,,,,,,,,,,,,,,461.1288,,,,,,,,,,,,,,,,,,,,,,,,,,,,,,,,,,,,,6,0,6,0,1
,,,,,2023-10-06_13h55.24.116,slotMachine_updated,2023.1.3,MacIntel,60.0024001,,,,,,,,,,,,,,,,,,,,,,,,,,,,,,,,,,,,,,,,,,,,,,,,,"[6,15]","[[1,3,2],[3,2,1]]",466.1247,up,0.8595,,0.5,0.3,"[1,3,2]",0.536800823,stimuli/card_0_transparent.png,0,0,0,0,0,0,1,,,,,
,,,,,2023-10-06_13h55.24.116,slotMachine_updated,2023.1.3,MacIntel,60.0024001,,,,,,,,,,,,,,,,,,,,,,,,,,,,,,,,,,,,,,,,,,,,,,,,,,,467.7941,right,0.4656,,1,0.3,"[1,3,2]",0.180828004,stimuli/card_100_transparent.png,100,100,1,0,1,0,1,,,,,
,,,,,2023-10-06_13h55.24.116,slotMachine_updated,2023.1.3,MacIntel,60.0024001,,,,,,,,,,,,,,,,,,,,,,,,,,,,,,,,,,,,,,,,,,,,,,,,,,,469.5771,right,0.8182,,0.5,0.3,"[1,3,2]",0.913961958,stimuli/card_10_transparent.png,110,10,2,0,2,0,1,,,,,
,,,,,2023-10-06_13h55.24.116,slotMachine_updated,2023.1.3,MacIntel,60.0024001,,,,,,,,,,,,,,,,,,,,,,,,,,,,,,,,,,,,,,,,,,,,,,,,,,,471.2112,right,0.0008,,1.5,0.3,"[1,3,2]",0.510598847,stimuli/card_10_transparent.png,120,10,3,0,3,0,1,,,,,
,,,,,2023-10-06_13h55.24.116,slotMachine_updated,2023.1.3,MacIntel,60.0024001,,,,,,,,,,,,,,,,,,,,,,,,,,,,,,,,,,,,,,,,,,,,,,,,,,,473.0272,right,0.0747,,0.5,0.3,"[1,3,2]",0.061848721,stimuli/card_0_transparent.png,120,0,4,0,4,0,1,,,,,
,,,,,2023-10-06_13h55.24.116,slotMachine_updated,2023.1.3,MacIntel,60.0024001,,,,,,,,,,,,,,,,,,,,,,,,,,,,,,,,,,,,,,,,,,,,,,,,,,,473.9297,left,0.357,,0.5,0.3,"[1,3,2]",0.785479258,stimuli/card_100_transparent.png,220,100,5,0,5,0,1,,,,,
,,,,,2023-10-06_13h55.24.116,slotMachine_updated,2023.1.3,MacIntel,60.0024001,,,,,,,,,,,,,,,,,,,,,,,,,,,,,,,,,,,,,,,,,,,,,,,,,,,475.0925,left,0.1946,,0.5,0.3,"[3,2,1]",0.81610777,stimuli/card_0_transparent.png,220,0,6,0,6,0,1,,,,,
,,,,,2023-10-06_13h55.24.116,slotMachine_updated,2023.1.3,MacIntel,60.0024001,,,,,,,,,,,,,,,,,,,,,,,,,,,,,,,,,,,,,,,,,,,,,,,,,,,476.1094,left,0.006,,0.5,0.3,"[3,2,1]",0.705861256,stimuli/card_0_transparent.png,220,0,7,0,7,0,1,,,,,
,,,,,2023-10-06_13h55.24.116,slotMachine_updated,2023.1.3,MacIntel,60.0024001,,,,,,,,,,,,,,,,,,,,,,,,,,,,,,,,,,,,,,,,,,,,,,,,,,,476.916,left,0.0872,,1,0.3,"[3,2,1]",0.176461801,stimuli/card_10_transparent.png,230,10,8,0,8,0,1,,,,,
,,,,,2023-10-06_13h55.24.116,slotMachine_updated,2023.1.3,MacIntel,60.0024001,,,,,,,,,,,,,,,,,,,,,,,,,,,,,,,,,,,,,,,,,,,,,,,,,,,478.3177,left,0.0413,,1,0.3,"[3,2,1]",0.011043613,stimuli/card_100_transparent.png,330,100,9,0,9,0,1,,,,,
,,,,,2023-10-06_13h55.24.116,slotMachine_updated,2023.1.3,MacIntel,60.0024001,,,,,,,,,,,,,,,,,,,,,,,,,,,,,,,,,,,,,,,,,,,,,,,,,,,479.6827,left,0.1017,,1,0.3,"[3,2,1]",0.459454528,stimuli/card_0_transparent.png,330,0,10,0,10,0,1,,,,,
,,,,,2023-10-06_13h55.24.116,slotMachine_updated,2023.1.3,MacIntel,60.0024001,,,,,,,,,,,,,,,,,,,,,,,,,,,,,,,,,,,,,,,,,,,,,,,,,,,481.1012,left,0.3348,,1,0.3,"[3,2,1]",0.02784109,stimuli/card_100_transparent.png,430,100,11,0,11,0,1,,,,,
,,,,,2023-10-06_13h55.24.116,slotMachine_updated,2023.1.3,MacIntel,60.0024001,,,,,,,,,,,,,,,,,,,,,,,,,,,,,,,,,,,,,,,,,,,,,,,,,,,482.7487,left,0.0711,,1.5,0.3,"[3,2,1]",0.966026083,stimuli/card_0_transparent.png,430,0,12,0,12,0,1,,,,,
,,,,,2023-10-06_13h55.24.116,slotMachine_updated,2023.1.3,MacIntel,60.0024001,,,,,,,,,,,,,,,,,,,,,,,,,,,,,,,,,,,,,,,,,,,,,,,,,,,484.6314,left,0.0731,,0.5,0.3,"[3,2,1]",0.987653168,stimuli/card_0_transparent.png,430,0,13,0,13,0,1,,,,,
,,,,,2023-10-06_13h55.24.116,slotMachine_updated,2023.1.3,MacIntel,60.0024001,,,,,,,,,,,,,,,,,,,,,,,,,,,,,,,,,,,,,,,,,,,,,,,,,,,485.5167,left,0.373,,1,0.3,"[3,2,1]",0.418993352,stimuli/card_0_transparent.png,430,0,14,0,14,0,1,,,,,
,,,,,2023-10-06_13h55.24.116,slotMachine_updated,2023.1.3,MacIntel,60.0024001,,,,,,,,,,,,,,,,,,,,,,,,,,,,,,487.187,,,,,,,,,,,,,,,,,,,,,,,,,,,,,,,,,,,,,7,0,7,0,1
,,,,,2023-10-06_13h55.24.116,slotMachine_updated,2023.1.3,MacIntel,60.0024001,,,,,,,,,,,,,,,,,,,,,,,,,,,,,,,,,,,,,,,,,,,,,,,,,"[10,15]","[[3,1,2],[1,3,2]]",492.1907,left,1.0851,,0.5,0.3,"[3,1,2]",0.008694905,stimuli/card_100_transparent.png,100,100,0,0,0,0,1,,,,,
,,,,,2023-10-06_13h55.24.116,slotMachine_updated,2023.1.3,MacIntel,60.0024001,,,,,,,,,,,,,,,,,,,,,,,,,,,,,,,,,,,,,,,,,,,,,,,,,,,494.0904,left,0.2625,,0.5,0.3,"[3,1,2]",0.448274428,stimuli/card_0_transparent.png,100,0,1,0,1,0,1,,,,,
,,,,,2023-10-06_13h55.24.116,slotMachine_updated,2023.1.3,MacIntel,60.0024001,,,,,,,,,,,,,,,,,,,,,,,,,,,,,,,,,,,,,,,,,,,,,,,,,,,495.1708,left,0.2334,,1.5,0.3,"[3,1,2]",0.028604822,stimuli/card_100_transparent.png,200,100,2,0,2,0,1,,,,,
,,,,,2023-10-06_13h55.24.116,slotMachine_updated,2023.1.3,MacIntel,60.0024001,,,,,,,,,,,,,,,,,,,,,,,,,,,,,,,,,,,,,,,,,,,,,,,,,,,497.209,left,0.3358,,1.5,0.3,"[3,1,2]",0.585459166,stimuli/card_0_transparent.png,200,0,3,0,3,0,1,,,,,
,,,,,2023-10-06_13h55.24.116,slotMachine_updated,2023.1.3,MacIntel,60.0024001,,,,,,,,,,,,,,,,,,,,,,,,,,,,,,,,,,,,,,,,,,,,,,,,,,,499.3601,right,0.191,,1,0.3,"[3,1,2]",0.335299102,stimuli/card_10_transparent.png,210,10,4,0,4,0,1,,,,,
,,,,,2023-10-06_13h55.24.116,slotMachine_updated,2023.1.3,MacIntel,60.0024001,,,,,,,,,,,,,,,,,,,,,,,,,,,,,,,,,,,,,,,,,,,,,,,,,,,500.8624,right,0.0484,,0.5,0.3,"[3,1,2]",0.129557873,stimuli/card_100_transparent.png,310,100,5,0,5,0,1,,,,,
,,,,,2023-10-06_13h55.24.116,slotMachine_updated,2023.1.3,MacIntel,60.0024001,,,,,,,,,,,,,,,,,,,,,,,,,,,,,,,,,,,,,,,,,,,,,,,,,,,501.7284,right,1.1301,,0.5,0.3,"[3,1,2]",0.767114123,stimuli/card_10_transparent.png,320,10,6,0,6,0,1,,,,,
,,,,,2023-10-06_13h55.24.116,slotMachine_updated,2023.1.3,MacIntel,60.0024001,,,,,,,,,,,,,,,,,,,,,,,,,,,,,,,,,,,,,,,,,,,,,,,,,,,503.6772,right,0.2404,,1.5,0.3,"[3,1,2]",0.904301742,stimuli/card_10_transparent.png,330,10,7,0,7,0,1,,,,,
,,,,,2023-10-06_13h55.24.116,slotMachine_updated,2023.1.3,MacIntel,60.0024001,,,,,,,,,,,,,,,,,,,,,,,,,,,,,,,,,,,,,,,,,,,,,,,,,,,505.7266,up,0.0881,,1.5,0.3,"[3,1,2]",0.817046033,stimuli/card_100_transparent.png,430,100,8,0,8,0,1,,,,,
,,,,,2023-10-06_13h55.24.116,slotMachine_updated,2023.1.3,MacIntel,60.0024001,,,,,,,,,,,,,,,,,,,,,,,,,,,,,,,,,,,,,,,,,,,,,,,,,,,507.6154,up,0.3004,,1,0.3,"[3,1,2]",0.385923931,stimuli/card_100_transparent.png,530,100,9,0,9,0,1,,,,,
,,,,,2023-10-06_13h55.24.116,slotMachine_updated,2023.1.3,MacIntel,60.0024001,,,,,,,,,,,,,,,,,,,,,,,,,,,,,,,,,,,,,,,,,,,,,,,,,,,509.2347,up,0.22,,1.5,0.3,"[1,3,2]",0.107397876,stimuli/card_10_transparent.png,540,10,10,0,10,0,1,,,,,
,,,,,2023-10-06_13h55.24.116,slotMachine_updated,2023.1.3,MacIntel,60.0024001,,,,,,,,,,,,,,,,,,,,,,,,,,,,,,,,,,,,,,,,,,,,,,,,,,,511.2675,up,0.3192,,0.5,0.3,"[1,3,2]",0.886732896,stimuli/card_0_transparent.png,540,0,11,0,11,0,1,,,,,
,,,,,2023-10-06_13h55.24.116,slotMachine_updated,2023.1.3,MacIntel,60.0024001,,,,,,,,,,,,,,,,,,,,,,,,,,,,,,,,,,,,,,,,,,,,,,,,,,,512.3998,up,0.4729,,1,0.3,"[1,3,2]",0.417434821,stimuli/card_0_transparent.png,540,0,12,0,12,0,1,,,,,
,,,,,2023-10-06_13h55.24.116,slotMachine_updated,2023.1.3,MacIntel,60.0024001,,,,,,,,,,,,,,,,,,,,,,,,,,,,,,,,,,,,,,,,,,,,,,,,,,,514.1848,up,0.337,,0.5,0.3,"[1,3,2]",0.426265744,stimuli/card_0_transparent.png,540,0,13,0,13,0,1,,,,,
,,,,,2023-10-06_13h55.24.116,slotMachine_updated,2023.1.3,MacIntel,60.0024001,,,,,,,,,,,,,,,,,,,,,,,,,,,,,,,,,,,,,,,,,,,,,,,,,,,515.333,right,0.3496,,0.5,0.3,"[1,3,2]",0.388225003,stimuli/card_10_transparent.png,550,10,14,0,14,0,1,,,,,
,,,,,2023-10-06_13h55.24.116,slotMachine_updated,2023.1.3,MacIntel,60.0024001,,,,,,,,,,,,,,,,,,,,,,,,,,,,,,516.4982,,,,,,,,,,,,,,,,,,,,,,,,,,,,,,,,,,,,,8,0,8,0,1
,,,,,2023-10-06_13h55.24.116,slotMachine_updated,2023.1.3,MacIntel,60.0024001,,,,,,,,,,,,,,,,,,,,,,,,,,,,,,,,,,,,,,,,,,,,,,,,,"[15,15]","[[3,1,2],[3,1,2]]",521.4931,left,0.7902,,1.5,0.3,"[3,1,2]",0.125000325,stimuli/card_10_transparent.png,10,10,0,0,0,0,1,,,,,
,,,,,2023-10-06_13h55.24.116,slotMachine_updated,2023.1.3,MacIntel,60.0024001,,,,,,,,,,,,,,,,,,,,,,,,,,,,,,,,,,,,,,,,,,,,,,,,,,,524.1057,up,0.0011,,1,0.3,"[3,1,2]",0.179990708,stimuli/card_10_transparent.png,20,10,1,0,1,0,1,,,,,
,,,,,2023-10-06_13h55.24.116,slotMachine_updated,2023.1.3,MacIntel,60.0024001,,,,,,,,,,,,,,,,,,,,,,,,,,,,,,,,,,,,,,,,,,,,,,,,,,,525.4225,right,0.0584,0.0132,0.5,0.3,"[3,1,2]",0.981253955,stimuli/card_10_transparent.png,30,10,2,0,2,0,1,,,,,
,,,,,2023-10-06_13h55.24.116,slotMachine_updated,2023.1.3,MacIntel,60.0024001,,,,,,,,,,,,,,,,,,,,,,,,,,,,,,,,,,,,,,,,,,,,,,,,,,,526.2916,right,0.1029,,1.5,0.3,"[3,1,2]",0.355980291,stimuli/card_10_transparent.png,40,10,3,0,3,0,1,,,,,
,,,,,2023-10-06_13h55.24.116,slotMachine_updated,2023.1.3,MacIntel,60.0024001,,,,,,,,,,,,,,,,,,,,,,,,,,,,,,,,,,,,,,,,,,,,,,,,,,,528.1957,up,0.0866,,1.5,0.3,"[3,1,2]",0.682809972,stimuli/card_100_transparent.png,140,100,4,0,4,0,1,,,,,
,,,,,2023-10-06_13h55.24.116,slotMachine_updated,2023.1.3,MacIntel,60.0024001,,,,,,,,,,,,,,,,,,,,,,,,,,,,,,,,,,,,,,,,,,,,,,,,,,,530.095,up,0.2831,,1.5,0.3,"[3,1,2]",0.641067859,stimuli/card_100_transparent.png,240,100,5,0,5,0,1,,,,,
,,,,,2023-10-06_13h55.24.116,slotMachine_updated,2023.1.3,MacIntel,60.0024001,,,,,,,,,,,,,,,,,,,,,,,,,,,,,,,,,,,,,,,,,,,,,,,,,,,532.1953,up,0.0333,,0.5,0.3,"[3,1,2]",0.353445977,stimuli/card_100_transparent.png,340,100,6,0,6,0,1,,,,,
,,,,,2023-10-06_13h55.24.116,slotMachine_updated,2023.1.3,MacIntel,60.0024001,,,,,,,,,,,,,,,,,,,,,,,,,,,,,,,,,,,,,,,,,,,,,,,,,,,533.0441,up,0.0105,,1,0.3,"[3,1,2]",0.879319684,stimuli/card_100_transparent.png,440,100,7,0,7,0,1,,,,,
,,,,,2023-10-06_13h55.24.116,slotMachine_updated,2023.1.3,MacIntel,60.0024001,,,,,,,,,,,,,,,,,,,,,,,,,,,,,,,,,,,,,,,,,,,,,,,,,,,534.3788,up,0.0489,,1,0.3,"[3,1,2]",0.143992152,stimuli/card_10_transparent.png,450,10,8,0,8,0,1,,,,,
,,,,,2023-10-06_13h55.24.116,slotMachine_updated,2023.1.3,MacIntel,60.0024001,,,,,,,,,,,,,,,,,,,,,,,,,,,,,,,,,,,,,,,,,,,,,,,,,,,535.744,up,0.1833,,1.5,0.3,"[3,1,2]",0.84983601,stimuli/card_100_transparent.png,550,100,9,0,9,0,1,,,,,
,,,,,2023-10-06_13h55.24.116,slotMachine_updated,2023.1.3,MacIntel,60.0024001,,,,,,,,,,,,,,,,,,,,,,,,,,,,,,,,,,,,,,,,,,,,,,,,,,,537.7327,up,0.2664,,1.5,0.3,"[3,1,2]",0.750907539,stimuli/card_100_transparent.png,650,100,10,0,10,0,1,,,,,
,,,,,2023-10-06_13h55.24.116,slotMachine_updated,2023.1.3,MacIntel,60.0024001,,,,,,,,,,,,,,,,,,,,,,,,,,,,,,,,,,,,,,,,,,,,,,,,,,,539.8163,up,0.2144,,1,0.3,"[3,1,2]",0.281570908,stimuli/card_100_transparent.png,750,100,11,0,11,0,1,,,,,
,,,,,2023-10-06_13h55.24.116,slotMachine_updated,2023.1.3,MacIntel,60.0024001,,,,,,,,,,,,,,,,,,,,,,,,,,,,,,,,,,,,,,,,,,,,,,,,,,,541.3506,up,0.2618,,0.5,0.3,"[3,1,2]",0.276144164,stimuli/card_100_transparent.png,850,100,12,0,12,0,1,,,,,
,,,,,2023-10-06_13h55.24.116,slotMachine_updated,2023.1.3,MacIntel,60.0024001,,,,,,,,,,,,,,,,,,,,,,,,,,,,,,,,,,,,,,,,,,,,,,,,,,,542.4324,up,0.4374,,1,0.3,"[3,1,2]",0.117035653,stimuli/card_10_transparent.png,860,10,13,0,13,0,1,,,,,
,,,,,2023-10-06_13h55.24.116,slotMachine_updated,2023.1.3,MacIntel,60.0024001,,,,,,,,,,,,,,,,,,,,,,,,,,,,,,,,,,,,,,,,,,,,,,,,,,,544.1807,up,1.3319,,1.5,0.3,"[3,1,2]",0.253611274,stimuli/card_100_transparent.png,960,100,14,0,14,0,1,,,,,
,,,,,2023-10-06_13h55.24.116,slotMachine_updated,2023.1.3,MacIntel,60.0024001,,,,,,,,,,,,,,,,,,,,,,,,,,,,,,547.3226,,,,,,,,,,,,,,,,,,,,,,,,,,,,,,,,,,,,,9,0,9,0,1
,,,,,2023-10-06_13h55.24.116,slotMachine_updated,2023.1.3,MacIntel,60.0024001,,,,,,,,,,,,,,,,,,,,,,,,,,,,,,,,,,,,,,,,,,,,,,,,,,,,,,,,,,,,,,,,,,,,,,,
