key_resp_welcome_started,key_resp_welcome_keys,key_resp_welcome_rt,key_resp_welcome_duration,prolific_pid,path_id,date,expName,psychopyVersion,OS,frameRate,key_resp_instruction1_started,key_resp_instruction1_keys,key_resp_instruction1_rt,key_resp_instruction1_duration,key_resp_instruction2_started,key_resp_instruction2_keys,key_resp_instruction2_rt,key_resp_instruction2_duration,key_resp_instruction3_started,key_resp_instruction3_keys,key_resp_instruction3_rt,key_resp_instruction3_duration,key_resp_instruction4_started,key_resp_instruction4_keys,key_resp_instruction4_rt,key_resp_instruction4_duration,practiceCondition,practice_reward_seqs,practice_trial_started,practice_trial_num,prac_presentationInterval,practice_reward_seq,practice_trials.thisRepN,practice_trials.thisTrialN,practice_trials.thisN,practice_trials.thisIndex,practice_trials.ran,practice_resp_rt,practice_keypress_time,practice_resp_keys,reward_img,cumulative_reward,trial_reward,block_break_started,practice_end_time,practice_end_keys,practice_end_rt,practice_end_duration,main_instruction_text_started,block_condition,block_order_indices,main_instruction_keys,main_instruction_rt,main_instruction_duration,block_number,block_assignment,current_condition,main_reward_seqs,main_trial_started,main_trial_num,main_trial_keys,main_trial_rt,main_trial_keypress_time,main_presentationInterval,reward_presentation_time,main_reward_seq,reward_rand_val,main_reward_img,current_reward,main_trials.thisRepN,main_trials.thisTrialN,main_trials.thisN,main_trials.thisIndex,main_trials.ran,block_reward,block.thisRepN,block.thisTrialN,block.thisN,block.thisIndex,block.ran,block_reward.length,block_reward_all,reward_amount,date_end_task
0.000299999,num_enter,2.531099999,,5f73f37ed13ce303cc14ae35,B,2024-08-23_22h47.05.038,Slot Machine Game,2023.1.3,Win32,59.88023952,,,,,,,,,,,,,,,,,,,,,,,,,,,,,,,,,,,,,,,,,,,,,,,,,,,,,,,,,,,,,,,,,,,,,,,,,,
,,,,5f73f37ed13ce303cc14ae35,B,2024-08-23_22h47.05.038,Slot Machine Game,2023.1.3,Win32,59.88023952,2.542599999,num_enter,5.4646,,,,,,,,,,,,,,,,,,,,,,,,,,,,,,,,,,,,,,,,,,,,,,,,,,,,,,,,,,,,,,,,,,,,,,,
,,,,5f73f37ed13ce303cc14ae35,B,2024-08-23_22h47.05.038,Slot Machine Game,2023.1.3,Win32,59.88023952,,,,,8.013299999,num_enter,16.2209,,,,,,,,,,,,,,,,,,,,,,,,,,,,,,,,,,,,,,,,,,,,,,,,,,,,,,,,,,,,,,,,,,,
,,,,5f73f37ed13ce303cc14ae35,B,2024-08-23_22h47.05.038,Slot Machine Game,2023.1.3,Win32,59.88023952,,,,,,,,,24.2528,num_enter,2.2093,,,,,,,,,,,,,,,,,,,,,,,,,,,,,,,,,,,,,,,,,,,,,,,,,,,,,,,,,,,,,,,
,,,,5f73f37ed13ce303cc14ae35,B,2024-08-23_22h47.05.038,Slot Machine Game,2023.1.3,Win32,59.88023952,,,,,,,,,,,,,,,,,,,,,,,,,,,,,,,,,,,,,,,,,,,,,,,,,,,,,,,,,,,,,,,,,,,,,,,,,,
,,,,5f73f37ed13ce303cc14ae35,B,2024-08-23_22h47.05.038,Slot Machine Game,2023.1.3,Win32,59.88023952,,,,,,,,,,,,,168.1571,num_enter,3.860200001,,,,,,,,,,,,,,,,,,,,,,,,,,,,,,,,,,,,,,,,,,,,,,,,,,,,,,,,,,,
,,,,5f73f37ed13ce303cc14ae35,B,2024-08-23_22h47.05.038,Slot Machine Game,2023.1.3,Win32,59.88023952,,,,,,,,,,,,,,,,,"[9,15]","[[2,1,3],[2,3,1]]",172.061,0,0.5,"[2,1,3]",0,0,0,0,1,,,,,,,,,,,,,,,,,,,,,,,,,,,,,,,,,,,,,,,,,,,,,,,
,,,,5f73f37ed13ce303cc14ae35,B,2024-08-23_22h47.05.038,Slot Machine Game,2023.1.3,Win32,59.88023952,,,,,,,,,,,,,,,,,,,177.5881,1,1,"[2,1,3]",1,0,1,0,1,,,,,,,,,,,,,,,,,,,,,,,,,,,,,,,,,,,,,,,,,,,,,,,
,,,,5f73f37ed13ce303cc14ae35,B,2024-08-23_22h47.05.038,Slot Machine Game,2023.1.3,Win32,59.88023952,,,,,,,,,,,,,,,,,,,183.0973,2,1.5,"[2,1,3]",2,0,2,0,1,1.3885,184.5144,1,stimuli/card_100_transparent.png,100,100,,,,,,,,,,,,,,,,,,,,,,,,,,,,,,,,,,,,,,,,,
,,,,5f73f37ed13ce303cc14ae35,B,2024-08-23_22h47.05.038,Slot Machine Game,2023.1.3,Win32,59.88023952,,,,,,,,,,,,,,,,,,,186.3154,3,0.5,"[2,1,3]",3,0,3,0,1,1.377,187.6992,2,stimuli/card_100_transparent.png,200,100,,,,,,,,,,,,,,,,,,,,,,,,,,,,,,,,,,,,,,,,,
,,,,5f73f37ed13ce303cc14ae35,B,2024-08-23_22h47.05.038,Slot Machine Game,2023.1.3,Win32,59.88023952,,,,,,,,,,,,,,,,,,,188.4998,4,1,"[2,1,3]",4,0,4,0,1,0.5946,189.1,3,stimuli/card_0_transparent.png,200,0,,,,,,,,,,,,,,,,,,,,,,,,,,,,,,,,,,,,,,,,,
,,,,5f73f37ed13ce303cc14ae35,B,2024-08-23_22h47.05.038,Slot Machine Game,2023.1.3,Win32,59.88023952,,,,,,,,,,,,,,,,,,,190.4008,5,0.5,"[2,1,3]",5,0,5,0,1,1.2265,191.6513,1,stimuli/card_10_transparent.png,210,10,,,,,,,,,,,,,,,,,,,,,,,,,,,,,,,,,,,,,,,,,
,,,,5f73f37ed13ce303cc14ae35,B,2024-08-23_22h47.05.038,Slot Machine Game,2023.1.3,Win32,59.88023952,,,,,,,,,,,,,,,,,,,192.4516,6,0.5,"[2,1,3]",6,0,6,0,1,0.525599999,193.0021,2,stimuli/card_100_transparent.png,310,100,,,,,,,,,,,,,,,,,,,,,,,,,,,,,,,,,,,,,,,,,
,,,,5f73f37ed13ce303cc14ae35,B,2024-08-23_22h47.05.038,Slot Machine Game,2023.1.3,Win32,59.88023952,,,,,,,,,,,,,,,,,,,193.8026,7,1,"[2,1,3]",7,0,7,0,1,0.5341,194.3692,3,stimuli/card_0_transparent.png,310,0,,,,,,,,,,,,,,,,,,,,,,,,,,,,,,,,,,,,,,,,,
,,,,5f73f37ed13ce303cc14ae35,B,2024-08-23_22h47.05.038,Slot Machine Game,2023.1.3,Win32,59.88023952,,,,,,,,,,,,,,,,,,,195.67,8,1.5,"[2,1,3]",8,0,8,0,1,0.954900001,196.637,2,stimuli/card_100_transparent.png,410,100,,,,,,,,,,,,,,,,,,,,,,,,,,,,,,,,,,,,,,,,,
,,,,5f73f37ed13ce303cc14ae35,B,2024-08-23_22h47.05.038,Slot Machine Game,2023.1.3,Win32,59.88023952,,,,,,,,,,,,,,,,,,,198.4379,9,0.5,"[2,3,1]",9,0,9,0,1,0.564,199.0049,2,stimuli/card_0_transparent.png,410,0,,,,,,,,,,,,,,,,,,,,,,,,,,,,,,,,,,,,,,,,,
,,,,5f73f37ed13ce303cc14ae35,B,2024-08-23_22h47.05.038,Slot Machine Game,2023.1.3,Win32,59.88023952,,,,,,,,,,,,,,,,,,,199.8055,10,1.5,"[2,3,1]",10,0,10,0,1,0.662099999,200.4723,1,stimuli/card_10_transparent.png,420,10,,,,,,,,,,,,,,,,,,,,,,,,,,,,,,,,,,,,,,,,,
,,,,5f73f37ed13ce303cc14ae35,B,2024-08-23_22h47.05.038,Slot Machine Game,2023.1.3,Win32,59.88023952,,,,,,,,,,,,,,,,,,,202.2731,11,1,"[2,3,1]",11,0,11,0,1,0.566900001,202.8566,3,stimuli/card_0_transparent.png,420,0,,,,,,,,,,,,,,,,,,,,,,,,,,,,,,,,,,,,,,,,,
,,,,5f73f37ed13ce303cc14ae35,B,2024-08-23_22h47.05.038,Slot Machine Game,2023.1.3,Win32,59.88023952,,,,,,,,,,,,,,,,,,,204.1574,12,1.5,"[2,3,1]",12,0,12,0,1,0.5185,204.6908,2,stimuli/card_0_transparent.png,420,0,,,,,,,,,,,,,,,,,,,,,,,,,,,,,,,,,,,,,,,,,
,,,,5f73f37ed13ce303cc14ae35,B,2024-08-23_22h47.05.038,Slot Machine Game,2023.1.3,Win32,59.88023952,,,,,,,,,,,,,,,,,,,206.4918,13,1.5,"[2,3,1]",13,0,13,0,1,0.752400001,207.2589,1,stimuli/card_0_transparent.png,420,0,,,,,,,,,,,,,,,,,,,,,,,,,,,,,,,,,,,,,,,,,
,,,,5f73f37ed13ce303cc14ae35,B,2024-08-23_22h47.05.038,Slot Machine Game,2023.1.3,Win32,59.88023952,,,,,,,,,,,,,,,,,,,209.0598,14,1,"[2,3,1]",14,0,14,0,1,1.1123,210.1936,2,stimuli/card_0_transparent.png,420,0,,,,,,,,,,,,,,,,,,,,,,,,,,,,,,,,,,,,,,,,,
,,,,5f73f37ed13ce303cc14ae35,B,2024-08-23_22h47.05.038,Slot Machine Game,2023.1.3,Win32,59.88023952,,,,,,,,,,,,,,,,,"[6,15]","[[1,3,2],[3,1,2]]",216.5046,0,1,"[1,3,2]",0,0,0,0,1,1.2318,217.7473,2,stimuli/card_0_transparent.png,0,0,211.5012,,,,,,,,,,,,,,,,,,,,,,,,,,,,,,,,,,,,,,,,
,,,,5f73f37ed13ce303cc14ae35,B,2024-08-23_22h47.05.038,Slot Machine Game,2023.1.3,Win32,59.88023952,,,,,,,,,,,,,,,,,,,219.048,1,1,"[1,3,2]",1,0,1,0,1,0.593400001,219.6483,1,stimuli/card_100_transparent.png,100,100,,,,,,,,,,,,,,,,,,,,,,,,,,,,,,,,,,,,,,,,,
,,,,5f73f37ed13ce303cc14ae35,B,2024-08-23_22h47.05.038,Slot Machine Game,2023.1.3,Win32,59.88023952,,,,,,,,,,,,,,,,,,,220.9489,2,1,"[1,3,2]",2,0,2,0,1,0.7295,221.6827,1,stimuli/card_100_transparent.png,200,100,,,,,,,,,,,,,,,,,,,,,,,,,,,,,,,,,,,,,,,,,
,,,,5f73f37ed13ce303cc14ae35,B,2024-08-23_22h47.05.038,Slot Machine Game,2023.1.3,Win32,59.88023952,,,,,,,,,,,,,,,,,,,222.9833,3,1.5,"[1,3,2]",3,0,3,0,1,0.556,223.5503,1,stimuli/card_100_transparent.png,300,100,,,,,,,,,,,,,,,,,,,,,,,,,,,,,,,,,,,,,,,,,
,,,,5f73f37ed13ce303cc14ae35,B,2024-08-23_22h47.05.038,Slot Machine Game,2023.1.3,Win32,59.88023952,,,,,,,,,,,,,,,,,,,225.3511,4,1.5,"[1,3,2]",4,0,4,0,1,0.6313,226.0013,1,stimuli/card_100_transparent.png,400,100,,,,,,,,,,,,,,,,,,,,,,,,,,,,,,,,,,,,,,,,,
,,,,5f73f37ed13ce303cc14ae35,B,2024-08-23_22h47.05.038,Slot Machine Game,2023.1.3,Win32,59.88023952,,,,,,,,,,,,,,,,,,,227.8022,5,1,"[1,3,2]",5,0,5,0,1,0.7538,228.5692,1,stimuli/card_100_transparent.png,500,100,,,,,,,,,,,,,,,,,,,,,,,,,,,,,,,,,,,,,,,,,
,,,,5f73f37ed13ce303cc14ae35,B,2024-08-23_22h47.05.038,Slot Machine Game,2023.1.3,Win32,59.88023952,,,,,,,,,,,,,,,,,,,229.87,6,1.5,"[3,1,2]",6,0,6,0,1,0.621400001,230.5036,1,stimuli/card_0_transparent.png,500,0,,,,,,,,,,,,,,,,,,,,,,,,,,,,,,,,,,,,,,,,,
,,,,5f73f37ed13ce303cc14ae35,B,2024-08-23_22h47.05.038,Slot Machine Game,2023.1.3,Win32,59.88023952,,,,,,,,,,,,,,,,,,,232.3044,7,1,"[3,1,2]",7,0,7,0,1,0.6521,232.9715,1,stimuli/card_0_transparent.png,500,0,,,,,,,,,,,,,,,,,,,,,,,,,,,,,,,,,,,,,,,,,
,,,,5f73f37ed13ce303cc14ae35,B,2024-08-23_22h47.05.038,Slot Machine Game,2023.1.3,Win32,59.88023952,,,,,,,,,,,,,,,,,,,234.2721,8,1,"[3,1,2]",8,0,8,0,1,0.652400001,234.9391,1,stimuli/card_0_transparent.png,500,0,,,,,,,,,,,,,,,,,,,,,,,,,,,,,,,,,,,,,,,,,
,,,,5f73f37ed13ce303cc14ae35,B,2024-08-23_22h47.05.038,Slot Machine Game,2023.1.3,Win32,59.88023952,,,,,,,,,,,,,,,,,,,236.2397,9,0.5,"[3,1,2]",9,0,9,0,1,0.6768,236.9233,2,stimuli/card_100_transparent.png,600,100,,,,,,,,,,,,,,,,,,,,,,,,,,,,,,,,,,,,,,,,,
,,,,5f73f37ed13ce303cc14ae35,B,2024-08-23_22h47.05.038,Slot Machine Game,2023.1.3,Win32,59.88023952,,,,,,,,,,,,,,,,,,,237.7239,10,0.5,"[3,1,2]",10,0,10,0,1,0.5001,238.2573,2,stimuli/card_10_transparent.png,610,10,,,,,,,,,,,,,,,,,,,,,,,,,,,,,,,,,,,,,,,,,
,,,,5f73f37ed13ce303cc14ae35,B,2024-08-23_22h47.05.038,Slot Machine Game,2023.1.3,Win32,59.88023952,,,,,,,,,,,,,,,,,,,239.0579,11,0.5,"[3,1,2]",11,0,11,0,1,0.5693,239.6415,1,stimuli/card_0_transparent.png,610,0,,,,,,,,,,,,,,,,,,,,,,,,,,,,,,,,,,,,,,,,,
,,,,5f73f37ed13ce303cc14ae35,B,2024-08-23_22h47.05.038,Slot Machine Game,2023.1.3,Win32,59.88023952,,,,,,,,,,,,,,,,,,,240.4418,12,1,"[3,1,2]",12,0,12,0,1,0.5584,241.0088,3,stimuli/card_10_transparent.png,620,10,,,,,,,,,,,,,,,,,,,,,,,,,,,,,,,,,,,,,,,,,
,,,,5f73f37ed13ce303cc14ae35,B,2024-08-23_22h47.05.038,Slot Machine Game,2023.1.3,Win32,59.88023952,,,,,,,,,,,,,,,,,,,242.3096,13,1.5,"[3,1,2]",13,0,13,0,1,1.359099999,243.6766,2,stimuli/card_100_transparent.png,720,100,,,,,,,,,,,,,,,,,,,,,,,,,,,,,,,,,,,,,,,,,
,,,,5f73f37ed13ce303cc14ae35,B,2024-08-23_22h47.05.038,Slot Machine Game,2023.1.3,Win32,59.88023952,,,,,,,,,,,,,,,,,,,245.4777,14,0.5,"[3,1,2]",14,0,14,0,1,1.4221,246.9117,2,stimuli/card_100_transparent.png,820,100,,,,,,,,,,,,,,,,,,,,,,,,,,,,,,,,,,,,,,,,,
,,,,5f73f37ed13ce303cc14ae35,B,2024-08-23_22h47.05.038,Slot Machine Game,2023.1.3,Win32,59.88023952,,,,,,,,,,,,,,,,,,,,,,,,,,,,,,,,,,247.7122,252.7149,space,2.600700001,,,,,,,,,,,,,,,,,,,,,,,,,,,,,,,,,,,,,
,,,,5f73f37ed13ce303cc14ae35,B,2024-08-23_22h47.05.038,Slot Machine Game,2023.1.3,Win32,59.88023952,,,,,,,,,,,,,,,,,,,,,,,,,,,,,,,,,,,,,,,255.3327,3,"[0,4,6,3,5,7,8,1,9,2]",space,7.6363,,,,,,,,,,,,,,,,,,,,,,,,,,,,,,,
,,,,5f73f37ed13ce303cc14ae35,B,2024-08-23_22h47.05.038,Slot Machine Game,2023.1.3,Win32,59.88023952,,,,,,,,,,,,,,,,,,,,,,,,,,,,,,,,10,,,,,,,,,,,,,1,1,"[12,15]","[[2,1,3],[2,3,1]]",262.995,0,1,0.993599999,264.0035,0.5,0.3,"[2,1,3]",0.683700838,stimuli/card_10_transparent.png,10,0,0,0,0,1,,,,,,,,,,
,,,,5f73f37ed13ce303cc14ae35,B,2024-08-23_22h47.05.038,Slot Machine Game,2023.1.3,Win32,59.88023952,,,,,,,,,,,,,,,,,,,,,,,,,,,,,,,,110,,,,,,,,,,,,,1,1,,,264.8041,1,2,1.9348,266.7713,1,0.3,"[2,1,3]",0.373056352,stimuli/card_100_transparent.png,100,1,0,1,0,1,,,,,,,,,,
,,,,5f73f37ed13ce303cc14ae35,B,2024-08-23_22h47.05.038,Slot Machine Game,2023.1.3,Win32,59.88023952,,,,,,,,,,,,,,,,,,,,,,,,,,,,,,,,210,,,,,,,,,,,,,1,1,,,268.072,2,2,1.188400001,269.2726,1.5,0.3,"[2,1,3]",0.461503638,stimuli/card_100_transparent.png,100,2,0,2,0,1,,,,,,,,,,
,,,,5f73f37ed13ce303cc14ae35,B,2024-08-23_22h47.05.038,Slot Machine Game,2023.1.3,Win32,59.88023952,,,,,,,,,,,,,,,,,,,,,,,,,,,,,,,,310,,,,,,,,,,,,,1,1,,,271.0737,3,2,0.5029,271.6071,0.5,0.3,"[2,1,3]",0.939828138,stimuli/card_100_transparent.png,100,3,0,3,0,1,,,,,,,,,,
,,,,5f73f37ed13ce303cc14ae35,B,2024-08-23_22h47.05.038,Slot Machine Game,2023.1.3,Win32,59.88023952,,,,,,,,,,,,,,,,,,,,,,,,,,,,,,,,410,,,,,,,,,,,,,1,1,,,272.4073,4,2,0.6126,273.0413,0.5,0.3,"[2,1,3]",0.802028074,stimuli/card_100_transparent.png,100,4,0,4,0,1,,,,,,,,,,
,,,,5f73f37ed13ce303cc14ae35,B,2024-08-23_22h47.05.038,Slot Machine Game,2023.1.3,Win32,59.88023952,,,,,,,,,,,,,,,,,,,,,,,,,,,,,,,,510,,,,,,,,,,,,,1,1,,,273.8415,5,2,0.939099999,274.7921,0.5,0.3,"[2,1,3]",0.583553481,stimuli/card_100_transparent.png,100,5,0,5,0,1,,,,,,,,,,
,,,,5f73f37ed13ce303cc14ae35,B,2024-08-23_22h47.05.038,Slot Machine Game,2023.1.3,Win32,59.88023952,,,,,,,,,,,,,,,,,,,,,,,,,,,,,,,,610,,,,,,,,,,,,,1,1,,,275.5925,6,2,0.6035,276.226,0.5,0.3,"[2,1,3]",0.405140835,stimuli/card_100_transparent.png,100,6,0,6,0,1,,,,,,,,,,
,,,,5f73f37ed13ce303cc14ae35,B,2024-08-23_22h47.05.038,Slot Machine Game,2023.1.3,Win32,59.88023952,,,,,,,,,,,,,,,,,,,,,,,,,,,,,,,,710,,,,,,,,,,,,,1,1,,,277.0264,7,2,0.676,277.7101,1,0.3,"[2,1,3]",0.284746494,stimuli/card_100_transparent.png,100,7,0,7,0,1,,,,,,,,,,
,,,,5f73f37ed13ce303cc14ae35,B,2024-08-23_22h47.05.038,Slot Machine Game,2023.1.3,Win32,59.88023952,,,,,,,,,,,,,,,,,,,,,,,,,,,,,,,,810,,,,,,,,,,,,,1,1,,,279.0106,8,2,0.545,279.5777,1.5,0.3,"[2,1,3]",0.923127684,stimuli/card_100_transparent.png,100,8,0,8,0,1,,,,,,,,,,
,,,,5f73f37ed13ce303cc14ae35,B,2024-08-23_22h47.05.038,Slot Machine Game,2023.1.3,Win32,59.88023952,,,,,,,,,,,,,,,,,,,,,,,,,,,,,,,,820,,,,,,,,,,,,,1,1,,,281.3786,9,2,0.5688,281.962,1.5,0.3,"[2,1,3]",0.182921773,stimuli/card_10_transparent.png,10,9,0,9,0,1,,,,,,,,,,
,,,,5f73f37ed13ce303cc14ae35,B,2024-08-23_22h47.05.038,Slot Machine Game,2023.1.3,Win32,59.88023952,,,,,,,,,,,,,,,,,,,,,,,,,,,,,,,,820,,,,,,,,,,,,,1,1,,,283.7633,10,3,0.673,284.4633,1.5,0.3,"[2,1,3]",0.857928786,stimuli/card_0_transparent.png,0,10,0,10,0,1,,,,,,,,,,
,,,,5f73f37ed13ce303cc14ae35,B,2024-08-23_22h47.05.038,Slot Machine Game,2023.1.3,Win32,59.88023952,,,,,,,,,,,,,,,,,,,,,,,,,,,,,,,,920,,,,,,,,,,,,,1,1,,,286.2643,11,1,1.7053,287.9817,0.5,0.3,"[2,1,3]",0.163251848,stimuli/card_100_transparent.png,100,11,0,11,0,1,,,,,,,,,,
,,,,5f73f37ed13ce303cc14ae35,B,2024-08-23_22h47.05.038,Slot Machine Game,2023.1.3,Win32,59.88023952,,,,,,,,,,,,,,,,,,,,,,,,,,,,,,,,920,,,,,,,,,,,,,1,1,,,288.7823,12,2,0.9745,289.7661,0.5,0.3,"[2,3,1]",0.398508487,stimuli/card_0_transparent.png,0,12,0,12,0,1,,,,,,,,,,
,,,,5f73f37ed13ce303cc14ae35,B,2024-08-23_22h47.05.038,Slot Machine Game,2023.1.3,Win32,59.88023952,,,,,,,,,,,,,,,,,,,,,,,,,,,,,,,,930,,,,,,,,,,,,,1,1,,,290.5664,13,1,0.5626,291.1333,0.5,0.3,"[2,3,1]",0.32055667,stimuli/card_10_transparent.png,10,13,0,13,0,1,,,,,,,,,,
,,,,5f73f37ed13ce303cc14ae35,B,2024-08-23_22h47.05.038,Slot Machine Game,2023.1.3,Win32,59.88023952,,,,,,,,,,,,,,,,,,,,,,,,,,,,,,,,1030,,,,,,,,,,,,,1,1,,,291.9337,14,2,0.5396,292.4838,1.5,0.3,"[2,3,1]",0.076139033,stimuli/card_100_transparent.png,100,14,0,14,0,1,,,,,,,,,,
,,,,5f73f37ed13ce303cc14ae35,B,2024-08-23_22h47.05.038,Slot Machine Game,2023.1.3,Win32,59.88023952,,,,,,,,,,,,,,,,,,,,,,,,,,,,,,,,,,294.2848,,,,,,,,,,,,,,,,,,,,,,,,,,,,,,,[1030],0,0,0,0,1,,,,
,,,,5f73f37ed13ce303cc14ae35,B,2024-08-23_22h47.05.038,Slot Machine Game,2023.1.3,Win32,59.88023952,,,,,,,,,,,,,,,,,,,,,,,,,,,,,,,,10,,,,,,,,,,,,,2,5,"[5,15]","[[1,2,3],[3,1,2]]",299.2949,0,2,0.7982,300.121,1,0.3,"[1,2,3]",0.818895903,stimuli/card_10_transparent.png,10,0,0,0,0,1,,,,,,,,,,
,,,,5f73f37ed13ce303cc14ae35,B,2024-08-23_22h47.05.038,Slot Machine Game,2023.1.3,Win32,59.88023952,,,,,,,,,,,,,,,,,,,,,,,,,,,,,,,,10,,,,,,,,,,,,,2,5,,,301.4216,1,3,0.6545,302.0886,0.5,0.3,"[1,2,3]",0.750494641,stimuli/card_0_transparent.png,0,1,0,1,0,1,,,,,,,,,,
,,,,5f73f37ed13ce303cc14ae35,B,2024-08-23_22h47.05.038,Slot Machine Game,2023.1.3,Win32,59.88023952,,,,,,,,,,,,,,,,,,,,,,,,,,,,,,,,110,,,,,,,,,,,,,2,5,,,302.889,2,1,1.115,304.023,1.5,0.3,"[1,2,3]",0.709166735,stimuli/card_100_transparent.png,100,2,0,2,0,1,,,,,,,,,,
,,,,5f73f37ed13ce303cc14ae35,B,2024-08-23_22h47.05.038,Slot Machine Game,2023.1.3,Win32,59.88023952,,,,,,,,,,,,,,,,,,,,,,,,,,,,,,,,210,,,,,,,,,,,,,2,5,,,305.8239,3,1,0.612700001,306.4574,0.5,0.3,"[1,2,3]",0.394585726,stimuli/card_100_transparent.png,100,3,0,3,0,1,,,,,,,,,,
,,,,5f73f37ed13ce303cc14ae35,B,2024-08-23_22h47.05.038,Slot Machine Game,2023.1.3,Win32,59.88023952,,,,,,,,,,,,,,,,,,,,,,,,,,,,,,,,310,,,,,,,,,,,,,2,5,,,307.2581,4,1,1.6311,308.9089,1.5,0.3,"[1,2,3]",0.422996513,stimuli/card_100_transparent.png,100,4,0,4,0,1,,,,,,,,,,
,,,,5f73f37ed13ce303cc14ae35,B,2024-08-23_22h47.05.038,Slot Machine Game,2023.1.3,Win32,59.88023952,,,,,,,,,,,,,,,,,,,,,,,,,,,,,,,,310,,,,,,,,,,,,,2,5,,,310.7096,5,1,0.611900001,311.3265,0.5,0.3,"[3,1,2]",0.564956273,stimuli/card_0_transparent.png,0,5,0,5,0,1,,,,,,,,,,
,,,,5f73f37ed13ce303cc14ae35,B,2024-08-23_22h47.05.038,Slot Machine Game,2023.1.3,Win32,59.88023952,,,,,,,,,,,,,,,,,,,,,,,,,,,,,,,,410,,,,,,,,,,,,,2,5,,,312.1268,6,2,0.7177,312.8606,1.5,0.3,"[3,1,2]",0.326636197,stimuli/card_100_transparent.png,100,6,0,6,0,1,,,,,,,,,,
,,,,5f73f37ed13ce303cc14ae35,B,2024-08-23_22h47.05.038,Slot Machine Game,2023.1.3,Win32,59.88023952,,,,,,,,,,,,,,,,,,,,,,,,,,,,,,,,510,,,,,,,,,,,,,2,5,,,314.6614,7,2,0.5909,315.2618,0.5,0.3,"[3,1,2]",0.851113028,stimuli/card_100_transparent.png,100,7,0,7,0,1,,,,,,,,,,
,,,,5f73f37ed13ce303cc14ae35,B,2024-08-23_22h47.05.038,Slot Machine Game,2023.1.3,Win32,59.88023952,,,,,,,,,,,,,,,,,,,,,,,,,,,,,,,,610,,,,,,,,,,,,,2,5,,,316.062,8,2,0.7184,316.7958,1.5,0.3,"[3,1,2]",0.583629694,stimuli/card_100_transparent.png,100,8,0,8,0,1,,,,,,,,,,
,,,,5f73f37ed13ce303cc14ae35,B,2024-08-23_22h47.05.038,Slot Machine Game,2023.1.3,Win32,59.88023952,,,,,,,,,,,,,,,,,,,,,,,,,,,,,,,,710,,,,,,,,,,,,,2,5,,,318.5969,9,2,1.1316,319.7473,1.5,0.3,"[3,1,2]",0.505769475,stimuli/card_100_transparent.png,100,9,0,9,0,1,,,,,,,,,,
,,,,5f73f37ed13ce303cc14ae35,B,2024-08-23_22h47.05.038,Slot Machine Game,2023.1.3,Win32,59.88023952,,,,,,,,,,,,,,,,,,,,,,,,,,,,,,,,710,,,,,,,,,,,,,2,5,,,321.5482,10,2,1.6584,323.2156,1,0.3,"[3,1,2]",0.06656684,stimuli/card_0_transparent.png,0,10,0,10,0,1,,,,,,,,,,
,,,,5f73f37ed13ce303cc14ae35,B,2024-08-23_22h47.05.038,Slot Machine Game,2023.1.3,Win32,59.88023952,,,,,,,,,,,,,,,,,,,,,,,,,,,,,,,,720,,,,,,,,,,,,,2,5,,,324.5162,11,3,0.509,325.0331,0.5,0.3,"[3,1,2]",0.970729945,stimuli/card_10_transparent.png,10,11,0,11,0,1,,,,,,,,,,
,,,,5f73f37ed13ce303cc14ae35,B,2024-08-23_22h47.05.038,Slot Machine Game,2023.1.3,Win32,59.88023952,,,,,,,,,,,,,,,,,,,,,,,,,,,,,,,,720,,,,,,,,,,,,,2,5,,,325.8337,12,1,0.6004,326.4505,0.5,0.3,"[3,1,2]",0.421019647,stimuli/card_0_transparent.png,0,12,0,12,0,1,,,,,,,,,,
,,,,5f73f37ed13ce303cc14ae35,B,2024-08-23_22h47.05.038,Slot Machine Game,2023.1.3,Win32,59.88023952,,,,,,,,,,,,,,,,,,,,,,,,,,,,,,,,720,,,,,,,,,,,,,2,5,,,327.251,13,1,0.5549,327.818,1,0.3,"[3,1,2]",0.236546893,stimuli/card_0_transparent.png,0,13,0,13,0,1,,,,,,,,,,
,,,,5f73f37ed13ce303cc14ae35,B,2024-08-23_22h47.05.038,Slot Machine Game,2023.1.3,Win32,59.88023952,,,,,,,,,,,,,,,,,,,,,,,,,,,,,,,,820,,,,,,,,,,,,,2,5,,,329.1186,14,2,0.578400001,329.7022,1,0.3,"[3,1,2]",0.610533713,stimuli/card_100_transparent.png,100,14,0,14,0,1,,,,,,,,,,
,,,,5f73f37ed13ce303cc14ae35,B,2024-08-23_22h47.05.038,Slot Machine Game,2023.1.3,Win32,59.88023952,,,,,,,,,,,,,,,,,,,,,,,,,,,,,,,,,,331.0028,,,,,,,,,,,,,,,,,,,,,,,,,,,,,,,"[1030,820]",1,0,1,0,1,,,,
,,,,5f73f37ed13ce303cc14ae35,B,2024-08-23_22h47.05.038,Slot Machine Game,2023.1.3,Win32,59.88023952,,,,,,,,,,,,,,,,,,,,,,,,,,,,,,,,0,,,,,,,,,,,,,3,7,"[9,15]","[[1,3,2],[2,3,1]]",336.0126,0,2,0.910599999,336.939,1.5,0.3,"[1,3,2]",0.755101509,stimuli/card_0_transparent.png,0,0,0,0,0,1,,,,,,,,,,
,,,,5f73f37ed13ce303cc14ae35,B,2024-08-23_22h47.05.038,Slot Machine Game,2023.1.3,Win32,59.88023952,,,,,,,,,,,,,,,,,,,,,,,,,,,,,,,,10,,,,,,,,,,,,,3,7,,,338.7399,1,3,0.781,339.5238,1,0.3,"[1,3,2]",0.479672205,stimuli/card_10_transparent.png,10,1,0,1,0,1,,,,,,,,,,
,,,,5f73f37ed13ce303cc14ae35,B,2024-08-23_22h47.05.038,Slot Machine Game,2023.1.3,Win32,59.88023952,,,,,,,,,,,,,,,,,,,,,,,,,,,,,,,,110,,,,,,,,,,,,,3,7,,,340.8242,2,1,0.65,341.4915,0.5,0.3,"[1,3,2]",0.993893327,stimuli/card_100_transparent.png,100,2,0,2,0,1,,,,,,,,,,
,,,,5f73f37ed13ce303cc14ae35,B,2024-08-23_22h47.05.038,Slot Machine Game,2023.1.3,Win32,59.88023952,,,,,,,,,,,,,,,,,,,,,,,,,,,,,,,,210,,,,,,,,,,,,,3,7,,,342.2917,3,1,0.501599999,342.8087,1,0.3,"[1,3,2]",0.622260801,stimuli/card_100_transparent.png,100,3,0,3,0,1,,,,,,,,,,
,,,,5f73f37ed13ce303cc14ae35,B,2024-08-23_22h47.05.038,Slot Machine Game,2023.1.3,Win32,59.88023952,,,,,,,,,,,,,,,,,,,,,,,,,,,,,,,,310,,,,,,,,,,,,,3,7,,,344.1093,4,1,0.6205,344.7428,1,0.3,"[1,3,2]",0.703110697,stimuli/card_100_transparent.png,100,4,0,4,0,1,,,,,,,,,,
,,,,5f73f37ed13ce303cc14ae35,B,2024-08-23_22h47.05.038,Slot Machine Game,2023.1.3,Win32,59.88023952,,,,,,,,,,,,,,,,,,,,,,,,,,,,,,,,410,,,,,,,,,,,,,3,7,,,346.0434,5,1,0.6967,346.7437,0.5,0.3,"[1,3,2]",0.875944195,stimuli/card_100_transparent.png,100,5,0,5,0,1,,,,,,,,,,
,,,,5f73f37ed13ce303cc14ae35,B,2024-08-23_22h47.05.038,Slot Machine Game,2023.1.3,Win32,59.88023952,,,,,,,,,,,,,,,,,,,,,,,,,,,,,,,,510,,,,,,,,,,,,,3,7,,,347.5443,6,1,0.521,348.0778,0.5,0.3,"[1,3,2]",0.2271732,stimuli/card_100_transparent.png,100,6,0,6,0,1,,,,,,,,,,
,,,,5f73f37ed13ce303cc14ae35,B,2024-08-23_22h47.05.038,Slot Machine Game,2023.1.3,Win32,59.88023952,,,,,,,,,,,,,,,,,,,,,,,,,,,,,,,,610,,,,,,,,,,,,,3,7,,,348.8783,7,1,0.5133,349.395,0.5,0.3,"[1,3,2]",0.712946029,stimuli/card_100_transparent.png,100,7,0,7,0,1,,,,,,,,,,
,,,,5f73f37ed13ce303cc14ae35,B,2024-08-23_22h47.05.038,Slot Machine Game,2023.1.3,Win32,59.88023952,,,,,,,,,,,,,,,,,,,,,,,,,,,,,,,,710,,,,,,,,,,,,,3,7,,,350.1957,8,1,0.6449,350.8626,0.5,0.3,"[1,3,2]",0.339514351,stimuli/card_100_transparent.png,100,8,0,8,0,1,,,,,,,,,,
,,,,5f73f37ed13ce303cc14ae35,B,2024-08-23_22h47.05.038,Slot Machine Game,2023.1.3,Win32,59.88023952,,,,,,,,,,,,,,,,,,,,,,,,,,,,,,,,720,,,,,,,,,,,,,3,7,,,351.6628,9,1,0.5187,352.1963,1,0.3,"[2,3,1]",0.546279871,stimuli/card_10_transparent.png,10,9,0,9,0,1,,,,,,,,,,
,,,,5f73f37ed13ce303cc14ae35,B,2024-08-23_22h47.05.038,Slot Machine Game,2023.1.3,Win32,59.88023952,,,,,,,,,,,,,,,,,,,,,,,,,,,,,,,,720,,,,,,,,,,,,,3,7,,,353.4971,10,2,0.527599999,354.0474,1.5,0.3,"[2,3,1]",0.380372297,stimuli/card_0_transparent.png,0,10,0,10,0,1,,,,,,,,,,
,,,,5f73f37ed13ce303cc14ae35,B,2024-08-23_22h47.05.038,Slot Machine Game,2023.1.3,Win32,59.88023952,,,,,,,,,,,,,,,,,,,,,,,,,,,,,,,,730,,,,,,,,,,,,,3,7,,,355.8484,11,1,1.3931,357.2489,1,0.3,"[2,3,1]",0.924793501,stimuli/card_10_transparent.png,10,11,0,11,0,1,,,,,,,,,,
,,,,5f73f37ed13ce303cc14ae35,B,2024-08-23_22h47.05.038,Slot Machine Game,2023.1.3,Win32,59.88023952,,,,,,,,,,,,,,,,,,,,,,,,,,,,,,,,830,,,,,,,,,,,,,3,7,,,358.5496,12,1,0.5959,359.1498,0.5,0.3,"[2,3,1]",0.190921755,stimuli/card_100_transparent.png,100,12,0,12,0,1,,,,,,,,,,
,,,,5f73f37ed13ce303cc14ae35,B,2024-08-23_22h47.05.038,Slot Machine Game,2023.1.3,Win32,59.88023952,,,,,,,,,,,,,,,,,,,,,,,,,,,,,,,,840,,,,,,,,,,,,,3,7,,,359.9504,13,1,0.9308,360.8839,1.5,0.3,"[2,3,1]",0.674782546,stimuli/card_10_transparent.png,10,13,0,13,0,1,,,,,,,,,,
,,,,5f73f37ed13ce303cc14ae35,B,2024-08-23_22h47.05.038,Slot Machine Game,2023.1.3,Win32,59.88023952,,,,,,,,,,,,,,,,,,,,,,,,,,,,,,,,840,,,,,,,,,,,,,3,7,,,362.685,14,2,0.5082,363.2018,0.5,0.3,"[2,3,1]",0.884579664,stimuli/card_0_transparent.png,0,14,0,14,0,1,,,,,,,,,,
,,,,5f73f37ed13ce303cc14ae35,B,2024-08-23_22h47.05.038,Slot Machine Game,2023.1.3,Win32,59.88023952,,,,,,,,,,,,,,,,,,,,,,,,,,,,,,,,,,364.0023,,,,,,,,,,,,,,,,,,,,,,,,,,,,,,,"[1030,820,840]",2,0,2,0,1,,,,
,,,,5f73f37ed13ce303cc14ae35,B,2024-08-23_22h47.05.038,Slot Machine Game,2023.1.3,Win32,59.88023952,,,,,,,,,,,,,,,,,,,,,,,,,,,,,,,,0,,,,,,,,,,,,,4,4,"[7,15]","[[2,3,1],[1,2,3]]",369.0121,0,2,0.705,369.7385,0.5,0.3,"[2,3,1]",0.279372064,stimuli/card_0_transparent.png,0,0,0,0,0,1,,,,,,,,,,
,,,,5f73f37ed13ce303cc14ae35,B,2024-08-23_22h47.05.038,Slot Machine Game,2023.1.3,Win32,59.88023952,,,,,,,,,,,,,,,,,,,,,,,,,,,,,,,,10,,,,,,,,,,,,,4,4,,,370.5389,1,1,1.0143,371.5561,1.5,0.3,"[2,3,1]",0.861594485,stimuli/card_10_transparent.png,10,1,0,1,0,1,,,,,,,,,,
,,,,5f73f37ed13ce303cc14ae35,B,2024-08-23_22h47.05.038,Slot Machine Game,2023.1.3,Win32,59.88023952,,,,,,,,,,,,,,,,,,,,,,,,,,,,,,,,110,,,,,,,,,,,,,4,4,,,373.357,2,1,0.752900001,374.1405,1.5,0.3,"[2,3,1]",0.156542198,stimuli/card_100_transparent.png,100,2,0,2,0,1,,,,,,,,,,
,,,,5f73f37ed13ce303cc14ae35,B,2024-08-23_22h47.05.038,Slot Machine Game,2023.1.3,Win32,59.88023952,,,,,,,,,,,,,,,,,,,,,,,,,,,,,,,,210,,,,,,,,,,,,,4,4,,,375.9414,3,1,0.6569,376.6084,1.5,0.3,"[2,3,1]",0.103433675,stimuli/card_100_transparent.png,100,3,0,3,0,1,,,,,,,,,,
,,,,5f73f37ed13ce303cc14ae35,B,2024-08-23_22h47.05.038,Slot Machine Game,2023.1.3,Win32,59.88023952,,,,,,,,,,,,,,,,,,,,,,,,,,,,,,,,220,,,,,,,,,,,,,4,4,,,378.4094,4,1,0.5543,378.9763,1.5,0.3,"[2,3,1]",0.971913345,stimuli/card_10_transparent.png,10,4,0,4,0,1,,,,,,,,,,
,,,,5f73f37ed13ce303cc14ae35,B,2024-08-23_22h47.05.038,Slot Machine Game,2023.1.3,Win32,59.88023952,,,,,,,,,,,,,,,,,,,,,,,,,,,,,,,,220,,,,,,,,,,,,,4,4,,,380.7772,5,2,0.591900001,381.3773,1,0.3,"[2,3,1]",0.50491143,stimuli/card_0_transparent.png,0,5,0,5,0,1,,,,,,,,,,
,,,,5f73f37ed13ce303cc14ae35,B,2024-08-23_22h47.05.038,Slot Machine Game,2023.1.3,Win32,59.88023952,,,,,,,,,,,,,,,,,,,,,,,,,,,,,,,,320,,,,,,,,,,,,,4,4,,,382.6782,6,3,0.933900001,383.6453,1.5,0.3,"[2,3,1]",0.645456269,stimuli/card_100_transparent.png,100,6,0,6,0,1,,,,,,,,,,
,,,,5f73f37ed13ce303cc14ae35,B,2024-08-23_22h47.05.038,Slot Machine Game,2023.1.3,Win32,59.88023952,,,,,,,,,,,,,,,,,,,,,,,,,,,,,,,,330,,,,,,,,,,,,,4,4,,,385.4462,7,3,0.5072,385.9631,0.5,0.3,"[1,2,3]",0.17832431,stimuli/card_10_transparent.png,10,7,0,7,0,1,,,,,,,,,,
,,,,5f73f37ed13ce303cc14ae35,B,2024-08-23_22h47.05.038,Slot Machine Game,2023.1.3,Win32,59.88023952,,,,,,,,,,,,,,,,,,,,,,,,,,,,,,,,330,,,,,,,,,,,,,4,4,,,386.7633,8,3,0.6572,387.4305,0.5,0.3,"[1,2,3]",0.772090901,stimuli/card_0_transparent.png,0,8,0,8,0,1,,,,,,,,,,
,,,,5f73f37ed13ce303cc14ae35,B,2024-08-23_22h47.05.038,Slot Machine Game,2023.1.3,Win32,59.88023952,,,,,,,,,,,,,,,,,,,,,,,,,,,,,,,,340,,,,,,,,,,,,,4,4,,,388.231,9,2,0.6957,388.9478,1.5,0.3,"[1,2,3]",0.221780668,stimuli/card_10_transparent.png,10,9,0,9,0,1,,,,,,,,,,
,,,,5f73f37ed13ce303cc14ae35,B,2024-08-23_22h47.05.038,Slot Machine Game,2023.1.3,Win32,59.88023952,,,,,,,,,,,,,,,,,,,,,,,,,,,,,,,,440,,,,,,,,,,,,,4,4,,,390.7487,10,1,0.780799999,391.5323,1.5,0.3,"[1,2,3]",0.913960981,stimuli/card_100_transparent.png,100,10,0,10,0,1,,,,,,,,,,
,,,,5f73f37ed13ce303cc14ae35,B,2024-08-23_22h47.05.038,Slot Machine Game,2023.1.3,Win32,59.88023952,,,,,,,,,,,,,,,,,,,,,,,,,,,,,,,,540,,,,,,,,,,,,,4,4,,,393.3333,11,1,0.6467,394.0002,0.5,0.3,"[1,2,3]",0.785060432,stimuli/card_100_transparent.png,100,11,0,11,0,1,,,,,,,,,,
,,,,5f73f37ed13ce303cc14ae35,B,2024-08-23_22h47.05.038,Slot Machine Game,2023.1.3,Win32,59.88023952,,,,,,,,,,,,,,,,,,,,,,,,,,,,,,,,640,,,,,,,,,,,,,4,4,,,394.8008,12,1,0.516,395.3343,1,0.3,"[1,2,3]",0.475573887,stimuli/card_100_transparent.png,100,12,0,12,0,1,,,,,,,,,,
,,,,5f73f37ed13ce303cc14ae35,B,2024-08-23_22h47.05.038,Slot Machine Game,2023.1.3,Win32,59.88023952,,,,,,,,,,,,,,,,,,,,,,,,,,,,,,,,740,,,,,,,,,,,,,4,4,,,396.6349,13,1,0.7213,397.3685,1.5,0.3,"[1,2,3]",0.449981894,stimuli/card_100_transparent.png,100,13,0,13,0,1,,,,,,,,,,
,,,,5f73f37ed13ce303cc14ae35,B,2024-08-23_22h47.05.038,Slot Machine Game,2023.1.3,Win32,59.88023952,,,,,,,,,,,,,,,,,,,,,,,,,,,,,,,,840,,,,,,,,,,,,,4,4,,,399.1696,14,1,0.5148,399.703,1,0.3,"[1,2,3]",0.275882038,stimuli/card_100_transparent.png,100,14,0,14,0,1,,,,,,,,,,
,,,,5f73f37ed13ce303cc14ae35,B,2024-08-23_22h47.05.038,Slot Machine Game,2023.1.3,Win32,59.88023952,,,,,,,,,,,,,,,,,,,,,,,,,,,,,,,,,,401.0039,,,,,,,,,,,,,,,,,,,,,,,,,,,,,,,"[1030,820,840,840]",3,0,3,0,1,,,,
,,,,5f73f37ed13ce303cc14ae35,B,2024-08-23_22h47.05.038,Slot Machine Game,2023.1.3,Win32,59.88023952,,,,,,,,,,,,,,,,,,,,,,,,,,,,,,,,10,,,,,,,,,,,,,5,6,"[4,10,15]","[[2,3,1],[1,3,2],[3,2,1]]",406.0133,0,1,0.6133,406.6566,1.5,0.3,"[2,3,1]",0.264921782,stimuli/card_10_transparent.png,10,0,0,0,0,1,,,,,,,,,,
,,,,5f73f37ed13ce303cc14ae35,B,2024-08-23_22h47.05.038,Slot Machine Game,2023.1.3,Win32,59.88023952,,,,,,,,,,,,,,,,,,,,,,,,,,,,,,,,10,,,,,,,,,,,,,5,6,,,408.4572,1,2,0.7539,409.2245,0.5,0.3,"[2,3,1]",0.934345927,stimuli/card_0_transparent.png,0,1,0,1,0,1,,,,,,,,,,
,,,,5f73f37ed13ce303cc14ae35,B,2024-08-23_22h47.05.038,Slot Machine Game,2023.1.3,Win32,59.88023952,,,,,,,,,,,,,,,,,,,,,,,,,,,,,,,,110,,,,,,,,,,,,,5,6,,,410.025,2,3,0.5795,410.6252,1.5,0.3,"[2,3,1]",0.384376343,stimuli/card_100_transparent.png,100,2,0,2,0,1,,,,,,,,,,
,,,,5f73f37ed13ce303cc14ae35,B,2024-08-23_22h47.05.038,Slot Machine Game,2023.1.3,Win32,59.88023952,,,,,,,,,,,,,,,,,,,,,,,,,,,,,,,,210,,,,,,,,,,,,,5,6,,,412.4259,3,3,0.857700001,413.2931,0.5,0.3,"[2,3,1]",0.375314146,stimuli/card_100_transparent.png,100,3,0,3,0,1,,,,,,,,,,
,,,,5f73f37ed13ce303cc14ae35,B,2024-08-23_22h47.05.038,Slot Machine Game,2023.1.3,Win32,59.88023952,,,,,,,,,,,,,,,,,,,,,,,,,,,,,,,,220,,,,,,,,,,,,,5,6,,,414.0934,4,3,0.5028,414.6104,0.5,0.3,"[1,3,2]",0.952002474,stimuli/card_10_transparent.png,10,4,0,4,0,1,,,,,,,,,,
,,,,5f73f37ed13ce303cc14ae35,B,2024-08-23_22h47.05.038,Slot Machine Game,2023.1.3,Win32,59.88023952,,,,,,,,,,,,,,,,,,,,,,,,,,,,,,,,320,,,,,,,,,,,,,5,6,,,415.4109,5,1,0.6358,416.0612,0.5,0.3,"[1,3,2]",0.582639033,stimuli/card_100_transparent.png,100,5,0,5,0,1,,,,,,,,,,
,,,,5f73f37ed13ce303cc14ae35,B,2024-08-23_22h47.05.038,Slot Machine Game,2023.1.3,Win32,59.88023952,,,,,,,,,,,,,,,,,,,,,,,,,,,,,,,,420,,,,,,,,,,,,,5,6,,,416.8615,6,1,1.4783,418.3621,1.5,0.3,"[1,3,2]",0.688945603,stimuli/card_100_transparent.png,100,6,0,6,0,1,,,,,,,,,,
,,,,5f73f37ed13ce303cc14ae35,B,2024-08-23_22h47.05.038,Slot Machine Game,2023.1.3,Win32,59.88023952,,,,,,,,,,,,,,,,,,,,,,,,,,,,,,,,520,,,,,,,,,,,,,5,6,,,420.1633,7,1,0.8885,421.0635,1.5,0.3,"[1,3,2]",0.543261754,stimuli/card_100_transparent.png,100,7,0,7,0,1,,,,,,,,,,
,,,,5f73f37ed13ce303cc14ae35,B,2024-08-23_22h47.05.038,Slot Machine Game,2023.1.3,Win32,59.88023952,,,,,,,,,,,,,,,,,,,,,,,,,,,,,,,,620,,,,,,,,,,,,,5,6,,,422.8646,8,1,0.6884,423.5816,1,0.3,"[1,3,2]",0.263420062,stimuli/card_100_transparent.png,100,8,0,8,0,1,,,,,,,,,,
,,,,5f73f37ed13ce303cc14ae35,B,2024-08-23_22h47.05.038,Slot Machine Game,2023.1.3,Win32,59.88023952,,,,,,,,,,,,,,,,,,,,,,,,,,,,,,,,720,,,,,,,,,,,,,5,6,,,424.882,9,1,0.5218,425.4158,0.5,0.3,"[1,3,2]",0.654733758,stimuli/card_100_transparent.png,100,9,0,9,0,1,,,,,,,,,,
,,,,5f73f37ed13ce303cc14ae35,B,2024-08-23_22h47.05.038,Slot Machine Game,2023.1.3,Win32,59.88023952,,,,,,,,,,,,,,,,,,,,,,,,,,,,,,,,720,,,,,,,,,,,,,5,6,,,426.2162,10,1,0.603599999,426.8497,1.5,0.3,"[3,2,1]",0.468748932,stimuli/card_0_transparent.png,0,10,0,10,0,1,,,,,,,,,,
,,,,5f73f37ed13ce303cc14ae35,B,2024-08-23_22h47.05.038,Slot Machine Game,2023.1.3,Win32,59.88023952,,,,,,,,,,,,,,,,,,,,,,,,,,,,,,,,720,,,,,,,,,,,,,5,6,,,428.6508,11,3,0.5002,429.1841,1,0.3,"[3,2,1]",0.043567169,stimuli/card_0_transparent.png,0,11,0,11,0,1,,,,,,,,,,
,,,,5f73f37ed13ce303cc14ae35,B,2024-08-23_22h47.05.038,Slot Machine Game,2023.1.3,Win32,59.88023952,,,,,,,,,,,,,,,,,,,,,,,,,,,,,,,,730,,,,,,,,,,,,,5,6,,,430.4847,12,2,1.521900001,432.0189,0.5,0.3,"[3,2,1]",0.961450668,stimuli/card_10_transparent.png,10,12,0,12,0,1,,,,,,,,,,
,,,,5f73f37ed13ce303cc14ae35,B,2024-08-23_22h47.05.038,Slot Machine Game,2023.1.3,Win32,59.88023952,,,,,,,,,,,,,,,,,,,,,,,,,,,,,,,,,,,,,,,,,,,,,5,6,,,432.8193,13,,,,1,0.3,,,,,13,0,13,0,1,,,,,,,,,,
,,,,5f73f37ed13ce303cc14ae35,B,2024-08-23_22h47.05.038,Slot Machine Game,2023.1.3,Win32,59.88023952,,,,,,,,,,,,,,,,,,,,,,,,,,,,,,,,730,,,,,,,,,,,,,5,6,,,438.3228,14,1,0.767,439.1227,1.5,0.3,"[3,2,1]",0.356579369,stimuli/card_0_transparent.png,0,14,0,14,0,1,,,,,,,,,,
,,,,5f73f37ed13ce303cc14ae35,B,2024-08-23_22h47.05.038,Slot Machine Game,2023.1.3,Win32,59.88023952,,,,,,,,,,,,,,,,,,,,,,,,,,,,,,,,,,440.9232,,,,,,,,,,,,,,,,,,,,,,,,,,,,,,,"[1030,820,840,840,730]",4,0,4,0,1,,,,
,,,,5f73f37ed13ce303cc14ae35,B,2024-08-23_22h47.05.038,Slot Machine Game,2023.1.3,Win32,59.88023952,,,,,,,,,,,,,,,,,,,,,,,,,,,,,,,,10,,,,,,,,,,,,,6,8,"[11,15]","[[2,1,3],[1,2,3]]",445.9335,0,1,0.9948,446.9428,1.5,0.3,"[2,1,3]",0.880744017,stimuli/card_10_transparent.png,10,0,0,0,0,1,,,,,,,,,,
,,,,5f73f37ed13ce303cc14ae35,B,2024-08-23_22h47.05.038,Slot Machine Game,2023.1.3,Win32,59.88023952,,,,,,,,,,,,,,,,,,,,,,,,,,,,,,,,110,,,,,,,,,,,,,6,8,,,448.7439,1,2,0.707799999,449.4774,0.5,0.3,"[2,1,3]",0.244302366,stimuli/card_100_transparent.png,100,1,0,1,0,1,,,,,,,,,,
,,,,5f73f37ed13ce303cc14ae35,B,2024-08-23_22h47.05.038,Slot Machine Game,2023.1.3,Win32,59.88023952,,,,,,,,,,,,,,,,,,,,,,,,,,,,,,,,210,,,,,,,,,,,,,6,8,,,450.2777,2,2,0.5554,450.8447,0.5,0.3,"[2,1,3]",0.214864736,stimuli/card_100_transparent.png,100,2,0,2,0,1,,,,,,,,,,
,,,,5f73f37ed13ce303cc14ae35,B,2024-08-23_22h47.05.038,Slot Machine Game,2023.1.3,Win32,59.88023952,,,,,,,,,,,,,,,,,,,,,,,,,,,,,,,,310,,,,,,,,,,,,,6,8,,,451.6452,3,2,2.124200001,453.7794,1.5,0.3,"[2,1,3]",0.285824729,stimuli/card_100_transparent.png,100,3,0,3,0,1,,,,,,,,,,
,,,,5f73f37ed13ce303cc14ae35,B,2024-08-23_22h47.05.038,Slot Machine Game,2023.1.3,Win32,59.88023952,,,,,,,,,,,,,,,,,,,,,,,,,,,,,,,,410,,,,,,,,,,,,,6,8,,,455.5806,4,2,0.5808,456.1642,0.5,0.3,"[2,1,3]",0.381216661,stimuli/card_100_transparent.png,100,4,0,4,0,1,,,,,,,,,,
,,,,5f73f37ed13ce303cc14ae35,B,2024-08-23_22h47.05.038,Slot Machine Game,2023.1.3,Win32,59.88023952,,,,,,,,,,,,,,,,,,,,,,,,,,,,,,,,510,,,,,,,,,,,,,6,8,,,456.9644,5,2,2.267099999,459.2489,1.5,0.3,"[2,1,3]",0.701567435,stimuli/card_100_transparent.png,100,5,0,5,0,1,,,,,,,,,,
,,,,5f73f37ed13ce303cc14ae35,B,2024-08-23_22h47.05.038,Slot Machine Game,2023.1.3,Win32,59.88023952,,,,,,,,,,,,,,,,,,,,,,,,,,,,,,,,610,,,,,,,,,,,,,6,8,,,461.0498,6,2,0.6122,461.6668,0.5,0.3,"[2,1,3]",0.517917642,stimuli/card_100_transparent.png,100,6,0,6,0,1,,,,,,,,,,
,,,,5f73f37ed13ce303cc14ae35,B,2024-08-23_22h47.05.038,Slot Machine Game,2023.1.3,Win32,59.88023952,,,,,,,,,,,,,,,,,,,,,,,,,,,,,,,,710,,,,,,,,,,,,,6,8,,,462.4671,7,2,0.505400001,462.984,1.5,0.3,"[2,1,3]",0.388735909,stimuli/card_100_transparent.png,100,7,0,7,0,1,,,,,,,,,,
,,,,5f73f37ed13ce303cc14ae35,B,2024-08-23_22h47.05.038,Slot Machine Game,2023.1.3,Win32,59.88023952,,,,,,,,,,,,,,,,,,,,,,,,,,,,,,,,810,,,,,,,,,,,,,6,8,,,464.7851,8,2,0.6563,465.4519,1.5,0.3,"[2,1,3]",0.506630456,stimuli/card_100_transparent.png,100,8,0,8,0,1,,,,,,,,,,
,,,,5f73f37ed13ce303cc14ae35,B,2024-08-23_22h47.05.038,Slot Machine Game,2023.1.3,Win32,59.88023952,,,,,,,,,,,,,,,,,,,,,,,,,,,,,,,,820,,,,,,,,,,,,,6,8,,,467.253,9,2,0.6145,467.9032,1.5,0.3,"[2,1,3]",0.172074006,stimuli/card_10_transparent.png,10,9,0,9,0,1,,,,,,,,,,
,,,,5f73f37ed13ce303cc14ae35,B,2024-08-23_22h47.05.038,Slot Machine Game,2023.1.3,Win32,59.88023952,,,,,,,,,,,,,,,,,,,,,,,,,,,,,,,,820,,,,,,,,,,,,,6,8,,,469.704,10,3,1.692599999,471.4048,1.5,0.3,"[2,1,3]",0.779887682,stimuli/card_0_transparent.png,0,10,0,10,0,1,,,,,,,,,,
,,,,5f73f37ed13ce303cc14ae35,B,2024-08-23_22h47.05.038,Slot Machine Game,2023.1.3,Win32,59.88023952,,,,,,,,,,,,,,,,,,,,,,,,,,,,,,,,820,,,,,,,,,,,,,6,8,,,473.2059,11,3,1.2528,474.4898,1,0.3,"[1,2,3]",0.773473067,stimuli/card_0_transparent.png,0,11,0,11,0,1,,,,,,,,,,
,,,,5f73f37ed13ce303cc14ae35,B,2024-08-23_22h47.05.038,Slot Machine Game,2023.1.3,Win32,59.88023952,,,,,,,,,,,,,,,,,,,,,,,,,,,,,,,,920,,,,,,,,,,,,,6,8,,,475.7902,12,1,0.5501,476.3574,0.5,0.3,"[1,2,3]",0.984317004,stimuli/card_100_transparent.png,100,12,0,12,0,1,,,,,,,,,,
,,,,5f73f37ed13ce303cc14ae35,B,2024-08-23_22h47.05.038,Slot Machine Game,2023.1.3,Win32,59.88023952,,,,,,,,,,,,,,,,,,,,,,,,,,,,,,,,1020,,,,,,,,,,,,,6,8,,,477.1578,13,1,0.5027,477.6747,1.5,0.3,"[1,2,3]",0.87837886,stimuli/card_100_transparent.png,100,13,0,13,0,1,,,,,,,,,,
,,,,5f73f37ed13ce303cc14ae35,B,2024-08-23_22h47.05.038,Slot Machine Game,2023.1.3,Win32,59.88023952,,,,,,,,,,,,,,,,,,,,,,,,,,,,,,,,1120,,,,,,,,,,,,,6,8,,,479.4755,14,1,0.614,480.0924,1,0.3,"[1,2,3]",0.476183523,stimuli/card_100_transparent.png,100,14,0,14,0,1,,,,,,,,,,
,,,,5f73f37ed13ce303cc14ae35,B,2024-08-23_22h47.05.038,Slot Machine Game,2023.1.3,Win32,59.88023952,,,,,,,,,,,,,,,,,,,,,,,,,,,,,,,,,,481.3932,,,,,,,,,,,,,,,,,,,,,,,,,,,,,,,"[1030,820,840,840,730,1120]",5,0,5,0,1,,,,
,,,,5f73f37ed13ce303cc14ae35,B,2024-08-23_22h47.05.038,Slot Machine Game,2023.1.3,Win32,59.88023952,,,,,,,,,,,,,,,,,,,,,,,,,,,,,,,,0,,,,,,,,,,,,,7,9,"[8,15]","[[3,2,1],[3,1,2]]",486.4023,0,1,0.6933,487.1124,1.5,0.3,"[3,2,1]",0.695357378,stimuli/card_0_transparent.png,0,0,0,0,0,1,,,,,,,,,,
,,,,5f73f37ed13ce303cc14ae35,B,2024-08-23_22h47.05.038,Slot Machine Game,2023.1.3,Win32,59.88023952,,,,,,,,,,,,,,,,,,,,,,,,,,,,,,,,0,,,,,,,,,,,,,7,9,,,488.9134,1,2,0.799400001,489.7306,0.5,0.3,"[3,2,1]",0.058598843,stimuli/card_0_transparent.png,0,1,0,1,0,1,,,,,,,,,,
,,,,5f73f37ed13ce303cc14ae35,B,2024-08-23_22h47.05.038,Slot Machine Game,2023.1.3,Win32,59.88023952,,,,,,,,,,,,,,,,,,,,,,,,,,,,,,,,10,,,,,,,,,,,,,7,9,,,490.5309,2,3,0.6839,491.2311,0.5,0.3,"[3,2,1]",0.160689485,stimuli/card_10_transparent.png,10,2,0,2,0,1,,,,,,,,,,
,,,,5f73f37ed13ce303cc14ae35,B,2024-08-23_22h47.05.038,Slot Machine Game,2023.1.3,Win32,59.88023952,,,,,,,,,,,,,,,,,,,,,,,,,,,,,,,,10,,,,,,,,,,,,,7,9,,,492.0316,3,1,0.783,492.832,1.5,0.3,"[3,2,1]",0.816024333,stimuli/card_0_transparent.png,0,3,0,3,0,1,,,,,,,,,,
,,,,5f73f37ed13ce303cc14ae35,B,2024-08-23_22h47.05.038,Slot Machine Game,2023.1.3,Win32,59.88023952,,,,,,,,,,,,,,,,,,,,,,,,,,,,,,,,20,,,,,,,,,,,,,7,9,,,494.633,4,2,1.0798,495.7333,1.5,0.3,"[3,2,1]",0.276175305,stimuli/card_10_transparent.png,10,4,0,4,0,1,,,,,,,,,,
,,,,5f73f37ed13ce303cc14ae35,B,2024-08-23_22h47.05.038,Slot Machine Game,2023.1.3,Win32,59.88023952,,,,,,,,,,,,,,,,,,,,,,,,,,,,,,,,120,,,,,,,,,,,,,7,9,,,497.5343,5,1,0.9098,498.4513,1.5,0.3,"[3,2,1]",0.062991921,stimuli/card_100_transparent.png,100,5,0,5,0,1,,,,,,,,,,
,,,,5f73f37ed13ce303cc14ae35,B,2024-08-23_22h47.05.038,Slot Machine Game,2023.1.3,Win32,59.88023952,,,,,,,,,,,,,,,,,,,,,,,,,,,,,,,,120,,,,,,,,,,,,,7,9,,,500.2523,6,1,0.8368,501.1027,1,0.3,"[3,2,1]",0.403051512,stimuli/card_0_transparent.png,0,6,0,6,0,1,,,,,,,,,,
,,,,5f73f37ed13ce303cc14ae35,B,2024-08-23_22h47.05.038,Slot Machine Game,2023.1.3,Win32,59.88023952,,,,,,,,,,,,,,,,,,,,,,,,,,,,,,,,220,,,,,,,,,,,,,7,9,,,502.4035,7,3,1.4733,503.8873,0.5,0.3,"[3,2,1]",0.704890944,stimuli/card_100_transparent.png,100,7,0,7,0,1,,,,,,,,,,
,,,,5f73f37ed13ce303cc14ae35,B,2024-08-23_22h47.05.038,Slot Machine Game,2023.1.3,Win32,59.88023952,,,,,,,,,,,,,,,,,,,,,,,,,,,,,,,,320,,,,,,,,,,,,,7,9,,,504.6878,8,2,1.4005,506.1052,0.5,0.3,"[3,1,2]",0.871357141,stimuli/card_100_transparent.png,100,8,0,8,0,1,,,,,,,,,,
,,,,5f73f37ed13ce303cc14ae35,B,2024-08-23_22h47.05.038,Slot Machine Game,2023.1.3,Win32,59.88023952,,,,,,,,,,,,,,,,,,,,,,,,,,,,,,,,320,,,,,,,,,,,,,7,9,,,506.9055,9,2,0.8799,507.7894,0.5,0.3,"[3,1,2]",0.045242282,stimuli/card_0_transparent.png,0,9,0,9,0,1,,,,,,,,,,
,,,,5f73f37ed13ce303cc14ae35,B,2024-08-23_22h47.05.038,Slot Machine Game,2023.1.3,Win32,59.88023952,,,,,,,,,,,,,,,,,,,,,,,,,,,,,,,,330,,,,,,,,,,,,,7,9,,,508.5898,10,3,0.600099999,509.2067,1,0.3,"[3,1,2]",0.852191643,stimuli/card_10_transparent.png,10,10,0,10,0,1,,,,,,,,,,
,,,,5f73f37ed13ce303cc14ae35,B,2024-08-23_22h47.05.038,Slot Machine Game,2023.1.3,Win32,59.88023952,,,,,,,,,,,,,,,,,,,,,,,,,,,,,,,,330,,,,,,,,,,,,,7,9,,,510.5073,11,1,0.5822,511.091,1,0.3,"[3,1,2]",0.604807839,stimuli/card_0_transparent.png,0,11,0,11,0,1,,,,,,,,,,
,,,,5f73f37ed13ce303cc14ae35,B,2024-08-23_22h47.05.038,Slot Machine Game,2023.1.3,Win32,59.88023952,,,,,,,,,,,,,,,,,,,,,,,,,,,,,,,,430,,,,,,,,,,,,,7,9,,,512.3917,12,2,0.620700001,513.0254,1.5,0.3,"[3,1,2]",0.745056371,stimuli/card_100_transparent.png,100,12,0,12,0,1,,,,,,,,,,
,,,,5f73f37ed13ce303cc14ae35,B,2024-08-23_22h47.05.038,Slot Machine Game,2023.1.3,Win32,59.88023952,,,,,,,,,,,,,,,,,,,,,,,,,,,,,,,,530,,,,,,,,,,,,,7,9,,,514.8261,13,2,0.5002,515.343,0.5,0.3,"[3,1,2]",0.369492508,stimuli/card_100_transparent.png,100,13,0,13,0,1,,,,,,,,,,
,,,,5f73f37ed13ce303cc14ae35,B,2024-08-23_22h47.05.038,Slot Machine Game,2023.1.3,Win32,59.88023952,,,,,,,,,,,,,,,,,,,,,,,,,,,,,,,,530,,,,,,,,,,,,,7,9,,,516.1437,14,2,0.7246,516.8938,1.5,0.3,"[3,1,2]",0.083064879,stimuli/card_0_transparent.png,0,14,0,14,0,1,,,,,,,,,,
,,,,5f73f37ed13ce303cc14ae35,B,2024-08-23_22h47.05.038,Slot Machine Game,2023.1.3,Win32,59.88023952,,,,,,,,,,,,,,,,,,,,,,,,,,,,,,,,,,518.6947,,,,,,,,,,,,,,,,,,,,,,,,,,,,,,,"[1030,820,840,840,730,1120,530]",6,0,6,0,1,,,,
,,,,5f73f37ed13ce303cc14ae35,B,2024-08-23_22h47.05.038,Slot Machine Game,2023.1.3,Win32,59.88023952,,,,,,,,,,,,,,,,,,,,,,,,,,,,,,,,10,,,,,,,,,,,,,8,2,"[6,15]","[[1,3,2],[3,2,1]]",523.7072,0,3,0.721900001,524.4474,1.5,0.3,"[1,3,2]",0.770492078,stimuli/card_10_transparent.png,10,0,0,0,0,1,,,,,,,,,,
,,,,5f73f37ed13ce303cc14ae35,B,2024-08-23_22h47.05.038,Slot Machine Game,2023.1.3,Win32,59.88023952,,,,,,,,,,,,,,,,,,,,,,,,,,,,,,,,110,,,,,,,,,,,,,8,2,,,526.2483,1,1,0.593,526.8488,1.5,0.3,"[1,3,2]",0.899663635,stimuli/card_100_transparent.png,100,1,0,1,0,1,,,,,,,,,,
,,,,5f73f37ed13ce303cc14ae35,B,2024-08-23_22h47.05.038,Slot Machine Game,2023.1.3,Win32,59.88023952,,,,,,,,,,,,,,,,,,,,,,,,,,,,,,,,210,,,,,,,,,,,,,8,2,,,528.6495,2,1,0.5037,529.1664,0.5,0.3,"[1,3,2]",0.954632784,stimuli/card_100_transparent.png,100,2,0,2,0,1,,,,,,,,,,
,,,,5f73f37ed13ce303cc14ae35,B,2024-08-23_22h47.05.038,Slot Machine Game,2023.1.3,Win32,59.88023952,,,,,,,,,,,,,,,,,,,,,,,,,,,,,,,,310,,,,,,,,,,,,,8,2,,,529.9667,3,1,0.6003,530.5838,0.5,0.3,"[1,3,2]",0.366139244,stimuli/card_100_transparent.png,100,3,0,3,0,1,,,,,,,,,,
,,,,5f73f37ed13ce303cc14ae35,B,2024-08-23_22h47.05.038,Slot Machine Game,2023.1.3,Win32,59.88023952,,,,,,,,,,,,,,,,,,,,,,,,,,,,,,,,410,,,,,,,,,,,,,8,2,,,531.3843,4,1,0.787599999,532.2012,1.5,0.3,"[1,3,2]",0.756524842,stimuli/card_100_transparent.png,100,4,0,4,0,1,,,,,,,,,,
,,,,5f73f37ed13ce303cc14ae35,B,2024-08-23_22h47.05.038,Slot Machine Game,2023.1.3,Win32,59.88023952,,,,,,,,,,,,,,,,,,,,,,,,,,,,,,,,510,,,,,,,,,,,,,8,2,,,534.0021,5,1,0.6825,534.7023,1.5,0.3,"[1,3,2]",0.995241757,stimuli/card_100_transparent.png,100,5,0,5,0,1,,,,,,,,,,
,,,,5f73f37ed13ce303cc14ae35,B,2024-08-23_22h47.05.038,Slot Machine Game,2023.1.3,Win32,59.88023952,,,,,,,,,,,,,,,,,,,,,,,,,,,,,,,,520,,,,,,,,,,,,,8,2,,,536.5033,6,1,0.7332,537.2538,1,0.3,"[3,2,1]",0.107973981,stimuli/card_10_transparent.png,10,6,0,6,0,1,,,,,,,,,,
,,,,5f73f37ed13ce303cc14ae35,B,2024-08-23_22h47.05.038,Slot Machine Game,2023.1.3,Win32,59.88023952,,,,,,,,,,,,,,,,,,,,,,,,,,,,,,,,520,,,,,,,,,,,,,8,2,,,538.5543,7,2,0.5334,539.1046,1.5,0.3,"[3,2,1]",0.095603428,stimuli/card_0_transparent.png,0,7,0,7,0,1,,,,,,,,,,
,,,,5f73f37ed13ce303cc14ae35,B,2024-08-23_22h47.05.038,Slot Machine Game,2023.1.3,Win32,59.88023952,,,,,,,,,,,,,,,,,,,,,,,,,,,,,,,,530,,,,,,,,,,,,,8,2,,,540.9055,8,3,0.559900001,541.4724,0.5,0.3,"[3,2,1]",0.182294011,stimuli/card_10_transparent.png,10,8,0,8,0,1,,,,,,,,,,
,,,,5f73f37ed13ce303cc14ae35,B,2024-08-23_22h47.05.038,Slot Machine Game,2023.1.3,Win32,59.88023952,,,,,,,,,,,,,,,,,,,,,,,,,,,,,,,,530,,,,,,,,,,,,,8,2,,,542.2728,9,1,0.6308,542.9231,1,0.3,"[3,2,1]",0.734714247,stimuli/card_0_transparent.png,0,9,0,9,0,1,,,,,,,,,,
,,,,5f73f37ed13ce303cc14ae35,B,2024-08-23_22h47.05.038,Slot Machine Game,2023.1.3,Win32,59.88023952,,,,,,,,,,,,,,,,,,,,,,,,,,,,,,,,540,,,,,,,,,,,,,8,2,,,544.2239,10,2,2.5088,546.7421,0.5,0.3,"[3,2,1]",0.364175072,stimuli/card_10_transparent.png,10,10,0,10,0,1,,,,,,,,,,
,,,,5f73f37ed13ce303cc14ae35,B,2024-08-23_22h47.05.038,Slot Machine Game,2023.1.3,Win32,59.88023952,,,,,,,,,,,,,,,,,,,,,,,,,,,,,,,,540,,,,,,,,,,,,,8,2,,,547.5423,11,2,1.4061,548.9761,1,0.3,"[3,2,1]",0.006856703,stimuli/card_0_transparent.png,0,11,0,11,0,1,,,,,,,,,,
,,,,5f73f37ed13ce303cc14ae35,B,2024-08-23_22h47.05.038,Slot Machine Game,2023.1.3,Win32,59.88023952,,,,,,,,,,,,,,,,,,,,,,,,,,,,,,,,540,,,,,,,,,,,,,8,2,,,550.2767,12,1,0.535900001,550.8269,0.5,0.3,"[3,2,1]",0.977234102,stimuli/card_0_transparent.png,0,12,0,12,0,1,,,,,,,,,,
,,,,5f73f37ed13ce303cc14ae35,B,2024-08-23_22h47.05.038,Slot Machine Game,2023.1.3,Win32,59.88023952,,,,,,,,,,,,,,,,,,,,,,,,,,,,,,,,640,,,,,,,,,,,,,8,2,,,551.6275,13,3,0.5768,552.2111,0.5,0.3,"[3,2,1]",0.50664251,stimuli/card_100_transparent.png,100,13,0,13,0,1,,,,,,,,,,
,,,,5f73f37ed13ce303cc14ae35,B,2024-08-23_22h47.05.038,Slot Machine Game,2023.1.3,Win32,59.88023952,,,,,,,,,,,,,,,,,,,,,,,,,,,,,,,,740,,,,,,,,,,,,,8,2,,,553.0115,14,3,0.7232,553.7452,1,0.3,"[3,2,1]",0.674956041,stimuli/card_100_transparent.png,100,14,0,14,0,1,,,,,,,,,,
,,,,5f73f37ed13ce303cc14ae35,B,2024-08-23_22h47.05.038,Slot Machine Game,2023.1.3,Win32,59.88023952,,,,,,,,,,,,,,,,,,,,,,,,,,,,,,,,,,555.0458,,,,,,,,,,,,,,,,,,,,,,,,,,,,,,,"[1030,820,840,840,730,1120,530,740]",7,0,7,0,1,,,,
,,,,5f73f37ed13ce303cc14ae35,B,2024-08-23_22h47.05.038,Slot Machine Game,2023.1.3,Win32,59.88023952,,,,,,,,,,,,,,,,,,,,,,,,,,,,,,,,10,,,,,,,,,,,,,9,10,"[10,15]","[[3,1,2],[1,3,2]]",560.0552,0,3,0.536099999,560.6152,0.5,0.3,"[3,1,2]",0.224038685,stimuli/card_10_transparent.png,10,0,0,0,0,1,,,,,,,,,,
,,,,5f73f37ed13ce303cc14ae35,B,2024-08-23_22h47.05.038,Slot Machine Game,2023.1.3,Win32,59.88023952,,,,,,,,,,,,,,,,,,,,,,,,,,,,,,,,110,,,,,,,,,,,,,9,10,,,561.4159,1,2,0.5534,561.9828,0.5,0.3,"[3,1,2]",0.707209677,stimuli/card_100_transparent.png,100,1,0,1,0,1,,,,,,,,,,
,,,,5f73f37ed13ce303cc14ae35,B,2024-08-23_22h47.05.038,Slot Machine Game,2023.1.3,Win32,59.88023952,,,,,,,,,,,,,,,,,,,,,,,,,,,,,,,,210,,,,,,,,,,,,,9,10,,,562.783,2,2,0.562599999,563.3499,0.5,0.3,"[3,1,2]",0.729916832,stimuli/card_100_transparent.png,100,2,0,2,0,1,,,,,,,,,,
,,,,5f73f37ed13ce303cc14ae35,B,2024-08-23_22h47.05.038,Slot Machine Game,2023.1.3,Win32,59.88023952,,,,,,,,,,,,,,,,,,,,,,,,,,,,,,,,310,,,,,,,,,,,,,9,10,,,564.1502,3,2,0.5553,564.7172,1.5,0.3,"[3,1,2]",0.774199215,stimuli/card_100_transparent.png,100,3,0,3,0,1,,,,,,,,,,
,,,,5f73f37ed13ce303cc14ae35,B,2024-08-23_22h47.05.038,Slot Machine Game,2023.1.3,Win32,59.88023952,,,,,,,,,,,,,,,,,,,,,,,,,,,,,,,,410,,,,,,,,,,,,,9,10,,,566.5183,4,2,0.557599999,567.1018,1.5,0.3,"[3,1,2]",0.454222,stimuli/card_100_transparent.png,100,4,0,4,0,1,,,,,,,,,,
,,,,5f73f37ed13ce303cc14ae35,B,2024-08-23_22h47.05.038,Slot Machine Game,2023.1.3,Win32,59.88023952,,,,,,,,,,,,,,,,,,,,,,,,,,,,,,,,510,,,,,,,,,,,,,9,10,,,568.9025,5,2,0.782099999,569.7029,1.5,0.3,"[3,1,2]",0.862685713,stimuli/card_100_transparent.png,100,5,0,5,0,1,,,,,,,,,,
,,,,5f73f37ed13ce303cc14ae35,B,2024-08-23_22h47.05.038,Slot Machine Game,2023.1.3,Win32,59.88023952,,,,,,,,,,,,,,,,,,,,,,,,,,,,,,,,610,,,,,,,,,,,,,9,10,,,571.504,6,2,0.5332,572.0541,1,0.3,"[3,1,2]",0.30381691,stimuli/card_100_transparent.png,100,6,0,6,0,1,,,,,,,,,,
,,,,5f73f37ed13ce303cc14ae35,B,2024-08-23_22h47.05.038,Slot Machine Game,2023.1.3,Win32,59.88023952,,,,,,,,,,,,,,,,,,,,,,,,,,,,,,,,710,,,,,,,,,,,,,9,10,,,573.3547,7,2,1.0182,574.3885,1.5,0.3,"[3,1,2]",0.79650181,stimuli/card_100_transparent.png,100,7,0,7,0,1,,,,,,,,,,
,,,,5f73f37ed13ce303cc14ae35,B,2024-08-23_22h47.05.038,Slot Machine Game,2023.1.3,Win32,59.88023952,,,,,,,,,,,,,,,,,,,,,,,,,,,,,,,,810,,,,,,,,,,,,,9,10,,,576.1897,8,2,0.6148,576.8231,1.5,0.3,"[3,1,2]",0.527436804,stimuli/card_100_transparent.png,100,8,0,8,0,1,,,,,,,,,,
,,,,5f73f37ed13ce303cc14ae35,B,2024-08-23_22h47.05.038,Slot Machine Game,2023.1.3,Win32,59.88023952,,,,,,,,,,,,,,,,,,,,,,,,,,,,,,,,910,,,,,,,,,,,,,9,10,,,578.6239,9,2,0.6002,579.2409,1.5,0.3,"[3,1,2]",0.883820263,stimuli/card_100_transparent.png,100,9,0,9,0,1,,,,,,,,,,
,,,,5f73f37ed13ce303cc14ae35,B,2024-08-23_22h47.05.038,Slot Machine Game,2023.1.3,Win32,59.88023952,,,,,,,,,,,,,,,,,,,,,,,,,,,,,,,,910,,,,,,,,,,,,,9,10,,,581.042,10,2,0.8316,581.8755,1.5,0.3,"[1,3,2]",0.234499307,stimuli/card_0_transparent.png,0,10,0,10,0,1,,,,,,,,,,
,,,,5f73f37ed13ce303cc14ae35,B,2024-08-23_22h47.05.038,Slot Machine Game,2023.1.3,Win32,59.88023952,,,,,,,,,,,,,,,,,,,,,,,,,,,,,,,,1010,,,,,,,,,,,,,9,10,,,583.6765,11,1,1.2884,584.977,0.5,0.3,"[1,3,2]",0.309212004,stimuli/card_100_transparent.png,100,11,0,11,0,1,,,,,,,,,,
,,,,5f73f37ed13ce303cc14ae35,B,2024-08-23_22h47.05.038,Slot Machine Game,2023.1.3,Win32,59.88023952,,,,,,,,,,,,,,,,,,,,,,,,,,,,,,,,1110,,,,,,,,,,,,,9,10,,,585.7777,12,1,0.6108,586.411,1,0.3,"[1,3,2]",0.384681516,stimuli/card_100_transparent.png,100,12,0,12,0,1,,,,,,,,,,
,,,,5f73f37ed13ce303cc14ae35,B,2024-08-23_22h47.05.038,Slot Machine Game,2023.1.3,Win32,59.88023952,,,,,,,,,,,,,,,,,,,,,,,,,,,,,,,,1210,,,,,,,,,,,,,9,10,,,587.712,13,1,1.3883,589.1291,1,0.3,"[1,3,2]",0.552702726,stimuli/card_100_transparent.png,100,13,0,13,0,1,,,,,,,,,,
,,,,5f73f37ed13ce303cc14ae35,B,2024-08-23_22h47.05.038,Slot Machine Game,2023.1.3,Win32,59.88023952,,,,,,,,,,,,,,,,,,,,,,,,,,,,,,,,1310,,,,,,,,,,,,,9,10,,,590.4299,14,1,0.5349,590.98,1.5,0.3,"[1,3,2]",0.219502695,stimuli/card_100_transparent.png,100,14,0,14,0,1,,,,,,,,,,
,,,,5f73f37ed13ce303cc14ae35,B,2024-08-23_22h47.05.038,Slot Machine Game,2023.1.3,Win32,59.88023952,,,,,,,,,,,,,,,,,,,,,,,,,,,,,,,,,,592.781,,,,,,,,,,,,,,,,,,,,,,,,,,,,,,,"[1030,820,840,840,730,1120,530,740,1310]",8,0,8,0,1,,,,
,,,,5f73f37ed13ce303cc14ae35,B,2024-08-23_22h47.05.038,Slot Machine Game,2023.1.3,Win32,59.88023952,,,,,,,,,,,,,,,,,,,,,,,,,,,,,,,,100,,,,,,,,,,,,,10,3,"[15,15]","[[3,1,2],[3,1,2]]",597.7903,0,2,0.5163,598.3337,1,0.3,"[3,1,2]",0.347090696,stimuli/card_100_transparent.png,100,0,0,0,0,1,,,,,,,,,,
,,,,5f73f37ed13ce303cc14ae35,B,2024-08-23_22h47.05.038,Slot Machine Game,2023.1.3,Win32,59.88023952,,,,,,,,,,,,,,,,,,,,,,,,,,,,,,,,200,,,,,,,,,,,,,10,3,,,599.6343,1,2,0.674599999,600.318,1.5,0.3,"[3,1,2]",0.295247406,stimuli/card_100_transparent.png,100,1,0,1,0,1,,,,,,,,,,
,,,,5f73f37ed13ce303cc14ae35,B,2024-08-23_22h47.05.038,Slot Machine Game,2023.1.3,Win32,59.88023952,,,,,,,,,,,,,,,,,,,,,,,,,,,,,,,,200,,,,,,,,,,,,,10,3,,,602.1189,2,2,0.5063,602.6357,0.5,0.3,"[3,1,2]",0.033227207,stimuli/card_0_transparent.png,0,2,0,2,0,1,,,,,,,,,,
,,,,5f73f37ed13ce303cc14ae35,B,2024-08-23_22h47.05.038,Slot Machine Game,2023.1.3,Win32,59.88023952,,,,,,,,,,,,,,,,,,,,,,,,,,,,,,,,300,,,,,,,,,,,,,10,3,,,603.4364,3,2,0.5243,603.9865,1,0.3,"[3,1,2]",0.573126304,stimuli/card_100_transparent.png,100,3,0,3,0,1,,,,,,,,,,
,,,,5f73f37ed13ce303cc14ae35,B,2024-08-23_22h47.05.038,Slot Machine Game,2023.1.3,Win32,59.88023952,,,,,,,,,,,,,,,,,,,,,,,,,,,,,,,,400,,,,,,,,,,,,,10,3,,,605.2871,4,2,0.5224,605.8206,0.5,0.3,"[3,1,2]",0.273153766,stimuli/card_100_transparent.png,100,4,0,4,0,1,,,,,,,,,,
,,,,5f73f37ed13ce303cc14ae35,B,2024-08-23_22h47.05.038,Slot Machine Game,2023.1.3,Win32,59.88023952,,,,,,,,,,,,,,,,,,,,,,,,,,,,,,,,410,,,,,,,,,,,,,10,3,,,606.6212,5,2,0.5674,607.2048,0.5,0.3,"[3,1,2]",0.135603569,stimuli/card_10_transparent.png,10,5,0,5,0,1,,,,,,,,,,
,,,,5f73f37ed13ce303cc14ae35,B,2024-08-23_22h47.05.038,Slot Machine Game,2023.1.3,Win32,59.88023952,,,,,,,,,,,,,,,,,,,,,,,,,,,,,,,,410,,,,,,,,,,,,,10,3,,,608.0052,6,1,0.5845,608.622,0.5,0.3,"[3,1,2]",0.808695194,stimuli/card_0_transparent.png,0,6,0,6,0,1,,,,,,,,,,
,,,,5f73f37ed13ce303cc14ae35,B,2024-08-23_22h47.05.038,Slot Machine Game,2023.1.3,Win32,59.88023952,,,,,,,,,,,,,,,,,,,,,,,,,,,,,,,,510,,,,,,,,,,,,,10,3,,,609.4224,7,2,0.574,610.0061,1,0.3,"[3,1,2]",0.887895386,stimuli/card_100_transparent.png,100,7,0,7,0,1,,,,,,,,,,
,,,,5f73f37ed13ce303cc14ae35,B,2024-08-23_22h47.05.038,Slot Machine Game,2023.1.3,Win32,59.88023952,,,,,,,,,,,,,,,,,,,,,,,,,,,,,,,,610,,,,,,,,,,,,,10,3,,,611.3067,8,2,0.5874,611.9069,0.5,0.3,"[3,1,2]",0.79324141,stimuli/card_100_transparent.png,100,8,0,8,0,1,,,,,,,,,,
,,,,5f73f37ed13ce303cc14ae35,B,2024-08-23_22h47.05.038,Slot Machine Game,2023.1.3,Win32,59.88023952,,,,,,,,,,,,,,,,,,,,,,,,,,,,,,,,710,,,,,,,,,,,,,10,3,,,612.7072,9,2,0.63,613.3411,0.5,0.3,"[3,1,2]",0.472813073,stimuli/card_100_transparent.png,100,9,0,9,0,1,,,,,,,,,,
,,,,5f73f37ed13ce303cc14ae35,B,2024-08-23_22h47.05.038,Slot Machine Game,2023.1.3,Win32,59.88023952,,,,,,,,,,,,,,,,,,,,,,,,,,,,,,,,810,,,,,,,,,,,,,10,3,,,614.1414,10,2,0.577,614.7249,1,0.3,"[3,1,2]",0.899151213,stimuli/card_100_transparent.png,100,10,0,10,0,1,,,,,,,,,,
,,,,5f73f37ed13ce303cc14ae35,B,2024-08-23_22h47.05.038,Slot Machine Game,2023.1.3,Win32,59.88023952,,,,,,,,,,,,,,,,,,,,,,,,,,,,,,,,810,,,,,,,,,,,,,10,3,,,616.0256,11,2,0.5442,616.5927,0.5,0.3,"[3,1,2]",0.068990944,stimuli/card_0_transparent.png,0,11,0,11,0,1,,,,,,,,,,
,,,,5f73f37ed13ce303cc14ae35,B,2024-08-23_22h47.05.038,Slot Machine Game,2023.1.3,Win32,59.88023952,,,,,,,,,,,,,,,,,,,,,,,,,,,,,,,,810,,,,,,,,,,,,,10,3,,,617.393,12,1,0.7237,618.1266,1.5,0.3,"[3,1,2]",0.797735231,stimuli/card_0_transparent.png,0,12,0,12,0,1,,,,,,,,,,
,,,,5f73f37ed13ce303cc14ae35,B,2024-08-23_22h47.05.038,Slot Machine Game,2023.1.3,Win32,59.88023952,,,,,,,,,,,,,,,,,,,,,,,,,,,,,,,,820,,,,,,,,,,,,,10,3,,,619.9275,13,2,1.3572,621.295,0.5,0.3,"[3,1,2]",0.170312641,stimuli/card_10_transparent.png,10,13,0,13,0,1,,,,,,,,,,
,,,,5f73f37ed13ce303cc14ae35,B,2024-08-23_22h47.05.038,Slot Machine Game,2023.1.3,Win32,59.88023952,,,,,,,,,,,,,,,,,,,,,,,,,,,,,,,,830,,,,,,,,,,,,,10,3,,,622.0953,14,3,0.8456,622.9624,0.5,0.3,"[3,1,2]",0.761994355,stimuli/card_10_transparent.png,10,14,0,14,0,1,,,,,,,,,,
,,,,5f73f37ed13ce303cc14ae35,B,2024-08-23_22h47.05.038,Slot Machine Game,2023.1.3,Win32,59.88023952,,,,,,,,,,,,,,,,,,,,,,,,,,,,,,,,,,623.7628,,,,,,,,,,,,,,,,,,,,,,,,,,,,,,,"[1030,820,840,840,730,1120,530,740,1310,830]",9,0,9,0,1,,,,
,,,,5f73f37ed13ce303cc14ae35,B,2024-08-23_22h47.05.038,Slot Machine Game,2023.1.3,Win32,59.88023952,,,,,,,,,,,,,,,,,,,,,,,,,,,,,,,,,,,,,,,,,,,,,,,,,,,,,,,,,,,,,,,,,,,,,,,9,"[1030,820,840,840,730,1120,530,740,1310,830]",7.3,2024-08-23_22h57.37.886
