key_resp_welcome_started,key_resp_welcome_keys,key_resp_welcome_rt,key_resp_welcome_duration,prolific_pid,path_id,date,expName,psychopyVersion,OS,frameRate,key_resp_instruction1_started,key_resp_instruction1_keys,key_resp_instruction1_rt,key_resp_instruction1_duration,key_resp_instruction2_started,key_resp_instruction2_keys,key_resp_instruction2_rt,key_resp_instruction2_duration,key_resp_instruction3_started,key_resp_instruction3_keys,key_resp_instruction3_rt,key_resp_instruction3_duration,key_resp_instruction4_started,key_resp_instruction4_keys,key_resp_instruction4_rt,key_resp_instruction4_duration,practiceCondition,practice_reward_seqs,practice_trial_started,practice_trial_num,practice_resp_rt,practice_keypress_time,practice_resp_keys,prac_presentationInterval,practice_reward_seq,reward_img,cumulative_reward,trial_reward,practice_trials.thisRepN,practice_trials.thisTrialN,practice_trials.thisN,practice_trials.thisIndex,practice_trials.ran,block_break_started,practice_end_time,practice_end_keys,practice_end_rt,practice_end_duration,main_instruction_text_started,block_condition,block_order_indices,main_instruction_keys,main_instruction_rt,main_instruction_duration,block_number,block_assignment,current_condition,main_reward_seqs,main_trial_started,main_trial_num,main_trial_keys,main_trial_rt,main_trial_keypress_time,main_presentationInterval,reward_presentation_time,main_reward_seq,reward_rand_val,main_reward_img,current_reward,main_trials.thisRepN,main_trials.thisTrialN,main_trials.thisN,main_trials.thisIndex,main_trials.ran,block_reward,block.thisRepN,block.thisTrialN,block.thisN,block.thisIndex,block.ran,block_reward.length,block_reward_all,reward_amount,date_end_task
0.0008,space,2.577,,5b64cf6dae3bd50001a2b142,B,2024-08-16_14h29.47.926,Slot Machine Game,2023.1.3,Linux x86_64,60.24096386,,,,,,,,,,,,,,,,,,,,,,,,,,,,,,,,,,,,,,,,,,,,,,,,,,,,,,,,,,,,,,,,,,,,,,,,,,
,,,,5b64cf6dae3bd50001a2b142,B,2024-08-16_14h29.47.926,Slot Machine Game,2023.1.3,Linux x86_64,60.24096386,2.5975,space,27.4704,,,,,,,,,,,,,,,,,,,,,,,,,,,,,,,,,,,,,,,,,,,,,,,,,,,,,,,,,,,,,,,,,,,,,,,
,,,,5b64cf6dae3bd50001a2b142,B,2024-08-16_14h29.47.926,Slot Machine Game,2023.1.3,Linux x86_64,60.24096386,,,,,30.0955,space,34.9012,,,,,,,,,,,,,,,,,,,,,,,,,,,,,,,,,,,,,,,,,,,,,,,,,,,,,,,,,,,,,,,,,,,
,,,,5b64cf6dae3bd50001a2b142,B,2024-08-16_14h29.47.926,Slot Machine Game,2023.1.3,Linux x86_64,60.24096386,,,,,,,,,65.0499,space,11.7423,,,,,,,,,,,,,,,,,,,,,,,,,,,,,,,,,,,,,,,,,,,,,,,,,,,,,,,,,,,,,,,
,,,,5b64cf6dae3bd50001a2b142,B,2024-08-16_14h29.47.926,Slot Machine Game,2023.1.3,Linux x86_64,60.24096386,,,,,,,,,,,,,,,,,,,,,,,,,,,,,,,,,,,,,,,,,,,,,,,,,,,,,,,,,,,,,,,,,,,,,,,,,,
,,,,5b64cf6dae3bd50001a2b142,B,2024-08-16_14h29.47.926,Slot Machine Game,2023.1.3,Linux x86_64,60.24096386,,,,,,,,,,,,,218.7255,space,3.2578,,,,,,,,,,,,,,,,,,,,,,,,,,,,,,,,,,,,,,,,,,,,,,,,,,,,,,,,,,,
,,,,5b64cf6dae3bd50001a2b142,B,2024-08-16_14h29.47.926,Slot Machine Game,2023.1.3,Linux x86_64,60.24096386,,,,,,,,,,,,,,,,,"[9,15]","[[2,1,3],[2,3,1]]",222.0203,0,0.9383,222.9734,right,1.5,"[2,1,3]",stimuli/card_0_transparent.png,0,0,0,0,0,0,1,,,,,,,,,,,,,,,,,,,,,,,,,,,,,,,,,,,,,,,,,
,,,,5b64cf6dae3bd50001a2b142,B,2024-08-16_14h29.47.926,Slot Machine Game,2023.1.3,Linux x86_64,60.24096386,,,,,,,,,,,,,,,,,,,224.7767,1,1.4875,226.2938,right,0.5,"[2,1,3]",stimuli/card_0_transparent.png,0,0,1,0,1,0,1,,,,,,,,,,,,,,,,,,,,,,,,,,,,,,,,,,,,,,,,,
,,,,5b64cf6dae3bd50001a2b142,B,2024-08-16_14h29.47.926,Slot Machine Game,2023.1.3,Linux x86_64,60.24096386,,,,,,,,,,,,,,,,,,,227.095,2,0.7345,227.8626,up,0.5,"[2,1,3]",stimuli/card_100_transparent.png,100,100,2,0,2,0,1,,,,,,,,,,,,,,,,,,,,,,,,,,,,,,,,,,,,,,,,,
,,,,5b64cf6dae3bd50001a2b142,B,2024-08-16_14h29.47.926,Slot Machine Game,2023.1.3,Linux x86_64,60.24096386,,,,,,,,,,,,,,,,,,,228.6626,3,0.5667,229.247,up,0.5,"[2,1,3]",stimuli/card_100_transparent.png,200,100,3,0,3,0,1,,,,,,,,,,,,,,,,,,,,,,,,,,,,,,,,,,,,,,,,,
,,,,5b64cf6dae3bd50001a2b142,B,2024-08-16_14h29.47.926,Slot Machine Game,2023.1.3,Linux x86_64,60.24096386,,,,,,,,,,,,,,,,,,,230.0481,4,1.7028,231.7831,up,0.5,"[2,1,3]",stimuli/card_10_transparent.png,210,10,4,0,4,0,1,,,,,,,,,,,,,,,,,,,,,,,,,,,,,,,,,,,,,,,,,
,,,,5b64cf6dae3bd50001a2b142,B,2024-08-16_14h29.47.926,Slot Machine Game,2023.1.3,Linux x86_64,60.24096386,,,,,,,,,,,,,,,,,,,232.5847,5,2.5185,235.1369,up,0.5,"[2,1,3]",stimuli/card_0_transparent.png,210,0,5,0,5,0,1,,,,,,,,,,,,,,,,,,,,,,,,,,,,,,,,,,,,,,,,,
,,,,5b64cf6dae3bd50001a2b142,B,2024-08-16_14h29.47.926,Slot Machine Game,2023.1.3,Linux x86_64,60.24096386,,,,,,,,,,,,,,,,,,,235.9379,6,1.6371,237.6066,up,0.5,"[2,1,3]",stimuli/card_100_transparent.png,310,100,6,0,6,0,1,,,,,,,,,,,,,,,,,,,,,,,,,,,,,,,,,,,,,,,,,
,,,,5b64cf6dae3bd50001a2b142,B,2024-08-16_14h29.47.926,Slot Machine Game,2023.1.3,Linux x86_64,60.24096386,,,,,,,,,,,,,,,,,,,238.4073,7,1.117,239.5583,up,0.5,"[2,1,3]",stimuli/card_100_transparent.png,410,100,7,0,7,0,1,,,,,,,,,,,,,,,,,,,,,,,,,,,,,,,,,,,,,,,,,
,,,,5b64cf6dae3bd50001a2b142,B,2024-08-16_14h29.47.926,Slot Machine Game,2023.1.3,Linux x86_64,60.24096386,,,,,,,,,,,,,,,,,,,240.3597,8,0.8666,241.2434,up,1,"[2,1,3]",stimuli/card_0_transparent.png,410,0,8,0,8,0,1,,,,,,,,,,,,,,,,,,,,,,,,,,,,,,,,,,,,,,,,,
,,,,5b64cf6dae3bd50001a2b142,B,2024-08-16_14h29.47.926,Slot Machine Game,2023.1.3,Linux x86_64,60.24096386,,,,,,,,,,,,,,,,,,,242.5457,9,1.5192,244.0802,left,1,"[2,3,1]",stimuli/card_10_transparent.png,420,10,9,0,9,0,1,,,,,,,,,,,,,,,,,,,,,,,,,,,,,,,,,,,,,,,,,
,,,,5b64cf6dae3bd50001a2b142,B,2024-08-16_14h29.47.926,Slot Machine Game,2023.1.3,Linux x86_64,60.24096386,,,,,,,,,,,,,,,,,,,245.3817,10,0.6523,246.0658,up,1.5,"[2,3,1]",stimuli/card_0_transparent.png,420,0,10,0,10,0,1,,,,,,,,,,,,,,,,,,,,,,,,,,,,,,,,,,,,,,,,,
,,,,5b64cf6dae3bd50001a2b142,B,2024-08-16_14h29.47.926,Slot Machine Game,2023.1.3,Linux x86_64,60.24096386,,,,,,,,,,,,,,,,,,,247.8686,11,0.6364,248.5353,left,1,"[2,3,1]",stimuli/card_10_transparent.png,430,10,11,0,11,0,1,,,,,,,,,,,,,,,,,,,,,,,,,,,,,,,,,,,,,,,,,
,,,,5b64cf6dae3bd50001a2b142,B,2024-08-16_14h29.47.926,Slot Machine Game,2023.1.3,Linux x86_64,60.24096386,,,,,,,,,,,,,,,,,,,249.8365,12,1.2172,251.0711,right,0.5,"[2,3,1]",stimuli/card_100_transparent.png,530,100,12,0,12,0,1,,,,,,,,,,,,,,,,,,,,,,,,,,,,,,,,,,,,,,,,,
,,,,5b64cf6dae3bd50001a2b142,B,2024-08-16_14h29.47.926,Slot Machine Game,2023.1.3,Linux x86_64,60.24096386,,,,,,,,,,,,,,,,,,,251.8726,13,0.5515,252.4559,right,1,"[2,3,1]",stimuli/card_0_transparent.png,530,0,13,0,13,0,1,,,,,,,,,,,,,,,,,,,,,,,,,,,,,,,,,,,,,,,,,
,,,,5b64cf6dae3bd50001a2b142,B,2024-08-16_14h29.47.926,Slot Machine Game,2023.1.3,Linux x86_64,60.24096386,,,,,,,,,,,,,,,,,,,253.7577,14,2.7703,256.5604,left,1.5,"[2,3,1]",stimuli/card_10_transparent.png,540,10,14,0,14,0,1,,,,,,,,,,,,,,,,,,,,,,,,,,,,,,,,,,,,,,,,,
,,,,5b64cf6dae3bd50001a2b142,B,2024-08-16_14h29.47.926,Slot Machine Game,2023.1.3,Linux x86_64,60.24096386,,,,,,,,,,,,,,,,,"[6,15]","[[1,3,2],[3,1,2]]",263.4012,0,0.7859,264.2021,right,1,"[1,3,2]",stimuli/card_10_transparent.png,10,10,0,0,0,0,1,258.3938,,,,,,,,,,,,,,,,,,,,,,,,,,,,,,,,,,,,,,,,
,,,,5b64cf6dae3bd50001a2b142,B,2024-08-16_14h29.47.926,Slot Machine Game,2023.1.3,Linux x86_64,60.24096386,,,,,,,,,,,,,,,,,,,265.504,1,0.703,266.2378,right,0.5,"[1,3,2]",stimuli/card_10_transparent.png,20,10,1,0,1,0,1,,,,,,,,,,,,,,,,,,,,,,,,,,,,,,,,,,,,,,,,,
,,,,5b64cf6dae3bd50001a2b142,B,2024-08-16_14h29.47.926,Slot Machine Game,2023.1.3,Linux x86_64,60.24096386,,,,,,,,,,,,,,,,,,,267.0391,2,0.5184,267.5904,up,1,"[1,3,2]",stimuli/card_10_transparent.png,30,10,2,0,2,0,1,,,,,,,,,,,,,,,,,,,,,,,,,,,,,,,,,,,,,,,,,
,,,,5b64cf6dae3bd50001a2b142,B,2024-08-16_14h29.47.926,Slot Machine Game,2023.1.3,Linux x86_64,60.24096386,,,,,,,,,,,,,,,,,,,268.8909,3,2.3162,271.2261,left,1.5,"[1,3,2]",stimuli/card_100_transparent.png,130,100,3,0,3,0,1,,,,,,,,,,,,,,,,,,,,,,,,,,,,,,,,,,,,,,,,,
,,,,5b64cf6dae3bd50001a2b142,B,2024-08-16_14h29.47.926,Slot Machine Game,2023.1.3,Linux x86_64,60.24096386,,,,,,,,,,,,,,,,,,,273.0291,4,1.8509,274.8975,left,0.5,"[1,3,2]",stimuli/card_0_transparent.png,130,0,4,0,4,0,1,,,,,,,,,,,,,,,,,,,,,,,,,,,,,,,,,,,,,,,,,
,,,,5b64cf6dae3bd50001a2b142,B,2024-08-16_14h29.47.926,Slot Machine Game,2023.1.3,Linux x86_64,60.24096386,,,,,,,,,,,,,,,,,,,275.6984,5,0.5676,276.2994,up,0.5,"[1,3,2]",stimuli/card_0_transparent.png,130,0,5,0,5,0,1,,,,,,,,,,,,,,,,,,,,,,,,,,,,,,,,,,,,,,,,,
,,,,5b64cf6dae3bd50001a2b142,B,2024-08-16_14h29.47.926,Slot Machine Game,2023.1.3,Linux x86_64,60.24096386,,,,,,,,,,,,,,,,,,,277.1003,6,1.755,278.8684,left,1,"[3,1,2]",stimuli/card_0_transparent.png,130,0,6,0,6,0,1,,,,,,,,,,,,,,,,,,,,,,,,,,,,,,,,,,,,,,,,,
,,,,5b64cf6dae3bd50001a2b142,B,2024-08-16_14h29.47.926,Slot Machine Game,2023.1.3,Linux x86_64,60.24096386,,,,,,,,,,,,,,,,,,,280.1694,7,1.3223,281.5045,right,1,"[3,1,2]",stimuli/card_10_transparent.png,140,10,7,0,7,0,1,,,,,,,,,,,,,,,,,,,,,,,,,,,,,,,,,,,,,,,,,
,,,,5b64cf6dae3bd50001a2b142,B,2024-08-16_14h29.47.926,Slot Machine Game,2023.1.3,Linux x86_64,60.24096386,,,,,,,,,,,,,,,,,,,282.8063,8,0.5013,283.3234,right,0.5,"[3,1,2]",stimuli/card_10_transparent.png,150,10,8,0,8,0,1,,,,,,,,,,,,,,,,,,,,,,,,,,,,,,,,,,,,,,,,,
,,,,5b64cf6dae3bd50001a2b142,B,2024-08-16_14h29.47.926,Slot Machine Game,2023.1.3,Linux x86_64,60.24096386,,,,,,,,,,,,,,,,,,,284.1243,9,2.4747,286.6111,up,0.5,"[3,1,2]",stimuli/card_100_transparent.png,250,100,9,0,9,0,1,,,,,,,,,,,,,,,,,,,,,,,,,,,,,,,,,,,,,,,,,
,,,,5b64cf6dae3bd50001a2b142,B,2024-08-16_14h29.47.926,Slot Machine Game,2023.1.3,Linux x86_64,60.24096386,,,,,,,,,,,,,,,,,,,287.4113,10,0.5342,287.9617,up,0.5,"[3,1,2]",stimuli/card_100_transparent.png,350,100,10,0,10,0,1,,,,,,,,,,,,,,,,,,,,,,,,,,,,,,,,,,,,,,,,,
,,,,5b64cf6dae3bd50001a2b142,B,2024-08-16_14h29.47.926,Slot Machine Game,2023.1.3,Linux x86_64,60.24096386,,,,,,,,,,,,,,,,,,,288.7625,11,1.1365,289.9138,up,1.5,"[3,1,2]",stimuli/card_100_transparent.png,450,100,11,0,11,0,1,,,,,,,,,,,,,,,,,,,,,,,,,,,,,,,,,,,,,,,,,
,,,,5b64cf6dae3bd50001a2b142,B,2024-08-16_14h29.47.926,Slot Machine Game,2023.1.3,Linux x86_64,60.24096386,,,,,,,,,,,,,,,,,,,291.7161,12,1.0742,292.8179,right,1,"[3,1,2]",stimuli/card_10_transparent.png,460,10,12,0,12,0,1,,,,,,,,,,,,,,,,,,,,,,,,,,,,,,,,,,,,,,,,,
,,,,5b64cf6dae3bd50001a2b142,B,2024-08-16_14h29.47.926,Slot Machine Game,2023.1.3,Linux x86_64,60.24096386,,,,,,,,,,,,,,,,,,,294.119,13,1.0865,295.2368,left,1.5,"[3,1,2]",stimuli/card_0_transparent.png,460,0,13,0,13,0,1,,,,,,,,,,,,,,,,,,,,,,,,,,,,,,,,,,,,,,,,,
,,,,5b64cf6dae3bd50001a2b142,B,2024-08-16_14h29.47.926,Slot Machine Game,2023.1.3,Linux x86_64,60.24096386,,,,,,,,,,,,,,,,,,,297.0386,14,0.7353,297.7896,up,1.5,"[3,1,2]",stimuli/card_100_transparent.png,560,100,14,0,14,0,1,,,,,,,,,,,,,,,,,,,,,,,,,,,,,,,,,,,,,,,,,
,,,,5b64cf6dae3bd50001a2b142,B,2024-08-16_14h29.47.926,Slot Machine Game,2023.1.3,Linux x86_64,60.24096386,,,,,,,,,,,,,,,,,,,,,,,,,,,,,,,,,,299.5916,304.5832,space,2.252,,,,,,,,,,,,,,,,,,,,,,,,,,,,,,,,,,,,,
,,,,5b64cf6dae3bd50001a2b142,B,2024-08-16_14h29.47.926,Slot Machine Game,2023.1.3,Linux x86_64,60.24096386,,,,,,,,,,,,,,,,,,,,,,,,,,,,,,,,,,,,,,,306.868,2,"[2,4,7,0,1,3,9,6,8,5]",space,1.9207,,,,,,,,,,,,,,,,,,,,,,,,,,,,,,,
,,,,5b64cf6dae3bd50001a2b142,B,2024-08-16_14h29.47.926,Slot Machine Game,2023.1.3,Linux x86_64,60.24096386,,,,,,,,,,,,,,,,,,,,,,,,,,,100,,,,,,,,,,,,,,,,,,1,3,"[15,15]","[[3,1,2],[3,1,2]]",308.8323,0,up,0.7844,309.6366,1,0.3,"[3,1,2]",0.491431819,stimuli/card_100_transparent.png,100,0,0,0,0,1,,,,,,,,,,
,,,,5b64cf6dae3bd50001a2b142,B,2024-08-16_14h29.47.926,Slot Machine Game,2023.1.3,Linux x86_64,60.24096386,,,,,,,,,,,,,,,,,,,,,,,,,,,200,,,,,,,,,,,,,,,,,,1,3,,,310.9384,1,up,0.5364,311.5046,1,0.3,"[3,1,2]",0.204131373,stimuli/card_100_transparent.png,100,1,0,1,0,1,,,,,,,,,,
,,,,5b64cf6dae3bd50001a2b142,B,2024-08-16_14h29.47.926,Slot Machine Game,2023.1.3,Linux x86_64,60.24096386,,,,,,,,,,,,,,,,,,,,,,,,,,,300,,,,,,,,,,,,,,,,,,1,3,,,312.8065,2,up,2.4873,315.3272,1.5,0.3,"[3,1,2]",0.203363278,stimuli/card_100_transparent.png,100,2,0,2,0,1,,,,,,,,,,
,,,,5b64cf6dae3bd50001a2b142,B,2024-08-16_14h29.47.926,Slot Machine Game,2023.1.3,Linux x86_64,60.24096386,,,,,,,,,,,,,,,,,,,,,,,,,,,400,,,,,,,,,,,,,,,,,,1,3,,,317.1276,3,up,1.6186,318.7787,1.5,0.3,"[3,1,2]",0.304693526,stimuli/card_100_transparent.png,100,3,0,3,0,1,,,,,,,,,,
,,,,5b64cf6dae3bd50001a2b142,B,2024-08-16_14h29.47.926,Slot Machine Game,2023.1.3,Linux x86_64,60.24096386,,,,,,,,,,,,,,,,,,,,,,,,,,,500,,,,,,,,,,,,,,,,,,1,3,,,320.5817,4,up,0.552,321.1652,1,0.3,"[3,1,2]",0.884466549,stimuli/card_100_transparent.png,100,4,0,4,0,1,,,,,,,,,,
,,,,5b64cf6dae3bd50001a2b142,B,2024-08-16_14h29.47.926,Slot Machine Game,2023.1.3,Linux x86_64,60.24096386,,,,,,,,,,,,,,,,,,,,,,,,,,,600,,,,,,,,,,,,,,,,,,1,3,,,322.466,5,up,1.3865,323.868,1.5,0.3,"[3,1,2]",0.547019222,stimuli/card_100_transparent.png,100,5,0,5,0,1,,,,,,,,,,
,,,,5b64cf6dae3bd50001a2b142,B,2024-08-16_14h29.47.926,Slot Machine Game,2023.1.3,Linux x86_64,60.24096386,,,,,,,,,,,,,,,,,,,,,,,,,,,700,,,,,,,,,,,,,,,,,,1,3,,,325.6706,6,up,0.9166,326.6211,0.5,0.3,"[3,1,2]",0.708010338,stimuli/card_100_transparent.png,100,6,0,6,0,1,,,,,,,,,,
,,,,5b64cf6dae3bd50001a2b142,B,2024-08-16_14h29.47.926,Slot Machine Game,2023.1.3,Linux x86_64,60.24096386,,,,,,,,,,,,,,,,,,,,,,,,,,,800,,,,,,,,,,,,,,,,,,1,3,,,327.4231,7,up,0.5218,327.9732,0.5,0.3,"[3,1,2]",0.795429511,stimuli/card_100_transparent.png,100,7,0,7,0,1,,,,,,,,,,
,,,,5b64cf6dae3bd50001a2b142,B,2024-08-16_14h29.47.926,Slot Machine Game,2023.1.3,Linux x86_64,60.24096386,,,,,,,,,,,,,,,,,,,,,,,,,,,900,,,,,,,,,,,,,,,,,,1,3,,,328.7735,8,up,0.6182,329.4077,1.5,0.3,"[3,1,2]",0.744609895,stimuli/card_100_transparent.png,100,8,0,8,0,1,,,,,,,,,,
,,,,5b64cf6dae3bd50001a2b142,B,2024-08-16_14h29.47.926,Slot Machine Game,2023.1.3,Linux x86_64,60.24096386,,,,,,,,,,,,,,,,,,,,,,,,,,,1000,,,,,,,,,,,,,,,,,,1,3,,,331.2096,9,up,0.6323,331.8597,0.5,0.3,"[3,1,2]",0.252720451,stimuli/card_100_transparent.png,100,9,0,9,0,1,,,,,,,,,,
,,,,5b64cf6dae3bd50001a2b142,B,2024-08-16_14h29.47.926,Slot Machine Game,2023.1.3,Linux x86_64,60.24096386,,,,,,,,,,,,,,,,,,,,,,,,,,,1100,,,,,,,,,,,,,,,,,,1,3,,,332.662,10,up,0.5684,333.262,0.5,0.3,"[3,1,2]",0.997307389,stimuli/card_100_transparent.png,100,10,0,10,0,1,,,,,,,,,,
,,,,5b64cf6dae3bd50001a2b142,B,2024-08-16_14h29.47.926,Slot Machine Game,2023.1.3,Linux x86_64,60.24096386,,,,,,,,,,,,,,,,,,,,,,,,,,,1200,,,,,,,,,,,,,,,,,,1,3,,,334.0628,11,up,0.6018,334.6805,0.5,0.3,"[3,1,2]",0.760284434,stimuli/card_100_transparent.png,100,11,0,11,0,1,,,,,,,,,,
,,,,5b64cf6dae3bd50001a2b142,B,2024-08-16_14h29.47.926,Slot Machine Game,2023.1.3,Linux x86_64,60.24096386,,,,,,,,,,,,,,,,,,,,,,,,,,,1300,,,,,,,,,,,,,,,,,,1,3,,,335.4806,12,up,0.6013,336.0976,0.5,0.3,"[3,1,2]",0.307514153,stimuli/card_100_transparent.png,100,12,0,12,0,1,,,,,,,,,,
,,,,5b64cf6dae3bd50001a2b142,B,2024-08-16_14h29.47.926,Slot Machine Game,2023.1.3,Linux x86_64,60.24096386,,,,,,,,,,,,,,,,,,,,,,,,,,,1400,,,,,,,,,,,,,,,,,,1,3,,,336.8993,13,up,0.5018,337.4165,1,0.3,"[3,1,2]",0.406584771,stimuli/card_100_transparent.png,100,13,0,13,0,1,,,,,,,,,,
,,,,5b64cf6dae3bd50001a2b142,B,2024-08-16_14h29.47.926,Slot Machine Game,2023.1.3,Linux x86_64,60.24096386,,,,,,,,,,,,,,,,,,,,,,,,,,,1400,,,,,,,,,,,,,,,,,,1,3,,,338.718,14,up,0.5008,339.2513,0.5,0.3,"[3,1,2]",0.093718456,stimuli/card_0_transparent.png,0,14,0,14,0,1,,,,,,,,,,
,,,,5b64cf6dae3bd50001a2b142,B,2024-08-16_14h29.47.926,Slot Machine Game,2023.1.3,Linux x86_64,60.24096386,,,,,,,,,,,,,,,,,,,,,,,,,,,,,,,,,,340.0532,,,,,,,,,,,,,,,,,,,,,,,,,,,,,,,[1400],0,0,0,0,1,,,,
,,,,5b64cf6dae3bd50001a2b142,B,2024-08-16_14h29.47.926,Slot Machine Game,2023.1.3,Linux x86_64,60.24096386,,,,,,,,,,,,,,,,,,,,,,,,,,,100,,,,,,,,,,,,,,,,,,2,5,"[5,15]","[[1,2,3],[3,1,2]]",345.0704,0,up,0.7357,345.8253,1,0.3,"[1,2,3]",0.118187243,stimuli/card_100_transparent.png,100,0,0,0,0,1,,,,,,,,,,
,,,,5b64cf6dae3bd50001a2b142,B,2024-08-16_14h29.47.926,Slot Machine Game,2023.1.3,Linux x86_64,60.24096386,,,,,,,,,,,,,,,,,,,,,,,,,,,110,,,,,,,,,,,,,,,,,,2,5,,,347.1273,1,up,0.9871,348.1443,1,0.3,"[1,2,3]",0.866540589,stimuli/card_10_transparent.png,10,1,0,1,0,1,,,,,,,,,,
,,,,5b64cf6dae3bd50001a2b142,B,2024-08-16_14h29.47.926,Slot Machine Game,2023.1.3,Linux x86_64,60.24096386,,,,,,,,,,,,,,,,,,,,,,,,,,,120,,,,,,,,,,,,,,,,,,2,5,,,349.4467,2,up,0.6672,350.1306,1.5,0.3,"[1,2,3]",0.624427392,stimuli/card_10_transparent.png,10,2,0,2,0,1,,,,,,,,,,
,,,,5b64cf6dae3bd50001a2b142,B,2024-08-16_14h29.47.926,Slot Machine Game,2023.1.3,Linux x86_64,60.24096386,,,,,,,,,,,,,,,,,,,,,,,,,,,120,,,,,,,,,,,,,,,,,,2,5,,,351.9327,3,right,1.1349,353.1003,1,0.3,"[1,2,3]",0.67350764,stimuli/card_0_transparent.png,0,3,0,3,0,1,,,,,,,,,,
,,,,5b64cf6dae3bd50001a2b142,B,2024-08-16_14h29.47.926,Slot Machine Game,2023.1.3,Linux x86_64,60.24096386,,,,,,,,,,,,,,,,,,,,,,,,,,,220,,,,,,,,,,,,,,,,,,2,5,,,354.4021,4,left,0.5349,354.9527,0.5,0.3,"[1,2,3]",0.946544537,stimuli/card_100_transparent.png,100,4,0,4,0,1,,,,,,,,,,
,,,,5b64cf6dae3bd50001a2b142,B,2024-08-16_14h29.47.926,Slot Machine Game,2023.1.3,Linux x86_64,60.24096386,,,,,,,,,,,,,,,,,,,,,,,,,,,220,,,,,,,,,,,,,,,,,,2,5,,,355.7533,5,right,2.0218,357.7886,1.5,0.3,"[3,1,2]",0.078942308,stimuli/card_0_transparent.png,0,5,0,5,0,1,,,,,,,,,,
,,,,5b64cf6dae3bd50001a2b142,B,2024-08-16_14h29.47.926,Slot Machine Game,2023.1.3,Linux x86_64,60.24096386,,,,,,,,,,,,,,,,,,,,,,,,,,,220,,,,,,,,,,,,,,,,,,2,5,,,359.5901,6,up,1.2852,360.8921,1,0.3,"[3,1,2]",0.017789546,stimuli/card_0_transparent.png,0,6,0,6,0,1,,,,,,,,,,
,,,,5b64cf6dae3bd50001a2b142,B,2024-08-16_14h29.47.926,Slot Machine Game,2023.1.3,Linux x86_64,60.24096386,,,,,,,,,,,,,,,,,,,,,,,,,,,220,,,,,,,,,,,,,,,,,,2,5,,,362.1943,7,left,0.8377,363.0615,1,0.3,"[3,1,2]",0.942131929,stimuli/card_0_transparent.png,0,7,0,7,0,1,,,,,,,,,,
,,,,5b64cf6dae3bd50001a2b142,B,2024-08-16_14h29.47.926,Slot Machine Game,2023.1.3,Linux x86_64,60.24096386,,,,,,,,,,,,,,,,,,,,,,,,,,,220,,,,,,,,,,,,,,,,,,2,5,,,364.3629,8,left,2.8366,367.2161,1.5,0.3,"[3,1,2]",0.206820425,stimuli/card_0_transparent.png,0,8,0,8,0,1,,,,,,,,,,
,,,,5b64cf6dae3bd50001a2b142,B,2024-08-16_14h29.47.926,Slot Machine Game,2023.1.3,Linux x86_64,60.24096386,,,,,,,,,,,,,,,,,,,,,,,,,,,220,,,,,,,,,,,,,,,,,,2,5,,,369.0179,9,up,1.2038,370.2361,0.5,0.3,"[3,1,2]",0.008753208,stimuli/card_0_transparent.png,0,9,0,9,0,1,,,,,,,,,,
,,,,5b64cf6dae3bd50001a2b142,B,2024-08-16_14h29.47.926,Slot Machine Game,2023.1.3,Linux x86_64,60.24096386,,,,,,,,,,,,,,,,,,,,,,,,,,,230,,,,,,,,,,,,,,,,,,2,5,,,371.037,10,right,0.8364,371.8879,1,0.3,"[3,1,2]",0.840130288,stimuli/card_10_transparent.png,10,10,0,10,0,1,,,,,,,,,,
,,,,5b64cf6dae3bd50001a2b142,B,2024-08-16_14h29.47.926,Slot Machine Game,2023.1.3,Linux x86_64,60.24096386,,,,,,,,,,,,,,,,,,,,,,,,,,,240,,,,,,,,,,,,,,,,,,2,5,,,373.1903,11,right,2.3905,375.61,1,0.3,"[3,1,2]",0.94753273,stimuli/card_10_transparent.png,10,11,0,11,0,1,,,,,,,,,,
,,,,5b64cf6dae3bd50001a2b142,B,2024-08-16_14h29.47.926,Slot Machine Game,2023.1.3,Linux x86_64,60.24096386,,,,,,,,,,,,,,,,,,,,,,,,,,,340,,,,,,,,,,,,,,,,,,2,5,,,376.9102,12,up,2.0053,378.9283,0.5,0.3,"[3,1,2]",0.902196655,stimuli/card_100_transparent.png,100,12,0,12,0,1,,,,,,,,,,
,,,,5b64cf6dae3bd50001a2b142,B,2024-08-16_14h29.47.926,Slot Machine Game,2023.1.3,Linux x86_64,60.24096386,,,,,,,,,,,,,,,,,,,,,,,,,,,440,,,,,,,,,,,,,,,,,,2,5,,,379.7209,13,up,0.7883,380.5307,0.5,0.3,"[3,1,2]",0.951635496,stimuli/card_100_transparent.png,100,13,0,13,0,1,,,,,,,,,,
,,,,5b64cf6dae3bd50001a2b142,B,2024-08-16_14h29.47.926,Slot Machine Game,2023.1.3,Linux x86_64,60.24096386,,,,,,,,,,,,,,,,,,,,,,,,,,,540,,,,,,,,,,,,,,,,,,2,5,,,381.3315,14,up,0.6039,381.9487,1,0.3,"[3,1,2]",0.426730877,stimuli/card_100_transparent.png,100,14,0,14,0,1,,,,,,,,,,
,,,,5b64cf6dae3bd50001a2b142,B,2024-08-16_14h29.47.926,Slot Machine Game,2023.1.3,Linux x86_64,60.24096386,,,,,,,,,,,,,,,,,,,,,,,,,,,,,,,,,,383.2507,,,,,,,,,,,,,,,,,,,,,,,,,,,,,,,"[1400,540]",1,0,1,0,1,,,,
,,,,5b64cf6dae3bd50001a2b142,B,2024-08-16_14h29.47.926,Slot Machine Game,2023.1.3,Linux x86_64,60.24096386,,,,,,,,,,,,,,,,,,,,,,,,,,,0,,,,,,,,,,,,,,,,,,3,8,"[11,15]","[[2,1,3],[1,2,3]]",388.274,0,right,0.7519,389.0562,1,0.3,"[2,1,3]",0.654279425,stimuli/card_0_transparent.png,0,0,0,0,0,1,,,,,,,,,,
,,,,5b64cf6dae3bd50001a2b142,B,2024-08-16_14h29.47.926,Slot Machine Game,2023.1.3,Linux x86_64,60.24096386,,,,,,,,,,,,,,,,,,,,,,,,,,,0,,,,,,,,,,,,,,,,,,3,8,,,390.3582,1,right,0.6511,391.0254,0.5,0.3,"[2,1,3]",0.493031714,stimuli/card_0_transparent.png,0,1,0,1,0,1,,,,,,,,,,
,,,,5b64cf6dae3bd50001a2b142,B,2024-08-16_14h29.47.926,Slot Machine Game,2023.1.3,Linux x86_64,60.24096386,,,,,,,,,,,,,,,,,,,,,,,,,,,10,,,,,,,,,,,,,,,,,,3,8,,,391.827,2,up,0.5013,392.3602,1,0.3,"[2,1,3]",0.168194104,stimuli/card_10_transparent.png,10,2,0,2,0,1,,,,,,,,,,
,,,,5b64cf6dae3bd50001a2b142,B,2024-08-16_14h29.47.926,Slot Machine Game,2023.1.3,Linux x86_64,60.24096386,,,,,,,,,,,,,,,,,,,,,,,,,,,110,,,,,,,,,,,,,,,,,,3,8,,,393.6618,3,up,0.5881,394.2628,1.5,0.3,"[2,1,3]",0.737887182,stimuli/card_100_transparent.png,100,3,0,3,0,1,,,,,,,,,,
,,,,5b64cf6dae3bd50001a2b142,B,2024-08-16_14h29.47.926,Slot Machine Game,2023.1.3,Linux x86_64,60.24096386,,,,,,,,,,,,,,,,,,,,,,,,,,,210,,,,,,,,,,,,,,,,,,3,8,,,396.0649,4,up,0.5545,396.6311,0.5,0.3,"[2,1,3]",0.36874328,stimuli/card_100_transparent.png,100,4,0,4,0,1,,,,,,,,,,
,,,,5b64cf6dae3bd50001a2b142,B,2024-08-16_14h29.47.926,Slot Machine Game,2023.1.3,Linux x86_64,60.24096386,,,,,,,,,,,,,,,,,,,,,,,,,,,220,,,,,,,,,,,,,,,,,,3,8,,,397.4327,5,up,1.6013,399.0512,1.5,0.3,"[2,1,3]",0.105380722,stimuli/card_10_transparent.png,10,5,0,5,0,1,,,,,,,,,,
,,,,5b64cf6dae3bd50001a2b142,B,2024-08-16_14h29.47.926,Slot Machine Game,2023.1.3,Linux x86_64,60.24096386,,,,,,,,,,,,,,,,,,,,,,,,,,,320,,,,,,,,,,,,,,,,,,3,8,,,400.8535,6,up,0.5518,401.437,1.5,0.3,"[2,1,3]",0.596158799,stimuli/card_100_transparent.png,100,6,0,6,0,1,,,,,,,,,,
,,,,5b64cf6dae3bd50001a2b142,B,2024-08-16_14h29.47.926,Slot Machine Game,2023.1.3,Linux x86_64,60.24096386,,,,,,,,,,,,,,,,,,,,,,,,,,,420,,,,,,,,,,,,,,,,,,3,8,,,403.2394,7,up,1.9009,405.1759,1.5,0.3,"[2,1,3]",0.576037975,stimuli/card_100_transparent.png,100,7,0,7,0,1,,,,,,,,,,
,,,,5b64cf6dae3bd50001a2b142,B,2024-08-16_14h29.47.926,Slot Machine Game,2023.1.3,Linux x86_64,60.24096386,,,,,,,,,,,,,,,,,,,,,,,,,,,520,,,,,,,,,,,,,,,,,,3,8,,,406.9768,8,up,0.8161,407.8275,0.5,0.3,"[2,1,3]",0.538428787,stimuli/card_100_transparent.png,100,8,0,8,0,1,,,,,,,,,,
,,,,5b64cf6dae3bd50001a2b142,B,2024-08-16_14h29.47.926,Slot Machine Game,2023.1.3,Linux x86_64,60.24096386,,,,,,,,,,,,,,,,,,,,,,,,,,,620,,,,,,,,,,,,,,,,,,3,8,,,408.6288,9,up,0.718,409.3791,0.5,0.3,"[2,1,3]",0.54255357,stimuli/card_100_transparent.png,100,9,0,9,0,1,,,,,,,,,,
,,,,5b64cf6dae3bd50001a2b142,B,2024-08-16_14h29.47.926,Slot Machine Game,2023.1.3,Linux x86_64,60.24096386,,,,,,,,,,,,,,,,,,,,,,,,,,,720,,,,,,,,,,,,,,,,,,3,8,,,410.1801,10,up,0.5665,410.7638,0.5,0.3,"[2,1,3]",0.615570444,stimuli/card_100_transparent.png,100,10,0,10,0,1,,,,,,,,,,
,,,,5b64cf6dae3bd50001a2b142,B,2024-08-16_14h29.47.926,Slot Machine Game,2023.1.3,Linux x86_64,60.24096386,,,,,,,,,,,,,,,,,,,,,,,,,,,720,,,,,,,,,,,,,,,,,,3,8,,,411.5648,11,up,1.7559,413.3333,1,0.3,"[1,2,3]",0.017287021,stimuli/card_0_transparent.png,0,11,0,11,0,1,,,,,,,,,,
,,,,5b64cf6dae3bd50001a2b142,B,2024-08-16_14h29.47.926,Slot Machine Game,2023.1.3,Linux x86_64,60.24096386,,,,,,,,,,,,,,,,,,,,,,,,,,,730,,,,,,,,,,,,,,,,,,3,8,,,414.6353,12,up,0.8696,415.5366,0.5,0.3,"[1,2,3]",0.552424154,stimuli/card_10_transparent.png,10,12,0,12,0,1,,,,,,,,,,
,,,,5b64cf6dae3bd50001a2b142,B,2024-08-16_14h29.47.926,Slot Machine Game,2023.1.3,Linux x86_64,60.24096386,,,,,,,,,,,,,,,,,,,,,,,,,,,830,,,,,,,,,,,,,,,,,,3,8,,,416.3371,13,left,0.535,416.8873,0.5,0.3,"[1,2,3]",0.43314417,stimuli/card_100_transparent.png,100,13,0,13,0,1,,,,,,,,,,
,,,,5b64cf6dae3bd50001a2b142,B,2024-08-16_14h29.47.926,Slot Machine Game,2023.1.3,Linux x86_64,60.24096386,,,,,,,,,,,,,,,,,,,,,,,,,,,930,,,,,,,,,,,,,,,,,,3,8,,,417.6883,14,left,1.5194,419.2231,1.5,0.3,"[1,2,3]",0.751146957,stimuli/card_100_transparent.png,100,14,0,14,0,1,,,,,,,,,,
,,,,5b64cf6dae3bd50001a2b142,B,2024-08-16_14h29.47.926,Slot Machine Game,2023.1.3,Linux x86_64,60.24096386,,,,,,,,,,,,,,,,,,,,,,,,,,,,,,,,,,421.0253,,,,,,,,,,,,,,,,,,,,,,,,,,,,,,,"[1400,540,930]",2,0,2,0,1,,,,
,,,,5b64cf6dae3bd50001a2b142,B,2024-08-16_14h29.47.926,Slot Machine Game,2023.1.3,Linux x86_64,60.24096386,,,,,,,,,,,,,,,,,,,,,,,,,,,100,,,,,,,,,,,,,,,,,,4,1,"[12,15]","[[2,1,3],[2,3,1]]",426.0399,0,up,0.5539,426.6147,1.5,0.3,"[2,1,3]",0.942946071,stimuli/card_100_transparent.png,100,0,0,0,0,1,,,,,,,,,,
,,,,5b64cf6dae3bd50001a2b142,B,2024-08-16_14h29.47.926,Slot Machine Game,2023.1.3,Linux x86_64,60.24096386,,,,,,,,,,,,,,,,,,,,,,,,,,,200,,,,,,,,,,,,,,,,,,4,1,,,428.4163,1,up,2.1018,430.5359,0.5,0.3,"[2,1,3]",0.572467826,stimuli/card_100_transparent.png,100,1,0,1,0,1,,,,,,,,,,
,,,,5b64cf6dae3bd50001a2b142,B,2024-08-16_14h29.47.926,Slot Machine Game,2023.1.3,Linux x86_64,60.24096386,,,,,,,,,,,,,,,,,,,,,,,,,,,300,,,,,,,,,,,,,,,,,,4,1,,,431.3372,2,up,0.6047,431.9711,1,0.3,"[2,1,3]",0.92551996,stimuli/card_100_transparent.png,100,2,0,2,0,1,,,,,,,,,,
,,,,5b64cf6dae3bd50001a2b142,B,2024-08-16_14h29.47.926,Slot Machine Game,2023.1.3,Linux x86_64,60.24096386,,,,,,,,,,,,,,,,,,,,,,,,,,,310,,,,,,,,,,,,,,,,,,4,1,,,433.2723,3,up,0.6021,433.9062,0.5,0.3,"[2,1,3]",0.16519165,stimuli/card_10_transparent.png,10,3,0,3,0,1,,,,,,,,,,
,,,,5b64cf6dae3bd50001a2b142,B,2024-08-16_14h29.47.926,Slot Machine Game,2023.1.3,Linux x86_64,60.24096386,,,,,,,,,,,,,,,,,,,,,,,,,,,410,,,,,,,,,,,,,,,,,,4,1,,,434.7076,4,up,0.7251,435.4585,1.5,0.3,"[2,1,3]",0.518780039,stimuli/card_100_transparent.png,100,4,0,4,0,1,,,,,,,,,,
,,,,5b64cf6dae3bd50001a2b142,B,2024-08-16_14h29.47.926,Slot Machine Game,2023.1.3,Linux x86_64,60.24096386,,,,,,,,,,,,,,,,,,,,,,,,,,,410,,,,,,,,,,,,,,,,,,4,1,,,437.26,5,up,1.013,438.2937,1,0.3,"[2,1,3]",0.036701185,stimuli/card_0_transparent.png,0,5,0,5,0,1,,,,,,,,,,
,,,,5b64cf6dae3bd50001a2b142,B,2024-08-16_14h29.47.926,Slot Machine Game,2023.1.3,Linux x86_64,60.24096386,,,,,,,,,,,,,,,,,,,,,,,,,,,410,,,,,,,,,,,,,,,,,,4,1,,,439.5958,6,right,0.5052,440.113,1.5,0.3,"[2,1,3]",0.758572637,stimuli/card_0_transparent.png,0,6,0,6,0,1,,,,,,,,,,
,,,,5b64cf6dae3bd50001a2b142,B,2024-08-16_14h29.47.926,Slot Machine Game,2023.1.3,Linux x86_64,60.24096386,,,,,,,,,,,,,,,,,,,,,,,,,,,420,,,,,,,,,,,,,,,,,,4,1,,,441.9151,7,left,0.6216,442.5659,1.5,0.3,"[2,1,3]",0.897522515,stimuli/card_10_transparent.png,10,7,0,7,0,1,,,,,,,,,,
,,,,5b64cf6dae3bd50001a2b142,B,2024-08-16_14h29.47.926,Slot Machine Game,2023.1.3,Linux x86_64,60.24096386,,,,,,,,,,,,,,,,,,,,,,,,,,,520,,,,,,,,,,,,,,,,,,4,1,,,444.3683,8,up,1.7359,446.1365,1.5,0.3,"[2,1,3]",0.392969283,stimuli/card_100_transparent.png,100,8,0,8,0,1,,,,,,,,,,
,,,,5b64cf6dae3bd50001a2b142,B,2024-08-16_14h29.47.926,Slot Machine Game,2023.1.3,Linux x86_64,60.24096386,,,,,,,,,,,,,,,,,,,,,,,,,,,530,,,,,,,,,,,,,,,,,,4,1,,,447.939,9,left,0.9187,448.8894,1,0.3,"[2,1,3]",0.498614718,stimuli/card_10_transparent.png,10,9,0,9,0,1,,,,,,,,,,
,,,,5b64cf6dae3bd50001a2b142,B,2024-08-16_14h29.47.926,Slot Machine Game,2023.1.3,Linux x86_64,60.24096386,,,,,,,,,,,,,,,,,,,,,,,,,,,630,,,,,,,,,,,,,,,,,,4,1,,,450.1913,10,up,0.5676,450.775,1.5,0.3,"[2,1,3]",0.800094765,stimuli/card_100_transparent.png,100,10,0,10,0,1,,,,,,,,,,
,,,,5b64cf6dae3bd50001a2b142,B,2024-08-16_14h29.47.926,Slot Machine Game,2023.1.3,Linux x86_64,60.24096386,,,,,,,,,,,,,,,,,,,,,,,,,,,730,,,,,,,,,,,,,,,,,,4,1,,,452.5767,11,up,0.8531,453.4438,0.5,0.3,"[2,1,3]",0.430962528,stimuli/card_100_transparent.png,100,11,0,11,0,1,,,,,,,,,,
,,,,5b64cf6dae3bd50001a2b142,B,2024-08-16_14h29.47.926,Slot Machine Game,2023.1.3,Linux x86_64,60.24096386,,,,,,,,,,,,,,,,,,,,,,,,,,,740,,,,,,,,,,,,,,,,,,4,1,,,454.2456,12,up,0.59,454.8632,0.5,0.3,"[2,3,1]",0.12164156,stimuli/card_10_transparent.png,10,12,0,12,0,1,,,,,,,,,,
,,,,5b64cf6dae3bd50001a2b142,B,2024-08-16_14h29.47.926,Slot Machine Game,2023.1.3,Linux x86_64,60.24096386,,,,,,,,,,,,,,,,,,,,,,,,,,,840,,,,,,,,,,,,,,,,,,4,1,,,455.6633,13,up,0.5841,456.2641,0.5,0.3,"[2,3,1]",0.099192879,stimuli/card_100_transparent.png,100,13,0,13,0,1,,,,,,,,,,
,,,,5b64cf6dae3bd50001a2b142,B,2024-08-16_14h29.47.926,Slot Machine Game,2023.1.3,Linux x86_64,60.24096386,,,,,,,,,,,,,,,,,,,,,,,,,,,840,,,,,,,,,,,,,,,,,,4,1,,,457.0657,14,up,0.6846,457.7824,1,0.3,"[2,3,1]",0.468299962,stimuli/card_0_transparent.png,0,14,0,14,0,1,,,,,,,,,,
,,,,5b64cf6dae3bd50001a2b142,B,2024-08-16_14h29.47.926,Slot Machine Game,2023.1.3,Linux x86_64,60.24096386,,,,,,,,,,,,,,,,,,,,,,,,,,,,,,,,,,459.0845,,,,,,,,,,,,,,,,,,,,,,,,,,,,,,,"[1400,540,930,840]",3,0,3,0,1,,,,
,,,,5b64cf6dae3bd50001a2b142,B,2024-08-16_14h29.47.926,Slot Machine Game,2023.1.3,Linux x86_64,60.24096386,,,,,,,,,,,,,,,,,,,,,,,,,,,10,,,,,,,,,,,,,,,,,,5,2,"[6,15]","[[1,3,2],[3,2,1]]",464.1064,0,right,0.5163,464.6568,1,0.3,"[1,3,2]",0.479450267,stimuli/card_10_transparent.png,10,0,0,0,0,1,,,,,,,,,,
,,,,5b64cf6dae3bd50001a2b142,B,2024-08-16_14h29.47.926,Slot Machine Game,2023.1.3,Linux x86_64,60.24096386,,,,,,,,,,,,,,,,,,,,,,,,,,,110,,,,,,,,,,,,,,,,,,5,2,,,465.9587,1,right,0.534,466.5259,1,0.3,"[1,3,2]",0.18110931,stimuli/card_100_transparent.png,100,1,0,1,0,1,,,,,,,,,,
,,,,5b64cf6dae3bd50001a2b142,B,2024-08-16_14h29.47.926,Slot Machine Game,2023.1.3,Linux x86_64,60.24096386,,,,,,,,,,,,,,,,,,,,,,,,,,,210,,,,,,,,,,,,,,,,,,5,2,,,467.827,2,right,0.6354,468.4771,0.5,0.3,"[1,3,2]",0.162242415,stimuli/card_100_transparent.png,100,2,0,2,0,1,,,,,,,,,,
,,,,5b64cf6dae3bd50001a2b142,B,2024-08-16_14h29.47.926,Slot Machine Game,2023.1.3,Linux x86_64,60.24096386,,,,,,,,,,,,,,,,,,,,,,,,,,,220,,,,,,,,,,,,,,,,,,5,2,,,469.2786,3,right,0.835,470.1464,1,0.3,"[1,3,2]",0.249485677,stimuli/card_10_transparent.png,10,3,0,3,0,1,,,,,,,,,,
,,,,5b64cf6dae3bd50001a2b142,B,2024-08-16_14h29.47.926,Slot Machine Game,2023.1.3,Linux x86_64,60.24096386,,,,,,,,,,,,,,,,,,,,,,,,,,,230,,,,,,,,,,,,,,,,,,5,2,,,471.448,4,right,0.5497,472.0147,1,0.3,"[1,3,2]",0.289854698,stimuli/card_10_transparent.png,10,4,0,4,0,1,,,,,,,,,,
,,,,5b64cf6dae3bd50001a2b142,B,2024-08-16_14h29.47.926,Slot Machine Game,2023.1.3,Linux x86_64,60.24096386,,,,,,,,,,,,,,,,,,,,,,,,,,,240,,,,,,,,,,,,,,,,,,5,2,,,473.3167,5,right,0.5524,473.9001,1.5,0.3,"[1,3,2]",0.957441333,stimuli/card_10_transparent.png,10,5,0,5,0,1,,,,,,,,,,
,,,,5b64cf6dae3bd50001a2b142,B,2024-08-16_14h29.47.926,Slot Machine Game,2023.1.3,Linux x86_64,60.24096386,,,,,,,,,,,,,,,,,,,,,,,,,,,240,,,,,,,,,,,,,,,,,,5,2,,,475.7024,6,up,0.5673,476.3032,0.5,0.3,"[3,2,1]",0.09960972,stimuli/card_0_transparent.png,0,6,0,6,0,1,,,,,,,,,,
,,,,5b64cf6dae3bd50001a2b142,B,2024-08-16_14h29.47.926,Slot Machine Game,2023.1.3,Linux x86_64,60.24096386,,,,,,,,,,,,,,,,,,,,,,,,,,,250,,,,,,,,,,,,,,,,,,5,2,,,477.1039,7,up,1.5203,478.6389,1,0.3,"[3,2,1]",0.950282503,stimuli/card_10_transparent.png,10,7,0,7,0,1,,,,,,,,,,
,,,,5b64cf6dae3bd50001a2b142,B,2024-08-16_14h29.47.926,Slot Machine Game,2023.1.3,Linux x86_64,60.24096386,,,,,,,,,,,,,,,,,,,,,,,,,,,250,,,,,,,,,,,,,,,,,,5,2,,,479.9404,8,left,0.5351,480.4914,1.5,0.3,"[3,2,1]",0.369661965,stimuli/card_0_transparent.png,0,8,0,8,0,1,,,,,,,,,,
,,,,5b64cf6dae3bd50001a2b142,B,2024-08-16_14h29.47.926,Slot Machine Game,2023.1.3,Linux x86_64,60.24096386,,,,,,,,,,,,,,,,,,,,,,,,,,,350,,,,,,,,,,,,,,,,,,5,2,,,482.293,9,up,0.5345,482.8436,1,0.3,"[3,2,1]",0.107246505,stimuli/card_100_transparent.png,100,9,0,9,0,1,,,,,,,,,,
,,,,5b64cf6dae3bd50001a2b142,B,2024-08-16_14h29.47.926,Slot Machine Game,2023.1.3,Linux x86_64,60.24096386,,,,,,,,,,,,,,,,,,,,,,,,,,,360,,,,,,,,,,,,,,,,,,5,2,,,484.1455,10,up,0.5533,484.7292,0.5,0.3,"[3,2,1]",0.770541376,stimuli/card_10_transparent.png,10,10,0,10,0,1,,,,,,,,,,
,,,,5b64cf6dae3bd50001a2b142,B,2024-08-16_14h29.47.926,Slot Machine Game,2023.1.3,Linux x86_64,60.24096386,,,,,,,,,,,,,,,,,,,,,,,,,,,460,,,,,,,,,,,,,,,,,,5,2,,,485.5298,11,right,0.6004,486.147,1,0.3,"[3,2,1]",0.445013992,stimuli/card_100_transparent.png,100,11,0,11,0,1,,,,,,,,,,
,,,,5b64cf6dae3bd50001a2b142,B,2024-08-16_14h29.47.926,Slot Machine Game,2023.1.3,Linux x86_64,60.24096386,,,,,,,,,,,,,,,,,,,,,,,,,,,460,,,,,,,,,,,,,,,,,,5,2,,,487.4483,12,up,0.5719,488.0329,1,0.3,"[3,2,1]",0.02864528,stimuli/card_0_transparent.png,0,12,0,12,0,1,,,,,,,,,,
,,,,5b64cf6dae3bd50001a2b142,B,2024-08-16_14h29.47.926,Slot Machine Game,2023.1.3,Linux x86_64,60.24096386,,,,,,,,,,,,,,,,,,,,,,,,,,,560,,,,,,,,,,,,,,,,,,5,2,,,489.3342,13,right,0.5852,489.9346,1,0.3,"[3,2,1]",0.221610977,stimuli/card_100_transparent.png,100,13,0,13,0,1,,,,,,,,,,
,,,,5b64cf6dae3bd50001a2b142,B,2024-08-16_14h29.47.926,Slot Machine Game,2023.1.3,Linux x86_64,60.24096386,,,,,,,,,,,,,,,,,,,,,,,,,,,660,,,,,,,,,,,,,,,,,,5,2,,,491.2364,14,right,0.6517,491.9197,1.5,0.3,"[3,2,1]",0.244615759,stimuli/card_100_transparent.png,100,14,0,14,0,1,,,,,,,,,,
,,,,5b64cf6dae3bd50001a2b142,B,2024-08-16_14h29.47.926,Slot Machine Game,2023.1.3,Linux x86_64,60.24096386,,,,,,,,,,,,,,,,,,,,,,,,,,,,,,,,,,493.7277,,,,,,,,,,,,,,,,,,,,,,,,,,,,,,,"[1400,540,930,840,660]",4,0,4,0,1,,,,
,,,,5b64cf6dae3bd50001a2b142,B,2024-08-16_14h29.47.926,Slot Machine Game,2023.1.3,Linux x86_64,60.24096386,,,,,,,,,,,,,,,,,,,,,,,,,,,100,,,,,,,,,,,,,,,,,,6,4,"[7,15]","[[2,3,1],[1,2,3]]",498.7397,0,right,0.6003,499.3608,1,0.3,"[2,3,1]",0.306732768,stimuli/card_100_transparent.png,100,0,0,0,0,1,,,,,,,,,,
,,,,5b64cf6dae3bd50001a2b142,B,2024-08-16_14h29.47.926,Slot Machine Game,2023.1.3,Linux x86_64,60.24096386,,,,,,,,,,,,,,,,,,,,,,,,,,,110,,,,,,,,,,,,,,,,,,6,4,,,500.6638,1,right,0.535,501.2307,1.5,0.3,"[2,3,1]",0.182034681,stimuli/card_10_transparent.png,10,1,0,1,0,1,,,,,,,,,,
,,,,5b64cf6dae3bd50001a2b142,B,2024-08-16_14h29.47.926,Slot Machine Game,2023.1.3,Linux x86_64,60.24096386,,,,,,,,,,,,,,,,,,,,,,,,,,,210,,,,,,,,,,,,,,,,,,6,4,,,503.0331,2,right,0.6217,503.6836,0.5,0.3,"[2,3,1]",0.923983045,stimuli/card_100_transparent.png,100,2,0,2,0,1,,,,,,,,,,
,,,,5b64cf6dae3bd50001a2b142,B,2024-08-16_14h29.47.926,Slot Machine Game,2023.1.3,Linux x86_64,60.24096386,,,,,,,,,,,,,,,,,,,,,,,,,,,310,,,,,,,,,,,,,,,,,,6,4,,,504.4842,3,right,0.6009,505.118,0.5,0.3,"[2,3,1]",0.475038606,stimuli/card_100_transparent.png,100,3,0,3,0,1,,,,,,,,,,
,,,,5b64cf6dae3bd50001a2b142,B,2024-08-16_14h29.47.926,Slot Machine Game,2023.1.3,Linux x86_64,60.24096386,,,,,,,,,,,,,,,,,,,,,,,,,,,410,,,,,,,,,,,,,,,,,,6,4,,,505.9191,4,right,0.5162,506.4699,1.5,0.3,"[2,3,1]",0.603650597,stimuli/card_100_transparent.png,100,4,0,4,0,1,,,,,,,,,,
,,,,5b64cf6dae3bd50001a2b142,B,2024-08-16_14h29.47.926,Slot Machine Game,2023.1.3,Linux x86_64,60.24096386,,,,,,,,,,,,,,,,,,,,,,,,,,,510,,,,,,,,,,,,,,,,,,6,4,,,508.2718,5,right,0.5504,508.8555,1.5,0.3,"[2,3,1]",0.443909191,stimuli/card_100_transparent.png,100,5,0,5,0,1,,,,,,,,,,
,,,,5b64cf6dae3bd50001a2b142,B,2024-08-16_14h29.47.926,Slot Machine Game,2023.1.3,Linux x86_64,60.24096386,,,,,,,,,,,,,,,,,,,,,,,,,,,610,,,,,,,,,,,,,,,,,,6,4,,,510.6576,6,right,0.6691,511.3588,1.5,0.3,"[2,3,1]",0.657009845,stimuli/card_100_transparent.png,100,6,0,6,0,1,,,,,,,,,,
,,,,5b64cf6dae3bd50001a2b142,B,2024-08-16_14h29.47.926,Slot Machine Game,2023.1.3,Linux x86_64,60.24096386,,,,,,,,,,,,,,,,,,,,,,,,,,,610,,,,,,,,,,,,,,,,,,6,4,,,513.1604,7,right,0.5406,513.7127,0.5,0.3,"[1,2,3]",0.923257143,stimuli/card_0_transparent.png,0,7,0,7,0,1,,,,,,,,,,
,,,,5b64cf6dae3bd50001a2b142,B,2024-08-16_14h29.47.926,Slot Machine Game,2023.1.3,Linux x86_64,60.24096386,,,,,,,,,,,,,,,,,,,,,,,,,,,610,,,,,,,,,,,,,,,,,,6,4,,,514.512,8,right,0.5212,515.0628,1,0.3,"[1,2,3]",0.825543009,stimuli/card_0_transparent.png,0,8,0,8,0,1,,,,,,,,,,
,,,,5b64cf6dae3bd50001a2b142,B,2024-08-16_14h29.47.926,Slot Machine Game,2023.1.3,Linux x86_64,60.24096386,,,,,,,,,,,,,,,,,,,,,,,,,,,710,,,,,,,,,,,,,,,,,,6,4,,,516.3643,9,left,0.5519,516.9482,0.5,0.3,"[1,2,3]",0.802723661,stimuli/card_100_transparent.png,100,9,0,9,0,1,,,,,,,,,,
,,,,5b64cf6dae3bd50001a2b142,B,2024-08-16_14h29.47.926,Slot Machine Game,2023.1.3,Linux x86_64,60.24096386,,,,,,,,,,,,,,,,,,,,,,,,,,,810,,,,,,,,,,,,,,,,,,6,4,,,517.7488,10,left,0.5859,518.3492,1,0.3,"[1,2,3]",0.521674017,stimuli/card_100_transparent.png,100,10,0,10,0,1,,,,,,,,,,
,,,,5b64cf6dae3bd50001a2b142,B,2024-08-16_14h29.47.926,Slot Machine Game,2023.1.3,Linux x86_64,60.24096386,,,,,,,,,,,,,,,,,,,,,,,,,,,910,,,,,,,,,,,,,,,,,,6,4,,,519.6508,11,left,0.6878,520.3515,1.5,0.3,"[1,2,3]",0.541844475,stimuli/card_100_transparent.png,100,11,0,11,0,1,,,,,,,,,,
,,,,5b64cf6dae3bd50001a2b142,B,2024-08-16_14h29.47.926,Slot Machine Game,2023.1.3,Linux x86_64,60.24096386,,,,,,,,,,,,,,,,,,,,,,,,,,,1010,,,,,,,,,,,,,,,,,,6,4,,,522.1539,12,left,1.1665,523.3548,1,0.3,"[1,2,3]",0.534266997,stimuli/card_100_transparent.png,100,12,0,12,0,1,,,,,,,,,,
,,,,5b64cf6dae3bd50001a2b142,B,2024-08-16_14h29.47.926,Slot Machine Game,2023.1.3,Linux x86_64,60.24096386,,,,,,,,,,,,,,,,,,,,,,,,,,,1020,,,,,,,,,,,,,,,,,,6,4,,,524.6575,13,left,0.8522,525.5407,0.5,0.3,"[1,2,3]",0.152408349,stimuli/card_10_transparent.png,10,13,0,13,0,1,,,,,,,,,,
,,,,5b64cf6dae3bd50001a2b142,B,2024-08-16_14h29.47.926,Slot Machine Game,2023.1.3,Linux x86_64,60.24096386,,,,,,,,,,,,,,,,,,,,,,,,,,,1120,,,,,,,,,,,,,,,,,,6,4,,,526.3422,14,left,0.5314,526.9088,1.5,0.3,"[1,2,3]",0.563471558,stimuli/card_100_transparent.png,100,14,0,14,0,1,,,,,,,,,,
,,,,5b64cf6dae3bd50001a2b142,B,2024-08-16_14h29.47.926,Slot Machine Game,2023.1.3,Linux x86_64,60.24096386,,,,,,,,,,,,,,,,,,,,,,,,,,,,,,,,,,528.7111,,,,,,,,,,,,,,,,,,,,,,,,,,,,,,,"[1400,540,930,840,660,1120]",5,0,5,0,1,,,,
,,,,5b64cf6dae3bd50001a2b142,B,2024-08-16_14h29.47.926,Slot Machine Game,2023.1.3,Linux x86_64,60.24096386,,,,,,,,,,,,,,,,,,,,,,,,,,,100,,,,,,,,,,,,,,,,,,7,10,"[10,15]","[[3,1,2],[1,3,2]]",533.7323,0,up,1.5554,535.3013,1.5,0.3,"[3,1,2]",0.931920828,stimuli/card_100_transparent.png,100,0,0,0,0,1,,,,,,,,,,
,,,,5b64cf6dae3bd50001a2b142,B,2024-08-16_14h29.47.926,Slot Machine Game,2023.1.3,Linux x86_64,60.24096386,,,,,,,,,,,,,,,,,,,,,,,,,,,200,,,,,,,,,,,,,,,,,,7,10,,,537.1091,1,up,1.0178,538.1547,0.5,0.3,"[3,1,2]",0.414863891,stimuli/card_100_transparent.png,100,1,0,1,0,1,,,,,,,,,,
,,,,5b64cf6dae3bd50001a2b142,B,2024-08-16_14h29.47.926,Slot Machine Game,2023.1.3,Linux x86_64,60.24096386,,,,,,,,,,,,,,,,,,,,,,,,,,,300,,,,,,,,,,,,,,,,,,7,10,,,538.9554,2,up,1.1183,540.0907,0.5,0.3,"[3,1,2]",0.492304482,stimuli/card_100_transparent.png,100,2,0,2,0,1,,,,,,,,,,
,,,,5b64cf6dae3bd50001a2b142,B,2024-08-16_14h29.47.926,Slot Machine Game,2023.1.3,Linux x86_64,60.24096386,,,,,,,,,,,,,,,,,,,,,,,,,,,400,,,,,,,,,,,,,,,,,,7,10,,,540.891,3,up,0.5867,541.4915,1,0.3,"[3,1,2]",0.838499661,stimuli/card_100_transparent.png,100,3,0,3,0,1,,,,,,,,,,
,,,,5b64cf6dae3bd50001a2b142,B,2024-08-16_14h29.47.926,Slot Machine Game,2023.1.3,Linux x86_64,60.24096386,,,,,,,,,,,,,,,,,,,,,,,,,,,410,,,,,,,,,,,,,,,,,,7,10,,,542.7936,4,up,0.6574,543.4773,0.5,0.3,"[3,1,2]",0.169300061,stimuli/card_10_transparent.png,10,4,0,4,0,1,,,,,,,,,,
,,,,5b64cf6dae3bd50001a2b142,B,2024-08-16_14h29.47.926,Slot Machine Game,2023.1.3,Linux x86_64,60.24096386,,,,,,,,,,,,,,,,,,,,,,,,,,,420,,,,,,,,,,,,,,,,,,7,10,,,544.278,5,up,0.9696,545.2791,0.5,0.3,"[3,1,2]",0.144814287,stimuli/card_10_transparent.png,10,5,0,5,0,1,,,,,,,,,,
,,,,5b64cf6dae3bd50001a2b142,B,2024-08-16_14h29.47.926,Slot Machine Game,2023.1.3,Linux x86_64,60.24096386,,,,,,,,,,,,,,,,,,,,,,,,,,,520,,,,,,,,,,,,,,,,,,7,10,,,546.08,6,up,0.8684,546.9643,1,0.3,"[3,1,2]",0.817291475,stimuli/card_100_transparent.png,100,6,0,6,0,1,,,,,,,,,,
,,,,5b64cf6dae3bd50001a2b142,B,2024-08-16_14h29.47.926,Slot Machine Game,2023.1.3,Linux x86_64,60.24096386,,,,,,,,,,,,,,,,,,,,,,,,,,,620,,,,,,,,,,,,,,,,,,7,10,,,548.2659,7,up,0.9184,549.2162,1.5,0.3,"[3,1,2]",0.662206261,stimuli/card_100_transparent.png,100,7,0,7,0,1,,,,,,,,,,
,,,,5b64cf6dae3bd50001a2b142,B,2024-08-16_14h29.47.926,Slot Machine Game,2023.1.3,Linux x86_64,60.24096386,,,,,,,,,,,,,,,,,,,,,,,,,,,720,,,,,,,,,,,,,,,,,,7,10,,,551.0188,8,up,0.5895,551.6365,0.5,0.3,"[3,1,2]",0.523167495,stimuli/card_100_transparent.png,100,8,0,8,0,1,,,,,,,,,,
,,,,5b64cf6dae3bd50001a2b142,B,2024-08-16_14h29.47.926,Slot Machine Game,2023.1.3,Linux x86_64,60.24096386,,,,,,,,,,,,,,,,,,,,,,,,,,,820,,,,,,,,,,,,,,,,,,7,10,,,552.4375,9,up,0.5517,553.0041,1.5,0.3,"[3,1,2]",0.980632388,stimuli/card_100_transparent.png,100,9,0,9,0,1,,,,,,,,,,
,,,,5b64cf6dae3bd50001a2b142,B,2024-08-16_14h29.47.926,Slot Machine Game,2023.1.3,Linux x86_64,60.24096386,,,,,,,,,,,,,,,,,,,,,,,,,,,820,,,,,,,,,,,,,,,,,,7,10,,,554.8065,10,up,0.7668,555.5908,1,0.3,"[1,3,2]",0.336079569,stimuli/card_0_transparent.png,0,10,0,10,0,1,,,,,,,,,,
,,,,5b64cf6dae3bd50001a2b142,B,2024-08-16_14h29.47.926,Slot Machine Game,2023.1.3,Linux x86_64,60.24096386,,,,,,,,,,,,,,,,,,,,,,,,,,,920,,,,,,,,,,,,,,,,,,7,10,,,556.8918,11,up,0.6834,557.5925,0.5,0.3,"[1,3,2]",0.082707412,stimuli/card_100_transparent.png,100,11,0,11,0,1,,,,,,,,,,
,,,,5b64cf6dae3bd50001a2b142,B,2024-08-16_14h29.47.926,Slot Machine Game,2023.1.3,Linux x86_64,60.24096386,,,,,,,,,,,,,,,,,,,,,,,,,,,930,,,,,,,,,,,,,,,,,,7,10,,,558.3939,12,right,0.9214,559.3448,1.5,0.3,"[1,3,2]",0.938266887,stimuli/card_10_transparent.png,10,12,0,12,0,1,,,,,,,,,,
,,,,5b64cf6dae3bd50001a2b142,B,2024-08-16_14h29.47.926,Slot Machine Game,2023.1.3,Linux x86_64,60.24096386,,,,,,,,,,,,,,,,,,,,,,,,,,,930,,,,,,,,,,,,,,,,,,7,10,,,561.1474,13,up,0.5174,561.6973,0.5,0.3,"[1,3,2]",0.402084095,stimuli/card_0_transparent.png,0,13,0,13,0,1,,,,,,,,,,
,,,,5b64cf6dae3bd50001a2b142,B,2024-08-16_14h29.47.926,Slot Machine Game,2023.1.3,Linux x86_64,60.24096386,,,,,,,,,,,,,,,,,,,,,,,,,,,1030,,,,,,,,,,,,,,,,,,7,10,,,562.4987,14,left,0.621,563.1492,0.5,0.3,"[1,3,2]",0.606328328,stimuli/card_100_transparent.png,100,14,0,14,0,1,,,,,,,,,,
,,,,5b64cf6dae3bd50001a2b142,B,2024-08-16_14h29.47.926,Slot Machine Game,2023.1.3,Linux x86_64,60.24096386,,,,,,,,,,,,,,,,,,,,,,,,,,,,,,,,,,563.9504,,,,,,,,,,,,,,,,,,,,,,,,,,,,,,,"[1400,540,930,840,660,1120,1030]",6,0,6,0,1,,,,
,,,,5b64cf6dae3bd50001a2b142,B,2024-08-16_14h29.47.926,Slot Machine Game,2023.1.3,Linux x86_64,60.24096386,,,,,,,,,,,,,,,,,,,,,,,,,,,10,,,,,,,,,,,,,,,,,,8,7,"[9,15]","[[1,3,2],[2,3,1]]",568.9723,0,right,0.7058,569.6897,1.5,0.3,"[1,3,2]",0.725732194,stimuli/card_10_transparent.png,10,0,0,0,0,1,,,,,,,,,,
,,,,5b64cf6dae3bd50001a2b142,B,2024-08-16_14h29.47.926,Slot Machine Game,2023.1.3,Linux x86_64,60.24096386,,,,,,,,,,,,,,,,,,,,,,,,,,,110,,,,,,,,,,,,,,,,,,8,7,,,571.492,1,right,1.0578,572.5764,1,0.3,"[1,3,2]",0.176619641,stimuli/card_100_transparent.png,100,1,0,1,0,1,,,,,,,,,,
,,,,5b64cf6dae3bd50001a2b142,B,2024-08-16_14h29.47.926,Slot Machine Game,2023.1.3,Linux x86_64,60.24096386,,,,,,,,,,,,,,,,,,,,,,,,,,,120,,,,,,,,,,,,,,,,,,8,7,,,573.8775,2,right,1.6069,575.4957,0.5,0.3,"[1,3,2]",0.593848661,stimuli/card_10_transparent.png,10,2,0,2,0,1,,,,,,,,,,
,,,,5b64cf6dae3bd50001a2b142,B,2024-08-16_14h29.47.926,Slot Machine Game,2023.1.3,Linux x86_64,60.24096386,,,,,,,,,,,,,,,,,,,,,,,,,,,120,,,,,,,,,,,,,,,,,,8,7,,,576.2966,3,up,1.9529,578.2654,1,0.3,"[1,3,2]",0.248029471,stimuli/card_0_transparent.png,0,3,0,3,0,1,,,,,,,,,,
,,,,5b64cf6dae3bd50001a2b142,B,2024-08-16_14h29.47.926,Slot Machine Game,2023.1.3,Linux x86_64,60.24096386,,,,,,,,,,,,,,,,,,,,,,,,,,,220,,,,,,,,,,,,,,,,,,8,7,,,579.5671,4,left,0.5341,580.1179,1.5,0.3,"[1,3,2]",0.270963766,stimuli/card_100_transparent.png,100,4,0,4,0,1,,,,,,,,,,
,,,,5b64cf6dae3bd50001a2b142,B,2024-08-16_14h29.47.926,Slot Machine Game,2023.1.3,Linux x86_64,60.24096386,,,,,,,,,,,,,,,,,,,,,,,,,,,220,,,,,,,,,,,,,,,,,,8,7,,,581.9197,5,left,0.7196,582.6702,1.5,0.3,"[1,3,2]",0.07055482,stimuli/card_0_transparent.png,0,5,0,5,0,1,,,,,,,,,,
,,,,5b64cf6dae3bd50001a2b142,B,2024-08-16_14h29.47.926,Slot Machine Game,2023.1.3,Linux x86_64,60.24096386,,,,,,,,,,,,,,,,,,,,,,,,,,,220,,,,,,,,,,,,,,,,,,8,7,,,584.4723,6,up,0.5159,585.0062,1.5,0.3,"[1,3,2]",0.702532339,stimuli/card_0_transparent.png,0,6,0,6,0,1,,,,,,,,,,
,,,,5b64cf6dae3bd50001a2b142,B,2024-08-16_14h29.47.926,Slot Machine Game,2023.1.3,Linux x86_64,60.24096386,,,,,,,,,,,,,,,,,,,,,,,,,,,230,,,,,,,,,,,,,,,,,,8,7,,,586.8082,7,right,0.6686,587.4924,0.5,0.3,"[1,3,2]",0.765194813,stimuli/card_10_transparent.png,10,7,0,7,0,1,,,,,,,,,,
,,,,5b64cf6dae3bd50001a2b142,B,2024-08-16_14h29.47.926,Slot Machine Game,2023.1.3,Linux x86_64,60.24096386,,,,,,,,,,,,,,,,,,,,,,,,,,,240,,,,,,,,,,,,,,,,,,8,7,,,588.2933,8,left,1.7026,590.0288,1,0.3,"[1,3,2]",0.119690263,stimuli/card_10_transparent.png,10,8,0,8,0,1,,,,,,,,,,
,,,,5b64cf6dae3bd50001a2b142,B,2024-08-16_14h29.47.926,Slot Machine Game,2023.1.3,Linux x86_64,60.24096386,,,,,,,,,,,,,,,,,,,,,,,,,,,240,,,,,,,,,,,,,,,,,,8,7,,,591.3304,9,up,0.5827,591.9474,0.5,0.3,"[2,3,1]",0.392638465,stimuli/card_0_transparent.png,0,9,0,9,0,1,,,,,,,,,,
,,,,5b64cf6dae3bd50001a2b142,B,2024-08-16_14h29.47.926,Slot Machine Game,2023.1.3,Linux x86_64,60.24096386,,,,,,,,,,,,,,,,,,,,,,,,,,,250,,,,,,,,,,,,,,,,,,8,7,,,592.7484,10,left,1.4853,594.2663,0.5,0.3,"[2,3,1]",0.754687983,stimuli/card_10_transparent.png,10,10,0,10,0,1,,,,,,,,,,
,,,,5b64cf6dae3bd50001a2b142,B,2024-08-16_14h29.47.926,Slot Machine Game,2023.1.3,Linux x86_64,60.24096386,,,,,,,,,,,,,,,,,,,,,,,,,,,350,,,,,,,,,,,,,,,,,,8,7,,,595.0673,11,right,0.5012,595.5844,0.5,0.3,"[2,3,1]",0.496409885,stimuli/card_100_transparent.png,100,11,0,11,0,1,,,,,,,,,,
,,,,5b64cf6dae3bd50001a2b142,B,2024-08-16_14h29.47.926,Slot Machine Game,2023.1.3,Linux x86_64,60.24096386,,,,,,,,,,,,,,,,,,,,,,,,,,,450,,,,,,,,,,,,,,,,,,8,7,,,596.3855,12,right,0.532,596.9364,0.5,0.3,"[2,3,1]",0.581045367,stimuli/card_100_transparent.png,100,12,0,12,0,1,,,,,,,,,,
,,,,5b64cf6dae3bd50001a2b142,B,2024-08-16_14h29.47.926,Slot Machine Game,2023.1.3,Linux x86_64,60.24096386,,,,,,,,,,,,,,,,,,,,,,,,,,,550,,,,,,,,,,,,,,,,,,8,7,,,597.7371,13,right,0.6679,598.4375,0.5,0.3,"[2,3,1]",0.906158241,stimuli/card_100_transparent.png,100,13,0,13,0,1,,,,,,,,,,
,,,,5b64cf6dae3bd50001a2b142,B,2024-08-16_14h29.47.926,Slot Machine Game,2023.1.3,Linux x86_64,60.24096386,,,,,,,,,,,,,,,,,,,,,,,,,,,650,,,,,,,,,,,,,,,,,,8,7,,,599.2382,14,right,0.5011,599.7556,1.5,0.3,"[2,3,1]",0.79625247,stimuli/card_100_transparent.png,100,14,0,14,0,1,,,,,,,,,,
,,,,5b64cf6dae3bd50001a2b142,B,2024-08-16_14h29.47.926,Slot Machine Game,2023.1.3,Linux x86_64,60.24096386,,,,,,,,,,,,,,,,,,,,,,,,,,,,,,,,,,601.5577,,,,,,,,,,,,,,,,,,,,,,,,,,,,,,,"[1400,540,930,840,660,1120,1030,650]",7,0,7,0,1,,,,
,,,,5b64cf6dae3bd50001a2b142,B,2024-08-16_14h29.47.926,Slot Machine Game,2023.1.3,Linux x86_64,60.24096386,,,,,,,,,,,,,,,,,,,,,,,,,,,10,,,,,,,,,,,,,,,,,,9,9,"[8,15]","[[3,2,1],[3,1,2]]",606.5814,0,right,0.6884,607.2975,1,0.3,"[3,2,1]",0.106564588,stimuli/card_10_transparent.png,10,0,0,0,0,1,,,,,,,,,,
,,,,5b64cf6dae3bd50001a2b142,B,2024-08-16_14h29.47.926,Slot Machine Game,2023.1.3,Linux x86_64,60.24096386,,,,,,,,,,,,,,,,,,,,,,,,,,,10,,,,,,,,,,,,,,,,,,9,9,,,608.5985,1,right,0.7849,609.3999,0.5,0.3,"[3,2,1]",0.089972616,stimuli/card_0_transparent.png,0,1,0,1,0,1,,,,,,,,,,
,,,,5b64cf6dae3bd50001a2b142,B,2024-08-16_14h29.47.926,Slot Machine Game,2023.1.3,Linux x86_64,60.24096386,,,,,,,,,,,,,,,,,,,,,,,,,,,110,,,,,,,,,,,,,,,,,,9,9,,,610.2004,2,right,0.6686,610.8847,1.5,0.3,"[3,2,1]",0.958498638,stimuli/card_100_transparent.png,100,2,0,2,0,1,,,,,,,,,,
,,,,5b64cf6dae3bd50001a2b142,B,2024-08-16_14h29.47.926,Slot Machine Game,2023.1.3,Linux x86_64,60.24096386,,,,,,,,,,,,,,,,,,,,,,,,,,,210,,,,,,,,,,,,,,,,,,9,9,,,612.6868,3,right,1.2231,613.9226,1.5,0.3,"[3,2,1]",0.606110661,stimuli/card_100_transparent.png,100,3,0,3,0,1,,,,,,,,,,
,,,,5b64cf6dae3bd50001a2b142,B,2024-08-16_14h29.47.926,Slot Machine Game,2023.1.3,Linux x86_64,60.24096386,,,,,,,,,,,,,,,,,,,,,,,,,,,310,,,,,,,,,,,,,,,,,,9,9,,,615.7236,4,right,3.4272,619.1785,1.5,0.3,"[3,2,1]",0.503412102,stimuli/card_100_transparent.png,100,4,0,4,0,1,,,,,,,,,,
,,,,5b64cf6dae3bd50001a2b142,B,2024-08-16_14h29.47.926,Slot Machine Game,2023.1.3,Linux x86_64,60.24096386,,,,,,,,,,,,,,,,,,,,,,,,,,,310,,,,,,,,,,,,,,,,,,9,9,,,620.9793,5,right,1.1008,622.0975,1.5,0.3,"[3,2,1]",0.085506491,stimuli/card_0_transparent.png,0,5,0,5,0,1,,,,,,,,,,
,,,,5b64cf6dae3bd50001a2b142,B,2024-08-16_14h29.47.926,Slot Machine Game,2023.1.3,Linux x86_64,60.24096386,,,,,,,,,,,,,,,,,,,,,,,,,,,310,,,,,,,,,,,,,,,,,,9,9,,,623.8992,6,right,0.6677,624.5998,0.5,0.3,"[3,2,1]",0.002213615,stimuli/card_0_transparent.png,0,6,0,6,0,1,,,,,,,,,,
,,,,5b64cf6dae3bd50001a2b142,B,2024-08-16_14h29.47.926,Slot Machine Game,2023.1.3,Linux x86_64,60.24096386,,,,,,,,,,,,,,,,,,,,,,,,,,,320,,,,,,,,,,,,,,,,,,9,9,,,625.4012,7,right,2.6532,628.0886,0.5,0.3,"[3,2,1]",0.153171787,stimuli/card_10_transparent.png,10,7,0,7,0,1,,,,,,,,,,
,,,,5b64cf6dae3bd50001a2b142,B,2024-08-16_14h29.47.926,Slot Machine Game,2023.1.3,Linux x86_64,60.24096386,,,,,,,,,,,,,,,,,,,,,,,,,,,420,,,,,,,,,,,,,,,,,,9,9,,,628.8885,8,up,0.522,629.4384,0.5,0.3,"[3,1,2]",0.270549635,stimuli/card_100_transparent.png,100,8,0,8,0,1,,,,,,,,,,
,,,,5b64cf6dae3bd50001a2b142,B,2024-08-16_14h29.47.926,Slot Machine Game,2023.1.3,Linux x86_64,60.24096386,,,,,,,,,,,,,,,,,,,,,,,,,,,430,,,,,,,,,,,,,,,,,,9,9,,,630.2398,9,right,0.7184,630.9901,0.5,0.3,"[3,1,2]",0.597211693,stimuli/card_10_transparent.png,10,9,0,9,0,1,,,,,,,,,,
,,,,5b64cf6dae3bd50001a2b142,B,2024-08-16_14h29.47.926,Slot Machine Game,2023.1.3,Linux x86_64,60.24096386,,,,,,,,,,,,,,,,,,,,,,,,,,,530,,,,,,,,,,,,,,,,,,9,9,,,631.7918,10,up,1.1531,632.9757,0.5,0.3,"[3,1,2]",0.266210306,stimuli/card_100_transparent.png,100,10,0,10,0,1,,,,,,,,,,
,,,,5b64cf6dae3bd50001a2b142,B,2024-08-16_14h29.47.926,Slot Machine Game,2023.1.3,Linux x86_64,60.24096386,,,,,,,,,,,,,,,,,,,,,,,,,,,630,,,,,,,,,,,,,,,,,,9,9,,,633.7771,11,up,0.5694,634.3772,1,0.3,"[3,1,2]",0.560783351,stimuli/card_100_transparent.png,100,11,0,11,0,1,,,,,,,,,,
,,,,5b64cf6dae3bd50001a2b142,B,2024-08-16_14h29.47.926,Slot Machine Game,2023.1.3,Linux x86_64,60.24096386,,,,,,,,,,,,,,,,,,,,,,,,,,,640,,,,,,,,,,,,,,,,,,9,9,,,635.6789,12,up,0.5689,636.2619,1,0.3,"[3,1,2]",0.120981825,stimuli/card_10_transparent.png,10,12,0,12,0,1,,,,,,,,,,
,,,,5b64cf6dae3bd50001a2b142,B,2024-08-16_14h29.47.926,Slot Machine Game,2023.1.3,Linux x86_64,60.24096386,,,,,,,,,,,,,,,,,,,,,,,,,,,740,,,,,,,,,,,,,,,,,,9,9,,,637.5645,13,up,0.8989,638.4816,0.5,0.3,"[3,1,2]",0.851841681,stimuli/card_100_transparent.png,100,13,0,13,0,1,,,,,,,,,,
,,,,5b64cf6dae3bd50001a2b142,B,2024-08-16_14h29.47.926,Slot Machine Game,2023.1.3,Linux x86_64,60.24096386,,,,,,,,,,,,,,,,,,,,,,,,,,,740,,,,,,,,,,,,,,,,,,9,9,,,639.2831,14,up,0.6018,639.9005,1.5,0.3,"[3,1,2]",0.02700627,stimuli/card_0_transparent.png,0,14,0,14,0,1,,,,,,,,,,
,,,,5b64cf6dae3bd50001a2b142,B,2024-08-16_14h29.47.926,Slot Machine Game,2023.1.3,Linux x86_64,60.24096386,,,,,,,,,,,,,,,,,,,,,,,,,,,,,,,,,,641.7024,,,,,,,,,,,,,,,,,,,,,,,,,,,,,,,"[1400,540,930,840,660,1120,1030,650,740]",8,0,8,0,1,,,,
,,,,5b64cf6dae3bd50001a2b142,B,2024-08-16_14h29.47.926,Slot Machine Game,2023.1.3,Linux x86_64,60.24096386,,,,,,,,,,,,,,,,,,,,,,,,,,,0,,,,,,,,,,,,,,,,,,10,6,"[4,10,15]","[[2,3,1],[1,3,2],[3,2,1]]",646.7237,0,up,0.5503,647.2915,1,0.3,"[2,3,1]",0.352354981,stimuli/card_0_transparent.png,0,0,0,0,0,1,,,,,,,,,,
,,,,5b64cf6dae3bd50001a2b142,B,2024-08-16_14h29.47.926,Slot Machine Game,2023.1.3,Linux x86_64,60.24096386,,,,,,,,,,,,,,,,,,,,,,,,,,,10,,,,,,,,,,,,,,,,,,10,6,,,648.5926,1,left,0.6843,649.2931,0.5,0.3,"[2,3,1]",0.935543173,stimuli/card_10_transparent.png,10,1,0,1,0,1,,,,,,,,,,
,,,,5b64cf6dae3bd50001a2b142,B,2024-08-16_14h29.47.926,Slot Machine Game,2023.1.3,Linux x86_64,60.24096386,,,,,,,,,,,,,,,,,,,,,,,,,,,20,,,,,,,,,,,,,,,,,,10,6,,,650.0944,2,left,0.6525,650.7625,0.5,0.3,"[2,3,1]",0.450215526,stimuli/card_10_transparent.png,10,2,0,2,0,1,,,,,,,,,,
,,,,5b64cf6dae3bd50001a2b142,B,2024-08-16_14h29.47.926,Slot Machine Game,2023.1.3,Linux x86_64,60.24096386,,,,,,,,,,,,,,,,,,,,,,,,,,,30,,,,,,,,,,,,,,,,,,10,6,,,651.5631,3,left,0.5337,652.1137,1.5,0.3,"[2,3,1]",0.256024941,stimuli/card_10_transparent.png,10,3,0,3,0,1,,,,,,,,,,
,,,,5b64cf6dae3bd50001a2b142,B,2024-08-16_14h29.47.926,Slot Machine Game,2023.1.3,Linux x86_64,60.24096386,,,,,,,,,,,,,,,,,,,,,,,,,,,30,,,,,,,,,,,,,,,,,,10,6,,,653.9153,4,right,0.92,654.8496,1.5,0.3,"[1,3,2]",0.077730239,stimuli/card_0_transparent.png,0,4,0,4,0,1,,,,,,,,,,
,,,,5b64cf6dae3bd50001a2b142,B,2024-08-16_14h29.47.926,Slot Machine Game,2023.1.3,Linux x86_64,60.24096386,,,,,,,,,,,,,,,,,,,,,,,,,,,40,,,,,,,,,,,,,,,,,,10,6,,,656.6521,5,right,0.501,657.169,1.5,0.3,"[1,3,2]",0.408446264,stimuli/card_10_transparent.png,10,5,0,5,0,1,,,,,,,,,,
,,,,5b64cf6dae3bd50001a2b142,B,2024-08-16_14h29.47.926,Slot Machine Game,2023.1.3,Linux x86_64,60.24096386,,,,,,,,,,,,,,,,,,,,,,,,,,,40,,,,,,,,,,,,,,,,,,10,6,,,658.9714,6,up,0.6505,659.6547,1.5,0.3,"[1,3,2]",0.793807801,stimuli/card_0_transparent.png,0,6,0,6,0,1,,,,,,,,,,
,,,,5b64cf6dae3bd50001a2b142,B,2024-08-16_14h29.47.926,Slot Machine Game,2023.1.3,Linux x86_64,60.24096386,,,,,,,,,,,,,,,,,,,,,,,,,,,140,,,,,,,,,,,,,,,,,,10,6,,,661.4575,7,left,0.9697,662.4587,0.5,0.3,"[1,3,2]",0.582600152,stimuli/card_100_transparent.png,100,7,0,7,0,1,,,,,,,,,,
,,,,5b64cf6dae3bd50001a2b142,B,2024-08-16_14h29.47.926,Slot Machine Game,2023.1.3,Linux x86_64,60.24096386,,,,,,,,,,,,,,,,,,,,,,,,,,,240,,,,,,,,,,,,,,,,,,10,6,,,663.2595,8,left,1.1487,664.4267,1,0.3,"[1,3,2]",0.947635413,stimuli/card_100_transparent.png,100,8,0,8,0,1,,,,,,,,,,
,,,,5b64cf6dae3bd50001a2b142,B,2024-08-16_14h29.47.926,Slot Machine Game,2023.1.3,Linux x86_64,60.24096386,,,,,,,,,,,,,,,,,,,,,,,,,,,340,,,,,,,,,,,,,,,,,,10,6,,,665.7282,9,left,0.5011,666.2458,0.5,0.3,"[1,3,2]",0.65752522,stimuli/card_100_transparent.png,100,9,0,9,0,1,,,,,,,,,,
,,,,5b64cf6dae3bd50001a2b142,B,2024-08-16_14h29.47.926,Slot Machine Game,2023.1.3,Linux x86_64,60.24096386,,,,,,,,,,,,,,,,,,,,,,,,,,,340,,,,,,,,,,,,,,,,,,10,6,,,667.0476,10,left,0.5529,667.6299,1.5,0.3,"[3,2,1]",0.904392679,stimuli/card_0_transparent.png,0,10,0,10,0,1,,,,,,,,,,
,,,,5b64cf6dae3bd50001a2b142,B,2024-08-16_14h29.47.926,Slot Machine Game,2023.1.3,Linux x86_64,60.24096386,,,,,,,,,,,,,,,,,,,,,,,,,,,340,,,,,,,,,,,,,,,,,,10,6,,,669.4332,11,left,0.6848,670.15,0.5,0.3,"[3,2,1]",0.465363815,stimuli/card_0_transparent.png,0,11,0,11,0,1,,,,,,,,,,
,,,,5b64cf6dae3bd50001a2b142,B,2024-08-16_14h29.47.926,Slot Machine Game,2023.1.3,Linux x86_64,60.24096386,,,,,,,,,,,,,,,,,,,,,,,,,,,340,,,,,,,,,,,,,,,,,,10,6,,,670.951,12,left,0.8376,671.8025,1,0.3,"[3,2,1]",0.3398208,stimuli/card_0_transparent.png,0,12,0,12,0,1,,,,,,,,,,
,,,,5b64cf6dae3bd50001a2b142,B,2024-08-16_14h29.47.926,Slot Machine Game,2023.1.3,Linux x86_64,60.24096386,,,,,,,,,,,,,,,,,,,,,,,,,,,340,,,,,,,,,,,,,,,,,,10,6,,,673.1042,13,left,4.923,678.0608,1,0.3,"[3,2,1]",0.923827678,stimuli/card_0_transparent.png,0,13,0,13,0,1,,,,,,,,,,
,,,,5b64cf6dae3bd50001a2b142,B,2024-08-16_14h29.47.926,Slot Machine Game,2023.1.3,Linux x86_64,60.24096386,,,,,,,,,,,,,,,,,,,,,,,,,,,340,,,,,,,,,,,,,,,,,,10,6,,,679.3604,14,left,0.5686,679.9609,1.5,0.3,"[3,2,1]",0.896329868,stimuli/card_0_transparent.png,0,14,0,14,0,1,,,,,,,,,,
,,,,5b64cf6dae3bd50001a2b142,B,2024-08-16_14h29.47.926,Slot Machine Game,2023.1.3,Linux x86_64,60.24096386,,,,,,,,,,,,,,,,,,,,,,,,,,,,,,,,,,681.7632,,,,,,,,,,,,,,,,,,,,,,,,,,,,,,,"[1400,540,930,840,660,1120,1030,650,740,340]",9,0,9,0,1,,,,
,,,,5b64cf6dae3bd50001a2b142,B,2024-08-16_14h29.47.926,Slot Machine Game,2023.1.3,Linux x86_64,60.24096386,,,,,,,,,,,,,,,,,,,,,,,,,,,,,,,,,,,,,,,,,,,,,,,,,,,,,,,,,,,,,,,,,,,,,,,9,"[1400,540,930,840,660,1120,1030,650,740,340]",6.5,2024-08-16_14h41.18.829
