key_resp_welcome_started,key_resp_welcome_keys,key_resp_welcome_rt,key_resp_welcome_duration,prolific_id,path_id,date,expName,psychopyVersion,OS,frameRate,key_resp_instruction1_started,key_resp_instruction1_keys,key_resp_instruction1_rt,key_resp_instruction1_duration,key_resp_instruction2_started,key_resp_instruction2_keys,key_resp_instruction2_rt,key_resp_instruction2_duration,key_resp_instruction3_started,key_resp_instruction3_keys,key_resp_instruction3_rt,key_resp_instruction3_duration,key_resp_instruction4_started,key_resp_instruction4_keys,key_resp_instruction4_rt,key_resp_instruction4_duration,practiceCondition,practice_reward_seqs,practice_trial_started,practice_trial_num,practice_resp_rt,practice_resp_duration,practice_resp_keys,prac_presentationInterval,"practice_reward_seq: 2,1,3",reward_img,cumulative_reward,trial_reward,practice_trials.thisRepN,practice_trials.thisTrialN,practice_trials.thisN,practice_trials.thisIndex,practice_trials.ran,"practice_reward_seq: 2,3,1",block_break_started,"practice_reward_seq: 1,3,2","practice_reward_seq: 3,1,2",practice_end_time,practice_end_keys,practice_end_rt,practice_end_duration,main_instruction_text_started,block_condition,block_order_indices,main_instruction_keys,main_instruction_rt,main_instruction_duration,block_number,block_assignment,current_condition,main_reward_seqs,main_trial_started,main_trial_num,main_trial_keys,main_trial_rt,main_trial_duration,main_presentationInterval,reward_presentation_time,main_reward_seq,reward_rand_val,main_reward_img,current_reward,main_trials.thisRepN,main_trials.thisTrialN,main_trials.thisN,main_trials.thisIndex,main_trials.ran,block_reward,block.thisRepN,block.thisTrialN,block.thisN,block.thisIndex,block.ran,block_reward.length,block_reward_all,reward_amount,date_end_task
0.0006,space,1.9575,0.0004,63b744d6c92e283f8b15993a,A,2024-05-20_12h15.28.491,Slot Machine Game,2023.1.3,MacIntel,2.857959417,,,,,,,,,,,,,,,,,,,,,,,,,,,,,,,,,,,,,,,,,,,,,,,,,,,,,,,,,,,,,,,,,,,,,,,,,,,,,
,,,,63b744d6c92e283f8b15993a,A,2024-05-20_12h15.28.491,Slot Machine Game,2023.1.3,MacIntel,2.857959417,2.3463,space,8.5964,9.99999E-05,,,,,,,,,,,,,,,,,,,,,,,,,,,,,,,,,,,,,,,,,,,,,,,,,,,,,,,,,,,,,,,,,,,,,,,,,
,,,,63b744d6c92e283f8b15993a,A,2024-05-20_12h15.28.491,Slot Machine Game,2023.1.3,MacIntel,2.857959417,,,,,11.319,space,18.6207,0.0002,,,,,,,,,,,,,,,,,,,,,,,,,,,,,,,,,,,,,,,,,,,,,,,,,,,,,,,,,,,,,,,,,,,,,
,,,,63b744d6c92e283f8b15993a,A,2024-05-20_12h15.28.491,Slot Machine Game,2023.1.3,MacIntel,2.857959417,,,,,,,,,30.3273,space,5.64,,,,,,,,,,,,,,,,,,,,,,,,,,,,,,,,,,,,,,,,,,,,,,,,,,,,,,,,,,,,,,,,,,
,,,,63b744d6c92e283f8b15993a,A,2024-05-20_12h15.28.491,Slot Machine Game,2023.1.3,MacIntel,2.857959417,,,,,,,,,,,,,,,,,,,,,,,,,,,,,,,,,,,,,,,,,,,,,,,,,,,,,,,,,,,,,,,,,,,,,,,,,,,,,
,,,,63b744d6c92e283f8b15993a,A,2024-05-20_12h15.28.491,Slot Machine Game,2023.1.3,MacIntel,2.857959417,,,,,,,,,,,,,178.6735,space,4.016,0.0002,,,,,,,,,,,,,,,,,,,,,,,,,,,,,,,,,,,,,,,,,,,,,,,,,,,,,,,,,,,,,
,,,,63b744d6c92e283f8b15993a,A,2024-05-20_12h15.28.491,Slot Machine Game,2023.1.3,MacIntel,2.857959417,,,,,,,,,,,,,,,,,"[9,15]","[[2,1,3],[2,3,1]]",183.0474,0,1.5281,9.99999E-05,left,1.5,,stimuli/card_10_transparent.png,10,10,0,0,0,0,1,,,,,,,,,,,,,,,,,,,,,,,,,,,,,,,,,,,,,,,,,,,,
,,,,63b744d6c92e283f8b15993a,A,2024-05-20_12h15.28.491,Slot Machine Game,2023.1.3,MacIntel,2.857959417,,,,,,,,,,,,,,,,,,,187.6532,1,0.3998,9.99999E-05,left,1.5,,stimuli/card_10_transparent.png,20,10,1,0,1,0,1,,,,,,,,,,,,,,,,,,,,,,,,,,,,,,,,,,,,,,,,,,,,
,,,,63b744d6c92e283f8b15993a,A,2024-05-20_12h15.28.491,Slot Machine Game,2023.1.3,MacIntel,2.857959417,,,,,,,,,,,,,,,,,,,191.068,2,0.7819,0.0001,up,1,,stimuli/card_100_transparent.png,120,100,2,0,2,0,1,,,,,,,,,,,,,,,,,,,,,,,,,,,,,,,,,,,,,,,,,,,,
,,,,63b744d6c92e283f8b15993a,A,2024-05-20_12h15.28.491,Slot Machine Game,2023.1.3,MacIntel,2.857959417,,,,,,,,,,,,,,,,,,,193.704,3,0.4094,9.99999E-05,up,1,,stimuli/card_0_transparent.png,120,0,3,0,3,0,1,,,,,,,,,,,,,,,,,,,,,,,,,,,,,,,,,,,,,,,,,,,,
,,,,63b744d6c92e283f8b15993a,A,2024-05-20_12h15.28.491,Slot Machine Game,2023.1.3,MacIntel,2.857959417,,,,,,,,,,,,,,,,,,,195.9643,4,0.7627,,up,1,,stimuli/card_100_transparent.png,220,100,4,0,4,0,1,,,,,,,,,,,,,,,,,,,,,,,,,,,,,,,,,,,,,,,,,,,,
,,,,63b744d6c92e283f8b15993a,A,2024-05-20_12h15.28.491,Slot Machine Game,2023.1.3,MacIntel,2.857959417,,,,,,,,,,,,,,,,,,,198.9108,5,0.4832,0,up,1.5,,stimuli/card_100_transparent.png,320,100,5,0,5,0,1,,,,,,,,,,,,,,,,,,,,,,,,,,,,,,,,,,,,,,,,,,,,
,,,,63b744d6c92e283f8b15993a,A,2024-05-20_12h15.28.491,Slot Machine Game,2023.1.3,MacIntel,2.857959417,,,,,,,,,,,,,,,,,,,201.6433,6,0.0405,0.0002,up,0.5,,stimuli/card_100_transparent.png,420,100,6,0,6,0,1,,,,,,,,,,,,,,,,,,,,,,,,,,,,,,,,,,,,,,,,,,,,
,,,,63b744d6c92e283f8b15993a,A,2024-05-20_12h15.28.491,Slot Machine Game,2023.1.3,MacIntel,2.857959417,,,,,,,,,,,,,,,,,,,203.473,7,0.0426,0.0002,up,0.5,,stimuli/card_100_transparent.png,520,100,7,0,7,0,1,,,,,,,,,,,,,,,,,,,,,,,,,,,,,,,,,,,,,,,,,,,,
,,,,63b744d6c92e283f8b15993a,A,2024-05-20_12h15.28.491,Slot Machine Game,2023.1.3,MacIntel,2.857959417,,,,,,,,,,,,,,,,,,,205.3241,8,2.927,9.99999E-05,up,1.5,,stimuli/card_100_transparent.png,620,100,8,0,8,0,1,,,,,,,,,,,,,,,,,,,,,,,,,,,,,,,,,,,,,,,,,,,,
,,,,63b744d6c92e283f8b15993a,A,2024-05-20_12h15.28.491,Slot Machine Game,2023.1.3,MacIntel,2.857959417,,,,,,,,,,,,,,,,,,,211.1611,9,0.0376,0.0001,up,0.5,,stimuli/card_0_transparent.png,620,0,9,0,9,0,1,,,,,,,,,,,,,,,,,,,,,,,,,,,,,,,,,,,,,,,,,,,,
,,,,63b744d6c92e283f8b15993a,A,2024-05-20_12h15.28.491,Slot Machine Game,2023.1.3,MacIntel,2.857959417,,,,,,,,,,,,,,,,,,,213.0156,10,0.0333,,up,1.5,,stimuli/card_0_transparent.png,620,0,10,0,10,0,1,,,,,,,,,,,,,,,,,,,,,,,,,,,,,,,,,,,,,,,,,,,,
,,,,63b744d6c92e283f8b15993a,A,2024-05-20_12h15.28.491,Slot Machine Game,2023.1.3,MacIntel,2.857959417,,,,,,,,,,,,,,,,,,,215.9666,11,0.0361,0.0002,up,1.5,,stimuli/card_0_transparent.png,620,0,11,0,11,0,1,,,,,,,,,,,,,,,,,,,,,,,,,,,,,,,,,,,,,,,,,,,,
,,,,63b744d6c92e283f8b15993a,A,2024-05-20_12h15.28.491,Slot Machine Game,2023.1.3,MacIntel,2.857959417,,,,,,,,,,,,,,,,,,,218.9478,12,2.5828,0,right,1,,stimuli/card_100_transparent.png,720,100,12,0,12,0,1,,,,,,,,,,,,,,,,,,,,,,,,,,,,,,,,,,,,,,,,,,,,
,,,,63b744d6c92e283f8b15993a,A,2024-05-20_12h15.28.491,Slot Machine Game,2023.1.3,MacIntel,2.857959417,,,,,,,,,,,,,,,,,,,223.7107,13,0.0336,9.99999E-05,right,1,,stimuli/card_100_transparent.png,820,100,13,0,13,0,1,,,,,,,,,,,,,,,,,,,,,,,,,,,,,,,,,,,,,,,,,,,,
,,,,63b744d6c92e283f8b15993a,A,2024-05-20_12h15.28.491,Slot Machine Game,2023.1.3,MacIntel,2.857959417,,,,,,,,,,,,,,,,,,,225.9478,14,2.5881,0,right,1,,stimuli/card_0_transparent.png,820,0,14,0,14,0,1,,,,,,,,,,,,,,,,,,,,,,,,,,,,,,,,,,,,,,,,,,,,
,,,,63b744d6c92e283f8b15993a,A,2024-05-20_12h15.28.491,Slot Machine Game,2023.1.3,MacIntel,2.857959417,,,,,,,,,,,,,,,,,"[6,15]","[[1,3,2],[3,1,2]]",235.168,0,0.4217,9.99999E-05,left,1,,stimuli/card_100_transparent.png,100,100,0,0,0,0,1,,230.3843,,,,,,,,,,,,,,,,,,,,,,,,,,,,,,,,,,,,,,,,,,
,,,,63b744d6c92e283f8b15993a,A,2024-05-20_12h15.28.491,Slot Machine Game,2023.1.3,MacIntel,2.857959417,,,,,,,,,,,,,,,,,,,237.7765,1,0.0334,0,left,1,,stimuli/card_100_transparent.png,200,100,1,0,1,0,1,,,,,,,,,,,,,,,,,,,,,,,,,,,,,,,,,,,,,,,,,,,,
,,,,63b744d6c92e283f8b15993a,A,2024-05-20_12h15.28.491,Slot Machine Game,2023.1.3,MacIntel,2.857959417,,,,,,,,,,,,,,,,,,,240.0349,2,1.8651,9.99999E-05,left,1.5,,stimuli/card_10_transparent.png,210,10,2,0,2,0,1,,,,,,,,,,,,,,,,,,,,,,,,,,,,,,,,,,,,,,,,,,,,
,,,,63b744d6c92e283f8b15993a,A,2024-05-20_12h15.28.491,Slot Machine Game,2023.1.3,MacIntel,2.857959417,,,,,,,,,,,,,,,,,,,244.8623,3,0.4001,0.0001,left,1,,stimuli/card_100_transparent.png,310,100,3,0,3,0,1,,,,,,,,,,,,,,,,,,,,,,,,,,,,,,,,,,,,,,,,,,,,
,,,,63b744d6c92e283f8b15993a,A,2024-05-20_12h15.28.491,Slot Machine Game,2023.1.3,MacIntel,2.857959417,,,,,,,,,,,,,,,,,,,247.4253,4,0.0384,,left,1,,stimuli/card_100_transparent.png,410,100,4,0,4,0,1,,,,,,,,,,,,,,,,,,,,,,,,,,,,,,,,,,,,,,,,,,,,
,,,,63b744d6c92e283f8b15993a,A,2024-05-20_12h15.28.491,Slot Machine Game,2023.1.3,MacIntel,2.857959417,,,,,,,,,,,,,,,,,,,249.6608,5,0.7947,,left,1.5,,stimuli/card_100_transparent.png,510,100,5,0,5,0,1,,,,,,,,,,,,,,,,,,,,,,,,,,,,,,,,,,,,,,,,,,,,
,,,,63b744d6c92e283f8b15993a,A,2024-05-20_12h15.28.491,Slot Machine Game,2023.1.3,MacIntel,2.857959417,,,,,,,,,,,,,,,,,,,253.3788,6,1.115,9.99999E-05,left,1.5,,stimuli/card_0_transparent.png,510,0,6,0,6,0,1,,,,,,,,,,,,,,,,,,,,,,,,,,,,,,,,,,,,,,,,,,,,
,,,,63b744d6c92e283f8b15993a,A,2024-05-20_12h15.28.491,Slot Machine Game,2023.1.3,MacIntel,2.857959417,,,,,,,,,,,,,,,,,,,257.4493,7,0.395,0.0002,left,1,,stimuli/card_0_transparent.png,510,0,7,0,7,0,1,,,,,,,,,,,,,,,,,,,,,,,,,,,,,,,,,,,,,,,,,,,,
,,,,63b744d6c92e283f8b15993a,A,2024-05-20_12h15.28.491,Slot Machine Game,2023.1.3,MacIntel,2.857959417,,,,,,,,,,,,,,,,,,,259.6353,8,0.7601,,left,1.5,,stimuli/card_0_transparent.png,510,0,8,0,8,0,1,,,,,,,,,,,,,,,,,,,,,,,,,,,,,,,,,,,,,,,,,,,,
,,,,63b744d6c92e283f8b15993a,A,2024-05-20_12h15.28.491,Slot Machine Game,2023.1.3,MacIntel,2.857959417,,,,,,,,,,,,,,,,,,,263.3623,9,0.0406,0.0001,up,0.5,,stimuli/card_100_transparent.png,610,100,9,0,9,0,1,,,,,,,,,,,,,,,,,,,,,,,,,,,,,,,,,,,,,,,,,,,,
,,,,63b744d6c92e283f8b15993a,A,2024-05-20_12h15.28.491,Slot Machine Game,2023.1.3,MacIntel,2.857959417,,,,,,,,,,,,,,,,,,,265.2152,10,0.0326,9.99999E-05,up,0.5,,stimuli/card_100_transparent.png,710,100,10,0,10,0,1,,,,,,,,,,,,,,,,,,,,,,,,,,,,,,,,,,,,,,,,,,,,
,,,,63b744d6c92e283f8b15993a,A,2024-05-20_12h15.28.491,Slot Machine Game,2023.1.3,MacIntel,2.857959417,,,,,,,,,,,,,,,,,,,267.0638,11,2.2032,0.0002,up,1,,stimuli/card_100_transparent.png,810,100,11,0,11,0,1,,,,,,,,,,,,,,,,,,,,,,,,,,,,,,,,,,,,,,,,,,,,
,,,,63b744d6c92e283f8b15993a,A,2024-05-20_12h15.28.491,Slot Machine Game,2023.1.3,MacIntel,2.857959417,,,,,,,,,,,,,,,,,,,271.4617,12,0.0391,,up,0.5,,stimuli/card_100_transparent.png,910,100,12,0,12,0,1,,,,,,,,,,,,,,,,,,,,,,,,,,,,,,,,,,,,,,,,,,,,
,,,,63b744d6c92e283f8b15993a,A,2024-05-20_12h15.28.491,Slot Machine Game,2023.1.3,MacIntel,2.857959417,,,,,,,,,,,,,,,,,,,273.3256,13,0.0393,,up,1,,stimuli/card_100_transparent.png,1010,100,13,0,13,0,1,,,,,,,,,,,,,,,,,,,,,,,,,,,,,,,,,,,,,,,,,,,,
,,,,63b744d6c92e283f8b15993a,A,2024-05-20_12h15.28.491,Slot Machine Game,2023.1.3,MacIntel,2.857959417,,,,,,,,,,,,,,,,,,,275.5622,14,0.0405,,up,0.5,,stimuli/card_100_transparent.png,1110,100,14,0,14,0,1,,,,,,,,,,,,,,,,,,,,,,,,,,,,,,,,,,,,,,,,,,,,
,,,,63b744d6c92e283f8b15993a,A,2024-05-20_12h15.28.491,Slot Machine Game,2023.1.3,MacIntel,2.857959417,,,,,,,,,,,,,,,,,,,,,,,,,,,,,,,,,,,277.4251,,,282.172,space,2.1107,,,,,,,,,,,,,,,,,,,,,,,,,,,,,,,,,,,,,
,,,,63b744d6c92e283f8b15993a,A,2024-05-20_12h15.28.491,Slot Machine Game,2023.1.3,MacIntel,2.857959417,,,,,,,,,,,,,,,,,,,,,,,,,,,,,,,,,,,,,,,,,,284.6125,3,"[0,4,6,3,5,7,8,1,9,2]",space,2.8905,,,,,,,,,,,,,,,,,,,,,,,,,,,,,,,
,,,,63b744d6c92e283f8b15993a,A,2024-05-20_12h15.28.491,Slot Machine Game,2023.1.3,MacIntel,2.857959417,,,,,,,,,,,,,,,,,,,,,,,,,,,10,,,,,,,,,,,,,,,,,,,,,1,1,"[12,15]","[[2,1,3],[2,3,1]]",287.8708,0,left,0.4114,9.99999E-05,0.5,0.3,"[2,1,3]",0.261432637,stimuli/card_10_transparent.png,10,0,0,0,0,1,,,,,,,,,,
,,,,63b744d6c92e283f8b15993a,A,2024-05-20_12h15.28.491,Slot Machine Game,2023.1.3,MacIntel,2.857959417,,,,,,,,,,,,,,,,,,,,,,,,,,,20,,,,,,,,,,,,,,,,,,,,,1,1,,,290.1818,1,left,0.3969,0.0001,0.5,0.3,"[2,1,3]",0.991354129,stimuli/card_10_transparent.png,10,1,0,1,0,1,,,,,,,,,,
,,,,63b744d6c92e283f8b15993a,A,2024-05-20_12h15.28.491,Slot Machine Game,2023.1.3,MacIntel,2.857959417,,,,,,,,,,,,,,,,,,,,,,,,,,,120,,,,,,,,,,,,,,,,,,,,,1,1,,,292.3706,2,up,0.0391,9.99999E-05,1,0.3,"[2,1,3]",0.928587362,stimuli/card_100_transparent.png,100,2,0,2,0,1,,,,,,,,,,
,,,,63b744d6c92e283f8b15993a,A,2024-05-20_12h15.28.491,Slot Machine Game,2023.1.3,MacIntel,2.857959417,,,,,,,,,,,,,,,,,,,,,,,,,,,220,,,,,,,,,,,,,,,,,,,,,1,1,,,294.2466,3,up,0.775,0,0.5,0.3,"[2,1,3]",0.561250143,stimuli/card_100_transparent.png,100,3,0,3,0,1,,,,,,,,,,
,,,,63b744d6c92e283f8b15993a,A,2024-05-20_12h15.28.491,Slot Machine Game,2023.1.3,MacIntel,2.857959417,,,,,,,,,,,,,,,,,,,,,,,,,,,320,,,,,,,,,,,,,,,,,,,,,1,1,,,296.8436,4,up,0.0326,,1,0.3,"[2,1,3]",0.766316644,stimuli/card_100_transparent.png,100,4,0,4,0,1,,,,,,,,,,
,,,,63b744d6c92e283f8b15993a,A,2024-05-20_12h15.28.491,Slot Machine Game,2023.1.3,MacIntel,2.857959417,,,,,,,,,,,,,,,,,,,,,,,,,,,420,,,,,,,,,,,,,,,,,,,,,1,1,,,299.0743,5,up,0.0396,9.99999E-05,0.5,0.3,"[2,1,3]",0.254656638,stimuli/card_100_transparent.png,100,5,0,5,0,1,,,,,,,,,,
,,,,63b744d6c92e283f8b15993a,A,2024-05-20_12h15.28.491,Slot Machine Game,2023.1.3,MacIntel,2.857959417,,,,,,,,,,,,,,,,,,,,,,,,,,,520,,,,,,,,,,,,,,,,,,,,,1,1,,,300.8759,6,up,0.0319,0.0001,1,0.3,"[2,1,3]",0.935763949,stimuli/card_100_transparent.png,100,6,0,6,0,1,,,,,,,,,,
,,,,63b744d6c92e283f8b15993a,A,2024-05-20_12h15.28.491,Slot Machine Game,2023.1.3,MacIntel,2.857959417,,,,,,,,,,,,,,,,,,,,,,,,,,,620,,,,,,,,,,,,,,,,,,,,,1,1,,,303.068,7,up,0.0395,0.0001,1,0.3,"[2,1,3]",0.466104739,stimuli/card_100_transparent.png,100,7,0,7,0,1,,,,,,,,,,
,,,,63b744d6c92e283f8b15993a,A,2024-05-20_12h15.28.491,Slot Machine Game,2023.1.3,MacIntel,2.857959417,,,,,,,,,,,,,,,,,,,,,,,,,,,720,,,,,,,,,,,,,,,,,,,,,1,1,,,304.9107,8,up,0.4084,0.0001,0.5,0.3,"[2,1,3]",0.744642712,stimuli/card_100_transparent.png,100,8,0,8,0,1,,,,,,,,,,
,,,,63b744d6c92e283f8b15993a,A,2024-05-20_12h15.28.491,Slot Machine Game,2023.1.3,MacIntel,2.857959417,,,,,,,,,,,,,,,,,,,,,,,,,,,820,,,,,,,,,,,,,,,,,,,,,1,1,,,307.101,9,up,0.0341,,1.5,0.3,"[2,1,3]",0.633064482,stimuli/card_100_transparent.png,100,9,0,9,0,1,,,,,,,,,,
,,,,63b744d6c92e283f8b15993a,A,2024-05-20_12h15.28.491,Slot Machine Game,2023.1.3,MacIntel,2.857959417,,,,,,,,,,,,,,,,,,,,,,,,,,,920,,,,,,,,,,,,,,,,,,,,,1,1,,,310.0392,10,up,0.0389,9.99999E-05,0.5,0.3,"[2,1,3]",0.388275621,stimuli/card_100_transparent.png,100,10,0,10,0,1,,,,,,,,,,
,,,,63b744d6c92e283f8b15993a,A,2024-05-20_12h15.28.491,Slot Machine Game,2023.1.3,MacIntel,2.857959417,,,,,,,,,,,,,,,,,,,,,,,,,,,1020,,,,,,,,,,,,,,,,,,,,,1,1,,,311.8686,11,up,0.0385,9.99999E-05,1,0.3,"[2,1,3]",0.910257958,stimuli/card_100_transparent.png,100,11,0,11,0,1,,,,,,,,,,
,,,,63b744d6c92e283f8b15993a,A,2024-05-20_12h15.28.491,Slot Machine Game,2023.1.3,MacIntel,2.857959417,,,,,,,,,,,,,,,,,,,,,,,,,,,1020,,,,,,,,,,,,,,,,,,,,,1,1,,,314.0922,12,up,0.0354,9.99999E-05,1.5,0.3,"[2,3,1]",0.612470581,stimuli/card_0_transparent.png,0,12,0,12,0,1,,,,,,,,,,
,,,,63b744d6c92e283f8b15993a,A,2024-05-20_12h15.28.491,Slot Machine Game,2023.1.3,MacIntel,2.857959417,,,,,,,,,,,,,,,,,,,,,,,,,,,1120,,,,,,,,,,,,,,,,,,,,,1,1,,,317.1008,13,right,0.3961,,1,0.3,"[2,3,1]",0.538474645,stimuli/card_100_transparent.png,100,13,0,13,0,1,,,,,,,,,,
,,,,63b744d6c92e283f8b15993a,A,2024-05-20_12h15.28.491,Slot Machine Game,2023.1.3,MacIntel,2.857959417,,,,,,,,,,,,,,,,,,,,,,,,,,,1130,,,,,,,,,,,,,,,,,,,,,1,1,,,319.346,14,right,0.7783,0,1,0.3,"[2,3,1]",0.11753452,stimuli/card_10_transparent.png,10,14,0,14,0,1,,,,,,,,,,
,,,,63b744d6c92e283f8b15993a,A,2024-05-20_12h15.28.491,Slot Machine Game,2023.1.3,MacIntel,2.857959417,,,,,,,,,,,,,,,,,,,,,,,,,,,,,,,,,,,321.995,,,,,,,,,,,,,,,,,,,,,,,,,,,,,,,,,[1130],0,0,0,0,1,,,,
,,,,63b744d6c92e283f8b15993a,A,2024-05-20_12h15.28.491,Slot Machine Game,2023.1.3,MacIntel,2.857959417,,,,,,,,,,,,,,,,,,,,,,,,,,,100,,,,,,,,,,,,,,,,,,,,,2,5,"[5,15]","[[1,2,3],[3,1,2]]",327.0428,0,left,0.3967,0.0001,1,0.3,"[1,2,3]",0.648231491,stimuli/card_100_transparent.png,100,0,0,0,0,1,,,,,,,,,,
,,,,63b744d6c92e283f8b15993a,A,2024-05-20_12h15.28.491,Slot Machine Game,2023.1.3,MacIntel,2.857959417,,,,,,,,,,,,,,,,,,,,,,,,,,,200,,,,,,,,,,,,,,,,,,,,,2,5,,,329.5825,1,left,0.3901,0.0001,1,0.3,"[1,2,3]",0.752275729,stimuli/card_100_transparent.png,100,1,0,1,0,1,,,,,,,,,,
,,,,63b744d6c92e283f8b15993a,A,2024-05-20_12h15.28.491,Slot Machine Game,2023.1.3,MacIntel,2.857959417,,,,,,,,,,,,,,,,,,,,,,,,,,,300,,,,,,,,,,,,,,,,,,,,,2,5,,,332.1343,2,left,0.0396,,0.5,0.3,"[1,2,3]",0.305801691,stimuli/card_100_transparent.png,100,2,0,2,0,1,,,,,,,,,,
,,,,63b744d6c92e283f8b15993a,A,2024-05-20_12h15.28.491,Slot Machine Game,2023.1.3,MacIntel,2.857959417,,,,,,,,,,,,,,,,,,,,,,,,,,,400,,,,,,,,,,,,,,,,,,,,,2,5,,,333.9602,3,left,0.0348,0,1,0.3,"[1,2,3]",0.862686982,stimuli/card_100_transparent.png,100,3,0,3,0,1,,,,,,,,,,
,,,,63b744d6c92e283f8b15993a,A,2024-05-20_12h15.28.491,Slot Machine Game,2023.1.3,MacIntel,2.857959417,,,,,,,,,,,,,,,,,,,,,,,,,,,500,,,,,,,,,,,,,,,,,,,,,2,5,,,336.1694,4,left,0.0393,,1.5,0.3,"[1,2,3]",0.539755773,stimuli/card_100_transparent.png,100,4,0,4,0,1,,,,,,,,,,
,,,,63b744d6c92e283f8b15993a,A,2024-05-20_12h15.28.491,Slot Machine Game,2023.1.3,MacIntel,2.857959417,,,,,,,,,,,,,,,,,,,,,,,,,,,500,,,,,,,,,,,,,,,,,,,,,2,5,,,339.085,5,left,0.0351,9.99999E-05,1,0.3,"[3,1,2]",0.671055974,stimuli/card_0_transparent.png,0,5,0,5,0,1,,,,,,,,,,
,,,,63b744d6c92e283f8b15993a,A,2024-05-20_12h15.28.491,Slot Machine Game,2023.1.3,MacIntel,2.857959417,,,,,,,,,,,,,,,,,,,,,,,,,,,500,,,,,,,,,,,,,,,,,,,,,2,5,,,341.3189,6,left,0.0397,0,1.5,0.3,"[3,1,2]",0.904980645,stimuli/card_0_transparent.png,0,6,0,6,0,1,,,,,,,,,,
,,,,63b744d6c92e283f8b15993a,A,2024-05-20_12h15.28.491,Slot Machine Game,2023.1.3,MacIntel,2.857959417,,,,,,,,,,,,,,,,,,,,,,,,,,,500,,,,,,,,,,,,,,,,,,,,,2,5,,,344.2978,7,up,0.0339,9.99999E-05,1.5,0.3,"[3,1,2]",0.018105513,stimuli/card_0_transparent.png,0,7,0,7,0,1,,,,,,,,,,
,,,,63b744d6c92e283f8b15993a,A,2024-05-20_12h15.28.491,Slot Machine Game,2023.1.3,MacIntel,2.857959417,,,,,,,,,,,,,,,,,,,,,,,,,,,510,,,,,,,,,,,,,,,,,,,,,2,5,,,347.2625,8,right,0.0325,,1.5,0.3,"[3,1,2]",0.284082291,stimuli/card_10_transparent.png,10,8,0,8,0,1,,,,,,,,,,
,,,,63b744d6c92e283f8b15993a,A,2024-05-20_12h15.28.491,Slot Machine Game,2023.1.3,MacIntel,2.857959417,,,,,,,,,,,,,,,,,,,,,,,,,,,520,,,,,,,,,,,,,,,,,,,,,2,5,,,350.2441,9,right,0.0416,0.0002,0.5,0.3,"[3,1,2]",0.311763562,stimuli/card_10_transparent.png,10,9,0,9,0,1,,,,,,,,,,
,,,,63b744d6c92e283f8b15993a,A,2024-05-20_12h15.28.491,Slot Machine Game,2023.1.3,MacIntel,2.857959417,,,,,,,,,,,,,,,,,,,,,,,,,,,530,,,,,,,,,,,,,,,,,,,,,2,5,,,352.0995,10,up,0.0397,9.99999E-05,1.5,0.3,"[3,1,2]",0.131175956,stimuli/card_10_transparent.png,10,10,0,10,0,1,,,,,,,,,,
,,,,63b744d6c92e283f8b15993a,A,2024-05-20_12h15.28.491,Slot Machine Game,2023.1.3,MacIntel,2.857959417,,,,,,,,,,,,,,,,,,,,,,,,,,,630,,,,,,,,,,,,,,,,,,,,,2,5,,,355.0086,11,up,0.0391,0.0002,0.5,0.3,"[3,1,2]",0.747574748,stimuli/card_100_transparent.png,100,11,0,11,0,1,,,,,,,,,,
,,,,63b744d6c92e283f8b15993a,A,2024-05-20_12h15.28.491,Slot Machine Game,2023.1.3,MacIntel,2.857959417,,,,,,,,,,,,,,,,,,,,,,,,,,,730,,,,,,,,,,,,,,,,,,,,,2,5,,,356.8295,12,up,0.0312,,1.5,0.3,"[3,1,2]",0.859342076,stimuli/card_100_transparent.png,100,12,0,12,0,1,,,,,,,,,,
,,,,63b744d6c92e283f8b15993a,A,2024-05-20_12h15.28.491,Slot Machine Game,2023.1.3,MacIntel,2.857959417,,,,,,,,,,,,,,,,,,,,,,,,,,,830,,,,,,,,,,,,,,,,,,,,,2,5,,,359.8008,13,up,0.0332,0.0002,1,0.3,"[3,1,2]",0.681403769,stimuli/card_100_transparent.png,100,13,0,13,0,1,,,,,,,,,,
,,,,63b744d6c92e283f8b15993a,A,2024-05-20_12h15.28.491,Slot Machine Game,2023.1.3,MacIntel,2.857959417,,,,,,,,,,,,,,,,,,,,,,,,,,,930,,,,,,,,,,,,,,,,,,,,,2,5,,,362.0028,14,up,1.1095,,1,0.3,"[3,1,2]",0.966960784,stimuli/card_100_transparent.png,100,14,0,14,0,1,,,,,,,,,,
,,,,63b744d6c92e283f8b15993a,A,2024-05-20_12h15.28.491,Slot Machine Game,2023.1.3,MacIntel,2.857959417,,,,,,,,,,,,,,,,,,,,,,,,,,,,,,,,,,,365.3158,,,,,,,,,,,,,,,,,,,,,,,,,,,,,,,,,"[1130,930]",1,0,1,0,1,,,,
,,,,63b744d6c92e283f8b15993a,A,2024-05-20_12h15.28.491,Slot Machine Game,2023.1.3,MacIntel,2.857959417,,,,,,,,,,,,,,,,,,,,,,,,,,,100,,,,,,,,,,,,,,,,,,,,,3,7,"[9,15]","[[1,3,2],[2,3,1]]",370.0726,0,left,0.0334,,1.5,0.3,"[1,3,2]",0.683731499,stimuli/card_100_transparent.png,100,0,0,0,0,1,,,,,,,,,,
,,,,63b744d6c92e283f8b15993a,A,2024-05-20_12h15.28.491,Slot Machine Game,2023.1.3,MacIntel,2.857959417,,,,,,,,,,,,,,,,,,,,,,,,,,,200,,,,,,,,,,,,,,,,,,,,,3,7,,,373.0297,1,left,0.0323,9.99999E-05,1,0.3,"[1,3,2]",0.446361145,stimuli/card_100_transparent.png,100,1,0,1,0,1,,,,,,,,,,
,,,,63b744d6c92e283f8b15993a,A,2024-05-20_12h15.28.491,Slot Machine Game,2023.1.3,MacIntel,2.857959417,,,,,,,,,,,,,,,,,,,,,,,,,,,300,,,,,,,,,,,,,,,,,,,,,3,7,,,375.2639,2,left,0.0377,9.99999E-05,1,0.3,"[1,3,2]",0.595736453,stimuli/card_100_transparent.png,100,2,0,2,0,1,,,,,,,,,,
,,,,63b744d6c92e283f8b15993a,A,2024-05-20_12h15.28.491,Slot Machine Game,2023.1.3,MacIntel,2.857959417,,,,,,,,,,,,,,,,,,,,,,,,,,,400,,,,,,,,,,,,,,,,,,,,,3,7,,,377.4617,3,left,1.4991,9.99999E-05,1.5,0.3,"[1,3,2]",0.852608584,stimuli/card_100_transparent.png,100,3,0,3,0,1,,,,,,,,,,
,,,,63b744d6c92e283f8b15993a,A,2024-05-20_12h15.28.491,Slot Machine Game,2023.1.3,MacIntel,2.857959417,,,,,,,,,,,,,,,,,,,,,,,,,,,410,,,,,,,,,,,,,,,,,,,,,3,7,,,381.9612,4,left,0.0328,0,0.5,0.3,"[1,3,2]",0.116032584,stimuli/card_10_transparent.png,10,4,0,4,0,1,,,,,,,,,,
,,,,63b744d6c92e283f8b15993a,A,2024-05-20_12h15.28.491,Slot Machine Game,2023.1.3,MacIntel,2.857959417,,,,,,,,,,,,,,,,,,,,,,,,,,,510,,,,,,,,,,,,,,,,,,,,,3,7,,,383.8098,5,left,0.0379,0,0.5,0.3,"[1,3,2]",0.562749012,stimuli/card_100_transparent.png,100,5,0,5,0,1,,,,,,,,,,
,,,,63b744d6c92e283f8b15993a,A,2024-05-20_12h15.28.491,Slot Machine Game,2023.1.3,MacIntel,2.857959417,,,,,,,,,,,,,,,,,,,,,,,,,,,610,,,,,,,,,,,,,,,,,,,,,3,7,,,385.6617,6,left,0.0377,,0.5,0.3,"[1,3,2]",0.994695471,stimuli/card_100_transparent.png,100,6,0,6,0,1,,,,,,,,,,
,,,,63b744d6c92e283f8b15993a,A,2024-05-20_12h15.28.491,Slot Machine Game,2023.1.3,MacIntel,2.857959417,,,,,,,,,,,,,,,,,,,,,,,,,,,710,,,,,,,,,,,,,,,,,,,,,3,7,,,387.5109,7,left,0.0397,0.0001,1,0.3,"[1,3,2]",0.651422265,stimuli/card_100_transparent.png,100,7,0,7,0,1,,,,,,,,,,
,,,,63b744d6c92e283f8b15993a,A,2024-05-20_12h15.28.491,Slot Machine Game,2023.1.3,MacIntel,2.857959417,,,,,,,,,,,,,,,,,,,,,,,,,,,810,,,,,,,,,,,,,,,,,,,,,3,7,,,389.3483,8,left,0.4338,0.0001,1.5,0.3,"[1,3,2]",0.687024708,stimuli/card_100_transparent.png,100,8,0,8,0,1,,,,,,,,,,
,,,,63b744d6c92e283f8b15993a,A,2024-05-20_12h15.28.491,Slot Machine Game,2023.1.3,MacIntel,2.857959417,,,,,,,,,,,,,,,,,,,,,,,,,,,810,,,,,,,,,,,,,,,,,,,,,3,7,,,392.152,9,up,0.4319,9.99999E-05,0.5,0.3,"[2,3,1]",0.307883006,stimuli/card_0_transparent.png,0,9,0,9,0,1,,,,,,,,,,
,,,,63b744d6c92e283f8b15993a,A,2024-05-20_12h15.28.491,Slot Machine Game,2023.1.3,MacIntel,2.857959417,,,,,,,,,,,,,,,,,,,,,,,,,,,810,,,,,,,,,,,,,,,,,,,,,3,7,,,394.1998,10,up,0.4102,9.99999E-05,1.5,0.3,"[2,3,1]",0.713216814,stimuli/card_0_transparent.png,0,10,0,10,0,1,,,,,,,,,,
,,,,63b744d6c92e283f8b15993a,A,2024-05-20_12h15.28.491,Slot Machine Game,2023.1.3,MacIntel,2.857959417,,,,,,,,,,,,,,,,,,,,,,,,,,,910,,,,,,,,,,,,,,,,,,,,,3,7,,,397.5569,11,right,0.0382,0,1.5,0.3,"[2,3,1]",0.984274591,stimuli/card_100_transparent.png,100,11,0,11,0,1,,,,,,,,,,
,,,,63b744d6c92e283f8b15993a,A,2024-05-20_12h15.28.491,Slot Machine Game,2023.1.3,MacIntel,2.857959417,,,,,,,,,,,,,,,,,,,,,,,,,,,1010,,,,,,,,,,,,,,,,,,,,,3,7,,,400.1812,12,right,0.3949,,1.5,0.3,"[2,3,1]",0.476376703,stimuli/card_100_transparent.png,100,12,0,12,0,1,,,,,,,,,,
,,,,63b744d6c92e283f8b15993a,A,2024-05-20_12h15.28.491,Slot Machine Game,2023.1.3,MacIntel,2.857959417,,,,,,,,,,,,,,,,,,,,,,,,,,,1110,,,,,,,,,,,,,,,,,,,,,3,7,,,403.5337,13,right,0.0408,,0.5,0.3,"[2,3,1]",0.28324809,stimuli/card_100_transparent.png,100,13,0,13,0,1,,,,,,,,,,
,,,,63b744d6c92e283f8b15993a,A,2024-05-20_12h15.28.491,Slot Machine Game,2023.1.3,MacIntel,2.857959417,,,,,,,,,,,,,,,,,,,,,,,,,,,1210,,,,,,,,,,,,,,,,,,,,,3,7,,,405.4013,14,right,0.0381,,0.5,0.3,"[2,3,1]",0.322769204,stimuli/card_100_transparent.png,100,14,0,14,0,1,,,,,,,,,,
,,,,63b744d6c92e283f8b15993a,A,2024-05-20_12h15.28.491,Slot Machine Game,2023.1.3,MacIntel,2.857959417,,,,,,,,,,,,,,,,,,,,,,,,,,,,,,,,,,,407.2069,,,,,,,,,,,,,,,,,,,,,,,,,,,,,,,,,"[1130,930,1210]",2,0,2,0,1,,,,
,,,,63b744d6c92e283f8b15993a,A,2024-05-20_12h15.28.491,Slot Machine Game,2023.1.3,MacIntel,2.857959417,,,,,,,,,,,,,,,,,,,,,,,,,,,10,,,,,,,,,,,,,,,,,,,,,4,4,"[7,15]","[[2,3,1],[1,2,3]]",412.0258,0,left,0.4198,0.0001,0.5,0.3,"[2,3,1]",0.480816026,stimuli/card_10_transparent.png,10,0,0,0,0,1,,,,,,,,,,
,,,,63b744d6c92e283f8b15993a,A,2024-05-20_12h15.28.491,Slot Machine Game,2023.1.3,MacIntel,2.857959417,,,,,,,,,,,,,,,,,,,,,,,,,,,20,,,,,,,,,,,,,,,,,,,,,4,4,,,414.2458,1,left,0.0343,9.99999E-05,1,0.3,"[2,3,1]",0.892766233,stimuli/card_10_transparent.png,10,1,0,1,0,1,,,,,,,,,,
,,,,63b744d6c92e283f8b15993a,A,2024-05-20_12h15.28.491,Slot Machine Game,2023.1.3,MacIntel,2.857959417,,,,,,,,,,,,,,,,,,,,,,,,,,,30,,,,,,,,,,,,,,,,,,,,,4,4,,,416.1189,2,up,0.4296,9.99999E-05,0.5,0.3,"[2,3,1]",0.117444017,stimuli/card_10_transparent.png,10,2,0,2,0,1,,,,,,,,,,
,,,,63b744d6c92e283f8b15993a,A,2024-05-20_12h15.28.491,Slot Machine Game,2023.1.3,MacIntel,2.857959417,,,,,,,,,,,,,,,,,,,,,,,,,,,30,,,,,,,,,,,,,,,,,,,,,4,4,,,418.3324,3,up,0.0398,0,0.5,0.3,"[2,3,1]",0.652926987,stimuli/card_0_transparent.png,0,3,0,3,0,1,,,,,,,,,,
,,,,63b744d6c92e283f8b15993a,A,2024-05-20_12h15.28.491,Slot Machine Game,2023.1.3,MacIntel,2.857959417,,,,,,,,,,,,,,,,,,,,,,,,,,,30,,,,,,,,,,,,,,,,,,,,,4,4,,,420.1675,4,right,1.8402,0.0001,0.5,0.3,"[2,3,1]",0.029045568,stimuli/card_0_transparent.png,0,4,0,4,0,1,,,,,,,,,,
,,,,63b744d6c92e283f8b15993a,A,2024-05-20_12h15.28.491,Slot Machine Game,2023.1.3,MacIntel,2.857959417,,,,,,,,,,,,,,,,,,,,,,,,,,,130,,,,,,,,,,,,,,,,,,,,,4,4,,,423.7988,5,right,0.0387,9.99999E-05,1.5,0.3,"[2,3,1]",0.313131918,stimuli/card_100_transparent.png,100,5,0,5,0,1,,,,,,,,,,
,,,,63b744d6c92e283f8b15993a,A,2024-05-20_12h15.28.491,Slot Machine Game,2023.1.3,MacIntel,2.857959417,,,,,,,,,,,,,,,,,,,,,,,,,,,230,,,,,,,,,,,,,,,,,,,,,4,4,,,426.7607,6,right,0.0332,0,1.5,0.3,"[2,3,1]",0.747019067,stimuli/card_100_transparent.png,100,6,0,6,0,1,,,,,,,,,,
,,,,63b744d6c92e283f8b15993a,A,2024-05-20_12h15.28.491,Slot Machine Game,2023.1.3,MacIntel,2.857959417,,,,,,,,,,,,,,,,,,,,,,,,,,,230,,,,,,,,,,,,,,,,,,,,,4,4,,,429.7434,7,right,1.8681,9.99999E-05,1.5,0.3,"[1,2,3]",0.957332562,stimuli/card_0_transparent.png,0,7,0,7,0,1,,,,,,,,,,
,,,,63b744d6c92e283f8b15993a,A,2024-05-20_12h15.28.491,Slot Machine Game,2023.1.3,MacIntel,2.857959417,,,,,,,,,,,,,,,,,,,,,,,,,,,330,,,,,,,,,,,,,,,,,,,,,4,4,,,434.1721,8,right,0.8042,9.99999E-05,1,0.3,"[1,2,3]",0.035179659,stimuli/card_100_transparent.png,100,8,0,8,0,1,,,,,,,,,,
,,,,63b744d6c92e283f8b15993a,A,2024-05-20_12h15.28.491,Slot Machine Game,2023.1.3,MacIntel,2.857959417,,,,,,,,,,,,,,,,,,,,,,,,,,,330,,,,,,,,,,,,,,,,,,,,,4,4,,,437.1381,9,right,0.0391,9.99999E-05,0.5,0.3,"[1,2,3]",0.339289558,stimuli/card_0_transparent.png,0,9,0,9,0,1,,,,,,,,,,
,,,,63b744d6c92e283f8b15993a,A,2024-05-20_12h15.28.491,Slot Machine Game,2023.1.3,MacIntel,2.857959417,,,,,,,,,,,,,,,,,,,,,,,,,,,330,,,,,,,,,,,,,,,,,,,,,4,4,,,438.9755,10,right,0.0351,,0.5,0.3,"[1,2,3]",0.846915446,stimuli/card_0_transparent.png,0,10,0,10,0,1,,,,,,,,,,
,,,,63b744d6c92e283f8b15993a,A,2024-05-20_12h15.28.491,Slot Machine Game,2023.1.3,MacIntel,2.857959417,,,,,,,,,,,,,,,,,,,,,,,,,,,430,,,,,,,,,,,,,,,,,,,,,4,4,,,440.8218,11,left,0.0413,9.99999E-05,1,0.3,"[1,2,3]",0.961242154,stimuli/card_100_transparent.png,100,11,0,11,0,1,,,,,,,,,,
,,,,63b744d6c92e283f8b15993a,A,2024-05-20_12h15.28.491,Slot Machine Game,2023.1.3,MacIntel,2.857959417,,,,,,,,,,,,,,,,,,,,,,,,,,,430,,,,,,,,,,,,,,,,,,,,,4,4,,,443.0651,12,left,0.0391,,0.5,0.3,"[1,2,3]",0.031224216,stimuli/card_0_transparent.png,0,12,0,12,0,1,,,,,,,,,,
,,,,63b744d6c92e283f8b15993a,A,2024-05-20_12h15.28.491,Slot Machine Game,2023.1.3,MacIntel,2.857959417,,,,,,,,,,,,,,,,,,,,,,,,,,,530,,,,,,,,,,,,,,,,,,,,,4,4,,,444.8869,13,left,0.036,9.99999E-05,0.5,0.3,"[1,2,3]",0.905480483,stimuli/card_100_transparent.png,100,13,0,13,0,1,,,,,,,,,,
,,,,63b744d6c92e283f8b15993a,A,2024-05-20_12h15.28.491,Slot Machine Game,2023.1.3,MacIntel,2.857959417,,,,,,,,,,,,,,,,,,,,,,,,,,,630,,,,,,,,,,,,,,,,,,,,,4,4,,,446.7267,14,left,0.034,,1,0.3,"[1,2,3]",0.679949021,stimuli/card_100_transparent.png,100,14,0,14,0,1,,,,,,,,,,
,,,,63b744d6c92e283f8b15993a,A,2024-05-20_12h15.28.491,Slot Machine Game,2023.1.3,MacIntel,2.857959417,,,,,,,,,,,,,,,,,,,,,,,,,,,,,,,,,,,448.9815,,,,,,,,,,,,,,,,,,,,,,,,,,,,,,,,,"[1130,930,1210,630]",3,0,3,0,1,,,,
,,,,63b744d6c92e283f8b15993a,A,2024-05-20_12h15.28.491,Slot Machine Game,2023.1.3,MacIntel,2.857959417,,,,,,,,,,,,,,,,,,,,,,,,,,,10,,,,,,,,,,,,,,,,,,,,,5,6,"[4,10,15]","[[2,3,1],[1,3,2],[3,2,1]]",454.0472,0,left,0.0405,,1.5,0.3,"[2,3,1]",0.676529965,stimuli/card_10_transparent.png,10,0,0,0,0,1,,,,,,,,,,
,,,,63b744d6c92e283f8b15993a,A,2024-05-20_12h15.28.491,Slot Machine Game,2023.1.3,MacIntel,2.857959417,,,,,,,,,,,,,,,,,,,,,,,,,,,20,,,,,,,,,,,,,,,,,,,,,5,6,,,456.971,1,left,0.0346,0,1,0.3,"[2,3,1]",0.214955063,stimuli/card_10_transparent.png,10,1,0,1,0,1,,,,,,,,,,
,,,,63b744d6c92e283f8b15993a,A,2024-05-20_12h15.28.491,Slot Machine Game,2023.1.3,MacIntel,2.857959417,,,,,,,,,,,,,,,,,,,,,,,,,,,20,,,,,,,,,,,,,,,,,,,,,5,6,,,459.5829,2,up,1.9376,9.99999E-05,1,0.3,"[2,3,1]",0.479736662,stimuli/card_0_transparent.png,0,2,0,2,0,1,,,,,,,,,,
,,,,63b744d6c92e283f8b15993a,A,2024-05-20_12h15.28.491,Slot Machine Game,2023.1.3,MacIntel,2.857959417,,,,,,,,,,,,,,,,,,,,,,,,,,,30,,,,,,,,,,,,,,,,,,,,,5,6,,,463.706,3,up,0.0401,,0.5,0.3,"[2,3,1]",0.184379637,stimuli/card_10_transparent.png,10,3,0,3,0,1,,,,,,,,,,
,,,,63b744d6c92e283f8b15993a,A,2024-05-20_12h15.28.491,Slot Machine Game,2023.1.3,MacIntel,2.857959417,,,,,,,,,,,,,,,,,,,,,,,,,,,40,,,,,,,,,,,,,,,,,,,,,5,6,,,465.5114,4,right,0.0399,0.0001,1,0.3,"[1,3,2]",0.895149062,stimuli/card_10_transparent.png,10,4,0,4,0,1,,,,,,,,,,
,,,,63b744d6c92e283f8b15993a,A,2024-05-20_12h15.28.491,Slot Machine Game,2023.1.3,MacIntel,2.857959417,,,,,,,,,,,,,,,,,,,,,,,,,,,50,,,,,,,,,,,,,,,,,,,,,5,6,,,467.7156,5,right,0.0386,0.0002,0.5,0.3,"[1,3,2]",0.971934384,stimuli/card_10_transparent.png,10,5,0,5,0,1,,,,,,,,,,
,,,,63b744d6c92e283f8b15993a,A,2024-05-20_12h15.28.491,Slot Machine Game,2023.1.3,MacIntel,2.857959417,,,,,,,,,,,,,,,,,,,,,,,,,,,150,,,,,,,,,,,,,,,,,,,,,5,6,,,469.557,6,left,0.3949,0.0002,0.5,0.3,"[1,3,2]",0.299881045,stimuli/card_100_transparent.png,100,6,0,6,0,1,,,,,,,,,,
,,,,63b744d6c92e283f8b15993a,A,2024-05-20_12h15.28.491,Slot Machine Game,2023.1.3,MacIntel,2.857959417,,,,,,,,,,,,,,,,,,,,,,,,,,,250,,,,,,,,,,,,,,,,,,,,,5,6,,,471.7523,7,left,0.0414,0.0001,1.5,0.3,"[1,3,2]",0.548214583,stimuli/card_100_transparent.png,100,7,0,7,0,1,,,,,,,,,,
,,,,63b744d6c92e283f8b15993a,A,2024-05-20_12h15.28.491,Slot Machine Game,2023.1.3,MacIntel,2.857959417,,,,,,,,,,,,,,,,,,,,,,,,,,,350,,,,,,,,,,,,,,,,,,,,,5,6,,,474.3667,8,left,1.0932,,1,0.3,"[1,3,2]",0.631860408,stimuli/card_100_transparent.png,100,8,0,8,0,1,,,,,,,,,,
,,,,63b744d6c92e283f8b15993a,A,2024-05-20_12h15.28.491,Slot Machine Game,2023.1.3,MacIntel,2.857959417,,,,,,,,,,,,,,,,,,,,,,,,,,,450,,,,,,,,,,,,,,,,,,,,,5,6,,,477.5814,9,left,0.0353,9.99999E-05,1,0.3,"[1,3,2]",0.303517304,stimuli/card_100_transparent.png,100,9,0,9,0,1,,,,,,,,,,
,,,,63b744d6c92e283f8b15993a,A,2024-05-20_12h15.28.491,Slot Machine Game,2023.1.3,MacIntel,2.857959417,,,,,,,,,,,,,,,,,,,,,,,,,,,450,,,,,,,,,,,,,,,,,,,,,5,6,,,479.7564,10,left,0.0341,0.0001,1,0.3,"[3,2,1]",0.926603415,stimuli/card_0_transparent.png,0,10,0,10,0,1,,,,,,,,,,
,,,,63b744d6c92e283f8b15993a,A,2024-05-20_12h15.28.491,Slot Machine Game,2023.1.3,MacIntel,2.857959417,,,,,,,,,,,,,,,,,,,,,,,,,,,450,,,,,,,,,,,,,,,,,,,,,5,6,,,481.9701,11,left,0.41,0.0001,1,0.3,"[3,2,1]",0.461605431,stimuli/card_0_transparent.png,0,11,0,11,0,1,,,,,,,,,,
,,,,63b744d6c92e283f8b15993a,A,2024-05-20_12h15.28.491,Slot Machine Game,2023.1.3,MacIntel,2.857959417,,,,,,,,,,,,,,,,,,,,,,,,,,,460,,,,,,,,,,,,,,,,,,,,,5,6,,,484.5258,12,up,0.033,0,0.5,0.3,"[3,2,1]",0.782247608,stimuli/card_10_transparent.png,10,12,0,12,0,1,,,,,,,,,,
,,,,63b744d6c92e283f8b15993a,A,2024-05-20_12h15.28.491,Slot Machine Game,2023.1.3,MacIntel,2.857959417,,,,,,,,,,,,,,,,,,,,,,,,,,,470,,,,,,,,,,,,,,,,,,,,,5,6,,,486.3806,13,up,0.0348,,1,0.3,"[3,2,1]",0.758606599,stimuli/card_10_transparent.png,10,13,0,13,0,1,,,,,,,,,,
,,,,63b744d6c92e283f8b15993a,A,2024-05-20_12h15.28.491,Slot Machine Game,2023.1.3,MacIntel,2.857959417,,,,,,,,,,,,,,,,,,,,,,,,,,,480,,,,,,,,,,,,,,,,,,,,,5,6,,,488.6302,14,right,0.0382,0.0001,0.5,0.3,"[3,2,1]",0.183255658,stimuli/card_10_transparent.png,10,14,0,14,0,1,,,,,,,,,,
,,,,63b744d6c92e283f8b15993a,A,2024-05-20_12h15.28.491,Slot Machine Game,2023.1.3,MacIntel,2.857959417,,,,,,,,,,,,,,,,,,,,,,,,,,,,,,,,,,,490.4521,,,,,,,,,,,,,,,,,,,,,,,,,,,,,,,,,"[1130,930,1210,630,480]",4,0,4,0,1,,,,
,,,,63b744d6c92e283f8b15993a,A,2024-05-20_12h15.28.491,Slot Machine Game,2023.1.3,MacIntel,2.857959417,,,,,,,,,,,,,,,,,,,,,,,,,,,0,,,,,,,,,,,,,,,,,,,,,6,8,"[11,15]","[[2,1,3],[1,2,3]]",495.2436,0,left,0.0366,0.0001,1,0.3,"[2,1,3]",0.05350953,stimuli/card_0_transparent.png,0,0,0,0,0,1,,,,,,,,,,
,,,,63b744d6c92e283f8b15993a,A,2024-05-20_12h15.28.491,Slot Machine Game,2023.1.3,MacIntel,2.857959417,,,,,,,,,,,,,,,,,,,,,,,,,,,10,,,,,,,,,,,,,,,,,,,,,6,8,,,497.0884,1,left,0.3953,0.0002,1,0.3,"[2,1,3]",0.277464417,stimuli/card_10_transparent.png,10,1,0,1,0,1,,,,,,,,,,
,,,,63b744d6c92e283f8b15993a,A,2024-05-20_12h15.28.491,Slot Machine Game,2023.1.3,MacIntel,2.857959417,,,,,,,,,,,,,,,,,,,,,,,,,,,110,,,,,,,,,,,,,,,,,,,,,6,8,,,499.6741,2,up,0.0338,9.99999E-05,1,0.3,"[2,1,3]",0.97443701,stimuli/card_100_transparent.png,100,2,0,2,0,1,,,,,,,,,,
,,,,63b744d6c92e283f8b15993a,A,2024-05-20_12h15.28.491,Slot Machine Game,2023.1.3,MacIntel,2.857959417,,,,,,,,,,,,,,,,,,,,,,,,,,,110,,,,,,,,,,,,,,,,,,,,,6,8,,,501.9065,3,up,0.0325,0,1,0.3,"[2,1,3]",0.015299756,stimuli/card_0_transparent.png,0,3,0,3,0,1,,,,,,,,,,
,,,,63b744d6c92e283f8b15993a,A,2024-05-20_12h15.28.491,Slot Machine Game,2023.1.3,MacIntel,2.857959417,,,,,,,,,,,,,,,,,,,,,,,,,,,210,,,,,,,,,,,,,,,,,,,,,6,8,,,503.7703,4,up,0.4539,0,1.5,0.3,"[2,1,3]",0.696425246,stimuli/card_100_transparent.png,100,4,0,4,0,1,,,,,,,,,,
,,,,63b744d6c92e283f8b15993a,A,2024-05-20_12h15.28.491,Slot Machine Game,2023.1.3,MacIntel,2.857959417,,,,,,,,,,,,,,,,,,,,,,,,,,,220,,,,,,,,,,,,,,,,,,,,,6,8,,,507.1613,5,up,0.0412,9.99999E-05,1.5,0.3,"[2,1,3]",0.130404623,stimuli/card_10_transparent.png,10,5,0,5,0,1,,,,,,,,,,
,,,,63b744d6c92e283f8b15993a,A,2024-05-20_12h15.28.491,Slot Machine Game,2023.1.3,MacIntel,2.857959417,,,,,,,,,,,,,,,,,,,,,,,,,,,230,,,,,,,,,,,,,,,,,,,,,6,8,,,510.1042,6,up,1.8538,0.0001,1,0.3,"[2,1,3]",0.140450196,stimuli/card_10_transparent.png,10,6,0,6,0,1,,,,,,,,,,
,,,,63b744d6c92e283f8b15993a,A,2024-05-20_12h15.28.491,Slot Machine Game,2023.1.3,MacIntel,2.857959417,,,,,,,,,,,,,,,,,,,,,,,,,,,230,,,,,,,,,,,,,,,,,,,,,6,8,,,514.1595,7,up,0.0424,9.99999E-05,1,0.3,"[2,1,3]",0.068852152,stimuli/card_0_transparent.png,0,7,0,7,0,1,,,,,,,,,,
,,,,63b744d6c92e283f8b15993a,A,2024-05-20_12h15.28.491,Slot Machine Game,2023.1.3,MacIntel,2.857959417,,,,,,,,,,,,,,,,,,,,,,,,,,,230,,,,,,,,,,,,,,,,,,,,,6,8,,,516.3529,8,right,1.4543,0.0002,1.5,0.3,"[2,1,3]",0.797274949,stimuli/card_0_transparent.png,0,8,0,8,0,1,,,,,,,,,,
,,,,63b744d6c92e283f8b15993a,A,2024-05-20_12h15.28.491,Slot Machine Game,2023.1.3,MacIntel,2.857959417,,,,,,,,,,,,,,,,,,,,,,,,,,,230,,,,,,,,,,,,,,,,,,,,,6,8,,,520.8263,9,right,1.8671,9.99999E-05,1.5,0.3,"[2,1,3]",0.475219051,stimuli/card_0_transparent.png,0,9,0,9,0,1,,,,,,,,,,
,,,,63b744d6c92e283f8b15993a,A,2024-05-20_12h15.28.491,Slot Machine Game,2023.1.3,MacIntel,2.857959417,,,,,,,,,,,,,,,,,,,,,,,,,,,240,,,,,,,,,,,,,,,,,,,,,6,8,,,525.7106,10,left,0.041,0.0001,0.5,0.3,"[2,1,3]",0.262024691,stimuli/card_10_transparent.png,10,10,0,10,0,1,,,,,,,,,,
,,,,63b744d6c92e283f8b15993a,A,2024-05-20_12h15.28.491,Slot Machine Game,2023.1.3,MacIntel,2.857959417,,,,,,,,,,,,,,,,,,,,,,,,,,,340,,,,,,,,,,,,,,,,,,,,,6,8,,,527.5665,11,left,0.0341,0.0001,0.5,0.3,"[1,2,3]",0.599252209,stimuli/card_100_transparent.png,100,11,0,11,0,1,,,,,,,,,,
,,,,63b744d6c92e283f8b15993a,A,2024-05-20_12h15.28.491,Slot Machine Game,2023.1.3,MacIntel,2.857959417,,,,,,,,,,,,,,,,,,,,,,,,,,,440,,,,,,,,,,,,,,,,,,,,,6,8,,,529.4078,12,left,0.0329,,1,0.3,"[1,2,3]",0.205599682,stimuli/card_100_transparent.png,100,12,0,12,0,1,,,,,,,,,,
,,,,63b744d6c92e283f8b15993a,A,2024-05-20_12h15.28.491,Slot Machine Game,2023.1.3,MacIntel,2.857959417,,,,,,,,,,,,,,,,,,,,,,,,,,,540,,,,,,,,,,,,,,,,,,,,,6,8,,,531.6555,13,left,0.035,9.99999E-05,1,0.3,"[1,2,3]",0.244347878,stimuli/card_100_transparent.png,100,13,0,13,0,1,,,,,,,,,,
,,,,63b744d6c92e283f8b15993a,A,2024-05-20_12h15.28.491,Slot Machine Game,2023.1.3,MacIntel,2.857959417,,,,,,,,,,,,,,,,,,,,,,,,,,,640,,,,,,,,,,,,,,,,,,,,,6,8,,,533.8902,14,left,0.0327,,0.5,0.3,"[1,2,3]",0.547661747,stimuli/card_100_transparent.png,100,14,0,14,0,1,,,,,,,,,,
,,,,63b744d6c92e283f8b15993a,A,2024-05-20_12h15.28.491,Slot Machine Game,2023.1.3,MacIntel,2.857959417,,,,,,,,,,,,,,,,,,,,,,,,,,,,,,,,,,,535.7273,,,,,,,,,,,,,,,,,,,,,,,,,,,,,,,,,"[1130,930,1210,630,480,640]",5,0,5,0,1,,,,
,,,,63b744d6c92e283f8b15993a,A,2024-05-20_12h15.28.491,Slot Machine Game,2023.1.3,MacIntel,2.857959417,,,,,,,,,,,,,,,,,,,,,,,,,,,100,,,,,,,,,,,,,,,,,,,,,7,9,"[8,15]","[[3,2,1],[3,1,2]]",540.5163,0,left,0.4076,0.0002,1,0.3,"[3,2,1]",0.030163148,stimuli/card_100_transparent.png,100,0,0,0,0,1,,,,,,,,,,
,,,,63b744d6c92e283f8b15993a,A,2024-05-20_12h15.28.491,Slot Machine Game,2023.1.3,MacIntel,2.857959417,,,,,,,,,,,,,,,,,,,,,,,,,,,100,,,,,,,,,,,,,,,,,,,,,7,9,,,543.117,1,left,0.0408,,1,0.3,"[3,2,1]",0.451135536,stimuli/card_0_transparent.png,0,1,0,1,0,1,,,,,,,,,,
,,,,63b744d6c92e283f8b15993a,A,2024-05-20_12h15.28.491,Slot Machine Game,2023.1.3,MacIntel,2.857959417,,,,,,,,,,,,,,,,,,,,,,,,,,,100,,,,,,,,,,,,,,,,,,,,,7,9,,,545.2738,2,left,0.0384,0,1,0.3,"[3,2,1]",0.950916759,stimuli/card_0_transparent.png,0,2,0,2,0,1,,,,,,,,,,
,,,,63b744d6c92e283f8b15993a,A,2024-05-20_12h15.28.491,Slot Machine Game,2023.1.3,MacIntel,2.857959417,,,,,,,,,,,,,,,,,,,,,,,,,,,110,,,,,,,,,,,,,,,,,,,,,7,9,,,547.4718,3,up,0.0376,9.99999E-05,0.5,0.3,"[3,2,1]",0.7553841,stimuli/card_10_transparent.png,10,3,0,3,0,1,,,,,,,,,,
,,,,63b744d6c92e283f8b15993a,A,2024-05-20_12h15.28.491,Slot Machine Game,2023.1.3,MacIntel,2.857959417,,,,,,,,,,,,,,,,,,,,,,,,,,,120,,,,,,,,,,,,,,,,,,,,,7,9,,,549.3095,4,up,0.0327,9.99999E-05,1.5,0.3,"[3,2,1]",0.465613163,stimuli/card_10_transparent.png,10,4,0,4,0,1,,,,,,,,,,
,,,,63b744d6c92e283f8b15993a,A,2024-05-20_12h15.28.491,Slot Machine Game,2023.1.3,MacIntel,2.857959417,,,,,,,,,,,,,,,,,,,,,,,,,,,120,,,,,,,,,,,,,,,,,,,,,7,9,,,552.2714,5,up,0.0397,,1,0.3,"[3,2,1]",0.035336248,stimuli/card_0_transparent.png,0,5,0,5,0,1,,,,,,,,,,
,,,,63b744d6c92e283f8b15993a,A,2024-05-20_12h15.28.491,Slot Machine Game,2023.1.3,MacIntel,2.857959417,,,,,,,,,,,,,,,,,,,,,,,,,,,130,,,,,,,,,,,,,,,,,,,,,7,9,,,554.1435,6,up,1.1508,0.0001,1.5,0.3,"[3,2,1]",0.232803048,stimuli/card_10_transparent.png,10,6,0,6,0,1,,,,,,,,,,
,,,,63b744d6c92e283f8b15993a,A,2024-05-20_12h15.28.491,Slot Machine Game,2023.1.3,MacIntel,2.857959417,,,,,,,,,,,,,,,,,,,,,,,,,,,230,,,,,,,,,,,,,,,,,,,,,7,9,,,557.8291,7,right,0.4036,0.0001,0.5,0.3,"[3,2,1]",0.875347685,stimuli/card_100_transparent.png,100,7,0,7,0,1,,,,,,,,,,
,,,,63b744d6c92e283f8b15993a,A,2024-05-20_12h15.28.491,Slot Machine Game,2023.1.3,MacIntel,2.857959417,,,,,,,,,,,,,,,,,,,,,,,,,,,240,,,,,,,,,,,,,,,,,,,,,7,9,,,560.0298,8,right,0.0385,,1,0.3,"[3,1,2]",0.321917863,stimuli/card_10_transparent.png,10,8,0,8,0,1,,,,,,,,,,
,,,,63b744d6c92e283f8b15993a,A,2024-05-20_12h15.28.491,Slot Machine Game,2023.1.3,MacIntel,2.857959417,,,,,,,,,,,,,,,,,,,,,,,,,,,250,,,,,,,,,,,,,,,,,,,,,7,9,,,561.976,9,right,0.4098,0.0002,1,0.3,"[3,1,2]",0.432903019,stimuli/card_10_transparent.png,10,9,0,9,0,1,,,,,,,,,,
,,,,63b744d6c92e283f8b15993a,A,2024-05-20_12h15.28.491,Slot Machine Game,2023.1.3,MacIntel,2.857959417,,,,,,,,,,,,,,,,,,,,,,,,,,,250,,,,,,,,,,,,,,,,,,,,,7,9,,,564.9305,10,left,0.0386,9.99999E-05,1,0.3,"[3,1,2]",0.32643155,stimuli/card_0_transparent.png,0,10,0,10,0,1,,,,,,,,,,
,,,,63b744d6c92e283f8b15993a,A,2024-05-20_12h15.28.491,Slot Machine Game,2023.1.3,MacIntel,2.857959417,,,,,,,,,,,,,,,,,,,,,,,,,,,250,,,,,,,,,,,,,,,,,,,,,7,9,,,567.1302,11,left,0.0413,0.0001,1,0.3,"[3,1,2]",0.861308584,stimuli/card_0_transparent.png,0,11,0,11,0,1,,,,,,,,,,
,,,,63b744d6c92e283f8b15993a,A,2024-05-20_12h15.28.491,Slot Machine Game,2023.1.3,MacIntel,2.857959417,,,,,,,,,,,,,,,,,,,,,,,,,,,350,,,,,,,,,,,,,,,,,,,,,7,9,,,569.3585,12,up,0.0327,9.99999E-05,1.5,0.3,"[3,1,2]",0.814269641,stimuli/card_100_transparent.png,100,12,0,12,0,1,,,,,,,,,,
,,,,63b744d6c92e283f8b15993a,A,2024-05-20_12h15.28.491,Slot Machine Game,2023.1.3,MacIntel,2.857959417,,,,,,,,,,,,,,,,,,,,,,,,,,,360,,,,,,,,,,,,,,,,,,,,,7,9,,,572.4026,13,up,0.0385,,1,0.3,"[3,1,2]",0.110151379,stimuli/card_10_transparent.png,10,13,0,13,0,1,,,,,,,,,,
,,,,63b744d6c92e283f8b15993a,A,2024-05-20_12h15.28.491,Slot Machine Game,2023.1.3,MacIntel,2.857959417,,,,,,,,,,,,,,,,,,,,,,,,,,,460,,,,,,,,,,,,,,,,,,,,,7,9,,,574.6037,14,up,0.0326,0.0001,1.5,0.3,"[3,1,2]",0.363400094,stimuli/card_100_transparent.png,100,14,0,14,0,1,,,,,,,,,,
,,,,63b744d6c92e283f8b15993a,A,2024-05-20_12h15.28.491,Slot Machine Game,2023.1.3,MacIntel,2.857959417,,,,,,,,,,,,,,,,,,,,,,,,,,,,,,,,,,,577.5487,,,,,,,,,,,,,,,,,,,,,,,,,,,,,,,,,"[1130,930,1210,630,480,640,460]",6,0,6,0,1,,,,
,,,,63b744d6c92e283f8b15993a,A,2024-05-20_12h15.28.491,Slot Machine Game,2023.1.3,MacIntel,2.857959417,,,,,,,,,,,,,,,,,,,,,,,,,,,0,,,,,,,,,,,,,,,,,,,,,8,2,"[6,15]","[[1,3,2],[3,2,1]]",582.6374,0,left,0.0397,,1,0.3,"[1,3,2]",0.074063278,stimuli/card_0_transparent.png,0,0,0,0,0,1,,,,,,,,,,
,,,,63b744d6c92e283f8b15993a,A,2024-05-20_12h15.28.491,Slot Machine Game,2023.1.3,MacIntel,2.857959417,,,,,,,,,,,,,,,,,,,,,,,,,,,100,,,,,,,,,,,,,,,,,,,,,8,2,,,584.8262,1,left,0.0406,9.99999E-05,1,0.3,"[1,3,2]",0.518952225,stimuli/card_100_transparent.png,100,1,0,1,0,1,,,,,,,,,,
,,,,63b744d6c92e283f8b15993a,A,2024-05-20_12h15.28.491,Slot Machine Game,2023.1.3,MacIntel,2.857959417,,,,,,,,,,,,,,,,,,,,,,,,,,,110,,,,,,,,,,,,,,,,,,,,,8,2,,,587.0221,2,left,0.0393,,1,0.3,"[1,3,2]",0.190778878,stimuli/card_10_transparent.png,10,2,0,2,0,1,,,,,,,,,,
,,,,63b744d6c92e283f8b15993a,A,2024-05-20_12h15.28.491,Slot Machine Game,2023.1.3,MacIntel,2.857959417,,,,,,,,,,,,,,,,,,,,,,,,,,,210,,,,,,,,,,,,,,,,,,,,,8,2,,,589.2322,3,left,0.0313,,1.5,0.3,"[1,3,2]",0.442107912,stimuli/card_100_transparent.png,100,3,0,3,0,1,,,,,,,,,,
,,,,63b744d6c92e283f8b15993a,A,2024-05-20_12h15.28.491,Slot Machine Game,2023.1.3,MacIntel,2.857959417,,,,,,,,,,,,,,,,,,,,,,,,,,,310,,,,,,,,,,,,,,,,,,,,,8,2,,,592.241,4,left,0.0331,0.0002,0.5,0.3,"[1,3,2]",0.982221331,stimuli/card_100_transparent.png,100,4,0,4,0,1,,,,,,,,,,
,,,,63b744d6c92e283f8b15993a,A,2024-05-20_12h15.28.491,Slot Machine Game,2023.1.3,MacIntel,2.857959417,,,,,,,,,,,,,,,,,,,,,,,,,,,410,,,,,,,,,,,,,,,,,,,,,8,2,,,594.1745,5,left,0.0328,9.99999E-05,1,0.3,"[1,3,2]",0.383968349,stimuli/card_100_transparent.png,100,5,0,5,0,1,,,,,,,,,,
,,,,63b744d6c92e283f8b15993a,A,2024-05-20_12h15.28.491,Slot Machine Game,2023.1.3,MacIntel,2.857959417,,,,,,,,,,,,,,,,,,,,,,,,,,,410,,,,,,,,,,,,,,,,,,,,,8,2,,,596.4038,6,left,2.1903,9.99999E-05,1.5,0.3,"[3,2,1]",0.734247109,stimuli/card_0_transparent.png,0,6,0,6,0,1,,,,,,,,,,
,,,,63b744d6c92e283f8b15993a,A,2024-05-20_12h15.28.491,Slot Machine Game,2023.1.3,MacIntel,2.857959417,,,,,,,,,,,,,,,,,,,,,,,,,,,410,,,,,,,,,,,,,,,,,,,,,8,2,,,601.4734,7,left,0.0395,,1.5,0.3,"[3,2,1]",0.57615708,stimuli/card_0_transparent.png,0,7,0,7,0,1,,,,,,,,,,
,,,,63b744d6c92e283f8b15993a,A,2024-05-20_12h15.28.491,Slot Machine Game,2023.1.3,MacIntel,2.857959417,,,,,,,,,,,,,,,,,,,,,,,,,,,420,,,,,,,,,,,,,,,,,,,,,8,2,,,604.4051,8,up,0.0331,,1.5,0.3,"[3,2,1]",0.929381588,stimuli/card_10_transparent.png,10,8,0,8,0,1,,,,,,,,,,
,,,,63b744d6c92e283f8b15993a,A,2024-05-20_12h15.28.491,Slot Machine Game,2023.1.3,MacIntel,2.857959417,,,,,,,,,,,,,,,,,,,,,,,,,,,520,,,,,,,,,,,,,,,,,,,,,8,2,,,607.3667,9,up,0.0382,9.99999E-05,0.5,0.3,"[3,2,1]",0.105987651,stimuli/card_100_transparent.png,100,9,0,9,0,1,,,,,,,,,,
,,,,63b744d6c92e283f8b15993a,A,2024-05-20_12h15.28.491,Slot Machine Game,2023.1.3,MacIntel,2.857959417,,,,,,,,,,,,,,,,,,,,,,,,,,,530,,,,,,,,,,,,,,,,,,,,,8,2,,,609.2365,10,up,0.0322,0.0002,0.5,0.3,"[3,2,1]",0.400853302,stimuli/card_10_transparent.png,10,10,0,10,0,1,,,,,,,,,,
,,,,63b744d6c92e283f8b15993a,A,2024-05-20_12h15.28.491,Slot Machine Game,2023.1.3,MacIntel,2.857959417,,,,,,,,,,,,,,,,,,,,,,,,,,,540,,,,,,,,,,,,,,,,,,,,,8,2,,,611.074,11,up,0.0388,0,0.5,0.3,"[3,2,1]",0.424725808,stimuli/card_10_transparent.png,10,11,0,11,0,1,,,,,,,,,,
,,,,63b744d6c92e283f8b15993a,A,2024-05-20_12h15.28.491,Slot Machine Game,2023.1.3,MacIntel,2.857959417,,,,,,,,,,,,,,,,,,,,,,,,,,,640,,,,,,,,,,,,,,,,,,,,,8,2,,,612.918,12,right,0.0456,9.99999E-05,1.5,0.3,"[3,2,1]",0.750826774,stimuli/card_100_transparent.png,100,12,0,12,0,1,,,,,,,,,,
,,,,63b744d6c92e283f8b15993a,A,2024-05-20_12h15.28.491,Slot Machine Game,2023.1.3,MacIntel,2.857959417,,,,,,,,,,,,,,,,,,,,,,,,,,,740,,,,,,,,,,,,,,,,,,,,,8,2,,,615.9287,13,right,0.0398,0.0001,0.5,0.3,"[3,2,1]",0.389100281,stimuli/card_100_transparent.png,100,13,0,13,0,1,,,,,,,,,,
,,,,63b744d6c92e283f8b15993a,A,2024-05-20_12h15.28.491,Slot Machine Game,2023.1.3,MacIntel,2.857959417,,,,,,,,,,,,,,,,,,,,,,,,,,,840,,,,,,,,,,,,,,,,,,,,,8,2,,,617.8143,14,right,0.0383,,1.5,0.3,"[3,2,1]",0.656970158,stimuli/card_100_transparent.png,100,14,0,14,0,1,,,,,,,,,,
,,,,63b744d6c92e283f8b15993a,A,2024-05-20_12h15.28.491,Slot Machine Game,2023.1.3,MacIntel,2.857959417,,,,,,,,,,,,,,,,,,,,,,,,,,,,,,,,,,,620.8684,,,,,,,,,,,,,,,,,,,,,,,,,,,,,,,,,"[1130,930,1210,630,480,640,460,840]",7,0,7,0,1,,,,
,,,,63b744d6c92e283f8b15993a,A,2024-05-20_12h15.28.491,Slot Machine Game,2023.1.3,MacIntel,2.857959417,,,,,,,,,,,,,,,,,,,,,,,,,,,0,,,,,,,,,,,,,,,,,,,,,9,10,"[10,15]","[[3,1,2],[1,3,2]]",625.6487,0,left,0.0326,0.0002,1.5,0.3,"[3,1,2]",0.606840956,stimuli/card_0_transparent.png,0,0,0,0,0,1,,,,,,,,,,
,,,,63b744d6c92e283f8b15993a,A,2024-05-20_12h15.28.491,Slot Machine Game,2023.1.3,MacIntel,2.857959417,,,,,,,,,,,,,,,,,,,,,,,,,,,0,,,,,,,,,,,,,,,,,,,,,9,10,,,628.608,1,left,0.0414,0.0002,1.5,0.3,"[3,1,2]",0.54138872,stimuli/card_0_transparent.png,0,1,0,1,0,1,,,,,,,,,,
,,,,63b744d6c92e283f8b15993a,A,2024-05-20_12h15.28.491,Slot Machine Game,2023.1.3,MacIntel,2.857959417,,,,,,,,,,,,,,,,,,,,,,,,,,,100,,,,,,,,,,,,,,,,,,,,,9,10,,,631.5486,2,up,0.0324,0.0001,1.5,0.3,"[3,1,2]",0.359467763,stimuli/card_100_transparent.png,100,2,0,2,0,1,,,,,,,,,,
,,,,63b744d6c92e283f8b15993a,A,2024-05-20_12h15.28.491,Slot Machine Game,2023.1.3,MacIntel,2.857959417,,,,,,,,,,,,,,,,,,,,,,,,,,,200,,,,,,,,,,,,,,,,,,,,,9,10,,,634.5272,3,up,0.7735,9.99999E-05,1.5,0.3,"[3,1,2]",0.699327368,stimuli/card_100_transparent.png,100,3,0,3,0,1,,,,,,,,,,
,,,,63b744d6c92e283f8b15993a,A,2024-05-20_12h15.28.491,Slot Machine Game,2023.1.3,MacIntel,2.857959417,,,,,,,,,,,,,,,,,,,,,,,,,,,300,,,,,,,,,,,,,,,,,,,,,9,10,,,637.988,4,up,0.0369,,1,0.3,"[3,1,2]",0.543968396,stimuli/card_100_transparent.png,100,4,0,4,0,1,,,,,,,,,,
,,,,63b744d6c92e283f8b15993a,A,2024-05-20_12h15.28.491,Slot Machine Game,2023.1.3,MacIntel,2.857959417,,,,,,,,,,,,,,,,,,,,,,,,,,,400,,,,,,,,,,,,,,,,,,,,,9,10,,,640.1225,5,up,0.4051,9.99999E-05,1,0.3,"[3,1,2]",0.806404248,stimuli/card_100_transparent.png,100,5,0,5,0,1,,,,,,,,,,
,,,,63b744d6c92e283f8b15993a,A,2024-05-20_12h15.28.491,Slot Machine Game,2023.1.3,MacIntel,2.857959417,,,,,,,,,,,,,,,,,,,,,,,,,,,500,,,,,,,,,,,,,,,,,,,,,9,10,,,642.7217,6,up,0.0385,,1.5,0.3,"[3,1,2]",0.986209722,stimuli/card_100_transparent.png,100,6,0,6,0,1,,,,,,,,,,
,,,,63b744d6c92e283f8b15993a,A,2024-05-20_12h15.28.491,Slot Machine Game,2023.1.3,MacIntel,2.857959417,,,,,,,,,,,,,,,,,,,,,,,,,,,510,,,,,,,,,,,,,,,,,,,,,9,10,,,645.7044,7,up,1.1194,0,0.5,0.3,"[3,1,2]",0.152613629,stimuli/card_10_transparent.png,10,7,0,7,0,1,,,,,,,,,,
,,,,63b744d6c92e283f8b15993a,A,2024-05-20_12h15.28.491,Slot Machine Game,2023.1.3,MacIntel,2.857959417,,,,,,,,,,,,,,,,,,,,,,,,,,,610,,,,,,,,,,,,,,,,,,,,,9,10,,,648.647,8,up,0.0325,0.0001,1,0.3,"[3,1,2]",0.210862947,stimuli/card_100_transparent.png,100,8,0,8,0,1,,,,,,,,,,
,,,,63b744d6c92e283f8b15993a,A,2024-05-20_12h15.28.491,Slot Machine Game,2023.1.3,MacIntel,2.857959417,,,,,,,,,,,,,,,,,,,,,,,,,,,610,,,,,,,,,,,,,,,,,,,,,9,10,,,650.5264,9,up,0.385,0.0001,0.5,0.3,"[3,1,2]",0.068001004,stimuli/card_0_transparent.png,0,9,0,9,0,1,,,,,,,,,,
,,,,63b744d6c92e283f8b15993a,A,2024-05-20_12h15.28.491,Slot Machine Game,2023.1.3,MacIntel,2.857959417,,,,,,,,,,,,,,,,,,,,,,,,,,,610,,,,,,,,,,,,,,,,,,,,,9,10,,,652.7594,10,up,0.0409,,1.5,0.3,"[1,3,2]",0.372215979,stimuli/card_0_transparent.png,0,10,0,10,0,1,,,,,,,,,,
,,,,63b744d6c92e283f8b15993a,A,2024-05-20_12h15.28.491,Slot Machine Game,2023.1.3,MacIntel,2.857959417,,,,,,,,,,,,,,,,,,,,,,,,,,,620,,,,,,,,,,,,,,,,,,,,,9,10,,,655.7243,11,right,0.0407,0.0001,1,0.3,"[1,3,2]",0.537858215,stimuli/card_10_transparent.png,10,11,0,11,0,1,,,,,,,,,,
,,,,63b744d6c92e283f8b15993a,A,2024-05-20_12h15.28.491,Slot Machine Game,2023.1.3,MacIntel,2.857959417,,,,,,,,,,,,,,,,,,,,,,,,,,,720,,,,,,,,,,,,,,,,,,,,,9,10,,,657.9594,12,right,0.0344,0.0002,0.5,0.3,"[1,3,2]",0.131835044,stimuli/card_100_transparent.png,100,12,0,12,0,1,,,,,,,,,,
,,,,63b744d6c92e283f8b15993a,A,2024-05-20_12h15.28.491,Slot Machine Game,2023.1.3,MacIntel,2.857959417,,,,,,,,,,,,,,,,,,,,,,,,,,,720,,,,,,,,,,,,,,,,,,,,,9,10,,,659.8134,13,right,0.0389,,1,0.3,"[1,3,2]",0.050068054,stimuli/card_0_transparent.png,0,13,0,13,0,1,,,,,,,,,,
,,,,63b744d6c92e283f8b15993a,A,2024-05-20_12h15.28.491,Slot Machine Game,2023.1.3,MacIntel,2.857959417,,,,,,,,,,,,,,,,,,,,,,,,,,,720,,,,,,,,,,,,,,,,,,,,,9,10,,,662.0208,14,left,0.0385,,1.5,0.3,"[1,3,2]",0.075646266,stimuli/card_0_transparent.png,0,14,0,14,0,1,,,,,,,,,,
,,,,63b744d6c92e283f8b15993a,A,2024-05-20_12h15.28.491,Slot Machine Game,2023.1.3,MacIntel,2.857959417,,,,,,,,,,,,,,,,,,,,,,,,,,,,,,,,,,,665.0066,,,,,,,,,,,,,,,,,,,,,,,,,,,,,,,,,"[1130,930,1210,630,480,640,460,840,720]",8,0,8,0,1,,,,
,,,,63b744d6c92e283f8b15993a,A,2024-05-20_12h15.28.491,Slot Machine Game,2023.1.3,MacIntel,2.857959417,,,,,,,,,,,,,,,,,,,,,,,,,,,0,,,,,,,,,,,,,,,,,,,,,10,3,"[15,15]","[[3,1,2],[3,1,2]]",669.873,0,left,0.0396,,1,0.3,"[3,1,2]",0.642186495,stimuli/card_0_transparent.png,0,0,0,0,0,1,,,,,,,,,,
,,,,63b744d6c92e283f8b15993a,A,2024-05-20_12h15.28.491,Slot Machine Game,2023.1.3,MacIntel,2.857959417,,,,,,,,,,,,,,,,,,,,,,,,,,,0,,,,,,,,,,,,,,,,,,,,,10,3,,,672.115,1,left,0.0335,,1,0.3,"[3,1,2]",0.893375979,stimuli/card_0_transparent.png,0,1,0,1,0,1,,,,,,,,,,
,,,,63b744d6c92e283f8b15993a,A,2024-05-20_12h15.28.491,Slot Machine Game,2023.1.3,MacIntel,2.857959417,,,,,,,,,,,,,,,,,,,,,,,,,,,0,,,,,,,,,,,,,,,,,,,,,10,3,,,673.9447,2,left,0.7812,,1,0.3,"[3,1,2]",0.590630999,stimuli/card_0_transparent.png,0,2,0,2,0,1,,,,,,,,,,
,,,,63b744d6c92e283f8b15993a,A,2024-05-20_12h15.28.491,Slot Machine Game,2023.1.3,MacIntel,2.857959417,,,,,,,,,,,,,,,,,,,,,,,,,,,100,,,,,,,,,,,,,,,,,,,,,10,3,,,676.8679,3,up,0.0399,9.99999E-05,1,0.3,"[3,1,2]",0.291595851,stimuli/card_100_transparent.png,100,3,0,3,0,1,,,,,,,,,,
,,,,63b744d6c92e283f8b15993a,A,2024-05-20_12h15.28.491,Slot Machine Game,2023.1.3,MacIntel,2.857959417,,,,,,,,,,,,,,,,,,,,,,,,,,,200,,,,,,,,,,,,,,,,,,,,,10,3,,,679.1203,4,up,0.0398,0,1,0.3,"[3,1,2]",0.763975142,stimuli/card_100_transparent.png,100,4,0,4,0,1,,,,,,,,,,
,,,,63b744d6c92e283f8b15993a,A,2024-05-20_12h15.28.491,Slot Machine Game,2023.1.3,MacIntel,2.857959417,,,,,,,,,,,,,,,,,,,,,,,,,,,300,,,,,,,,,,,,,,,,,,,,,10,3,,,681.3131,5,up,0.032,0,1.5,0.3,"[3,1,2]",0.906140679,stimuli/card_100_transparent.png,100,5,0,5,0,1,,,,,,,,,,
,,,,63b744d6c92e283f8b15993a,A,2024-05-20_12h15.28.491,Slot Machine Game,2023.1.3,MacIntel,2.857959417,,,,,,,,,,,,,,,,,,,,,,,,,,,400,,,,,,,,,,,,,,,,,,,,,10,3,,,684.2845,6,up,1.8308,9.99999E-05,1.5,0.3,"[3,1,2]",0.984598121,stimuli/card_100_transparent.png,100,6,0,6,0,1,,,,,,,,,,
,,,,63b744d6c92e283f8b15993a,A,2024-05-20_12h15.28.491,Slot Machine Game,2023.1.3,MacIntel,2.857959417,,,,,,,,,,,,,,,,,,,,,,,,,,,500,,,,,,,,,,,,,,,,,,,,,10,3,,,688.6895,7,up,0.0403,,1.5,0.3,"[3,1,2]",0.314337532,stimuli/card_100_transparent.png,100,7,0,7,0,1,,,,,,,,,,
,,,,63b744d6c92e283f8b15993a,A,2024-05-20_12h15.28.491,Slot Machine Game,2023.1.3,MacIntel,2.857959417,,,,,,,,,,,,,,,,,,,,,,,,,,,600,,,,,,,,,,,,,,,,,,,,,10,3,,,691.7016,8,up,0.0321,,0.5,0.3,"[3,1,2]",0.759004935,stimuli/card_100_transparent.png,100,8,0,8,0,1,,,,,,,,,,
,,,,63b744d6c92e283f8b15993a,A,2024-05-20_12h15.28.491,Slot Machine Game,2023.1.3,MacIntel,2.857959417,,,,,,,,,,,,,,,,,,,,,,,,,,,700,,,,,,,,,,,,,,,,,,,,,10,3,,,693.5962,9,up,0.031,,1.5,0.3,"[3,1,2]",0.281613604,stimuli/card_100_transparent.png,100,9,0,9,0,1,,,,,,,,,,
,,,,63b744d6c92e283f8b15993a,A,2024-05-20_12h15.28.491,Slot Machine Game,2023.1.3,MacIntel,2.857959417,,,,,,,,,,,,,,,,,,,,,,,,,,,800,,,,,,,,,,,,,,,,,,,,,10,3,,,696.2193,10,up,0.0332,,0.5,0.3,"[3,1,2]",0.610226108,stimuli/card_100_transparent.png,100,10,0,10,0,1,,,,,,,,,,
,,,,63b744d6c92e283f8b15993a,A,2024-05-20_12h15.28.491,Slot Machine Game,2023.1.3,MacIntel,2.857959417,,,,,,,,,,,,,,,,,,,,,,,,,,,900,,,,,,,,,,,,,,,,,,,,,10,3,,,698.0625,11,up,0.0343,0.0002,0.5,0.3,"[3,1,2]",0.757075441,stimuli/card_100_transparent.png,100,11,0,11,0,1,,,,,,,,,,
,,,,63b744d6c92e283f8b15993a,A,2024-05-20_12h15.28.491,Slot Machine Game,2023.1.3,MacIntel,2.857959417,,,,,,,,,,,,,,,,,,,,,,,,,,,1000,,,,,,,,,,,,,,,,,,,,,10,3,,,699.9352,12,up,0.0332,0,1.5,0.3,"[3,1,2]",0.841388789,stimuli/card_100_transparent.png,100,12,0,12,0,1,,,,,,,,,,
,,,,63b744d6c92e283f8b15993a,A,2024-05-20_12h15.28.491,Slot Machine Game,2023.1.3,MacIntel,2.857959417,,,,,,,,,,,,,,,,,,,,,,,,,,,1100,,,,,,,,,,,,,,,,,,,,,10,3,,,702.9564,13,up,1.5138,0.0001,0.5,0.3,"[3,1,2]",0.606103423,stimuli/card_100_transparent.png,100,13,0,13,0,1,,,,,,,,,,
,,,,63b744d6c92e283f8b15993a,A,2024-05-20_12h15.28.491,Slot Machine Game,2023.1.3,MacIntel,2.857959417,,,,,,,,,,,,,,,,,,,,,,,,,,,1200,,,,,,,,,,,,,,,,,,,,,10,3,,,706.2872,14,up,0.0412,,1.5,0.3,"[3,1,2]",0.727557649,stimuli/card_100_transparent.png,100,14,0,14,0,1,,,,,,,,,,
,,,,63b744d6c92e283f8b15993a,A,2024-05-20_12h15.28.491,Slot Machine Game,2023.1.3,MacIntel,2.857959417,,,,,,,,,,,,,,,,,,,,,,,,,,,,,,,,,,,709.2587,,,,,,,,,,,,,,,,,,,,,,,,,,,,,,,,,"[1130,930,1210,630,480,640,460,840,720,1200]",9,0,9,0,1,,,,
,,,,63b744d6c92e283f8b15993a,A,2024-05-20_12h15.28.491,Slot Machine Game,2023.1.3,MacIntel,2.857959417,,,,,,,,,,,,,,,,,,,,,,,,,,,,,,,,,,,,,,,,,,,,,,,,,,,,,,,,,,,,,,,,,,,,,,,,,,9,"[1130,930,1210,630,480,640,460,840,720,1200]",6.4,2024-05-20_12h27.26.410
