key_resp_welcome_started,key_resp_welcome_keys,key_resp_welcome_rt,key_resp_welcome_duration,prolific_id,path_id,date,expName,psychopyVersion,OS,frameRate,key_resp_instruction1_started,key_resp_instruction1_keys,key_resp_instruction1_rt,key_resp_instruction1_duration,key_resp_instruction2_started,key_resp_instruction2_keys,key_resp_instruction2_rt,key_resp_instruction2_duration,key_resp_instruction3_started,key_resp_instruction3_keys,key_resp_instruction3_rt,key_resp_instruction3_duration,key_resp_instruction4_started,key_resp_instruction4_keys,key_resp_instruction4_rt,key_resp_instruction4_duration,practiceCondition,practice_reward_seqs,practice_trial_started,practice_trial_num,practice_resp_rt,practice_resp_duration,practice_resp_keys,prac_presentationInterval,"practice_reward_seq: 2,1,3",reward_img,cumulative_reward,trial_reward,practice_trials.thisRepN,practice_trials.thisTrialN,practice_trials.thisN,practice_trials.thisIndex,practice_trials.ran,"practice_reward_seq: 2,3,1",block_break_started,"practice_reward_seq: 1,3,2","practice_reward_seq: 3,1,2",practice_end_time,practice_end_keys,practice_end_rt,practice_end_duration,main_instruction_text_started,block_condition,block_order_indices,main_instruction_keys,main_instruction_rt,main_instruction_duration,block_number,block_assignment,current_condition,main_reward_seqs,main_trial_started,main_trial_num,main_trial_keys,main_trial_rt,main_trial_duration,main_presentationInterval,reward_presentation_time,main_reward_seq,reward_rand_val,main_reward_img,current_reward,main_trials.thisRepN,main_trials.thisTrialN,main_trials.thisN,main_trials.thisIndex,main_trials.ran,block_reward,block.thisRepN,block.thisTrialN,block.thisN,block.thisIndex,block.ran,block_reward.length,block_reward_all,reward_amount,date_end_task
0.0001,space,2.5463,,,A,2024-07-02_14h21.21.465,Slot Machine Game,2023.1.3,Linux x86_64,119.047619,,,,,,,,,,,,,,,,,,,,,,,,,,,,,,,,,,,,,,,,,,,,,,,,,,,,,,,,,,,,,,,,,,,,,,,,,,,,,
,,,,,A,2024-07-02_14h21.21.465,Slot Machine Game,2023.1.3,Linux x86_64,119.047619,2.5528,b,8.4045,,,,,,,,,,,,,,,,,,,,,,,,,,,,,,,,,,,,,,,,,,,,,,,,,,,,,,,,,,,,,,,,,,,,,,,,,,
,,,,,A,2024-07-02_14h21.21.465,Slot Machine Game,2023.1.3,Linux x86_64,119.047619,,,,,10.974,space,25.8977,,,,,,,,,,,,,,,,,,,,,,,,,,,,,,,,,,,,,,,,,,,,,,,,,,,,,,,,,,,,,,,,,,,,,,
,,,,,A,2024-07-02_14h21.21.465,Slot Machine Game,2023.1.3,Linux x86_64,119.047619,,,,,,,,,36.8964,space,7.2301,,,,,,,,,,,,,,,,,,,,,,,,,,,,,,,,,,,,,,,,,,,,,,,,,,,,,,,,,,,,,,,,,,
,,,,,A,2024-07-02_14h21.21.465,Slot Machine Game,2023.1.3,Linux x86_64,119.047619,,,,,,,,,,,,,,,,,,,,,,,,,,,,,,,,,,,,,,,,,,,,,,,,,,,,,,,,,,,,,,,,,,,,,,,,,,,,,
,,,,,A,2024-07-02_14h21.21.465,Slot Machine Game,2023.1.3,Linux x86_64,119.047619,,,,,,,,,,,,,185.8882,rshift,3.5833,,,,,,,,,,,,,,,,,,,,,,,,,,,,,,,,,,,,,,,,,,,,,,,,,,,,,,,,,,,,,,
,,,,,A,2024-07-02_14h21.21.465,Slot Machine Game,2023.1.3,Linux x86_64,119.047619,,,,,,,,,,,,,,,,,"[9,15]","[[2,1,3],[2,3,1]]",189.4914,0,0.7433,,up,1.5,,stimuli/card_100_transparent.png,100,100,0,0,0,0,1,,,,,,,,,,,,,,,,,,,,,,,,,,,,,,,,,,,,,,,,,,,,
,,,,,A,2024-07-02_14h21.21.465,Slot Machine Game,2023.1.3,Linux x86_64,119.047619,,,,,,,,,,,,,,,,,,,192.5451,1,0.9514,,up,1,,stimuli/card_100_transparent.png,200,100,1,0,1,0,1,,,,,,,,,,,,,,,,,,,,,,,,,,,,,,,,,,,,,,,,,,,,
,,,,,A,2024-07-02_14h21.21.465,Slot Machine Game,2023.1.3,Linux x86_64,119.047619,,,,,,,,,,,,,,,,,,,195.3105,2,0.6915,,up,1,,stimuli/card_100_transparent.png,300,100,2,0,2,0,1,,,,,,,,,,,,,,,,,,,,,,,,,,,,,,,,,,,,,,,,,,,,
,,,,,A,2024-07-02_14h21.21.465,Slot Machine Game,2023.1.3,Linux x86_64,119.047619,,,,,,,,,,,,,,,,,,,197.8107,3,0.4753,,up,1.5,,stimuli/card_100_transparent.png,400,100,3,0,3,0,1,,,,,,,,,,,,,,,,,,,,,,,,,,,,,,,,,,,,,,,,,,,,
,,,,,A,2024-07-02_14h21.21.465,Slot Machine Game,2023.1.3,Linux x86_64,119.047619,,,,,,,,,,,,,,,,,,,200.6024,4,0.0149,,up,1,,stimuli/card_0_transparent.png,400,0,4,0,4,0,1,,,,,,,,,,,,,,,,,,,,,,,,,,,,,,,,,,,,,,,,,,,,
,,,,,A,2024-07-02_14h21.21.465,Slot Machine Game,2023.1.3,Linux x86_64,119.047619,,,,,,,,,,,,,,,,,,,202.4273,5,0.0868,,up,1,,stimuli/card_10_transparent.png,410,10,5,0,5,0,1,,,,,,,,,,,,,,,,,,,,,,,,,,,,,,,,,,,,,,,,,,,,
,,,,,A,2024-07-02_14h21.21.465,Slot Machine Game,2023.1.3,Linux x86_64,119.047619,,,,,,,,,,,,,,,,,,,204.3188,6,0.3359,,left,0.5,,stimuli/card_10_transparent.png,420,10,6,0,6,0,1,,,,,,,,,,,,,,,,,,,,,,,,,,,,,,,,,,,,,,,,,,,,
,,,,,A,2024-07-02_14h21.21.465,Slot Machine Game,2023.1.3,Linux x86_64,119.047619,,,,,,,,,,,,,,,,,,,205.9691,7,0.32,,right,1.5,,stimuli/card_0_transparent.png,420,0,7,0,7,0,1,,,,,,,,,,,,,,,,,,,,,,,,,,,,,,,,,,,,,,,,,,,,
,,,,,A,2024-07-02_14h21.21.465,Slot Machine Game,2023.1.3,Linux x86_64,119.047619,,,,,,,,,,,,,,,,,,,208.603,8,0.3527,,up,1.5,,stimuli/card_10_transparent.png,430,10,8,0,8,0,1,,,,,,,,,,,,,,,,,,,,,,,,,,,,,,,,,,,,,,,,,,,,
,,,,,A,2024-07-02_14h21.21.465,Slot Machine Game,2023.1.3,Linux x86_64,119.047619,,,,,,,,,,,,,,,,,,,211.2687,9,0.1071,,right,1.5,,stimuli/card_100_transparent.png,530,100,9,0,9,0,1,,,,,,,,,,,,,,,,,,,,,,,,,,,,,,,,,,,,,,,,,,,,
,,,,,A,2024-07-02_14h21.21.465,Slot Machine Game,2023.1.3,Linux x86_64,119.047619,,,,,,,,,,,,,,,,,,,213.6878,10,0.1852,,right,1.5,,stimuli/card_0_transparent.png,530,0,10,0,10,0,1,,,,,,,,,,,,,,,,,,,,,,,,,,,,,,,,,,,,,,,,,,,,
,,,,,A,2024-07-02_14h21.21.465,Slot Machine Game,2023.1.3,Linux x86_64,119.047619,,,,,,,,,,,,,,,,,,,216.1866,11,0.0363,,right,1,,stimuli/card_100_transparent.png,630,100,11,0,11,0,1,,,,,,,,,,,,,,,,,,,,,,,,,,,,,,,,,,,,,,,,,,,,
,,,,,A,2024-07-02_14h21.21.465,Slot Machine Game,2023.1.3,Linux x86_64,119.047619,,,,,,,,,,,,,,,,,,,218.0356,12,0.053,,right,1,,stimuli/card_100_transparent.png,730,100,12,0,12,0,1,,,,,,,,,,,,,,,,,,,,,,,,,,,,,,,,,,,,,,,,,,,,
,,,,,A,2024-07-02_14h21.21.465,Slot Machine Game,2023.1.3,Linux x86_64,119.047619,,,,,,,,,,,,,,,,,,,219.8947,13,0.2271,,right,0.5,,stimuli/card_100_transparent.png,830,100,13,0,13,0,1,,,,,,,,,,,,,,,,,,,,,,,,,,,,,,,,,,,,,,,,,,,,
,,,,,A,2024-07-02_14h21.21.465,Slot Machine Game,2023.1.3,Linux x86_64,119.047619,,,,,,,,,,,,,,,,,,,221.4354,14,0.5192,,right,1,,stimuli/card_100_transparent.png,930,100,14,0,14,0,1,,,,,,,,,,,,,,,,,,,,,,,,,,,,,,,,,,,,,,,,,,,,
,,,,,A,2024-07-02_14h21.21.465,Slot Machine Game,2023.1.3,Linux x86_64,119.047619,,,,,,,,,,,,,,,,,"[6,15]","[[1,3,2],[3,1,2]]",228.7922,0,0.8622,,left,1.5,,stimuli/card_0_transparent.png,0,0,0,0,0,0,1,,223.7892,,,,,,,,,,,,,,,,,,,,,,,,,,,,,,,,,,,,,,,,,,
,,,,,A,2024-07-02_14h21.21.465,Slot Machine Game,2023.1.3,Linux x86_64,119.047619,,,,,,,,,,,,,,,,,,,231.9609,1,0.5439,,right,1,,stimuli/card_10_transparent.png,10,10,1,0,1,0,1,,,,,,,,,,,,,,,,,,,,,,,,,,,,,,,,,,,,,,,,,,,,
,,,,,A,2024-07-02_14h21.21.465,Slot Machine Game,2023.1.3,Linux x86_64,119.047619,,,,,,,,,,,,,,,,,,,234.3107,2,0.2038,,up,1.5,,stimuli/card_0_transparent.png,10,0,2,0,2,0,1,,,,,,,,,,,,,,,,,,,,,,,,,,,,,,,,,,,,,,,,,,,,
,,,,,A,2024-07-02_14h21.21.465,Slot Machine Game,2023.1.3,Linux x86_64,119.047619,,,,,,,,,,,,,,,,,,,236.8279,3,0.018,,left,1.5,,stimuli/card_100_transparent.png,110,100,3,0,3,0,1,,,,,,,,,,,,,,,,,,,,,,,,,,,,,,,,,,,,,,,,,,,,
,,,,,A,2024-07-02_14h21.21.465,Slot Machine Game,2023.1.3,Linux x86_64,119.047619,,,,,,,,,,,,,,,,,,,239.1517,4,0.0876,,left,1.5,,stimuli/card_100_transparent.png,210,100,4,0,4,0,1,,,,,,,,,,,,,,,,,,,,,,,,,,,,,,,,,,,,,,,,,,,,
,,,,,A,2024-07-02_14h21.21.465,Slot Machine Game,2023.1.3,Linux x86_64,119.047619,,,,,,,,,,,,,,,,,,,241.5439,5,0.0759,,left,0.5,,stimuli/card_100_transparent.png,310,100,5,0,5,0,1,,,,,,,,,,,,,,,,,,,,,,,,,,,,,,,,,,,,,,,,,,,,
,,,,,A,2024-07-02_14h21.21.465,Slot Machine Game,2023.1.3,Linux x86_64,119.047619,,,,,,,,,,,,,,,,,,,242.927,6,0.0515,,left,1.5,,stimuli/card_0_transparent.png,310,0,6,0,6,0,1,,,,,,,,,,,,,,,,,,,,,,,,,,,,,,,,,,,,,,,,,,,,
,,,,,A,2024-07-02_14h21.21.465,Slot Machine Game,2023.1.3,Linux x86_64,119.047619,,,,,,,,,,,,,,,,,,,245.2865,7,0.1564,,left,1.5,,stimuli/card_0_transparent.png,310,0,7,0,7,0,1,,,,,,,,,,,,,,,,,,,,,,,,,,,,,,,,,,,,,,,,,,,,
,,,,,A,2024-07-02_14h21.21.465,Slot Machine Game,2023.1.3,Linux x86_64,119.047619,,,,,,,,,,,,,,,,,,,247.753,8,0.0799,,right,1.5,,stimuli/card_10_transparent.png,320,10,8,0,8,0,1,,,,,,,,,,,,,,,,,,,,,,,,,,,,,,,,,,,,,,,,,,,,
,,,,,A,2024-07-02_14h21.21.465,Slot Machine Game,2023.1.3,Linux x86_64,119.047619,,,,,,,,,,,,,,,,,,,250.1526,9,0.2523,,up,0.5,,stimuli/card_100_transparent.png,420,100,9,0,9,0,1,,,,,,,,,,,,,,,,,,,,,,,,,,,,,,,,,,,,,,,,,,,,
,,,,,A,2024-07-02_14h21.21.465,Slot Machine Game,2023.1.3,Linux x86_64,119.047619,,,,,,,,,,,,,,,,,,,251.719,10,0.1374,,up,1,,stimuli/card_10_transparent.png,430,10,10,0,10,0,1,,,,,,,,,,,,,,,,,,,,,,,,,,,,,,,,,,,,,,,,,,,,
,,,,,A,2024-07-02_14h21.21.465,Slot Machine Game,2023.1.3,Linux x86_64,119.047619,,,,,,,,,,,,,,,,,,,253.6778,11,0.1819,,up,1,,stimuli/card_100_transparent.png,530,100,11,0,11,0,1,,,,,,,,,,,,,,,,,,,,,,,,,,,,,,,,,,,,,,,,,,,,
,,,,,A,2024-07-02_14h21.21.465,Slot Machine Game,2023.1.3,Linux x86_64,119.047619,,,,,,,,,,,,,,,,,,,255.6684,12,0.1832,,up,1,,stimuli/card_100_transparent.png,630,100,12,0,12,0,1,,,,,,,,,,,,,,,,,,,,,,,,,,,,,,,,,,,,,,,,,,,,
,,,,,A,2024-07-02_14h21.21.465,Slot Machine Game,2023.1.3,Linux x86_64,119.047619,,,,,,,,,,,,,,,,,,,257.661,13,0.2212,,up,1.5,,stimuli/card_100_transparent.png,730,100,13,0,13,0,1,,,,,,,,,,,,,,,,,,,,,,,,,,,,,,,,,,,,,,,,,,,,
,,,,,A,2024-07-02_14h21.21.465,Slot Machine Game,2023.1.3,Linux x86_64,119.047619,,,,,,,,,,,,,,,,,,,260.1939,14,0.5081,,up,0.5,,stimuli/card_100_transparent.png,830,100,14,0,14,0,1,,,,,,,,,,,,,,,,,,,,,,,,,,,,,,,,,,,,,,,,,,,,
,,,,,A,2024-07-02_14h21.21.465,Slot Machine Game,2023.1.3,Linux x86_64,119.047619,,,,,,,,,,,,,,,,,,,,,,,,,,,,,,,,,,,262.0183,,,267.0216,space,2.707,,,,,,,,,,,,,,,,,,,,,,,,,,,,,,,,,,,,,
,,,,,A,2024-07-02_14h21.21.465,Slot Machine Game,2023.1.3,Linux x86_64,119.047619,,,,,,,,,,,,,,,,,,,,,,,,,,,,,,,,,,,,,,,,,,269.7445,2,"[2,4,8,0,1,3,9,6,8,5]",space,1.7333,,,,,,,,,,,,,,,,,,,,,,,,,,,,,,,
,,,,,A,2024-07-02_14h21.21.465,Slot Machine Game,2023.1.3,Linux x86_64,119.047619,,,,,,,,,,,,,,,,,,,,,,,,,,,100,,,,,,,,,,,,,,,,,,,,,1,3,"[15,15]","[[3,1,2],[3,1,2]]",271.5252,0,up,0.4353,,1.5,0.3,"[3,1,2]",0.607796172,stimuli/card_100_transparent.png,100,0,0,0,0,1,,,,,,,,,,
,,,,,A,2024-07-02_14h21.21.465,Slot Machine Game,2023.1.3,Linux x86_64,119.047619,,,,,,,,,,,,,,,,,,,,,,,,,,,200,,,,,,,,,,,,,,,,,,,,,1,3,,,274.2697,1,up,0.0242,,1,0.3,"[3,1,2]",0.460528598,stimuli/card_100_transparent.png,100,1,0,1,0,1,,,,,,,,,,
,,,,,A,2024-07-02_14h21.21.465,Slot Machine Game,2023.1.3,Linux x86_64,119.047619,,,,,,,,,,,,,,,,,,,,,,,,,,,300,,,,,,,,,,,,,,,,,,,,,1,3,,,276.103,2,up,0.2993,,1.5,0.3,"[3,1,2]",0.955364267,stimuli/card_100_transparent.png,100,2,0,2,0,1,,,,,,,,,,
,,,,,A,2024-07-02_14h21.21.465,Slot Machine Game,2023.1.3,Linux x86_64,119.047619,,,,,,,,,,,,,,,,,,,,,,,,,,,400,,,,,,,,,,,,,,,,,,,,,1,3,,,278.7106,3,up,0.1422,,0.5,0.3,"[3,1,2]",0.859710713,stimuli/card_100_transparent.png,100,3,0,3,0,1,,,,,,,,,,
,,,,,A,2024-07-02_14h21.21.465,Slot Machine Game,2023.1.3,Linux x86_64,119.047619,,,,,,,,,,,,,,,,,,,,,,,,,,,500,,,,,,,,,,,,,,,,,,,,,1,3,,,280.1772,4,up,0.2211,,1.5,0.3,"[3,1,2]",0.678325622,stimuli/card_100_transparent.png,100,4,0,4,0,1,,,,,,,,,,
,,,,,A,2024-07-02_14h21.21.465,Slot Machine Game,2023.1.3,Linux x86_64,119.047619,,,,,,,,,,,,,,,,,,,,,,,,,,,600,,,,,,,,,,,,,,,,,,,,,1,3,,,282.7022,5,up,0.3002,,1.5,0.3,"[3,1,2]",0.7592972,stimuli/card_100_transparent.png,100,5,0,5,0,1,,,,,,,,,,
,,,,,A,2024-07-02_14h21.21.465,Slot Machine Game,2023.1.3,Linux x86_64,119.047619,,,,,,,,,,,,,,,,,,,,,,,,,,,700,,,,,,,,,,,,,,,,,,,,,1,3,,,285.3106,6,up,0.1365,,1,0.3,"[3,1,2]",0.473992807,stimuli/card_100_transparent.png,100,6,0,6,0,1,,,,,,,,,,
,,,,,A,2024-07-02_14h21.21.465,Slot Machine Game,2023.1.3,Linux x86_64,119.047619,,,,,,,,,,,,,,,,,,,,,,,,,,,800,,,,,,,,,,,,,,,,,,,,,1,3,,,287.2608,7,up,0.0349,,0.5,0.3,"[3,1,2]",0.869343955,stimuli/card_100_transparent.png,100,7,0,7,0,1,,,,,,,,,,
,,,,,A,2024-07-02_14h21.21.465,Slot Machine Game,2023.1.3,Linux x86_64,119.047619,,,,,,,,,,,,,,,,,,,,,,,,,,,900,,,,,,,,,,,,,,,,,,,,,1,3,,,288.6103,8,up,0.0159,,1,0.3,"[3,1,2]",0.686267149,stimuli/card_100_transparent.png,100,8,0,8,0,1,,,,,,,,,,
,,,,,A,2024-07-02_14h21.21.465,Slot Machine Game,2023.1.3,Linux x86_64,119.047619,,,,,,,,,,,,,,,,,,,,,,,,,,,1000,,,,,,,,,,,,,,,,,,,,,1,3,,,290.4356,9,up,2.4414,,0.5,0.3,"[3,1,2]",0.501566898,stimuli/card_100_transparent.png,100,9,0,9,0,1,,,,,,,,,,
,,,,,A,2024-07-02_14h21.21.465,Slot Machine Game,2023.1.3,Linux x86_64,119.047619,,,,,,,,,,,,,,,,,,,,,,,,,,,1100,,,,,,,,,,,,,,,,,,,,,1,3,,,294.1767,10,up,0.1551,,0.5,0.3,"[3,1,2]",0.21092068,stimuli/card_100_transparent.png,100,10,0,10,0,1,,,,,,,,,,
,,,,,A,2024-07-02_14h21.21.465,Slot Machine Game,2023.1.3,Linux x86_64,119.047619,,,,,,,,,,,,,,,,,,,,,,,,,,,1200,,,,,,,,,,,,,,,,,,,,,1,3,,,295.6351,11,up,0.5008,,1.5,0.3,"[3,1,2]",0.627202076,stimuli/card_100_transparent.png,100,11,0,11,0,1,,,,,,,,,,
,,,,,A,2024-07-02_14h21.21.465,Slot Machine Game,2023.1.3,Linux x86_64,119.047619,,,,,,,,,,,,,,,,,,,,,,,,,,,1300,,,,,,,,,,,,,,,,,,,,,1,3,,,298.4438,12,up,0.2821,,1.5,0.3,"[3,1,2]",0.903906535,stimuli/card_100_transparent.png,100,12,0,12,0,1,,,,,,,,,,
,,,,,A,2024-07-02_14h21.21.465,Slot Machine Game,2023.1.3,Linux x86_64,119.047619,,,,,,,,,,,,,,,,,,,,,,,,,,,1400,,,,,,,,,,,,,,,,,,,,,1,3,,,301.0358,13,up,0.2255,,1.5,0.3,"[3,1,2]",0.672149723,stimuli/card_100_transparent.png,100,13,0,13,0,1,,,,,,,,,,
,,,,,A,2024-07-02_14h21.21.465,Slot Machine Game,2023.1.3,Linux x86_64,119.047619,,,,,,,,,,,,,,,,,,,,,,,,,,,1400,,,,,,,,,,,,,,,,,,,,,1,3,,,303.5689,14,up,0.1004,,0.5,0.3,"[3,1,2]",0.034837311,stimuli/card_0_transparent.png,0,14,0,14,0,1,,,,,,,,,,
,,,,,A,2024-07-02_14h21.21.465,Slot Machine Game,2023.1.3,Linux x86_64,119.047619,,,,,,,,,,,,,,,,,,,,,,,,,,,,,,,,,,,304.9851,,,,,,,,,,,,,,,,,,,,,,,,,,,,,,,,,[1400],0,0,0,0,1,,,,
,,,,,A,2024-07-02_14h21.21.465,Slot Machine Game,2023.1.3,Linux x86_64,119.047619,,,,,,,,,,,,,,,,,,,,,,,,,,,10,,,,,,,,,,,,,,,,,,,,,2,5,"[5,15]","[[1,2,3],[3,1,2]]",310.0056,0,left,0.1932,,0.5,0.3,"[1,2,3]",0.111923489,stimuli/card_10_transparent.png,10,0,0,0,0,1,,,,,,,,,,
,,,,,A,2024-07-02_14h21.21.465,Slot Machine Game,2023.1.3,Linux x86_64,119.047619,,,,,,,,,,,,,,,,,,,,,,,,,,,20,,,,,,,,,,,,,,,,,,,,,2,5,,,311.5105,1,up,0.9592,,1,0.3,"[1,2,3]",0.209718627,stimuli/card_10_transparent.png,10,1,0,1,0,1,,,,,,,,,,
,,,,,A,2024-07-02_14h21.21.465,Slot Machine Game,2023.1.3,Linux x86_64,119.047619,,,,,,,,,,,,,,,,,,,,,,,,,,,20,,,,,,,,,,,,,,,,,,,,,2,5,,,314.2936,2,right,0.3188,,0.5,0.3,"[1,2,3]",0.961188302,stimuli/card_0_transparent.png,0,2,0,2,0,1,,,,,,,,,,
,,,,,A,2024-07-02_14h21.21.465,Slot Machine Game,2023.1.3,Linux x86_64,119.047619,,,,,,,,,,,,,,,,,,,,,,,,,,,120,,,,,,,,,,,,,,,,,,,,,2,5,,,315.9271,3,left,0.118,,1,0.3,"[1,2,3]",0.518331545,stimuli/card_100_transparent.png,100,3,0,3,0,1,,,,,,,,,,
,,,,,A,2024-07-02_14h21.21.465,Slot Machine Game,2023.1.3,Linux x86_64,119.047619,,,,,,,,,,,,,,,,,,,,,,,,,,,220,,,,,,,,,,,,,,,,,,,,,2,5,,,317.852,4,left,0.0868,,0.5,0.3,"[1,2,3]",0.772736795,stimuli/card_100_transparent.png,100,4,0,4,0,1,,,,,,,,,,
,,,,,A,2024-07-02_14h21.21.465,Slot Machine Game,2023.1.3,Linux x86_64,119.047619,,,,,,,,,,,,,,,,,,,,,,,,,,,220,,,,,,,,,,,,,,,,,,,,,2,5,,,319.2438,5,left,0.1938,,1.5,0.3,"[3,1,2]",0.459125043,stimuli/card_0_transparent.png,0,5,0,5,0,1,,,,,,,,,,
,,,,,A,2024-07-02_14h21.21.465,Slot Machine Game,2023.1.3,Linux x86_64,119.047619,,,,,,,,,,,,,,,,,,,,,,,,,,,220,,,,,,,,,,,,,,,,,,,,,2,5,,,321.7433,6,left,0.0508,,1.5,0.3,"[3,1,2]",0.410024019,stimuli/card_0_transparent.png,0,6,0,6,0,1,,,,,,,,,,
,,,,,A,2024-07-02_14h21.21.465,Slot Machine Game,2023.1.3,Linux x86_64,119.047619,,,,,,,,,,,,,,,,,,,,,,,,,,,320,,,,,,,,,,,,,,,,,,,,,2,5,,,324.1023,7,up,0.1354,,1,0.3,"[3,1,2]",0.336910525,stimuli/card_100_transparent.png,100,7,0,7,0,1,,,,,,,,,,
,,,,,A,2024-07-02_14h21.21.465,Slot Machine Game,2023.1.3,Linux x86_64,119.047619,,,,,,,,,,,,,,,,,,,,,,,,,,,420,,,,,,,,,,,,,,,,,,,,,2,5,,,326.0432,8,up,0.1107,,0.5,0.3,"[3,1,2]",0.753180585,stimuli/card_100_transparent.png,100,8,0,8,0,1,,,,,,,,,,
,,,,,A,2024-07-02_14h21.21.465,Slot Machine Game,2023.1.3,Linux x86_64,119.047619,,,,,,,,,,,,,,,,,,,,,,,,,,,520,,,,,,,,,,,,,,,,,,,,,2,5,,,327.4606,9,up,0.0655,,0.5,0.3,"[3,1,2]",0.228499168,stimuli/card_100_transparent.png,100,9,0,9,0,1,,,,,,,,,,
,,,,,A,2024-07-02_14h21.21.465,Slot Machine Game,2023.1.3,Linux x86_64,119.047619,,,,,,,,,,,,,,,,,,,,,,,,,,,620,,,,,,,,,,,,,,,,,,,,,2,5,,,328.8464,10,up,0.061,,1,0.3,"[3,1,2]",0.620170215,stimuli/card_100_transparent.png,100,10,0,10,0,1,,,,,,,,,,
,,,,,A,2024-07-02_14h21.21.465,Slot Machine Game,2023.1.3,Linux x86_64,119.047619,,,,,,,,,,,,,,,,,,,,,,,,,,,720,,,,,,,,,,,,,,,,,,,,,2,5,,,330.7193,11,up,0.1012,,1,0.3,"[3,1,2]",0.764356728,stimuli/card_100_transparent.png,100,11,0,11,0,1,,,,,,,,,,
,,,,,A,2024-07-02_14h21.21.465,Slot Machine Game,2023.1.3,Linux x86_64,119.047619,,,,,,,,,,,,,,,,,,,,,,,,,,,820,,,,,,,,,,,,,,,,,,,,,2,5,,,332.6269,12,up,0.1235,,1,0.3,"[3,1,2]",0.310390816,stimuli/card_100_transparent.png,100,12,0,12,0,1,,,,,,,,,,
,,,,,A,2024-07-02_14h21.21.465,Slot Machine Game,2023.1.3,Linux x86_64,119.047619,,,,,,,,,,,,,,,,,,,,,,,,,,,920,,,,,,,,,,,,,,,,,,,,,2,5,,,334.5704,13,up,0.0952,,0.5,0.3,"[3,1,2]",0.882658328,stimuli/card_100_transparent.png,100,13,0,13,0,1,,,,,,,,,,
,,,,,A,2024-07-02_14h21.21.465,Slot Machine Game,2023.1.3,Linux x86_64,119.047619,,,,,,,,,,,,,,,,,,,,,,,,,,,1020,,,,,,,,,,,,,,,,,,,,,2,5,,,335.9772,14,up,0.1336,,1,0.3,"[3,1,2]",0.817680997,stimuli/card_100_transparent.png,100,14,0,14,0,1,,,,,,,,,,
,,,,,A,2024-07-02_14h21.21.465,Slot Machine Game,2023.1.3,Linux x86_64,119.047619,,,,,,,,,,,,,,,,,,,,,,,,,,,,,,,,,,,337.9186,,,,,,,,,,,,,,,,,,,,,,,,,,,,,,,,,"[1400,1020]",1,0,1,0,1,,,,
,,,,,A,2024-07-02_14h21.21.465,Slot Machine Game,2023.1.3,Linux x86_64,119.047619,,,,,,,,,,,,,,,,,,,,,,,,,,,10,,,,,,,,,,,,,,,,,,,,,3,9,"[8,15]","[[3,2,1],[3,1,2]]",342.9394,0,right,0.3941,,1,0.3,"[3,2,1]",0.130811732,stimuli/card_10_transparent.png,10,0,0,0,0,1,,,,,,,,,,
,,,,,A,2024-07-02_14h21.21.465,Slot Machine Game,2023.1.3,Linux x86_64,119.047619,,,,,,,,,,,,,,,,,,,,,,,,,,,10,,,,,,,,,,,,,,,,,,,,,3,9,,,345.1527,1,right,0.2593,,0.5,0.3,"[3,2,1]",0.033850336,stimuli/card_0_transparent.png,0,1,0,1,0,1,,,,,,,,,,
,,,,,A,2024-07-02_14h21.21.465,Slot Machine Game,2023.1.3,Linux x86_64,119.047619,,,,,,,,,,,,,,,,,,,,,,,,,,,10,,,,,,,,,,,,,,,,,,,,,3,9,,,346.7193,2,left,0.0925,,1.5,0.3,"[3,2,1]",0.415410265,stimuli/card_0_transparent.png,0,2,0,2,0,1,,,,,,,,,,
,,,,,A,2024-07-02_14h21.21.465,Slot Machine Game,2023.1.3,Linux x86_64,119.047619,,,,,,,,,,,,,,,,,,,,,,,,,,,20,,,,,,,,,,,,,,,,,,,,,3,9,,,349.1218,3,up,0.0004,,1,0.3,"[3,2,1]",0.990583102,stimuli/card_10_transparent.png,10,3,0,3,0,1,,,,,,,,,,
,,,,,A,2024-07-02_14h21.21.465,Slot Machine Game,2023.1.3,Linux x86_64,119.047619,,,,,,,,,,,,,,,,,,,,,,,,,,,30,,,,,,,,,,,,,,,,,,,,,3,9,,,350.927,4,up,0.0746,,1.5,0.3,"[3,2,1]",0.601500346,stimuli/card_10_transparent.png,10,4,0,4,0,1,,,,,,,,,,
,,,,,A,2024-07-02_14h21.21.465,Slot Machine Game,2023.1.3,Linux x86_64,119.047619,,,,,,,,,,,,,,,,,,,,,,,,,,,30,,,,,,,,,,,,,,,,,,,,,3,9,,,353.3101,5,left,1.7905,,1.5,0.3,"[3,2,1]",0.776239478,stimuli/card_0_transparent.png,0,5,0,5,0,1,,,,,,,,,,
,,,,,A,2024-07-02_14h21.21.465,Slot Machine Game,2023.1.3,Linux x86_64,119.047619,,,,,,,,,,,,,,,,,,,,,,,,,,,130,,,,,,,,,,,,,,,,,,,,,3,9,,,357.4024,6,right,0.0853,,1.5,0.3,"[3,2,1]",0.32617249,stimuli/card_100_transparent.png,100,6,0,6,0,1,,,,,,,,,,
,,,,,A,2024-07-02_14h21.21.465,Slot Machine Game,2023.1.3,Linux x86_64,119.047619,,,,,,,,,,,,,,,,,,,,,,,,,,,230,,,,,,,,,,,,,,,,,,,,,3,9,,,359.8019,7,right,0.2513,,1,0.3,"[3,2,1]",0.340507563,stimuli/card_100_transparent.png,100,7,0,7,0,1,,,,,,,,,,
,,,,,A,2024-07-02_14h21.21.465,Slot Machine Game,2023.1.3,Linux x86_64,119.047619,,,,,,,,,,,,,,,,,,,,,,,,,,,230,,,,,,,,,,,,,,,,,,,,,3,9,,,361.8602,8,right,0.3158,,1.5,0.3,"[3,1,2]",0.063629694,stimuli/card_0_transparent.png,0,8,0,8,0,1,,,,,,,,,,
,,,,,A,2024-07-02_14h21.21.465,Slot Machine Game,2023.1.3,Linux x86_64,119.047619,,,,,,,,,,,,,,,,,,,,,,,,,,,240,,,,,,,,,,,,,,,,,,,,,3,9,,,364.4857,9,right,0.1616,,1,0.3,"[3,1,2]",0.391120787,stimuli/card_10_transparent.png,10,9,0,9,0,1,,,,,,,,,,
,,,,,A,2024-07-02_14h21.21.465,Slot Machine Game,2023.1.3,Linux x86_64,119.047619,,,,,,,,,,,,,,,,,,,,,,,,,,,240,,,,,,,,,,,,,,,,,,,,,3,9,,,366.4603,10,left,0.0005,,1,0.3,"[3,1,2]",0.424321118,stimuli/card_0_transparent.png,0,10,0,10,0,1,,,,,,,,,,
,,,,,A,2024-07-02_14h21.21.465,Slot Machine Game,2023.1.3,Linux x86_64,119.047619,,,,,,,,,,,,,,,,,,,,,,,,,,,340,,,,,,,,,,,,,,,,,,,,,3,9,,,368.2771,11,up,0.0215,,0.5,0.3,"[3,1,2]",0.813157667,stimuli/card_100_transparent.png,100,11,0,11,0,1,,,,,,,,,,
,,,,,A,2024-07-02_14h21.21.465,Slot Machine Game,2023.1.3,Linux x86_64,119.047619,,,,,,,,,,,,,,,,,,,,,,,,,,,440,,,,,,,,,,,,,,,,,,,,,3,9,,,369.612,12,up,0.0851,,1,0.3,"[3,1,2]",0.851772126,stimuli/card_100_transparent.png,100,12,0,12,0,1,,,,,,,,,,
,,,,,A,2024-07-02_14h21.21.465,Slot Machine Game,2023.1.3,Linux x86_64,119.047619,,,,,,,,,,,,,,,,,,,,,,,,,,,540,,,,,,,,,,,,,,,,,,,,,3,9,,,371.5105,13,up,0.0179,,1.5,0.3,"[3,1,2]",0.439394606,stimuli/card_100_transparent.png,100,13,0,13,0,1,,,,,,,,,,
,,,,,A,2024-07-02_14h21.21.465,Slot Machine Game,2023.1.3,Linux x86_64,119.047619,,,,,,,,,,,,,,,,,,,,,,,,,,,640,,,,,,,,,,,,,,,,,,,,,3,9,,,373.8435,14,up,0.1537,,0.5,0.3,"[3,1,2]",0.788759779,stimuli/card_100_transparent.png,100,14,0,14,0,1,,,,,,,,,,
,,,,,A,2024-07-02_14h21.21.465,Slot Machine Game,2023.1.3,Linux x86_64,119.047619,,,,,,,,,,,,,,,,,,,,,,,,,,,,,,,,,,,375.3024,,,,,,,,,,,,,,,,,,,,,,,,,,,,,,,,,"[1400,1020,640]",2,0,2,0,1,,,,
,,,,,A,2024-07-02_14h21.21.465,Slot Machine Game,2023.1.3,Linux x86_64,119.047619,,,,,,,,,,,,,,,,,,,,,,,,,,,10,,,,,,,,,,,,,,,,,,,,,4,1,"[12,15]","[[2,1,3],[2,3,1]]",380.3244,0,left,0.1412,,1.5,0.3,"[2,1,3]",0.426438818,stimuli/card_10_transparent.png,10,0,0,0,0,1,,,,,,,,,,
,,,,,A,2024-07-02_14h21.21.465,Slot Machine Game,2023.1.3,Linux x86_64,119.047619,,,,,,,,,,,,,,,,,,,,,,,,,,,20,,,,,,,,,,,,,,,,,,,,,4,1,,,382.7763,1,left,0.0533,,0.5,0.3,"[2,1,3]",0.648802734,stimuli/card_10_transparent.png,10,1,0,1,0,1,,,,,,,,,,
,,,,,A,2024-07-02_14h21.21.465,Slot Machine Game,2023.1.3,Linux x86_64,119.047619,,,,,,,,,,,,,,,,,,,,,,,,,,,20,,,,,,,,,,,,,,,,,,,,,4,1,,,384.1355,2,right,0.2762,,1,0.3,"[2,1,3]",0.360660241,stimuli/card_0_transparent.png,0,2,0,2,0,1,,,,,,,,,,
,,,,,A,2024-07-02_14h21.21.465,Slot Machine Game,2023.1.3,Linux x86_64,119.047619,,,,,,,,,,,,,,,,,,,,,,,,,,,120,,,,,,,,,,,,,,,,,,,,,4,1,,,386.2269,3,up,0.1774,,0.5,0.3,"[2,1,3]",0.636693818,stimuli/card_100_transparent.png,100,3,0,3,0,1,,,,,,,,,,
,,,,,A,2024-07-02_14h21.21.465,Slot Machine Game,2023.1.3,Linux x86_64,119.047619,,,,,,,,,,,,,,,,,,,,,,,,,,,220,,,,,,,,,,,,,,,,,,,,,4,1,,,387.7099,4,up,0.0709,,1.5,0.3,"[2,1,3]",0.597941255,stimuli/card_100_transparent.png,100,4,0,4,0,1,,,,,,,,,,
,,,,,A,2024-07-02_14h21.21.465,Slot Machine Game,2023.1.3,Linux x86_64,119.047619,,,,,,,,,,,,,,,,,,,,,,,,,,,320,,,,,,,,,,,,,,,,,,,,,4,1,,,390.087,5,up,0.061,,1.5,0.3,"[2,1,3]",0.401765852,stimuli/card_100_transparent.png,100,5,0,5,0,1,,,,,,,,,,
,,,,,A,2024-07-02_14h21.21.465,Slot Machine Game,2023.1.3,Linux x86_64,119.047619,,,,,,,,,,,,,,,,,,,,,,,,,,,420,,,,,,,,,,,,,,,,,,,,,4,1,,,392.4605,6,up,0.0744,,1.5,0.3,"[2,1,3]",0.661590988,stimuli/card_100_transparent.png,100,6,0,6,0,1,,,,,,,,,,
,,,,,A,2024-07-02_14h21.21.465,Slot Machine Game,2023.1.3,Linux x86_64,119.047619,,,,,,,,,,,,,,,,,,,,,,,,,,,520,,,,,,,,,,,,,,,,,,,,,4,1,,,394.8519,7,up,0.1068,,1.5,0.3,"[2,1,3]",0.713685026,stimuli/card_100_transparent.png,100,7,0,7,0,1,,,,,,,,,,
,,,,,A,2024-07-02_14h21.21.465,Slot Machine Game,2023.1.3,Linux x86_64,119.047619,,,,,,,,,,,,,,,,,,,,,,,,,,,620,,,,,,,,,,,,,,,,,,,,,4,1,,,397.2762,8,up,0.0875,,0.5,0.3,"[2,1,3]",0.59470774,stimuli/card_100_transparent.png,100,8,0,8,0,1,,,,,,,,,,
,,,,,A,2024-07-02_14h21.21.465,Slot Machine Game,2023.1.3,Linux x86_64,119.047619,,,,,,,,,,,,,,,,,,,,,,,,,,,720,,,,,,,,,,,,,,,,,,,,,4,1,,,398.6694,9,up,1.6628,,0.5,0.3,"[2,1,3]",0.823754116,stimuli/card_100_transparent.png,100,9,0,9,0,1,,,,,,,,,,
,,,,,A,2024-07-02_14h21.21.465,Slot Machine Game,2023.1.3,Linux x86_64,119.047619,,,,,,,,,,,,,,,,,,,,,,,,,,,820,,,,,,,,,,,,,,,,,,,,,4,1,,,401.6439,10,up,0.4507,,0.5,0.3,"[2,1,3]",0.838727252,stimuli/card_100_transparent.png,100,10,0,10,0,1,,,,,,,,,,
,,,,,A,2024-07-02_14h21.21.465,Slot Machine Game,2023.1.3,Linux x86_64,119.047619,,,,,,,,,,,,,,,,,,,,,,,,,,,920,,,,,,,,,,,,,,,,,,,,,4,1,,,403.4183,11,up,0.4262,,1.5,0.3,"[2,1,3]",0.838476878,stimuli/card_100_transparent.png,100,11,0,11,0,1,,,,,,,,,,
,,,,,A,2024-07-02_14h21.21.465,Slot Machine Game,2023.1.3,Linux x86_64,119.047619,,,,,,,,,,,,,,,,,,,,,,,,,,,930,,,,,,,,,,,,,,,,,,,,,4,1,,,406.1527,12,up,0.3422,,1,0.3,"[2,3,1]",0.175643033,stimuli/card_10_transparent.png,10,12,0,12,0,1,,,,,,,,,,
,,,,,A,2024-07-02_14h21.21.465,Slot Machine Game,2023.1.3,Linux x86_64,119.047619,,,,,,,,,,,,,,,,,,,,,,,,,,,930,,,,,,,,,,,,,,,,,,,,,4,1,,,408.3107,13,up,0.0703,,1,0.3,"[2,3,1]",0.481314088,stimuli/card_0_transparent.png,0,13,0,13,0,1,,,,,,,,,,
,,,,,A,2024-07-02_14h21.21.465,Slot Machine Game,2023.1.3,Linux x86_64,119.047619,,,,,,,,,,,,,,,,,,,,,,,,,,,1030,,,,,,,,,,,,,,,,,,,,,4,1,,,410.1939,14,right,0.1727,,0.5,0.3,"[2,3,1]",0.949976522,stimuli/card_100_transparent.png,100,14,0,14,0,1,,,,,,,,,,
,,,,,A,2024-07-02_14h21.21.465,Slot Machine Game,2023.1.3,Linux x86_64,119.047619,,,,,,,,,,,,,,,,,,,,,,,,,,,,,,,,,,,411.6774,,,,,,,,,,,,,,,,,,,,,,,,,,,,,,,,,"[1400,1020,640,1030]",3,0,3,0,1,,,,
,,,,,A,2024-07-02_14h21.21.465,Slot Machine Game,2023.1.3,Linux x86_64,119.047619,,,,,,,,,,,,,,,,,,,,,,,,,,,0,,,,,,,,,,,,,,,,,,,,,5,2,"[6,15]","[[1,3,2],[3,2,1]]",416.701,0,up,0.6554,,0.5,0.3,"[1,3,2]",0.772012602,stimuli/card_0_transparent.png,0,0,0,0,0,1,,,,,,,,,,
,,,,,A,2024-07-02_14h21.21.465,Slot Machine Game,2023.1.3,Linux x86_64,119.047619,,,,,,,,,,,,,,,,,,,,,,,,,,,100,,,,,,,,,,,,,,,,,,,,,5,2,,,418.6601,1,left,0.0172,,1,0.3,"[1,3,2]",0.838192049,stimuli/card_100_transparent.png,100,1,0,1,0,1,,,,,,,,,,
,,,,,A,2024-07-02_14h21.21.465,Slot Machine Game,2023.1.3,Linux x86_64,119.047619,,,,,,,,,,,,,,,,,,,,,,,,,,,100,,,,,,,,,,,,,,,,,,,,,5,2,,,420.4938,2,left,0.3465,,0.5,0.3,"[1,3,2]",0.02471909,stimuli/card_0_transparent.png,0,2,0,2,0,1,,,,,,,,,,
,,,,,A,2024-07-02_14h21.21.465,Slot Machine Game,2023.1.3,Linux x86_64,119.047619,,,,,,,,,,,,,,,,,,,,,,,,,,,200,,,,,,,,,,,,,,,,,,,,,5,2,,,422.1522,3,left,0.0516,,1,0.3,"[1,3,2]",0.796604358,stimuli/card_100_transparent.png,100,3,0,3,0,1,,,,,,,,,,
,,,,,A,2024-07-02_14h21.21.465,Slot Machine Game,2023.1.3,Linux x86_64,119.047619,,,,,,,,,,,,,,,,,,,,,,,,,,,300,,,,,,,,,,,,,,,,,,,,,5,2,,,424.018,4,left,0.1914,,1,0.3,"[1,3,2]",0.790151635,stimuli/card_100_transparent.png,100,4,0,4,0,1,,,,,,,,,,
,,,,,A,2024-07-02_14h21.21.465,Slot Machine Game,2023.1.3,Linux x86_64,119.047619,,,,,,,,,,,,,,,,,,,,,,,,,,,400,,,,,,,,,,,,,,,,,,,,,5,2,,,426.0183,5,left,0.1995,,1,0.3,"[1,3,2]",0.636999017,stimuli/card_100_transparent.png,100,5,0,5,0,1,,,,,,,,,,
,,,,,A,2024-07-02_14h21.21.465,Slot Machine Game,2023.1.3,Linux x86_64,119.047619,,,,,,,,,,,,,,,,,,,,,,,,,,,400,,,,,,,,,,,,,,,,,,,,,5,2,,,428.0263,6,left,0.1247,,1.5,0.3,"[3,2,1]",0.47892158,stimuli/card_0_transparent.png,0,6,0,6,0,1,,,,,,,,,,
,,,,,A,2024-07-02_14h21.21.465,Slot Machine Game,2023.1.3,Linux x86_64,119.047619,,,,,,,,,,,,,,,,,,,,,,,,,,,400,,,,,,,,,,,,,,,,,,,,,5,2,,,430.4603,7,left,0.5473,,0.5,0.3,"[3,2,1]",0.962702822,stimuli/card_0_transparent.png,0,7,0,7,0,1,,,,,,,,,,
,,,,,A,2024-07-02_14h21.21.465,Slot Machine Game,2023.1.3,Linux x86_64,119.047619,,,,,,,,,,,,,,,,,,,,,,,,,,,410,,,,,,,,,,,,,,,,,,,,,5,2,,,432.3188,8,right,0.1207,,1,0.3,"[3,2,1]",0.128345578,stimuli/card_10_transparent.png,10,8,0,8,0,1,,,,,,,,,,
,,,,,A,2024-07-02_14h21.21.465,Slot Machine Game,2023.1.3,Linux x86_64,119.047619,,,,,,,,,,,,,,,,,,,,,,,,,,,420,,,,,,,,,,,,,,,,,,,,,5,2,,,434.2521,9,up,0.1309,,0.5,0.3,"[3,2,1]",0.522373272,stimuli/card_10_transparent.png,10,9,0,9,0,1,,,,,,,,,,
,,,,,A,2024-07-02_14h21.21.465,Slot Machine Game,2023.1.3,Linux x86_64,119.047619,,,,,,,,,,,,,,,,,,,,,,,,,,,520,,,,,,,,,,,,,,,,,,,,,5,2,,,435.694,10,right,0.1678,,1,0.3,"[3,2,1]",0.346432292,stimuli/card_100_transparent.png,100,10,0,10,0,1,,,,,,,,,,
,,,,,A,2024-07-02_14h21.21.465,Slot Machine Game,2023.1.3,Linux x86_64,119.047619,,,,,,,,,,,,,,,,,,,,,,,,,,,620,,,,,,,,,,,,,,,,,,,,,5,2,,,437.6765,11,right,0.1441,,1.5,0.3,"[3,2,1]",0.875562311,stimuli/card_100_transparent.png,100,11,0,11,0,1,,,,,,,,,,
,,,,,A,2024-07-02_14h21.21.465,Slot Machine Game,2023.1.3,Linux x86_64,119.047619,,,,,,,,,,,,,,,,,,,,,,,,,,,720,,,,,,,,,,,,,,,,,,,,,5,2,,,440.1267,12,right,1.1922,,1.5,0.3,"[3,2,1]",0.8416978,stimuli/card_100_transparent.png,100,12,0,12,0,1,,,,,,,,,,
,,,,,A,2024-07-02_14h21.21.465,Slot Machine Game,2023.1.3,Linux x86_64,119.047619,,,,,,,,,,,,,,,,,,,,,,,,,,,820,,,,,,,,,,,,,,,,,,,,,5,2,,,443.635,13,right,0.0822,,1,0.3,"[3,2,1]",0.660676355,stimuli/card_100_transparent.png,100,13,0,13,0,1,,,,,,,,,,
,,,,,A,2024-07-02_14h21.21.465,Slot Machine Game,2023.1.3,Linux x86_64,119.047619,,,,,,,,,,,,,,,,,,,,,,,,,,,920,,,,,,,,,,,,,,,,,,,,,5,2,,,445.5346,14,right,0.0089,,0.5,0.3,"[3,2,1]",0.827941826,stimuli/card_100_transparent.png,100,14,0,14,0,1,,,,,,,,,,
,,,,,A,2024-07-02_14h21.21.465,Slot Machine Game,2023.1.3,Linux x86_64,119.047619,,,,,,,,,,,,,,,,,,,,,,,,,,,,,,,,,,,446.8521,,,,,,,,,,,,,,,,,,,,,,,,,,,,,,,,,"[1400,1020,640,1030,920]",4,0,4,0,1,,,,
,,,,,A,2024-07-02_14h21.21.465,Slot Machine Game,2023.1.3,Linux x86_64,119.047619,,,,,,,,,,,,,,,,,,,,,,,,,,,0,,,,,,,,,,,,,,,,,,,,,6,4,"[7,15]","[[2,3,1],[1,2,3]]",451.8736,0,up,0.6637,,1.5,0.3,"[2,3,1]",0.386839166,stimuli/card_0_transparent.png,0,0,0,0,0,1,,,,,,,,,,
,,,,,A,2024-07-02_14h21.21.465,Slot Machine Game,2023.1.3,Linux x86_64,119.047619,,,,,,,,,,,,,,,,,,,,,,,,,,,10,,,,,,,,,,,,,,,,,,,,,6,4,,,454.8432,1,right,0.2955,,0.5,0.3,"[2,3,1]",0.144916813,stimuli/card_10_transparent.png,10,1,0,1,0,1,,,,,,,,,,
,,,,,A,2024-07-02_14h21.21.465,Slot Machine Game,2023.1.3,Linux x86_64,119.047619,,,,,,,,,,,,,,,,,,,,,,,,,,,20,,,,,,,,,,,,,,,,,,,,,6,4,,,456.4523,2,left,0.2292,,1.5,0.3,"[2,3,1]",0.564092914,stimuli/card_10_transparent.png,10,2,0,2,0,1,,,,,,,,,,
,,,,,A,2024-07-02_14h21.21.465,Slot Machine Game,2023.1.3,Linux x86_64,119.047619,,,,,,,,,,,,,,,,,,,,,,,,,,,20,,,,,,,,,,,,,,,,,,,,,6,4,,,458.9931,3,left,0.0341,,0.5,0.3,"[2,3,1]",0.058858006,stimuli/card_0_transparent.png,0,3,0,3,0,1,,,,,,,,,,
,,,,,A,2024-07-02_14h21.21.465,Slot Machine Game,2023.1.3,Linux x86_64,119.047619,,,,,,,,,,,,,,,,,,,,,,,,,,,120,,,,,,,,,,,,,,,,,,,,,6,4,,,460.3358,4,right,0.1511,,1,0.3,"[2,3,1]",0.933612034,stimuli/card_100_transparent.png,100,4,0,4,0,1,,,,,,,,,,
,,,,,A,2024-07-02_14h21.21.465,Slot Machine Game,2023.1.3,Linux x86_64,119.047619,,,,,,,,,,,,,,,,,,,,,,,,,,,220,,,,,,,,,,,,,,,,,,,,,6,4,,,462.3013,5,right,0.0642,,0.5,0.3,"[2,3,1]",0.847701439,stimuli/card_100_transparent.png,100,5,0,5,0,1,,,,,,,,,,
,,,,,A,2024-07-02_14h21.21.465,Slot Machine Game,2023.1.3,Linux x86_64,119.047619,,,,,,,,,,,,,,,,,,,,,,,,,,,320,,,,,,,,,,,,,,,,,,,,,6,4,,,463.6685,6,right,0.2039,,0.5,0.3,"[2,3,1]",0.972784309,stimuli/card_100_transparent.png,100,6,0,6,0,1,,,,,,,,,,
,,,,,A,2024-07-02_14h21.21.465,Slot Machine Game,2023.1.3,Linux x86_64,119.047619,,,,,,,,,,,,,,,,,,,,,,,,,,,320,,,,,,,,,,,,,,,,,,,,,6,4,,,465.1852,7,right,0.0115,,0.5,0.3,"[1,2,3]",0.732743384,stimuli/card_0_transparent.png,0,7,0,7,0,1,,,,,,,,,,
,,,,,A,2024-07-02_14h21.21.465,Slot Machine Game,2023.1.3,Linux x86_64,119.047619,,,,,,,,,,,,,,,,,,,,,,,,,,,320,,,,,,,,,,,,,,,,,,,,,6,4,,,466.5101,8,right,0.1298,,1,0.3,"[1,2,3]",0.434634003,stimuli/card_0_transparent.png,0,8,0,8,0,1,,,,,,,,,,
,,,,,A,2024-07-02_14h21.21.465,Slot Machine Game,2023.1.3,Linux x86_64,119.047619,,,,,,,,,,,,,,,,,,,,,,,,,,,330,,,,,,,,,,,,,,,,,,,,,6,4,,,468.4432,9,up,0.1631,,1.5,0.3,"[1,2,3]",0.546565671,stimuli/card_10_transparent.png,10,9,0,9,0,1,,,,,,,,,,
,,,,,A,2024-07-02_14h21.21.465,Slot Machine Game,2023.1.3,Linux x86_64,119.047619,,,,,,,,,,,,,,,,,,,,,,,,,,,330,,,,,,,,,,,,,,,,,,,,,6,4,,,470.9104,10,up,0.0836,,1,0.3,"[1,2,3]",0.096428489,stimuli/card_0_transparent.png,0,10,0,10,0,1,,,,,,,,,,
,,,,,A,2024-07-02_14h21.21.465,Slot Machine Game,2023.1.3,Linux x86_64,119.047619,,,,,,,,,,,,,,,,,,,,,,,,,,,430,,,,,,,,,,,,,,,,,,,,,6,4,,,472.8098,11,left,1.0283,,1.5,0.3,"[1,2,3]",0.474378429,stimuli/card_100_transparent.png,100,11,0,11,0,1,,,,,,,,,,
,,,,,A,2024-07-02_14h21.21.465,Slot Machine Game,2023.1.3,Linux x86_64,119.047619,,,,,,,,,,,,,,,,,,,,,,,,,,,530,,,,,,,,,,,,,,,,,,,,,6,4,,,476.1521,12,left,0.3637,,1.5,0.3,"[1,2,3]",0.437124964,stimuli/card_100_transparent.png,100,12,0,12,0,1,,,,,,,,,,
,,,,,A,2024-07-02_14h21.21.465,Slot Machine Game,2023.1.3,Linux x86_64,119.047619,,,,,,,,,,,,,,,,,,,,,,,,,,,630,,,,,,,,,,,,,,,,,,,,,6,4,,,478.8268,13,left,0.0684,,1.5,0.3,"[1,2,3]",0.71693647,stimuli/card_100_transparent.png,100,13,0,13,0,1,,,,,,,,,,
,,,,,A,2024-07-02_14h21.21.465,Slot Machine Game,2023.1.3,Linux x86_64,119.047619,,,,,,,,,,,,,,,,,,,,,,,,,,,730,,,,,,,,,,,,,,,,,,,,,6,4,,,481.2096,14,left,0.0709,,1.5,0.3,"[1,2,3]",0.618011223,stimuli/card_100_transparent.png,100,14,0,14,0,1,,,,,,,,,,
,,,,,A,2024-07-02_14h21.21.465,Slot Machine Game,2023.1.3,Linux x86_64,119.047619,,,,,,,,,,,,,,,,,,,,,,,,,,,,,,,,,,,483.5846,,,,,,,,,,,,,,,,,,,,,,,,,,,,,,,,,"[1400,1020,640,1030,920,730]",5,0,5,0,1,,,,
,,,,,A,2024-07-02_14h21.21.465,Slot Machine Game,2023.1.3,Linux x86_64,119.047619,,,,,,,,,,,,,,,,,,,,,,,,,,,10,,,,,,,,,,,,,,,,,,,,,7,10,"[10,15]","[[3,1,2],[1,3,2]]",488.6052,0,right,0.2049,,0.5,0.3,"[3,1,2]",0.520095147,stimuli/card_10_transparent.png,10,0,0,0,0,1,,,,,,,,,,
,,,,,A,2024-07-02_14h21.21.465,Slot Machine Game,2023.1.3,Linux x86_64,119.047619,,,,,,,,,,,,,,,,,,,,,,,,,,,110,,,,,,,,,,,,,,,,,,,,,7,10,,,490.1184,1,up,0.2448,,1,0.3,"[3,1,2]",0.976907015,stimuli/card_100_transparent.png,100,1,0,1,0,1,,,,,,,,,,
,,,,,A,2024-07-02_14h21.21.465,Slot Machine Game,2023.1.3,Linux x86_64,119.047619,,,,,,,,,,,,,,,,,,,,,,,,,,,120,,,,,,,,,,,,,,,,,,,,,7,10,,,492.1761,2,up,0.0796,,0.5,0.3,"[3,1,2]",0.192557084,stimuli/card_10_transparent.png,10,2,0,2,0,1,,,,,,,,,,
,,,,,A,2024-07-02_14h21.21.465,Slot Machine Game,2023.1.3,Linux x86_64,119.047619,,,,,,,,,,,,,,,,,,,,,,,,,,,220,,,,,,,,,,,,,,,,,,,,,7,10,,,493.5604,3,up,0.1107,,1.5,0.3,"[3,1,2]",0.687951375,stimuli/card_100_transparent.png,100,3,0,3,0,1,,,,,,,,,,
,,,,,A,2024-07-02_14h21.21.465,Slot Machine Game,2023.1.3,Linux x86_64,119.047619,,,,,,,,,,,,,,,,,,,,,,,,,,,320,,,,,,,,,,,,,,,,,,,,,7,10,,,495.9845,4,up,0.1165,,1,0.3,"[3,1,2]",0.330955299,stimuli/card_100_transparent.png,100,4,0,4,0,1,,,,,,,,,,
,,,,,A,2024-07-02_14h21.21.465,Slot Machine Game,2023.1.3,Linux x86_64,119.047619,,,,,,,,,,,,,,,,,,,,,,,,,,,420,,,,,,,,,,,,,,,,,,,,,7,10,,,497.9102,5,up,0.0938,,1.5,0.3,"[3,1,2]",0.439571495,stimuli/card_100_transparent.png,100,5,0,5,0,1,,,,,,,,,,
,,,,,A,2024-07-02_14h21.21.465,Slot Machine Game,2023.1.3,Linux x86_64,119.047619,,,,,,,,,,,,,,,,,,,,,,,,,,,430,,,,,,,,,,,,,,,,,,,,,7,10,,,500.3185,6,up,0.0799,,1.5,0.3,"[3,1,2]",0.186338771,stimuli/card_10_transparent.png,10,6,0,6,0,1,,,,,,,,,,
,,,,,A,2024-07-02_14h21.21.465,Slot Machine Game,2023.1.3,Linux x86_64,119.047619,,,,,,,,,,,,,,,,,,,,,,,,,,,530,,,,,,,,,,,,,,,,,,,,,7,10,,,502.7101,7,up,0.2254,,1.5,0.3,"[3,1,2]",0.23183405,stimuli/card_100_transparent.png,100,7,0,7,0,1,,,,,,,,,,
,,,,,A,2024-07-02_14h21.21.465,Slot Machine Game,2023.1.3,Linux x86_64,119.047619,,,,,,,,,,,,,,,,,,,,,,,,,,,630,,,,,,,,,,,,,,,,,,,,,7,10,,,505.2516,8,up,0.0501,,1.5,0.3,"[3,1,2]",0.74922171,stimuli/card_100_transparent.png,100,8,0,8,0,1,,,,,,,,,,
,,,,,A,2024-07-02_14h21.21.465,Slot Machine Game,2023.1.3,Linux x86_64,119.047619,,,,,,,,,,,,,,,,,,,,,,,,,,,630,,,,,,,,,,,,,,,,,,,,,7,10,,,507.6188,9,up,0.0529,,1,0.3,"[3,1,2]",0.01306953,stimuli/card_0_transparent.png,0,9,0,9,0,1,,,,,,,,,,
,,,,,A,2024-07-02_14h21.21.465,Slot Machine Game,2023.1.3,Linux x86_64,119.047619,,,,,,,,,,,,,,,,,,,,,,,,,,,730,,,,,,,,,,,,,,,,,,,,,7,10,,,509.4849,10,left,0.0475,,0.5,0.3,"[1,3,2]",0.952032429,stimuli/card_100_transparent.png,100,10,0,10,0,1,,,,,,,,,,
,,,,,A,2024-07-02_14h21.21.465,Slot Machine Game,2023.1.3,Linux x86_64,119.047619,,,,,,,,,,,,,,,,,,,,,,,,,,,830,,,,,,,,,,,,,,,,,,,,,7,10,,,510.8516,11,left,0.1714,,1.5,0.3,"[1,3,2]",0.801201092,stimuli/card_100_transparent.png,100,11,0,11,0,1,,,,,,,,,,
,,,,,A,2024-07-02_14h21.21.465,Slot Machine Game,2023.1.3,Linux x86_64,119.047619,,,,,,,,,,,,,,,,,,,,,,,,,,,930,,,,,,,,,,,,,,,,,,,,,7,10,,,513.3265,12,left,0.0509,,1.5,0.3,"[1,3,2]",0.937821568,stimuli/card_100_transparent.png,100,12,0,12,0,1,,,,,,,,,,
,,,,,A,2024-07-02_14h21.21.465,Slot Machine Game,2023.1.3,Linux x86_64,119.047619,,,,,,,,,,,,,,,,,,,,,,,,,,,1030,,,,,,,,,,,,,,,,,,,,,7,10,,,515.6929,13,left,0.0629,,1.5,0.3,"[1,3,2]",0.328922071,stimuli/card_100_transparent.png,100,13,0,13,0,1,,,,,,,,,,
,,,,,A,2024-07-02_14h21.21.465,Slot Machine Game,2023.1.3,Linux x86_64,119.047619,,,,,,,,,,,,,,,,,,,,,,,,,,,1030,,,,,,,,,,,,,,,,,,,,,7,10,,,518.0599,14,left,0.1502,,1,0.3,"[1,3,2]",0.07999049,stimuli/card_0_transparent.png,0,14,0,14,0,1,,,,,,,,,,
,,,,,A,2024-07-02_14h21.21.465,Slot Machine Game,2023.1.3,Linux x86_64,119.047619,,,,,,,,,,,,,,,,,,,,,,,,,,,,,,,,,,,520.0268,,,,,,,,,,,,,,,,,,,,,,,,,,,,,,,,,"[1400,1020,640,1030,920,730,1030]",6,0,6,0,1,,,,
,,,,,A,2024-07-02_14h21.21.465,Slot Machine Game,2023.1.3,Linux x86_64,119.047619,,,,,,,,,,,,,,,,,,,,,,,,,,,10,,,,,,,,,,,,,,,,,,,,,8,7,"[9,15]","[[1,3,2],[2,3,1]]",525.0388,0,right,1.5616,,0.5,0.3,"[1,3,2]",0.320273911,stimuli/card_10_transparent.png,10,0,0,0,0,1,,,,,,,,,,
,,,,,A,2024-07-02_14h21.21.465,Slot Machine Game,2023.1.3,Linux x86_64,119.047619,,,,,,,,,,,,,,,,,,,,,,,,,,,10,,,,,,,,,,,,,,,,,,,,,8,7,,,527.9102,1,right,0.0074,,0.5,0.3,"[1,3,2]",0.030674156,stimuli/card_0_transparent.png,0,1,0,1,0,1,,,,,,,,,,
,,,,,A,2024-07-02_14h21.21.465,Slot Machine Game,2023.1.3,Linux x86_64,119.047619,,,,,,,,,,,,,,,,,,,,,,,,,,,110,,,,,,,,,,,,,,,,,,,,,8,7,,,529.2272,2,left,0.0182,,1.5,0.3,"[1,3,2]",0.858371989,stimuli/card_100_transparent.png,100,2,0,2,0,1,,,,,,,,,,
,,,,,A,2024-07-02_14h21.21.465,Slot Machine Game,2023.1.3,Linux x86_64,119.047619,,,,,,,,,,,,,,,,,,,,,,,,,,,120,,,,,,,,,,,,,,,,,,,,,8,7,,,531.5542,3,left,0.0452,,1,0.3,"[1,3,2]",0.148379752,stimuli/card_10_transparent.png,10,3,0,3,0,1,,,,,,,,,,
,,,,,A,2024-07-02_14h21.21.465,Slot Machine Game,2023.1.3,Linux x86_64,119.047619,,,,,,,,,,,,,,,,,,,,,,,,,,,220,,,,,,,,,,,,,,,,,,,,,8,7,,,533.4035,4,left,0.0691,,0.5,0.3,"[1,3,2]",0.51730878,stimuli/card_100_transparent.png,100,4,0,4,0,1,,,,,,,,,,
,,,,,A,2024-07-02_14h21.21.465,Slot Machine Game,2023.1.3,Linux x86_64,119.047619,,,,,,,,,,,,,,,,,,,,,,,,,,,230,,,,,,,,,,,,,,,,,,,,,8,7,,,534.7866,5,left,0.0417,,0.5,0.3,"[1,3,2]",0.183333461,stimuli/card_10_transparent.png,10,5,0,5,0,1,,,,,,,,,,
,,,,,A,2024-07-02_14h21.21.465,Slot Machine Game,2023.1.3,Linux x86_64,119.047619,,,,,,,,,,,,,,,,,,,,,,,,,,,330,,,,,,,,,,,,,,,,,,,,,8,7,,,536.1433,6,left,0.1425,,1.5,0.3,"[1,3,2]",0.764993207,stimuli/card_100_transparent.png,100,6,0,6,0,1,,,,,,,,,,
,,,,,A,2024-07-02_14h21.21.465,Slot Machine Game,2023.1.3,Linux x86_64,119.047619,,,,,,,,,,,,,,,,,,,,,,,,,,,430,,,,,,,,,,,,,,,,,,,,,8,7,,,538.5931,7,left,0.2882,,1.5,0.3,"[1,3,2]",0.24498406,stimuli/card_100_transparent.png,100,7,0,7,0,1,,,,,,,,,,
,,,,,A,2024-07-02_14h21.21.465,Slot Machine Game,2023.1.3,Linux x86_64,119.047619,,,,,,,,,,,,,,,,,,,,,,,,,,,530,,,,,,,,,,,,,,,,,,,,,8,7,,,541.2039,8,left,0.1426,,0.5,0.3,"[1,3,2]",0.968333357,stimuli/card_100_transparent.png,100,8,0,8,0,1,,,,,,,,,,
,,,,,A,2024-07-02_14h21.21.465,Slot Machine Game,2023.1.3,Linux x86_64,119.047619,,,,,,,,,,,,,,,,,,,,,,,,,,,540,,,,,,,,,,,,,,,,,,,,,8,7,,,542.6598,9,left,0.1999,,1,0.3,"[2,3,1]",0.93134648,stimuli/card_10_transparent.png,10,9,0,9,0,1,,,,,,,,,,
,,,,,A,2024-07-02_14h21.21.465,Slot Machine Game,2023.1.3,Linux x86_64,119.047619,,,,,,,,,,,,,,,,,,,,,,,,,,,550,,,,,,,,,,,,,,,,,,,,,8,7,,,544.6617,10,left,0.4932,,1,0.3,"[2,3,1]",0.521823909,stimuli/card_10_transparent.png,10,10,0,10,0,1,,,,,,,,,,
,,,,,A,2024-07-02_14h21.21.465,Slot Machine Game,2023.1.3,Linux x86_64,119.047619,,,,,,,,,,,,,,,,,,,,,,,,,,,550,,,,,,,,,,,,,,,,,,,,,8,7,,,546.9687,11,up,0.1621,,1.5,0.3,"[2,3,1]",0.909693796,stimuli/card_0_transparent.png,0,11,0,11,0,1,,,,,,,,,,
,,,,,A,2024-07-02_14h21.21.465,Slot Machine Game,2023.1.3,Linux x86_64,119.047619,,,,,,,,,,,,,,,,,,,,,,,,,,,560,,,,,,,,,,,,,,,,,,,,,8,7,,,549.4433,12,right,0.0035,,0.5,0.3,"[2,3,1]",0.12942368,stimuli/card_10_transparent.png,10,12,0,12,0,1,,,,,,,,,,
,,,,,A,2024-07-02_14h21.21.465,Slot Machine Game,2023.1.3,Linux x86_64,119.047619,,,,,,,,,,,,,,,,,,,,,,,,,,,660,,,,,,,,,,,,,,,,,,,,,8,7,,,550.76,13,right,0.0005,,1.5,0.3,"[2,3,1]",0.943899762,stimuli/card_100_transparent.png,100,13,0,13,0,1,,,,,,,,,,
,,,,,A,2024-07-02_14h21.21.465,Slot Machine Game,2023.1.3,Linux x86_64,119.047619,,,,,,,,,,,,,,,,,,,,,,,,,,,760,,,,,,,,,,,,,,,,,,,,,8,7,,,553.0762,14,right,0.1081,,1.5,0.3,"[2,3,1]",0.563889481,stimuli/card_100_transparent.png,100,14,0,14,0,1,,,,,,,,,,
,,,,,A,2024-07-02_14h21.21.465,Slot Machine Game,2023.1.3,Linux x86_64,119.047619,,,,,,,,,,,,,,,,,,,,,,,,,,,,,,,,,,,555.5015,,,,,,,,,,,,,,,,,,,,,,,,,,,,,,,,,"[1400,1020,640,1030,920,730,1030,760]",7,0,7,0,1,,,,
,,,,,A,2024-07-02_14h21.21.465,Slot Machine Game,2023.1.3,Linux x86_64,119.047619,,,,,,,,,,,,,,,,,,,,,,,,,,,100,,,,,,,,,,,,,,,,,,,,,9,9,[15],"[[3,1,2]]",560.5285,0,up,0.5266,,1.5,0.3,"[3,1,2]",0.845027047,stimuli/card_100_transparent.png,100,0,0,0,0,1,,,,,,,,,,
,,,,,A,2024-07-02_14h21.21.465,Slot Machine Game,2023.1.3,Linux x86_64,119.047619,,,,,,,,,,,,,,,,,,,,,,,,,,,200,,,,,,,,,,,,,,,,,,,,,9,9,,,563.3682,1,up,0.031,,0.5,0.3,"[3,1,2]",0.837329298,stimuli/card_100_transparent.png,100,1,0,1,0,1,,,,,,,,,,
,,,,,A,2024-07-02_14h21.21.465,Slot Machine Game,2023.1.3,Linux x86_64,119.047619,,,,,,,,,,,,,,,,,,,,,,,,,,,200,,,,,,,,,,,,,,,,,,,,,9,9,,,564.7022,2,up,0.1268,,1,0.3,"[3,1,2]",0.055147921,stimuli/card_0_transparent.png,0,2,0,2,0,1,,,,,,,,,,
,,,,,A,2024-07-02_14h21.21.465,Slot Machine Game,2023.1.3,Linux x86_64,119.047619,,,,,,,,,,,,,,,,,,,,,,,,,,,200,,,,,,,,,,,,,,,,,,,,,9,9,,,566.6426,3,up,0.1145,,1,0.3,"[3,1,2]",0.006619611,stimuli/card_0_transparent.png,0,3,0,3,0,1,,,,,,,,,,
,,,,,A,2024-07-02_14h21.21.465,Slot Machine Game,2023.1.3,Linux x86_64,119.047619,,,,,,,,,,,,,,,,,,,,,,,,,,,200,,,,,,,,,,,,,,,,,,,,,9,9,,,568.5598,4,left,0.1191,,0.5,0.3,"[3,1,2]",0.881474118,stimuli/card_0_transparent.png,0,4,0,4,0,1,,,,,,,,,,
,,,,,A,2024-07-02_14h21.21.465,Slot Machine Game,2023.1.3,Linux x86_64,119.047619,,,,,,,,,,,,,,,,,,,,,,,,,,,210,,,,,,,,,,,,,,,,,,,,,9,9,,,569.9938,5,right,0.0554,,1.5,0.3,"[3,1,2]",0.417938767,stimuli/card_10_transparent.png,10,5,0,5,0,1,,,,,,,,,,
,,,,,A,2024-07-02_14h21.21.465,Slot Machine Game,2023.1.3,Linux x86_64,119.047619,,,,,,,,,,,,,,,,,,,,,,,,,,,220,,,,,,,,,,,,,,,,,,,,,9,9,,,572.3599,6,right,0.0927,,1,0.3,"[3,1,2]",0.619780964,stimuli/card_10_transparent.png,10,6,0,6,0,1,,,,,,,,,,
,,,,,A,2024-07-02_14h21.21.465,Slot Machine Game,2023.1.3,Linux x86_64,119.047619,,,,,,,,,,,,,,,,,,,,,,,,,,,220,,,,,,,,,,,,,,,,,,,,,9,9,,,574.2677,7,left,0.1107,,1,0.3,"[3,1,2]",0.256283716,stimuli/card_0_transparent.png,0,7,0,7,0,1,,,,,,,,,,
,,,,,A,2024-07-02_14h21.21.465,Slot Machine Game,2023.1.3,Linux x86_64,119.047619,,,,,,,,,,,,,,,,,,,,,,,,,,,320,,,,,,,,,,,,,,,,,,,,,9,9,,,576.1929,8,up,0.1595,,1.5,0.3,"[3,1,2]",0.225373114,stimuli/card_100_transparent.png,100,8,0,8,0,1,,,,,,,,,,
,,,,,A,2024-07-02_14h21.21.465,Slot Machine Game,2023.1.3,Linux x86_64,119.047619,,,,,,,,,,,,,,,,,,,,,,,,,,,420,,,,,,,,,,,,,,,,,,,,,9,9,,,578.6598,9,up,0.1763,,1.5,0.3,"[3,1,2]",0.921066358,stimuli/card_100_transparent.png,100,9,0,9,0,1,,,,,,,,,,
,,,,,A,2024-07-02_14h21.21.465,Slot Machine Game,2023.1.3,Linux x86_64,119.047619,,,,,,,,,,,,,,,,,,,,,,,,,,,420,,,,,,,,,,,,,,,,,,,,,9,9,,,581.1516,10,up,0.1507,,1.5,0.3,"[3,1,2]",0.045290016,stimuli/card_0_transparent.png,0,10,0,10,0,1,,,,,,,,,,
,,,,,A,2024-07-02_14h21.21.465,Slot Machine Game,2023.1.3,Linux x86_64,119.047619,,,,,,,,,,,,,,,,,,,,,,,,,,,520,,,,,,,,,,,,,,,,,,,,,9,9,,,583.619,11,up,0.1506,,0.5,0.3,"[3,1,2]",0.572519979,stimuli/card_100_transparent.png,100,11,0,11,0,1,,,,,,,,,,
,,,,,A,2024-07-02_14h21.21.465,Slot Machine Game,2023.1.3,Linux x86_64,119.047619,,,,,,,,,,,,,,,,,,,,,,,,,,,620,,,,,,,,,,,,,,,,,,,,,9,9,,,585.0844,12,up,0.1072,,1.5,0.3,"[3,1,2]",0.597532714,stimuli/card_100_transparent.png,100,12,0,12,0,1,,,,,,,,,,
,,,,,A,2024-07-02_14h21.21.465,Slot Machine Game,2023.1.3,Linux x86_64,119.047619,,,,,,,,,,,,,,,,,,,,,,,,,,,720,,,,,,,,,,,,,,,,,,,,,9,9,,,587.4933,13,up,0.001,,1,0.3,"[3,1,2]",0.633371759,stimuli/card_100_transparent.png,100,13,0,13,0,1,,,,,,,,,,
,,,,,A,2024-07-02_14h21.21.465,Slot Machine Game,2023.1.3,Linux x86_64,119.047619,,,,,,,,,,,,,,,,,,,,,,,,,,,820,,,,,,,,,,,,,,,,,,,,,9,9,,,589.3094,14,up,0.1734,,1.5,0.3,"[3,1,2]",0.900767271,stimuli/card_100_transparent.png,100,14,0,14,0,1,,,,,,,,,,
,,,,,A,2024-07-02_14h21.21.465,Slot Machine Game,2023.1.3,Linux x86_64,119.047619,,,,,,,,,,,,,,,,,,,,,,,,,,,,,,,,,,,591.7845,,,,,,,,,,,,,,,,,,,,,,,,,,,,,,,,,"[1400,1020,640,1030,920,730,1030,760,820]",8,0,8,0,1,,,,
,,,,,A,2024-07-02_14h21.21.465,Slot Machine Game,2023.1.3,Linux x86_64,119.047619,,,,,,,,,,,,,,,,,,,,,,,,,,,10,,,,,,,,,,,,,,,,,,,,,10,6,"[4,10,15]","[[2,3,1],[1,3,2],[3,2,1]]",596.8042,0,left,0.8083,,0.5,0.3,"[2,3,1]",0.439589125,stimuli/card_10_transparent.png,10,0,0,0,0,1,,,,,,,,,,
,,,,,A,2024-07-02_14h21.21.465,Slot Machine Game,2023.1.3,Linux x86_64,119.047619,,,,,,,,,,,,,,,,,,,,,,,,,,,20,,,,,,,,,,,,,,,,,,,,,10,6,,,598.9182,1,left,0.1347,,0.5,0.3,"[2,3,1]",0.409605874,stimuli/card_10_transparent.png,10,1,0,1,0,1,,,,,,,,,,
,,,,,A,2024-07-02_14h21.21.465,Slot Machine Game,2023.1.3,Linux x86_64,119.047619,,,,,,,,,,,,,,,,,,,,,,,,,,,120,,,,,,,,,,,,,,,,,,,,,10,6,,,600.3619,2,right,0.0426,,1.5,0.3,"[2,3,1]",0.257094612,stimuli/card_100_transparent.png,100,2,0,2,0,1,,,,,,,,,,
,,,,,A,2024-07-02_14h21.21.465,Slot Machine Game,2023.1.3,Linux x86_64,119.047619,,,,,,,,,,,,,,,,,,,,,,,,,,,220,,,,,,,,,,,,,,,,,,,,,10,6,,,602.7179,3,right,0.1926,,1,0.3,"[2,3,1]",0.755646211,stimuli/card_100_transparent.png,100,3,0,3,0,1,,,,,,,,,,
,,,,,A,2024-07-02_14h21.21.465,Slot Machine Game,2023.1.3,Linux x86_64,119.047619,,,,,,,,,,,,,,,,,,,,,,,,,,,220,,,,,,,,,,,,,,,,,,,,,10,6,,,604.7175,4,right,0.2173,,1.5,0.3,"[1,3,2]",0.020256693,stimuli/card_0_transparent.png,0,4,0,4,0,1,,,,,,,,,,
,,,,,A,2024-07-02_14h21.21.465,Slot Machine Game,2023.1.3,Linux x86_64,119.047619,,,,,,,,,,,,,,,,,,,,,,,,,,,230,,,,,,,,,,,,,,,,,,,,,10,6,,,607.2425,5,right,0.1219,,1.5,0.3,"[1,3,2]",0.400355883,stimuli/card_10_transparent.png,10,5,0,5,0,1,,,,,,,,,,
,,,,,A,2024-07-02_14h21.21.465,Slot Machine Game,2023.1.3,Linux x86_64,119.047619,,,,,,,,,,,,,,,,,,,,,,,,,,,230,,,,,,,,,,,,,,,,,,,,,10,6,,,609.6771,6,up,0.0054,,1.5,0.3,"[1,3,2]",0.406026579,stimuli/card_0_transparent.png,0,6,0,6,0,1,,,,,,,,,,
,,,,,A,2024-07-02_14h21.21.465,Slot Machine Game,2023.1.3,Linux x86_64,119.047619,,,,,,,,,,,,,,,,,,,,,,,,,,,330,,,,,,,,,,,,,,,,,,,,,10,6,,,611.9935,7,left,0.0037,,1.5,0.3,"[1,3,2]",0.782760546,stimuli/card_100_transparent.png,100,7,0,7,0,1,,,,,,,,,,
,,,,,A,2024-07-02_14h21.21.465,Slot Machine Game,2023.1.3,Linux x86_64,119.047619,,,,,,,,,,,,,,,,,,,,,,,,,,,430,,,,,,,,,,,,,,,,,,,,,10,6,,,614.3092,8,left,0.0089,,1,0.3,"[1,3,2]",0.750899738,stimuli/card_100_transparent.png,100,8,0,8,0,1,,,,,,,,,,
,,,,,A,2024-07-02_14h21.21.465,Slot Machine Game,2023.1.3,Linux x86_64,119.047619,,,,,,,,,,,,,,,,,,,,,,,,,,,530,,,,,,,,,,,,,,,,,,,,,10,6,,,616.1259,9,left,0.1017,,1.5,0.3,"[1,3,2]",0.576678831,stimuli/card_100_transparent.png,100,9,0,9,0,1,,,,,,,,,,
,,,,,A,2024-07-02_14h21.21.465,Slot Machine Game,2023.1.3,Linux x86_64,119.047619,,,,,,,,,,,,,,,,,,,,,,,,,,,530,,,,,,,,,,,,,,,,,,,,,10,6,,,618.5341,10,left,0.3452,,0.5,0.3,"[3,2,1]",0.786679896,stimuli/card_0_transparent.png,0,10,0,10,0,1,,,,,,,,,,
,,,,,A,2024-07-02_14h21.21.465,Slot Machine Game,2023.1.3,Linux x86_64,119.047619,,,,,,,,,,,,,,,,,,,,,,,,,,,530,,,,,,,,,,,,,,,,,,,,,10,6,,,620.1948,11,left,0.0286,,1.5,0.3,"[3,2,1]",0.644861536,stimuli/card_0_transparent.png,0,11,0,11,0,1,,,,,,,,,,
,,,,,A,2024-07-02_14h21.21.465,Slot Machine Game,2023.1.3,Linux x86_64,119.047619,,,,,,,,,,,,,,,,,,,,,,,,,,,540,,,,,,,,,,,,,,,,,,,,,10,6,,,622.5343,12,up,0.0592,,0.5,0.3,"[3,2,1]",0.318511952,stimuli/card_10_transparent.png,10,12,0,12,0,1,,,,,,,,,,
,,,,,A,2024-07-02_14h21.21.465,Slot Machine Game,2023.1.3,Linux x86_64,119.047619,,,,,,,,,,,,,,,,,,,,,,,,,,,540,,,,,,,,,,,,,,,,,,,,,10,6,,,623.9094,13,up,0.172,,1,0.3,"[3,2,1]",0.003129238,stimuli/card_0_transparent.png,0,13,0,13,0,1,,,,,,,,,,
,,,,,A,2024-07-02_14h21.21.465,Slot Machine Game,2023.1.3,Linux x86_64,119.047619,,,,,,,,,,,,,,,,,,,,,,,,,,,640,,,,,,,,,,,,,,,,,,,,,10,6,,,625.8845,14,right,0.1044,,1.5,0.3,"[3,2,1]",0.709660893,stimuli/card_100_transparent.png,100,14,0,14,0,1,,,,,,,,,,
,,,,,A,2024-07-02_14h21.21.465,Slot Machine Game,2023.1.3,Linux x86_64,119.047619,,,,,,,,,,,,,,,,,,,,,,,,,,,,,,,,,,,628.2932,,,,,,,,,,,,,,,,,,,,,,,,,,,,,,,,,"[1400,1020,640,1030,920,730,1030,760,820,640]",9,0,9,0,1,,,,
,,,,,A,2024-07-02_14h21.21.465,Slot Machine Game,2023.1.3,Linux x86_64,119.047619,,,,,,,,,,,,,,,,,,,,,,,,,,,,,,,,,,,,,,,,,,,,,,,,,,,,,,,,,,,,,,,,,,,,,,,,,,9,"[1400,1020,640,1030,920,730,1030,760,820,640]",10.2,2024-07-02_14h31.58.822
