key_resp_welcome_started,key_resp_welcome_keys,key_resp_welcome_rt,key_resp_welcome_duration,prolific_pid,path_id,date,expName,psychopyVersion,OS,frameRate,key_resp_instruction1_started,key_resp_instruction1_keys,key_resp_instruction1_rt,key_resp_instruction1_duration,key_resp_instruction2_started,key_resp_instruction2_keys,key_resp_instruction2_rt,key_resp_instruction2_duration,key_resp_instruction3_started,key_resp_instruction3_keys,key_resp_instruction3_rt,key_resp_instruction3_duration,key_resp_instruction4_started,key_resp_instruction4_keys,key_resp_instruction4_rt,key_resp_instruction4_duration,practiceCondition,practice_reward_seqs,practice_trial_started,practice_trial_num,practice_resp_rt,practice_keypress_time,practice_resp_keys,prac_presentationInterval,practice_reward_seq,reward_img,cumulative_reward,trial_reward,practice_trials.thisRepN,practice_trials.thisTrialN,practice_trials.thisN,practice_trials.thisIndex,practice_trials.ran,block_break_started,practice_end_time,practice_end_keys,practice_end_rt,practice_end_duration,main_instruction_text_started,block_condition,block_order_indices,main_instruction_keys,main_instruction_rt,main_instruction_duration,block_number,block_assignment,current_condition,main_reward_seqs,main_trial_started,main_trial_num,main_trial_keys,main_trial_rt,main_trial_keypress_time,main_presentationInterval,reward_presentation_time,main_reward_seq,reward_rand_val,main_reward_img,current_reward,main_trials.thisRepN,main_trials.thisTrialN,main_trials.thisN,main_trials.thisIndex,main_trials.ran,block_reward,block.thisRepN,block.thisTrialN,block.thisN,block.thisIndex,block.ran,block_reward.length,block_reward_all,reward_amount,date_end_task
0.0002,space,2.0815,,6634ef7a7f344c0123697758,B,2024-08-21_16h34.57.305,Slot Machine Game,2023.1.3,Win32,58.82352941,,,,,,,,,,,,,,,,,,,,,,,,,,,,,,,,,,,,,,,,,,,,,,,,,,,,,,,,,,,,,,,,,,,,,,,,,,
,,,,6634ef7a7f344c0123697758,B,2024-08-21_16h34.57.305,Slot Machine Game,2023.1.3,Win32,58.82352941,2.1028,space,19.1203,,,,,,,,,,,,,,,,,,,,,,,,,,,,,,,,,,,,,,,,,,,,,,,,,,,,,,,,,,,,,,,,,,,,,,,
,,,,6634ef7a7f344c0123697758,B,2024-08-21_16h34.57.305,Slot Machine Game,2023.1.3,Win32,58.82352941,,,,,21.2505,space,30.4574,,,,,,,,,,,,,,,,,,,,,,,,,,,,,,,,,,,,,,,,,,,,,,,,,,,,,,,,,,,,,,,,,,,
,,,,6634ef7a7f344c0123697758,B,2024-08-21_16h34.57.305,Slot Machine Game,2023.1.3,Win32,58.82352941,,,,,,,,,51.7423,space,7.7584,,,,,,,,,,,,,,,,,,,,,,,,,,,,,,,,,,,,,,,,,,,,,,,,,,,,,,,,,,,,,,,
,,,,6634ef7a7f344c0123697758,B,2024-08-21_16h34.57.305,Slot Machine Game,2023.1.3,Win32,58.82352941,,,,,,,,,,,,,,,,,,,,,,,,,,,,,,,,,,,,,,,,,,,,,,,,,,,,,,,,,,,,,,,,,,,,,,,,,,
,,,,6634ef7a7f344c0123697758,B,2024-08-21_16h34.57.305,Slot Machine Game,2023.1.3,Win32,58.82352941,,,,,,,,,,,,,201.9377,space,3.4045,,,,,,,,,,,,,,,,,,,,,,,,,,,,,,,,,,,,,,,,,,,,,,,,,,,,,,,,,,,
,,,,6634ef7a7f344c0123697758,B,2024-08-21_16h34.57.305,Slot Machine Game,2023.1.3,Win32,58.82352941,,,,,,,,,,,,,,,,,"[9,15]","[[2,1,3],[2,3,1]]",205.3685,0,2.0125,207.3923,right,1.5,"[2,1,3]",stimuli/card_0_transparent.png,0,0,0,0,0,0,1,,,,,,,,,,,,,,,,,,,,,,,,,,,,,,,,,,,,,,,,,
,,,,6634ef7a7f344c0123697758,B,2024-08-21_16h34.57.305,Slot Machine Game,2023.1.3,Win32,58.82352941,,,,,,,,,,,,,,,,,,,209.1904,1,1.9062,211.121,up,1,"[2,1,3]",stimuli/card_100_transparent.png,100,100,1,0,1,0,1,,,,,,,,,,,,,,,,,,,,,,,,,,,,,,,,,,,,,,,,,
,,,,6634ef7a7f344c0123697758,B,2024-08-21_16h34.57.305,Slot Machine Game,2023.1.3,Win32,58.82352941,,,,,,,,,,,,,,,,,,,212.4204,2,1.2096,213.652,up,0.5,"[2,1,3]",stimuli/card_100_transparent.png,200,100,2,0,2,0,1,,,,,,,,,,,,,,,,,,,,,,,,,,,,,,,,,,,,,,,,,
,,,,6634ef7a7f344c0123697758,B,2024-08-21_16h34.57.305,Slot Machine Game,2023.1.3,Win32,58.82352941,,,,,,,,,,,,,,,,,,,214.4518,3,0.7423,215.2174,up,0.5,"[2,1,3]",stimuli/card_100_transparent.png,300,100,3,0,3,0,1,,,,,,,,,,,,,,,,,,,,,,,,,,,,,,,,,,,,,,,,,
,,,,6634ef7a7f344c0123697758,B,2024-08-21_16h34.57.305,Slot Machine Game,2023.1.3,Win32,58.82352941,,,,,,,,,,,,,,,,,,,216.0173,4,0.6334,216.6826,up,0.5,"[2,1,3]",stimuli/card_100_transparent.png,400,100,4,0,4,0,1,,,,,,,,,,,,,,,,,,,,,,,,,,,,,,,,,,,,,,,,,
,,,,6634ef7a7f344c0123697758,B,2024-08-21_16h34.57.305,Slot Machine Game,2023.1.3,Win32,58.82352941,,,,,,,,,,,,,,,,,,,217.4826,5,2.4196,219.9468,left,1,"[2,1,3]",stimuli/card_10_transparent.png,410,10,5,0,5,0,1,,,,,,,,,,,,,,,,,,,,,,,,,,,,,,,,,,,,,,,,,
,,,,6634ef7a7f344c0123697758,B,2024-08-21_16h34.57.305,Slot Machine Game,2023.1.3,Win32,58.82352941,,,,,,,,,,,,,,,,,,,221.2456,6,1.2178,222.4939,up,1.5,"[2,1,3]",stimuli/card_0_transparent.png,410,0,6,0,6,0,1,,,,,,,,,,,,,,,,,,,,,,,,,,,,,,,,,,,,,,,,,
,,,,6634ef7a7f344c0123697758,B,2024-08-21_16h34.57.305,Slot Machine Game,2023.1.3,Win32,58.82352941,,,,,,,,,,,,,,,,,,,224.2925,7,0.8949,225.2092,right,1,"[2,1,3]",stimuli/card_0_transparent.png,410,0,7,0,7,0,1,,,,,,,,,,,,,,,,,,,,,,,,,,,,,,,,,,,,,,,,,
,,,,6634ef7a7f344c0123697758,B,2024-08-21_16h34.57.305,Slot Machine Game,2023.1.3,Win32,58.82352941,,,,,,,,,,,,,,,,,,,226.5078,8,0.7849,227.3236,up,1,"[2,1,3]",stimuli/card_100_transparent.png,510,100,8,0,8,0,1,,,,,,,,,,,,,,,,,,,,,,,,,,,,,,,,,,,,,,,,,
,,,,6634ef7a7f344c0123697758,B,2024-08-21_16h34.57.305,Slot Machine Game,2023.1.3,Win32,58.82352941,,,,,,,,,,,,,,,,,,,228.6048,9,0.5173,229.1549,up,0.5,"[2,3,1]",stimuli/card_0_transparent.png,510,0,9,0,9,0,1,,,,,,,,,,,,,,,,,,,,,,,,,,,,,,,,,,,,,,,,,
,,,,6634ef7a7f344c0123697758,B,2024-08-21_16h34.57.305,Slot Machine Game,2023.1.3,Win32,58.82352941,,,,,,,,,,,,,,,,,,,229.9541,10,2.2,232.1851,up,1,"[2,3,1]",stimuli/card_0_transparent.png,510,0,10,0,10,0,1,,,,,,,,,,,,,,,,,,,,,,,,,,,,,,,,,,,,,,,,,
,,,,6634ef7a7f344c0123697758,B,2024-08-21_16h34.57.305,Slot Machine Game,2023.1.3,Win32,58.82352941,,,,,,,,,,,,,,,,,,,233.4843,11,0.7682,234.2828,up,1,"[2,3,1]",stimuli/card_100_transparent.png,610,100,11,0,11,0,1,,,,,,,,,,,,,,,,,,,,,,,,,,,,,,,,,,,,,,,,,
,,,,6634ef7a7f344c0123697758,B,2024-08-21_16h34.57.305,Slot Machine Game,2023.1.3,Win32,58.82352941,,,,,,,,,,,,,,,,,,,235.5819,12,1.0508,236.664,up,0.5,"[2,3,1]",stimuli/card_0_transparent.png,610,0,12,0,12,0,1,,,,,,,,,,,,,,,,,,,,,,,,,,,,,,,,,,,,,,,,,
,,,,6634ef7a7f344c0123697758,B,2024-08-21_16h34.57.305,Slot Machine Game,2023.1.3,Win32,58.82352941,,,,,,,,,,,,,,,,,,,237.4632,13,0.7555,238.2462,up,0.5,"[2,3,1]",stimuli/card_0_transparent.png,610,0,13,0,13,0,1,,,,,,,,,,,,,,,,,,,,,,,,,,,,,,,,,,,,,,,,,
,,,,6634ef7a7f344c0123697758,B,2024-08-21_16h34.57.305,Slot Machine Game,2023.1.3,Win32,58.82352941,,,,,,,,,,,,,,,,,,,239.0457,14,0.9343,240.011,up,1,"[2,3,1]",stimuli/card_0_transparent.png,610,0,14,0,14,0,1,,,,,,,,,,,,,,,,,,,,,,,,,,,,,,,,,,,,,,,,,
,,,,6634ef7a7f344c0123697758,B,2024-08-21_16h34.57.305,Slot Machine Game,2023.1.3,Win32,58.82352941,,,,,,,,,,,,,,,,,"[6,15]","[[1,3,2],[3,1,2]]",246.3494,0,1.9587,248.3201,left,1,"[1,3,2]",stimuli/card_100_transparent.png,100,100,0,0,0,0,1,241.3334,,,,,,,,,,,,,,,,,,,,,,,,,,,,,,,,,,,,,,,,
,,,,6634ef7a7f344c0123697758,B,2024-08-21_16h34.57.305,Slot Machine Game,2023.1.3,Win32,58.82352941,,,,,,,,,,,,,,,,,,,249.6181,1,1.9713,251.6166,left,1.5,"[1,3,2]",stimuli/card_10_transparent.png,110,10,1,0,1,0,1,,,,,,,,,,,,,,,,,,,,,,,,,,,,,,,,,,,,,,,,,
,,,,6634ef7a7f344c0123697758,B,2024-08-21_16h34.57.305,Slot Machine Game,2023.1.3,Win32,58.82352941,,,,,,,,,,,,,,,,,,,253.4157,2,0.9684,254.4148,right,0.5,"[1,3,2]",stimuli/card_0_transparent.png,110,0,2,0,2,0,1,,,,,,,,,,,,,,,,,,,,,,,,,,,,,,,,,,,,,,,,,
,,,,6634ef7a7f344c0123697758,B,2024-08-21_16h34.57.305,Slot Machine Game,2023.1.3,Win32,58.82352941,,,,,,,,,,,,,,,,,,,255.2137,3,1.0295,256.279,right,0.5,"[1,3,2]",stimuli/card_10_transparent.png,120,10,3,0,3,0,1,,,,,,,,,,,,,,,,,,,,,,,,,,,,,,,,,,,,,,,,,
,,,,6634ef7a7f344c0123697758,B,2024-08-21_16h34.57.305,Slot Machine Game,2023.1.3,Win32,58.82352941,,,,,,,,,,,,,,,,,,,257.0782,4,1.0014,258.1111,up,1.5,"[1,3,2]",stimuli/card_0_transparent.png,120,0,4,0,4,0,1,,,,,,,,,,,,,,,,,,,,,,,,,,,,,,,,,,,,,,,,,
,,,,6634ef7a7f344c0123697758,B,2024-08-21_16h34.57.305,Slot Machine Game,2023.1.3,Win32,58.82352941,,,,,,,,,,,,,,,,,,,259.9133,5,0.6682,260.5985,up,1,"[1,3,2]",stimuli/card_0_transparent.png,120,0,5,0,5,0,1,,,,,,,,,,,,,,,,,,,,,,,,,,,,,,,,,,,,,,,,,
,,,,6634ef7a7f344c0123697758,B,2024-08-21_16h34.57.305,Slot Machine Game,2023.1.3,Win32,58.82352941,,,,,,,,,,,,,,,,,,,261.8987,6,0.5667,262.4821,left,1.5,"[3,1,2]",stimuli/card_0_transparent.png,120,0,6,0,6,0,1,,,,,,,,,,,,,,,,,,,,,,,,,,,,,,,,,,,,,,,,,
,,,,6634ef7a7f344c0123697758,B,2024-08-21_16h34.57.305,Slot Machine Game,2023.1.3,Win32,58.82352941,,,,,,,,,,,,,,,,,,,264.2837,7,0.8011,265.1184,left,1,"[3,1,2]",stimuli/card_0_transparent.png,120,0,7,0,7,0,1,,,,,,,,,,,,,,,,,,,,,,,,,,,,,,,,,,,,,,,,,
,,,,6634ef7a7f344c0123697758,B,2024-08-21_16h34.57.305,Slot Machine Game,2023.1.3,Win32,58.82352941,,,,,,,,,,,,,,,,,,,266.42,8,0.9513,267.404,left,1,"[3,1,2]",stimuli/card_100_transparent.png,220,100,8,0,8,0,1,,,,,,,,,,,,,,,,,,,,,,,,,,,,,,,,,,,,,,,,,
,,,,6634ef7a7f344c0123697758,B,2024-08-21_16h34.57.305,Slot Machine Game,2023.1.3,Win32,58.82352941,,,,,,,,,,,,,,,,,,,268.7048,9,0.8012,269.5394,left,0.5,"[3,1,2]",stimuli/card_0_transparent.png,220,0,9,0,9,0,1,,,,,,,,,,,,,,,,,,,,,,,,,,,,,,,,,,,,,,,,,
,,,,6634ef7a7f344c0123697758,B,2024-08-21_16h34.57.305,Slot Machine Game,2023.1.3,Win32,58.82352941,,,,,,,,,,,,,,,,,,,270.3397,10,0.6843,271.0412,left,1,"[3,1,2]",stimuli/card_0_transparent.png,220,0,10,0,10,0,1,,,,,,,,,,,,,,,,,,,,,,,,,,,,,,,,,,,,,,,,,
,,,,6634ef7a7f344c0123697758,B,2024-08-21_16h34.57.305,Slot Machine Game,2023.1.3,Win32,58.82352941,,,,,,,,,,,,,,,,,,,272.3421,11,0.5169,272.8922,left,0.5,"[3,1,2]",stimuli/card_100_transparent.png,320,100,11,0,11,0,1,,,,,,,,,,,,,,,,,,,,,,,,,,,,,,,,,,,,,,,,,
,,,,6634ef7a7f344c0123697758,B,2024-08-21_16h34.57.305,Slot Machine Game,2023.1.3,Win32,58.82352941,,,,,,,,,,,,,,,,,,,273.6956,12,0.6841,274.4123,left,1,"[3,1,2]",stimuli/card_0_transparent.png,320,0,12,0,12,0,1,,,,,,,,,,,,,,,,,,,,,,,,,,,,,,,,,,,,,,,,,
,,,,6634ef7a7f344c0123697758,B,2024-08-21_16h34.57.305,Slot Machine Game,2023.1.3,Win32,58.82352941,,,,,,,,,,,,,,,,,,,275.7109,13,0.8675,276.6111,right,1,"[3,1,2]",stimuli/card_100_transparent.png,420,100,13,0,13,0,1,,,,,,,,,,,,,,,,,,,,,,,,,,,,,,,,,,,,,,,,,
,,,,6634ef7a7f344c0123697758,B,2024-08-21_16h34.57.305,Slot Machine Game,2023.1.3,Win32,58.82352941,,,,,,,,,,,,,,,,,,,277.9094,14,0.8006,278.7418,right,1.5,"[3,1,2]",stimuli/card_10_transparent.png,430,10,14,0,14,0,1,,,,,,,,,,,,,,,,,,,,,,,,,,,,,,,,,,,,,,,,,
,,,,6634ef7a7f344c0123697758,B,2024-08-21_16h34.57.305,Slot Machine Game,2023.1.3,Win32,58.82352941,,,,,,,,,,,,,,,,,,,,,,,,,,,,,,,,,,280.54,285.5414,space,3.3075,,,,,,,,,,,,,,,,,,,,,,,,,,,,,,,,,,,,,
,,,,6634ef7a7f344c0123697758,B,2024-08-21_16h34.57.305,Slot Machine Game,2023.1.3,Win32,58.82352941,,,,,,,,,,,,,,,,,,,,,,,,,,,,,,,,,,,,,,,288.8851,2,"[2,4,7,0,1,3,9,6,8,5]",space,1.6856,,,,,,,,,,,,,,,,,,,,,,,,,,,,,,,
,,,,6634ef7a7f344c0123697758,B,2024-08-21_16h34.57.305,Slot Machine Game,2023.1.3,Win32,58.82352941,,,,,,,,,,,,,,,,,,,,,,,,,,,100,,,,,,,,,,,,,,,,,,1,3,"[15,15]","[[3,1,2],[3,1,2]]",290.6187,0,up,1.3431,291.9794,1.5,0.3,"[3,1,2]",0.992136938,stimuli/card_100_transparent.png,100,0,0,0,0,1,,,,,,,,,,
,,,,6634ef7a7f344c0123697758,B,2024-08-21_16h34.57.305,Slot Machine Game,2023.1.3,Win32,58.82352941,,,,,,,,,,,,,,,,,,,,,,,,,,,100,,,,,,,,,,,,,,,,,,1,3,,,293.7784,1,up,1.2759,295.0605,1.5,0.3,"[3,1,2]",0.097240583,stimuli/card_0_transparent.png,0,1,0,1,0,1,,,,,,,,,,
,,,,6634ef7a7f344c0123697758,B,2024-08-21_16h34.57.305,Slot Machine Game,2023.1.3,Win32,58.82352941,,,,,,,,,,,,,,,,,,,,,,,,,,,200,,,,,,,,,,,,,,,,,,1,3,,,296.852,2,up,0.9843,297.8572,1,0.3,"[3,1,2]",0.97819631,stimuli/card_100_transparent.png,100,2,0,2,0,1,,,,,,,,,,
,,,,6634ef7a7f344c0123697758,B,2024-08-21_16h34.57.305,Slot Machine Game,2023.1.3,Win32,58.82352941,,,,,,,,,,,,,,,,,,,,,,,,,,,300,,,,,,,,,,,,,,,,,,1,3,,,299.1557,3,up,0.7007,299.8883,1.5,0.3,"[3,1,2]",0.903315994,stimuli/card_100_transparent.png,100,3,0,3,0,1,,,,,,,,,,
,,,,6634ef7a7f344c0123697758,B,2024-08-21_16h34.57.305,Slot Machine Game,2023.1.3,Win32,58.82352941,,,,,,,,,,,,,,,,,,,,,,,,,,,400,,,,,,,,,,,,,,,,,,1,3,,,301.6862,4,up,0.6676,302.3701,0.5,0.3,"[3,1,2]",0.200232476,stimuli/card_100_transparent.png,100,4,0,4,0,1,,,,,,,,,,
,,,,6634ef7a7f344c0123697758,B,2024-08-21_16h34.57.305,Slot Machine Game,2023.1.3,Win32,58.82352941,,,,,,,,,,,,,,,,,,,,,,,,,,,500,,,,,,,,,,,,,,,,,,1,3,,,303.169,5,up,0.7609,303.952,1.5,0.3,"[3,1,2]",0.474666702,stimuli/card_100_transparent.png,100,5,0,5,0,1,,,,,,,,,,
,,,,6634ef7a7f344c0123697758,B,2024-08-21_16h34.57.305,Slot Machine Game,2023.1.3,Win32,58.82352941,,,,,,,,,,,,,,,,,,,,,,,,,,,600,,,,,,,,,,,,,,,,,,1,3,,,305.7497,6,up,0.6505,306.4326,1.5,0.3,"[3,1,2]",0.985661306,stimuli/card_100_transparent.png,100,6,0,6,0,1,,,,,,,,,,
,,,,6634ef7a7f344c0123697758,B,2024-08-21_16h34.57.305,Slot Machine Game,2023.1.3,Win32,58.82352941,,,,,,,,,,,,,,,,,,,,,,,,,,,700,,,,,,,,,,,,,,,,,,1,3,,,308.231,7,up,0.6671,308.9297,1,0.3,"[3,1,2]",0.836351425,stimuli/card_100_transparent.png,100,7,0,7,0,1,,,,,,,,,,
,,,,6634ef7a7f344c0123697758,B,2024-08-21_16h34.57.305,Slot Machine Game,2023.1.3,Win32,58.82352941,,,,,,,,,,,,,,,,,,,,,,,,,,,710,,,,,,,,,,,,,,,,,,1,3,,,310.2287,8,up,0.5059,310.7614,0.5,0.3,"[3,1,2]",0.15301524,stimuli/card_10_transparent.png,10,8,0,8,0,1,,,,,,,,,,
,,,,6634ef7a7f344c0123697758,B,2024-08-21_16h34.57.305,Slot Machine Game,2023.1.3,Win32,58.82352941,,,,,,,,,,,,,,,,,,,,,,,,,,,810,,,,,,,,,,,,,,,,,,1,3,,,311.5613,9,up,4.2034,315.7927,0.5,0.3,"[3,1,2]",0.647649736,stimuli/card_100_transparent.png,100,9,0,9,0,1,,,,,,,,,,
,,,,6634ef7a7f344c0123697758,B,2024-08-21_16h34.57.305,Slot Machine Game,2023.1.3,Win32,58.82352941,,,,,,,,,,,,,,,,,,,,,,,,,,,910,,,,,,,,,,,,,,,,,,1,3,,,316.5899,10,up,0.9866,317.605,0.5,0.3,"[3,1,2]",0.512277868,stimuli/card_100_transparent.png,100,10,0,10,0,1,,,,,,,,,,
,,,,6634ef7a7f344c0123697758,B,2024-08-21_16h34.57.305,Slot Machine Game,2023.1.3,Win32,58.82352941,,,,,,,,,,,,,,,,,,,,,,,,,,,1010,,,,,,,,,,,,,,,,,,1,3,,,318.4046,11,up,0.5672,319.004,1,0.3,"[3,1,2]",0.889666201,stimuli/card_100_transparent.png,100,11,0,11,0,1,,,,,,,,,,
,,,,6634ef7a7f344c0123697758,B,2024-08-21_16h34.57.305,Slot Machine Game,2023.1.3,Win32,58.82352941,,,,,,,,,,,,,,,,,,,,,,,,,,,1020,,,,,,,,,,,,,,,,,,1,3,,,320.3028,12,up,1.3173,321.6513,1,0.3,"[3,1,2]",0.104238925,stimuli/card_10_transparent.png,10,12,0,12,0,1,,,,,,,,,,
,,,,6634ef7a7f344c0123697758,B,2024-08-21_16h34.57.305,Slot Machine Game,2023.1.3,Win32,58.82352941,,,,,,,,,,,,,,,,,,,,,,,,,,,1120,,,,,,,,,,,,,,,,,,1,3,,,322.9504,13,up,0.6838,323.6662,1,0.3,"[3,1,2]",0.839971816,stimuli/card_100_transparent.png,100,13,0,13,0,1,,,,,,,,,,
,,,,6634ef7a7f344c0123697758,B,2024-08-21_16h34.57.305,Slot Machine Game,2023.1.3,Win32,58.82352941,,,,,,,,,,,,,,,,,,,,,,,,,,,1220,,,,,,,,,,,,,,,,,,1,3,,,324.9648,14,up,0.8507,325.8475,1,0.3,"[3,1,2]",0.979272907,stimuli/card_100_transparent.png,100,14,0,14,0,1,,,,,,,,,,
,,,,6634ef7a7f344c0123697758,B,2024-08-21_16h34.57.305,Slot Machine Game,2023.1.3,Win32,58.82352941,,,,,,,,,,,,,,,,,,,,,,,,,,,,,,,,,,327.1468,,,,,,,,,,,,,,,,,,,,,,,,,,,,,,,[1220],0,0,0,0,1,,,,
,,,,6634ef7a7f344c0123697758,B,2024-08-21_16h34.57.305,Slot Machine Game,2023.1.3,Win32,58.82352941,,,,,,,,,,,,,,,,,,,,,,,,,,,0,,,,,,,,,,,,,,,,,,2,5,"[5,15]","[[1,2,3],[3,1,2]]",332.1673,0,right,1.5681,333.7527,0.5,0.3,"[1,2,3]",0.685923818,stimuli/card_0_transparent.png,0,0,0,0,0,1,,,,,,,,,,
,,,,6634ef7a7f344c0123697758,B,2024-08-21_16h34.57.305,Slot Machine Game,2023.1.3,Win32,58.82352941,,,,,,,,,,,,,,,,,,,,,,,,,,,0,,,,,,,,,,,,,,,,,,2,5,,,334.5563,1,right,1.0505,335.6384,1.5,0.3,"[1,2,3]",0.856598212,stimuli/card_0_transparent.png,0,1,0,1,0,1,,,,,,,,,,
,,,,6634ef7a7f344c0123697758,B,2024-08-21_16h34.57.305,Slot Machine Game,2023.1.3,Win32,58.82352941,,,,,,,,,,,,,,,,,,,,,,,,,,,100,,,,,,,,,,,,,,,,,,2,5,,,337.4369,2,left,0.7254,338.1867,1.5,0.3,"[1,2,3]",0.623176206,stimuli/card_100_transparent.png,100,2,0,2,0,1,,,,,,,,,,
,,,,6634ef7a7f344c0123697758,B,2024-08-21_16h34.57.305,Slot Machine Game,2023.1.3,Win32,58.82352941,,,,,,,,,,,,,,,,,,,,,,,,,,,200,,,,,,,,,,,,,,,,,,2,5,,,339.9843,3,left,0.8719,340.8833,1.5,0.3,"[1,2,3]",0.234849968,stimuli/card_100_transparent.png,100,3,0,3,0,1,,,,,,,,,,
,,,,6634ef7a7f344c0123697758,B,2024-08-21_16h34.57.305,Slot Machine Game,2023.1.3,Win32,58.82352941,,,,,,,,,,,,,,,,,,,,,,,,,,,300,,,,,,,,,,,,,,,,,,2,5,,,342.6816,4,left,0.7507,343.4641,0.5,0.3,"[1,2,3]",0.842049109,stimuli/card_100_transparent.png,100,4,0,4,0,1,,,,,,,,,,
,,,,6634ef7a7f344c0123697758,B,2024-08-21_16h34.57.305,Slot Machine Game,2023.1.3,Win32,58.82352941,,,,,,,,,,,,,,,,,,,,,,,,,,,300,,,,,,,,,,,,,,,,,,2,5,,,344.2645,5,left,1.3019,345.5836,1,0.3,"[3,1,2]",0.538414239,stimuli/card_0_transparent.png,0,5,0,5,0,1,,,,,,,,,,
,,,,6634ef7a7f344c0123697758,B,2024-08-21_16h34.57.305,Slot Machine Game,2023.1.3,Win32,58.82352941,,,,,,,,,,,,,,,,,,,,,,,,,,,400,,,,,,,,,,,,,,,,,,2,5,,,346.8836,6,up,0.8678,347.7686,0.5,0.3,"[3,1,2]",0.319213124,stimuli/card_100_transparent.png,100,6,0,6,0,1,,,,,,,,,,
,,,,6634ef7a7f344c0123697758,B,2024-08-21_16h34.57.305,Slot Machine Game,2023.1.3,Win32,58.82352941,,,,,,,,,,,,,,,,,,,,,,,,,,,400,,,,,,,,,,,,,,,,,,2,5,,,348.568,7,left,0.6344,349.2355,0.5,0.3,"[3,1,2]",0.716615415,stimuli/card_0_transparent.png,0,7,0,7,0,1,,,,,,,,,,
,,,,6634ef7a7f344c0123697758,B,2024-08-21_16h34.57.305,Slot Machine Game,2023.1.3,Win32,58.82352941,,,,,,,,,,,,,,,,,,,,,,,,,,,400,,,,,,,,,,,,,,,,,,2,5,,,350.0354,8,left,0.7342,350.7874,1,0.3,"[3,1,2]",0.340762184,stimuli/card_0_transparent.png,0,8,0,8,0,1,,,,,,,,,,
,,,,6634ef7a7f344c0123697758,B,2024-08-21_16h34.57.305,Slot Machine Game,2023.1.3,Win32,58.82352941,,,,,,,,,,,,,,,,,,,,,,,,,,,500,,,,,,,,,,,,,,,,,,2,5,,,352.0885,9,up,0.5334,352.6385,0.5,0.3,"[3,1,2]",0.602407429,stimuli/card_100_transparent.png,100,9,0,9,0,1,,,,,,,,,,
,,,,6634ef7a7f344c0123697758,B,2024-08-21_16h34.57.305,Slot Machine Game,2023.1.3,Win32,58.82352941,,,,,,,,,,,,,,,,,,,,,,,,,,,600,,,,,,,,,,,,,,,,,,2,5,,,353.4396,10,up,0.8343,354.2912,1.5,0.3,"[3,1,2]",0.421112444,stimuli/card_100_transparent.png,100,10,0,10,0,1,,,,,,,,,,
,,,,6634ef7a7f344c0123697758,B,2024-08-21_16h34.57.305,Slot Machine Game,2023.1.3,Win32,58.82352941,,,,,,,,,,,,,,,,,,,,,,,,,,,700,,,,,,,,,,,,,,,,,,2,5,,,356.0921,11,up,0.8347,356.9439,1,0.3,"[3,1,2]",0.793911073,stimuli/card_100_transparent.png,100,11,0,11,0,1,,,,,,,,,,
,,,,6634ef7a7f344c0123697758,B,2024-08-21_16h34.57.305,Slot Machine Game,2023.1.3,Win32,58.82352941,,,,,,,,,,,,,,,,,,,,,,,,,,,800,,,,,,,,,,,,,,,,,,2,5,,,358.2442,12,up,0.6507,358.912,1,0.3,"[3,1,2]",0.734179392,stimuli/card_100_transparent.png,100,12,0,12,0,1,,,,,,,,,,
,,,,6634ef7a7f344c0123697758,B,2024-08-21_16h34.57.305,Slot Machine Game,2023.1.3,Win32,58.82352941,,,,,,,,,,,,,,,,,,,,,,,,,,,900,,,,,,,,,,,,,,,,,,2,5,,,360.2153,13,up,0.6005,360.8477,0.5,0.3,"[3,1,2]",0.774875555,stimuli/card_100_transparent.png,100,13,0,13,0,1,,,,,,,,,,
,,,,6634ef7a7f344c0123697758,B,2024-08-21_16h34.57.305,Slot Machine Game,2023.1.3,Win32,58.82352941,,,,,,,,,,,,,,,,,,,,,,,,,,,1000,,,,,,,,,,,,,,,,,,2,5,,,361.6472,14,up,0.668,362.347,1,0.3,"[3,1,2]",0.935822646,stimuli/card_100_transparent.png,100,14,0,14,0,1,,,,,,,,,,
,,,,6634ef7a7f344c0123697758,B,2024-08-21_16h34.57.305,Slot Machine Game,2023.1.3,Win32,58.82352941,,,,,,,,,,,,,,,,,,,,,,,,,,,,,,,,,,363.6456,,,,,,,,,,,,,,,,,,,,,,,,,,,,,,,"[1220,1000]",1,0,1,0,1,,,,
,,,,6634ef7a7f344c0123697758,B,2024-08-21_16h34.57.305,Slot Machine Game,2023.1.3,Win32,58.82352941,,,,,,,,,,,,,,,,,,,,,,,,,,,0,,,,,,,,,,,,,,,,,,3,8,"[11,15]","[[2,1,3],[1,2,3]]",368.6549,0,right,2.0191,370.69,1.5,0.3,"[2,1,3]",0.715455971,stimuli/card_0_transparent.png,0,0,0,0,0,1,,,,,,,,,,
,,,,6634ef7a7f344c0123697758,B,2024-08-21_16h34.57.305,Slot Machine Game,2023.1.3,Win32,58.82352941,,,,,,,,,,,,,,,,,,,,,,,,,,,100,,,,,,,,,,,,,,,,,,3,8,,,372.4879,1,up,0.7528,373.2706,1.5,0.3,"[2,1,3]",0.254804403,stimuli/card_100_transparent.png,100,1,0,1,0,1,,,,,,,,,,
,,,,6634ef7a7f344c0123697758,B,2024-08-21_16h34.57.305,Slot Machine Game,2023.1.3,Win32,58.82352941,,,,,,,,,,,,,,,,,,,,,,,,,,,200,,,,,,,,,,,,,,,,,,3,8,,,375.0687,2,up,3.0199,378.1153,0.5,0.3,"[2,1,3]",0.414613744,stimuli/card_100_transparent.png,100,2,0,2,0,1,,,,,,,,,,
,,,,6634ef7a7f344c0123697758,B,2024-08-21_16h34.57.305,Slot Machine Game,2023.1.3,Win32,58.82352941,,,,,,,,,,,,,,,,,,,,,,,,,,,300,,,,,,,,,,,,,,,,,,3,8,,,378.9153,3,up,0.7846,379.7331,0.5,0.3,"[2,1,3]",0.989270023,stimuli/card_100_transparent.png,100,3,0,3,0,1,,,,,,,,,,
,,,,6634ef7a7f344c0123697758,B,2024-08-21_16h34.57.305,Slot Machine Game,2023.1.3,Win32,58.82352941,,,,,,,,,,,,,,,,,,,,,,,,,,,400,,,,,,,,,,,,,,,,,,3,8,,,380.5334,4,up,2.3697,382.9375,1,0.3,"[2,1,3]",0.402337817,stimuli/card_100_transparent.png,100,4,0,4,0,1,,,,,,,,,,
,,,,6634ef7a7f344c0123697758,B,2024-08-21_16h34.57.305,Slot Machine Game,2023.1.3,Win32,58.82352941,,,,,,,,,,,,,,,,,,,,,,,,,,,500,,,,,,,,,,,,,,,,,,3,8,,,384.2375,5,up,0.7673,385.0216,1.5,0.3,"[2,1,3]",0.248790946,stimuli/card_100_transparent.png,100,5,0,5,0,1,,,,,,,,,,
,,,,6634ef7a7f344c0123697758,B,2024-08-21_16h34.57.305,Slot Machine Game,2023.1.3,Win32,58.82352941,,,,,,,,,,,,,,,,,,,,,,,,,,,600,,,,,,,,,,,,,,,,,,3,8,,,386.8237,6,up,1.6261,388.4721,1.5,0.3,"[2,1,3]",0.331106961,stimuli/card_100_transparent.png,100,6,0,6,0,1,,,,,,,,,,
,,,,6634ef7a7f344c0123697758,B,2024-08-21_16h34.57.305,Slot Machine Game,2023.1.3,Win32,58.82352941,,,,,,,,,,,,,,,,,,,,,,,,,,,700,,,,,,,,,,,,,,,,,,3,8,,,390.2715,7,up,0.9904,391.2862,1.5,0.3,"[2,1,3]",0.540506745,stimuli/card_100_transparent.png,100,7,0,7,0,1,,,,,,,,,,
,,,,6634ef7a7f344c0123697758,B,2024-08-21_16h34.57.305,Slot Machine Game,2023.1.3,Win32,58.82352941,,,,,,,,,,,,,,,,,,,,,,,,,,,800,,,,,,,,,,,,,,,,,,3,8,,,393.0851,8,up,0.5819,393.7005,1.5,0.3,"[2,1,3]",0.951277233,stimuli/card_100_transparent.png,100,8,0,8,0,1,,,,,,,,,,
,,,,6634ef7a7f344c0123697758,B,2024-08-21_16h34.57.305,Slot Machine Game,2023.1.3,Win32,58.82352941,,,,,,,,,,,,,,,,,,,,,,,,,,,900,,,,,,,,,,,,,,,,,,3,8,,,395.499,9,up,0.585,396.1166,0.5,0.3,"[2,1,3]",0.325985659,stimuli/card_100_transparent.png,100,9,0,9,0,1,,,,,,,,,,
,,,,6634ef7a7f344c0123697758,B,2024-08-21_16h34.57.305,Slot Machine Game,2023.1.3,Win32,58.82352941,,,,,,,,,,,,,,,,,,,,,,,,,,,900,,,,,,,,,,,,,,,,,,3,8,,,396.9167,10,up,0.6512,397.6012,1,0.3,"[2,1,3]",0.091193221,stimuli/card_0_transparent.png,0,10,0,10,0,1,,,,,,,,,,
,,,,6634ef7a7f344c0123697758,B,2024-08-21_16h34.57.305,Slot Machine Game,2023.1.3,Win32,58.82352941,,,,,,,,,,,,,,,,,,,,,,,,,,,900,,,,,,,,,,,,,,,,,,3,8,,,398.902,11,up,0.7837,399.7023,1.5,0.3,"[1,2,3]",0.082823139,stimuli/card_0_transparent.png,0,11,0,11,0,1,,,,,,,,,,
,,,,6634ef7a7f344c0123697758,B,2024-08-21_16h34.57.305,Slot Machine Game,2023.1.3,Win32,58.82352941,,,,,,,,,,,,,,,,,,,,,,,,,,,1000,,,,,,,,,,,,,,,,,,3,8,,,401.5044,12,left,0.6174,402.1389,0.5,0.3,"[1,2,3]",0.436966579,stimuli/card_100_transparent.png,100,12,0,12,0,1,,,,,,,,,,
,,,,6634ef7a7f344c0123697758,B,2024-08-21_16h34.57.305,Slot Machine Game,2023.1.3,Win32,58.82352941,,,,,,,,,,,,,,,,,,,,,,,,,,,1100,,,,,,,,,,,,,,,,,,3,8,,,402.9395,13,left,1.5018,404.458,1,0.3,"[1,2,3]",0.413494536,stimuli/card_100_transparent.png,100,13,0,13,0,1,,,,,,,,,,
,,,,6634ef7a7f344c0123697758,B,2024-08-21_16h34.57.305,Slot Machine Game,2023.1.3,Win32,58.82352941,,,,,,,,,,,,,,,,,,,,,,,,,,,1200,,,,,,,,,,,,,,,,,,3,8,,,405.7568,14,left,0.8489,406.6386,0.5,0.3,"[1,2,3]",0.917645904,stimuli/card_100_transparent.png,100,14,0,14,0,1,,,,,,,,,,
,,,,6634ef7a7f344c0123697758,B,2024-08-21_16h34.57.305,Slot Machine Game,2023.1.3,Win32,58.82352941,,,,,,,,,,,,,,,,,,,,,,,,,,,,,,,,,,407.4379,,,,,,,,,,,,,,,,,,,,,,,,,,,,,,,"[1220,1000,1200]",2,0,2,0,1,,,,
,,,,6634ef7a7f344c0123697758,B,2024-08-21_16h34.57.305,Slot Machine Game,2023.1.3,Win32,58.82352941,,,,,,,,,,,,,,,,,,,,,,,,,,,10,,,,,,,,,,,,,,,,,,4,1,"[12,15]","[[2,1,3],[2,3,1]]",412.46,0,left,3.299,415.7807,0.5,0.3,"[2,1,3]",0.310758068,stimuli/card_10_transparent.png,10,0,0,0,0,1,,,,,,,,,,
,,,,6634ef7a7f344c0123697758,B,2024-08-21_16h34.57.305,Slot Machine Game,2023.1.3,Win32,58.82352941,,,,,,,,,,,,,,,,,,,,,,,,,,,20,,,,,,,,,,,,,,,,,,4,1,,,416.5793,1,left,1.2737,417.8782,1.5,0.3,"[2,1,3]",0.55878295,stimuli/card_10_transparent.png,10,1,0,1,0,1,,,,,,,,,,
,,,,6634ef7a7f344c0123697758,B,2024-08-21_16h34.57.305,Slot Machine Game,2023.1.3,Win32,58.82352941,,,,,,,,,,,,,,,,,,,,,,,,,,,120,,,,,,,,,,,,,,,,,,4,1,,,419.6767,2,up,0.7847,420.4926,0.5,0.3,"[2,1,3]",0.40246582,stimuli/card_100_transparent.png,100,2,0,2,0,1,,,,,,,,,,
,,,,6634ef7a7f344c0123697758,B,2024-08-21_16h34.57.305,Slot Machine Game,2023.1.3,Win32,58.82352941,,,,,,,,,,,,,,,,,,,,,,,,,,,220,,,,,,,,,,,,,,,,,,4,1,,,421.2918,3,up,0.7175,422.0422,1,0.3,"[2,1,3]",0.380261726,stimuli/card_100_transparent.png,100,3,0,3,0,1,,,,,,,,,,
,,,,6634ef7a7f344c0123697758,B,2024-08-21_16h34.57.305,Slot Machine Game,2023.1.3,Win32,58.82352941,,,,,,,,,,,,,,,,,,,,,,,,,,,320,,,,,,,,,,,,,,,,,,4,1,,,423.3429,4,up,0.6673,424.0436,0.5,0.3,"[2,1,3]",0.349963688,stimuli/card_100_transparent.png,100,4,0,4,0,1,,,,,,,,,,
,,,,6634ef7a7f344c0123697758,B,2024-08-21_16h34.57.305,Slot Machine Game,2023.1.3,Win32,58.82352941,,,,,,,,,,,,,,,,,,,,,,,,,,,320,,,,,,,,,,,,,,,,,,4,1,,,424.8442,5,up,3.7045,428.5677,1,0.3,"[2,1,3]",0.089988691,stimuli/card_0_transparent.png,0,5,0,5,0,1,,,,,,,,,,
,,,,6634ef7a7f344c0123697758,B,2024-08-21_16h34.57.305,Slot Machine Game,2023.1.3,Win32,58.82352941,,,,,,,,,,,,,,,,,,,,,,,,,,,420,,,,,,,,,,,,,,,,,,4,1,,,429.8674,6,up,1.5522,431.4528,1.5,0.3,"[2,1,3]",0.945868504,stimuli/card_100_transparent.png,100,6,0,6,0,1,,,,,,,,,,
,,,,6634ef7a7f344c0123697758,B,2024-08-21_16h34.57.305,Slot Machine Game,2023.1.3,Win32,58.82352941,,,,,,,,,,,,,,,,,,,,,,,,,,,520,,,,,,,,,,,,,,,,,,4,1,,,433.2529,7,up,0.9178,434.2043,1,0.3,"[2,1,3]",0.843239634,stimuli/card_100_transparent.png,100,7,0,7,0,1,,,,,,,,,,
,,,,6634ef7a7f344c0123697758,B,2024-08-21_16h34.57.305,Slot Machine Game,2023.1.3,Win32,58.82352941,,,,,,,,,,,,,,,,,,,,,,,,,,,620,,,,,,,,,,,,,,,,,,4,1,,,435.5052,8,up,0.7515,436.2732,0.5,0.3,"[2,1,3]",0.670172511,stimuli/card_100_transparent.png,100,8,0,8,0,1,,,,,,,,,,
,,,,6634ef7a7f344c0123697758,B,2024-08-21_16h34.57.305,Slot Machine Game,2023.1.3,Win32,58.82352941,,,,,,,,,,,,,,,,,,,,,,,,,,,720,,,,,,,,,,,,,,,,,,4,1,,,437.0733,9,up,0.9509,438.0429,1.5,0.3,"[2,1,3]",0.491571834,stimuli/card_100_transparent.png,100,9,0,9,0,1,,,,,,,,,,
,,,,6634ef7a7f344c0123697758,B,2024-08-21_16h34.57.305,Slot Machine Game,2023.1.3,Win32,58.82352941,,,,,,,,,,,,,,,,,,,,,,,,,,,820,,,,,,,,,,,,,,,,,,4,1,,,439.8414,10,up,0.5888,440.4578,1.5,0.3,"[2,1,3]",0.497379401,stimuli/card_100_transparent.png,100,10,0,10,0,1,,,,,,,,,,
,,,,6634ef7a7f344c0123697758,B,2024-08-21_16h34.57.305,Slot Machine Game,2023.1.3,Win32,58.82352941,,,,,,,,,,,,,,,,,,,,,,,,,,,920,,,,,,,,,,,,,,,,,,4,1,,,442.2563,11,up,0.8673,443.1547,1.5,0.3,"[2,1,3]",0.59623375,stimuli/card_100_transparent.png,100,11,0,11,0,1,,,,,,,,,,
,,,,6634ef7a7f344c0123697758,B,2024-08-21_16h34.57.305,Slot Machine Game,2023.1.3,Win32,58.82352941,,,,,,,,,,,,,,,,,,,,,,,,,,,920,,,,,,,,,,,,,,,,,,4,1,,,444.953,12,up,0.5845,445.5693,1,0.3,"[2,3,1]",0.695287505,stimuli/card_0_transparent.png,0,12,0,12,0,1,,,,,,,,,,
,,,,6634ef7a7f344c0123697758,B,2024-08-21_16h34.57.305,Slot Machine Game,2023.1.3,Win32,58.82352941,,,,,,,,,,,,,,,,,,,,,,,,,,,920,,,,,,,,,,,,,,,,,,4,1,,,446.8683,13,up,1.0178,447.9187,0.5,0.3,"[2,3,1]",0.483154033,stimuli/card_0_transparent.png,0,13,0,13,0,1,,,,,,,,,,
,,,,6634ef7a7f344c0123697758,B,2024-08-21_16h34.57.305,Slot Machine Game,2023.1.3,Win32,58.82352941,,,,,,,,,,,,,,,,,,,,,,,,,,,1020,,,,,,,,,,,,,,,,,,4,1,,,448.7185,14,right,0.634,449.3704,1,0.3,"[2,3,1]",0.439489079,stimuli/card_100_transparent.png,100,14,0,14,0,1,,,,,,,,,,
,,,,6634ef7a7f344c0123697758,B,2024-08-21_16h34.57.305,Slot Machine Game,2023.1.3,Win32,58.82352941,,,,,,,,,,,,,,,,,,,,,,,,,,,,,,,,,,450.6699,,,,,,,,,,,,,,,,,,,,,,,,,,,,,,,"[1220,1000,1200,1020]",3,0,3,0,1,,,,
,,,,6634ef7a7f344c0123697758,B,2024-08-21_16h34.57.305,Slot Machine Game,2023.1.3,Win32,58.82352941,,,,,,,,,,,,,,,,,,,,,,,,,,,10,,,,,,,,,,,,,,,,,,5,2,"[6,15]","[[1,3,2],[3,2,1]]",455.6751,0,right,1.5189,457.2109,0.5,0.3,"[1,3,2]",0.76931353,stimuli/card_10_transparent.png,10,0,0,0,0,1,,,,,,,,,,
,,,,6634ef7a7f344c0123697758,B,2024-08-21_16h34.57.305,Slot Machine Game,2023.1.3,Win32,58.82352941,,,,,,,,,,,,,,,,,,,,,,,,,,,110,,,,,,,,,,,,,,,,,,5,2,,,458.0088,1,up,0.9007,458.9406,1,0.3,"[1,3,2]",0.001878301,stimuli/card_100_transparent.png,100,1,0,1,0,1,,,,,,,,,,
,,,,6634ef7a7f344c0123697758,B,2024-08-21_16h34.57.305,Slot Machine Game,2023.1.3,Win32,58.82352941,,,,,,,,,,,,,,,,,,,,,,,,,,,110,,,,,,,,,,,,,,,,,,5,2,,,460.2388,2,up,3.8046,464.0704,1.5,0.3,"[1,3,2]",0.381220656,stimuli/card_0_transparent.png,0,2,0,2,0,1,,,,,,,,,,
,,,,6634ef7a7f344c0123697758,B,2024-08-21_16h34.57.305,Slot Machine Game,2023.1.3,Win32,58.82352941,,,,,,,,,,,,,,,,,,,,,,,,,,,110,,,,,,,,,,,,,,,,,,5,2,,,465.8698,3,up,1.0677,466.9708,1.5,0.3,"[1,3,2]",0.345720262,stimuli/card_0_transparent.png,0,3,0,3,0,1,,,,,,,,,,
,,,,6634ef7a7f344c0123697758,B,2024-08-21_16h34.57.305,Slot Machine Game,2023.1.3,Win32,58.82352941,,,,,,,,,,,,,,,,,,,,,,,,,,,210,,,,,,,,,,,,,,,,,,5,2,,,468.7722,4,left,2.1191,470.9103,1.5,0.3,"[1,3,2]",0.765586412,stimuli/card_100_transparent.png,100,4,0,4,0,1,,,,,,,,,,
,,,,6634ef7a7f344c0123697758,B,2024-08-21_16h34.57.305,Slot Machine Game,2023.1.3,Win32,58.82352941,,,,,,,,,,,,,,,,,,,,,,,,,,,310,,,,,,,,,,,,,,,,,,5,2,,,472.7104,5,left,0.568,473.3111,0.5,0.3,"[1,3,2]",0.225593495,stimuli/card_100_transparent.png,100,5,0,5,0,1,,,,,,,,,,
,,,,6634ef7a7f344c0123697758,B,2024-08-21_16h34.57.305,Slot Machine Game,2023.1.3,Win32,58.82352941,,,,,,,,,,,,,,,,,,,,,,,,,,,310,,,,,,,,,,,,,,,,,,5,2,,,474.1113,6,left,0.8847,475.0288,1,0.3,"[3,2,1]",0.926390328,stimuli/card_0_transparent.png,0,6,0,6,0,1,,,,,,,,,,
,,,,6634ef7a7f344c0123697758,B,2024-08-21_16h34.57.305,Slot Machine Game,2023.1.3,Win32,58.82352941,,,,,,,,,,,,,,,,,,,,,,,,,,,310,,,,,,,,,,,,,,,,,,5,2,,,476.3285,7,left,0.9515,477.2976,0.5,0.3,"[3,2,1]",0.580444733,stimuli/card_0_transparent.png,0,7,0,7,0,1,,,,,,,,,,
,,,,6634ef7a7f344c0123697758,B,2024-08-21_16h34.57.305,Slot Machine Game,2023.1.3,Win32,58.82352941,,,,,,,,,,,,,,,,,,,,,,,,,,,410,,,,,,,,,,,,,,,,,,5,2,,,478.0979,8,right,1.0182,479.149,1,0.3,"[3,2,1]",0.573701934,stimuli/card_100_transparent.png,100,8,0,8,0,1,,,,,,,,,,
,,,,6634ef7a7f344c0123697758,B,2024-08-21_16h34.57.305,Slot Machine Game,2023.1.3,Win32,58.82352941,,,,,,,,,,,,,,,,,,,,,,,,,,,510,,,,,,,,,,,,,,,,,,5,2,,,480.4535,9,right,0.7681,481.2529,1,0.3,"[3,2,1]",0.942973016,stimuli/card_100_transparent.png,100,9,0,9,0,1,,,,,,,,,,
,,,,6634ef7a7f344c0123697758,B,2024-08-21_16h34.57.305,Slot Machine Game,2023.1.3,Win32,58.82352941,,,,,,,,,,,,,,,,,,,,,,,,,,,510,,,,,,,,,,,,,,,,,,5,2,,,482.5522,10,right,1.1179,483.7039,1.5,0.3,"[3,2,1]",0.058203001,stimuli/card_0_transparent.png,0,10,0,10,0,1,,,,,,,,,,
,,,,6634ef7a7f344c0123697758,B,2024-08-21_16h34.57.305,Slot Machine Game,2023.1.3,Win32,58.82352941,,,,,,,,,,,,,,,,,,,,,,,,,,,610,,,,,,,,,,,,,,,,,,5,2,,,485.5049,11,right,0.9505,486.4721,1.5,0.3,"[3,2,1]",0.678703794,stimuli/card_100_transparent.png,100,11,0,11,0,1,,,,,,,,,,
,,,,6634ef7a7f344c0123697758,B,2024-08-21_16h34.57.305,Slot Machine Game,2023.1.3,Win32,58.82352941,,,,,,,,,,,,,,,,,,,,,,,,,,,710,,,,,,,,,,,,,,,,,,5,2,,,488.2745,12,right,0.9675,489.2589,0.5,0.3,"[3,2,1]",0.584957005,stimuli/card_100_transparent.png,100,12,0,12,0,1,,,,,,,,,,
,,,,6634ef7a7f344c0123697758,B,2024-08-21_16h34.57.305,Slot Machine Game,2023.1.3,Win32,58.82352941,,,,,,,,,,,,,,,,,,,,,,,,,,,810,,,,,,,,,,,,,,,,,,5,2,,,490.0609,13,right,1.0014,491.0948,0.5,0.3,"[3,2,1]",0.649422194,stimuli/card_100_transparent.png,100,13,0,13,0,1,,,,,,,,,,
,,,,6634ef7a7f344c0123697758,B,2024-08-21_16h34.57.305,Slot Machine Game,2023.1.3,Win32,58.82352941,,,,,,,,,,,,,,,,,,,,,,,,,,,810,,,,,,,,,,,,,,,,,,5,2,,,491.8946,14,right,0.8005,492.713,1.5,0.3,"[3,2,1]",0.036032489,stimuli/card_0_transparent.png,0,14,0,14,0,1,,,,,,,,,,
,,,,6634ef7a7f344c0123697758,B,2024-08-21_16h34.57.305,Slot Machine Game,2023.1.3,Win32,58.82352941,,,,,,,,,,,,,,,,,,,,,,,,,,,,,,,,,,494.5144,,,,,,,,,,,,,,,,,,,,,,,,,,,,,,,"[1220,1000,1200,1020,810]",4,0,4,0,1,,,,
,,,,6634ef7a7f344c0123697758,B,2024-08-21_16h34.57.305,Slot Machine Game,2023.1.3,Win32,58.82352941,,,,,,,,,,,,,,,,,,,,,,,,,,,0,,,,,,,,,,,,,,,,,,6,4,"[7,15]","[[2,3,1],[1,2,3]]",499.5254,0,up,1.6838,501.234,1,0.3,"[2,3,1]",0.621811618,stimuli/card_0_transparent.png,0,0,0,0,0,1,,,,,,,,,,
,,,,6634ef7a7f344c0123697758,B,2024-08-21_16h34.57.305,Slot Machine Game,2023.1.3,Win32,58.82352941,,,,,,,,,,,,,,,,,,,,,,,,,,,10,,,,,,,,,,,,,,,,,,6,4,,,502.532,1,left,2.4202,504.9817,0.5,0.3,"[2,3,1]",0.22196828,stimuli/card_10_transparent.png,10,1,0,1,0,1,,,,,,,,,,
,,,,6634ef7a7f344c0123697758,B,2024-08-21_16h34.57.305,Slot Machine Game,2023.1.3,Win32,58.82352941,,,,,,,,,,,,,,,,,,,,,,,,,,,110,,,,,,,,,,,,,,,,,,6,4,,,505.7798,2,right,0.9174,506.7288,1,0.3,"[2,3,1]",0.839027807,stimuli/card_100_transparent.png,100,2,0,2,0,1,,,,,,,,,,
,,,,6634ef7a7f344c0123697758,B,2024-08-21_16h34.57.305,Slot Machine Game,2023.1.3,Win32,58.82352941,,,,,,,,,,,,,,,,,,,,,,,,,,,210,,,,,,,,,,,,,,,,,,6,4,,,508.0275,3,right,0.868,508.9128,1.5,0.3,"[2,3,1]",0.694834906,stimuli/card_100_transparent.png,100,3,0,3,0,1,,,,,,,,,,
,,,,6634ef7a7f344c0123697758,B,2024-08-21_16h34.57.305,Slot Machine Game,2023.1.3,Win32,58.82352941,,,,,,,,,,,,,,,,,,,,,,,,,,,310,,,,,,,,,,,,,,,,,,6,4,,,510.7134,4,right,0.7006,511.4308,1.5,0.3,"[2,3,1]",0.430514341,stimuli/card_100_transparent.png,100,4,0,4,0,1,,,,,,,,,,
,,,,6634ef7a7f344c0123697758,B,2024-08-21_16h34.57.305,Slot Machine Game,2023.1.3,Win32,58.82352941,,,,,,,,,,,,,,,,,,,,,,,,,,,410,,,,,,,,,,,,,,,,,,6,4,,,513.2316,5,right,0.7338,513.9828,1.5,0.3,"[2,3,1]",0.418318731,stimuli/card_100_transparent.png,100,5,0,5,0,1,,,,,,,,,,
,,,,6634ef7a7f344c0123697758,B,2024-08-21_16h34.57.305,Slot Machine Game,2023.1.3,Win32,58.82352941,,,,,,,,,,,,,,,,,,,,,,,,,,,510,,,,,,,,,,,,,,,,,,6,4,,,515.7873,6,right,0.7175,516.5369,0.5,0.3,"[2,3,1]",0.517800528,stimuli/card_100_transparent.png,100,6,0,6,0,1,,,,,,,,,,
,,,,6634ef7a7f344c0123697758,B,2024-08-21_16h34.57.305,Slot Machine Game,2023.1.3,Win32,58.82352941,,,,,,,,,,,,,,,,,,,,,,,,,,,510,,,,,,,,,,,,,,,,,,6,4,,,517.3377,7,right,0.7169,518.0877,1.5,0.3,"[1,2,3]",0.534287669,stimuli/card_0_transparent.png,0,7,0,7,0,1,,,,,,,,,,
,,,,6634ef7a7f344c0123697758,B,2024-08-21_16h34.57.305,Slot Machine Game,2023.1.3,Win32,58.82352941,,,,,,,,,,,,,,,,,,,,,,,,,,,510,,,,,,,,,,,,,,,,,,6,4,,,519.8899,8,right,0.7006,520.6076,0.5,0.3,"[1,2,3]",0.990173608,stimuli/card_0_transparent.png,0,8,0,8,0,1,,,,,,,,,,
,,,,6634ef7a7f344c0123697758,B,2024-08-21_16h34.57.305,Slot Machine Game,2023.1.3,Win32,58.82352941,,,,,,,,,,,,,,,,,,,,,,,,,,,520,,,,,,,,,,,,,,,,,,6,4,,,521.4077,9,up,1.1179,522.559,1.5,0.3,"[1,2,3]",0.414436517,stimuli/card_10_transparent.png,10,9,0,9,0,1,,,,,,,,,,
,,,,6634ef7a7f344c0123697758,B,2024-08-21_16h34.57.305,Slot Machine Game,2023.1.3,Win32,58.82352941,,,,,,,,,,,,,,,,,,,,,,,,,,,620,,,,,,,,,,,,,,,,,,6,4,,,524.3606,10,left,0.9007,525.2782,0.5,0.3,"[1,2,3]",0.444499522,stimuli/card_100_transparent.png,100,10,0,10,0,1,,,,,,,,,,
,,,,6634ef7a7f344c0123697758,B,2024-08-21_16h34.57.305,Slot Machine Game,2023.1.3,Win32,58.82352941,,,,,,,,,,,,,,,,,,,,,,,,,,,720,,,,,,,,,,,,,,,,,,6,4,,,526.0792,11,left,0.9675,527.064,0.5,0.3,"[1,2,3]",0.776861612,stimuli/card_100_transparent.png,100,11,0,11,0,1,,,,,,,,,,
,,,,6634ef7a7f344c0123697758,B,2024-08-21_16h34.57.305,Slot Machine Game,2023.1.3,Win32,58.82352941,,,,,,,,,,,,,,,,,,,,,,,,,,,820,,,,,,,,,,,,,,,,,,6,4,,,527.8632,12,left,1.1514,529.0319,1.5,0.3,"[1,2,3]",0.935026285,stimuli/card_100_transparent.png,100,12,0,12,0,1,,,,,,,,,,
,,,,6634ef7a7f344c0123697758,B,2024-08-21_16h34.57.305,Slot Machine Game,2023.1.3,Win32,58.82352941,,,,,,,,,,,,,,,,,,,,,,,,,,,920,,,,,,,,,,,,,,,,,,6,4,,,530.834,13,left,0.9175,531.7684,1,0.3,"[1,2,3]",0.814913349,stimuli/card_100_transparent.png,100,13,0,13,0,1,,,,,,,,,,
,,,,6634ef7a7f344c0123697758,B,2024-08-21_16h34.57.305,Slot Machine Game,2023.1.3,Win32,58.82352941,,,,,,,,,,,,,,,,,,,,,,,,,,,1020,,,,,,,,,,,,,,,,,,6,4,,,533.0707,14,left,0.7845,533.8877,1,0.3,"[1,2,3]",0.4061434,stimuli/card_100_transparent.png,100,14,0,14,0,1,,,,,,,,,,
,,,,6634ef7a7f344c0123697758,B,2024-08-21_16h34.57.305,Slot Machine Game,2023.1.3,Win32,58.82352941,,,,,,,,,,,,,,,,,,,,,,,,,,,,,,,,,,535.189,,,,,,,,,,,,,,,,,,,,,,,,,,,,,,,"[1220,1000,1200,1020,810,1020]",5,0,5,0,1,,,,
,,,,6634ef7a7f344c0123697758,B,2024-08-21_16h34.57.305,Slot Machine Game,2023.1.3,Win32,58.82352941,,,,,,,,,,,,,,,,,,,,,,,,,,,100,,,,,,,,,,,,,,,,,,7,10,"[10,15]","[[3,1,2],[1,3,2]]",540.2156,0,up,2.1361,542.3794,1.5,0.3,"[3,1,2]",0.96291438,stimuli/card_100_transparent.png,100,0,0,0,0,1,,,,,,,,,,
,,,,6634ef7a7f344c0123697758,B,2024-08-21_16h34.57.305,Slot Machine Game,2023.1.3,Win32,58.82352941,,,,,,,,,,,,,,,,,,,,,,,,,,,100,,,,,,,,,,,,,,,,,,7,10,,,544.1776,1,up,0.9518,545.1602,0.5,0.3,"[3,1,2]",0.054132204,stimuli/card_0_transparent.png,0,1,0,1,0,1,,,,,,,,,,
,,,,6634ef7a7f344c0123697758,B,2024-08-21_16h34.57.305,Slot Machine Game,2023.1.3,Win32,58.82352941,,,,,,,,,,,,,,,,,,,,,,,,,,,200,,,,,,,,,,,,,,,,,,7,10,,,545.9584,2,up,0.6846,546.6751,1.5,0.3,"[3,1,2]",0.56144015,stimuli/card_100_transparent.png,100,2,0,2,0,1,,,,,,,,,,
,,,,6634ef7a7f344c0123697758,B,2024-08-21_16h34.57.305,Slot Machine Game,2023.1.3,Win32,58.82352941,,,,,,,,,,,,,,,,,,,,,,,,,,,200,,,,,,,,,,,,,,,,,,7,10,,,548.4734,3,up,0.6843,549.1893,1,0.3,"[3,1,2]",0.098803164,stimuli/card_0_transparent.png,0,3,0,3,0,1,,,,,,,,,,
,,,,6634ef7a7f344c0123697758,B,2024-08-21_16h34.57.305,Slot Machine Game,2023.1.3,Win32,58.82352941,,,,,,,,,,,,,,,,,,,,,,,,,,,300,,,,,,,,,,,,,,,,,,7,10,,,550.4882,4,up,1.2515,551.7728,0.5,0.3,"[3,1,2]",0.801277869,stimuli/card_100_transparent.png,100,4,0,4,0,1,,,,,,,,,,
,,,,6634ef7a7f344c0123697758,B,2024-08-21_16h34.57.305,Slot Machine Game,2023.1.3,Win32,58.82352941,,,,,,,,,,,,,,,,,,,,,,,,,,,400,,,,,,,,,,,,,,,,,,7,10,,,552.5726,5,up,0.7332,553.3397,1,0.3,"[3,1,2]",0.646661056,stimuli/card_100_transparent.png,100,5,0,5,0,1,,,,,,,,,,
,,,,6634ef7a7f344c0123697758,B,2024-08-21_16h34.57.305,Slot Machine Game,2023.1.3,Win32,58.82352941,,,,,,,,,,,,,,,,,,,,,,,,,,,500,,,,,,,,,,,,,,,,,,7,10,,,554.6401,6,up,0.5008,555.1583,0.5,0.3,"[3,1,2]",0.578148853,stimuli/card_100_transparent.png,100,6,0,6,0,1,,,,,,,,,,
,,,,6634ef7a7f344c0123697758,B,2024-08-21_16h34.57.305,Slot Machine Game,2023.1.3,Win32,58.82352941,,,,,,,,,,,,,,,,,,,,,,,,,,,600,,,,,,,,,,,,,,,,,,7,10,,,555.959,7,up,0.6497,556.6251,1,0.3,"[3,1,2]",0.968723397,stimuli/card_100_transparent.png,100,7,0,7,0,1,,,,,,,,,,
,,,,6634ef7a7f344c0123697758,B,2024-08-21_16h34.57.305,Slot Machine Game,2023.1.3,Win32,58.82352941,,,,,,,,,,,,,,,,,,,,,,,,,,,700,,,,,,,,,,,,,,,,,,7,10,,,557.9278,8,up,0.517,558.464,0.5,0.3,"[3,1,2]",0.304034945,stimuli/card_100_transparent.png,100,8,0,8,0,1,,,,,,,,,,
,,,,6634ef7a7f344c0123697758,B,2024-08-21_16h34.57.305,Slot Machine Game,2023.1.3,Win32,58.82352941,,,,,,,,,,,,,,,,,,,,,,,,,,,800,,,,,,,,,,,,,,,,,,7,10,,,559.263,9,up,0.5507,559.8471,1.5,0.3,"[3,1,2]",0.815825976,stimuli/card_100_transparent.png,100,9,0,9,0,1,,,,,,,,,,
,,,,6634ef7a7f344c0123697758,B,2024-08-21_16h34.57.305,Slot Machine Game,2023.1.3,Win32,58.82352941,,,,,,,,,,,,,,,,,,,,,,,,,,,800,,,,,,,,,,,,,,,,,,7,10,,,561.6484,10,up,1.4013,563.0667,0.5,0.3,"[1,3,2]",0.883911629,stimuli/card_0_transparent.png,0,10,0,10,0,1,,,,,,,,,,
,,,,6634ef7a7f344c0123697758,B,2024-08-21_16h34.57.305,Slot Machine Game,2023.1.3,Win32,58.82352941,,,,,,,,,,,,,,,,,,,,,,,,,,,800,,,,,,,,,,,,,,,,,,7,10,,,563.8667,11,up,0.8004,564.6847,1,0.3,"[1,3,2]",0.203562796,stimuli/card_0_transparent.png,0,11,0,11,0,1,,,,,,,,,,
,,,,6634ef7a7f344c0123697758,B,2024-08-21_16h34.57.305,Slot Machine Game,2023.1.3,Win32,58.82352941,,,,,,,,,,,,,,,,,,,,,,,,,,,800,,,,,,,,,,,,,,,,,,7,10,,,565.9859,12,up,0.6006,566.6032,1,0.3,"[1,3,2]",0.6228192,stimuli/card_0_transparent.png,0,12,0,12,0,1,,,,,,,,,,
,,,,6634ef7a7f344c0123697758,B,2024-08-21_16h34.57.305,Slot Machine Game,2023.1.3,Win32,58.82352941,,,,,,,,,,,,,,,,,,,,,,,,,,,900,,,,,,,,,,,,,,,,,,7,10,,,567.9054,13,left,0.6174,568.5559,1.5,0.3,"[1,3,2]",0.639905321,stimuli/card_100_transparent.png,100,13,0,13,0,1,,,,,,,,,,
,,,,6634ef7a7f344c0123697758,B,2024-08-21_16h34.57.305,Slot Machine Game,2023.1.3,Win32,58.82352941,,,,,,,,,,,,,,,,,,,,,,,,,,,1000,,,,,,,,,,,,,,,,,,7,10,,,570.3573,14,left,0.5675,570.9418,1.5,0.3,"[1,3,2]",0.6016545,stimuli/card_100_transparent.png,100,14,0,14,0,1,,,,,,,,,,
,,,,6634ef7a7f344c0123697758,B,2024-08-21_16h34.57.305,Slot Machine Game,2023.1.3,Win32,58.82352941,,,,,,,,,,,,,,,,,,,,,,,,,,,,,,,,,,572.7429,,,,,,,,,,,,,,,,,,,,,,,,,,,,,,,"[1220,1000,1200,1020,810,1020,1000]",6,0,6,0,1,,,,
,,,,6634ef7a7f344c0123697758,B,2024-08-21_16h34.57.305,Slot Machine Game,2023.1.3,Win32,58.82352941,,,,,,,,,,,,,,,,,,,,,,,,,,,10,,,,,,,,,,,,,,,,,,8,7,"[9,15]","[[1,3,2],[2,3,1]]",577.764,0,right,1.8817,579.6777,0.5,0.3,"[1,3,2]",0.504460693,stimuli/card_10_transparent.png,10,0,0,0,0,1,,,,,,,,,,
,,,,6634ef7a7f344c0123697758,B,2024-08-21_16h34.57.305,Slot Machine Game,2023.1.3,Win32,58.82352941,,,,,,,,,,,,,,,,,,,,,,,,,,,20,,,,,,,,,,,,,,,,,,8,7,,,580.477,1,right,0.6233,581.1265,1,0.3,"[1,3,2]",0.241894027,stimuli/card_10_transparent.png,10,1,0,1,0,1,,,,,,,,,,
,,,,6634ef7a7f344c0123697758,B,2024-08-21_16h34.57.305,Slot Machine Game,2023.1.3,Win32,58.82352941,,,,,,,,,,,,,,,,,,,,,,,,,,,20,,,,,,,,,,,,,,,,,,8,7,,,582.4249,2,up,0.7041,583.1576,0.5,0.3,"[1,3,2]",0.723169641,stimuli/card_0_transparent.png,0,2,0,2,0,1,,,,,,,,,,
,,,,6634ef7a7f344c0123697758,B,2024-08-21_16h34.57.305,Slot Machine Game,2023.1.3,Win32,58.82352941,,,,,,,,,,,,,,,,,,,,,,,,,,,120,,,,,,,,,,,,,,,,,,8,7,,,583.9569,3,up,0.5172,584.5065,0.5,0.3,"[1,3,2]",0.085278362,stimuli/card_100_transparent.png,100,3,0,3,0,1,,,,,,,,,,
,,,,6634ef7a7f344c0123697758,B,2024-08-21_16h34.57.305,Slot Machine Game,2023.1.3,Win32,58.82352941,,,,,,,,,,,,,,,,,,,,,,,,,,,120,,,,,,,,,,,,,,,,,,8,7,,,585.3058,4,up,2.22,587.5588,1,0.3,"[1,3,2]",0.241715878,stimuli/card_0_transparent.png,0,4,0,4,0,1,,,,,,,,,,
,,,,6634ef7a7f344c0123697758,B,2024-08-21_16h34.57.305,Slot Machine Game,2023.1.3,Win32,58.82352941,,,,,,,,,,,,,,,,,,,,,,,,,,,220,,,,,,,,,,,,,,,,,,8,7,,,588.8589,5,left,0.9842,589.8605,1,0.3,"[1,3,2]",0.67217218,stimuli/card_100_transparent.png,100,5,0,5,0,1,,,,,,,,,,
,,,,6634ef7a7f344c0123697758,B,2024-08-21_16h34.57.305,Slot Machine Game,2023.1.3,Win32,58.82352941,,,,,,,,,,,,,,,,,,,,,,,,,,,320,,,,,,,,,,,,,,,,,,8,7,,,591.1612,6,left,0.5339,591.7123,1,0.3,"[1,3,2]",0.617536592,stimuli/card_100_transparent.png,100,6,0,6,0,1,,,,,,,,,,
,,,,6634ef7a7f344c0123697758,B,2024-08-21_16h34.57.305,Slot Machine Game,2023.1.3,Win32,58.82352941,,,,,,,,,,,,,,,,,,,,,,,,,,,320,,,,,,,,,,,,,,,,,,8,7,,,593.0149,7,left,0.6002,593.6471,1,0.3,"[1,3,2]",0.080591553,stimuli/card_0_transparent.png,0,7,0,7,0,1,,,,,,,,,,
,,,,6634ef7a7f344c0123697758,B,2024-08-21_16h34.57.305,Slot Machine Game,2023.1.3,Win32,58.82352941,,,,,,,,,,,,,,,,,,,,,,,,,,,330,,,,,,,,,,,,,,,,,,8,7,,,594.9487,8,left,0.6005,595.566,0.5,0.3,"[1,3,2]",0.109534424,stimuli/card_10_transparent.png,10,8,0,8,0,1,,,,,,,,,,
,,,,6634ef7a7f344c0123697758,B,2024-08-21_16h34.57.305,Slot Machine Game,2023.1.3,Win32,58.82352941,,,,,,,,,,,,,,,,,,,,,,,,,,,430,,,,,,,,,,,,,,,,,,8,7,,,596.3671,9,right,1.1175,597.5172,1,0.3,"[2,3,1]",0.74464772,stimuli/card_100_transparent.png,100,9,0,9,0,1,,,,,,,,,,
,,,,6634ef7a7f344c0123697758,B,2024-08-21_16h34.57.305,Slot Machine Game,2023.1.3,Win32,58.82352941,,,,,,,,,,,,,,,,,,,,,,,,,,,430,,,,,,,,,,,,,,,,,,8,7,,,598.8186,10,right,0.6007,599.4365,1,0.3,"[2,3,1]",0.074980837,stimuli/card_0_transparent.png,0,10,0,10,0,1,,,,,,,,,,
,,,,6634ef7a7f344c0123697758,B,2024-08-21_16h34.57.305,Slot Machine Game,2023.1.3,Win32,58.82352941,,,,,,,,,,,,,,,,,,,,,,,,,,,430,,,,,,,,,,,,,,,,,,8,7,,,600.7365,11,up,1.1348,601.8901,1.5,0.3,"[2,3,1]",0.710150039,stimuli/card_0_transparent.png,0,11,0,11,0,1,,,,,,,,,,
,,,,6634ef7a7f344c0123697758,B,2024-08-21_16h34.57.305,Slot Machine Game,2023.1.3,Win32,58.82352941,,,,,,,,,,,,,,,,,,,,,,,,,,,440,,,,,,,,,,,,,,,,,,8,7,,,603.6875,12,left,1.2008,604.9038,1.5,0.3,"[2,3,1]",0.526076735,stimuli/card_10_transparent.png,10,12,0,12,0,1,,,,,,,,,,
,,,,6634ef7a7f344c0123697758,B,2024-08-21_16h34.57.305,Slot Machine Game,2023.1.3,Win32,58.82352941,,,,,,,,,,,,,,,,,,,,,,,,,,,440,,,,,,,,,,,,,,,,,,8,7,,,606.7027,13,up,0.875,607.6018,1.5,0.3,"[2,3,1]",0.944482189,stimuli/card_0_transparent.png,0,13,0,13,0,1,,,,,,,,,,
,,,,6634ef7a7f344c0123697758,B,2024-08-21_16h34.57.305,Slot Machine Game,2023.1.3,Win32,58.82352941,,,,,,,,,,,,,,,,,,,,,,,,,,,440,,,,,,,,,,,,,,,,,,8,7,,,609.3999,14,up,2.01,611.4478,0.5,0.3,"[2,3,1]",0.359953729,stimuli/card_0_transparent.png,0,14,0,14,0,1,,,,,,,,,,
,,,,6634ef7a7f344c0123697758,B,2024-08-21_16h34.57.305,Slot Machine Game,2023.1.3,Win32,58.82352941,,,,,,,,,,,,,,,,,,,,,,,,,,,,,,,,,,612.2469,,,,,,,,,,,,,,,,,,,,,,,,,,,,,,,"[1220,1000,1200,1020,810,1020,1000,440]",7,0,7,0,1,,,,
,,,,6634ef7a7f344c0123697758,B,2024-08-21_16h34.57.305,Slot Machine Game,2023.1.3,Win32,58.82352941,,,,,,,,,,,,,,,,,,,,,,,,,,,0,,,,,,,,,,,,,,,,,,9,9,"[8,15]","[[3,2,1],[3,1,2]]",617.2684,0,right,1.2609,618.5406,1,0.3,"[3,2,1]",0.078994504,stimuli/card_0_transparent.png,0,0,0,0,0,1,,,,,,,,,,
,,,,6634ef7a7f344c0123697758,B,2024-08-21_16h34.57.305,Slot Machine Game,2023.1.3,Win32,58.82352941,,,,,,,,,,,,,,,,,,,,,,,,,,,100,,,,,,,,,,,,,,,,,,9,9,,,619.8402,1,right,0.6456,620.5061,1,0.3,"[3,2,1]",0.600454469,stimuli/card_100_transparent.png,100,1,0,1,0,1,,,,,,,,,,
,,,,6634ef7a7f344c0123697758,B,2024-08-21_16h34.57.305,Slot Machine Game,2023.1.3,Win32,58.82352941,,,,,,,,,,,,,,,,,,,,,,,,,,,100,,,,,,,,,,,,,,,,,,9,9,,,621.8051,2,right,0.7346,622.5706,1,0.3,"[3,2,1]",0.047518623,stimuli/card_0_transparent.png,0,2,0,2,0,1,,,,,,,,,,
,,,,6634ef7a7f344c0123697758,B,2024-08-21_16h34.57.305,Slot Machine Game,2023.1.3,Win32,58.82352941,,,,,,,,,,,,,,,,,,,,,,,,,,,110,,,,,,,,,,,,,,,,,,9,9,,,623.8696,3,up,0.824,624.7187,1.5,0.3,"[3,2,1]",0.651898203,stimuli/card_10_transparent.png,10,3,0,3,0,1,,,,,,,,,,
,,,,6634ef7a7f344c0123697758,B,2024-08-21_16h34.57.305,Slot Machine Game,2023.1.3,Win32,58.82352941,,,,,,,,,,,,,,,,,,,,,,,,,,,120,,,,,,,,,,,,,,,,,,9,9,,,626.5169,4,left,0.7336,627.283,1.5,0.3,"[3,2,1]",0.110510051,stimuli/card_10_transparent.png,10,4,0,4,0,1,,,,,,,,,,
,,,,6634ef7a7f344c0123697758,B,2024-08-21_16h34.57.305,Slot Machine Game,2023.1.3,Win32,58.82352941,,,,,,,,,,,,,,,,,,,,,,,,,,,120,,,,,,,,,,,,,,,,,,9,9,,,629.0651,5,right,0.6551,629.7472,1,0.3,"[3,2,1]",0.002965405,stimuli/card_0_transparent.png,0,5,0,5,0,1,,,,,,,,,,
,,,,6634ef7a7f344c0123697758,B,2024-08-21_16h34.57.305,Slot Machine Game,2023.1.3,Win32,58.82352941,,,,,,,,,,,,,,,,,,,,,,,,,,,130,,,,,,,,,,,,,,,,,,9,9,,,631.0465,6,up,0.8885,631.9625,1,0.3,"[3,2,1]",0.25512876,stimuli/card_10_transparent.png,10,6,0,6,0,1,,,,,,,,,,
,,,,6634ef7a7f344c0123697758,B,2024-08-21_16h34.57.305,Slot Machine Game,2023.1.3,Win32,58.82352941,,,,,,,,,,,,,,,,,,,,,,,,,,,130,,,,,,,,,,,,,,,,,,9,9,,,633.2605,7,left,2.7035,635.9912,0.5,0.3,"[3,2,1]",0.996564738,stimuli/card_0_transparent.png,0,7,0,7,0,1,,,,,,,,,,
,,,,6634ef7a7f344c0123697758,B,2024-08-21_16h34.57.305,Slot Machine Game,2023.1.3,Win32,58.82352941,,,,,,,,,,,,,,,,,,,,,,,,,,,140,,,,,,,,,,,,,,,,,,9,9,,,636.7901,8,right,0.751,637.5732,0.5,0.3,"[3,1,2]",0.378318851,stimuli/card_10_transparent.png,10,8,0,8,0,1,,,,,,,,,,
,,,,6634ef7a7f344c0123697758,B,2024-08-21_16h34.57.305,Slot Machine Game,2023.1.3,Win32,58.82352941,,,,,,,,,,,,,,,,,,,,,,,,,,,150,,,,,,,,,,,,,,,,,,9,9,,,638.3751,9,right,1.0345,639.4264,0.5,0.3,"[3,1,2]",0.74263381,stimuli/card_10_transparent.png,10,9,0,9,0,1,,,,,,,,,,
,,,,6634ef7a7f344c0123697758,B,2024-08-21_16h34.57.305,Slot Machine Game,2023.1.3,Win32,58.82352941,,,,,,,,,,,,,,,,,,,,,,,,,,,250,,,,,,,,,,,,,,,,,,9,9,,,640.2265,10,up,0.7681,641.028,0.5,0.3,"[3,1,2]",0.210615704,stimuli/card_100_transparent.png,100,10,0,10,0,1,,,,,,,,,,
,,,,6634ef7a7f344c0123697758,B,2024-08-21_16h34.57.305,Slot Machine Game,2023.1.3,Win32,58.82352941,,,,,,,,,,,,,,,,,,,,,,,,,,,350,,,,,,,,,,,,,,,,,,9,9,,,641.828,11,up,0.6675,642.5295,1.5,0.3,"[3,1,2]",0.439207046,stimuli/card_100_transparent.png,100,11,0,11,0,1,,,,,,,,,,
,,,,6634ef7a7f344c0123697758,B,2024-08-21_16h34.57.305,Slot Machine Game,2023.1.3,Win32,58.82352941,,,,,,,,,,,,,,,,,,,,,,,,,,,450,,,,,,,,,,,,,,,,,,9,9,,,644.3304,12,up,0.784,645.1475,1,0.3,"[3,1,2]",0.725772176,stimuli/card_100_transparent.png,100,12,0,12,0,1,,,,,,,,,,
,,,,6634ef7a7f344c0123697758,B,2024-08-21_16h34.57.305,Slot Machine Game,2023.1.3,Win32,58.82352941,,,,,,,,,,,,,,,,,,,,,,,,,,,450,,,,,,,,,,,,,,,,,,9,9,,,646.4497,13,up,0.5008,646.9675,1,0.3,"[3,1,2]",0.004188794,stimuli/card_0_transparent.png,0,13,0,13,0,1,,,,,,,,,,
,,,,6634ef7a7f344c0123697758,B,2024-08-21_16h34.57.305,Slot Machine Game,2023.1.3,Win32,58.82352941,,,,,,,,,,,,,,,,,,,,,,,,,,,550,,,,,,,,,,,,,,,,,,9,9,,,648.2675,14,up,0.9182,649.203,0.5,0.3,"[3,1,2]",0.470685298,stimuli/card_100_transparent.png,100,14,0,14,0,1,,,,,,,,,,
,,,,6634ef7a7f344c0123697758,B,2024-08-21_16h34.57.305,Slot Machine Game,2023.1.3,Win32,58.82352941,,,,,,,,,,,,,,,,,,,,,,,,,,,,,,,,,,650.0034,,,,,,,,,,,,,,,,,,,,,,,,,,,,,,,"[1220,1000,1200,1020,810,1020,1000,440,550]",8,0,8,0,1,,,,
,,,,6634ef7a7f344c0123697758,B,2024-08-21_16h34.57.305,Slot Machine Game,2023.1.3,Win32,58.82352941,,,,,,,,,,,,,,,,,,,,,,,,,,,10,,,,,,,,,,,,,,,,,,10,6,"[4,10,15]","[[2,3,1],[1,3,2],[3,2,1]]",655.0178,0,left,1.2737,656.3069,1.5,0.3,"[2,3,1]",0.589855237,stimuli/card_10_transparent.png,10,0,0,0,0,1,,,,,,,,,,
,,,,6634ef7a7f344c0123697758,B,2024-08-21_16h34.57.305,Slot Machine Game,2023.1.3,Win32,58.82352941,,,,,,,,,,,,,,,,,,,,,,,,,,,20,,,,,,,,,,,,,,,,,,10,6,,,658.1047,1,left,0.7396,658.8703,1,0.3,"[2,3,1]",0.389086313,stimuli/card_10_transparent.png,10,1,0,1,0,1,,,,,,,,,,
,,,,6634ef7a7f344c0123697758,B,2024-08-21_16h34.57.305,Slot Machine Game,2023.1.3,Win32,58.82352941,,,,,,,,,,,,,,,,,,,,,,,,,,,20,,,,,,,,,,,,,,,,,,10,6,,,660.1688,2,up,2.0029,662.2004,0.5,0.3,"[2,3,1]",0.83724982,stimuli/card_0_transparent.png,0,2,0,2,0,1,,,,,,,,,,
,,,,6634ef7a7f344c0123697758,B,2024-08-21_16h34.57.305,Slot Machine Game,2023.1.3,Win32,58.82352941,,,,,,,,,,,,,,,,,,,,,,,,,,,120,,,,,,,,,,,,,,,,,,10,6,,,662.9999,3,right,0.5335,663.5658,1.5,0.3,"[2,3,1]",0.288339162,stimuli/card_100_transparent.png,100,3,0,3,0,1,,,,,,,,,,
,,,,6634ef7a7f344c0123697758,B,2024-08-21_16h34.57.305,Slot Machine Game,2023.1.3,Win32,58.82352941,,,,,,,,,,,,,,,,,,,,,,,,,,,130,,,,,,,,,,,,,,,,,,10,6,,,665.3687,4,right,0.6349,666.0368,1,0.3,"[1,3,2]",0.913557911,stimuli/card_10_transparent.png,10,4,0,4,0,1,,,,,,,,,,
,,,,6634ef7a7f344c0123697758,B,2024-08-21_16h34.57.305,Slot Machine Game,2023.1.3,Win32,58.82352941,,,,,,,,,,,,,,,,,,,,,,,,,,,140,,,,,,,,,,,,,,,,,,10,6,,,667.3379,5,right,0.7348,668.1055,1,0.3,"[1,3,2]",0.912837927,stimuli/card_10_transparent.png,10,5,0,5,0,1,,,,,,,,,,
,,,,6634ef7a7f344c0123697758,B,2024-08-21_16h34.57.305,Slot Machine Game,2023.1.3,Win32,58.82352941,,,,,,,,,,,,,,,,,,,,,,,,,,,150,,,,,,,,,,,,,,,,,,10,6,,,669.4047,6,right,1.2345,670.656,0.5,0.3,"[1,3,2]",0.494183249,stimuli/card_10_transparent.png,10,6,0,6,0,1,,,,,,,,,,
,,,,6634ef7a7f344c0123697758,B,2024-08-21_16h34.57.305,Slot Machine Game,2023.1.3,Win32,58.82352941,,,,,,,,,,,,,,,,,,,,,,,,,,,150,,,,,,,,,,,,,,,,,,10,6,,,671.4587,7,up,1.1674,672.6587,1.5,0.3,"[1,3,2]",0.212222069,stimuli/card_0_transparent.png,0,7,0,7,0,1,,,,,,,,,,
,,,,6634ef7a7f344c0123697758,B,2024-08-21_16h34.57.305,Slot Machine Game,2023.1.3,Win32,58.82352941,,,,,,,,,,,,,,,,,,,,,,,,,,,150,,,,,,,,,,,,,,,,,,10,6,,,674.4604,8,up,0.6174,675.0949,0.5,0.3,"[1,3,2]",0.561720688,stimuli/card_0_transparent.png,0,8,0,8,0,1,,,,,,,,,,
,,,,6634ef7a7f344c0123697758,B,2024-08-21_16h34.57.305,Slot Machine Game,2023.1.3,Win32,58.82352941,,,,,,,,,,,,,,,,,,,,,,,,,,,160,,,,,,,,,,,,,,,,,,10,6,,,675.8957,9,up,1.2678,677.1967,1,0.3,"[1,3,2]",0.177427746,stimuli/card_10_transparent.png,10,9,0,9,0,1,,,,,,,,,,
,,,,6634ef7a7f344c0123697758,B,2024-08-21_16h34.57.305,Slot Machine Game,2023.1.3,Win32,58.82352941,,,,,,,,,,,,,,,,,,,,,,,,,,,160,,,,,,,,,,,,,,,,,,10,6,,,678.5021,10,left,1.5847,680.1168,0.5,0.3,"[3,2,1]",0.376046781,stimuli/card_0_transparent.png,0,10,0,10,0,1,,,,,,,,,,
,,,,6634ef7a7f344c0123697758,B,2024-08-21_16h34.57.305,Slot Machine Game,2023.1.3,Win32,58.82352941,,,,,,,,,,,,,,,,,,,,,,,,,,,160,,,,,,,,,,,,,,,,,,10,6,,,680.9174,11,left,0.8684,681.8025,1,0.3,"[3,2,1]",0.553186122,stimuli/card_0_transparent.png,0,11,0,11,0,1,,,,,,,,,,
,,,,6634ef7a7f344c0123697758,B,2024-08-21_16h34.57.305,Slot Machine Game,2023.1.3,Win32,58.82352941,,,,,,,,,,,,,,,,,,,,,,,,,,,160,,,,,,,,,,,,,,,,,,10,6,,,683.1027,12,left,0.9683,684.1042,1,0.3,"[3,2,1]",0.512813977,stimuli/card_0_transparent.png,0,12,0,12,0,1,,,,,,,,,,
,,,,6634ef7a7f344c0123697758,B,2024-08-21_16h34.57.305,Slot Machine Game,2023.1.3,Win32,58.82352941,,,,,,,,,,,,,,,,,,,,,,,,,,,260,,,,,,,,,,,,,,,,,,10,6,,,685.4053,13,right,1.085,686.5237,1,0.3,"[3,2,1]",0.291641043,stimuli/card_100_transparent.png,100,13,0,13,0,1,,,,,,,,,,
,,,,6634ef7a7f344c0123697758,B,2024-08-21_16h34.57.305,Slot Machine Game,2023.1.3,Win32,58.82352941,,,,,,,,,,,,,,,,,,,,,,,,,,,260,,,,,,,,,,,,,,,,,,10,6,,,687.8259,14,right,1.018,688.8767,0.5,0.3,"[3,2,1]",0.064645819,stimuli/card_0_transparent.png,0,14,0,14,0,1,,,,,,,,,,
,,,,6634ef7a7f344c0123697758,B,2024-08-21_16h34.57.305,Slot Machine Game,2023.1.3,Win32,58.82352941,,,,,,,,,,,,,,,,,,,,,,,,,,,,,,,,,,689.6742,,,,,,,,,,,,,,,,,,,,,,,,,,,,,,,"[1220,1000,1200,1020,810,1020,1000,440,550,260]",9,0,9,0,1,,,,
,,,,6634ef7a7f344c0123697758,B,2024-08-21_16h34.57.305,Slot Machine Game,2023.1.3,Win32,58.82352941,,,,,,,,,,,,,,,,,,,,,,,,,,,,,,,,,,,,,,,,,,,,,,,,,,,,,,,,,,,,,,,,,,,,,,,9,"[1220,1000,1200,1020,810,1020,1000,440,550,260]",10.2,2024-08-21_16h46.36.096
