key_resp_welcome.started,key_resp_welcome.keys,key_resp_welcome.rt,key_resp_welcome.duration,participant,date,expName,psychopyVersion,OS,frameRate,key_resp_instruction1.started,key_resp_instruction1.keys,key_resp_instruction1.rt,key_resp_instruction1.duration,key_resp_instruction2.started,key_resp_instruction2.keys,key_resp_instruction2.rt,key_resp_instruction2.duration,key_resp_instruction3.started,key_resp_instruction3.keys,key_resp_instruction3.rt,key_resp_instruction3.duration,practiceCondition,practice_reward_seqs,key_resp_practice_slots.started,key_resp_practice_slots.keys,key_resp_practice_slots.rt,key_resp_practice_slots.duration,presentationInterval,"practice_reward_seq: 2,1,3",reward_Img,Cuml_rew,currentPracticeTrialReward,practice_trials.thisRepN,practice_trials.thisTrialN,practice_trials.thisN,practice_trials.thisIndex,practice_trials.ran,"practice_reward_seq: 2,3,1",text_block_break.started,practice_block.thisRepN,practice_block.thisTrialN,practice_block.thisN,practice_block.thisIndex,practice_block.ran,"practice_reward_seq: 1,3,2","practice_reward_seq: 3,1,2",key_resp_practice_end.started,key_resp_practice_end.keys,key_resp_practice_end.rt,key_resp_practice_end.duration,text_main_instruction.started,BlockCondition,BlockOrderIndices,key_resp_main_instruction.started,key_resp_main_instruction.keys,key_resp_main_instruction.rt,key_resp_main_instruction.duration,blockNumber,blockAssignment,currentCondition,main_reward_seqs,key_resp_slots_presentation.started,key_resp_slots_presentation.keys,key_resp_slots_presentation.rt,key_resp_slots_presentation.duration,Main_presentationInterval,rewardPresentationTime,Main_reward_seq,Random value generated,Main_reward_Img,Main_Cumul_Reward,Main_currentTrialReward,main_trials.thisRepN,main_trials.thisTrialN,main_trials.thisN,main_trials.thisIndex,main_trials.ran,block.thisRepN,block.thisTrialN,block.thisN,block.thisIndex,block.ran
0.0021,space,5.315,,,2023-10-10_14h47.24.008,SlotMachine_updated,2023.1.3,MacIntel,60.0024001,,,,,,,,,,,,,,,,,,,,,,,,,,,,,,,,,,,,,,,,,,,,,,,,,,,,,,,,,,,,,,,,,,,,,,,,,
,,,,,2023-10-10_14h47.24.008,SlotMachine_updated,2023.1.3,MacIntel,60.0024001,,,,,,,,,,,,,,,,,,,,,,,,,,,,,,,,,,,,,,,,,,,,,,,,,,,,,,,,,,,,,,,,,,,,,,,,,
,,,,,2023-10-10_14h47.24.008,SlotMachine_updated,2023.1.3,MacIntel,60.0024001,147.1161,space,5.4457,,,,,,,,,,,,,,,,,,,,,,,,,,,,,,,,,,,,,,,,,,,,,,,,,,,,,,,,,,,,,,,,,,,,,,
,,,,,2023-10-10_14h47.24.008,SlotMachine_updated,2023.1.3,MacIntel,60.0024001,,,,,152.5918,space,2.2692,,,,,,,,,,,,,,,,,,,,,,,,,,,,,,,,,,,,,,,,,,,,,,,,,,,,,,,,,,,,,,,,,,
,,,,,2023-10-10_14h47.24.008,SlotMachine_updated,2023.1.3,MacIntel,60.0024001,,,,,,,,,154.8912,space,6.2731,,,,,,,,,,,,,,,,,,,,,,,,,,,,,,,,,,,,,,,,,,,,,,,,,,,,,,,,,,,,,,
,,,,,2023-10-10_14h47.24.008,SlotMachine_updated,2023.1.3,MacIntel,60.0024001,,,,,,,,,,,,,"[9,15]","[[2,1,3],[2,3,1]]",161.2042,left,1.633,,1.5,,stimuli/card_10_transparent.png,10,10,0,0,0,0,1,,,,,,,,,,,,,,,,,,,,,,,,,,,,,,,,,,,,,,,,,,,,,
,,,,,2023-10-10_14h47.24.008,SlotMachine_updated,2023.1.3,MacIntel,60.0024001,,,,,,,,,,,,,,,164.6614,left,2.4622,,1,,stimuli/card_10_transparent.png,20,10,1,0,1,0,1,,,,,,,,,,,,,,,,,,,,,,,,,,,,,,,,,,,,,,,,,,,,,
,,,,,2023-10-10_14h47.24.008,SlotMachine_updated,2023.1.3,MacIntel,60.0024001,,,,,,,,,,,,,,,168.4428,left,1.6469,,0.5,,stimuli/card_0_transparent.png,20,0,2,0,2,0,1,,,,,,,,,,,,,,,,,,,,,,,,,,,,,,,,,,,,,,,,,,,,,
,,,,,2023-10-10_14h47.24.008,SlotMachine_updated,2023.1.3,MacIntel,60.0024001,,,,,,,,,,,,,,,170.9082,up,0.8496,,1,,stimuli/card_0_transparent.png,20,0,3,0,3,0,1,,,,,,,,,,,,,,,,,,,,,,,,,,,,,,,,,,,,,,,,,,,,,
,,,,,2023-10-10_14h47.24.008,SlotMachine_updated,2023.1.3,MacIntel,60.0024001,,,,,,,,,,,,,,,173.0745,left,1.9335,,0.5,,stimuli/card_0_transparent.png,20,0,4,0,4,0,1,,,,,,,,,,,,,,,,,,,,,,,,,,,,,,,,,,,,,,,,,,,,,
,,,,,2023-10-10_14h47.24.008,SlotMachine_updated,2023.1.3,MacIntel,60.0024001,,,,,,,,,,,,,,,175.8244,up,0.767,,1.5,,stimuli/card_100_transparent.png,120,100,5,0,5,0,1,,,,,,,,,,,,,,,,,,,,,,,,,,,,,,,,,,,,,,,,,,,,,
,,,,,2023-10-10_14h47.24.008,SlotMachine_updated,2023.1.3,MacIntel,60.0024001,,,,,,,,,,,,,,,178.4076,up,1.014,,1.5,,stimuli/card_100_transparent.png,220,100,6,0,6,0,1,,,,,,,,,,,,,,,,,,,,,,,,,,,,,,,,,,,,,,,,,,,,,
,,,,,2023-10-10_14h47.24.008,SlotMachine_updated,2023.1.3,MacIntel,60.0024001,,,,,,,,,,,,,,,181.2407,right,1.1371,,0.5,,stimuli/card_0_transparent.png,220,0,7,0,7,0,1,,,,,,,,,,,,,,,,,,,,,,,,,,,,,,,,,,,,,,,,,,,,,
,,,,,2023-10-10_14h47.24.008,SlotMachine_updated,2023.1.3,MacIntel,60.0024001,,,,,,,,,,,,,,,183.192,right,0.6518,,0.5,,stimuli/card_0_transparent.png,220,0,8,0,8,0,1,,,,,,,,,,,,,,,,,,,,,,,,,,,,,,,,,,,,,,,,,,,,,
,,,,,2023-10-10_14h47.24.008,SlotMachine_updated,2023.1.3,MacIntel,60.0024001,,,,,,,,,,,,,,,184.6583,up,0.8004,,1.5,,stimuli/card_0_transparent.png,220,0,9,0,9,0,1,,,,,,,,,,,,,,,,,,,,,,,,,,,,,,,,,,,,,,,,,,,,,
,,,,,2023-10-10_14h47.24.008,SlotMachine_updated,2023.1.3,MacIntel,60.0024001,,,,,,,,,,,,,,,187.2758,up,0.7962,,0.5,,stimuli/card_0_transparent.png,220,0,10,0,10,0,1,,,,,,,,,,,,,,,,,,,,,,,,,,,,,,,,,,,,,,,,,,,,,
,,,,,2023-10-10_14h47.24.008,SlotMachine_updated,2023.1.3,MacIntel,60.0024001,,,,,,,,,,,,,,,188.8912,up,0.9163,,1.5,,stimuli/card_0_transparent.png,220,0,11,0,11,0,1,,,,,,,,,,,,,,,,,,,,,,,,,,,,,,,,,,,,,,,,,,,,,
,,,,,2023-10-10_14h47.24.008,SlotMachine_updated,2023.1.3,MacIntel,60.0024001,,,,,,,,,,,,,,,191.6245,left,0.2347,,0.5,,stimuli/card_10_transparent.png,230,10,12,0,12,0,1,,,,,,,,,,,,,,,,,,,,,,,,,,,,,,,,,,,,,,,,,,,,,
,,,,,2023-10-10_14h47.24.008,SlotMachine_updated,2023.1.3,MacIntel,60.0024001,,,,,,,,,,,,,,,192.6744,left,0.4485,,1,,stimuli/card_10_transparent.png,240,10,13,0,13,0,1,,,,,,,,,,,,,,,,,,,,,,,,,,,,,,,,,,,,,,,,,,,,,
,,,,,2023-10-10_14h47.24.008,SlotMachine_updated,2023.1.3,MacIntel,60.0024001,,,,,,,,,,,,,,,194.4408,left,1.6163,,0.5,,stimuli/card_0_transparent.png,240,0,14,0,14,0,1,,,,,,,,,,,,,,,,,,,,,,,,,,,,,,,,,,,,,,,,,,,,,
,,,,,2023-10-10_14h47.24.008,SlotMachine_updated,2023.1.3,MacIntel,60.0024001,,,,,,,,,,,,,,,,,,,,,,,,,,,,,,196.8748,0,0,0,0,1,,,,,,,,,,,,,,,,,,,,,,,,,,,,,,,,,,,,,,
,,,,,2023-10-10_14h47.24.008,SlotMachine_updated,2023.1.3,MacIntel,60.0024001,,,,,,,,,,,,,"[6,15]","[[1,3,2],[3,1,2]]",201.8853,up,2.2155,,0.5,,stimuli/card_0_transparent.png,0,0,0,0,0,0,1,,,,,,,,,,,,,,,,,,,,,,,,,,,,,,,,,,,,,,,,,,,,,
,,,,,2023-10-10_14h47.24.008,SlotMachine_updated,2023.1.3,MacIntel,60.0024001,,,,,,,,,,,,,,,204.9244,left,1.4489,,0.5,,stimuli/card_100_transparent.png,100,100,1,0,1,0,1,,,,,,,,,,,,,,,,,,,,,,,,,,,,,,,,,,,,,,,,,,,,,
,,,,,2023-10-10_14h47.24.008,SlotMachine_updated,2023.1.3,MacIntel,60.0024001,,,,,,,,,,,,,,,207.1911,right,1.632,,0.5,,stimuli/card_10_transparent.png,110,10,2,0,2,0,1,,,,,,,,,,,,,,,,,,,,,,,,,,,,,,,,,,,,,,,,,,,,,
,,,,,2023-10-10_14h47.24.008,SlotMachine_updated,2023.1.3,MacIntel,60.0024001,,,,,,,,,,,,,,,209.6404,right,2.0309,,1,,stimuli/card_10_transparent.png,120,10,3,0,3,0,1,,,,,,,,,,,,,,,,,,,,,,,,,,,,,,,,,,,,,,,,,,,,,
,,,,,2023-10-10_14h47.24.008,SlotMachine_updated,2023.1.3,MacIntel,60.0024001,,,,,,,,,,,,,,,212.9909,left,0.6173,,1,,stimuli/card_100_transparent.png,220,100,4,0,4,0,1,,,,,,,,,,,,,,,,,,,,,,,,,,,,,,,,,,,,,,,,,,,,,
,,,,,2023-10-10_14h47.24.008,SlotMachine_updated,2023.1.3,MacIntel,60.0024001,,,,,,,,,,,,,,,214.9272,up,2.4004,,1.5,,stimuli/card_0_transparent.png,220,0,5,0,5,0,1,,,,,,,,,,,,,,,,,,,,,,,,,,,,,,,,,,,,,,,,,,,,,
,,,,,2023-10-10_14h47.24.008,SlotMachine_updated,2023.1.3,MacIntel,60.0024001,,,,,,,,,,,,,,,219.1405,left,0.6827,,0.5,,stimuli/card_0_transparent.png,220,0,6,0,6,0,1,,,,,,,,,,,,,,,,,,,,,,,,,,,,,,,,,,,,,,,,,,,,,
,,,,,2023-10-10_14h47.24.008,SlotMachine_updated,2023.1.3,MacIntel,60.0024001,,,,,,,,,,,,,,,220.6401,right,2.6491,,1.5,,stimuli/card_10_transparent.png,230,10,7,0,7,0,1,,,,,,,,,,,,,,,,,,,,,,,,,,,,,,,,,,,,,,,,,,,,,
,,,,,2023-10-10_14h47.24.008,SlotMachine_updated,2023.1.3,MacIntel,60.0024001,,,,,,,,,,,,,,,225.1081,right,0.5125,,1,,stimuli/card_10_transparent.png,240,10,8,0,8,0,1,,,,,,,,,,,,,,,,,,,,,,,,,,,,,,,,,,,,,,,,,,,,,
,,,,,2023-10-10_14h47.24.008,SlotMachine_updated,2023.1.3,MacIntel,60.0024001,,,,,,,,,,,,,,,226.9398,right,0.4835,,0.5,,stimuli/card_10_transparent.png,250,10,9,0,9,0,1,,,,,,,,,,,,,,,,,,,,,,,,,,,,,,,,,,,,,,,,,,,,,
,,,,,2023-10-10_14h47.24.008,SlotMachine_updated,2023.1.3,MacIntel,60.0024001,,,,,,,,,,,,,,,228.2402,right,0.5484,,1.5,,stimuli/card_10_transparent.png,260,10,10,0,10,0,1,,,,,,,,,,,,,,,,,,,,,,,,,,,,,,,,,,,,,,,,,,,,,
,,,,,2023-10-10_14h47.24.008,SlotMachine_updated,2023.1.3,MacIntel,60.0024001,,,,,,,,,,,,,,,230.6062,right,0.5833,,1.5,,stimuli/card_10_transparent.png,270,10,11,0,11,0,1,,,,,,,,,,,,,,,,,,,,,,,,,,,,,,,,,,,,,,,,,,,,,
,,,,,2023-10-10_14h47.24.008,SlotMachine_updated,2023.1.3,MacIntel,60.0024001,,,,,,,,,,,,,,,233.007,right,1.4155,,0.5,,stimuli/card_10_transparent.png,280,10,12,0,12,0,1,,,,,,,,,,,,,,,,,,,,,,,,,,,,,,,,,,,,,,,,,,,,,
,,,,,2023-10-10_14h47.24.008,SlotMachine_updated,2023.1.3,MacIntel,60.0024001,,,,,,,,,,,,,,,235.2401,left,2.1145,,0.5,,stimuli/card_0_transparent.png,280,0,13,0,13,0,1,,,,,,,,,,,,,,,,,,,,,,,,,,,,,,,,,,,,,,,,,,,,,
,,,,,2023-10-10_14h47.24.008,SlotMachine_updated,2023.1.3,MacIntel,60.0024001,,,,,,,,,,,,,,,238.1741,right,0.6196,,1,,stimuli/card_10_transparent.png,290,10,14,0,14,0,1,,,,,,,,,,,,,,,,,,,,,,,,,,,,,,,,,,,,,,,,,,,,,
,,,,,2023-10-10_14h47.24.008,SlotMachine_updated,2023.1.3,MacIntel,60.0024001,,,,,,,,,,,,,,,,,,,,,,,,,,,,,,240.107,1,0,1,0,1,,,,,,,,,,,,,,,,,,,,,,,,,,,,,,,,,,,,,,
,,,,,2023-10-10_14h47.24.008,SlotMachine_updated,2023.1.3,MacIntel,60.0024001,,,,,,,,,,,,,,,,,,,,,,,,,,,,,,,,,,,,,,245.1074,space,312.0031,,,,,,,,,,,,,,,,,,,,,,,,,,,,,,,,,
,,,,,2023-10-10_14h47.24.008,SlotMachine_updated,2023.1.3,MacIntel,60.0024001,,,,,,,,,,,,,,,,,,,,,,,,,,,,,,,,,,,,,,,,,,557.1243,3,"[0,4,6,3,5,7,8,1,9,2]",557.1243,space,11.2389,,,,,,,,,,,,,,,,,,,,,,,,,,
,,,,,2023-10-10_14h47.24.008,SlotMachine_updated,2023.1.3,MacIntel,60.0024001,,,,,,,,,,,,,,,,,,,,,,,,,,,,,,,,,,,,,,,,,,,,,,,,,1,1,"[12,15]","[[2,1,3],[2,3,1]]",568.3963,left,1.5798,,1.5,0.3,"[2,1,3]",0.798974978,stimuli/card_10_transparent.png,10,10,0,0,0,0,1,,,,,
,,,,,2023-10-10_14h47.24.008,SlotMachine_updated,2023.1.3,MacIntel,60.0024001,,,,,,,,,,,,,,,,,,,,,,,,,,,,,,,,,,,,,,,,,,,,,,,,,,,,,571.802,left,0.7978,,1,0.3,"[2,1,3]",0.126116889,stimuli/card_100_transparent.png,110,100,1,0,1,0,1,,,,,
,,,,,2023-10-10_14h47.24.008,SlotMachine_updated,2023.1.3,MacIntel,60.0024001,,,,,,,,,,,,,,,,,,,,,,,,,,,,,,,,,,,,,,,,,,,,,,,,,,,,,573.9178,left,1.0497,,1,0.3,"[2,1,3]",0.016395492,stimuli/card_0_transparent.png,110,0,2,0,2,0,1,,,,,
,,,,,2023-10-10_14h47.24.008,SlotMachine_updated,2023.1.3,MacIntel,60.0024001,,,,,,,,,,,,,,,,,,,,,,,,,,,,,,,,,,,,,,,,,,,,,,,,,,,,,576.2849,up,1.4655,,1,0.3,"[2,1,3]",0.928268843,stimuli/card_100_transparent.png,210,100,3,0,3,0,1,,,,,
,,,,,2023-10-10_14h47.24.008,SlotMachine_updated,2023.1.3,MacIntel,60.0024001,,,,,,,,,,,,,,,,,,,,,,,,,,,,,,,,,,,,,,,,,,,,,,,,,,,,,579.0691,up,0.5486,,1.5,0.3,"[2,1,3]",0.994565357,stimuli/card_100_transparent.png,310,100,4,0,4,0,1,,,,,
,,,,,2023-10-10_14h47.24.008,SlotMachine_updated,2023.1.3,MacIntel,60.0024001,,,,,,,,,,,,,,,,,,,,,,,,,,,,,,,,,,,,,,,,,,,,,,,,,,,,,581.4349,up,0.4007,,1.5,0.3,"[2,1,3]",0.471346884,stimuli/card_100_transparent.png,410,100,5,0,5,0,1,,,,,
,,,,,2023-10-10_14h47.24.008,SlotMachine_updated,2023.1.3,MacIntel,60.0024001,,,,,,,,,,,,,,,,,,,,,,,,,,,,,,,,,,,,,,,,,,,,,,,,,,,,,583.6529,right,1.0313,,1.5,0.3,"[2,1,3]",0.400782804,stimuli/card_0_transparent.png,410,0,6,0,6,0,1,,,,,
,,,,,2023-10-10_14h47.24.008,SlotMachine_updated,2023.1.3,MacIntel,60.0024001,,,,,,,,,,,,,,,,,,,,,,,,,,,,,,,,,,,,,,,,,,,,,,,,,,,,,586.5016,right,1.2155,,1.5,0.3,"[2,1,3]",0.657641667,stimuli/card_0_transparent.png,410,0,7,0,7,0,1,,,,,
,,,,,2023-10-10_14h47.24.008,SlotMachine_updated,2023.1.3,MacIntel,60.0024001,,,,,,,,,,,,,,,,,,,,,,,,,,,,,,,,,,,,,,,,,,,,,,,,,,,,,589.5353,up,0.418,,1,0.3,"[2,1,3]",0.964608453,stimuli/card_100_transparent.png,510,100,8,0,8,0,1,,,,,
,,,,,2023-10-10_14h47.24.008,SlotMachine_updated,2023.1.3,MacIntel,60.0024001,,,,,,,,,,,,,,,,,,,,,,,,,,,,,,,,,,,,,,,,,,,,,,,,,,,,,591.268,up,0.316,,1.5,0.3,"[2,1,3]",0.256193693,stimuli/card_100_transparent.png,610,100,9,0,9,0,1,,,,,
,,,,,2023-10-10_14h47.24.008,SlotMachine_updated,2023.1.3,MacIntel,60.0024001,,,,,,,,,,,,,,,,,,,,,,,,,,,,,,,,,,,,,,,,,,,,,,,,,,,,,593.402,up,0.3844,,1,0.3,"[2,1,3]",0.512595384,stimuli/card_100_transparent.png,710,100,10,0,10,0,1,,,,,
,,,,,2023-10-10_14h47.24.008,SlotMachine_updated,2023.1.3,MacIntel,60.0024001,,,,,,,,,,,,,,,,,,,,,,,,,,,,,,,,,,,,,,,,,,,,,,,,,,,,,595.1019,up,0.2997,,0.5,0.3,"[2,1,3]",0.893141559,stimuli/card_100_transparent.png,810,100,11,0,11,0,1,,,,,
,,,,,2023-10-10_14h47.24.008,SlotMachine_updated,2023.1.3,MacIntel,60.0024001,,,,,,,,,,,,,,,,,,,,,,,,,,,,,,,,,,,,,,,,,,,,,,,,,,,,,596.219,up,0.1831,,1.5,0.3,"[2,3,1]",0.522899692,stimuli/card_0_transparent.png,810,0,12,0,12,0,1,,,,,
,,,,,2023-10-10_14h47.24.008,SlotMachine_updated,2023.1.3,MacIntel,60.0024001,,,,,,,,,,,,,,,,,,,,,,,,,,,,,,,,,,,,,,,,,,,,,,,,,,,,,598.2177,left,1.7991,,0.5,0.3,"[2,3,1]",0.246045545,stimuli/card_10_transparent.png,820,10,13,0,13,0,1,,,,,
,,,,,2023-10-10_14h47.24.008,SlotMachine_updated,2023.1.3,MacIntel,60.0024001,,,,,,,,,,,,,,,,,,,,,,,,,,,,,,,,,,,,,,,,,,,,,,,,,,,,,600.8363,left,0.301,,1.5,0.3,"[2,3,1]",0.132204133,stimuli/card_100_transparent.png,920,100,14,0,14,0,1,,,,,
,,,,,2023-10-10_14h47.24.008,SlotMachine_updated,2023.1.3,MacIntel,60.0024001,,,,,,,,,,,,,,,,,,,,,,,,,,,,,,602.9511,,,,,,,,,,,,,,,,,,,,,,,,,,,,,,,,,,,,,,,0,0,0,0,1
,,,,,2023-10-10_14h47.24.008,SlotMachine_updated,2023.1.3,MacIntel,60.0024001,,,,,,,,,,,,,,,,,,,,,,,,,,,,,,,,,,,,,,,,,,,,,,,,,2,5,"[5,15]","[[1,2,3],[3,1,2]]",607.9626,up,1.5795,,0.5,0.3,"[1,2,3]",0.462930453,stimuli/card_10_transparent.png,10,10,0,0,0,0,1,,,,,
,,,,,2023-10-10_14h47.24.008,SlotMachine_updated,2023.1.3,MacIntel,60.0024001,,,,,,,,,,,,,,,,,,,,,,,,,,,,,,,,,,,,,,,,,,,,,,,,,,,,,610.3711,up,0.329,,1,0.3,"[1,2,3]",0.338965831,stimuli/card_10_transparent.png,20,10,1,0,1,0,1,,,,,
,,,,,2023-10-10_14h47.24.008,SlotMachine_updated,2023.1.3,MacIntel,60.0024001,,,,,,,,,,,,,,,,,,,,,,,,,,,,,,,,,,,,,,,,,,,,,,,,,,,,,612.0184,up,0.266,,1.5,0.3,"[1,2,3]",0.183180166,stimuli/card_100_transparent.png,120,100,2,0,2,0,1,,,,,
,,,,,2023-10-10_14h47.24.008,SlotMachine_updated,2023.1.3,MacIntel,60.0024001,,,,,,,,,,,,,,,,,,,,,,,,,,,,,,,,,,,,,,,,,,,,,,,,,,,,,614.102,up,0.7002,,0.5,0.3,"[1,2,3]",0.076023719,stimuli/card_0_transparent.png,120,0,3,0,3,0,1,,,,,
,,,,,2023-10-10_14h47.24.008,SlotMachine_updated,2023.1.3,MacIntel,60.0024001,,,,,,,,,,,,,,,,,,,,,,,,,,,,,,,,,,,,,,,,,,,,,,,,,,,,,615.6176,left,0.585,,1,0.3,"[1,2,3]",0.855594722,stimuli/card_100_transparent.png,220,100,4,0,4,0,1,,,,,
,,,,,2023-10-10_14h47.24.008,SlotMachine_updated,2023.1.3,MacIntel,60.0024001,,,,,,,,,,,,,,,,,,,,,,,,,,,,,,,,,,,,,,,,,,,,,,,,,,,,,617.5194,left,0.4825,,0.5,0.3,"[3,1,2]",0.259569387,stimuli/card_0_transparent.png,220,0,5,0,5,0,1,,,,,
,,,,,2023-10-10_14h47.24.008,SlotMachine_updated,2023.1.3,MacIntel,60.0024001,,,,,,,,,,,,,,,,,,,,,,,,,,,,,,,,,,,,,,,,,,,,,,,,,,,,,618.8177,left,1.1847,,1.5,0.3,"[3,1,2]",0.36186442,stimuli/card_0_transparent.png,220,0,6,0,6,0,1,,,,,
,,,,,2023-10-10_14h47.24.008,SlotMachine_updated,2023.1.3,MacIntel,60.0024001,,,,,,,,,,,,,,,,,,,,,,,,,,,,,,,,,,,,,,,,,,,,,,,,,,,,,621.818,right,0.4012,,0.5,0.3,"[3,1,2]",0.51328502,stimuli/card_10_transparent.png,230,10,7,0,7,0,1,,,,,
,,,,,2023-10-10_14h47.24.008,SlotMachine_updated,2023.1.3,MacIntel,60.0024001,,,,,,,,,,,,,,,,,,,,,,,,,,,,,,,,,,,,,,,,,,,,,,,,,,,,,623.0339,right,0.3489,,1.5,0.3,"[3,1,2]",0.569143625,stimuli/card_10_transparent.png,240,10,8,0,8,0,1,,,,,
,,,,,2023-10-10_14h47.24.008,SlotMachine_updated,2023.1.3,MacIntel,60.0024001,,,,,,,,,,,,,,,,,,,,,,,,,,,,,,,,,,,,,,,,,,,,,,,,,,,,,625.201,right,0.8151,,1,0.3,"[3,1,2]",0.133254279,stimuli/card_100_transparent.png,340,100,9,0,9,0,1,,,,,
,,,,,2023-10-10_14h47.24.008,SlotMachine_updated,2023.1.3,MacIntel,60.0024001,,,,,,,,,,,,,,,,,,,,,,,,,,,,,,,,,,,,,,,,,,,,,,,,,,,,,627.3341,right,1.0998,,1.5,0.3,"[3,1,2]",0.226330614,stimuli/card_10_transparent.png,350,10,10,0,10,0,1,,,,,
,,,,,2023-10-10_14h47.24.008,SlotMachine_updated,2023.1.3,MacIntel,60.0024001,,,,,,,,,,,,,,,,,,,,,,,,,,,,,,,,,,,,,,,,,,,,,,,,,,,,,630.2517,right,0.4811,,0.5,0.3,"[3,1,2]",0.17659247,stimuli/card_100_transparent.png,450,100,11,0,11,0,1,,,,,
,,,,,2023-10-10_14h47.24.008,SlotMachine_updated,2023.1.3,MacIntel,60.0024001,,,,,,,,,,,,,,,,,,,,,,,,,,,,,,,,,,,,,,,,,,,,,,,,,,,,,631.5513,right,0.3332,,1.5,0.3,"[3,1,2]",0.90592854,stimuli/card_10_transparent.png,460,10,12,0,12,0,1,,,,,
,,,,,2023-10-10_14h47.24.008,SlotMachine_updated,2023.1.3,MacIntel,60.0024001,,,,,,,,,,,,,,,,,,,,,,,,,,,,,,,,,,,,,,,,,,,,,,,,,,,,,633.7016,right,0.315,,0.5,0.3,"[3,1,2]",0.02759061,stimuli/card_0_transparent.png,460,0,13,0,13,0,1,,,,,
,,,,,2023-10-10_14h47.24.008,SlotMachine_updated,2023.1.3,MacIntel,60.0024001,,,,,,,,,,,,,,,,,,,,,,,,,,,,,,,,,,,,,,,,,,,,,,,,,,,,,634.8363,left,0.5169,,0.5,0.3,"[3,1,2]",0.065314314,stimuli/card_100_transparent.png,560,100,14,0,14,0,1,,,,,
,,,,,2023-10-10_14h47.24.008,SlotMachine_updated,2023.1.3,MacIntel,60.0024001,,,,,,,,,,,,,,,,,,,,,,,,,,,,,,636.1674,,,,,,,,,,,,,,,,,,,,,,,,,,,,,,,,,,,,,,,1,0,1,0,1
,,,,,2023-10-10_14h47.24.008,SlotMachine_updated,2023.1.3,MacIntel,60.0024001,,,,,,,,,,,,,,,,,,,,,,,,,,,,,,,,,,,,,,,,,,,,,,,,,3,7,"[9,15]","[[1,3,2],[2,3,1]]",641.1765,left,4.2896,,1.5,0.3,"[1,3,2]",0.621949723,stimuli/card_100_transparent.png,100,100,0,0,0,0,1,,,,,
,,,,,2023-10-10_14h47.24.008,SlotMachine_updated,2023.1.3,MacIntel,60.0024001,,,,,,,,,,,,,,,,,,,,,,,,,,,,,,,,,,,,,,,,,,,,,,,,,,,,,647.2853,left,2.2343,,1.5,0.3,"[1,3,2]",0.469101554,stimuli/card_100_transparent.png,200,100,1,0,1,0,1,,,,,
,,,,,2023-10-10_14h47.24.008,SlotMachine_updated,2023.1.3,MacIntel,60.0024001,,,,,,,,,,,,,,,,,,,,,,,,,,,,,,,,,,,,,,,,,,,,,,,,,,,,,651.3359,left,0.9665,,0.5,0.3,"[1,3,2]",0.340270531,stimuli/card_100_transparent.png,300,100,2,0,2,0,1,,,,,
,,,,,2023-10-10_14h47.24.008,SlotMachine_updated,2023.1.3,MacIntel,60.0024001,,,,,,,,,,,,,,,,,,,,,,,,,,,,,,,,,,,,,,,,,,,,,,,,,,,,,653.1177,left,0.666,,0.5,0.3,"[1,3,2]",0.847297354,stimuli/card_100_transparent.png,400,100,3,0,3,0,1,,,,,
,,,,,2023-10-10_14h47.24.008,SlotMachine_updated,2023.1.3,MacIntel,60.0024001,,,,,,,,,,,,,,,,,,,,,,,,,,,,,,,,,,,,,,,,,,,,,,,,,,,,,654.601,left,0.4174,,1.5,0.3,"[1,3,2]",0.135211371,stimuli/card_10_transparent.png,410,10,4,0,4,0,1,,,,,
,,,,,2023-10-10_14h47.24.008,SlotMachine_updated,2023.1.3,MacIntel,60.0024001,,,,,,,,,,,,,,,,,,,,,,,,,,,,,,,,,,,,,,,,,,,,,,,,,,,,,656.8335,right,1.1523,,0.5,0.3,"[1,3,2]",0.602136104,stimuli/card_10_transparent.png,420,10,5,0,5,0,1,,,,,
,,,,,2023-10-10_14h47.24.008,SlotMachine_updated,2023.1.3,MacIntel,60.0024001,,,,,,,,,,,,,,,,,,,,,,,,,,,,,,,,,,,,,,,,,,,,,,,,,,,,,658.8006,right,0.285,,1.5,0.3,"[1,3,2]",0.499852545,stimuli/card_10_transparent.png,430,10,6,0,6,0,1,,,,,
,,,,,2023-10-10_14h47.24.008,SlotMachine_updated,2023.1.3,MacIntel,60.0024001,,,,,,,,,,,,,,,,,,,,,,,,,,,,,,,,,,,,,,,,,,,,,,,,,,,,,660.9011,right,0.9175,,0.5,0.3,"[1,3,2]",0.004473845,stimuli/card_0_transparent.png,430,0,7,0,7,0,1,,,,,
,,,,,2023-10-10_14h47.24.008,SlotMachine_updated,2023.1.3,MacIntel,60.0024001,,,,,,,,,,,,,,,,,,,,,,,,,,,,,,,,,,,,,,,,,,,,,,,,,,,,,662.6344,up,1.267,,1,0.3,"[1,3,2]",0.421547882,stimuli/card_0_transparent.png,430,0,8,0,8,0,1,,,,,
,,,,,2023-10-10_14h47.24.008,SlotMachine_updated,2023.1.3,MacIntel,60.0024001,,,,,,,,,,,,,,,,,,,,,,,,,,,,,,,,,,,,,,,,,,,,,,,,,,,,,665.2176,left,1.2157,,1,0.3,"[2,3,1]",0.571391994,stimuli/card_10_transparent.png,440,10,9,0,9,0,1,,,,,
,,,,,2023-10-10_14h47.24.008,SlotMachine_updated,2023.1.3,MacIntel,60.0024001,,,,,,,,,,,,,,,,,,,,,,,,,,,,,,,,,,,,,,,,,,,,,,,,,,,,,667.7503,left,0.3305,,1,0.3,"[2,3,1]",0.428819848,stimuli/card_10_transparent.png,450,10,10,0,10,0,1,,,,,
,,,,,2023-10-10_14h47.24.008,SlotMachine_updated,2023.1.3,MacIntel,60.0024001,,,,,,,,,,,,,,,,,,,,,,,,,,,,,,,,,,,,,,,,,,,,,,,,,,,,,669.4003,left,0.2325,,1,0.3,"[2,3,1]",0.86229906,stimuli/card_10_transparent.png,460,10,11,0,11,0,1,,,,,
,,,,,2023-10-10_14h47.24.008,SlotMachine_updated,2023.1.3,MacIntel,60.0024001,,,,,,,,,,,,,,,,,,,,,,,,,,,,,,,,,,,,,,,,,,,,,,,,,,,,,670.9502,left,0.4662,,0.5,0.3,"[2,3,1]",0.923483389,stimuli/card_10_transparent.png,470,10,12,0,12,0,1,,,,,
,,,,,2023-10-10_14h47.24.008,SlotMachine_updated,2023.1.3,MacIntel,60.0024001,,,,,,,,,,,,,,,,,,,,,,,,,,,,,,,,,,,,,,,,,,,,,,,,,,,,,672.234,left,0.7686,,1,0.3,"[2,3,1]",0.37854004,stimuli/card_10_transparent.png,480,10,13,0,13,0,1,,,,,
,,,,,2023-10-10_14h47.24.008,SlotMachine_updated,2023.1.3,MacIntel,60.0024001,,,,,,,,,,,,,,,,,,,,,,,,,,,,,,,,,,,,,,,,,,,,,,,,,,,,,674.3181,left,0.4627,,1,0.3,"[2,3,1]",0.664193951,stimuli/card_10_transparent.png,490,10,14,0,14,0,1,,,,,
,,,,,2023-10-10_14h47.24.008,SlotMachine_updated,2023.1.3,MacIntel,60.0024001,,,,,,,,,,,,,,,,,,,,,,,,,,,,,,676.1012,,,,,,,,,,,,,,,,,,,,,,,,,,,,,,,,,,,,,,,2,0,2,0,1
,,,,,2023-10-10_14h47.24.008,SlotMachine_updated,2023.1.3,MacIntel,60.0024001,,,,,,,,,,,,,,,,,,,,,,,,,,,,,,,,,,,,,,,,,,,,,,,,,4,4,"[7,15]","[[2,3,1],[1,2,3]]",681.1103,up,1.5213,,1,0.3,"[2,3,1]",0.74155552,stimuli/card_0_transparent.png,0,0,0,0,0,0,1,,,,,
,,,,,2023-10-10_14h47.24.008,SlotMachine_updated,2023.1.3,MacIntel,60.0024001,,,,,,,,,,,,,,,,,,,,,,,,,,,,,,,,,,,,,,,,,,,,,,,,,,,,,683.9503,right,1.2359,,0.5,0.3,"[2,3,1]",0.2401833,stimuli/card_100_transparent.png,100,100,1,0,1,0,1,,,,,
,,,,,2023-10-10_14h47.24.008,SlotMachine_updated,2023.1.3,MacIntel,60.0024001,,,,,,,,,,,,,,,,,,,,,,,,,,,,,,,,,,,,,,,,,,,,,,,,,,,,,685.9997,right,0.35,,1,0.3,"[2,3,1]",0.451365959,stimuli/card_100_transparent.png,200,100,2,0,2,0,1,,,,,
,,,,,2023-10-10_14h47.24.008,SlotMachine_updated,2023.1.3,MacIntel,60.0024001,,,,,,,,,,,,,,,,,,,,,,,,,,,,,,,,,,,,,,,,,,,,,,,,,,,,,687.6665,right,0.2652,,1.5,0.3,"[2,3,1]",0.798505189,stimuli/card_100_transparent.png,300,100,3,0,3,0,1,,,,,
,,,,,2023-10-10_14h47.24.008,SlotMachine_updated,2023.1.3,MacIntel,60.0024001,,,,,,,,,,,,,,,,,,,,,,,,,,,,,,,,,,,,,,,,,,,,,,,,,,,,,689.7504,right,0.2834,,0.5,0.3,"[2,3,1]",0.581032795,stimuli/card_100_transparent.png,400,100,4,0,4,0,1,,,,,
,,,,,2023-10-10_14h47.24.008,SlotMachine_updated,2023.1.3,MacIntel,60.0024001,,,,,,,,,,,,,,,,,,,,,,,,,,,,,,,,,,,,,,,,,,,,,,,,,,,,,690.8517,right,0.2808,,1.5,0.3,"[2,3,1]",0.849334466,stimuli/card_100_transparent.png,500,100,5,0,5,0,1,,,,,
,,,,,2023-10-10_14h47.24.008,SlotMachine_updated,2023.1.3,MacIntel,60.0024001,,,,,,,,,,,,,,,,,,,,,,,,,,,,,,,,,,,,,,,,,,,,,,,,,,,,,692.9507,right,0.298,,1,0.3,"[2,3,1]",0.149338557,stimuli/card_10_transparent.png,510,10,6,0,6,0,1,,,,,
,,,,,2023-10-10_14h47.24.008,SlotMachine_updated,2023.1.3,MacIntel,60.0024001,,,,,,,,,,,,,,,,,,,,,,,,,,,,,,,,,,,,,,,,,,,,,,,,,,,,,694.5674,left,1.0958,,0.5,0.3,"[1,2,3]",0.834209289,stimuli/card_100_transparent.png,610,100,7,0,7,0,1,,,,,
,,,,,2023-10-10_14h47.24.008,SlotMachine_updated,2023.1.3,MacIntel,60.0024001,,,,,,,,,,,,,,,,,,,,,,,,,,,,,,,,,,,,,,,,,,,,,,,,,,,,,696.484,left,0.3149,,0.5,0.3,"[1,2,3]",0.721905615,stimuli/card_100_transparent.png,710,100,8,0,8,0,1,,,,,
,,,,,2023-10-10_14h47.24.008,SlotMachine_updated,2023.1.3,MacIntel,60.0024001,,,,,,,,,,,,,,,,,,,,,,,,,,,,,,,,,,,,,,,,,,,,,,,,,,,,,697.6174,left,0.7348,,1.5,0.3,"[1,2,3]",0.217023193,stimuli/card_100_transparent.png,810,100,9,0,9,0,1,,,,,
,,,,,2023-10-10_14h47.24.008,SlotMachine_updated,2023.1.3,MacIntel,60.0024001,,,,,,,,,,,,,,,,,,,,,,,,,,,,,,,,,,,,,,,,,,,,,,,,,,,,,700.166,left,0.4651,,0.5,0.3,"[1,2,3]",0.723480088,stimuli/card_100_transparent.png,910,100,10,0,10,0,1,,,,,
,,,,,2023-10-10_14h47.24.008,SlotMachine_updated,2023.1.3,MacIntel,60.0024001,,,,,,,,,,,,,,,,,,,,,,,,,,,,,,,,,,,,,,,,,,,,,,,,,,,,,701.4512,left,0.2796,,0.5,0.3,"[1,2,3]",0.624390296,stimuli/card_100_transparent.png,1010,100,11,0,11,0,1,,,,,
,,,,,2023-10-10_14h47.24.008,SlotMachine_updated,2023.1.3,MacIntel,60.0024001,,,,,,,,,,,,,,,,,,,,,,,,,,,,,,,,,,,,,,,,,,,,,,,,,,,,,702.5496,left,0.8467,,1.5,0.3,"[1,2,3]",0.226386697,stimuli/card_100_transparent.png,1110,100,12,0,12,0,1,,,,,
,,,,,2023-10-10_14h47.24.008,SlotMachine_updated,2023.1.3,MacIntel,60.0024001,,,,,,,,,,,,,,,,,,,,,,,,,,,,,,,,,,,,,,,,,,,,,,,,,,,,,705.2178,left,0.5657,,0.5,0.3,"[1,2,3]",0.214383614,stimuli/card_100_transparent.png,1210,100,13,0,13,0,1,,,,,
,,,,,2023-10-10_14h47.24.008,SlotMachine_updated,2023.1.3,MacIntel,60.0024001,,,,,,,,,,,,,,,,,,,,,,,,,,,,,,,,,,,,,,,,,,,,,,,,,,,,,706.6002,left,0.2165,,1.5,0.3,"[1,2,3]",0.357179237,stimuli/card_100_transparent.png,1310,100,14,0,14,0,1,,,,,
,,,,,2023-10-10_14h47.24.008,SlotMachine_updated,2023.1.3,MacIntel,60.0024001,,,,,,,,,,,,,,,,,,,,,,,,,,,,,,708.633,,,,,,,,,,,,,,,,,,,,,,,,,,,,,,,,,,,,,,,3,0,3,0,1
,,,,,2023-10-10_14h47.24.008,SlotMachine_updated,2023.1.3,MacIntel,60.0024001,,,,,,,,,,,,,,,,,,,,,,,,,,,,,,,,,,,,,,,,,,,,,,,,,5,6,"[4,10,15]","[[2,3,1],[1,3,2],[3,2,1]]",713.6413,up,1.1926,,1.5,0.3,"[2,3,1]",0.026229941,stimuli/card_100_transparent.png,100,100,0,0,0,0,1,,,,,
,,,,,2023-10-10_14h47.24.008,SlotMachine_updated,2023.1.3,MacIntel,60.0024001,,,,,,,,,,,,,,,,,,,,,,,,,,,,,,,,,,,,,,,,,,,,,,,,,,,,,716.6506,up,0.2641,,1.5,0.3,"[2,3,1]",0.964916844,stimuli/card_0_transparent.png,100,0,1,0,1,0,1,,,,,
,,,,,2023-10-10_14h47.24.008,SlotMachine_updated,2023.1.3,MacIntel,60.0024001,,,,,,,,,,,,,,,,,,,,,,,,,,,,,,,,,,,,,,,,,,,,,,,,,,,,,718.7341,left,1.0168,,0.5,0.3,"[2,3,1]",0.987604297,stimuli/card_10_transparent.png,110,10,2,0,2,0,1,,,,,
,,,,,2023-10-10_14h47.24.008,SlotMachine_updated,2023.1.3,MacIntel,60.0024001,,,,,,,,,,,,,,,,,,,,,,,,,,,,,,,,,,,,,,,,,,,,,,,,,,,,,720.5678,left,0.2669,,1.5,0.3,"[2,3,1]",0.182019483,stimuli/card_100_transparent.png,210,100,3,0,3,0,1,,,,,
,,,,,2023-10-10_14h47.24.008,SlotMachine_updated,2023.1.3,MacIntel,60.0024001,,,,,,,,,,,,,,,,,,,,,,,,,,,,,,,,,,,,,,,,,,,,,,,,,,,,,722.6495,left,0.3,,1.5,0.3,"[1,3,2]",0.636323487,stimuli/card_100_transparent.png,310,100,4,0,4,0,1,,,,,
,,,,,2023-10-10_14h47.24.008,SlotMachine_updated,2023.1.3,MacIntel,60.0024001,,,,,,,,,,,,,,,,,,,,,,,,,,,,,,,,,,,,,,,,,,,,,,,,,,,,,724.767,left,0.3011,,0.5,0.3,"[1,3,2]",0.566263698,stimuli/card_100_transparent.png,410,100,5,0,5,0,1,,,,,
,,,,,2023-10-10_14h47.24.008,SlotMachine_updated,2023.1.3,MacIntel,60.0024001,,,,,,,,,,,,,,,,,,,,,,,,,,,,,,,,,,,,,,,,,,,,,,,,,,,,,725.8826,left,0.2204,,0.5,0.3,"[1,3,2]",0.836916241,stimuli/card_100_transparent.png,510,100,6,0,6,0,1,,,,,
,,,,,2023-10-10_14h47.24.008,SlotMachine_updated,2023.1.3,MacIntel,60.0024001,,,,,,,,,,,,,,,,,,,,,,,,,,,,,,,,,,,,,,,,,,,,,,,,,,,,,726.9168,left,0.152,,1.5,0.3,"[1,3,2]",0.730100116,stimuli/card_100_transparent.png,610,100,7,0,7,0,1,,,,,
,,,,,2023-10-10_14h47.24.008,SlotMachine_updated,2023.1.3,MacIntel,60.0024001,,,,,,,,,,,,,,,,,,,,,,,,,,,,,,,,,,,,,,,,,,,,,,,,,,,,,728.8823,left,0.0837,,0.5,0.3,"[1,3,2]",0.479368194,stimuli/card_100_transparent.png,710,100,8,0,8,0,1,,,,,
,,,,,2023-10-10_14h47.24.008,SlotMachine_updated,2023.1.3,MacIntel,60.0024001,,,,,,,,,,,,,,,,,,,,,,,,,,,,,,,,,,,,,,,,,,,,,,,,,,,,,729.7833,left,0.0823,,1,0.3,"[1,3,2]",0.847946762,stimuli/card_100_transparent.png,810,100,9,0,9,0,1,,,,,
,,,,,2023-10-10_14h47.24.008,SlotMachine_updated,2023.1.3,MacIntel,60.0024001,,,,,,,,,,,,,,,,,,,,,,,,,,,,,,,,,,,,,,,,,,,,,,,,,,,,,731.1832,left,0.0477,,0.5,0.3,"[3,2,1]",0.243846642,stimuli/card_0_transparent.png,810,0,10,0,10,0,1,,,,,
,,,,,2023-10-10_14h47.24.008,SlotMachine_updated,2023.1.3,MacIntel,60.0024001,,,,,,,,,,,,,,,,,,,,,,,,,,,,,,,,,,,,,,,,,,,,,,,,,,,,,732.049,right,1.1505,,1.5,0.3,"[3,2,1]",0.482705919,stimuli/card_100_transparent.png,910,100,11,0,11,0,1,,,,,
,,,,,2023-10-10_14h47.24.008,SlotMachine_updated,2023.1.3,MacIntel,60.0024001,,,,,,,,,,,,,,,,,,,,,,,,,,,,,,,,,,,,,,,,,,,,,,,,,,,,,735.0159,right,0.2647,,1,0.3,"[3,2,1]",0.669859559,stimuli/card_100_transparent.png,1010,100,12,0,12,0,1,,,,,
,,,,,2023-10-10_14h47.24.008,SlotMachine_updated,2023.1.3,MacIntel,60.0024001,,,,,,,,,,,,,,,,,,,,,,,,,,,,,,,,,,,,,,,,,,,,,,,,,,,,,736.6005,right,0.3068,,0.5,0.3,"[3,2,1]",0.129763313,stimuli/card_10_transparent.png,1020,10,13,0,13,0,1,,,,,
,,,,,2023-10-10_14h47.24.008,SlotMachine_updated,2023.1.3,MacIntel,60.0024001,,,,,,,,,,,,,,,,,,,,,,,,,,,,,,,,,,,,,,,,,,,,,,,,,,,,,737.7325,right,1.7154,,1,0.3,"[3,2,1]",0.758368677,stimuli/card_100_transparent.png,1120,100,14,0,14,0,1,,,,,
,,,,,2023-10-10_14h47.24.008,SlotMachine_updated,2023.1.3,MacIntel,60.0024001,,,,,,,,,,,,,,,,,,,,,,,,,,,,,,740.7666,,,,,,,,,,,,,,,,,,,,,,,,,,,,,,,,,,,,,,,4,0,4,0,1
,,,,,2023-10-10_14h47.24.008,SlotMachine_updated,2023.1.3,MacIntel,60.0024001,,,,,,,,,,,,,,,,,,,,,,,,,,,,,,,,,,,,,,,,,,,,,,,,,6,8,"[11,15]","[[2,1,3],[1,2,3]]",745.7763,up,1.1563,,1.5,0.3,"[2,1,3]",0.313003595,stimuli/card_100_transparent.png,100,100,0,0,0,0,1,,,,,
,,,,,2023-10-10_14h47.24.008,SlotMachine_updated,2023.1.3,MacIntel,60.0024001,,,,,,,,,,,,,,,,,,,,,,,,,,,,,,,,,,,,,,,,,,,,,,,,,,,,,748.7494,up,0.5505,,0.5,0.3,"[2,1,3]",0.060054472,stimuli/card_0_transparent.png,100,0,1,0,1,0,1,,,,,
,,,,,2023-10-10_14h47.24.008,SlotMachine_updated,2023.1.3,MacIntel,60.0024001,,,,,,,,,,,,,,,,,,,,,,,,,,,,,,,,,,,,,,,,,,,,,,,,,,,,,750.1191,left,0.6489,,1.5,0.3,"[2,1,3]",0.852032094,stimuli/card_10_transparent.png,110,10,2,0,2,0,1,,,,,
,,,,,2023-10-10_14h47.24.008,SlotMachine_updated,2023.1.3,MacIntel,60.0024001,,,,,,,,,,,,,,,,,,,,,,,,,,,,,,,,,,,,,,,,,,,,,,,,,,,,,752.5828,left,0.2858,,1.5,0.3,"[2,1,3]",0.535410252,stimuli/card_10_transparent.png,120,10,3,0,3,0,1,,,,,
,,,,,2023-10-10_14h47.24.008,SlotMachine_updated,2023.1.3,MacIntel,60.0024001,,,,,,,,,,,,,,,,,,,,,,,,,,,,,,,,,,,,,,,,,,,,,,,,,,,,,754.6829,left,0.0656,,0.5,0.3,"[2,1,3]",0.784492501,stimuli/card_10_transparent.png,130,10,4,0,4,0,1,,,,,
,,,,,2023-10-10_14h47.24.008,SlotMachine_updated,2023.1.3,MacIntel,60.0024001,,,,,,,,,,,,,,,,,,,,,,,,,,,,,,,,,,,,,,,,,,,,,,,,,,,,,755.5652,left,0.1994,,0.5,0.3,"[2,1,3]",0.893611925,stimuli/card_10_transparent.png,140,10,5,0,5,0,1,,,,,
,,,,,2023-10-10_14h47.24.008,SlotMachine_updated,2023.1.3,MacIntel,60.0024001,,,,,,,,,,,,,,,,,,,,,,,,,,,,,,,,,,,,,,,,,,,,,,,,,,,,,756.5821,left,0.2833,,1.5,0.3,"[2,1,3]",0.482717188,stimuli/card_10_transparent.png,150,10,6,0,6,0,1,,,,,
,,,,,2023-10-10_14h47.24.008,SlotMachine_updated,2023.1.3,MacIntel,60.0024001,,,,,,,,,,,,,,,,,,,,,,,,,,,,,,,,,,,,,,,,,,,,,,,,,,,,,758.6827,right,0.3172,,1.5,0.3,"[2,1,3]",0.842191705,stimuli/card_0_transparent.png,150,0,7,0,7,0,1,,,,,
,,,,,2023-10-10_14h47.24.008,SlotMachine_updated,2023.1.3,MacIntel,60.0024001,,,,,,,,,,,,,,,,,,,,,,,,,,,,,,,,,,,,,,,,,,,,,,,,,,,,,760.8159,up,1.2853,,0.5,0.3,"[2,1,3]",0.708093582,stimuli/card_100_transparent.png,250,100,8,0,8,0,1,,,,,
,,,,,2023-10-10_14h47.24.008,SlotMachine_updated,2023.1.3,MacIntel,60.0024001,,,,,,,,,,,,,,,,,,,,,,,,,,,,,,,,,,,,,,,,,,,,,,,,,,,,,762.9163,up,0.2831,,1.5,0.3,"[2,1,3]",0.795649833,stimuli/card_100_transparent.png,350,100,9,0,9,0,1,,,,,
,,,,,2023-10-10_14h47.24.008,SlotMachine_updated,2023.1.3,MacIntel,60.0024001,,,,,,,,,,,,,,,,,,,,,,,,,,,,,,,,,,,,,,,,,,,,,,,,,,,,,765.0165,up,0.2029,,1,0.3,"[2,1,3]",0.068496625,stimuli/card_0_transparent.png,350,0,10,0,10,0,1,,,,,
,,,,,2023-10-10_14h47.24.008,SlotMachine_updated,2023.1.3,MacIntel,60.0024001,,,,,,,,,,,,,,,,,,,,,,,,,,,,,,,,,,,,,,,,,,,,,,,,,,,,,766.5323,left,0.7001,,1,0.3,"[1,2,3]",0.415610676,stimuli/card_100_transparent.png,450,100,11,0,11,0,1,,,,,
,,,,,2023-10-10_14h47.24.008,SlotMachine_updated,2023.1.3,MacIntel,60.0024001,,,,,,,,,,,,,,,,,,,,,,,,,,,,,,,,,,,,,,,,,,,,,,,,,,,,,768.5503,left,0.2819,,1.5,0.3,"[1,2,3]",0.1864514,stimuli/card_10_transparent.png,460,10,12,0,12,0,1,,,,,
,,,,,2023-10-10_14h47.24.008,SlotMachine_updated,2023.1.3,MacIntel,60.0024001,,,,,,,,,,,,,,,,,,,,,,,,,,,,,,,,,,,,,,,,,,,,,,,,,,,,,770.6486,left,1.0153,,1.5,0.3,"[1,2,3]",0.285960034,stimuli/card_100_transparent.png,560,100,13,0,13,0,1,,,,,
,,,,,2023-10-10_14h47.24.008,SlotMachine_updated,2023.1.3,MacIntel,60.0024001,,,,,,,,,,,,,,,,,,,,,,,,,,,,,,,,,,,,,,,,,,,,,,,,,,,,,773.4838,left,0.3476,,1.5,0.3,"[1,2,3]",0.209959819,stimuli/card_100_transparent.png,660,100,14,0,14,0,1,,,,,
,,,,,2023-10-10_14h47.24.008,SlotMachine_updated,2023.1.3,MacIntel,60.0024001,,,,,,,,,,,,,,,,,,,,,,,,,,,,,,775.6499,,,,,,,,,,,,,,,,,,,,,,,,,,,,,,,,,,,,,,,5,0,5,0,1
,,,,,2023-10-10_14h47.24.008,SlotMachine_updated,2023.1.3,MacIntel,60.0024001,,,,,,,,,,,,,,,,,,,,,,,,,,,,,,,,,,,,,,,,,,,,,,,,,7,9,"[8,15]","[[3,2,1],[3,1,2]]",780.66,,,,1,0.3,,,,,,0,0,0,0,1,,,,,
,,,,,2023-10-10_14h47.24.008,SlotMachine_updated,2023.1.3,MacIntel,60.0024001,,,,,,,,,,,,,,,,,,,,,,,,,,,,,,,,,,,,,,,,,,,,,,,,,,,,,786.1778,up,0.2036,,1.5,0.3,"[3,2,1]",0.644096723,stimuli/card_10_transparent.png,10,10,1,0,1,0,1,,,,,
,,,,,2023-10-10_14h47.24.008,SlotMachine_updated,2023.1.3,MacIntel,60.0024001,,,,,,,,,,,,,,,,,,,,,,,,,,,,,,,,,,,,,,,,,,,,,,,,,,,,,788.1992,up,0.6812,,1.5,0.3,"[3,2,1]",0.660793388,stimuli/card_10_transparent.png,20,10,2,0,2,0,1,,,,,
,,,,,2023-10-10_14h47.24.008,SlotMachine_updated,2023.1.3,MacIntel,60.0024001,,,,,,,,,,,,,,,,,,,,,,,,,,,,,,,,,,,,,,,,,,,,,,,,,,,,,790.6987,left,0.4357,,1.5,0.3,"[3,2,1]",0.476164356,stimuli/card_0_transparent.png,20,0,3,0,3,0,1,,,,,
,,,,,2023-10-10_14h47.24.008,SlotMachine_updated,2023.1.3,MacIntel,60.0024001,,,,,,,,,,,,,,,,,,,,,,,,,,,,,,,,,,,,,,,,,,,,,,,,,,,,,792.9493,left,0.8712,,0.5,0.3,"[3,2,1]",0.930139881,stimuli/card_0_transparent.png,20,0,4,0,4,0,1,,,,,
,,,,,2023-10-10_14h47.24.008,SlotMachine_updated,2023.1.3,MacIntel,60.0024001,,,,,,,,,,,,,,,,,,,,,,,,,,,,,,,,,,,,,,,,,,,,,,,,,,,,,794.6318,up,0.3019,,1,0.3,"[3,2,1]",0.398869505,stimuli/card_10_transparent.png,30,10,5,0,5,0,1,,,,,
,,,,,2023-10-10_14h47.24.008,SlotMachine_updated,2023.1.3,MacIntel,60.0024001,,,,,,,,,,,,,,,,,,,,,,,,,,,,,,,,,,,,,,,,,,,,,,,,,,,,,796.2494,up,0.2323,,1,0.3,"[3,2,1]",0.163252822,stimuli/card_100_transparent.png,130,100,6,0,6,0,1,,,,,
,,,,,2023-10-10_14h47.24.008,SlotMachine_updated,2023.1.3,MacIntel,60.0024001,,,,,,,,,,,,,,,,,,,,,,,,,,,,,,,,,,,,,,,,,,,,,,,,,,,,,797.7989,up,0.3493,,1,0.3,"[3,2,1]",0.540773216,stimuli/card_10_transparent.png,140,10,7,0,7,0,1,,,,,
,,,,,2023-10-10_14h47.24.008,SlotMachine_updated,2023.1.3,MacIntel,60.0024001,,,,,,,,,,,,,,,,,,,,,,,,,,,,,,,,,,,,,,,,,,,,,,,,,,,,,799.466,up,0.1515,,1.5,0.3,"[3,1,2]",0.750697083,stimuli/card_100_transparent.png,240,100,8,0,8,0,1,,,,,
,,,,,2023-10-10_14h47.24.008,SlotMachine_updated,2023.1.3,MacIntel,60.0024001,,,,,,,,,,,,,,,,,,,,,,,,,,,,,,,,,,,,,,,,,,,,,,,,,,,,,801.4321,up,0.0518,,1,0.3,"[3,1,2]",0.195898113,stimuli/card_10_transparent.png,250,10,9,0,9,0,1,,,,,
,,,,,2023-10-10_14h47.24.008,SlotMachine_updated,2023.1.3,MacIntel,60.0024001,,,,,,,,,,,,,,,,,,,,,,,,,,,,,,,,,,,,,,,,,,,,,,,,,,,,,802.7998,up,0.1331,,1.5,0.3,"[3,1,2]",0.513036549,stimuli/card_100_transparent.png,350,100,10,0,10,0,1,,,,,
,,,,,2023-10-10_14h47.24.008,SlotMachine_updated,2023.1.3,MacIntel,60.0024001,,,,,,,,,,,,,,,,,,,,,,,,,,,,,,,,,,,,,,,,,,,,,,,,,,,,,804.7486,up,0.2664,,1.5,0.3,"[3,1,2]",0.605326865,stimuli/card_100_transparent.png,450,100,11,0,11,0,1,,,,,
,,,,,2023-10-10_14h47.24.008,SlotMachine_updated,2023.1.3,MacIntel,60.0024001,,,,,,,,,,,,,,,,,,,,,,,,,,,,,,,,,,,,,,,,,,,,,,,,,,,,,806.8317,up,0.2519,,0.5,0.3,"[3,1,2]",0.179967641,stimuli/card_10_transparent.png,460,10,12,0,12,0,1,,,,,
,,,,,2023-10-10_14h47.24.008,SlotMachine_updated,2023.1.3,MacIntel,60.0024001,,,,,,,,,,,,,,,,,,,,,,,,,,,,,,,,,,,,,,,,,,,,,,,,,,,,,807.8993,right,0.5012,,0.5,0.3,"[3,1,2]",0.420276437,stimuli/card_10_transparent.png,470,10,13,0,13,0,1,,,,,
,,,,,2023-10-10_14h47.24.008,SlotMachine_updated,2023.1.3,MacIntel,60.0024001,,,,,,,,,,,,,,,,,,,,,,,,,,,,,,,,,,,,,,,,,,,,,,,,,,,,,809.2155,right,0.2846,,1.5,0.3,"[3,1,2]",0.269198373,stimuli/card_10_transparent.png,480,10,14,0,14,0,1,,,,,
,,,,,2023-10-10_14h47.24.008,SlotMachine_updated,2023.1.3,MacIntel,60.0024001,,,,,,,,,,,,,,,,,,,,,,,,,,,,,,811.3152,,,,,,,,,,,,,,,,,,,,,,,,,,,,,,,,,,,,,,,6,0,6,0,1
,,,,,2023-10-10_14h47.24.008,SlotMachine_updated,2023.1.3,MacIntel,60.0024001,,,,,,,,,,,,,,,,,,,,,,,,,,,,,,,,,,,,,,,,,,,,,,,,,8,2,"[6,15]","[[1,3,2],[3,2,1]]",816.3267,left,1.1253,,0.5,0.3,"[1,3,2]",0.668416377,stimuli/card_100_transparent.png,100,100,0,0,0,0,1,,,,,
,,,,,2023-10-10_14h47.24.008,SlotMachine_updated,2023.1.3,MacIntel,60.0024001,,,,,,,,,,,,,,,,,,,,,,,,,,,,,,,,,,,,,,,,,,,,,,,,,,,,,818.2817,left,0.4157,,1,0.3,"[1,3,2]",0.321948578,stimuli/card_100_transparent.png,200,100,1,0,1,0,1,,,,,
,,,,,2023-10-10_14h47.24.008,SlotMachine_updated,2023.1.3,MacIntel,60.0024001,,,,,,,,,,,,,,,,,,,,,,,,,,,,,,,,,,,,,,,,,,,,,,,,,,,,,820.015,left,0.7839,,0.5,0.3,"[1,3,2]",0.31557564,stimuli/card_100_transparent.png,300,100,2,0,2,0,1,,,,,
,,,,,2023-10-10_14h47.24.008,SlotMachine_updated,2023.1.3,MacIntel,60.0024001,,,,,,,,,,,,,,,,,,,,,,,,,,,,,,,,,,,,,,,,,,,,,,,,,,,,,821.6147,left,0.2371,,1.5,0.3,"[1,3,2]",0.383173526,stimuli/card_100_transparent.png,400,100,3,0,3,0,1,,,,,
,,,,,2023-10-10_14h47.24.008,SlotMachine_updated,2023.1.3,MacIntel,60.0024001,,,,,,,,,,,,,,,,,,,,,,,,,,,,,,,,,,,,,,,,,,,,,,,,,,,,,823.6659,left,0.2645,,1,0.3,"[1,3,2]",0.235810283,stimuli/card_100_transparent.png,500,100,4,0,4,0,1,,,,,
,,,,,2023-10-10_14h47.24.008,SlotMachine_updated,2023.1.3,MacIntel,60.0024001,,,,,,,,,,,,,,,,,,,,,,,,,,,,,,,,,,,,,,,,,,,,,,,,,,,,,825.2488,left,0.2982,,1,0.3,"[1,3,2]",0.026560978,stimuli/card_0_transparent.png,500,0,5,0,5,0,1,,,,,
,,,,,2023-10-10_14h47.24.008,SlotMachine_updated,2023.1.3,MacIntel,60.0024001,,,,,,,,,,,,,,,,,,,,,,,,,,,,,,,,,,,,,,,,,,,,,,,,,,,,,826.8646,up,2.0527,,1,0.3,"[3,2,1]",0.74126718,stimuli/card_10_transparent.png,510,10,6,0,6,0,1,,,,,
,,,,,2023-10-10_14h47.24.008,SlotMachine_updated,2023.1.3,MacIntel,60.0024001,,,,,,,,,,,,,,,,,,,,,,,,,,,,,,,,,,,,,,,,,,,,,,,,,,,,,830.2318,up,0.3164,,1,0.3,"[3,2,1]",0.441419201,stimuli/card_10_transparent.png,520,10,7,0,7,0,1,,,,,
,,,,,2023-10-10_14h47.24.008,SlotMachine_updated,2023.1.3,MacIntel,60.0024001,,,,,,,,,,,,,,,,,,,,,,,,,,,,,,,,,,,,,,,,,,,,,,,,,,,,,831.8659,up,0.0319,,0.5,0.3,"[3,2,1]",0.788700655,stimuli/card_10_transparent.png,530,10,8,0,8,0,1,,,,,
,,,,,2023-10-10_14h47.24.008,SlotMachine_updated,2023.1.3,MacIntel,60.0024001,,,,,,,,,,,,,,,,,,,,,,,,,,,,,,,,,,,,,,,,,,,,,,,,,,,,,832.7157,up,0.1001,,1.5,0.3,"[3,2,1]",0.4628232,stimuli/card_10_transparent.png,540,10,9,0,9,0,1,,,,,
,,,,,2023-10-10_14h47.24.008,SlotMachine_updated,2023.1.3,MacIntel,60.0024001,,,,,,,,,,,,,,,,,,,,,,,,,,,,,,,,,,,,,,,,,,,,,,,,,,,,,834.6314,right,0.2479,,1,0.3,"[3,2,1]",0.484734854,stimuli/card_100_transparent.png,640,100,10,0,10,0,1,,,,,
,,,,,2023-10-10_14h47.24.008,SlotMachine_updated,2023.1.3,MacIntel,60.0024001,,,,,,,,,,,,,,,,,,,,,,,,,,,,,,,,,,,,,,,,,,,,,,,,,,,,,836.1982,right,0.2999,,1,0.3,"[3,2,1]",0.992261888,stimuli/card_100_transparent.png,740,100,11,0,11,0,1,,,,,
,,,,,2023-10-10_14h47.24.008,SlotMachine_updated,2023.1.3,MacIntel,60.0024001,,,,,,,,,,,,,,,,,,,,,,,,,,,,,,,,,,,,,,,,,,,,,,,,,,,,,837.8144,right,0.3671,,0.5,0.3,"[3,2,1]",0.819631953,stimuli/card_100_transparent.png,840,100,12,0,12,0,1,,,,,
,,,,,2023-10-10_14h47.24.008,SlotMachine_updated,2023.1.3,MacIntel,60.0024001,,,,,,,,,,,,,,,,,,,,,,,,,,,,,,,,,,,,,,,,,,,,,,,,,,,,,838.9991,right,0.2833,,1.5,0.3,"[3,2,1]",0.009425541,stimuli/card_0_transparent.png,840,0,13,0,13,0,1,,,,,
,,,,,2023-10-10_14h47.24.008,SlotMachine_updated,2023.1.3,MacIntel,60.0024001,,,,,,,,,,,,,,,,,,,,,,,,,,,,,,,,,,,,,,,,,,,,,,,,,,,,,841.0977,up,0.4835,,1,0.3,"[3,2,1]",0.880912257,stimuli/card_10_transparent.png,850,10,14,0,14,0,1,,,,,
,,,,,2023-10-10_14h47.24.008,SlotMachine_updated,2023.1.3,MacIntel,60.0024001,,,,,,,,,,,,,,,,,,,,,,,,,,,,,,842.8975,,,,,,,,,,,,,,,,,,,,,,,,,,,,,,,,,,,,,,,7,0,7,0,1
,,,,,2023-10-10_14h47.24.008,SlotMachine_updated,2023.1.3,MacIntel,60.0024001,,,,,,,,,,,,,,,,,,,,,,,,,,,,,,,,,,,,,,,,,,,,,,,,,9,10,"[10,15]","[[3,1,2],[1,3,2]]",847.9075,left,1.0123,,1.5,0.3,"[3,1,2]",0.54038175,stimuli/card_0_transparent.png,0,0,0,0,0,0,1,,,,,
,,,,,2023-10-10_14h47.24.008,SlotMachine_updated,2023.1.3,MacIntel,60.0024001,,,,,,,,,,,,,,,,,,,,,,,,,,,,,,,,,,,,,,,,,,,,,,,,,,,,,850.7309,left,0.5684,,0.5,0.3,"[3,1,2]",0.662938128,stimuli/card_0_transparent.png,0,0,1,0,1,0,1,,,,,
,,,,,2023-10-10_14h47.24.008,SlotMachine_updated,2023.1.3,MacIntel,60.0024001,,,,,,,,,,,,,,,,,,,,,,,,,,,,,,,,,,,,,,,,,,,,,,,,,,,,,852.1146,left,0.9677,,1,0.3,"[3,1,2]",0.032946727,stimuli/card_100_transparent.png,100,100,2,0,2,0,1,,,,,
,,,,,2023-10-10_14h47.24.008,SlotMachine_updated,2023.1.3,MacIntel,60.0024001,,,,,,,,,,,,,,,,,,,,,,,,,,,,,,,,,,,,,,,,,,,,,,,,,,,,,854.3979,up,4.0009,,1,0.3,"[3,1,2]",0.192264238,stimuli/card_10_transparent.png,110,10,3,0,3,0,1,,,,,
,,,,,2023-10-10_14h47.24.008,SlotMachine_updated,2023.1.3,MacIntel,60.0024001,,,,,,,,,,,,,,,,,,,,,,,,,,,,,,,,,,,,,,,,,,,,,,,,,,,,,859.715,up,2.0498,,1.5,0.3,"[3,1,2]",0.582505271,stimuli/card_100_transparent.png,210,100,4,0,4,0,1,,,,,
,,,,,2023-10-10_14h47.24.008,SlotMachine_updated,2023.1.3,MacIntel,60.0024001,,,,,,,,,,,,,,,,,,,,,,,,,,,,,,,,,,,,,,,,,,,,,,,,,,,,,863.582,right,4.5137,,0.5,0.3,"[3,1,2]",0.684267891,stimuli/card_10_transparent.png,220,10,5,0,5,0,1,,,,,
,,,,,2023-10-10_14h47.24.008,SlotMachine_updated,2023.1.3,MacIntel,60.0024001,,,,,,,,,,,,,,,,,,,,,,,,,,,,,,,,,,,,,,,,,,,,,,,,,,,,,868.9152,right,0.4331,,1.5,0.3,"[3,1,2]",0.554574715,stimuli/card_10_transparent.png,230,10,6,0,6,0,1,,,,,
,,,,,2023-10-10_14h47.24.008,SlotMachine_updated,2023.1.3,MacIntel,60.0024001,,,,,,,,,,,,,,,,,,,,,,,,,,,,,,,,,,,,,,,,,,,,,,,,,,,,,871.1644,right,0.5185,,1,0.3,"[3,1,2]",0.212530585,stimuli/card_10_transparent.png,240,10,7,0,7,0,1,,,,,
,,,,,2023-10-10_14h47.24.008,SlotMachine_updated,2023.1.3,MacIntel,60.0024001,,,,,,,,,,,,,,,,,,,,,,,,,,,,,,,,,,,,,,,,,,,,,,,,,,,,,872.9856,right,0.5286,,1,0.3,"[3,1,2]",0.528566253,stimuli/card_10_transparent.png,250,10,8,0,8,0,1,,,,,
,,,,,2023-10-10_14h47.24.008,SlotMachine_updated,2023.1.3,MacIntel,60.0024001,,,,,,,,,,,,,,,,,,,,,,,,,,,,,,,,,,,,,,,,,,,,,,,,,,,,,874.8302,right,0.4161,,1,0.3,"[3,1,2]",0.643534692,stimuli/card_10_transparent.png,260,10,9,0,9,0,1,,,,,
,,,,,2023-10-10_14h47.24.008,SlotMachine_updated,2023.1.3,MacIntel,60.0024001,,,,,,,,,,,,,,,,,,,,,,,,,,,,,,,,,,,,,,,,,,,,,,,,,,,,,876.5637,right,0.1025,,0.5,0.3,"[1,3,2]",0.235899151,stimuli/card_10_transparent.png,270,10,10,0,10,0,1,,,,,
,,,,,2023-10-10_14h47.24.008,SlotMachine_updated,2023.1.3,MacIntel,60.0024001,,,,,,,,,,,,,,,,,,,,,,,,,,,,,,,,,,,,,,,,,,,,,,,,,,,,,877.4809,right,0.3013,,1,0.3,"[1,3,2]",0.936440313,stimuli/card_10_transparent.png,280,10,11,0,11,0,1,,,,,
,,,,,2023-10-10_14h47.24.008,SlotMachine_updated,2023.1.3,MacIntel,60.0024001,,,,,,,,,,,,,,,,,,,,,,,,,,,,,,,,,,,,,,,,,,,,,,,,,,,,,879.0975,right,0.1809,,1,0.3,"[1,3,2]",0.340269582,stimuli/card_10_transparent.png,290,10,12,0,12,0,1,,,,,
,,,,,2023-10-10_14h47.24.008,SlotMachine_updated,2023.1.3,MacIntel,60.0024001,,,,,,,,,,,,,,,,,,,,,,,,,,,,,,,,,,,,,,,,,,,,,,,,,,,,,880.5972,right,0.1998,,1.5,0.3,"[1,3,2]",0.322312921,stimuli/card_10_transparent.png,300,10,13,0,13,0,1,,,,,
,,,,,2023-10-10_14h47.24.008,SlotMachine_updated,2023.1.3,MacIntel,60.0024001,,,,,,,,,,,,,,,,,,,,,,,,,,,,,,,,,,,,,,,,,,,,,,,,,,,,,882.6165,right,0.0316,,1,0.3,"[1,3,2]",0.075052237,stimuli/card_0_transparent.png,300,0,14,0,14,0,1,,,,,
,,,,,2023-10-10_14h47.24.008,SlotMachine_updated,2023.1.3,MacIntel,60.0024001,,,,,,,,,,,,,,,,,,,,,,,,,,,,,,883.9637,,,,,,,,,,,,,,,,,,,,,,,,,,,,,,,,,,,,,,,8,0,8,0,1
,,,,,2023-10-10_14h47.24.008,SlotMachine_updated,2023.1.3,MacIntel,60.0024001,,,,,,,,,,,,,,,,,,,,,,,,,,,,,,,,,,,,,,,,,,,,,,,,,10,3,"[15,15]","[[3,1,2],[3,1,2]]",888.9754,left,0.67,,1,0.3,"[3,1,2]",0.760146707,stimuli/card_0_transparent.png,0,0,0,0,0,0,1,,,,,
,,,,,2023-10-10_14h47.24.008,SlotMachine_updated,2023.1.3,MacIntel,60.0024001,,,,,,,,,,,,,,,,,,,,,,,,,,,,,,,,,,,,,,,,,,,,,,,,,,,,,890.9643,up,0.117,,1.5,0.3,"[3,1,2]",0.868486956,stimuli/card_100_transparent.png,100,100,1,0,1,0,1,,,,,
,,,,,2023-10-10_14h47.24.008,SlotMachine_updated,2023.1.3,MacIntel,60.0024001,,,,,,,,,,,,,,,,,,,,,,,,,,,,,,,,,,,,,,,,,,,,,,,,,,,,,892.8969,up,0.2845,,0.5,0.3,"[3,1,2]",0.268773993,stimuli/card_100_transparent.png,200,100,2,0,2,0,1,,,,,
,,,,,2023-10-10_14h47.24.008,SlotMachine_updated,2023.1.3,MacIntel,60.0024001,,,,,,,,,,,,,,,,,,,,,,,,,,,,,,,,,,,,,,,,,,,,,,,,,,,,,893.9967,up,0.3989,,1,0.3,"[3,1,2]",0.611516036,stimuli/card_100_transparent.png,300,100,3,0,3,0,1,,,,,
,,,,,2023-10-10_14h47.24.008,SlotMachine_updated,2023.1.3,MacIntel,60.0024001,,,,,,,,,,,,,,,,,,,,,,,,,,,,,,,,,,,,,,,,,,,,,,,,,,,,,895.7148,up,4.9812,,1,0.3,"[3,1,2]",0.23830459,stimuli/card_100_transparent.png,400,100,4,0,4,0,1,,,,,
,,,,,2023-10-10_14h47.24.008,SlotMachine_updated,2023.1.3,MacIntel,60.0024001,,,,,,,,,,,,,,,,,,,,,,,,,,,,,,,,,,,,,,,,,,,,,,,,,,,,,902.014,up,0.3323,,1.5,0.3,"[3,1,2]",0.771354087,stimuli/card_100_transparent.png,500,100,5,0,5,0,1,,,,,
,,,,,2023-10-10_14h47.24.008,SlotMachine_updated,2023.1.3,MacIntel,60.0024001,,,,,,,,,,,,,,,,,,,,,,,,,,,,,,,,,,,,,,,,,,,,,,,,,,,,,904.1634,up,0.068,,1.5,0.3,"[3,1,2]",0.882871138,stimuli/card_100_transparent.png,600,100,6,0,6,0,1,,,,,
,,,,,2023-10-10_14h47.24.008,SlotMachine_updated,2023.1.3,MacIntel,60.0024001,,,,,,,,,,,,,,,,,,,,,,,,,,,,,,,,,,,,,,,,,,,,,,,,,,,,,906.0473,up,0.0005,,0.5,0.3,"[3,1,2]",0.345086779,stimuli/card_100_transparent.png,700,100,7,0,7,0,1,,,,,
,,,,,2023-10-10_14h47.24.008,SlotMachine_updated,2023.1.3,MacIntel,60.0024001,,,,,,,,,,,,,,,,,,,,,,,,,,,,,,,,,,,,,,,,,,,,,,,,,,,,,906.8643,up,0.1653,,1,0.3,"[3,1,2]",0.309146331,stimuli/card_100_transparent.png,800,100,8,0,8,0,1,,,,,
,,,,,2023-10-10_14h47.24.008,SlotMachine_updated,2023.1.3,MacIntel,60.0024001,,,,,,,,,,,,,,,,,,,,,,,,,,,,,,,,,,,,,,,,,,,,,,,,,,,,,908.3481,up,0.0005,,0.5,0.3,"[3,1,2]",0.618832451,stimuli/card_100_transparent.png,900,100,9,0,9,0,1,,,,,
,,,,,2023-10-10_14h47.24.008,SlotMachine_updated,2023.1.3,MacIntel,60.0024001,,,,,,,,,,,,,,,,,,,,,,,,,,,,,,,,,,,,,,,,,,,,,,,,,,,,,909.1643,up,0.114,,1.5,0.3,"[3,1,2]",0.069239522,stimuli/card_0_transparent.png,900,0,10,0,10,0,1,,,,,
,,,,,2023-10-10_14h47.24.008,SlotMachine_updated,2023.1.3,MacIntel,60.0024001,,,,,,,,,,,,,,,,,,,,,,,,,,,,,,,,,,,,,,,,,,,,,,,,,,,,,911.0965,right,0.4518,,1,0.3,"[3,1,2]",0.600874189,stimuli/card_10_transparent.png,910,10,11,0,11,0,1,,,,,
,,,,,2023-10-10_14h47.24.008,SlotMachine_updated,2023.1.3,MacIntel,60.0024001,,,,,,,,,,,,,,,,,,,,,,,,,,,,,,,,,,,,,,,,,,,,,,,,,,,,,912.8643,right,0.2677,,1,0.3,"[3,1,2]",0.201478368,stimuli/card_10_transparent.png,920,10,12,0,12,0,1,,,,,
,,,,,2023-10-10_14h47.24.008,SlotMachine_updated,2023.1.3,MacIntel,60.0024001,,,,,,,,,,,,,,,,,,,,,,,,,,,,,,,,,,,,,,,,,,,,,,,,,,,,,914.4471,right,0.1338,,1.5,0.3,"[3,1,2]",0.305929006,stimuli/card_10_transparent.png,930,10,13,0,13,0,1,,,,,
,,,,,2023-10-10_14h47.24.008,SlotMachine_updated,2023.1.3,MacIntel,60.0024001,,,,,,,,,,,,,,,,,,,,,,,,,,,,,,,,,,,,,,,,,,,,,,,,,,,,,916.3984,right,0.1022,,1.5,0.3,"[3,1,2]",0.085041481,stimuli/card_0_transparent.png,930,0,14,0,14,0,1,,,,,
,,,,,2023-10-10_14h47.24.008,SlotMachine_updated,2023.1.3,MacIntel,60.0024001,,,,,,,,,,,,,,,,,,,,,,,,,,,,,,918.3143,,,,,,,,,,,,,,,,,,,,,,,,,,,,,,,,,,,,,,,9,0,9,0,1
,,,,,2023-10-10_14h47.24.008,SlotMachine_updated,2023.1.3,MacIntel,60.0024001,,,,,,,,,,,,,,,,,,,,,,,,,,,,,,,,,,,,,,,,,,,,,,,,,,,,,,,,,,,,,,,,,,,,,,,,,
