key_resp_welcome_started,key_resp_welcome_keys,key_resp_welcome_rt,key_resp_welcome_duration,prolific_id,path_id,date,expName,psychopyVersion,OS,frameRate,key_resp_instruction1_started,key_resp_instruction1_keys,key_resp_instruction1_rt,key_resp_instruction1_duration,key_resp_instruction2_started,key_resp_instruction2_keys,key_resp_instruction2_rt,key_resp_instruction2_duration,key_resp_instruction3_started,key_resp_instruction3_keys,key_resp_instruction3_rt,key_resp_instruction3_duration,key_resp_instruction4_started,key_resp_instruction4_keys,key_resp_instruction4_rt,key_resp_instruction4_duration,practiceCondition,practice_reward_seqs,practice_trial_started,practice_trial_num,practice_resp_rt,practice_resp_duration,practice_resp_keys,prac_presentationInterval,"practice_reward_seq: 2,1,3",reward_img,cumulative_reward,trial_reward,practice_trials.thisRepN,practice_trials.thisTrialN,practice_trials.thisN,practice_trials.thisIndex,practice_trials.ran,"practice_reward_seq: 2,3,1",block_break_started,"practice_reward_seq: 1,3,2","practice_reward_seq: 3,1,2",practice_end_time,practice_end_keys,practice_end_rt,practice_end_duration,main_instruction_text_started,block_condition,block_order_indices,main_instruction_keys,main_instruction_rt,main_instruction_duration,block_number,block_assignment,current_condition,main_reward_seqs,main_trial_started,main_trial_num,main_trial_keys,main_trial_rt,main_trial_duration,main_presentationInterval,reward_presentation_time,main_reward_seq,reward_rand_val,main_reward_img,current_reward,main_trials.thisRepN,main_trials.thisTrialN,main_trials.thisN,main_trials.thisIndex,main_trials.ran,block_reward,block.thisRepN,block.thisTrialN,block.thisN,block.thisIndex,block.ran,block_reward.length,block_reward_all,reward_amount,date_end_task
0.0003,space,1.7389,,,A,2024-07-05_14h36.50.988,Slot Machine Game,2023.1.3,Win32,60.24096386,,,,,,,,,,,,,,,,,,,,,,,,,,,,,,,,,,,,,,,,,,,,,,,,,,,,,,,,,,,,,,,,,,,,,,,,,,,,,
,,,,,A,2024-07-05_14h36.50.988,Slot Machine Game,2023.1.3,Win32,60.24096386,1.7591,space,6.9694,,,,,,,,,,,,,,,,,,,,,,,,,,,,,,,,,,,,,,,,,,,,,,,,,,,,,,,,,,,,,,,,,,,,,,,,,,
,,,,,A,2024-07-05_14h36.50.988,Slot Machine Game,2023.1.3,Win32,60.24096386,,,,,8.7595,space,8.7672,,,,,,,,,,,,,,,,,,,,,,,,,,,,,,,,,,,,,,,,,,,,,,,,,,,,,,,,,,,,,,,,,,,,,,
,,,,,A,2024-07-05_14h36.50.988,Slot Machine Game,2023.1.3,Win32,60.24096386,,,,,,,,,17.5607,space,2.7346,,,,,,,,,,,,,,,,,,,,,,,,,,,,,,,,,,,,,,,,,,,,,,,,,,,,,,,,,,,,,,,,,,
,,,,,A,2024-07-05_14h36.50.988,Slot Machine Game,2023.1.3,Win32,60.24096386,,,,,,,,,,,,,,,,,,,,,,,,,,,,,,,,,,,,,,,,,,,,,,,,,,,,,,,,,,,,,,,,,,,,,,,,,,,,,
,,,,,A,2024-07-05_14h36.50.988,Slot Machine Game,2023.1.3,Win32,60.24096386,,,,,,,,,,,,,161.9941,space,6.6284,,,,,,,,,,,,,,,,,,,,,,,,,,,,,,,,,,,,,,,,,,,,,,,,,,,,,,,,,,,,,,
,,,,,A,2024-07-05_14h36.50.988,Slot Machine Game,2023.1.3,Win32,60.24096386,,,,,,,,,,,,,,,,,"[9,15]","[[2,1,3],[2,3,1]]",168.6541,0,2.0012,,left,0.5,,stimuli/card_10_transparent.png,10,10,0,0,0,0,1,,,,,,,,,,,,,,,,,,,,,,,,,,,,,,,,,,,,,,,,,,,,
,,,,,A,2024-07-05_14h36.50.988,Slot Machine Game,2023.1.3,Win32,60.24096386,,,,,,,,,,,,,,,,,,,171.9944,1,2.137,,up,0.5,,stimuli/card_10_transparent.png,20,10,1,0,1,0,1,,,,,,,,,,,,,,,,,,,,,,,,,,,,,,,,,,,,,,,,,,,,
,,,,,A,2024-07-05_14h36.50.988,Slot Machine Game,2023.1.3,Win32,60.24096386,,,,,,,,,,,,,,,,,,,175.4431,2,0.3349,,right,0.5,,stimuli/card_100_transparent.png,120,100,2,0,2,0,1,,,,,,,,,,,,,,,,,,,,,,,,,,,,,,,,,,,,,,,,,,,,
,,,,,A,2024-07-05_14h36.50.988,Slot Machine Game,2023.1.3,Win32,60.24096386,,,,,,,,,,,,,,,,,,,177.0934,3,0.1863,,right,1,,stimuli/card_10_transparent.png,130,10,3,0,3,0,1,,,,,,,,,,,,,,,,,,,,,,,,,,,,,,,,,,,,,,,,,,,,
,,,,,A,2024-07-05_14h36.50.988,Slot Machine Game,2023.1.3,Win32,60.24096386,,,,,,,,,,,,,,,,,,,179.1111,4,0.5329,,up,1,,stimuli/card_100_transparent.png,230,100,4,0,4,0,1,,,,,,,,,,,,,,,,,,,,,,,,,,,,,,,,,,,,,,,,,,,,
,,,,,A,2024-07-05_14h36.50.988,Slot Machine Game,2023.1.3,Win32,60.24096386,,,,,,,,,,,,,,,,,,,181.4768,5,0.1905,,up,1.5,,stimuli/card_100_transparent.png,330,100,5,0,5,0,1,,,,,,,,,,,,,,,,,,,,,,,,,,,,,,,,,,,,,,,,,,,,
,,,,,A,2024-07-05_14h36.50.988,Slot Machine Game,2023.1.3,Win32,60.24096386,,,,,,,,,,,,,,,,,,,183.9938,6,0.0715,,up,0.5,,stimuli/card_100_transparent.png,430,100,6,0,6,0,1,,,,,,,,,,,,,,,,,,,,,,,,,,,,,,,,,,,,,,,,,,,,
,,,,,A,2024-07-05_14h36.50.988,Slot Machine Game,2023.1.3,Win32,60.24096386,,,,,,,,,,,,,,,,,,,185.3937,7,,,,1,,,,,7,0,7,0,1,,,,,,,,,,,,,,,,,,,,,,,,,,,,,,,,,,,,,,,,,,,,
,,,,,A,2024-07-05_14h36.50.988,Slot Machine Game,2023.1.3,Win32,60.24096386,,,,,,,,,,,,,,,,,,,191.2206,8,0.2061,,up,1,,stimuli/card_100_transparent.png,530,100,8,0,8,0,1,,,,,,,,,,,,,,,,,,,,,,,,,,,,,,,,,,,,,,,,,,,,
,,,,,A,2024-07-05_14h36.50.988,Slot Machine Game,2023.1.3,Win32,60.24096386,,,,,,,,,,,,,,,,,,,193.2389,9,,,,1,,,,,9,0,9,0,1,,,,,,,,,,,,,,,,,,,,,,,,,,,,,,,,,,,,,,,,,,,,
,,,,,A,2024-07-05_14h36.50.988,Slot Machine Game,2023.1.3,Win32,60.24096386,,,,,,,,,,,,,,,,,,,198.7477,10,0.0871,,up,1.5,,stimuli/card_100_transparent.png,630,100,10,0,10,0,1,,,,,,,,,,,,,,,,,,,,,,,,,,,,,,,,,,,,,,,,,,,,
,,,,,A,2024-07-05_14h36.50.988,Slot Machine Game,2023.1.3,Win32,60.24096386,,,,,,,,,,,,,,,,,,,201.1659,11,,,,0.5,,,,,11,0,11,0,1,,,,,,,,,,,,,,,,,,,,,,,,,,,,,,,,,,,,,,,,,,,,
,,,,,A,2024-07-05_14h36.50.988,Slot Machine Game,2023.1.3,Win32,60.24096386,,,,,,,,,,,,,,,,,,,210.4986,12,1.4028,,up,1.5,,stimuli/card_0_transparent.png,630,0,12,0,12,0,1,,,,,,,,,,,,,,,,,,,,,,,,,,,,,,,,,,,,,,,,,,,,
,,,,,A,2024-07-05_14h36.50.988,Slot Machine Game,2023.1.3,Win32,60.24096386,,,,,,,,,,,,,,,,,,,214.226,13,1.003,,left,1.5,,stimuli/card_10_transparent.png,640,10,13,0,13,0,1,,,,,,,,,,,,,,,,,,,,,,,,,,,,,,,,,,,,,,,,,,,,
,,,,,A,2024-07-05_14h36.50.988,Slot Machine Game,2023.1.3,Win32,60.24096386,,,,,,,,,,,,,,,,,,,217.5543,14,0.1264,,up,1.5,,stimuli/card_0_transparent.png,640,0,14,0,14,0,1,,,,,,,,,,,,,,,,,,,,,,,,,,,,,,,,,,,,,,,,,,,,
,,,,,A,2024-07-05_14h36.50.988,Slot Machine Game,2023.1.3,Win32,60.24096386,,,,,,,,,,,,,,,,,"[6,15]","[[1,3,2],[3,1,2]]",224.7337,0,1.4259,,up,1.5,,stimuli/card_100_transparent.png,100,100,0,0,0,0,1,,220.0135,,,,,,,,,,,,,,,,,,,,,,,,,,,,,,,,,,,,,,,,,,
,,,,,A,2024-07-05_14h36.50.988,Slot Machine Game,2023.1.3,Win32,60.24096386,,,,,,,,,,,,,,,,,,,229.5885,1,0.2174,,up,0.5,,stimuli/card_0_transparent.png,100,0,1,0,1,0,1,,,,,,,,,,,,,,,,,,,,,,,,,,,,,,,,,,,,,,,,,,,,
,,,,,A,2024-07-05_14h36.50.988,Slot Machine Game,2023.1.3,Win32,60.24096386,,,,,,,,,,,,,,,,,,,231.1223,2,0.1194,,up,1,,stimuli/card_0_transparent.png,100,0,2,0,2,0,1,,,,,,,,,,,,,,,,,,,,,,,,,,,,,,,,,,,,,,,,,,,,
,,,,,A,2024-07-05_14h36.50.988,Slot Machine Game,2023.1.3,Win32,60.24096386,,,,,,,,,,,,,,,,,,,233.0603,3,0.0242,,right,0.5,,stimuli/card_10_transparent.png,110,10,3,0,3,0,1,,,,,,,,,,,,,,,,,,,,,,,,,,,,,,,,,,,,,,,,,,,,
,,,,,A,2024-07-05_14h36.50.988,Slot Machine Game,2023.1.3,Win32,60.24096386,,,,,,,,,,,,,,,,,,,234.4056,4,0.3744,,left,0.5,,stimuli/card_100_transparent.png,210,100,4,0,4,0,1,,,,,,,,,,,,,,,,,,,,,,,,,,,,,,,,,,,,,,,,,,,,
,,,,,A,2024-07-05_14h36.50.988,Slot Machine Game,2023.1.3,Win32,60.24096386,,,,,,,,,,,,,,,,,,,236.0889,5,0.416,,left,0.5,,stimuli/card_100_transparent.png,310,100,5,0,5,0,1,,,,,,,,,,,,,,,,,,,,,,,,,,,,,,,,,,,,,,,,,,,,
,,,,,A,2024-07-05_14h36.50.988,Slot Machine Game,2023.1.3,Win32,60.24096386,,,,,,,,,,,,,,,,,,,237.8224,6,0.1306,,left,0.5,,stimuli/card_0_transparent.png,310,0,6,0,6,0,1,,,,,,,,,,,,,,,,,,,,,,,,,,,,,,,,,,,,,,,,,,,,
,,,,,A,2024-07-05_14h36.50.988,Slot Machine Game,2023.1.3,Win32,60.24096386,,,,,,,,,,,,,,,,,,,239.2886,7,0.0593,,left,1,,stimuli/card_0_transparent.png,310,0,7,0,7,0,1,,,,,,,,,,,,,,,,,,,,,,,,,,,,,,,,,,,,,,,,,,,,
,,,,,A,2024-07-05_14h36.50.988,Slot Machine Game,2023.1.3,Win32,60.24096386,,,,,,,,,,,,,,,,,,,241.1719,8,0.0212,,up,1.5,,stimuli/card_100_transparent.png,410,100,8,0,8,0,1,,,,,,,,,,,,,,,,,,,,,,,,,,,,,,,,,,,,,,,,,,,,
,,,,,A,2024-07-05_14h36.50.988,Slot Machine Game,2023.1.3,Win32,60.24096386,,,,,,,,,,,,,,,,,,,243.5223,9,0.034,,up,0.5,,stimuli/card_10_transparent.png,420,10,9,0,9,0,1,,,,,,,,,,,,,,,,,,,,,,,,,,,,,,,,,,,,,,,,,,,,
,,,,,A,2024-07-05_14h36.50.988,Slot Machine Game,2023.1.3,Win32,60.24096386,,,,,,,,,,,,,,,,,,,244.8888,10,0.6947,,up,1,,stimuli/card_100_transparent.png,520,100,10,0,10,0,1,,,,,,,,,,,,,,,,,,,,,,,,,,,,,,,,,,,,,,,,,,,,
,,,,,A,2024-07-05_14h36.50.988,Slot Machine Game,2023.1.3,Win32,60.24096386,,,,,,,,,,,,,,,,,,,247.4057,11,0.0071,,up,1,,stimuli/card_0_transparent.png,520,0,11,0,11,0,1,,,,,,,,,,,,,,,,,,,,,,,,,,,,,,,,,,,,,,,,,,,,
,,,,,A,2024-07-05_14h36.50.988,Slot Machine Game,2023.1.3,Win32,60.24096386,,,,,,,,,,,,,,,,,,,249.2544,12,0.4343,,left,0.5,,stimuli/card_0_transparent.png,520,0,12,0,12,0,1,,,,,,,,,,,,,,,,,,,,,,,,,,,,,,,,,,,,,,,,,,,,
,,,,,A,2024-07-05_14h36.50.988,Slot Machine Game,2023.1.3,Win32,60.24096386,,,,,,,,,,,,,,,,,,,251.022,13,0.0544,,right,1.5,,stimuli/card_10_transparent.png,530,10,13,0,13,0,1,,,,,,,,,,,,,,,,,,,,,,,,,,,,,,,,,,,,,,,,,,,,
,,,,,A,2024-07-05_14h36.50.988,Slot Machine Game,2023.1.3,Win32,60.24096386,,,,,,,,,,,,,,,,,,,253.3885,14,0.3521,,right,1.5,,stimuli/card_10_transparent.png,540,10,14,0,14,0,1,,,,,,,,,,,,,,,,,,,,,,,,,,,,,,,,,,,,,,,,,,,,
,,,,,A,2024-07-05_14h36.50.988,Slot Machine Game,2023.1.3,Win32,60.24096386,,,,,,,,,,,,,,,,,,,,,,,,,,,,,,,,,,,256.0718,,,261.0753,space,44.3193,,,,,,,,,,,,,,,,,,,,,,,,,,,,,,,,,,,,,
,,,,,A,2024-07-05_14h36.50.988,Slot Machine Game,2023.1.3,Win32,60.24096386,,,,,,,,,,,,,,,,,,,,,,,,,,,,,,,,,,,,,,,,,,305.4255,3,"[0,4,6,3,5,7,8,1,9,2]",space,2.0486,,,,,,,,,,,,,,,,,,,,,,,,,,,,,,,
,,,,,A,2024-07-05_14h36.50.988,Slot Machine Game,2023.1.3,Win32,60.24096386,,,,,,,,,,,,,,,,,,,,,,,,,,,100,,,,,,,,,,,,,,,,,,,,,1,1,"[12,15]","[[2,1,3],[2,3,1]]",307.5152,0,up,2.8521,,1,0.3,"[2,1,3]",0.681577676,stimuli/card_100_transparent.png,100,0,0,0,0,1,,,,,,,,,,
,,,,,A,2024-07-05_14h36.50.988,Slot Machine Game,2023.1.3,Win32,60.24096386,,,,,,,,,,,,,,,,,,,,,,,,,,,200,,,,,,,,,,,,,,,,,,,,,1,1,,,312.19,1,up,0.2367,,0.5,0.3,"[2,1,3]",0.681433464,stimuli/card_100_transparent.png,100,1,0,1,0,1,,,,,,,,,,
,,,,,A,2024-07-05_14h36.50.988,Slot Machine Game,2023.1.3,Win32,60.24096386,,,,,,,,,,,,,,,,,,,,,,,,,,,300,,,,,,,,,,,,,,,,,,,,,1,1,,,313.7558,2,up,0.0565,,1,0.3,"[2,1,3]",0.633235169,stimuli/card_100_transparent.png,100,2,0,2,0,1,,,,,,,,,,
,,,,,A,2024-07-05_14h36.50.988,Slot Machine Game,2023.1.3,Win32,60.24096386,,,,,,,,,,,,,,,,,,,,,,,,,,,400,,,,,,,,,,,,,,,,,,,,,1,1,,,315.6396,3,up,0.5107,,1.5,0.3,"[2,1,3]",0.989441235,stimuli/card_100_transparent.png,100,3,0,3,0,1,,,,,,,,,,
,,,,,A,2024-07-05_14h36.50.988,Slot Machine Game,2023.1.3,Win32,60.24096386,,,,,,,,,,,,,,,,,,,,,,,,,,,410,,,,,,,,,,,,,,,,,,,,,1,1,,,318.4727,4,up,0.1343,,0.5,0.3,"[2,1,3]",0.169707167,stimuli/card_10_transparent.png,10,4,0,4,0,1,,,,,,,,,,
,,,,,A,2024-07-05_14h36.50.988,Slot Machine Game,2023.1.3,Win32,60.24096386,,,,,,,,,,,,,,,,,,,,,,,,,,,510,,,,,,,,,,,,,,,,,,,,,1,1,,,319.9393,5,left,0.4539,,0.5,0.3,"[2,1,3]",0.187320726,stimuli/card_100_transparent.png,100,5,0,5,0,1,,,,,,,,,,
,,,,,A,2024-07-05_14h36.50.988,Slot Machine Game,2023.1.3,Win32,60.24096386,,,,,,,,,,,,,,,,,,,,,,,,,,,520,,,,,,,,,,,,,,,,,,,,,1,1,,,321.7225,6,left,0.019,,0.5,0.3,"[2,1,3]",0.372989327,stimuli/card_10_transparent.png,10,6,0,6,0,1,,,,,,,,,,
,,,,,A,2024-07-05_14h36.50.988,Slot Machine Game,2023.1.3,Win32,60.24096386,,,,,,,,,,,,,,,,,,,,,,,,,,,620,,,,,,,,,,,,,,,,,,,,,1,1,,,323.0726,7,up,0.3259,,1.5,0.3,"[2,1,3]",0.246794903,stimuli/card_100_transparent.png,100,7,0,7,0,1,,,,,,,,,,
,,,,,A,2024-07-05_14h36.50.988,Slot Machine Game,2023.1.3,Win32,60.24096386,,,,,,,,,,,,,,,,,,,,,,,,,,,720,,,,,,,,,,,,,,,,,,,,,1,1,,,325.7216,8,up,0.058,,0.5,0.3,"[2,1,3]",0.695270863,stimuli/card_100_transparent.png,100,8,0,8,0,1,,,,,,,,,,
,,,,,A,2024-07-05_14h36.50.988,Slot Machine Game,2023.1.3,Win32,60.24096386,,,,,,,,,,,,,,,,,,,,,,,,,,,820,,,,,,,,,,,,,,,,,,,,,1,1,,,327.0893,9,up,0.4492,,1,0.3,"[2,1,3]",0.38849262,stimuli/card_100_transparent.png,100,9,0,9,0,1,,,,,,,,,,
,,,,,A,2024-07-05_14h36.50.988,Slot Machine Game,2023.1.3,Win32,60.24096386,,,,,,,,,,,,,,,,,,,,,,,,,,,830,,,,,,,,,,,,,,,,,,,,,1,1,,,329.3715,10,up,0.4027,,1,0.3,"[2,1,3]",0.184846897,stimuli/card_10_transparent.png,10,10,0,10,0,1,,,,,,,,,,
,,,,,A,2024-07-05_14h36.50.988,Slot Machine Game,2023.1.3,Win32,60.24096386,,,,,,,,,,,,,,,,,,,,,,,,,,,930,,,,,,,,,,,,,,,,,,,,,1,1,,,331.5893,11,left,0.4368,,0.5,0.3,"[2,1,3]",0.103067216,stimuli/card_100_transparent.png,100,11,0,11,0,1,,,,,,,,,,
,,,,,A,2024-07-05_14h36.50.988,Slot Machine Game,2023.1.3,Win32,60.24096386,,,,,,,,,,,,,,,,,,,,,,,,,,,930,,,,,,,,,,,,,,,,,,,,,1,1,,,333.3556,12,left,0.3399,,1.5,0.3,"[2,3,1]",0.045599299,stimuli/card_0_transparent.png,0,12,0,12,0,1,,,,,,,,,,
,,,,,A,2024-07-05_14h36.50.988,Slot Machine Game,2023.1.3,Win32,60.24096386,,,,,,,,,,,,,,,,,,,,,,,,,,,930,,,,,,,,,,,,,,,,,,,,,1,1,,,336.0227,13,up,0.2602,,1,0.3,"[2,3,1]",0.378007762,stimuli/card_0_transparent.png,0,13,0,13,0,1,,,,,,,,,,
,,,,,A,2024-07-05_14h36.50.988,Slot Machine Game,2023.1.3,Win32,60.24096386,,,,,,,,,,,,,,,,,,,,,,,,,,,1030,,,,,,,,,,,,,,,,,,,,,1,1,,,338.1056,14,right,0.4488,,0.5,0.3,"[2,3,1]",0.693222274,stimuli/card_100_transparent.png,100,14,0,14,0,1,,,,,,,,,,
,,,,,A,2024-07-05_14h36.50.988,Slot Machine Game,2023.1.3,Win32,60.24096386,,,,,,,,,,,,,,,,,,,,,,,,,,,,,,,,,,,339.8891,,,,,,,,,,,,,,,,,,,,,,,,,,,,,,,,,[1030],0,0,0,0,1,,,,
,,,,,A,2024-07-05_14h36.50.988,Slot Machine Game,2023.1.3,Win32,60.24096386,,,,,,,,,,,,,,,,,,,,,,,,,,,100,,,,,,,,,,,,,,,,,,,,,2,5,"[5,15]","[[1,2,3],[3,1,2]]",344.9142,0,left,1.2517,,0.5,0.3,"[1,2,3]",0.63286725,stimuli/card_100_transparent.png,100,0,0,0,0,1,,,,,,,,,,
,,,,,A,2024-07-05_14h36.50.988,Slot Machine Game,2023.1.3,Win32,60.24096386,,,,,,,,,,,,,,,,,,,,,,,,,,,200,,,,,,,,,,,,,,,,,,,,,2,5,,,347.4888,1,left,0.0816,,1,0.3,"[1,2,3]",0.324620645,stimuli/card_100_transparent.png,100,1,0,1,0,1,,,,,,,,,,
,,,,,A,2024-07-05_14h36.50.988,Slot Machine Game,2023.1.3,Win32,60.24096386,,,,,,,,,,,,,,,,,,,,,,,,,,,300,,,,,,,,,,,,,,,,,,,,,2,5,,,349.4052,2,left,0.3203,,0.5,0.3,"[1,2,3]",0.23590272,stimuli/card_100_transparent.png,100,2,0,2,0,1,,,,,,,,,,
,,,,,A,2024-07-05_14h36.50.988,Slot Machine Game,2023.1.3,Win32,60.24096386,,,,,,,,,,,,,,,,,,,,,,,,,,,400,,,,,,,,,,,,,,,,,,,,,2,5,,,351.0555,3,left,0.2514,,0.5,0.3,"[1,2,3]",0.885143349,stimuli/card_100_transparent.png,100,3,0,3,0,1,,,,,,,,,,
,,,,,A,2024-07-05_14h36.50.988,Slot Machine Game,2023.1.3,Win32,60.24096386,,,,,,,,,,,,,,,,,,,,,,,,,,,400,,,,,,,,,,,,,,,,,,,,,2,5,,,352.6382,4,left,0.2089,,1,0.3,"[1,2,3]",0.037270992,stimuli/card_0_transparent.png,0,4,0,4,0,1,,,,,,,,,,
,,,,,A,2024-07-05_14h36.50.988,Slot Machine Game,2023.1.3,Win32,60.24096386,,,,,,,,,,,,,,,,,,,,,,,,,,,500,,,,,,,,,,,,,,,,,,,,,2,5,,,354.6552,5,up,0.6656,,1.5,0.3,"[3,1,2]",0.917678867,stimuli/card_100_transparent.png,100,5,0,5,0,1,,,,,,,,,,
,,,,,A,2024-07-05_14h36.50.988,Slot Machine Game,2023.1.3,Win32,60.24096386,,,,,,,,,,,,,,,,,,,,,,,,,,,600,,,,,,,,,,,,,,,,,,,,,2,5,,,357.655,6,up,0.138,,1.5,0.3,"[3,1,2]",0.371487425,stimuli/card_100_transparent.png,100,6,0,6,0,1,,,,,,,,,,
,,,,,A,2024-07-05_14h36.50.988,Slot Machine Game,2023.1.3,Win32,60.24096386,,,,,,,,,,,,,,,,,,,,,,,,,,,700,,,,,,,,,,,,,,,,,,,,,2,5,,,360.122,7,up,0.0009,,0.5,0.3,"[3,1,2]",0.973140199,stimuli/card_100_transparent.png,100,7,0,7,0,1,,,,,,,,,,
,,,,,A,2024-07-05_14h36.50.988,Slot Machine Game,2023.1.3,Win32,60.24096386,,,,,,,,,,,,,,,,,,,,,,,,,,,800,,,,,,,,,,,,,,,,,,,,,2,5,,,361.4551,8,up,0.3951,,0.5,0.3,"[3,1,2]",0.942676092,stimuli/card_100_transparent.png,100,8,0,8,0,1,,,,,,,,,,
,,,,,A,2024-07-05_14h36.50.988,Slot Machine Game,2023.1.3,Win32,60.24096386,,,,,,,,,,,,,,,,,,,,,,,,,,,900,,,,,,,,,,,,,,,,,,,,,2,5,,,363.1722,9,up,0.2165,,1.5,0.3,"[3,1,2]",0.232726705,stimuli/card_100_transparent.png,100,9,0,9,0,1,,,,,,,,,,
,,,,,A,2024-07-05_14h36.50.988,Slot Machine Game,2023.1.3,Win32,60.24096386,,,,,,,,,,,,,,,,,,,,,,,,,,,1000,,,,,,,,,,,,,,,,,,,,,2,5,,,365.7218,10,up,0.3516,,1.5,0.3,"[3,1,2]",0.406258662,stimuli/card_100_transparent.png,100,10,0,10,0,1,,,,,,,,,,
,,,,,A,2024-07-05_14h36.50.988,Slot Machine Game,2023.1.3,Win32,60.24096386,,,,,,,,,,,,,,,,,,,,,,,,,,,1100,,,,,,,,,,,,,,,,,,,,,2,5,,,368.4051,11,up,0.1028,,0.5,0.3,"[3,1,2]",0.520614383,stimuli/card_100_transparent.png,100,11,0,11,0,1,,,,,,,,,,
,,,,,A,2024-07-05_14h36.50.988,Slot Machine Game,2023.1.3,Win32,60.24096386,,,,,,,,,,,,,,,,,,,,,,,,,,,1200,,,,,,,,,,,,,,,,,,,,,2,5,,,369.8376,12,up,0.0028,,0.5,0.3,"[3,1,2]",0.461999289,stimuli/card_100_transparent.png,100,12,0,12,0,1,,,,,,,,,,
,,,,,A,2024-07-05_14h36.50.988,Slot Machine Game,2023.1.3,Win32,60.24096386,,,,,,,,,,,,,,,,,,,,,,,,,,,1300,,,,,,,,,,,,,,,,,,,,,2,5,,,371.1552,13,up,0.1566,,1.5,0.3,"[3,1,2]",0.917452116,stimuli/card_100_transparent.png,100,13,0,13,0,1,,,,,,,,,,
,,,,,A,2024-07-05_14h36.50.988,Slot Machine Game,2023.1.3,Win32,60.24096386,,,,,,,,,,,,,,,,,,,,,,,,,,,1400,,,,,,,,,,,,,,,,,,,,,2,5,,,373.6382,14,up,0.0759,,1,0.3,"[3,1,2]",0.803851306,stimuli/card_100_transparent.png,100,14,0,14,0,1,,,,,,,,,,
,,,,,A,2024-07-05_14h36.50.988,Slot Machine Game,2023.1.3,Win32,60.24096386,,,,,,,,,,,,,,,,,,,,,,,,,,,,,,,,,,,375.5383,,,,,,,,,,,,,,,,,,,,,,,,,,,,,,,,,"[1030,1400]",1,0,1,0,1,,,,
,,,,,A,2024-07-05_14h36.50.988,Slot Machine Game,2023.1.3,Win32,60.24096386,,,,,,,,,,,,,,,,,,,,,,,,,,,0,,,,,,,,,,,,,,,,,,,,,3,7,"[9,15]","[[1,3,2],[2,3,1]]",380.5525,0,up,0.5319,,1,0.3,"[1,3,2]",0.57601021,stimuli/card_0_transparent.png,0,0,0,0,0,1,,,,,,,,,,
,,,,,A,2024-07-05_14h36.50.988,Slot Machine Game,2023.1.3,Win32,60.24096386,,,,,,,,,,,,,,,,,,,,,,,,,,,100,,,,,,,,,,,,,,,,,,,,,3,7,,,382.9046,1,left,0.218,,1,0.3,"[1,3,2]",0.270033037,stimuli/card_100_transparent.png,100,1,0,1,0,1,,,,,,,,,,
,,,,,A,2024-07-05_14h36.50.988,Slot Machine Game,2023.1.3,Win32,60.24096386,,,,,,,,,,,,,,,,,,,,,,,,,,,200,,,,,,,,,,,,,,,,,,,,,3,7,,,384.9378,2,left,0.8256,,1.5,0.3,"[1,3,2]",0.864697511,stimuli/card_100_transparent.png,100,2,0,2,0,1,,,,,,,,,,
,,,,,A,2024-07-05_14h36.50.988,Slot Machine Game,2023.1.3,Win32,60.24096386,,,,,,,,,,,,,,,,,,,,,,,,,,,300,,,,,,,,,,,,,,,,,,,,,3,7,,,388.0716,3,left,0.8364,,1,0.3,"[1,3,2]",0.858245562,stimuli/card_100_transparent.png,100,3,0,3,0,1,,,,,,,,,,
,,,,,A,2024-07-05_14h36.50.988,Slot Machine Game,2023.1.3,Win32,60.24096386,,,,,,,,,,,,,,,,,,,,,,,,,,,400,,,,,,,,,,,,,,,,,,,,,3,7,,,390.7375,4,left,1.4674,,1,0.3,"[1,3,2]",0.557078185,stimuli/card_100_transparent.png,100,4,0,4,0,1,,,,,,,,,,
,,,,,A,2024-07-05_14h36.50.988,Slot Machine Game,2023.1.3,Win32,60.24096386,,,,,,,,,,,,,,,,,,,,,,,,,,,500,,,,,,,,,,,,,,,,,,,,,3,7,,,394.0208,5,left,0.3868,,1,0.3,"[1,3,2]",0.925071599,stimuli/card_100_transparent.png,100,5,0,5,0,1,,,,,,,,,,
,,,,,A,2024-07-05_14h36.50.988,Slot Machine Game,2023.1.3,Win32,60.24096386,,,,,,,,,,,,,,,,,,,,,,,,,,,500,,,,,,,,,,,,,,,,,,,,,3,7,,,396.2378,6,left,0.7194,,1,0.3,"[1,3,2]",0.03041143,stimuli/card_0_transparent.png,0,6,0,6,0,1,,,,,,,,,,
,,,,,A,2024-07-05_14h36.50.988,Slot Machine Game,2023.1.3,Win32,60.24096386,,,,,,,,,,,,,,,,,,,,,,,,,,,500,,,,,,,,,,,,,,,,,,,,,3,7,,,398.788,7,up,0.2076,,0.5,0.3,"[1,3,2]",0.839545464,stimuli/card_0_transparent.png,0,7,0,7,0,1,,,,,,,,,,
,,,,,A,2024-07-05_14h36.50.988,Slot Machine Game,2023.1.3,Win32,60.24096386,,,,,,,,,,,,,,,,,,,,,,,,,,,510,,,,,,,,,,,,,,,,,,,,,3,7,,,400.3209,8,right,0.3197,,1,0.3,"[1,3,2]",0.341802248,stimuli/card_10_transparent.png,10,8,0,8,0,1,,,,,,,,,,
,,,,,A,2024-07-05_14h36.50.988,Slot Machine Game,2023.1.3,Win32,60.24096386,,,,,,,,,,,,,,,,,,,,,,,,,,,520,,,,,,,,,,,,,,,,,,,,,3,7,,,402.4537,9,left,0.5523,,1,0.3,"[2,3,1]",0.996165748,stimuli/card_10_transparent.png,10,9,0,9,0,1,,,,,,,,,,
,,,,,A,2024-07-05_14h36.50.988,Slot Machine Game,2023.1.3,Win32,60.24096386,,,,,,,,,,,,,,,,,,,,,,,,,,,520,,,,,,,,,,,,,,,,,,,,,3,7,,,404.821,10,up,0.3858,,0.5,0.3,"[2,3,1]",0.57584147,stimuli/card_0_transparent.png,0,10,0,10,0,1,,,,,,,,,,
,,,,,A,2024-07-05_14h36.50.988,Slot Machine Game,2023.1.3,Win32,60.24096386,,,,,,,,,,,,,,,,,,,,,,,,,,,620,,,,,,,,,,,,,,,,,,,,,3,7,,,406.5374,11,right,0.4701,,1.5,0.3,"[2,3,1]",0.436144972,stimuli/card_100_transparent.png,100,11,0,11,0,1,,,,,,,,,,
,,,,,A,2024-07-05_14h36.50.988,Slot Machine Game,2023.1.3,Win32,60.24096386,,,,,,,,,,,,,,,,,,,,,,,,,,,720,,,,,,,,,,,,,,,,,,,,,3,7,,,409.3208,12,right,0.492,,1.5,0.3,"[2,3,1]",0.795759121,stimuli/card_100_transparent.png,100,12,0,12,0,1,,,,,,,,,,
,,,,,A,2024-07-05_14h36.50.988,Slot Machine Game,2023.1.3,Win32,60.24096386,,,,,,,,,,,,,,,,,,,,,,,,,,,820,,,,,,,,,,,,,,,,,,,,,3,7,,,412.1211,13,right,1.7007,,1,0.3,"[2,3,1]",0.945065824,stimuli/card_100_transparent.png,100,13,0,13,0,1,,,,,,,,,,
,,,,,A,2024-07-05_14h36.50.988,Slot Machine Game,2023.1.3,Win32,60.24096386,,,,,,,,,,,,,,,,,,,,,,,,,,,820,,,,,,,,,,,,,,,,,,,,,3,7,,,415.6533,14,right,0.1206,,1,0.3,"[2,3,1]",0.054743823,stimuli/card_0_transparent.png,0,14,0,14,0,1,,,,,,,,,,
,,,,,A,2024-07-05_14h36.50.988,Slot Machine Game,2023.1.3,Win32,60.24096386,,,,,,,,,,,,,,,,,,,,,,,,,,,,,,,,,,,417.604,,,,,,,,,,,,,,,,,,,,,,,,,,,,,,,,,"[1030,1400,820]",2,0,2,0,1,,,,
,,,,,A,2024-07-05_14h36.50.988,Slot Machine Game,2023.1.3,Win32,60.24096386,,,,,,,,,,,,,,,,,,,,,,,,,,,10,,,,,,,,,,,,,,,,,,,,,4,4,"[7,15]","[[2,3,1],[1,2,3]]",422.632,0,left,0.1677,,0.5,0.3,"[2,3,1]",0.843705767,stimuli/card_10_transparent.png,10,0,0,0,0,1,,,,,,,,,,
,,,,,A,2024-07-05_14h36.50.988,Slot Machine Game,2023.1.3,Win32,60.24096386,,,,,,,,,,,,,,,,,,,,,,,,,,,10,,,,,,,,,,,,,,,,,,,,,4,4,,,424.1209,1,up,0.5847,,1,0.3,"[2,3,1]",0.772782611,stimuli/card_0_transparent.png,0,1,0,1,0,1,,,,,,,,,,
,,,,,A,2024-07-05_14h36.50.988,Slot Machine Game,2023.1.3,Win32,60.24096386,,,,,,,,,,,,,,,,,,,,,,,,,,,110,,,,,,,,,,,,,,,,,,,,,4,4,,,426.5371,2,right,0.0203,,1.5,0.3,"[2,3,1]",0.435969647,stimuli/card_100_transparent.png,100,2,0,2,0,1,,,,,,,,,,
,,,,,A,2024-07-05_14h36.50.988,Slot Machine Game,2023.1.3,Win32,60.24096386,,,,,,,,,,,,,,,,,,,,,,,,,,,210,,,,,,,,,,,,,,,,,,,,,4,4,,,428.8707,3,right,0.075,,1.5,0.3,"[2,3,1]",0.380958657,stimuli/card_100_transparent.png,100,3,0,3,0,1,,,,,,,,,,
,,,,,A,2024-07-05_14h36.50.988,Slot Machine Game,2023.1.3,Win32,60.24096386,,,,,,,,,,,,,,,,,,,,,,,,,,,310,,,,,,,,,,,,,,,,,,,,,4,4,,,431.2708,4,right,0.0034,,1.5,0.3,"[2,3,1]",0.592400337,stimuli/card_100_transparent.png,100,4,0,4,0,1,,,,,,,,,,
,,,,,A,2024-07-05_14h36.50.988,Slot Machine Game,2023.1.3,Win32,60.24096386,,,,,,,,,,,,,,,,,,,,,,,,,,,410,,,,,,,,,,,,,,,,,,,,,4,4,,,433.6039,5,right,0.0506,,1,0.3,"[2,3,1]",0.948179713,stimuli/card_100_transparent.png,100,5,0,5,0,1,,,,,,,,,,
,,,,,A,2024-07-05_14h36.50.988,Slot Machine Game,2023.1.3,Win32,60.24096386,,,,,,,,,,,,,,,,,,,,,,,,,,,510,,,,,,,,,,,,,,,,,,,,,4,4,,,435.4871,6,right,0.1579,,0.5,0.3,"[2,3,1]",0.979122639,stimuli/card_100_transparent.png,100,6,0,6,0,1,,,,,,,,,,
,,,,,A,2024-07-05_14h36.50.988,Slot Machine Game,2023.1.3,Win32,60.24096386,,,,,,,,,,,,,,,,,,,,,,,,,,,510,,,,,,,,,,,,,,,,,,,,,4,4,,,436.9705,7,right,0.3684,,1,0.3,"[1,2,3]",0.417235722,stimuli/card_0_transparent.png,0,7,0,7,0,1,,,,,,,,,,
,,,,,A,2024-07-05_14h36.50.988,Slot Machine Game,2023.1.3,Win32,60.24096386,,,,,,,,,,,,,,,,,,,,,,,,,,,610,,,,,,,,,,,,,,,,,,,,,4,4,,,439.1707,8,left,0.1524,,1,0.3,"[1,2,3]",0.641777473,stimuli/card_100_transparent.png,100,8,0,8,0,1,,,,,,,,,,
,,,,,A,2024-07-05_14h36.50.988,Slot Machine Game,2023.1.3,Win32,60.24096386,,,,,,,,,,,,,,,,,,,,,,,,,,,710,,,,,,,,,,,,,,,,,,,,,4,4,,,441.1539,9,left,0.4005,,1,0.3,"[1,2,3]",0.47282573,stimuli/card_100_transparent.png,100,9,0,9,0,1,,,,,,,,,,
,,,,,A,2024-07-05_14h36.50.988,Slot Machine Game,2023.1.3,Win32,60.24096386,,,,,,,,,,,,,,,,,,,,,,,,,,,810,,,,,,,,,,,,,,,,,,,,,4,4,,,443.3873,10,left,0.5701,,0.5,0.3,"[1,2,3]",0.405207064,stimuli/card_100_transparent.png,100,10,0,10,0,1,,,,,,,,,,
,,,,,A,2024-07-05_14h36.50.988,Slot Machine Game,2023.1.3,Win32,60.24096386,,,,,,,,,,,,,,,,,,,,,,,,,,,910,,,,,,,,,,,,,,,,,,,,,4,4,,,445.2869,11,left,0.3551,,1.5,0.3,"[1,2,3]",0.968289395,stimuli/card_100_transparent.png,100,11,0,11,0,1,,,,,,,,,,
,,,,,A,2024-07-05_14h36.50.988,Slot Machine Game,2023.1.3,Win32,60.24096386,,,,,,,,,,,,,,,,,,,,,,,,,,,1010,,,,,,,,,,,,,,,,,,,,,4,4,,,447.9704,12,left,0.1682,,1.5,0.3,"[1,2,3]",0.559460616,stimuli/card_100_transparent.png,100,12,0,12,0,1,,,,,,,,,,
,,,,,A,2024-07-05_14h36.50.988,Slot Machine Game,2023.1.3,Win32,60.24096386,,,,,,,,,,,,,,,,,,,,,,,,,,,1110,,,,,,,,,,,,,,,,,,,,,4,4,,,450.4704,13,left,0.3508,,1.5,0.3,"[1,2,3]",0.475900081,stimuli/card_100_transparent.png,100,13,0,13,0,1,,,,,,,,,,
,,,,,A,2024-07-05_14h36.50.988,Slot Machine Game,2023.1.3,Win32,60.24096386,,,,,,,,,,,,,,,,,,,,,,,,,,,1210,,,,,,,,,,,,,,,,,,,,,4,4,,,453.1537,14,left,0.1843,,0.5,0.3,"[1,2,3]",0.567719565,stimuli/card_100_transparent.png,100,14,0,14,0,1,,,,,,,,,,
,,,,,A,2024-07-05_14h36.50.988,Slot Machine Game,2023.1.3,Win32,60.24096386,,,,,,,,,,,,,,,,,,,,,,,,,,,,,,,,,,,454.6702,,,,,,,,,,,,,,,,,,,,,,,,,,,,,,,,,"[1030,1400,820,1210]",3,0,3,0,1,,,,
,,,,,A,2024-07-05_14h36.50.988,Slot Machine Game,2023.1.3,Win32,60.24096386,,,,,,,,,,,,,,,,,,,,,,,,,,,10,,,,,,,,,,,,,,,,,,,,,5,6,"[4,10,15]","[[2,3,1],[1,3,2],[3,2,1]]",459.691,0,left,0.4778,,0.5,0.3,"[2,3,1]",0.441617473,stimuli/card_10_transparent.png,10,0,0,0,0,1,,,,,,,,,,
,,,,,A,2024-07-05_14h36.50.988,Slot Machine Game,2023.1.3,Win32,60.24096386,,,,,,,,,,,,,,,,,,,,,,,,,,,110,,,,,,,,,,,,,,,,,,,,,5,6,,,461.4868,1,right,0.4085,,1.5,0.3,"[2,3,1]",0.680044552,stimuli/card_100_transparent.png,100,1,0,1,0,1,,,,,,,,,,
,,,,,A,2024-07-05_14h36.50.988,Slot Machine Game,2023.1.3,Win32,60.24096386,,,,,,,,,,,,,,,,,,,,,,,,,,,210,,,,,,,,,,,,,,,,,,,,,5,6,,,464.2196,2,right,0.7342,,1.5,0.3,"[2,3,1]",0.223926111,stimuli/card_100_transparent.png,100,2,0,2,0,1,,,,,,,,,,
,,,,,A,2024-07-05_14h36.50.988,Slot Machine Game,2023.1.3,Win32,60.24096386,,,,,,,,,,,,,,,,,,,,,,,,,,,,,,,,,,,,,,,,,,,,,,,,5,6,,,467.27,3,,,,0.5,0.3,,,,,3,0,3,0,1,,,,,,,,,,
,,,,,A,2024-07-05_14h36.50.988,Slot Machine Game,2023.1.3,Win32,60.24096386,,,,,,,,,,,,,,,,,,,,,,,,,,,220,,,,,,,,,,,,,,,,,,,,,5,6,,,475.3606,4,right,1.0375,,1,0.3,"[1,3,2]",0.973954366,stimuli/card_10_transparent.png,10,4,0,4,0,1,,,,,,,,,,
,,,,,A,2024-07-05_14h36.50.988,Slot Machine Game,2023.1.3,Win32,60.24096386,,,,,,,,,,,,,,,,,,,,,,,,,,,320,,,,,,,,,,,,,,,,,,,,,5,6,,,477.6933,5,left,1.0165,,1,0.3,"[1,3,2]",0.38757694,stimuli/card_100_transparent.png,100,5,0,5,0,1,,,,,,,,,,
,,,,,A,2024-07-05_14h36.50.988,Slot Machine Game,2023.1.3,Win32,60.24096386,,,,,,,,,,,,,,,,,,,,,,,,,,,420,,,,,,,,,,,,,,,,,,,,,5,6,,,480.5388,6,left,0.3708,,1.5,0.3,"[1,3,2]",0.850184363,stimuli/card_100_transparent.png,100,6,0,6,0,1,,,,,,,,,,
,,,,,A,2024-07-05_14h36.50.988,Slot Machine Game,2023.1.3,Win32,60.24096386,,,,,,,,,,,,,,,,,,,,,,,,,,,520,,,,,,,,,,,,,,,,,,,,,5,6,,,483.2386,7,left,0.1941,,0.5,0.3,"[1,3,2]",0.853545625,stimuli/card_100_transparent.png,100,7,0,7,0,1,,,,,,,,,,
,,,,,A,2024-07-05_14h36.50.988,Slot Machine Game,2023.1.3,Win32,60.24096386,,,,,,,,,,,,,,,,,,,,,,,,,,,620,,,,,,,,,,,,,,,,,,,,,5,6,,,484.7551,8,left,1.15,,1.5,0.3,"[1,3,2]",0.21509708,stimuli/card_100_transparent.png,100,8,0,8,0,1,,,,,,,,,,
,,,,,A,2024-07-05_14h36.50.988,Slot Machine Game,2023.1.3,Win32,60.24096386,,,,,,,,,,,,,,,,,,,,,,,,,,,620,,,,,,,,,,,,,,,,,,,,,5,6,,,488.2384,9,left,0.0726,,1.5,0.3,"[1,3,2]",0.031454303,stimuli/card_0_transparent.png,0,9,0,9,0,1,,,,,,,,,,
,,,,,A,2024-07-05_14h36.50.988,Slot Machine Game,2023.1.3,Win32,60.24096386,,,,,,,,,,,,,,,,,,,,,,,,,,,630,,,,,,,,,,,,,,,,,,,,,5,6,,,490.6383,10,up,0.2465,,1.5,0.3,"[3,2,1]",0.340029787,stimuli/card_10_transparent.png,10,10,0,10,0,1,,,,,,,,,,
,,,,,A,2024-07-05_14h36.50.988,Slot Machine Game,2023.1.3,Win32,60.24096386,,,,,,,,,,,,,,,,,,,,,,,,,,,730,,,,,,,,,,,,,,,,,,,,,5,6,,,493.205,11,right,0.2006,,1.5,0.3,"[3,2,1]",0.606969998,stimuli/card_100_transparent.png,100,11,0,11,0,1,,,,,,,,,,
,,,,,A,2024-07-05_14h36.50.988,Slot Machine Game,2023.1.3,Win32,60.24096386,,,,,,,,,,,,,,,,,,,,,,,,,,,740,,,,,,,,,,,,,,,,,,,,,5,6,,,495.7384,12,right,0.2126,,0.5,0.3,"[3,2,1]",0.162780346,stimuli/card_10_transparent.png,10,12,0,12,0,1,,,,,,,,,,
,,,,,A,2024-07-05_14h36.50.988,Slot Machine Game,2023.1.3,Win32,60.24096386,,,,,,,,,,,,,,,,,,,,,,,,,,,740,,,,,,,,,,,,,,,,,,,,,5,6,,,497.2717,13,left,0.2676,,1,0.3,"[3,2,1]",0.97307078,stimuli/card_0_transparent.png,0,13,0,13,0,1,,,,,,,,,,
,,,,,A,2024-07-05_14h36.50.988,Slot Machine Game,2023.1.3,Win32,60.24096386,,,,,,,,,,,,,,,,,,,,,,,,,,,840,,,,,,,,,,,,,,,,,,,,,5,6,,,499.3715,14,right,0.0397,,1.5,0.3,"[3,2,1]",0.799812764,stimuli/card_100_transparent.png,100,14,0,14,0,1,,,,,,,,,,
,,,,,A,2024-07-05_14h36.50.988,Slot Machine Game,2023.1.3,Win32,60.24096386,,,,,,,,,,,,,,,,,,,,,,,,,,,,,,,,,,,501.7383,,,,,,,,,,,,,,,,,,,,,,,,,,,,,,,,,"[1030,1400,820,1210,840]",4,0,4,0,1,,,,
,,,,,A,2024-07-05_14h36.50.988,Slot Machine Game,2023.1.3,Win32,60.24096386,,,,,,,,,,,,,,,,,,,,,,,,,,,100,,,,,,,,,,,,,,,,,,,,,6,8,"[11,15]","[[2,1,3],[1,2,3]]",506.768,0,left,0.956,,1.5,0.3,"[2,1,3]",0.134987474,stimuli/card_100_transparent.png,100,0,0,0,0,1,,,,,,,,,,
,,,,,A,2024-07-05_14h36.50.988,Slot Machine Game,2023.1.3,Win32,60.24096386,,,,,,,,,,,,,,,,,,,,,,,,,,,110,,,,,,,,,,,,,,,,,,,,,6,8,,,510.038,1,left,0.216,,1,0.3,"[2,1,3]",0.925956327,stimuli/card_10_transparent.png,10,1,0,1,0,1,,,,,,,,,,
,,,,,A,2024-07-05_14h36.50.988,Slot Machine Game,2023.1.3,Win32,60.24096386,,,,,,,,,,,,,,,,,,,,,,,,,,,210,,,,,,,,,,,,,,,,,,,,,6,8,,,512.088,2,up,0.4855,,1.5,0.3,"[2,1,3]",0.261995601,stimuli/card_100_transparent.png,100,2,0,2,0,1,,,,,,,,,,
,,,,,A,2024-07-05_14h36.50.988,Slot Machine Game,2023.1.3,Win32,60.24096386,,,,,,,,,,,,,,,,,,,,,,,,,,,220,,,,,,,,,,,,,,,,,,,,,6,8,,,514.9045,3,up,0.142,,0.5,0.3,"[2,1,3]",0.136199154,stimuli/card_10_transparent.png,10,3,0,3,0,1,,,,,,,,,,
,,,,,A,2024-07-05_14h36.50.988,Slot Machine Game,2023.1.3,Win32,60.24096386,,,,,,,,,,,,,,,,,,,,,,,,,,,230,,,,,,,,,,,,,,,,,,,,,6,8,,,516.3714,4,left,0.8167,,1,0.3,"[2,1,3]",0.649766456,stimuli/card_10_transparent.png,10,4,0,4,0,1,,,,,,,,,,
,,,,,A,2024-07-05_14h36.50.988,Slot Machine Game,2023.1.3,Win32,60.24096386,,,,,,,,,,,,,,,,,,,,,,,,,,,330,,,,,,,,,,,,,,,,,,,,,6,8,,,519.0211,5,up,0.2117,,0.5,0.3,"[2,1,3]",0.497476532,stimuli/card_100_transparent.png,100,5,0,5,0,1,,,,,,,,,,
,,,,,A,2024-07-05_14h36.50.988,Slot Machine Game,2023.1.3,Win32,60.24096386,,,,,,,,,,,,,,,,,,,,,,,,,,,430,,,,,,,,,,,,,,,,,,,,,6,8,,,520.5542,6,up,0.5312,,0.5,0.3,"[2,1,3]",0.524726005,stimuli/card_100_transparent.png,100,6,0,6,0,1,,,,,,,,,,
,,,,,A,2024-07-05_14h36.50.988,Slot Machine Game,2023.1.3,Win32,60.24096386,,,,,,,,,,,,,,,,,,,,,,,,,,,530,,,,,,,,,,,,,,,,,,,,,6,8,,,522.4037,7,up,0.5893,,1,0.3,"[2,1,3]",0.708279575,stimuli/card_100_transparent.png,100,7,0,7,0,1,,,,,,,,,,
,,,,,A,2024-07-05_14h36.50.988,Slot Machine Game,2023.1.3,Win32,60.24096386,,,,,,,,,,,,,,,,,,,,,,,,,,,630,,,,,,,,,,,,,,,,,,,,,6,8,,,549.6989,8,up,0.6393,,0.5,0.3,"[2,1,3]",0.834899349,stimuli/card_100_transparent.png,100,8,0,8,0,1,,,,,,,,,,
,,,,,A,2024-07-05_14h36.50.988,Slot Machine Game,2023.1.3,Win32,60.24096386,,,,,,,,,,,,,,,,,,,,,,,,,,,730,,,,,,,,,,,,,,,,,,,,,6,8,,,551.6824,9,up,0.564,,1,0.3,"[2,1,3]",0.316896099,stimuli/card_100_transparent.png,100,9,0,9,0,1,,,,,,,,,,
,,,,,A,2024-07-05_14h36.50.988,Slot Machine Game,2023.1.3,Win32,60.24096386,,,,,,,,,,,,,,,,,,,,,,,,,,,740,,,,,,,,,,,,,,,,,,,,,6,8,,,554.0773,10,up,1.6742,,1.5,0.3,"[2,1,3]",0.169478954,stimuli/card_10_transparent.png,10,10,0,10,0,1,,,,,,,,,,
,,,,,A,2024-07-05_14h36.50.988,Slot Machine Game,2023.1.3,Win32,60.24096386,,,,,,,,,,,,,,,,,,,,,,,,,,,740,,,,,,,,,,,,,,,,,,,,,6,8,,,558.0774,11,right,0.1979,,1,0.3,"[1,2,3]",0.500916932,stimuli/card_0_transparent.png,0,11,0,11,0,1,,,,,,,,,,
,,,,,A,2024-07-05_14h36.50.988,Slot Machine Game,2023.1.3,Win32,60.24096386,,,,,,,,,,,,,,,,,,,,,,,,,,,840,,,,,,,,,,,,,,,,,,,,,6,8,,,560.0943,12,left,0.6525,,1.5,0.3,"[1,2,3]",0.506284092,stimuli/card_100_transparent.png,100,12,0,12,0,1,,,,,,,,,,
,,,,,A,2024-07-05_14h36.50.988,Slot Machine Game,2023.1.3,Win32,60.24096386,,,,,,,,,,,,,,,,,,,,,,,,,,,840,,,,,,,,,,,,,,,,,,,,,6,8,,,563.0775,13,left,1.752,,0.5,0.3,"[1,2,3]",0.016322446,stimuli/card_0_transparent.png,0,13,0,13,0,1,,,,,,,,,,
,,,,,A,2024-07-05_14h36.50.988,Slot Machine Game,2023.1.3,Win32,60.24096386,,,,,,,,,,,,,,,,,,,,,,,,,,,850,,,,,,,,,,,,,,,,,,,,,6,8,,,566.1773,14,up,0.1694,,1.5,0.3,"[1,2,3]",0.771724845,stimuli/card_10_transparent.png,10,14,0,14,0,1,,,,,,,,,,
,,,,,A,2024-07-05_14h36.50.988,Slot Machine Game,2023.1.3,Win32,60.24096386,,,,,,,,,,,,,,,,,,,,,,,,,,,,,,,,,,,568.6773,,,,,,,,,,,,,,,,,,,,,,,,,,,,,,,,,"[1030,1400,820,1210,840,850]",5,0,5,0,1,,,,
,,,,,A,2024-07-05_14h36.50.988,Slot Machine Game,2023.1.3,Win32,60.24096386,,,,,,,,,,,,,,,,,,,,,,,,,,,0,,,,,,,,,,,,,,,,,,,,,7,9,"[8,15]","[[3,2,1],[3,1,2]]",573.7005,0,left,0.7916,,1.5,0.3,"[3,2,1]",0.814483259,stimuli/card_0_transparent.png,0,0,0,0,0,1,,,,,,,,,,
,,,,,A,2024-07-05_14h36.50.988,Slot Machine Game,2023.1.3,Win32,60.24096386,,,,,,,,,,,,,,,,,,,,,,,,,,,100,,,,,,,,,,,,,,,,,,,,,7,9,,,576.8101,1,up,0.4689,,1,0.3,"[3,2,1]",0.159776743,stimuli/card_100_transparent.png,100,1,0,1,0,1,,,,,,,,,,
,,,,,A,2024-07-05_14h36.50.988,Slot Machine Game,2023.1.3,Win32,60.24096386,,,,,,,,,,,,,,,,,,,,,,,,,,,110,,,,,,,,,,,,,,,,,,,,,7,9,,,579.1105,2,up,0.2974,,0.5,0.3,"[3,2,1]",0.430604029,stimuli/card_10_transparent.png,10,2,0,2,0,1,,,,,,,,,,
,,,,,A,2024-07-05_14h36.50.988,Slot Machine Game,2023.1.3,Win32,60.24096386,,,,,,,,,,,,,,,,,,,,,,,,,,,120,,,,,,,,,,,,,,,,,,,,,7,9,,,580.7438,3,up,0.7666,,0.5,0.3,"[3,2,1]",0.316157035,stimuli/card_10_transparent.png,10,3,0,3,0,1,,,,,,,,,,
,,,,,A,2024-07-05_14h36.50.988,Slot Machine Game,2023.1.3,Win32,60.24096386,,,,,,,,,,,,,,,,,,,,,,,,,,,220,,,,,,,,,,,,,,,,,,,,,7,9,,,582.8435,4,right,0.2002,,0.5,0.3,"[3,2,1]",0.399847986,stimuli/card_100_transparent.png,100,4,0,4,0,1,,,,,,,,,,
,,,,,A,2024-07-05_14h36.50.988,Slot Machine Game,2023.1.3,Win32,60.24096386,,,,,,,,,,,,,,,,,,,,,,,,,,,320,,,,,,,,,,,,,,,,,,,,,7,9,,,584.3762,5,right,0.1866,,1.5,0.3,"[3,2,1]",0.876330876,stimuli/card_100_transparent.png,100,5,0,5,0,1,,,,,,,,,,
,,,,,A,2024-07-05_14h36.50.988,Slot Machine Game,2023.1.3,Win32,60.24096386,,,,,,,,,,,,,,,,,,,,,,,,,,,420,,,,,,,,,,,,,,,,,,,,,7,9,,,586.877,6,right,0.0604,,1,0.3,"[3,2,1]",0.343262177,stimuli/card_100_transparent.png,100,6,0,6,0,1,,,,,,,,,,
,,,,,A,2024-07-05_14h36.50.988,Slot Machine Game,2023.1.3,Win32,60.24096386,,,,,,,,,,,,,,,,,,,,,,,,,,,520,,,,,,,,,,,,,,,,,,,,,7,9,,,588.7605,7,right,0.2533,,1.5,0.3,"[3,2,1]",0.659462116,stimuli/card_100_transparent.png,100,7,0,7,0,1,,,,,,,,,,
,,,,,A,2024-07-05_14h36.50.988,Slot Machine Game,2023.1.3,Win32,60.24096386,,,,,,,,,,,,,,,,,,,,,,,,,,,530,,,,,,,,,,,,,,,,,,,,,7,9,,,591.3434,8,right,0.2404,,1,0.3,"[3,1,2]",0.434679465,stimuli/card_10_transparent.png,10,8,0,8,0,1,,,,,,,,,,
,,,,,A,2024-07-05_14h36.50.988,Slot Machine Game,2023.1.3,Win32,60.24096386,,,,,,,,,,,,,,,,,,,,,,,,,,,530,,,,,,,,,,,,,,,,,,,,,7,9,,,593.4102,9,left,0.2494,,1.5,0.3,"[3,1,2]",0.968036705,stimuli/card_0_transparent.png,0,9,0,9,0,1,,,,,,,,,,
,,,,,A,2024-07-05_14h36.50.988,Slot Machine Game,2023.1.3,Win32,60.24096386,,,,,,,,,,,,,,,,,,,,,,,,,,,630,,,,,,,,,,,,,,,,,,,,,7,9,,,595.9933,10,up,0.0889,,0.5,0.3,"[3,1,2]",0.744761286,stimuli/card_100_transparent.png,100,10,0,10,0,1,,,,,,,,,,
,,,,,A,2024-07-05_14h36.50.988,Slot Machine Game,2023.1.3,Win32,60.24096386,,,,,,,,,,,,,,,,,,,,,,,,,,,730,,,,,,,,,,,,,,,,,,,,,7,9,,,597.427,11,up,1.1495,,1.5,0.3,"[3,1,2]",0.338409554,stimuli/card_100_transparent.png,100,11,0,11,0,1,,,,,,,,,,
,,,,,A,2024-07-05_14h36.50.988,Slot Machine Game,2023.1.3,Win32,60.24096386,,,,,,,,,,,,,,,,,,,,,,,,,,,830,,,,,,,,,,,,,,,,,,,,,7,9,,,600.8982,12,up,0.7857,,0.5,0.3,"[3,1,2]",0.483154081,stimuli/card_100_transparent.png,100,12,0,12,0,1,,,,,,,,,,
,,,,,A,2024-07-05_14h36.50.988,Slot Machine Game,2023.1.3,Win32,60.24096386,,,,,,,,,,,,,,,,,,,,,,,,,,,930,,,,,,,,,,,,,,,,,,,,,7,9,,,603.0101,13,up,0.8855,,1,0.3,"[3,1,2]",0.913469783,stimuli/card_100_transparent.png,100,13,0,13,0,1,,,,,,,,,,
,,,,,A,2024-07-05_14h36.50.988,Slot Machine Game,2023.1.3,Win32,60.24096386,,,,,,,,,,,,,,,,,,,,,,,,,,,1030,,,,,,,,,,,,,,,,,,,,,7,9,,,605.7313,14,up,0.5525,,1.5,0.3,"[3,1,2]",0.707349368,stimuli/card_100_transparent.png,100,14,0,14,0,1,,,,,,,,,,
,,,,,A,2024-07-05_14h36.50.988,Slot Machine Game,2023.1.3,Win32,60.24096386,,,,,,,,,,,,,,,,,,,,,,,,,,,,,,,,,,,608.627,,,,,,,,,,,,,,,,,,,,,,,,,,,,,,,,,"[1030,1400,820,1210,840,850,1030]",6,0,6,0,1,,,,
,,,,,A,2024-07-05_14h36.50.988,Slot Machine Game,2023.1.3,Win32,60.24096386,,,,,,,,,,,,,,,,,,,,,,,,,,,100,,,,,,,,,,,,,,,,,,,,,8,2,"[6,15]","[[1,3,2],[3,2,1]]",613.6434,0,left,0.8342,,1,0.3,"[1,3,2]",0.636402066,stimuli/card_100_transparent.png,100,0,0,0,0,1,,,,,,,,,,
,,,,,A,2024-07-05_14h36.50.988,Slot Machine Game,2023.1.3,Win32,60.24096386,,,,,,,,,,,,,,,,,,,,,,,,,,,200,,,,,,,,,,,,,,,,,,,,,8,2,,,616.3099,1,left,1.2187,,0.5,0.3,"[1,3,2]",0.27371939,stimuli/card_100_transparent.png,100,1,0,1,0,1,,,,,,,,,,
,,,,,A,2024-07-05_14h36.50.988,Slot Machine Game,2023.1.3,Win32,60.24096386,,,,,,,,,,,,,,,,,,,,,,,,,,,300,,,,,,,,,,,,,,,,,,,,,8,2,,,618.86,2,left,0.9677,,1,0.3,"[1,3,2]",0.689985119,stimuli/card_100_transparent.png,100,2,0,2,0,1,,,,,,,,,,
,,,,,A,2024-07-05_14h36.50.988,Slot Machine Game,2023.1.3,Win32,60.24096386,,,,,,,,,,,,,,,,,,,,,,,,,,,400,,,,,,,,,,,,,,,,,,,,,8,2,,,621.6592,3,left,0.617,,0.5,0.3,"[1,3,2]",0.325714666,stimuli/card_100_transparent.png,100,3,0,3,0,1,,,,,,,,,,
,,,,,A,2024-07-05_14h36.50.988,Slot Machine Game,2023.1.3,Win32,60.24096386,,,,,,,,,,,,,,,,,,,,,,,,,,,500,,,,,,,,,,,,,,,,,,,,,8,2,,,623.5931,4,left,0.6395,,1,0.3,"[1,3,2]",0.504898492,stimuli/card_100_transparent.png,100,4,0,4,0,1,,,,,,,,,,
,,,,,A,2024-07-05_14h36.50.988,Slot Machine Game,2023.1.3,Win32,60.24096386,,,,,,,,,,,,,,,,,,,,,,,,,,,600,,,,,,,,,,,,,,,,,,,,,8,2,,,626.0598,5,left,0.2442,,1,0.3,"[1,3,2]",0.509931373,stimuli/card_100_transparent.png,100,5,0,5,0,1,,,,,,,,,,
,,,,,A,2024-07-05_14h36.50.988,Slot Machine Game,2023.1.3,Win32,60.24096386,,,,,,,,,,,,,,,,,,,,,,,,,,,600,,,,,,,,,,,,,,,,,,,,,8,2,,,628.1308,6,left,0.2718,,1,0.3,"[3,2,1]",0.959267716,stimuli/card_0_transparent.png,0,6,0,6,0,1,,,,,,,,,,
,,,,,A,2024-07-05_14h36.50.988,Slot Machine Game,2023.1.3,Win32,60.24096386,,,,,,,,,,,,,,,,,,,,,,,,,,,600,,,,,,,,,,,,,,,,,,,,,8,2,,,630.2261,7,up,0.2157,,1.5,0.3,"[3,2,1]",0.005992306,stimuli/card_0_transparent.png,0,7,0,7,0,1,,,,,,,,,,
,,,,,A,2024-07-05_14h36.50.988,Slot Machine Game,2023.1.3,Win32,60.24096386,,,,,,,,,,,,,,,,,,,,,,,,,,,700,,,,,,,,,,,,,,,,,,,,,8,2,,,632.7594,8,right,0.4391,,1,0.3,"[3,2,1]",0.85447451,stimuli/card_100_transparent.png,100,8,0,8,0,1,,,,,,,,,,
,,,,,A,2024-07-05_14h36.50.988,Slot Machine Game,2023.1.3,Win32,60.24096386,,,,,,,,,,,,,,,,,,,,,,,,,,,700,,,,,,,,,,,,,,,,,,,,,8,2,,,635.0259,9,right,0.1217,,1.5,0.3,"[3,2,1]",0.020500802,stimuli/card_0_transparent.png,0,9,0,9,0,1,,,,,,,,,,
,,,,,A,2024-07-05_14h36.50.988,Slot Machine Game,2023.1.3,Win32,60.24096386,,,,,,,,,,,,,,,,,,,,,,,,,,,700,,,,,,,,,,,,,,,,,,,,,8,2,,,637.4763,10,left,0.2725,,0.5,0.3,"[3,2,1]",0.347577626,stimuli/card_0_transparent.png,0,10,0,10,0,1,,,,,,,,,,
,,,,,A,2024-07-05_14h36.50.988,Slot Machine Game,2023.1.3,Win32,60.24096386,,,,,,,,,,,,,,,,,,,,,,,,,,,710,,,,,,,,,,,,,,,,,,,,,8,2,,,639.0754,11,right,0.7551,,1.5,0.3,"[3,2,1]",0.196093999,stimuli/card_10_transparent.png,10,11,0,11,0,1,,,,,,,,,,
,,,,,A,2024-07-05_14h36.50.988,Slot Machine Game,2023.1.3,Win32,60.24096386,,,,,,,,,,,,,,,,,,,,,,,,,,,710,,,,,,,,,,,,,,,,,,,,,8,2,,,642.143,12,left,0.3322,,0.5,0.3,"[3,2,1]",0.993285752,stimuli/card_0_transparent.png,0,12,0,12,0,1,,,,,,,,,,
,,,,,A,2024-07-05_14h36.50.988,Slot Machine Game,2023.1.3,Win32,60.24096386,,,,,,,,,,,,,,,,,,,,,,,,,,,720,,,,,,,,,,,,,,,,,,,,,8,2,,,643.8094,13,up,0.1334,,0.5,0.3,"[3,2,1]",0.703517487,stimuli/card_10_transparent.png,10,13,0,13,0,1,,,,,,,,,,
,,,,,A,2024-07-05_14h36.50.988,Slot Machine Game,2023.1.3,Win32,60.24096386,,,,,,,,,,,,,,,,,,,,,,,,,,,820,,,,,,,,,,,,,,,,,,,,,8,2,,,645.2761,14,right,0.0669,,1.5,0.3,"[3,2,1]",0.428246902,stimuli/card_100_transparent.png,100,14,0,14,0,1,,,,,,,,,,
,,,,,A,2024-07-05_14h36.50.988,Slot Machine Game,2023.1.3,Win32,60.24096386,,,,,,,,,,,,,,,,,,,,,,,,,,,,,,,,,,,647.6759,,,,,,,,,,,,,,,,,,,,,,,,,,,,,,,,,"[1030,1400,820,1210,840,850,1030,820]",7,0,7,0,1,,,,
,,,,,A,2024-07-05_14h36.50.988,Slot Machine Game,2023.1.3,Win32,60.24096386,,,,,,,,,,,,,,,,,,,,,,,,,,,10,,,,,,,,,,,,,,,,,,,,,9,10,"[10,15]","[[3,1,2],[1,3,2]]",652.6991,0,right,0.641,,1.5,0.3,"[3,1,2]",0.839559002,stimuli/card_10_transparent.png,10,0,0,0,0,1,,,,,,,,,,
,,,,,A,2024-07-05_14h36.50.988,Slot Machine Game,2023.1.3,Win32,60.24096386,,,,,,,,,,,,,,,,,,,,,,,,,,,110,,,,,,,,,,,,,,,,,,,,,9,10,,,655.6585,1,up,0.1341,,1,0.3,"[3,1,2]",0.727811672,stimuli/card_100_transparent.png,100,1,0,1,0,1,,,,,,,,,,
,,,,,A,2024-07-05_14h36.50.988,Slot Machine Game,2023.1.3,Win32,60.24096386,,,,,,,,,,,,,,,,,,,,,,,,,,,210,,,,,,,,,,,,,,,,,,,,,9,10,,,657.6256,2,up,0.4763,,1,0.3,"[3,1,2]",0.634479219,stimuli/card_100_transparent.png,100,2,0,2,0,1,,,,,,,,,,
,,,,,A,2024-07-05_14h36.50.988,Slot Machine Game,2023.1.3,Win32,60.24096386,,,,,,,,,,,,,,,,,,,,,,,,,,,310,,,,,,,,,,,,,,,,,,,,,9,10,,,659.9258,3,up,0.2877,,1.5,0.3,"[3,1,2]",0.466716423,stimuli/card_100_transparent.png,100,3,0,3,0,1,,,,,,,,,,
,,,,,A,2024-07-05_14h36.50.988,Slot Machine Game,2023.1.3,Win32,60.24096386,,,,,,,,,,,,,,,,,,,,,,,,,,,410,,,,,,,,,,,,,,,,,,,,,9,10,,,662.5423,4,up,0.2502,,0.5,0.3,"[3,1,2]",0.705767854,stimuli/card_100_transparent.png,100,4,0,4,0,1,,,,,,,,,,
,,,,,A,2024-07-05_14h36.50.988,Slot Machine Game,2023.1.3,Win32,60.24096386,,,,,,,,,,,,,,,,,,,,,,,,,,,510,,,,,,,,,,,,,,,,,,,,,9,10,,,664.1259,5,up,0.4983,,0.5,0.3,"[3,1,2]",0.668324954,stimuli/card_100_transparent.png,100,5,0,5,0,1,,,,,,,,,,
,,,,,A,2024-07-05_14h36.50.988,Slot Machine Game,2023.1.3,Win32,60.24096386,,,,,,,,,,,,,,,,,,,,,,,,,,,610,,,,,,,,,,,,,,,,,,,,,9,10,,,665.959,6,up,0.0006,,0.5,0.3,"[3,1,2]",0.587925133,stimuli/card_100_transparent.png,100,6,0,6,0,1,,,,,,,,,,
,,,,,A,2024-07-05_14h36.50.988,Slot Machine Game,2023.1.3,Win32,60.24096386,,,,,,,,,,,,,,,,,,,,,,,,,,,610,,,,,,,,,,,,,,,,,,,,,9,10,,,667.2923,7,up,0.0535,,0.5,0.3,"[3,1,2]",0.025530294,stimuli/card_0_transparent.png,0,7,0,7,0,1,,,,,,,,,,
,,,,,A,2024-07-05_14h36.50.988,Slot Machine Game,2023.1.3,Win32,60.24096386,,,,,,,,,,,,,,,,,,,,,,,,,,,610,,,,,,,,,,,,,,,,,,,,,9,10,,,668.6749,8,left,0.1759,,1,0.3,"[3,1,2]",0.307320261,stimuli/card_0_transparent.png,0,8,0,8,0,1,,,,,,,,,,
,,,,,A,2024-07-05_14h36.50.988,Slot Machine Game,2023.1.3,Win32,60.24096386,,,,,,,,,,,,,,,,,,,,,,,,,,,710,,,,,,,,,,,,,,,,,,,,,9,10,,,670.6592,9,up,0.1398,,0.5,0.3,"[3,1,2]",0.574129938,stimuli/card_100_transparent.png,100,9,0,9,0,1,,,,,,,,,,
,,,,,A,2024-07-05_14h36.50.988,Slot Machine Game,2023.1.3,Win32,60.24096386,,,,,,,,,,,,,,,,,,,,,,,,,,,710,,,,,,,,,,,,,,,,,,,,,9,10,,,672.1089,10,up,0.3839,,0.5,0.3,"[1,3,2]",0.238266061,stimuli/card_0_transparent.png,0,10,0,10,0,1,,,,,,,,,,
,,,,,A,2024-07-05_14h36.50.988,Slot Machine Game,2023.1.3,Win32,60.24096386,,,,,,,,,,,,,,,,,,,,,,,,,,,720,,,,,,,,,,,,,,,,,,,,,9,10,,,673.8257,11,left,0.138,,1,0.3,"[1,3,2]",0.157622584,stimuli/card_10_transparent.png,10,11,0,11,0,1,,,,,,,,,,
,,,,,A,2024-07-05_14h36.50.988,Slot Machine Game,2023.1.3,Win32,60.24096386,,,,,,,,,,,,,,,,,,,,,,,,,,,730,,,,,,,,,,,,,,,,,,,,,9,10,,,675.7924,12,right,0.0677,,0.5,0.3,"[1,3,2]",0.34919828,stimuli/card_10_transparent.png,10,12,0,12,0,1,,,,,,,,,,
,,,,,A,2024-07-05_14h36.50.988,Slot Machine Game,2023.1.3,Win32,60.24096386,,,,,,,,,,,,,,,,,,,,,,,,,,,730,,,,,,,,,,,,,,,,,,,,,9,10,,,677.1924,13,up,0.2587,,0.5,0.3,"[1,3,2]",0.592217061,stimuli/card_0_transparent.png,0,13,0,13,0,1,,,,,,,,,,
,,,,,A,2024-07-05_14h36.50.988,Slot Machine Game,2023.1.3,Win32,60.24096386,,,,,,,,,,,,,,,,,,,,,,,,,,,740,,,,,,,,,,,,,,,,,,,,,9,10,,,678.776,14,right,0.2023,,1,0.3,"[1,3,2]",0.662068763,stimuli/card_10_transparent.png,10,14,0,14,0,1,,,,,,,,,,
,,,,,A,2024-07-05_14h36.50.988,Slot Machine Game,2023.1.3,Win32,60.24096386,,,,,,,,,,,,,,,,,,,,,,,,,,,,,,,,,,,680.8253,,,,,,,,,,,,,,,,,,,,,,,,,,,,,,,,,"[1030,1400,820,1210,840,850,1030,820,740]",8,0,8,0,1,,,,
,,,,,A,2024-07-05_14h36.50.988,Slot Machine Game,2023.1.3,Win32,60.24096386,,,,,,,,,,,,,,,,,,,,,,,,,,,100,,,,,,,,,,,,,,,,,,,,,10,3,"[15,15]","[[3,1,2],[3,1,2]]",685.8433,0,up,0.227,,1.5,0.3,"[3,1,2]",0.951535418,stimuli/card_100_transparent.png,100,0,0,0,0,1,,,,,,,,,,
,,,,,A,2024-07-05_14h36.50.988,Slot Machine Game,2023.1.3,Win32,60.24096386,,,,,,,,,,,,,,,,,,,,,,,,,,,110,,,,,,,,,,,,,,,,,,,,,10,3,,,688.4091,1,up,0.4676,,0.5,0.3,"[3,1,2]",0.189319075,stimuli/card_10_transparent.png,10,1,0,1,0,1,,,,,,,,,,
,,,,,A,2024-07-05_14h36.50.988,Slot Machine Game,2023.1.3,Win32,60.24096386,,,,,,,,,,,,,,,,,,,,,,,,,,,120,,,,,,,,,,,,,,,,,,,,,10,3,,,690.2086,2,right,0.2362,,0.5,0.3,"[3,1,2]",0.623780087,stimuli/card_10_transparent.png,10,2,0,2,0,1,,,,,,,,,,
,,,,,A,2024-07-05_14h36.50.988,Slot Machine Game,2023.1.3,Win32,60.24096386,,,,,,,,,,,,,,,,,,,,,,,,,,,120,,,,,,,,,,,,,,,,,,,,,10,3,,,691.7755,3,left,0.4241,,1.5,0.3,"[3,1,2]",0.537961202,stimuli/card_0_transparent.png,0,3,0,3,0,1,,,,,,,,,,
,,,,,A,2024-07-05_14h36.50.988,Slot Machine Game,2023.1.3,Win32,60.24096386,,,,,,,,,,,,,,,,,,,,,,,,,,,220,,,,,,,,,,,,,,,,,,,,,10,3,,,694.5252,4,up,0.4579,,0.5,0.3,"[3,1,2]",0.841042087,stimuli/card_100_transparent.png,100,4,0,4,0,1,,,,,,,,,,
,,,,,A,2024-07-05_14h36.50.988,Slot Machine Game,2023.1.3,Win32,60.24096386,,,,,,,,,,,,,,,,,,,,,,,,,,,320,,,,,,,,,,,,,,,,,,,,,10,3,,,696.3085,5,up,0.4247,,1,0.3,"[3,1,2]",0.672481648,stimuli/card_100_transparent.png,100,5,0,5,0,1,,,,,,,,,,
,,,,,A,2024-07-05_14h36.50.988,Slot Machine Game,2023.1.3,Win32,60.24096386,,,,,,,,,,,,,,,,,,,,,,,,,,,420,,,,,,,,,,,,,,,,,,,,,10,3,,,698.5587,6,up,0.1437,,0.5,0.3,"[3,1,2]",0.20671291,stimuli/card_100_transparent.png,100,6,0,6,0,1,,,,,,,,,,
,,,,,A,2024-07-05_14h36.50.988,Slot Machine Game,2023.1.3,Win32,60.24096386,,,,,,,,,,,,,,,,,,,,,,,,,,,520,,,,,,,,,,,,,,,,,,,,,10,3,,,700.0248,7,up,0.3843,,0.5,0.3,"[3,1,2]",0.977570056,stimuli/card_100_transparent.png,100,7,0,7,0,1,,,,,,,,,,
,,,,,A,2024-07-05_14h36.50.988,Slot Machine Game,2023.1.3,Win32,60.24096386,,,,,,,,,,,,,,,,,,,,,,,,,,,620,,,,,,,,,,,,,,,,,,,,,10,3,,,701.7412,8,up,0.1865,,0.5,0.3,"[3,1,2]",0.642453487,stimuli/card_100_transparent.png,100,8,0,8,0,1,,,,,,,,,,
,,,,,A,2024-07-05_14h36.50.988,Slot Machine Game,2023.1.3,Win32,60.24096386,,,,,,,,,,,,,,,,,,,,,,,,,,,720,,,,,,,,,,,,,,,,,,,,,10,3,,,703.2252,9,up,0.0495,,0.5,0.3,"[3,1,2]",0.90261392,stimuli/card_100_transparent.png,100,9,0,9,0,1,,,,,,,,,,
,,,,,A,2024-07-05_14h36.50.988,Slot Machine Game,2023.1.3,Win32,60.24096386,,,,,,,,,,,,,,,,,,,,,,,,,,,820,,,,,,,,,,,,,,,,,,,,,10,3,,,704.6081,10,up,0.0833,,0.5,0.3,"[3,1,2]",0.67724705,stimuli/card_100_transparent.png,100,10,0,10,0,1,,,,,,,,,,
,,,,,A,2024-07-05_14h36.50.988,Slot Machine Game,2023.1.3,Win32,60.24096386,,,,,,,,,,,,,,,,,,,,,,,,,,,920,,,,,,,,,,,,,,,,,,,,,10,3,,,706.0247,11,up,0.0524,,0.5,0.3,"[3,1,2]",0.859417733,stimuli/card_100_transparent.png,100,11,0,11,0,1,,,,,,,,,,
,,,,,A,2024-07-05_14h36.50.988,Slot Machine Game,2023.1.3,Win32,60.24096386,,,,,,,,,,,,,,,,,,,,,,,,,,,1020,,,,,,,,,,,,,,,,,,,,,10,3,,,707.3918,12,up,0.383,,1.5,0.3,"[3,1,2]",0.618241744,stimuli/card_100_transparent.png,100,12,0,12,0,1,,,,,,,,,,
,,,,,A,2024-07-05_14h36.50.988,Slot Machine Game,2023.1.3,Win32,60.24096386,,,,,,,,,,,,,,,,,,,,,,,,,,,1120,,,,,,,,,,,,,,,,,,,,,10,3,,,710.1083,13,up,0.4183,,0.5,0.3,"[3,1,2]",0.513332275,stimuli/card_100_transparent.png,100,13,0,13,0,1,,,,,,,,,,
,,,,,A,2024-07-05_14h36.50.988,Slot Machine Game,2023.1.3,Win32,60.24096386,,,,,,,,,,,,,,,,,,,,,,,,,,,1220,,,,,,,,,,,,,,,,,,,,,10,3,,,711.8582,14,up,0.1881,,0.5,0.3,"[3,1,2]",0.587488304,stimuli/card_100_transparent.png,100,14,0,14,0,1,,,,,,,,,,
,,,,,A,2024-07-05_14h36.50.988,Slot Machine Game,2023.1.3,Win32,60.24096386,,,,,,,,,,,,,,,,,,,,,,,,,,,,,,,,,,,713.375,,,,,,,,,,,,,,,,,,,,,,,,,,,,,,,,,"[1030,1400,820,1210,840,850,1030,820,740,1220]",9,0,9,0,1,,,,
,,,,,A,2024-07-05_14h36.50.988,Slot Machine Game,2023.1.3,Win32,60.24096386,,,,,,,,,,,,,,,,,,,,,,,,,,,,,,,,,,,,,,,,,,,,,,,,,,,,,,,,,,,,,,,,,,,,,,,,,,9,"[1030,1400,820,1210,840,850,1030,820,740,1220]",14,2024-07-05_14h48.53.479
