key_resp_welcome_started,key_resp_welcome_keys,key_resp_welcome_rt,key_resp_welcome_duration,prolific_pid,path_id,date,expName,psychopyVersion,OS,frameRate,key_resp_instruction1_started,key_resp_instruction1_keys,key_resp_instruction1_rt,key_resp_instruction1_duration,key_resp_instruction2_started,key_resp_instruction2_keys,key_resp_instruction2_rt,key_resp_instruction2_duration,key_resp_instruction3_started,key_resp_instruction3_keys,key_resp_instruction3_rt,key_resp_instruction3_duration,key_resp_instruction4_started,key_resp_instruction4_keys,key_resp_instruction4_rt,key_resp_instruction4_duration,practiceCondition,practice_reward_seqs,practice_trial_started,practice_trial_num,practice_resp_rt,practice_keypress_time,practice_resp_keys,prac_presentationInterval,practice_reward_seq,reward_img,cumulative_reward,trial_reward,practice_trials.thisRepN,practice_trials.thisTrialN,practice_trials.thisN,practice_trials.thisIndex,practice_trials.ran,block_break_started,practice_end_time,practice_end_keys,practice_end_rt,practice_end_duration,main_instruction_text_started,block_condition,block_order_indices,main_instruction_keys,main_instruction_rt,main_instruction_duration,block_number,block_assignment,current_condition,main_reward_seqs,main_trial_started,main_trial_num,main_trial_keys,main_trial_rt,main_trial_keypress_time,main_presentationInterval,reward_presentation_time,main_reward_seq,reward_rand_val,main_reward_img,current_reward,main_trials.thisRepN,main_trials.thisTrialN,main_trials.thisN,main_trials.thisIndex,main_trials.ran,block_reward,block.thisRepN,block.thisTrialN,block.thisN,block.thisIndex,block.ran,block_reward.length,block_reward_all,reward_amount,date_end_task
0.0008,space,3.5832,,65e254b55a2803a51872aef0,B,2024-08-16_15h49.24.216,Slot Machine Game,2023.1.3,Linux x86_64,59.99880002,,,,,,,,,,,,,,,,,,,,,,,,,,,,,,,,,,,,,,,,,,,,,,,,,,,,,,,,,,,,,,,,,,,,,,,,,,
,,,,65e254b55a2803a51872aef0,B,2024-08-16_15h49.24.216,Slot Machine Game,2023.1.3,Linux x86_64,59.99880002,3.6211,space,18.8812,,,,,,,,,,,,,,,,,,,,,,,,,,,,,,,,,,,,,,,,,,,,,,,,,,,,,,,,,,,,,,,,,,,,,,,
,,,,65e254b55a2803a51872aef0,B,2024-08-16_15h49.24.216,Slot Machine Game,2023.1.3,Linux x86_64,59.99880002,,,,,22.5401,space,38.3726,,,,,,,,,,,,,,,,,,,,,,,,,,,,,,,,,,,,,,,,,,,,,,,,,,,,,,,,,,,,,,,,,,,
,,,,65e254b55a2803a51872aef0,B,2024-08-16_15h49.24.216,Slot Machine Game,2023.1.3,Linux x86_64,59.99880002,,,,,,,,,61.0071,space,11.6691,,,,,,,,,,,,,,,,,,,,,,,,,,,,,,,,,,,,,,,,,,,,,,,,,,,,,,,,,,,,,,,
,,,,65e254b55a2803a51872aef0,B,2024-08-16_15h49.24.216,Slot Machine Game,2023.1.3,Linux x86_64,59.99880002,,,,,,,,,,,,,,,,,,,,,,,,,,,,,,,,,,,,,,,,,,,,,,,,,,,,,,,,,,,,,,,,,,,,,,,,,,
,,,,65e254b55a2803a51872aef0,B,2024-08-16_15h49.24.216,Slot Machine Game,2023.1.3,Linux x86_64,59.99880002,,,,,,,,,,,,,214.9042,right,3.1519,,,,,,,,,,,,,,,,,,,,,,,,,,,,,,,,,,,,,,,,,,,,,,,,,,,,,,,,,,,
,,,,65e254b55a2803a51872aef0,B,2024-08-16_15h49.24.216,Slot Machine Game,2023.1.3,Linux x86_64,59.99880002,,,,,,,,,,,,,,,,,"[9,15]","[[2,1,3],[2,3,1]]",218.114,0,1.8716,219.999,left,1.5,"[2,1,3]",stimuli/card_10_transparent.png,10,10,0,0,0,0,1,,,,,,,,,,,,,,,,,,,,,,,,,,,,,,,,,,,,,,,,,
,,,,65e254b55a2803a51872aef0,B,2024-08-16_15h49.24.216,Slot Machine Game,2023.1.3,Linux x86_64,59.99880002,,,,,,,,,,,,,,,,,,,221.8053,1,2.0526,223.8883,up,1.5,"[2,1,3]",stimuli/card_100_transparent.png,110,100,1,0,1,0,1,,,,,,,,,,,,,,,,,,,,,,,,,,,,,,,,,,,,,,,,,
,,,,65e254b55a2803a51872aef0,B,2024-08-16_15h49.24.216,Slot Machine Game,2023.1.3,Linux x86_64,59.99880002,,,,,,,,,,,,,,,,,,,225.6922,2,3.1237,228.8652,up,1,"[2,1,3]",stimuli/card_100_transparent.png,210,100,2,0,2,0,1,,,,,,,,,,,,,,,,,,,,,,,,,,,,,,,,,,,,,,,,,
,,,,65e254b55a2803a51872aef0,B,2024-08-16_15h49.24.216,Slot Machine Game,2023.1.3,Linux x86_64,59.99880002,,,,,,,,,,,,,,,,,,,230.1653,3,1.352,231.5496,up,0.5,"[2,1,3]",stimuli/card_100_transparent.png,310,100,3,0,3,0,1,,,,,,,,,,,,,,,,,,,,,,,,,,,,,,,,,,,,,,,,,
,,,,65e254b55a2803a51872aef0,B,2024-08-16_15h49.24.216,Slot Machine Game,2023.1.3,Linux x86_64,59.99880002,,,,,,,,,,,,,,,,,,,232.3501,4,0.9181,233.2977,up,0.5,"[2,1,3]",stimuli/card_100_transparent.png,410,100,4,0,4,0,1,,,,,,,,,,,,,,,,,,,,,,,,,,,,,,,,,,,,,,,,,
,,,,65e254b55a2803a51872aef0,B,2024-08-16_15h49.24.216,Slot Machine Game,2023.1.3,Linux x86_64,59.99880002,,,,,,,,,,,,,,,,,,,234.0999,5,0.5853,234.7147,up,0.5,"[2,1,3]",stimuli/card_100_transparent.png,510,100,5,0,5,0,1,,,,,,,,,,,,,,,,,,,,,,,,,,,,,,,,,,,,,,,,,
,,,,65e254b55a2803a51872aef0,B,2024-08-16_15h49.24.216,Slot Machine Game,2023.1.3,Linux x86_64,59.99880002,,,,,,,,,,,,,,,,,,,235.5162,6,0.885,236.4322,up,1,"[2,1,3]",stimuli/card_100_transparent.png,610,100,6,0,6,0,1,,,,,,,,,,,,,,,,,,,,,,,,,,,,,,,,,,,,,,,,,
,,,,65e254b55a2803a51872aef0,B,2024-08-16_15h49.24.216,Slot Machine Game,2023.1.3,Linux x86_64,59.99880002,,,,,,,,,,,,,,,,,,,237.7322,7,0.8508,238.6145,up,1.5,"[2,1,3]",stimuli/card_100_transparent.png,710,100,7,0,7,0,1,,,,,,,,,,,,,,,,,,,,,,,,,,,,,,,,,,,,,,,,,
,,,,65e254b55a2803a51872aef0,B,2024-08-16_15h49.24.216,Slot Machine Game,2023.1.3,Linux x86_64,59.99880002,,,,,,,,,,,,,,,,,,,240.4148,8,0.6532,241.0981,up,0.5,"[2,1,3]",stimuli/card_0_transparent.png,710,0,8,0,8,0,1,,,,,,,,,,,,,,,,,,,,,,,,,,,,,,,,,,,,,,,,,
,,,,65e254b55a2803a51872aef0,B,2024-08-16_15h49.24.216,Slot Machine Game,2023.1.3,Linux x86_64,59.99880002,,,,,,,,,,,,,,,,,,,241.8984,9,0.8019,242.7313,up,0.5,"[2,3,1]",stimuli/card_0_transparent.png,710,0,9,0,9,0,1,,,,,,,,,,,,,,,,,,,,,,,,,,,,,,,,,,,,,,,,,
,,,,65e254b55a2803a51872aef0,B,2024-08-16_15h49.24.216,Slot Machine Game,2023.1.3,Linux x86_64,59.99880002,,,,,,,,,,,,,,,,,,,243.5313,10,0.5358,244.0978,right,1,"[2,3,1]",stimuli/card_100_transparent.png,810,100,10,0,10,0,1,,,,,,,,,,,,,,,,,,,,,,,,,,,,,,,,,,,,,,,,,
,,,,65e254b55a2803a51872aef0,B,2024-08-16_15h49.24.216,Slot Machine Game,2023.1.3,Linux x86_64,59.99880002,,,,,,,,,,,,,,,,,,,245.3984,11,1.0031,246.4341,right,0.5,"[2,3,1]",stimuli/card_100_transparent.png,910,100,11,0,11,0,1,,,,,,,,,,,,,,,,,,,,,,,,,,,,,,,,,,,,,,,,,
,,,,65e254b55a2803a51872aef0,B,2024-08-16_15h49.24.216,Slot Machine Game,2023.1.3,Linux x86_64,59.99880002,,,,,,,,,,,,,,,,,,,247.2329,12,0.5184,247.7815,right,0.5,"[2,3,1]",stimuli/card_100_transparent.png,1010,100,12,0,12,0,1,,,,,,,,,,,,,,,,,,,,,,,,,,,,,,,,,,,,,,,,,
,,,,65e254b55a2803a51872aef0,B,2024-08-16_15h49.24.216,Slot Machine Game,2023.1.3,Linux x86_64,59.99880002,,,,,,,,,,,,,,,,,,,248.5817,13,0.8511,249.4648,right,1,"[2,3,1]",stimuli/card_10_transparent.png,1020,10,13,0,13,0,1,,,,,,,,,,,,,,,,,,,,,,,,,,,,,,,,,,,,,,,,,
,,,,65e254b55a2803a51872aef0,B,2024-08-16_15h49.24.216,Slot Machine Game,2023.1.3,Linux x86_64,59.99880002,,,,,,,,,,,,,,,,,,,250.7658,14,0.6701,251.4649,right,0.5,"[2,3,1]",stimuli/card_10_transparent.png,1030,10,14,0,14,0,1,,,,,,,,,,,,,,,,,,,,,,,,,,,,,,,,,,,,,,,,,
,,,,65e254b55a2803a51872aef0,B,2024-08-16_15h49.24.216,Slot Machine Game,2023.1.3,Linux x86_64,59.99880002,,,,,,,,,,,,,,,,,"[6,15]","[[1,3,2],[3,1,2]]",257.3101,0,1.2181,258.5479,left,1.5,"[1,3,2]",stimuli/card_100_transparent.png,100,100,0,0,0,0,1,252.2887,,,,,,,,,,,,,,,,,,,,,,,,,,,,,,,,,,,,,,,,
,,,,65e254b55a2803a51872aef0,B,2024-08-16_15h49.24.216,Slot Machine Game,2023.1.3,Linux x86_64,59.99880002,,,,,,,,,,,,,,,,,,,260.3482,1,0.8345,261.2152,left,0.5,"[1,3,2]",stimuli/card_100_transparent.png,200,100,1,0,1,0,1,,,,,,,,,,,,,,,,,,,,,,,,,,,,,,,,,,,,,,,,,
,,,,65e254b55a2803a51872aef0,B,2024-08-16_15h49.24.216,Slot Machine Game,2023.1.3,Linux x86_64,59.99880002,,,,,,,,,,,,,,,,,,,262.0148,2,0.5688,262.6147,left,1,"[1,3,2]",stimuli/card_0_transparent.png,200,0,2,0,2,0,1,,,,,,,,,,,,,,,,,,,,,,,,,,,,,,,,,,,,,,,,,
,,,,65e254b55a2803a51872aef0,B,2024-08-16_15h49.24.216,Slot Machine Game,2023.1.3,Linux x86_64,59.99880002,,,,,,,,,,,,,,,,,,,263.9142,3,0.9171,264.8634,left,1.5,"[1,3,2]",stimuli/card_100_transparent.png,300,100,3,0,3,0,1,,,,,,,,,,,,,,,,,,,,,,,,,,,,,,,,,,,,,,,,,
,,,,65e254b55a2803a51872aef0,B,2024-08-16_15h49.24.216,Slot Machine Game,2023.1.3,Linux x86_64,59.99880002,,,,,,,,,,,,,,,,,,,266.6654,4,0.6675,267.3637,left,0.5,"[1,3,2]",stimuli/card_100_transparent.png,400,100,4,0,4,0,1,,,,,,,,,,,,,,,,,,,,,,,,,,,,,,,,,,,,,,,,,
,,,,65e254b55a2803a51872aef0,B,2024-08-16_15h49.24.216,Slot Machine Game,2023.1.3,Linux x86_64,59.99880002,,,,,,,,,,,,,,,,,,,268.1644,5,0.6852,268.8806,left,0.5,"[1,3,2]",stimuli/card_100_transparent.png,500,100,5,0,5,0,1,,,,,,,,,,,,,,,,,,,,,,,,,,,,,,,,,,,,,,,,,
,,,,65e254b55a2803a51872aef0,B,2024-08-16_15h49.24.216,Slot Machine Game,2023.1.3,Linux x86_64,59.99880002,,,,,,,,,,,,,,,,,,,269.6817,6,0.8017,270.5141,left,0.5,"[3,1,2]",stimuli/card_0_transparent.png,500,0,6,0,6,0,1,,,,,,,,,,,,,,,,,,,,,,,,,,,,,,,,,,,,,,,,,
,,,,65e254b55a2803a51872aef0,B,2024-08-16_15h49.24.216,Slot Machine Game,2023.1.3,Linux x86_64,59.99880002,,,,,,,,,,,,,,,,,,,271.3143,7,0.7871,272.1303,left,1.5,"[3,1,2]",stimuli/card_0_transparent.png,500,0,7,0,7,0,1,,,,,,,,,,,,,,,,,,,,,,,,,,,,,,,,,,,,,,,,,
,,,,65e254b55a2803a51872aef0,B,2024-08-16_15h49.24.216,Slot Machine Game,2023.1.3,Linux x86_64,59.99880002,,,,,,,,,,,,,,,,,,,273.9304,8,0.6848,274.6466,up,1,"[3,1,2]",stimuli/card_100_transparent.png,600,100,8,0,8,0,1,,,,,,,,,,,,,,,,,,,,,,,,,,,,,,,,,,,,,,,,,
,,,,65e254b55a2803a51872aef0,B,2024-08-16_15h49.24.216,Slot Machine Game,2023.1.3,Linux x86_64,59.99880002,,,,,,,,,,,,,,,,,,,275.9459,9,0.7346,276.7123,up,1.5,"[3,1,2]",stimuli/card_100_transparent.png,700,100,9,0,9,0,1,,,,,,,,,,,,,,,,,,,,,,,,,,,,,,,,,,,,,,,,,
,,,,65e254b55a2803a51872aef0,B,2024-08-16_15h49.24.216,Slot Machine Game,2023.1.3,Linux x86_64,59.99880002,,,,,,,,,,,,,,,,,,,278.5122,10,0.8194,279.3612,up,1,"[3,1,2]",stimuli/card_100_transparent.png,800,100,10,0,10,0,1,,,,,,,,,,,,,,,,,,,,,,,,,,,,,,,,,,,,,,,,,
,,,,65e254b55a2803a51872aef0,B,2024-08-16_15h49.24.216,Slot Machine Game,2023.1.3,Linux x86_64,59.99880002,,,,,,,,,,,,,,,,,,,280.6601,11,0.6015,281.2929,up,0.5,"[3,1,2]",stimuli/card_0_transparent.png,800,0,11,0,11,0,1,,,,,,,,,,,,,,,,,,,,,,,,,,,,,,,,,,,,,,,,,
,,,,65e254b55a2803a51872aef0,B,2024-08-16_15h49.24.216,Slot Machine Game,2023.1.3,Linux x86_64,59.99880002,,,,,,,,,,,,,,,,,,,282.0931,12,0.8685,282.9931,up,0.5,"[3,1,2]",stimuli/card_10_transparent.png,810,10,12,0,12,0,1,,,,,,,,,,,,,,,,,,,,,,,,,,,,,,,,,,,,,,,,,
,,,,65e254b55a2803a51872aef0,B,2024-08-16_15h49.24.216,Slot Machine Game,2023.1.3,Linux x86_64,59.99880002,,,,,,,,,,,,,,,,,,,283.792,13,1.2511,285.0753,left,1,"[3,1,2]",stimuli/card_0_transparent.png,810,0,13,0,13,0,1,,,,,,,,,,,,,,,,,,,,,,,,,,,,,,,,,,,,,,,,,
,,,,65e254b55a2803a51872aef0,B,2024-08-16_15h49.24.216,Slot Machine Game,2023.1.3,Linux x86_64,59.99880002,,,,,,,,,,,,,,,,,,,286.3746,14,0.5516,286.9567,right,0.5,"[3,1,2]",stimuli/card_10_transparent.png,820,10,14,0,14,0,1,,,,,,,,,,,,,,,,,,,,,,,,,,,,,,,,,,,,,,,,,
,,,,65e254b55a2803a51872aef0,B,2024-08-16_15h49.24.216,Slot Machine Game,2023.1.3,Linux x86_64,59.99880002,,,,,,,,,,,,,,,,,,,,,,,,,,,,,,,,,,287.7563,292.7572,space,62.3494,,,,,,,,,,,,,,,,,,,,,,,,,,,,,,,,,,,,,
,,,,65e254b55a2803a51872aef0,B,2024-08-16_15h49.24.216,Slot Machine Game,2023.1.3,Linux x86_64,59.99880002,,,,,,,,,,,,,,,,,,,,,,,,,,,,,,,,,,,,,,,355.1431,1,"[0,1,2,3,4,5,6,7,8,9]",space,2.7804,,,,,,,,,,,,,,,,,,,,,,,,,,,,,,,
,,,,65e254b55a2803a51872aef0,B,2024-08-16_15h49.24.216,Slot Machine Game,2023.1.3,Linux x86_64,59.99880002,,,,,,,,,,,,,,,,,,,,,,,,,,,10,,,,,,,,,,,,,,,,,,1,1,"[12,15]","[[2,1,3],[2,3,1]]",357.9869,0,left,0.819,358.836,1.5,0.3,"[2,1,3]",0.359394508,stimuli/card_10_transparent.png,10,0,0,0,0,1,,,,,,,,,,
,,,,65e254b55a2803a51872aef0,B,2024-08-16_15h49.24.216,Slot Machine Game,2023.1.3,Linux x86_64,59.99880002,,,,,,,,,,,,,,,,,,,,,,,,,,,20,,,,,,,,,,,,,,,,,,1,1,,,360.6468,1,up,0.7184,361.3858,1,0.3,"[2,1,3]",0.118172781,stimuli/card_10_transparent.png,10,1,0,1,0,1,,,,,,,,,,
,,,,65e254b55a2803a51872aef0,B,2024-08-16_15h49.24.216,Slot Machine Game,2023.1.3,Linux x86_64,59.99880002,,,,,,,,,,,,,,,,,,,,,,,,,,,20,,,,,,,,,,,,,,,,,,1,1,,,362.6855,2,right,0.6346,363.3507,1.5,0.3,"[2,1,3]",0.849436658,stimuli/card_0_transparent.png,0,2,0,2,0,1,,,,,,,,,,
,,,,65e254b55a2803a51872aef0,B,2024-08-16_15h49.24.216,Slot Machine Game,2023.1.3,Linux x86_64,59.99880002,,,,,,,,,,,,,,,,,,,,,,,,,,,20,,,,,,,,,,,,,,,,,,1,1,,,365.1497,3,right,0.7021,365.883,1.5,0.3,"[2,1,3]",0.378467714,stimuli/card_0_transparent.png,0,3,0,3,0,1,,,,,,,,,,
,,,,65e254b55a2803a51872aef0,B,2024-08-16_15h49.24.216,Slot Machine Game,2023.1.3,Linux x86_64,59.99880002,,,,,,,,,,,,,,,,,,,,,,,,,,,30,,,,,,,,,,,,,,,,,,1,1,,,367.6827,4,left,0.5081,368.2178,1,0.3,"[2,1,3]",0.847024223,stimuli/card_10_transparent.png,10,4,0,4,0,1,,,,,,,,,,
,,,,65e254b55a2803a51872aef0,B,2024-08-16_15h49.24.216,Slot Machine Game,2023.1.3,Linux x86_64,59.99880002,,,,,,,,,,,,,,,,,,,,,,,,,,,130,,,,,,,,,,,,,,,,,,1,1,,,369.5158,5,up,0.6509,370.198,1,0.3,"[2,1,3]",0.992846665,stimuli/card_100_transparent.png,100,5,0,5,0,1,,,,,,,,,,
,,,,65e254b55a2803a51872aef0,B,2024-08-16_15h49.24.216,Slot Machine Game,2023.1.3,Linux x86_64,59.99880002,,,,,,,,,,,,,,,,,,,,,,,,,,,230,,,,,,,,,,,,,,,,,,1,1,,,371.4963,6,up,0.5514,372.0785,1,0.3,"[2,1,3]",0.699108099,stimuli/card_100_transparent.png,100,6,0,6,0,1,,,,,,,,,,
,,,,65e254b55a2803a51872aef0,B,2024-08-16_15h49.24.216,Slot Machine Game,2023.1.3,Linux x86_64,59.99880002,,,,,,,,,,,,,,,,,,,,,,,,,,,330,,,,,,,,,,,,,,,,,,1,1,,,373.3804,7,up,0.6345,374.0454,0.5,0.3,"[2,1,3]",0.637186064,stimuli/card_100_transparent.png,100,7,0,7,0,1,,,,,,,,,,
,,,,65e254b55a2803a51872aef0,B,2024-08-16_15h49.24.216,Slot Machine Game,2023.1.3,Linux x86_64,59.99880002,,,,,,,,,,,,,,,,,,,,,,,,,,,430,,,,,,,,,,,,,,,,,,1,1,,,374.8443,8,up,0.6181,375.4772,0.5,0.3,"[2,1,3]",0.362241112,stimuli/card_100_transparent.png,100,8,0,8,0,1,,,,,,,,,,
,,,,65e254b55a2803a51872aef0,B,2024-08-16_15h49.24.216,Slot Machine Game,2023.1.3,Linux x86_64,59.99880002,,,,,,,,,,,,,,,,,,,,,,,,,,,530,,,,,,,,,,,,,,,,,,1,1,,,376.2773,9,up,0.6861,376.9927,0.5,0.3,"[2,1,3]",0.684442266,stimuli/card_100_transparent.png,100,9,0,9,0,1,,,,,,,,,,
,,,,65e254b55a2803a51872aef0,B,2024-08-16_15h49.24.216,Slot Machine Game,2023.1.3,Linux x86_64,59.99880002,,,,,,,,,,,,,,,,,,,,,,,,,,,630,,,,,,,,,,,,,,,,,,1,1,,,377.7929,10,up,0.6673,378.4923,1.5,0.3,"[2,1,3]",0.374992644,stimuli/card_100_transparent.png,100,10,0,10,0,1,,,,,,,,,,
,,,,65e254b55a2803a51872aef0,B,2024-08-16_15h49.24.216,Slot Machine Game,2023.1.3,Linux x86_64,59.99880002,,,,,,,,,,,,,,,,,,,,,,,,,,,730,,,,,,,,,,,,,,,,,,1,1,,,380.2924,11,up,0.5012,380.8264,1.5,0.3,"[2,1,3]",0.594037176,stimuli/card_100_transparent.png,100,11,0,11,0,1,,,,,,,,,,
,,,,65e254b55a2803a51872aef0,B,2024-08-16_15h49.24.216,Slot Machine Game,2023.1.3,Linux x86_64,59.99880002,,,,,,,,,,,,,,,,,,,,,,,,,,,740,,,,,,,,,,,,,,,,,,1,1,,,382.6243,12,up,0.6017,383.2569,1.5,0.3,"[2,3,1]",0.180494113,stimuli/card_10_transparent.png,10,12,0,12,0,1,,,,,,,,,,
,,,,65e254b55a2803a51872aef0,B,2024-08-16_15h49.24.216,Slot Machine Game,2023.1.3,Linux x86_64,59.99880002,,,,,,,,,,,,,,,,,,,,,,,,,,,840,,,,,,,,,,,,,,,,,,1,1,,,385.0565,13,left,0.7344,385.8236,0.5,0.3,"[2,3,1]",0.171126513,stimuli/card_100_transparent.png,100,13,0,13,0,1,,,,,,,,,,
,,,,65e254b55a2803a51872aef0,B,2024-08-16_15h49.24.216,Slot Machine Game,2023.1.3,Linux x86_64,59.99880002,,,,,,,,,,,,,,,,,,,,,,,,,,,840,,,,,,,,,,,,,,,,,,1,1,,,386.6218,14,left,0.5356,387.1894,1.5,0.3,"[2,3,1]",0.001993491,stimuli/card_0_transparent.png,0,14,0,14,0,1,,,,,,,,,,
,,,,65e254b55a2803a51872aef0,B,2024-08-16_15h49.24.216,Slot Machine Game,2023.1.3,Linux x86_64,59.99880002,,,,,,,,,,,,,,,,,,,,,,,,,,,,,,,,,,388.9877,,,,,,,,,,,,,,,,,,,,,,,,,,,,,,,[840],0,0,0,0,1,,,,
,,,,65e254b55a2803a51872aef0,B,2024-08-16_15h49.24.216,Slot Machine Game,2023.1.3,Linux x86_64,59.99880002,,,,,,,,,,,,,,,,,,,,,,,,,,,100,,,,,,,,,,,,,,,,,,2,2,"[6,15]","[[1,3,2],[3,2,1]]",394.0099,0,left,0.5802,394.6244,0.5,0.3,"[1,3,2]",0.897214968,stimuli/card_100_transparent.png,100,0,0,0,0,1,,,,,,,,,,
,,,,65e254b55a2803a51872aef0,B,2024-08-16_15h49.24.216,Slot Machine Game,2023.1.3,Linux x86_64,59.99880002,,,,,,,,,,,,,,,,,,,,,,,,,,,200,,,,,,,,,,,,,,,,,,2,2,,,395.4273,1,left,0.531,396.0001,1.5,0.3,"[1,3,2]",0.202001152,stimuli/card_100_transparent.png,100,1,0,1,0,1,,,,,,,,,,
,,,,65e254b55a2803a51872aef0,B,2024-08-16_15h49.24.216,Slot Machine Game,2023.1.3,Linux x86_64,59.99880002,,,,,,,,,,,,,,,,,,,,,,,,,,,200,,,,,,,,,,,,,,,,,,2,2,,,397.8004,2,left,0.6845,398.5164,1,0.3,"[1,3,2]",0.047877588,stimuli/card_0_transparent.png,0,2,0,2,0,1,,,,,,,,,,
,,,,65e254b55a2803a51872aef0,B,2024-08-16_15h49.24.216,Slot Machine Game,2023.1.3,Linux x86_64,59.99880002,,,,,,,,,,,,,,,,,,,,,,,,,,,210,,,,,,,,,,,,,,,,,,2,2,,,399.8161,3,left,0.7206,400.5666,1.5,0.3,"[1,3,2]",0.160070999,stimuli/card_10_transparent.png,10,3,0,3,0,1,,,,,,,,,,
,,,,65e254b55a2803a51872aef0,B,2024-08-16_15h49.24.216,Slot Machine Game,2023.1.3,Linux x86_64,59.99880002,,,,,,,,,,,,,,,,,,,,,,,,,,,210,,,,,,,,,,,,,,,,,,2,2,,,402.3645,4,up,0.5698,402.9631,1.5,0.3,"[1,3,2]",0.925388344,stimuli/card_0_transparent.png,0,4,0,4,0,1,,,,,,,,,,
,,,,65e254b55a2803a51872aef0,B,2024-08-16_15h49.24.216,Slot Machine Game,2023.1.3,Linux x86_64,59.99880002,,,,,,,,,,,,,,,,,,,,,,,,,,,210,,,,,,,,,,,,,,,,,,2,2,,,404.7633,5,right,0.635,405.4283,1.5,0.3,"[1,3,2]",0.063886897,stimuli/card_0_transparent.png,0,5,0,5,0,1,,,,,,,,,,
,,,,65e254b55a2803a51872aef0,B,2024-08-16_15h49.24.216,Slot Machine Game,2023.1.3,Linux x86_64,59.99880002,,,,,,,,,,,,,,,,,,,,,,,,,,,310,,,,,,,,,,,,,,,,,,2,2,,,407.2277,6,right,0.6509,407.9119,0.5,0.3,"[3,2,1]",0.515452827,stimuli/card_100_transparent.png,100,6,0,6,0,1,,,,,,,,,,
,,,,65e254b55a2803a51872aef0,B,2024-08-16_15h49.24.216,Slot Machine Game,2023.1.3,Linux x86_64,59.99880002,,,,,,,,,,,,,,,,,,,,,,,,,,,410,,,,,,,,,,,,,,,,,,2,2,,,408.7104,7,right,0.6853,409.4274,1.5,0.3,"[3,2,1]",0.567901115,stimuli/card_100_transparent.png,100,7,0,7,0,1,,,,,,,,,,
,,,,65e254b55a2803a51872aef0,B,2024-08-16_15h49.24.216,Slot Machine Game,2023.1.3,Linux x86_64,59.99880002,,,,,,,,,,,,,,,,,,,,,,,,,,,510,,,,,,,,,,,,,,,,,,2,2,,,411.2269,8,right,0.6357,411.8914,1.5,0.3,"[3,2,1]",0.466591495,stimuli/card_100_transparent.png,100,8,0,8,0,1,,,,,,,,,,
,,,,65e254b55a2803a51872aef0,B,2024-08-16_15h49.24.216,Slot Machine Game,2023.1.3,Linux x86_64,59.99880002,,,,,,,,,,,,,,,,,,,,,,,,,,,610,,,,,,,,,,,,,,,,,,2,2,,,413.6913,9,right,0.7227,414.4417,0.5,0.3,"[3,2,1]",0.558463058,stimuli/card_100_transparent.png,100,9,0,9,0,1,,,,,,,,,,
,,,,65e254b55a2803a51872aef0,B,2024-08-16_15h49.24.216,Slot Machine Game,2023.1.3,Linux x86_64,59.99880002,,,,,,,,,,,,,,,,,,,,,,,,,,,710,,,,,,,,,,,,,,,,,,2,2,,,415.2417,10,right,0.7344,416.0057,0.5,0.3,"[3,2,1]",0.351961366,stimuli/card_100_transparent.png,100,10,0,10,0,1,,,,,,,,,,
,,,,65e254b55a2803a51872aef0,B,2024-08-16_15h49.24.216,Slot Machine Game,2023.1.3,Linux x86_64,59.99880002,,,,,,,,,,,,,,,,,,,,,,,,,,,810,,,,,,,,,,,,,,,,,,2,2,,,416.8065,11,right,0.718,417.5556,0.5,0.3,"[3,2,1]",0.7748731,stimuli/card_100_transparent.png,100,11,0,11,0,1,,,,,,,,,,
,,,,65e254b55a2803a51872aef0,B,2024-08-16_15h49.24.216,Slot Machine Game,2023.1.3,Linux x86_64,59.99880002,,,,,,,,,,,,,,,,,,,,,,,,,,,910,,,,,,,,,,,,,,,,,,2,2,,,418.3573,12,right,0.7841,419.1708,1,0.3,"[3,2,1]",0.56408381,stimuli/card_100_transparent.png,100,12,0,12,0,1,,,,,,,,,,
,,,,65e254b55a2803a51872aef0,B,2024-08-16_15h49.24.216,Slot Machine Game,2023.1.3,Linux x86_64,59.99880002,,,,,,,,,,,,,,,,,,,,,,,,,,,910,,,,,,,,,,,,,,,,,,2,2,,,420.4729,13,right,0.7721,421.2712,1.5,0.3,"[3,2,1]",0.086135789,stimuli/card_0_transparent.png,0,13,0,13,0,1,,,,,,,,,,
,,,,65e254b55a2803a51872aef0,B,2024-08-16_15h49.24.216,Slot Machine Game,2023.1.3,Linux x86_64,59.99880002,,,,,,,,,,,,,,,,,,,,,,,,,,,920,,,,,,,,,,,,,,,,,,2,2,,,423.0717,14,right,0.551,423.6526,1,0.3,"[3,2,1]",0.154243391,stimuli/card_10_transparent.png,10,14,0,14,0,1,,,,,,,,,,
,,,,65e254b55a2803a51872aef0,B,2024-08-16_15h49.24.216,Slot Machine Game,2023.1.3,Linux x86_64,59.99880002,,,,,,,,,,,,,,,,,,,,,,,,,,,,,,,,,,424.9532,,,,,,,,,,,,,,,,,,,,,,,,,,,,,,,"[840,920]",1,0,1,0,1,,,,
,,,,65e254b55a2803a51872aef0,B,2024-08-16_15h49.24.216,Slot Machine Game,2023.1.3,Linux x86_64,59.99880002,,,,,,,,,,,,,,,,,,,,,,,,,,,0,,,,,,,,,,,,,,,,,,3,3,"[15,15]","[[3,1,2],[3,1,2]]",429.9745,0,left,0.6028,430.5984,0.5,0.3,"[3,1,2]",0.304915936,stimuli/card_0_transparent.png,0,0,0,0,0,1,,,,,,,,,,
,,,,65e254b55a2803a51872aef0,B,2024-08-16_15h49.24.216,Slot Machine Game,2023.1.3,Linux x86_64,59.99880002,,,,,,,,,,,,,,,,,,,,,,,,,,,100,,,,,,,,,,,,,,,,,,3,3,,,431.3982,1,up,0.7015,432.1309,0.5,0.3,"[3,1,2]",0.993162474,stimuli/card_100_transparent.png,100,1,0,1,0,1,,,,,,,,,,
,,,,65e254b55a2803a51872aef0,B,2024-08-16_15h49.24.216,Slot Machine Game,2023.1.3,Linux x86_64,59.99880002,,,,,,,,,,,,,,,,,,,,,,,,,,,200,,,,,,,,,,,,,,,,,,3,3,,,432.9308,2,up,0.5171,433.4804,0.5,0.3,"[3,1,2]",0.39484761,stimuli/card_100_transparent.png,100,2,0,2,0,1,,,,,,,,,,
,,,,65e254b55a2803a51872aef0,B,2024-08-16_15h49.24.216,Slot Machine Game,2023.1.3,Linux x86_64,59.99880002,,,,,,,,,,,,,,,,,,,,,,,,,,,300,,,,,,,,,,,,,,,,,,3,3,,,434.2808,3,up,0.8013,435.1128,1.5,0.3,"[3,1,2]",0.899452074,stimuli/card_100_transparent.png,100,3,0,3,0,1,,,,,,,,,,
,,,,65e254b55a2803a51872aef0,B,2024-08-16_15h49.24.216,Slot Machine Game,2023.1.3,Linux x86_64,59.99880002,,,,,,,,,,,,,,,,,,,,,,,,,,,400,,,,,,,,,,,,,,,,,,3,3,,,436.9121,4,up,0.6863,437.6288,1.5,0.3,"[3,1,2]",0.620969033,stimuli/card_100_transparent.png,100,4,0,4,0,1,,,,,,,,,,
,,,,65e254b55a2803a51872aef0,B,2024-08-16_15h49.24.216,Slot Machine Game,2023.1.3,Linux x86_64,59.99880002,,,,,,,,,,,,,,,,,,,,,,,,,,,500,,,,,,,,,,,,,,,,,,3,3,,,439.4284,5,up,0.6683,440.1268,0.5,0.3,"[3,1,2]",0.602440019,stimuli/card_100_transparent.png,100,5,0,5,0,1,,,,,,,,,,
,,,,65e254b55a2803a51872aef0,B,2024-08-16_15h49.24.216,Slot Machine Game,2023.1.3,Linux x86_64,59.99880002,,,,,,,,,,,,,,,,,,,,,,,,,,,600,,,,,,,,,,,,,,,,,,3,3,,,440.9272,6,up,0.5014,441.4598,1,0.3,"[3,1,2]",0.940508389,stimuli/card_100_transparent.png,100,6,0,6,0,1,,,,,,,,,,
,,,,65e254b55a2803a51872aef0,B,2024-08-16_15h49.24.216,Slot Machine Game,2023.1.3,Linux x86_64,59.99880002,,,,,,,,,,,,,,,,,,,,,,,,,,,700,,,,,,,,,,,,,,,,,,3,3,,,442.7594,7,up,0.7184,443.5085,1,0.3,"[3,1,2]",0.705505976,stimuli/card_100_transparent.png,100,7,0,7,0,1,,,,,,,,,,
,,,,65e254b55a2803a51872aef0,B,2024-08-16_15h49.24.216,Slot Machine Game,2023.1.3,Linux x86_64,59.99880002,,,,,,,,,,,,,,,,,,,,,,,,,,,700,,,,,,,,,,,,,,,,,,3,3,,,444.8086,8,up,0.7512,445.592,1.5,0.3,"[3,1,2]",0.045087106,stimuli/card_0_transparent.png,0,8,0,8,0,1,,,,,,,,,,
,,,,65e254b55a2803a51872aef0,B,2024-08-16_15h49.24.216,Slot Machine Game,2023.1.3,Linux x86_64,59.99880002,,,,,,,,,,,,,,,,,,,,,,,,,,,800,,,,,,,,,,,,,,,,,,3,3,,,447.3899,9,right,0.5176,447.9399,0.5,0.3,"[3,1,2]",0.157928485,stimuli/card_100_transparent.png,100,9,0,9,0,1,,,,,,,,,,
,,,,65e254b55a2803a51872aef0,B,2024-08-16_15h49.24.216,Slot Machine Game,2023.1.3,Linux x86_64,59.99880002,,,,,,,,,,,,,,,,,,,,,,,,,,,810,,,,,,,,,,,,,,,,,,3,3,,,448.7396,10,right,0.7009,449.4728,1.5,0.3,"[3,1,2]",0.886441737,stimuli/card_10_transparent.png,10,10,0,10,0,1,,,,,,,,,,
,,,,65e254b55a2803a51872aef0,B,2024-08-16_15h49.24.216,Slot Machine Game,2023.1.3,Linux x86_64,59.99880002,,,,,,,,,,,,,,,,,,,,,,,,,,,820,,,,,,,,,,,,,,,,,,3,3,,,451.2716,11,right,0.5844,451.8873,1,0.3,"[3,1,2]",0.242079701,stimuli/card_10_transparent.png,10,11,0,11,0,1,,,,,,,,,,
,,,,65e254b55a2803a51872aef0,B,2024-08-16_15h49.24.216,Slot Machine Game,2023.1.3,Linux x86_64,59.99880002,,,,,,,,,,,,,,,,,,,,,,,,,,,920,,,,,,,,,,,,,,,,,,3,3,,,453.1886,12,left,0.5516,453.7703,1.5,0.3,"[3,1,2]",0.069259643,stimuli/card_100_transparent.png,100,12,0,12,0,1,,,,,,,,,,
,,,,65e254b55a2803a51872aef0,B,2024-08-16_15h49.24.216,Slot Machine Game,2023.1.3,Linux x86_64,59.99880002,,,,,,,,,,,,,,,,,,,,,,,,,,,920,,,,,,,,,,,,,,,,,,3,3,,,455.5692,13,left,0.5844,456.185,1.5,0.3,"[3,1,2]",0.563723007,stimuli/card_0_transparent.png,0,13,0,13,0,1,,,,,,,,,,
,,,,65e254b55a2803a51872aef0,B,2024-08-16_15h49.24.216,Slot Machine Game,2023.1.3,Linux x86_64,59.99880002,,,,,,,,,,,,,,,,,,,,,,,,,,,920,,,,,,,,,,,,,,,,,,3,3,,,457.9855,14,left,0.7349,458.7503,1.5,0.3,"[3,1,2]",0.72293517,stimuli/card_0_transparent.png,0,14,0,14,0,1,,,,,,,,,,
,,,,65e254b55a2803a51872aef0,B,2024-08-16_15h49.24.216,Slot Machine Game,2023.1.3,Linux x86_64,59.99880002,,,,,,,,,,,,,,,,,,,,,,,,,,,,,,,,,,460.5501,,,,,,,,,,,,,,,,,,,,,,,,,,,,,,,"[840,920,920]",2,0,2,0,1,,,,
,,,,65e254b55a2803a51872aef0,B,2024-08-16_15h49.24.216,Slot Machine Game,2023.1.3,Linux x86_64,59.99880002,,,,,,,,,,,,,,,,,,,,,,,,,,,100,,,,,,,,,,,,,,,,,,4,4,"[7,15]","[[2,3,1],[1,2,3]]",465.5737,0,left,0.6871,466.2986,0.5,0.3,"[2,3,1]",0.118239274,stimuli/card_100_transparent.png,100,0,0,0,0,1,,,,,,,,,,
,,,,65e254b55a2803a51872aef0,B,2024-08-16_15h49.24.216,Slot Machine Game,2023.1.3,Linux x86_64,59.99880002,,,,,,,,,,,,,,,,,,,,,,,,,,,110,,,,,,,,,,,,,,,,,,4,4,,,467.0976,1,left,0.6006,467.729,1.5,0.3,"[2,3,1]",0.572796871,stimuli/card_10_transparent.png,10,1,0,1,0,1,,,,,,,,,,
,,,,65e254b55a2803a51872aef0,B,2024-08-16_15h49.24.216,Slot Machine Game,2023.1.3,Linux x86_64,59.99880002,,,,,,,,,,,,,,,,,,,,,,,,,,,210,,,,,,,,,,,,,,,,,,4,4,,,469.5289,2,up,0.5014,470.0613,1.5,0.3,"[2,3,1]",0.018639466,stimuli/card_100_transparent.png,100,2,0,2,0,1,,,,,,,,,,
,,,,65e254b55a2803a51872aef0,B,2024-08-16_15h49.24.216,Slot Machine Game,2023.1.3,Linux x86_64,59.99880002,,,,,,,,,,,,,,,,,,,,,,,,,,,210,,,,,,,,,,,,,,,,,,4,4,,,471.8608,3,up,0.7014,472.5956,1,0.3,"[2,3,1]",0.69929193,stimuli/card_0_transparent.png,0,3,0,3,0,1,,,,,,,,,,
,,,,65e254b55a2803a51872aef0,B,2024-08-16_15h49.24.216,Slot Machine Game,2023.1.3,Linux x86_64,59.99880002,,,,,,,,,,,,,,,,,,,,,,,,,,,210,,,,,,,,,,,,,,,,,,4,4,,,473.8932,4,up,0.6675,474.5921,0.5,0.3,"[2,3,1]",0.706165802,stimuli/card_0_transparent.png,0,4,0,4,0,1,,,,,,,,,,
,,,,65e254b55a2803a51872aef0,B,2024-08-16_15h49.24.216,Slot Machine Game,2023.1.3,Linux x86_64,59.99880002,,,,,,,,,,,,,,,,,,,,,,,,,,,220,,,,,,,,,,,,,,,,,,4,4,,,475.3928,5,left,0.7394,476.159,0.5,0.3,"[2,3,1]",0.856313723,stimuli/card_10_transparent.png,10,5,0,5,0,1,,,,,,,,,,
,,,,65e254b55a2803a51872aef0,B,2024-08-16_15h49.24.216,Slot Machine Game,2023.1.3,Linux x86_64,59.99880002,,,,,,,,,,,,,,,,,,,,,,,,,,,320,,,,,,,,,,,,,,,,,,4,4,,,476.9581,6,right,0.6074,477.5939,1,0.3,"[2,3,1]",0.946484645,stimuli/card_100_transparent.png,100,6,0,6,0,1,,,,,,,,,,
,,,,65e254b55a2803a51872aef0,B,2024-08-16_15h49.24.216,Slot Machine Game,2023.1.3,Linux x86_64,59.99880002,,,,,,,,,,,,,,,,,,,,,,,,,,,320,,,,,,,,,,,,,,,,,,4,4,,,478.8923,7,right,0.6891,479.6077,1,0.3,"[1,2,3]",0.466624008,stimuli/card_0_transparent.png,0,7,0,7,0,1,,,,,,,,,,
,,,,65e254b55a2803a51872aef0,B,2024-08-16_15h49.24.216,Slot Machine Game,2023.1.3,Linux x86_64,59.99880002,,,,,,,,,,,,,,,,,,,,,,,,,,,320,,,,,,,,,,,,,,,,,,4,4,,,480.9066,8,right,1.368,482.3055,1,0.3,"[1,2,3]",0.893599604,stimuli/card_0_transparent.png,0,8,0,8,0,1,,,,,,,,,,
,,,,65e254b55a2803a51872aef0,B,2024-08-16_15h49.24.216,Slot Machine Game,2023.1.3,Linux x86_64,59.99880002,,,,,,,,,,,,,,,,,,,,,,,,,,,420,,,,,,,,,,,,,,,,,,4,4,,,483.6043,9,up,0.5193,484.1551,0.5,0.3,"[1,2,3]",0.165615915,stimuli/card_100_transparent.png,100,9,0,9,0,1,,,,,,,,,,
,,,,65e254b55a2803a51872aef0,B,2024-08-16_15h49.24.216,Slot Machine Game,2023.1.3,Linux x86_64,59.99880002,,,,,,,,,,,,,,,,,,,,,,,,,,,430,,,,,,,,,,,,,,,,,,4,4,,,484.9535,10,up,0.5011,485.4866,0.5,0.3,"[1,2,3]",0.915920731,stimuli/card_10_transparent.png,10,10,0,10,0,1,,,,,,,,,,
,,,,65e254b55a2803a51872aef0,B,2024-08-16_15h49.24.216,Slot Machine Game,2023.1.3,Linux x86_64,59.99880002,,,,,,,,,,,,,,,,,,,,,,,,,,,530,,,,,,,,,,,,,,,,,,4,4,,,486.2865,11,left,0.7519,487.0689,1,0.3,"[1,2,3]",0.221974888,stimuli/card_100_transparent.png,100,11,0,11,0,1,,,,,,,,,,
,,,,65e254b55a2803a51872aef0,B,2024-08-16_15h49.24.216,Slot Machine Game,2023.1.3,Linux x86_64,59.99880002,,,,,,,,,,,,,,,,,,,,,,,,,,,630,,,,,,,,,,,,,,,,,,4,4,,,488.3689,12,left,0.6509,489.0517,0.5,0.3,"[1,2,3]",0.39961568,stimuli/card_100_transparent.png,100,12,0,12,0,1,,,,,,,,,,
,,,,65e254b55a2803a51872aef0,B,2024-08-16_15h49.24.216,Slot Machine Game,2023.1.3,Linux x86_64,59.99880002,,,,,,,,,,,,,,,,,,,,,,,,,,,630,,,,,,,,,,,,,,,,,,4,4,,,489.8509,13,left,0.7689,490.6506,1,0.3,"[1,2,3]",0.054239283,stimuli/card_0_transparent.png,0,13,0,13,0,1,,,,,,,,,,
,,,,65e254b55a2803a51872aef0,B,2024-08-16_15h49.24.216,Slot Machine Game,2023.1.3,Linux x86_64,59.99880002,,,,,,,,,,,,,,,,,,,,,,,,,,,630,,,,,,,,,,,,,,,,,,4,4,,,491.9504,14,right,0.5674,492.5499,1,0.3,"[1,2,3]",0.61708831,stimuli/card_0_transparent.png,0,14,0,14,0,1,,,,,,,,,,
,,,,65e254b55a2803a51872aef0,B,2024-08-16_15h49.24.216,Slot Machine Game,2023.1.3,Linux x86_64,59.99880002,,,,,,,,,,,,,,,,,,,,,,,,,,,,,,,,,,493.849,,,,,,,,,,,,,,,,,,,,,,,,,,,,,,,"[840,920,920,630]",3,0,3,0,1,,,,
,,,,65e254b55a2803a51872aef0,B,2024-08-16_15h49.24.216,Slot Machine Game,2023.1.3,Linux x86_64,59.99880002,,,,,,,,,,,,,,,,,,,,,,,,,,,10,,,,,,,,,,,,,,,,,,5,5,"[5,15]","[[1,2,3],[3,1,2]]",498.8741,0,up,0.5536,499.443,0.5,0.3,"[1,2,3]",0.349498146,stimuli/card_10_transparent.png,10,0,0,0,0,1,,,,,,,,,,
,,,,65e254b55a2803a51872aef0,B,2024-08-16_15h49.24.216,Slot Machine Game,2023.1.3,Linux x86_64,59.99880002,,,,,,,,,,,,,,,,,,,,,,,,,,,110,,,,,,,,,,,,,,,,,,5,5,,,500.2454,1,left,0.6481,500.9348,1.5,0.3,"[1,2,3]",0.306591729,stimuli/card_100_transparent.png,100,1,0,1,0,1,,,,,,,,,,
,,,,65e254b55a2803a51872aef0,B,2024-08-16_15h49.24.216,Slot Machine Game,2023.1.3,Linux x86_64,59.99880002,,,,,,,,,,,,,,,,,,,,,,,,,,,210,,,,,,,,,,,,,,,,,,5,5,,,502.7285,2,left,0.8516,503.6116,1.5,0.3,"[1,2,3]",0.326489167,stimuli/card_100_transparent.png,100,2,0,2,0,1,,,,,,,,,,
,,,,65e254b55a2803a51872aef0,B,2024-08-16_15h49.24.216,Slot Machine Game,2023.1.3,Linux x86_64,59.99880002,,,,,,,,,,,,,,,,,,,,,,,,,,,310,,,,,,,,,,,,,,,,,,5,5,,,505.4099,3,left,0.6516,506.0932,0.5,0.3,"[1,2,3]",0.411357191,stimuli/card_100_transparent.png,100,3,0,3,0,1,,,,,,,,,,
,,,,65e254b55a2803a51872aef0,B,2024-08-16_15h49.24.216,Slot Machine Game,2023.1.3,Linux x86_64,59.99880002,,,,,,,,,,,,,,,,,,,,,,,,,,,410,,,,,,,,,,,,,,,,,,5,5,,,506.8925,4,left,0.6515,507.5753,1,0.3,"[1,2,3]",0.402264894,stimuli/card_100_transparent.png,100,4,0,4,0,1,,,,,,,,,,
,,,,65e254b55a2803a51872aef0,B,2024-08-16_15h49.24.216,Slot Machine Game,2023.1.3,Linux x86_64,59.99880002,,,,,,,,,,,,,,,,,,,,,,,,,,,410,,,,,,,,,,,,,,,,,,5,5,,,508.8748,5,left,0.5672,509.4741,0.5,0.3,"[3,1,2]",0.500877753,stimuli/card_0_transparent.png,0,5,0,5,0,1,,,,,,,,,,
,,,,65e254b55a2803a51872aef0,B,2024-08-16_15h49.24.216,Slot Machine Game,2023.1.3,Linux x86_64,59.99880002,,,,,,,,,,,,,,,,,,,,,,,,,,,420,,,,,,,,,,,,,,,,,,5,5,,,510.2741,6,right,1.1027,511.4071,1.5,0.3,"[3,1,2]",0.859647819,stimuli/card_10_transparent.png,10,6,0,6,0,1,,,,,,,,,,
,,,,65e254b55a2803a51872aef0,B,2024-08-16_15h49.24.216,Slot Machine Game,2023.1.3,Linux x86_64,59.99880002,,,,,,,,,,,,,,,,,,,,,,,,,,,520,,,,,,,,,,,,,,,,,,5,5,,,513.2061,7,up,0.5019,513.7396,0.5,0.3,"[3,1,2]",0.859372266,stimuli/card_100_transparent.png,100,7,0,7,0,1,,,,,,,,,,
,,,,65e254b55a2803a51872aef0,B,2024-08-16_15h49.24.216,Slot Machine Game,2023.1.3,Linux x86_64,59.99880002,,,,,,,,,,,,,,,,,,,,,,,,,,,530,,,,,,,,,,,,,,,,,,5,5,,,514.54,8,up,0.6212,515.1881,1,0.3,"[3,1,2]",0.180156061,stimuli/card_10_transparent.png,10,8,0,8,0,1,,,,,,,,,,
,,,,65e254b55a2803a51872aef0,B,2024-08-16_15h49.24.216,Slot Machine Game,2023.1.3,Linux x86_64,59.99880002,,,,,,,,,,,,,,,,,,,,,,,,,,,540,,,,,,,,,,,,,,,,,,5,5,,,516.4819,9,right,0.5846,517.0877,0.5,0.3,"[3,1,2]",0.691392494,stimuli/card_10_transparent.png,10,9,0,9,0,1,,,,,,,,,,
,,,,65e254b55a2803a51872aef0,B,2024-08-16_15h49.24.216,Slot Machine Game,2023.1.3,Linux x86_64,59.99880002,,,,,,,,,,,,,,,,,,,,,,,,,,,640,,,,,,,,,,,,,,,,,,5,5,,,517.8878,10,left,0.9508,518.8692,1.5,0.3,"[3,1,2]",0.021209405,stimuli/card_100_transparent.png,100,10,0,10,0,1,,,,,,,,,,
,,,,65e254b55a2803a51872aef0,B,2024-08-16_15h49.24.216,Slot Machine Game,2023.1.3,Linux x86_64,59.99880002,,,,,,,,,,,,,,,,,,,,,,,,,,,640,,,,,,,,,,,,,,,,,,5,5,,,520.6684,11,left,0.5525,521.2515,1,0.3,"[3,1,2]",0.855050265,stimuli/card_0_transparent.png,0,11,0,11,0,1,,,,,,,,,,
,,,,65e254b55a2803a51872aef0,B,2024-08-16_15h49.24.216,Slot Machine Game,2023.1.3,Linux x86_64,59.99880002,,,,,,,,,,,,,,,,,,,,,,,,,,,640,,,,,,,,,,,,,,,,,,5,5,,,522.5511,12,left,0.6178,523.1836,1,0.3,"[3,1,2]",0.445326574,stimuli/card_0_transparent.png,0,12,0,12,0,1,,,,,,,,,,
,,,,65e254b55a2803a51872aef0,B,2024-08-16_15h49.24.216,Slot Machine Game,2023.1.3,Linux x86_64,59.99880002,,,,,,,,,,,,,,,,,,,,,,,,,,,740,,,,,,,,,,,,,,,,,,5,5,,,524.4834,13,up,0.5175,525.033,0.5,0.3,"[3,1,2]",0.398820057,stimuli/card_100_transparent.png,100,13,0,13,0,1,,,,,,,,,,
,,,,65e254b55a2803a51872aef0,B,2024-08-16_15h49.24.216,Slot Machine Game,2023.1.3,Linux x86_64,59.99880002,,,,,,,,,,,,,,,,,,,,,,,,,,,840,,,,,,,,,,,,,,,,,,5,5,,,525.8325,14,up,0.7356,526.599,0.5,0.3,"[3,1,2]",0.386462701,stimuli/card_100_transparent.png,100,14,0,14,0,1,,,,,,,,,,
,,,,65e254b55a2803a51872aef0,B,2024-08-16_15h49.24.216,Slot Machine Game,2023.1.3,Linux x86_64,59.99880002,,,,,,,,,,,,,,,,,,,,,,,,,,,,,,,,,,527.3981,,,,,,,,,,,,,,,,,,,,,,,,,,,,,,,"[840,920,920,630,840]",4,0,4,0,1,,,,
,,,,65e254b55a2803a51872aef0,B,2024-08-16_15h49.24.216,Slot Machine Game,2023.1.3,Linux x86_64,59.99880002,,,,,,,,,,,,,,,,,,,,,,,,,,,10,,,,,,,,,,,,,,,,,,6,6,"[4,10,15]","[[2,3,1],[1,3,2],[3,2,1]]",532.4217,0,left,0.6981,533.1504,1.5,0.3,"[2,3,1]",0.275666207,stimuli/card_10_transparent.png,10,0,0,0,0,1,,,,,,,,,,
,,,,65e254b55a2803a51872aef0,B,2024-08-16_15h49.24.216,Slot Machine Game,2023.1.3,Linux x86_64,59.99880002,,,,,,,,,,,,,,,,,,,,,,,,,,,10,,,,,,,,,,,,,,,,,,6,6,,,534.9478,1,up,0.7122,535.7001,1.5,0.3,"[2,3,1]",0.989679465,stimuli/card_0_transparent.png,0,1,0,1,0,1,,,,,,,,,,
,,,,65e254b55a2803a51872aef0,B,2024-08-16_15h49.24.216,Slot Machine Game,2023.1.3,Linux x86_64,59.99880002,,,,,,,,,,,,,,,,,,,,,,,,,,,110,,,,,,,,,,,,,,,,,,6,6,,,537.4935,2,right,0.5843,538.1091,1.5,0.3,"[2,3,1]",0.221547843,stimuli/card_100_transparent.png,100,2,0,2,0,1,,,,,,,,,,
,,,,65e254b55a2803a51872aef0,B,2024-08-16_15h49.24.216,Slot Machine Game,2023.1.3,Linux x86_64,59.99880002,,,,,,,,,,,,,,,,,,,,,,,,,,,210,,,,,,,,,,,,,,,,,,6,6,,,539.9112,3,right,0.6341,540.5741,0.5,0.3,"[2,3,1]",0.437644605,stimuli/card_100_transparent.png,100,3,0,3,0,1,,,,,,,,,,
,,,,65e254b55a2803a51872aef0,B,2024-08-16_15h49.24.216,Slot Machine Game,2023.1.3,Linux x86_64,59.99880002,,,,,,,,,,,,,,,,,,,,,,,,,,,220,,,,,,,,,,,,,,,,,,6,6,,,541.3755,4,right,0.5512,541.9569,1,0.3,"[1,3,2]",0.334647358,stimuli/card_10_transparent.png,10,4,0,4,0,1,,,,,,,,,,
,,,,65e254b55a2803a51872aef0,B,2024-08-16_15h49.24.216,Slot Machine Game,2023.1.3,Linux x86_64,59.99880002,,,,,,,,,,,,,,,,,,,,,,,,,,,220,,,,,,,,,,,,,,,,,,6,6,,,543.2569,5,up,0.685,543.9736,1,0.3,"[1,3,2]",0.800518502,stimuli/card_0_transparent.png,0,5,0,5,0,1,,,,,,,,,,
,,,,65e254b55a2803a51872aef0,B,2024-08-16_15h49.24.216,Slot Machine Game,2023.1.3,Linux x86_64,59.99880002,,,,,,,,,,,,,,,,,,,,,,,,,,,320,,,,,,,,,,,,,,,,,,6,6,,,545.2742,6,left,0.6182,545.9217,0.5,0.3,"[1,3,2]",0.244879457,stimuli/card_100_transparent.png,100,6,0,6,0,1,,,,,,,,,,
,,,,65e254b55a2803a51872aef0,B,2024-08-16_15h49.24.216,Slot Machine Game,2023.1.3,Linux x86_64,59.99880002,,,,,,,,,,,,,,,,,,,,,,,,,,,420,,,,,,,,,,,,,,,,,,6,6,,,546.7221,7,left,0.5512,547.3049,1,0.3,"[1,3,2]",0.968726115,stimuli/card_100_transparent.png,100,7,0,7,0,1,,,,,,,,,,
,,,,65e254b55a2803a51872aef0,B,2024-08-16_15h49.24.216,Slot Machine Game,2023.1.3,Linux x86_64,59.99880002,,,,,,,,,,,,,,,,,,,,,,,,,,,520,,,,,,,,,,,,,,,,,,6,6,,,548.6042,8,left,0.7178,549.3534,0.5,0.3,"[1,3,2]",0.96390286,stimuli/card_100_transparent.png,100,8,0,8,0,1,,,,,,,,,,
,,,,65e254b55a2803a51872aef0,B,2024-08-16_15h49.24.216,Slot Machine Game,2023.1.3,Linux x86_64,59.99880002,,,,,,,,,,,,,,,,,,,,,,,,,,,620,,,,,,,,,,,,,,,,,,6,6,,,550.1542,9,left,0.7702,550.9528,0.5,0.3,"[1,3,2]",0.37420315,stimuli/card_100_transparent.png,100,9,0,9,0,1,,,,,,,,,,
,,,,65e254b55a2803a51872aef0,B,2024-08-16_15h49.24.216,Slot Machine Game,2023.1.3,Linux x86_64,59.99880002,,,,,,,,,,,,,,,,,,,,,,,,,,,620,,,,,,,,,,,,,,,,,,6,6,,,551.7528,10,left,0.5183,552.3021,1,0.3,"[3,2,1]",0.223140132,stimuli/card_0_transparent.png,0,10,0,10,0,1,,,,,,,,,,
,,,,65e254b55a2803a51872aef0,B,2024-08-16_15h49.24.216,Slot Machine Game,2023.1.3,Linux x86_64,59.99880002,,,,,,,,,,,,,,,,,,,,,,,,,,,630,,,,,,,,,,,,,,,,,,6,6,,,553.6024,11,up,0.6716,554.3017,1,0.3,"[3,2,1]",0.858902749,stimuli/card_10_transparent.png,10,11,0,11,0,1,,,,,,,,,,
,,,,65e254b55a2803a51872aef0,B,2024-08-16_15h49.24.216,Slot Machine Game,2023.1.3,Linux x86_64,59.99880002,,,,,,,,,,,,,,,,,,,,,,,,,,,730,,,,,,,,,,,,,,,,,,6,6,,,555.6008,12,right,0.6677,556.2997,1,0.3,"[3,2,1]",0.283521057,stimuli/card_100_transparent.png,100,12,0,12,0,1,,,,,,,,,,
,,,,65e254b55a2803a51872aef0,B,2024-08-16_15h49.24.216,Slot Machine Game,2023.1.3,Linux x86_64,59.99880002,,,,,,,,,,,,,,,,,,,,,,,,,,,830,,,,,,,,,,,,,,,,,,6,6,,,557.6005,13,right,0.6512,558.2832,1,0.3,"[3,2,1]",0.238682766,stimuli/card_100_transparent.png,100,13,0,13,0,1,,,,,,,,,,
,,,,65e254b55a2803a51872aef0,B,2024-08-16_15h49.24.216,Slot Machine Game,2023.1.3,Linux x86_64,59.99880002,,,,,,,,,,,,,,,,,,,,,,,,,,,930,,,,,,,,,,,,,,,,,,6,6,,,559.5815,14,right,0.6366,560.2478,1.5,0.3,"[3,2,1]",0.441760721,stimuli/card_100_transparent.png,100,14,0,14,0,1,,,,,,,,,,
,,,,65e254b55a2803a51872aef0,B,2024-08-16_15h49.24.216,Slot Machine Game,2023.1.3,Linux x86_64,59.99880002,,,,,,,,,,,,,,,,,,,,,,,,,,,,,,,,,,562.0476,,,,,,,,,,,,,,,,,,,,,,,,,,,,,,,"[840,920,920,630,840,930]",5,0,5,0,1,,,,
,,,,65e254b55a2803a51872aef0,B,2024-08-16_15h49.24.216,Slot Machine Game,2023.1.3,Linux x86_64,59.99880002,,,,,,,,,,,,,,,,,,,,,,,,,,,100,,,,,,,,,,,,,,,,,,7,7,"[9,15]","[[1,3,2],[2,3,1]]",567.0691,0,left,1.0148,568.1036,1.5,0.3,"[1,3,2]",0.612228993,stimuli/card_100_transparent.png,100,0,0,0,0,1,,,,,,,,,,
,,,,65e254b55a2803a51872aef0,B,2024-08-16_15h49.24.216,Slot Machine Game,2023.1.3,Linux x86_64,59.99880002,,,,,,,,,,,,,,,,,,,,,,,,,,,110,,,,,,,,,,,,,,,,,,7,7,,,569.8926,1,left,0.6682,570.5941,0.5,0.3,"[1,3,2]",0.111355962,stimuli/card_10_transparent.png,10,1,0,1,0,1,,,,,,,,,,
,,,,65e254b55a2803a51872aef0,B,2024-08-16_15h49.24.216,Slot Machine Game,2023.1.3,Linux x86_64,59.99880002,,,,,,,,,,,,,,,,,,,,,,,,,,,120,,,,,,,,,,,,,,,,,,7,7,,,571.3935,2,up,0.5679,571.9921,1,0.3,"[1,3,2]",0.105707449,stimuli/card_10_transparent.png,10,2,0,2,0,1,,,,,,,,,,
,,,,65e254b55a2803a51872aef0,B,2024-08-16_15h49.24.216,Slot Machine Game,2023.1.3,Linux x86_64,59.99880002,,,,,,,,,,,,,,,,,,,,,,,,,,,130,,,,,,,,,,,,,,,,,,7,7,,,573.2908,3,right,0.6706,573.9926,1,0.3,"[1,3,2]",0.502580193,stimuli/card_10_transparent.png,10,3,0,3,0,1,,,,,,,,,,
,,,,65e254b55a2803a51872aef0,B,2024-08-16_15h49.24.216,Slot Machine Game,2023.1.3,Linux x86_64,59.99880002,,,,,,,,,,,,,,,,,,,,,,,,,,,230,,,,,,,,,,,,,,,,,,7,7,,,575.2903,4,left,0.7512,576.073,0.5,0.3,"[1,3,2]",0.608160509,stimuli/card_100_transparent.png,100,4,0,4,0,1,,,,,,,,,,
,,,,65e254b55a2803a51872aef0,B,2024-08-16_15h49.24.216,Slot Machine Game,2023.1.3,Linux x86_64,59.99880002,,,,,,,,,,,,,,,,,,,,,,,,,,,330,,,,,,,,,,,,,,,,,,7,7,,,576.8725,5,left,0.5224,577.4227,0.5,0.3,"[1,3,2]",0.948052315,stimuli/card_100_transparent.png,100,5,0,5,0,1,,,,,,,,,,
,,,,65e254b55a2803a51872aef0,B,2024-08-16_15h49.24.216,Slot Machine Game,2023.1.3,Linux x86_64,59.99880002,,,,,,,,,,,,,,,,,,,,,,,,,,,430,,,,,,,,,,,,,,,,,,7,7,,,578.2215,6,left,0.7673,579.021,1.5,0.3,"[1,3,2]",0.754127499,stimuli/card_100_transparent.png,100,6,0,6,0,1,,,,,,,,,,
,,,,65e254b55a2803a51872aef0,B,2024-08-16_15h49.24.216,Slot Machine Game,2023.1.3,Linux x86_64,59.99880002,,,,,,,,,,,,,,,,,,,,,,,,,,,430,,,,,,,,,,,,,,,,,,7,7,,,580.8208,7,left,0.7184,581.5702,0.5,0.3,"[1,3,2]",0.066569098,stimuli/card_0_transparent.png,0,7,0,7,0,1,,,,,,,,,,
,,,,65e254b55a2803a51872aef0,B,2024-08-16_15h49.24.216,Slot Machine Game,2023.1.3,Linux x86_64,59.99880002,,,,,,,,,,,,,,,,,,,,,,,,,,,430,,,,,,,,,,,,,,,,,,7,7,,,582.3694,8,up,0.5376,582.9194,1,0.3,"[1,3,2]",0.58547522,stimuli/card_0_transparent.png,0,8,0,8,0,1,,,,,,,,,,
,,,,65e254b55a2803a51872aef0,B,2024-08-16_15h49.24.216,Slot Machine Game,2023.1.3,Linux x86_64,59.99880002,,,,,,,,,,,,,,,,,,,,,,,,,,,530,,,,,,,,,,,,,,,,,,7,7,,,584.2186,9,right,0.7362,584.9849,1,0.3,"[2,3,1]",0.460797252,stimuli/card_100_transparent.png,100,9,0,9,0,1,,,,,,,,,,
,,,,65e254b55a2803a51872aef0,B,2024-08-16_15h49.24.216,Slot Machine Game,2023.1.3,Linux x86_64,59.99880002,,,,,,,,,,,,,,,,,,,,,,,,,,,630,,,,,,,,,,,,,,,,,,7,7,,,586.2853,10,right,0.7696,587.0841,1.5,0.3,"[2,3,1]",0.743309275,stimuli/card_100_transparent.png,100,10,0,10,0,1,,,,,,,,,,
,,,,65e254b55a2803a51872aef0,B,2024-08-16_15h49.24.216,Slot Machine Game,2023.1.3,Linux x86_64,59.99880002,,,,,,,,,,,,,,,,,,,,,,,,,,,730,,,,,,,,,,,,,,,,,,7,7,,,588.8833,11,right,0.6677,589.582,0.5,0.3,"[2,3,1]",0.242429952,stimuli/card_100_transparent.png,100,11,0,11,0,1,,,,,,,,,,
,,,,65e254b55a2803a51872aef0,B,2024-08-16_15h49.24.216,Slot Machine Game,2023.1.3,Linux x86_64,59.99880002,,,,,,,,,,,,,,,,,,,,,,,,,,,830,,,,,,,,,,,,,,,,,,7,7,,,590.3821,12,right,0.7012,591.1154,1.5,0.3,"[2,3,1]",0.895739795,stimuli/card_100_transparent.png,100,12,0,12,0,1,,,,,,,,,,
,,,,65e254b55a2803a51872aef0,B,2024-08-16_15h49.24.216,Slot Machine Game,2023.1.3,Linux x86_64,59.99880002,,,,,,,,,,,,,,,,,,,,,,,,,,,930,,,,,,,,,,,,,,,,,,7,7,,,592.9147,13,right,0.6349,593.5803,0.5,0.3,"[2,3,1]",0.695796169,stimuli/card_100_transparent.png,100,13,0,13,0,1,,,,,,,,,,
,,,,65e254b55a2803a51872aef0,B,2024-08-16_15h49.24.216,Slot Machine Game,2023.1.3,Linux x86_64,59.99880002,,,,,,,,,,,,,,,,,,,,,,,,,,,930,,,,,,,,,,,,,,,,,,7,7,,,594.3807,14,right,0.7178,595.1302,1,0.3,"[2,3,1]",0.06257498,stimuli/card_0_transparent.png,0,14,0,14,0,1,,,,,,,,,,
,,,,65e254b55a2803a51872aef0,B,2024-08-16_15h49.24.216,Slot Machine Game,2023.1.3,Linux x86_64,59.99880002,,,,,,,,,,,,,,,,,,,,,,,,,,,,,,,,,,596.4299,,,,,,,,,,,,,,,,,,,,,,,,,,,,,,,"[840,920,920,630,840,930,930]",6,0,6,0,1,,,,
,,,,65e254b55a2803a51872aef0,B,2024-08-16_15h49.24.216,Slot Machine Game,2023.1.3,Linux x86_64,59.99880002,,,,,,,,,,,,,,,,,,,,,,,,,,,10,,,,,,,,,,,,,,,,,,8,8,"[11,15]","[[2,1,3],[1,2,3]]",601.4518,0,left,0.5665,602.0586,0.5,0.3,"[2,1,3]",0.871786906,stimuli/card_10_transparent.png,10,0,0,0,0,1,,,,,,,,,,
,,,,65e254b55a2803a51872aef0,B,2024-08-16_15h49.24.216,Slot Machine Game,2023.1.3,Linux x86_64,59.99880002,,,,,,,,,,,,,,,,,,,,,,,,,,,110,,,,,,,,,,,,,,,,,,8,8,,,602.8591,1,up,0.5021,603.3918,1,0.3,"[2,1,3]",0.646457898,stimuli/card_100_transparent.png,100,1,0,1,0,1,,,,,,,,,,
,,,,65e254b55a2803a51872aef0,B,2024-08-16_15h49.24.216,Slot Machine Game,2023.1.3,Linux x86_64,59.99880002,,,,,,,,,,,,,,,,,,,,,,,,,,,210,,,,,,,,,,,,,,,,,,8,8,,,604.6925,2,up,0.6914,605.4119,1.5,0.3,"[2,1,3]",0.495345123,stimuli/card_100_transparent.png,100,2,0,2,0,1,,,,,,,,,,
,,,,65e254b55a2803a51872aef0,B,2024-08-16_15h49.24.216,Slot Machine Game,2023.1.3,Linux x86_64,59.99880002,,,,,,,,,,,,,,,,,,,,,,,,,,,310,,,,,,,,,,,,,,,,,,8,8,,,607.2071,3,up,0.651,607.8897,1,0.3,"[2,1,3]",0.235275774,stimuli/card_100_transparent.png,100,3,0,3,0,1,,,,,,,,,,
,,,,65e254b55a2803a51872aef0,B,2024-08-16_15h49.24.216,Slot Machine Game,2023.1.3,Linux x86_64,59.99880002,,,,,,,,,,,,,,,,,,,,,,,,,,,410,,,,,,,,,,,,,,,,,,8,8,,,609.19,4,up,0.6191,609.839,1.5,0.3,"[2,1,3]",0.289187892,stimuli/card_100_transparent.png,100,4,0,4,0,1,,,,,,,,,,
,,,,65e254b55a2803a51872aef0,B,2024-08-16_15h49.24.216,Slot Machine Game,2023.1.3,Linux x86_64,59.99880002,,,,,,,,,,,,,,,,,,,,,,,,,,,410,,,,,,,,,,,,,,,,,,8,8,,,611.6379,5,up,0.6868,612.3542,1,0.3,"[2,1,3]",0.057043403,stimuli/card_0_transparent.png,0,5,0,5,0,1,,,,,,,,,,
,,,,65e254b55a2803a51872aef0,B,2024-08-16_15h49.24.216,Slot Machine Game,2023.1.3,Linux x86_64,59.99880002,,,,,,,,,,,,,,,,,,,,,,,,,,,420,,,,,,,,,,,,,,,,,,8,8,,,613.6537,6,left,0.7016,614.3872,1.5,0.3,"[2,1,3]",0.950306689,stimuli/card_10_transparent.png,10,6,0,6,0,1,,,,,,,,,,
,,,,65e254b55a2803a51872aef0,B,2024-08-16_15h49.24.216,Slot Machine Game,2023.1.3,Linux x86_64,59.99880002,,,,,,,,,,,,,,,,,,,,,,,,,,,420,,,,,,,,,,,,,,,,,,8,8,,,616.1853,7,right,0.6679,616.885,1.5,0.3,"[2,1,3]",0.621105627,stimuli/card_0_transparent.png,0,7,0,7,0,1,,,,,,,,,,
,,,,65e254b55a2803a51872aef0,B,2024-08-16_15h49.24.216,Slot Machine Game,2023.1.3,Linux x86_64,59.99880002,,,,,,,,,,,,,,,,,,,,,,,,,,,420,,,,,,,,,,,,,,,,,,8,8,,,618.6846,8,left,0.7854,619.5,1,0.3,"[2,1,3]",0.065436592,stimuli/card_0_transparent.png,0,8,0,8,0,1,,,,,,,,,,
,,,,65e254b55a2803a51872aef0,B,2024-08-16_15h49.24.216,Slot Machine Game,2023.1.3,Linux x86_64,59.99880002,,,,,,,,,,,,,,,,,,,,,,,,,,,420,,,,,,,,,,,,,,,,,,8,8,,,620.8,9,right,0.6009,621.4321,0.5,0.3,"[2,1,3]",0.772862291,stimuli/card_0_transparent.png,0,9,0,9,0,1,,,,,,,,,,
,,,,65e254b55a2803a51872aef0,B,2024-08-16_15h49.24.216,Slot Machine Game,2023.1.3,Linux x86_64,59.99880002,,,,,,,,,,,,,,,,,,,,,,,,,,,520,,,,,,,,,,,,,,,,,,8,8,,,622.2327,10,up,0.5682,622.8325,1,0.3,"[2,1,3]",0.291031249,stimuli/card_100_transparent.png,100,10,0,10,0,1,,,,,,,,,,
,,,,65e254b55a2803a51872aef0,B,2024-08-16_15h49.24.216,Slot Machine Game,2023.1.3,Linux x86_64,59.99880002,,,,,,,,,,,,,,,,,,,,,,,,,,,530,,,,,,,,,,,,,,,,,,8,8,,,624.1313,11,up,0.5364,624.6973,1.5,0.3,"[1,2,3]",0.465322561,stimuli/card_10_transparent.png,10,11,0,11,0,1,,,,,,,,,,
,,,,65e254b55a2803a51872aef0,B,2024-08-16_15h49.24.216,Slot Machine Game,2023.1.3,Linux x86_64,59.99880002,,,,,,,,,,,,,,,,,,,,,,,,,,,630,,,,,,,,,,,,,,,,,,8,8,,,626.499,12,left,0.6014,627.1297,1.5,0.3,"[1,2,3]",0.307944173,stimuli/card_100_transparent.png,100,12,0,12,0,1,,,,,,,,,,
,,,,65e254b55a2803a51872aef0,B,2024-08-16_15h49.24.216,Slot Machine Game,2023.1.3,Linux x86_64,59.99880002,,,,,,,,,,,,,,,,,,,,,,,,,,,730,,,,,,,,,,,,,,,,,,8,8,,,628.9295,13,left,0.5337,629.4787,1.5,0.3,"[1,2,3]",0.848464866,stimuli/card_100_transparent.png,100,13,0,13,0,1,,,,,,,,,,
,,,,65e254b55a2803a51872aef0,B,2024-08-16_15h49.24.216,Slot Machine Game,2023.1.3,Linux x86_64,59.99880002,,,,,,,,,,,,,,,,,,,,,,,,,,,830,,,,,,,,,,,,,,,,,,8,8,,,631.2772,14,left,0.5698,631.8771,0.5,0.3,"[1,2,3]",0.947462463,stimuli/card_100_transparent.png,100,14,0,14,0,1,,,,,,,,,,
,,,,65e254b55a2803a51872aef0,B,2024-08-16_15h49.24.216,Slot Machine Game,2023.1.3,Linux x86_64,59.99880002,,,,,,,,,,,,,,,,,,,,,,,,,,,,,,,,,,632.6765,,,,,,,,,,,,,,,,,,,,,,,,,,,,,,,"[840,920,920,630,840,930,930,830]",7,0,7,0,1,,,,
,,,,65e254b55a2803a51872aef0,B,2024-08-16_15h49.24.216,Slot Machine Game,2023.1.3,Linux x86_64,59.99880002,,,,,,,,,,,,,,,,,,,,,,,,,,,0,,,,,,,,,,,,,,,,,,9,9,"[8,15]","[[3,2,1],[3,1,2]]",637.7002,0,left,0.5577,638.2885,1.5,0.3,"[3,2,1]",0.791768781,stimuli/card_0_transparent.png,0,0,0,0,0,1,,,,,,,,,,
,,,,65e254b55a2803a51872aef0,B,2024-08-16_15h49.24.216,Slot Machine Game,2023.1.3,Linux x86_64,59.99880002,,,,,,,,,,,,,,,,,,,,,,,,,,,10,,,,,,,,,,,,,,,,,,9,9,,,640.0899,1,up,1.854,641.9726,1.5,0.3,"[3,2,1]",0.465013202,stimuli/card_10_transparent.png,10,1,0,1,0,1,,,,,,,,,,
,,,,65e254b55a2803a51872aef0,B,2024-08-16_15h49.24.216,Slot Machine Game,2023.1.3,Linux x86_64,59.99880002,,,,,,,,,,,,,,,,,,,,,,,,,,,110,,,,,,,,,,,,,,,,,,9,9,,,643.7717,2,right,0.7189,644.5209,1.5,0.3,"[3,2,1]",0.407683704,stimuli/card_100_transparent.png,100,2,0,2,0,1,,,,,,,,,,
,,,,65e254b55a2803a51872aef0,B,2024-08-16_15h49.24.216,Slot Machine Game,2023.1.3,Linux x86_64,59.99880002,,,,,,,,,,,,,,,,,,,,,,,,,,,210,,,,,,,,,,,,,,,,,,9,9,,,646.3198,3,right,0.7006,647.0528,0.5,0.3,"[3,2,1]",0.689947238,stimuli/card_100_transparent.png,100,3,0,3,0,1,,,,,,,,,,
,,,,65e254b55a2803a51872aef0,B,2024-08-16_15h49.24.216,Slot Machine Game,2023.1.3,Linux x86_64,59.99880002,,,,,,,,,,,,,,,,,,,,,,,,,,,310,,,,,,,,,,,,,,,,,,9,9,,,647.8524,4,right,0.6506,648.5347,0.5,0.3,"[3,2,1]",0.325835926,stimuli/card_100_transparent.png,100,4,0,4,0,1,,,,,,,,,,
,,,,65e254b55a2803a51872aef0,B,2024-08-16_15h49.24.216,Slot Machine Game,2023.1.3,Linux x86_64,59.99880002,,,,,,,,,,,,,,,,,,,,,,,,,,,410,,,,,,,,,,,,,,,,,,9,9,,,649.3356,5,right,0.6516,650.0191,1.5,0.3,"[3,2,1]",0.975919521,stimuli/card_100_transparent.png,100,5,0,5,0,1,,,,,,,,,,
,,,,65e254b55a2803a51872aef0,B,2024-08-16_15h49.24.216,Slot Machine Game,2023.1.3,Linux x86_64,59.99880002,,,,,,,,,,,,,,,,,,,,,,,,,,,510,,,,,,,,,,,,,,,,,,9,9,,,651.8173,6,right,0.7193,652.5658,1.5,0.3,"[3,2,1]",0.397235805,stimuli/card_100_transparent.png,100,6,0,6,0,1,,,,,,,,,,
,,,,65e254b55a2803a51872aef0,B,2024-08-16_15h49.24.216,Slot Machine Game,2023.1.3,Linux x86_64,59.99880002,,,,,,,,,,,,,,,,,,,,,,,,,,,610,,,,,,,,,,,,,,,,,,9,9,,,654.3664,7,right,0.6206,655.0159,1,0.3,"[3,2,1]",0.438041759,stimuli/card_100_transparent.png,100,7,0,7,0,1,,,,,,,,,,
,,,,65e254b55a2803a51872aef0,B,2024-08-16_15h49.24.216,Slot Machine Game,2023.1.3,Linux x86_64,59.99880002,,,,,,,,,,,,,,,,,,,,,,,,,,,620,,,,,,,,,,,,,,,,,,9,9,,,656.3148,8,right,0.6341,656.9811,1,0.3,"[3,1,2]",0.793285151,stimuli/card_10_transparent.png,10,8,0,8,0,1,,,,,,,,,,
,,,,65e254b55a2803a51872aef0,B,2024-08-16_15h49.24.216,Slot Machine Game,2023.1.3,Linux x86_64,59.99880002,,,,,,,,,,,,,,,,,,,,,,,,,,,620,,,,,,,,,,,,,,,,,,9,9,,,658.2802,9,left,0.706,658.9975,1,0.3,"[3,1,2]",0.996555927,stimuli/card_0_transparent.png,0,9,0,9,0,1,,,,,,,,,,
,,,,65e254b55a2803a51872aef0,B,2024-08-16_15h49.24.216,Slot Machine Game,2023.1.3,Linux x86_64,59.99880002,,,,,,,,,,,,,,,,,,,,,,,,,,,720,,,,,,,,,,,,,,,,,,9,9,,,660.2965,10,up,0.6179,660.9457,0.5,0.3,"[3,1,2]",0.617148678,stimuli/card_100_transparent.png,100,10,0,10,0,1,,,,,,,,,,
,,,,65e254b55a2803a51872aef0,B,2024-08-16_15h49.24.216,Slot Machine Game,2023.1.3,Linux x86_64,59.99880002,,,,,,,,,,,,,,,,,,,,,,,,,,,820,,,,,,,,,,,,,,,,,,9,9,,,661.7455,11,up,0.6516,662.4287,1.5,0.3,"[3,1,2]",0.229003588,stimuli/card_100_transparent.png,100,11,0,11,0,1,,,,,,,,,,
,,,,65e254b55a2803a51872aef0,B,2024-08-16_15h49.24.216,Slot Machine Game,2023.1.3,Linux x86_64,59.99880002,,,,,,,,,,,,,,,,,,,,,,,,,,,920,,,,,,,,,,,,,,,,,,9,9,,,664.2275,12,up,0.5207,664.778,1,0.3,"[3,1,2]",0.357991312,stimuli/card_100_transparent.png,100,12,0,12,0,1,,,,,,,,,,
,,,,65e254b55a2803a51872aef0,B,2024-08-16_15h49.24.216,Slot Machine Game,2023.1.3,Linux x86_64,59.99880002,,,,,,,,,,,,,,,,,,,,,,,,,,,1020,,,,,,,,,,,,,,,,,,9,9,,,666.0765,13,up,0.5025,666.6097,1.5,0.3,"[3,1,2]",0.393687788,stimuli/card_100_transparent.png,100,13,0,13,0,1,,,,,,,,,,
,,,,65e254b55a2803a51872aef0,B,2024-08-16_15h49.24.216,Slot Machine Game,2023.1.3,Linux x86_64,59.99880002,,,,,,,,,,,,,,,,,,,,,,,,,,,1020,,,,,,,,,,,,,,,,,,9,9,,,668.4082,14,up,0.6187,669.0573,1.5,0.3,"[3,1,2]",0.051819633,stimuli/card_0_transparent.png,0,14,0,14,0,1,,,,,,,,,,
,,,,65e254b55a2803a51872aef0,B,2024-08-16_15h49.24.216,Slot Machine Game,2023.1.3,Linux x86_64,59.99880002,,,,,,,,,,,,,,,,,,,,,,,,,,,,,,,,,,670.8571,,,,,,,,,,,,,,,,,,,,,,,,,,,,,,,"[840,920,920,630,840,930,930,830,1020]",8,0,8,0,1,,,,
,,,,65e254b55a2803a51872aef0,B,2024-08-16_15h49.24.216,Slot Machine Game,2023.1.3,Linux x86_64,59.99880002,,,,,,,,,,,,,,,,,,,,,,,,,,,100,,,,,,,,,,,,,,,,,,10,10,"[10,15]","[[3,1,2],[1,3,2]]",675.8821,0,left,0.556,676.46,1.5,0.3,"[3,1,2]",0.08686398,stimuli/card_100_transparent.png,100,0,0,0,0,1,,,,,,,,,,
,,,,65e254b55a2803a51872aef0,B,2024-08-16_15h49.24.216,Slot Machine Game,2023.1.3,Linux x86_64,59.99880002,,,,,,,,,,,,,,,,,,,,,,,,,,,100,,,,,,,,,,,,,,,,,,10,10,,,678.2539,1,left,0.5682,678.8528,0.5,0.3,"[3,1,2]",0.244173776,stimuli/card_0_transparent.png,0,1,0,1,0,1,,,,,,,,,,
,,,,65e254b55a2803a51872aef0,B,2024-08-16_15h49.24.216,Slot Machine Game,2023.1.3,Linux x86_64,59.99880002,,,,,,,,,,,,,,,,,,,,,,,,,,,200,,,,,,,,,,,,,,,,,,10,10,,,679.6534,2,left,2.4185,682.1048,1,0.3,"[3,1,2]",0.037320299,stimuli/card_100_transparent.png,100,2,0,2,0,1,,,,,,,,,,
,,,,65e254b55a2803a51872aef0,B,2024-08-16_15h49.24.216,Slot Machine Game,2023.1.3,Linux x86_64,59.99880002,,,,,,,,,,,,,,,,,,,,,,,,,,,200,,,,,,,,,,,,,,,,,,10,10,,,683.4001,3,left,0.7196,684.1498,1.5,0.3,"[3,1,2]",0.284616894,stimuli/card_0_transparent.png,0,3,0,3,0,1,,,,,,,,,,
,,,,65e254b55a2803a51872aef0,B,2024-08-16_15h49.24.216,Slot Machine Game,2023.1.3,Linux x86_64,59.99880002,,,,,,,,,,,,,,,,,,,,,,,,,,,210,,,,,,,,,,,,,,,,,,10,10,,,685.9488,4,up,1.0513,687.0318,1.5,0.3,"[3,1,2]",0.171239949,stimuli/card_10_transparent.png,10,4,0,4,0,1,,,,,,,,,,
,,,,65e254b55a2803a51872aef0,B,2024-08-16_15h49.24.216,Slot Machine Game,2023.1.3,Linux x86_64,59.99880002,,,,,,,,,,,,,,,,,,,,,,,,,,,220,,,,,,,,,,,,,,,,,,10,10,,,688.8313,5,right,0.6353,689.4977,0.5,0.3,"[3,1,2]",0.673774544,stimuli/card_10_transparent.png,10,5,0,5,0,1,,,,,,,,,,
,,,,65e254b55a2803a51872aef0,B,2024-08-16_15h49.24.216,Slot Machine Game,2023.1.3,Linux x86_64,59.99880002,,,,,,,,,,,,,,,,,,,,,,,,,,,220,,,,,,,,,,,,,,,,,,10,10,,,690.2972,6,left,0.5679,690.897,1,0.3,"[3,1,2]",0.857171546,stimuli/card_0_transparent.png,0,6,0,6,0,1,,,,,,,,,,
,,,,65e254b55a2803a51872aef0,B,2024-08-16_15h49.24.216,Slot Machine Game,2023.1.3,Linux x86_64,59.99880002,,,,,,,,,,,,,,,,,,,,,,,,,,,320,,,,,,,,,,,,,,,,,,10,10,,,692.197,7,up,0.568,692.7954,0.5,0.3,"[3,1,2]",0.598976256,stimuli/card_100_transparent.png,100,7,0,7,0,1,,,,,,,,,,
,,,,65e254b55a2803a51872aef0,B,2024-08-16_15h49.24.216,Slot Machine Game,2023.1.3,Linux x86_64,59.99880002,,,,,,,,,,,,,,,,,,,,,,,,,,,420,,,,,,,,,,,,,,,,,,10,10,,,693.5958,8,up,0.6538,694.2781,0.5,0.3,"[3,1,2]",0.217979989,stimuli/card_100_transparent.png,100,8,0,8,0,1,,,,,,,,,,
,,,,65e254b55a2803a51872aef0,B,2024-08-16_15h49.24.216,Slot Machine Game,2023.1.3,Linux x86_64,59.99880002,,,,,,,,,,,,,,,,,,,,,,,,,,,520,,,,,,,,,,,,,,,,,,10,10,,,695.0778,9,up,0.5848,695.6943,1,0.3,"[3,1,2]",0.444417488,stimuli/card_100_transparent.png,100,9,0,9,0,1,,,,,,,,,,
,,,,65e254b55a2803a51872aef0,B,2024-08-16_15h49.24.216,Slot Machine Game,2023.1.3,Linux x86_64,59.99880002,,,,,,,,,,,,,,,,,,,,,,,,,,,520,,,,,,,,,,,,,,,,,,10,10,,,696.9932,10,up,0.519,697.5435,1.5,0.3,"[1,3,2]",0.748150163,stimuli/card_0_transparent.png,0,10,0,10,0,1,,,,,,,,,,
,,,,65e254b55a2803a51872aef0,B,2024-08-16_15h49.24.216,Slot Machine Game,2023.1.3,Linux x86_64,59.99880002,,,,,,,,,,,,,,,,,,,,,,,,,,,530,,,,,,,,,,,,,,,,,,10,10,,,699.3438,11,right,0.5679,699.9414,0.5,0.3,"[1,3,2]",0.952871135,stimuli/card_10_transparent.png,10,11,0,11,0,1,,,,,,,,,,
,,,,65e254b55a2803a51872aef0,B,2024-08-16_15h49.24.216,Slot Machine Game,2023.1.3,Linux x86_64,59.99880002,,,,,,,,,,,,,,,,,,,,,,,,,,,540,,,,,,,,,,,,,,,,,,10,10,,,700.7415,12,left,0.6516,701.4247,0.5,0.3,"[1,3,2]",0.157723645,stimuli/card_10_transparent.png,10,12,0,12,0,1,,,,,,,,,,
,,,,65e254b55a2803a51872aef0,B,2024-08-16_15h49.24.216,Slot Machine Game,2023.1.3,Linux x86_64,59.99880002,,,,,,,,,,,,,,,,,,,,,,,,,,,550,,,,,,,,,,,,,,,,,,10,10,,,702.2238,13,up,0.6181,702.8734,1,0.3,"[1,3,2]",0.143443298,stimuli/card_10_transparent.png,10,13,0,13,0,1,,,,,,,,,,
,,,,65e254b55a2803a51872aef0,B,2024-08-16_15h49.24.216,Slot Machine Game,2023.1.3,Linux x86_64,59.99880002,,,,,,,,,,,,,,,,,,,,,,,,,,,560,,,,,,,,,,,,,,,,,,10,10,,,704.1738,14,right,0.8196,705.0238,0.5,0.3,"[1,3,2]",0.314458774,stimuli/card_10_transparent.png,10,14,0,14,0,1,,,,,,,,,,
,,,,65e254b55a2803a51872aef0,B,2024-08-16_15h49.24.216,Slot Machine Game,2023.1.3,Linux x86_64,59.99880002,,,,,,,,,,,,,,,,,,,,,,,,,,,,,,,,,,705.822,,,,,,,,,,,,,,,,,,,,,,,,,,,,,,,"[840,920,920,630,840,930,930,830,1020,560]",9,0,9,0,1,,,,
,,,,65e254b55a2803a51872aef0,B,2024-08-16_15h49.24.216,Slot Machine Game,2023.1.3,Linux x86_64,59.99880002,,,,,,,,,,,,,,,,,,,,,,,,,,,,,,,,,,,,,,,,,,,,,,,,,,,,,,,,,,,,,,,,,,,,,,,9,"[840,920,920,630,840,930,930,830,1020,560]",9.2,2024-08-16_16h01.19.401
