key_resp_welcome_started,key_resp_welcome_keys,key_resp_welcome_rt,key_resp_welcome_duration,prolific_id,path_id,date,expName,psychopyVersion,OS,frameRate,key_resp_instruction1_started,key_resp_instruction1_keys,key_resp_instruction1_rt,key_resp_instruction1_duration,key_resp_instruction2_started,key_resp_instruction2_keys,key_resp_instruction2_rt,key_resp_instruction2_duration,key_resp_instruction3_started,key_resp_instruction3_keys,key_resp_instruction3_rt,key_resp_instruction3_duration,key_resp_instruction4_started,key_resp_instruction4_keys,key_resp_instruction4_rt,key_resp_instruction4_duration,practiceCondition,practice_reward_seqs,practice_trial_started,practice_trial_num,practice_resp_rt,practice_resp_duration,practice_resp_keys,prac_presentationInterval,"practice_reward_seq: 2,1,3",reward_img,cumulative_reward,trial_reward,practice_trials.thisRepN,practice_trials.thisTrialN,practice_trials.thisN,practice_trials.thisIndex,practice_trials.ran,"practice_reward_seq: 2,3,1",block_break_started,"practice_reward_seq: 1,3,2","practice_reward_seq: 3,1,2",practice_end_time,practice_end_keys,practice_end_rt,practice_end_duration,main_instruction_text_started,block_condition,block_order_indices,main_instruction_keys,main_instruction_rt,main_instruction_duration,block_number,block_assignment,current_condition,main_reward_seqs,main_trial_started,main_trial_num,main_trial_keys,main_trial_rt,main_trial_duration,main_presentationInterval,reward_presentation_time,main_reward_seq,reward_rand_val,main_reward_img,current_reward,main_trials.thisRepN,main_trials.thisTrialN,main_trials.thisN,main_trials.thisIndex,main_trials.ran,block_reward,block.thisRepN,block.thisTrialN,block.thisN,block.thisIndex,block.ran,block_reward.length,block_reward_all,reward_amount,date_end_task
0.0005,space,1.1802,,,A,2024-07-01_13h23.51.964,Slot Machine Game,2023.1.3,Win32,60.24096386,,,,,,,,,,,,,,,,,,,,,,,,,,,,,,,,,,,,,,,,,,,,,,,,,,,,,,,,,,,,,,,,,,,,,,,,,,,,,
,,,,,A,2024-07-01_13h23.51.964,Slot Machine Game,2023.1.3,Win32,60.24096386,1.1954,space,9.6499,,,,,,,,,,,,,,,,,,,,,,,,,,,,,,,,,,,,,,,,,,,,,,,,,,,,,,,,,,,,,,,,,,,,,,,,,,
,,,,,A,2024-07-01_13h23.51.964,Slot Machine Game,2023.1.3,Win32,60.24096386,,,,,10.8566,space,34.0557,,,,,,,,,,,,,,,,,,,,,,,,,,,,,,,,,,,,,,,,,,,,,,,,,,,,,,,,,,,,,,,,,,,,,,
,,,,,A,2024-07-01_13h23.51.964,Slot Machine Game,2023.1.3,Win32,60.24096386,,,,,,,,,44.9478,space,8.3714,,,,,,,,,,,,,,,,,,,,,,,,,,,,,,,,,,,,,,,,,,,,,,,,,,,,,,,,,,,,,,,,,,
,,,,,A,2024-07-01_13h23.51.964,Slot Machine Game,2023.1.3,Win32,60.24096386,,,,,,,,,,,,,,,,,,,,,,,,,,,,,,,,,,,,,,,,,,,,,,,,,,,,,,,,,,,,,,,,,,,,,,,,,,,,,
,,,,,A,2024-07-01_13h23.51.964,Slot Machine Game,2023.1.3,Win32,60.24096386,,,,,,,,,,,,,196.1068,space,4.1692,,,,,,,,,,,,,,,,,,,,,,,,,,,,,,,,,,,,,,,,,,,,,,,,,,,,,,,,,,,,,,
,,,,,A,2024-07-01_13h23.51.964,Slot Machine Game,2023.1.3,Win32,60.24096386,,,,,,,,,,,,,,,,,"[9,15]","[[2,1,3],[2,3,1]]",200.3118,0,1.0182,,right,0.5,,stimuli/card_0_transparent.png,0,0,0,0,0,0,1,,,,,,,,,,,,,,,,,,,,,,,,,,,,,,,,,,,,,,,,,,,,
,,,,,A,2024-07-01_13h23.51.964,Slot Machine Game,2023.1.3,Win32,60.24096386,,,,,,,,,,,,,,,,,,,202.6456,1,1.388,,right,1.5,,stimuli/card_0_transparent.png,0,0,1,0,1,0,1,,,,,,,,,,,,,,,,,,,,,,,,,,,,,,,,,,,,,,,,,,,,
,,,,,A,2024-07-01_13h23.51.964,Slot Machine Game,2023.1.3,Win32,60.24096386,,,,,,,,,,,,,,,,,,,206.3577,2,1.9356,,up,1,,stimuli/card_100_transparent.png,100,100,2,0,2,0,1,,,,,,,,,,,,,,,,,,,,,,,,,,,,,,,,,,,,,,,,,,,,
,,,,,A,2024-07-01_13h23.51.964,Slot Machine Game,2023.1.3,Win32,60.24096386,,,,,,,,,,,,,,,,,,,210.1205,3,1.4176,,up,0.5,,stimuli/card_10_transparent.png,110,10,3,0,3,0,1,,,,,,,,,,,,,,,,,,,,,,,,,,,,,,,,,,,,,,,,,,,,
,,,,,A,2024-07-01_13h23.51.964,Slot Machine Game,2023.1.3,Win32,60.24096386,,,,,,,,,,,,,,,,,,,212.8674,4,0.576,,up,1,,stimuli/card_100_transparent.png,210,100,4,0,4,0,1,,,,,,,,,,,,,,,,,,,,,,,,,,,,,,,,,,,,,,,,,,,,
,,,,,A,2024-07-01_13h23.51.964,Slot Machine Game,2023.1.3,Win32,60.24096386,,,,,,,,,,,,,,,,,,,215.2646,5,0.7772,,up,1,,stimuli/card_100_transparent.png,310,100,5,0,5,0,1,,,,,,,,,,,,,,,,,,,,,,,,,,,,,,,,,,,,,,,,,,,,
,,,,,A,2024-07-01_13h23.51.964,Slot Machine Game,2023.1.3,Win32,60.24096386,,,,,,,,,,,,,,,,,,,217.8616,6,0.785,,up,1.5,,stimuli/card_100_transparent.png,410,100,6,0,6,0,1,,,,,,,,,,,,,,,,,,,,,,,,,,,,,,,,,,,,,,,,,,,,
,,,,,A,2024-07-01_13h23.51.964,Slot Machine Game,2023.1.3,Win32,60.24096386,,,,,,,,,,,,,,,,,,,220.9742,7,0.7175,,up,1.5,,stimuli/card_100_transparent.png,510,100,7,0,7,0,1,,,,,,,,,,,,,,,,,,,,,,,,,,,,,,,,,,,,,,,,,,,,
,,,,,A,2024-07-01_13h23.51.964,Slot Machine Game,2023.1.3,Win32,60.24096386,,,,,,,,,,,,,,,,,,,224.0209,8,0.7226,,up,1,,stimuli/card_0_transparent.png,510,0,8,0,8,0,1,,,,,,,,,,,,,,,,,,,,,,,,,,,,,,,,,,,,,,,,,,,,
,,,,,A,2024-07-01_13h23.51.964,Slot Machine Game,2023.1.3,Win32,60.24096386,,,,,,,,,,,,,,,,,,,226.5676,9,0.6736,,up,0.5,,stimuli/card_0_transparent.png,510,0,9,0,9,0,1,,,,,,,,,,,,,,,,,,,,,,,,,,,,,,,,,,,,,,,,,,,,
,,,,,A,2024-07-01_13h23.51.964,Slot Machine Game,2023.1.3,Win32,60.24096386,,,,,,,,,,,,,,,,,,,228.5657,10,2.1846,,left,1,,stimuli/card_10_transparent.png,520,10,10,0,10,0,1,,,,,,,,,,,,,,,,,,,,,,,,,,,,,,,,,,,,,,,,,,,,
,,,,,A,2024-07-01_13h23.51.964,Slot Machine Game,2023.1.3,Win32,60.24096386,,,,,,,,,,,,,,,,,,,232.5779,11,0.6387,,left,1.5,,stimuli/card_10_transparent.png,530,10,11,0,11,0,1,,,,,,,,,,,,,,,,,,,,,,,,,,,,,,,,,,,,,,,,,,,,
,,,,,A,2024-07-01_13h23.51.964,Slot Machine Game,2023.1.3,Win32,60.24096386,,,,,,,,,,,,,,,,,,,235.5404,12,1.0004,,right,1.5,,stimuli/card_100_transparent.png,630,100,12,0,12,0,1,,,,,,,,,,,,,,,,,,,,,,,,,,,,,,,,,,,,,,,,,,,,
,,,,,A,2024-07-01_13h23.51.964,Slot Machine Game,2023.1.3,Win32,60.24096386,,,,,,,,,,,,,,,,,,,238.8705,13,0.4492,,right,1.5,,stimuli/card_0_transparent.png,630,0,13,0,13,0,1,,,,,,,,,,,,,,,,,,,,,,,,,,,,,,,,,,,,,,,,,,,,
,,,,,A,2024-07-01_13h23.51.964,Slot Machine Game,2023.1.3,Win32,60.24096386,,,,,,,,,,,,,,,,,,,241.6509,14,0.5207,,right,1.5,,stimuli/card_100_transparent.png,730,100,14,0,14,0,1,,,,,,,,,,,,,,,,,,,,,,,,,,,,,,,,,,,,,,,,,,,,
,,,,,A,2024-07-01_13h23.51.964,Slot Machine Game,2023.1.3,Win32,60.24096386,,,,,,,,,,,,,,,,,"[6,15]","[[1,3,2],[3,1,2]]",249.5299,0,0.6987,,left,1,,stimuli/card_100_transparent.png,100,100,0,0,0,0,1,,244.5086,,,,,,,,,,,,,,,,,,,,,,,,,,,,,,,,,,,,,,,,,,
,,,,,A,2024-07-01_13h23.51.964,Slot Machine Game,2023.1.3,Win32,60.24096386,,,,,,,,,,,,,,,,,,,252.0557,1,0.7828,,left,1,,stimuli/card_100_transparent.png,200,100,1,0,1,0,1,,,,,,,,,,,,,,,,,,,,,,,,,,,,,,,,,,,,,,,,,,,,
,,,,,A,2024-07-01_13h23.51.964,Slot Machine Game,2023.1.3,Win32,60.24096386,,,,,,,,,,,,,,,,,,,254.669,2,1.135,,left,0.5,,stimuli/card_0_transparent.png,200,0,2,0,2,0,1,,,,,,,,,,,,,,,,,,,,,,,,,,,,,,,,,,,,,,,,,,,,
,,,,,A,2024-07-01_13h23.51.964,Slot Machine Game,2023.1.3,Win32,60.24096386,,,,,,,,,,,,,,,,,,,257.1502,3,1.1326,,left,1.5,,stimuli/card_100_transparent.png,300,100,3,0,3,0,1,,,,,,,,,,,,,,,,,,,,,,,,,,,,,,,,,,,,,,,,,,,,
,,,,,A,2024-07-01_13h23.51.964,Slot Machine Game,2023.1.3,Win32,60.24096386,,,,,,,,,,,,,,,,,,,260.5953,4,1.3338,,left,1.5,,stimuli/card_0_transparent.png,300,0,4,0,4,0,1,,,,,,,,,,,,,,,,,,,,,,,,,,,,,,,,,,,,,,,,,,,,
,,,,,A,2024-07-01_13h23.51.964,Slot Machine Game,2023.1.3,Win32,60.24096386,,,,,,,,,,,,,,,,,,,264.275,5,3.0826,,left,1.5,,stimuli/card_100_transparent.png,400,100,5,0,5,0,1,,,,,,,,,,,,,,,,,,,,,,,,,,,,,,,,,,,,,,,,,,,,
,,,,,A,2024-07-01_13h23.51.964,Slot Machine Game,2023.1.3,Win32,60.24096386,,,,,,,,,,,,,,,,,,,269.6686,6,1.3657,,left,1,,stimuli/card_0_transparent.png,400,0,6,0,6,0,1,,,,,,,,,,,,,,,,,,,,,,,,,,,,,,,,,,,,,,,,,,,,
,,,,,A,2024-07-01_13h23.51.964,Slot Machine Game,2023.1.3,Win32,60.24096386,,,,,,,,,,,,,,,,,,,272.8649,7,0.8682,,left,1.5,,stimuli/card_100_transparent.png,500,100,7,0,7,0,1,,,,,,,,,,,,,,,,,,,,,,,,,,,,,,,,,,,,,,,,,,,,
,,,,,A,2024-07-01_13h23.51.964,Slot Machine Game,2023.1.3,Win32,60.24096386,,,,,,,,,,,,,,,,,,,276.0612,8,0.8997,,left,1.5,,stimuli/card_0_transparent.png,500,0,8,0,8,0,1,,,,,,,,,,,,,,,,,,,,,,,,,,,,,,,,,,,,,,,,,,,,
,,,,,A,2024-07-01_13h23.51.964,Slot Machine Game,2023.1.3,Win32,60.24096386,,,,,,,,,,,,,,,,,,,279.2911,9,0.763,,left,1,,stimuli/card_0_transparent.png,500,0,9,0,9,0,1,,,,,,,,,,,,,,,,,,,,,,,,,,,,,,,,,,,,,,,,,,,,
,,,,,A,2024-07-01_13h23.51.964,Slot Machine Game,2023.1.3,Win32,60.24096386,,,,,,,,,,,,,,,,,,,281.8718,10,1.405,,right,0.5,,stimuli/card_0_transparent.png,500,0,10,0,10,0,1,,,,,,,,,,,,,,,,,,,,,,,,,,,,,,,,,,,,,,,,,,,,
,,,,,A,2024-07-01_13h23.51.964,Slot Machine Game,2023.1.3,Win32,60.24096386,,,,,,,,,,,,,,,,,,,284.6177,11,0.4718,,right,1,,stimuli/card_0_transparent.png,500,0,11,0,11,0,1,,,,,,,,,,,,,,,,,,,,,,,,,,,,,,,,,,,,,,,,,,,,
,,,,,A,2024-07-01_13h23.51.964,Slot Machine Game,2023.1.3,Win32,60.24096386,,,,,,,,,,,,,,,,,,,286.9319,12,0.1714,,up,0.5,,stimuli/card_0_transparent.png,500,0,12,0,12,0,1,,,,,,,,,,,,,,,,,,,,,,,,,,,,,,,,,,,,,,,,,,,,
,,,,,A,2024-07-01_13h23.51.964,Slot Machine Game,2023.1.3,Win32,60.24096386,,,,,,,,,,,,,,,,,,,288.4465,13,0.22,,up,1,,stimuli/card_100_transparent.png,600,100,13,0,13,0,1,,,,,,,,,,,,,,,,,,,,,,,,,,,,,,,,,,,,,,,,,,,,
,,,,,A,2024-07-01_13h23.51.964,Slot Machine Game,2023.1.3,Win32,60.24096386,,,,,,,,,,,,,,,,,,,290.4943,14,0.3268,,up,1,,stimuli/card_100_transparent.png,700,100,14,0,14,0,1,,,,,,,,,,,,,,,,,,,,,,,,,,,,,,,,,,,,,,,,,,,,
,,,,,A,2024-07-01_13h23.51.964,Slot Machine Game,2023.1.3,Win32,60.24096386,,,,,,,,,,,,,,,,,,,,,,,,,,,,,,,,,,,292.6421,,,297.6383,space,2.272,,,,,,,,,,,,,,,,,,,,,,,,,,,,,,,,,,,,,
,,,,,A,2024-07-01_13h23.51.964,Slot Machine Game,2023.1.3,Win32,60.24096386,,,,,,,,,,,,,,,,,,,,,,,,,,,,,,,,,,,,,,,,,,299.9346,2,"[2,4,8,0,1,3,9,6,8,5]",space,1.8562,,,,,,,,,,,,,,,,,,,,,,,,,,,,,,,
,,,,,A,2024-07-01_13h23.51.964,Slot Machine Game,2023.1.3,Win32,60.24096386,,,,,,,,,,,,,,,,,,,,,,,,,,,100,,,,,,,,,,,,,,,,,,,,,1,3,"[15,15]","[[3,1,2],[3,1,2]]",301.8357,0,up,0.519,,1.5,0.3,"[3,1,2]",0.204782405,stimuli/card_100_transparent.png,100,0,0,0,0,1,,,,,,,,,,
,,,,,A,2024-07-01_13h23.51.964,Slot Machine Game,2023.1.3,Win32,60.24096386,,,,,,,,,,,,,,,,,,,,,,,,,,,200,,,,,,,,,,,,,,,,,,,,,1,3,,,304.6772,1,up,0.9439,,1,0.3,"[3,1,2]",0.65600778,stimuli/card_100_transparent.png,100,1,0,1,0,1,,,,,,,,,,
,,,,,A,2024-07-01_13h23.51.964,Slot Machine Game,2023.1.3,Win32,60.24096386,,,,,,,,,,,,,,,,,,,,,,,,,,,300,,,,,,,,,,,,,,,,,,,,,1,3,,,307.4412,2,up,0.7451,,0.5,0.3,"[3,1,2]",0.423742521,stimuli/card_100_transparent.png,100,2,0,2,0,1,,,,,,,,,,
,,,,,A,2024-07-01_13h23.51.964,Slot Machine Game,2023.1.3,Win32,60.24096386,,,,,,,,,,,,,,,,,,,,,,,,,,,400,,,,,,,,,,,,,,,,,,,,,1,3,,,309.5052,3,up,0.7028,,1.5,0.3,"[3,1,2]",0.520125422,stimuli/card_100_transparent.png,100,3,0,3,0,1,,,,,,,,,,
,,,,,A,2024-07-01_13h23.51.964,Slot Machine Game,2023.1.3,Win32,60.24096386,,,,,,,,,,,,,,,,,,,,,,,,,,,500,,,,,,,,,,,,,,,,,,,,,1,3,,,312.5345,4,up,0.7355,,1,0.3,"[3,1,2]",0.502567709,stimuli/card_100_transparent.png,100,4,0,4,0,1,,,,,,,,,,
,,,,,A,2024-07-01_13h23.51.964,Slot Machine Game,2023.1.3,Win32,60.24096386,,,,,,,,,,,,,,,,,,,,,,,,,,,600,,,,,,,,,,,,,,,,,,,,,1,3,,,315.0981,5,up,0.6841,,0.5,0.3,"[3,1,2]",0.87631871,stimuli/card_100_transparent.png,100,5,0,5,0,1,,,,,,,,,,
,,,,,A,2024-07-01_13h23.51.964,Slot Machine Game,2023.1.3,Win32,60.24096386,,,,,,,,,,,,,,,,,,,,,,,,,,,600,,,,,,,,,,,,,,,,,,,,,1,3,,,317.1126,6,up,0.6928,,1,0.3,"[3,1,2]",0.069325608,stimuli/card_0_transparent.png,0,6,0,6,0,1,,,,,,,,,,
,,,,,A,2024-07-01_13h23.51.964,Slot Machine Game,2023.1.3,Win32,60.24096386,,,,,,,,,,,,,,,,,,,,,,,,,,,610,,,,,,,,,,,,,,,,,,,,,1,3,,,319.6266,7,up,0.3226,,1.5,0.3,"[3,1,2]",0.100203601,stimuli/card_10_transparent.png,10,7,0,7,0,1,,,,,,,,,,
,,,,,A,2024-07-01_13h23.51.964,Slot Machine Game,2023.1.3,Win32,60.24096386,,,,,,,,,,,,,,,,,,,,,,,,,,,610,,,,,,,,,,,,,,,,,,,,,1,3,,,322.274,8,left,0.176,,1,0.3,"[3,1,2]",0.274859693,stimuli/card_0_transparent.png,0,8,0,8,0,1,,,,,,,,,,
,,,,,A,2024-07-01_13h23.51.964,Slot Machine Game,2023.1.3,Win32,60.24096386,,,,,,,,,,,,,,,,,,,,,,,,,,,610,,,,,,,,,,,,,,,,,,,,,1,3,,,324.2715,9,left,0.4676,,1.5,0.3,"[3,1,2]",0.380552759,stimuli/card_0_transparent.png,0,9,0,9,0,1,,,,,,,,,,
,,,,,A,2024-07-01_13h23.51.964,Slot Machine Game,2023.1.3,Win32,60.24096386,,,,,,,,,,,,,,,,,,,,,,,,,,,620,,,,,,,,,,,,,,,,,,,,,1,3,,,327.0682,10,right,2.0671,,1.5,0.3,"[3,1,2]",0.813407477,stimuli/card_10_transparent.png,10,10,0,10,0,1,,,,,,,,,,
,,,,,A,2024-07-01_13h23.51.964,Slot Machine Game,2023.1.3,Win32,60.24096386,,,,,,,,,,,,,,,,,,,,,,,,,,,630,,,,,,,,,,,,,,,,,,,,,1,3,,,331.4634,11,right,0.1026,,0.5,0.3,"[3,1,2]",0.737722324,stimuli/card_10_transparent.png,10,11,0,11,0,1,,,,,,,,,,
,,,,,A,2024-07-01_13h23.51.964,Slot Machine Game,2023.1.3,Win32,60.24096386,,,,,,,,,,,,,,,,,,,,,,,,,,,730,,,,,,,,,,,,,,,,,,,,,1,3,,,332.8944,12,up,0.4033,,1.5,0.3,"[3,1,2]",0.751513451,stimuli/card_100_transparent.png,100,12,0,12,0,1,,,,,,,,,,
,,,,,A,2024-07-01_13h23.51.964,Slot Machine Game,2023.1.3,Win32,60.24096386,,,,,,,,,,,,,,,,,,,,,,,,,,,830,,,,,,,,,,,,,,,,,,,,,1,3,,,335.625,13,up,0.2595,,1,0.3,"[3,1,2]",0.662399202,stimuli/card_100_transparent.png,100,13,0,13,0,1,,,,,,,,,,
,,,,,A,2024-07-01_13h23.51.964,Slot Machine Game,2023.1.3,Win32,60.24096386,,,,,,,,,,,,,,,,,,,,,,,,,,,930,,,,,,,,,,,,,,,,,,,,,1,3,,,337.7058,14,up,0.3437,,1,0.3,"[3,1,2]",0.363166056,stimuli/card_100_transparent.png,100,14,0,14,0,1,,,,,,,,,,
,,,,,A,2024-07-01_13h23.51.964,Slot Machine Game,2023.1.3,Win32,60.24096386,,,,,,,,,,,,,,,,,,,,,,,,,,,,,,,,,,,339.8709,,,,,,,,,,,,,,,,,,,,,,,,,,,,,,,,,[930],0,0,0,0,1,,,,
,,,,,A,2024-07-01_13h23.51.964,Slot Machine Game,2023.1.3,Win32,60.24096386,,,,,,,,,,,,,,,,,,,,,,,,,,,0,,,,,,,,,,,,,,,,,,,,,2,5,"[5,15]","[[1,2,3],[3,1,2]]",344.889,0,right,1.5035,,0.5,0.3,"[1,2,3]",0.665775508,stimuli/card_0_transparent.png,0,0,0,0,0,1,,,,,,,,,,
,,,,,A,2024-07-01_13h23.51.964,Slot Machine Game,2023.1.3,Win32,60.24096386,,,,,,,,,,,,,,,,,,,,,,,,,,,0,,,,,,,,,,,,,,,,,,,,,2,5,,,347.7108,1,right,0.5231,,0.5,0.3,"[1,2,3]",0.753470475,stimuli/card_0_transparent.png,0,1,0,1,0,1,,,,,,,,,,
,,,,,A,2024-07-01_13h23.51.964,Slot Machine Game,2023.1.3,Win32,60.24096386,,,,,,,,,,,,,,,,,,,,,,,,,,,10,,,,,,,,,,,,,,,,,,,,,2,5,,,349.5592,2,up,0.1212,,0.5,0.3,"[1,2,3]",0.252989866,stimuli/card_10_transparent.png,10,2,0,2,0,1,,,,,,,,,,
,,,,,A,2024-07-01_13h23.51.964,Slot Machine Game,2023.1.3,Win32,60.24096386,,,,,,,,,,,,,,,,,,,,,,,,,,,20,,,,,,,,,,,,,,,,,,,,,2,5,,,351.0076,3,up,0.5025,,0.5,0.3,"[1,2,3]",0.727235533,stimuli/card_10_transparent.png,10,3,0,3,0,1,,,,,,,,,,
,,,,,A,2024-07-01_13h23.51.964,Slot Machine Game,2023.1.3,Win32,60.24096386,,,,,,,,,,,,,,,,,,,,,,,,,,,30,,,,,,,,,,,,,,,,,,,,,2,5,,,352.8387,4,left,1.2765,,0.5,0.3,"[1,2,3]",0.150458649,stimuli/card_10_transparent.png,10,4,0,4,0,1,,,,,,,,,,
,,,,,A,2024-07-01_13h23.51.964,Slot Machine Game,2023.1.3,Win32,60.24096386,,,,,,,,,,,,,,,,,,,,,,,,,,,30,,,,,,,,,,,,,,,,,,,,,2,5,,,355.4358,5,left,0.2263,,1.5,0.3,"[3,1,2]",0.876321929,stimuli/card_0_transparent.png,0,5,0,5,0,1,,,,,,,,,,
,,,,,A,2024-07-01_13h23.51.964,Slot Machine Game,2023.1.3,Win32,60.24096386,,,,,,,,,,,,,,,,,,,,,,,,,,,130,,,,,,,,,,,,,,,,,,,,,2,5,,,357.9989,6,up,2.1399,,1.5,0.3,"[3,1,2]",0.54500936,stimuli/card_100_transparent.png,100,6,0,6,0,1,,,,,,,,,,
,,,,,A,2024-07-01_13h23.51.964,Slot Machine Game,2023.1.3,Win32,60.24096386,,,,,,,,,,,,,,,,,,,,,,,,,,,230,,,,,,,,,,,,,,,,,,,,,2,5,,,362.4608,7,up,0.1549,,1,0.3,"[3,1,2]",0.380349687,stimuli/card_100_transparent.png,100,7,0,7,0,1,,,,,,,,,,
,,,,,A,2024-07-01_13h23.51.964,Slot Machine Game,2023.1.3,Win32,60.24096386,,,,,,,,,,,,,,,,,,,,,,,,,,,240,,,,,,,,,,,,,,,,,,,,,2,5,,,364.4421,8,up,0.4839,,0.5,0.3,"[3,1,2]",0.190619499,stimuli/card_10_transparent.png,10,8,0,8,0,1,,,,,,,,,,
,,,,,A,2024-07-01_13h23.51.964,Slot Machine Game,2023.1.3,Win32,60.24096386,,,,,,,,,,,,,,,,,,,,,,,,,,,340,,,,,,,,,,,,,,,,,,,,,2,5,,,366.2563,9,up,0.5666,,1.5,0.3,"[3,1,2]",0.377454104,stimuli/card_100_transparent.png,100,9,0,9,0,1,,,,,,,,,,
,,,,,A,2024-07-01_13h23.51.964,Slot Machine Game,2023.1.3,Win32,60.24096386,,,,,,,,,,,,,,,,,,,,,,,,,,,440,,,,,,,,,,,,,,,,,,,,,2,5,,,369.1531,10,up,0.5604,,1,0.3,"[3,1,2]",0.948670035,stimuli/card_100_transparent.png,100,10,0,10,0,1,,,,,,,,,,
,,,,,A,2024-07-01_13h23.51.964,Slot Machine Game,2023.1.3,Win32,60.24096386,,,,,,,,,,,,,,,,,,,,,,,,,,,540,,,,,,,,,,,,,,,,,,,,,2,5,,,371.5338,11,up,0.2872,,1.5,0.3,"[3,1,2]",0.221548574,stimuli/card_100_transparent.png,100,11,0,11,0,1,,,,,,,,,,
,,,,,A,2024-07-01_13h23.51.964,Slot Machine Game,2023.1.3,Win32,60.24096386,,,,,,,,,,,,,,,,,,,,,,,,,,,640,,,,,,,,,,,,,,,,,,,,,2,5,,,374.1526,12,up,0.3502,,1.5,0.3,"[3,1,2]",0.802435306,stimuli/card_100_transparent.png,100,12,0,12,0,1,,,,,,,,,,
,,,,,A,2024-07-01_13h23.51.964,Slot Machine Game,2023.1.3,Win32,60.24096386,,,,,,,,,,,,,,,,,,,,,,,,,,,740,,,,,,,,,,,,,,,,,,,,,2,5,,,376.832,13,up,0.5331,,0.5,0.3,"[3,1,2]",0.641766235,stimuli/card_100_transparent.png,100,13,0,13,0,1,,,,,,,,,,
,,,,,A,2024-07-01_13h23.51.964,Slot Machine Game,2023.1.3,Win32,60.24096386,,,,,,,,,,,,,,,,,,,,,,,,,,,740,,,,,,,,,,,,,,,,,,,,,2,5,,,378.6963,14,up,0.5007,,1.5,0.3,"[3,1,2]",0.063639203,stimuli/card_0_transparent.png,0,14,0,14,0,1,,,,,,,,,,
,,,,,A,2024-07-01_13h23.51.964,Slot Machine Game,2023.1.3,Win32,60.24096386,,,,,,,,,,,,,,,,,,,,,,,,,,,,,,,,,,,381.5264,,,,,,,,,,,,,,,,,,,,,,,,,,,,,,,,,"[930,740]",1,0,1,0,1,,,,
,,,,,A,2024-07-01_13h23.51.964,Slot Machine Game,2023.1.3,Win32,60.24096386,,,,,,,,,,,,,,,,,,,,,,,,,,,100,,,,,,,,,,,,,,,,,,,,,3,9,"[8,15]","[[3,2,1],[3,1,2]]",386.5441,0,right,1.0018,,0.5,0.3,"[3,2,1]",0.53543622,stimuli/card_100_transparent.png,100,0,0,0,0,1,,,,,,,,,,
,,,,,A,2024-07-01_13h23.51.964,Slot Machine Game,2023.1.3,Win32,60.24096386,,,,,,,,,,,,,,,,,,,,,,,,,,,200,,,,,,,,,,,,,,,,,,,,,3,9,,,388.864,1,right,0.2895,,1.5,0.3,"[3,2,1]",0.396189581,stimuli/card_100_transparent.png,100,1,0,1,0,1,,,,,,,,,,
,,,,,A,2024-07-01_13h23.51.964,Slot Machine Game,2023.1.3,Win32,60.24096386,,,,,,,,,,,,,,,,,,,,,,,,,,,300,,,,,,,,,,,,,,,,,,,,,3,9,,,391.4776,2,right,0.3129,,0.5,0.3,"[3,2,1]",0.9424423,stimuli/card_100_transparent.png,100,2,0,2,0,1,,,,,,,,,,
,,,,,A,2024-07-01_13h23.51.964,Slot Machine Game,2023.1.3,Win32,60.24096386,,,,,,,,,,,,,,,,,,,,,,,,,,,400,,,,,,,,,,,,,,,,,,,,,3,9,,,393.1091,3,right,0.4489,,1.5,0.3,"[3,2,1]",0.446839016,stimuli/card_100_transparent.png,100,3,0,3,0,1,,,,,,,,,,
,,,,,A,2024-07-01_13h23.51.964,Slot Machine Game,2023.1.3,Win32,60.24096386,,,,,,,,,,,,,,,,,,,,,,,,,,,500,,,,,,,,,,,,,,,,,,,,,3,9,,,395.8888,4,right,0.5656,,0.5,0.3,"[3,2,1]",0.99952704,stimuli/card_100_transparent.png,100,4,0,4,0,1,,,,,,,,,,
,,,,,A,2024-07-01_13h23.51.964,Slot Machine Game,2023.1.3,Win32,60.24096386,,,,,,,,,,,,,,,,,,,,,,,,,,,600,,,,,,,,,,,,,,,,,,,,,3,9,,,397.7703,5,right,0.5556,,0.5,0.3,"[3,2,1]",0.657892141,stimuli/card_100_transparent.png,100,5,0,5,0,1,,,,,,,,,,
,,,,,A,2024-07-01_13h23.51.964,Slot Machine Game,2023.1.3,Win32,60.24096386,,,,,,,,,,,,,,,,,,,,,,,,,,,700,,,,,,,,,,,,,,,,,,,,,3,9,,,399.652,6,right,0.2166,,1,0.3,"[3,2,1]",0.988239625,stimuli/card_100_transparent.png,100,6,0,6,0,1,,,,,,,,,,
,,,,,A,2024-07-01_13h23.51.964,Slot Machine Game,2023.1.3,Win32,60.24096386,,,,,,,,,,,,,,,,,,,,,,,,,,,710,,,,,,,,,,,,,,,,,,,,,3,9,,,401.6995,7,right,0.1423,,1,0.3,"[3,2,1]",0.191075599,stimuli/card_10_transparent.png,10,7,0,7,0,1,,,,,,,,,,
,,,,,A,2024-07-01_13h23.51.964,Slot Machine Game,2023.1.3,Win32,60.24096386,,,,,,,,,,,,,,,,,,,,,,,,,,,720,,,,,,,,,,,,,,,,,,,,,3,9,,,403.6803,8,right,0.5594,,0.5,0.3,"[3,1,2]",0.505231823,stimuli/card_10_transparent.png,10,8,0,8,0,1,,,,,,,,,,
,,,,,A,2024-07-01_13h23.51.964,Slot Machine Game,2023.1.3,Win32,60.24096386,,,,,,,,,,,,,,,,,,,,,,,,,,,820,,,,,,,,,,,,,,,,,,,,,3,9,,,405.5613,9,up,0.1687,,1,0.3,"[3,1,2]",0.280232159,stimuli/card_100_transparent.png,100,9,0,9,0,1,,,,,,,,,,
,,,,,A,2024-07-01_13h23.51.964,Slot Machine Game,2023.1.3,Win32,60.24096386,,,,,,,,,,,,,,,,,,,,,,,,,,,920,,,,,,,,,,,,,,,,,,,,,3,9,,,407.5586,10,up,0.1843,,1,0.3,"[3,1,2]",0.785803431,stimuli/card_100_transparent.png,100,10,0,10,0,1,,,,,,,,,,
,,,,,A,2024-07-01_13h23.51.964,Slot Machine Game,2023.1.3,Win32,60.24096386,,,,,,,,,,,,,,,,,,,,,,,,,,,1020,,,,,,,,,,,,,,,,,,,,,3,9,,,409.5748,11,up,0.3678,,1,0.3,"[3,1,2]",0.82247382,stimuli/card_100_transparent.png,100,11,0,11,0,1,,,,,,,,,,
,,,,,A,2024-07-01_13h23.51.964,Slot Machine Game,2023.1.3,Win32,60.24096386,,,,,,,,,,,,,,,,,,,,,,,,,,,1120,,,,,,,,,,,,,,,,,,,,,3,9,,,411.7755,12,up,0.2019,,1.5,0.3,"[3,1,2]",0.944316738,stimuli/card_100_transparent.png,100,12,0,12,0,1,,,,,,,,,,
,,,,,A,2024-07-01_13h23.51.964,Slot Machine Game,2023.1.3,Win32,60.24096386,,,,,,,,,,,,,,,,,,,,,,,,,,,1220,,,,,,,,,,,,,,,,,,,,,3,9,,,414.3015,13,up,0.384,,0.5,0.3,"[3,1,2]",0.956207163,stimuli/card_100_transparent.png,100,13,0,13,0,1,,,,,,,,,,
,,,,,A,2024-07-01_13h23.51.964,Slot Machine Game,2023.1.3,Win32,60.24096386,,,,,,,,,,,,,,,,,,,,,,,,,,,1320,,,,,,,,,,,,,,,,,,,,,3,9,,,416.0156,14,up,0.351,,0.5,0.3,"[3,1,2]",0.224255984,stimuli/card_100_transparent.png,100,14,0,14,0,1,,,,,,,,,,
,,,,,A,2024-07-01_13h23.51.964,Slot Machine Game,2023.1.3,Win32,60.24096386,,,,,,,,,,,,,,,,,,,,,,,,,,,,,,,,,,,417.6973,,,,,,,,,,,,,,,,,,,,,,,,,,,,,,,,,"[930,740,1320]",2,0,2,0,1,,,,
,,,,,A,2024-07-01_13h23.51.964,Slot Machine Game,2023.1.3,Win32,60.24096386,,,,,,,,,,,,,,,,,,,,,,,,,,,100,,,,,,,,,,,,,,,,,,,,,4,1,"[12,15]","[[2,1,3],[2,3,1]]",422.7153,0,up,0.4841,,1.5,0.3,"[2,1,3]",0.623640117,stimuli/card_100_transparent.png,100,0,0,0,0,1,,,,,,,,,,
,,,,,A,2024-07-01_13h23.51.964,Slot Machine Game,2023.1.3,Win32,60.24096386,,,,,,,,,,,,,,,,,,,,,,,,,,,200,,,,,,,,,,,,,,,,,,,,,4,1,,,425.5384,1,up,0.3629,,1.5,0.3,"[2,1,3]",0.462782045,stimuli/card_100_transparent.png,100,1,0,1,0,1,,,,,,,,,,
,,,,,A,2024-07-01_13h23.51.964,Slot Machine Game,2023.1.3,Win32,60.24096386,,,,,,,,,,,,,,,,,,,,,,,,,,,300,,,,,,,,,,,,,,,,,,,,,4,1,,,428.2348,2,up,0.516,,1,0.3,"[2,1,3]",0.550637053,stimuli/card_100_transparent.png,100,2,0,2,0,1,,,,,,,,,,
,,,,,A,2024-07-01_13h23.51.964,Slot Machine Game,2023.1.3,Win32,60.24096386,,,,,,,,,,,,,,,,,,,,,,,,,,,400,,,,,,,,,,,,,,,,,,,,,4,1,,,430.5822,3,up,0.0943,,1,0.3,"[2,1,3]",0.310425478,stimuli/card_100_transparent.png,100,3,0,3,0,1,,,,,,,,,,
,,,,,A,2024-07-01_13h23.51.964,Slot Machine Game,2023.1.3,Win32,60.24096386,,,,,,,,,,,,,,,,,,,,,,,,,,,410,,,,,,,,,,,,,,,,,,,,,4,1,,,432.4971,4,up,0.1691,,1,0.3,"[2,1,3]",0.147445536,stimuli/card_10_transparent.png,10,4,0,4,0,1,,,,,,,,,,
,,,,,A,2024-07-01_13h23.51.964,Slot Machine Game,2023.1.3,Win32,60.24096386,,,,,,,,,,,,,,,,,,,,,,,,,,,510,,,,,,,,,,,,,,,,,,,,,4,1,,,434.4947,5,up,0.1825,,1.5,0.3,"[2,1,3]",0.517633472,stimuli/card_100_transparent.png,100,5,0,5,0,1,,,,,,,,,,
,,,,,A,2024-07-01_13h23.51.964,Slot Machine Game,2023.1.3,Win32,60.24096386,,,,,,,,,,,,,,,,,,,,,,,,,,,610,,,,,,,,,,,,,,,,,,,,,4,1,,,436.9911,6,up,0.1172,,1,0.3,"[2,1,3]",0.951906696,stimuli/card_100_transparent.png,100,6,0,6,0,1,,,,,,,,,,
,,,,,A,2024-07-01_13h23.51.964,Slot Machine Game,2023.1.3,Win32,60.24096386,,,,,,,,,,,,,,,,,,,,,,,,,,,710,,,,,,,,,,,,,,,,,,,,,4,1,,,438.9392,7,up,0.0528,,1.5,0.3,"[2,1,3]",0.771041107,stimuli/card_100_transparent.png,100,7,0,7,0,1,,,,,,,,,,
,,,,,A,2024-07-01_13h23.51.964,Slot Machine Game,2023.1.3,Win32,60.24096386,,,,,,,,,,,,,,,,,,,,,,,,,,,810,,,,,,,,,,,,,,,,,,,,,4,1,,,441.3196,8,up,0.1673,,0.5,0.3,"[2,1,3]",0.311459746,stimuli/card_100_transparent.png,100,8,0,8,0,1,,,,,,,,,,
,,,,,A,2024-07-01_13h23.51.964,Slot Machine Game,2023.1.3,Win32,60.24096386,,,,,,,,,,,,,,,,,,,,,,,,,,,910,,,,,,,,,,,,,,,,,,,,,4,1,,,442.8182,9,up,0.4618,,0.5,0.3,"[2,1,3]",0.719451302,stimuli/card_100_transparent.png,100,9,0,9,0,1,,,,,,,,,,
,,,,,A,2024-07-01_13h23.51.964,Slot Machine Game,2023.1.3,Win32,60.24096386,,,,,,,,,,,,,,,,,,,,,,,,,,,1010,,,,,,,,,,,,,,,,,,,,,4,1,,,444.6001,10,up,0.2339,,1.5,0.3,"[2,1,3]",0.732740263,stimuli/card_100_transparent.png,100,10,0,10,0,1,,,,,,,,,,
,,,,,A,2024-07-01_13h23.51.964,Slot Machine Game,2023.1.3,Win32,60.24096386,,,,,,,,,,,,,,,,,,,,,,,,,,,1110,,,,,,,,,,,,,,,,,,,,,4,1,,,447.163,11,up,0.0844,,1,0.3,"[2,1,3]",0.959241249,stimuli/card_100_transparent.png,100,11,0,11,0,1,,,,,,,,,,
,,,,,A,2024-07-01_13h23.51.964,Slot Machine Game,2023.1.3,Win32,60.24096386,,,,,,,,,,,,,,,,,,,,,,,,,,,1120,,,,,,,,,,,,,,,,,,,,,4,1,,,449.0778,12,up,0.1185,,1.5,0.3,"[2,3,1]",0.16192855,stimuli/card_10_transparent.png,10,12,0,12,0,1,,,,,,,,,,
,,,,,A,2024-07-01_13h23.51.964,Slot Machine Game,2023.1.3,Win32,60.24096386,,,,,,,,,,,,,,,,,,,,,,,,,,,1120,,,,,,,,,,,,,,,,,,,,,4,1,,,451.5247,13,up,0.1498,,0.5,0.3,"[2,3,1]",0.931193464,stimuli/card_0_transparent.png,0,13,0,13,0,1,,,,,,,,,,
,,,,,A,2024-07-01_13h23.51.964,Slot Machine Game,2023.1.3,Win32,60.24096386,,,,,,,,,,,,,,,,,,,,,,,,,,,1130,,,,,,,,,,,,,,,,,,,,,4,1,,,453.0063,14,left,0.2209,,0.5,0.3,"[2,3,1]",0.953646448,stimuli/card_10_transparent.png,10,14,0,14,0,1,,,,,,,,,,
,,,,,A,2024-07-01_13h23.51.964,Slot Machine Game,2023.1.3,Win32,60.24096386,,,,,,,,,,,,,,,,,,,,,,,,,,,,,,,,,,,454.5716,,,,,,,,,,,,,,,,,,,,,,,,,,,,,,,,,"[930,740,1320,1130]",3,0,3,0,1,,,,
,,,,,A,2024-07-01_13h23.51.964,Slot Machine Game,2023.1.3,Win32,60.24096386,,,,,,,,,,,,,,,,,,,,,,,,,,,100,,,,,,,,,,,,,,,,,,,,,5,2,"[6,15]","[[1,3,2],[3,2,1]]",459.5859,0,left,0.701,,1.5,0.3,"[1,3,2]",0.842169982,stimuli/card_100_transparent.png,100,0,0,0,0,1,,,,,,,,,,
,,,,,A,2024-07-01_13h23.51.964,Slot Machine Game,2023.1.3,Win32,60.24096386,,,,,,,,,,,,,,,,,,,,,,,,,,,200,,,,,,,,,,,,,,,,,,,,,5,2,,,462.6123,1,left,0.1818,,0.5,0.3,"[1,3,2]",0.419849002,stimuli/card_100_transparent.png,100,1,0,1,0,1,,,,,,,,,,
,,,,,A,2024-07-01_13h23.51.964,Slot Machine Game,2023.1.3,Win32,60.24096386,,,,,,,,,,,,,,,,,,,,,,,,,,,300,,,,,,,,,,,,,,,,,,,,,5,2,,,464.1103,2,left,0.7534,,1.5,0.3,"[1,3,2]",0.392245512,stimuli/card_100_transparent.png,100,2,0,2,0,1,,,,,,,,,,
,,,,,A,2024-07-01_13h23.51.964,Slot Machine Game,2023.1.3,Win32,60.24096386,,,,,,,,,,,,,,,,,,,,,,,,,,,310,,,,,,,,,,,,,,,,,,,,,5,2,,,467.1899,3,left,0.4363,,1.5,0.3,"[1,3,2]",0.188645002,stimuli/card_10_transparent.png,10,3,0,3,0,1,,,,,,,,,,
,,,,,A,2024-07-01_13h23.51.964,Slot Machine Game,2023.1.3,Win32,60.24096386,,,,,,,,,,,,,,,,,,,,,,,,,,,410,,,,,,,,,,,,,,,,,,,,,5,2,,,469.9697,4,left,2.6985,,1,0.3,"[1,3,2]",0.698685294,stimuli/card_100_transparent.png,100,4,0,4,0,1,,,,,,,,,,
,,,,,A,2024-07-01_13h23.51.964,Slot Machine Game,2023.1.3,Win32,60.24096386,,,,,,,,,,,,,,,,,,,,,,,,,,,510,,,,,,,,,,,,,,,,,,,,,5,2,,,474.4982,5,left,0.8353,,0.5,0.3,"[1,3,2]",0.793286134,stimuli/card_100_transparent.png,100,5,0,5,0,1,,,,,,,,,,
,,,,,A,2024-07-01_13h23.51.964,Slot Machine Game,2023.1.3,Win32,60.24096386,,,,,,,,,,,,,,,,,,,,,,,,,,,520,,,,,,,,,,,,,,,,,,,,,5,2,,,476.662,6,left,0.6357,,1,0.3,"[3,2,1]",0.100541504,stimuli/card_10_transparent.png,10,6,0,6,0,1,,,,,,,,,,
,,,,,A,2024-07-01_13h23.51.964,Slot Machine Game,2023.1.3,Win32,60.24096386,,,,,,,,,,,,,,,,,,,,,,,,,,,520,,,,,,,,,,,,,,,,,,,,,5,2,,,479.126,7,left,0.1545,,0.5,0.3,"[3,2,1]",0.774002892,stimuli/card_0_transparent.png,0,7,0,7,0,1,,,,,,,,,,
,,,,,A,2024-07-01_13h23.51.964,Slot Machine Game,2023.1.3,Win32,60.24096386,,,,,,,,,,,,,,,,,,,,,,,,,,,520,,,,,,,,,,,,,,,,,,,,,5,2,,,480.6083,8,right,1.65,,1,0.3,"[3,2,1]",0.091532049,stimuli/card_0_transparent.png,0,8,0,8,0,1,,,,,,,,,,
,,,,,A,2024-07-01_13h23.51.964,Slot Machine Game,2023.1.3,Win32,60.24096386,,,,,,,,,,,,,,,,,,,,,,,,,,,530,,,,,,,,,,,,,,,,,,,,,5,2,,,484.0877,9,up,1.6009,,1,0.3,"[3,2,1]",0.972786615,stimuli/card_10_transparent.png,10,9,0,9,0,1,,,,,,,,,,
,,,,,A,2024-07-01_13h23.51.964,Slot Machine Game,2023.1.3,Win32,60.24096386,,,,,,,,,,,,,,,,,,,,,,,,,,,540,,,,,,,,,,,,,,,,,,,,,5,2,,,487.5166,10,up,0.0168,,1,0.3,"[3,2,1]",0.948183244,stimuli/card_10_transparent.png,10,10,0,10,0,1,,,,,,,,,,
,,,,,A,2024-07-01_13h23.51.964,Slot Machine Game,2023.1.3,Win32,60.24096386,,,,,,,,,,,,,,,,,,,,,,,,,,,640,,,,,,,,,,,,,,,,,,,,,5,2,,,489.3645,11,right,0.8551,,1.5,0.3,"[3,2,1]",0.545586079,stimuli/card_100_transparent.png,100,11,0,11,0,1,,,,,,,,,,
,,,,,A,2024-07-01_13h23.51.964,Slot Machine Game,2023.1.3,Win32,60.24096386,,,,,,,,,,,,,,,,,,,,,,,,,,,740,,,,,,,,,,,,,,,,,,,,,5,2,,,492.5609,12,right,0.1676,,1.5,0.3,"[3,2,1]",0.834890674,stimuli/card_100_transparent.png,100,12,0,12,0,1,,,,,,,,,,
,,,,,A,2024-07-01_13h23.51.964,Slot Machine Game,2023.1.3,Win32,60.24096386,,,,,,,,,,,,,,,,,,,,,,,,,,,840,,,,,,,,,,,,,,,,,,,,,5,2,,,495.0409,13,right,0.1418,,0.5,0.3,"[3,2,1]",0.983028309,stimuli/card_100_transparent.png,100,13,0,13,0,1,,,,,,,,,,
,,,,,A,2024-07-01_13h23.51.964,Slot Machine Game,2023.1.3,Win32,60.24096386,,,,,,,,,,,,,,,,,,,,,,,,,,,940,,,,,,,,,,,,,,,,,,,,,5,2,,,496.5061,14,right,0.3047,,1,0.3,"[3,2,1]",0.533408157,stimuli/card_100_transparent.png,100,14,0,14,0,1,,,,,,,,,,
,,,,,A,2024-07-01_13h23.51.964,Slot Machine Game,2023.1.3,Win32,60.24096386,,,,,,,,,,,,,,,,,,,,,,,,,,,,,,,,,,,498.6366,,,,,,,,,,,,,,,,,,,,,,,,,,,,,,,,,"[930,740,1320,1130,940]",4,0,4,0,1,,,,
,,,,,A,2024-07-01_13h23.51.964,Slot Machine Game,2023.1.3,Win32,60.24096386,,,,,,,,,,,,,,,,,,,,,,,,,,,100,,,,,,,,,,,,,,,,,,,,,6,4,"[7,15]","[[2,3,1],[1,2,3]]",503.6406,0,right,0.6681,,0.5,0.3,"[2,3,1]",0.617261788,stimuli/card_100_transparent.png,100,0,0,0,0,1,,,,,,,,,,
,,,,,A,2024-07-01_13h23.51.964,Slot Machine Game,2023.1.3,Win32,60.24096386,,,,,,,,,,,,,,,,,,,,,,,,,,,110,,,,,,,,,,,,,,,,,,,,,6,4,,,505.6285,1,right,0.4997,,0.5,0.3,"[2,3,1]",0.116578284,stimuli/card_10_transparent.png,10,1,0,1,0,1,,,,,,,,,,
,,,,,A,2024-07-01_13h23.51.964,Slot Machine Game,2023.1.3,Win32,60.24096386,,,,,,,,,,,,,,,,,,,,,,,,,,,210,,,,,,,,,,,,,,,,,,,,,6,4,,,507.443,2,right,0.4047,,0.5,0.3,"[2,3,1]",0.680309851,stimuli/card_100_transparent.png,100,2,0,2,0,1,,,,,,,,,,
,,,,,A,2024-07-01_13h23.51.964,Slot Machine Game,2023.1.3,Win32,60.24096386,,,,,,,,,,,,,,,,,,,,,,,,,,,210,,,,,,,,,,,,,,,,,,,,,6,4,,,509.1918,3,right,0.6158,,1,0.3,"[2,3,1]",0.087895619,stimuli/card_0_transparent.png,0,3,0,3,0,1,,,,,,,,,,
,,,,,A,2024-07-01_13h23.51.964,Slot Machine Game,2023.1.3,Win32,60.24096386,,,,,,,,,,,,,,,,,,,,,,,,,,,210,,,,,,,,,,,,,,,,,,,,,6,4,,,511.622,4,right,0.2024,,1.5,0.3,"[2,3,1]",0.039506178,stimuli/card_0_transparent.png,0,4,0,4,0,1,,,,,,,,,,
,,,,,A,2024-07-01_13h23.51.964,Slot Machine Game,2023.1.3,Win32,60.24096386,,,,,,,,,,,,,,,,,,,,,,,,,,,210,,,,,,,,,,,,,,,,,,,,,6,4,,,514.1684,5,up,0.828,,1.5,0.3,"[2,3,1]",0.427803831,stimuli/card_0_transparent.png,0,5,0,5,0,1,,,,,,,,,,
,,,,,A,2024-07-01_13h23.51.964,Slot Machine Game,2023.1.3,Win32,60.24096386,,,,,,,,,,,,,,,,,,,,,,,,,,,210,,,,,,,,,,,,,,,,,,,,,6,4,,,517.3151,6,up,0.7428,,0.5,0.3,"[2,3,1]",0.361451031,stimuli/card_0_transparent.png,0,6,0,6,0,1,,,,,,,,,,
,,,,,A,2024-07-01_13h23.51.964,Slot Machine Game,2023.1.3,Win32,60.24096386,,,,,,,,,,,,,,,,,,,,,,,,,,,310,,,,,,,,,,,,,,,,,,,,,6,4,,,519.3796,7,left,0.2878,,0.5,0.3,"[1,2,3]",0.928412077,stimuli/card_100_transparent.png,100,7,0,7,0,1,,,,,,,,,,
,,,,,A,2024-07-01_13h23.51.964,Slot Machine Game,2023.1.3,Win32,60.24096386,,,,,,,,,,,,,,,,,,,,,,,,,,,410,,,,,,,,,,,,,,,,,,,,,6,4,,,521.0108,8,left,0.1143,,0.5,0.3,"[1,2,3]",0.467857446,stimuli/card_100_transparent.png,100,8,0,8,0,1,,,,,,,,,,
,,,,,A,2024-07-01_13h23.51.964,Slot Machine Game,2023.1.3,Win32,60.24096386,,,,,,,,,,,,,,,,,,,,,,,,,,,510,,,,,,,,,,,,,,,,,,,,,6,4,,,522.4422,9,left,0.0677,,1.5,0.3,"[1,2,3]",0.471816041,stimuli/card_100_transparent.png,100,9,0,9,0,1,,,,,,,,,,
,,,,,A,2024-07-01_13h23.51.964,Slot Machine Game,2023.1.3,Win32,60.24096386,,,,,,,,,,,,,,,,,,,,,,,,,,,520,,,,,,,,,,,,,,,,,,,,,6,4,,,524.8402,10,left,0.031,,1.5,0.3,"[1,2,3]",0.192712871,stimuli/card_10_transparent.png,10,10,0,10,0,1,,,,,,,,,,
,,,,,A,2024-07-01_13h23.51.964,Slot Machine Game,2023.1.3,Win32,60.24096386,,,,,,,,,,,,,,,,,,,,,,,,,,,620,,,,,,,,,,,,,,,,,,,,,6,4,,,527.1872,11,left,0.0873,,0.5,0.3,"[1,2,3]",0.657275184,stimuli/card_100_transparent.png,100,11,0,11,0,1,,,,,,,,,,
,,,,,A,2024-07-01_13h23.51.964,Slot Machine Game,2023.1.3,Win32,60.24096386,,,,,,,,,,,,,,,,,,,,,,,,,,,720,,,,,,,,,,,,,,,,,,,,,6,4,,,528.6024,12,left,0.2511,,1,0.3,"[1,2,3]",0.88249277,stimuli/card_100_transparent.png,100,12,0,12,0,1,,,,,,,,,,
,,,,,A,2024-07-01_13h23.51.964,Slot Machine Game,2023.1.3,Win32,60.24096386,,,,,,,,,,,,,,,,,,,,,,,,,,,820,,,,,,,,,,,,,,,,,,,,,6,4,,,530.6833,13,left,0.0433,,0.5,0.3,"[1,2,3]",0.474251699,stimuli/card_100_transparent.png,100,13,0,13,0,1,,,,,,,,,,
,,,,,A,2024-07-01_13h23.51.964,Slot Machine Game,2023.1.3,Win32,60.24096386,,,,,,,,,,,,,,,,,,,,,,,,,,,920,,,,,,,,,,,,,,,,,,,,,6,4,,,532.0646,14,left,0.4957,,1,0.3,"[1,2,3]",0.458164295,stimuli/card_100_transparent.png,100,14,0,14,0,1,,,,,,,,,,
,,,,,A,2024-07-01_13h23.51.964,Slot Machine Game,2023.1.3,Win32,60.24096386,,,,,,,,,,,,,,,,,,,,,,,,,,,,,,,,,,,534.3958,,,,,,,,,,,,,,,,,,,,,,,,,,,,,,,,,"[930,740,1320,1130,940,920]",5,0,5,0,1,,,,
,,,,,A,2024-07-01_13h23.51.964,Slot Machine Game,2023.1.3,Win32,60.24096386,,,,,,,,,,,,,,,,,,,,,,,,,,,0,,,,,,,,,,,,,,,,,,,,,7,10,"[10,15]","[[3,1,2],[1,3,2]]",539.4102,0,left,0.2591,,0.5,0.3,"[3,1,2]",0.932799405,stimuli/card_0_transparent.png,0,0,0,0,0,1,,,,,,,,,,
,,,,,A,2024-07-01_13h23.51.964,Slot Machine Game,2023.1.3,Win32,60.24096386,,,,,,,,,,,,,,,,,,,,,,,,,,,100,,,,,,,,,,,,,,,,,,,,,7,10,,,540.9883,1,up,0.0995,,1.5,0.3,"[3,1,2]",0.555438579,stimuli/card_100_transparent.png,100,1,0,1,0,1,,,,,,,,,,
,,,,,A,2024-07-01_13h23.51.964,Slot Machine Game,2023.1.3,Win32,60.24096386,,,,,,,,,,,,,,,,,,,,,,,,,,,110,,,,,,,,,,,,,,,,,,,,,7,10,,,543.4186,2,up,0.0377,,0.5,0.3,"[3,1,2]",0.115326266,stimuli/card_10_transparent.png,10,2,0,2,0,1,,,,,,,,,,
,,,,,A,2024-07-01_13h23.51.964,Slot Machine Game,2023.1.3,Win32,60.24096386,,,,,,,,,,,,,,,,,,,,,,,,,,,210,,,,,,,,,,,,,,,,,,,,,7,10,,,544.8,3,up,0.1344,,0.5,0.3,"[3,1,2]",0.246553592,stimuli/card_100_transparent.png,100,3,0,3,0,1,,,,,,,,,,
,,,,,A,2024-07-01_13h23.51.964,Slot Machine Game,2023.1.3,Win32,60.24096386,,,,,,,,,,,,,,,,,,,,,,,,,,,220,,,,,,,,,,,,,,,,,,,,,7,10,,,546.2652,4,up,0.0601,,1,0.3,"[3,1,2]",0.130124877,stimuli/card_10_transparent.png,10,4,0,4,0,1,,,,,,,,,,
,,,,,A,2024-07-01_13h23.51.964,Slot Machine Game,2023.1.3,Win32,60.24096386,,,,,,,,,,,,,,,,,,,,,,,,,,,220,,,,,,,,,,,,,,,,,,,,,7,10,,,548.1456,5,up,0.5338,,0.5,0.3,"[3,1,2]",0.077220687,stimuli/card_0_transparent.png,0,5,0,5,0,1,,,,,,,,,,
,,,,,A,2024-07-01_13h23.51.964,Slot Machine Game,2023.1.3,Win32,60.24096386,,,,,,,,,,,,,,,,,,,,,,,,,,,230,,,,,,,,,,,,,,,,,,,,,7,10,,,549.9942,6,right,0.4095,,1.5,0.3,"[3,1,2]",0.226538482,stimuli/card_10_transparent.png,10,6,0,6,0,1,,,,,,,,,,
,,,,,A,2024-07-01_13h23.51.964,Slot Machine Game,2023.1.3,Win32,60.24096386,,,,,,,,,,,,,,,,,,,,,,,,,,,240,,,,,,,,,,,,,,,,,,,,,7,10,,,552.7238,7,right,0.0194,,1.5,0.3,"[3,1,2]",0.981706164,stimuli/card_10_transparent.png,10,7,0,7,0,1,,,,,,,,,,
,,,,,A,2024-07-01_13h23.51.964,Slot Machine Game,2023.1.3,Win32,60.24096386,,,,,,,,,,,,,,,,,,,,,,,,,,,240,,,,,,,,,,,,,,,,,,,,,7,10,,,555.0883,8,left,0.1041,,1.5,0.3,"[3,1,2]",0.670394735,stimuli/card_0_transparent.png,0,8,0,8,0,1,,,,,,,,,,
,,,,,A,2024-07-01_13h23.51.964,Slot Machine Game,2023.1.3,Win32,60.24096386,,,,,,,,,,,,,,,,,,,,,,,,,,,340,,,,,,,,,,,,,,,,,,,,,7,10,,,557.5186,9,up,0.0529,,0.5,0.3,"[3,1,2]",0.714970856,stimuli/card_100_transparent.png,100,9,0,9,0,1,,,,,,,,,,
,,,,,A,2024-07-01_13h23.51.964,Slot Machine Game,2023.1.3,Win32,60.24096386,,,,,,,,,,,,,,,,,,,,,,,,,,,440,,,,,,,,,,,,,,,,,,,,,7,10,,,558.9003,10,up,0.1359,,1,0.3,"[1,3,2]",0.075068828,stimuli/card_100_transparent.png,100,10,0,10,0,1,,,,,,,,,,
,,,,,A,2024-07-01_13h23.51.964,Slot Machine Game,2023.1.3,Win32,60.24096386,,,,,,,,,,,,,,,,,,,,,,,,,,,540,,,,,,,,,,,,,,,,,,,,,7,10,,,560.8647,11,up,0.4783,,0.5,0.3,"[1,3,2]",0.073254475,stimuli/card_100_transparent.png,100,11,0,11,0,1,,,,,,,,,,
,,,,,A,2024-07-01_13h23.51.964,Slot Machine Game,2023.1.3,Win32,60.24096386,,,,,,,,,,,,,,,,,,,,,,,,,,,550,,,,,,,,,,,,,,,,,,,,,7,10,,,562.6626,12,up,0.2089,,1,0.3,"[1,3,2]",0.105714984,stimuli/card_10_transparent.png,10,12,0,12,0,1,,,,,,,,,,
,,,,,A,2024-07-01_13h23.51.964,Slot Machine Game,2023.1.3,Win32,60.24096386,,,,,,,,,,,,,,,,,,,,,,,,,,,550,,,,,,,,,,,,,,,,,,,,,7,10,,,564.6983,13,up,0.1838,,1,0.3,"[1,3,2]",0.655455334,stimuli/card_0_transparent.png,0,13,0,13,0,1,,,,,,,,,,
,,,,,A,2024-07-01_13h23.51.964,Slot Machine Game,2023.1.3,Win32,60.24096386,,,,,,,,,,,,,,,,,,,,,,,,,,,550,,,,,,,,,,,,,,,,,,,,,7,10,,,566.7119,14,up,0.5839,,1.5,0.3,"[1,3,2]",0.363339782,stimuli/card_0_transparent.png,0,14,0,14,0,1,,,,,,,,,,
,,,,,A,2024-07-01_13h23.51.964,Slot Machine Game,2023.1.3,Win32,60.24096386,,,,,,,,,,,,,,,,,,,,,,,,,,,,,,,,,,,569.6221,,,,,,,,,,,,,,,,,,,,,,,,,,,,,,,,,"[930,740,1320,1130,940,920,550]",6,0,6,0,1,,,,
,,,,,A,2024-07-01_13h23.51.964,Slot Machine Game,2023.1.3,Win32,60.24096386,,,,,,,,,,,,,,,,,,,,,,,,,,,100,,,,,,,,,,,,,,,,,,,,,8,7,"[9,15]","[[1,3,2],[2,3,1]]",574.6449,0,left,0.3854,,0.5,0.3,"[1,3,2]",0.767310959,stimuli/card_100_transparent.png,100,0,0,0,0,1,,,,,,,,,,
,,,,,A,2024-07-01_13h23.51.964,Slot Machine Game,2023.1.3,Win32,60.24096386,,,,,,,,,,,,,,,,,,,,,,,,,,,200,,,,,,,,,,,,,,,,,,,,,8,7,,,576.3465,1,left,0.5044,,1,0.3,"[1,3,2]",0.810863812,stimuli/card_100_transparent.png,100,1,0,1,0,1,,,,,,,,,,
,,,,,A,2024-07-01_13h23.51.964,Slot Machine Game,2023.1.3,Win32,60.24096386,,,,,,,,,,,,,,,,,,,,,,,,,,,300,,,,,,,,,,,,,,,,,,,,,8,7,,,578.6772,2,left,0.0199,,1.5,0.3,"[1,3,2]",0.962353936,stimuli/card_100_transparent.png,100,2,0,2,0,1,,,,,,,,,,
,,,,,A,2024-07-01_13h23.51.964,Slot Machine Game,2023.1.3,Win32,60.24096386,,,,,,,,,,,,,,,,,,,,,,,,,,,400,,,,,,,,,,,,,,,,,,,,,8,7,,,581.0244,3,left,0.534,,1,0.3,"[1,3,2]",0.503624818,stimuli/card_100_transparent.png,100,3,0,3,0,1,,,,,,,,,,
,,,,,A,2024-07-01_13h23.51.964,Slot Machine Game,2023.1.3,Win32,60.24096386,,,,,,,,,,,,,,,,,,,,,,,,,,,500,,,,,,,,,,,,,,,,,,,,,8,7,,,583.3885,4,left,0.8008,,1.5,0.3,"[1,3,2]",0.73584253,stimuli/card_100_transparent.png,100,4,0,4,0,1,,,,,,,,,,
,,,,,A,2024-07-01_13h23.51.964,Slot Machine Game,2023.1.3,Win32,60.24096386,,,,,,,,,,,,,,,,,,,,,,,,,,,600,,,,,,,,,,,,,,,,,,,,,8,7,,,586.5183,5,left,0.7224,,1,0.3,"[1,3,2]",0.258607807,stimuli/card_100_transparent.png,100,5,0,5,0,1,,,,,,,,,,
,,,,,A,2024-07-01_13h23.51.964,Slot Machine Game,2023.1.3,Win32,60.24096386,,,,,,,,,,,,,,,,,,,,,,,,,,,700,,,,,,,,,,,,,,,,,,,,,8,7,,,589.065,6,left,0.7081,,0.5,0.3,"[1,3,2]",0.694906919,stimuli/card_100_transparent.png,100,6,0,6,0,1,,,,,,,,,,
,,,,,A,2024-07-01_13h23.51.964,Slot Machine Game,2023.1.3,Win32,60.24096386,,,,,,,,,,,,,,,,,,,,,,,,,,,800,,,,,,,,,,,,,,,,,,,,,8,7,,,591.0957,7,left,0.0236,,0.5,0.3,"[1,3,2]",0.326687682,stimuli/card_100_transparent.png,100,7,0,7,0,1,,,,,,,,,,
,,,,,A,2024-07-01_13h23.51.964,Slot Machine Game,2023.1.3,Win32,60.24096386,,,,,,,,,,,,,,,,,,,,,,,,,,,900,,,,,,,,,,,,,,,,,,,,,8,7,,,592.4447,8,left,0.0077,,1.5,0.3,"[1,3,2]",0.4885782,stimuli/card_100_transparent.png,100,8,0,8,0,1,,,,,,,,,,
,,,,,A,2024-07-01_13h23.51.964,Slot Machine Game,2023.1.3,Win32,60.24096386,,,,,,,,,,,,,,,,,,,,,,,,,,,900,,,,,,,,,,,,,,,,,,,,,8,7,,,594.775,9,left,1.156,,1,0.3,"[2,3,1]",0.01525069,stimuli/card_0_transparent.png,0,9,0,9,0,1,,,,,,,,,,
,,,,,A,2024-07-01_13h23.51.964,Slot Machine Game,2023.1.3,Win32,60.24096386,,,,,,,,,,,,,,,,,,,,,,,,,,,910,,,,,,,,,,,,,,,,,,,,,8,7,,,597.7552,10,left,0.0677,,1.5,0.3,"[2,3,1]",0.823765649,stimuli/card_10_transparent.png,10,10,0,10,0,1,,,,,,,,,,
,,,,,A,2024-07-01_13h23.51.964,Slot Machine Game,2023.1.3,Win32,60.24096386,,,,,,,,,,,,,,,,,,,,,,,,,,,1010,,,,,,,,,,,,,,,,,,,,,8,7,,,600.1522,11,up,1.1101,,1.5,0.3,"[2,3,1]",0.030347946,stimuli/card_100_transparent.png,100,11,0,11,0,1,,,,,,,,,,
,,,,,A,2024-07-01_13h23.51.964,Slot Machine Game,2023.1.3,Win32,60.24096386,,,,,,,,,,,,,,,,,,,,,,,,,,,1010,,,,,,,,,,,,,,,,,,,,,8,7,,,603.5812,12,up,0.1063,,1,0.3,"[2,3,1]",0.61616696,stimuli/card_0_transparent.png,0,12,0,12,0,1,,,,,,,,,,
,,,,,A,2024-07-01_13h23.51.964,Slot Machine Game,2023.1.3,Win32,60.24096386,,,,,,,,,,,,,,,,,,,,,,,,,,,1010,,,,,,,,,,,,,,,,,,,,,8,7,,,605.5129,13,up,0.3013,,0.5,0.3,"[2,3,1]",0.509268166,stimuli/card_0_transparent.png,0,13,0,13,0,1,,,,,,,,,,
,,,,,A,2024-07-01_13h23.51.964,Slot Machine Game,2023.1.3,Win32,60.24096386,,,,,,,,,,,,,,,,,,,,,,,,,,,1110,,,,,,,,,,,,,,,,,,,,,8,7,,,607.1439,14,right,1.0525,,1.5,0.3,"[2,3,1]",0.925007769,stimuli/card_100_transparent.png,100,14,0,14,0,1,,,,,,,,,,
,,,,,A,2024-07-01_13h23.51.964,Slot Machine Game,2023.1.3,Win32,60.24096386,,,,,,,,,,,,,,,,,,,,,,,,,,,,,,,,,,,610.5237,,,,,,,,,,,,,,,,,,,,,,,,,,,,,,,,,"[930,740,1320,1130,940,920,550,1110]",7,0,7,0,1,,,,
,,,,,A,2024-07-01_13h23.51.964,Slot Machine Game,2023.1.3,Win32,60.24096386,,,,,,,,,,,,,,,,,,,,,,,,,,,100,,,,,,,,,,,,,,,,,,,,,9,9,[15],"[[3,1,2]]",615.5407,0,right,0.0437,,1,0.3,"[3,1,2]",0.136336972,stimuli/card_100_transparent.png,100,0,0,0,0,1,,,,,,,,,,
,,,,,A,2024-07-01_13h23.51.964,Slot Machine Game,2023.1.3,Win32,60.24096386,,,,,,,,,,,,,,,,,,,,,,,,,,,110,,,,,,,,,,,,,,,,,,,,,9,9,,,617.3998,1,right,0.5186,,1,0.3,"[3,1,2]",0.68885148,stimuli/card_10_transparent.png,10,1,0,1,0,1,,,,,,,,,,
,,,,,A,2024-07-01_13h23.51.964,Slot Machine Game,2023.1.3,Win32,60.24096386,,,,,,,,,,,,,,,,,,,,,,,,,,,110,,,,,,,,,,,,,,,,,,,,,9,9,,,619.751,2,right,0.1114,,0.5,0.3,"[3,1,2]",0.033004399,stimuli/card_0_transparent.png,0,2,0,2,0,1,,,,,,,,,,
,,,,,A,2024-07-01_13h23.51.964,Slot Machine Game,2023.1.3,Win32,60.24096386,,,,,,,,,,,,,,,,,,,,,,,,,,,210,,,,,,,,,,,,,,,,,,,,,9,9,,,621.1802,3,up,1.6258,,1.5,0.3,"[3,1,2]",0.717954996,stimuli/card_100_transparent.png,100,3,0,3,0,1,,,,,,,,,,
,,,,,A,2024-07-01_13h23.51.964,Slot Machine Game,2023.1.3,Win32,60.24096386,,,,,,,,,,,,,,,,,,,,,,,,,,,210,,,,,,,,,,,,,,,,,,,,,9,9,,,625.1236,4,up,0.7462,,1.5,0.3,"[3,1,2]",0.097966226,stimuli/card_0_transparent.png,0,4,0,4,0,1,,,,,,,,,,
,,,,,A,2024-07-01_13h23.51.964,Slot Machine Game,2023.1.3,Win32,60.24096386,,,,,,,,,,,,,,,,,,,,,,,,,,,210,,,,,,,,,,,,,,,,,,,,,9,9,,,628.1871,5,up,0.6582,,1,0.3,"[3,1,2]",0.059867806,stimuli/card_0_transparent.png,0,5,0,5,0,1,,,,,,,,,,
,,,,,A,2024-07-01_13h23.51.964,Slot Machine Game,2023.1.3,Win32,60.24096386,,,,,,,,,,,,,,,,,,,,,,,,,,,310,,,,,,,,,,,,,,,,,,,,,9,9,,,630.6845,6,left,0.0517,,0.5,0.3,"[3,1,2]",0.013544944,stimuli/card_100_transparent.png,100,6,0,6,0,1,,,,,,,,,,
,,,,,A,2024-07-01_13h23.51.964,Slot Machine Game,2023.1.3,Win32,60.24096386,,,,,,,,,,,,,,,,,,,,,,,,,,,310,,,,,,,,,,,,,,,,,,,,,9,9,,,632.0652,7,left,0.0335,,1.5,0.3,"[3,1,2]",0.484400819,stimuli/card_0_transparent.png,0,7,0,7,0,1,,,,,,,,,,
,,,,,A,2024-07-01_13h23.51.964,Slot Machine Game,2023.1.3,Win32,60.24096386,,,,,,,,,,,,,,,,,,,,,,,,,,,310,,,,,,,,,,,,,,,,,,,,,9,9,,,634.4298,8,left,0.0515,,1.5,0.3,"[3,1,2]",0.831304319,stimuli/card_0_transparent.png,0,8,0,8,0,1,,,,,,,,,,
,,,,,A,2024-07-01_13h23.51.964,Slot Machine Game,2023.1.3,Win32,60.24096386,,,,,,,,,,,,,,,,,,,,,,,,,,,410,,,,,,,,,,,,,,,,,,,,,9,9,,,636.8105,9,right,0.2965,,1.5,0.3,"[3,1,2]",0.145396242,stimuli/card_100_transparent.png,100,9,0,9,0,1,,,,,,,,,,
,,,,,A,2024-07-01_13h23.51.964,Slot Machine Game,2023.1.3,Win32,60.24096386,,,,,,,,,,,,,,,,,,,,,,,,,,,420,,,,,,,,,,,,,,,,,,,,,9,9,,,639.4408,10,right,0.0572,,1.5,0.3,"[3,1,2]",0.737701831,stimuli/card_10_transparent.png,10,10,0,10,0,1,,,,,,,,,,
,,,,,A,2024-07-01_13h23.51.964,Slot Machine Game,2023.1.3,Win32,60.24096386,,,,,,,,,,,,,,,,,,,,,,,,,,,430,,,,,,,,,,,,,,,,,,,,,9,9,,,641.8418,11,right,0.001,,1.5,0.3,"[3,1,2]",0.547639194,stimuli/card_10_transparent.png,10,11,0,11,0,1,,,,,,,,,,
,,,,,A,2024-07-01_13h23.51.964,Slot Machine Game,2023.1.3,Win32,60.24096386,,,,,,,,,,,,,,,,,,,,,,,,,,,530,,,,,,,,,,,,,,,,,,,,,9,9,,,644.1684,12,up,0.0987,,1.5,0.3,"[3,1,2]",0.55776548,stimuli/card_100_transparent.png,100,12,0,12,0,1,,,,,,,,,,
,,,,,A,2024-07-01_13h23.51.964,Slot Machine Game,2023.1.3,Win32,60.24096386,,,,,,,,,,,,,,,,,,,,,,,,,,,630,,,,,,,,,,,,,,,,,,,,,9,9,,,646.5989,13,up,0.2341,,1,0.3,"[3,1,2]",0.940683236,stimuli/card_100_transparent.png,100,13,0,13,0,1,,,,,,,,,,
,,,,,A,2024-07-01_13h23.51.964,Slot Machine Game,2023.1.3,Win32,60.24096386,,,,,,,,,,,,,,,,,,,,,,,,,,,730,,,,,,,,,,,,,,,,,,,,,9,9,,,648.6635,14,up,0.0836,,0.5,0.3,"[3,1,2]",0.232614855,stimuli/card_100_transparent.png,100,14,0,14,0,1,,,,,,,,,,
,,,,,A,2024-07-01_13h23.51.964,Slot Machine Game,2023.1.3,Win32,60.24096386,,,,,,,,,,,,,,,,,,,,,,,,,,,,,,,,,,,650.0781,,,,,,,,,,,,,,,,,,,,,,,,,,,,,,,,,"[930,740,1320,1130,940,920,550,1110,730]",8,0,8,0,1,,,,
,,,,,A,2024-07-01_13h23.51.964,Slot Machine Game,2023.1.3,Win32,60.24096386,,,,,,,,,,,,,,,,,,,,,,,,,,,0,,,,,,,,,,,,,,,,,,,,,10,6,"[4,10,15]","[[2,3,1],[1,3,2],[3,2,1]]",655.0847,0,up,1.8219,,1,0.3,"[2,3,1]",0.276884423,stimuli/card_0_transparent.png,0,0,0,0,0,1,,,,,,,,,,
,,,,,A,2024-07-01_13h23.51.964,Slot Machine Game,2023.1.3,Win32,60.24096386,,,,,,,,,,,,,,,,,,,,,,,,,,,0,,,,,,,,,,,,,,,,,,,,,10,6,,,658.739,1,up,0.2102,,1,0.3,"[2,3,1]",0.990098925,stimuli/card_0_transparent.png,0,1,0,1,0,1,,,,,,,,,,
,,,,,A,2024-07-01_13h23.51.964,Slot Machine Game,2023.1.3,Win32,60.24096386,,,,,,,,,,,,,,,,,,,,,,,,,,,100,,,,,,,,,,,,,,,,,,,,,10,6,,,660.7828,2,right,0.3612,,1,0.3,"[2,3,1]",0.275055271,stimuli/card_100_transparent.png,100,2,0,2,0,1,,,,,,,,,,
,,,,,A,2024-07-01_13h23.51.964,Slot Machine Game,2023.1.3,Win32,60.24096386,,,,,,,,,,,,,,,,,,,,,,,,,,,200,,,,,,,,,,,,,,,,,,,,,10,6,,,662.9465,3,right,0.1375,,1.5,0.3,"[2,3,1]",0.461668598,stimuli/card_100_transparent.png,100,3,0,3,0,1,,,,,,,,,,
,,,,,A,2024-07-01_13h23.51.964,Slot Machine Game,2023.1.3,Win32,60.24096386,,,,,,,,,,,,,,,,,,,,,,,,,,,210,,,,,,,,,,,,,,,,,,,,,10,6,,,665.4275,4,right,0.6834,,1.5,0.3,"[1,3,2]",0.408490159,stimuli/card_10_transparent.png,10,4,0,4,0,1,,,,,,,,,,
,,,,,A,2024-07-01_13h23.51.964,Slot Machine Game,2023.1.3,Win32,60.24096386,,,,,,,,,,,,,,,,,,,,,,,,,,,220,,,,,,,,,,,,,,,,,,,,,10,6,,,668.4409,5,right,0.4886,,1.5,0.3,"[1,3,2]",0.721264606,stimuli/card_10_transparent.png,10,5,0,5,0,1,,,,,,,,,,
,,,,,A,2024-07-01_13h23.51.964,Slot Machine Game,2023.1.3,Win32,60.24096386,,,,,,,,,,,,,,,,,,,,,,,,,,,320,,,,,,,,,,,,,,,,,,,,,10,6,,,671.2707,6,left,0.251,,1,0.3,"[1,3,2]",0.451176449,stimuli/card_100_transparent.png,100,6,0,6,0,1,,,,,,,,,,
,,,,,A,2024-07-01_13h23.51.964,Slot Machine Game,2023.1.3,Win32,60.24096386,,,,,,,,,,,,,,,,,,,,,,,,,,,420,,,,,,,,,,,,,,,,,,,,,10,6,,,673.3696,7,left,0.0057,,1,0.3,"[1,3,2]",0.434987608,stimuli/card_100_transparent.png,100,7,0,7,0,1,,,,,,,,,,
,,,,,A,2024-07-01_13h23.51.964,Slot Machine Game,2023.1.3,Win32,60.24096386,,,,,,,,,,,,,,,,,,,,,,,,,,,420,,,,,,,,,,,,,,,,,,,,,10,6,,,675.1989,8,left,0.4635,,1,0.3,"[1,3,2]",0.076300757,stimuli/card_0_transparent.png,0,8,0,8,0,1,,,,,,,,,,
,,,,,A,2024-07-01_13h23.51.964,Slot Machine Game,2023.1.3,Win32,60.24096386,,,,,,,,,,,,,,,,,,,,,,,,,,,520,,,,,,,,,,,,,,,,,,,,,10,6,,,677.4803,9,left,0.2324,,0.5,0.3,"[1,3,2]",0.306718388,stimuli/card_100_transparent.png,100,9,0,9,0,1,,,,,,,,,,
,,,,,A,2024-07-01_13h23.51.964,Slot Machine Game,2023.1.3,Win32,60.24096386,,,,,,,,,,,,,,,,,,,,,,,,,,,520,,,,,,,,,,,,,,,,,,,,,10,6,,,679.0279,10,left,0.0013,,1.5,0.3,"[3,2,1]",0.655540021,stimuli/card_0_transparent.png,0,10,0,10,0,1,,,,,,,,,,
,,,,,A,2024-07-01_13h23.51.964,Slot Machine Game,2023.1.3,Win32,60.24096386,,,,,,,,,,,,,,,,,,,,,,,,,,,530,,,,,,,,,,,,,,,,,,,,,10,6,,,681.3425,11,up,0.6201,,0.5,0.3,"[3,2,1]",0.687551768,stimuli/card_10_transparent.png,10,11,0,11,0,1,,,,,,,,,,
,,,,,A,2024-07-01_13h23.51.964,Slot Machine Game,2023.1.3,Win32,60.24096386,,,,,,,,,,,,,,,,,,,,,,,,,,,630,,,,,,,,,,,,,,,,,,,,,10,6,,,683.2905,12,up,0.1916,,0.5,0.3,"[3,2,1]",0.135380952,stimuli/card_100_transparent.png,100,12,0,12,0,1,,,,,,,,,,
,,,,,A,2024-07-01_13h23.51.964,Slot Machine Game,2023.1.3,Win32,60.24096386,,,,,,,,,,,,,,,,,,,,,,,,,,,640,,,,,,,,,,,,,,,,,,,,,10,6,,,684.8047,13,up,0.0332,,0.5,0.3,"[3,2,1]",0.241263169,stimuli/card_10_transparent.png,10,13,0,13,0,1,,,,,,,,,,
,,,,,A,2024-07-01_13h23.51.964,Slot Machine Game,2023.1.3,Win32,60.24096386,,,,,,,,,,,,,,,,,,,,,,,,,,,740,,,,,,,,,,,,,,,,,,,,,10,6,,,686.1701,14,right,0.7715,,0.5,0.3,"[3,2,1]",0.353327923,stimuli/card_100_transparent.png,100,14,0,14,0,1,,,,,,,,,,
,,,,,A,2024-07-01_13h23.51.964,Slot Machine Game,2023.1.3,Win32,60.24096386,,,,,,,,,,,,,,,,,,,,,,,,,,,,,,,,,,,688.2677,,,,,,,,,,,,,,,,,,,,,,,,,,,,,,,,,"[930,740,1320,1130,940,920,550,1110,730,740]",9,0,9,0,1,,,,
,,,,,A,2024-07-01_13h23.51.964,Slot Machine Game,2023.1.3,Win32,60.24096386,,,,,,,,,,,,,,,,,,,,,,,,,,,,,,,,,,,,,,,,,,,,,,,,,,,,,,,,,,,,,,,,,,,,,,,,,,9,"[930,740,1320,1130,940,920,550,1110,730,740]",13.2,2024-07-01_13h35.29.385
