key_resp_welcome.started,key_resp_welcome.keys,key_resp_welcome.rt,key_resp_welcome.duration,participant,date,expName,psychopyVersion,OS,frameRate,key_resp_instruction1.started,key_resp_instruction1.keys,key_resp_instruction1.rt,key_resp_instruction1.duration,key_resp_instruction2.started,key_resp_instruction2.keys,key_resp_instruction2.rt,key_resp_instruction2.duration,key_resp_instruction3.started,key_resp_instruction3.keys,key_resp_instruction3.rt,key_resp_instruction3.duration,practiceCondition,practice_reward_seqs,key_resp_practice_slots.started,key_resp_practice_slots.keys,key_resp_practice_slots.rt,key_resp_practice_slots.duration,presentationInterval,"practice_reward_seq: 2,1,3",reward_Img,Cuml_rew,currentPracticeTrialReward,practice_trials.thisRepN,practice_trials.thisTrialN,practice_trials.thisN,practice_trials.thisIndex,practice_trials.ran,"practice_reward_seq: 2,3,1",text_block_break.started,practice_block.thisRepN,practice_block.thisTrialN,practice_block.thisN,practice_block.thisIndex,practice_block.ran,"practice_reward_seq: 1,3,2","practice_reward_seq: 3,1,2",key_resp_practice_end.started,key_resp_practice_end.keys,key_resp_practice_end.rt,key_resp_practice_end.duration,text_main_instruction.started,BlockCondition,BlockOrderIndices,key_resp_main_instruction.started,key_resp_main_instruction.keys,key_resp_main_instruction.rt,key_resp_main_instruction.duration,blockNumber,blockAssignment,currentCondition,main_reward_seqs,key_resp_slots_presentation.started,key_resp_slots_presentation.keys,key_resp_slots_presentation.rt,key_resp_slots_presentation.duration,Main_presentationInterval,rewardPresentationTime,Main_reward_seq,Random value generated,Main_reward_Img,Main_Cumul_Reward,Main_currentTrialReward,main_trials.thisRepN,main_trials.thisTrialN,main_trials.thisN,main_trials.thisIndex,main_trials.ran,block.thisRepN,block.thisTrialN,block.thisN,block.thisIndex,block.ran
0.0004,space,7.8421,,,2023-10-09_16h32.10.803,SlotMachine_updated,2023.1.3,MacIntel,49.98750312,,,,,,,,,,,,,,,,,,,,,,,,,,,,,,,,,,,,,,,,,,,,,,,,,,,,,,,,,,,,,,,,,,,,,,,,,
,,,,,2023-10-09_16h32.10.803,SlotMachine_updated,2023.1.3,MacIntel,49.98750312,,,,,,,,,,,,,,,,,,,,,,,,,,,,,,,,,,,,,,,,,,,,,,,,,,,,,,,,,,,,,,,,,,,,,,,,,
,,,,,2023-10-09_16h32.10.803,SlotMachine_updated,2023.1.3,MacIntel,49.98750312,149.8179,space,6.0747,,,,,,,,,,,,,,,,,,,,,,,,,,,,,,,,,,,,,,,,,,,,,,,,,,,,,,,,,,,,,,,,,,,,,,
,,,,,2023-10-09_16h32.10.803,SlotMachine_updated,2023.1.3,MacIntel,49.98750312,,,,,155.9384,space,10.7051,,,,,,,,,,,,,,,,,,,,,,,,,,,,,,,,,,,,,,,,,,,,,,,,,,,,,,,,,,,,,,,,,,
,,,,,2023-10-09_16h32.10.803,SlotMachine_updated,2023.1.3,MacIntel,49.98750312,,,,,,,,,166.6725,space,5.0344,,,,,,,,,,,,,,,,,,,,,,,,,,,,,,,,,,,,,,,,,,,,,,,,,,,,,,,,,,,,,,
,,,,,2023-10-09_16h32.10.803,SlotMachine_updated,2023.1.3,MacIntel,49.98750312,,,,,,,,,,,,,"[9,15]","[[2,1,3],[2,3,1]]",171.7584,up,4.4081,,0.5,,stimuli/card_100_transparent.png,100,100,0,0,0,0,1,,,,,,,,,,,,,,,,,,,,,,,,,,,,,,,,,,,,,,,,,,,,,
,,,,,2023-10-09_16h32.10.803,SlotMachine_updated,2023.1.3,MacIntel,49.98750312,,,,,,,,,,,,,,,177.018,up,0.5594,,1,,stimuli/card_100_transparent.png,200,100,1,0,1,0,1,,,,,,,,,,,,,,,,,,,,,,,,,,,,,,,,,,,,,,,,,,,,,
,,,,,2023-10-09_16h32.10.803,SlotMachine_updated,2023.1.3,MacIntel,49.98750312,,,,,,,,,,,,,,,178.8988,up,0.2609,,1.5,,stimuli/card_100_transparent.png,300,100,2,0,2,0,1,,,,,,,,,,,,,,,,,,,,,,,,,,,,,,,,,,,,,,,,,,,,,
,,,,,2023-10-09_16h32.10.803,SlotMachine_updated,2023.1.3,MacIntel,49.98750312,,,,,,,,,,,,,,,180.978,up,0.0781,,0.5,,stimuli/card_100_transparent.png,400,100,3,0,3,0,1,,,,,,,,,,,,,,,,,,,,,,,,,,,,,,,,,,,,,,,,,,,,,
,,,,,2023-10-09_16h32.10.803,SlotMachine_updated,2023.1.3,MacIntel,49.98750312,,,,,,,,,,,,,,,181.8775,up,0.1744,,0.5,,stimuli/card_100_transparent.png,500,100,4,0,4,0,1,,,,,,,,,,,,,,,,,,,,,,,,,,,,,,,,,,,,,,,,,,,,,
,,,,,2023-10-09_16h32.10.803,SlotMachine_updated,2023.1.3,MacIntel,49.98750312,,,,,,,,,,,,,,,182.9007,up,0.0471,,1.5,,stimuli/card_100_transparent.png,600,100,5,0,5,0,1,,,,,,,,,,,,,,,,,,,,,,,,,,,,,,,,,,,,,,,,,,,,,
,,,,,2023-10-09_16h32.10.803,SlotMachine_updated,2023.1.3,MacIntel,49.98750312,,,,,,,,,,,,,,,184.7775,up,0.1067,,1,,stimuli/card_100_transparent.png,700,100,6,0,6,0,1,,,,,,,,,,,,,,,,,,,,,,,,,,,,,,,,,,,,,,,,,,,,,
,,,,,2023-10-09_16h32.10.803,SlotMachine_updated,2023.1.3,MacIntel,49.98750312,,,,,,,,,,,,,,,186.1984,up,0.0017,,1.5,,stimuli/card_100_transparent.png,800,100,7,0,7,0,1,,,,,,,,,,,,,,,,,,,,,,,,,,,,,,,,,,,,,,,,,,,,,
,,,,,2023-10-09_16h32.10.803,SlotMachine_updated,2023.1.3,MacIntel,49.98750312,,,,,,,,,,,,,,,188.0159,up,0.19,,1,,stimuli/card_100_transparent.png,900,100,8,0,8,0,1,,,,,,,,,,,,,,,,,,,,,,,,,,,,,,,,,,,,,,,,,,,,,
,,,,,2023-10-09_16h32.10.803,SlotMachine_updated,2023.1.3,MacIntel,49.98750312,,,,,,,,,,,,,,,189.5204,up,2.2301,,1,,stimuli/card_0_transparent.png,900,0,9,0,9,0,1,,,,,,,,,,,,,,,,,,,,,,,,,,,,,,,,,,,,,,,,,,,,,
,,,,,2023-10-09_16h32.10.803,SlotMachine_updated,2023.1.3,MacIntel,49.98750312,,,,,,,,,,,,,,,193.0771,right,0.8858,,0.5,,stimuli/card_100_transparent.png,1000,100,10,0,10,0,1,,,,,,,,,,,,,,,,,,,,,,,,,,,,,,,,,,,,,,,,,,,,,
,,,,,2023-10-09_16h32.10.803,SlotMachine_updated,2023.1.3,MacIntel,49.98750312,,,,,,,,,,,,,,,194.7828,right,0.6758,,1.5,,stimuli/card_100_transparent.png,1100,100,11,0,11,0,1,,,,,,,,,,,,,,,,,,,,,,,,,,,,,,,,,,,,,,,,,,,,,
,,,,,2023-10-09_16h32.10.803,SlotMachine_updated,2023.1.3,MacIntel,49.98750312,,,,,,,,,,,,,,,197.2965,right,0.7974,,0.5,,stimuli/card_100_transparent.png,1200,100,12,0,12,0,1,,,,,,,,,,,,,,,,,,,,,,,,,,,,,,,,,,,,,,,,,,,,,
,,,,,2023-10-09_16h32.10.803,SlotMachine_updated,2023.1.3,MacIntel,49.98750312,,,,,,,,,,,,,,,198.9809,right,0.0603,,0.5,,stimuli/card_100_transparent.png,1300,100,13,0,13,0,1,,,,,,,,,,,,,,,,,,,,,,,,,,,,,,,,,,,,,,,,,,,,,
,,,,,2023-10-09_16h32.10.803,SlotMachine_updated,2023.1.3,MacIntel,49.98750312,,,,,,,,,,,,,,,200.1597,right,1.0457,,1,,stimuli/card_100_transparent.png,1400,100,14,0,14,0,1,,,,,,,,,,,,,,,,,,,,,,,,,,,,,,,,,,,,,,,,,,,,,
,,,,,2023-10-09_16h32.10.803,SlotMachine_updated,2023.1.3,MacIntel,49.98750312,,,,,,,,,,,,,,,,,,,,,,,,,,,,,,202.525,0,0,0,0,1,,,,,,,,,,,,,,,,,,,,,,,,,,,,,,,,,,,,,,
,,,,,2023-10-09_16h32.10.803,SlotMachine_updated,2023.1.3,MacIntel,49.98750312,,,,,,,,,,,,,"[6,15]","[[1,3,2],[3,1,2]]",207.5433,up,0.6166,,1,,stimuli/card_10_transparent.png,10,10,0,0,0,0,1,,,,,,,,,,,,,,,,,,,,,,,,,,,,,,,,,,,,,,,,,,,,,
,,,,,2023-10-09_16h32.10.803,SlotMachine_updated,2023.1.3,MacIntel,49.98750312,,,,,,,,,,,,,,,209.4845,left,1.1943,,0.5,,stimuli/card_100_transparent.png,110,100,1,0,1,0,1,,,,,,,,,,,,,,,,,,,,,,,,,,,,,,,,,,,,,,,,,,,,,
,,,,,2023-10-09_16h32.10.803,SlotMachine_updated,2023.1.3,MacIntel,49.98750312,,,,,,,,,,,,,,,211.506,left,0.3744,,1,,stimuli/card_100_transparent.png,210,100,2,0,2,0,1,,,,,,,,,,,,,,,,,,,,,,,,,,,,,,,,,,,,,,,,,,,,,
,,,,,2023-10-09_16h32.10.803,SlotMachine_updated,2023.1.3,MacIntel,49.98750312,,,,,,,,,,,,,,,213.2058,left,0.0589,,1,,stimuli/card_10_transparent.png,220,10,3,0,3,0,1,,,,,,,,,,,,,,,,,,,,,,,,,,,,,,,,,,,,,,,,,,,,,
,,,,,2023-10-09_16h32.10.803,SlotMachine_updated,2023.1.3,MacIntel,49.98750312,,,,,,,,,,,,,,,214.6099,left,0.0009,,0.5,,stimuli/card_100_transparent.png,320,100,4,0,4,0,1,,,,,,,,,,,,,,,,,,,,,,,,,,,,,,,,,,,,,,,,,,,,,
,,,,,2023-10-09_16h32.10.803,SlotMachine_updated,2023.1.3,MacIntel,49.98750312,,,,,,,,,,,,,,,215.4255,left,0.1774,,1.5,,stimuli/card_100_transparent.png,420,100,5,0,5,0,1,,,,,,,,,,,,,,,,,,,,,,,,,,,,,,,,,,,,,,,,,,,,,
,,,,,2023-10-09_16h32.10.803,SlotMachine_updated,2023.1.3,MacIntel,49.98750312,,,,,,,,,,,,,,,217.4254,left,0.1151,,1,,stimuli/card_0_transparent.png,420,0,6,0,6,0,1,,,,,,,,,,,,,,,,,,,,,,,,,,,,,,,,,,,,,,,,,,,,,
,,,,,2023-10-09_16h32.10.803,SlotMachine_updated,2023.1.3,MacIntel,49.98750312,,,,,,,,,,,,,,,218.8476,left,0.1095,,1.5,,stimuli/card_0_transparent.png,420,0,7,0,7,0,1,,,,,,,,,,,,,,,,,,,,,,,,,,,,,,,,,,,,,,,,,,,,,
,,,,,2023-10-09_16h32.10.803,SlotMachine_updated,2023.1.3,MacIntel,49.98750312,,,,,,,,,,,,,,,220.7686,right,0.2233,,0.5,,stimuli/card_0_transparent.png,420,0,8,0,8,0,1,,,,,,,,,,,,,,,,,,,,,,,,,,,,,,,,,,,,,,,,,,,,,
,,,,,2023-10-09_16h32.10.803,SlotMachine_updated,2023.1.3,MacIntel,49.98750312,,,,,,,,,,,,,,,221.8067,up,0.3376,,1.5,,stimuli/card_100_transparent.png,520,100,9,0,9,0,1,,,,,,,,,,,,,,,,,,,,,,,,,,,,,,,,,,,,,,,,,,,,,
,,,,,2023-10-09_16h32.10.803,SlotMachine_updated,2023.1.3,MacIntel,49.98750312,,,,,,,,,,,,,,,223.9692,up,0.1402,,0.5,,stimuli/card_100_transparent.png,620,100,10,0,10,0,1,,,,,,,,,,,,,,,,,,,,,,,,,,,,,,,,,,,,,,,,,,,,,
,,,,,2023-10-09_16h32.10.803,SlotMachine_updated,2023.1.3,MacIntel,49.98750312,,,,,,,,,,,,,,,224.9269,up,0.0647,,1,,stimuli/card_100_transparent.png,720,100,11,0,11,0,1,,,,,,,,,,,,,,,,,,,,,,,,,,,,,,,,,,,,,,,,,,,,,
,,,,,2023-10-09_16h32.10.803,SlotMachine_updated,2023.1.3,MacIntel,49.98750312,,,,,,,,,,,,,,,226.3093,up,2.2478,,0.5,,stimuli/card_100_transparent.png,820,100,12,0,12,0,1,,,,,,,,,,,,,,,,,,,,,,,,,,,,,,,,,,,,,,,,,,,,,
,,,,,2023-10-09_16h32.10.803,SlotMachine_updated,2023.1.3,MacIntel,49.98750312,,,,,,,,,,,,,,,229.3694,up,0.2631,,0.5,,stimuli/card_100_transparent.png,920,100,13,0,13,0,1,,,,,,,,,,,,,,,,,,,,,,,,,,,,,,,,,,,,,,,,,,,,,
,,,,,2023-10-09_16h32.10.803,SlotMachine_updated,2023.1.3,MacIntel,49.98750312,,,,,,,,,,,,,,,230.4478,up,0.0458,,1,,stimuli/card_100_transparent.png,1020,100,14,0,14,0,1,,,,,,,,,,,,,,,,,,,,,,,,,,,,,,,,,,,,,,,,,,,,,
,,,,,2023-10-09_16h32.10.803,SlotMachine_updated,2023.1.3,MacIntel,49.98750312,,,,,,,,,,,,,,,,,,,,,,,,,,,,,,231.6903,1,0,1,0,1,,,,,,,,,,,,,,,,,,,,,,,,,,,,,,,,,,,,,,
,,,,,2023-10-09_16h32.10.803,SlotMachine_updated,2023.1.3,MacIntel,49.98750312,,,,,,,,,,,,,,,,,,,,,,,,,,,,,,,,,,,,,,236.6946,space,2.0807,,,,,,,,,,,,,,,,,,,,,,,,,,,,,,,,,
,,,,,2023-10-09_16h32.10.803,SlotMachine_updated,2023.1.3,MacIntel,49.98750312,,,,,,,,,,,,,,,,,,,,,,,,,,,,,,,,,,,,,,,,,,238.7901,2,"[2,4,8,0,1,3,9,6,8,5]",238.7902,space,1.8403,,,,,,,,,,,,,,,,,,,,,,,,,,
,,,,,2023-10-09_16h32.10.803,SlotMachine_updated,2023.1.3,MacIntel,49.98750312,,,,,,,,,,,,,,,,,,,,,,,,,,,,,,,,,,,,,,,,,,,,,,,,,1,3,"[15,15]","[[3,1,2],[3,1,2]]",240.6678,up,1.2626,,0.5,0.3,"[3,1,2]",0.193458642,stimuli/card_10_transparent.png,10,10,0,0,0,0,1,,,,,
,,,,,2023-10-09_16h32.10.803,SlotMachine_updated,2023.1.3,MacIntel,49.98750312,,,,,,,,,,,,,,,,,,,,,,,,,,,,,,,,,,,,,,,,,,,,,,,,,,,,,242.7509,up,0.3366,,1,0.3,"[3,1,2]",0.461537504,stimuli/card_100_transparent.png,110,100,1,0,1,0,1,,,,,
,,,,,2023-10-09_16h32.10.803,SlotMachine_updated,2023.1.3,MacIntel,49.98750312,,,,,,,,,,,,,,,,,,,,,,,,,,,,,,,,,,,,,,,,,,,,,,,,,,,,,244.4124,up,0.4173,,1,0.3,"[3,1,2]",0.025941603,stimuli/card_0_transparent.png,110,0,2,0,2,0,1,,,,,
,,,,,2023-10-09_16h32.10.803,SlotMachine_updated,2023.1.3,MacIntel,49.98750312,,,,,,,,,,,,,,,,,,,,,,,,,,,,,,,,,,,,,,,,,,,,,,,,,,,,,246.1555,left,0.6214,,0.5,0.3,"[3,1,2]",0.841400248,stimuli/card_0_transparent.png,110,0,3,0,3,0,1,,,,,
,,,,,2023-10-09_16h32.10.803,SlotMachine_updated,2023.1.3,MacIntel,49.98750312,,,,,,,,,,,,,,,,,,,,,,,,,,,,,,,,,,,,,,,,,,,,,,,,,,,,,247.5951,right,0.4146,,1.5,0.3,"[3,1,2]",0.933201073,stimuli/card_10_transparent.png,120,10,4,0,4,0,1,,,,,
,,,,,2023-10-09_16h32.10.803,SlotMachine_updated,2023.1.3,MacIntel,49.98750312,,,,,,,,,,,,,,,,,,,,,,,,,,,,,,,,,,,,,,,,,,,,,,,,,,,,,249.833,right,0.6617,,1,0.3,"[3,1,2]",0.552922259,stimuli/card_10_transparent.png,130,10,5,0,5,0,1,,,,,
,,,,,2023-10-09_16h32.10.803,SlotMachine_updated,2023.1.3,MacIntel,49.98750312,,,,,,,,,,,,,,,,,,,,,,,,,,,,,,,,,,,,,,,,,,,,,,,,,,,,,251.814,up,0.5467,,1.5,0.3,"[3,1,2]",0.465719144,stimuli/card_100_transparent.png,230,100,6,0,6,0,1,,,,,
,,,,,2023-10-09_16h32.10.803,SlotMachine_updated,2023.1.3,MacIntel,49.98750312,,,,,,,,,,,,,,,,,,,,,,,,,,,,,,,,,,,,,,,,,,,,,,,,,,,,,254.1754,up,0.4965,,0.5,0.3,"[3,1,2]",0.299680409,stimuli/card_100_transparent.png,330,100,7,0,7,0,1,,,,,
,,,,,2023-10-09_16h32.10.803,SlotMachine_updated,2023.1.3,MacIntel,49.98750312,,,,,,,,,,,,,,,,,,,,,,,,,,,,,,,,,,,,,,,,,,,,,,,,,,,,,255.4957,up,0.2556,,0.5,0.3,"[3,1,2]",0.43931998,stimuli/card_100_transparent.png,430,100,8,0,8,0,1,,,,,
,,,,,2023-10-09_16h32.10.803,SlotMachine_updated,2023.1.3,MacIntel,49.98750312,,,,,,,,,,,,,,,,,,,,,,,,,,,,,,,,,,,,,,,,,,,,,,,,,,,,,256.5798,up,0.1965,,1.5,0.3,"[3,1,2]",0.73469847,stimuli/card_100_transparent.png,530,100,9,0,9,0,1,,,,,
,,,,,2023-10-09_16h32.10.803,SlotMachine_updated,2023.1.3,MacIntel,49.98750312,,,,,,,,,,,,,,,,,,,,,,,,,,,,,,,,,,,,,,,,,,,,,,,,,,,,,258.5832,up,0.2298,,1.5,0.3,"[3,1,2]",0.52248001,stimuli/card_100_transparent.png,630,100,10,0,10,0,1,,,,,
,,,,,2023-10-09_16h32.10.803,SlotMachine_updated,2023.1.3,MacIntel,49.98750312,,,,,,,,,,,,,,,,,,,,,,,,,,,,,,,,,,,,,,,,,,,,,,,,,,,,,260.6341,up,0.0643,,0.5,0.3,"[3,1,2]",0.947692069,stimuli/card_100_transparent.png,730,100,11,0,11,0,1,,,,,
,,,,,2023-10-09_16h32.10.803,SlotMachine_updated,2023.1.3,MacIntel,49.98750312,,,,,,,,,,,,,,,,,,,,,,,,,,,,,,,,,,,,,,,,,,,,,,,,,,,,,261.5159,up,0.3806,,0.5,0.3,"[3,1,2]",0.276445581,stimuli/card_100_transparent.png,830,100,12,0,12,0,1,,,,,
,,,,,2023-10-09_16h32.10.803,SlotMachine_updated,2023.1.3,MacIntel,49.98750312,,,,,,,,,,,,,,,,,,,,,,,,,,,,,,,,,,,,,,,,,,,,,,,,,,,,,262.7173,up,0.3429,,0.5,0.3,"[3,1,2]",0.698294253,stimuli/card_100_transparent.png,930,100,13,0,13,0,1,,,,,
,,,,,2023-10-09_16h32.10.803,SlotMachine_updated,2023.1.3,MacIntel,49.98750312,,,,,,,,,,,,,,,,,,,,,,,,,,,,,,,,,,,,,,,,,,,,,,,,,,,,,263.8584,up,0.2994,,1,0.3,"[3,1,2]",0.655046522,stimuli/card_100_transparent.png,1030,100,14,0,14,0,1,,,,,
,,,,,2023-10-09_16h32.10.803,SlotMachine_updated,2023.1.3,MacIntel,49.98750312,,,,,,,,,,,,,,,,,,,,,,,,,,,,,,265.6272,,,,,,,,,,,,,,,,,,,,,,,,,,,,,,,,,,,,,,,0,0,0,0,1
,,,,,2023-10-09_16h32.10.803,SlotMachine_updated,2023.1.3,MacIntel,49.98750312,,,,,,,,,,,,,,,,,,,,,,,,,,,,,,,,,,,,,,,,,,,,,,,,,2,5,"[5,15]","[[1,2,3],[3,1,2]]",270.6348,up,0.8846,,0.5,0.3,"[1,2,3]",0.23004542,stimuli/card_10_transparent.png,10,10,0,0,0,0,1,,,,,
,,,,,2023-10-09_16h32.10.803,SlotMachine_updated,2023.1.3,MacIntel,49.98750312,,,,,,,,,,,,,,,,,,,,,,,,,,,,,,,,,,,,,,,,,,,,,,,,,,,,,272.3381,right,0.2189,,1.5,0.3,"[1,2,3]",0.978451043,stimuli/card_0_transparent.png,10,0,1,0,1,0,1,,,,,
,,,,,2023-10-09_16h32.10.803,SlotMachine_updated,2023.1.3,MacIntel,49.98750312,,,,,,,,,,,,,,,,,,,,,,,,,,,,,,,,,,,,,,,,,,,,,,,,,,,,,274.363,left,0.2152,,1,0.3,"[1,2,3]",0.190169654,stimuli/card_10_transparent.png,20,10,2,0,2,0,1,,,,,
,,,,,2023-10-09_16h32.10.803,SlotMachine_updated,2023.1.3,MacIntel,49.98750312,,,,,,,,,,,,,,,,,,,,,,,,,,,,,,,,,,,,,,,,,,,,,,,,,,,,,275.8805,left,0.9009,,0.5,0.3,"[1,2,3]",0.186492329,stimuli/card_10_transparent.png,30,10,3,0,3,0,1,,,,,
,,,,,2023-10-09_16h32.10.803,SlotMachine_updated,2023.1.3,MacIntel,49.98750312,,,,,,,,,,,,,,,,,,,,,,,,,,,,,,,,,,,,,,,,,,,,,,,,,,,,,277.5978,up,0.1651,,0.5,0.3,"[1,2,3]",0.574742642,stimuli/card_10_transparent.png,40,10,4,0,4,0,1,,,,,
,,,,,2023-10-09_16h32.10.803,SlotMachine_updated,2023.1.3,MacIntel,49.98750312,,,,,,,,,,,,,,,,,,,,,,,,,,,,,,,,,,,,,,,,,,,,,,,,,,,,,278.6,up,0.8453,,1.5,0.3,"[3,1,2]",0.266649296,stimuli/card_100_transparent.png,140,100,5,0,5,0,1,,,,,
,,,,,2023-10-09_16h32.10.803,SlotMachine_updated,2023.1.3,MacIntel,49.98750312,,,,,,,,,,,,,,,,,,,,,,,,,,,,,,,,,,,,,,,,,,,,,,,,,,,,,281.2524,up,0.3394,,0.5,0.3,"[3,1,2]",0.632536622,stimuli/card_100_transparent.png,240,100,6,0,6,0,1,,,,,
,,,,,2023-10-09_16h32.10.803,SlotMachine_updated,2023.1.3,MacIntel,49.98750312,,,,,,,,,,,,,,,,,,,,,,,,,,,,,,,,,,,,,,,,,,,,,,,,,,,,,282.4265,up,0.1264,,1,0.3,"[3,1,2]",0.504578771,stimuli/card_100_transparent.png,340,100,7,0,7,0,1,,,,,
,,,,,2023-10-09_16h32.10.803,SlotMachine_updated,2023.1.3,MacIntel,49.98750312,,,,,,,,,,,,,,,,,,,,,,,,,,,,,,,,,,,,,,,,,,,,,,,,,,,,,283.9067,up,1.4339,,0.5,0.3,"[3,1,2]",0.712343478,stimuli/card_100_transparent.png,440,100,8,0,8,0,1,,,,,
,,,,,2023-10-09_16h32.10.803,SlotMachine_updated,2023.1.3,MacIntel,49.98750312,,,,,,,,,,,,,,,,,,,,,,,,,,,,,,,,,,,,,,,,,,,,,,,,,,,,,286.2335,up,0.3138,,1.5,0.3,"[3,1,2]",0.003626155,stimuli/card_0_transparent.png,440,0,9,0,9,0,1,,,,,
,,,,,2023-10-09_16h32.10.803,SlotMachine_updated,2023.1.3,MacIntel,49.98750312,,,,,,,,,,,,,,,,,,,,,,,,,,,,,,,,,,,,,,,,,,,,,,,,,,,,,288.4228,up,0.1897,,0.5,0.3,"[3,1,2]",0.32527329,stimuli/card_100_transparent.png,540,100,10,0,10,0,1,,,,,
,,,,,2023-10-09_16h32.10.803,SlotMachine_updated,2023.1.3,MacIntel,49.98750312,,,,,,,,,,,,,,,,,,,,,,,,,,,,,,,,,,,,,,,,,,,,,,,,,,,,,289.4264,up,1.7486,,1,0.3,"[3,1,2]",0.716272183,stimuli/card_100_transparent.png,640,100,11,0,11,0,1,,,,,
,,,,,2023-10-09_16h32.10.803,SlotMachine_updated,2023.1.3,MacIntel,49.98750312,,,,,,,,,,,,,,,,,,,,,,,,,,,,,,,,,,,,,,,,,,,,,,,,,,,,,292.5045,up,0.378,,1,0.3,"[3,1,2]",0.242987504,stimuli/card_100_transparent.png,740,100,12,0,12,0,1,,,,,
,,,,,2023-10-09_16h32.10.803,SlotMachine_updated,2023.1.3,MacIntel,49.98750312,,,,,,,,,,,,,,,,,,,,,,,,,,,,,,,,,,,,,,,,,,,,,,,,,,,,,294.2079,up,0.4311,,1,0.3,"[3,1,2]",0.752451965,stimuli/card_100_transparent.png,840,100,13,0,13,0,1,,,,,
,,,,,2023-10-09_16h32.10.803,SlotMachine_updated,2023.1.3,MacIntel,49.98750312,,,,,,,,,,,,,,,,,,,,,,,,,,,,,,,,,,,,,,,,,,,,,,,,,,,,,295.9648,up,0.4292,,0.5,0.3,"[3,1,2]",0.795739536,stimuli/card_100_transparent.png,940,100,14,0,14,0,1,,,,,
,,,,,2023-10-09_16h32.10.803,SlotMachine_updated,2023.1.3,MacIntel,49.98750312,,,,,,,,,,,,,,,,,,,,,,,,,,,,,,297.2067,,,,,,,,,,,,,,,,,,,,,,,,,,,,,,,,,,,,,,,1,0,1,0,1
,,,,,2023-10-09_16h32.10.803,SlotMachine_updated,2023.1.3,MacIntel,49.98750312,,,,,,,,,,,,,,,,,,,,,,,,,,,,,,,,,,,,,,,,,,,,,,,,,3,9,"[8,15]","[[3,2,1],[3,1,2]]",302.1722,up,1.1613,,1.5,0.3,"[3,2,1]",0.629283749,stimuli/card_10_transparent.png,10,10,0,0,0,0,1,,,,,
,,,,,2023-10-09_16h32.10.803,SlotMachine_updated,2023.1.3,MacIntel,49.98750312,,,,,,,,,,,,,,,,,,,,,,,,,,,,,,,,,,,,,,,,,,,,,,,,,,,,,305.1574,right,1.0728,,1.5,0.3,"[3,2,1]",0.208606183,stimuli/card_100_transparent.png,110,100,1,0,1,0,1,,,,,
,,,,,2023-10-09_16h32.10.803,SlotMachine_updated,2023.1.3,MacIntel,49.98750312,,,,,,,,,,,,,,,,,,,,,,,,,,,,,,,,,,,,,,,,,,,,,,,,,,,,,308.0699,right,0.4657,,1.5,0.3,"[3,2,1]",0.250967955,stimuli/card_100_transparent.png,210,100,2,0,2,0,1,,,,,
,,,,,2023-10-09_16h32.10.803,SlotMachine_updated,2023.1.3,MacIntel,49.98750312,,,,,,,,,,,,,,,,,,,,,,,,,,,,,,,,,,,,,,,,,,,,,,,,,,,,,310.3499,right,0.0653,,0.5,0.3,"[3,2,1]",0.728557939,stimuli/card_100_transparent.png,310,100,3,0,3,0,1,,,,,
,,,,,2023-10-09_16h32.10.803,SlotMachine_updated,2023.1.3,MacIntel,49.98750312,,,,,,,,,,,,,,,,,,,,,,,,,,,,,,,,,,,,,,,,,,,,,,,,,,,,,311.2335,right,0.4205,,1,0.3,"[3,2,1]",0.079945542,stimuli/card_0_transparent.png,310,0,4,0,4,0,1,,,,,
,,,,,2023-10-09_16h32.10.803,SlotMachine_updated,2023.1.3,MacIntel,49.98750312,,,,,,,,,,,,,,,,,,,,,,,,,,,,,,,,,,,,,,,,,,,,,,,,,,,,,312.9698,right,1.7312,,1.5,0.3,"[3,2,1]",0.155420878,stimuli/card_10_transparent.png,320,10,5,0,5,0,1,,,,,
,,,,,2023-10-09_16h32.10.803,SlotMachine_updated,2023.1.3,MacIntel,49.98750312,,,,,,,,,,,,,,,,,,,,,,,,,,,,,,,,,,,,,,,,,,,,,,,,,,,,,316.5153,left,1.0419,,0.5,0.3,"[3,2,1]",0.233971877,stimuli/card_0_transparent.png,320,0,6,0,6,0,1,,,,,
,,,,,2023-10-09_16h32.10.803,SlotMachine_updated,2023.1.3,MacIntel,49.98750312,,,,,,,,,,,,,,,,,,,,,,,,,,,,,,,,,,,,,,,,,,,,,,,,,,,,,318.371,up,0.6473,,0.5,0.3,"[3,2,1]",0.728998519,stimuli/card_10_transparent.png,330,10,7,0,7,0,1,,,,,
,,,,,2023-10-09_16h32.10.803,SlotMachine_updated,2023.1.3,MacIntel,49.98750312,,,,,,,,,,,,,,,,,,,,,,,,,,,,,,,,,,,,,,,,,,,,,,,,,,,,,319.835,up,0.6442,,1.5,0.3,"[3,1,2]",0.904276688,stimuli/card_100_transparent.png,430,100,8,0,8,0,1,,,,,
,,,,,2023-10-09_16h32.10.803,SlotMachine_updated,2023.1.3,MacIntel,49.98750312,,,,,,,,,,,,,,,,,,,,,,,,,,,,,,,,,,,,,,,,,,,,,,,,,,,,,322.2925,up,0.6014,,0.5,0.3,"[3,1,2]",0.920406234,stimuli/card_100_transparent.png,530,100,9,0,9,0,1,,,,,
,,,,,2023-10-09_16h32.10.803,SlotMachine_updated,2023.1.3,MacIntel,49.98750312,,,,,,,,,,,,,,,,,,,,,,,,,,,,,,,,,,,,,,,,,,,,,,,,,,,,,323.7129,up,0.1139,,1,0.3,"[3,1,2]",0.291744843,stimuli/card_100_transparent.png,630,100,10,0,10,0,1,,,,,
,,,,,2023-10-09_16h32.10.803,SlotMachine_updated,2023.1.3,MacIntel,49.98750312,,,,,,,,,,,,,,,,,,,,,,,,,,,,,,,,,,,,,,,,,,,,,,,,,,,,,325.1561,up,0.0385,,1.5,0.3,"[3,1,2]",0.817810687,stimuli/card_100_transparent.png,730,100,11,0,11,0,1,,,,,
,,,,,2023-10-09_16h32.10.803,SlotMachine_updated,2023.1.3,MacIntel,49.98750312,,,,,,,,,,,,,,,,,,,,,,,,,,,,,,,,,,,,,,,,,,,,,,,,,,,,,327.014,up,0.0629,,0.5,0.3,"[3,1,2]",0.803825419,stimuli/card_100_transparent.png,830,100,12,0,12,0,1,,,,,
,,,,,2023-10-09_16h32.10.803,SlotMachine_updated,2023.1.3,MacIntel,49.98750312,,,,,,,,,,,,,,,,,,,,,,,,,,,,,,,,,,,,,,,,,,,,,,,,,,,,,327.8785,up,0.2616,,1.5,0.3,"[3,1,2]",0.877480979,stimuli/card_100_transparent.png,930,100,13,0,13,0,1,,,,,
,,,,,2023-10-09_16h32.10.803,SlotMachine_updated,2023.1.3,MacIntel,49.98750312,,,,,,,,,,,,,,,,,,,,,,,,,,,,,,,,,,,,,,,,,,,,,,,,,,,,,329.9566,up,0.0632,,0.5,0.3,"[3,1,2]",0.500515133,stimuli/card_100_transparent.png,1030,100,14,0,14,0,1,,,,,
,,,,,2023-10-09_16h32.10.803,SlotMachine_updated,2023.1.3,MacIntel,49.98750312,,,,,,,,,,,,,,,,,,,,,,,,,,,,,,330.8356,,,,,,,,,,,,,,,,,,,,,,,,,,,,,,,,,,,,,,,2,0,2,0,1
,,,,,2023-10-09_16h32.10.803,SlotMachine_updated,2023.1.3,MacIntel,49.98750312,,,,,,,,,,,,,,,,,,,,,,,,,,,,,,,,,,,,,,,,,,,,,,,,,4,1,"[12,15]","[[2,1,3],[2,3,1]]",336.4425,up,0.8074,,0.5,0.3,"[2,1,3]",0.544863028,stimuli/card_100_transparent.png,100,100,0,0,0,0,1,,,,,
,,,,,2023-10-09_16h32.10.803,SlotMachine_updated,2023.1.3,MacIntel,49.98750312,,,,,,,,,,,,,,,,,,,,,,,,,,,,,,,,,,,,,,,,,,,,,,,,,,,,,338.1533,up,0.0893,,1,0.3,"[2,1,3]",0.514029096,stimuli/card_100_transparent.png,200,100,1,0,1,0,1,,,,,
,,,,,2023-10-09_16h32.10.803,SlotMachine_updated,2023.1.3,MacIntel,49.98750312,,,,,,,,,,,,,,,,,,,,,,,,,,,,,,,,,,,,,,,,,,,,,,,,,,,,,339.6131,up,0.0592,,1.5,0.3,"[2,1,3]",0.90582128,stimuli/card_100_transparent.png,300,100,2,0,2,0,1,,,,,
,,,,,2023-10-09_16h32.10.803,SlotMachine_updated,2023.1.3,MacIntel,49.98750312,,,,,,,,,,,,,,,,,,,,,,,,,,,,,,,,,,,,,,,,,,,,,,,,,,,,,341.4979,up,0.0239,,1.5,0.3,"[2,1,3]",0.403892065,stimuli/card_100_transparent.png,400,100,3,0,3,0,1,,,,,
,,,,,2023-10-09_16h32.10.803,SlotMachine_updated,2023.1.3,MacIntel,49.98750312,,,,,,,,,,,,,,,,,,,,,,,,,,,,,,,,,,,,,,,,,,,,,,,,,,,,,343.3377,up,0.0787,,0.5,0.3,"[2,1,3]",0.710697867,stimuli/card_100_transparent.png,500,100,4,0,4,0,1,,,,,
,,,,,2023-10-09_16h32.10.803,SlotMachine_updated,2023.1.3,MacIntel,49.98750312,,,,,,,,,,,,,,,,,,,,,,,,,,,,,,,,,,,,,,,,,,,,,,,,,,,,,344.238,up,0.1999,,1.5,0.3,"[2,1,3]",0.469830402,stimuli/card_100_transparent.png,600,100,5,0,5,0,1,,,,,
,,,,,2023-10-09_16h32.10.803,SlotMachine_updated,2023.1.3,MacIntel,49.98750312,,,,,,,,,,,,,,,,,,,,,,,,,,,,,,,,,,,,,,,,,,,,,,,,,,,,,346.2669,up,0.0013,,0.5,0.3,"[2,1,3]",0.844006747,stimuli/card_100_transparent.png,700,100,6,0,6,0,1,,,,,
,,,,,2023-10-09_16h32.10.803,SlotMachine_updated,2023.1.3,MacIntel,49.98750312,,,,,,,,,,,,,,,,,,,,,,,,,,,,,,,,,,,,,,,,,,,,,,,,,,,,,347.0831,up,0.0994,,0.5,0.3,"[2,1,3]",0.371296833,stimuli/card_100_transparent.png,800,100,7,0,7,0,1,,,,,
,,,,,2023-10-09_16h32.10.803,SlotMachine_updated,2023.1.3,MacIntel,49.98750312,,,,,,,,,,,,,,,,,,,,,,,,,,,,,,,,,,,,,,,,,,,,,,,,,,,,,348.0023,up,0.0803,,1,0.3,"[2,1,3]",0.196261633,stimuli/card_10_transparent.png,810,10,8,0,8,0,1,,,,,
,,,,,2023-10-09_16h32.10.803,SlotMachine_updated,2023.1.3,MacIntel,49.98750312,,,,,,,,,,,,,,,,,,,,,,,,,,,,,,,,,,,,,,,,,,,,,,,,,,,,,349.403,up,0.0418,,1,0.3,"[2,1,3]",0.945580552,stimuli/card_100_transparent.png,910,100,9,0,9,0,1,,,,,
,,,,,2023-10-09_16h32.10.803,SlotMachine_updated,2023.1.3,MacIntel,49.98750312,,,,,,,,,,,,,,,,,,,,,,,,,,,,,,,,,,,,,,,,,,,,,,,,,,,,,350.762,up,0.6651,,1.5,0.3,"[2,1,3]",0.838509865,stimuli/card_100_transparent.png,1010,100,10,0,10,0,1,,,,,
,,,,,2023-10-09_16h32.10.803,SlotMachine_updated,2023.1.3,MacIntel,49.98750312,,,,,,,,,,,,,,,,,,,,,,,,,,,,,,,,,,,,,,,,,,,,,,,,,,,,,353.2434,up,0.2145,,1.5,0.3,"[2,1,3]",0.328958448,stimuli/card_100_transparent.png,1110,100,11,0,11,0,1,,,,,
,,,,,2023-10-09_16h32.10.803,SlotMachine_updated,2023.1.3,MacIntel,49.98750312,,,,,,,,,,,,,,,,,,,,,,,,,,,,,,,,,,,,,,,,,,,,,,,,,,,,,355.2866,up,0.0781,,0.5,0.3,"[2,3,1]",0.957269273,stimuli/card_0_transparent.png,1110,0,12,0,12,0,1,,,,,
,,,,,2023-10-09_16h32.10.803,SlotMachine_updated,2023.1.3,MacIntel,49.98750312,,,,,,,,,,,,,,,,,,,,,,,,,,,,,,,,,,,,,,,,,,,,,,,,,,,,,356.1864,right,0.6828,,1,0.3,"[2,3,1]",0.36751724,stimuli/card_100_transparent.png,1210,100,13,0,13,0,1,,,,,
,,,,,2023-10-09_16h32.10.803,SlotMachine_updated,2023.1.3,MacIntel,49.98750312,,,,,,,,,,,,,,,,,,,,,,,,,,,,,,,,,,,,,,,,,,,,,,,,,,,,,358.1824,right,0.1352,,0.5,0.3,"[2,3,1]",0.964142506,stimuli/card_100_transparent.png,1310,100,14,0,14,0,1,,,,,
,,,,,2023-10-09_16h32.10.803,SlotMachine_updated,2023.1.3,MacIntel,49.98750312,,,,,,,,,,,,,,,,,,,,,,,,,,,,,,359.1428,,,,,,,,,,,,,,,,,,,,,,,,,,,,,,,,,,,,,,,3,0,3,0,1
,,,,,2023-10-09_16h32.10.803,SlotMachine_updated,2023.1.3,MacIntel,49.98750312,,,,,,,,,,,,,,,,,,,,,,,,,,,,,,,,,,,,,,,,,,,,,,,,,5,2,"[6,15]","[[1,3,2],[3,2,1]]",364.1604,left,0.8875,,1.5,0.3,"[1,3,2]",0.0600926,stimuli/card_0_transparent.png,0,0,0,0,0,0,1,,,,,
,,,,,2023-10-09_16h32.10.803,SlotMachine_updated,2023.1.3,MacIntel,49.98750312,,,,,,,,,,,,,,,,,,,,,,,,,,,,,,,,,,,,,,,,,,,,,,,,,,,,,366.8664,up,0.506,,0.5,0.3,"[1,3,2]",0.231014416,stimuli/card_0_transparent.png,0,0,1,0,1,0,1,,,,,
,,,,,2023-10-09_16h32.10.803,SlotMachine_updated,2023.1.3,MacIntel,49.98750312,,,,,,,,,,,,,,,,,,,,,,,,,,,,,,,,,,,,,,,,,,,,,,,,,,,,,368.1866,right,0.5013,,0.5,0.3,"[1,3,2]",0.277965123,stimuli/card_10_transparent.png,10,10,2,0,2,0,1,,,,,
,,,,,2023-10-09_16h32.10.803,SlotMachine_updated,2023.1.3,MacIntel,49.98750312,,,,,,,,,,,,,,,,,,,,,,,,,,,,,,,,,,,,,,,,,,,,,,,,,,,,,369.5038,right,0.4362,,1.5,0.3,"[1,3,2]",0.852874654,stimuli/card_10_transparent.png,20,10,3,0,3,0,1,,,,,
,,,,,2023-10-09_16h32.10.803,SlotMachine_updated,2023.1.3,MacIntel,49.98750312,,,,,,,,,,,,,,,,,,,,,,,,,,,,,,,,,,,,,,,,,,,,,,,,,,,,,371.7481,right,0.439,,1,0.3,"[1,3,2]",0.09641059,stimuli/card_0_transparent.png,20,0,4,0,4,0,1,,,,,
,,,,,2023-10-09_16h32.10.803,SlotMachine_updated,2023.1.3,MacIntel,49.98750312,,,,,,,,,,,,,,,,,,,,,,,,,,,,,,,,,,,,,,,,,,,,,,,,,,,,,373.507,up,0.2098,,1.5,0.3,"[1,3,2]",0.589919839,stimuli/card_0_transparent.png,20,0,5,0,5,0,1,,,,,
,,,,,2023-10-09_16h32.10.803,SlotMachine_updated,2023.1.3,MacIntel,49.98750312,,,,,,,,,,,,,,,,,,,,,,,,,,,,,,,,,,,,,,,,,,,,,,,,,,,,,375.5263,left,0.3118,,1,0.3,"[3,2,1]",0.381717151,stimuli/card_0_transparent.png,20,0,6,0,6,0,1,,,,,
,,,,,2023-10-09_16h32.10.803,SlotMachine_updated,2023.1.3,MacIntel,49.98750312,,,,,,,,,,,,,,,,,,,,,,,,,,,,,,,,,,,,,,,,,,,,,,,,,,,,,377.1485,left,0.4373,,1.5,0.3,"[3,2,1]",0.00638352,stimuli/card_100_transparent.png,120,100,7,0,7,0,1,,,,,
,,,,,2023-10-09_16h32.10.803,SlotMachine_updated,2023.1.3,MacIntel,49.98750312,,,,,,,,,,,,,,,,,,,,,,,,,,,,,,,,,,,,,,,,,,,,,,,,,,,,,379.3897,left,0.276,,0.5,0.3,"[3,2,1]",0.327513489,stimuli/card_0_transparent.png,120,0,8,0,8,0,1,,,,,
,,,,,2023-10-09_16h32.10.803,SlotMachine_updated,2023.1.3,MacIntel,49.98750312,,,,,,,,,,,,,,,,,,,,,,,,,,,,,,,,,,,,,,,,,,,,,,,,,,,,,380.4894,left,0.4823,,1,0.3,"[3,2,1]",0.704170872,stimuli/card_0_transparent.png,120,0,9,0,9,0,1,,,,,
,,,,,2023-10-09_16h32.10.803,SlotMachine_updated,2023.1.3,MacIntel,49.98750312,,,,,,,,,,,,,,,,,,,,,,,,,,,,,,,,,,,,,,,,,,,,,,,,,,,,,382.288,right,0.2226,,1.5,0.3,"[3,2,1]",0.327056186,stimuli/card_100_transparent.png,220,100,10,0,10,0,1,,,,,
,,,,,2023-10-09_16h32.10.803,SlotMachine_updated,2023.1.3,MacIntel,49.98750312,,,,,,,,,,,,,,,,,,,,,,,,,,,,,,,,,,,,,,,,,,,,,,,,,,,,,384.3291,right,0.3373,,1.5,0.3,"[3,2,1]",0.110173781,stimuli/card_10_transparent.png,230,10,11,0,11,0,1,,,,,
,,,,,2023-10-09_16h32.10.803,SlotMachine_updated,2023.1.3,MacIntel,49.98750312,,,,,,,,,,,,,,,,,,,,,,,,,,,,,,,,,,,,,,,,,,,,,,,,,,,,,386.49,right,0.1106,,1.5,0.3,"[3,2,1]",0.552335553,stimuli/card_100_transparent.png,330,100,12,0,12,0,1,,,,,
,,,,,2023-10-09_16h32.10.803,SlotMachine_updated,2023.1.3,MacIntel,49.98750312,,,,,,,,,,,,,,,,,,,,,,,,,,,,,,,,,,,,,,,,,,,,,,,,,,,,,388.4101,right,0.1337,,0.5,0.3,"[3,2,1]",0.305400346,stimuli/card_100_transparent.png,430,100,13,0,13,0,1,,,,,
,,,,,2023-10-09_16h32.10.803,SlotMachine_updated,2023.1.3,MacIntel,49.98750312,,,,,,,,,,,,,,,,,,,,,,,,,,,,,,,,,,,,,,,,,,,,,,,,,,,,,389.3562,right,0.3587,,0.5,0.3,"[3,2,1]",0.43013599,stimuli/card_100_transparent.png,530,100,14,0,14,0,1,,,,,
,,,,,2023-10-09_16h32.10.803,SlotMachine_updated,2023.1.3,MacIntel,49.98750312,,,,,,,,,,,,,,,,,,,,,,,,,,,,,,390.5378,,,,,,,,,,,,,,,,,,,,,,,,,,,,,,,,,,,,,,,4,0,4,0,1
,,,,,2023-10-09_16h32.10.803,SlotMachine_updated,2023.1.3,MacIntel,49.98750312,,,,,,,,,,,,,,,,,,,,,,,,,,,,,,,,,,,,,,,,,,,,,,,,,6,4,"[7,15]","[[2,3,1],[1,2,3]]",395.5456,up,0.5333,,1.5,0.3,"[2,3,1]",0.139638886,stimuli/card_10_transparent.png,10,10,0,0,0,0,1,,,,,
,,,,,2023-10-09_16h32.10.803,SlotMachine_updated,2023.1.3,MacIntel,49.98750312,,,,,,,,,,,,,,,,,,,,,,,,,,,,,,,,,,,,,,,,,,,,,,,,,,,,,397.8737,up,0.4956,,0.5,0.3,"[2,3,1]",0.906861636,stimuli/card_0_transparent.png,10,0,1,0,1,0,1,,,,,
,,,,,2023-10-09_16h32.10.803,SlotMachine_updated,2023.1.3,MacIntel,49.98750312,,,,,,,,,,,,,,,,,,,,,,,,,,,,,,,,,,,,,,,,,,,,,,,,,,,,,399.1937,right,0.5469,,1,0.3,"[2,3,1]",0.310696104,stimuli/card_100_transparent.png,110,100,2,0,2,0,1,,,,,
,,,,,2023-10-09_16h32.10.803,SlotMachine_updated,2023.1.3,MacIntel,49.98750312,,,,,,,,,,,,,,,,,,,,,,,,,,,,,,,,,,,,,,,,,,,,,,,,,,,,,401.0553,right,0.3815,,0.5,0.3,"[2,3,1]",0.231499611,stimuli/card_100_transparent.png,210,100,3,0,3,0,1,,,,,
,,,,,2023-10-09_16h32.10.803,SlotMachine_updated,2023.1.3,MacIntel,49.98750312,,,,,,,,,,,,,,,,,,,,,,,,,,,,,,,,,,,,,,,,,,,,,,,,,,,,,402.2554,right,0.1825,,1,0.3,"[2,3,1]",0.968428527,stimuli/card_100_transparent.png,310,100,4,0,4,0,1,,,,,
,,,,,2023-10-09_16h32.10.803,SlotMachine_updated,2023.1.3,MacIntel,49.98750312,,,,,,,,,,,,,,,,,,,,,,,,,,,,,,,,,,,,,,,,,,,,,,,,,,,,,403.7573,right,0.0988,,1.5,0.3,"[2,3,1]",0.162481332,stimuli/card_10_transparent.png,320,10,5,0,5,0,1,,,,,
,,,,,2023-10-09_16h32.10.803,SlotMachine_updated,2023.1.3,MacIntel,49.98750312,,,,,,,,,,,,,,,,,,,,,,,,,,,,,,,,,,,,,,,,,,,,,,,,,,,,,405.6775,right,0.1784,,1,0.3,"[2,3,1]",0.887466977,stimuli/card_100_transparent.png,420,100,6,0,6,0,1,,,,,
,,,,,2023-10-09_16h32.10.803,SlotMachine_updated,2023.1.3,MacIntel,49.98750312,,,,,,,,,,,,,,,,,,,,,,,,,,,,,,,,,,,,,,,,,,,,,,,,,,,,,407.1759,right,0.2249,,0.5,0.3,"[1,2,3]",0.731082135,stimuli/card_0_transparent.png,420,0,7,0,7,0,1,,,,,
,,,,,2023-10-09_16h32.10.803,SlotMachine_updated,2023.1.3,MacIntel,49.98750312,,,,,,,,,,,,,,,,,,,,,,,,,,,,,,,,,,,,,,,,,,,,,,,,,,,,,408.2175,left,0.564,,1,0.3,"[1,2,3]",0.999396214,stimuli/card_100_transparent.png,520,100,8,0,8,0,1,,,,,
,,,,,2023-10-09_16h32.10.803,SlotMachine_updated,2023.1.3,MacIntel,49.98750312,,,,,,,,,,,,,,,,,,,,,,,,,,,,,,,,,,,,,,,,,,,,,,,,,,,,,410.0974,left,0.235,,0.5,0.3,"[1,2,3]",0.696814344,stimuli/card_100_transparent.png,620,100,9,0,9,0,1,,,,,
,,,,,2023-10-09_16h32.10.803,SlotMachine_updated,2023.1.3,MacIntel,49.98750312,,,,,,,,,,,,,,,,,,,,,,,,,,,,,,,,,,,,,,,,,,,,,,,,,,,,,411.1573,left,0.0765,,0.5,0.3,"[1,2,3]",0.420934912,stimuli/card_100_transparent.png,720,100,10,0,10,0,1,,,,,
,,,,,2023-10-09_16h32.10.803,SlotMachine_updated,2023.1.3,MacIntel,49.98750312,,,,,,,,,,,,,,,,,,,,,,,,,,,,,,,,,,,,,,,,,,,,,,,,,,,,,412.0568,left,0.1051,,1,0.3,"[1,2,3]",0.508387173,stimuli/card_100_transparent.png,820,100,11,0,11,0,1,,,,,
,,,,,2023-10-09_16h32.10.803,SlotMachine_updated,2023.1.3,MacIntel,49.98750312,,,,,,,,,,,,,,,,,,,,,,,,,,,,,,,,,,,,,,,,,,,,,,,,,,,,,413.4791,left,0.0109,,1.5,0.3,"[1,2,3]",0.26120716,stimuli/card_100_transparent.png,920,100,12,0,12,0,1,,,,,
,,,,,2023-10-09_16h32.10.803,SlotMachine_updated,2023.1.3,MacIntel,49.98750312,,,,,,,,,,,,,,,,,,,,,,,,,,,,,,,,,,,,,,,,,,,,,,,,,,,,,415.3198,left,0.0415,,1,0.3,"[1,2,3]",0.369723949,stimuli/card_100_transparent.png,1020,100,13,0,13,0,1,,,,,
,,,,,2023-10-09_16h32.10.803,SlotMachine_updated,2023.1.3,MacIntel,49.98750312,,,,,,,,,,,,,,,,,,,,,,,,,,,,,,,,,,,,,,,,,,,,,,,,,,,,,416.651,left,0.1241,,0.5,0.3,"[1,2,3]",0.020250133,stimuli/card_0_transparent.png,1020,0,14,0,14,0,1,,,,,
,,,,,2023-10-09_16h32.10.803,SlotMachine_updated,2023.1.3,MacIntel,49.98750312,,,,,,,,,,,,,,,,,,,,,,,,,,,,,,417.6002,,,,,,,,,,,,,,,,,,,,,,,,,,,,,,,,,,,,,,,5,0,5,0,1
,,,,,2023-10-09_16h32.10.803,SlotMachine_updated,2023.1.3,MacIntel,49.98750312,,,,,,,,,,,,,,,,,,,,,,,,,,,,,,,,,,,,,,,,,,,,,,,,,7,10,"[10,15]","[[3,1,2],[1,3,2]]",422.6165,up,0.8572,,0.5,0.3,"[3,1,2]",0.841430177,stimuli/card_100_transparent.png,100,100,0,0,0,0,1,,,,,
,,,,,2023-10-09_16h32.10.803,SlotMachine_updated,2023.1.3,MacIntel,49.98750312,,,,,,,,,,,,,,,,,,,,,,,,,,,,,,,,,,,,,,,,,,,,,,,,,,,,,424.2998,up,0.1811,,1,0.3,"[3,1,2]",0.093749716,stimuli/card_0_transparent.png,100,0,1,0,1,0,1,,,,,
,,,,,2023-10-09_16h32.10.803,SlotMachine_updated,2023.1.3,MacIntel,49.98750312,,,,,,,,,,,,,,,,,,,,,,,,,,,,,,,,,,,,,,,,,,,,,,,,,,,,,425.8025,up,0.0811,,1.5,0.3,"[3,1,2]",0.678665578,stimuli/card_100_transparent.png,200,100,2,0,2,0,1,,,,,
,,,,,2023-10-09_16h32.10.803,SlotMachine_updated,2023.1.3,MacIntel,49.98750312,,,,,,,,,,,,,,,,,,,,,,,,,,,,,,,,,,,,,,,,,,,,,,,,,,,,,427.7036,right,0.1352,,1.5,0.3,"[3,1,2]",0.867171472,stimuli/card_10_transparent.png,210,10,3,0,3,0,1,,,,,
,,,,,2023-10-09_16h32.10.803,SlotMachine_updated,2023.1.3,MacIntel,49.98750312,,,,,,,,,,,,,,,,,,,,,,,,,,,,,,,,,,,,,,,,,,,,,,,,,,,,,429.6634,up,0.1701,,1,0.3,"[3,1,2]",0.911567249,stimuli/card_100_transparent.png,310,100,4,0,4,0,1,,,,,
,,,,,2023-10-09_16h32.10.803,SlotMachine_updated,2023.1.3,MacIntel,49.98750312,,,,,,,,,,,,,,,,,,,,,,,,,,,,,,,,,,,,,,,,,,,,,,,,,,,,,431.1421,up,0.0218,,1.5,0.3,"[3,1,2]",0.521518096,stimuli/card_100_transparent.png,410,100,5,0,5,0,1,,,,,
,,,,,2023-10-09_16h32.10.803,SlotMachine_updated,2023.1.3,MacIntel,49.98750312,,,,,,,,,,,,,,,,,,,,,,,,,,,,,,,,,,,,,,,,,,,,,,,,,,,,,432.9837,up,0.1448,,1.5,0.3,"[3,1,2]",0.338492535,stimuli/card_100_transparent.png,510,100,6,0,6,0,1,,,,,
,,,,,2023-10-09_16h32.10.803,SlotMachine_updated,2023.1.3,MacIntel,49.98750312,,,,,,,,,,,,,,,,,,,,,,,,,,,,,,,,,,,,,,,,,,,,,,,,,,,,,434.9442,up,0.0954,,0.5,0.3,"[3,1,2]",0.816085475,stimuli/card_100_transparent.png,610,100,7,0,7,0,1,,,,,
,,,,,2023-10-09_16h32.10.803,SlotMachine_updated,2023.1.3,MacIntel,49.98750312,,,,,,,,,,,,,,,,,,,,,,,,,,,,,,,,,,,,,,,,,,,,,,,,,,,,,435.8622,up,0.4398,,1,0.3,"[3,1,2]",0.889038754,stimuli/card_100_transparent.png,710,100,8,0,8,0,1,,,,,
,,,,,2023-10-09_16h32.10.803,SlotMachine_updated,2023.1.3,MacIntel,49.98750312,,,,,,,,,,,,,,,,,,,,,,,,,,,,,,,,,,,,,,,,,,,,,,,,,,,,,437.6246,up,0.1183,,0.5,0.3,"[3,1,2]",0.604279207,stimuli/card_100_transparent.png,810,100,9,0,9,0,1,,,,,
,,,,,2023-10-09_16h32.10.803,SlotMachine_updated,2023.1.3,MacIntel,49.98750312,,,,,,,,,,,,,,,,,,,,,,,,,,,,,,,,,,,,,,,,,,,,,,,,,,,,,438.5642,up,0.1063,,0.5,0.3,"[1,3,2]",0.202056707,stimuli/card_0_transparent.png,810,0,10,0,10,0,1,,,,,
,,,,,2023-10-09_16h32.10.803,SlotMachine_updated,2023.1.3,MacIntel,49.98750312,,,,,,,,,,,,,,,,,,,,,,,,,,,,,,,,,,,,,,,,,,,,,,,,,,,,,439.5066,up,0.1355,,1.5,0.3,"[1,3,2]",0.006674046,stimuli/card_100_transparent.png,910,100,11,0,11,0,1,,,,,
,,,,,2023-10-09_16h32.10.803,SlotMachine_updated,2023.1.3,MacIntel,49.98750312,,,,,,,,,,,,,,,,,,,,,,,,,,,,,,,,,,,,,,,,,,,,,,,,,,,,,441.4646,up,0.2475,,0.5,0.3,"[1,3,2]",0.88613629,stimuli/card_0_transparent.png,910,0,12,0,12,0,1,,,,,
,,,,,2023-10-09_16h32.10.803,SlotMachine_updated,2023.1.3,MacIntel,49.98750312,,,,,,,,,,,,,,,,,,,,,,,,,,,,,,,,,,,,,,,,,,,,,,,,,,,,,442.5282,right,0.5014,,1,0.3,"[1,3,2]",0.644462317,stimuli/card_10_transparent.png,920,10,13,0,13,0,1,,,,,
,,,,,2023-10-09_16h32.10.803,SlotMachine_updated,2023.1.3,MacIntel,49.98750312,,,,,,,,,,,,,,,,,,,,,,,,,,,,,,,,,,,,,,,,,,,,,,,,,,,,,444.3448,left,0.4532,,1,0.3,"[1,3,2]",0.328911728,stimuli/card_100_transparent.png,1020,100,14,0,14,0,1,,,,,
,,,,,2023-10-09_16h32.10.803,SlotMachine_updated,2023.1.3,MacIntel,49.98750312,,,,,,,,,,,,,,,,,,,,,,,,,,,,,,446.1064,,,,,,,,,,,,,,,,,,,,,,,,,,,,,,,,,,,,,,,6,0,6,0,1
,,,,,2023-10-09_16h32.10.803,SlotMachine_updated,2023.1.3,MacIntel,49.98750312,,,,,,,,,,,,,,,,,,,,,,,,,,,,,,,,,,,,,,,,,,,,,,,,,8,7,"[9,15]","[[1,3,2],[2,3,1]]",451.1247,up,1.5495,,0.5,0.3,"[1,3,2]",0.793852392,stimuli/card_0_transparent.png,0,0,0,0,0,0,1,,,,,
,,,,,2023-10-09_16h32.10.803,SlotMachine_updated,2023.1.3,MacIntel,49.98750312,,,,,,,,,,,,,,,,,,,,,,,,,,,,,,,,,,,,,,,,,,,,,,,,,,,,,453.4885,right,0.2613,,1.5,0.3,"[1,3,2]",0.356203954,stimuli/card_10_transparent.png,10,10,1,0,1,0,1,,,,,
,,,,,2023-10-09_16h32.10.803,SlotMachine_updated,2023.1.3,MacIntel,49.98750312,,,,,,,,,,,,,,,,,,,,,,,,,,,,,,,,,,,,,,,,,,,,,,,,,,,,,455.5756,left,0.4255,,1,0.3,"[1,3,2]",0.654885713,stimuli/card_100_transparent.png,110,100,2,0,2,0,1,,,,,
,,,,,2023-10-09_16h32.10.803,SlotMachine_updated,2023.1.3,MacIntel,49.98750312,,,,,,,,,,,,,,,,,,,,,,,,,,,,,,,,,,,,,,,,,,,,,,,,,,,,,457.3282,left,0.4391,,1.5,0.3,"[1,3,2]",0.30806864,stimuli/card_100_transparent.png,210,100,3,0,3,0,1,,,,,
,,,,,2023-10-09_16h32.10.803,SlotMachine_updated,2023.1.3,MacIntel,49.98750312,,,,,,,,,,,,,,,,,,,,,,,,,,,,,,,,,,,,,,,,,,,,,,,,,,,,,459.5943,left,0.037,,1.5,0.3,"[1,3,2]",0.58083301,stimuli/card_100_transparent.png,310,100,4,0,4,0,1,,,,,
,,,,,2023-10-09_16h32.10.803,SlotMachine_updated,2023.1.3,MacIntel,49.98750312,,,,,,,,,,,,,,,,,,,,,,,,,,,,,,,,,,,,,,,,,,,,,,,,,,,,,461.451,left,0.1044,,1.5,0.3,"[1,3,2]",0.780860752,stimuli/card_100_transparent.png,410,100,5,0,5,0,1,,,,,
,,,,,2023-10-09_16h32.10.803,SlotMachine_updated,2023.1.3,MacIntel,49.98750312,,,,,,,,,,,,,,,,,,,,,,,,,,,,,,,,,,,,,,,,,,,,,,,,,,,,,463.3729,left,0.0837,,0.5,0.3,"[1,3,2]",0.556110265,stimuli/card_100_transparent.png,510,100,6,0,6,0,1,,,,,
,,,,,2023-10-09_16h32.10.803,SlotMachine_updated,2023.1.3,MacIntel,49.98750312,,,,,,,,,,,,,,,,,,,,,,,,,,,,,,,,,,,,,,,,,,,,,,,,,,,,,464.2739,left,0.2376,,1,0.3,"[1,3,2]",0.297214668,stimuli/card_100_transparent.png,610,100,7,0,7,0,1,,,,,
,,,,,2023-10-09_16h32.10.803,SlotMachine_updated,2023.1.3,MacIntel,49.98750312,,,,,,,,,,,,,,,,,,,,,,,,,,,,,,,,,,,,,,,,,,,,,,,,,,,,,465.8343,left,0.1337,,1.5,0.3,"[1,3,2]",0.013714426,stimuli/card_0_transparent.png,610,0,8,0,8,0,1,,,,,
,,,,,2023-10-09_16h32.10.803,SlotMachine_updated,2023.1.3,MacIntel,49.98750312,,,,,,,,,,,,,,,,,,,,,,,,,,,,,,,,,,,,,,,,,,,,,,,,,,,,,467.7944,left,0.1608,,1.5,0.3,"[2,3,1]",0.307492212,stimuli/card_10_transparent.png,620,10,9,0,9,0,1,,,,,
,,,,,2023-10-09_16h32.10.803,SlotMachine_updated,2023.1.3,MacIntel,49.98750312,,,,,,,,,,,,,,,,,,,,,,,,,,,,,,,,,,,,,,,,,,,,,,,,,,,,,469.7708,right,0.3842,,1.5,0.3,"[2,3,1]",0.597067138,stimuli/card_100_transparent.png,720,100,10,0,10,0,1,,,,,
,,,,,2023-10-09_16h32.10.803,SlotMachine_updated,2023.1.3,MacIntel,49.98750312,,,,,,,,,,,,,,,,,,,,,,,,,,,,,,,,,,,,,,,,,,,,,,,,,,,,,471.977,right,0.2762,,1.5,0.3,"[2,3,1]",0.147246178,stimuli/card_10_transparent.png,730,10,11,0,11,0,1,,,,,
,,,,,2023-10-09_16h32.10.803,SlotMachine_updated,2023.1.3,MacIntel,49.98750312,,,,,,,,,,,,,,,,,,,,,,,,,,,,,,,,,,,,,,,,,,,,,,,,,,,,,474.0754,right,0.5044,,1,0.3,"[2,3,1]",0.096578049,stimuli/card_0_transparent.png,730,0,12,0,12,0,1,,,,,
,,,,,2023-10-09_16h32.10.803,SlotMachine_updated,2023.1.3,MacIntel,49.98750312,,,,,,,,,,,,,,,,,,,,,,,,,,,,,,,,,,,,,,,,,,,,,,,,,,,,,475.8956,up,0.3466,,1,0.3,"[2,3,1]",0.867123876,stimuli/card_0_transparent.png,730,0,13,0,13,0,1,,,,,
,,,,,2023-10-09_16h32.10.803,SlotMachine_updated,2023.1.3,MacIntel,49.98750312,,,,,,,,,,,,,,,,,,,,,,,,,,,,,,,,,,,,,,,,,,,,,,,,,,,,,477.5717,up,2.1536,,1,0.3,"[2,3,1]",0.13415497,stimuli/card_10_transparent.png,740,10,14,0,14,0,1,,,,,
,,,,,2023-10-09_16h32.10.803,SlotMachine_updated,2023.1.3,MacIntel,49.98750312,,,,,,,,,,,,,,,,,,,,,,,,,,,,,,481.0351,,,,,,,,,,,,,,,,,,,,,,,,,,,,,,,,,,,,,,,7,0,7,0,1
,,,,,2023-10-09_16h32.10.803,SlotMachine_updated,2023.1.3,MacIntel,49.98750312,,,,,,,,,,,,,,,,,,,,,,,,,,,,,,,,,,,,,,,,,,,,,,,,,9,9,[15],"[[3,1,2]]",486.0476,right,1.5682,,0.5,0.3,"[3,1,2]",0.939378257,stimuli/card_10_transparent.png,10,10,0,0,0,0,1,,,,,
,,,,,2023-10-09_16h32.10.803,SlotMachine_updated,2023.1.3,MacIntel,49.98750312,,,,,,,,,,,,,,,,,,,,,,,,,,,,,,,,,,,,,,,,,,,,,,,,,,,,,488.4361,right,0.4985,,0.5,0.3,"[3,1,2]",0.238517262,stimuli/card_10_transparent.png,20,10,1,0,1,0,1,,,,,
,,,,,2023-10-09_16h32.10.803,SlotMachine_updated,2023.1.3,MacIntel,49.98750312,,,,,,,,,,,,,,,,,,,,,,,,,,,,,,,,,,,,,,,,,,,,,,,,,,,,,489.7581,up,0.3825,,0.5,0.3,"[3,1,2]",0.206532847,stimuli/card_100_transparent.png,120,100,2,0,2,0,1,,,,,
,,,,,2023-10-09_16h32.10.803,SlotMachine_updated,2023.1.3,MacIntel,49.98750312,,,,,,,,,,,,,,,,,,,,,,,,,,,,,,,,,,,,,,,,,,,,,,,,,,,,,490.9375,up,0.3992,,1.5,0.3,"[3,1,2]",0.134215224,stimuli/card_10_transparent.png,130,10,3,0,3,0,1,,,,,
,,,,,2023-10-09_16h32.10.803,SlotMachine_updated,2023.1.3,MacIntel,49.98750312,,,,,,,,,,,,,,,,,,,,,,,,,,,,,,,,,,,,,,,,,,,,,,,,,,,,,493.1597,up,0.0784,,1,0.3,"[3,1,2]",0.399867444,stimuli/card_100_transparent.png,230,100,4,0,4,0,1,,,,,
,,,,,2023-10-09_16h32.10.803,SlotMachine_updated,2023.1.3,MacIntel,49.98750312,,,,,,,,,,,,,,,,,,,,,,,,,,,,,,,,,,,,,,,,,,,,,,,,,,,,,494.5481,up,0.0995,,1.5,0.3,"[3,1,2]",0.17931577,stimuli/card_10_transparent.png,240,10,5,0,5,0,1,,,,,
,,,,,2023-10-09_16h32.10.803,SlotMachine_updated,2023.1.3,MacIntel,49.98750312,,,,,,,,,,,,,,,,,,,,,,,,,,,,,,,,,,,,,,,,,,,,,,,,,,,,,496.4795,up,0.0254,,1,0.3,"[3,1,2]",0.265818957,stimuli/card_100_transparent.png,340,100,6,0,6,0,1,,,,,
,,,,,2023-10-09_16h32.10.803,SlotMachine_updated,2023.1.3,MacIntel,49.98750312,,,,,,,,,,,,,,,,,,,,,,,,,,,,,,,,,,,,,,,,,,,,,,,,,,,,,497.82,up,0.1894,,0.5,0.3,"[3,1,2]",0.18829587,stimuli/card_10_transparent.png,350,10,7,0,7,0,1,,,,,
,,,,,2023-10-09_16h32.10.803,SlotMachine_updated,2023.1.3,MacIntel,49.98750312,,,,,,,,,,,,,,,,,,,,,,,,,,,,,,,,,,,,,,,,,,,,,,,,,,,,,498.8208,left,0.6753,,0.5,0.3,"[3,1,2]",0.23193421,stimuli/card_0_transparent.png,350,0,8,0,8,0,1,,,,,
,,,,,2023-10-09_16h32.10.803,SlotMachine_updated,2023.1.3,MacIntel,49.98750312,,,,,,,,,,,,,,,,,,,,,,,,,,,,,,,,,,,,,,,,,,,,,,,,,,,,,500.3205,right,0.3502,,1.5,0.3,"[3,1,2]",0.448540516,stimuli/card_10_transparent.png,360,10,9,0,9,0,1,,,,,
,,,,,2023-10-09_16h32.10.803,SlotMachine_updated,2023.1.3,MacIntel,49.98750312,,,,,,,,,,,,,,,,,,,,,,,,,,,,,,,,,,,,,,,,,,,,,,,,,,,,,502.4798,right,0.1521,,1.5,0.3,"[3,1,2]",0.89863899,stimuli/card_10_transparent.png,370,10,10,0,10,0,1,,,,,
,,,,,2023-10-09_16h32.10.803,SlotMachine_updated,2023.1.3,MacIntel,49.98750312,,,,,,,,,,,,,,,,,,,,,,,,,,,,,,,,,,,,,,,,,,,,,,,,,,,,,504.4445,up,0.13,,1,0.3,"[3,1,2]",0.965498984,stimuli/card_100_transparent.png,470,100,11,0,11,0,1,,,,,
,,,,,2023-10-09_16h32.10.803,SlotMachine_updated,2023.1.3,MacIntel,49.98750312,,,,,,,,,,,,,,,,,,,,,,,,,,,,,,,,,,,,,,,,,,,,,,,,,,,,,505.8825,up,0.1932,,1.5,0.3,"[3,1,2]",0.555565675,stimuli/card_100_transparent.png,570,100,12,0,12,0,1,,,,,
,,,,,2023-10-09_16h32.10.803,SlotMachine_updated,2023.1.3,MacIntel,49.98750312,,,,,,,,,,,,,,,,,,,,,,,,,,,,,,,,,,,,,,,,,,,,,,,,,,,,,507.902,up,0.059,,0.5,0.3,"[3,1,2]",0.497434599,stimuli/card_100_transparent.png,670,100,13,0,13,0,1,,,,,
,,,,,2023-10-09_16h32.10.803,SlotMachine_updated,2023.1.3,MacIntel,49.98750312,,,,,,,,,,,,,,,,,,,,,,,,,,,,,,,,,,,,,,,,,,,,,,,,,,,,,508.7814,up,0.4324,,1,0.3,"[3,1,2]",0.679209748,stimuli/card_100_transparent.png,770,100,14,0,14,0,1,,,,,
,,,,,2023-10-09_16h32.10.803,SlotMachine_updated,2023.1.3,MacIntel,49.98750312,,,,,,,,,,,,,,,,,,,,,,,,,,,,,,510.5288,,,,,,,,,,,,,,,,,,,,,,,,,,,,,,,,,,,,,,,8,0,8,0,1
,,,,,2023-10-09_16h32.10.803,SlotMachine_updated,2023.1.3,MacIntel,49.98750312,,,,,,,,,,,,,,,,,,,,,,,,,,,,,,,,,,,,,,,,,,,,,,,,,10,6,"[4,10,15]","[[2,3,1],[1,3,2],[3,2,1]]",515.5404,up,1.5408,,1,0.3,"[2,3,1]",0.508578623,stimuli/card_0_transparent.png,0,0,0,0,0,0,1,,,,,
,,,,,2023-10-09_16h32.10.803,SlotMachine_updated,2023.1.3,MacIntel,49.98750312,,,,,,,,,,,,,,,,,,,,,,,,,,,,,,,,,,,,,,,,,,,,,,,,,,,,,518.4027,right,0.9615,,1,0.3,"[2,3,1]",0.862500057,stimuli/card_100_transparent.png,100,100,1,0,1,0,1,,,,,
,,,,,2023-10-09_16h32.10.803,SlotMachine_updated,2023.1.3,MacIntel,49.98750312,,,,,,,,,,,,,,,,,,,,,,,,,,,,,,,,,,,,,,,,,,,,,,,,,,,,,520.6849,right,0.327,,1,0.3,"[2,3,1]",0.058657584,stimuli/card_0_transparent.png,100,0,2,0,2,0,1,,,,,
,,,,,2023-10-09_16h32.10.803,SlotMachine_updated,2023.1.3,MacIntel,49.98750312,,,,,,,,,,,,,,,,,,,,,,,,,,,,,,,,,,,,,,,,,,,,,,,,,,,,,522.4044,right,0.6207,,0.5,0.3,"[2,3,1]",0.70745,stimuli/card_100_transparent.png,200,100,3,0,3,0,1,,,,,
,,,,,2023-10-09_16h32.10.803,SlotMachine_updated,2023.1.3,MacIntel,49.98750312,,,,,,,,,,,,,,,,,,,,,,,,,,,,,,,,,,,,,,,,,,,,,,,,,,,,,523.8288,right,0.4637,,1,0.3,"[1,3,2]",0.028853782,stimuli/card_0_transparent.png,200,0,4,0,4,0,1,,,,,
,,,,,2023-10-09_16h32.10.803,SlotMachine_updated,2023.1.3,MacIntel,49.98750312,,,,,,,,,,,,,,,,,,,,,,,,,,,,,,,,,,,,,,,,,,,,,,,,,,,,,525.6089,right,0.5057,,0.5,0.3,"[1,3,2]",0.69626387,stimuli/card_10_transparent.png,210,10,5,0,5,0,1,,,,,
,,,,,2023-10-09_16h32.10.803,SlotMachine_updated,2023.1.3,MacIntel,49.98750312,,,,,,,,,,,,,,,,,,,,,,,,,,,,,,,,,,,,,,,,,,,,,,,,,,,,,526.9282,left,0.4856,,1,0.3,"[1,3,2]",0.136309503,stimuli/card_10_transparent.png,220,10,6,0,6,0,1,,,,,
,,,,,2023-10-09_16h32.10.803,SlotMachine_updated,2023.1.3,MacIntel,49.98750312,,,,,,,,,,,,,,,,,,,,,,,,,,,,,,,,,,,,,,,,,,,,,,,,,,,,,528.7292,right,0.5444,,1.5,0.3,"[1,3,2]",0.172968132,stimuli/card_100_transparent.png,320,100,7,0,7,0,1,,,,,
,,,,,2023-10-09_16h32.10.803,SlotMachine_updated,2023.1.3,MacIntel,49.98750312,,,,,,,,,,,,,,,,,,,,,,,,,,,,,,,,,,,,,,,,,,,,,,,,,,,,,531.087,right,0.2835,,0.5,0.3,"[1,3,2]",0.585174317,stimuli/card_10_transparent.png,330,10,8,0,8,0,1,,,,,
,,,,,2023-10-09_16h32.10.803,SlotMachine_updated,2023.1.3,MacIntel,49.98750312,,,,,,,,,,,,,,,,,,,,,,,,,,,,,,,,,,,,,,,,,,,,,,,,,,,,,532.1918,right,0.8423,,1,0.3,"[1,3,2]",0.864480875,stimuli/card_10_transparent.png,340,10,9,0,9,0,1,,,,,
,,,,,2023-10-09_16h32.10.803,SlotMachine_updated,2023.1.3,MacIntel,49.98750312,,,,,,,,,,,,,,,,,,,,,,,,,,,,,,,,,,,,,,,,,,,,,,,,,,,,,534.35,right,0.3685,,0.5,0.3,"[3,2,1]",0.942760974,stimuli/card_100_transparent.png,440,100,10,0,10,0,1,,,,,
,,,,,2023-10-09_16h32.10.803,SlotMachine_updated,2023.1.3,MacIntel,49.98750312,,,,,,,,,,,,,,,,,,,,,,,,,,,,,,,,,,,,,,,,,,,,,,,,,,,,,535.5313,right,0.682,,1,0.3,"[3,2,1]",0.565085266,stimuli/card_100_transparent.png,540,100,11,0,11,0,1,,,,,
,,,,,2023-10-09_16h32.10.803,SlotMachine_updated,2023.1.3,MacIntel,49.98750312,,,,,,,,,,,,,,,,,,,,,,,,,,,,,,,,,,,,,,,,,,,,,,,,,,,,,537.532,right,0.2625,,1,0.3,"[3,2,1]",0.001313323,stimuli/card_0_transparent.png,540,0,12,0,12,0,1,,,,,
,,,,,2023-10-09_16h32.10.803,SlotMachine_updated,2023.1.3,MacIntel,49.98750312,,,,,,,,,,,,,,,,,,,,,,,,,,,,,,,,,,,,,,,,,,,,,,,,,,,,,539.1129,left,0.5423,,0.5,0.3,"[3,2,1]",0.43467693,stimuli/card_0_transparent.png,540,0,13,0,13,0,1,,,,,
,,,,,2023-10-09_16h32.10.803,SlotMachine_updated,2023.1.3,MacIntel,49.98750312,,,,,,,,,,,,,,,,,,,,,,,,,,,,,,,,,,,,,,,,,,,,,,,,,,,,,540.4742,up,0.5109,,0.5,0.3,"[3,2,1]",0.562214956,stimuli/card_10_transparent.png,550,10,14,0,14,0,1,,,,,
,,,,,2023-10-09_16h32.10.803,SlotMachine_updated,2023.1.3,MacIntel,49.98750312,,,,,,,,,,,,,,,,,,,,,,,,,,,,,,541.7926,,,,,,,,,,,,,,,,,,,,,,,,,,,,,,,,,,,,,,,9,0,9,0,1
,,,,,2023-10-09_16h32.10.803,SlotMachine_updated,2023.1.3,MacIntel,49.98750312,,,,,,,,,,,,,,,,,,,,,,,,,,,,,,,,,,,,,,,,,,,,,,,,,,,,,,,,,,,,,,,,,,,,,,,,,
