key_resp_instruction1.started,key_resp_instruction1.keys,key_resp_instruction1.rt,key_resp_instruction1.duration,participant,date,expName,psychopyVersion,OS,frameRate,key_resp_instruction2.started,key_resp_instruction2.keys,key_resp_instruction2.rt,key_resp_instruction2.duration,key_resp_instruction3.started,key_resp_instruction3.keys,key_resp_instruction3.rt,key_resp_instruction3.duration,practiceCondition,practice_reward_seqs,key_resp_practice_slots.started,key_resp_practice_slots.keys,key_resp_practice_slots.rt,key_resp_practice_slots.duration,presentationInterval,"practice_reward_seq: 2,1,3",reward_Img,Cuml_rew,currentPracticeTrialReward,practice_trials.thisRepN,practice_trials.thisTrialN,practice_trials.thisN,practice_trials.thisIndex,practice_trials.ran,"practice_reward_seq: 2,3,1",text_block_break.started,practice_block.thisRepN,practice_block.thisTrialN,practice_block.thisN,practice_block.thisIndex,practice_block.ran,"practice_reward_seq: 1,3,2","practice_reward_seq: 3,1,2",key_resp_practice_end.started,key_resp_practice_end.keys,key_resp_practice_end.rt,key_resp_practice_end.duration,text_main_instruction.started,BlockCondition,BlockOrderIndices,key_resp_main_instruction.started,key_resp_main_instruction.keys,key_resp_main_instruction.rt,key_resp_main_instruction.duration,currentCondition,main_reward_seqs,key_resp_slots_presentation.started,key_resp_slots_presentation.keys,key_resp_slots_presentation.rt,key_resp_slots_presentation.duration,Main_presentationInterval,rewardPresentationTime,Main_reward_seq,Random value generated,Main_reward_Img,Main_Cumul_Reward,Main_currentTrialReward,main_trials.thisRepN,main_trials.thisTrialN,main_trials.thisN,main_trials.thisIndex,main_trials.ran,block.thisRepN,block.thisTrialN,block.thisN,block.thisIndex,block.ran
0.0037,space,11.784,0.0036,,2023-10-04_11h44.08.821,slotMachine_updated,2023.1.3,MacIntel,59.99880002,,,,,,,,,,,,,,,,,,,,,,,,,,,,,,,,,,,,,,,,,,,,,,,,,,,,,,,,,,,,,,,,,,,
,,,,,2023-10-04_11h44.08.821,slotMachine_updated,2023.1.3,MacIntel,59.99880002,,,,,,,,,,,,,,,,,,,,,,,,,,,,,,,,,,,,,,,,,,,,,,,,,,,,,,,,,,,,,,,,,,,
,,,,,2023-10-04_11h44.08.821,slotMachine_updated,2023.1.3,MacIntel,59.99880002,137.6294,right,41.7378,,,,,,,,,,,,,,,,,,,,,,,,,,,,,,,,,,,,,,,,,,,,,,,,,,,,,,,,,,,,,,,,
,,,,,2023-10-04_11h44.08.821,slotMachine_updated,2023.1.3,MacIntel,59.99880002,,,,,179.4235,right,10.0979,,,,,,,,,,,,,,,,,,,,,,,,,,,,,,,,,,,,,,,,,,,,,,,,,,,,,,,,,,,,
,,,,,2023-10-04_11h44.08.821,slotMachine_updated,2023.1.3,MacIntel,59.99880002,,,,,,,,,"[9,15]","[[2,1,3],[2,3,1]]",189.5649,left,2.3685,,1.5,,stimuli/card_10_transparent.png,10,10,0,0,0,0,1,,,,,,,,,,,,,,,,,,,,,,,,,,,,,,,,,,,,,,,,,,,
,,,,,2023-10-04_11h44.08.821,slotMachine_updated,2023.1.3,MacIntel,59.99880002,,,,,,,,,,,193.7893,left,3.7117,,0.5,,stimuli/card_10_transparent.png,20,10,1,0,1,0,1,,,,,,,,,,,,,,,,,,,,,,,,,,,,,,,,,,,,,,,,,,,
,,,,,2023-10-04_11h44.08.821,slotMachine_updated,2023.1.3,MacIntel,59.99880002,,,,,,,,,,,198.3552,left,2.7045,,0.5,,stimuli/card_10_transparent.png,30,10,2,0,2,0,1,,,,,,,,,,,,,,,,,,,,,,,,,,,,,,,,,,,,,,,,,,,
,,,,,2023-10-04_11h44.08.821,slotMachine_updated,2023.1.3,MacIntel,59.99880002,,,,,,,,,,,201.9416,left,3.2608,,1,,stimuli/card_10_transparent.png,40,10,3,0,3,0,1,,,,,,,,,,,,,,,,,,,,,,,,,,,,,,,,,,,,,,,,,,,
,,,,,2023-10-04_11h44.08.821,slotMachine_updated,2023.1.3,MacIntel,59.99880002,,,,,,,,,,,206.5245,up,2.1583,,0.5,,stimuli/card_100_transparent.png,140,100,4,0,4,0,1,,,,,,,,,,,,,,,,,,,,,,,,,,,,,,,,,,,,,,,,,,,
,,,,,2023-10-04_11h44.08.821,slotMachine_updated,2023.1.3,MacIntel,59.99880002,,,,,,,,,,,209.5159,up,1.1124,,1.5,,stimuli/card_100_transparent.png,240,100,5,0,5,0,1,,,,,,,,,,,,,,,,,,,,,,,,,,,,,,,,,,,,,,,,,,,
,,,,,2023-10-04_11h44.08.821,slotMachine_updated,2023.1.3,MacIntel,59.99880002,,,,,,,,,,,212.4539,up,0.7402,,1,,stimuli/card_100_transparent.png,340,100,6,0,6,0,1,,,,,,,,,,,,,,,,,,,,,,,,,,,,,,,,,,,,,,,,,,,
,,,,,2023-10-04_11h44.08.821,slotMachine_updated,2023.1.3,MacIntel,59.99880002,,,,,,,,,,,214.5148,up,0.3901,,1,,stimuli/card_100_transparent.png,440,100,7,0,7,0,1,,,,,,,,,,,,,,,,,,,,,,,,,,,,,,,,,,,,,,,,,,,
,,,,,2023-10-04_11h44.08.821,slotMachine_updated,2023.1.3,MacIntel,59.99880002,,,,,,,,,,,216.236,up,0.2609,,1,,stimuli/card_100_transparent.png,540,100,8,0,8,0,1,,,,,,,,,,,,,,,,,,,,,,,,,,,,,,,,,,,,,,,,,,,
,,,,,2023-10-04_11h44.08.821,slotMachine_updated,2023.1.3,MacIntel,59.99880002,,,,,,,,,,,217.807,up,0.3311,,1,,stimuli/card_10_transparent.png,550,10,9,0,9,0,1,,,,,,,,,,,,,,,,,,,,,,,,,,,,,,,,,,,,,,,,,,,
,,,,,2023-10-04_11h44.08.821,slotMachine_updated,2023.1.3,MacIntel,59.99880002,,,,,,,,,,,219.4677,right,1.0291,,1.5,,stimuli/card_100_transparent.png,650,100,10,0,10,0,1,,,,,,,,,,,,,,,,,,,,,,,,,,,,,,,,,,,,,,,,,,,
,,,,,2023-10-04_11h44.08.821,slotMachine_updated,2023.1.3,MacIntel,59.99880002,,,,,,,,,,,222.3239,right,1.2144,,1.5,,stimuli/card_0_transparent.png,650,0,11,0,11,0,1,,,,,,,,,,,,,,,,,,,,,,,,,,,,,,,,,,,,,,,,,,,
,,,,,2023-10-04_11h44.08.821,slotMachine_updated,2023.1.3,MacIntel,59.99880002,,,,,,,,,,,225.3657,up,0.3234,,1,,stimuli/card_0_transparent.png,650,0,12,0,12,0,1,,,,,,,,,,,,,,,,,,,,,,,,,,,,,,,,,,,,,,,,,,,
,,,,,2023-10-04_11h44.08.821,slotMachine_updated,2023.1.3,MacIntel,59.99880002,,,,,,,,,,,227.0066,up,0.4413,,1.5,,stimuli/card_0_transparent.png,650,0,13,0,13,0,1,,,,,,,,,,,,,,,,,,,,,,,,,,,,,,,,,,,,,,,,,,,
,,,,,2023-10-04_11h44.08.821,slotMachine_updated,2023.1.3,MacIntel,59.99880002,,,,,,,,,,,229.2598,right,0.2591,,0.5,,stimuli/card_100_transparent.png,750,100,14,0,14,0,1,,,,,,,,,,,,,,,,,,,,,,,,,,,,,,,,,,,,,,,,,,,
,,,,,2023-10-04_11h44.08.821,slotMachine_updated,2023.1.3,MacIntel,59.99880002,,,,,,,,,,,,,,,,,,,,,,,,,,230.3364,0,0,0,0,1,,,,,,,,,,,,,,,,,,,,,,,,,,,,,,,,,,,,
,,,,,2023-10-04_11h44.08.821,slotMachine_updated,2023.1.3,MacIntel,59.99880002,,,,,,,,,"[6,15]","[[1,3,2],[3,1,2]]",,,,,,,,,,,,,,,,,,,,,,,,,,,,,,,,,,,,,,,,,,,,,,,,,,,,,,,,,
,,,,,2023-10-04_11h44.08.821,slotMachine_updated,2023.1.3,MacIntel,59.99880002,,,,,,,,,,,235.3548,up,1.0515,,1.5,,stimuli/card_0_transparent.png,0,0,0,0,0,0,1,,,,,,,,,,,,,,,,,,,,,,,,,,,,,,,,,,,,,,,,,,,
,,,,,2023-10-04_11h44.08.821,slotMachine_updated,2023.1.3,MacIntel,59.99880002,,,,,,,,,,,238.2277,right,0.3595,,1.5,,stimuli/card_0_transparent.png,0,0,1,0,1,0,1,,,,,,,,,,,,,,,,,,,,,,,,,,,,,,,,,,,,,,,,,,,
,,,,,2023-10-04_11h44.08.821,slotMachine_updated,2023.1.3,MacIntel,59.99880002,,,,,,,,,,,240.4105,left,0.2416,,0.5,,stimuli/card_100_transparent.png,100,100,2,0,2,0,1,,,,,,,,,,,,,,,,,,,,,,,,,,,,,,,,,,,,,,,,,,,
,,,,,2023-10-04_11h44.08.821,slotMachine_updated,2023.1.3,MacIntel,59.99880002,,,,,,,,,,,241.4683,left,0.3753,,1,,stimuli/card_100_transparent.png,200,100,3,0,3,0,1,,,,,,,,,,,,,,,,,,,,,,,,,,,,,,,,,,,,,,,,,,,
,,,,,2023-10-04_11h44.08.821,slotMachine_updated,2023.1.3,MacIntel,59.99880002,,,,,,,,,,,243.1686,left,0.1414,,1,,stimuli/card_100_transparent.png,300,100,4,0,4,0,1,,,,,,,,,,,,,,,,,,,,,,,,,,,,,,,,,,,,,,,,,,,
,,,,,2023-10-04_11h44.08.821,slotMachine_updated,2023.1.3,MacIntel,59.99880002,,,,,,,,,,,244.629,left,0.1356,,1.5,,stimuli/card_10_transparent.png,310,10,5,0,5,0,1,,,,,,,,,,,,,,,,,,,,,,,,,,,,,,,,,,,,,,,,,,,
,,,,,2023-10-04_11h44.08.821,slotMachine_updated,2023.1.3,MacIntel,59.99880002,,,,,,,,,,,246.5908,left,0.4593,,1,,stimuli/card_0_transparent.png,310,0,6,0,6,0,1,,,,,,,,,,,,,,,,,,,,,,,,,,,,,,,,,,,,,,,,,,,
,,,,,2023-10-04_11h44.08.821,slotMachine_updated,2023.1.3,MacIntel,59.99880002,,,,,,,,,,,248.3596,left,0.7823,,0.5,,stimuli/card_10_transparent.png,320,10,7,0,7,0,1,,,,,,,,,,,,,,,,,,,,,,,,,,,,,,,,,,,,,,,,,,,
,,,,,2023-10-04_11h44.08.821,slotMachine_updated,2023.1.3,MacIntel,59.99880002,,,,,,,,,,,249.9627,left,0.7559,,1.5,,stimuli/card_0_transparent.png,320,0,8,0,8,0,1,,,,,,,,,,,,,,,,,,,,,,,,,,,,,,,,,,,,,,,,,,,
,,,,,2023-10-04_11h44.08.821,slotMachine_updated,2023.1.3,MacIntel,59.99880002,,,,,,,,,,,252.5425,up,0.2992,,1.5,,stimuli/card_100_transparent.png,420,100,9,0,9,0,1,,,,,,,,,,,,,,,,,,,,,,,,,,,,,,,,,,,,,,,,,,,
,,,,,2023-10-04_11h44.08.821,slotMachine_updated,2023.1.3,MacIntel,59.99880002,,,,,,,,,,,254.6611,up,0.4619,,1,,stimuli/card_100_transparent.png,520,100,10,0,10,0,1,,,,,,,,,,,,,,,,,,,,,,,,,,,,,,,,,,,,,,,,,,,
,,,,,2023-10-04_11h44.08.821,slotMachine_updated,2023.1.3,MacIntel,59.99880002,,,,,,,,,,,256.4439,up,0.3403,,1,,stimuli/card_10_transparent.png,530,10,11,0,11,0,1,,,,,,,,,,,,,,,,,,,,,,,,,,,,,,,,,,,,,,,,,,,
,,,,,2023-10-04_11h44.08.821,slotMachine_updated,2023.1.3,MacIntel,59.99880002,,,,,,,,,,,258.0916,left,1.4375,,1.5,,stimuli/card_0_transparent.png,530,0,12,0,12,0,1,,,,,,,,,,,,,,,,,,,,,,,,,,,,,,,,,,,,,,,,,,,
,,,,,2023-10-04_11h44.08.821,slotMachine_updated,2023.1.3,MacIntel,59.99880002,,,,,,,,,,,261.3525,up,0.5593,,0.5,,stimuli/card_100_transparent.png,630,100,13,0,13,0,1,,,,,,,,,,,,,,,,,,,,,,,,,,,,,,,,,,,,,,,,,,,
,,,,,2023-10-04_11h44.08.821,slotMachine_updated,2023.1.3,MacIntel,59.99880002,,,,,,,,,,,262.7331,up,0.368,,1.5,,stimuli/card_100_transparent.png,730,100,14,0,14,0,1,,,,,,,,,,,,,,,,,,,,,,,,,,,,,,,,,,,,,,,,,,,
,,,,,2023-10-04_11h44.08.821,slotMachine_updated,2023.1.3,MacIntel,59.99880002,,,,,,,,,,,,,,,,,,,,,,,,,,,,,,,,,,264.9147,space,4.2926,,,,,,,,,,,,,,,,,,,,,,,,,,,,,,,
,,,,,2023-10-04_11h44.08.821,slotMachine_updated,2023.1.3,MacIntel,59.99880002,,,,,,,,,,,,,,,,,,,,,,,,,,,,,,,,,,,,,,269.2261,1,"[0,1,2,3,4,5,6,7,8,9]",269.2261,space,3.9635,,,,,,,,,,,,,,,,,,,,,,,,
,,,,,2023-10-04_11h44.08.821,slotMachine_updated,2023.1.3,MacIntel,59.99880002,,,,,,,,,,,,,,,,,,,,,,,,,,,,,,,,,,,,,,,,,,,,,"[12,15]","[[2,1,3],[2,3,1]]",273.2247,right,0.9955,,1,0.3,"[2,1,3]",0.688832153,stimuli/card_0_transparent.png,0,0,0,0,0,0,1,,,,,
,,,,,2023-10-04_11h44.08.821,slotMachine_updated,2023.1.3,MacIntel,59.99880002,,,,,,,,,,,,,,,,,,,,,,,,,,,,,,,,,,,,,,,,,,,,,,,275.5485,up,0.5014,,1.5,0.3,"[2,1,3]",0.628646583,stimuli/card_100_transparent.png,100,100,1,0,1,0,1,,,,,
,,,,,2023-10-04_11h44.08.821,slotMachine_updated,2023.1.3,MacIntel,59.99880002,,,,,,,,,,,,,,,,,,,,,,,,,,,,,,,,,,,,,,,,,,,,,,,277.8601,up,0.3035,,1.5,0.3,"[2,1,3]",0.929319341,stimuli/card_100_transparent.png,200,100,2,0,2,0,1,,,,,
,,,,,2023-10-04_11h44.08.821,slotMachine_updated,2023.1.3,MacIntel,59.99880002,,,,,,,,,,,,,,,,,,,,,,,,,,,,,,,,,,,,,,,,,,,,,,,279.9787,up,0.2949,,1,0.3,"[2,1,3]",0.441155061,stimuli/card_100_transparent.png,300,100,3,0,3,0,1,,,,,
,,,,,2023-10-04_11h44.08.821,slotMachine_updated,2023.1.3,MacIntel,59.99880002,,,,,,,,,,,,,,,,,,,,,,,,,,,,,,,,,,,,,,,,,,,,,,,281.6001,up,0.3356,,0.5,0.3,"[2,1,3]",0.333068018,stimuli/card_100_transparent.png,400,100,4,0,4,0,1,,,,,
,,,,,2023-10-04_11h44.08.821,slotMachine_updated,2023.1.3,MacIntel,59.99880002,,,,,,,,,,,,,,,,,,,,,,,,,,,,,,,,,,,,,,,,,,,,,,,282.7577,up,0.3758,,1,0.3,"[2,1,3]",0.141201755,stimuli/card_10_transparent.png,410,10,5,0,5,0,1,,,,,
,,,,,2023-10-04_11h44.08.821,slotMachine_updated,2023.1.3,MacIntel,59.99880002,,,,,,,,,,,,,,,,,,,,,,,,,,,,,,,,,,,,,,,,,,,,,,,284.4584,up,0.2957,,1.5,0.3,"[2,1,3]",0.706032335,stimuli/card_100_transparent.png,510,100,6,0,6,0,1,,,,,
,,,,,2023-10-04_11h44.08.821,slotMachine_updated,2023.1.3,MacIntel,59.99880002,,,,,,,,,,,,,,,,,,,,,,,,,,,,,,,,,,,,,,,,,,,,,,,286.5777,up,0.3228,,1.5,0.3,"[2,1,3]",0.280312907,stimuli/card_100_transparent.png,610,100,7,0,7,0,1,,,,,
,,,,,2023-10-04_11h44.08.821,slotMachine_updated,2023.1.3,MacIntel,59.99880002,,,,,,,,,,,,,,,,,,,,,,,,,,,,,,,,,,,,,,,,,,,,,,,288.7092,up,0.2987,,1,0.3,"[2,1,3]",0.352360305,stimuli/card_100_transparent.png,710,100,8,0,8,0,1,,,,,
,,,,,2023-10-04_11h44.08.821,slotMachine_updated,2023.1.3,MacIntel,59.99880002,,,,,,,,,,,,,,,,,,,,,,,,,,,,,,,,,,,,,,,,,,,,,,,290.3345,up,0.4066,,1,0.3,"[2,1,3]",0.626279875,stimuli/card_100_transparent.png,810,100,9,0,9,0,1,,,,,
,,,,,2023-10-04_11h44.08.821,slotMachine_updated,2023.1.3,MacIntel,59.99880002,,,,,,,,,,,,,,,,,,,,,,,,,,,,,,,,,,,,,,,,,,,,,,,292.0693,up,0.3458,,0.5,0.3,"[2,1,3]",0.294300317,stimuli/card_100_transparent.png,910,100,10,0,10,0,1,,,,,
,,,,,2023-10-04_11h44.08.821,slotMachine_updated,2023.1.3,MacIntel,59.99880002,,,,,,,,,,,,,,,,,,,,,,,,,,,,,,,,,,,,,,,,,,,,,,,293.2291,up,0.3221,,1,0.3,"[2,1,3]",0.011317505,stimuli/card_0_transparent.png,910,0,11,0,11,0,1,,,,,
,,,,,2023-10-04_11h44.08.821,slotMachine_updated,2023.1.3,MacIntel,59.99880002,,,,,,,,,,,,,,,,,,,,,,,,,,,,,,,,,,,,,,,,,,,,,,,294.8728,up,0.5009,,0.5,0.3,"[2,3,1]",0.259819556,stimuli/card_0_transparent.png,910,0,12,0,12,0,1,,,,,
,,,,,2023-10-04_11h44.08.821,slotMachine_updated,2023.1.3,MacIntel,59.99880002,,,,,,,,,,,,,,,,,,,,,,,,,,,,,,,,,,,,,,,,,,,,,,,296.1922,up,0.3622,,0.5,0.3,"[2,3,1]",0.321077364,stimuli/card_0_transparent.png,910,0,13,0,13,0,1,,,,,
,,,,,2023-10-04_11h44.08.821,slotMachine_updated,2023.1.3,MacIntel,59.99880002,,,,,,,,,,,,,,,,,,,,,,,,,,,,,,,,,,,,,,,,,,,,,,,297.3714,left,0.1316,,1.5,0.3,"[2,3,1]",0.863916545,stimuli/card_10_transparent.png,920,10,14,0,14,0,1,,,,,
,,,,,2023-10-04_11h44.08.821,slotMachine_updated,2023.1.3,MacIntel,59.99880002,,,,,,,,,,,,,,,,,,,,,,,,,,299.3238,,,,,,,,,,,,,,,,,,,,,,,,,,,,,,,,,,,,,0,0,0,0,1
,,,,,2023-10-04_11h44.08.821,slotMachine_updated,2023.1.3,MacIntel,59.99880002,,,,,,,,,,,,,,,,,,,,,,,,,,,,,,,,,,,,,,,,,,,,,"[6,15]","[[1,3,2],[3,2,1]]",304.3379,left,0.4933,,1.5,0.3,"[1,3,2]",0.227991977,stimuli/card_100_transparent.png,100,100,0,0,0,0,1,,,,,
,,,,,2023-10-04_11h44.08.821,slotMachine_updated,2023.1.3,MacIntel,59.99880002,,,,,,,,,,,,,,,,,,,,,,,,,,,,,,,,,,,,,,,,,,,,,,,306.6623,left,0.3326,,1,0.3,"[1,3,2]",0.249705364,stimuli/card_100_transparent.png,200,100,1,0,1,0,1,,,,,
,,,,,2023-10-04_11h44.08.821,slotMachine_updated,2023.1.3,MacIntel,59.99880002,,,,,,,,,,,,,,,,,,,,,,,,,,,,,,,,,,,,,,,,,,,,,,,308.3121,left,0.2388,,1,0.3,"[1,3,2]",0.739566088,stimuli/card_100_transparent.png,300,100,2,0,2,0,1,,,,,
,,,,,2023-10-04_11h44.08.821,slotMachine_updated,2023.1.3,MacIntel,59.99880002,,,,,,,,,,,,,,,,,,,,,,,,,,,,,,,,,,,,,,,,,,,,,,,309.8737,left,0.378,,0.5,0.3,"[1,3,2]",0.040204995,stimuli/card_0_transparent.png,300,0,3,0,3,0,1,,,,,
,,,,,2023-10-04_11h44.08.821,slotMachine_updated,2023.1.3,MacIntel,59.99880002,,,,,,,,,,,,,,,,,,,,,,,,,,,,,,,,,,,,,,,,,,,,,,,311.0761,up,0.5833,,1,0.3,"[1,3,2]",0.309624179,stimuli/card_0_transparent.png,300,0,4,0,4,0,1,,,,,
,,,,,2023-10-04_11h44.08.821,slotMachine_updated,2023.1.3,MacIntel,59.99880002,,,,,,,,,,,,,,,,,,,,,,,,,,,,,,,,,,,,,,,,,,,,,,,312.9747,right,0.3457,,1.5,0.3,"[1,3,2]",0.336900791,stimuli/card_10_transparent.png,310,10,5,0,5,0,1,,,,,
,,,,,2023-10-04_11h44.08.821,slotMachine_updated,2023.1.3,MacIntel,59.99880002,,,,,,,,,,,,,,,,,,,,,,,,,,,,,,,,,,,,,,,,,,,,,,,315.1332,left,0.2888,,0.5,0.3,"[3,2,1]",0.73161014,stimuli/card_0_transparent.png,310,0,6,0,6,0,1,,,,,
,,,,,2023-10-04_11h44.08.821,slotMachine_updated,2023.1.3,MacIntel,59.99880002,,,,,,,,,,,,,,,,,,,,,,,,,,,,,,,,,,,,,,,,,,,,,,,316.2358,left,0.4008,,1.5,0.3,"[3,2,1]",0.251569192,stimuli/card_0_transparent.png,310,0,7,0,7,0,1,,,,,
,,,,,2023-10-04_11h44.08.821,slotMachine_updated,2023.1.3,MacIntel,59.99880002,,,,,,,,,,,,,,,,,,,,,,,,,,,,,,,,,,,,,,,,,,,,,,,318.4464,left,0.6217,,0.5,0.3,"[3,2,1]",0.057956968,stimuli/card_100_transparent.png,410,100,8,0,8,0,1,,,,,
,,,,,2023-10-04_11h44.08.821,slotMachine_updated,2023.1.3,MacIntel,59.99880002,,,,,,,,,,,,,,,,,,,,,,,,,,,,,,,,,,,,,,,,,,,,,,,319.8843,left,0.4247,,1.5,0.3,"[3,2,1]",0.85754539,stimuli/card_0_transparent.png,410,0,9,0,9,0,1,,,,,
,,,,,2023-10-04_11h44.08.821,slotMachine_updated,2023.1.3,MacIntel,59.99880002,,,,,,,,,,,,,,,,,,,,,,,,,,,,,,,,,,,,,,,,,,,,,,,322.1276,left,0.5219,,0.5,0.3,"[3,2,1]",0.047109197,stimuli/card_100_transparent.png,510,100,10,0,10,0,1,,,,,
,,,,,2023-10-04_11h44.08.821,slotMachine_updated,2023.1.3,MacIntel,59.99880002,,,,,,,,,,,,,,,,,,,,,,,,,,,,,,,,,,,,,,,,,,,,,,,323.4665,left,0.4024,,1,0.3,"[3,2,1]",0.343716532,stimuli/card_0_transparent.png,510,0,11,0,11,0,1,,,,,
,,,,,2023-10-04_11h44.08.821,slotMachine_updated,2023.1.3,MacIntel,59.99880002,,,,,,,,,,,,,,,,,,,,,,,,,,,,,,,,,,,,,,,,,,,,,,,325.1857,left,0.4029,,1.5,0.3,"[3,2,1]",0.959800158,stimuli/card_0_transparent.png,510,0,12,0,12,0,1,,,,,
,,,,,2023-10-04_11h44.08.821,slotMachine_updated,2023.1.3,MacIntel,59.99880002,,,,,,,,,,,,,,,,,,,,,,,,,,,,,,,,,,,,,,,,,,,,,,,327.4097,left,0.6062,,0.5,0.3,"[3,2,1]",0.590736925,stimuli/card_0_transparent.png,510,0,13,0,13,0,1,,,,,
,,,,,2023-10-04_11h44.08.821,slotMachine_updated,2023.1.3,MacIntel,59.99880002,,,,,,,,,,,,,,,,,,,,,,,,,,,,,,,,,,,,,,,,,,,,,,,328.8382,right,1.0808,,0.5,0.3,"[3,2,1]",0.951278471,stimuli/card_100_transparent.png,610,100,14,0,14,0,1,,,,,
,,,,,2023-10-04_11h44.08.821,slotMachine_updated,2023.1.3,MacIntel,59.99880002,,,,,,,,,,,,,,,,,,,,,,,,,,330.7373,,,,,,,,,,,,,,,,,,,,,,,,,,,,,,,,,,,,,1,0,1,0,1
,,,,,2023-10-04_11h44.08.821,slotMachine_updated,2023.1.3,MacIntel,59.99880002,,,,,,,,,,,,,,,,,,,,,,,,,,,,,,,,,,,,,,,,,,,,,"[15,15]","[[3,1,2],[3,1,2]]",335.7424,up,0.4972,,1.5,0.3,"[3,1,2]",0.724578563,stimuli/card_100_transparent.png,100,100,0,0,0,0,1,,,,,
,,,,,2023-10-04_11h44.08.821,slotMachine_updated,2023.1.3,MacIntel,59.99880002,,,,,,,,,,,,,,,,,,,,,,,,,,,,,,,,,,,,,,,,,,,,,,,338.2793,up,0.3275,,0.5,0.3,"[3,1,2]",0.425038553,stimuli/card_100_transparent.png,200,100,1,0,1,0,1,,,,,
,,,,,2023-10-04_11h44.08.821,slotMachine_updated,2023.1.3,MacIntel,59.99880002,,,,,,,,,,,,,,,,,,,,,,,,,,,,,,,,,,,,,,,,,,,,,,,339.4299,up,0.3605,,1.5,0.3,"[3,1,2]",0.678615624,stimuli/card_100_transparent.png,300,100,2,0,2,0,1,,,,,
,,,,,2023-10-04_11h44.08.821,slotMachine_updated,2023.1.3,MacIntel,59.99880002,,,,,,,,,,,,,,,,,,,,,,,,,,,,,,,,,,,,,,,,,,,,,,,341.6095,up,0.3273,,1.5,0.3,"[3,1,2]",0.254202814,stimuli/card_100_transparent.png,400,100,3,0,3,0,1,,,,,
,,,,,2023-10-04_11h44.08.821,slotMachine_updated,2023.1.3,MacIntel,59.99880002,,,,,,,,,,,,,,,,,,,,,,,,,,,,,,,,,,,,,,,,,,,,,,,343.7535,up,0.3165,,1.5,0.3,"[3,1,2]",0.628341211,stimuli/card_100_transparent.png,500,100,4,0,4,0,1,,,,,
,,,,,2023-10-04_11h44.08.821,slotMachine_updated,2023.1.3,MacIntel,59.99880002,,,,,,,,,,,,,,,,,,,,,,,,,,,,,,,,,,,,,,,,,,,,,,,345.8909,up,0.4854,,1.5,0.3,"[3,1,2]",0.444295884,stimuli/card_100_transparent.png,600,100,5,0,5,0,1,,,,,
,,,,,2023-10-04_11h44.08.821,slotMachine_updated,2023.1.3,MacIntel,59.99880002,,,,,,,,,,,,,,,,,,,,,,,,,,,,,,,,,,,,,,,,,,,,,,,348.1824,up,0.3395,,0.5,0.3,"[3,1,2]",0.981924253,stimuli/card_100_transparent.png,700,100,6,0,6,0,1,,,,,
,,,,,2023-10-04_11h44.08.821,slotMachine_updated,2023.1.3,MacIntel,59.99880002,,,,,,,,,,,,,,,,,,,,,,,,,,,,,,,,,,,,,,,,,,,,,,,349.3414,up,0.499,,1,0.3,"[3,1,2]",0.708108919,stimuli/card_100_transparent.png,800,100,7,0,7,0,1,,,,,
,,,,,2023-10-04_11h44.08.821,slotMachine_updated,2023.1.3,MacIntel,59.99880002,,,,,,,,,,,,,,,,,,,,,,,,,,,,,,,,,,,,,,,,,,,,,,,351.1608,up,0.2124,,1.5,0.3,"[3,1,2]",0.304106602,stimuli/card_100_transparent.png,900,100,8,0,8,0,1,,,,,
,,,,,2023-10-04_11h44.08.821,slotMachine_updated,2023.1.3,MacIntel,59.99880002,,,,,,,,,,,,,,,,,,,,,,,,,,,,,,,,,,,,,,,,,,,,,,,353.2429,up,0.1189,,0.5,0.3,"[3,1,2]",0.19884328,stimuli/card_10_transparent.png,910,10,9,0,9,0,1,,,,,
,,,,,2023-10-04_11h44.08.821,slotMachine_updated,2023.1.3,MacIntel,59.99880002,,,,,,,,,,,,,,,,,,,,,,,,,,,,,,,,,,,,,,,,,,,,,,,354.1819,up,0.5092,,0.5,0.3,"[3,1,2]",0.521916714,stimuli/card_100_transparent.png,1010,100,10,0,10,0,1,,,,,
,,,,,2023-10-04_11h44.08.821,slotMachine_updated,2023.1.3,MacIntel,59.99880002,,,,,,,,,,,,,,,,,,,,,,,,,,,,,,,,,,,,,,,,,,,,,,,355.5033,up,0.14,,1,0.3,"[3,1,2]",0.43706553,stimuli/card_100_transparent.png,1110,100,11,0,11,0,1,,,,,
,,,,,2023-10-04_11h44.08.821,slotMachine_updated,2023.1.3,MacIntel,59.99880002,,,,,,,,,,,,,,,,,,,,,,,,,,,,,,,,,,,,,,,,,,,,,,,356.9626,up,0.1199,,1.5,0.3,"[3,1,2]",0.96898978,stimuli/card_100_transparent.png,1210,100,12,0,12,0,1,,,,,
,,,,,2023-10-04_11h44.08.821,slotMachine_updated,2023.1.3,MacIntel,59.99880002,,,,,,,,,,,,,,,,,,,,,,,,,,,,,,,,,,,,,,,,,,,,,,,358.893,up,0.1727,,1,0.3,"[3,1,2]",0.935330333,stimuli/card_100_transparent.png,1310,100,13,0,13,0,1,,,,,
,,,,,2023-10-04_11h44.08.821,slotMachine_updated,2023.1.3,MacIntel,59.99880002,,,,,,,,,,,,,,,,,,,,,,,,,,,,,,,,,,,,,,,,,,,,,,,360.395,up,0.3186,,1,0.3,"[3,1,2]",0.16725889,stimuli/card_10_transparent.png,1320,10,14,0,14,0,1,,,,,
,,,,,2023-10-04_11h44.08.821,slotMachine_updated,2023.1.3,MacIntel,59.99880002,,,,,,,,,,,,,,,,,,,,,,,,,,362.0395,,,,,,,,,,,,,,,,,,,,,,,,,,,,,,,,,,,,,2,0,2,0,1
,,,,,2023-10-04_11h44.08.821,slotMachine_updated,2023.1.3,MacIntel,59.99880002,,,,,,,,,,,,,,,,,,,,,,,,,,,,,,,,,,,,,,,,,,,,,"[7,15]","[[2,3,1],[1,2,3]]",367.0482,right,0.4072,,0.5,0.3,"[2,3,1]",0.667539187,stimuli/card_100_transparent.png,100,100,0,0,0,0,1,,,,,
,,,,,2023-10-04_11h44.08.821,slotMachine_updated,2023.1.3,MacIntel,59.99880002,,,,,,,,,,,,,,,,,,,,,,,,,,,,,,,,,,,,,,,,,,,,,,,368.2661,right,0.3776,,0.5,0.3,"[2,3,1]",0.701784393,stimuli/card_100_transparent.png,200,100,1,0,1,0,1,,,,,
,,,,,2023-10-04_11h44.08.821,slotMachine_updated,2023.1.3,MacIntel,59.99880002,,,,,,,,,,,,,,,,,,,,,,,,,,,,,,,,,,,,,,,,,,,,,,,369.6294,right,0.3148,,1,0.3,"[2,3,1]",0.845626121,stimuli/card_100_transparent.png,300,100,2,0,2,0,1,,,,,
,,,,,2023-10-04_11h44.08.821,slotMachine_updated,2023.1.3,MacIntel,59.99880002,,,,,,,,,,,,,,,,,,,,,,,,,,,,,,,,,,,,,,,,,,,,,,,371.2661,right,0.2396,,1.5,0.3,"[2,3,1]",0.892733438,stimuli/card_100_transparent.png,400,100,3,0,3,0,1,,,,,
,,,,,2023-10-04_11h44.08.821,slotMachine_updated,2023.1.3,MacIntel,59.99880002,,,,,,,,,,,,,,,,,,,,,,,,,,,,,,,,,,,,,,,,,,,,,,,373.3285,right,0.1746,,1.5,0.3,"[2,3,1]",0.847600215,stimuli/card_100_transparent.png,500,100,4,0,4,0,1,,,,,
,,,,,2023-10-04_11h44.08.821,slotMachine_updated,2023.1.3,MacIntel,59.99880002,,,,,,,,,,,,,,,,,,,,,,,,,,,,,,,,,,,,,,,,,,,,,,,375.326,right,0.1354,,1,0.3,"[2,3,1]",0.404764082,stimuli/card_100_transparent.png,600,100,5,0,5,0,1,,,,,
,,,,,2023-10-04_11h44.08.821,slotMachine_updated,2023.1.3,MacIntel,59.99880002,,,,,,,,,,,,,,,,,,,,,,,,,,,,,,,,,,,,,,,,,,,,,,,376.791,right,0.1231,,0.5,0.3,"[2,3,1]",0.625741469,stimuli/card_100_transparent.png,700,100,6,0,6,0,1,,,,,
,,,,,2023-10-04_11h44.08.821,slotMachine_updated,2023.1.3,MacIntel,59.99880002,,,,,,,,,,,,,,,,,,,,,,,,,,,,,,,,,,,,,,,,,,,,,,,377.7273,right,0.1852,,1,0.3,"[1,2,3]",0.621476259,stimuli/card_0_transparent.png,700,0,7,0,7,0,1,,,,,
,,,,,2023-10-04_11h44.08.821,slotMachine_updated,2023.1.3,MacIntel,59.99880002,,,,,,,,,,,,,,,,,,,,,,,,,,,,,,,,,,,,,,,,,,,,,,,379.2194,right,0.3181,,1,0.3,"[1,2,3]",0.18234493,stimuli/card_10_transparent.png,710,10,8,0,8,0,1,,,,,
,,,,,2023-10-04_11h44.08.821,slotMachine_updated,2023.1.3,MacIntel,59.99880002,,,,,,,,,,,,,,,,,,,,,,,,,,,,,,,,,,,,,,,,,,,,,,,380.858,right,0.1956,,1.5,0.3,"[1,2,3]",0.678906976,stimuli/card_0_transparent.png,710,0,9,0,9,0,1,,,,,
,,,,,2023-10-04_11h44.08.821,slotMachine_updated,2023.1.3,MacIntel,59.99880002,,,,,,,,,,,,,,,,,,,,,,,,,,,,,,,,,,,,,,,,,,,,,,,382.8788,right,0.5611,,1,0.3,"[1,2,3]",0.843549976,stimuli/card_0_transparent.png,710,0,10,0,10,0,1,,,,,
,,,,,2023-10-04_11h44.08.821,slotMachine_updated,2023.1.3,MacIntel,59.99880002,,,,,,,,,,,,,,,,,,,,,,,,,,,,,,,,,,,,,,,,,,,,,,,384.7582,left,0.2548,,1.5,0.3,"[1,2,3]",0.463654918,stimuli/card_100_transparent.png,810,100,11,0,11,0,1,,,,,
,,,,,2023-10-04_11h44.08.821,slotMachine_updated,2023.1.3,MacIntel,59.99880002,,,,,,,,,,,,,,,,,,,,,,,,,,,,,,,,,,,,,,,,,,,,,,,386.828,left,0.2945,,1,0.3,"[1,2,3]",0.471947746,stimuli/card_100_transparent.png,910,100,12,0,12,0,1,,,,,
,,,,,2023-10-04_11h44.08.821,slotMachine_updated,2023.1.3,MacIntel,59.99880002,,,,,,,,,,,,,,,,,,,,,,,,,,,,,,,,,,,,,,,,,,,,,,,388.4287,left,0.1591,,0.5,0.3,"[1,2,3]",0.374341141,stimuli/card_100_transparent.png,1010,100,13,0,13,0,1,,,,,
,,,,,2023-10-04_11h44.08.821,slotMachine_updated,2023.1.3,MacIntel,59.99880002,,,,,,,,,,,,,,,,,,,,,,,,,,,,,,,,,,,,,,,,,,,,,,,389.4091,left,0.6394,,1.5,0.3,"[1,2,3]",0.962538993,stimuli/card_100_transparent.png,1110,100,14,0,14,0,1,,,,,
,,,,,2023-10-04_11h44.08.821,slotMachine_updated,2023.1.3,MacIntel,59.99880002,,,,,,,,,,,,,,,,,,,,,,,,,,391.8714,,,,,,,,,,,,,,,,,,,,,,,,,,,,,,,,,,,,,3,0,3,0,1
,,,,,2023-10-04_11h44.08.821,slotMachine_updated,2023.1.3,MacIntel,59.99880002,,,,,,,,,,,,,,,,,,,,,,,,,,,,,,,,,,,,,,,,,,,,,"[5,15]","[[1,2,3],[3,1,2]]",396.8851,left,0.6507,,1.5,0.3,"[1,2,3]",0.951353159,stimuli/card_100_transparent.png,100,100,0,0,0,0,1,,,,,
,,,,,2023-10-04_11h44.08.821,slotMachine_updated,2023.1.3,MacIntel,59.99880002,,,,,,,,,,,,,,,,,,,,,,,,,,,,,,,,,,,,,,,,,,,,,,,399.3504,left,0.2925,,1.5,0.3,"[1,2,3]",0.343905499,stimuli/card_100_transparent.png,200,100,1,0,1,0,1,,,,,
,,,,,2023-10-04_11h44.08.821,slotMachine_updated,2023.1.3,MacIntel,59.99880002,,,,,,,,,,,,,,,,,,,,,,,,,,,,,,,,,,,,,,,,,,,,,,,401.4613,left,0.1601,,1,0.3,"[1,2,3]",0.591127436,stimuli/card_100_transparent.png,300,100,2,0,2,0,1,,,,,
,,,,,2023-10-04_11h44.08.821,slotMachine_updated,2023.1.3,MacIntel,59.99880002,,,,,,,,,,,,,,,,,,,,,,,,,,,,,,,,,,,,,,,,,,,,,,,402.9438,left,0.4235,,1.5,0.3,"[1,2,3]",0.862804847,stimuli/card_100_transparent.png,400,100,3,0,3,0,1,,,,,
,,,,,2023-10-04_11h44.08.821,slotMachine_updated,2023.1.3,MacIntel,59.99880002,,,,,,,,,,,,,,,,,,,,,,,,,,,,,,,,,,,,,,,,,,,,,,,405.1857,left,0.1415,,1.5,0.3,"[1,2,3]",0.872694373,stimuli/card_100_transparent.png,500,100,4,0,4,0,1,,,,,
,,,,,2023-10-04_11h44.08.821,slotMachine_updated,2023.1.3,MacIntel,59.99880002,,,,,,,,,,,,,,,,,,,,,,,,,,,,,,,,,,,,,,,,,,,,,,,407.1469,left,0.3233,,1.5,0.3,"[3,1,2]",0.812067985,stimuli/card_0_transparent.png,500,0,5,0,5,0,1,,,,,
,,,,,2023-10-04_11h44.08.821,slotMachine_updated,2023.1.3,MacIntel,59.99880002,,,,,,,,,,,,,,,,,,,,,,,,,,,,,,,,,,,,,,,,,,,,,,,409.2745,up,0.4288,,1,0.3,"[3,1,2]",0.840532489,stimuli/card_100_transparent.png,600,100,6,0,6,0,1,,,,,
,,,,,2023-10-04_11h44.08.821,slotMachine_updated,2023.1.3,MacIntel,59.99880002,,,,,,,,,,,,,,,,,,,,,,,,,,,,,,,,,,,,,,,,,,,,,,,411.0136,up,0.3161,,1.5,0.3,"[3,1,2]",0.798245749,stimuli/card_100_transparent.png,700,100,7,0,7,0,1,,,,,
,,,,,2023-10-04_11h44.08.821,slotMachine_updated,2023.1.3,MacIntel,59.99880002,,,,,,,,,,,,,,,,,,,,,,,,,,,,,,,,,,,,,,,,,,,,,,,413.1552,up,0.2551,,1.5,0.3,"[3,1,2]",0.536276097,stimuli/card_100_transparent.png,800,100,8,0,8,0,1,,,,,
,,,,,2023-10-04_11h44.08.821,slotMachine_updated,2023.1.3,MacIntel,59.99880002,,,,,,,,,,,,,,,,,,,,,,,,,,,,,,,,,,,,,,,,,,,,,,,415.237,up,0.2877,,1.5,0.3,"[3,1,2]",0.547212466,stimuli/card_100_transparent.png,900,100,9,0,9,0,1,,,,,
,,,,,2023-10-04_11h44.08.821,slotMachine_updated,2023.1.3,MacIntel,59.99880002,,,,,,,,,,,,,,,,,,,,,,,,,,,,,,,,,,,,,,,,,,,,,,,417.3556,up,0.0158,,0.5,0.3,"[3,1,2]",0.371350638,stimuli/card_100_transparent.png,1000,100,10,0,10,0,1,,,,,
,,,,,2023-10-04_11h44.08.821,slotMachine_updated,2023.1.3,MacIntel,59.99880002,,,,,,,,,,,,,,,,,,,,,,,,,,,,,,,,,,,,,,,,,,,,,,,418.2055,up,0.18,,1.5,0.3,"[3,1,2]",0.310403079,stimuli/card_100_transparent.png,1100,100,11,0,11,0,1,,,,,
,,,,,2023-10-04_11h44.08.821,slotMachine_updated,2023.1.3,MacIntel,59.99880002,,,,,,,,,,,,,,,,,,,,,,,,,,,,,,,,,,,,,,,,,,,,,,,420.2054,up,0.5984,,0.5,0.3,"[3,1,2]",0.793816424,stimuli/card_100_transparent.png,1200,100,12,0,12,0,1,,,,,
,,,,,2023-10-04_11h44.08.821,slotMachine_updated,2023.1.3,MacIntel,59.99880002,,,,,,,,,,,,,,,,,,,,,,,,,,,,,,,,,,,,,,,,,,,,,,,421.6128,up,0.7944,,1,0.3,"[3,1,2]",0.666401476,stimuli/card_100_transparent.png,1300,100,13,0,13,0,1,,,,,
,,,,,2023-10-04_11h44.08.821,slotMachine_updated,2023.1.3,MacIntel,59.99880002,,,,,,,,,,,,,,,,,,,,,,,,,,,,,,,,,,,,,,,,,,,,,,,423.7275,up,0.316,,1.5,0.3,"[3,1,2]",0.418951056,stimuli/card_100_transparent.png,1400,100,14,0,14,0,1,,,,,
,,,,,2023-10-04_11h44.08.821,slotMachine_updated,2023.1.3,MacIntel,59.99880002,,,,,,,,,,,,,,,,,,,,,,,,,,425.8686,,,,,,,,,,,,,,,,,,,,,,,,,,,,,,,,,,,,,4,0,4,0,1
,,,,,2023-10-04_11h44.08.821,slotMachine_updated,2023.1.3,MacIntel,59.99880002,,,,,,,,,,,,,,,,,,,,,,,,,,,,,,,,,,,,,,,,,,,,,"[4,10,15]","[[2,3,1],[1,3,2],[3,2,1]]",430.8723,right,0.3781,,1.5,0.3,"[2,3,1]",0.964138066,stimuli/card_100_transparent.png,100,100,0,0,0,0,1,,,,,
,,,,,2023-10-04_11h44.08.821,slotMachine_updated,2023.1.3,MacIntel,59.99880002,,,,,,,,,,,,,,,,,,,,,,,,,,,,,,,,,,,,,,,,,,,,,,,433.1082,right,0.3127,,1.5,0.3,"[2,3,1]",0.281200687,stimuli/card_100_transparent.png,200,100,1,0,1,0,1,,,,,
,,,,,2023-10-04_11h44.08.821,slotMachine_updated,2023.1.3,MacIntel,59.99880002,,,,,,,,,,,,,,,,,,,,,,,,,,,,,,,,,,,,,,,,,,,,,,,435.2395,right,0.2833,,1,0.3,"[2,3,1]",0.855151414,stimuli/card_100_transparent.png,300,100,2,0,2,0,1,,,,,
,,,,,2023-10-04_11h44.08.821,slotMachine_updated,2023.1.3,MacIntel,59.99880002,,,,,,,,,,,,,,,,,,,,,,,,,,,,,,,,,,,,,,,,,,,,,,,436.8418,right,0.1202,,1.5,0.3,"[2,3,1]",0.325229555,stimuli/card_100_transparent.png,400,100,3,0,3,0,1,,,,,
,,,,,2023-10-04_11h44.08.821,slotMachine_updated,2023.1.3,MacIntel,59.99880002,,,,,,,,,,,,,,,,,,,,,,,,,,,,,,,,,,,,,,,,,,,,,,,438.7695,right,0.2263,,1,0.3,"[1,3,2]",0.730672648,stimuli/card_10_transparent.png,410,10,4,0,4,0,1,,,,,
,,,,,2023-10-04_11h44.08.821,slotMachine_updated,2023.1.3,MacIntel,59.99880002,,,,,,,,,,,,,,,,,,,,,,,,,,,,,,,,,,,,,,,,,,,,,,,440.309,up,0.7186,,0.5,0.3,"[1,3,2]",0.118911706,stimuli/card_10_transparent.png,420,10,5,0,5,0,1,,,,,
,,,,,2023-10-04_11h44.08.821,slotMachine_updated,2023.1.3,MacIntel,59.99880002,,,,,,,,,,,,,,,,,,,,,,,,,,,,,,,,,,,,,,,,,,,,,,,441.8502,left,0.2412,,0.5,0.3,"[1,3,2]",0.755473328,stimuli/card_100_transparent.png,520,100,6,0,6,0,1,,,,,
,,,,,2023-10-04_11h44.08.821,slotMachine_updated,2023.1.3,MacIntel,59.99880002,,,,,,,,,,,,,,,,,,,,,,,,,,,,,,,,,,,,,,,,,,,,,,,442.9112,left,0.2134,,0.5,0.3,"[1,3,2]",0.621868052,stimuli/card_100_transparent.png,620,100,7,0,7,0,1,,,,,
,,,,,2023-10-04_11h44.08.821,slotMachine_updated,2023.1.3,MacIntel,59.99880002,,,,,,,,,,,,,,,,,,,,,,,,,,,,,,,,,,,,,,,,,,,,,,,443.9504,left,0.2503,,0.5,0.3,"[1,3,2]",0.770667609,stimuli/card_100_transparent.png,720,100,8,0,8,0,1,,,,,
,,,,,2023-10-04_11h44.08.821,slotMachine_updated,2023.1.3,MacIntel,59.99880002,,,,,,,,,,,,,,,,,,,,,,,,,,,,,,,,,,,,,,,,,,,,,,,445.0316,left,0.3598,,1.5,0.3,"[1,3,2]",0.030858067,stimuli/card_0_transparent.png,720,0,9,0,9,0,1,,,,,
,,,,,2023-10-04_11h44.08.821,slotMachine_updated,2023.1.3,MacIntel,59.99880002,,,,,,,,,,,,,,,,,,,,,,,,,,,,,,,,,,,,,,,,,,,,,,,447.2124,left,0.3008,,1,0.3,"[3,2,1]",0.329416492,stimuli/card_0_transparent.png,720,0,10,0,10,0,1,,,,,
,,,,,2023-10-04_11h44.08.821,slotMachine_updated,2023.1.3,MacIntel,59.99880002,,,,,,,,,,,,,,,,,,,,,,,,,,,,,,,,,,,,,,,,,,,,,,,448.821,up,0.014,,0.5,0.3,"[3,2,1]",0.563702921,stimuli/card_10_transparent.png,730,10,11,0,11,0,1,,,,,
,,,,,2023-10-04_11h44.08.821,slotMachine_updated,2023.1.3,MacIntel,59.99880002,,,,,,,,,,,,,,,,,,,,,,,,,,,,,,,,,,,,,,,,,,,,,,,449.6639,up,0.4793,,1,0.3,"[3,2,1]",0.822611662,stimuli/card_10_transparent.png,740,10,12,0,12,0,1,,,,,
,,,,,2023-10-04_11h44.08.821,slotMachine_updated,2023.1.3,MacIntel,59.99880002,,,,,,,,,,,,,,,,,,,,,,,,,,,,,,,,,,,,,,,,,,,,,,,451.4629,right,0.0947,,1.5,0.3,"[3,2,1]",0.565174338,stimuli/card_100_transparent.png,840,100,13,0,13,0,1,,,,,
,,,,,2023-10-04_11h44.08.821,slotMachine_updated,2023.1.3,MacIntel,59.99880002,,,,,,,,,,,,,,,,,,,,,,,,,,,,,,,,,,,,,,,,,,,,,,,453.3836,right,0.3196,,1.5,0.3,"[3,2,1]",0.67020404,stimuli/card_100_transparent.png,940,100,14,0,14,0,1,,,,,
,,,,,2023-10-04_11h44.08.821,slotMachine_updated,2023.1.3,MacIntel,59.99880002,,,,,,,,,,,,,,,,,,,,,,,,,,455.5226,,,,,,,,,,,,,,,,,,,,,,,,,,,,,,,,,,,,,5,0,5,0,1
,,,,,2023-10-04_11h44.08.821,slotMachine_updated,2023.1.3,MacIntel,59.99880002,,,,,,,,,,,,,,,,,,,,,,,,,,,,,,,,,,,,,,,,,,,,,"[9,15]","[[1,3,2],[2,3,1]]",460.5297,left,0.5178,,1,0.3,"[1,3,2]",0.643354249,stimuli/card_100_transparent.png,100,100,0,0,0,0,1,,,,,
,,,,,2023-10-04_11h44.08.821,slotMachine_updated,2023.1.3,MacIntel,59.99880002,,,,,,,,,,,,,,,,,,,,,,,,,,,,,,,,,,,,,,,,,,,,,,,462.3785,left,0.3606,,0.5,0.3,"[1,3,2]",0.459114262,stimuli/card_100_transparent.png,200,100,1,0,1,0,1,,,,,
,,,,,2023-10-04_11h44.08.821,slotMachine_updated,2023.1.3,MacIntel,59.99880002,,,,,,,,,,,,,,,,,,,,,,,,,,,,,,,,,,,,,,,,,,,,,,,463.5552,left,0.4382,,1.5,0.3,"[1,3,2]",0.455317108,stimuli/card_100_transparent.png,300,100,2,0,2,0,1,,,,,
,,,,,2023-10-04_11h44.08.821,slotMachine_updated,2023.1.3,MacIntel,59.99880002,,,,,,,,,,,,,,,,,,,,,,,,,,,,,,,,,,,,,,,,,,,,,,,465.8156,left,0.022,,1.5,0.3,"[1,3,2]",0.278893091,stimuli/card_100_transparent.png,400,100,3,0,3,0,1,,,,,
,,,,,2023-10-04_11h44.08.821,slotMachine_updated,2023.1.3,MacIntel,59.99880002,,,,,,,,,,,,,,,,,,,,,,,,,,,,,,,,,,,,,,,,,,,,,,,467.6364,left,0.0766,,0.5,0.3,"[1,3,2]",0.089715631,stimuli/card_0_transparent.png,400,0,4,0,4,0,1,,,,,
,,,,,2023-10-04_11h44.08.821,slotMachine_updated,2023.1.3,MacIntel,59.99880002,,,,,,,,,,,,,,,,,,,,,,,,,,,,,,,,,,,,,,,,,,,,,,,468.5335,left,0.8049,,1,0.3,"[1,3,2]",0.469864023,stimuli/card_100_transparent.png,500,100,5,0,5,0,1,,,,,
,,,,,2023-10-04_11h44.08.821,slotMachine_updated,2023.1.3,MacIntel,59.99880002,,,,,,,,,,,,,,,,,,,,,,,,,,,,,,,,,,,,,,,,,,,,,,,470.6658,left,0.2596,,0.5,0.3,"[1,3,2]",0.302691155,stimuli/card_100_transparent.png,600,100,6,0,6,0,1,,,,,
,,,,,2023-10-04_11h44.08.821,slotMachine_updated,2023.1.3,MacIntel,59.99880002,,,,,,,,,,,,,,,,,,,,,,,,,,,,,,,,,,,,,,,,,,,,,,,471.7473,left,0.4619,,1.5,0.3,"[1,3,2]",0.520229676,stimuli/card_100_transparent.png,700,100,7,0,7,0,1,,,,,
,,,,,2023-10-04_11h44.08.821,slotMachine_updated,2023.1.3,MacIntel,59.99880002,,,,,,,,,,,,,,,,,,,,,,,,,,,,,,,,,,,,,,,,,,,,,,,474.0275,left,0.1403,,1,0.3,"[1,3,2]",0.67017738,stimuli/card_100_transparent.png,800,100,8,0,8,0,1,,,,,
,,,,,2023-10-04_11h44.08.821,slotMachine_updated,2023.1.3,MacIntel,59.99880002,,,,,,,,,,,,,,,,,,,,,,,,,,,,,,,,,,,,,,,,,,,,,,,475.4924,left,0.1976,,1.5,0.3,"[2,3,1]",0.194526368,stimuli/card_100_transparent.png,900,100,9,0,9,0,1,,,,,
,,,,,2023-10-04_11h44.08.821,slotMachine_updated,2023.1.3,MacIntel,59.99880002,,,,,,,,,,,,,,,,,,,,,,,,,,,,,,,,,,,,,,,,,,,,,,,477.5109,right,0.7335,,0.5,0.3,"[2,3,1]",0.528634975,stimuli/card_100_transparent.png,1000,100,10,0,10,0,1,,,,,
,,,,,2023-10-04_11h44.08.821,slotMachine_updated,2023.1.3,MacIntel,59.99880002,,,,,,,,,,,,,,,,,,,,,,,,,,,,,,,,,,,,,,,,,,,,,,,479.0619,right,0.4063,,1.5,0.3,"[2,3,1]",0.380544676,stimuli/card_100_transparent.png,1100,100,11,0,11,0,1,,,,,
,,,,,2023-10-04_11h44.08.821,slotMachine_updated,2023.1.3,MacIntel,59.99880002,,,,,,,,,,,,,,,,,,,,,,,,,,,,,,,,,,,,,,,,,,,,,,,481.2826,right,0.3365,,0.5,0.3,"[2,3,1]",0.171141387,stimuli/card_10_transparent.png,1110,10,12,0,12,0,1,,,,,
,,,,,2023-10-04_11h44.08.821,slotMachine_updated,2023.1.3,MacIntel,59.99880002,,,,,,,,,,,,,,,,,,,,,,,,,,,,,,,,,,,,,,,,,,,,,,,482.4389,up,0.6202,,1.5,0.3,"[2,3,1]",0.058861593,stimuli/card_100_transparent.png,1210,100,13,0,13,0,1,,,,,
,,,,,2023-10-04_11h44.08.821,slotMachine_updated,2023.1.3,MacIntel,59.99880002,,,,,,,,,,,,,,,,,,,,,,,,,,,,,,,,,,,,,,,,,,,,,,,484.882,up,0.1813,,1,0.3,"[2,3,1]",0.117909847,stimuli/card_10_transparent.png,1220,10,14,0,14,0,1,,,,,
,,,,,2023-10-04_11h44.08.821,slotMachine_updated,2023.1.3,MacIntel,59.99880002,,,,,,,,,,,,,,,,,,,,,,,,,,486.3795,,,,,,,,,,,,,,,,,,,,,,,,,,,,,,,,,,,,,6,0,6,0,1
,,,,,2023-10-04_11h44.08.821,slotMachine_updated,2023.1.3,MacIntel,59.99880002,,,,,,,,,,,,,,,,,,,,,,,,,,,,,,,,,,,,,,,,,,,,,"[11,15]","[[2,1,3],[1,2,3]]",491.3825,up,0.5074,,1.5,0.3,"[2,1,3]",0.655121143,stimuli/card_100_transparent.png,100,100,0,0,0,0,1,,,,,
,,,,,2023-10-04_11h44.08.821,slotMachine_updated,2023.1.3,MacIntel,59.99880002,,,,,,,,,,,,,,,,,,,,,,,,,,,,,,,,,,,,,,,,,,,,,,,493.7115,up,1.0424,,0.5,0.3,"[2,1,3]",0.059690787,stimuli/card_0_transparent.png,100,0,1,0,1,0,1,,,,,
,,,,,2023-10-04_11h44.08.821,slotMachine_updated,2023.1.3,MacIntel,59.99880002,,,,,,,,,,,,,,,,,,,,,,,,,,,,,,,,,,,,,,,,,,,,,,,495.5765,right,1.1724,,1.5,0.3,"[2,1,3]",0.583968101,stimuli/card_0_transparent.png,100,0,2,0,2,0,1,,,,,
,,,,,2023-10-04_11h44.08.821,slotMachine_updated,2023.1.3,MacIntel,59.99880002,,,,,,,,,,,,,,,,,,,,,,,,,,,,,,,,,,,,,,,,,,,,,,,498.5627,left,0.2577,,0.5,0.3,"[2,1,3]",0.920092259,stimuli/card_10_transparent.png,110,10,3,0,3,0,1,,,,,
,,,,,2023-10-04_11h44.08.821,slotMachine_updated,2023.1.3,MacIntel,59.99880002,,,,,,,,,,,,,,,,,,,,,,,,,,,,,,,,,,,,,,,,,,,,,,,499.6469,left,0.8224,,1,0.3,"[2,1,3]",0.952317289,stimuli/card_10_transparent.png,120,10,4,0,4,0,1,,,,,
,,,,,2023-10-04_11h44.08.821,slotMachine_updated,2023.1.3,MacIntel,59.99880002,,,,,,,,,,,,,,,,,,,,,,,,,,,,,,,,,,,,,,,,,,,,,,,501.7848,up,0.1225,,0.5,0.3,"[2,1,3]",0.966095477,stimuli/card_100_transparent.png,220,100,5,0,5,0,1,,,,,
,,,,,2023-10-04_11h44.08.821,slotMachine_updated,2023.1.3,MacIntel,59.99880002,,,,,,,,,,,,,,,,,,,,,,,,,,,,,,,,,,,,,,,,,,,,,,,502.7231,up,0.3378,,1.5,0.3,"[2,1,3]",0.270483762,stimuli/card_100_transparent.png,320,100,6,0,6,0,1,,,,,
,,,,,2023-10-04_11h44.08.821,slotMachine_updated,2023.1.3,MacIntel,59.99880002,,,,,,,,,,,,,,,,,,,,,,,,,,,,,,,,,,,,,,,,,,,,,,,504.8894,up,0.1756,,1.5,0.3,"[2,1,3]",0.677869448,stimuli/card_100_transparent.png,420,100,7,0,7,0,1,,,,,
,,,,,2023-10-04_11h44.08.821,slotMachine_updated,2023.1.3,MacIntel,59.99880002,,,,,,,,,,,,,,,,,,,,,,,,,,,,,,,,,,,,,,,,,,,,,,,506.8891,up,0.0204,,0.5,0.3,"[2,1,3]",0.668618106,stimuli/card_100_transparent.png,520,100,8,0,8,0,1,,,,,
,,,,,2023-10-04_11h44.08.821,slotMachine_updated,2023.1.3,MacIntel,59.99880002,,,,,,,,,,,,,,,,,,,,,,,,,,,,,,,,,,,,,,,,,,,,,,,507.7272,up,0.1903,,1,0.3,"[2,1,3]",0.375585707,stimuli/card_100_transparent.png,620,100,9,0,9,0,1,,,,,
,,,,,2023-10-04_11h44.08.821,slotMachine_updated,2023.1.3,MacIntel,59.99880002,,,,,,,,,,,,,,,,,,,,,,,,,,,,,,,,,,,,,,,,,,,,,,,509.2367,up,0.0008,,1.5,0.3,"[2,1,3]",0.944272565,stimuli/card_100_transparent.png,720,100,10,0,10,0,1,,,,,
,,,,,2023-10-04_11h44.08.821,slotMachine_updated,2023.1.3,MacIntel,59.99880002,,,,,,,,,,,,,,,,,,,,,,,,,,,,,,,,,,,,,,,,,,,,,,,511.0576,up,1.2386,,1.5,0.3,"[1,2,3]",0.883255823,stimuli/card_10_transparent.png,730,10,11,0,11,0,1,,,,,
,,,,,2023-10-04_11h44.08.821,slotMachine_updated,2023.1.3,MacIntel,59.99880002,,,,,,,,,,,,,,,,,,,,,,,,,,,,,,,,,,,,,,,,,,,,,,,514.1151,right,0.8596,,0.5,0.3,"[1,2,3]",0.78507245,stimuli/card_0_transparent.png,730,0,12,0,12,0,1,,,,,
,,,,,2023-10-04_11h44.08.821,slotMachine_updated,2023.1.3,MacIntel,59.99880002,,,,,,,,,,,,,,,,,,,,,,,,,,,,,,,,,,,,,,,,,,,,,,,515.798,left,0.5033,,1.5,0.3,"[1,2,3]",0.171687972,stimuli/card_10_transparent.png,740,10,13,0,13,0,1,,,,,
,,,,,2023-10-04_11h44.08.821,slotMachine_updated,2023.1.3,MacIntel,59.99880002,,,,,,,,,,,,,,,,,,,,,,,,,,,,,,,,,,,,,,,,,,,,,,,518.119,up,0.5874,,1,0.3,"[1,2,3]",0.122949682,stimuli/card_100_transparent.png,840,100,14,0,14,0,1,,,,,
,,,,,2023-10-04_11h44.08.821,slotMachine_updated,2023.1.3,MacIntel,59.99880002,,,,,,,,,,,,,,,,,,,,,,,,,,520.0266,,,,,,,,,,,,,,,,,,,,,,,,,,,,,,,,,,,,,7,0,7,0,1
,,,,,2023-10-04_11h44.08.821,slotMachine_updated,2023.1.3,MacIntel,59.99880002,,,,,,,,,,,,,,,,,,,,,,,,,,,,,,,,,,,,,,,,,,,,,"[8,15]","[[3,2,1],[3,1,2]]",525.042,left,0.5474,,1,0.3,"[3,2,1]",0.107358641,stimuli/card_10_transparent.png,10,10,0,0,0,0,1,,,,,
,,,,,2023-10-04_11h44.08.821,slotMachine_updated,2023.1.3,MacIntel,59.99880002,,,,,,,,,,,,,,,,,,,,,,,,,,,,,,,,,,,,,,,,,,,,,,,526.9089,right,0.2178,,1,0.3,"[3,2,1]",0.965917402,stimuli/card_100_transparent.png,110,100,1,0,1,0,1,,,,,
,,,,,2023-10-04_11h44.08.821,slotMachine_updated,2023.1.3,MacIntel,59.99880002,,,,,,,,,,,,,,,,,,,,,,,,,,,,,,,,,,,,,,,,,,,,,,,528.4492,right,0.3295,,0.5,0.3,"[3,2,1]",0.801070839,stimuli/card_100_transparent.png,210,100,2,0,2,0,1,,,,,
,,,,,2023-10-04_11h44.08.821,slotMachine_updated,2023.1.3,MacIntel,59.99880002,,,,,,,,,,,,,,,,,,,,,,,,,,,,,,,,,,,,,,,,,,,,,,,529.5984,right,0.3975,,0.5,0.3,"[3,2,1]",0.451418707,stimuli/card_100_transparent.png,310,100,3,0,3,0,1,,,,,
,,,,,2023-10-04_11h44.08.821,slotMachine_updated,2023.1.3,MacIntel,59.99880002,,,,,,,,,,,,,,,,,,,,,,,,,,,,,,,,,,,,,,,,,,,,,,,530.8209,right,0.3387,,1,0.3,"[3,2,1]",0.068706646,stimuli/card_0_transparent.png,310,0,4,0,4,0,1,,,,,
,,,,,2023-10-04_11h44.08.821,slotMachine_updated,2023.1.3,MacIntel,59.99880002,,,,,,,,,,,,,,,,,,,,,,,,,,,,,,,,,,,,,,,,,,,,,,,532.4831,right,0.7604,,1.5,0.3,"[3,2,1]",0.875062843,stimuli/card_100_transparent.png,410,100,5,0,5,0,1,,,,,
,,,,,2023-10-04_11h44.08.821,slotMachine_updated,2023.1.3,MacIntel,59.99880002,,,,,,,,,,,,,,,,,,,,,,,,,,,,,,,,,,,,,,,,,,,,,,,535.0597,right,0.2645,,0.5,0.3,"[3,2,1]",0.731024085,stimuli/card_100_transparent.png,510,100,6,0,6,0,1,,,,,
,,,,,2023-10-04_11h44.08.821,slotMachine_updated,2023.1.3,MacIntel,59.99880002,,,,,,,,,,,,,,,,,,,,,,,,,,,,,,,,,,,,,,,,,,,,,,,536.1406,right,0.2611,,0.5,0.3,"[3,2,1]",0.312535508,stimuli/card_100_transparent.png,610,100,7,0,7,0,1,,,,,
,,,,,2023-10-04_11h44.08.821,slotMachine_updated,2023.1.3,MacIntel,59.99880002,,,,,,,,,,,,,,,,,,,,,,,,,,,,,,,,,,,,,,,,,,,,,,,537.2204,right,0.2603,,1.5,0.3,"[3,1,2]",0.765007905,stimuli/card_10_transparent.png,620,10,8,0,8,0,1,,,,,
,,,,,2023-10-04_11h44.08.821,slotMachine_updated,2023.1.3,MacIntel,59.99880002,,,,,,,,,,,,,,,,,,,,,,,,,,,,,,,,,,,,,,,,,,,,,,,539.2951,right,0.0027,,0.5,0.3,"[3,1,2]",0.599213136,stimuli/card_10_transparent.png,630,10,9,0,9,0,1,,,,,
,,,,,2023-10-04_11h44.08.821,slotMachine_updated,2023.1.3,MacIntel,59.99880002,,,,,,,,,,,,,,,,,,,,,,,,,,,,,,,,,,,,,,,,,,,,,,,540.1343,right,0.6254,,1,0.3,"[3,1,2]",0.241667741,stimuli/card_10_transparent.png,640,10,10,0,10,0,1,,,,,
,,,,,2023-10-04_11h44.08.821,slotMachine_updated,2023.1.3,MacIntel,59.99880002,,,,,,,,,,,,,,,,,,,,,,,,,,,,,,,,,,,,,,,,,,,,,,,542.0742,right,0.1826,,0.5,0.3,"[3,1,2]",0.751368755,stimuli/card_10_transparent.png,650,10,11,0,11,0,1,,,,,
,,,,,2023-10-04_11h44.08.821,slotMachine_updated,2023.1.3,MacIntel,59.99880002,,,,,,,,,,,,,,,,,,,,,,,,,,,,,,,,,,,,,,,,,,,,,,,543.071,up,0.424,,1,0.3,"[3,1,2]",0.288061133,stimuli/card_100_transparent.png,750,100,12,0,12,0,1,,,,,
,,,,,2023-10-04_11h44.08.821,slotMachine_updated,2023.1.3,MacIntel,59.99880002,,,,,,,,,,,,,,,,,,,,,,,,,,,,,,,,,,,,,,,,,,,,,,,544.8131,up,0.3778,,0.5,0.3,"[3,1,2]",0.284786711,stimuli/card_100_transparent.png,850,100,13,0,13,0,1,,,,,
,,,,,2023-10-04_11h44.08.821,slotMachine_updated,2023.1.3,MacIntel,59.99880002,,,,,,,,,,,,,,,,,,,,,,,,,,,,,,,,,,,,,,,,,,,,,,,546.014,up,0.3417,,1,0.3,"[3,1,2]",0.85228083,stimuli/card_100_transparent.png,950,100,14,0,14,0,1,,,,,
,,,,,2023-10-04_11h44.08.821,slotMachine_updated,2023.1.3,MacIntel,59.99880002,,,,,,,,,,,,,,,,,,,,,,,,,,547.6744,,,,,,,,,,,,,,,,,,,,,,,,,,,,,,,,,,,,,8,0,8,0,1
,,,,,2023-10-04_11h44.08.821,slotMachine_updated,2023.1.3,MacIntel,59.99880002,,,,,,,,,,,,,,,,,,,,,,,,,,,,,,,,,,,,,,,,,,,,,"[10,15]","[[3,1,2],[1,3,2]]",552.6824,left,0.5647,,1,0.3,"[3,1,2]",0.391475668,stimuli/card_0_transparent.png,0,0,0,0,0,0,1,,,,,
,,,,,2023-10-04_11h44.08.821,slotMachine_updated,2023.1.3,MacIntel,59.99880002,,,,,,,,,,,,,,,,,,,,,,,,,,,,,,,,,,,,,,,,,,,,,,,554.5679,left,0.4304,,1.5,0.3,"[3,1,2]",0.922864109,stimuli/card_0_transparent.png,0,0,1,0,1,0,1,,,,,
,,,,,2023-10-04_11h44.08.821,slotMachine_updated,2023.1.3,MacIntel,59.99880002,,,,,,,,,,,,,,,,,,,,,,,,,,,,,,,,,,,,,,,,,,,,,,,556.8053,up,0.661,,1.5,0.3,"[3,1,2]",0.433405899,stimuli/card_100_transparent.png,100,100,2,0,2,0,1,,,,,
,,,,,2023-10-04_11h44.08.821,slotMachine_updated,2023.1.3,MacIntel,59.99880002,,,,,,,,,,,,,,,,,,,,,,,,,,,,,,,,,,,,,,,,,,,,,,,559.2777,,,,0.5,0.3,,,,,,3,0,3,0,1,,,,,
