key_resp_welcome_started,key_resp_welcome_keys,key_resp_welcome_rt,key_resp_welcome_duration,prolific_pid,path_id,date,expName,psychopyVersion,OS,frameRate,key_resp_instruction1_started,key_resp_instruction1_keys,key_resp_instruction1_rt,key_resp_instruction1_duration,key_resp_instruction2_started,key_resp_instruction2_keys,key_resp_instruction2_rt,key_resp_instruction2_duration,key_resp_instruction3_started,key_resp_instruction3_keys,key_resp_instruction3_rt,key_resp_instruction3_duration,key_resp_instruction4_started,key_resp_instruction4_keys,key_resp_instruction4_rt,key_resp_instruction4_duration,practiceCondition,practice_reward_seqs,practice_trial_started,practice_trial_num,practice_resp_rt,practice_keypress_time,practice_resp_keys,prac_presentationInterval,practice_reward_seq,reward_img,cumulative_reward,trial_reward,practice_trials.thisRepN,practice_trials.thisTrialN,practice_trials.thisN,practice_trials.thisIndex,practice_trials.ran,block_break_started,practice_end_time,practice_end_keys,practice_end_rt,practice_end_duration,main_instruction_text_started,block_condition,block_order_indices,main_instruction_keys,main_instruction_rt,main_instruction_duration,block_number,block_assignment,current_condition,main_reward_seqs,main_trial_started,main_trial_num,main_trial_keys,main_trial_rt,main_trial_keypress_time,main_presentationInterval,reward_presentation_time,main_reward_seq,reward_rand_val,main_reward_img,current_reward,main_trials.thisRepN,main_trials.thisTrialN,main_trials.thisN,main_trials.thisIndex,main_trials.ran,block_reward,block.thisRepN,block.thisTrialN,block.thisN,block.thisIndex,block.ran,block_reward.length,block_reward_all,reward_amount,date_end_task
0,return,3.575,,5dd31871c5faa232d3c20365,B,2024-08-30_13h12.26.759,Slot Machine Game,2023.1.3,MacIntel,62.5,,,,,,,,,,,,,,,,,,,,,,,,,,,,,,,,,,,,,,,,,,,,,,,,,,,,,,,,,,,,,,,,,,,,,,,,,,
,,,,5dd31871c5faa232d3c20365,B,2024-08-30_13h12.26.759,Slot Machine Game,2023.1.3,MacIntel,62.5,3.595,return,5.205,,,,,,,,,,,,,,,,,,,,,,,,,,,,,,,,,,,,,,,,,,,,,,,,,,,,,,,,,,,,,,,,,,,,,,,
,,,,5dd31871c5faa232d3c20365,B,2024-08-30_13h12.26.759,Slot Machine Game,2023.1.3,MacIntel,62.5,,,,,8.812,return,20.338,,,,,,,,,,,,,,,,,,,,,,,,,,,,,,,,,,,,,,,,,,,,,,,,,,,,,,,,,,,,,,,,,,,
,,,,5dd31871c5faa232d3c20365,B,2024-08-30_13h12.26.759,Slot Machine Game,2023.1.3,MacIntel,62.5,,,,,,,,,29.181,return,7.658,,,,,,,,,,,,,,,,,,,,,,,,,,,,,,,,,,,,,,,,,,,,,,,,,,,,,,,,,,,,,,,
,,,,5dd31871c5faa232d3c20365,B,2024-08-30_13h12.26.759,Slot Machine Game,2023.1.3,MacIntel,62.5,,,,,,,,,,,,,,,,,,,,,,,,,,,,,,,,,,,,,,,,,,,,,,,,,,,,,,,,,,,,,,,,,,,,,,,,,,
,,,,5dd31871c5faa232d3c20365,B,2024-08-30_13h12.26.759,Slot Machine Game,2023.1.3,MacIntel,62.5,,,,,,,,,,,,,178.552,right,4.267,,,,,,,,,,,,,,,,,,,,,,,,,,,,,,,,,,,,,,,,,,,,,,,,,,,,,,,,,,,
,,,,5dd31871c5faa232d3c20365,B,2024-08-30_13h12.26.759,Slot Machine Game,2023.1.3,MacIntel,62.5,,,,,,,,,,,,,,,,,"[9,15]","[[2,1,3],[2,3,1]]",182.853,0,4.128,187.002,left,0.5,"[2,1,3]",stimuli/card_10_transparent.png,10,10,0,0,0,0,1,,,,,,,,,,,,,,,,,,,,,,,,,,,,,,,,,,,,,,,,,
,,,,5dd31871c5faa232d3c20365,B,2024-08-30_13h12.26.759,Slot Machine Game,2023.1.3,MacIntel,62.5,,,,,,,,,,,,,,,,,,,187.803,1,1.249,189.086,up,0.5,"[2,1,3]",stimuli/card_100_transparent.png,110,100,1,0,1,0,1,,,,,,,,,,,,,,,,,,,,,,,,,,,,,,,,,,,,,,,,,
,,,,5dd31871c5faa232d3c20365,B,2024-08-30_13h12.26.759,Slot Machine Game,2023.1.3,MacIntel,62.5,,,,,,,,,,,,,,,,,,,189.886,2,0.994,190.903,up,1,"[2,1,3]",stimuli/card_100_transparent.png,210,100,2,0,2,0,1,,,,,,,,,,,,,,,,,,,,,,,,,,,,,,,,,,,,,,,,,
,,,,5dd31871c5faa232d3c20365,B,2024-08-30_13h12.26.759,Slot Machine Game,2023.1.3,MacIntel,62.5,,,,,,,,,,,,,,,,,,,192.203,3,0.684,192.92,up,1,"[2,1,3]",stimuli/card_100_transparent.png,310,100,3,0,3,0,1,,,,,,,,,,,,,,,,,,,,,,,,,,,,,,,,,,,,,,,,,
,,,,5dd31871c5faa232d3c20365,B,2024-08-30_13h12.26.759,Slot Machine Game,2023.1.3,MacIntel,62.5,,,,,,,,,,,,,,,,,,,194.22,4,0.585,194.836,up,1,"[2,1,3]",stimuli/card_0_transparent.png,310,0,4,0,4,0,1,,,,,,,,,,,,,,,,,,,,,,,,,,,,,,,,,,,,,,,,,
,,,,5dd31871c5faa232d3c20365,B,2024-08-30_13h12.26.759,Slot Machine Game,2023.1.3,MacIntel,62.5,,,,,,,,,,,,,,,,,,,196.136,5,0.547,196.702,up,0.5,"[2,1,3]",stimuli/card_100_transparent.png,410,100,5,0,5,0,1,,,,,,,,,,,,,,,,,,,,,,,,,,,,,,,,,,,,,,,,,
,,,,5dd31871c5faa232d3c20365,B,2024-08-30_13h12.26.759,Slot Machine Game,2023.1.3,MacIntel,62.5,,,,,,,,,,,,,,,,,,,197.503,6,0.667,198.186,up,1,"[2,1,3]",stimuli/card_100_transparent.png,510,100,6,0,6,0,1,,,,,,,,,,,,,,,,,,,,,,,,,,,,,,,,,,,,,,,,,
,,,,5dd31871c5faa232d3c20365,B,2024-08-30_13h12.26.759,Slot Machine Game,2023.1.3,MacIntel,62.5,,,,,,,,,,,,,,,,,,,199.486,7,0.601,200.103,up,0.5,"[2,1,3]",stimuli/card_0_transparent.png,510,0,7,0,7,0,1,,,,,,,,,,,,,,,,,,,,,,,,,,,,,,,,,,,,,,,,,
,,,,5dd31871c5faa232d3c20365,B,2024-08-30_13h12.26.759,Slot Machine Game,2023.1.3,MacIntel,62.5,,,,,,,,,,,,,,,,,,,200.904,8,1.813,202.753,up,1,"[2,1,3]",stimuli/card_100_transparent.png,610,100,8,0,8,0,1,,,,,,,,,,,,,,,,,,,,,,,,,,,,,,,,,,,,,,,,,
,,,,5dd31871c5faa232d3c20365,B,2024-08-30_13h12.26.759,Slot Machine Game,2023.1.3,MacIntel,62.5,,,,,,,,,,,,,,,,,,,204.053,9,0.616,204.686,up,1.5,"[2,3,1]",stimuli/card_0_transparent.png,610,0,9,0,9,0,1,,,,,,,,,,,,,,,,,,,,,,,,,,,,,,,,,,,,,,,,,
,,,,5dd31871c5faa232d3c20365,B,2024-08-30_13h12.26.759,Slot Machine Game,2023.1.3,MacIntel,62.5,,,,,,,,,,,,,,,,,,,206.487,10,0.502,207.02,up,1.5,"[2,3,1]",stimuli/card_0_transparent.png,610,0,10,0,10,0,1,,,,,,,,,,,,,,,,,,,,,,,,,,,,,,,,,,,,,,,,,
,,,,5dd31871c5faa232d3c20365,B,2024-08-30_13h12.26.759,Slot Machine Game,2023.1.3,MacIntel,62.5,,,,,,,,,,,,,,,,,,,208.82,11,0.759,209.587,up,0.5,"[2,3,1]",stimuli/card_0_transparent.png,610,0,11,0,11,0,1,,,,,,,,,,,,,,,,,,,,,,,,,,,,,,,,,,,,,,,,,
,,,,5dd31871c5faa232d3c20365,B,2024-08-30_13h12.26.759,Slot Machine Game,2023.1.3,MacIntel,62.5,,,,,,,,,,,,,,,,,,,210.387,12,0.51,210.903,up,1,"[2,3,1]",stimuli/card_0_transparent.png,610,0,12,0,12,0,1,,,,,,,,,,,,,,,,,,,,,,,,,,,,,,,,,,,,,,,,,
,,,,5dd31871c5faa232d3c20365,B,2024-08-30_13h12.26.759,Slot Machine Game,2023.1.3,MacIntel,62.5,,,,,,,,,,,,,,,,,,,212.203,13,0.579,212.786,up,0.5,"[2,3,1]",stimuli/card_100_transparent.png,710,100,13,0,13,0,1,,,,,,,,,,,,,,,,,,,,,,,,,,,,,,,,,,,,,,,,,
,,,,5dd31871c5faa232d3c20365,B,2024-08-30_13h12.26.759,Slot Machine Game,2023.1.3,MacIntel,62.5,,,,,,,,,,,,,,,,,,,213.587,14,0.652,214.27,up,0.5,"[2,3,1]",stimuli/card_0_transparent.png,710,0,14,0,14,0,1,,,,,,,,,,,,,,,,,,,,,,,,,,,,,,,,,,,,,,,,,
,,,,5dd31871c5faa232d3c20365,B,2024-08-30_13h12.26.759,Slot Machine Game,2023.1.3,MacIntel,62.5,,,,,,,,,,,,,,,,,"[6,15]","[[1,3,2],[3,1,2]]",220.105,0,0.968,221.104,left,1,"[1,3,2]",stimuli/card_100_transparent.png,100,100,0,0,0,0,1,215.087,,,,,,,,,,,,,,,,,,,,,,,,,,,,,,,,,,,,,,,,
,,,,5dd31871c5faa232d3c20365,B,2024-08-30_13h12.26.759,Slot Machine Game,2023.1.3,MacIntel,62.5,,,,,,,,,,,,,,,,,,,222.404,1,0.701,223.137,left,1.5,"[1,3,2]",stimuli/card_100_transparent.png,200,100,1,0,1,0,1,,,,,,,,,,,,,,,,,,,,,,,,,,,,,,,,,,,,,,,,,
,,,,5dd31871c5faa232d3c20365,B,2024-08-30_13h12.26.759,Slot Machine Game,2023.1.3,MacIntel,62.5,,,,,,,,,,,,,,,,,,,224.937,2,3.053,228.004,left,1.5,"[1,3,2]",stimuli/card_100_transparent.png,300,100,2,0,2,0,1,,,,,,,,,,,,,,,,,,,,,,,,,,,,,,,,,,,,,,,,,
,,,,5dd31871c5faa232d3c20365,B,2024-08-30_13h12.26.759,Slot Machine Game,2023.1.3,MacIntel,62.5,,,,,,,,,,,,,,,,,,,229.805,3,0.779,230.604,left,1.5,"[1,3,2]",stimuli/card_0_transparent.png,300,0,3,0,3,0,1,,,,,,,,,,,,,,,,,,,,,,,,,,,,,,,,,,,,,,,,,
,,,,5dd31871c5faa232d3c20365,B,2024-08-30_13h12.26.759,Slot Machine Game,2023.1.3,MacIntel,62.5,,,,,,,,,,,,,,,,,,,232.404,4,0.598,233.021,left,1,"[1,3,2]",stimuli/card_100_transparent.png,400,100,4,0,4,0,1,,,,,,,,,,,,,,,,,,,,,,,,,,,,,,,,,,,,,,,,,
,,,,5dd31871c5faa232d3c20365,B,2024-08-30_13h12.26.759,Slot Machine Game,2023.1.3,MacIntel,62.5,,,,,,,,,,,,,,,,,,,234.322,5,0.57,234.921,left,0.5,"[1,3,2]",stimuli/card_100_transparent.png,500,100,5,0,5,0,1,,,,,,,,,,,,,,,,,,,,,,,,,,,,,,,,,,,,,,,,,
,,,,5dd31871c5faa232d3c20365,B,2024-08-30_13h12.26.759,Slot Machine Game,2023.1.3,MacIntel,62.5,,,,,,,,,,,,,,,,,,,235.721,6,1.284,237.021,left,1,"[3,1,2]",stimuli/card_0_transparent.png,500,0,6,0,6,0,1,,,,,,,,,,,,,,,,,,,,,,,,,,,,,,,,,,,,,,,,,
,,,,5dd31871c5faa232d3c20365,B,2024-08-30_13h12.26.759,Slot Machine Game,2023.1.3,MacIntel,62.5,,,,,,,,,,,,,,,,,,,238.321,7,0.579,238.92,left,1.5,"[3,1,2]",stimuli/card_0_transparent.png,500,0,7,0,7,0,1,,,,,,,,,,,,,,,,,,,,,,,,,,,,,,,,,,,,,,,,,
,,,,5dd31871c5faa232d3c20365,B,2024-08-30_13h12.26.759,Slot Machine Game,2023.1.3,MacIntel,62.5,,,,,,,,,,,,,,,,,,,240.721,8,3.102,243.839,left,0.5,"[3,1,2]",stimuli/card_0_transparent.png,500,0,8,0,8,0,1,,,,,,,,,,,,,,,,,,,,,,,,,,,,,,,,,,,,,,,,,
,,,,5dd31871c5faa232d3c20365,B,2024-08-30_13h12.26.759,Slot Machine Game,2023.1.3,MacIntel,62.5,,,,,,,,,,,,,,,,,,,244.637,9,0.641,245.288,left,1.5,"[3,1,2]",stimuli/card_0_transparent.png,500,0,9,0,9,0,1,,,,,,,,,,,,,,,,,,,,,,,,,,,,,,,,,,,,,,,,,
,,,,5dd31871c5faa232d3c20365,B,2024-08-30_13h12.26.759,Slot Machine Game,2023.1.3,MacIntel,62.5,,,,,,,,,,,,,,,,,,,247.089,10,0.751,247.872,left,1,"[3,1,2]",stimuli/card_0_transparent.png,500,0,10,0,10,0,1,,,,,,,,,,,,,,,,,,,,,,,,,,,,,,,,,,,,,,,,,
,,,,5dd31871c5faa232d3c20365,B,2024-08-30_13h12.26.759,Slot Machine Game,2023.1.3,MacIntel,62.5,,,,,,,,,,,,,,,,,,,249.171,11,0.533,249.722,left,1.5,"[3,1,2]",stimuli/card_0_transparent.png,500,0,11,0,11,0,1,,,,,,,,,,,,,,,,,,,,,,,,,,,,,,,,,,,,,,,,,
,,,,5dd31871c5faa232d3c20365,B,2024-08-30_13h12.26.759,Slot Machine Game,2023.1.3,MacIntel,62.5,,,,,,,,,,,,,,,,,,,251.522,12,1.38,252.938,left,0.5,"[3,1,2]",stimuli/card_0_transparent.png,500,0,12,0,12,0,1,,,,,,,,,,,,,,,,,,,,,,,,,,,,,,,,,,,,,,,,,
,,,,5dd31871c5faa232d3c20365,B,2024-08-30_13h12.26.759,Slot Machine Game,2023.1.3,MacIntel,62.5,,,,,,,,,,,,,,,,,,,253.739,13,0.653,254.422,left,1,"[3,1,2]",stimuli/card_0_transparent.png,500,0,13,0,13,0,1,,,,,,,,,,,,,,,,,,,,,,,,,,,,,,,,,,,,,,,,,
,,,,5dd31871c5faa232d3c20365,B,2024-08-30_13h12.26.759,Slot Machine Game,2023.1.3,MacIntel,62.5,,,,,,,,,,,,,,,,,,,255.722,14,1.27,257.021,left,1.5,"[3,1,2]",stimuli/card_100_transparent.png,600,100,14,0,14,0,1,,,,,,,,,,,,,,,,,,,,,,,,,,,,,,,,,,,,,,,,,
,,,,5dd31871c5faa232d3c20365,B,2024-08-30_13h12.26.759,Slot Machine Game,2023.1.3,MacIntel,62.5,,,,,,,,,,,,,,,,,,,,,,,,,,,,,,,,,,258.821,263.823,space,2.739,,,,,,,,,,,,,,,,,,,,,,,,,,,,,,,,,,,,,
,,,,5dd31871c5faa232d3c20365,B,2024-08-30_13h12.26.759,Slot Machine Game,2023.1.3,MacIntel,62.5,,,,,,,,,,,,,,,,,,,,,,,,,,,,,,,,,,,,,,,266.59,3,"[0,4,6,3,5,7,8,1,9,2]",space,3.489,,,,,,,,,,,,,,,,,,,,,,,,,,,,,,,
,,,,5dd31871c5faa232d3c20365,B,2024-08-30_13h12.26.759,Slot Machine Game,2023.1.3,MacIntel,62.5,,,,,,,,,,,,,,,,,,,,,,,,,,,10,,,,,,,,,,,,,,,,,,1,1,"[12,15]","[[2,1,3],[2,3,1]]",270.126,0,left,0.566,270.722,0.5,0.3,"[2,1,3]",0.921132678,stimuli/card_10_transparent.png,10,0,0,0,0,1,,,,,,,,,,
,,,,5dd31871c5faa232d3c20365,B,2024-08-30_13h12.26.759,Slot Machine Game,2023.1.3,MacIntel,62.5,,,,,,,,,,,,,,,,,,,,,,,,,,,110,,,,,,,,,,,,,,,,,,1,1,,,271.523,1,up,0.951,272.505,1,0.3,"[2,1,3]",0.303122043,stimuli/card_100_transparent.png,100,1,0,1,0,1,,,,,,,,,,
,,,,5dd31871c5faa232d3c20365,B,2024-08-30_13h12.26.759,Slot Machine Game,2023.1.3,MacIntel,62.5,,,,,,,,,,,,,,,,,,,,,,,,,,,210,,,,,,,,,,,,,,,,,,1,1,,,273.806,2,up,0.718,274.556,0.5,0.3,"[2,1,3]",0.318991313,stimuli/card_100_transparent.png,100,2,0,2,0,1,,,,,,,,,,
,,,,5dd31871c5faa232d3c20365,B,2024-08-30_13h12.26.759,Slot Machine Game,2023.1.3,MacIntel,62.5,,,,,,,,,,,,,,,,,,,,,,,,,,,310,,,,,,,,,,,,,,,,,,1,1,,,275.355,3,up,0.635,276.005,1,0.3,"[2,1,3]",0.954276304,stimuli/card_100_transparent.png,100,3,0,3,0,1,,,,,,,,,,
,,,,5dd31871c5faa232d3c20365,B,2024-08-30_13h12.26.759,Slot Machine Game,2023.1.3,MacIntel,62.5,,,,,,,,,,,,,,,,,,,,,,,,,,,410,,,,,,,,,,,,,,,,,,1,1,,,277.306,4,up,1.539,278.872,1,0.3,"[2,1,3]",0.515844681,stimuli/card_100_transparent.png,100,4,0,4,0,1,,,,,,,,,,
,,,,5dd31871c5faa232d3c20365,B,2024-08-30_13h12.26.759,Slot Machine Game,2023.1.3,MacIntel,62.5,,,,,,,,,,,,,,,,,,,,,,,,,,,410,,,,,,,,,,,,,,,,,,1,1,,,280.173,5,up,1.001,281.19,1,0.3,"[2,1,3]",0.032963177,stimuli/card_0_transparent.png,0,5,0,5,0,1,,,,,,,,,,
,,,,5dd31871c5faa232d3c20365,B,2024-08-30_13h12.26.759,Slot Machine Game,2023.1.3,MacIntel,62.5,,,,,,,,,,,,,,,,,,,,,,,,,,,510,,,,,,,,,,,,,,,,,,1,1,,,282.49,6,up,0.869,283.39,1.5,0.3,"[2,1,3]",0.306804599,stimuli/card_100_transparent.png,100,6,0,6,0,1,,,,,,,,,,
,,,,5dd31871c5faa232d3c20365,B,2024-08-30_13h12.26.759,Slot Machine Game,2023.1.3,MacIntel,62.5,,,,,,,,,,,,,,,,,,,,,,,,,,,610,,,,,,,,,,,,,,,,,,1,1,,,285.19,7,up,0.932,286.138,1.5,0.3,"[2,1,3]",0.85769932,stimuli/card_100_transparent.png,100,7,0,7,0,1,,,,,,,,,,
,,,,5dd31871c5faa232d3c20365,B,2024-08-30_13h12.26.759,Slot Machine Game,2023.1.3,MacIntel,62.5,,,,,,,,,,,,,,,,,,,,,,,,,,,710,,,,,,,,,,,,,,,,,,1,1,,,287.94,8,up,0.8,288.773,0.5,0.3,"[2,1,3]",0.285191637,stimuli/card_100_transparent.png,100,8,0,8,0,1,,,,,,,,,,
,,,,5dd31871c5faa232d3c20365,B,2024-08-30_13h12.26.759,Slot Machine Game,2023.1.3,MacIntel,62.5,,,,,,,,,,,,,,,,,,,,,,,,,,,810,,,,,,,,,,,,,,,,,,1,1,,,289.572,9,up,0.668,290.256,1,0.3,"[2,1,3]",0.318680954,stimuli/card_100_transparent.png,100,9,0,9,0,1,,,,,,,,,,
,,,,5dd31871c5faa232d3c20365,B,2024-08-30_13h12.26.759,Slot Machine Game,2023.1.3,MacIntel,62.5,,,,,,,,,,,,,,,,,,,,,,,,,,,910,,,,,,,,,,,,,,,,,,1,1,,,291.556,10,up,1.068,292.639,0.5,0.3,"[2,1,3]",0.608317949,stimuli/card_100_transparent.png,100,10,0,10,0,1,,,,,,,,,,
,,,,5dd31871c5faa232d3c20365,B,2024-08-30_13h12.26.759,Slot Machine Game,2023.1.3,MacIntel,62.5,,,,,,,,,,,,,,,,,,,,,,,,,,,1010,,,,,,,,,,,,,,,,,,1,1,,,293.44,11,up,0.733,294.189,1,0.3,"[2,1,3]",0.718450339,stimuli/card_100_transparent.png,100,11,0,11,0,1,,,,,,,,,,
,,,,5dd31871c5faa232d3c20365,B,2024-08-30_13h12.26.759,Slot Machine Game,2023.1.3,MacIntel,62.5,,,,,,,,,,,,,,,,,,,,,,,,,,,1010,,,,,,,,,,,,,,,,,,1,1,,,295.489,12,up,0.652,296.156,0.5,0.3,"[2,3,1]",0.260258762,stimuli/card_0_transparent.png,0,12,0,12,0,1,,,,,,,,,,
,,,,5dd31871c5faa232d3c20365,B,2024-08-30_13h12.26.759,Slot Machine Game,2023.1.3,MacIntel,62.5,,,,,,,,,,,,,,,,,,,,,,,,,,,1010,,,,,,,,,,,,,,,,,,1,1,,,296.956,13,up,0.753,297.724,1.5,0.3,"[2,3,1]",0.731133583,stimuli/card_0_transparent.png,0,13,0,13,0,1,,,,,,,,,,
,,,,5dd31871c5faa232d3c20365,B,2024-08-30_13h12.26.759,Slot Machine Game,2023.1.3,MacIntel,62.5,,,,,,,,,,,,,,,,,,,,,,,,,,,1010,,,,,,,,,,,,,,,,,,1,1,,,299.523,14,up,0.571,300.106,1,0.3,"[2,3,1]",0.454459745,stimuli/card_0_transparent.png,0,14,0,14,0,1,,,,,,,,,,
,,,,5dd31871c5faa232d3c20365,B,2024-08-30_13h12.26.759,Slot Machine Game,2023.1.3,MacIntel,62.5,,,,,,,,,,,,,,,,,,,,,,,,,,,,,,,,,,301.407,,,,,,,,,,,,,,,,,,,,,,,,,,,,,,,[1010],0,0,0,0,1,,,,
,,,,5dd31871c5faa232d3c20365,B,2024-08-30_13h12.26.759,Slot Machine Game,2023.1.3,MacIntel,62.5,,,,,,,,,,,,,,,,,,,,,,,,,,,10,,,,,,,,,,,,,,,,,,2,5,"[5,15]","[[1,2,3],[3,1,2]]",306.425,0,left,1.164,307.607,1.5,0.3,"[1,2,3]",0.179267159,stimuli/card_10_transparent.png,10,0,0,0,0,1,,,,,,,,,,
,,,,5dd31871c5faa232d3c20365,B,2024-08-30_13h12.26.759,Slot Machine Game,2023.1.3,MacIntel,62.5,,,,,,,,,,,,,,,,,,,,,,,,,,,20,,,,,,,,,,,,,,,,,,2,5,,,309.407,1,up,0.516,309.939,1,0.3,"[1,2,3]",0.725173245,stimuli/card_10_transparent.png,10,1,0,1,0,1,,,,,,,,,,
,,,,5dd31871c5faa232d3c20365,B,2024-08-30_13h12.26.759,Slot Machine Game,2023.1.3,MacIntel,62.5,,,,,,,,,,,,,,,,,,,,,,,,,,,120,,,,,,,,,,,,,,,,,,2,5,,,311.241,2,right,2.228,313.49,0.5,0.3,"[1,2,3]",0.046014659,stimuli/card_100_transparent.png,100,2,0,2,0,1,,,,,,,,,,
,,,,5dd31871c5faa232d3c20365,B,2024-08-30_13h12.26.759,Slot Machine Game,2023.1.3,MacIntel,62.5,,,,,,,,,,,,,,,,,,,,,,,,,,,120,,,,,,,,,,,,,,,,,,2,5,,,314.29,3,right,0.529,314.823,0.5,0.3,"[1,2,3]",0.582022846,stimuli/card_0_transparent.png,0,3,0,3,0,1,,,,,,,,,,
,,,,5dd31871c5faa232d3c20365,B,2024-08-30_13h12.26.759,Slot Machine Game,2023.1.3,MacIntel,62.5,,,,,,,,,,,,,,,,,,,,,,,,,,,120,,,,,,,,,,,,,,,,,,2,5,,,315.624,4,right,0.534,316.174,1.5,0.3,"[1,2,3]",0.223800194,stimuli/card_0_transparent.png,0,4,0,4,0,1,,,,,,,,,,
,,,,5dd31871c5faa232d3c20365,B,2024-08-30_13h12.26.759,Slot Machine Game,2023.1.3,MacIntel,62.5,,,,,,,,,,,,,,,,,,,,,,,,,,,120,,,,,,,,,,,,,,,,,,2,5,,,317.973,5,right,2.016,320.008,0.5,0.3,"[3,1,2]",0.044927599,stimuli/card_0_transparent.png,0,5,0,5,0,1,,,,,,,,,,
,,,,5dd31871c5faa232d3c20365,B,2024-08-30_13h12.26.759,Slot Machine Game,2023.1.3,MacIntel,62.5,,,,,,,,,,,,,,,,,,,,,,,,,,,130,,,,,,,,,,,,,,,,,,2,5,,,320.808,6,right,0.787,321.624,0.5,0.3,"[3,1,2]",0.372554353,stimuli/card_10_transparent.png,10,6,0,6,0,1,,,,,,,,,,
,,,,5dd31871c5faa232d3c20365,B,2024-08-30_13h12.26.759,Slot Machine Game,2023.1.3,MacIntel,62.5,,,,,,,,,,,,,,,,,,,,,,,,,,,230,,,,,,,,,,,,,,,,,,2,5,,,322.425,7,up,0.774,323.225,1,0.3,"[3,1,2]",0.996036649,stimuli/card_100_transparent.png,100,7,0,7,0,1,,,,,,,,,,
,,,,5dd31871c5faa232d3c20365,B,2024-08-30_13h12.26.759,Slot Machine Game,2023.1.3,MacIntel,62.5,,,,,,,,,,,,,,,,,,,,,,,,,,,240,,,,,,,,,,,,,,,,,,2,5,,,324.524,8,up,0.744,325.291,1.5,0.3,"[3,1,2]",0.152430779,stimuli/card_10_transparent.png,10,8,0,8,0,1,,,,,,,,,,
,,,,5dd31871c5faa232d3c20365,B,2024-08-30_13h12.26.759,Slot Machine Game,2023.1.3,MacIntel,62.5,,,,,,,,,,,,,,,,,,,,,,,,,,,340,,,,,,,,,,,,,,,,,,2,5,,,327.091,9,up,0.586,327.691,1.5,0.3,"[3,1,2]",0.606446319,stimuli/card_100_transparent.png,100,9,0,9,0,1,,,,,,,,,,
,,,,5dd31871c5faa232d3c20365,B,2024-08-30_13h12.26.759,Slot Machine Game,2023.1.3,MacIntel,62.5,,,,,,,,,,,,,,,,,,,,,,,,,,,350,,,,,,,,,,,,,,,,,,2,5,,,329.491,10,up,0.617,330.124,0.5,0.3,"[3,1,2]",0.144650286,stimuli/card_10_transparent.png,10,10,0,10,0,1,,,,,,,,,,
,,,,5dd31871c5faa232d3c20365,B,2024-08-30_13h12.26.759,Slot Machine Game,2023.1.3,MacIntel,62.5,,,,,,,,,,,,,,,,,,,,,,,,,,,360,,,,,,,,,,,,,,,,,,2,5,,,330.924,11,up,0.784,331.724,0.5,0.3,"[3,1,2]",0.199585799,stimuli/card_10_transparent.png,10,11,0,11,0,1,,,,,,,,,,
,,,,5dd31871c5faa232d3c20365,B,2024-08-30_13h12.26.759,Slot Machine Game,2023.1.3,MacIntel,62.5,,,,,,,,,,,,,,,,,,,,,,,,,,,460,,,,,,,,,,,,,,,,,,2,5,,,332.525,12,up,1.056,333.609,1,0.3,"[3,1,2]",0.627317899,stimuli/card_100_transparent.png,100,12,0,12,0,1,,,,,,,,,,
,,,,5dd31871c5faa232d3c20365,B,2024-08-30_13h12.26.759,Slot Machine Game,2023.1.3,MacIntel,62.5,,,,,,,,,,,,,,,,,,,,,,,,,,,560,,,,,,,,,,,,,,,,,,2,5,,,334.907,13,up,1.219,336.141,0.5,0.3,"[3,1,2]",0.290442308,stimuli/card_100_transparent.png,100,13,0,13,0,1,,,,,,,,,,
,,,,5dd31871c5faa232d3c20365,B,2024-08-30_13h12.26.759,Slot Machine Game,2023.1.3,MacIntel,62.5,,,,,,,,,,,,,,,,,,,,,,,,,,,660,,,,,,,,,,,,,,,,,,2,5,,,336.941,14,up,1,337.958,0.5,0.3,"[3,1,2]",0.465554852,stimuli/card_100_transparent.png,100,14,0,14,0,1,,,,,,,,,,
,,,,5dd31871c5faa232d3c20365,B,2024-08-30_13h12.26.759,Slot Machine Game,2023.1.3,MacIntel,62.5,,,,,,,,,,,,,,,,,,,,,,,,,,,,,,,,,,338.758,,,,,,,,,,,,,,,,,,,,,,,,,,,,,,,"[1010,660]",1,0,1,0,1,,,,
,,,,5dd31871c5faa232d3c20365,B,2024-08-30_13h12.26.759,Slot Machine Game,2023.1.3,MacIntel,62.5,,,,,,,,,,,,,,,,,,,,,,,,,,,100,,,,,,,,,,,,,,,,,,3,7,"[9,15]","[[1,3,2],[2,3,1]]",343.776,0,left,0.935,344.742,1.5,0.3,"[1,3,2]",0.858378102,stimuli/card_100_transparent.png,100,0,0,0,0,1,,,,,,,,,,
,,,,5dd31871c5faa232d3c20365,B,2024-08-30_13h12.26.759,Slot Machine Game,2023.1.3,MacIntel,62.5,,,,,,,,,,,,,,,,,,,,,,,,,,,200,,,,,,,,,,,,,,,,,,3,7,,,346.542,1,left,0.636,347.208,1,0.3,"[1,3,2]",0.404149677,stimuli/card_100_transparent.png,100,1,0,1,0,1,,,,,,,,,,
,,,,5dd31871c5faa232d3c20365,B,2024-08-30_13h12.26.759,Slot Machine Game,2023.1.3,MacIntel,62.5,,,,,,,,,,,,,,,,,,,,,,,,,,,300,,,,,,,,,,,,,,,,,,3,7,,,348.508,2,left,0.985,349.509,1,0.3,"[1,3,2]",0.485912975,stimuli/card_100_transparent.png,100,2,0,2,0,1,,,,,,,,,,
,,,,5dd31871c5faa232d3c20365,B,2024-08-30_13h12.26.759,Slot Machine Game,2023.1.3,MacIntel,62.5,,,,,,,,,,,,,,,,,,,,,,,,,,,400,,,,,,,,,,,,,,,,,,3,7,,,350.809,3,left,0.787,351.609,0.5,0.3,"[1,3,2]",0.936664509,stimuli/card_100_transparent.png,100,3,0,3,0,1,,,,,,,,,,
,,,,5dd31871c5faa232d3c20365,B,2024-08-30_13h12.26.759,Slot Machine Game,2023.1.3,MacIntel,62.5,,,,,,,,,,,,,,,,,,,,,,,,,,,500,,,,,,,,,,,,,,,,,,3,7,,,352.409,4,left,1.269,353.709,1,0.3,"[1,3,2]",0.232561388,stimuli/card_100_transparent.png,100,4,0,4,0,1,,,,,,,,,,
,,,,5dd31871c5faa232d3c20365,B,2024-08-30_13h12.26.759,Slot Machine Game,2023.1.3,MacIntel,62.5,,,,,,,,,,,,,,,,,,,,,,,,,,,510,,,,,,,,,,,,,,,,,,3,7,,,355.007,5,left,1.271,356.292,0.5,0.3,"[1,3,2]",0.123061116,stimuli/card_10_transparent.png,10,5,0,5,0,1,,,,,,,,,,
,,,,5dd31871c5faa232d3c20365,B,2024-08-30_13h12.26.759,Slot Machine Game,2023.1.3,MacIntel,62.5,,,,,,,,,,,,,,,,,,,,,,,,,,,610,,,,,,,,,,,,,,,,,,3,7,,,357.092,6,left,0.711,357.826,1,0.3,"[1,3,2]",0.703531761,stimuli/card_100_transparent.png,100,6,0,6,0,1,,,,,,,,,,
,,,,5dd31871c5faa232d3c20365,B,2024-08-30_13h12.26.759,Slot Machine Game,2023.1.3,MacIntel,62.5,,,,,,,,,,,,,,,,,,,,,,,,,,,710,,,,,,,,,,,,,,,,,,3,7,,,359.125,7,left,0.582,359.725,1,0.3,"[1,3,2]",0.870085229,stimuli/card_100_transparent.png,100,7,0,7,0,1,,,,,,,,,,
,,,,5dd31871c5faa232d3c20365,B,2024-08-30_13h12.26.759,Slot Machine Game,2023.1.3,MacIntel,62.5,,,,,,,,,,,,,,,,,,,,,,,,,,,810,,,,,,,,,,,,,,,,,,3,7,,,361.025,8,left,0.67,361.708,1,0.3,"[1,3,2]",0.564058172,stimuli/card_100_transparent.png,100,8,0,8,0,1,,,,,,,,,,
,,,,5dd31871c5faa232d3c20365,B,2024-08-30_13h12.26.759,Slot Machine Game,2023.1.3,MacIntel,62.5,,,,,,,,,,,,,,,,,,,,,,,,,,,820,,,,,,,,,,,,,,,,,,3,7,,,363.008,9,left,0.816,363.842,1,0.3,"[2,3,1]",0.278770283,stimuli/card_10_transparent.png,10,9,0,9,0,1,,,,,,,,,,
,,,,5dd31871c5faa232d3c20365,B,2024-08-30_13h12.26.759,Slot Machine Game,2023.1.3,MacIntel,62.5,,,,,,,,,,,,,,,,,,,,,,,,,,,830,,,,,,,,,,,,,,,,,,3,7,,,365.142,10,left,1.068,366.242,1.5,0.3,"[2,3,1]",0.312855199,stimuli/card_10_transparent.png,10,10,0,10,0,1,,,,,,,,,,
,,,,5dd31871c5faa232d3c20365,B,2024-08-30_13h12.26.759,Slot Machine Game,2023.1.3,MacIntel,62.5,,,,,,,,,,,,,,,,,,,,,,,,,,,930,,,,,,,,,,,,,,,,,,3,7,,,368.041,11,left,0.786,368.842,0.5,0.3,"[2,3,1]",0.147982648,stimuli/card_100_transparent.png,100,11,0,11,0,1,,,,,,,,,,
,,,,5dd31871c5faa232d3c20365,B,2024-08-30_13h12.26.759,Slot Machine Game,2023.1.3,MacIntel,62.5,,,,,,,,,,,,,,,,,,,,,,,,,,,1030,,,,,,,,,,,,,,,,,,3,7,,,369.643,12,left,0.567,370.226,1.5,0.3,"[2,3,1]",0.100722256,stimuli/card_100_transparent.png,100,12,0,12,0,1,,,,,,,,,,
,,,,5dd31871c5faa232d3c20365,B,2024-08-30_13h12.26.759,Slot Machine Game,2023.1.3,MacIntel,62.5,,,,,,,,,,,,,,,,,,,,,,,,,,,1130,,,,,,,,,,,,,,,,,,3,7,,,372.026,13,left,1.167,373.21,1.5,0.3,"[2,3,1]",0.156630133,stimuli/card_100_transparent.png,100,13,0,13,0,1,,,,,,,,,,
,,,,5dd31871c5faa232d3c20365,B,2024-08-30_13h12.26.759,Slot Machine Game,2023.1.3,MacIntel,62.5,,,,,,,,,,,,,,,,,,,,,,,,,,,1140,,,,,,,,,,,,,,,,,,3,7,,,375.009,14,left,1.019,376.059,1,0.3,"[2,3,1]",0.926717601,stimuli/card_10_transparent.png,10,14,0,14,0,1,,,,,,,,,,
,,,,5dd31871c5faa232d3c20365,B,2024-08-30_13h12.26.759,Slot Machine Game,2023.1.3,MacIntel,62.5,,,,,,,,,,,,,,,,,,,,,,,,,,,,,,,,,,377.359,,,,,,,,,,,,,,,,,,,,,,,,,,,,,,,"[1010,660,1140]",2,0,2,0,1,,,,
,,,,5dd31871c5faa232d3c20365,B,2024-08-30_13h12.26.759,Slot Machine Game,2023.1.3,MacIntel,62.5,,,,,,,,,,,,,,,,,,,,,,,,,,,10,,,,,,,,,,,,,,,,,,4,4,"[7,15]","[[2,3,1],[1,2,3]]",382.377,0,left,0.755,383.16,0.5,0.3,"[2,3,1]",0.22692628,stimuli/card_10_transparent.png,10,0,0,0,0,1,,,,,,,,,,
,,,,5dd31871c5faa232d3c20365,B,2024-08-30_13h12.26.759,Slot Machine Game,2023.1.3,MacIntel,62.5,,,,,,,,,,,,,,,,,,,,,,,,,,,10,,,,,,,,,,,,,,,,,,4,4,,,383.96,1,up,1.265,385.243,0.5,0.3,"[2,3,1]",0.829543911,stimuli/card_0_transparent.png,0,1,0,1,0,1,,,,,,,,,,
,,,,5dd31871c5faa232d3c20365,B,2024-08-30_13h12.26.759,Slot Machine Game,2023.1.3,MacIntel,62.5,,,,,,,,,,,,,,,,,,,,,,,,,,,20,,,,,,,,,,,,,,,,,,4,4,,,386.043,2,right,0.585,386.642,0.5,0.3,"[2,3,1]",0.134785276,stimuli/card_10_transparent.png,10,2,0,2,0,1,,,,,,,,,,
,,,,5dd31871c5faa232d3c20365,B,2024-08-30_13h12.26.759,Slot Machine Game,2023.1.3,MacIntel,62.5,,,,,,,,,,,,,,,,,,,,,,,,,,,120,,,,,,,,,,,,,,,,,,4,4,,,387.444,3,left,0.5,387.977,1.5,0.3,"[2,3,1]",0.154114001,stimuli/card_100_transparent.png,100,3,0,3,0,1,,,,,,,,,,
,,,,5dd31871c5faa232d3c20365,B,2024-08-30_13h12.26.759,Slot Machine Game,2023.1.3,MacIntel,62.5,,,,,,,,,,,,,,,,,,,,,,,,,,,130,,,,,,,,,,,,,,,,,,4,4,,,389.776,4,left,0.631,390.427,1.5,0.3,"[2,3,1]",0.428153226,stimuli/card_10_transparent.png,10,4,0,4,0,1,,,,,,,,,,
,,,,5dd31871c5faa232d3c20365,B,2024-08-30_13h12.26.759,Slot Machine Game,2023.1.3,MacIntel,62.5,,,,,,,,,,,,,,,,,,,,,,,,,,,140,,,,,,,,,,,,,,,,,,4,4,,,392.227,5,left,0.503,392.76,1.5,0.3,"[2,3,1]",0.860400377,stimuli/card_10_transparent.png,10,5,0,5,0,1,,,,,,,,,,
,,,,5dd31871c5faa232d3c20365,B,2024-08-30_13h12.26.759,Slot Machine Game,2023.1.3,MacIntel,62.5,,,,,,,,,,,,,,,,,,,,,,,,,,,150,,,,,,,,,,,,,,,,,,4,4,,,394.56,6,left,1.083,395.66,0.5,0.3,"[2,3,1]",0.862326896,stimuli/card_10_transparent.png,10,6,0,6,0,1,,,,,,,,,,
,,,,5dd31871c5faa232d3c20365,B,2024-08-30_13h12.26.759,Slot Machine Game,2023.1.3,MacIntel,62.5,,,,,,,,,,,,,,,,,,,,,,,,,,,160,,,,,,,,,,,,,,,,,,4,4,,,396.46,7,up,1.18,397.644,0.5,0.3,"[1,2,3]",0.327994437,stimuli/card_10_transparent.png,10,7,0,7,0,1,,,,,,,,,,
,,,,5dd31871c5faa232d3c20365,B,2024-08-30_13h12.26.759,Slot Machine Game,2023.1.3,MacIntel,62.5,,,,,,,,,,,,,,,,,,,,,,,,,,,170,,,,,,,,,,,,,,,,,,4,4,,,398.444,8,up,0.8,399.277,1.5,0.3,"[1,2,3]",0.397348021,stimuli/card_10_transparent.png,10,8,0,8,0,1,,,,,,,,,,
,,,,5dd31871c5faa232d3c20365,B,2024-08-30_13h12.26.759,Slot Machine Game,2023.1.3,MacIntel,62.5,,,,,,,,,,,,,,,,,,,,,,,,,,,170,,,,,,,,,,,,,,,,,,4,4,,,401.076,9,right,0.985,402.076,1,0.3,"[1,2,3]",0.761768604,stimuli/card_0_transparent.png,0,9,0,9,0,1,,,,,,,,,,
,,,,5dd31871c5faa232d3c20365,B,2024-08-30_13h12.26.759,Slot Machine Game,2023.1.3,MacIntel,62.5,,,,,,,,,,,,,,,,,,,,,,,,,,,170,,,,,,,,,,,,,,,,,,4,4,,,403.378,10,right,1.118,404.527,1.5,0.3,"[1,2,3]",0.673365696,stimuli/card_0_transparent.png,0,10,0,10,0,1,,,,,,,,,,
,,,,5dd31871c5faa232d3c20365,B,2024-08-30_13h12.26.759,Slot Machine Game,2023.1.3,MacIntel,62.5,,,,,,,,,,,,,,,,,,,,,,,,,,,270,,,,,,,,,,,,,,,,,,4,4,,,406.326,11,left,1.071,407.411,1,0.3,"[1,2,3]",0.925785442,stimuli/card_100_transparent.png,100,11,0,11,0,1,,,,,,,,,,
,,,,5dd31871c5faa232d3c20365,B,2024-08-30_13h12.26.759,Slot Machine Game,2023.1.3,MacIntel,62.5,,,,,,,,,,,,,,,,,,,,,,,,,,,370,,,,,,,,,,,,,,,,,,4,4,,,408.712,12,left,0.936,409.677,0.5,0.3,"[1,2,3]",0.974973687,stimuli/card_100_transparent.png,100,12,0,12,0,1,,,,,,,,,,
,,,,5dd31871c5faa232d3c20365,B,2024-08-30_13h12.26.759,Slot Machine Game,2023.1.3,MacIntel,62.5,,,,,,,,,,,,,,,,,,,,,,,,,,,470,,,,,,,,,,,,,,,,,,4,4,,,410.477,13,left,0.538,411.026,1.5,0.3,"[1,2,3]",0.953167424,stimuli/card_100_transparent.png,100,13,0,13,0,1,,,,,,,,,,
,,,,5dd31871c5faa232d3c20365,B,2024-08-30_13h12.26.759,Slot Machine Game,2023.1.3,MacIntel,62.5,,,,,,,,,,,,,,,,,,,,,,,,,,,570,,,,,,,,,,,,,,,,,,4,4,,,412.827,14,left,1.117,413.961,1,0.3,"[1,2,3]",0.960695572,stimuli/card_100_transparent.png,100,14,0,14,0,1,,,,,,,,,,
,,,,5dd31871c5faa232d3c20365,B,2024-08-30_13h12.26.759,Slot Machine Game,2023.1.3,MacIntel,62.5,,,,,,,,,,,,,,,,,,,,,,,,,,,,,,,,,,415.26,,,,,,,,,,,,,,,,,,,,,,,,,,,,,,,"[1010,660,1140,570]",3,0,3,0,1,,,,
,,,,5dd31871c5faa232d3c20365,B,2024-08-30_13h12.26.759,Slot Machine Game,2023.1.3,MacIntel,62.5,,,,,,,,,,,,,,,,,,,,,,,,,,,10,,,,,,,,,,,,,,,,,,5,6,"[4,10,15]","[[2,3,1],[1,3,2],[3,2,1]]",420.278,0,left,0.751,421.044,1,0.3,"[2,3,1]",0.519675608,stimuli/card_10_transparent.png,10,0,0,0,0,1,,,,,,,,,,
,,,,5dd31871c5faa232d3c20365,B,2024-08-30_13h12.26.759,Slot Machine Game,2023.1.3,MacIntel,62.5,,,,,,,,,,,,,,,,,,,,,,,,,,,110,,,,,,,,,,,,,,,,,,5,6,,,422.343,1,left,1.157,423.511,1,0.3,"[2,3,1]",0.116771933,stimuli/card_100_transparent.png,100,1,0,1,0,1,,,,,,,,,,
,,,,5dd31871c5faa232d3c20365,B,2024-08-30_13h12.26.759,Slot Machine Game,2023.1.3,MacIntel,62.5,,,,,,,,,,,,,,,,,,,,,,,,,,,120,,,,,,,,,,,,,,,,,,5,6,,,424.81,2,left,1.305,426.128,1.5,0.3,"[2,3,1]",0.223842838,stimuli/card_10_transparent.png,10,2,0,2,0,1,,,,,,,,,,
,,,,5dd31871c5faa232d3c20365,B,2024-08-30_13h12.26.759,Slot Machine Game,2023.1.3,MacIntel,62.5,,,,,,,,,,,,,,,,,,,,,,,,,,,120,,,,,,,,,,,,,,,,,,5,6,,,427.928,3,up,0.843,428.778,1,0.3,"[2,3,1]",0.914313034,stimuli/card_0_transparent.png,0,3,0,3,0,1,,,,,,,,,,
,,,,5dd31871c5faa232d3c20365,B,2024-08-30_13h12.26.759,Slot Machine Game,2023.1.3,MacIntel,62.5,,,,,,,,,,,,,,,,,,,,,,,,,,,130,,,,,,,,,,,,,,,,,,5,6,,,430.078,4,up,1.051,431.145,1.5,0.3,"[1,3,2]",0.107648392,stimuli/card_10_transparent.png,10,4,0,4,0,1,,,,,,,,,,
,,,,5dd31871c5faa232d3c20365,B,2024-08-30_13h12.26.759,Slot Machine Game,2023.1.3,MacIntel,62.5,,,,,,,,,,,,,,,,,,,,,,,,,,,130,,,,,,,,,,,,,,,,,,5,6,,,432.945,5,up,0.538,433.496,0.5,0.3,"[1,3,2]",0.431501102,stimuli/card_0_transparent.png,0,5,0,5,0,1,,,,,,,,,,
,,,,5dd31871c5faa232d3c20365,B,2024-08-30_13h12.26.759,Slot Machine Game,2023.1.3,MacIntel,62.5,,,,,,,,,,,,,,,,,,,,,,,,,,,140,,,,,,,,,,,,,,,,,,5,6,,,434.295,6,right,0.58,434.878,1.5,0.3,"[1,3,2]",0.978790667,stimuli/card_10_transparent.png,10,6,0,6,0,1,,,,,,,,,,
,,,,5dd31871c5faa232d3c20365,B,2024-08-30_13h12.26.759,Slot Machine Game,2023.1.3,MacIntel,62.5,,,,,,,,,,,,,,,,,,,,,,,,,,,240,,,,,,,,,,,,,,,,,,5,6,,,436.678,7,right,1.002,437.695,1.5,0.3,"[1,3,2]",0.171606677,stimuli/card_100_transparent.png,100,7,0,7,0,1,,,,,,,,,,
,,,,5dd31871c5faa232d3c20365,B,2024-08-30_13h12.26.759,Slot Machine Game,2023.1.3,MacIntel,62.5,,,,,,,,,,,,,,,,,,,,,,,,,,,340,,,,,,,,,,,,,,,,,,5,6,,,439.495,8,right,0.766,440.279,0.5,0.3,"[1,3,2]",0.119126564,stimuli/card_100_transparent.png,100,8,0,8,0,1,,,,,,,,,,
,,,,5dd31871c5faa232d3c20365,B,2024-08-30_13h12.26.759,Slot Machine Game,2023.1.3,MacIntel,62.5,,,,,,,,,,,,,,,,,,,,,,,,,,,350,,,,,,,,,,,,,,,,,,5,6,,,441.079,9,right,0.684,441.779,1.5,0.3,"[1,3,2]",0.459644535,stimuli/card_10_transparent.png,10,9,0,9,0,1,,,,,,,,,,
,,,,5dd31871c5faa232d3c20365,B,2024-08-30_13h12.26.759,Slot Machine Game,2023.1.3,MacIntel,62.5,,,,,,,,,,,,,,,,,,,,,,,,,,,450,,,,,,,,,,,,,,,,,,5,6,,,443.579,10,right,1.15,444.761,1.5,0.3,"[3,2,1]",0.852239188,stimuli/card_100_transparent.png,100,10,0,10,0,1,,,,,,,,,,
,,,,5dd31871c5faa232d3c20365,B,2024-08-30_13h12.26.759,Slot Machine Game,2023.1.3,MacIntel,62.5,,,,,,,,,,,,,,,,,,,,,,,,,,,550,,,,,,,,,,,,,,,,,,5,6,,,446.563,11,right,0.8,447.396,0.5,0.3,"[3,2,1]",0.942296293,stimuli/card_100_transparent.png,100,11,0,11,0,1,,,,,,,,,,
,,,,5dd31871c5faa232d3c20365,B,2024-08-30_13h12.26.759,Slot Machine Game,2023.1.3,MacIntel,62.5,,,,,,,,,,,,,,,,,,,,,,,,,,,650,,,,,,,,,,,,,,,,,,5,6,,,448.196,12,right,0.576,448.779,1.5,0.3,"[3,2,1]",0.526979756,stimuli/card_100_transparent.png,100,12,0,12,0,1,,,,,,,,,,
,,,,5dd31871c5faa232d3c20365,B,2024-08-30_13h12.26.759,Slot Machine Game,2023.1.3,MacIntel,62.5,,,,,,,,,,,,,,,,,,,,,,,,,,,750,,,,,,,,,,,,,,,,,,5,6,,,450.579,13,right,1.484,452.08,0.5,0.3,"[3,2,1]",0.587386395,stimuli/card_100_transparent.png,100,13,0,13,0,1,,,,,,,,,,
,,,,5dd31871c5faa232d3c20365,B,2024-08-30_13h12.26.759,Slot Machine Game,2023.1.3,MacIntel,62.5,,,,,,,,,,,,,,,,,,,,,,,,,,,850,,,,,,,,,,,,,,,,,,5,6,,,452.88,14,right,1.002,453.912,1.5,0.3,"[3,2,1]",0.739530784,stimuli/card_100_transparent.png,100,14,0,14,0,1,,,,,,,,,,
,,,,5dd31871c5faa232d3c20365,B,2024-08-30_13h12.26.759,Slot Machine Game,2023.1.3,MacIntel,62.5,,,,,,,,,,,,,,,,,,,,,,,,,,,,,,,,,,455.712,,,,,,,,,,,,,,,,,,,,,,,,,,,,,,,"[1010,660,1140,570,850]",4,0,4,0,1,,,,
,,,,5dd31871c5faa232d3c20365,B,2024-08-30_13h12.26.759,Slot Machine Game,2023.1.3,MacIntel,62.5,,,,,,,,,,,,,,,,,,,,,,,,,,,10,,,,,,,,,,,,,,,,,,6,8,"[11,15]","[[2,1,3],[1,2,3]]",460.723,0,left,0.854,461.597,1,0.3,"[2,1,3]",0.911037463,stimuli/card_10_transparent.png,10,0,0,0,0,1,,,,,,,,,,
,,,,5dd31871c5faa232d3c20365,B,2024-08-30_13h12.26.759,Slot Machine Game,2023.1.3,MacIntel,62.5,,,,,,,,,,,,,,,,,,,,,,,,,,,20,,,,,,,,,,,,,,,,,,6,8,,,462.896,1,left,0.529,463.446,1.5,0.3,"[2,1,3]",0.867418994,stimuli/card_10_transparent.png,10,1,0,1,0,1,,,,,,,,,,
,,,,5dd31871c5faa232d3c20365,B,2024-08-30_13h12.26.759,Slot Machine Game,2023.1.3,MacIntel,62.5,,,,,,,,,,,,,,,,,,,,,,,,,,,30,,,,,,,,,,,,,,,,,,6,8,,,465.246,2,left,0.919,466.18,0.5,0.3,"[2,1,3]",0.870852026,stimuli/card_10_transparent.png,10,2,0,2,0,1,,,,,,,,,,
,,,,5dd31871c5faa232d3c20365,B,2024-08-30_13h12.26.759,Slot Machine Game,2023.1.3,MacIntel,62.5,,,,,,,,,,,,,,,,,,,,,,,,,,,130,,,,,,,,,,,,,,,,,,6,8,,,466.979,3,up,0.583,467.58,1.5,0.3,"[2,1,3]",0.861896382,stimuli/card_100_transparent.png,100,3,0,3,0,1,,,,,,,,,,
,,,,5dd31871c5faa232d3c20365,B,2024-08-30_13h12.26.759,Slot Machine Game,2023.1.3,MacIntel,62.5,,,,,,,,,,,,,,,,,,,,,,,,,,,140,,,,,,,,,,,,,,,,,,6,8,,,469.379,4,up,0.666,470.063,1.5,0.3,"[2,1,3]",0.13678076,stimuli/card_10_transparent.png,10,4,0,4,0,1,,,,,,,,,,
,,,,5dd31871c5faa232d3c20365,B,2024-08-30_13h12.26.759,Slot Machine Game,2023.1.3,MacIntel,62.5,,,,,,,,,,,,,,,,,,,,,,,,,,,240,,,,,,,,,,,,,,,,,,6,8,,,471.864,5,up,1.076,472.963,0.5,0.3,"[2,1,3]",0.72361668,stimuli/card_100_transparent.png,100,5,0,5,0,1,,,,,,,,,,
,,,,5dd31871c5faa232d3c20365,B,2024-08-30_13h12.26.759,Slot Machine Game,2023.1.3,MacIntel,62.5,,,,,,,,,,,,,,,,,,,,,,,,,,,340,,,,,,,,,,,,,,,,,,6,8,,,473.763,6,up,0.61,474.38,0.5,0.3,"[2,1,3]",0.365421853,stimuli/card_100_transparent.png,100,6,0,6,0,1,,,,,,,,,,
,,,,5dd31871c5faa232d3c20365,B,2024-08-30_13h12.26.759,Slot Machine Game,2023.1.3,MacIntel,62.5,,,,,,,,,,,,,,,,,,,,,,,,,,,340,,,,,,,,,,,,,,,,,,6,8,,,475.18,7,up,1.068,476.263,1,0.3,"[2,1,3]",0.026773471,stimuli/card_0_transparent.png,0,7,0,7,0,1,,,,,,,,,,
,,,,5dd31871c5faa232d3c20365,B,2024-08-30_13h12.26.759,Slot Machine Game,2023.1.3,MacIntel,62.5,,,,,,,,,,,,,,,,,,,,,,,,,,,440,,,,,,,,,,,,,,,,,,6,8,,,477.564,8,up,0.854,478.448,0.5,0.3,"[2,1,3]",0.646699506,stimuli/card_100_transparent.png,100,8,0,8,0,1,,,,,,,,,,
,,,,5dd31871c5faa232d3c20365,B,2024-08-30_13h12.26.759,Slot Machine Game,2023.1.3,MacIntel,62.5,,,,,,,,,,,,,,,,,,,,,,,,,,,540,,,,,,,,,,,,,,,,,,6,8,,,479.246,9,up,0.779,480.03,0.5,0.3,"[2,1,3]",0.28221308,stimuli/card_100_transparent.png,100,9,0,9,0,1,,,,,,,,,,
,,,,5dd31871c5faa232d3c20365,B,2024-08-30_13h12.26.759,Slot Machine Game,2023.1.3,MacIntel,62.5,,,,,,,,,,,,,,,,,,,,,,,,,,,640,,,,,,,,,,,,,,,,,,6,8,,,480.83,10,up,0.952,481.798,1.5,0.3,"[2,1,3]",0.863024731,stimuli/card_100_transparent.png,100,10,0,10,0,1,,,,,,,,,,
,,,,5dd31871c5faa232d3c20365,B,2024-08-30_13h12.26.759,Slot Machine Game,2023.1.3,MacIntel,62.5,,,,,,,,,,,,,,,,,,,,,,,,,,,650,,,,,,,,,,,,,,,,,,6,8,,,483.598,11,up,0.553,484.18,1.5,0.3,"[1,2,3]",0.23243132,stimuli/card_10_transparent.png,10,11,0,11,0,1,,,,,,,,,,
,,,,5dd31871c5faa232d3c20365,B,2024-08-30_13h12.26.759,Slot Machine Game,2023.1.3,MacIntel,62.5,,,,,,,,,,,,,,,,,,,,,,,,,,,660,,,,,,,,,,,,,,,,,,6,8,,,485.981,12,up,1.021,487.031,0.5,0.3,"[1,2,3]",0.568185161,stimuli/card_10_transparent.png,10,12,0,12,0,1,,,,,,,,,,
,,,,5dd31871c5faa232d3c20365,B,2024-08-30_13h12.26.759,Slot Machine Game,2023.1.3,MacIntel,62.5,,,,,,,,,,,,,,,,,,,,,,,,,,,670,,,,,,,,,,,,,,,,,,6,8,,,487.831,13,up,0.817,488.664,1,0.3,"[1,2,3]",0.517968604,stimuli/card_10_transparent.png,10,13,0,13,0,1,,,,,,,,,,
,,,,5dd31871c5faa232d3c20365,B,2024-08-30_13h12.26.759,Slot Machine Game,2023.1.3,MacIntel,62.5,,,,,,,,,,,,,,,,,,,,,,,,,,,670,,,,,,,,,,,,,,,,,,6,8,,,489.964,14,up,0.912,490.88,0.5,0.3,"[1,2,3]",0.022337139,stimuli/card_0_transparent.png,0,14,0,14,0,1,,,,,,,,,,
,,,,5dd31871c5faa232d3c20365,B,2024-08-30_13h12.26.759,Slot Machine Game,2023.1.3,MacIntel,62.5,,,,,,,,,,,,,,,,,,,,,,,,,,,,,,,,,,491.68,,,,,,,,,,,,,,,,,,,,,,,,,,,,,,,"[1010,660,1140,570,850,670]",5,0,5,0,1,,,,
,,,,5dd31871c5faa232d3c20365,B,2024-08-30_13h12.26.759,Slot Machine Game,2023.1.3,MacIntel,62.5,,,,,,,,,,,,,,,,,,,,,,,,,,,0,,,,,,,,,,,,,,,,,,7,9,"[8,15]","[[3,2,1],[3,1,2]]",496.699,0,left,0.632,497.363,1,0.3,"[3,2,1]",0.731014234,stimuli/card_0_transparent.png,0,0,0,0,0,1,,,,,,,,,,
,,,,5dd31871c5faa232d3c20365,B,2024-08-30_13h12.26.759,Slot Machine Game,2023.1.3,MacIntel,62.5,,,,,,,,,,,,,,,,,,,,,,,,,,,0,,,,,,,,,,,,,,,,,,7,9,,,498.664,1,left,0.61,499.28,1.5,0.3,"[3,2,1]",0.326664462,stimuli/card_0_transparent.png,0,1,0,1,0,1,,,,,,,,,,
,,,,5dd31871c5faa232d3c20365,B,2024-08-30_13h12.26.759,Slot Machine Game,2023.1.3,MacIntel,62.5,,,,,,,,,,,,,,,,,,,,,,,,,,,10,,,,,,,,,,,,,,,,,,7,9,,,501.081,2,up,1.283,502.381,0.5,0.3,"[3,2,1]",0.911503618,stimuli/card_10_transparent.png,10,2,0,2,0,1,,,,,,,,,,
,,,,5dd31871c5faa232d3c20365,B,2024-08-30_13h12.26.759,Slot Machine Game,2023.1.3,MacIntel,62.5,,,,,,,,,,,,,,,,,,,,,,,,,,,20,,,,,,,,,,,,,,,,,,7,9,,,503.181,3,up,0.716,503.914,0.5,0.3,"[3,2,1]",0.218033909,stimuli/card_10_transparent.png,10,3,0,3,0,1,,,,,,,,,,
,,,,5dd31871c5faa232d3c20365,B,2024-08-30_13h12.26.759,Slot Machine Game,2023.1.3,MacIntel,62.5,,,,,,,,,,,,,,,,,,,,,,,,,,,30,,,,,,,,,,,,,,,,,,7,9,,,504.714,4,up,0.635,505.364,0.5,0.3,"[3,2,1]",0.394293787,stimuli/card_10_transparent.png,10,4,0,4,0,1,,,,,,,,,,
,,,,5dd31871c5faa232d3c20365,B,2024-08-30_13h12.26.759,Slot Machine Game,2023.1.3,MacIntel,62.5,,,,,,,,,,,,,,,,,,,,,,,,,,,130,,,,,,,,,,,,,,,,,,7,9,,,506.164,5,right,1.44,507.614,1,0.3,"[3,2,1]",0.527273123,stimuli/card_100_transparent.png,100,5,0,5,0,1,,,,,,,,,,
,,,,5dd31871c5faa232d3c20365,B,2024-08-30_13h12.26.759,Slot Machine Game,2023.1.3,MacIntel,62.5,,,,,,,,,,,,,,,,,,,,,,,,,,,230,,,,,,,,,,,,,,,,,,7,9,,,508.914,6,right,0.51,509.43,1.5,0.3,"[3,2,1]",0.563367327,stimuli/card_100_transparent.png,100,6,0,6,0,1,,,,,,,,,,
,,,,5dd31871c5faa232d3c20365,B,2024-08-30_13h12.26.759,Slot Machine Game,2023.1.3,MacIntel,62.5,,,,,,,,,,,,,,,,,,,,,,,,,,,330,,,,,,,,,,,,,,,,,,7,9,,,511.232,7,right,1.062,512.315,0.5,0.3,"[3,2,1]",0.372674726,stimuli/card_100_transparent.png,100,7,0,7,0,1,,,,,,,,,,
,,,,5dd31871c5faa232d3c20365,B,2024-08-30_13h12.26.759,Slot Machine Game,2023.1.3,MacIntel,62.5,,,,,,,,,,,,,,,,,,,,,,,,,,,340,,,,,,,,,,,,,,,,,,7,9,,,513.115,8,right,0.938,514.065,1.5,0.3,"[3,1,2]",0.978356298,stimuli/card_10_transparent.png,10,8,0,8,0,1,,,,,,,,,,
,,,,5dd31871c5faa232d3c20365,B,2024-08-30_13h12.26.759,Slot Machine Game,2023.1.3,MacIntel,62.5,,,,,,,,,,,,,,,,,,,,,,,,,,,340,,,,,,,,,,,,,,,,,,7,9,,,515.865,9,right,0.583,516.465,1,0.3,"[3,1,2]",0.014961915,stimuli/card_0_transparent.png,0,9,0,9,0,1,,,,,,,,,,
,,,,5dd31871c5faa232d3c20365,B,2024-08-30_13h12.26.759,Slot Machine Game,2023.1.3,MacIntel,62.5,,,,,,,,,,,,,,,,,,,,,,,,,,,350,,,,,,,,,,,,,,,,,,7,9,,,517.765,10,right,0.859,518.648,1,0.3,"[3,1,2]",0.859327166,stimuli/card_10_transparent.png,10,10,0,10,0,1,,,,,,,,,,
,,,,5dd31871c5faa232d3c20365,B,2024-08-30_13h12.26.759,Slot Machine Game,2023.1.3,MacIntel,62.5,,,,,,,,,,,,,,,,,,,,,,,,,,,450,,,,,,,,,,,,,,,,,,7,9,,,519.948,11,right,0.511,520.465,0.5,0.3,"[3,1,2]",0.124424675,stimuli/card_100_transparent.png,100,11,0,11,0,1,,,,,,,,,,
,,,,5dd31871c5faa232d3c20365,B,2024-08-30_13h12.26.759,Slot Machine Game,2023.1.3,MacIntel,62.5,,,,,,,,,,,,,,,,,,,,,,,,,,,460,,,,,,,,,,,,,,,,,,7,9,,,521.265,12,right,0.917,522.198,0.5,0.3,"[3,1,2]",0.41097166,stimuli/card_10_transparent.png,10,12,0,12,0,1,,,,,,,,,,
,,,,5dd31871c5faa232d3c20365,B,2024-08-30_13h12.26.759,Slot Machine Game,2023.1.3,MacIntel,62.5,,,,,,,,,,,,,,,,,,,,,,,,,,,470,,,,,,,,,,,,,,,,,,7,9,,,522.999,13,right,0.906,523.932,1.5,0.3,"[3,1,2]",0.408186537,stimuli/card_10_transparent.png,10,13,0,13,0,1,,,,,,,,,,
,,,,5dd31871c5faa232d3c20365,B,2024-08-30_13h12.26.759,Slot Machine Game,2023.1.3,MacIntel,62.5,,,,,,,,,,,,,,,,,,,,,,,,,,,470,,,,,,,,,,,,,,,,,,7,9,,,525.732,14,right,0.533,526.282,1,0.3,"[3,1,2]",0.04533255,stimuli/card_0_transparent.png,0,14,0,14,0,1,,,,,,,,,,
,,,,5dd31871c5faa232d3c20365,B,2024-08-30_13h12.26.759,Slot Machine Game,2023.1.3,MacIntel,62.5,,,,,,,,,,,,,,,,,,,,,,,,,,,,,,,,,,527.582,,,,,,,,,,,,,,,,,,,,,,,,,,,,,,,"[1010,660,1140,570,850,670,470]",6,0,6,0,1,,,,
,,,,5dd31871c5faa232d3c20365,B,2024-08-30_13h12.26.759,Slot Machine Game,2023.1.3,MacIntel,62.5,,,,,,,,,,,,,,,,,,,,,,,,,,,100,,,,,,,,,,,,,,,,,,8,2,"[6,15]","[[1,3,2],[3,2,1]]",532.601,0,left,0.753,533.382,1,0.3,"[1,3,2]",0.756465985,stimuli/card_100_transparent.png,100,0,0,0,0,1,,,,,,,,,,
,,,,5dd31871c5faa232d3c20365,B,2024-08-30_13h12.26.759,Slot Machine Game,2023.1.3,MacIntel,62.5,,,,,,,,,,,,,,,,,,,,,,,,,,,110,,,,,,,,,,,,,,,,,,8,2,,,534.683,1,left,0.518,535.232,0.5,0.3,"[1,3,2]",0.187209941,stimuli/card_10_transparent.png,10,1,0,1,0,1,,,,,,,,,,
,,,,5dd31871c5faa232d3c20365,B,2024-08-30_13h12.26.759,Slot Machine Game,2023.1.3,MacIntel,62.5,,,,,,,,,,,,,,,,,,,,,,,,,,,210,,,,,,,,,,,,,,,,,,8,2,,,536.033,2,left,0.537,536.6,1.5,0.3,"[1,3,2]",0.838146718,stimuli/card_100_transparent.png,100,2,0,2,0,1,,,,,,,,,,
,,,,5dd31871c5faa232d3c20365,B,2024-08-30_13h12.26.759,Slot Machine Game,2023.1.3,MacIntel,62.5,,,,,,,,,,,,,,,,,,,,,,,,,,,310,,,,,,,,,,,,,,,,,,8,2,,,538.4,3,left,0.535,538.966,1,0.3,"[1,3,2]",0.933968824,stimuli/card_100_transparent.png,100,3,0,3,0,1,,,,,,,,,,
,,,,5dd31871c5faa232d3c20365,B,2024-08-30_13h12.26.759,Slot Machine Game,2023.1.3,MacIntel,62.5,,,,,,,,,,,,,,,,,,,,,,,,,,,310,,,,,,,,,,,,,,,,,,8,2,,,540.266,4,left,0.527,540.815,1,0.3,"[1,3,2]",0.057835746,stimuli/card_0_transparent.png,0,4,0,4,0,1,,,,,,,,,,
,,,,5dd31871c5faa232d3c20365,B,2024-08-30_13h12.26.759,Slot Machine Game,2023.1.3,MacIntel,62.5,,,,,,,,,,,,,,,,,,,,,,,,,,,320,,,,,,,,,,,,,,,,,,8,2,,,542.116,5,left,1.034,543.182,1,0.3,"[1,3,2]",0.192331472,stimuli/card_10_transparent.png,10,5,0,5,0,1,,,,,,,,,,
,,,,5dd31871c5faa232d3c20365,B,2024-08-30_13h12.26.759,Slot Machine Game,2023.1.3,MacIntel,62.5,,,,,,,,,,,,,,,,,,,,,,,,,,,320,,,,,,,,,,,,,,,,,,8,2,,,544.482,6,left,0.568,545.066,0.5,0.3,"[3,2,1]",0.837388033,stimuli/card_0_transparent.png,0,6,0,6,0,1,,,,,,,,,,
,,,,5dd31871c5faa232d3c20365,B,2024-08-30_13h12.26.759,Slot Machine Game,2023.1.3,MacIntel,62.5,,,,,,,,,,,,,,,,,,,,,,,,,,,330,,,,,,,,,,,,,,,,,,8,2,,,545.866,7,left,1.289,547.166,1,0.3,"[3,2,1]",0.171209378,stimuli/card_10_transparent.png,10,7,0,7,0,1,,,,,,,,,,
,,,,5dd31871c5faa232d3c20365,B,2024-08-30_13h12.26.759,Slot Machine Game,2023.1.3,MacIntel,62.5,,,,,,,,,,,,,,,,,,,,,,,,,,,330,,,,,,,,,,,,,,,,,,8,2,,,548.466,8,left,0.562,549.033,0.5,0.3,"[3,2,1]",0.59918034,stimuli/card_0_transparent.png,0,8,0,8,0,1,,,,,,,,,,
,,,,5dd31871c5faa232d3c20365,B,2024-08-30_13h12.26.759,Slot Machine Game,2023.1.3,MacIntel,62.5,,,,,,,,,,,,,,,,,,,,,,,,,,,430,,,,,,,,,,,,,,,,,,8,2,,,549.834,9,left,1.267,551.133,0.5,0.3,"[3,2,1]",0.00956782,stimuli/card_100_transparent.png,100,9,0,9,0,1,,,,,,,,,,
,,,,5dd31871c5faa232d3c20365,B,2024-08-30_13h12.26.759,Slot Machine Game,2023.1.3,MacIntel,62.5,,,,,,,,,,,,,,,,,,,,,,,,,,,530,,,,,,,,,,,,,,,,,,8,2,,,551.934,10,left,0.684,552.65,1,0.3,"[3,2,1]",0.038237262,stimuli/card_100_transparent.png,100,10,0,10,0,1,,,,,,,,,,
,,,,5dd31871c5faa232d3c20365,B,2024-08-30_13h12.26.759,Slot Machine Game,2023.1.3,MacIntel,62.5,,,,,,,,,,,,,,,,,,,,,,,,,,,530,,,,,,,,,,,,,,,,,,8,2,,,553.95,11,left,0.52,554.5,0.5,0.3,"[3,2,1]",0.400886336,stimuli/card_0_transparent.png,0,11,0,11,0,1,,,,,,,,,,
,,,,5dd31871c5faa232d3c20365,B,2024-08-30_13h12.26.759,Slot Machine Game,2023.1.3,MacIntel,62.5,,,,,,,,,,,,,,,,,,,,,,,,,,,530,,,,,,,,,,,,,,,,,,8,2,,,555.3,12,left,1.202,556.533,1.5,0.3,"[3,2,1]",0.460896458,stimuli/card_0_transparent.png,0,12,0,12,0,1,,,,,,,,,,
,,,,5dd31871c5faa232d3c20365,B,2024-08-30_13h12.26.759,Slot Machine Game,2023.1.3,MacIntel,62.5,,,,,,,,,,,,,,,,,,,,,,,,,,,530,,,,,,,,,,,,,,,,,,8,2,,,558.334,13,left,0.951,559.317,0.5,0.3,"[3,2,1]",0.787463486,stimuli/card_0_transparent.png,0,13,0,13,0,1,,,,,,,,,,
,,,,5dd31871c5faa232d3c20365,B,2024-08-30_13h12.26.759,Slot Machine Game,2023.1.3,MacIntel,62.5,,,,,,,,,,,,,,,,,,,,,,,,,,,540,,,,,,,,,,,,,,,,,,8,2,,,560.117,14,left,1.002,561.15,1,0.3,"[3,2,1]",0.157875107,stimuli/card_10_transparent.png,10,14,0,14,0,1,,,,,,,,,,
,,,,5dd31871c5faa232d3c20365,B,2024-08-30_13h12.26.759,Slot Machine Game,2023.1.3,MacIntel,62.5,,,,,,,,,,,,,,,,,,,,,,,,,,,,,,,,,,562.451,,,,,,,,,,,,,,,,,,,,,,,,,,,,,,,"[1010,660,1140,570,850,670,470,540]",7,0,7,0,1,,,,
,,,,5dd31871c5faa232d3c20365,B,2024-08-30_13h12.26.759,Slot Machine Game,2023.1.3,MacIntel,62.5,,,,,,,,,,,,,,,,,,,,,,,,,,,0,,,,,,,,,,,,,,,,,,9,10,"[10,15]","[[3,1,2],[1,3,2]]",567.461,0,left,0.651,568.134,0.5,0.3,"[3,1,2]",0.207288414,stimuli/card_0_transparent.png,0,0,0,0,0,1,,,,,,,,,,
,,,,5dd31871c5faa232d3c20365,B,2024-08-30_13h12.26.759,Slot Machine Game,2023.1.3,MacIntel,62.5,,,,,,,,,,,,,,,,,,,,,,,,,,,100,,,,,,,,,,,,,,,,,,9,10,,,568.933,1,left,0.557,569.5,1,0.3,"[3,1,2]",0.051820709,stimuli/card_100_transparent.png,100,1,0,1,0,1,,,,,,,,,,
,,,,5dd31871c5faa232d3c20365,B,2024-08-30_13h12.26.759,Slot Machine Game,2023.1.3,MacIntel,62.5,,,,,,,,,,,,,,,,,,,,,,,,,,,100,,,,,,,,,,,,,,,,,,9,10,,,570.8,2,left,1.15,571.967,1.5,0.3,"[3,1,2]",0.731887733,stimuli/card_0_transparent.png,0,2,0,2,0,1,,,,,,,,,,
,,,,5dd31871c5faa232d3c20365,B,2024-08-30_13h12.26.759,Slot Machine Game,2023.1.3,MacIntel,62.5,,,,,,,,,,,,,,,,,,,,,,,,,,,200,,,,,,,,,,,,,,,,,,9,10,,,573.768,3,up,0.699,574.5,0.5,0.3,"[3,1,2]",0.785857823,stimuli/card_100_transparent.png,100,3,0,3,0,1,,,,,,,,,,
,,,,5dd31871c5faa232d3c20365,B,2024-08-30_13h12.26.759,Slot Machine Game,2023.1.3,MacIntel,62.5,,,,,,,,,,,,,,,,,,,,,,,,,,,210,,,,,,,,,,,,,,,,,,9,10,,,575.3,4,up,0.6,575.917,1,0.3,"[3,1,2]",0.186888029,stimuli/card_10_transparent.png,10,4,0,4,0,1,,,,,,,,,,
,,,,5dd31871c5faa232d3c20365,B,2024-08-30_13h12.26.759,Slot Machine Game,2023.1.3,MacIntel,62.5,,,,,,,,,,,,,,,,,,,,,,,,,,,310,,,,,,,,,,,,,,,,,,9,10,,,577.218,5,up,0.936,578.184,1.5,0.3,"[3,1,2]",0.833218598,stimuli/card_100_transparent.png,100,5,0,5,0,1,,,,,,,,,,
,,,,5dd31871c5faa232d3c20365,B,2024-08-30_13h12.26.759,Slot Machine Game,2023.1.3,MacIntel,62.5,,,,,,,,,,,,,,,,,,,,,,,,,,,410,,,,,,,,,,,,,,,,,,9,10,,,579.984,6,up,0.962,580.951,1.5,0.3,"[3,1,2]",0.374822039,stimuli/card_100_transparent.png,100,6,0,6,0,1,,,,,,,,,,
,,,,5dd31871c5faa232d3c20365,B,2024-08-30_13h12.26.759,Slot Machine Game,2023.1.3,MacIntel,62.5,,,,,,,,,,,,,,,,,,,,,,,,,,,510,,,,,,,,,,,,,,,,,,9,10,,,582.75,7,up,0.703,583.468,1,0.3,"[3,1,2]",0.984425927,stimuli/card_100_transparent.png,100,7,0,7,0,1,,,,,,,,,,
,,,,5dd31871c5faa232d3c20365,B,2024-08-30_13h12.26.759,Slot Machine Game,2023.1.3,MacIntel,62.5,,,,,,,,,,,,,,,,,,,,,,,,,,,610,,,,,,,,,,,,,,,,,,9,10,,,584.767,8,up,1.07,585.851,1.5,0.3,"[3,1,2]",0.642304243,stimuli/card_100_transparent.png,100,8,0,8,0,1,,,,,,,,,,
,,,,5dd31871c5faa232d3c20365,B,2024-08-30_13h12.26.759,Slot Machine Game,2023.1.3,MacIntel,62.5,,,,,,,,,,,,,,,,,,,,,,,,,,,710,,,,,,,,,,,,,,,,,,9,10,,,587.65,9,up,1.187,588.85,0.5,0.3,"[3,1,2]",0.672598965,stimuli/card_100_transparent.png,100,9,0,9,0,1,,,,,,,,,,
,,,,5dd31871c5faa232d3c20365,B,2024-08-30_13h12.26.759,Slot Machine Game,2023.1.3,MacIntel,62.5,,,,,,,,,,,,,,,,,,,,,,,,,,,710,,,,,,,,,,,,,,,,,,9,10,,,589.651,10,up,0.693,590.351,1.5,0.3,"[1,3,2]",0.201164031,stimuli/card_0_transparent.png,0,10,0,10,0,1,,,,,,,,,,
,,,,5dd31871c5faa232d3c20365,B,2024-08-30_13h12.26.759,Slot Machine Game,2023.1.3,MacIntel,62.5,,,,,,,,,,,,,,,,,,,,,,,,,,,710,,,,,,,,,,,,,,,,,,9,10,,,592.151,11,up,0.91,593.067,0.5,0.3,"[1,3,2]",0.597163543,stimuli/card_0_transparent.png,0,11,0,11,0,1,,,,,,,,,,
,,,,5dd31871c5faa232d3c20365,B,2024-08-30_13h12.26.759,Slot Machine Game,2023.1.3,MacIntel,62.5,,,,,,,,,,,,,,,,,,,,,,,,,,,710,,,,,,,,,,,,,,,,,,9,10,,,593.869,12,up,1.217,595.118,1.5,0.3,"[1,3,2]",0.746541949,stimuli/card_0_transparent.png,0,12,0,12,0,1,,,,,,,,,,
,,,,5dd31871c5faa232d3c20365,B,2024-08-30_13h12.26.759,Slot Machine Game,2023.1.3,MacIntel,62.5,,,,,,,,,,,,,,,,,,,,,,,,,,,710,,,,,,,,,,,,,,,,,,9,10,,,596.918,13,up,0.55,597.485,1,0.3,"[1,3,2]",0.23810719,stimuli/card_0_transparent.png,0,13,0,13,0,1,,,,,,,,,,
,,,,5dd31871c5faa232d3c20365,B,2024-08-30_13h12.26.759,Slot Machine Game,2023.1.3,MacIntel,62.5,,,,,,,,,,,,,,,,,,,,,,,,,,,720,,,,,,,,,,,,,,,,,,9,10,,,598.784,14,up,0.563,599.351,0.5,0.3,"[1,3,2]",0.138901012,stimuli/card_10_transparent.png,10,14,0,14,0,1,,,,,,,,,,
,,,,5dd31871c5faa232d3c20365,B,2024-08-30_13h12.26.759,Slot Machine Game,2023.1.3,MacIntel,62.5,,,,,,,,,,,,,,,,,,,,,,,,,,,,,,,,,,600.151,,,,,,,,,,,,,,,,,,,,,,,,,,,,,,,"[1010,660,1140,570,850,670,470,540,720]",8,0,8,0,1,,,,
,,,,5dd31871c5faa232d3c20365,B,2024-08-30_13h12.26.759,Slot Machine Game,2023.1.3,MacIntel,62.5,,,,,,,,,,,,,,,,,,,,,,,,,,,0,,,,,,,,,,,,,,,,,,10,3,"[15,15]","[[3,1,2],[3,1,2]]",605.169,0,left,1.003,606.201,1,0.3,"[3,1,2]",0.764884414,stimuli/card_0_transparent.png,0,0,0,0,0,1,,,,,,,,,,
,,,,5dd31871c5faa232d3c20365,B,2024-08-30_13h12.26.759,Slot Machine Game,2023.1.3,MacIntel,62.5,,,,,,,,,,,,,,,,,,,,,,,,,,,0,,,,,,,,,,,,,,,,,,10,3,,,607.502,1,left,0.953,608.486,1,0.3,"[3,1,2]",0.780439683,stimuli/card_0_transparent.png,0,1,0,1,0,1,,,,,,,,,,
,,,,5dd31871c5faa232d3c20365,B,2024-08-30_13h12.26.759,Slot Machine Game,2023.1.3,MacIntel,62.5,,,,,,,,,,,,,,,,,,,,,,,,,,,0,,,,,,,,,,,,,,,,,,10,3,,,609.784,2,left,0.981,610.785,1,0.3,"[3,1,2]",0.230794117,stimuli/card_0_transparent.png,0,2,0,2,0,1,,,,,,,,,,
,,,,5dd31871c5faa232d3c20365,B,2024-08-30_13h12.26.759,Slot Machine Game,2023.1.3,MacIntel,62.5,,,,,,,,,,,,,,,,,,,,,,,,,,,100,,,,,,,,,,,,,,,,,,10,3,,,612.086,3,up,1.3,613.419,1,0.3,"[3,1,2]",0.783772033,stimuli/card_100_transparent.png,100,3,0,3,0,1,,,,,,,,,,
,,,,5dd31871c5faa232d3c20365,B,2024-08-30_13h12.26.759,Slot Machine Game,2023.1.3,MacIntel,62.5,,,,,,,,,,,,,,,,,,,,,,,,,,,200,,,,,,,,,,,,,,,,,,10,3,,,614.719,4,up,0.783,615.535,1,0.3,"[3,1,2]",0.946798757,stimuli/card_100_transparent.png,100,4,0,4,0,1,,,,,,,,,,
,,,,5dd31871c5faa232d3c20365,B,2024-08-30_13h12.26.759,Slot Machine Game,2023.1.3,MacIntel,62.5,,,,,,,,,,,,,,,,,,,,,,,,,,,200,,,,,,,,,,,,,,,,,,10,3,,,616.835,5,up,0.549,617.401,0.5,0.3,"[3,1,2]",0.090288135,stimuli/card_0_transparent.png,0,5,0,5,0,1,,,,,,,,,,
,,,,5dd31871c5faa232d3c20365,B,2024-08-30_13h12.26.759,Slot Machine Game,2023.1.3,MacIntel,62.5,,,,,,,,,,,,,,,,,,,,,,,,,,,300,,,,,,,,,,,,,,,,,,10,3,,,618.202,6,up,0.632,618.853,1.5,0.3,"[3,1,2]",0.50808875,stimuli/card_100_transparent.png,100,6,0,6,0,1,,,,,,,,,,
,,,,5dd31871c5faa232d3c20365,B,2024-08-30_13h12.26.759,Slot Machine Game,2023.1.3,MacIntel,62.5,,,,,,,,,,,,,,,,,,,,,,,,,,,400,,,,,,,,,,,,,,,,,,10,3,,,620.652,7,up,0.701,621.368,1.5,0.3,"[3,1,2]",0.741963744,stimuli/card_100_transparent.png,100,7,0,7,0,1,,,,,,,,,,
,,,,5dd31871c5faa232d3c20365,B,2024-08-30_13h12.26.759,Slot Machine Game,2023.1.3,MacIntel,62.5,,,,,,,,,,,,,,,,,,,,,,,,,,,500,,,,,,,,,,,,,,,,,,10,3,,,623.168,8,up,0.502,623.685,1.5,0.3,"[3,1,2]",0.883102765,stimuli/card_100_transparent.png,100,8,0,8,0,1,,,,,,,,,,
,,,,5dd31871c5faa232d3c20365,B,2024-08-30_13h12.26.759,Slot Machine Game,2023.1.3,MacIntel,62.5,,,,,,,,,,,,,,,,,,,,,,,,,,,600,,,,,,,,,,,,,,,,,,10,3,,,625.486,9,up,1.178,626.686,1,0.3,"[3,1,2]",0.985219654,stimuli/card_100_transparent.png,100,9,0,9,0,1,,,,,,,,,,
,,,,5dd31871c5faa232d3c20365,B,2024-08-30_13h12.26.759,Slot Machine Game,2023.1.3,MacIntel,62.5,,,,,,,,,,,,,,,,,,,,,,,,,,,700,,,,,,,,,,,,,,,,,,10,3,,,627.986,10,up,1.019,629.019,1,0.3,"[3,1,2]",0.730027175,stimuli/card_100_transparent.png,100,10,0,10,0,1,,,,,,,,,,
,,,,5dd31871c5faa232d3c20365,B,2024-08-30_13h12.26.759,Slot Machine Game,2023.1.3,MacIntel,62.5,,,,,,,,,,,,,,,,,,,,,,,,,,,800,,,,,,,,,,,,,,,,,,10,3,,,630.319,11,up,1.153,631.486,1,0.3,"[3,1,2]",0.258606368,stimuli/card_100_transparent.png,100,11,0,11,0,1,,,,,,,,,,
,,,,5dd31871c5faa232d3c20365,B,2024-08-30_13h12.26.759,Slot Machine Game,2023.1.3,MacIntel,62.5,,,,,,,,,,,,,,,,,,,,,,,,,,,900,,,,,,,,,,,,,,,,,,10,3,,,632.786,12,up,1.314,634.119,1,0.3,"[3,1,2]",0.657255323,stimuli/card_100_transparent.png,100,12,0,12,0,1,,,,,,,,,,
,,,,5dd31871c5faa232d3c20365,B,2024-08-30_13h12.26.759,Slot Machine Game,2023.1.3,MacIntel,62.5,,,,,,,,,,,,,,,,,,,,,,,,,,,900,,,,,,,,,,,,,,,,,,10,3,,,635.418,13,up,0.82,636.253,1.5,0.3,"[3,1,2]",0.06446448,stimuli/card_0_transparent.png,0,13,0,13,0,1,,,,,,,,,,
,,,,5dd31871c5faa232d3c20365,B,2024-08-30_13h12.26.759,Slot Machine Game,2023.1.3,MacIntel,62.5,,,,,,,,,,,,,,,,,,,,,,,,,,,1000,,,,,,,,,,,,,,,,,,10,3,,,638.053,14,up,0.84,638.92,0.5,0.3,"[3,1,2]",0.994598371,stimuli/card_100_transparent.png,100,14,0,14,0,1,,,,,,,,,,
,,,,5dd31871c5faa232d3c20365,B,2024-08-30_13h12.26.759,Slot Machine Game,2023.1.3,MacIntel,62.5,,,,,,,,,,,,,,,,,,,,,,,,,,,,,,,,,,639.72,,,,,,,,,,,,,,,,,,,,,,,,,,,,,,,"[1010,660,1140,570,850,670,470,540,720,1000]",9,0,9,0,1,,,,
,,,,5dd31871c5faa232d3c20365,B,2024-08-30_13h12.26.759,Slot Machine Game,2023.1.3,MacIntel,62.5,,,,,,,,,,,,,,,,,,,,,,,,,,,,,,,,,,,,,,,,,,,,,,,,,,,,,,,,,,,,,,,,,,,,,,,9,"[1010,660,1140,570,850,670,470,540,720,1000]",6.6,2024-08-30_13h23.15.513
