key_resp_welcome_started,key_resp_welcome_keys,key_resp_welcome_rt,key_resp_welcome_duration,prolific_pid,path_id,date,expName,psychopyVersion,OS,frameRate,PROLIFIC_PID,STUDY_ID,SESSION_ID,key_resp_instruction1_started,key_resp_instruction1_keys,key_resp_instruction1_rt,key_resp_instruction1_duration,key_resp_instruction2_started,key_resp_instruction2_keys,key_resp_instruction2_rt,key_resp_instruction2_duration,key_resp_instruction3_started,key_resp_instruction3_keys,key_resp_instruction3_rt,key_resp_instruction3_duration,key_resp_instruction4_started,key_resp_instruction4_keys,key_resp_instruction4_rt,key_resp_instruction4_duration,practiceCondition,practice_reward_seqs,practice_trial_started,practice_trial_num,practice_resp_rt,practice_keypress_time,practice_resp_keys,prac_presentationInterval,practice_reward_seq,reward_img,cumulative_reward,trial_reward,practice_trials.thisRepN,practice_trials.thisTrialN,practice_trials.thisN,practice_trials.thisIndex,practice_trials.ran,block_break_started,practice_end_time,practice_end_keys,practice_end_rt,practice_end_duration,main_instruction_text_started,block_condition,block_order_indices,main_instruction_keys,main_instruction_rt,main_instruction_duration,block_number,block_assignment,current_condition,main_reward_seqs,main_trial_started,main_trial_num,main_trial_keys,main_trial_rt,main_trial_keypress_time,main_presentationInterval,reward_presentation_time,main_reward_seq,reward_rand_val,main_reward_img,current_reward,main_trials.thisRepN,main_trials.thisTrialN,main_trials.thisN,main_trials.thisIndex,main_trials.ran,block_reward,block.thisRepN,block.thisTrialN,block.thisN,block.thisIndex,block.ran,block_reward.length,block_reward_all,reward_amount,date_end_task
0.0006,space,3.3025,,58e558cc728bea0001bbda24,C,2024-10-23_12h38.43.125,Slot Machine Game,2023.1.3,Win32,59.52380952,58e558cc728bea0001bbda24,67167c13dd87566d3602e731,6719264396d87ffe4e9da6a8,,,,,,,,,,,,,,,,,,,,,,,,,,,,,,,,,,,,,,,,,,,,,,,,,,,,,,,,,,,,,,,,,,,,,,,,,,
,,,,58e558cc728bea0001bbda24,C,2024-10-23_12h38.43.125,Slot Machine Game,2023.1.3,Win32,59.52380952,58e558cc728bea0001bbda24,67167c13dd87566d3602e731,6719264396d87ffe4e9da6a8,3.3336,space,7.8036,,,,,,,,,,,,,,,,,,,,,,,,,,,,,,,,,,,,,,,,,,,,,,,,,,,,,,,,,,,,,,,,,,,,,,,
,,,,58e558cc728bea0001bbda24,C,2024-10-23_12h38.43.125,Slot Machine Game,2023.1.3,Win32,59.52380952,58e558cc728bea0001bbda24,67167c13dd87566d3602e731,6719264396d87ffe4e9da6a8,,,,,11.1816,space,35.5397,,,,,,,,,,,,,,,,,,,,,,,,,,,,,,,,,,,,,,,,,,,,,,,,,,,,,,,,,,,,,,,,,,,
,,,,58e558cc728bea0001bbda24,C,2024-10-23_12h38.43.125,Slot Machine Game,2023.1.3,Win32,59.52380952,58e558cc728bea0001bbda24,67167c13dd87566d3602e731,6719264396d87ffe4e9da6a8,,,,,,,,,46.8004,space,7.8458,,,,,,,,,,,,,,,,,,,,,,,,,,,,,,,,,,,,,,,,,,,,,,,,,,,,,,,,,,,,,,,
,,,,58e558cc728bea0001bbda24,C,2024-10-23_12h38.43.125,Slot Machine Game,2023.1.3,Win32,59.52380952,58e558cc728bea0001bbda24,67167c13dd87566d3602e731,6719264396d87ffe4e9da6a8,,,,,,,,,,,,,,,,,,,,,,,,,,,,,,,,,,,,,,,,,,,,,,,,,,,,,,,,,,,,,,,,,,,,,,,,,,
,,,,58e558cc728bea0001bbda24,C,2024-10-23_12h38.43.125,Slot Machine Game,2023.1.3,Win32,59.52380952,58e558cc728bea0001bbda24,67167c13dd87566d3602e731,6719264396d87ffe4e9da6a8,,,,,,,,,,,,,196.5456,left,8.4893,,,,,,,,,,,,,,,,,,,,,,,,,,,,,,,,,,,,,,,,,,,,,,,,,,,,,,,,,,,
,,,,58e558cc728bea0001bbda24,C,2024-10-23_12h38.43.125,Slot Machine Game,2023.1.3,Win32,59.52380952,58e558cc728bea0001bbda24,67167c13dd87566d3602e731,6719264396d87ffe4e9da6a8,,,,,,,,,,,,,,,,,"[9,15]","[[2,1,3],[2,3,1]]",205.0993,0,1.6832,206.8018,left,1,"[2,1,3]",stimuli/card_100_transparent.png,100,100,0,0,0,0,1,,,,,,,,,,,,,,,,,,,,,,,,,,,,,,,,,,,,,,,,,
,,,,58e558cc728bea0001bbda24,C,2024-10-23_12h38.43.125,Slot Machine Game,2023.1.3,Win32,59.52380952,58e558cc728bea0001bbda24,67167c13dd87566d3602e731,6719264396d87ffe4e9da6a8,,,,,,,,,,,,,,,,,,,208.0923,1,1.1674,209.2835,left,0.5,"[2,1,3]",stimuli/card_10_transparent.png,110,10,1,0,1,0,1,,,,,,,,,,,,,,,,,,,,,,,,,,,,,,,,,,,,,,,,,
,,,,58e558cc728bea0001bbda24,C,2024-10-23_12h38.43.125,Slot Machine Game,2023.1.3,Win32,59.52380952,58e558cc728bea0001bbda24,67167c13dd87566d3602e731,6719264396d87ffe4e9da6a8,,,,,,,,,,,,,,,,,,,210.102,2,1.0083,211.1389,left,1.5,"[2,1,3]",stimuli/card_0_transparent.png,110,0,2,0,2,0,1,,,,,,,,,,,,,,,,,,,,,,,,,,,,,,,,,,,,,,,,,
,,,,58e558cc728bea0001bbda24,C,2024-10-23_12h38.43.125,Slot Machine Game,2023.1.3,Win32,59.52380952,58e558cc728bea0001bbda24,67167c13dd87566d3602e731,6719264396d87ffe4e9da6a8,,,,,,,,,,,,,,,,,,,212.9328,3,1.6166,214.5741,left,1.5,"[2,1,3]",stimuli/card_10_transparent.png,120,10,3,0,3,0,1,,,,,,,,,,,,,,,,,,,,,,,,,,,,,,,,,,,,,,,,,
,,,,58e558cc728bea0001bbda24,C,2024-10-23_12h38.43.125,Slot Machine Game,2023.1.3,Win32,59.52380952,58e558cc728bea0001bbda24,67167c13dd87566d3602e731,6719264396d87ffe4e9da6a8,,,,,,,,,,,,,,,,,,,216.3577,4,1.2857,217.678,right,0.5,"[2,1,3]",stimuli/card_0_transparent.png,120,0,4,0,4,0,1,,,,,,,,,,,,,,,,,,,,,,,,,,,,,,,,,,,,,,,,,
,,,,58e558cc728bea0001bbda24,C,2024-10-23_12h38.43.125,Slot Machine Game,2023.1.3,Win32,59.52380952,58e558cc728bea0001bbda24,67167c13dd87566d3602e731,6719264396d87ffe4e9da6a8,,,,,,,,,,,,,,,,,,,218.479,5,2.3027,220.8134,up,0.5,"[2,1,3]",stimuli/card_100_transparent.png,220,100,5,0,5,0,1,,,,,,,,,,,,,,,,,,,,,,,,,,,,,,,,,,,,,,,,,
,,,,58e558cc728bea0001bbda24,C,2024-10-23_12h38.43.125,Slot Machine Game,2023.1.3,Win32,59.52380952,58e558cc728bea0001bbda24,67167c13dd87566d3602e731,6719264396d87ffe4e9da6a8,,,,,,,,,,,,,,,,,,,221.6022,6,0.7186,222.3487,up,1,"[2,1,3]",stimuli/card_100_transparent.png,320,100,6,0,6,0,1,,,,,,,,,,,,,,,,,,,,,,,,,,,,,,,,,,,,,,,,,
,,,,58e558cc728bea0001bbda24,C,2024-10-23_12h38.43.125,Slot Machine Game,2023.1.3,Win32,59.52380952,58e558cc728bea0001bbda24,67167c13dd87566d3602e731,6719264396d87ffe4e9da6a8,,,,,,,,,,,,,,,,,,,223.637,7,0.6265,224.3075,up,0.5,"[2,1,3]",stimuli/card_10_transparent.png,330,10,7,0,7,0,1,,,,,,,,,,,,,,,,,,,,,,,,,,,,,,,,,,,,,,,,,
,,,,58e558cc728bea0001bbda24,C,2024-10-23_12h38.43.125,Slot Machine Game,2023.1.3,Win32,59.52380952,58e558cc728bea0001bbda24,67167c13dd87566d3602e731,6719264396d87ffe4e9da6a8,,,,,,,,,,,,,,,,,,,225.1039,8,0.8003,225.9329,up,1,"[2,1,3]",stimuli/card_100_transparent.png,430,100,8,0,8,0,1,,,,,,,,,,,,,,,,,,,,,,,,,,,,,,,,,,,,,,,,,
,,,,58e558cc728bea0001bbda24,C,2024-10-23_12h38.43.125,Slot Machine Game,2023.1.3,Win32,59.52380952,58e558cc728bea0001bbda24,67167c13dd87566d3602e731,6719264396d87ffe4e9da6a8,,,,,,,,,,,,,,,,,,,227.2275,9,0.5852,227.8362,up,1,"[2,3,1]",stimuli/card_10_transparent.png,440,10,9,0,9,0,1,,,,,,,,,,,,,,,,,,,,,,,,,,,,,,,,,,,,,,,,,
,,,,58e558cc728bea0001bbda24,C,2024-10-23_12h38.43.125,Slot Machine Game,2023.1.3,Win32,59.52380952,58e558cc728bea0001bbda24,67167c13dd87566d3602e731,6719264396d87ffe4e9da6a8,,,,,,,,,,,,,,,,,,,229.1277,10,0.6348,229.7855,up,0.5,"[2,3,1]",stimuli/card_0_transparent.png,440,0,10,0,10,0,1,,,,,,,,,,,,,,,,,,,,,,,,,,,,,,,,,,,,,,,,,
,,,,58e558cc728bea0001bbda24,C,2024-10-23_12h38.43.125,Slot Machine Game,2023.1.3,Win32,59.52380952,58e558cc728bea0001bbda24,67167c13dd87566d3602e731,6719264396d87ffe4e9da6a8,,,,,,,,,,,,,,,,,,,230.577,11,0.7451,231.3629,up,1,"[2,3,1]",stimuli/card_0_transparent.png,440,0,11,0,11,0,1,,,,,,,,,,,,,,,,,,,,,,,,,,,,,,,,,,,,,,,,,
,,,,58e558cc728bea0001bbda24,C,2024-10-23_12h38.43.125,Slot Machine Game,2023.1.3,Win32,59.52380952,58e558cc728bea0001bbda24,67167c13dd87566d3602e731,6719264396d87ffe4e9da6a8,,,,,,,,,,,,,,,,,,,232.6438,12,0.6683,233.3381,right,0.5,"[2,3,1]",stimuli/card_100_transparent.png,540,100,12,0,12,0,1,,,,,,,,,,,,,,,,,,,,,,,,,,,,,,,,,,,,,,,,,
,,,,58e558cc728bea0001bbda24,C,2024-10-23_12h38.43.125,Slot Machine Game,2023.1.3,Win32,59.52380952,58e558cc728bea0001bbda24,67167c13dd87566d3602e731,6719264396d87ffe4e9da6a8,,,,,,,,,,,,,,,,,,,234.1216,13,0.7786,234.9195,right,1.5,"[2,3,1]",stimuli/card_100_transparent.png,640,100,13,0,13,0,1,,,,,,,,,,,,,,,,,,,,,,,,,,,,,,,,,,,,,,,,,
,,,,58e558cc728bea0001bbda24,C,2024-10-23_12h38.43.125,Slot Machine Game,2023.1.3,Win32,59.52380952,58e558cc728bea0001bbda24,67167c13dd87566d3602e731,6719264396d87ffe4e9da6a8,,,,,,,,,,,,,,,,,,,236.7071,14,1.0132,237.7542,right,0.5,"[2,3,1]",stimuli/card_100_transparent.png,740,100,14,0,14,0,1,,,,,,,,,,,,,,,,,,,,,,,,,,,,,,,,,,,,,,,,,
,,,,58e558cc728bea0001bbda24,C,2024-10-23_12h38.43.125,Slot Machine Game,2023.1.3,Win32,59.52380952,58e558cc728bea0001bbda24,67167c13dd87566d3602e731,6719264396d87ffe4e9da6a8,,,,,,,,,,,,,,,,,"[6,15]","[[1,3,2],[3,1,2]]",243.546,0,1.3574,244.937,up,0.5,"[1,3,2]",stimuli/card_0_transparent.png,0,0,0,0,0,0,1,238.5372,,,,,,,,,,,,,,,,,,,,,,,,,,,,,,,,,,,,,,,,
,,,,58e558cc728bea0001bbda24,C,2024-10-23_12h38.43.125,Slot Machine Game,2023.1.3,Win32,59.52380952,58e558cc728bea0001bbda24,67167c13dd87566d3602e731,6719264396d87ffe4e9da6a8,,,,,,,,,,,,,,,,,,,245.7331,1,1.0564,246.8154,right,1,"[1,3,2]",stimuli/card_10_transparent.png,10,10,1,0,1,0,1,,,,,,,,,,,,,,,,,,,,,,,,,,,,,,,,,,,,,,,,,
,,,,58e558cc728bea0001bbda24,C,2024-10-23_12h38.43.125,Slot Machine Game,2023.1.3,Win32,59.52380952,58e558cc728bea0001bbda24,67167c13dd87566d3602e731,6719264396d87ffe4e9da6a8,,,,,,,,,,,,,,,,,,,248.1095,2,1.1667,249.3006,left,1.5,"[1,3,2]",stimuli/card_100_transparent.png,110,100,2,0,2,0,1,,,,,,,,,,,,,,,,,,,,,,,,,,,,,,,,,,,,,,,,,
,,,,58e558cc728bea0001bbda24,C,2024-10-23_12h38.43.125,Slot Machine Game,2023.1.3,Win32,59.52380952,58e558cc728bea0001bbda24,67167c13dd87566d3602e731,6719264396d87ffe4e9da6a8,,,,,,,,,,,,,,,,,,,251.0844,3,1.0837,252.1864,left,1,"[1,3,2]",stimuli/card_100_transparent.png,210,100,3,0,3,0,1,,,,,,,,,,,,,,,,,,,,,,,,,,,,,,,,,,,,,,,,,
,,,,58e558cc728bea0001bbda24,C,2024-10-23_12h38.43.125,Slot Machine Game,2023.1.3,Win32,59.52380952,58e558cc728bea0001bbda24,67167c13dd87566d3602e731,6719264396d87ffe4e9da6a8,,,,,,,,,,,,,,,,,,,253.4949,4,0.9693,254.5067,left,1,"[1,3,2]",stimuli/card_100_transparent.png,310,100,4,0,4,0,1,,,,,,,,,,,,,,,,,,,,,,,,,,,,,,,,,,,,,,,,,
,,,,58e558cc728bea0001bbda24,C,2024-10-23_12h38.43.125,Slot Machine Game,2023.1.3,Win32,59.52380952,58e558cc728bea0001bbda24,67167c13dd87566d3602e731,6719264396d87ffe4e9da6a8,,,,,,,,,,,,,,,,,,,255.8074,5,1.1302,256.9601,left,1,"[1,3,2]",stimuli/card_100_transparent.png,410,100,5,0,5,0,1,,,,,,,,,,,,,,,,,,,,,,,,,,,,,,,,,,,,,,,,,
,,,,58e558cc728bea0001bbda24,C,2024-10-23_12h38.43.125,Slot Machine Game,2023.1.3,Win32,59.52380952,58e558cc728bea0001bbda24,67167c13dd87566d3602e731,6719264396d87ffe4e9da6a8,,,,,,,,,,,,,,,,,,,258.2527,6,0.6825,258.9577,left,1.5,"[3,1,2]",stimuli/card_0_transparent.png,410,0,6,0,6,0,1,,,,,,,,,,,,,,,,,,,,,,,,,,,,,,,,,,,,,,,,,
,,,,58e558cc728bea0001bbda24,C,2024-10-23_12h38.43.125,Slot Machine Game,2023.1.3,Win32,59.52380952,58e558cc728bea0001bbda24,67167c13dd87566d3602e731,6719264396d87ffe4e9da6a8,,,,,,,,,,,,,,,,,,,260.7488,7,0.9723,261.7435,left,0.5,"[3,1,2]",stimuli/card_100_transparent.png,510,100,7,0,7,0,1,,,,,,,,,,,,,,,,,,,,,,,,,,,,,,,,,,,,,,,,,
,,,,58e558cc728bea0001bbda24,C,2024-10-23_12h38.43.125,Slot Machine Game,2023.1.3,Win32,59.52380952,58e558cc728bea0001bbda24,67167c13dd87566d3602e731,6719264396d87ffe4e9da6a8,,,,,,,,,,,,,,,,,,,262.5259,8,1.0327,263.5785,left,0.5,"[3,1,2]",stimuli/card_0_transparent.png,510,0,8,0,8,0,1,,,,,,,,,,,,,,,,,,,,,,,,,,,,,,,,,,,,,,,,,
,,,,58e558cc728bea0001bbda24,C,2024-10-23_12h38.43.125,Slot Machine Game,2023.1.3,Win32,59.52380952,58e558cc728bea0001bbda24,67167c13dd87566d3602e731,6719264396d87ffe4e9da6a8,,,,,,,,,,,,,,,,,,,264.3783,9,1.0747,265.4863,left,1.5,"[3,1,2]",stimuli/card_0_transparent.png,510,0,9,0,9,0,1,,,,,,,,,,,,,,,,,,,,,,,,,,,,,,,,,,,,,,,,,
,,,,58e558cc728bea0001bbda24,C,2024-10-23_12h38.43.125,Slot Machine Game,2023.1.3,Win32,59.52380952,58e558cc728bea0001bbda24,67167c13dd87566d3602e731,6719264396d87ffe4e9da6a8,,,,,,,,,,,,,,,,,,,267.2831,10,1.2988,268.6128,up,0.5,"[3,1,2]",stimuli/card_100_transparent.png,610,100,10,0,10,0,1,,,,,,,,,,,,,,,,,,,,,,,,,,,,,,,,,,,,,,,,,
,,,,58e558cc728bea0001bbda24,C,2024-10-23_12h38.43.125,Slot Machine Game,2023.1.3,Win32,59.52380952,58e558cc728bea0001bbda24,67167c13dd87566d3602e731,6719264396d87ffe4e9da6a8,,,,,,,,,,,,,,,,,,,269.4052,11,1.0184,270.4497,up,1,"[3,1,2]",stimuli/card_100_transparent.png,710,100,11,0,11,0,1,,,,,,,,,,,,,,,,,,,,,,,,,,,,,,,,,,,,,,,,,
,,,,58e558cc728bea0001bbda24,C,2024-10-23_12h38.43.125,Slot Machine Game,2023.1.3,Win32,59.52380952,58e558cc728bea0001bbda24,67167c13dd87566d3602e731,6719264396d87ffe4e9da6a8,,,,,,,,,,,,,,,,,,,271.7494,12,1.3052,273.0818,up,0.5,"[3,1,2]",stimuli/card_100_transparent.png,810,100,12,0,12,0,1,,,,,,,,,,,,,,,,,,,,,,,,,,,,,,,,,,,,,,,,,
,,,,58e558cc728bea0001bbda24,C,2024-10-23_12h38.43.125,Slot Machine Game,2023.1.3,Win32,59.52380952,58e558cc728bea0001bbda24,67167c13dd87566d3602e731,6719264396d87ffe4e9da6a8,,,,,,,,,,,,,,,,,,,273.8853,13,1.2514,275.1561,up,1.5,"[3,1,2]",stimuli/card_100_transparent.png,910,100,13,0,13,0,1,,,,,,,,,,,,,,,,,,,,,,,,,,,,,,,,,,,,,,,,,
,,,,58e558cc728bea0001bbda24,C,2024-10-23_12h38.43.125,Slot Machine Game,2023.1.3,Win32,59.52380952,58e558cc728bea0001bbda24,67167c13dd87566d3602e731,6719264396d87ffe4e9da6a8,,,,,,,,,,,,,,,,,,,276.9567,14,0.7681,277.7555,up,1,"[3,1,2]",stimuli/card_100_transparent.png,1010,100,14,0,14,0,1,,,,,,,,,,,,,,,,,,,,,,,,,,,,,,,,,,,,,,,,,
,,,,58e558cc728bea0001bbda24,C,2024-10-23_12h38.43.125,Slot Machine Game,2023.1.3,Win32,59.52380952,58e558cc728bea0001bbda24,67167c13dd87566d3602e731,6719264396d87ffe4e9da6a8,,,,,,,,,,,,,,,,,,,,,,,,,,,,,,,,,,279.0446,284.0458,space,4.602,,,,,,,,,,,,,,,,,,,,,,,,,,,,,,,,,,,,,
,,,,58e558cc728bea0001bbda24,C,2024-10-23_12h38.43.125,Slot Machine Game,2023.1.3,Win32,59.52380952,58e558cc728bea0001bbda24,67167c13dd87566d3602e731,6719264396d87ffe4e9da6a8,,,,,,,,,,,,,,,,,,,,,,,,,,,,,,,,,,,,,,,288.6815,3,"[0,4,6,3,5,7,8,1,9,2]",space,2.7437,,,,,,,,,,,,,,,,,,,,,,,,,,,,,,,
,,,,58e558cc728bea0001bbda24,C,2024-10-23_12h38.43.125,Slot Machine Game,2023.1.3,Win32,59.52380952,58e558cc728bea0001bbda24,67167c13dd87566d3602e731,6719264396d87ffe4e9da6a8,,,,,,,,,,,,,,,,,,,,,,,,,,,10,,,,,,,,,,,,,,,,,,1,1,"[12,15]","[[2,1,3],[2,3,1]]",291.4614,0,left,0.6445,292.1448,1,0.3,"[2,1,3]",0.937950512,stimuli/card_10_transparent.png,10,0,0,0,0,1,,,,,,,,,,
,,,,58e558cc728bea0001bbda24,C,2024-10-23_12h38.43.125,Slot Machine Game,2023.1.3,Win32,59.52380952,58e558cc728bea0001bbda24,67167c13dd87566d3602e731,6719264396d87ffe4e9da6a8,,,,,,,,,,,,,,,,,,,,,,,,,,,10,,,,,,,,,,,,,,,,,,1,1,,,293.4352,1,up,2.8711,296.3197,1,0.3,"[2,1,3]",0.070978035,stimuli/card_0_transparent.png,0,1,0,1,0,1,,,,,,,,,,
,,,,58e558cc728bea0001bbda24,C,2024-10-23_12h38.43.125,Slot Machine Game,2023.1.3,Win32,59.52380952,58e558cc728bea0001bbda24,67167c13dd87566d3602e731,6719264396d87ffe4e9da6a8,,,,,,,,,,,,,,,,,,,,,,,,,,,10,,,,,,,,,,,,,,,,,,1,1,,,297.6542,2,right,0.9194,298.6047,0.5,0.3,"[2,1,3]",0.885063401,stimuli/card_0_transparent.png,0,2,0,2,0,1,,,,,,,,,,
,,,,58e558cc728bea0001bbda24,C,2024-10-23_12h38.43.125,Slot Machine Game,2023.1.3,Win32,59.52380952,58e558cc728bea0001bbda24,67167c13dd87566d3602e731,6719264396d87ffe4e9da6a8,,,,,,,,,,,,,,,,,,,,,,,,,,,20,,,,,,,,,,,,,,,,,,1,1,,,299.3871,3,left,1.6434,301.0569,1,0.3,"[2,1,3]",0.305469489,stimuli/card_10_transparent.png,10,3,0,3,0,1,,,,,,,,,,
,,,,58e558cc728bea0001bbda24,C,2024-10-23_12h38.43.125,Slot Machine Game,2023.1.3,Win32,59.52380952,58e558cc728bea0001bbda24,67167c13dd87566d3602e731,6719264396d87ffe4e9da6a8,,,,,,,,,,,,,,,,,,,,,,,,,,,30,,,,,,,,,,,,,,,,,,1,1,,,302.362,4,up,1.2198,303.6042,1,0.3,"[2,1,3]",0.166030996,stimuli/card_10_transparent.png,10,4,0,4,0,1,,,,,,,,,,
,,,,58e558cc728bea0001bbda24,C,2024-10-23_12h38.43.125,Slot Machine Game,2023.1.3,Win32,59.52380952,58e558cc728bea0001bbda24,67167c13dd87566d3602e731,6719264396d87ffe4e9da6a8,,,,,,,,,,,,,,,,,,,,,,,,,,,30,,,,,,,,,,,,,,,,,,1,1,,,304.8951,5,right,1.2614,306.1775,1.5,0.3,"[2,1,3]",0.679887228,stimuli/card_0_transparent.png,0,5,0,5,0,1,,,,,,,,,,
,,,,58e558cc728bea0001bbda24,C,2024-10-23_12h38.43.125,Slot Machine Game,2023.1.3,Win32,59.52380952,58e558cc728bea0001bbda24,67167c13dd87566d3602e731,6719264396d87ffe4e9da6a8,,,,,,,,,,,,,,,,,,,,,,,,,,,40,,,,,,,,,,,,,,,,,,1,1,,,307.9619,6,left,1.0129,308.9958,0.5,0.3,"[2,1,3]",0.346940624,stimuli/card_10_transparent.png,10,6,0,6,0,1,,,,,,,,,,
,,,,58e558cc728bea0001bbda24,C,2024-10-23_12h38.43.125,Slot Machine Game,2023.1.3,Win32,59.52380952,58e558cc728bea0001bbda24,67167c13dd87566d3602e731,6719264396d87ffe4e9da6a8,,,,,,,,,,,,,,,,,,,,,,,,,,,140,,,,,,,,,,,,,,,,,,1,1,,,309.7854,7,up,1.2351,311.0472,1,0.3,"[2,1,3]",0.241187957,stimuli/card_100_transparent.png,100,7,0,7,0,1,,,,,,,,,,
,,,,58e558cc728bea0001bbda24,C,2024-10-23_12h38.43.125,Slot Machine Game,2023.1.3,Win32,59.52380952,58e558cc728bea0001bbda24,67167c13dd87566d3602e731,6719264396d87ffe4e9da6a8,,,,,,,,,,,,,,,,,,,,,,,,,,,240,,,,,,,,,,,,,,,,,,1,1,,,312.3487,8,up,0.6749,313.0471,0.5,0.3,"[2,1,3]",0.461741504,stimuli/card_100_transparent.png,100,8,0,8,0,1,,,,,,,,,,
,,,,58e558cc728bea0001bbda24,C,2024-10-23_12h38.43.125,Slot Machine Game,2023.1.3,Win32,59.52380952,58e558cc728bea0001bbda24,67167c13dd87566d3602e731,6719264396d87ffe4e9da6a8,,,,,,,,,,,,,,,,,,,,,,,,,,,340,,,,,,,,,,,,,,,,,,1,1,,,313.8414,9,up,0.6486,314.5124,0.5,0.3,"[2,1,3]",0.217023859,stimuli/card_100_transparent.png,100,9,0,9,0,1,,,,,,,,,,
,,,,58e558cc728bea0001bbda24,C,2024-10-23_12h38.43.125,Slot Machine Game,2023.1.3,Win32,59.52380952,58e558cc728bea0001bbda24,67167c13dd87566d3602e731,6719264396d87ffe4e9da6a8,,,,,,,,,,,,,,,,,,,,,,,,,,,440,,,,,,,,,,,,,,,,,,1,1,,,315.3047,10,up,0.686,316.0147,1.5,0.3,"[2,1,3]",0.789121758,stimuli/card_100_transparent.png,100,10,0,10,0,1,,,,,,,,,,
,,,,58e558cc728bea0001bbda24,C,2024-10-23_12h38.43.125,Slot Machine Game,2023.1.3,Win32,59.52380952,58e558cc728bea0001bbda24,67167c13dd87566d3602e731,6719264396d87ffe4e9da6a8,,,,,,,,,,,,,,,,,,,,,,,,,,,540,,,,,,,,,,,,,,,,,,1,1,,,317.8046,11,up,0.6193,318.4467,1,0.3,"[2,1,3]",0.443057766,stimuli/card_100_transparent.png,100,11,0,11,0,1,,,,,,,,,,
,,,,58e558cc728bea0001bbda24,C,2024-10-23_12h38.43.125,Slot Machine Game,2023.1.3,Win32,59.52380952,58e558cc728bea0001bbda24,67167c13dd87566d3602e731,6719264396d87ffe4e9da6a8,,,,,,,,,,,,,,,,,,,,,,,,,,,540,,,,,,,,,,,,,,,,,,1,1,,,319.7447,12,up,0.5413,320.3046,1,0.3,"[2,3,1]",0.907734754,stimuli/card_0_transparent.png,0,12,0,12,0,1,,,,,,,,,,
,,,,58e558cc728bea0001bbda24,C,2024-10-23_12h38.43.125,Slot Machine Game,2023.1.3,Win32,59.52380952,58e558cc728bea0001bbda24,67167c13dd87566d3602e731,6719264396d87ffe4e9da6a8,,,,,,,,,,,,,,,,,,,,,,,,,,,540,,,,,,,,,,,,,,,,,,1,1,,,321.6056,13,up,0.5443,322.1834,1.5,0.3,"[2,3,1]",0.213184242,stimuli/card_0_transparent.png,0,13,0,13,0,1,,,,,,,,,,
,,,,58e558cc728bea0001bbda24,C,2024-10-23_12h38.43.125,Slot Machine Game,2023.1.3,Win32,59.52380952,58e558cc728bea0001bbda24,67167c13dd87566d3602e731,6719264396d87ffe4e9da6a8,,,,,,,,,,,,,,,,,,,,,,,,,,,540,,,,,,,,,,,,,,,,,,1,1,,,323.9565,14,up,2.9188,326.8878,1.5,0.3,"[2,3,1]",0.491827216,stimuli/card_0_transparent.png,0,14,0,14,0,1,,,,,,,,,,
,,,,58e558cc728bea0001bbda24,C,2024-10-23_12h38.43.125,Slot Machine Game,2023.1.3,Win32,59.52380952,58e558cc728bea0001bbda24,67167c13dd87566d3602e731,6719264396d87ffe4e9da6a8,,,,,,,,,,,,,,,,,,,,,,,,,,,,,,,,,,328.6695,,,,,,,,,,,,,,,,,,,,,,,,,,,,,,,[540],0,0,0,0,1,,,,
,,,,58e558cc728bea0001bbda24,C,2024-10-23_12h38.43.125,Slot Machine Game,2023.1.3,Win32,59.52380952,58e558cc728bea0001bbda24,67167c13dd87566d3602e731,6719264396d87ffe4e9da6a8,,,,,,,,,,,,,,,,,,,,,,,,,,,100,,,,,,,,,,,,,,,,,,2,5,"[5,15]","[[1,2,3],[3,1,2]]",333.6826,0,left,0.9935,334.6985,1,0.3,"[1,2,3]",0.631568748,stimuli/card_100_transparent.png,100,0,0,0,0,1,,,,,,,,,,
,,,,58e558cc728bea0001bbda24,C,2024-10-23_12h38.43.125,Slot Machine Game,2023.1.3,Win32,59.52380952,58e558cc728bea0001bbda24,67167c13dd87566d3602e731,6719264396d87ffe4e9da6a8,,,,,,,,,,,,,,,,,,,,,,,,,,,110,,,,,,,,,,,,,,,,,,2,5,,,335.9694,1,left,0.8919,336.886,1,0.3,"[1,2,3]",0.102335828,stimuli/card_10_transparent.png,10,1,0,1,0,1,,,,,,,,,,
,,,,58e558cc728bea0001bbda24,C,2024-10-23_12h38.43.125,Slot Machine Game,2023.1.3,Win32,59.52380952,58e558cc728bea0001bbda24,67167c13dd87566d3602e731,6719264396d87ffe4e9da6a8,,,,,,,,,,,,,,,,,,,,,,,,,,,210,,,,,,,,,,,,,,,,,,2,5,,,338.1612,2,left,1.308,339.4864,1.5,0.3,"[1,2,3]",0.418360556,stimuli/card_100_transparent.png,100,2,0,2,0,1,,,,,,,,,,
,,,,58e558cc728bea0001bbda24,C,2024-10-23_12h38.43.125,Slot Machine Game,2023.1.3,Win32,59.52380952,58e558cc728bea0001bbda24,67167c13dd87566d3602e731,6719264396d87ffe4e9da6a8,,,,,,,,,,,,,,,,,,,,,,,,,,,310,,,,,,,,,,,,,,,,,,2,5,,,341.3062,3,left,1.1438,342.482,1,0.3,"[1,2,3]",0.632413461,stimuli/card_100_transparent.png,100,3,0,3,0,1,,,,,,,,,,
,,,,58e558cc728bea0001bbda24,C,2024-10-23_12h38.43.125,Slot Machine Game,2023.1.3,Win32,59.52380952,58e558cc728bea0001bbda24,67167c13dd87566d3602e731,6719264396d87ffe4e9da6a8,,,,,,,,,,,,,,,,,,,,,,,,,,,410,,,,,,,,,,,,,,,,,,2,5,,,343.78,4,left,1.1326,344.9506,1.5,0.3,"[1,2,3]",0.337680847,stimuli/card_100_transparent.png,100,4,0,4,0,1,,,,,,,,,,
,,,,58e558cc728bea0001bbda24,C,2024-10-23_12h38.43.125,Slot Machine Game,2023.1.3,Win32,59.52380952,58e558cc728bea0001bbda24,67167c13dd87566d3602e731,6719264396d87ffe4e9da6a8,,,,,,,,,,,,,,,,,,,,,,,,,,,420,,,,,,,,,,,,,,,,,,2,5,,,346.7333,5,left,1.2106,347.9617,0.5,0.3,"[3,1,2]",0.141773596,stimuli/card_10_transparent.png,10,5,0,5,0,1,,,,,,,,,,
,,,,58e558cc728bea0001bbda24,C,2024-10-23_12h38.43.125,Slot Machine Game,2023.1.3,Win32,59.52380952,58e558cc728bea0001bbda24,67167c13dd87566d3602e731,6719264396d87ffe4e9da6a8,,,,,,,,,,,,,,,,,,,,,,,,,,,420,,,,,,,,,,,,,,,,,,2,5,,,348.7447,6,left,1.3948,350.1774,1,0.3,"[3,1,2]",0.694555275,stimuli/card_0_transparent.png,0,6,0,6,0,1,,,,,,,,,,
,,,,58e558cc728bea0001bbda24,C,2024-10-23_12h38.43.125,Slot Machine Game,2023.1.3,Win32,59.52380952,58e558cc728bea0001bbda24,67167c13dd87566d3602e731,6719264396d87ffe4e9da6a8,,,,,,,,,,,,,,,,,,,,,,,,,,,520,,,,,,,,,,,,,,,,,,2,5,,,351.478,7,up,1.3094,352.8132,0.5,0.3,"[3,1,2]",0.585838492,stimuli/card_100_transparent.png,100,7,0,7,0,1,,,,,,,,,,
,,,,58e558cc728bea0001bbda24,C,2024-10-23_12h38.43.125,Slot Machine Game,2023.1.3,Win32,59.52380952,58e558cc728bea0001bbda24,67167c13dd87566d3602e731,6719264396d87ffe4e9da6a8,,,,,,,,,,,,,,,,,,,,,,,,,,,620,,,,,,,,,,,,,,,,,,2,5,,,353.6069,8,up,0.9956,354.6263,0.5,0.3,"[3,1,2]",0.635104915,stimuli/card_100_transparent.png,100,8,0,8,0,1,,,,,,,,,,
,,,,58e558cc728bea0001bbda24,C,2024-10-23_12h38.43.125,Slot Machine Game,2023.1.3,Win32,59.52380952,58e558cc728bea0001bbda24,67167c13dd87566d3602e731,6719264396d87ffe4e9da6a8,,,,,,,,,,,,,,,,,,,,,,,,,,,720,,,,,,,,,,,,,,,,,,2,5,,,355.4302,9,up,0.7814,356.2422,1,0.3,"[3,1,2]",0.401489306,stimuli/card_100_transparent.png,100,9,0,9,0,1,,,,,,,,,,
,,,,58e558cc728bea0001bbda24,C,2024-10-23_12h38.43.125,Slot Machine Game,2023.1.3,Win32,59.52380952,58e558cc728bea0001bbda24,67167c13dd87566d3602e731,6719264396d87ffe4e9da6a8,,,,,,,,,,,,,,,,,,,,,,,,,,,820,,,,,,,,,,,,,,,,,,2,5,,,357.5422,10,up,0.6426,358.2104,1.5,0.3,"[3,1,2]",0.677313474,stimuli/card_100_transparent.png,100,10,0,10,0,1,,,,,,,,,,
,,,,58e558cc728bea0001bbda24,C,2024-10-23_12h38.43.125,Slot Machine Game,2023.1.3,Win32,59.52380952,58e558cc728bea0001bbda24,67167c13dd87566d3602e731,6719264396d87ffe4e9da6a8,,,,,,,,,,,,,,,,,,,,,,,,,,,920,,,,,,,,,,,,,,,,,,2,5,,,360.0008,11,up,0.6179,360.6695,1,0.3,"[3,1,2]",0.235453104,stimuli/card_100_transparent.png,100,11,0,11,0,1,,,,,,,,,,
,,,,58e558cc728bea0001bbda24,C,2024-10-23_12h38.43.125,Slot Machine Game,2023.1.3,Win32,59.52380952,58e558cc728bea0001bbda24,67167c13dd87566d3602e731,6719264396d87ffe4e9da6a8,,,,,,,,,,,,,,,,,,,,,,,,,,,1020,,,,,,,,,,,,,,,,,,2,5,,,361.9628,12,up,0.7044,362.7143,1.5,0.3,"[3,1,2]",0.863790403,stimuli/card_100_transparent.png,100,12,0,12,0,1,,,,,,,,,,
,,,,58e558cc728bea0001bbda24,C,2024-10-23_12h38.43.125,Slot Machine Game,2023.1.3,Win32,59.52380952,58e558cc728bea0001bbda24,67167c13dd87566d3602e731,6719264396d87ffe4e9da6a8,,,,,,,,,,,,,,,,,,,,,,,,,,,1120,,,,,,,,,,,,,,,,,,2,5,,,364.5038,13,up,0.7654,365.2904,1.5,0.3,"[3,1,2]",0.778328262,stimuli/card_100_transparent.png,100,13,0,13,0,1,,,,,,,,,,
,,,,58e558cc728bea0001bbda24,C,2024-10-23_12h38.43.125,Slot Machine Game,2023.1.3,Win32,59.52380952,58e558cc728bea0001bbda24,67167c13dd87566d3602e731,6719264396d87ffe4e9da6a8,,,,,,,,,,,,,,,,,,,,,,,,,,,1220,,,,,,,,,,,,,,,,,,2,5,,,367.0936,14,up,0.6017,367.7242,0.5,0.3,"[3,1,2]",0.721121112,stimuli/card_100_transparent.png,100,14,0,14,0,1,,,,,,,,,,
,,,,58e558cc728bea0001bbda24,C,2024-10-23_12h38.43.125,Slot Machine Game,2023.1.3,Win32,59.52380952,58e558cc728bea0001bbda24,67167c13dd87566d3602e731,6719264396d87ffe4e9da6a8,,,,,,,,,,,,,,,,,,,,,,,,,,,,,,,,,,368.5132,,,,,,,,,,,,,,,,,,,,,,,,,,,,,,,"[540,1220]",1,0,1,0,1,,,,
,,,,58e558cc728bea0001bbda24,C,2024-10-23_12h38.43.125,Slot Machine Game,2023.1.3,Win32,59.52380952,58e558cc728bea0001bbda24,67167c13dd87566d3602e731,6719264396d87ffe4e9da6a8,,,,,,,,,,,,,,,,,,,,,,,,,,,10,,,,,,,,,,,,,,,,,,3,7,"[9,15]","[[1,3,2],[2,3,1]]",373.5069,0,right,1.1018,374.646,0.5,0.3,"[1,3,2]",0.751463202,stimuli/card_10_transparent.png,10,0,0,0,0,1,,,,,,,,,,
,,,,58e558cc728bea0001bbda24,C,2024-10-23_12h38.43.125,Slot Machine Game,2023.1.3,Win32,59.52380952,58e558cc728bea0001bbda24,67167c13dd87566d3602e731,6719264396d87ffe4e9da6a8,,,,,,,,,,,,,,,,,,,,,,,,,,,10,,,,,,,,,,,,,,,,,,3,7,,,375.4489,1,up,1.6988,377.1723,1.5,0.3,"[1,3,2]",0.261399889,stimuli/card_0_transparent.png,0,1,0,1,0,1,,,,,,,,,,
,,,,58e558cc728bea0001bbda24,C,2024-10-23_12h38.43.125,Slot Machine Game,2023.1.3,Win32,59.52380952,58e558cc728bea0001bbda24,67167c13dd87566d3602e731,6719264396d87ffe4e9da6a8,,,,,,,,,,,,,,,,,,,,,,,,,,,110,,,,,,,,,,,,,,,,,,3,7,,,378.9654,2,left,0.5962,379.5794,0.5,0.3,"[1,3,2]",0.660723327,stimuli/card_100_transparent.png,100,2,0,2,0,1,,,,,,,,,,
,,,,58e558cc728bea0001bbda24,C,2024-10-23_12h38.43.125,Slot Machine Game,2023.1.3,Win32,59.52380952,58e558cc728bea0001bbda24,67167c13dd87566d3602e731,6719264396d87ffe4e9da6a8,,,,,,,,,,,,,,,,,,,,,,,,,,,110,,,,,,,,,,,,,,,,,,3,7,,,380.36,3,left,0.6439,381.0438,1.5,0.3,"[1,3,2]",0.029571183,stimuli/card_0_transparent.png,0,3,0,3,0,1,,,,,,,,,,
,,,,58e558cc728bea0001bbda24,C,2024-10-23_12h38.43.125,Slot Machine Game,2023.1.3,Win32,59.52380952,58e558cc728bea0001bbda24,67167c13dd87566d3602e731,6719264396d87ffe4e9da6a8,,,,,,,,,,,,,,,,,,,,,,,,,,,210,,,,,,,,,,,,,,,,,,3,7,,,382.8335,4,left,0.7279,383.581,1,0.3,"[1,3,2]",0.781670007,stimuli/card_100_transparent.png,100,4,0,4,0,1,,,,,,,,,,
,,,,58e558cc728bea0001bbda24,C,2024-10-23_12h38.43.125,Slot Machine Game,2023.1.3,Win32,59.52380952,58e558cc728bea0001bbda24,67167c13dd87566d3602e731,6719264396d87ffe4e9da6a8,,,,,,,,,,,,,,,,,,,,,,,,,,,310,,,,,,,,,,,,,,,,,,3,7,,,384.8809,5,left,0.6438,385.5616,0.5,0.3,"[1,3,2]",0.251217553,stimuli/card_100_transparent.png,100,5,0,5,0,1,,,,,,,,,,
,,,,58e558cc728bea0001bbda24,C,2024-10-23_12h38.43.125,Slot Machine Game,2023.1.3,Win32,59.52380952,58e558cc728bea0001bbda24,67167c13dd87566d3602e731,6719264396d87ffe4e9da6a8,,,,,,,,,,,,,,,,,,,,,,,,,,,410,,,,,,,,,,,,,,,,,,3,7,,,386.3591,6,left,0.8907,387.2893,0.5,0.3,"[1,3,2]",0.812193843,stimuli/card_100_transparent.png,100,6,0,6,0,1,,,,,,,,,,
,,,,58e558cc728bea0001bbda24,C,2024-10-23_12h38.43.125,Slot Machine Game,2023.1.3,Win32,59.52380952,58e558cc728bea0001bbda24,67167c13dd87566d3602e731,6719264396d87ffe4e9da6a8,,,,,,,,,,,,,,,,,,,,,,,,,,,510,,,,,,,,,,,,,,,,,,3,7,,,388.0916,7,left,0.8405,388.9574,0.5,0.3,"[1,3,2]",0.746810452,stimuli/card_100_transparent.png,100,7,0,7,0,1,,,,,,,,,,
,,,,58e558cc728bea0001bbda24,C,2024-10-23_12h38.43.125,Slot Machine Game,2023.1.3,Win32,59.52380952,58e558cc728bea0001bbda24,67167c13dd87566d3602e731,6719264396d87ffe4e9da6a8,,,,,,,,,,,,,,,,,,,,,,,,,,,610,,,,,,,,,,,,,,,,,,3,7,,,389.7488,8,left,0.7665,390.5527,1,0.3,"[1,3,2]",0.563800269,stimuli/card_100_transparent.png,100,8,0,8,0,1,,,,,,,,,,
,,,,58e558cc728bea0001bbda24,C,2024-10-23_12h38.43.125,Slot Machine Game,2023.1.3,Win32,59.52380952,58e558cc728bea0001bbda24,67167c13dd87566d3602e731,6719264396d87ffe4e9da6a8,,,,,,,,,,,,,,,,,,,,,,,,,,,620,,,,,,,,,,,,,,,,,,3,7,,,391.8579,9,left,0.6518,392.545,1,0.3,"[2,3,1]",0.631166425,stimuli/card_10_transparent.png,10,9,0,9,0,1,,,,,,,,,,
,,,,58e558cc728bea0001bbda24,C,2024-10-23_12h38.43.125,Slot Machine Game,2023.1.3,Win32,59.52380952,58e558cc728bea0001bbda24,67167c13dd87566d3602e731,6719264396d87ffe4e9da6a8,,,,,,,,,,,,,,,,,,,,,,,,,,,630,,,,,,,,,,,,,,,,,,3,7,,,393.8488,10,left,0.7364,394.6075,1.5,0.3,"[2,3,1]",0.257306697,stimuli/card_10_transparent.png,10,10,0,10,0,1,,,,,,,,,,
,,,,58e558cc728bea0001bbda24,C,2024-10-23_12h38.43.125,Slot Machine Game,2023.1.3,Win32,59.52380952,58e558cc728bea0001bbda24,67167c13dd87566d3602e731,6719264396d87ffe4e9da6a8,,,,,,,,,,,,,,,,,,,,,,,,,,,640,,,,,,,,,,,,,,,,,,3,7,,,396.4037,11,right,2.3349,398.7814,1.5,0.3,"[2,3,1]",0.196807468,stimuli/card_10_transparent.png,10,11,0,11,0,1,,,,,,,,,,
,,,,58e558cc728bea0001bbda24,C,2024-10-23_12h38.43.125,Slot Machine Game,2023.1.3,Win32,59.52380952,58e558cc728bea0001bbda24,67167c13dd87566d3602e731,6719264396d87ffe4e9da6a8,,,,,,,,,,,,,,,,,,,,,,,,,,,640,,,,,,,,,,,,,,,,,,3,7,,,400.5809,12,up,1.3625,401.9673,0.5,0.3,"[2,3,1]",0.408576882,stimuli/card_0_transparent.png,0,12,0,12,0,1,,,,,,,,,,
,,,,58e558cc728bea0001bbda24,C,2024-10-23_12h38.43.125,Slot Machine Game,2023.1.3,Win32,59.52380952,58e558cc728bea0001bbda24,67167c13dd87566d3602e731,6719264396d87ffe4e9da6a8,,,,,,,,,,,,,,,,,,,,,,,,,,,740,,,,,,,,,,,,,,,,,,3,7,,,402.7831,13,right,1.2494,404.0612,1,0.3,"[2,3,1]",0.815193516,stimuli/card_100_transparent.png,100,13,0,13,0,1,,,,,,,,,,
,,,,58e558cc728bea0001bbda24,C,2024-10-23_12h38.43.125,Slot Machine Game,2023.1.3,Win32,59.52380952,58e558cc728bea0001bbda24,67167c13dd87566d3602e731,6719264396d87ffe4e9da6a8,,,,,,,,,,,,,,,,,,,,,,,,,,,840,,,,,,,,,,,,,,,,,,3,7,,,405.3588,14,right,0.6276,406.0026,0.5,0.3,"[2,3,1]",0.968580724,stimuli/card_100_transparent.png,100,14,0,14,0,1,,,,,,,,,,
,,,,58e558cc728bea0001bbda24,C,2024-10-23_12h38.43.125,Slot Machine Game,2023.1.3,Win32,59.52380952,58e558cc728bea0001bbda24,67167c13dd87566d3602e731,6719264396d87ffe4e9da6a8,,,,,,,,,,,,,,,,,,,,,,,,,,,,,,,,,,406.8134,,,,,,,,,,,,,,,,,,,,,,,,,,,,,,,"[540,1220,840]",2,0,2,0,1,,,,
,,,,58e558cc728bea0001bbda24,C,2024-10-23_12h38.43.125,Slot Machine Game,2023.1.3,Win32,59.52380952,58e558cc728bea0001bbda24,67167c13dd87566d3602e731,6719264396d87ffe4e9da6a8,,,,,,,,,,,,,,,,,,,,,,,,,,,0,,,,,,,,,,,,,,,,,,4,4,"[7,15]","[[2,3,1],[1,2,3]]",411.8249,0,up,1.6673,413.5181,1,0.3,"[2,3,1]",0.346918219,stimuli/card_0_transparent.png,0,0,0,0,0,1,,,,,,,,,,
,,,,58e558cc728bea0001bbda24,C,2024-10-23_12h38.43.125,Slot Machine Game,2023.1.3,Win32,59.52380952,58e558cc728bea0001bbda24,67167c13dd87566d3602e731,6719264396d87ffe4e9da6a8,,,,,,,,,,,,,,,,,,,,,,,,,,,100,,,,,,,,,,,,,,,,,,4,4,,,414.7953,1,right,1.2269,416.0551,1.5,0.3,"[2,3,1]",0.545939821,stimuli/card_100_transparent.png,100,1,0,1,0,1,,,,,,,,,,
,,,,58e558cc728bea0001bbda24,C,2024-10-23_12h38.43.125,Slot Machine Game,2023.1.3,Win32,59.52380952,58e558cc728bea0001bbda24,67167c13dd87566d3602e731,6719264396d87ffe4e9da6a8,,,,,,,,,,,,,,,,,,,,,,,,,,,200,,,,,,,,,,,,,,,,,,4,4,,,417.8443,2,right,0.6774,418.5409,0.5,0.3,"[2,3,1]",0.485769123,stimuli/card_100_transparent.png,100,2,0,2,0,1,,,,,,,,,,
,,,,58e558cc728bea0001bbda24,C,2024-10-23_12h38.43.125,Slot Machine Game,2023.1.3,Win32,59.52380952,58e558cc728bea0001bbda24,67167c13dd87566d3602e731,6719264396d87ffe4e9da6a8,,,,,,,,,,,,,,,,,,,,,,,,,,,300,,,,,,,,,,,,,,,,,,4,4,,,419.3406,3,right,1.2106,420.5779,1.5,0.3,"[2,3,1]",0.500836029,stimuli/card_100_transparent.png,100,3,0,3,0,1,,,,,,,,,,
,,,,58e558cc728bea0001bbda24,C,2024-10-23_12h38.43.125,Slot Machine Game,2023.1.3,Win32,59.52380952,58e558cc728bea0001bbda24,67167c13dd87566d3602e731,6719264396d87ffe4e9da6a8,,,,,,,,,,,,,,,,,,,,,,,,,,,400,,,,,,,,,,,,,,,,,,4,4,,,422.3771,4,right,1.0525,423.4671,0.5,0.3,"[2,3,1]",0.216014223,stimuli/card_100_transparent.png,100,4,0,4,0,1,,,,,,,,,,
,,,,58e558cc728bea0001bbda24,C,2024-10-23_12h38.43.125,Slot Machine Game,2023.1.3,Win32,59.52380952,58e558cc728bea0001bbda24,67167c13dd87566d3602e731,6719264396d87ffe4e9da6a8,,,,,,,,,,,,,,,,,,,,,,,,,,,500,,,,,,,,,,,,,,,,,,4,4,,,424.2575,5,right,0.9252,425.2009,1,0.3,"[2,3,1]",0.331367598,stimuli/card_100_transparent.png,100,5,0,5,0,1,,,,,,,,,,
,,,,58e558cc728bea0001bbda24,C,2024-10-23_12h38.43.125,Slot Machine Game,2023.1.3,Win32,59.52380952,58e558cc728bea0001bbda24,67167c13dd87566d3602e731,6719264396d87ffe4e9da6a8,,,,,,,,,,,,,,,,,,,,,,,,,,,600,,,,,,,,,,,,,,,,,,4,4,,,426.5045,6,right,0.9964,427.5253,1,0.3,"[2,3,1]",0.698022657,stimuli/card_100_transparent.png,100,6,0,6,0,1,,,,,,,,,,
,,,,58e558cc728bea0001bbda24,C,2024-10-23_12h38.43.125,Slot Machine Game,2023.1.3,Win32,59.52380952,58e558cc728bea0001bbda24,67167c13dd87566d3602e731,6719264396d87ffe4e9da6a8,,,,,,,,,,,,,,,,,,,,,,,,,,,600,,,,,,,,,,,,,,,,,,4,4,,,428.8146,7,right,0.958,429.7882,1,0.3,"[1,2,3]",0.65129134,stimuli/card_0_transparent.png,0,7,0,7,0,1,,,,,,,,,,
,,,,58e558cc728bea0001bbda24,C,2024-10-23_12h38.43.125,Slot Machine Game,2023.1.3,Win32,59.52380952,58e558cc728bea0001bbda24,67167c13dd87566d3602e731,6719264396d87ffe4e9da6a8,,,,,,,,,,,,,,,,,,,,,,,,,,,600,,,,,,,,,,,,,,,,,,4,4,,,431.0877,8,right,0.8526,431.9734,1,0.3,"[1,2,3]",0.204149745,stimuli/card_0_transparent.png,0,8,0,8,0,1,,,,,,,,,,
,,,,58e558cc728bea0001bbda24,C,2024-10-23_12h38.43.125,Slot Machine Game,2023.1.3,Win32,59.52380952,58e558cc728bea0001bbda24,67167c13dd87566d3602e731,6719264396d87ffe4e9da6a8,,,,,,,,,,,,,,,,,,,,,,,,,,,610,,,,,,,,,,,,,,,,,,4,4,,,433.2647,9,left,1.2439,434.5279,1,0.3,"[1,2,3]",0.139744585,stimuli/card_10_transparent.png,10,9,0,9,0,1,,,,,,,,,,
,,,,58e558cc728bea0001bbda24,C,2024-10-23_12h38.43.125,Slot Machine Game,2023.1.3,Win32,59.52380952,58e558cc728bea0001bbda24,67167c13dd87566d3602e731,6719264396d87ffe4e9da6a8,,,,,,,,,,,,,,,,,,,,,,,,,,,620,,,,,,,,,,,,,,,,,,4,4,,,435.8203,10,up,1.6139,437.4502,1.5,0.3,"[1,2,3]",0.511235288,stimuli/card_10_transparent.png,10,10,0,10,0,1,,,,,,,,,,
,,,,58e558cc728bea0001bbda24,C,2024-10-23_12h38.43.125,Slot Machine Game,2023.1.3,Win32,59.52380952,58e558cc728bea0001bbda24,67167c13dd87566d3602e731,6719264396d87ffe4e9da6a8,,,,,,,,,,,,,,,,,,,,,,,,,,,720,,,,,,,,,,,,,,,,,,4,4,,,439.2358,11,left,1.0695,440.334,0.5,0.3,"[1,2,3]",0.874155689,stimuli/card_100_transparent.png,100,11,0,11,0,1,,,,,,,,,,
,,,,58e558cc728bea0001bbda24,C,2024-10-23_12h38.43.125,Slot Machine Game,2023.1.3,Win32,59.52380952,58e558cc728bea0001bbda24,67167c13dd87566d3602e731,6719264396d87ffe4e9da6a8,,,,,,,,,,,,,,,,,,,,,,,,,,,820,,,,,,,,,,,,,,,,,,4,4,,,441.1366,12,left,0.8444,441.9975,1,0.3,"[1,2,3]",0.279790994,stimuli/card_100_transparent.png,100,12,0,12,0,1,,,,,,,,,,
,,,,58e558cc728bea0001bbda24,C,2024-10-23_12h38.43.125,Slot Machine Game,2023.1.3,Win32,59.52380952,58e558cc728bea0001bbda24,67167c13dd87566d3602e731,6719264396d87ffe4e9da6a8,,,,,,,,,,,,,,,,,,,,,,,,,,,920,,,,,,,,,,,,,,,,,,4,4,,,443.292,13,left,0.5653,443.8921,0.5,0.3,"[1,2,3]",0.775385926,stimuli/card_100_transparent.png,100,13,0,13,0,1,,,,,,,,,,
,,,,58e558cc728bea0001bbda24,C,2024-10-23_12h38.43.125,Slot Machine Game,2023.1.3,Win32,59.52380952,58e558cc728bea0001bbda24,67167c13dd87566d3602e731,6719264396d87ffe4e9da6a8,,,,,,,,,,,,,,,,,,,,,,,,,,,930,,,,,,,,,,,,,,,,,,4,4,,,444.6986,14,left,0.6449,445.3778,0.5,0.3,"[1,2,3]",0.145582646,stimuli/card_10_transparent.png,10,14,0,14,0,1,,,,,,,,,,
,,,,58e558cc728bea0001bbda24,C,2024-10-23_12h38.43.125,Slot Machine Game,2023.1.3,Win32,59.52380952,58e558cc728bea0001bbda24,67167c13dd87566d3602e731,6719264396d87ffe4e9da6a8,,,,,,,,,,,,,,,,,,,,,,,,,,,,,,,,,,446.1834,,,,,,,,,,,,,,,,,,,,,,,,,,,,,,,"[540,1220,840,930]",3,0,3,0,1,,,,
,,,,58e558cc728bea0001bbda24,C,2024-10-23_12h38.43.125,Slot Machine Game,2023.1.3,Win32,59.52380952,58e558cc728bea0001bbda24,67167c13dd87566d3602e731,6719264396d87ffe4e9da6a8,,,,,,,,,,,,,,,,,,,,,,,,,,,100,,,,,,,,,,,,,,,,,,5,6,"[4,10,15]","[[2,3,1],[1,3,2],[3,2,1]]",451.1762,0,up,1.3456,452.5512,1,0.3,"[2,3,1]",0.005561776,stimuli/card_100_transparent.png,100,0,0,0,0,1,,,,,,,,,,
,,,,58e558cc728bea0001bbda24,C,2024-10-23_12h38.43.125,Slot Machine Game,2023.1.3,Win32,59.52380952,58e558cc728bea0001bbda24,67167c13dd87566d3602e731,6719264396d87ffe4e9da6a8,,,,,,,,,,,,,,,,,,,,,,,,,,,100,,,,,,,,,,,,,,,,,,5,6,,,453.8394,1,up,0.6137,454.4676,1,0.3,"[2,3,1]",0.766723078,stimuli/card_0_transparent.png,0,1,0,1,0,1,,,,,,,,,,
,,,,58e558cc728bea0001bbda24,C,2024-10-23_12h38.43.125,Slot Machine Game,2023.1.3,Win32,59.52380952,58e558cc728bea0001bbda24,67167c13dd87566d3602e731,6719264396d87ffe4e9da6a8,,,,,,,,,,,,,,,,,,,,,,,,,,,100,,,,,,,,,,,,,,,,,,5,6,,,455.7744,2,up,0.5539,456.3467,1,0.3,"[2,3,1]",0.732759458,stimuli/card_0_transparent.png,0,2,0,2,0,1,,,,,,,,,,
,,,,58e558cc728bea0001bbda24,C,2024-10-23_12h38.43.125,Slot Machine Game,2023.1.3,Win32,59.52380952,58e558cc728bea0001bbda24,67167c13dd87566d3602e731,6719264396d87ffe4e9da6a8,,,,,,,,,,,,,,,,,,,,,,,,,,,100,,,,,,,,,,,,,,,,,,5,6,,,457.6249,3,up,2.4477,460.1067,1,0.3,"[2,3,1]",0.542584343,stimuli/card_0_transparent.png,0,3,0,3,0,1,,,,,,,,,,
,,,,58e558cc728bea0001bbda24,C,2024-10-23_12h38.43.125,Slot Machine Game,2023.1.3,Win32,59.52380952,58e558cc728bea0001bbda24,67167c13dd87566d3602e731,6719264396d87ffe4e9da6a8,,,,,,,,,,,,,,,,,,,,,,,,,,,200,,,,,,,,,,,,,,,,,,5,6,,,461.3935,4,left,0.9255,462.3567,1.5,0.3,"[1,3,2]",0.634977211,stimuli/card_100_transparent.png,100,4,0,4,0,1,,,,,,,,,,
,,,,58e558cc728bea0001bbda24,C,2024-10-23_12h38.43.125,Slot Machine Game,2023.1.3,Win32,59.52380952,58e558cc728bea0001bbda24,67167c13dd87566d3602e731,6719264396d87ffe4e9da6a8,,,,,,,,,,,,,,,,,,,,,,,,,,,300,,,,,,,,,,,,,,,,,,5,6,,,464.1495,5,left,0.5437,464.7252,1,0.3,"[1,3,2]",0.567061311,stimuli/card_100_transparent.png,100,5,0,5,0,1,,,,,,,,,,
,,,,58e558cc728bea0001bbda24,C,2024-10-23_12h38.43.125,Slot Machine Game,2023.1.3,Win32,59.52380952,58e558cc728bea0001bbda24,67167c13dd87566d3602e731,6719264396d87ffe4e9da6a8,,,,,,,,,,,,,,,,,,,,,,,,,,,400,,,,,,,,,,,,,,,,,,5,6,,,466.0483,6,left,1.2934,467.3607,1.5,0.3,"[1,3,2]",0.559479927,stimuli/card_100_transparent.png,100,6,0,6,0,1,,,,,,,,,,
,,,,58e558cc728bea0001bbda24,C,2024-10-23_12h38.43.125,Slot Machine Game,2023.1.3,Win32,59.52380952,58e558cc728bea0001bbda24,67167c13dd87566d3602e731,6719264396d87ffe4e9da6a8,,,,,,,,,,,,,,,,,,,,,,,,,,,500,,,,,,,,,,,,,,,,,,5,6,,,469.145,7,left,0.5241,469.6853,1.5,0.3,"[1,3,2]",0.315544753,stimuli/card_100_transparent.png,100,7,0,7,0,1,,,,,,,,,,
,,,,58e558cc728bea0001bbda24,C,2024-10-23_12h38.43.125,Slot Machine Game,2023.1.3,Win32,59.52380952,58e558cc728bea0001bbda24,67167c13dd87566d3602e731,6719264396d87ffe4e9da6a8,,,,,,,,,,,,,,,,,,,,,,,,,,,510,,,,,,,,,,,,,,,,,,5,6,,,471.48,8,left,1.678,473.2016,1,0.3,"[1,3,2]",0.106882786,stimuli/card_10_transparent.png,10,8,0,8,0,1,,,,,,,,,,
,,,,58e558cc728bea0001bbda24,C,2024-10-23_12h38.43.125,Slot Machine Game,2023.1.3,Win32,59.52380952,58e558cc728bea0001bbda24,67167c13dd87566d3602e731,6719264396d87ffe4e9da6a8,,,,,,,,,,,,,,,,,,,,,,,,,,,610,,,,,,,,,,,,,,,,,,5,6,,,474.483,9,left,1.1743,475.6902,1,0.3,"[1,3,2]",0.325508819,stimuli/card_100_transparent.png,100,9,0,9,0,1,,,,,,,,,,
,,,,58e558cc728bea0001bbda24,C,2024-10-23_12h38.43.125,Slot Machine Game,2023.1.3,Win32,59.52380952,58e558cc728bea0001bbda24,67167c13dd87566d3602e731,6719264396d87ffe4e9da6a8,,,,,,,,,,,,,,,,,,,,,,,,,,,610,,,,,,,,,,,,,,,,,,5,6,,,476.9896,10,left,0.6552,477.6786,1,0.3,"[3,2,1]",0.401602317,stimuli/card_0_transparent.png,0,10,0,10,0,1,,,,,,,,,,
,,,,58e558cc728bea0001bbda24,C,2024-10-23_12h38.43.125,Slot Machine Game,2023.1.3,Win32,59.52380952,58e558cc728bea0001bbda24,67167c13dd87566d3602e731,6719264396d87ffe4e9da6a8,,,,,,,,,,,,,,,,,,,,,,,,,,,610,,,,,,,,,,,,,,,,,,5,6,,,478.983,11,left,0.9539,479.9636,0.5,0.3,"[3,2,1]",0.761072595,stimuli/card_0_transparent.png,0,11,0,11,0,1,,,,,,,,,,
,,,,58e558cc728bea0001bbda24,C,2024-10-23_12h38.43.125,Slot Machine Game,2023.1.3,Win32,59.52380952,58e558cc728bea0001bbda24,67167c13dd87566d3602e731,6719264396d87ffe4e9da6a8,,,,,,,,,,,,,,,,,,,,,,,,,,,710,,,,,,,,,,,,,,,,,,5,6,,,480.7524,12,right,0.6999,481.48,1,0.3,"[3,2,1]",0.246056835,stimuli/card_100_transparent.png,100,12,0,12,0,1,,,,,,,,,,
,,,,58e558cc728bea0001bbda24,C,2024-10-23_12h38.43.125,Slot Machine Game,2023.1.3,Win32,59.52380952,58e558cc728bea0001bbda24,67167c13dd87566d3602e731,6719264396d87ffe4e9da6a8,,,,,,,,,,,,,,,,,,,,,,,,,,,810,,,,,,,,,,,,,,,,,,5,6,,,482.7939,13,right,0.6423,483.4612,0.5,0.3,"[3,2,1]",0.356396826,stimuli/card_100_transparent.png,100,13,0,13,0,1,,,,,,,,,,
,,,,58e558cc728bea0001bbda24,C,2024-10-23_12h38.43.125,Slot Machine Game,2023.1.3,Win32,59.52380952,58e558cc728bea0001bbda24,67167c13dd87566d3602e731,6719264396d87ffe4e9da6a8,,,,,,,,,,,,,,,,,,,,,,,,,,,910,,,,,,,,,,,,,,,,,,5,6,,,484.2656,14,right,0.9689,485.2599,1,0.3,"[3,2,1]",0.488502225,stimuli/card_100_transparent.png,100,14,0,14,0,1,,,,,,,,,,
,,,,58e558cc728bea0001bbda24,C,2024-10-23_12h38.43.125,Slot Machine Game,2023.1.3,Win32,59.52380952,58e558cc728bea0001bbda24,67167c13dd87566d3602e731,6719264396d87ffe4e9da6a8,,,,,,,,,,,,,,,,,,,,,,,,,,,,,,,,,,486.5417,,,,,,,,,,,,,,,,,,,,,,,,,,,,,,,"[540,1220,840,930,910]",4,0,4,0,1,,,,
,,,,58e558cc728bea0001bbda24,C,2024-10-23_12h38.43.125,Slot Machine Game,2023.1.3,Win32,59.52380952,58e558cc728bea0001bbda24,67167c13dd87566d3602e731,6719264396d87ffe4e9da6a8,,,,,,,,,,,,,,,,,,,,,,,,,,,0,,,,,,,,,,,,,,,,,,6,8,"[11,15]","[[2,1,3],[1,2,3]]",491.5367,0,right,1.935,493.5151,0.5,0.3,"[2,1,3]",0.21113149,stimuli/card_0_transparent.png,0,0,0,0,0,1,,,,,,,,,,
,,,,58e558cc728bea0001bbda24,C,2024-10-23_12h38.43.125,Slot Machine Game,2023.1.3,Win32,59.52380952,58e558cc728bea0001bbda24,67167c13dd87566d3602e731,6719264396d87ffe4e9da6a8,,,,,,,,,,,,,,,,,,,,,,,,,,,100,,,,,,,,,,,,,,,,,,6,8,,,494.3173,1,up,1.2327,495.5802,0.5,0.3,"[2,1,3]",0.952116102,stimuli/card_100_transparent.png,100,1,0,1,0,1,,,,,,,,,,
,,,,58e558cc728bea0001bbda24,C,2024-10-23_12h38.43.125,Slot Machine Game,2023.1.3,Win32,59.52380952,58e558cc728bea0001bbda24,67167c13dd87566d3602e731,6719264396d87ffe4e9da6a8,,,,,,,,,,,,,,,,,,,,,,,,,,,200,,,,,,,,,,,,,,,,,,6,8,,,496.3482,2,up,0.6661,497.0395,1,0.3,"[2,1,3]",0.96469515,stimuli/card_100_transparent.png,100,2,0,2,0,1,,,,,,,,,,
,,,,58e558cc728bea0001bbda24,C,2024-10-23_12h38.43.125,Slot Machine Game,2023.1.3,Win32,59.52380952,58e558cc728bea0001bbda24,67167c13dd87566d3602e731,6719264396d87ffe4e9da6a8,,,,,,,,,,,,,,,,,,,,,,,,,,,300,,,,,,,,,,,,,,,,,,6,8,,,498.3326,3,up,0.5438,498.9,1.5,0.3,"[2,1,3]",0.713123913,stimuli/card_100_transparent.png,100,3,0,3,0,1,,,,,,,,,,
,,,,58e558cc728bea0001bbda24,C,2024-10-23_12h38.43.125,Slot Machine Game,2023.1.3,Win32,59.52380952,58e558cc728bea0001bbda24,67167c13dd87566d3602e731,6719264396d87ffe4e9da6a8,,,,,,,,,,,,,,,,,,,,,,,,,,,300,,,,,,,,,,,,,,,,,,6,8,,,500.6943,4,up,1.4006,502.1426,1,0.3,"[2,1,3]",0.079181939,stimuli/card_0_transparent.png,0,4,0,4,0,1,,,,,,,,,,
,,,,58e558cc728bea0001bbda24,C,2024-10-23_12h38.43.125,Slot Machine Game,2023.1.3,Win32,59.52380952,58e558cc728bea0001bbda24,67167c13dd87566d3602e731,6719264396d87ffe4e9da6a8,,,,,,,,,,,,,,,,,,,,,,,,,,,400,,,,,,,,,,,,,,,,,,6,8,,,503.4437,5,up,0.8359,504.3135,0.5,0.3,"[2,1,3]",0.929121945,stimuli/card_100_transparent.png,100,5,0,5,0,1,,,,,,,,,,
,,,,58e558cc728bea0001bbda24,C,2024-10-23_12h38.43.125,Slot Machine Game,2023.1.3,Win32,59.52380952,58e558cc728bea0001bbda24,67167c13dd87566d3602e731,6719264396d87ffe4e9da6a8,,,,,,,,,,,,,,,,,,,,,,,,,,,500,,,,,,,,,,,,,,,,,,6,8,,,505.1033,6,up,0.7212,505.8489,1,0.3,"[2,1,3]",0.904740045,stimuli/card_100_transparent.png,100,6,0,6,0,1,,,,,,,,,,
,,,,58e558cc728bea0001bbda24,C,2024-10-23_12h38.43.125,Slot Machine Game,2023.1.3,Win32,59.52380952,58e558cc728bea0001bbda24,67167c13dd87566d3602e731,6719264396d87ffe4e9da6a8,,,,,,,,,,,,,,,,,,,,,,,,,,,500,,,,,,,,,,,,,,,,,,6,8,,,507.1659,7,up,0.6187,507.8066,1,0.3,"[2,1,3]",0.028618525,stimuli/card_0_transparent.png,0,7,0,7,0,1,,,,,,,,,,
,,,,58e558cc728bea0001bbda24,C,2024-10-23_12h38.43.125,Slot Machine Game,2023.1.3,Win32,59.52380952,58e558cc728bea0001bbda24,67167c13dd87566d3602e731,6719264396d87ffe4e9da6a8,,,,,,,,,,,,,,,,,,,,,,,,,,,600,,,,,,,,,,,,,,,,,,6,8,,,509.0976,8,up,0.8625,509.9853,1.5,0.3,"[2,1,3]",0.846022422,stimuli/card_100_transparent.png,100,8,0,8,0,1,,,,,,,,,,
,,,,58e558cc728bea0001bbda24,C,2024-10-23_12h38.43.125,Slot Machine Game,2023.1.3,Win32,59.52380952,58e558cc728bea0001bbda24,67167c13dd87566d3602e731,6719264396d87ffe4e9da6a8,,,,,,,,,,,,,,,,,,,,,,,,,,,700,,,,,,,,,,,,,,,,,,6,8,,,511.7694,9,up,0.7172,512.5379,1.5,0.3,"[2,1,3]",0.405495436,stimuli/card_100_transparent.png,100,9,0,9,0,1,,,,,,,,,,
,,,,58e558cc728bea0001bbda24,C,2024-10-23_12h38.43.125,Slot Machine Game,2023.1.3,Win32,59.52380952,58e558cc728bea0001bbda24,67167c13dd87566d3602e731,6719264396d87ffe4e9da6a8,,,,,,,,,,,,,,,,,,,,,,,,,,,800,,,,,,,,,,,,,,,,,,6,8,,,514.3381,10,up,0.5854,514.9481,1.5,0.3,"[2,1,3]",0.330510965,stimuli/card_100_transparent.png,100,10,0,10,0,1,,,,,,,,,,
,,,,58e558cc728bea0001bbda24,C,2024-10-23_12h38.43.125,Slot Machine Game,2023.1.3,Win32,59.52380952,58e558cc728bea0001bbda24,67167c13dd87566d3602e731,6719264396d87ffe4e9da6a8,,,,,,,,,,,,,,,,,,,,,,,,,,,810,,,,,,,,,,,,,,,,,,6,8,,,516.7646,11,up,0.6233,517.4048,1,0.3,"[1,2,3]",0.949588078,stimuli/card_10_transparent.png,10,11,0,11,0,1,,,,,,,,,,
,,,,58e558cc728bea0001bbda24,C,2024-10-23_12h38.43.125,Slot Machine Game,2023.1.3,Win32,59.52380952,58e558cc728bea0001bbda24,67167c13dd87566d3602e731,6719264396d87ffe4e9da6a8,,,,,,,,,,,,,,,,,,,,,,,,,,,820,,,,,,,,,,,,,,,,,,6,8,,,518.6913,12,up,0.9403,519.6591,0.5,0.3,"[1,2,3]",0.412600117,stimuli/card_10_transparent.png,10,12,0,12,0,1,,,,,,,,,,
,,,,58e558cc728bea0001bbda24,C,2024-10-23_12h38.43.125,Slot Machine Game,2023.1.3,Win32,59.52380952,58e558cc728bea0001bbda24,67167c13dd87566d3602e731,6719264396d87ffe4e9da6a8,,,,,,,,,,,,,,,,,,,,,,,,,,,920,,,,,,,,,,,,,,,,,,6,8,,,520.4786,13,left,0.7263,521.2204,0.5,0.3,"[1,2,3]",0.385108266,stimuli/card_100_transparent.png,100,13,0,13,0,1,,,,,,,,,,
,,,,58e558cc728bea0001bbda24,C,2024-10-23_12h38.43.125,Slot Machine Game,2023.1.3,Win32,59.52380952,58e558cc728bea0001bbda24,67167c13dd87566d3602e731,6719264396d87ffe4e9da6a8,,,,,,,,,,,,,,,,,,,,,,,,,,,1020,,,,,,,,,,,,,,,,,,6,8,,,522.0246,14,left,0.7285,522.7762,1.5,0.3,"[1,2,3]",0.245160447,stimuli/card_100_transparent.png,100,14,0,14,0,1,,,,,,,,,,
,,,,58e558cc728bea0001bbda24,C,2024-10-23_12h38.43.125,Slot Machine Game,2023.1.3,Win32,59.52380952,58e558cc728bea0001bbda24,67167c13dd87566d3602e731,6719264396d87ffe4e9da6a8,,,,,,,,,,,,,,,,,,,,,,,,,,,,,,,,,,524.5655,,,,,,,,,,,,,,,,,,,,,,,,,,,,,,,"[540,1220,840,930,910,1020]",5,0,5,0,1,,,,
,,,,58e558cc728bea0001bbda24,C,2024-10-23_12h38.43.125,Slot Machine Game,2023.1.3,Win32,59.52380952,58e558cc728bea0001bbda24,67167c13dd87566d3602e731,6719264396d87ffe4e9da6a8,,,,,,,,,,,,,,,,,,,,,,,,,,,0,,,,,,,,,,,,,,,,,,7,9,"[8,15]","[[3,2,1],[3,1,2]]",529.5694,0,left,1.3585,530.949,1,0.3,"[3,2,1]",0.217826775,stimuli/card_0_transparent.png,0,0,0,0,0,1,,,,,,,,,,
,,,,58e558cc728bea0001bbda24,C,2024-10-23_12h38.43.125,Slot Machine Game,2023.1.3,Win32,59.52380952,58e558cc728bea0001bbda24,67167c13dd87566d3602e731,6719264396d87ffe4e9da6a8,,,,,,,,,,,,,,,,,,,,,,,,,,,10,,,,,,,,,,,,,,,,,,7,9,,,532.2442,1,right,0.7491,533.0165,1.5,0.3,"[3,2,1]",0.163062296,stimuli/card_10_transparent.png,10,1,0,1,0,1,,,,,,,,,,
,,,,58e558cc728bea0001bbda24,C,2024-10-23_12h38.43.125,Slot Machine Game,2023.1.3,Win32,59.52380952,58e558cc728bea0001bbda24,67167c13dd87566d3602e731,6719264396d87ffe4e9da6a8,,,,,,,,,,,,,,,,,,,,,,,,,,,20,,,,,,,,,,,,,,,,,,7,9,,,534.8124,2,up,0.5426,535.3809,1.5,0.3,"[3,2,1]",0.635106017,stimuli/card_10_transparent.png,10,2,0,2,0,1,,,,,,,,,,
,,,,58e558cc728bea0001bbda24,C,2024-10-23_12h38.43.125,Slot Machine Game,2023.1.3,Win32,59.52380952,58e558cc728bea0001bbda24,67167c13dd87566d3602e731,6719264396d87ffe4e9da6a8,,,,,,,,,,,,,,,,,,,,,,,,,,,120,,,,,,,,,,,,,,,,,,7,9,,,537.1696,3,right,0.6684,537.8707,0.5,0.3,"[3,2,1]",0.702546732,stimuli/card_100_transparent.png,100,3,0,3,0,1,,,,,,,,,,
,,,,58e558cc728bea0001bbda24,C,2024-10-23_12h38.43.125,Slot Machine Game,2023.1.3,Win32,59.52380952,58e558cc728bea0001bbda24,67167c13dd87566d3602e731,6719264396d87ffe4e9da6a8,,,,,,,,,,,,,,,,,,,,,,,,,,,220,,,,,,,,,,,,,,,,,,7,9,,,538.6703,4,right,0.6433,539.3386,1,0.3,"[3,2,1]",0.875354388,stimuli/card_100_transparent.png,100,4,0,4,0,1,,,,,,,,,,
,,,,58e558cc728bea0001bbda24,C,2024-10-23_12h38.43.125,Slot Machine Game,2023.1.3,Win32,59.52380952,58e558cc728bea0001bbda24,67167c13dd87566d3602e731,6719264396d87ffe4e9da6a8,,,,,,,,,,,,,,,,,,,,,,,,,,,220,,,,,,,,,,,,,,,,,,7,9,,,540.6381,5,right,0.544,541.2158,0.5,0.3,"[3,2,1]",0.032397257,stimuli/card_0_transparent.png,0,5,0,5,0,1,,,,,,,,,,
,,,,58e558cc728bea0001bbda24,C,2024-10-23_12h38.43.125,Slot Machine Game,2023.1.3,Win32,59.52380952,58e558cc728bea0001bbda24,67167c13dd87566d3602e731,6719264396d87ffe4e9da6a8,,,,,,,,,,,,,,,,,,,,,,,,,,,320,,,,,,,,,,,,,,,,,,7,9,,,542.0178,6,right,0.8418,542.8829,0.5,0.3,"[3,2,1]",0.914274529,stimuli/card_100_transparent.png,100,6,0,6,0,1,,,,,,,,,,
,,,,58e558cc728bea0001bbda24,C,2024-10-23_12h38.43.125,Slot Machine Game,2023.1.3,Win32,59.52380952,58e558cc728bea0001bbda24,67167c13dd87566d3602e731,6719264396d87ffe4e9da6a8,,,,,,,,,,,,,,,,,,,,,,,,,,,420,,,,,,,,,,,,,,,,,,7,9,,,543.6784,7,right,0.7069,544.4087,0.5,0.3,"[3,2,1]",0.795215589,stimuli/card_100_transparent.png,100,7,0,7,0,1,,,,,,,,,,
,,,,58e558cc728bea0001bbda24,C,2024-10-23_12h38.43.125,Slot Machine Game,2023.1.3,Win32,59.52380952,58e558cc728bea0001bbda24,67167c13dd87566d3602e731,6719264396d87ffe4e9da6a8,,,,,,,,,,,,,,,,,,,,,,,,,,,430,,,,,,,,,,,,,,,,,,7,9,,,545.2012,8,right,0.645,545.8792,1.5,0.3,"[3,1,2]",0.442312875,stimuli/card_10_transparent.png,10,8,0,8,0,1,,,,,,,,,,
,,,,58e558cc728bea0001bbda24,C,2024-10-23_12h38.43.125,Slot Machine Game,2023.1.3,Win32,59.52380952,58e558cc728bea0001bbda24,67167c13dd87566d3602e731,6719264396d87ffe4e9da6a8,,,,,,,,,,,,,,,,,,,,,,,,,,,440,,,,,,,,,,,,,,,,,,7,9,,,547.668,9,right,0.6846,548.3951,0.5,0.3,"[3,1,2]",0.352053781,stimuli/card_10_transparent.png,10,9,0,9,0,1,,,,,,,,,,
,,,,58e558cc728bea0001bbda24,C,2024-10-23_12h38.43.125,Slot Machine Game,2023.1.3,Win32,59.52380952,58e558cc728bea0001bbda24,67167c13dd87566d3602e731,6719264396d87ffe4e9da6a8,,,,,,,,,,,,,,,,,,,,,,,,,,,440,,,,,,,,,,,,,,,,,,7,9,,,549.1734,10,left,1.5403,550.7472,1.5,0.3,"[3,1,2]",0.682400351,stimuli/card_0_transparent.png,0,10,0,10,0,1,,,,,,,,,,
,,,,58e558cc728bea0001bbda24,C,2024-10-23_12h38.43.125,Slot Machine Game,2023.1.3,Win32,59.52380952,58e558cc728bea0001bbda24,67167c13dd87566d3602e731,6719264396d87ffe4e9da6a8,,,,,,,,,,,,,,,,,,,,,,,,,,,440,,,,,,,,,,,,,,,,,,7,9,,,552.5533,11,up,1.1047,553.6815,0.5,0.3,"[3,1,2]",0.05121215,stimuli/card_0_transparent.png,0,11,0,11,0,1,,,,,,,,,,
,,,,58e558cc728bea0001bbda24,C,2024-10-23_12h38.43.125,Slot Machine Game,2023.1.3,Win32,59.52380952,58e558cc728bea0001bbda24,67167c13dd87566d3602e731,6719264396d87ffe4e9da6a8,,,,,,,,,,,,,,,,,,,,,,,,,,,540,,,,,,,,,,,,,,,,,,7,9,,,554.4778,12,left,0.9787,555.4849,1,0.3,"[3,1,2]",0.047814666,stimuli/card_100_transparent.png,100,12,0,12,0,1,,,,,,,,,,
,,,,58e558cc728bea0001bbda24,C,2024-10-23_12h38.43.125,Slot Machine Game,2023.1.3,Win32,59.52380952,58e558cc728bea0001bbda24,67167c13dd87566d3602e731,6719264396d87ffe4e9da6a8,,,,,,,,,,,,,,,,,,,,,,,,,,,540,,,,,,,,,,,,,,,,,,7,9,,,556.788,13,left,0.6585,557.4687,1.5,0.3,"[3,1,2]",0.464943356,stimuli/card_0_transparent.png,0,13,0,13,0,1,,,,,,,,,,
,,,,58e558cc728bea0001bbda24,C,2024-10-23_12h38.43.125,Slot Machine Game,2023.1.3,Win32,59.52380952,58e558cc728bea0001bbda24,67167c13dd87566d3602e731,6719264396d87ffe4e9da6a8,,,,,,,,,,,,,,,,,,,,,,,,,,,540,,,,,,,,,,,,,,,,,,7,9,,,559.252,14,left,0.7183,559.9824,1.5,0.3,"[3,1,2]",0.973191406,stimuli/card_0_transparent.png,0,14,0,14,0,1,,,,,,,,,,
,,,,58e558cc728bea0001bbda24,C,2024-10-23_12h38.43.125,Slot Machine Game,2023.1.3,Win32,59.52380952,58e558cc728bea0001bbda24,67167c13dd87566d3602e731,6719264396d87ffe4e9da6a8,,,,,,,,,,,,,,,,,,,,,,,,,,,,,,,,,,561.7803,,,,,,,,,,,,,,,,,,,,,,,,,,,,,,,"[540,1220,840,930,910,1020,540]",6,0,6,0,1,,,,
,,,,58e558cc728bea0001bbda24,C,2024-10-23_12h38.43.125,Slot Machine Game,2023.1.3,Win32,59.52380952,58e558cc728bea0001bbda24,67167c13dd87566d3602e731,6719264396d87ffe4e9da6a8,,,,,,,,,,,,,,,,,,,,,,,,,,,0,,,,,,,,,,,,,,,,,,8,2,"[6,15]","[[1,3,2],[3,2,1]]",566.7716,0,up,1.7775,568.5839,0.5,0.3,"[1,3,2]",0.84083571,stimuli/card_0_transparent.png,0,0,0,0,0,1,,,,,,,,,,
,,,,58e558cc728bea0001bbda24,C,2024-10-23_12h38.43.125,Slot Machine Game,2023.1.3,Win32,59.52380952,58e558cc728bea0001bbda24,67167c13dd87566d3602e731,6719264396d87ffe4e9da6a8,,,,,,,,,,,,,,,,,,,,,,,,,,,100,,,,,,,,,,,,,,,,,,8,2,,,569.3847,1,left,0.7266,570.1399,1.5,0.3,"[1,3,2]",0.76327883,stimuli/card_100_transparent.png,100,1,0,1,0,1,,,,,,,,,,
,,,,58e558cc728bea0001bbda24,C,2024-10-23_12h38.43.125,Slot Machine Game,2023.1.3,Win32,59.52380952,58e558cc728bea0001bbda24,67167c13dd87566d3602e731,6719264396d87ffe4e9da6a8,,,,,,,,,,,,,,,,,,,,,,,,,,,200,,,,,,,,,,,,,,,,,,8,2,,,571.9281,2,left,0.5679,572.5086,1.5,0.3,"[1,3,2]",0.376734061,stimuli/card_100_transparent.png,100,2,0,2,0,1,,,,,,,,,,
,,,,58e558cc728bea0001bbda24,C,2024-10-23_12h38.43.125,Slot Machine Game,2023.1.3,Win32,59.52380952,58e558cc728bea0001bbda24,67167c13dd87566d3602e731,6719264396d87ffe4e9da6a8,,,,,,,,,,,,,,,,,,,,,,,,,,,300,,,,,,,,,,,,,,,,,,8,2,,,574.2971,3,left,0.6458,574.966,1,0.3,"[1,3,2]",0.297996481,stimuli/card_100_transparent.png,100,3,0,3,0,1,,,,,,,,,,
,,,,58e558cc728bea0001bbda24,C,2024-10-23_12h38.43.125,Slot Machine Game,2023.1.3,Win32,59.52380952,58e558cc728bea0001bbda24,67167c13dd87566d3602e731,6719264396d87ffe4e9da6a8,,,,,,,,,,,,,,,,,,,,,,,,,,,400,,,,,,,,,,,,,,,,,,8,2,,,576.2602,4,left,0.6031,576.8971,1.5,0.3,"[1,3,2]",0.368950125,stimuli/card_100_transparent.png,100,4,0,4,0,1,,,,,,,,,,
,,,,58e558cc728bea0001bbda24,C,2024-10-23_12h38.43.125,Slot Machine Game,2023.1.3,Win32,59.52380952,58e558cc728bea0001bbda24,67167c13dd87566d3602e731,6719264396d87ffe4e9da6a8,,,,,,,,,,,,,,,,,,,,,,,,,,,500,,,,,,,,,,,,,,,,,,8,2,,,578.6827,5,left,0.6919,579.3959,0.5,0.3,"[1,3,2]",0.704547841,stimuli/card_100_transparent.png,100,5,0,5,0,1,,,,,,,,,,
,,,,58e558cc728bea0001bbda24,C,2024-10-23_12h38.43.125,Slot Machine Game,2023.1.3,Win32,59.52380952,58e558cc728bea0001bbda24,67167c13dd87566d3602e731,6719264396d87ffe4e9da6a8,,,,,,,,,,,,,,,,,,,,,,,,,,,500,,,,,,,,,,,,,,,,,,8,2,,,580.1845,6,left,0.8793,581.098,1,0.3,"[3,2,1]",0.761584868,stimuli/card_0_transparent.png,0,6,0,6,0,1,,,,,,,,,,
,,,,58e558cc728bea0001bbda24,C,2024-10-23_12h38.43.125,Slot Machine Game,2023.1.3,Win32,59.52380952,58e558cc728bea0001bbda24,67167c13dd87566d3602e731,6719264396d87ffe4e9da6a8,,,,,,,,,,,,,,,,,,,,,,,,,,,500,,,,,,,,,,,,,,,,,,8,2,,,582.3858,7,left,0.7014,583.108,0.5,0.3,"[3,2,1]",0.641140628,stimuli/card_0_transparent.png,0,7,0,7,0,1,,,,,,,,,,
,,,,58e558cc728bea0001bbda24,C,2024-10-23_12h38.43.125,Slot Machine Game,2023.1.3,Win32,59.52380952,58e558cc728bea0001bbda24,67167c13dd87566d3602e731,6719264396d87ffe4e9da6a8,,,,,,,,,,,,,,,,,,,,,,,,,,,510,,,,,,,,,,,,,,,,,,8,2,,,583.9047,8,up,0.9398,584.8778,1.5,0.3,"[3,2,1]",0.936219781,stimuli/card_10_transparent.png,10,8,0,8,0,1,,,,,,,,,,
,,,,58e558cc728bea0001bbda24,C,2024-10-23_12h38.43.125,Slot Machine Game,2023.1.3,Win32,59.52380952,58e558cc728bea0001bbda24,67167c13dd87566d3602e731,6719264396d87ffe4e9da6a8,,,,,,,,,,,,,,,,,,,,,,,,,,,610,,,,,,,,,,,,,,,,,,8,2,,,586.6704,9,right,0.7888,587.4806,1,0.3,"[3,2,1]",0.953001806,stimuli/card_100_transparent.png,100,9,0,9,0,1,,,,,,,,,,
,,,,58e558cc728bea0001bbda24,C,2024-10-23_12h38.43.125,Slot Machine Game,2023.1.3,Win32,59.52380952,58e558cc728bea0001bbda24,67167c13dd87566d3602e731,6719264396d87ffe4e9da6a8,,,,,,,,,,,,,,,,,,,,,,,,,,,710,,,,,,,,,,,,,,,,,,8,2,,,588.7816,10,right,0.5798,589.3908,1.5,0.3,"[3,2,1]",0.304069529,stimuli/card_100_transparent.png,100,10,0,10,0,1,,,,,,,,,,
,,,,58e558cc728bea0001bbda24,C,2024-10-23_12h38.43.125,Slot Machine Game,2023.1.3,Win32,59.52380952,58e558cc728bea0001bbda24,67167c13dd87566d3602e731,6719264396d87ffe4e9da6a8,,,,,,,,,,,,,,,,,,,,,,,,,,,810,,,,,,,,,,,,,,,,,,8,2,,,591.1871,11,right,2.4768,593.683,1.5,0.3,"[3,2,1]",0.519662785,stimuli/card_100_transparent.png,100,11,0,11,0,1,,,,,,,,,,
,,,,58e558cc728bea0001bbda24,C,2024-10-23_12h38.43.125,Slot Machine Game,2023.1.3,Win32,59.52380952,58e558cc728bea0001bbda24,67167c13dd87566d3602e731,6719264396d87ffe4e9da6a8,,,,,,,,,,,,,,,,,,,,,,,,,,,910,,,,,,,,,,,,,,,,,,8,2,,,595.4797,12,right,0.5626,596.0714,0.5,0.3,"[3,2,1]",0.936013614,stimuli/card_100_transparent.png,100,12,0,12,0,1,,,,,,,,,,
,,,,58e558cc728bea0001bbda24,C,2024-10-23_12h38.43.125,Slot Machine Game,2023.1.3,Win32,59.52380952,58e558cc728bea0001bbda24,67167c13dd87566d3602e731,6719264396d87ffe4e9da6a8,,,,,,,,,,,,,,,,,,,,,,,,,,,920,,,,,,,,,,,,,,,,,,8,2,,,596.8651,13,right,1.0685,597.9604,1,0.3,"[3,2,1]",0.171255507,stimuli/card_10_transparent.png,10,13,0,13,0,1,,,,,,,,,,
,,,,58e558cc728bea0001bbda24,C,2024-10-23_12h38.43.125,Slot Machine Game,2023.1.3,Win32,59.52380952,58e558cc728bea0001bbda24,67167c13dd87566d3602e731,6719264396d87ffe4e9da6a8,,,,,,,,,,,,,,,,,,,,,,,,,,,1020,,,,,,,,,,,,,,,,,,8,2,,,599.2339,14,right,1.8729,601.138,1.5,0.3,"[3,2,1]",0.719477705,stimuli/card_100_transparent.png,100,14,0,14,0,1,,,,,,,,,,
,,,,58e558cc728bea0001bbda24,C,2024-10-23_12h38.43.125,Slot Machine Game,2023.1.3,Win32,59.52380952,58e558cc728bea0001bbda24,67167c13dd87566d3602e731,6719264396d87ffe4e9da6a8,,,,,,,,,,,,,,,,,,,,,,,,,,,,,,,,,,602.9193,,,,,,,,,,,,,,,,,,,,,,,,,,,,,,,"[540,1220,840,930,910,1020,540,1020]",7,0,7,0,1,,,,
,,,,58e558cc728bea0001bbda24,C,2024-10-23_12h38.43.125,Slot Machine Game,2023.1.3,Win32,59.52380952,58e558cc728bea0001bbda24,67167c13dd87566d3602e731,6719264396d87ffe4e9da6a8,,,,,,,,,,,,,,,,,,,,,,,,,,,100,,,,,,,,,,,,,,,,,,9,10,"[10,15]","[[3,1,2],[1,3,2]]",607.9133,0,up,1.6275,609.5582,0.5,0.3,"[3,1,2]",0.64766052,stimuli/card_100_transparent.png,100,0,0,0,0,1,,,,,,,,,,
,,,,58e558cc728bea0001bbda24,C,2024-10-23_12h38.43.125,Slot Machine Game,2023.1.3,Win32,59.52380952,58e558cc728bea0001bbda24,67167c13dd87566d3602e731,6719264396d87ffe4e9da6a8,,,,,,,,,,,,,,,,,,,,,,,,,,,200,,,,,,,,,,,,,,,,,,9,10,,,610.3533,1,up,0.6406,611.0263,0.5,0.3,"[3,1,2]",0.788486176,stimuli/card_100_transparent.png,100,1,0,1,0,1,,,,,,,,,,
,,,,58e558cc728bea0001bbda24,C,2024-10-23_12h38.43.125,Slot Machine Game,2023.1.3,Win32,59.52380952,58e558cc728bea0001bbda24,67167c13dd87566d3602e731,6719264396d87ffe4e9da6a8,,,,,,,,,,,,,,,,,,,,,,,,,,,300,,,,,,,,,,,,,,,,,,9,10,,,611.8437,2,up,0.5994,612.4699,1.5,0.3,"[3,1,2]",0.437640669,stimuli/card_100_transparent.png,100,2,0,2,0,1,,,,,,,,,,
,,,,58e558cc728bea0001bbda24,C,2024-10-23_12h38.43.125,Slot Machine Game,2023.1.3,Win32,59.52380952,58e558cc728bea0001bbda24,67167c13dd87566d3602e731,6719264396d87ffe4e9da6a8,,,,,,,,,,,,,,,,,,,,,,,,,,,400,,,,,,,,,,,,,,,,,,9,10,,,614.2746,3,up,1.1633,615.4588,1,0.3,"[3,1,2]",0.802878637,stimuli/card_100_transparent.png,100,3,0,3,0,1,,,,,,,,,,
,,,,58e558cc728bea0001bbda24,C,2024-10-23_12h38.43.125,Slot Machine Game,2023.1.3,Win32,59.52380952,58e558cc728bea0001bbda24,67167c13dd87566d3602e731,6719264396d87ffe4e9da6a8,,,,,,,,,,,,,,,,,,,,,,,,,,,410,,,,,,,,,,,,,,,,,,9,10,,,616.7564,4,up,0.895,617.6979,1.5,0.3,"[3,1,2]",0.11878872,stimuli/card_10_transparent.png,10,4,0,4,0,1,,,,,,,,,,
,,,,58e558cc728bea0001bbda24,C,2024-10-23_12h38.43.125,Slot Machine Game,2023.1.3,Win32,59.52380952,58e558cc728bea0001bbda24,67167c13dd87566d3602e731,6719264396d87ffe4e9da6a8,,,,,,,,,,,,,,,,,,,,,,,,,,,510,,,,,,,,,,,,,,,,,,9,10,,,619.4877,5,up,1.2687,620.7839,1.5,0.3,"[3,1,2]",0.288144425,stimuli/card_100_transparent.png,100,5,0,5,0,1,,,,,,,,,,
,,,,58e558cc728bea0001bbda24,C,2024-10-23_12h38.43.125,Slot Machine Game,2023.1.3,Win32,59.52380952,58e558cc728bea0001bbda24,67167c13dd87566d3602e731,6719264396d87ffe4e9da6a8,,,,,,,,,,,,,,,,,,,,,,,,,,,520,,,,,,,,,,,,,,,,,,9,10,,,622.5713,6,up,0.7182,623.3225,1.5,0.3,"[3,1,2]",0.144387908,stimuli/card_10_transparent.png,10,6,0,6,0,1,,,,,,,,,,
,,,,58e558cc728bea0001bbda24,C,2024-10-23_12h38.43.125,Slot Machine Game,2023.1.3,Win32,59.52380952,58e558cc728bea0001bbda24,67167c13dd87566d3602e731,6719264396d87ffe4e9da6a8,,,,,,,,,,,,,,,,,,,,,,,,,,,520,,,,,,,,,,,,,,,,,,9,10,,,625.1134,7,left,0.7976,625.9338,1.5,0.3,"[3,1,2]",0.646747849,stimuli/card_0_transparent.png,0,7,0,7,0,1,,,,,,,,,,
,,,,58e558cc728bea0001bbda24,C,2024-10-23_12h38.43.125,Slot Machine Game,2023.1.3,Win32,59.52380952,58e558cc728bea0001bbda24,67167c13dd87566d3602e731,6719264396d87ffe4e9da6a8,,,,,,,,,,,,,,,,,,,,,,,,,,,520,,,,,,,,,,,,,,,,,,9,10,,,627.7202,8,right,0.7954,628.542,0.5,0.3,"[3,1,2]",0.012952173,stimuli/card_0_transparent.png,0,8,0,8,0,1,,,,,,,,,,
,,,,58e558cc728bea0001bbda24,C,2024-10-23_12h38.43.125,Slot Machine Game,2023.1.3,Win32,59.52380952,58e558cc728bea0001bbda24,67167c13dd87566d3602e731,6719264396d87ffe4e9da6a8,,,,,,,,,,,,,,,,,,,,,,,,,,,520,,,,,,,,,,,,,,,,,,9,10,,,629.3447,9,left,0.9189,630.2915,1,0.3,"[3,1,2]",0.68491898,stimuli/card_0_transparent.png,0,9,0,9,0,1,,,,,,,,,,
,,,,58e558cc728bea0001bbda24,C,2024-10-23_12h38.43.125,Slot Machine Game,2023.1.3,Win32,59.52380952,58e558cc728bea0001bbda24,67167c13dd87566d3602e731,6719264396d87ffe4e9da6a8,,,,,,,,,,,,,,,,,,,,,,,,,,,530,,,,,,,,,,,,,,,,,,9,10,,,631.5911,10,right,0.7437,632.3594,1.5,0.3,"[1,3,2]",0.559205167,stimuli/card_10_transparent.png,10,10,0,10,0,1,,,,,,,,,,
,,,,58e558cc728bea0001bbda24,C,2024-10-23_12h38.43.125,Slot Machine Game,2023.1.3,Win32,59.52380952,58e558cc728bea0001bbda24,67167c13dd87566d3602e731,6719264396d87ffe4e9da6a8,,,,,,,,,,,,,,,,,,,,,,,,,,,540,,,,,,,,,,,,,,,,,,9,10,,,634.16,11,up,1.3189,635.5124,1.5,0.3,"[1,3,2]",0.152775657,stimuli/card_10_transparent.png,10,11,0,11,0,1,,,,,,,,,,
,,,,58e558cc728bea0001bbda24,C,2024-10-23_12h38.43.125,Slot Machine Game,2023.1.3,Win32,59.52380952,58e558cc728bea0001bbda24,67167c13dd87566d3602e731,6719264396d87ffe4e9da6a8,,,,,,,,,,,,,,,,,,,,,,,,,,,540,,,,,,,,,,,,,,,,,,9,10,,,637.3125,12,up,0.9767,638.3221,1.5,0.3,"[1,3,2]",0.348919002,stimuli/card_0_transparent.png,0,12,0,12,0,1,,,,,,,,,,
,,,,58e558cc728bea0001bbda24,C,2024-10-23_12h38.43.125,Slot Machine Game,2023.1.3,Win32,59.52380952,58e558cc728bea0001bbda24,67167c13dd87566d3602e731,6719264396d87ffe4e9da6a8,,,,,,,,,,,,,,,,,,,,,,,,,,,550,,,,,,,,,,,,,,,,,,9,10,,,640.1057,13,right,1.7162,641.8666,1.5,0.3,"[1,3,2]",0.645058309,stimuli/card_10_transparent.png,10,13,0,13,0,1,,,,,,,,,,
,,,,58e558cc728bea0001bbda24,C,2024-10-23_12h38.43.125,Slot Machine Game,2023.1.3,Win32,59.52380952,58e558cc728bea0001bbda24,67167c13dd87566d3602e731,6719264396d87ffe4e9da6a8,,,,,,,,,,,,,,,,,,,,,,,,,,,650,,,,,,,,,,,,,,,,,,9,10,,,643.6533,14,left,1.3364,645.0193,0.5,0.3,"[1,3,2]",0.872541457,stimuli/card_100_transparent.png,100,14,0,14,0,1,,,,,,,,,,
,,,,58e558cc728bea0001bbda24,C,2024-10-23_12h38.43.125,Slot Machine Game,2023.1.3,Win32,59.52380952,58e558cc728bea0001bbda24,67167c13dd87566d3602e731,6719264396d87ffe4e9da6a8,,,,,,,,,,,,,,,,,,,,,,,,,,,,,,,,,,645.8123,,,,,,,,,,,,,,,,,,,,,,,,,,,,,,,"[540,1220,840,930,910,1020,540,1020,650]",8,0,8,0,1,,,,
,,,,58e558cc728bea0001bbda24,C,2024-10-23_12h38.43.125,Slot Machine Game,2023.1.3,Win32,59.52380952,58e558cc728bea0001bbda24,67167c13dd87566d3602e731,6719264396d87ffe4e9da6a8,,,,,,,,,,,,,,,,,,,,,,,,,,,0,,,,,,,,,,,,,,,,,,10,3,"[15,15]","[[3,1,2],[3,1,2]]",650.8118,0,left,0.7406,651.5735,1,0.3,"[3,1,2]",0.563667443,stimuli/card_0_transparent.png,0,0,0,0,0,1,,,,,,,,,,
,,,,58e558cc728bea0001bbda24,C,2024-10-23_12h38.43.125,Slot Machine Game,2023.1.3,Win32,59.52380952,58e558cc728bea0001bbda24,67167c13dd87566d3602e731,6719264396d87ffe4e9da6a8,,,,,,,,,,,,,,,,,,,,,,,,,,,10,,,,,,,,,,,,,,,,,,10,3,,,652.8736,1,right,0.9787,653.8866,1,0.3,"[3,1,2]",0.467467359,stimuli/card_10_transparent.png,10,1,0,1,0,1,,,,,,,,,,
,,,,58e558cc728bea0001bbda24,C,2024-10-23_12h38.43.125,Slot Machine Game,2023.1.3,Win32,59.52380952,58e558cc728bea0001bbda24,67167c13dd87566d3602e731,6719264396d87ffe4e9da6a8,,,,,,,,,,,,,,,,,,,,,,,,,,,110,,,,,,,,,,,,,,,,,,10,3,,,655.1868,2,up,0.7263,655.9538,0.5,0.3,"[3,1,2]",0.434373272,stimuli/card_100_transparent.png,100,2,0,2,0,1,,,,,,,,,,
,,,,58e558cc728bea0001bbda24,C,2024-10-23_12h38.43.125,Slot Machine Game,2023.1.3,Win32,59.52380952,58e558cc728bea0001bbda24,67167c13dd87566d3602e731,6719264396d87ffe4e9da6a8,,,,,,,,,,,,,,,,,,,,,,,,,,,210,,,,,,,,,,,,,,,,,,10,3,,,656.7398,3,up,0.5894,657.3488,1,0.3,"[3,1,2]",0.233376356,stimuli/card_100_transparent.png,100,3,0,3,0,1,,,,,,,,,,
,,,,58e558cc728bea0001bbda24,C,2024-10-23_12h38.43.125,Slot Machine Game,2023.1.3,Win32,59.52380952,58e558cc728bea0001bbda24,67167c13dd87566d3602e731,6719264396d87ffe4e9da6a8,,,,,,,,,,,,,,,,,,,,,,,,,,,310,,,,,,,,,,,,,,,,,,10,3,,,658.6397,4,up,0.66,659.3295,1.5,0.3,"[3,1,2]",0.293349228,stimuli/card_100_transparent.png,100,4,0,4,0,1,,,,,,,,,,
,,,,58e558cc728bea0001bbda24,C,2024-10-23_12h38.43.125,Slot Machine Game,2023.1.3,Win32,59.52380952,58e558cc728bea0001bbda24,67167c13dd87566d3602e731,6719264396d87ffe4e9da6a8,,,,,,,,,,,,,,,,,,,,,,,,,,,310,,,,,,,,,,,,,,,,,,10,3,,,661.13,5,up,0.6043,661.7468,1,0.3,"[3,1,2]",0.056943761,stimuli/card_0_transparent.png,0,5,0,5,0,1,,,,,,,,,,
,,,,58e558cc728bea0001bbda24,C,2024-10-23_12h38.43.125,Slot Machine Game,2023.1.3,Win32,59.52380952,58e558cc728bea0001bbda24,67167c13dd87566d3602e731,6719264396d87ffe4e9da6a8,,,,,,,,,,,,,,,,,,,,,,,,,,,410,,,,,,,,,,,,,,,,,,10,3,,,663.047,6,up,0.7284,663.8038,1,0.3,"[3,1,2]",0.876755188,stimuli/card_100_transparent.png,100,6,0,6,0,1,,,,,,,,,,
,,,,58e558cc728bea0001bbda24,C,2024-10-23_12h38.43.125,Slot Machine Game,2023.1.3,Win32,59.52380952,58e558cc728bea0001bbda24,67167c13dd87566d3602e731,6719264396d87ffe4e9da6a8,,,,,,,,,,,,,,,,,,,,,,,,,,,510,,,,,,,,,,,,,,,,,,10,3,,,665.0925,7,up,0.6577,665.7686,0.5,0.3,"[3,1,2]",0.807803641,stimuli/card_100_transparent.png,100,7,0,7,0,1,,,,,,,,,,
,,,,58e558cc728bea0001bbda24,C,2024-10-23_12h38.43.125,Slot Machine Game,2023.1.3,Win32,59.52380952,58e558cc728bea0001bbda24,67167c13dd87566d3602e731,6719264396d87ffe4e9da6a8,,,,,,,,,,,,,,,,,,,,,,,,,,,610,,,,,,,,,,,,,,,,,,10,3,,,666.5623,8,up,0.8669,667.4467,1,0.3,"[3,1,2]",0.524509182,stimuli/card_100_transparent.png,100,8,0,8,0,1,,,,,,,,,,
,,,,58e558cc728bea0001bbda24,C,2024-10-23_12h38.43.125,Slot Machine Game,2023.1.3,Win32,59.52380952,58e558cc728bea0001bbda24,67167c13dd87566d3602e731,6719264396d87ffe4e9da6a8,,,,,,,,,,,,,,,,,,,,,,,,,,,610,,,,,,,,,,,,,,,,,,10,3,,,668.7333,9,up,0.6064,669.3771,0.5,0.3,"[3,1,2]",0.044050422,stimuli/card_0_transparent.png,0,9,0,9,0,1,,,,,,,,,,
,,,,58e558cc728bea0001bbda24,C,2024-10-23_12h38.43.125,Slot Machine Game,2023.1.3,Win32,59.52380952,58e558cc728bea0001bbda24,67167c13dd87566d3602e731,6719264396d87ffe4e9da6a8,,,,,,,,,,,,,,,,,,,,,,,,,,,710,,,,,,,,,,,,,,,,,,10,3,,,670.1639,10,up,0.9494,671.1298,0.5,0.3,"[3,1,2]",0.660257162,stimuli/card_100_transparent.png,100,10,0,10,0,1,,,,,,,,,,
,,,,58e558cc728bea0001bbda24,C,2024-10-23_12h38.43.125,Slot Machine Game,2023.1.3,Win32,59.52380952,58e558cc728bea0001bbda24,67167c13dd87566d3602e731,6719264396d87ffe4e9da6a8,,,,,,,,,,,,,,,,,,,,,,,,,,,810,,,,,,,,,,,,,,,,,,10,3,,,671.9165,11,up,0.8999,672.8327,1,0.3,"[3,1,2]",0.704115573,stimuli/card_100_transparent.png,100,11,0,11,0,1,,,,,,,,,,
,,,,58e558cc728bea0001bbda24,C,2024-10-23_12h38.43.125,Slot Machine Game,2023.1.3,Win32,59.52380952,58e558cc728bea0001bbda24,67167c13dd87566d3602e731,6719264396d87ffe4e9da6a8,,,,,,,,,,,,,,,,,,,,,,,,,,,910,,,,,,,,,,,,,,,,,,10,3,,,674.1264,12,up,1.034,675.1861,1.5,0.3,"[3,1,2]",0.569807145,stimuli/card_100_transparent.png,100,12,0,12,0,1,,,,,,,,,,
,,,,58e558cc728bea0001bbda24,C,2024-10-23_12h38.43.125,Slot Machine Game,2023.1.3,Win32,59.52380952,58e558cc728bea0001bbda24,67167c13dd87566d3602e731,6719264396d87ffe4e9da6a8,,,,,,,,,,,,,,,,,,,,,,,,,,,1010,,,,,,,,,,,,,,,,,,10,3,,,676.9881,13,up,0.5653,677.5805,0.5,0.3,"[3,1,2]",0.391639103,stimuli/card_100_transparent.png,100,13,0,13,0,1,,,,,,,,,,
,,,,58e558cc728bea0001bbda24,C,2024-10-23_12h38.43.125,Slot Machine Game,2023.1.3,Win32,59.52380952,58e558cc728bea0001bbda24,67167c13dd87566d3602e731,6719264396d87ffe4e9da6a8,,,,,,,,,,,,,,,,,,,,,,,,,,,1110,,,,,,,,,,,,,,,,,,10,3,,,678.3798,14,up,0.886,679.295,1,0.3,"[3,1,2]",0.446595122,stimuli/card_100_transparent.png,100,14,0,14,0,1,,,,,,,,,,
,,,,58e558cc728bea0001bbda24,C,2024-10-23_12h38.43.125,Slot Machine Game,2023.1.3,Win32,59.52380952,58e558cc728bea0001bbda24,67167c13dd87566d3602e731,6719264396d87ffe4e9da6a8,,,,,,,,,,,,,,,,,,,,,,,,,,,,,,,,,,680.5788,,,,,,,,,,,,,,,,,,,,,,,,,,,,,,,"[540,1220,840,930,910,1020,540,1020,650,1110]",9,0,9,0,1,,,,
,,,,58e558cc728bea0001bbda24,C,2024-10-23_12h38.43.125,Slot Machine Game,2023.1.3,Win32,59.52380952,58e558cc728bea0001bbda24,67167c13dd87566d3602e731,6719264396d87ffe4e9da6a8,,,,,,,,,,,,,,,,,,,,,,,,,,,,,,,,,,,,,,,,,,,,,,,,,,,,,,,,,,,,,,,,,,,,,,,9,"[540,1220,840,930,910,1020,540,1020,650,1110]",5.4,2024-10-23_12h50.13.089
