participant,date,expName,psychopyVersion,OS,frameRate,key_resp_practice_instruction.started,key_resp_practice_instruction.keys,key_resp_practice_instruction.rt,key_resp_practice_instruction.duration,key_resp.started,key_resp.keys,key_resp.rt,key_resp.duration,key_resp_practice_reset.keys,key_resp_practice_reset.rt,key_resp_practice_reset.duration,key_resp_practice_slots.started,key_resp_practice_slots.keys,key_resp_practice_slots.rt,key_resp_practice_slots.duration,presentationInterval,reward_seq,reward_Img,Cuml_rew,currentTrialReward,practice_trials.thisRepN,practice_trials.thisTrialN,practice_trials.thisN,practice_trials.thisIndex,practice_trials.ran,key_resp_practice_end.started,key_resp_practice_end.keys,key_resp_practice_end.rt,key_resp_practice_end.duration,text_main_instruction.started,BlockCondition,BlockOrderIndices,key_resp_main_instruction.started,key_resp_main_instruction.keys,key_resp_main_instruction.rt,key_resp_main_instruction.duration,conditions,currentCondition,conditionsAfterRemoval,key_resp_slots_presentation.started,key_resp_slots_presentation.keys,key_resp_slots_presentation.rt,key_resp_slots_presentation.duration,Main_presentationInterval,Main_reward_seq,Random value generated,Main_reward_Img,Main_Cuml_rew,Main_currentTrialReward,main_trials.thisRepN,main_trials.thisTrialN,main_trials.thisN,main_trials.thisIndex,main_trials.ran,text_block_break.started,block.thisRepN,block.thisTrialN,block.thisN,block.thisIndex,block.ran
,2023-09-07_11h02.09.938,slotMachine_updated,2023.1.3,MacIntel,60.00240012,,,,,,,,,,,,,,,,,,,,,,,,,,,,,,,,,,,,,,,,,,,,,,,,,,,,,,,,,,,,
,2023-09-07_11h02.09.938,slotMachine_updated,2023.1.3,MacIntel,60.00240012,125.0509,space,325.4609,,,,,,,,,,,,,,,,,,,,,,,,,,,,,,,,,,,,,,,,,,,,,,,,,,,,,,,,,
,2023-09-07_11h02.09.938,slotMachine_updated,2023.1.3,MacIntel,60.00240012,,,,,450.5369,space,1.5965,,,,,,,,,,,,,,,,,,,,,,,,,,,,,,,,,,,,,,,,,,,,,,,,,,,,,
,2023-09-07_11h02.09.938,slotMachine_updated,2023.1.3,MacIntel,60.00240012,,,,,,,,,space,0.4797,,,,,,,,,,,,,,,,,,,,,,,,,,,,,,,,,,,,,,,,,,,,,,,,,,
,2023-09-07_11h02.09.938,slotMachine_updated,2023.1.3,MacIntel,60.00240012,,,,,,,,,,,,452.6564,up,1.6613,,1.5,"[2,1,3]",stimuli/card_100_transparent.png,100,100,0,0,0,0,1,,,,,,,,,,,,,,,,,,,,,,,,,,,,,,,,,,,
,2023-09-07_11h02.09.938,slotMachine_updated,2023.1.3,MacIntel,60.00240012,,,,,,,,,,,,456.2199,right,0.7044,,0.5,"[2,1,3]",stimuli/card_0_transparent.png,100,0,1,0,1,0,1,,,,,,,,,,,,,,,,,,,,,,,,,,,,,,,,,,,
,2023-09-07_11h02.09.938,slotMachine_updated,2023.1.3,MacIntel,60.00240012,,,,,,,,,,,,457.7616,left,0.462,,1.5,"[2,1,3]",stimuli/card_10_transparent.png,110,10,2,0,2,0,1,,,,,,,,,,,,,,,,,,,,,,,,,,,,,,,,,,,
,2023-09-07_11h02.09.938,slotMachine_updated,2023.1.3,MacIntel,60.00240012,,,,,,,,,,,,460.0418,up,0.5608,,0.5,"[2,1,3]",stimuli/card_100_transparent.png,210,100,3,0,3,0,1,,,,,,,,,,,,,,,,,,,,,,,,,,,,,,,,,,,
,2023-09-07_11h02.09.938,slotMachine_updated,2023.1.3,MacIntel,60.00240012,,,,,,,,,,,,461.4259,up,0.9764,,1.5,"[2,1,3]",stimuli/card_100_transparent.png,310,100,4,0,4,0,1,,,,,,,,,,,,,,,,,,,,,,,,,,,,,,,,,,,
,2023-09-07_11h02.09.938,slotMachine_updated,2023.1.3,MacIntel,60.00240012,,,,,,,,,,,,464.2273,up,0.433,,1.5,"[2,1,3]",stimuli/card_100_transparent.png,410,100,5,0,5,0,1,,,,,,,,,,,,,,,,,,,,,,,,,,,,,,,,,,,
,2023-09-07_11h02.09.938,slotMachine_updated,2023.1.3,MacIntel,60.00240012,,,,,,,,,,,,466.4939,up,0.3194,,0.5,"[2,1,3]",stimuli/card_0_transparent.png,410,0,6,0,6,0,1,,,,,,,,,,,,,,,,,,,,,,,,,,,,,,,,,,,
,2023-09-07_11h02.09.938,slotMachine_updated,2023.1.3,MacIntel,60.00240012,,,,,,,,,,,,467.6424,up,0.523,0.0003,1.5,"[2,1,3]",stimuli/card_100_transparent.png,510,100,7,0,7,0,1,,,,,,,,,,,,,,,,,,,,,,,,,,,,,,,,,,,
,2023-09-07_11h02.09.938,slotMachine_updated,2023.1.3,MacIntel,60.00240012,,,,,,,,,,,,469.9827,up,0.1025,,0.5,"[2,1,3]",stimuli/card_100_transparent.png,610,100,8,0,8,0,1,,,,,,,,,,,,,,,,,,,,,,,,,,,,,,,,,,,
,2023-09-07_11h02.09.938,slotMachine_updated,2023.1.3,MacIntel,60.00240012,,,,,,,,,,,,470.9152,up,0.4053,,1,"[2,3,1]",stimuli/card_0_transparent.png,610,0,9,0,9,0,1,,,,,,,,,,,,,,,,,,,,,,,,,,,,,,,,,,,
,2023-09-07_11h02.09.938,slotMachine_updated,2023.1.3,MacIntel,60.00240012,,,,,,,,,,,,472.6484,up,0.4143,,1,"[2,3,1]",stimuli/card_0_transparent.png,610,0,10,0,10,0,1,,,,,,,,,,,,,,,,,,,,,,,,,,,,,,,,,,,
,2023-09-07_11h02.09.938,slotMachine_updated,2023.1.3,MacIntel,60.00240012,,,,,,,,,,,,474.382,right,0.5814,,0.5,"[2,3,1]",stimuli/card_10_transparent.png,620,10,11,0,11,0,1,,,,,,,,,,,,,,,,,,,,,,,,,,,,,,,,,,,
,2023-09-07_11h02.09.938,slotMachine_updated,2023.1.3,MacIntel,60.00240012,,,,,,,,,,,,475.7818,left,0.5884,,1,"[2,3,1]",stimuli/card_10_transparent.png,630,10,12,0,12,0,1,,,,,,,,,,,,,,,,,,,,,,,,,,,,,,,,,,,
,2023-09-07_11h02.09.938,slotMachine_updated,2023.1.3,MacIntel,60.00240012,,,,,,,,,,,,477.6974,left,0.5452,,1,"[2,3,1]",stimuli/card_10_transparent.png,640,10,13,0,13,0,1,,,,,,,,,,,,,,,,,,,,,,,,,,,,,,,,,,,
,2023-09-07_11h02.09.938,slotMachine_updated,2023.1.3,MacIntel,60.00240012,,,,,,,,,,,,479.5713,right,0.2849,,1.5,"[2,3,1]",stimuli/card_100_transparent.png,740,100,14,0,14,0,1,,,,,,,,,,,,,,,,,,,,,,,,,,,,,,,,,,,
,2023-09-07_11h02.09.938,slotMachine_updated,2023.1.3,MacIntel,60.00240012,,,,,,,,,,,,,,,,,,,,,,,,,,481.6852,space,16.0295,,,,,,,,,,,,,,,,,,,,,,,,,,,,,,,,
,2023-09-07_11h02.09.938,slotMachine_updated,2023.1.3,MacIntel,60.00240012,,,,,,,,,,,,,,,,,,,,,,,,,,,,,,497.7596,1,"[0,1,2,3,4,5,6,7,8,9]",497.7597,space,5.3681,,,,,,,,,,,,,,,,,,,,,,,,,
,2023-09-07_11h02.09.938,slotMachine_updated,2023.1.3,MacIntel,60.00240012,,,,,,,,,,,,,,,,,,,,,,,,,,,,,,,,,,,,,"[""12,15"",""6,15"",""15,15"",""7,15"",""5,15"",""4,10,15"",""9,15"",""11,15"",""8,15"",""10,15""]","12,15","[""12,15"",""6,15"",""15,15"",""7,15"",""5,15"",""4,10,15"",""9,15"",""11,15"",""8,15"",""10,15""]",503.1522,up,1.1604,,1,"[2,1,3]",0.589268499,stimuli/card_100_transparent.png,100,100,0,0,0,0,1,,,,,,
,2023-09-07_11h02.09.938,slotMachine_updated,2023.1.3,MacIntel,60.00240012,,,,,,,,,,,,,,,,,,,,,,,,,,,,,,,,,,,,,,,,505.647,right,0.7855,,1.5,"[2,1,3]",0.440565588,stimuli/card_0_transparent.png,100,0,1,0,1,0,1,,,,,,
,2023-09-07_11h02.09.938,slotMachine_updated,2023.1.3,MacIntel,60.00240012,,,,,,,,,,,,,,,,,,,,,,,,,,,,,,,,,,,,,,,,508.2542,up,0.5825,,0.5,"[2,1,3]",0.178303647,stimuli/card_10_transparent.png,110,10,2,0,2,0,1,,,,,,
,2023-09-07_11h02.09.938,slotMachine_updated,2023.1.3,MacIntel,60.00240012,,,,,,,,,,,,,,,,,,,,,,,,,,,,,,,,,,,,,,,,509.6528,left,0.2959,,1,"[2,1,3]",0.470187051,stimuli/card_10_transparent.png,120,10,3,0,3,0,1,,,,,,
,2023-09-07_11h02.09.938,slotMachine_updated,2023.1.3,MacIntel,60.00240012,,,,,,,,,,,,,,,,,,,,,,,,,,,,,,,,,,,,,,,,511.2703,up,0.0934,,1,"[2,1,3]",0.807568174,stimuli/card_100_transparent.png,220,100,4,0,4,0,1,,,,,,
,2023-09-07_11h02.09.938,slotMachine_updated,2023.1.3,MacIntel,60.00240012,,,,,,,,,,,,,,,,,,,,,,,,,,,,,,,,,,,,,,,,512.6878,up,0.0268,,1,"[2,1,3]",0.934070674,stimuli/card_100_transparent.png,320,100,5,0,5,0,1,,,,,,
,2023-09-07_11h02.09.938,slotMachine_updated,2023.1.3,MacIntel,60.00240012,,,,,,,,,,,,,,,,,,,,,,,,,,,,,,,,,,,,,,,,514.0358,up,0.3965,,0.5,"[2,1,3]",0.115046822,stimuli/card_10_transparent.png,330,10,6,0,6,0,1,,,,,,
,2023-09-07_11h02.09.938,slotMachine_updated,2023.1.3,MacIntel,60.00240012,,,,,,,,,,,,,,,,,,,,,,,,,,,,,,,,,,,,,,,,515.2541,up,0.5618,,1.5,"[2,1,3]",0.565389537,stimuli/card_100_transparent.png,430,100,7,0,7,0,1,,,,,,
,2023-09-07_11h02.09.938,slotMachine_updated,2023.1.3,MacIntel,60.00240012,,,,,,,,,,,,,,,,,,,,,,,,,,,,,,,,,,,,,,,,517.6361,up,0.3126,,1,"[2,1,3]",0.599736389,stimuli/card_100_transparent.png,530,100,8,0,8,0,1,,,,,,
,2023-09-07_11h02.09.938,slotMachine_updated,2023.1.3,MacIntel,60.00240012,,,,,,,,,,,,,,,,,,,,,,,,,,,,,,,,,,,,,,,,519.2783,up,0.3449,,1.5,"[2,1,3]",0.800990186,stimuli/card_100_transparent.png,630,100,9,0,9,0,1,,,,,,
,2023-09-07_11h02.09.938,slotMachine_updated,2023.1.3,MacIntel,60.00240012,,,,,,,,,,,,,,,,,,,,,,,,,,,,,,,,,,,,,,,,521.4439,up,0.2646,,0.5,"[2,1,3]",0.471338213,stimuli/card_100_transparent.png,730,100,10,0,10,0,1,,,,,,
,2023-09-07_11h02.09.938,slotMachine_updated,2023.1.3,MacIntel,60.00240012,,,,,,,,,,,,,,,,,,,,,,,,,,,,,,,,,,,,,,,,522.5268,up,0.4149,,1.5,"[2,1,3]",0.995219267,stimuli/card_100_transparent.png,830,100,11,0,11,0,1,,,,,,
,2023-09-07_11h02.09.938,slotMachine_updated,2023.1.3,MacIntel,60.00240012,,,,,,,,,,,,,,,,,,,,,,,,,,,,,,,,,,,,,,,,524.7571,up,0.309,,0.5,"[2,1,3]",0.664477268,stimuli/card_100_transparent.png,930,100,12,0,12,0,1,,,,,,
,2023-09-07_11h02.09.938,slotMachine_updated,2023.1.3,MacIntel,60.00240012,,,,,,,,,,,,,,,,,,,,,,,,,,,,,,,,,,,,,,,,525.8917,up,0.4432,,1,"[2,1,3]",0.004692772,stimuli/card_0_transparent.png,930,0,13,0,13,0,1,,,,,,
,2023-09-07_11h02.09.938,slotMachine_updated,2023.1.3,MacIntel,60.00240012,,,,,,,,,,,,,,,,,,,,,,,,,,,,,,,,,,,,,,,,527.657,up,0.308,,0.5,"[2,1,3]",0.395002901,stimuli/card_100_transparent.png,1030,100,14,0,14,0,1,,,,,,
,2023-09-07_11h02.09.938,slotMachine_updated,2023.1.3,MacIntel,60.00240012,,,,,,,,,,,,,,,,,,,,,,,,,,,,,,,,,,,,,,,,,,,,,,,,,,,,,,,528.7824,0,0,0,0,1
,2023-09-07_11h02.09.938,slotMachine_updated,2023.1.3,MacIntel,60.00240012,,,,,,,,,,,,,,,,,,,,,,,,,,,,,,,,,,,,,"[""12,15"",""6,15"",""15,15"",""7,15"",""5,15"",""4,10,15"",""9,15"",""11,15"",""8,15"",""10,15""]","6,15","[""12,15"",""6,15"",""15,15"",""7,15"",""5,15"",""4,10,15"",""9,15"",""11,15"",""8,15"",""10,15""]",533.7816,up,4.2384,,0.5,"[1,3,2]",0.239677222,stimuli/card_0_transparent.png,0,0,0,0,0,0,1,,,,,,
,2023-09-07_11h02.09.938,slotMachine_updated,2023.1.3,MacIntel,60.00240012,,,,,,,,,,,,,,,,,,,,,,,,,,,,,,,,,,,,,,,,538.8362,up,0.8376,,1.5,"[1,3,2]",0.824595455,stimuli/card_0_transparent.png,0,0,1,0,1,0,1,,,,,,
,2023-09-07_11h02.09.938,slotMachine_updated,2023.1.3,MacIntel,60.00240012,,,,,,,,,,,,,,,,,,,,,,,,,,,,,,,,,,,,,,,,541.4876,right,0.3675,,0.5,"[1,3,2]",0.987501882,stimuli/card_10_transparent.png,10,10,2,0,2,0,1,,,,,,
,2023-09-07_11h02.09.938,slotMachine_updated,2023.1.3,MacIntel,60.00240012,,,,,,,,,,,,,,,,,,,,,,,,,,,,,,,,,,,,,,,,542.6714,left,0.1202,,1.5,"[1,3,2]",0.928675978,stimuli/card_100_transparent.png,110,100,3,0,3,0,1,,,,,,
,2023-09-07_11h02.09.938,slotMachine_updated,2023.1.3,MacIntel,60.00240012,,,,,,,,,,,,,,,,,,,,,,,,,,,,,,,,,,,,,,,,544.6203,left,0.3059,,0.5,"[1,3,2]",0.838604472,stimuli/card_100_transparent.png,210,100,4,0,4,0,1,,,,,,
,2023-09-07_11h02.09.938,slotMachine_updated,2023.1.3,MacIntel,60.00240012,,,,,,,,,,,,,,,,,,,,,,,,,,,,,,,,,,,,,,,,545.7532,left,0.2371,,0.5,"[1,3,2]",0.379566988,stimuli/card_100_transparent.png,310,100,5,0,5,0,1,,,,,,
,2023-09-07_11h02.09.938,slotMachine_updated,2023.1.3,MacIntel,60.00240012,,,,,,,,,,,,,,,,,,,,,,,,,,,,,,,,,,,,,,,,546.8219,left,0.2275,,1,"[1,3,2]",0.168764451,stimuli/card_10_transparent.png,320,10,6,0,6,0,1,,,,,,
,2023-09-07_11h02.09.938,slotMachine_updated,2023.1.3,MacIntel,60.00240012,,,,,,,,,,,,,,,,,,,,,,,,,,,,,,,,,,,,,,,,548.3612,left,0.3555,,1.5,"[1,3,2]",0.213108623,stimuli/card_100_transparent.png,420,100,7,0,7,0,1,,,,,,
