key_resp_welcome_started,key_resp_welcome_keys,key_resp_welcome_rt,key_resp_welcome_duration,prolific_pid,path_id,date,expName,psychopyVersion,OS,frameRate,key_resp_instruction1_started,key_resp_instruction1_keys,key_resp_instruction1_rt,key_resp_instruction1_duration,key_resp_instruction2_started,key_resp_instruction2_keys,key_resp_instruction2_rt,key_resp_instruction2_duration,key_resp_instruction3_started,key_resp_instruction3_keys,key_resp_instruction3_rt,key_resp_instruction3_duration,key_resp_instruction4_started,key_resp_instruction4_keys,key_resp_instruction4_rt,key_resp_instruction4_duration,practiceCondition,practice_reward_seqs,practice_trial_started,practice_trial_num,practice_resp_rt,practice_keypress_time,practice_resp_keys,prac_presentationInterval,"practice_reward_seq: 2,1,3",reward_img,cumulative_reward,trial_reward,practice_trials.thisRepN,practice_trials.thisTrialN,practice_trials.thisN,practice_trials.thisIndex,practice_trials.ran,"practice_reward_seq: 2,3,1",block_break_started,"practice_reward_seq: 1,3,2","practice_reward_seq: 3,1,2",practice_end_time,practice_end_keys,practice_end_rt,practice_end_duration,main_instruction_text_started,block_condition,block_order_indices,main_instruction_keys,main_instruction_rt,main_instruction_duration,block_number,block_assignment,current_condition,main_reward_seqs,main_trial_started,main_trial_num,main_trial_keys,main_trial_rt,main_trial_keypress_time,main_presentationInterval,reward_presentation_time,main_reward_seq,reward_rand_val,main_reward_img,current_reward,main_trials.thisRepN,main_trials.thisTrialN,main_trials.thisN,main_trials.thisIndex,main_trials.ran,block_reward,block.thisRepN,block.thisTrialN,block.thisN,block.thisIndex,block.ran
0.0005,space,1.1099,,,B,2024-08-15_14h30.15.052,Slot Machine Game,2023.1.3,MacIntel,59.88023952,,,,,,,,,,,,,,,,,,,,,,,,,,,,,,,,,,,,,,,,,,,,,,,,,,,,,,,,,,,,,,,,,,,,,,,,,
,,,,,B,2024-08-15_14h30.15.052,Slot Machine Game,2023.1.3,MacIntel,59.88023952,1.1201,space,0.4861,,,,,,,,,,,,,,,,,,,,,,,,,,,,,,,,,,,,,,,,,,,,,,,,,,,,,,,,,,,,,,,,,,,,,,
,,,,,B,2024-08-15_14h30.15.052,Slot Machine Game,2023.1.3,MacIntel,59.88023952,,,,,1.6309,space,0.1858,,,,,,,,,,,,,,,,,,,,,,,,,,,,,,,,,,,,,,,,,,,,,,,,,,,,,,,,,,,,,,,,,,
,,,,,B,2024-08-15_14h30.15.052,Slot Machine Game,2023.1.3,MacIntel,59.88023952,,,,,,,,,1.8374,space,0.3452,,,,,,,,,,,,,,,,,,,,,,,,,,,,,,,,,,,,,,,,,,,,,,,,,,,,,,,,,,,,,,
,,,,,B,2024-08-15_14h30.15.052,Slot Machine Game,2023.1.3,MacIntel,59.88023952,,,,,,,,,,,,,,,,,,,,,,,,,,,,,,,,,,,,,,,,,,,,,,,,,,,,,,,,,,,,,,,,,,,,,,,,,
,,,,,B,2024-08-15_14h30.15.052,Slot Machine Game,2023.1.3,MacIntel,59.88023952,,,,,,,,,,,,,157.1578,space,2.49,,,,,,,,,,,,,,,,,,,,,,,,,,,,,,,,,,,,,,,,,,,,,,,,,,,,,,,,,,
,,,,,B,2024-08-15_14h30.15.052,Slot Machine Game,2023.1.3,MacIntel,59.88023952,,,,,,,,,,,,,,,,,"[9,15]","[[2,1,3],[2,3,1]]",159.6756,0,1.6612,161.3704,left,0.5,,stimuli/card_100_transparent.png,100,100,0,0,0,0,1,,,,,,,,,,,,,,,,,,,,,,,,,,,,,,,,,,,,,,,,
,,,,,B,2024-08-15_14h30.15.052,Slot Machine Game,2023.1.3,MacIntel,59.88023952,,,,,,,,,,,,,,,,,,,162.1712,1,0.7846,162.9702,up,1,,stimuli/card_100_transparent.png,200,100,1,0,1,0,1,,,,,,,,,,,,,,,,,,,,,,,,,,,,,,,,,,,,,,,,
,,,,,B,2024-08-15_14h30.15.052,Slot Machine Game,2023.1.3,MacIntel,59.88023952,,,,,,,,,,,,,,,,,,,164.2705,2,0.7128,164.9997,right,0.5,,stimuli/card_0_transparent.png,200,0,2,0,2,0,1,,,,,,,,,,,,,,,,,,,,,,,,,,,,,,,,,,,,,,,,
,,,,,B,2024-08-15_14h30.15.052,Slot Machine Game,2023.1.3,MacIntel,59.88023952,,,,,,,,,,,,,,,,,,,165.7994,3,0.5559,166.3592,right,1.5,,stimuli/card_10_transparent.png,210,10,3,0,3,0,1,,,,,,,,,,,,,,,,,,,,,,,,,,,,,,,,,,,,,,,,
,,,,,B,2024-08-15_14h30.15.052,Slot Machine Game,2023.1.3,MacIntel,59.88023952,,,,,,,,,,,,,,,,,,,168.1519,4,0.5723,168.7359,up,0.5,,stimuli/card_100_transparent.png,310,100,4,0,4,0,1,,,,,,,,,,,,,,,,,,,,,,,,,,,,,,,,,,,,,,,,
,,,,,B,2024-08-15_14h30.15.052,Slot Machine Game,2023.1.3,MacIntel,59.88023952,,,,,,,,,,,,,,,,,,,169.5358,5,0.6056,170.1688,up,1,,stimuli/card_100_transparent.png,410,100,5,0,5,0,1,,,,,,,,,,,,,,,,,,,,,,,,,,,,,,,,,,,,,,,,
,,,,,B,2024-08-15_14h30.15.052,Slot Machine Game,2023.1.3,MacIntel,59.88023952,,,,,,,,,,,,,,,,,,,171.4692,6,1.8491,173.3351,up,0.5,,stimuli/card_100_transparent.png,510,100,6,0,6,0,1,,,,,,,,,,,,,,,,,,,,,,,,,,,,,,,,,,,,,,,,
,,,,,B,2024-08-15_14h30.15.052,Slot Machine Game,2023.1.3,MacIntel,59.88023952,,,,,,,,,,,,,,,,,,,174.1345,7,0.5297,174.6843,up,1,,stimuli/card_100_transparent.png,610,100,7,0,7,0,1,,,,,,,,,,,,,,,,,,,,,,,,,,,,,,,,,,,,,,,,
,,,,,B,2024-08-15_14h30.15.052,Slot Machine Game,2023.1.3,MacIntel,59.88023952,,,,,,,,,,,,,,,,,,,175.9786,8,0.6609,176.6499,right,1,,stimuli/card_0_transparent.png,610,0,8,0,8,0,1,,,,,,,,,,,,,,,,,,,,,,,,,,,,,,,,,,,,,,,,
,,,,,B,2024-08-15_14h30.15.052,Slot Machine Game,2023.1.3,MacIntel,59.88023952,,,,,,,,,,,,,,,,,,,177.9502,9,0.5422,178.5001,up,1,,stimuli/card_0_transparent.png,610,0,9,0,9,0,1,,,,,,,,,,,,,,,,,,,,,,,,,,,,,,,,,,,,,,,,
,,,,,B,2024-08-15_14h30.15.052,Slot Machine Game,2023.1.3,MacIntel,59.88023952,,,,,,,,,,,,,,,,,,,179.8009,10,0.617,180.4328,up,0.5,,stimuli/card_0_transparent.png,610,0,10,0,10,0,1,,,,,,,,,,,,,,,,,,,,,,,,,,,,,,,,,,,,,,,,
,,,,,B,2024-08-15_14h30.15.052,Slot Machine Game,2023.1.3,MacIntel,59.88023952,,,,,,,,,,,,,,,,,,,181.2317,11,0.6333,181.8817,up,1.5,,stimuli/card_10_transparent.png,620,10,11,0,11,0,1,,,,,,,,,,,,,,,,,,,,,,,,,,,,,,,,,,,,,,,,
,,,,,B,2024-08-15_14h30.15.052,Slot Machine Game,2023.1.3,MacIntel,59.88023952,,,,,,,,,,,,,,,,,,,183.6779,12,0.6507,184.3486,up,1,,stimuli/card_0_transparent.png,620,0,12,0,12,0,1,,,,,,,,,,,,,,,,,,,,,,,,,,,,,,,,,,,,,,,,
,,,,,B,2024-08-15_14h30.15.052,Slot Machine Game,2023.1.3,MacIntel,59.88023952,,,,,,,,,,,,,,,,,,,185.6484,13,0.5926,186.2475,up,1.5,,stimuli/card_0_transparent.png,620,0,13,0,13,0,1,,,,,,,,,,,,,,,,,,,,,,,,,,,,,,,,,,,,,,,,
,,,,,B,2024-08-15_14h30.15.052,Slot Machine Game,2023.1.3,MacIntel,59.88023952,,,,,,,,,,,,,,,,,,,188.0467,14,0.5554,188.614,up,1,,stimuli/card_0_transparent.png,620,0,14,0,14,0,1,,,,,,,,,,,,,,,,,,,,,,,,,,,,,,,,,,,,,,,,
,,,,,B,2024-08-15_14h30.15.052,Slot Machine Game,2023.1.3,MacIntel,59.88023952,,,,,,,,,,,,,,,,,"[6,15]","[[1,3,2],[3,1,2]]",194.9151,0,1.9808,196.9109,right,0.5,,stimuli/card_10_transparent.png,10,10,0,0,0,0,1,,189.9151,,,,,,,,,,,,,,,,,,,,,,,,,,,,,,,,,,,,,,
,,,,,B,2024-08-15_14h30.15.052,Slot Machine Game,2023.1.3,MacIntel,59.88023952,,,,,,,,,,,,,,,,,,,197.7087,1,0.6089,198.3447,right,1,,stimuli/card_100_transparent.png,110,100,1,0,1,0,1,,,,,,,,,,,,,,,,,,,,,,,,,,,,,,,,,,,,,,,,
,,,,,B,2024-08-15_14h30.15.052,Slot Machine Game,2023.1.3,MacIntel,59.88023952,,,,,,,,,,,,,,,,,,,199.6478,2,0.6384,200.3105,right,1,,stimuli/card_10_transparent.png,120,10,2,0,2,0,1,,,,,,,,,,,,,,,,,,,,,,,,,,,,,,,,,,,,,,,,
,,,,,B,2024-08-15_14h30.15.052,Slot Machine Game,2023.1.3,MacIntel,59.88023952,,,,,,,,,,,,,,,,,,,201.6115,3,0.527,202.1611,right,0.5,,stimuli/card_10_transparent.png,130,10,3,0,3,0,1,,,,,,,,,,,,,,,,,,,,,,,,,,,,,,,,,,,,,,,,
,,,,,B,2024-08-15_14h30.15.052,Slot Machine Game,2023.1.3,MacIntel,59.88023952,,,,,,,,,,,,,,,,,,,202.9449,4,0.5535,203.5103,right,1,,stimuli/card_10_transparent.png,140,10,4,0,4,0,1,,,,,,,,,,,,,,,,,,,,,,,,,,,,,,,,,,,,,,,,
,,,,,B,2024-08-15_14h30.15.052,Slot Machine Game,2023.1.3,MacIntel,59.88023952,,,,,,,,,,,,,,,,,,,204.8091,5,2.6456,207.4763,up,1.5,,stimuli/card_0_transparent.png,140,0,5,0,5,0,1,,,,,,,,,,,,,,,,,,,,,,,,,,,,,,,,,,,,,,,,
,,,,,B,2024-08-15_14h30.15.052,Slot Machine Game,2023.1.3,MacIntel,59.88023952,,,,,,,,,,,,,,,,,,,209.2766,6,0.6581,209.9417,up,0.5,,stimuli/card_100_transparent.png,240,100,6,0,6,0,1,,,,,,,,,,,,,,,,,,,,,,,,,,,,,,,,,,,,,,,,
,,,,,B,2024-08-15_14h30.15.052,Slot Machine Game,2023.1.3,MacIntel,59.88023952,,,,,,,,,,,,,,,,,,,210.7357,7,4.8953,215.6412,up,1.5,,stimuli/card_100_transparent.png,340,100,7,0,7,0,1,,,,,,,,,,,,,,,,,,,,,,,,,,,,,,,,,,,,,,,,
,,,,,B,2024-08-15_14h30.15.052,Slot Machine Game,2023.1.3,MacIntel,59.88023952,,,,,,,,,,,,,,,,,,,217.4425,8,0.5721,218.0402,up,1,,stimuli/card_100_transparent.png,440,100,8,0,8,0,1,,,,,,,,,,,,,,,,,,,,,,,,,,,,,,,,,,,,,,,,
,,,,,B,2024-08-15_14h30.15.052,Slot Machine Game,2023.1.3,MacIntel,59.88023952,,,,,,,,,,,,,,,,,,,219.3274,9,1.8608,221.2052,up,0.5,,stimuli/card_100_transparent.png,540,100,9,0,9,0,1,,,,,,,,,,,,,,,,,,,,,,,,,,,,,,,,,,,,,,,,
,,,,,B,2024-08-15_14h30.15.052,Slot Machine Game,2023.1.3,MacIntel,59.88023952,,,,,,,,,,,,,,,,,,,222.0063,10,0.6166,222.6376,up,0.5,,stimuli/card_100_transparent.png,640,100,10,0,10,0,1,,,,,,,,,,,,,,,,,,,,,,,,,,,,,,,,,,,,,,,,
,,,,,B,2024-08-15_14h30.15.052,Slot Machine Game,2023.1.3,MacIntel,59.88023952,,,,,,,,,,,,,,,,,,,223.4384,11,0.513,223.9704,up,1,,stimuli/card_100_transparent.png,740,100,11,0,11,0,1,,,,,,,,,,,,,,,,,,,,,,,,,,,,,,,,,,,,,,,,
,,,,,B,2024-08-15_14h30.15.052,Slot Machine Game,2023.1.3,MacIntel,59.88023952,,,,,,,,,,,,,,,,,,,225.2709,12,0.5897,225.8705,up,1.5,,stimuli/card_100_transparent.png,840,100,12,0,12,0,1,,,,,,,,,,,,,,,,,,,,,,,,,,,,,,,,,,,,,,,,
,,,,,B,2024-08-15_14h30.15.052,Slot Machine Game,2023.1.3,MacIntel,59.88023952,,,,,,,,,,,,,,,,,,,227.6716,13,1.3948,229.086,left,0.5,,stimuli/card_0_transparent.png,840,0,13,0,13,0,1,,,,,,,,,,,,,,,,,,,,,,,,,,,,,,,,,,,,,,,,
,,,,,B,2024-08-15_14h30.15.052,Slot Machine Game,2023.1.3,MacIntel,59.88023952,,,,,,,,,,,,,,,,,,,229.8838,14,0.5169,230.4205,left,1.5,,stimuli/card_10_transparent.png,850,10,14,0,14,0,1,,,,,,,,,,,,,,,,,,,,,,,,,,,,,,,,,,,,,,,,
,,,,,B,2024-08-15_14h30.15.052,Slot Machine Game,2023.1.3,MacIntel,59.88023952,,,,,,,,,,,,,,,,,,,,,,,,,,,,,,,,,,,232.2206,,,237.2197,space,415.6723,,,,,,,,,,,,,,,,,,,,,,,,,,,,,,,,,
,,,,,B,2024-08-15_14h30.15.052,Slot Machine Game,2023.1.3,MacIntel,59.88023952,,,,,,,,,,,,,,,,,,,,,,,,,,,,,,,,,,,,,,,,,,652.9059,2,"[2,4,8,0,1,3,9,6,8,5]",space,0.9206,,,,,,,,,,,,,,,,,,,,,,,,,,,
,,,,,B,2024-08-15_14h30.15.052,Slot Machine Game,2023.1.3,MacIntel,59.88023952,,,,,,,,,,,,,,,,,,,,,,,,,,,100,,,,,,,,,,,,,,,,,,,,,1,3,"[15,15]","[[3,1,2],[3,1,2]]",653.8429,0,up,0.86,654.7384,1,0.3,"[3,1,2]",0.613606088,stimuli/card_100_transparent.png,100,0,0,0,0,1,,,,,,
,,,,,B,2024-08-15_14h30.15.052,Slot Machine Game,2023.1.3,MacIntel,59.88023952,,,,,,,,,,,,,,,,,,,,,,,,,,,200,,,,,,,,,,,,,,,,,,,,,1,3,,,656.0559,1,up,0.6283,656.7051,1.5,0.3,"[3,1,2]",0.470545283,stimuli/card_100_transparent.png,100,1,0,1,0,1,,,,,,
,,,,,B,2024-08-15_14h30.15.052,Slot Machine Game,2023.1.3,MacIntel,59.88023952,,,,,,,,,,,,,,,,,,,,,,,,,,,210,,,,,,,,,,,,,,,,,,,,,1,3,,,658.5046,2,right,0.6731,659.2044,0.5,0.3,"[3,1,2]",0.950304927,stimuli/card_10_transparent.png,10,2,0,2,0,1,,,,,,
,,,,,B,2024-08-15_14h30.15.052,Slot Machine Game,2023.1.3,MacIntel,59.88023952,,,,,,,,,,,,,,,,,,,,,,,,,,,210,,,,,,,,,,,,,,,,,,,,,1,3,,,659.9953,3,left,0.5629,660.5704,1.5,0.3,"[3,1,2]",0.645864558,stimuli/card_0_transparent.png,0,3,0,3,0,1,,,,,,
,,,,,B,2024-08-15_14h30.15.052,Slot Machine Game,2023.1.3,MacIntel,59.88023952,,,,,,,,,,,,,,,,,,,,,,,,,,,310,,,,,,,,,,,,,,,,,,,,,1,3,,,662.3625,4,up,0.6876,663.0708,0.5,0.3,"[3,1,2]",0.694911135,stimuli/card_100_transparent.png,100,4,0,4,0,1,,,,,,
,,,,,B,2024-08-15_14h30.15.052,Slot Machine Game,2023.1.3,MacIntel,59.88023952,,,,,,,,,,,,,,,,,,,,,,,,,,,410,,,,,,,,,,,,,,,,,,,,,1,3,,,663.8718,5,up,0.5634,664.4526,1,0.3,"[3,1,2]",0.7513374,stimuli/card_100_transparent.png,100,5,0,5,0,1,,,,,,
,,,,,B,2024-08-15_14h30.15.052,Slot Machine Game,2023.1.3,MacIntel,59.88023952,,,,,,,,,,,,,,,,,,,,,,,,,,,510,,,,,,,,,,,,,,,,,,,,,1,3,,,665.7576,6,up,0.6582,666.4356,1.5,0.3,"[3,1,2]",0.272276554,stimuli/card_100_transparent.png,100,6,0,6,0,1,,,,,,
,,,,,B,2024-08-15_14h30.15.052,Slot Machine Game,2023.1.3,MacIntel,59.88023952,,,,,,,,,,,,,,,,,,,,,,,,,,,610,,,,,,,,,,,,,,,,,,,,,1,3,,,668.235,7,up,0.5059,668.7518,1.5,0.3,"[3,1,2]",0.837664501,stimuli/card_100_transparent.png,100,7,0,7,0,1,,,,,,
,,,,,B,2024-08-15_14h30.15.052,Slot Machine Game,2023.1.3,MacIntel,59.88023952,,,,,,,,,,,,,,,,,,,,,,,,,,,710,,,,,,,,,,,,,,,,,,,,,1,3,,,670.5573,8,up,0.6002,671.1846,1,0.3,"[3,1,2]",0.339230785,stimuli/card_100_transparent.png,100,8,0,8,0,1,,,,,,
,,,,,B,2024-08-15_14h30.15.052,Slot Machine Game,2023.1.3,MacIntel,59.88023952,,,,,,,,,,,,,,,,,,,,,,,,,,,710,,,,,,,,,,,,,,,,,,,,,1,3,,,672.4733,9,up,0.572,673.067,1.5,0.3,"[3,1,2]",0.049013566,stimuli/card_0_transparent.png,0,9,0,9,0,1,,,,,,
,,,,,B,2024-08-15_14h30.15.052,Slot Machine Game,2023.1.3,MacIntel,59.88023952,,,,,,,,,,,,,,,,,,,,,,,,,,,810,,,,,,,,,,,,,,,,,,,,,1,3,,,674.8575,10,up,0.5842,675.4502,0.5,0.3,"[3,1,2]",0.575850331,stimuli/card_100_transparent.png,100,10,0,10,0,1,,,,,,
,,,,,B,2024-08-15_14h30.15.052,Slot Machine Game,2023.1.3,MacIntel,59.88023952,,,,,,,,,,,,,,,,,,,,,,,,,,,910,,,,,,,,,,,,,,,,,,,,,1,3,,,676.2536,11,up,0.5401,676.816,0.5,0.3,"[3,1,2]",0.357917967,stimuli/card_100_transparent.png,100,11,0,11,0,1,,,,,,
,,,,,B,2024-08-15_14h30.15.052,Slot Machine Game,2023.1.3,MacIntel,59.88023952,,,,,,,,,,,,,,,,,,,,,,,,,,,1010,,,,,,,,,,,,,,,,,,,,,1,3,,,677.6041,12,up,0.6683,678.2828,1,0.3,"[3,1,2]",0.967536337,stimuli/card_100_transparent.png,100,12,0,12,0,1,,,,,,
,,,,,B,2024-08-15_14h30.15.052,Slot Machine Game,2023.1.3,MacIntel,59.88023952,,,,,,,,,,,,,,,,,,,,,,,,,,,1110,,,,,,,,,,,,,,,,,,,,,1,3,,,679.5825,13,up,1.2461,680.8491,0.5,0.3,"[3,1,2]",0.297639248,stimuli/card_100_transparent.png,100,13,0,13,0,1,,,,,,
,,,,,B,2024-08-15_14h30.15.052,Slot Machine Game,2023.1.3,MacIntel,59.88023952,,,,,,,,,,,,,,,,,,,,,,,,,,,1110,,,,,,,,,,,,,,,,,,,,,1,3,,,681.6477,14,left,0.9729,682.6329,0.5,0.3,"[3,1,2]",0.845959394,stimuli/card_0_transparent.png,0,14,0,14,0,1,,,,,,
,,,,,B,2024-08-15_14h30.15.052,Slot Machine Game,2023.1.3,MacIntel,59.88023952,,,,,,,,,,,,,,,,,,,,,,,,,,,,,,,,,,,683.4319,,,,,,,,,,,,,,,,,,,,,,,,,,,,,,,,,[1110],0,0,0,0,1
,,,,,B,2024-08-15_14h30.15.052,Slot Machine Game,2023.1.3,MacIntel,59.88023952,,,,,,,,,,,,,,,,,,,,,,,,,,,10,,,,,,,,,,,,,,,,,,,,,2,5,"[5,15]","[[1,2,3],[3,1,2]]",688.433,0,left,0.6099,689.0631,1,0.3,"[1,2,3]",0.135423964,stimuli/card_10_transparent.png,10,0,0,0,0,1,,,,,,
,,,,,B,2024-08-15_14h30.15.052,Slot Machine Game,2023.1.3,MacIntel,59.88023952,,,,,,,,,,,,,,,,,,,,,,,,,,,20,,,,,,,,,,,,,,,,,,,,,2,5,,,690.3646,1,up,1.8805,692.2617,0.5,0.3,"[1,2,3]",0.918898934,stimuli/card_10_transparent.png,10,1,0,1,0,1,,,,,,
,,,,,B,2024-08-15_14h30.15.052,Slot Machine Game,2023.1.3,MacIntel,59.88023952,,,,,,,,,,,,,,,,,,,,,,,,,,,20,,,,,,,,,,,,,,,,,,,,,2,5,,,693.0631,2,right,0.911,693.9952,1,0.3,"[1,2,3]",0.983094393,stimuli/card_0_transparent.png,0,2,0,2,0,1,,,,,,
,,,,,B,2024-08-15_14h30.15.052,Slot Machine Game,2023.1.3,MacIntel,59.88023952,,,,,,,,,,,,,,,,,,,,,,,,,,,30,,,,,,,,,,,,,,,,,,,,,2,5,,,695.2949,3,up,1.0372,696.344,1,0.3,"[1,2,3]",0.369261045,stimuli/card_10_transparent.png,10,3,0,3,0,1,,,,,,
,,,,,B,2024-08-15_14h30.15.052,Slot Machine Game,2023.1.3,MacIntel,59.88023952,,,,,,,,,,,,,,,,,,,,,,,,,,,130,,,,,,,,,,,,,,,,,,,,,2,5,,,697.6444,4,left,0.857,698.5102,0.5,0.3,"[1,2,3]",0.420931708,stimuli/card_100_transparent.png,100,4,0,4,0,1,,,,,,
,,,,,B,2024-08-15_14h30.15.052,Slot Machine Game,2023.1.3,MacIntel,59.88023952,,,,,,,,,,,,,,,,,,,,,,,,,,,230,,,,,,,,,,,,,,,,,,,,,2,5,,,699.3103,5,up,2.0123,701.3432,1,0.3,"[3,1,2]",0.716911943,stimuli/card_100_transparent.png,100,5,0,5,0,1,,,,,,
,,,,,B,2024-08-15_14h30.15.052,Slot Machine Game,2023.1.3,MacIntel,59.88023952,,,,,,,,,,,,,,,,,,,,,,,,,,,330,,,,,,,,,,,,,,,,,,,,,2,5,,,702.6432,6,up,1.5156,704.1756,1,0.3,"[3,1,2]",0.955526446,stimuli/card_100_transparent.png,100,6,0,6,0,1,,,,,,
,,,,,B,2024-08-15_14h30.15.052,Slot Machine Game,2023.1.3,MacIntel,59.88023952,,,,,,,,,,,,,,,,,,,,,,,,,,,430,,,,,,,,,,,,,,,,,,,,,2,5,,,705.4777,7,up,0.8976,706.3912,0.5,0.3,"[3,1,2]",0.94052317,stimuli/card_100_transparent.png,100,7,0,7,0,1,,,,,,
,,,,,B,2024-08-15_14h30.15.052,Slot Machine Game,2023.1.3,MacIntel,59.88023952,,,,,,,,,,,,,,,,,,,,,,,,,,,530,,,,,,,,,,,,,,,,,,,,,2,5,,,707.1918,8,up,1.1076,708.3083,1,0.3,"[3,1,2]",0.278888846,stimuli/card_100_transparent.png,100,8,0,8,0,1,,,,,,
,,,,,B,2024-08-15_14h30.15.052,Slot Machine Game,2023.1.3,MacIntel,59.88023952,,,,,,,,,,,,,,,,,,,,,,,,,,,540,,,,,,,,,,,,,,,,,,,,,2,5,,,709.6075,9,up,0.6735,710.2907,1.5,0.3,"[3,1,2]",0.149524306,stimuli/card_10_transparent.png,10,9,0,9,0,1,,,,,,
,,,,,B,2024-08-15_14h30.15.052,Slot Machine Game,2023.1.3,MacIntel,59.88023952,,,,,,,,,,,,,,,,,,,,,,,,,,,550,,,,,,,,,,,,,,,,,,,,,2,5,,,712.0904,10,right,2.5457,714.6561,1,0.3,"[3,1,2]",0.484004972,stimuli/card_10_transparent.png,10,10,0,10,0,1,,,,,,
,,,,,B,2024-08-15_14h30.15.052,Slot Machine Game,2023.1.3,MacIntel,59.88023952,,,,,,,,,,,,,,,,,,,,,,,,,,,550,,,,,,,,,,,,,,,,,,,,,2,5,,,715.9528,11,left,1.1334,717.1063,1.5,0.3,"[3,1,2]",0.296317553,stimuli/card_0_transparent.png,0,11,0,11,0,1,,,,,,
,,,,,B,2024-08-15_14h30.15.052,Slot Machine Game,2023.1.3,MacIntel,59.88023952,,,,,,,,,,,,,,,,,,,,,,,,,,,650,,,,,,,,,,,,,,,,,,,,,2,5,,,718.8959,12,up,1.2208,720.139,0.5,0.3,"[3,1,2]",0.763552398,stimuli/card_100_transparent.png,100,12,0,12,0,1,,,,,,
,,,,,B,2024-08-15_14h30.15.052,Slot Machine Game,2023.1.3,MacIntel,59.88023952,,,,,,,,,,,,,,,,,,,,,,,,,,,750,,,,,,,,,,,,,,,,,,,,,2,5,,,720.9412,13,left,1.9438,722.9048,0.5,0.3,"[3,1,2]",0.018348329,stimuli/card_100_transparent.png,100,13,0,13,0,1,,,,,,
,,,,,B,2024-08-15_14h30.15.052,Slot Machine Game,2023.1.3,MacIntel,59.88023952,,,,,,,,,,,,,,,,,,,,,,,,,,,750,,,,,,,,,,,,,,,,,,,,,2,5,,,723.7037,14,left,0.7309,724.4544,0.5,0.3,"[3,1,2]",0.565661849,stimuli/card_0_transparent.png,0,14,0,14,0,1,,,,,,
,,,,,B,2024-08-15_14h30.15.052,Slot Machine Game,2023.1.3,MacIntel,59.88023952,,,,,,,,,,,,,,,,,,,,,,,,,,,,,,,,,,,725.2545,,,,,,,,,,,,,,,,,,,,,,,,,,,,,,,,,"[1110,750]",1,0,1,0,1
,,,,,B,2024-08-15_14h30.15.052,Slot Machine Game,2023.1.3,MacIntel,59.88023952,,,,,,,,,,,,,,,,,,,,,,,,,,,10,,,,,,,,,,,,,,,,,,,,,3,9,"[8,15]","[[3,2,1],[3,1,2]]",730.256,0,up,4.9483,735.2168,1.5,0.3,"[3,2,1]",0.83642515,stimuli/card_10_transparent.png,10,0,0,0,0,1,,,,,,
,,,,,B,2024-08-15_14h30.15.052,Slot Machine Game,2023.1.3,MacIntel,59.88023952,,,,,,,,,,,,,,,,,,,,,,,,,,,10,,,,,,,,,,,,,,,,,,,,,3,9,,,737.0172,1,left,1.2463,738.2838,1.5,0.3,"[3,2,1]",0.385414536,stimuli/card_0_transparent.png,0,1,0,1,0,1,,,,,,
,,,,,B,2024-08-15_14h30.15.052,Slot Machine Game,2023.1.3,MacIntel,59.88023952,,,,,,,,,,,,,,,,,,,,,,,,,,,20,,,,,,,,,,,,,,,,,,,,,3,9,,,740.0828,2,right,1.2058,741.2994,1,0.3,"[3,2,1]",0.173707236,stimuli/card_10_transparent.png,10,2,0,2,0,1,,,,,,
,,,,,B,2024-08-15_14h30.15.052,Slot Machine Game,2023.1.3,MacIntel,59.88023952,,,,,,,,,,,,,,,,,,,,,,,,,,,30,,,,,,,,,,,,,,,,,,,,,3,9,,,742.5996,3,up,0.6957,743.3155,1,0.3,"[3,2,1]",0.529375769,stimuli/card_10_transparent.png,10,3,0,3,0,1,,,,,,
,,,,,B,2024-08-15_14h30.15.052,Slot Machine Game,2023.1.3,MacIntel,59.88023952,,,,,,,,,,,,,,,,,,,,,,,,,,,30,,,,,,,,,,,,,,,,,,,,,3,9,,,744.6147,4,left,1.1732,745.7975,1.5,0.3,"[3,2,1]",0.803785862,stimuli/card_0_transparent.png,0,4,0,4,0,1,,,,,,
,,,,,B,2024-08-15_14h30.15.052,Slot Machine Game,2023.1.3,MacIntel,59.88023952,,,,,,,,,,,,,,,,,,,,,,,,,,,40,,,,,,,,,,,,,,,,,,,,,3,9,,,747.5968,5,up,1.1602,748.7639,1.5,0.3,"[3,2,1]",0.332502277,stimuli/card_10_transparent.png,10,5,0,5,0,1,,,,,,
,,,,,B,2024-08-15_14h30.15.052,Slot Machine Game,2023.1.3,MacIntel,59.88023952,,,,,,,,,,,,,,,,,,,,,,,,,,,140,,,,,,,,,,,,,,,,,,,,,3,9,,,750.563,6,right,1.1901,751.7627,1,0.3,"[3,2,1]",0.432353786,stimuli/card_100_transparent.png,100,6,0,6,0,1,,,,,,
,,,,,B,2024-08-15_14h30.15.052,Slot Machine Game,2023.1.3,MacIntel,59.88023952,,,,,,,,,,,,,,,,,,,,,,,,,,,150,,,,,,,,,,,,,,,,,,,,,3,9,,,753.063,7,up,0.6913,753.779,1.5,0.3,"[3,2,1]",0.519630816,stimuli/card_10_transparent.png,10,7,0,7,0,1,,,,,,
,,,,,B,2024-08-15_14h30.15.052,Slot Machine Game,2023.1.3,MacIntel,59.88023952,,,,,,,,,,,,,,,,,,,,,,,,,,,160,,,,,,,,,,,,,,,,,,,,,3,9,,,755.5788,8,left,0.9617,756.5627,0.5,0.3,"[3,1,2]",0.171883812,stimuli/card_10_transparent.png,10,8,0,8,0,1,,,,,,
,,,,,B,2024-08-15_14h30.15.052,Slot Machine Game,2023.1.3,MacIntel,59.88023952,,,,,,,,,,,,,,,,,,,,,,,,,,,160,,,,,,,,,,,,,,,,,,,,,3,9,,,757.3632,9,left,0.928,758.3119,1.5,0.3,"[3,1,2]",0.721348098,stimuli/card_0_transparent.png,0,9,0,9,0,1,,,,,,
,,,,,B,2024-08-15_14h30.15.052,Slot Machine Game,2023.1.3,MacIntel,59.88023952,,,,,,,,,,,,,,,,,,,,,,,,,,,260,,,,,,,,,,,,,,,,,,,,,3,9,,,760.1114,10,up,0.615,760.7443,1,0.3,"[3,1,2]",0.622640102,stimuli/card_100_transparent.png,100,10,0,10,0,1,,,,,,
