key_resp_welcome_started,key_resp_welcome_keys,key_resp_welcome_rt,key_resp_welcome_duration,prolific_pid,path_id,date,expName,psychopyVersion,OS,frameRate,key_resp_instruction1_started,key_resp_instruction1_keys,key_resp_instruction1_rt,key_resp_instruction1_duration,key_resp_instruction2_started,key_resp_instruction2_keys,key_resp_instruction2_rt,key_resp_instruction2_duration,key_resp_instruction3_started,key_resp_instruction3_keys,key_resp_instruction3_rt,key_resp_instruction3_duration,key_resp_instruction4_started,key_resp_instruction4_keys,key_resp_instruction4_rt,key_resp_instruction4_duration,practiceCondition,practice_reward_seqs,practice_trial_started,practice_trial_num,prac_presentationInterval,practice_reward_seq,practice_trials.thisRepN,practice_trials.thisTrialN,practice_trials.thisN,practice_trials.thisIndex,practice_trials.ran,practice_resp_rt,practice_keypress_time,practice_resp_keys,reward_img,cumulative_reward,trial_reward,block_break_started,practice_end_time,practice_end_keys,practice_end_rt,practice_end_duration,main_instruction_text_started,block_condition,block_order_indices,main_instruction_keys,main_instruction_rt,main_instruction_duration,block_number,block_assignment,current_condition,main_reward_seqs,main_trial_started,main_trial_num,main_trial_keys,main_trial_rt,main_trial_keypress_time,main_presentationInterval,reward_presentation_time,main_reward_seq,reward_rand_val,main_reward_img,current_reward,main_trials.thisRepN,main_trials.thisTrialN,main_trials.thisN,main_trials.thisIndex,main_trials.ran,block_reward,block.thisRepN,block.thisTrialN,block.thisN,block.thisIndex,block.ran,block_reward.length,block_reward_all,reward_amount,date_end_task
0.0003,space,4.4396,,5de7d12c26dd95000b6824c5,B,2024-08-16_13h26.26.504,Slot Machine Game,2023.1.3,Win32,59.52380952,,,,,,,,,,,,,,,,,,,,,,,,,,,,,,,,,,,,,,,,,,,,,,,,,,,,,,,,,,,,,,,,,,,,,,,,,,
,,,,5de7d12c26dd95000b6824c5,B,2024-08-16_13h26.26.504,Slot Machine Game,2023.1.3,Win32,59.52380952,4.4531,space,21.0624,,,,,,,,,,,,,,,,,,,,,,,,,,,,,,,,,,,,,,,,,,,,,,,,,,,,,,,,,,,,,,,,,,,,,,,
,,,,5de7d12c26dd95000b6824c5,B,2024-08-16_13h26.26.504,Slot Machine Game,2023.1.3,Win32,59.52380952,,,,,25.5455,space,56.4267,,,,,,,,,,,,,,,,,,,,,,,,,,,,,,,,,,,,,,,,,,,,,,,,,,,,,,,,,,,,,,,,,,,
,,,,5de7d12c26dd95000b6824c5,B,2024-08-16_13h26.26.504,Slot Machine Game,2023.1.3,Win32,59.52380952,,,,,,,,,82.0098,N/A,16.1074,,,,,,,,,,,,,,,,,,,,,,,,,,,,,,,,,,,,,,,,,,,,,,,,,,,,,,,,,,,,,,,
,,,,5de7d12c26dd95000b6824c5,B,2024-08-16_13h26.26.504,Slot Machine Game,2023.1.3,Win32,59.52380952,,,,,,,,,,,,,,,,,,,,,,,,,,,,,,,,,,,,,,,,,,,,,,,,,,,,,,,,,,,,,,,,,,,,,,,,,,
,,,,5de7d12c26dd95000b6824c5,B,2024-08-16_13h26.26.504,Slot Machine Game,2023.1.3,Win32,59.52380952,,,,,,,,,,,,,239.9931,space,5.0635,,,,,,,,,,,,,,,,,,,,,,,,,,,,,,,,,,,,,,,,,,,,,,,,,,,,,,,,,,,
,,,,5de7d12c26dd95000b6824c5,B,2024-08-16_13h26.26.504,Slot Machine Game,2023.1.3,Win32,59.52380952,,,,,,,,,,,,,,,,,"[9,15]","[[2,1,3],[2,3,1]]",245.0972,0,0.5,"[2,1,3]",0,0,0,0,1,,,,,,,,,,,,,,,,,,,,,,,,,,,,,,,,,,,,,,,,,,,,,,,
,,,,5de7d12c26dd95000b6824c5,B,2024-08-16_13h26.26.504,Slot Machine Game,2023.1.3,Win32,59.52380952,,,,,,,,,,,,,,,,,,,250.6367,1,1.5,"[2,1,3]",1,0,1,0,1,0.8989,251.561,up,stimuli/card_100_transparent.png,100,100,,,,,,,,,,,,,,,,,,,,,,,,,,,,,,,,,,,,,,,,,
,,,,5de7d12c26dd95000b6824c5,B,2024-08-16_13h26.26.504,Slot Machine Game,2023.1.3,Win32,59.52380952,,,,,,,,,,,,,,,,,,,253.3569,2,1.5,"[2,1,3]",2,0,2,0,1,0.6382,254.0216,up,stimuli/card_10_transparent.png,110,10,,,,,,,,,,,,,,,,,,,,,,,,,,,,,,,,,,,,,,,,,
,,,,5de7d12c26dd95000b6824c5,B,2024-08-16_13h26.26.504,Slot Machine Game,2023.1.3,Win32,59.52380952,,,,,,,,,,,,,,,,,,,255.8165,3,1,"[2,1,3]",3,0,3,0,1,0.6768,256.5146,up,stimuli/card_100_transparent.png,210,100,,,,,,,,,,,,,,,,,,,,,,,,,,,,,,,,,,,,,,,,,
,,,,5de7d12c26dd95000b6824c5,B,2024-08-16_13h26.26.504,Slot Machine Game,2023.1.3,Win32,59.52380952,,,,,,,,,,,,,,,,,,,257.8112,4,0.5,"[2,1,3]",4,0,4,0,1,3.3382,261.1685,up,stimuli/card_100_transparent.png,310,100,,,,,,,,,,,,,,,,,,,,,,,,,,,,,,,,,,,,,,,,,
,,,,5de7d12c26dd95000b6824c5,B,2024-08-16_13h26.26.504,Slot Machine Game,2023.1.3,Win32,59.52380952,,,,,,,,,,,,,,,,,,,261.9662,5,1.5,"[2,1,3]",5,0,5,0,1,1.4314,263.4291,up,stimuli/card_100_transparent.png,410,100,,,,,,,,,,,,,,,,,,,,,,,,,,,,,,,,,,,,,,,,,
,,,,5de7d12c26dd95000b6824c5,B,2024-08-16_13h26.26.504,Slot Machine Game,2023.1.3,Win32,59.52380952,,,,,,,,,,,,,,,,,,,265.2244,6,0.5,"[2,1,3]",6,0,6,0,1,0.8929,266.1384,up,stimuli/card_100_transparent.png,510,100,,,,,,,,,,,,,,,,,,,,,,,,,,,,,,,,,,,,,,,,,
,,,,5de7d12c26dd95000b6824c5,B,2024-08-16_13h26.26.504,Slot Machine Game,2023.1.3,Win32,59.52380952,,,,,,,,,,,,,,,,,,,266.9362,7,1,"[2,1,3]",7,0,7,0,1,0.5009,267.4681,up,stimuli/card_100_transparent.png,610,100,,,,,,,,,,,,,,,,,,,,,,,,,,,,,,,,,,,,,,,,,
,,,,5de7d12c26dd95000b6824c5,B,2024-08-16_13h26.26.504,Slot Machine Game,2023.1.3,Win32,59.52380952,,,,,,,,,,,,,,,,,,,268.7645,8,1.5,"[2,1,3]",8,0,8,0,1,0.5284,269.3128,up,stimuli/card_100_transparent.png,710,100,,,,,,,,,,,,,,,,,,,,,,,,,,,,,,,,,,,,,,,,,
,,,,5de7d12c26dd95000b6824c5,B,2024-08-16_13h26.26.504,Slot Machine Game,2023.1.3,Win32,59.52380952,,,,,,,,,,,,,,,,,,,271.1081,9,1.5,"[2,3,1]",9,0,9,0,1,1.7244,272.8531,up,stimuli/card_0_transparent.png,710,0,,,,,,,,,,,,,,,,,,,,,,,,,,,,,,,,,,,,,,,,,
,,,,5de7d12c26dd95000b6824c5,B,2024-08-16_13h26.26.504,Slot Machine Game,2023.1.3,Win32,59.52380952,,,,,,,,,,,,,,,,,,,274.6484,10,1.5,"[2,3,1]",10,0,10,0,1,0.9493,275.6293,up,stimuli/card_0_transparent.png,710,0,,,,,,,,,,,,,,,,,,,,,,,,,,,,,,,,,,,,,,,,,
,,,,5de7d12c26dd95000b6824c5,B,2024-08-16_13h26.26.504,Slot Machine Game,2023.1.3,Win32,59.52380952,,,,,,,,,,,,,,,,,,,277.4242,11,0.5,"[2,3,1]",11,0,11,0,1,0.6735,278.1222,up,stimuli/card_0_transparent.png,710,0,,,,,,,,,,,,,,,,,,,,,,,,,,,,,,,,,,,,,,,,,
,,,,5de7d12c26dd95000b6824c5,B,2024-08-16_13h26.26.504,Slot Machine Game,2023.1.3,Win32,59.52380952,,,,,,,,,,,,,,,,,,,278.9201,12,1.5,"[2,3,1]",12,0,12,0,1,0.8885,279.8343,left,stimuli/card_100_transparent.png,810,100,,,,,,,,,,,,,,,,,,,,,,,,,,,,,,,,,,,,,,,,,
,,,,5de7d12c26dd95000b6824c5,B,2024-08-16_13h26.26.504,Slot Machine Game,2023.1.3,Win32,59.52380952,,,,,,,,,,,,,,,,,,,281.6295,13,1.5,"[2,3,1]",13,0,13,0,1,0.5276,282.1778,left,stimuli/card_10_transparent.png,820,10,,,,,,,,,,,,,,,,,,,,,,,,,,,,,,,,,,,,,,,,,
,,,,5de7d12c26dd95000b6824c5,B,2024-08-16_13h26.26.504,Slot Machine Game,2023.1.3,Win32,59.52380952,,,,,,,,,,,,,,,,,,,283.9727,14,0.5,"[2,3,1]",14,0,14,0,1,0.7334,284.7373,left,stimuli/card_10_transparent.png,830,10,,,,,,,,,,,,,,,,,,,,,,,,,,,,,,,,,,,,,,,,,
,,,,5de7d12c26dd95000b6824c5,B,2024-08-16_13h26.26.504,Slot Machine Game,2023.1.3,Win32,59.52380952,,,,,,,,,,,,,,,,,"[6,15]","[[1,3,2],[3,1,2]]",290.5469,0,1,"[1,3,2]",0,0,0,0,1,1.1393,291.7021,right,stimuli/card_10_transparent.png,10,10,285.5525,,,,,,,,,,,,,,,,,,,,,,,,,,,,,,,,,,,,,,,,
,,,,5de7d12c26dd95000b6824c5,B,2024-08-16_13h26.26.504,Slot Machine Game,2023.1.3,Win32,59.52380952,,,,,,,,,,,,,,,,,,,292.9982,1,0.5,"[1,3,2]",1,0,1,0,1,0.5108,293.5301,right,stimuli/card_10_transparent.png,20,10,,,,,,,,,,,,,,,,,,,,,,,,,,,,,,,,,,,,,,,,,
,,,,5de7d12c26dd95000b6824c5,B,2024-08-16_13h26.26.504,Slot Machine Game,2023.1.3,Win32,59.52380952,,,,,,,,,,,,,,,,,,,294.3279,2,0.5,"[1,3,2]",2,0,2,0,1,1.4887,295.8405,up,stimuli/card_0_transparent.png,20,0,,,,,,,,,,,,,,,,,,,,,,,,,,,,,,,,,,,,,,,,,
,,,,5de7d12c26dd95000b6824c5,B,2024-08-16_13h26.26.504,Slot Machine Game,2023.1.3,Win32,59.52380952,,,,,,,,,,,,,,,,,,,296.6386,3,1.5,"[1,3,2]",3,0,3,0,1,1.3429,298.001,left,stimuli/card_100_transparent.png,120,100,,,,,,,,,,,,,,,,,,,,,,,,,,,,,,,,,,,,,,,,,
,,,,5de7d12c26dd95000b6824c5,B,2024-08-16_13h26.26.504,Slot Machine Game,2023.1.3,Win32,59.52380952,,,,,,,,,,,,,,,,,,,299.7964,4,1.5,"[1,3,2]",4,0,4,0,1,1.4997,301.3252,left,stimuli/card_100_transparent.png,220,100,,,,,,,,,,,,,,,,,,,,,,,,,,,,,,,,,,,,,,,,,
,,,,5de7d12c26dd95000b6824c5,B,2024-08-16_13h26.26.504,Slot Machine Game,2023.1.3,Win32,59.52380952,,,,,,,,,,,,,,,,,,,303.1206,5,1.5,"[1,3,2]",5,0,5,0,1,0.5284,303.6689,left,stimuli/card_0_transparent.png,220,0,,,,,,,,,,,,,,,,,,,,,,,,,,,,,,,,,,,,,,,,,
,,,,5de7d12c26dd95000b6824c5,B,2024-08-16_13h26.26.504,Slot Machine Game,2023.1.3,Win32,59.52380952,,,,,,,,,,,,,,,,,,,305.4646,6,0.5,"[3,1,2]",6,0,6,0,1,1.053,306.5448,left,stimuli/card_0_transparent.png,220,0,,,,,,,,,,,,,,,,,,,,,,,,,,,,,,,,,,,,,,,,,
,,,,5de7d12c26dd95000b6824c5,B,2024-08-16_13h26.26.504,Slot Machine Game,2023.1.3,Win32,59.52380952,,,,,,,,,,,,,,,,,,,307.3426,7,0.5,"[3,1,2]",7,0,7,0,1,0.9746,308.34,up,stimuli/card_10_transparent.png,230,10,,,,,,,,,,,,,,,,,,,,,,,,,,,,,,,,,,,,,,,,,
,,,,5de7d12c26dd95000b6824c5,B,2024-08-16_13h26.26.504,Slot Machine Game,2023.1.3,Win32,59.52380952,,,,,,,,,,,,,,,,,,,309.1372,8,1.5,"[3,1,2]",8,0,8,0,1,0.9316,310.1017,right,stimuli/card_10_transparent.png,240,10,,,,,,,,,,,,,,,,,,,,,,,,,,,,,,,,,,,,,,,,,
,,,,5de7d12c26dd95000b6824c5,B,2024-08-16_13h26.26.504,Slot Machine Game,2023.1.3,Win32,59.52380952,,,,,,,,,,,,,,,,,,,311.8966,9,0.5,"[3,1,2]",9,0,9,0,1,0.861,312.7776,right,stimuli/card_10_transparent.png,250,10,,,,,,,,,,,,,,,,,,,,,,,,,,,,,,,,,,,,,,,,,
,,,,5de7d12c26dd95000b6824c5,B,2024-08-16_13h26.26.504,Slot Machine Game,2023.1.3,Win32,59.52380952,,,,,,,,,,,,,,,,,,,313.5757,10,1,"[3,1,2]",10,0,10,0,1,0.9099,314.5062,up,stimuli/card_100_transparent.png,350,100,,,,,,,,,,,,,,,,,,,,,,,,,,,,,,,,,,,,,,,,,
,,,,5de7d12c26dd95000b6824c5,B,2024-08-16_13h26.26.504,Slot Machine Game,2023.1.3,Win32,59.52380952,,,,,,,,,,,,,,,,,,,315.8025,11,1,"[3,1,2]",11,0,11,0,1,0.9051,316.7331,up,stimuli/card_100_transparent.png,450,100,,,,,,,,,,,,,,,,,,,,,,,,,,,,,,,,,,,,,,,,,
,,,,5de7d12c26dd95000b6824c5,B,2024-08-16_13h26.26.504,Slot Machine Game,2023.1.3,Win32,59.52380952,,,,,,,,,,,,,,,,,,,318.0298,12,1,"[3,1,2]",12,0,12,0,1,1.0484,319.1104,up,stimuli/card_0_transparent.png,450,0,,,,,,,,,,,,,,,,,,,,,,,,,,,,,,,,,,,,,,,,,
,,,,5de7d12c26dd95000b6824c5,B,2024-08-16_13h26.26.504,Slot Machine Game,2023.1.3,Win32,59.52380952,,,,,,,,,,,,,,,,,,,320.4068,13,1.5,"[3,1,2]",13,0,13,0,1,0.8337,321.2709,up,stimuli/card_100_transparent.png,550,100,,,,,,,,,,,,,,,,,,,,,,,,,,,,,,,,,,,,,,,,,
,,,,5de7d12c26dd95000b6824c5,B,2024-08-16_13h26.26.504,Slot Machine Game,2023.1.3,Win32,59.52380952,,,,,,,,,,,,,,,,,,,323.0661,14,0.5,"[3,1,2]",14,0,14,0,1,0.8271,323.9137,up,stimuli/card_100_transparent.png,650,100,,,,,,,,,,,,,,,,,,,,,,,,,,,,,,,,,,,,,,,,,
,,,,5de7d12c26dd95000b6824c5,B,2024-08-16_13h26.26.504,Slot Machine Game,2023.1.3,Win32,59.52380952,,,,,,,,,,,,,,,,,,,,,,,,,,,,,,,,,,324.7126,329.7159,space,3.0746,,,,,,,,,,,,,,,,,,,,,,,,,,,,,,,,,,,,,
,,,,5de7d12c26dd95000b6824c5,B,2024-08-16_13h26.26.504,Slot Machine Game,2023.1.3,Win32,59.52380952,,,,,,,,,,,,,,,,,,,,,,,,,,,,,,,,,,,,,,,332.807,3,"[0,4,6,3,5,7,8,1,9,2]",space,5.3655,,,,,,,,,,,,,,,,,,,,,,,,,,,,,,,
,,,,5de7d12c26dd95000b6824c5,B,2024-08-16_13h26.26.504,Slot Machine Game,2023.1.3,Win32,59.52380952,,,,,,,,,,,,,,,,,,,,,,,,,,,,,,,,100,,,,,,,,,,,,,1,1,"[12,15]","[[2,1,3],[2,3,1]]",338.212,0,up,0.9163,339.1561,0.5,0.3,"[2,1,3]",0.229764576,stimuli/card_100_transparent.png,100,0,0,0,0,1,,,,,,,,,,
,,,,5de7d12c26dd95000b6824c5,B,2024-08-16_13h26.26.504,Slot Machine Game,2023.1.3,Win32,59.52380952,,,,,,,,,,,,,,,,,,,,,,,,,,,,,,,,200,,,,,,,,,,,,,1,1,,,339.9535,1,up,0.9036,340.8842,1.5,0.3,"[2,1,3]",0.407937616,stimuli/card_100_transparent.png,100,1,0,1,0,1,,,,,,,,,,
,,,,5de7d12c26dd95000b6824c5,B,2024-08-16_13h26.26.504,Slot Machine Game,2023.1.3,Win32,59.52380952,,,,,,,,,,,,,,,,,,,,,,,,,,,,,,,,210,,,,,,,,,,,,,1,1,,,342.6792,2,up,0.8378,343.5436,1,0.3,"[2,1,3]",0.18273557,stimuli/card_10_transparent.png,10,2,0,2,0,1,,,,,,,,,,
,,,,5de7d12c26dd95000b6824c5,B,2024-08-16_13h26.26.504,Slot Machine Game,2023.1.3,Win32,59.52380952,,,,,,,,,,,,,,,,,,,,,,,,,,,,,,,,210,,,,,,,,,,,,,1,1,,,344.8403,3,up,0.9568,345.8208,1,0.3,"[2,1,3]",0.070544879,stimuli/card_0_transparent.png,0,3,0,3,0,1,,,,,,,,,,
,,,,5de7d12c26dd95000b6824c5,B,2024-08-16_13h26.26.504,Slot Machine Game,2023.1.3,Win32,59.52380952,,,,,,,,,,,,,,,,,,,,,,,,,,,,,,,,210,,,,,,,,,,,,,1,1,,,347.117,4,right,0.5504,347.6991,1,0.3,"[2,1,3]",0.511900418,stimuli/card_0_transparent.png,0,4,0,4,0,1,,,,,,,,,,
,,,,5de7d12c26dd95000b6824c5,B,2024-08-16_13h26.26.504,Slot Machine Game,2023.1.3,Win32,59.52380952,,,,,,,,,,,,,,,,,,,,,,,,,,,,,,,,220,,,,,,,,,,,,,1,1,,,348.9957,5,left,0.909,349.926,1,0.3,"[2,1,3]",0.297808561,stimuli/card_10_transparent.png,10,5,0,5,0,1,,,,,,,,,,
,,,,5de7d12c26dd95000b6824c5,B,2024-08-16_13h26.26.504,Slot Machine Game,2023.1.3,Win32,59.52380952,,,,,,,,,,,,,,,,,,,,,,,,,,,,,,,,220,,,,,,,,,,,,,1,1,,,351.2226,6,right,0.6386,351.8871,1.5,0.3,"[2,1,3]",0.643054155,stimuli/card_0_transparent.png,0,6,0,6,0,1,,,,,,,,,,
,,,,5de7d12c26dd95000b6824c5,B,2024-08-16_13h26.26.504,Slot Machine Game,2023.1.3,Win32,59.52380952,,,,,,,,,,,,,,,,,,,,,,,,,,,,,,,,230,,,,,,,,,,,,,1,1,,,353.6826,7,up,1.2576,354.9623,0.5,0.3,"[2,1,3]",0.112423496,stimuli/card_10_transparent.png,10,7,0,7,0,1,,,,,,,,,,
,,,,5de7d12c26dd95000b6824c5,B,2024-08-16_13h26.26.504,Slot Machine Game,2023.1.3,Win32,59.52380952,,,,,,,,,,,,,,,,,,,,,,,,,,,,,,,,240,,,,,,,,,,,,,1,1,,,355.7603,8,left,0.7885,356.5749,1.5,0.3,"[2,1,3]",0.338661043,stimuli/card_10_transparent.png,10,8,0,8,0,1,,,,,,,,,,
,,,,5de7d12c26dd95000b6824c5,B,2024-08-16_13h26.26.504,Slot Machine Game,2023.1.3,Win32,59.52380952,,,,,,,,,,,,,,,,,,,,,,,,,,,,,,,,340,,,,,,,,,,,,,1,1,,,358.3701,9,left,2.0872,360.4815,1,0.3,"[2,1,3]",0.100210045,stimuli/card_100_transparent.png,100,9,0,9,0,1,,,,,,,,,,
,,,,5de7d12c26dd95000b6824c5,B,2024-08-16_13h26.26.504,Slot Machine Game,2023.1.3,Win32,59.52380952,,,,,,,,,,,,,,,,,,,,,,,,,,,,,,,,350,,,,,,,,,,,,,1,1,,,361.777,10,left,1.0323,362.8406,1.5,0.3,"[2,1,3]",0.602260766,stimuli/card_10_transparent.png,10,10,0,10,0,1,,,,,,,,,,
,,,,5de7d12c26dd95000b6824c5,B,2024-08-16_13h26.26.504,Slot Machine Game,2023.1.3,Win32,59.52380952,,,,,,,,,,,,,,,,,,,,,,,,,,,,,,,,360,,,,,,,,,,,,,1,1,,,364.6363,11,left,0.5524,365.2178,1,0.3,"[2,1,3]",0.658057531,stimuli/card_10_transparent.png,10,11,0,11,0,1,,,,,,,,,,
,,,,5de7d12c26dd95000b6824c5,B,2024-08-16_13h26.26.504,Slot Machine Game,2023.1.3,Win32,59.52380952,,,,,,,,,,,,,,,,,,,,,,,,,,,,,,,,360,,,,,,,,,,,,,1,1,,,366.5141,12,up,0.8824,367.4282,1,0.3,"[2,3,1]",0.44952102,stimuli/card_0_transparent.png,0,12,0,12,0,1,,,,,,,,,,
,,,,5de7d12c26dd95000b6824c5,B,2024-08-16_13h26.26.504,Slot Machine Game,2023.1.3,Win32,59.52380952,,,,,,,,,,,,,,,,,,,,,,,,,,,,,,,,370,,,,,,,,,,,,,1,1,,,368.7251,13,right,0.9397,369.6889,0.5,0.3,"[2,3,1]",0.111178338,stimuli/card_10_transparent.png,10,13,0,13,0,1,,,,,,,,,,
,,,,5de7d12c26dd95000b6824c5,B,2024-08-16_13h26.26.504,Slot Machine Game,2023.1.3,Win32,59.52380952,,,,,,,,,,,,,,,,,,,,,,,,,,,,,,,,370,,,,,,,,,,,,,1,1,,,370.4868,14,up,0.9325,371.4508,0.5,0.3,"[2,3,1]",0.813910479,stimuli/card_0_transparent.png,0,14,0,14,0,1,,,,,,,,,,
,,,,5de7d12c26dd95000b6824c5,B,2024-08-16_13h26.26.504,Slot Machine Game,2023.1.3,Win32,59.52380952,,,,,,,,,,,,,,,,,,,,,,,,,,,,,,,,,,372.2485,,,,,,,,,,,,,,,,,,,,,,,,,,,,,,,[370],0,0,0,0,1,,,,
,,,,5de7d12c26dd95000b6824c5,B,2024-08-16_13h26.26.504,Slot Machine Game,2023.1.3,Win32,59.52380952,,,,,,,,,,,,,,,,,,,,,,,,,,,,,,,,100,,,,,,,,,,,,,2,5,"[5,15]","[[1,2,3],[3,1,2]]",377.2614,0,left,0.6834,377.9661,1.5,0.3,"[1,2,3]",0.808464151,stimuli/card_100_transparent.png,100,0,0,0,0,1,,,,,,,,,,
,,,,5de7d12c26dd95000b6824c5,B,2024-08-16_13h26.26.504,Slot Machine Game,2023.1.3,Win32,59.52380952,,,,,,,,,,,,,,,,,,,,,,,,,,,,,,,,100,,,,,,,,,,,,,2,5,,,379.7614,1,left,0.8665,380.659,1,0.3,"[1,2,3]",0.08177563,stimuli/card_0_transparent.png,0,1,0,1,0,1,,,,,,,,,,
,,,,5de7d12c26dd95000b6824c5,B,2024-08-16_13h26.26.504,Slot Machine Game,2023.1.3,Win32,59.52380952,,,,,,,,,,,,,,,,,,,,,,,,,,,,,,,,200,,,,,,,,,,,,,2,5,,,381.9555,2,left,0.7243,382.7035,1.5,0.3,"[1,2,3]",0.475795728,stimuli/card_100_transparent.png,100,2,0,2,0,1,,,,,,,,,,
,,,,5de7d12c26dd95000b6824c5,B,2024-08-16_13h26.26.504,Slot Machine Game,2023.1.3,Win32,59.52380952,,,,,,,,,,,,,,,,,,,,,,,,,,,,,,,,300,,,,,,,,,,,,,2,5,,,384.498,3,left,0.7382,385.2631,1,0.3,"[1,2,3]",0.233297253,stimuli/card_100_transparent.png,100,3,0,3,0,1,,,,,,,,,,
,,,,5de7d12c26dd95000b6824c5,B,2024-08-16_13h26.26.504,Slot Machine Game,2023.1.3,Win32,59.52380952,,,,,,,,,,,,,,,,,,,,,,,,,,,,,,,,310,,,,,,,,,,,,,2,5,,,386.5595,4,left,0.733,387.324,0.5,0.3,"[1,2,3]",0.180434713,stimuli/card_10_transparent.png,10,4,0,4,0,1,,,,,,,,,,
,,,,5de7d12c26dd95000b6824c5,B,2024-08-16_13h26.26.504,Slot Machine Game,2023.1.3,Win32,59.52380952,,,,,,,,,,,,,,,,,,,,,,,,,,,,,,,,310,,,,,,,,,,,,,2,5,,,388.122,5,left,0.8111,388.9527,0.5,0.3,"[3,1,2]",0.546763051,stimuli/card_0_transparent.png,0,5,0,5,0,1,,,,,,,,,,
,,,,5de7d12c26dd95000b6824c5,B,2024-08-16_13h26.26.504,Slot Machine Game,2023.1.3,Win32,59.52380952,,,,,,,,,,,,,,,,,,,,,,,,,,,,,,,,410,,,,,,,,,,,,,2,5,,,389.7508,6,up,0.7103,390.4814,0.5,0.3,"[3,1,2]",0.22422811,stimuli/card_100_transparent.png,100,6,0,6,0,1,,,,,,,,,,
,,,,5de7d12c26dd95000b6824c5,B,2024-08-16_13h26.26.504,Slot Machine Game,2023.1.3,Win32,59.52380952,,,,,,,,,,,,,,,,,,,,,,,,,,,,,,,,510,,,,,,,,,,,,,2,5,,,391.2797,7,up,0.6987,392.0109,0.5,0.3,"[3,1,2]",0.814252121,stimuli/card_100_transparent.png,100,7,0,7,0,1,,,,,,,,,,
,,,,5de7d12c26dd95000b6824c5,B,2024-08-16_13h26.26.504,Slot Machine Game,2023.1.3,Win32,59.52380952,,,,,,,,,,,,,,,,,,,,,,,,,,,,,,,,610,,,,,,,,,,,,,2,5,,,392.8092,8,up,1.1833,394.0226,1,0.3,"[3,1,2]",0.493660587,stimuli/card_100_transparent.png,100,8,0,8,0,1,,,,,,,,,,
,,,,5de7d12c26dd95000b6824c5,B,2024-08-16_13h26.26.504,Slot Machine Game,2023.1.3,Win32,59.52380952,,,,,,,,,,,,,,,,,,,,,,,,,,,,,,,,710,,,,,,,,,,,,,2,5,,,395.3188,9,up,0.5176,395.8674,1.5,0.3,"[3,1,2]",0.381940599,stimuli/card_100_transparent.png,100,9,0,9,0,1,,,,,,,,,,
,,,,5de7d12c26dd95000b6824c5,B,2024-08-16_13h26.26.504,Slot Machine Game,2023.1.3,Win32,59.52380952,,,,,,,,,,,,,,,,,,,,,,,,,,,,,,,,810,,,,,,,,,,,,,2,5,,,397.6628,10,up,1.0898,398.7765,1,0.3,"[3,1,2]",0.55422301,stimuli/card_100_transparent.png,100,10,0,10,0,1,,,,,,,,,,
,,,,5de7d12c26dd95000b6824c5,B,2024-08-16_13h26.26.504,Slot Machine Game,2023.1.3,Win32,59.52380952,,,,,,,,,,,,,,,,,,,,,,,,,,,,,,,,910,,,,,,,,,,,,,2,5,,,400.0727,11,up,0.6675,400.7708,1,0.3,"[3,1,2]",0.247607605,stimuli/card_100_transparent.png,100,11,0,11,0,1,,,,,,,,,,
,,,,5de7d12c26dd95000b6824c5,B,2024-08-16_13h26.26.504,Slot Machine Game,2023.1.3,Win32,59.52380952,,,,,,,,,,,,,,,,,,,,,,,,,,,,,,,,1010,,,,,,,,,,,,,2,5,,,402.0668,12,up,0.9175,403.0143,1,0.3,"[3,1,2]",0.54938389,stimuli/card_100_transparent.png,100,12,0,12,0,1,,,,,,,,,,
,,,,5de7d12c26dd95000b6824c5,B,2024-08-16_13h26.26.504,Slot Machine Game,2023.1.3,Win32,59.52380952,,,,,,,,,,,,,,,,,,,,,,,,,,,,,,,,1110,,,,,,,,,,,,,2,5,,,404.3112,13,up,0.7252,405.0585,1,0.3,"[3,1,2]",0.434437807,stimuli/card_100_transparent.png,100,13,0,13,0,1,,,,,,,,,,
,,,,5de7d12c26dd95000b6824c5,B,2024-08-16_13h26.26.504,Slot Machine Game,2023.1.3,Win32,59.52380952,,,,,,,,,,,,,,,,,,,,,,,,,,,,,,,,1210,,,,,,,,,,,,,2,5,,,406.3556,14,up,0.6531,407.0369,1,0.3,"[3,1,2]",0.793480606,stimuli/card_100_transparent.png,100,14,0,14,0,1,,,,,,,,,,
,,,,5de7d12c26dd95000b6824c5,B,2024-08-16_13h26.26.504,Slot Machine Game,2023.1.3,Win32,59.52380952,,,,,,,,,,,,,,,,,,,,,,,,,,,,,,,,,,408.3332,,,,,,,,,,,,,,,,,,,,,,,,,,,,,,,"[370,1210]",1,0,1,0,1,,,,
,,,,5de7d12c26dd95000b6824c5,B,2024-08-16_13h26.26.504,Slot Machine Game,2023.1.3,Win32,59.52380952,,,,,,,,,,,,,,,,,,,,,,,,,,,,,,,,100,,,,,,,,,,,,,3,7,"[9,15]","[[1,3,2],[2,3,1]]",413.3458,0,left,0.6995,414.0674,0.5,0.3,"[1,3,2]",0.42310237,stimuli/card_100_transparent.png,100,0,0,0,0,1,,,,,,,,,,
,,,,5de7d12c26dd95000b6824c5,B,2024-08-16_13h26.26.504,Slot Machine Game,2023.1.3,Win32,59.52380952,,,,,,,,,,,,,,,,,,,,,,,,,,,,,,,,200,,,,,,,,,,,,,3,7,,,414.8653,1,left,0.8419,415.7297,0.5,0.3,"[1,3,2]",0.409592987,stimuli/card_100_transparent.png,100,1,0,1,0,1,,,,,,,,,,
,,,,5de7d12c26dd95000b6824c5,B,2024-08-16_13h26.26.504,Slot Machine Game,2023.1.3,Win32,59.52380952,,,,,,,,,,,,,,,,,,,,,,,,,,,,,,,,200,,,,,,,,,,,,,3,7,,,416.5276,2,left,0.6605,417.2089,1,0.3,"[1,3,2]",0.091453072,stimuli/card_0_transparent.png,0,2,0,2,0,1,,,,,,,,,,
,,,,5de7d12c26dd95000b6824c5,B,2024-08-16_13h26.26.504,Slot Machine Game,2023.1.3,Win32,59.52380952,,,,,,,,,,,,,,,,,,,,,,,,,,,,,,,,300,,,,,,,,,,,,,3,7,,,418.5056,3,left,0.6834,419.2202,1.5,0.3,"[1,3,2]",0.599445749,stimuli/card_100_transparent.png,100,3,0,3,0,1,,,,,,,,,,
,,,,5de7d12c26dd95000b6824c5,B,2024-08-16_13h26.26.504,Slot Machine Game,2023.1.3,Win32,59.52380952,,,,,,,,,,,,,,,,,,,,,,,,,,,,,,,,310,,,,,,,,,,,,,3,7,,,421.0151,4,left,0.5508,421.5967,1,0.3,"[1,3,2]",0.199758295,stimuli/card_10_transparent.png,10,4,0,4,0,1,,,,,,,,,,
,,,,5de7d12c26dd95000b6824c5,B,2024-08-16_13h26.26.504,Slot Machine Game,2023.1.3,Win32,59.52380952,,,,,,,,,,,,,,,,,,,,,,,,,,,,,,,,410,,,,,,,,,,,,,3,7,,,422.8933,5,left,0.5179,423.4427,0.5,0.3,"[1,3,2]",0.488624035,stimuli/card_100_transparent.png,100,5,0,5,0,1,,,,,,,,,,
,,,,5de7d12c26dd95000b6824c5,B,2024-08-16_13h26.26.504,Slot Machine Game,2023.1.3,Win32,59.52380952,,,,,,,,,,,,,,,,,,,,,,,,,,,,,,,,510,,,,,,,,,,,,,3,7,,,424.2399,6,left,0.5208,424.7884,1,0.3,"[1,3,2]",0.991313806,stimuli/card_100_transparent.png,100,6,0,6,0,1,,,,,,,,,,
,,,,5de7d12c26dd95000b6824c5,B,2024-08-16_13h26.26.504,Slot Machine Game,2023.1.3,Win32,59.52380952,,,,,,,,,,,,,,,,,,,,,,,,,,,,,,,,610,,,,,,,,,,,,,3,7,,,426.0851,7,left,0.9878,427.0988,0.5,0.3,"[1,3,2]",0.236518956,stimuli/card_100_transparent.png,100,7,0,7,0,1,,,,,,,,,,
,,,,5de7d12c26dd95000b6824c5,B,2024-08-16_13h26.26.504,Slot Machine Game,2023.1.3,Win32,59.52380952,,,,,,,,,,,,,,,,,,,,,,,,,,,,,,,,710,,,,,,,,,,,,,3,7,,,427.8967,8,left,0.7492,428.678,0.5,0.3,"[1,3,2]",0.793435426,stimuli/card_100_transparent.png,100,8,0,8,0,1,,,,,,,,,,
,,,,5de7d12c26dd95000b6824c5,B,2024-08-16_13h26.26.504,Slot Machine Game,2023.1.3,Win32,59.52380952,,,,,,,,,,,,,,,,,,,,,,,,,,,,,,,,720,,,,,,,,,,,,,3,7,,,429.4761,9,left,0.5042,430.0074,1.5,0.3,"[2,3,1]",0.649070693,stimuli/card_10_transparent.png,10,9,0,9,0,1,,,,,,,,,,
,,,,5de7d12c26dd95000b6824c5,B,2024-08-16_13h26.26.504,Slot Machine Game,2023.1.3,Win32,59.52380952,,,,,,,,,,,,,,,,,,,,,,,,,,,,,,,,730,,,,,,,,,,,,,3,7,,,431.8025,10,left,0.6831,432.5173,0.5,0.3,"[2,3,1]",0.907159224,stimuli/card_10_transparent.png,10,10,0,10,0,1,,,,,,,,,,
,,,,5de7d12c26dd95000b6824c5,B,2024-08-16_13h26.26.504,Slot Machine Game,2023.1.3,Win32,59.52380952,,,,,,,,,,,,,,,,,,,,,,,,,,,,,,,,830,,,,,,,,,,,,,3,7,,,433.3148,11,right,0.7174,434.0629,1,0.3,"[2,3,1]",0.812823462,stimuli/card_100_transparent.png,100,11,0,11,0,1,,,,,,,,,,
,,,,5de7d12c26dd95000b6824c5,B,2024-08-16_13h26.26.504,Slot Machine Game,2023.1.3,Win32,59.52380952,,,,,,,,,,,,,,,,,,,,,,,,,,,,,,,,930,,,,,,,,,,,,,3,7,,,435.3597,12,right,0.5611,435.9412,1.5,0.3,"[2,3,1]",0.514757007,stimuli/card_100_transparent.png,100,12,0,12,0,1,,,,,,,,,,
,,,,5de7d12c26dd95000b6824c5,B,2024-08-16_13h26.26.504,Slot Machine Game,2023.1.3,Win32,59.52380952,,,,,,,,,,,,,,,,,,,,,,,,,,,,,,,,1030,,,,,,,,,,,,,3,7,,,437.7367,13,right,0.5838,438.3514,0.5,0.3,"[2,3,1]",0.334186421,stimuli/card_100_transparent.png,100,13,0,13,0,1,,,,,,,,,,
,,,,5de7d12c26dd95000b6824c5,B,2024-08-16_13h26.26.504,Slot Machine Game,2023.1.3,Win32,59.52380952,,,,,,,,,,,,,,,,,,,,,,,,,,,,,,,,1130,,,,,,,,,,,,,3,7,,,439.1493,14,right,0.5835,439.7643,1,0.3,"[2,3,1]",0.744322841,stimuli/card_100_transparent.png,100,14,0,14,0,1,,,,,,,,,,
,,,,5de7d12c26dd95000b6824c5,B,2024-08-16_13h26.26.504,Slot Machine Game,2023.1.3,Win32,59.52380952,,,,,,,,,,,,,,,,,,,,,,,,,,,,,,,,,,441.0608,,,,,,,,,,,,,,,,,,,,,,,,,,,,,,,"[370,1210,1130]",2,0,2,0,1,,,,
,,,,5de7d12c26dd95000b6824c5,B,2024-08-16_13h26.26.504,Slot Machine Game,2023.1.3,Win32,59.52380952,,,,,,,,,,,,,,,,,,,,,,,,,,,,,,,,100,,,,,,,,,,,,,4,4,"[7,15]","[[2,3,1],[1,2,3]]",446.0836,0,right,0.5006,446.6123,0.5,0.3,"[2,3,1]",0.94193142,stimuli/card_100_transparent.png,100,0,0,0,0,1,,,,,,,,,,
,,,,5de7d12c26dd95000b6824c5,B,2024-08-16_13h26.26.504,Slot Machine Game,2023.1.3,Win32,59.52380952,,,,,,,,,,,,,,,,,,,,,,,,,,,,,,,,200,,,,,,,,,,,,,4,4,,,447.4103,1,right,0.6579,448.0916,0.5,0.3,"[2,3,1]",0.913524906,stimuli/card_100_transparent.png,100,1,0,1,0,1,,,,,,,,,,
,,,,5de7d12c26dd95000b6824c5,B,2024-08-16_13h26.26.504,Slot Machine Game,2023.1.3,Win32,59.52380952,,,,,,,,,,,,,,,,,,,,,,,,,,,,,,,,300,,,,,,,,,,,,,4,4,,,448.8896,2,right,0.6748,449.5874,1,0.3,"[2,3,1]",0.592753424,stimuli/card_100_transparent.png,100,2,0,2,0,1,,,,,,,,,,
,,,,5de7d12c26dd95000b6824c5,B,2024-08-16_13h26.26.504,Slot Machine Game,2023.1.3,Win32,59.52380952,,,,,,,,,,,,,,,,,,,,,,,,,,,,,,,,310,,,,,,,,,,,,,4,4,,,450.8843,3,right,0.517,451.4326,1.5,0.3,"[2,3,1]",0.144782692,stimuli/card_10_transparent.png,10,3,0,3,0,1,,,,,,,,,,
,,,,5de7d12c26dd95000b6824c5,B,2024-08-16_13h26.26.504,Slot Machine Game,2023.1.3,Win32,59.52380952,,,,,,,,,,,,,,,,,,,,,,,,,,,,,,,,410,,,,,,,,,,,,,4,4,,,453.2272,4,right,0.5584,453.8093,0.5,0.3,"[2,3,1]",0.542722182,stimuli/card_100_transparent.png,100,4,0,4,0,1,,,,,,,,,,
,,,,5de7d12c26dd95000b6824c5,B,2024-08-16_13h26.26.504,Slot Machine Game,2023.1.3,Win32,59.52380952,,,,,,,,,,,,,,,,,,,,,,,,,,,,,,,,410,,,,,,,,,,,,,4,4,,,454.6069,5,right,0.5425,455.1723,0.5,0.3,"[2,3,1]",0.029849377,stimuli/card_0_transparent.png,0,5,0,5,0,1,,,,,,,,,,
,,,,5de7d12c26dd95000b6824c5,B,2024-08-16_13h26.26.504,Slot Machine Game,2023.1.3,Win32,59.52380952,,,,,,,,,,,,,,,,,,,,,,,,,,,,,,,,510,,,,,,,,,,,,,4,4,,,455.9705,6,right,0.8721,456.8508,1.5,0.3,"[2,3,1]",0.206493013,stimuli/card_100_transparent.png,100,6,0,6,0,1,,,,,,,,,,
,,,,5de7d12c26dd95000b6824c5,B,2024-08-16_13h26.26.504,Slot Machine Game,2023.1.3,Win32,59.52380952,,,,,,,,,,,,,,,,,,,,,,,,,,,,,,,,510,,,,,,,,,,,,,4,4,,,458.6462,7,right,1.0259,459.6928,1.5,0.3,"[1,2,3]",0.731734802,stimuli/card_0_transparent.png,0,7,0,7,0,1,,,,,,,,,,
,,,,5de7d12c26dd95000b6824c5,B,2024-08-16_13h26.26.504,Slot Machine Game,2023.1.3,Win32,59.52380952,,,,,,,,,,,,,,,,,,,,,,,,,,,,,,,,510,,,,,,,,,,,,,4,4,,,461.4881,8,right,0.9763,462.4852,1.5,0.3,"[1,2,3]",0.572470618,stimuli/card_0_transparent.png,0,8,0,8,0,1,,,,,,,,,,
,,,,5de7d12c26dd95000b6824c5,B,2024-08-16_13h26.26.504,Slot Machine Game,2023.1.3,Win32,59.52380952,,,,,,,,,,,,,,,,,,,,,,,,,,,,,,,,520,,,,,,,,,,,,,4,4,,,464.2807,9,up,0.873,465.1782,1,0.3,"[1,2,3]",0.840158201,stimuli/card_10_transparent.png,10,9,0,9,0,1,,,,,,,,,,
,,,,5de7d12c26dd95000b6824c5,B,2024-08-16_13h26.26.504,Slot Machine Game,2023.1.3,Win32,59.52380952,,,,,,,,,,,,,,,,,,,,,,,,,,,,,,,,620,,,,,,,,,,,,,4,4,,,466.4746,10,left,0.8551,467.3555,0.5,0.3,"[1,2,3]",0.537692486,stimuli/card_100_transparent.png,100,10,0,10,0,1,,,,,,,,,,
,,,,5de7d12c26dd95000b6824c5,B,2024-08-16_13h26.26.504,Slot Machine Game,2023.1.3,Win32,59.52380952,,,,,,,,,,,,,,,,,,,,,,,,,,,,,,,,620,,,,,,,,,,,,,4,4,,,468.1538,11,left,0.5401,468.7183,1,0.3,"[1,2,3]",0.029858222,stimuli/card_0_transparent.png,0,11,0,11,0,1,,,,,,,,,,
,,,,5de7d12c26dd95000b6824c5,B,2024-08-16_13h26.26.504,Slot Machine Game,2023.1.3,Win32,59.52380952,,,,,,,,,,,,,,,,,,,,,,,,,,,,,,,,630,,,,,,,,,,,,,4,4,,,470.0148,12,left,0.5466,470.58,1.5,0.3,"[1,2,3]",0.178182662,stimuli/card_10_transparent.png,10,12,0,12,0,1,,,,,,,,,,
,,,,5de7d12c26dd95000b6824c5,B,2024-08-16_13h26.26.504,Slot Machine Game,2023.1.3,Win32,59.52380952,,,,,,,,,,,,,,,,,,,,,,,,,,,,,,,,640,,,,,,,,,,,,,4,4,,,472.375,13,up,0.5106,472.9069,0.5,0.3,"[1,2,3]",0.981020783,stimuli/card_10_transparent.png,10,13,0,13,0,1,,,,,,,,,,
,,,,5de7d12c26dd95000b6824c5,B,2024-08-16_13h26.26.504,Slot Machine Game,2023.1.3,Win32,59.52380952,,,,,,,,,,,,,,,,,,,,,,,,,,,,,,,,740,,,,,,,,,,,,,4,4,,,473.7053,14,left,0.9911,474.7192,0.5,0.3,"[1,2,3]",0.442370615,stimuli/card_100_transparent.png,100,14,0,14,0,1,,,,,,,,,,
,,,,5de7d12c26dd95000b6824c5,B,2024-08-16_13h26.26.504,Slot Machine Game,2023.1.3,Win32,59.52380952,,,,,,,,,,,,,,,,,,,,,,,,,,,,,,,,,,475.5167,,,,,,,,,,,,,,,,,,,,,,,,,,,,,,,"[370,1210,1130,740]",3,0,3,0,1,,,,
,,,,5de7d12c26dd95000b6824c5,B,2024-08-16_13h26.26.504,Slot Machine Game,2023.1.3,Win32,59.52380952,,,,,,,,,,,,,,,,,,,,,,,,,,,,,,,,10,,,,,,,,,,,,,5,6,"[4,10,15]","[[2,3,1],[1,3,2],[3,2,1]]",480.5403,0,left,0.733,481.3003,0.5,0.3,"[2,3,1]",0.61347112,stimuli/card_10_transparent.png,10,0,0,0,0,1,,,,,,,,,,
,,,,5de7d12c26dd95000b6824c5,B,2024-08-16_13h26.26.504,Slot Machine Game,2023.1.3,Win32,59.52380952,,,,,,,,,,,,,,,,,,,,,,,,,,,,,,,,20,,,,,,,,,,,,,5,6,,,482.0986,1,up,1.3455,483.4784,0.5,0.3,"[2,3,1]",0.162835824,stimuli/card_10_transparent.png,10,1,0,1,0,1,,,,,,,,,,
,,,,5de7d12c26dd95000b6824c5,B,2024-08-16_13h26.26.504,Slot Machine Game,2023.1.3,Win32,59.52380952,,,,,,,,,,,,,,,,,,,,,,,,,,,,,,,,120,,,,,,,,,,,,,5,6,,,484.2764,2,right,0.8418,485.1408,1,0.3,"[2,3,1]",0.342651246,stimuli/card_100_transparent.png,100,2,0,2,0,1,,,,,,,,,,
,,,,5de7d12c26dd95000b6824c5,B,2024-08-16_13h26.26.504,Slot Machine Game,2023.1.3,Win32,59.52380952,,,,,,,,,,,,,,,,,,,,,,,,,,,,,,,,220,,,,,,,,,,,,,5,6,,,486.4366,3,right,0.5563,487.0183,0.5,0.3,"[2,3,1]",0.740840065,stimuli/card_100_transparent.png,100,3,0,3,0,1,,,,,,,,,,
,,,,5de7d12c26dd95000b6824c5,B,2024-08-16_13h26.26.504,Slot Machine Game,2023.1.3,Win32,59.52380952,,,,,,,,,,,,,,,,,,,,,,,,,,,,,,,,230,,,,,,,,,,,,,5,6,,,487.8163,4,right,0.6448,488.4815,1.5,0.3,"[1,3,2]",0.946131659,stimuli/card_10_transparent.png,10,4,0,4,0,1,,,,,,,,,,
,,,,5de7d12c26dd95000b6824c5,B,2024-08-16_13h26.26.504,Slot Machine Game,2023.1.3,Win32,59.52380952,,,,,,,,,,,,,,,,,,,,,,,,,,,,,,,,240,,,,,,,,,,,,,5,6,,,490.2761,5,right,0.5438,490.8413,0.5,0.3,"[1,3,2]",0.632324121,stimuli/card_10_transparent.png,10,5,0,5,0,1,,,,,,,,,,
,,,,5de7d12c26dd95000b6824c5,B,2024-08-16_13h26.26.504,Slot Machine Game,2023.1.3,Win32,59.52380952,,,,,,,,,,,,,,,,,,,,,,,,,,,,,,,,250,,,,,,,,,,,,,5,6,,,491.6396,6,right,1.2928,492.9524,0.5,0.3,"[1,3,2]",0.909836454,stimuli/card_10_transparent.png,10,6,0,6,0,1,,,,,,,,,,
,,,,5de7d12c26dd95000b6824c5,B,2024-08-16_13h26.26.504,Slot Machine Game,2023.1.3,Win32,59.52380952,,,,,,,,,,,,,,,,,,,,,,,,,,,,,,,,250,,,,,,,,,,,,,5,6,,,493.75,7,up,0.7756,494.5481,1,0.3,"[1,3,2]",0.237347086,stimuli/card_0_transparent.png,0,7,0,7,0,1,,,,,,,,,,
,,,,5de7d12c26dd95000b6824c5,B,2024-08-16_13h26.26.504,Slot Machine Game,2023.1.3,Win32,59.52380952,,,,,,,,,,,,,,,,,,,,,,,,,,,,,,,,350,,,,,,,,,,,,,5,6,,,495.8445,8,left,1.3352,497.2074,1.5,0.3,"[1,3,2]",0.732300204,stimuli/card_100_transparent.png,100,8,0,8,0,1,,,,,,,,,,
,,,,5de7d12c26dd95000b6824c5,B,2024-08-16_13h26.26.504,Slot Machine Game,2023.1.3,Win32,59.52380952,,,,,,,,,,,,,,,,,,,,,,,,,,,,,,,,450,,,,,,,,,,,,,5,6,,,499.0028,9,left,0.9949,500.0159,1.5,0.3,"[1,3,2]",0.271720171,stimuli/card_100_transparent.png,100,9,0,9,0,1,,,,,,,,,,
,,,,5de7d12c26dd95000b6824c5,B,2024-08-16_13h26.26.504,Slot Machine Game,2023.1.3,Win32,59.52380952,,,,,,,,,,,,,,,,,,,,,,,,,,,,,,,,450,,,,,,,,,,,,,5,6,,,501.8119,10,left,0.9507,502.7927,1,0.3,"[3,2,1]",0.6543569,stimuli/card_0_transparent.png,0,10,0,10,0,1,,,,,,,,,,
,,,,5de7d12c26dd95000b6824c5,B,2024-08-16_13h26.26.504,Slot Machine Game,2023.1.3,Win32,59.52380952,,,,,,,,,,,,,,,,,,,,,,,,,,,,,,,,450,,,,,,,,,,,,,5,6,,,504.0889,11,left,0.5396,504.6539,0.5,0.3,"[3,2,1]",0.367339966,stimuli/card_0_transparent.png,0,11,0,11,0,1,,,,,,,,,,
,,,,5de7d12c26dd95000b6824c5,B,2024-08-16_13h26.26.504,Slot Machine Game,2023.1.3,Win32,59.52380952,,,,,,,,,,,,,,,,,,,,,,,,,,,,,,,,460,,,,,,,,,,,,,5,6,,,505.4515,12,up,0.6685,506.1495,1,0.3,"[3,2,1]",0.654773052,stimuli/card_10_transparent.png,10,12,0,12,0,1,,,,,,,,,,
,,,,5de7d12c26dd95000b6824c5,B,2024-08-16_13h26.26.504,Slot Machine Game,2023.1.3,Win32,59.52380952,,,,,,,,,,,,,,,,,,,,,,,,,,,,,,,,470,,,,,,,,,,,,,5,6,,,507.4463,13,up,0.6321,508.1112,1.5,0.3,"[3,2,1]",0.403381956,stimuli/card_10_transparent.png,10,13,0,13,0,1,,,,,,,,,,
,,,,5de7d12c26dd95000b6824c5,B,2024-08-16_13h26.26.504,Slot Machine Game,2023.1.3,Win32,59.52380952,,,,,,,,,,,,,,,,,,,,,,,,,,,,,,,,570,,,,,,,,,,,,,5,6,,,509.9058,14,right,0.8379,510.7703,1.5,0.3,"[3,2,1]",0.397914982,stimuli/card_100_transparent.png,100,14,0,14,0,1,,,,,,,,,,
,,,,5de7d12c26dd95000b6824c5,B,2024-08-16_13h26.26.504,Slot Machine Game,2023.1.3,Win32,59.52380952,,,,,,,,,,,,,,,,,,,,,,,,,,,,,,,,,,512.5658,,,,,,,,,,,,,,,,,,,,,,,,,,,,,,,"[370,1210,1130,740,570]",4,0,4,0,1,,,,
,,,,5de7d12c26dd95000b6824c5,B,2024-08-16_13h26.26.504,Slot Machine Game,2023.1.3,Win32,59.52380952,,,,,,,,,,,,,,,,,,,,,,,,,,,,,,,,0,,,,,,,,,,,,,6,8,"[11,15]","[[2,1,3],[1,2,3]]",517.5899,0,right,0.6038,518.2163,0.5,0.3,"[2,1,3]",0.5694555,stimuli/card_0_transparent.png,0,0,0,0,0,1,,,,,,,,,,
,,,,5de7d12c26dd95000b6824c5,B,2024-08-16_13h26.26.504,Slot Machine Game,2023.1.3,Win32,59.52380952,,,,,,,,,,,,,,,,,,,,,,,,,,,,,,,,0,,,,,,,,,,,,,6,8,,,519.0149,1,left,1.6503,520.6931,1,0.3,"[2,1,3]",0.057737442,stimuli/card_0_transparent.png,0,1,0,1,0,1,,,,,,,,,,
,,,,5de7d12c26dd95000b6824c5,B,2024-08-16_13h26.26.504,Slot Machine Game,2023.1.3,Win32,59.52380952,,,,,,,,,,,,,,,,,,,,,,,,,,,,,,,,10,,,,,,,,,,,,,6,8,,,521.9895,2,up,0.7648,522.7877,0.5,0.3,"[2,1,3]",0.122736017,stimuli/card_10_transparent.png,10,2,0,2,0,1,,,,,,,,,,
,,,,5de7d12c26dd95000b6824c5,B,2024-08-16_13h26.26.504,Slot Machine Game,2023.1.3,Win32,59.52380952,,,,,,,,,,,,,,,,,,,,,,,,,,,,,,,,20,,,,,,,,,,,,,6,8,,,523.5858,3,left,1.2582,524.865,0.5,0.3,"[2,1,3]",0.651681263,stimuli/card_10_transparent.png,10,3,0,3,0,1,,,,,,,,,,
,,,,5de7d12c26dd95000b6824c5,B,2024-08-16_13h26.26.504,Slot Machine Game,2023.1.3,Win32,59.52380952,,,,,,,,,,,,,,,,,,,,,,,,,,,,,,,,120,,,,,,,,,,,,,6,8,,,525.663,4,up,0.5353,526.2282,0.5,0.3,"[2,1,3]",0.561287295,stimuli/card_100_transparent.png,100,4,0,4,0,1,,,,,,,,,,
,,,,5de7d12c26dd95000b6824c5,B,2024-08-16_13h26.26.504,Slot Machine Game,2023.1.3,Win32,59.52380952,,,,,,,,,,,,,,,,,,,,,,,,,,,,,,,,130,,,,,,,,,,,,,6,8,,,527.0259,5,up,0.502,527.5578,1,0.3,"[2,1,3]",0.191975375,stimuli/card_10_transparent.png,10,5,0,5,0,1,,,,,,,,,,
,,,,5de7d12c26dd95000b6824c5,B,2024-08-16_13h26.26.504,Slot Machine Game,2023.1.3,Win32,59.52380952,,,,,,,,,,,,,,,,,,,,,,,,,,,,,,,,230,,,,,,,,,,,,,6,8,,,528.8544,6,up,0.6955,529.5687,1.5,0.3,"[2,1,3]",0.551423246,stimuli/card_100_transparent.png,100,6,0,6,0,1,,,,,,,,,,
,,,,5de7d12c26dd95000b6824c5,B,2024-08-16_13h26.26.504,Slot Machine Game,2023.1.3,Win32,59.52380952,,,,,,,,,,,,,,,,,,,,,,,,,,,,,,,,330,,,,,,,,,,,,,6,8,,,531.364,7,up,0.5173,531.9126,0.5,0.3,"[2,1,3]",0.34774505,stimuli/card_100_transparent.png,100,7,0,7,0,1,,,,,,,,,,
,,,,5de7d12c26dd95000b6824c5,B,2024-08-16_13h26.26.504,Slot Machine Game,2023.1.3,Win32,59.52380952,,,,,,,,,,,,,,,,,,,,,,,,,,,,,,,,330,,,,,,,,,,,,,6,8,,,532.7108,8,up,0.5388,533.2753,1.5,0.3,"[2,1,3]",0.075172751,stimuli/card_0_transparent.png,0,8,0,8,0,1,,,,,,,,,,
,,,,5de7d12c26dd95000b6824c5,B,2024-08-16_13h26.26.504,Slot Machine Game,2023.1.3,Win32,59.52380952,,,,,,,,,,,,,,,,,,,,,,,,,,,,,,,,430,,,,,,,,,,,,,6,8,,,535.0705,9,up,0.5909,535.6856,1.5,0.3,"[2,1,3]",0.988093266,stimuli/card_100_transparent.png,100,9,0,9,0,1,,,,,,,,,,
,,,,5de7d12c26dd95000b6824c5,B,2024-08-16_13h26.26.504,Slot Machine Game,2023.1.3,Win32,59.52380952,,,,,,,,,,,,,,,,,,,,,,,,,,,,,,,,530,,,,,,,,,,,,,6,8,,,537.4809,10,up,1.1035,538.6108,1,0.3,"[2,1,3]",0.298262382,stimuli/card_100_transparent.png,100,10,0,10,0,1,,,,,,,,,,
,,,,5de7d12c26dd95000b6824c5,B,2024-08-16_13h26.26.504,Slot Machine Game,2023.1.3,Win32,59.52380952,,,,,,,,,,,,,,,,,,,,,,,,,,,,,,,,540,,,,,,,,,,,,,6,8,,,539.9074,11,up,0.5668,540.5059,1,0.3,"[1,2,3]",0.760547765,stimuli/card_10_transparent.png,10,11,0,11,0,1,,,,,,,,,,
,,,,5de7d12c26dd95000b6824c5,B,2024-08-16_13h26.26.504,Slot Machine Game,2023.1.3,Win32,59.52380952,,,,,,,,,,,,,,,,,,,,,,,,,,,,,,,,550,,,,,,,,,,,,,6,8,,,541.8021,12,up,0.555,542.3838,1.5,0.3,"[1,2,3]",0.628406484,stimuli/card_10_transparent.png,10,12,0,12,0,1,,,,,,,,,,
,,,,5de7d12c26dd95000b6824c5,B,2024-08-16_13h26.26.504,Slot Machine Game,2023.1.3,Win32,59.52380952,,,,,,,,,,,,,,,,,,,,,,,,,,,,,,,,650,,,,,,,,,,,,,6,8,,,544.1792,13,right,0.7004,544.9106,1,0.3,"[1,2,3]",0.046581752,stimuli/card_100_transparent.png,100,13,0,13,0,1,,,,,,,,,,
,,,,5de7d12c26dd95000b6824c5,B,2024-08-16_13h26.26.504,Slot Machine Game,2023.1.3,Win32,59.52380952,,,,,,,,,,,,,,,,,,,,,,,,,,,,,,,,650,,,,,,,,,,,,,6,8,,,546.2071,14,right,0.6498,546.8886,1.5,0.3,"[1,2,3]",0.64582198,stimuli/card_0_transparent.png,0,14,0,14,0,1,,,,,,,,,,
,,,,5de7d12c26dd95000b6824c5,B,2024-08-16_13h26.26.504,Slot Machine Game,2023.1.3,Win32,59.52380952,,,,,,,,,,,,,,,,,,,,,,,,,,,,,,,,,,548.6839,,,,,,,,,,,,,,,,,,,,,,,,,,,,,,,"[370,1210,1130,740,570,650]",5,0,5,0,1,,,,
,,,,5de7d12c26dd95000b6824c5,B,2024-08-16_13h26.26.504,Slot Machine Game,2023.1.3,Win32,59.52380952,,,,,,,,,,,,,,,,,,,,,,,,,,,,,,,,10,,,,,,,,,,,,,7,9,"[8,15]","[[3,2,1],[3,1,2]]",553.7009,0,right,0.7354,554.4508,1,0.3,"[3,2,1]",0.154282195,stimuli/card_10_transparent.png,10,0,0,0,0,1,,,,,,,,,,
,,,,5de7d12c26dd95000b6824c5,B,2024-08-16_13h26.26.504,Slot Machine Game,2023.1.3,Win32,59.52380952,,,,,,,,,,,,,,,,,,,,,,,,,,,,,,,,10,,,,,,,,,,,,,7,9,,,555.7476,1,left,1.0059,556.7781,1.5,0.3,"[3,2,1]",0.279891098,stimuli/card_0_transparent.png,0,1,0,1,0,1,,,,,,,,,,
,,,,5de7d12c26dd95000b6824c5,B,2024-08-16_13h26.26.504,Slot Machine Game,2023.1.3,Win32,59.52380952,,,,,,,,,,,,,,,,,,,,,,,,,,,,,,,,20,,,,,,,,,,,,,7,9,,,558.5732,2,up,0.7081,559.3047,1,0.3,"[3,2,1]",0.849470253,stimuli/card_10_transparent.png,10,2,0,2,0,1,,,,,,,,,,
,,,,5de7d12c26dd95000b6824c5,B,2024-08-16_13h26.26.504,Slot Machine Game,2023.1.3,Win32,59.52380952,,,,,,,,,,,,,,,,,,,,,,,,,,,,,,,,20,,,,,,,,,,,,,7,9,,,560.6013,3,left,0.928,561.548,0.5,0.3,"[3,2,1]",0.245499096,stimuli/card_0_transparent.png,0,3,0,3,0,1,,,,,,,,,,
,,,,5de7d12c26dd95000b6824c5,B,2024-08-16_13h26.26.504,Slot Machine Game,2023.1.3,Win32,59.52380952,,,,,,,,,,,,,,,,,,,,,,,,,,,,,,,,120,,,,,,,,,,,,,7,9,,,562.3465,4,right,0.5737,562.9445,0.5,0.3,"[3,2,1]",0.80329212,stimuli/card_100_transparent.png,100,4,0,4,0,1,,,,,,,,,,
,,,,5de7d12c26dd95000b6824c5,B,2024-08-16_13h26.26.504,Slot Machine Game,2023.1.3,Win32,59.52380952,,,,,,,,,,,,,,,,,,,,,,,,,,,,,,,,220,,,,,,,,,,,,,7,9,,,563.7423,5,right,0.5388,564.3073,1.5,0.3,"[3,2,1]",0.619933193,stimuli/card_100_transparent.png,100,5,0,5,0,1,,,,,,,,,,
,,,,5de7d12c26dd95000b6824c5,B,2024-08-16_13h26.26.504,Slot Machine Game,2023.1.3,Win32,59.52380952,,,,,,,,,,,,,,,,,,,,,,,,,,,,,,,,320,,,,,,,,,,,,,7,9,,,566.103,6,right,0.9938,567.1164,1.5,0.3,"[3,2,1]",0.691423159,stimuli/card_100_transparent.png,100,6,0,6,0,1,,,,,,,,,,
,,,,5de7d12c26dd95000b6824c5,B,2024-08-16_13h26.26.504,Slot Machine Game,2023.1.3,Win32,59.52380952,,,,,,,,,,,,,,,,,,,,,,,,,,,,,,,,420,,,,,,,,,,,,,7,9,,,568.9113,7,right,0.8579,569.7927,0.5,0.3,"[3,2,1]",0.859673618,stimuli/card_100_transparent.png,100,7,0,7,0,1,,,,,,,,,,
,,,,5de7d12c26dd95000b6824c5,B,2024-08-16_13h26.26.504,Slot Machine Game,2023.1.3,Win32,59.52380952,,,,,,,,,,,,,,,,,,,,,,,,,,,,,,,,430,,,,,,,,,,,,,7,9,,,570.5905,8,right,0.7353,571.3553,1.5,0.3,"[3,1,2]",0.221153987,stimuli/card_10_transparent.png,10,8,0,8,0,1,,,,,,,,,,
,,,,5de7d12c26dd95000b6824c5,B,2024-08-16_13h26.26.504,Slot Machine Game,2023.1.3,Win32,59.52380952,,,,,,,,,,,,,,,,,,,,,,,,,,,,,,,,440,,,,,,,,,,,,,7,9,,,573.1502,9,right,0.7016,573.8817,0.5,0.3,"[3,1,2]",0.219408284,stimuli/card_10_transparent.png,10,9,0,9,0,1,,,,,,,,,,
,,,,5de7d12c26dd95000b6824c5,B,2024-08-16_13h26.26.504,Slot Machine Game,2023.1.3,Win32,59.52380952,,,,,,,,,,,,,,,,,,,,,,,,,,,,,,,,440,,,,,,,,,,,,,7,9,,,574.6792,10,left,0.5523,575.2611,1.5,0.3,"[3,1,2]",0.384398896,stimuli/card_0_transparent.png,0,10,0,10,0,1,,,,,,,,,,
,,,,5de7d12c26dd95000b6824c5,B,2024-08-16_13h26.26.504,Slot Machine Game,2023.1.3,Win32,59.52380952,,,,,,,,,,,,,,,,,,,,,,,,,,,,,,,,540,,,,,,,,,,,,,7,9,,,577.057,11,up,0.6832,577.7706,1,0.3,"[3,1,2]",0.833549403,stimuli/card_100_transparent.png,100,11,0,11,0,1,,,,,,,,,,
,,,,5de7d12c26dd95000b6824c5,B,2024-08-16_13h26.26.504,Slot Machine Game,2023.1.3,Win32,59.52380952,,,,,,,,,,,,,,,,,,,,,,,,,,,,,,,,640,,,,,,,,,,,,,7,9,,,579.0668,12,up,0.7262,579.815,1.5,0.3,"[3,1,2]",0.77765214,stimuli/card_100_transparent.png,100,12,0,12,0,1,,,,,,,,,,
,,,,5de7d12c26dd95000b6824c5,B,2024-08-16_13h26.26.504,Slot Machine Game,2023.1.3,Win32,59.52380952,,,,,,,,,,,,,,,,,,,,,,,,,,,,,,,,740,,,,,,,,,,,,,7,9,,,581.6106,13,up,0.5373,582.1756,1.5,0.3,"[3,1,2]",0.31771712,stimuli/card_100_transparent.png,100,13,0,13,0,1,,,,,,,,,,
,,,,5de7d12c26dd95000b6824c5,B,2024-08-16_13h26.26.504,Slot Machine Game,2023.1.3,Win32,59.52380952,,,,,,,,,,,,,,,,,,,,,,,,,,,,,,,,840,,,,,,,,,,,,,7,9,,,583.9706,14,up,0.9787,584.9677,1,0.3,"[3,1,2]",0.926398974,stimuli/card_100_transparent.png,100,14,0,14,0,1,,,,,,,,,,
,,,,5de7d12c26dd95000b6824c5,B,2024-08-16_13h26.26.504,Slot Machine Game,2023.1.3,Win32,59.52380952,,,,,,,,,,,,,,,,,,,,,,,,,,,,,,,,,,586.2641,,,,,,,,,,,,,,,,,,,,,,,,,,,,,,,"[370,1210,1130,740,570,650,840]",6,0,6,0,1,,,,
,,,,5de7d12c26dd95000b6824c5,B,2024-08-16_13h26.26.504,Slot Machine Game,2023.1.3,Win32,59.52380952,,,,,,,,,,,,,,,,,,,,,,,,,,,,,,,,0,,,,,,,,,,,,,8,2,"[6,15]","[[1,3,2],[3,2,1]]",591.2872,0,up,0.5685,591.8826,1,0.3,"[1,3,2]",0.21008009,stimuli/card_0_transparent.png,0,0,0,0,0,1,,,,,,,,,,
,,,,5de7d12c26dd95000b6824c5,B,2024-08-16_13h26.26.504,Slot Machine Game,2023.1.3,Win32,59.52380952,,,,,,,,,,,,,,,,,,,,,,,,,,,,,,,,100,,,,,,,,,,,,,8,2,,,593.1787,1,left,0.7021,593.9099,0.5,0.3,"[1,3,2]",0.474509772,stimuli/card_100_transparent.png,100,1,0,1,0,1,,,,,,,,,,
,,,,5de7d12c26dd95000b6824c5,B,2024-08-16_13h26.26.504,Slot Machine Game,2023.1.3,Win32,59.52380952,,,,,,,,,,,,,,,,,,,,,,,,,,,,,,,,200,,,,,,,,,,,,,8,2,,,594.7077,2,left,0.5998,595.34,1,0.3,"[1,3,2]",0.219709139,stimuli/card_100_transparent.png,100,2,0,2,0,1,,,,,,,,,,
,,,,5de7d12c26dd95000b6824c5,B,2024-08-16_13h26.26.504,Slot Machine Game,2023.1.3,Win32,59.52380952,,,,,,,,,,,,,,,,,,,,,,,,,,,,,,,,300,,,,,,,,,,,,,8,2,,,596.6361,3,left,0.685,597.3505,0.5,0.3,"[1,3,2]",0.44640892,stimuli/card_100_transparent.png,100,3,0,3,0,1,,,,,,,,,,
,,,,5de7d12c26dd95000b6824c5,B,2024-08-16_13h26.26.504,Slot Machine Game,2023.1.3,Win32,59.52380952,,,,,,,,,,,,,,,,,,,,,,,,,,,,,,,,400,,,,,,,,,,,,,8,2,,,598.1483,4,left,0.8013,598.98,0.5,0.3,"[1,3,2]",0.22615521,stimuli/card_100_transparent.png,100,4,0,4,0,1,,,,,,,,,,
,,,,5de7d12c26dd95000b6824c5,B,2024-08-16_13h26.26.504,Slot Machine Game,2023.1.3,Win32,59.52380952,,,,,,,,,,,,,,,,,,,,,,,,,,,,,,,,500,,,,,,,,,,,,,8,2,,,599.7771,5,left,0.6679,600.4753,0.5,0.3,"[1,3,2]",0.717567273,stimuli/card_100_transparent.png,100,5,0,5,0,1,,,,,,,,,,
,,,,5de7d12c26dd95000b6824c5,B,2024-08-16_13h26.26.504,Slot Machine Game,2023.1.3,Win32,59.52380952,,,,,,,,,,,,,,,,,,,,,,,,,,,,,,,,500,,,,,,,,,,,,,8,2,,,601.2726,6,left,0.5035,601.8048,1,0.3,"[3,2,1]",0.495621606,stimuli/card_0_transparent.png,0,6,0,6,0,1,,,,,,,,,,
,,,,5de7d12c26dd95000b6824c5,B,2024-08-16_13h26.26.504,Slot Machine Game,2023.1.3,Win32,59.52380952,,,,,,,,,,,,,,,,,,,,,,,,,,,,,,,,500,,,,,,,,,,,,,8,2,,,603.1018,7,left,0.5004,603.6337,1.5,0.3,"[3,2,1]",0.611503621,stimuli/card_0_transparent.png,0,7,0,7,0,1,,,,,,,,,,
,,,,5de7d12c26dd95000b6824c5,B,2024-08-16_13h26.26.504,Slot Machine Game,2023.1.3,Win32,59.52380952,,,,,,,,,,,,,,,,,,,,,,,,,,,,,,,,510,,,,,,,,,,,,,8,2,,,605.4285,8,up,1.2502,606.7086,1,0.3,"[3,2,1]",0.874902476,stimuli/card_10_transparent.png,10,8,0,8,0,1,,,,,,,,,,
,,,,5de7d12c26dd95000b6824c5,B,2024-08-16_13h26.26.504,Slot Machine Game,2023.1.3,Win32,59.52380952,,,,,,,,,,,,,,,,,,,,,,,,,,,,,,,,610,,,,,,,,,,,,,8,2,,,608.0052,9,right,0.5795,608.6028,1.5,0.3,"[3,2,1]",0.467707788,stimuli/card_100_transparent.png,100,9,0,9,0,1,,,,,,,,,,
,,,,5de7d12c26dd95000b6824c5,B,2024-08-16_13h26.26.504,Slot Machine Game,2023.1.3,Win32,59.52380952,,,,,,,,,,,,,,,,,,,,,,,,,,,,,,,,710,,,,,,,,,,,,,8,2,,,610.3983,10,right,0.905,611.329,1,0.3,"[3,2,1]",0.516570761,stimuli/card_100_transparent.png,100,10,0,10,0,1,,,,,,,,,,
,,,,5de7d12c26dd95000b6824c5,B,2024-08-16_13h26.26.504,Slot Machine Game,2023.1.3,Win32,59.52380952,,,,,,,,,,,,,,,,,,,,,,,,,,,,,,,,810,,,,,,,,,,,,,8,2,,,612.6257,11,right,0.5109,613.1571,1,0.3,"[3,2,1]",0.834393354,stimuli/card_100_transparent.png,100,11,0,11,0,1,,,,,,,,,,
,,,,5de7d12c26dd95000b6824c5,B,2024-08-16_13h26.26.504,Slot Machine Game,2023.1.3,Win32,59.52380952,,,,,,,,,,,,,,,,,,,,,,,,,,,,,,,,810,,,,,,,,,,,,,8,2,,,614.4532,12,right,0.8905,615.3678,0.5,0.3,"[3,2,1]",0.033036579,stimuli/card_0_transparent.png,0,12,0,12,0,1,,,,,,,,,,
,,,,5de7d12c26dd95000b6824c5,B,2024-08-16_13h26.26.504,Slot Machine Game,2023.1.3,Win32,59.52380952,,,,,,,,,,,,,,,,,,,,,,,,,,,,,,,,910,,,,,,,,,,,,,8,2,,,616.166,13,right,0.5913,616.7812,1.5,0.3,"[3,2,1]",0.535013835,stimuli/card_100_transparent.png,100,13,0,13,0,1,,,,,,,,,,
,,,,5de7d12c26dd95000b6824c5,B,2024-08-16_13h26.26.504,Slot Machine Game,2023.1.3,Win32,59.52380952,,,,,,,,,,,,,,,,,,,,,,,,,,,,,,,,1010,,,,,,,,,,,,,8,2,,,618.5754,14,right,0.5681,619.1744,0.5,0.3,"[3,2,1]",0.704849744,stimuli/card_100_transparent.png,100,14,0,14,0,1,,,,,,,,,,
,,,,5de7d12c26dd95000b6824c5,B,2024-08-16_13h26.26.504,Slot Machine Game,2023.1.3,Win32,59.52380952,,,,,,,,,,,,,,,,,,,,,,,,,,,,,,,,,,619.9726,,,,,,,,,,,,,,,,,,,,,,,,,,,,,,,"[370,1210,1130,740,570,650,840,1010]",7,0,7,0,1,,,,
,,,,5de7d12c26dd95000b6824c5,B,2024-08-16_13h26.26.504,Slot Machine Game,2023.1.3,Win32,59.52380952,,,,,,,,,,,,,,,,,,,,,,,,,,,,,,,,10,,,,,,,,,,,,,9,10,"[10,15]","[[3,1,2],[1,3,2]]",624.9967,0,right,1.1328,626.1556,1,0.3,"[3,1,2]",0.521206448,stimuli/card_10_transparent.png,10,0,0,0,0,1,,,,,,,,,,
,,,,5de7d12c26dd95000b6824c5,B,2024-08-16_13h26.26.504,Slot Machine Game,2023.1.3,Win32,59.52380952,,,,,,,,,,,,,,,,,,,,,,,,,,,,,,,,10,,,,,,,,,,,,,9,10,,,627.452,1,left,0.8163,628.2992,1,0.3,"[3,1,2]",0.25083343,stimuli/card_0_transparent.png,0,1,0,1,0,1,,,,,,,,,,
,,,,5de7d12c26dd95000b6824c5,B,2024-08-16_13h26.26.504,Slot Machine Game,2023.1.3,Win32,59.52380952,,,,,,,,,,,,,,,,,,,,,,,,,,,,,,,,110,,,,,,,,,,,,,9,10,,,629.5958,2,up,0.9339,630.5603,1.5,0.3,"[3,1,2]",0.926996035,stimuli/card_100_transparent.png,100,2,0,2,0,1,,,,,,,,,,
,,,,5de7d12c26dd95000b6824c5,B,2024-08-16_13h26.26.504,Slot Machine Game,2023.1.3,Win32,59.52380952,,,,,,,,,,,,,,,,,,,,,,,,,,,,,,,,210,,,,,,,,,,,,,9,10,,,632.3551,3,up,0.5085,632.8868,0.5,0.3,"[3,1,2]",0.544425783,stimuli/card_100_transparent.png,100,3,0,3,0,1,,,,,,,,,,
,,,,5de7d12c26dd95000b6824c5,B,2024-08-16_13h26.26.504,Slot Machine Game,2023.1.3,Win32,59.52380952,,,,,,,,,,,,,,,,,,,,,,,,,,,,,,,,310,,,,,,,,,,,,,9,10,,,633.6847,4,up,0.6566,634.366,1,0.3,"[3,1,2]",0.266593498,stimuli/card_100_transparent.png,100,4,0,4,0,1,,,,,,,,,,
,,,,5de7d12c26dd95000b6824c5,B,2024-08-16_13h26.26.504,Slot Machine Game,2023.1.3,Win32,59.52380952,,,,,,,,,,,,,,,,,,,,,,,,,,,,,,,,410,,,,,,,,,,,,,9,10,,,635.6628,5,up,1.0409,636.7266,0.5,0.3,"[3,1,2]",0.97758943,stimuli/card_100_transparent.png,100,5,0,5,0,1,,,,,,,,,,
,,,,5de7d12c26dd95000b6824c5,B,2024-08-16_13h26.26.504,Slot Machine Game,2023.1.3,Win32,59.52380952,,,,,,,,,,,,,,,,,,,,,,,,,,,,,,,,510,,,,,,,,,,,,,9,10,,,637.5244,6,up,0.5005,638.0561,1,0.3,"[3,1,2]",0.865865193,stimuli/card_100_transparent.png,100,6,0,6,0,1,,,,,,,,,,
,,,,5de7d12c26dd95000b6824c5,B,2024-08-16_13h26.26.504,Slot Machine Game,2023.1.3,Win32,59.52380952,,,,,,,,,,,,,,,,,,,,,,,,,,,,,,,,610,,,,,,,,,,,,,9,10,,,639.3528,7,up,0.5044,639.8843,0.5,0.3,"[3,1,2]",0.709202073,stimuli/card_100_transparent.png,100,7,0,7,0,1,,,,,,,,,,
,,,,5de7d12c26dd95000b6824c5,B,2024-08-16_13h26.26.504,Slot Machine Game,2023.1.3,Win32,59.52380952,,,,,,,,,,,,,,,,,,,,,,,,,,,,,,,,710,,,,,,,,,,,,,9,10,,,640.6821,8,up,0.5989,641.3138,1.5,0.3,"[3,1,2]",0.936168667,stimuli/card_100_transparent.png,100,8,0,8,0,1,,,,,,,,,,
,,,,5de7d12c26dd95000b6824c5,B,2024-08-16_13h26.26.504,Slot Machine Game,2023.1.3,Win32,59.52380952,,,,,,,,,,,,,,,,,,,,,,,,,,,,,,,,710,,,,,,,,,,,,,9,10,,,643.1091,9,up,1.0927,644.2228,1,0.3,"[3,1,2]",0.070748913,stimuli/card_0_transparent.png,0,9,0,9,0,1,,,,,,,,,,
,,,,5de7d12c26dd95000b6824c5,B,2024-08-16_13h26.26.504,Slot Machine Game,2023.1.3,Win32,59.52380952,,,,,,,,,,,,,,,,,,,,,,,,,,,,,,,,710,,,,,,,,,,,,,9,10,,,645.5192,10,up,0.7407,646.2838,1,0.3,"[1,3,2]",0.518644715,stimuli/card_0_transparent.png,0,10,0,10,0,1,,,,,,,,,,
,,,,5de7d12c26dd95000b6824c5,B,2024-08-16_13h26.26.504,Slot Machine Game,2023.1.3,Win32,59.52380952,,,,,,,,,,,,,,,,,,,,,,,,,,,,,,,,720,,,,,,,,,,,,,9,10,,,647.5804,11,right,0.8684,648.4777,0.5,0.3,"[1,3,2]",0.852681919,stimuli/card_10_transparent.png,10,11,0,11,0,1,,,,,,,,,,
,,,,5de7d12c26dd95000b6824c5,B,2024-08-16_13h26.26.504,Slot Machine Game,2023.1.3,Win32,59.52380952,,,,,,,,,,,,,,,,,,,,,,,,,,,,,,,,820,,,,,,,,,,,,,9,10,,,649.2754,12,left,0.5499,649.8571,1.5,0.3,"[1,3,2]",0.319752361,stimuli/card_100_transparent.png,100,12,0,12,0,1,,,,,,,,,,
,,,,5de7d12c26dd95000b6824c5,B,2024-08-16_13h26.26.504,Slot Machine Game,2023.1.3,Win32,59.52380952,,,,,,,,,,,,,,,,,,,,,,,,,,,,,,,,830,,,,,,,,,,,,,9,10,,,651.6526,13,left,0.6514,652.3343,1,0.3,"[1,3,2]",0.1405635,stimuli/card_10_transparent.png,10,13,0,13,0,1,,,,,,,,,,
,,,,5de7d12c26dd95000b6824c5,B,2024-08-16_13h26.26.504,Slot Machine Game,2023.1.3,Win32,59.52380952,,,,,,,,,,,,,,,,,,,,,,,,,,,,,,,,930,,,,,,,,,,,,,9,10,,,653.6307,14,left,0.5057,654.1624,1,0.3,"[1,3,2]",0.949070412,stimuli/card_100_transparent.png,100,14,0,14,0,1,,,,,,,,,,
,,,,5de7d12c26dd95000b6824c5,B,2024-08-16_13h26.26.504,Slot Machine Game,2023.1.3,Win32,59.52380952,,,,,,,,,,,,,,,,,,,,,,,,,,,,,,,,,,655.4588,,,,,,,,,,,,,,,,,,,,,,,,,,,,,,,"[370,1210,1130,740,570,650,840,1010,930]",8,0,8,0,1,,,,
,,,,5de7d12c26dd95000b6824c5,B,2024-08-16_13h26.26.504,Slot Machine Game,2023.1.3,Win32,59.52380952,,,,,,,,,,,,,,,,,,,,,,,,,,,,,,,,0,,,,,,,,,,,,,10,3,"[15,15]","[[3,1,2],[3,1,2]]",660.481,0,left,0.5426,661.0433,1.5,0.3,"[3,1,2]",0.945095158,stimuli/card_0_transparent.png,0,0,0,0,0,1,,,,,,,,,,
,,,,5de7d12c26dd95000b6824c5,B,2024-08-16_13h26.26.504,Slot Machine Game,2023.1.3,Win32,59.52380952,,,,,,,,,,,,,,,,,,,,,,,,,,,,,,,,100,,,,,,,,,,,,,10,3,,,662.8383,1,up,0.6947,663.5532,1.5,0.3,"[3,1,2]",0.513866396,stimuli/card_100_transparent.png,100,1,0,1,0,1,,,,,,,,,,
,,,,5de7d12c26dd95000b6824c5,B,2024-08-16_13h26.26.504,Slot Machine Game,2023.1.3,Win32,59.52380952,,,,,,,,,,,,,,,,,,,,,,,,,,,,,,,,110,,,,,,,,,,,,,10,3,,,665.3487,2,up,0.5672,665.9463,1,0.3,"[3,1,2]",0.101337285,stimuli/card_10_transparent.png,10,2,0,2,0,1,,,,,,,,,,
,,,,5de7d12c26dd95000b6824c5,B,2024-08-16_13h26.26.504,Slot Machine Game,2023.1.3,Win32,59.52380952,,,,,,,,,,,,,,,,,,,,,,,,,,,,,,,,120,,,,,,,,,,,,,10,3,,,667.2435,3,up,0.5667,667.8418,1.5,0.3,"[3,1,2]",0.172099102,stimuli/card_10_transparent.png,10,3,0,3,0,1,,,,,,,,,,
,,,,5de7d12c26dd95000b6824c5,B,2024-08-16_13h26.26.504,Slot Machine Game,2023.1.3,Win32,59.52380952,,,,,,,,,,,,,,,,,,,,,,,,,,,,,,,,130,,,,,,,,,,,,,10,3,,,669.6366,4,right,0.8552,670.5174,1.5,0.3,"[3,1,2]",0.773594025,stimuli/card_10_transparent.png,10,4,0,4,0,1,,,,,,,,,,
,,,,5de7d12c26dd95000b6824c5,B,2024-08-16_13h26.26.504,Slot Machine Game,2023.1.3,Win32,59.52380952,,,,,,,,,,,,,,,,,,,,,,,,,,,,,,,,130,,,,,,,,,,,,,10,3,,,672.313,5,left,0.6827,673.0273,1.5,0.3,"[3,1,2]",0.416937961,stimuli/card_0_transparent.png,0,5,0,5,0,1,,,,,,,,,,
,,,,5de7d12c26dd95000b6824c5,B,2024-08-16_13h26.26.504,Slot Machine Game,2023.1.3,Win32,59.52380952,,,,,,,,,,,,,,,,,,,,,,,,,,,,,,,,130,,,,,,,,,,,,,10,3,,,674.8227,6,up,1.2106,676.052,1.5,0.3,"[3,1,2]",0.060696345,stimuli/card_0_transparent.png,0,6,0,6,0,1,,,,,,,,,,
,,,,5de7d12c26dd95000b6824c5,B,2024-08-16_13h26.26.504,Slot Machine Game,2023.1.3,Win32,59.52380952,,,,,,,,,,,,,,,,,,,,,,,,,,,,,,,,130,,,,,,,,,,,,,10,3,,,677.8474,7,right,0.5123,678.3796,0.5,0.3,"[3,1,2]",0.075389884,stimuli/card_0_transparent.png,0,7,0,7,0,1,,,,,,,,,,
,,,,5de7d12c26dd95000b6824c5,B,2024-08-16_13h26.26.504,Slot Machine Game,2023.1.3,Win32,59.52380952,,,,,,,,,,,,,,,,,,,,,,,,,,,,,,,,130,,,,,,,,,,,,,10,3,,,679.1769,8,left,0.6002,679.8089,1.5,0.3,"[3,1,2]",0.330483196,stimuli/card_0_transparent.png,0,8,0,8,0,1,,,,,,,,,,
,,,,5de7d12c26dd95000b6824c5,B,2024-08-16_13h26.26.504,Slot Machine Game,2023.1.3,Win32,59.52380952,,,,,,,,,,,,,,,,,,,,,,,,,,,,,,,,230,,,,,,,,,,,,,10,3,,,681.6042,9,up,0.9254,682.5512,0.5,0.3,"[3,1,2]",0.491141109,stimuli/card_100_transparent.png,100,9,0,9,0,1,,,,,,,,,,
,,,,5de7d12c26dd95000b6824c5,B,2024-08-16_13h26.26.504,Slot Machine Game,2023.1.3,Win32,59.52380952,,,,,,,,,,,,,,,,,,,,,,,,,,,,,,,,240,,,,,,,,,,,,,10,3,,,683.3495,10,up,0.5504,683.9311,1.5,0.3,"[3,1,2]",0.173329898,stimuli/card_10_transparent.png,10,10,0,10,0,1,,,,,,,,,,
,,,,5de7d12c26dd95000b6824c5,B,2024-08-16_13h26.26.504,Slot Machine Game,2023.1.3,Win32,59.52380952,,,,,,,,,,,,,,,,,,,,,,,,,,,,,,,,340,,,,,,,,,,,,,10,3,,,685.7253,11,up,0.9144,686.6735,0.5,0.3,"[3,1,2]",0.408356242,stimuli/card_100_transparent.png,100,11,0,11,0,1,,,,,,,,,,
,,,,5de7d12c26dd95000b6824c5,B,2024-08-16_13h26.26.504,Slot Machine Game,2023.1.3,Win32,59.52380952,,,,,,,,,,,,,,,,,,,,,,,,,,,,,,,,440,,,,,,,,,,,,,10,3,,,687.4717,12,up,0.5247,688.0197,1.5,0.3,"[3,1,2]",0.960378212,stimuli/card_100_transparent.png,100,12,0,12,0,1,,,,,,,,,,
,,,,5de7d12c26dd95000b6824c5,B,2024-08-16_13h26.26.504,Slot Machine Game,2023.1.3,Win32,59.52380952,,,,,,,,,,,,,,,,,,,,,,,,,,,,,,,,540,,,,,,,,,,,,,10,3,,,689.8147,13,up,0.8001,690.646,0.5,0.3,"[3,1,2]",0.590646049,stimuli/card_100_transparent.png,100,13,0,13,0,1,,,,,,,,,,
,,,,5de7d12c26dd95000b6824c5,B,2024-08-16_13h26.26.504,Slot Machine Game,2023.1.3,Win32,59.52380952,,,,,,,,,,,,,,,,,,,,,,,,,,,,,,,,640,,,,,,,,,,,,,10,3,,,691.4439,14,up,0.5005,691.9757,0.5,0.3,"[3,1,2]",0.40296112,stimuli/card_100_transparent.png,100,14,0,14,0,1,,,,,,,,,,
,,,,5de7d12c26dd95000b6824c5,B,2024-08-16_13h26.26.504,Slot Machine Game,2023.1.3,Win32,59.52380952,,,,,,,,,,,,,,,,,,,,,,,,,,,,,,,,,,692.7738,,,,,,,,,,,,,,,,,,,,,,,,,,,,,,,"[370,1210,1130,740,570,650,840,1010,930,640]",9,0,9,0,1,,,,
,,,,5de7d12c26dd95000b6824c5,B,2024-08-16_13h26.26.504,Slot Machine Game,2023.1.3,Win32,59.52380952,,,,,,,,,,,,,,,,,,,,,,,,,,,,,,,,,,,,,,,,,,,,,,,,,,,,,,,,,,,,,,,,,,,,,,,9,"[370,1210,1130,740,570,650,840,1010,930,640]",12.1,2024-08-16_13h38.08.365
