key_resp_welcome_started,key_resp_welcome_keys,key_resp_welcome_rt,key_resp_welcome_duration,prolific_pid,path_id,date,expName,psychopyVersion,OS,frameRate,key_resp_instruction1_started,key_resp_instruction1_keys,key_resp_instruction1_rt,key_resp_instruction1_duration,key_resp_instruction2_started,key_resp_instruction2_keys,key_resp_instruction2_rt,key_resp_instruction2_duration,key_resp_instruction3_started,key_resp_instruction3_keys,key_resp_instruction3_rt,key_resp_instruction3_duration,key_resp_instruction4_started,key_resp_instruction4_keys,key_resp_instruction4_rt,key_resp_instruction4_duration,practiceCondition,practice_reward_seqs,practice_trial_started,practice_trial_num,practice_resp_rt,practice_keypress_time,practice_resp_keys,prac_presentationInterval,practice_reward_seq,reward_img,cumulative_reward,trial_reward,practice_trials.thisRepN,practice_trials.thisTrialN,practice_trials.thisN,practice_trials.thisIndex,practice_trials.ran,block_break_started,practice_end_time,practice_end_keys,practice_end_rt,practice_end_duration,main_instruction_text_started,block_condition,block_order_indices,main_instruction_keys,main_instruction_rt,main_instruction_duration,block_number,block_assignment,current_condition,main_reward_seqs,main_trial_started,main_trial_num,main_trial_keys,main_trial_rt,main_trial_keypress_time,main_presentationInterval,reward_presentation_time,main_reward_seq,reward_rand_val,main_reward_img,current_reward,main_trials.thisRepN,main_trials.thisTrialN,main_trials.thisN,main_trials.thisIndex,main_trials.ran,block_reward,block.thisRepN,block.thisTrialN,block.thisN,block.thisIndex,block.ran,block_reward.length,block_reward_all,reward_amount,date_end_task
0.0012,space,2.1729,,614918a6dcc9c2fb0bde6331,B,2024-08-22_11h14.48.862,Slot Machine Game,2023.1.3,Win32,60.97560976,,,,,,,,,,,,,,,,,,,,,,,,,,,,,,,,,,,,,,,,,,,,,,,,,,,,,,,,,,,,,,,,,,,,,,,,,,
,,,,614918a6dcc9c2fb0bde6331,B,2024-08-22_11h14.48.862,Slot Machine Game,2023.1.3,Win32,60.97560976,2.1948,space,10.6243,,,,,,,,,,,,,,,,,,,,,,,,,,,,,,,,,,,,,,,,,,,,,,,,,,,,,,,,,,,,,,,,,,,,,,,
,,,,614918a6dcc9c2fb0bde6331,B,2024-08-22_11h14.48.862,Slot Machine Game,2023.1.3,Win32,60.97560976,,,,,12.8398,space,34.9056,,,,,,,,,,,,,,,,,,,,,,,,,,,,,,,,,,,,,,,,,,,,,,,,,,,,,,,,,,,,,,,,,,,
,,,,614918a6dcc9c2fb0bde6331,B,2024-08-22_11h14.48.862,Slot Machine Game,2023.1.3,Win32,60.97560976,,,,,,,,,47.7828,space,9.7166,,,,,,,,,,,,,,,,,,,,,,,,,,,,,,,,,,,,,,,,,,,,,,,,,,,,,,,,,,,,,,,
,,,,614918a6dcc9c2fb0bde6331,B,2024-08-22_11h14.48.862,Slot Machine Game,2023.1.3,Win32,60.97560976,,,,,,,,,,,,,,,,,,,,,,,,,,,,,,,,,,,,,,,,,,,,,,,,,,,,,,,,,,,,,,,,,,,,,,,,,,
,,,,614918a6dcc9c2fb0bde6331,B,2024-08-22_11h14.48.862,Slot Machine Game,2023.1.3,Win32,60.97560976,,,,,,,,,,,,,199.3366,space,4.0819,,,,,,,,,,,,,,,,,,,,,,,,,,,,,,,,,,,,,,,,,,,,,,,,,,,,,,,,,,,
,,,,614918a6dcc9c2fb0bde6331,B,2024-08-22_11h14.48.862,Slot Machine Game,2023.1.3,Win32,60.97560976,,,,,,,,,,,,,,,,,"[9,15]","[[2,1,3],[2,3,1]]",203.4614,0,2.2676,205.7579,up,1,"[2,1,3]",stimuli/card_100_transparent.png,100,100,0,0,0,0,1,,,,,,,,,,,,,,,,,,,,,,,,,,,,,,,,,,,,,,,,,
,,,,614918a6dcc9c2fb0bde6331,B,2024-08-22_11h14.48.862,Slot Machine Game,2023.1.3,Win32,60.97560976,,,,,,,,,,,,,,,,,,,207.0573,1,1.601,208.6891,up,1,"[2,1,3]",stimuli/card_100_transparent.png,200,100,1,0,1,0,1,,,,,,,,,,,,,,,,,,,,,,,,,,,,,,,,,,,,,,,,,
,,,,614918a6dcc9c2fb0bde6331,B,2024-08-22_11h14.48.862,Slot Machine Game,2023.1.3,Win32,60.97560976,,,,,,,,,,,,,,,,,,,209.9899,2,0.9163,210.9233,up,0.5,"[2,1,3]",stimuli/card_0_transparent.png,200,0,2,0,2,0,1,,,,,,,,,,,,,,,,,,,,,,,,,,,,,,,,,,,,,,,,,
,,,,614918a6dcc9c2fb0bde6331,B,2024-08-22_11h14.48.862,Slot Machine Game,2023.1.3,Win32,60.97560976,,,,,,,,,,,,,,,,,,,211.7222,3,1.0279,212.7893,left,1,"[2,1,3]",stimuli/card_10_transparent.png,210,10,3,0,3,0,1,,,,,,,,,,,,,,,,,,,,,,,,,,,,,,,,,,,,,,,,,
,,,,614918a6dcc9c2fb0bde6331,B,2024-08-22_11h14.48.862,Slot Machine Game,2023.1.3,Win32,60.97560976,,,,,,,,,,,,,,,,,,,214.0866,4,1.06,215.1726,right,0.5,"[2,1,3]",stimuli/card_100_transparent.png,310,100,4,0,4,0,1,,,,,,,,,,,,,,,,,,,,,,,,,,,,,,,,,,,,,,,,,
,,,,614918a6dcc9c2fb0bde6331,B,2024-08-22_11h14.48.862,Slot Machine Game,2023.1.3,Win32,60.97560976,,,,,,,,,,,,,,,,,,,215.9656,5,0.9519,216.9478,right,0.5,"[2,1,3]",stimuli/card_0_transparent.png,310,0,5,0,5,0,1,,,,,,,,,,,,,,,,,,,,,,,,,,,,,,,,,,,,,,,,,
,,,,614918a6dcc9c2fb0bde6331,B,2024-08-22_11h14.48.862,Slot Machine Game,2023.1.3,Win32,60.97560976,,,,,,,,,,,,,,,,,,,217.7474,6,0.934,218.7131,right,1,"[2,1,3]",stimuli/card_0_transparent.png,310,0,6,0,6,0,1,,,,,,,,,,,,,,,,,,,,,,,,,,,,,,,,,,,,,,,,,
,,,,614918a6dcc9c2fb0bde6331,B,2024-08-22_11h14.48.862,Slot Machine Game,2023.1.3,Win32,60.97560976,,,,,,,,,,,,,,,,,,,220.0116,7,2.1204,222.1598,up,0.5,"[2,1,3]",stimuli/card_100_transparent.png,410,100,7,0,7,0,1,,,,,,,,,,,,,,,,,,,,,,,,,,,,,,,,,,,,,,,,,
,,,,614918a6dcc9c2fb0bde6331,B,2024-08-22_11h14.48.862,Slot Machine Game,2023.1.3,Win32,60.97560976,,,,,,,,,,,,,,,,,,,222.9587,8,0.9161,223.9078,up,1.5,"[2,1,3]",stimuli/card_0_transparent.png,410,0,8,0,8,0,1,,,,,,,,,,,,,,,,,,,,,,,,,,,,,,,,,,,,,,,,,
,,,,614918a6dcc9c2fb0bde6331,B,2024-08-22_11h14.48.862,Slot Machine Game,2023.1.3,Win32,60.97560976,,,,,,,,,,,,,,,,,,,225.7055,9,0.8503,226.5884,left,1.5,"[2,3,1]",stimuli/card_10_transparent.png,420,10,9,0,9,0,1,,,,,,,,,,,,,,,,,,,,,,,,,,,,,,,,,,,,,,,,,
,,,,614918a6dcc9c2fb0bde6331,B,2024-08-22_11h14.48.862,Slot Machine Game,2023.1.3,Win32,60.97560976,,,,,,,,,,,,,,,,,,,228.3874,10,1.0004,229.4372,right,0.5,"[2,3,1]",stimuli/card_100_transparent.png,520,100,10,0,10,0,1,,,,,,,,,,,,,,,,,,,,,,,,,,,,,,,,,,,,,,,,,
,,,,614918a6dcc9c2fb0bde6331,B,2024-08-22_11h14.48.862,Slot Machine Game,2023.1.3,Win32,60.97560976,,,,,,,,,,,,,,,,,,,230.2347,11,1.3327,231.6001,right,1.5,"[2,3,1]",stimuli/card_0_transparent.png,520,0,11,0,11,0,1,,,,,,,,,,,,,,,,,,,,,,,,,,,,,,,,,,,,,,,,,
,,,,614918a6dcc9c2fb0bde6331,B,2024-08-22_11h14.48.862,Slot Machine Game,2023.1.3,Win32,60.97560976,,,,,,,,,,,,,,,,,,,233.3985,12,0.9509,234.3806,up,1.5,"[2,3,1]",stimuli/card_0_transparent.png,520,0,12,0,12,0,1,,,,,,,,,,,,,,,,,,,,,,,,,,,,,,,,,,,,,,,,,
,,,,614918a6dcc9c2fb0bde6331,B,2024-08-22_11h14.48.862,Slot Machine Game,2023.1.3,Win32,60.97560976,,,,,,,,,,,,,,,,,,,236.1791,13,0.8011,237.0116,left,1,"[2,3,1]",stimuli/card_0_transparent.png,520,0,13,0,13,0,1,,,,,,,,,,,,,,,,,,,,,,,,,,,,,,,,,,,,,,,,,
,,,,614918a6dcc9c2fb0bde6331,B,2024-08-22_11h14.48.862,Slot Machine Game,2023.1.3,Win32,60.97560976,,,,,,,,,,,,,,,,,,,238.3101,14,0.6343,238.9764,right,1.5,"[2,3,1]",stimuli/card_100_transparent.png,620,100,14,0,14,0,1,,,,,,,,,,,,,,,,,,,,,,,,,,,,,,,,,,,,,,,,,
,,,,614918a6dcc9c2fb0bde6331,B,2024-08-22_11h14.48.862,Slot Machine Game,2023.1.3,Win32,60.97560976,,,,,,,,,,,,,,,,,"[6,15]","[[1,3,2],[3,1,2]]",245.7986,0,1.2177,247.0353,up,1.5,"[1,3,2]",stimuli/card_0_transparent.png,0,0,0,0,0,0,1,240.7853,,,,,,,,,,,,,,,,,,,,,,,,,,,,,,,,,,,,,,,,
,,,,614918a6dcc9c2fb0bde6331,B,2024-08-22_11h14.48.862,Slot Machine Game,2023.1.3,Win32,60.97560976,,,,,,,,,,,,,,,,,,,248.8331,1,0.769,249.6334,right,1.5,"[1,3,2]",stimuli/card_10_transparent.png,10,10,1,0,1,0,1,,,,,,,,,,,,,,,,,,,,,,,,,,,,,,,,,,,,,,,,,
,,,,614918a6dcc9c2fb0bde6331,B,2024-08-22_11h14.48.862,Slot Machine Game,2023.1.3,Win32,60.97560976,,,,,,,,,,,,,,,,,,,251.4307,2,0.8262,252.2808,up,1.5,"[1,3,2]",stimuli/card_10_transparent.png,20,10,2,0,2,0,1,,,,,,,,,,,,,,,,,,,,,,,,,,,,,,,,,,,,,,,,,
,,,,614918a6dcc9c2fb0bde6331,B,2024-08-22_11h14.48.862,Slot Machine Game,2023.1.3,Win32,60.97560976,,,,,,,,,,,,,,,,,,,254.078,3,0.6669,254.7777,left,0.5,"[1,3,2]",stimuli/card_100_transparent.png,120,100,3,0,3,0,1,,,,,,,,,,,,,,,,,,,,,,,,,,,,,,,,,,,,,,,,,
,,,,614918a6dcc9c2fb0bde6331,B,2024-08-22_11h14.48.862,Slot Machine Game,2023.1.3,Win32,60.97560976,,,,,,,,,,,,,,,,,,,255.5757,4,1.1707,256.7757,left,1.5,"[1,3,2]",stimuli/card_100_transparent.png,220,100,4,0,4,0,1,,,,,,,,,,,,,,,,,,,,,,,,,,,,,,,,,,,,,,,,,
,,,,614918a6dcc9c2fb0bde6331,B,2024-08-22_11h14.48.862,Slot Machine Game,2023.1.3,Win32,60.97560976,,,,,,,,,,,,,,,,,,,258.5734,5,0.7011,259.3065,left,1.5,"[1,3,2]",stimuli/card_100_transparent.png,320,100,5,0,5,0,1,,,,,,,,,,,,,,,,,,,,,,,,,,,,,,,,,,,,,,,,,
,,,,614918a6dcc9c2fb0bde6331,B,2024-08-22_11h14.48.862,Slot Machine Game,2023.1.3,Win32,60.97560976,,,,,,,,,,,,,,,,,,,261.1043,6,0.5008,261.6375,left,0.5,"[3,1,2]",stimuli/card_0_transparent.png,320,0,6,0,6,0,1,,,,,,,,,,,,,,,,,,,,,,,,,,,,,,,,,,,,,,,,,
,,,,614918a6dcc9c2fb0bde6331,B,2024-08-22_11h14.48.862,Slot Machine Game,2023.1.3,Win32,60.97560976,,,,,,,,,,,,,,,,,,,262.4362,7,1.3331,263.8021,up,0.5,"[3,1,2]",stimuli/card_10_transparent.png,330,10,7,0,7,0,1,,,,,,,,,,,,,,,,,,,,,,,,,,,,,,,,,,,,,,,,,
,,,,614918a6dcc9c2fb0bde6331,B,2024-08-22_11h14.48.862,Slot Machine Game,2023.1.3,Win32,60.97560976,,,,,,,,,,,,,,,,,,,264.6003,8,0.9938,265.6186,right,1,"[3,1,2]",stimuli/card_0_transparent.png,330,0,8,0,8,0,1,,,,,,,,,,,,,,,,,,,,,,,,,,,,,,,,,,,,,,,,,
,,,,614918a6dcc9c2fb0bde6331,B,2024-08-22_11h14.48.862,Slot Machine Game,2023.1.3,Win32,60.97560976,,,,,,,,,,,,,,,,,,,266.9228,9,0.5867,267.5307,up,0.5,"[3,1,2]",stimuli/card_100_transparent.png,430,100,9,0,9,0,1,,,,,,,,,,,,,,,,,,,,,,,,,,,,,,,,,,,,,,,,,
,,,,614918a6dcc9c2fb0bde6331,B,2024-08-22_11h14.48.862,Slot Machine Game,2023.1.3,Win32,60.97560976,,,,,,,,,,,,,,,,,,,268.3292,10,0.9026,269.2624,up,0.5,"[3,1,2]",stimuli/card_100_transparent.png,530,100,10,0,10,0,1,,,,,,,,,,,,,,,,,,,,,,,,,,,,,,,,,,,,,,,,,
,,,,614918a6dcc9c2fb0bde6331,B,2024-08-22_11h14.48.862,Slot Machine Game,2023.1.3,Win32,60.97560976,,,,,,,,,,,,,,,,,,,270.0612,11,0.9051,270.9953,up,0.5,"[3,1,2]",stimuli/card_10_transparent.png,540,10,11,0,11,0,1,,,,,,,,,,,,,,,,,,,,,,,,,,,,,,,,,,,,,,,,,
,,,,614918a6dcc9c2fb0bde6331,B,2024-08-22_11h14.48.862,Slot Machine Game,2023.1.3,Win32,60.97560976,,,,,,,,,,,,,,,,,,,271.7929,12,0.7681,272.579,left,0.5,"[3,1,2]",stimuli/card_100_transparent.png,640,100,12,0,12,0,1,,,,,,,,,,,,,,,,,,,,,,,,,,,,,,,,,,,,,,,,,
,,,,614918a6dcc9c2fb0bde6331,B,2024-08-22_11h14.48.862,Slot Machine Game,2023.1.3,Win32,60.97560976,,,,,,,,,,,,,,,,,,,273.3765,13,0.9255,274.3283,left,1.5,"[3,1,2]",stimuli/card_0_transparent.png,640,0,13,0,13,0,1,,,,,,,,,,,,,,,,,,,,,,,,,,,,,,,,,,,,,,,,,
,,,,614918a6dcc9c2fb0bde6331,B,2024-08-22_11h14.48.862,Slot Machine Game,2023.1.3,Win32,60.97560976,,,,,,,,,,,,,,,,,,,276.1244,14,0.7663,276.9221,right,1.5,"[3,1,2]",stimuli/card_10_transparent.png,650,10,14,0,14,0,1,,,,,,,,,,,,,,,,,,,,,,,,,,,,,,,,,,,,,,,,,
,,,,614918a6dcc9c2fb0bde6331,B,2024-08-22_11h14.48.862,Slot Machine Game,2023.1.3,Win32,60.97560976,,,,,,,,,,,,,,,,,,,,,,,,,,,,,,,,,,278.7189,283.7149,space,3.1088,,,,,,,,,,,,,,,,,,,,,,,,,,,,,,,,,,,,,
,,,,614918a6dcc9c2fb0bde6331,B,2024-08-22_11h14.48.862,Slot Machine Game,2023.1.3,Win32,60.97560976,,,,,,,,,,,,,,,,,,,,,,,,,,,,,,,,,,,,,,,286.846,1,"[0,1,2,3,4,5,6,7,8,9]",space,6.7193,,,,,,,,,,,,,,,,,,,,,,,,,,,,,,,
,,,,614918a6dcc9c2fb0bde6331,B,2024-08-22_11h14.48.862,Slot Machine Game,2023.1.3,Win32,60.97560976,,,,,,,,,,,,,,,,,,,,,,,,,,,100,,,,,,,,,,,,,,,,,,1,1,"[12,15]","[[2,1,3],[2,3,1]]",293.6063,0,up,1.2015,294.838,1.5,0.3,"[2,1,3]",0.395433085,stimuli/card_100_transparent.png,100,0,0,0,0,1,,,,,,,,,,
,,,,614918a6dcc9c2fb0bde6331,B,2024-08-22_11h14.48.862,Slot Machine Game,2023.1.3,Win32,60.97560976,,,,,,,,,,,,,,,,,,,,,,,,,,,200,,,,,,,,,,,,,,,,,,1,1,,,296.626,1,up,0.8878,297.5418,1,0.3,"[2,1,3]",0.995951764,stimuli/card_100_transparent.png,100,1,0,1,0,1,,,,,,,,,,
,,,,614918a6dcc9c2fb0bde6331,B,2024-08-22_11h14.48.862,Slot Machine Game,2023.1.3,Win32,60.97560976,,,,,,,,,,,,,,,,,,,,,,,,,,,210,,,,,,,,,,,,,,,,,,1,1,,,298.838,2,up,0.988,299.8396,0.5,0.3,"[2,1,3]",0.171496253,stimuli/card_10_transparent.png,10,2,0,2,0,1,,,,,,,,,,
,,,,614918a6dcc9c2fb0bde6331,B,2024-08-22_11h14.48.862,Slot Machine Game,2023.1.3,Win32,60.97560976,,,,,,,,,,,,,,,,,,,,,,,,,,,220,,,,,,,,,,,,,,,,,,1,1,,,300.6312,3,left,0.6134,301.2672,0.5,0.3,"[2,1,3]",0.601163334,stimuli/card_10_transparent.png,10,3,0,3,0,1,,,,,,,,,,
,,,,614918a6dcc9c2fb0bde6331,B,2024-08-22_11h14.48.862,Slot Machine Game,2023.1.3,Win32,60.97560976,,,,,,,,,,,,,,,,,,,,,,,,,,,220,,,,,,,,,,,,,,,,,,1,1,,,302.0704,4,right,0.7004,302.8032,1.5,0.3,"[2,1,3]",0.377704651,stimuli/card_0_transparent.png,0,4,0,4,0,1,,,,,,,,,,
,,,,614918a6dcc9c2fb0bde6331,B,2024-08-22_11h14.48.862,Slot Machine Game,2023.1.3,Win32,60.97560976,,,,,,,,,,,,,,,,,,,,,,,,,,,230,,,,,,,,,,,,,,,,,,1,1,,,304.5983,5,up,0.9688,305.5982,1,0.3,"[2,1,3]",0.185993783,stimuli/card_10_transparent.png,10,5,0,5,0,1,,,,,,,,,,
,,,,614918a6dcc9c2fb0bde6331,B,2024-08-22_11h14.48.862,Slot Machine Game,2023.1.3,Win32,60.97560976,,,,,,,,,,,,,,,,,,,,,,,,,,,230,,,,,,,,,,,,,,,,,,1,1,,,306.897,6,right,0.6531,307.5632,0.5,0.3,"[2,1,3]",0.363882232,stimuli/card_0_transparent.png,0,6,0,6,0,1,,,,,,,,,,
,,,,614918a6dcc9c2fb0bde6331,B,2024-08-22_11h14.48.862,Slot Machine Game,2023.1.3,Win32,60.97560976,,,,,,,,,,,,,,,,,,,,,,,,,,,330,,,,,,,,,,,,,,,,,,1,1,,,308.3598,7,up,0.8057,309.1811,1.5,0.3,"[2,1,3]",0.455991101,stimuli/card_100_transparent.png,100,7,0,7,0,1,,,,,,,,,,
,,,,614918a6dcc9c2fb0bde6331,B,2024-08-22_11h14.48.862,Slot Machine Game,2023.1.3,Win32,60.97560976,,,,,,,,,,,,,,,,,,,,,,,,,,,430,,,,,,,,,,,,,,,,,,1,1,,,310.9739,8,up,0.5355,311.5441,0.5,0.3,"[2,1,3]",0.866168929,stimuli/card_100_transparent.png,100,8,0,8,0,1,,,,,,,,,,
,,,,614918a6dcc9c2fb0bde6331,B,2024-08-22_11h14.48.862,Slot Machine Game,2023.1.3,Win32,60.97560976,,,,,,,,,,,,,,,,,,,,,,,,,,,530,,,,,,,,,,,,,,,,,,1,1,,,312.3363,9,up,0.6794,313.056,0.5,0.3,"[2,1,3]",0.302947968,stimuli/card_100_transparent.png,100,9,0,9,0,1,,,,,,,,,,
,,,,614918a6dcc9c2fb0bde6331,B,2024-08-22_11h14.48.862,Slot Machine Game,2023.1.3,Win32,60.97560976,,,,,,,,,,,,,,,,,,,,,,,,,,,630,,,,,,,,,,,,,,,,,,1,1,,,313.8541,10,up,0.6651,314.5539,1,0.3,"[2,1,3]",0.923001632,stimuli/card_100_transparent.png,100,10,0,10,0,1,,,,,,,,,,
,,,,614918a6dcc9c2fb0bde6331,B,2024-08-22_11h14.48.862,Slot Machine Game,2023.1.3,Win32,60.97560976,,,,,,,,,,,,,,,,,,,,,,,,,,,730,,,,,,,,,,,,,,,,,,1,1,,,315.8521,11,up,2.4988,318.3872,1.5,0.3,"[2,1,3]",0.209483039,stimuli/card_100_transparent.png,100,11,0,11,0,1,,,,,,,,,,
,,,,614918a6dcc9c2fb0bde6331,B,2024-08-22_11h14.48.862,Slot Machine Game,2023.1.3,Win32,60.97560976,,,,,,,,,,,,,,,,,,,,,,,,,,,730,,,,,,,,,,,,,,,,,,1,1,,,320.1812,12,up,0.6728,320.8863,0.5,0.3,"[2,3,1]",0.821221215,stimuli/card_0_transparent.png,0,12,0,12,0,1,,,,,,,,,,
,,,,614918a6dcc9c2fb0bde6331,B,2024-08-22_11h14.48.862,Slot Machine Game,2023.1.3,Win32,60.97560976,,,,,,,,,,,,,,,,,,,,,,,,,,,730,,,,,,,,,,,,,,,,,,1,1,,,321.6823,13,up,1.0506,322.7633,1,0.3,"[2,3,1]",0.970082318,stimuli/card_0_transparent.png,0,13,0,13,0,1,,,,,,,,,,
,,,,614918a6dcc9c2fb0bde6331,B,2024-08-22_11h14.48.862,Slot Machine Game,2023.1.3,Win32,60.97560976,,,,,,,,,,,,,,,,,,,,,,,,,,,740,,,,,,,,,,,,,,,,,,1,1,,,324.0651,14,up,0.9502,325.0435,1.5,0.3,"[2,3,1]",0.181709339,stimuli/card_10_transparent.png,10,14,0,14,0,1,,,,,,,,,,
,,,,614918a6dcc9c2fb0bde6331,B,2024-08-22_11h14.48.862,Slot Machine Game,2023.1.3,Win32,60.97560976,,,,,,,,,,,,,,,,,,,,,,,,,,,,,,,,,,326.8435,,,,,,,,,,,,,,,,,,,,,,,,,,,,,,,[740],0,0,0,0,1,,,,
,,,,614918a6dcc9c2fb0bde6331,B,2024-08-22_11h14.48.862,Slot Machine Game,2023.1.3,Win32,60.97560976,,,,,,,,,,,,,,,,,,,,,,,,,,,10,,,,,,,,,,,,,,,,,,2,2,"[6,15]","[[1,3,2],[3,2,1]]",331.863,0,up,0.6515,332.5469,0.5,0.3,"[1,3,2]",0.117474495,stimuli/card_10_transparent.png,10,0,0,0,0,1,,,,,,,,,,
,,,,614918a6dcc9c2fb0bde6331,B,2024-08-22_11h14.48.862,Slot Machine Game,2023.1.3,Win32,60.97560976,,,,,,,,,,,,,,,,,,,,,,,,,,,110,,,,,,,,,,,,,,,,,,2,2,,,333.3437,1,left,0.7678,334.1455,0.5,0.3,"[1,3,2]",0.246349625,stimuli/card_100_transparent.png,100,1,0,1,0,1,,,,,,,,,,
,,,,614918a6dcc9c2fb0bde6331,B,2024-08-22_11h14.48.862,Slot Machine Game,2023.1.3,Win32,60.97560976,,,,,,,,,,,,,,,,,,,,,,,,,,,210,,,,,,,,,,,,,,,,,,2,2,,,334.9368,2,left,1.0007,335.9597,1,0.3,"[1,3,2]",0.942640593,stimuli/card_100_transparent.png,100,2,0,2,0,1,,,,,,,,,,
,,,,614918a6dcc9c2fb0bde6331,B,2024-08-22_11h14.48.862,Slot Machine Game,2023.1.3,Win32,60.97560976,,,,,,,,,,,,,,,,,,,,,,,,,,,210,,,,,,,,,,,,,,,,,,2,2,,,337.2675,3,left,0.6219,337.9189,1,0.3,"[1,3,2]",0.055285857,stimuli/card_0_transparent.png,0,3,0,3,0,1,,,,,,,,,,
,,,,614918a6dcc9c2fb0bde6331,B,2024-08-22_11h14.48.862,Slot Machine Game,2023.1.3,Win32,60.97560976,,,,,,,,,,,,,,,,,,,,,,,,,,,220,,,,,,,,,,,,,,,,,,2,2,,,339.2003,4,right,0.8166,340.0474,0.5,0.3,"[1,3,2]",0.959989778,stimuli/card_10_transparent.png,10,4,0,4,0,1,,,,,,,,,,
,,,,614918a6dcc9c2fb0bde6331,B,2024-08-22_11h14.48.862,Slot Machine Game,2023.1.3,Win32,60.97560976,,,,,,,,,,,,,,,,,,,,,,,,,,,230,,,,,,,,,,,,,,,,,,2,2,,,340.844,5,right,2.085,342.9457,0.5,0.3,"[1,3,2]",0.733609843,stimuli/card_10_transparent.png,10,5,0,5,0,1,,,,,,,,,,
,,,,614918a6dcc9c2fb0bde6331,B,2024-08-22_11h14.48.862,Slot Machine Game,2023.1.3,Win32,60.97560976,,,,,,,,,,,,,,,,,,,,,,,,,,,230,,,,,,,,,,,,,,,,,,2,2,,,343.7456,6,up,1.6022,345.3786,1,0.3,"[3,2,1]",0.045795589,stimuli/card_0_transparent.png,0,6,0,6,0,1,,,,,,,,,,
,,,,614918a6dcc9c2fb0bde6331,B,2024-08-22_11h14.48.862,Slot Machine Game,2023.1.3,Win32,60.97560976,,,,,,,,,,,,,,,,,,,,,,,,,,,330,,,,,,,,,,,,,,,,,,2,2,,,346.6738,7,right,1.4284,348.1372,1.5,0.3,"[3,2,1]",0.839916356,stimuli/card_100_transparent.png,100,7,0,7,0,1,,,,,,,,,,
,,,,614918a6dcc9c2fb0bde6331,B,2024-08-22_11h14.48.862,Slot Machine Game,2023.1.3,Win32,60.97560976,,,,,,,,,,,,,,,,,,,,,,,,,,,430,,,,,,,,,,,,,,,,,,2,2,,,349.9324,8,right,1.8038,351.7548,0.5,0.3,"[3,2,1]",0.912093815,stimuli/card_100_transparent.png,100,8,0,8,0,1,,,,,,,,,,
,,,,614918a6dcc9c2fb0bde6331,B,2024-08-22_11h14.48.862,Slot Machine Game,2023.1.3,Win32,60.97560976,,,,,,,,,,,,,,,,,,,,,,,,,,,530,,,,,,,,,,,,,,,,,,2,2,,,352.5519,9,right,1.0691,353.653,1,0.3,"[3,2,1]",0.442806473,stimuli/card_100_transparent.png,100,9,0,9,0,1,,,,,,,,,,
,,,,614918a6dcc9c2fb0bde6331,B,2024-08-22_11h14.48.862,Slot Machine Game,2023.1.3,Win32,60.97560976,,,,,,,,,,,,,,,,,,,,,,,,,,,630,,,,,,,,,,,,,,,,,,2,2,,,354.9468,10,right,1.0519,356.0195,0.5,0.3,"[3,2,1]",0.212394178,stimuli/card_100_transparent.png,100,10,0,10,0,1,,,,,,,,,,
,,,,614918a6dcc9c2fb0bde6331,B,2024-08-22_11h14.48.862,Slot Machine Game,2023.1.3,Win32,60.97560976,,,,,,,,,,,,,,,,,,,,,,,,,,,630,,,,,,,,,,,,,,,,,,2,2,,,356.8088,11,right,1.267,358.0942,0.5,0.3,"[3,2,1]",0.092852859,stimuli/card_0_transparent.png,0,11,0,11,0,1,,,,,,,,,,
,,,,614918a6dcc9c2fb0bde6331,B,2024-08-22_11h14.48.862,Slot Machine Game,2023.1.3,Win32,60.97560976,,,,,,,,,,,,,,,,,,,,,,,,,,,640,,,,,,,,,,,,,,,,,,2,2,,,358.892,12,up,1.1811,360.0921,1.5,0.3,"[3,2,1]",0.917183904,stimuli/card_10_transparent.png,10,12,0,12,0,1,,,,,,,,,,
,,,,614918a6dcc9c2fb0bde6331,B,2024-08-22_11h14.48.862,Slot Machine Game,2023.1.3,Win32,60.97560976,,,,,,,,,,,,,,,,,,,,,,,,,,,640,,,,,,,,,,,,,,,,,,2,2,,,361.89,13,left,0.6029,362.5278,1,0.3,"[3,2,1]",0.528271783,stimuli/card_0_transparent.png,0,13,0,13,0,1,,,,,,,,,,
,,,,614918a6dcc9c2fb0bde6331,B,2024-08-22_11h14.48.862,Slot Machine Game,2023.1.3,Win32,60.97560976,,,,,,,,,,,,,,,,,,,,,,,,,,,650,,,,,,,,,,,,,,,,,,2,2,,,363.8236,14,up,0.7007,364.5551,0.5,0.3,"[3,2,1]",0.437913045,stimuli/card_10_transparent.png,10,14,0,14,0,1,,,,,,,,,,
,,,,614918a6dcc9c2fb0bde6331,B,2024-08-22_11h14.48.862,Slot Machine Game,2023.1.3,Win32,60.97560976,,,,,,,,,,,,,,,,,,,,,,,,,,,,,,,,,,365.3531,,,,,,,,,,,,,,,,,,,,,,,,,,,,,,,"[740,650]",1,0,1,0,1,,,,
,,,,614918a6dcc9c2fb0bde6331,B,2024-08-22_11h14.48.862,Slot Machine Game,2023.1.3,Win32,60.97560976,,,,,,,,,,,,,,,,,,,,,,,,,,,100,,,,,,,,,,,,,,,,,,3,3,"[15,15]","[[3,1,2],[3,1,2]]",370.3628,0,up,0.685,371.0677,1.5,0.3,"[3,1,2]",0.336358537,stimuli/card_100_transparent.png,100,0,0,0,0,1,,,,,,,,,,
,,,,614918a6dcc9c2fb0bde6331,B,2024-08-22_11h14.48.862,Slot Machine Game,2023.1.3,Win32,60.97560976,,,,,,,,,,,,,,,,,,,,,,,,,,,200,,,,,,,,,,,,,,,,,,3,3,,,372.8503,1,up,1.1504,374.0285,0.5,0.3,"[3,1,2]",0.338483465,stimuli/card_100_transparent.png,100,1,0,1,0,1,,,,,,,,,,
,,,,614918a6dcc9c2fb0bde6331,B,2024-08-22_11h14.48.862,Slot Machine Game,2023.1.3,Win32,60.97560976,,,,,,,,,,,,,,,,,,,,,,,,,,,210,,,,,,,,,,,,,,,,,,3,3,,,374.8248,2,up,1.2548,376.1097,1.5,0.3,"[3,1,2]",0.157801954,stimuli/card_10_transparent.png,10,2,0,2,0,1,,,,,,,,,,
,,,,614918a6dcc9c2fb0bde6331,B,2024-08-22_11h14.48.862,Slot Machine Game,2023.1.3,Win32,60.97560976,,,,,,,,,,,,,,,,,,,,,,,,,,,210,,,,,,,,,,,,,,,,,,3,3,,,377.9072,3,left,0.5965,378.524,1,0.3,"[3,1,2]",0.275929971,stimuli/card_0_transparent.png,0,3,0,3,0,1,,,,,,,,,,
,,,,614918a6dcc9c2fb0bde6331,B,2024-08-22_11h14.48.862,Slot Machine Game,2023.1.3,Win32,60.97560976,,,,,,,,,,,,,,,,,,,,,,,,,,,220,,,,,,,,,,,,,,,,,,3,3,,,379.8222,4,right,0.8199,380.6581,1.5,0.3,"[3,1,2]",0.738597541,stimuli/card_10_transparent.png,10,4,0,4,0,1,,,,,,,,,,
,,,,614918a6dcc9c2fb0bde6331,B,2024-08-22_11h14.48.862,Slot Machine Game,2023.1.3,Win32,60.97560976,,,,,,,,,,,,,,,,,,,,,,,,,,,230,,,,,,,,,,,,,,,,,,3,3,,,382.4527,5,right,0.7983,383.2882,0.5,0.3,"[3,1,2]",0.804961698,stimuli/card_10_transparent.png,10,5,0,5,0,1,,,,,,,,,,
,,,,614918a6dcc9c2fb0bde6331,B,2024-08-22_11h14.48.862,Slot Machine Game,2023.1.3,Win32,60.97560976,,,,,,,,,,,,,,,,,,,,,,,,,,,330,,,,,,,,,,,,,,,,,,3,3,,,384.0847,6,up,0.9172,385.0367,1,0.3,"[3,1,2]",0.699634325,stimuli/card_100_transparent.png,100,6,0,6,0,1,,,,,,,,,,
,,,,614918a6dcc9c2fb0bde6331,B,2024-08-22_11h14.48.862,Slot Machine Game,2023.1.3,Win32,60.97560976,,,,,,,,,,,,,,,,,,,,,,,,,,,430,,,,,,,,,,,,,,,,,,3,3,,,386.3325,7,up,1.3048,387.6695,1.5,0.3,"[3,1,2]",0.447790887,stimuli/card_100_transparent.png,100,7,0,7,0,1,,,,,,,,,,
,,,,614918a6dcc9c2fb0bde6331,B,2024-08-22_11h14.48.862,Slot Machine Game,2023.1.3,Win32,60.97560976,,,,,,,,,,,,,,,,,,,,,,,,,,,530,,,,,,,,,,,,,,,,,,3,3,,,389.4646,8,up,1.0835,390.5816,0.5,0.3,"[3,1,2]",0.467200416,stimuli/card_100_transparent.png,100,8,0,8,0,1,,,,,,,,,,
,,,,614918a6dcc9c2fb0bde6331,B,2024-08-22_11h14.48.862,Slot Machine Game,2023.1.3,Win32,60.97560976,,,,,,,,,,,,,,,,,,,,,,,,,,,630,,,,,,,,,,,,,,,,,,3,3,,,391.3823,9,up,2.3658,393.7762,0.5,0.3,"[3,1,2]",0.294422919,stimuli/card_100_transparent.png,100,9,0,9,0,1,,,,,,,,,,
,,,,614918a6dcc9c2fb0bde6331,B,2024-08-22_11h14.48.862,Slot Machine Game,2023.1.3,Win32,60.97560976,,,,,,,,,,,,,,,,,,,,,,,,,,,730,,,,,,,,,,,,,,,,,,3,3,,,394.5776,10,up,2.1849,396.7831,1,0.3,"[3,1,2]",0.273786838,stimuli/card_100_transparent.png,100,10,0,10,0,1,,,,,,,,,,
,,,,614918a6dcc9c2fb0bde6331,B,2024-08-22_11h14.48.862,Slot Machine Game,2023.1.3,Win32,60.97560976,,,,,,,,,,,,,,,,,,,,,,,,,,,730,,,,,,,,,,,,,,,,,,3,3,,,398.0851,11,up,1.1028,399.2043,0.5,0.3,"[3,1,2]",0.081445844,stimuli/card_0_transparent.png,0,11,0,11,0,1,,,,,,,,,,
,,,,614918a6dcc9c2fb0bde6331,B,2024-08-22_11h14.48.862,Slot Machine Game,2023.1.3,Win32,60.97560976,,,,,,,,,,,,,,,,,,,,,,,,,,,730,,,,,,,,,,,,,,,,,,3,3,,,400.0019,12,left,0.7846,400.8185,1.5,0.3,"[3,1,2]",0.276961556,stimuli/card_0_transparent.png,0,12,0,12,0,1,,,,,,,,,,
,,,,614918a6dcc9c2fb0bde6331,B,2024-08-22_11h14.48.862,Slot Machine Game,2023.1.3,Win32,60.97560976,,,,,,,,,,,,,,,,,,,,,,,,,,,740,,,,,,,,,,,,,,,,,,3,3,,,402.6138,13,right,1.1107,403.7481,1,0.3,"[3,1,2]",0.204040192,stimuli/card_10_transparent.png,10,13,0,13,0,1,,,,,,,,,,
,,,,614918a6dcc9c2fb0bde6331,B,2024-08-22_11h14.48.862,Slot Machine Game,2023.1.3,Win32,60.97560976,,,,,,,,,,,,,,,,,,,,,,,,,,,750,,,,,,,,,,,,,,,,,,3,3,,,405.0451,14,right,0.7732,405.8445,1.5,0.3,"[3,1,2]",0.32776854,stimuli/card_10_transparent.png,10,14,0,14,0,1,,,,,,,,,,
,,,,614918a6dcc9c2fb0bde6331,B,2024-08-22_11h14.48.862,Slot Machine Game,2023.1.3,Win32,60.97560976,,,,,,,,,,,,,,,,,,,,,,,,,,,,,,,,,,407.6417,,,,,,,,,,,,,,,,,,,,,,,,,,,,,,,"[740,650,750]",2,0,2,0,1,,,,
,,,,614918a6dcc9c2fb0bde6331,B,2024-08-22_11h14.48.862,Slot Machine Game,2023.1.3,Win32,60.97560976,,,,,,,,,,,,,,,,,,,,,,,,,,,0,,,,,,,,,,,,,,,,,,4,4,"[7,15]","[[2,3,1],[1,2,3]]",412.6505,0,up,0.7016,413.3706,1.5,0.3,"[2,3,1]",0.812273652,stimuli/card_0_transparent.png,0,0,0,0,0,1,,,,,,,,,,
,,,,614918a6dcc9c2fb0bde6331,B,2024-08-22_11h14.48.862,Slot Machine Game,2023.1.3,Win32,60.97560976,,,,,,,,,,,,,,,,,,,,,,,,,,,10,,,,,,,,,,,,,,,,,,4,4,,,415.1684,1,left,0.5508,415.7515,0.5,0.3,"[2,3,1]",0.951908756,stimuli/card_10_transparent.png,10,1,0,1,0,1,,,,,,,,,,
,,,,614918a6dcc9c2fb0bde6331,B,2024-08-22_11h14.48.862,Slot Machine Game,2023.1.3,Win32,60.97560976,,,,,,,,,,,,,,,,,,,,,,,,,,,110,,,,,,,,,,,,,,,,,,4,4,,,416.5501,2,right,0.7886,417.3664,1,0.3,"[2,3,1]",0.20202156,stimuli/card_100_transparent.png,100,2,0,2,0,1,,,,,,,,,,
,,,,614918a6dcc9c2fb0bde6331,B,2024-08-22_11h14.48.862,Slot Machine Game,2023.1.3,Win32,60.97560976,,,,,,,,,,,,,,,,,,,,,,,,,,,120,,,,,,,,,,,,,,,,,,4,4,,,418.6648,3,right,0.6686,419.3645,1,0.3,"[2,3,1]",0.18265957,stimuli/card_10_transparent.png,10,3,0,3,0,1,,,,,,,,,,
,,,,614918a6dcc9c2fb0bde6331,B,2024-08-22_11h14.48.862,Slot Machine Game,2023.1.3,Win32,60.97560976,,,,,,,,,,,,,,,,,,,,,,,,,,,220,,,,,,,,,,,,,,,,,,4,4,,,420.6631,4,right,0.521,421.2126,1,0.3,"[2,3,1]",0.987459866,stimuli/card_100_transparent.png,100,4,0,4,0,1,,,,,,,,,,
,,,,614918a6dcc9c2fb0bde6331,B,2024-08-22_11h14.48.862,Slot Machine Game,2023.1.3,Win32,60.97560976,,,,,,,,,,,,,,,,,,,,,,,,,,,220,,,,,,,,,,,,,,,,,,4,4,,,422.5108,5,right,0.8232,423.3602,1,0.3,"[2,3,1]",0.099982586,stimuli/card_0_transparent.png,0,5,0,5,0,1,,,,,,,,,,
,,,,614918a6dcc9c2fb0bde6331,B,2024-08-22_11h14.48.862,Slot Machine Game,2023.1.3,Win32,60.97560976,,,,,,,,,,,,,,,,,,,,,,,,,,,220,,,,,,,,,,,,,,,,,,4,4,,,424.6586,6,up,3.3277,428.0232,1.5,0.3,"[2,3,1]",0.67101777,stimuli/card_0_transparent.png,0,6,0,6,0,1,,,,,,,,,,
,,,,614918a6dcc9c2fb0bde6331,B,2024-08-22_11h14.48.862,Slot Machine Game,2023.1.3,Win32,60.97560976,,,,,,,,,,,,,,,,,,,,,,,,,,,220,,,,,,,,,,,,,,,,,,4,4,,,429.8207,7,right,0.5707,430.4201,1,0.3,"[1,2,3]",0.658208295,stimuli/card_0_transparent.png,0,7,0,7,0,1,,,,,,,,,,
,,,,614918a6dcc9c2fb0bde6331,B,2024-08-22_11h14.48.862,Slot Machine Game,2023.1.3,Win32,60.97560976,,,,,,,,,,,,,,,,,,,,,,,,,,,320,,,,,,,,,,,,,,,,,,4,4,,,431.7187,8,left,0.5332,432.285,1.5,0.3,"[1,2,3]",0.770345162,stimuli/card_100_transparent.png,100,8,0,8,0,1,,,,,,,,,,
,,,,614918a6dcc9c2fb0bde6331,B,2024-08-22_11h14.48.862,Slot Machine Game,2023.1.3,Win32,60.97560976,,,,,,,,,,,,,,,,,,,,,,,,,,,330,,,,,,,,,,,,,,,,,,4,4,,,434.0831,9,left,0.7006,434.8163,0.5,0.3,"[1,2,3]",0.137895584,stimuli/card_10_transparent.png,10,9,0,9,0,1,,,,,,,,,,
,,,,614918a6dcc9c2fb0bde6331,B,2024-08-22_11h14.48.862,Slot Machine Game,2023.1.3,Win32,60.97560976,,,,,,,,,,,,,,,,,,,,,,,,,,,340,,,,,,,,,,,,,,,,,,4,4,,,435.6151,10,up,0.7009,436.3479,1.5,0.3,"[1,2,3]",0.244590138,stimuli/card_10_transparent.png,10,10,0,10,0,1,,,,,,,,,,
,,,,614918a6dcc9c2fb0bde6331,B,2024-08-22_11h14.48.862,Slot Machine Game,2023.1.3,Win32,60.97560976,,,,,,,,,,,,,,,,,,,,,,,,,,,440,,,,,,,,,,,,,,,,,,4,4,,,438.1457,11,left,0.5848,438.7619,0.5,0.3,"[1,2,3]",0.695372428,stimuli/card_100_transparent.png,100,11,0,11,0,1,,,,,,,,,,
,,,,614918a6dcc9c2fb0bde6331,B,2024-08-22_11h14.48.862,Slot Machine Game,2023.1.3,Win32,60.97560976,,,,,,,,,,,,,,,,,,,,,,,,,,,540,,,,,,,,,,,,,,,,,,4,4,,,439.5609,12,left,0.9401,440.5268,0.5,0.3,"[1,2,3]",0.622094653,stimuli/card_100_transparent.png,100,12,0,12,0,1,,,,,,,,,,
,,,,614918a6dcc9c2fb0bde6331,B,2024-08-22_11h14.48.862,Slot Machine Game,2023.1.3,Win32,60.97560976,,,,,,,,,,,,,,,,,,,,,,,,,,,540,,,,,,,,,,,,,,,,,,4,4,,,441.3255,13,left,0.9333,442.2919,1.5,0.3,"[1,2,3]",0.087139767,stimuli/card_0_transparent.png,0,13,0,13,0,1,,,,,,,,,,
,,,,614918a6dcc9c2fb0bde6331,B,2024-08-22_11h14.48.862,Slot Machine Game,2023.1.3,Win32,60.97560976,,,,,,,,,,,,,,,,,,,,,,,,,,,550,,,,,,,,,,,,,,,,,,4,4,,,444.0893,14,up,2.2324,446.3545,1.5,0.3,"[1,2,3]",0.2849117,stimuli/card_10_transparent.png,10,14,0,14,0,1,,,,,,,,,,
,,,,614918a6dcc9c2fb0bde6331,B,2024-08-22_11h14.48.862,Slot Machine Game,2023.1.3,Win32,60.97560976,,,,,,,,,,,,,,,,,,,,,,,,,,,,,,,,,,448.1524,,,,,,,,,,,,,,,,,,,,,,,,,,,,,,,"[740,650,750,550]",3,0,3,0,1,,,,
,,,,614918a6dcc9c2fb0bde6331,B,2024-08-22_11h14.48.862,Slot Machine Game,2023.1.3,Win32,60.97560976,,,,,,,,,,,,,,,,,,,,,,,,,,,10,,,,,,,,,,,,,,,,,,5,5,"[5,15]","[[1,2,3],[3,1,2]]",453.1606,0,up,1.0694,454.2465,1.5,0.3,"[1,2,3]",0.801731855,stimuli/card_10_transparent.png,10,0,0,0,0,1,,,,,,,,,,
,,,,614918a6dcc9c2fb0bde6331,B,2024-08-22_11h14.48.862,Slot Machine Game,2023.1.3,Win32,60.97560976,,,,,,,,,,,,,,,,,,,,,,,,,,,110,,,,,,,,,,,,,,,,,,5,5,,,456.0446,1,left,0.5851,456.6606,1.5,0.3,"[1,2,3]",0.59709703,stimuli/card_100_transparent.png,100,1,0,1,0,1,,,,,,,,,,
,,,,614918a6dcc9c2fb0bde6331,B,2024-08-22_11h14.48.862,Slot Machine Game,2023.1.3,Win32,60.97560976,,,,,,,,,,,,,,,,,,,,,,,,,,,210,,,,,,,,,,,,,,,,,,5,5,,,458.4588,2,left,0.8072,459.2912,0.5,0.3,"[1,2,3]",0.265644142,stimuli/card_100_transparent.png,100,2,0,2,0,1,,,,,,,,,,
,,,,614918a6dcc9c2fb0bde6331,B,2024-08-22_11h14.48.862,Slot Machine Game,2023.1.3,Win32,60.97560976,,,,,,,,,,,,,,,,,,,,,,,,,,,210,,,,,,,,,,,,,,,,,,5,5,,,460.0905,3,right,0.6169,460.7399,0.5,0.3,"[1,2,3]",0.92296678,stimuli/card_0_transparent.png,0,3,0,3,0,1,,,,,,,,,,
,,,,614918a6dcc9c2fb0bde6331,B,2024-08-22_11h14.48.862,Slot Machine Game,2023.1.3,Win32,60.97560976,,,,,,,,,,,,,,,,,,,,,,,,,,,310,,,,,,,,,,,,,,,,,,5,5,,,461.5388,4,left,0.7101,462.2731,1,0.3,"[1,2,3]",0.50474154,stimuli/card_100_transparent.png,100,4,0,4,0,1,,,,,,,,,,
,,,,614918a6dcc9c2fb0bde6331,B,2024-08-22_11h14.48.862,Slot Machine Game,2023.1.3,Win32,60.97560976,,,,,,,,,,,,,,,,,,,,,,,,,,,310,,,,,,,,,,,,,,,,,,5,5,,,463.5702,5,left,0.9066,464.5028,1.5,0.3,"[3,1,2]",0.947691946,stimuli/card_0_transparent.png,0,5,0,5,0,1,,,,,,,,,,
,,,,614918a6dcc9c2fb0bde6331,B,2024-08-22_11h14.48.862,Slot Machine Game,2023.1.3,Win32,60.97560976,,,,,,,,,,,,,,,,,,,,,,,,,,,310,,,,,,,,,,,,,,,,,,5,5,,,466.3011,6,up,1.7012,468.0327,1.5,0.3,"[3,1,2]",0.014421479,stimuli/card_0_transparent.png,0,6,0,6,0,1,,,,,,,,,,
,,,,614918a6dcc9c2fb0bde6331,B,2024-08-22_11h14.48.862,Slot Machine Game,2023.1.3,Win32,60.97560976,,,,,,,,,,,,,,,,,,,,,,,,,,,310,,,,,,,,,,,,,,,,,,5,5,,,469.8309,7,up,0.6841,470.5472,0.5,0.3,"[3,1,2]",0.049753683,stimuli/card_0_transparent.png,0,7,0,7,0,1,,,,,,,,,,
,,,,614918a6dcc9c2fb0bde6331,B,2024-08-22_11h14.48.862,Slot Machine Game,2023.1.3,Win32,60.97560976,,,,,,,,,,,,,,,,,,,,,,,,,,,310,,,,,,,,,,,,,,,,,,5,5,,,471.3458,8,left,0.6835,472.0622,1.5,0.3,"[3,1,2]",0.414608912,stimuli/card_0_transparent.png,0,8,0,8,0,1,,,,,,,,,,
,,,,614918a6dcc9c2fb0bde6331,B,2024-08-22_11h14.48.862,Slot Machine Game,2023.1.3,Win32,60.97560976,,,,,,,,,,,,,,,,,,,,,,,,,,,320,,,,,,,,,,,,,,,,,,5,5,,,473.8602,9,right,2.0973,475.9752,0.5,0.3,"[3,1,2]",0.599318968,stimuli/card_10_transparent.png,10,9,0,9,0,1,,,,,,,,,,
,,,,614918a6dcc9c2fb0bde6331,B,2024-08-22_11h14.48.862,Slot Machine Game,2023.1.3,Win32,60.97560976,,,,,,,,,,,,,,,,,,,,,,,,,,,420,,,,,,,,,,,,,,,,,,5,5,,,476.7744,10,up,0.6684,477.4737,0.5,0.3,"[3,1,2]",0.687260533,stimuli/card_100_transparent.png,100,10,0,10,0,1,,,,,,,,,,
,,,,614918a6dcc9c2fb0bde6331,B,2024-08-22_11h14.48.862,Slot Machine Game,2023.1.3,Win32,60.97560976,,,,,,,,,,,,,,,,,,,,,,,,,,,520,,,,,,,,,,,,,,,,,,5,5,,,478.2723,11,up,0.8666,479.1718,1,0.3,"[3,1,2]",0.2660926,stimuli/card_100_transparent.png,100,11,0,11,0,1,,,,,,,,,,
,,,,614918a6dcc9c2fb0bde6331,B,2024-08-22_11h14.48.862,Slot Machine Game,2023.1.3,Win32,60.97560976,,,,,,,,,,,,,,,,,,,,,,,,,,,530,,,,,,,,,,,,,,,,,,5,5,,,480.4703,12,up,0.6535,481.1529,1.5,0.3,"[3,1,2]",0.111271696,stimuli/card_10_transparent.png,10,12,0,12,0,1,,,,,,,,,,
,,,,614918a6dcc9c2fb0bde6331,B,2024-08-22_11h14.48.862,Slot Machine Game,2023.1.3,Win32,60.97560976,,,,,,,,,,,,,,,,,,,,,,,,,,,540,,,,,,,,,,,,,,,,,,5,5,,,482.9512,13,left,1.3903,484.3669,0.5,0.3,"[3,1,2]",0.154757867,stimuli/card_10_transparent.png,10,13,0,13,0,1,,,,,,,,,,
,,,,614918a6dcc9c2fb0bde6331,B,2024-08-22_11h14.48.862,Slot Machine Game,2023.1.3,Win32,60.97560976,,,,,,,,,,,,,,,,,,,,,,,,,,,550,,,,,,,,,,,,,,,,,,5,5,,,485.166,14,right,0.8548,486.0485,1.5,0.3,"[3,1,2]",0.823286459,stimuli/card_10_transparent.png,10,14,0,14,0,1,,,,,,,,,,
,,,,614918a6dcc9c2fb0bde6331,B,2024-08-22_11h14.48.862,Slot Machine Game,2023.1.3,Win32,60.97560976,,,,,,,,,,,,,,,,,,,,,,,,,,,,,,,,,,487.8464,,,,,,,,,,,,,,,,,,,,,,,,,,,,,,,"[740,650,750,550,550]",4,0,4,0,1,,,,
,,,,614918a6dcc9c2fb0bde6331,B,2024-08-22_11h14.48.862,Slot Machine Game,2023.1.3,Win32,60.97560976,,,,,,,,,,,,,,,,,,,,,,,,,,,0,,,,,,,,,,,,,,,,,,6,6,"[4,10,15]","[[2,3,1],[1,3,2],[3,2,1]]",492.8577,0,up,0.7014,493.5909,0.5,0.3,"[2,3,1]",0.478646946,stimuli/card_0_transparent.png,0,0,0,0,0,1,,,,,,,,,,
,,,,614918a6dcc9c2fb0bde6331,B,2024-08-22_11h14.48.862,Slot Machine Game,2023.1.3,Win32,60.97560976,,,,,,,,,,,,,,,,,,,,,,,,,,,10,,,,,,,,,,,,,,,,,,6,6,,,494.39,1,left,0.7003,495.1229,0.5,0.3,"[2,3,1]",0.684989929,stimuli/card_10_transparent.png,10,1,0,1,0,1,,,,,,,,,,
,,,,614918a6dcc9c2fb0bde6331,B,2024-08-22_11h14.48.862,Slot Machine Game,2023.1.3,Win32,60.97560976,,,,,,,,,,,,,,,,,,,,,,,,,,,110,,,,,,,,,,,,,,,,,,6,6,,,495.9217,2,right,0.9014,496.8563,0.5,0.3,"[2,3,1]",0.996839203,stimuli/card_100_transparent.png,100,2,0,2,0,1,,,,,,,,,,
,,,,614918a6dcc9c2fb0bde6331,B,2024-08-22_11h14.48.862,Slot Machine Game,2023.1.3,Win32,60.97560976,,,,,,,,,,,,,,,,,,,,,,,,,,,210,,,,,,,,,,,,,,,,,,6,6,,,497.6533,3,right,0.9394,498.6204,1.5,0.3,"[2,3,1]",0.492130195,stimuli/card_100_transparent.png,100,3,0,3,0,1,,,,,,,,,,
,,,,614918a6dcc9c2fb0bde6331,B,2024-08-22_11h14.48.862,Slot Machine Game,2023.1.3,Win32,60.97560976,,,,,,,,,,,,,,,,,,,,,,,,,,,220,,,,,,,,,,,,,,,,,,6,6,,,500.4174,4,right,0.6005,501.0506,0.5,0.3,"[1,3,2]",0.912482484,stimuli/card_10_transparent.png,10,4,0,4,0,1,,,,,,,,,,
,,,,614918a6dcc9c2fb0bde6331,B,2024-08-22_11h14.48.862,Slot Machine Game,2023.1.3,Win32,60.97560976,,,,,,,,,,,,,,,,,,,,,,,,,,,230,,,,,,,,,,,,,,,,,,6,6,,,501.8489,5,up,0.7185,502.5991,1.5,0.3,"[1,3,2]",0.185132285,stimuli/card_10_transparent.png,10,5,0,5,0,1,,,,,,,,,,
,,,,614918a6dcc9c2fb0bde6331,B,2024-08-22_11h14.48.862,Slot Machine Game,2023.1.3,Win32,60.97560976,,,,,,,,,,,,,,,,,,,,,,,,,,,330,,,,,,,,,,,,,,,,,,6,6,,,504.3967,6,left,0.5864,505.0125,1.5,0.3,"[1,3,2]",0.253665274,stimuli/card_100_transparent.png,100,6,0,6,0,1,,,,,,,,,,
,,,,614918a6dcc9c2fb0bde6331,B,2024-08-22_11h14.48.862,Slot Machine Game,2023.1.3,Win32,60.97560976,,,,,,,,,,,,,,,,,,,,,,,,,,,340,,,,,,,,,,,,,,,,,,6,6,,,506.81,7,left,0.6833,507.5261,0.5,0.3,"[1,3,2]",0.115121406,stimuli/card_10_transparent.png,10,7,0,7,0,1,,,,,,,,,,
,,,,614918a6dcc9c2fb0bde6331,B,2024-08-22_11h14.48.862,Slot Machine Game,2023.1.3,Win32,60.97560976,,,,,,,,,,,,,,,,,,,,,,,,,,,340,,,,,,,,,,,,,,,,,,6,6,,,508.3252,8,up,0.7724,509.1246,0.5,0.3,"[1,3,2]",0.61623295,stimuli/card_0_transparent.png,0,8,0,8,0,1,,,,,,,,,,
,,,,614918a6dcc9c2fb0bde6331,B,2024-08-22_11h14.48.862,Slot Machine Game,2023.1.3,Win32,60.97560976,,,,,,,,,,,,,,,,,,,,,,,,,,,350,,,,,,,,,,,,,,,,,,6,6,,,509.9236,9,right,0.6823,510.6236,1,0.3,"[1,3,2]",0.594232752,stimuli/card_10_transparent.png,10,9,0,9,0,1,,,,,,,,,,
,,,,614918a6dcc9c2fb0bde6331,B,2024-08-22_11h14.48.862,Slot Machine Game,2023.1.3,Win32,60.97560976,,,,,,,,,,,,,,,,,,,,,,,,,,,450,,,,,,,,,,,,,,,,,,6,6,,,511.9213,10,right,0.8833,512.838,1.5,0.3,"[3,2,1]",0.577995749,stimuli/card_100_transparent.png,100,10,0,10,0,1,,,,,,,,,,
,,,,614918a6dcc9c2fb0bde6331,B,2024-08-22_11h14.48.862,Slot Machine Game,2023.1.3,Win32,60.97560976,,,,,,,,,,,,,,,,,,,,,,,,,,,460,,,,,,,,,,,,,,,,,,6,6,,,514.6356,11,right,0.5334,515.2022,0.5,0.3,"[3,2,1]",0.130871967,stimuli/card_10_transparent.png,10,11,0,11,0,1,,,,,,,,,,
,,,,614918a6dcc9c2fb0bde6331,B,2024-08-22_11h14.48.862,Slot Machine Game,2023.1.3,Win32,60.97560976,,,,,,,,,,,,,,,,,,,,,,,,,,,470,,,,,,,,,,,,,,,,,,6,6,,,516.0016,12,up,0.6507,516.6845,1.5,0.3,"[3,2,1]",0.873935262,stimuli/card_10_transparent.png,10,12,0,12,0,1,,,,,,,,,,
,,,,614918a6dcc9c2fb0bde6331,B,2024-08-22_11h14.48.862,Slot Machine Game,2023.1.3,Win32,60.97560976,,,,,,,,,,,,,,,,,,,,,,,,,,,570,,,,,,,,,,,,,,,,,,6,6,,,518.4834,13,left,1.2565,519.7677,1.5,0.3,"[3,2,1]",0.01778319,stimuli/card_100_transparent.png,100,13,0,13,0,1,,,,,,,,,,
,,,,614918a6dcc9c2fb0bde6331,B,2024-08-22_11h14.48.862,Slot Machine Game,2023.1.3,Win32,60.97560976,,,,,,,,,,,,,,,,,,,,,,,,,,,580,,,,,,,,,,,,,,,,,,6,6,,,521.5652,14,left,0.7196,522.3149,1,0.3,"[3,2,1]",0.130892716,stimuli/card_10_transparent.png,10,14,0,14,0,1,,,,,,,,,,
,,,,614918a6dcc9c2fb0bde6331,B,2024-08-22_11h14.48.862,Slot Machine Game,2023.1.3,Win32,60.97560976,,,,,,,,,,,,,,,,,,,,,,,,,,,,,,,,,,523.6132,,,,,,,,,,,,,,,,,,,,,,,,,,,,,,,"[740,650,750,550,550,580]",5,0,5,0,1,,,,
,,,,614918a6dcc9c2fb0bde6331,B,2024-08-22_11h14.48.862,Slot Machine Game,2023.1.3,Win32,60.97560976,,,,,,,,,,,,,,,,,,,,,,,,,,,0,,,,,,,,,,,,,,,,,,7,7,"[9,15]","[[1,3,2],[2,3,1]]",528.6197,0,up,0.7279,529.3571,1,0.3,"[1,3,2]",0.435035567,stimuli/card_0_transparent.png,0,0,0,0,0,1,,,,,,,,,,
,,,,614918a6dcc9c2fb0bde6331,B,2024-08-22_11h14.48.862,Slot Machine Game,2023.1.3,Win32,60.97560976,,,,,,,,,,,,,,,,,,,,,,,,,,,100,,,,,,,,,,,,,,,,,,7,7,,,530.6541,1,left,0.6194,531.3036,1.5,0.3,"[1,3,2]",0.434799423,stimuli/card_100_transparent.png,100,1,0,1,0,1,,,,,,,,,,
,,,,614918a6dcc9c2fb0bde6331,B,2024-08-22_11h14.48.862,Slot Machine Game,2023.1.3,Win32,60.97560976,,,,,,,,,,,,,,,,,,,,,,,,,,,200,,,,,,,,,,,,,,,,,,7,7,,,533.1014,2,left,0.7219,533.8511,1.5,0.3,"[1,3,2]",0.949423129,stimuli/card_100_transparent.png,100,2,0,2,0,1,,,,,,,,,,
,,,,614918a6dcc9c2fb0bde6331,B,2024-08-22_11h14.48.862,Slot Machine Game,2023.1.3,Win32,60.97560976,,,,,,,,,,,,,,,,,,,,,,,,,,,300,,,,,,,,,,,,,,,,,,7,7,,,535.6492,3,left,0.5507,536.2324,0.5,0.3,"[1,3,2]",0.669079823,stimuli/card_100_transparent.png,100,3,0,3,0,1,,,,,,,,,,
,,,,614918a6dcc9c2fb0bde6331,B,2024-08-22_11h14.48.862,Slot Machine Game,2023.1.3,Win32,60.97560976,,,,,,,,,,,,,,,,,,,,,,,,,,,400,,,,,,,,,,,,,,,,,,7,7,,,537.0309,4,left,0.9837,538.0469,0.5,0.3,"[1,3,2]",0.589280154,stimuli/card_100_transparent.png,100,4,0,4,0,1,,,,,,,,,,
,,,,614918a6dcc9c2fb0bde6331,B,2024-08-22_11h14.48.862,Slot Machine Game,2023.1.3,Win32,60.97560976,,,,,,,,,,,,,,,,,,,,,,,,,,,500,,,,,,,,,,,,,,,,,,7,7,,,538.8461,5,left,0.96,539.8301,0.5,0.3,"[1,3,2]",0.813506768,stimuli/card_100_transparent.png,100,5,0,5,0,1,,,,,,,,,,
,,,,614918a6dcc9c2fb0bde6331,B,2024-08-22_11h14.48.862,Slot Machine Game,2023.1.3,Win32,60.97560976,,,,,,,,,,,,,,,,,,,,,,,,,,,600,,,,,,,,,,,,,,,,,,7,7,,,540.6277,6,left,1.0819,541.7266,1,0.3,"[1,3,2]",0.509141786,stimuli/card_100_transparent.png,100,6,0,6,0,1,,,,,,,,,,
,,,,614918a6dcc9c2fb0bde6331,B,2024-08-22_11h14.48.862,Slot Machine Game,2023.1.3,Win32,60.97560976,,,,,,,,,,,,,,,,,,,,,,,,,,,700,,,,,,,,,,,,,,,,,,7,7,,,543.0253,7,left,0.6606,543.7097,1.5,0.3,"[1,3,2]",0.828842157,stimuli/card_100_transparent.png,100,7,0,7,0,1,,,,,,,,,,
,,,,614918a6dcc9c2fb0bde6331,B,2024-08-22_11h14.48.862,Slot Machine Game,2023.1.3,Win32,60.97560976,,,,,,,,,,,,,,,,,,,,,,,,,,,800,,,,,,,,,,,,,,,,,,7,7,,,545.5059,8,left,0.6042,546.1389,1.5,0.3,"[1,3,2]",0.446314248,stimuli/card_100_transparent.png,100,8,0,8,0,1,,,,,,,,,,
,,,,614918a6dcc9c2fb0bde6331,B,2024-08-22_11h14.48.862,Slot Machine Game,2023.1.3,Win32,60.97560976,,,,,,,,,,,,,,,,,,,,,,,,,,,810,,,,,,,,,,,,,,,,,,7,7,,,547.9369,9,left,0.5095,548.4708,1.5,0.3,"[2,3,1]",0.500629572,stimuli/card_10_transparent.png,10,9,0,9,0,1,,,,,,,,,,
,,,,614918a6dcc9c2fb0bde6331,B,2024-08-22_11h14.48.862,Slot Machine Game,2023.1.3,Win32,60.97560976,,,,,,,,,,,,,,,,,,,,,,,,,,,810,,,,,,,,,,,,,,,,,,7,7,,,550.268,10,up,1.6762,551.9682,1.5,0.3,"[2,3,1]",0.524704915,stimuli/card_0_transparent.png,0,10,0,10,0,1,,,,,,,,,,
,,,,614918a6dcc9c2fb0bde6331,B,2024-08-22_11h14.48.862,Slot Machine Game,2023.1.3,Win32,60.97560976,,,,,,,,,,,,,,,,,,,,,,,,,,,910,,,,,,,,,,,,,,,,,,7,7,,,553.7646,11,right,0.5848,554.3813,1.5,0.3,"[2,3,1]",0.903524485,stimuli/card_100_transparent.png,100,11,0,11,0,1,,,,,,,,,,
,,,,614918a6dcc9c2fb0bde6331,B,2024-08-22_11h14.48.862,Slot Machine Game,2023.1.3,Win32,60.97560976,,,,,,,,,,,,,,,,,,,,,,,,,,,1010,,,,,,,,,,,,,,,,,,7,7,,,556.1786,12,right,0.5675,556.7777,1,0.3,"[2,3,1]",0.374171748,stimuli/card_100_transparent.png,100,12,0,12,0,1,,,,,,,,,,
,,,,614918a6dcc9c2fb0bde6331,B,2024-08-22_11h14.48.862,Slot Machine Game,2023.1.3,Win32,60.97560976,,,,,,,,,,,,,,,,,,,,,,,,,,,1110,,,,,,,,,,,,,,,,,,7,7,,,558.077,13,right,0.5667,558.6764,1,0.3,"[2,3,1]",0.44496351,stimuli/card_100_transparent.png,100,13,0,13,0,1,,,,,,,,,,
,,,,614918a6dcc9c2fb0bde6331,B,2024-08-22_11h14.48.862,Slot Machine Game,2023.1.3,Win32,60.97560976,,,,,,,,,,,,,,,,,,,,,,,,,,,1210,,,,,,,,,,,,,,,,,,7,7,,,559.9749,14,right,0.7226,560.7246,0.5,0.3,"[2,3,1]",0.638266184,stimuli/card_100_transparent.png,100,14,0,14,0,1,,,,,,,,,,
,,,,614918a6dcc9c2fb0bde6331,B,2024-08-22_11h14.48.862,Slot Machine Game,2023.1.3,Win32,60.97560976,,,,,,,,,,,,,,,,,,,,,,,,,,,,,,,,,,561.5236,,,,,,,,,,,,,,,,,,,,,,,,,,,,,,,"[740,650,750,550,550,580,1210]",6,0,6,0,1,,,,
,,,,614918a6dcc9c2fb0bde6331,B,2024-08-22_11h14.48.862,Slot Machine Game,2023.1.3,Win32,60.97560976,,,,,,,,,,,,,,,,,,,,,,,,,,,10,,,,,,,,,,,,,,,,,,8,8,"[11,15]","[[2,1,3],[1,2,3]]",566.5312,0,up,0.7392,567.2847,1.5,0.3,"[2,1,3]",0.171357768,stimuli/card_10_transparent.png,10,0,0,0,0,1,,,,,,,,,,
,,,,614918a6dcc9c2fb0bde6331,B,2024-08-22_11h14.48.862,Slot Machine Game,2023.1.3,Win32,60.97560976,,,,,,,,,,,,,,,,,,,,,,,,,,,20,,,,,,,,,,,,,,,,,,8,8,,,569.0826,1,left,1.517,570.6314,1,0.3,"[2,1,3]",0.422758363,stimuli/card_10_transparent.png,10,1,0,1,0,1,,,,,,,,,,
,,,,614918a6dcc9c2fb0bde6331,B,2024-08-22_11h14.48.862,Slot Machine Game,2023.1.3,Win32,60.97560976,,,,,,,,,,,,,,,,,,,,,,,,,,,20,,,,,,,,,,,,,,,,,,8,8,,,571.9295,2,right,0.6764,572.6305,1,0.3,"[2,1,3]",0.332728355,stimuli/card_0_transparent.png,0,2,0,2,0,1,,,,,,,,,,
,,,,614918a6dcc9c2fb0bde6331,B,2024-08-22_11h14.48.862,Slot Machine Game,2023.1.3,Win32,60.97560976,,,,,,,,,,,,,,,,,,,,,,,,,,,20,,,,,,,,,,,,,,,,,,8,8,,,573.9279,3,up,1.4432,575.3952,1,0.3,"[2,1,3]",0.005296253,stimuli/card_0_transparent.png,0,3,0,3,0,1,,,,,,,,,,
,,,,614918a6dcc9c2fb0bde6331,B,2024-08-22_11h14.48.862,Slot Machine Game,2023.1.3,Win32,60.97560976,,,,,,,,,,,,,,,,,,,,,,,,,,,30,,,,,,,,,,,,,,,,,,8,8,,,576.6917,4,left,1.1169,577.8404,1,0.3,"[2,1,3]",0.637282634,stimuli/card_10_transparent.png,10,4,0,4,0,1,,,,,,,,,,
,,,,614918a6dcc9c2fb0bde6331,B,2024-08-22_11h14.48.862,Slot Machine Game,2023.1.3,Win32,60.97560976,,,,,,,,,,,,,,,,,,,,,,,,,,,30,,,,,,,,,,,,,,,,,,8,8,,,579.1396,5,left,0.9718,580.1377,1,0.3,"[2,1,3]",0.050082688,stimuli/card_0_transparent.png,0,5,0,5,0,1,,,,,,,,,,
,,,,614918a6dcc9c2fb0bde6331,B,2024-08-22_11h14.48.862,Slot Machine Game,2023.1.3,Win32,60.97560976,,,,,,,,,,,,,,,,,,,,,,,,,,,30,,,,,,,,,,,,,,,,,,8,8,,,581.4389,6,right,0.6605,582.1259,1.5,0.3,"[2,1,3]",0.552957099,stimuli/card_0_transparent.png,0,6,0,6,0,1,,,,,,,,,,
,,,,614918a6dcc9c2fb0bde6331,B,2024-08-22_11h14.48.862,Slot Machine Game,2023.1.3,Win32,60.97560976,,,,,,,,,,,,,,,,,,,,,,,,,,,40,,,,,,,,,,,,,,,,,,8,8,,,583.9199,7,up,0.576,584.5217,1.5,0.3,"[2,1,3]",0.114406511,stimuli/card_10_transparent.png,10,7,0,7,0,1,,,,,,,,,,
,,,,614918a6dcc9c2fb0bde6331,B,2024-08-22_11h14.48.862,Slot Machine Game,2023.1.3,Win32,60.97560976,,,,,,,,,,,,,,,,,,,,,,,,,,,40,,,,,,,,,,,,,,,,,,8,8,,,586.3144,8,right,1,587.3471,1,0.3,"[2,1,3]",0.645375628,stimuli/card_0_transparent.png,0,8,0,8,0,1,,,,,,,,,,
,,,,614918a6dcc9c2fb0bde6331,B,2024-08-22_11h14.48.862,Slot Machine Game,2023.1.3,Win32,60.97560976,,,,,,,,,,,,,,,,,,,,,,,,,,,50,,,,,,,,,,,,,,,,,,8,8,,,588.6451,9,left,0.6692,589.3455,0.5,0.3,"[2,1,3]",0.598514333,stimuli/card_10_transparent.png,10,9,0,9,0,1,,,,,,,,,,
,,,,614918a6dcc9c2fb0bde6331,B,2024-08-22_11h14.48.862,Slot Machine Game,2023.1.3,Win32,60.97560976,,,,,,,,,,,,,,,,,,,,,,,,,,,50,,,,,,,,,,,,,,,,,,8,8,,,590.1442,10,left,1.0178,591.1937,1.5,0.3,"[2,1,3]",0.043029363,stimuli/card_0_transparent.png,0,10,0,10,0,1,,,,,,,,,,
,,,,614918a6dcc9c2fb0bde6331,B,2024-08-22_11h14.48.862,Slot Machine Game,2023.1.3,Win32,60.97560976,,,,,,,,,,,,,,,,,,,,,,,,,,,60,,,,,,,,,,,,,,,,,,8,8,,,592.9913,11,up,0.7823,593.8079,1,0.3,"[1,2,3]",0.991840282,stimuli/card_10_transparent.png,10,11,0,11,0,1,,,,,,,,,,
,,,,614918a6dcc9c2fb0bde6331,B,2024-08-22_11h14.48.862,Slot Machine Game,2023.1.3,Win32,60.97560976,,,,,,,,,,,,,,,,,,,,,,,,,,,60,,,,,,,,,,,,,,,,,,8,8,,,595.1059,12,right,0.6711,595.8049,1,0.3,"[1,2,3]",0.735206826,stimuli/card_0_transparent.png,0,12,0,12,0,1,,,,,,,,,,
,,,,614918a6dcc9c2fb0bde6331,B,2024-08-22_11h14.48.862,Slot Machine Game,2023.1.3,Win32,60.97560976,,,,,,,,,,,,,,,,,,,,,,,,,,,70,,,,,,,,,,,,,,,,,,8,8,,,597.1036,13,up,0.7838,597.9207,1,0.3,"[1,2,3]",0.206901555,stimuli/card_10_transparent.png,10,13,0,13,0,1,,,,,,,,,,
,,,,614918a6dcc9c2fb0bde6331,B,2024-08-22_11h14.48.862,Slot Machine Game,2023.1.3,Win32,60.97560976,,,,,,,,,,,,,,,,,,,,,,,,,,,170,,,,,,,,,,,,,,,,,,8,8,,,599.2187,14,left,0.6023,599.8512,1.5,0.3,"[1,2,3]",0.209561204,stimuli/card_100_transparent.png,100,14,0,14,0,1,,,,,,,,,,
,,,,614918a6dcc9c2fb0bde6331,B,2024-08-22_11h14.48.862,Slot Machine Game,2023.1.3,Win32,60.97560976,,,,,,,,,,,,,,,,,,,,,,,,,,,,,,,,,,601.6494,,,,,,,,,,,,,,,,,,,,,,,,,,,,,,,"[740,650,750,550,550,580,1210,170]",7,0,7,0,1,,,,
,,,,614918a6dcc9c2fb0bde6331,B,2024-08-22_11h14.48.862,Slot Machine Game,2023.1.3,Win32,60.97560976,,,,,,,,,,,,,,,,,,,,,,,,,,,10,,,,,,,,,,,,,,,,,,9,9,"[8,15]","[[3,2,1],[3,1,2]]",606.6588,0,up,0.7835,607.4682,1.5,0.3,"[3,2,1]",0.850140496,stimuli/card_10_transparent.png,10,0,0,0,0,1,,,,,,,,,,
,,,,614918a6dcc9c2fb0bde6331,B,2024-08-22_11h14.48.862,Slot Machine Game,2023.1.3,Win32,60.97560976,,,,,,,,,,,,,,,,,,,,,,,,,,,20,,,,,,,,,,,,,,,,,,9,9,,,609.2493,1,left,1.034,610.3111,1,0.3,"[3,2,1]",0.142178838,stimuli/card_10_transparent.png,10,1,0,1,0,1,,,,,,,,,,
,,,,614918a6dcc9c2fb0bde6331,B,2024-08-22_11h14.48.862,Slot Machine Game,2023.1.3,Win32,60.97560976,,,,,,,,,,,,,,,,,,,,,,,,,,,120,,,,,,,,,,,,,,,,,,9,9,,,611.6097,2,right,1.2508,612.8965,0.5,0.3,"[3,2,1]",0.743295139,stimuli/card_100_transparent.png,100,2,0,2,0,1,,,,,,,,,,
,,,,614918a6dcc9c2fb0bde6331,B,2024-08-22_11h14.48.862,Slot Machine Game,2023.1.3,Win32,60.97560976,,,,,,,,,,,,,,,,,,,,,,,,,,,220,,,,,,,,,,,,,,,,,,9,9,,,613.6949,3,right,1.1335,614.8611,1.5,0.3,"[3,2,1]",0.581874712,stimuli/card_100_transparent.png,100,3,0,3,0,1,,,,,,,,,,
,,,,614918a6dcc9c2fb0bde6331,B,2024-08-22_11h14.48.862,Slot Machine Game,2023.1.3,Win32,60.97560976,,,,,,,,,,,,,,,,,,,,,,,,,,,320,,,,,,,,,,,,,,,,,,9,9,,,616.6401,4,right,0.7032,617.3733,1.5,0.3,"[3,2,1]",0.401624351,stimuli/card_100_transparent.png,100,4,0,4,0,1,,,,,,,,,,
,,,,614918a6dcc9c2fb0bde6331,B,2024-08-22_11h14.48.862,Slot Machine Game,2023.1.3,Win32,60.97560976,,,,,,,,,,,,,,,,,,,,,,,,,,,330,,,,,,,,,,,,,,,,,,9,9,,,619.1729,5,up,1.5315,620.7371,1,0.3,"[3,2,1]",0.58212273,stimuli/card_10_transparent.png,10,5,0,5,0,1,,,,,,,,,,
,,,,614918a6dcc9c2fb0bde6331,B,2024-08-22_11h14.48.862,Slot Machine Game,2023.1.3,Win32,60.97560976,,,,,,,,,,,,,,,,,,,,,,,,,,,430,,,,,,,,,,,,,,,,,,9,9,,,622.0319,6,right,0.7513,622.7995,0.5,0.3,"[3,2,1]",0.283525805,stimuli/card_100_transparent.png,100,6,0,6,0,1,,,,,,,,,,
,,,,614918a6dcc9c2fb0bde6331,B,2024-08-22_11h14.48.862,Slot Machine Game,2023.1.3,Win32,60.97560976,,,,,,,,,,,,,,,,,,,,,,,,,,,530,,,,,,,,,,,,,,,,,,9,9,,,623.5975,7,right,1.1834,624.8135,0.5,0.3,"[3,2,1]",0.808717202,stimuli/card_100_transparent.png,100,7,0,7,0,1,,,,,,,,,,
,,,,614918a6dcc9c2fb0bde6331,B,2024-08-22_11h14.48.862,Slot Machine Game,2023.1.3,Win32,60.97560976,,,,,,,,,,,,,,,,,,,,,,,,,,,530,,,,,,,,,,,,,,,,,,9,9,,,625.6165,8,right,1.0714,626.7161,1,0.3,"[3,1,2]",0.063875493,stimuli/card_0_transparent.png,0,8,0,8,0,1,,,,,,,,,,
,,,,614918a6dcc9c2fb0bde6331,B,2024-08-22_11h14.48.862,Slot Machine Game,2023.1.3,Win32,60.97560976,,,,,,,,,,,,,,,,,,,,,,,,,,,530,,,,,,,,,,,,,,,,,,9,9,,,628.0098,9,left,0.7838,628.8095,0.5,0.3,"[3,1,2]",0.909091398,stimuli/card_0_transparent.png,0,9,0,9,0,1,,,,,,,,,,
,,,,614918a6dcc9c2fb0bde6331,B,2024-08-22_11h14.48.862,Slot Machine Game,2023.1.3,Win32,60.97560976,,,,,,,,,,,,,,,,,,,,,,,,,,,530,,,,,,,,,,,,,,,,,,9,9,,,629.6103,10,left,1.4458,631.0908,0.5,0.3,"[3,1,2]",0.710371979,stimuli/card_0_transparent.png,0,10,0,10,0,1,,,,,,,,,,
,,,,614918a6dcc9c2fb0bde6331,B,2024-08-22_11h14.48.862,Slot Machine Game,2023.1.3,Win32,60.97560976,,,,,,,,,,,,,,,,,,,,,,,,,,,630,,,,,,,,,,,,,,,,,,9,9,,,631.8891,11,up,0.7178,632.6271,1.5,0.3,"[3,1,2]",0.562755936,stimuli/card_100_transparent.png,100,11,0,11,0,1,,,,,,,,,,
,,,,614918a6dcc9c2fb0bde6331,B,2024-08-22_11h14.48.862,Slot Machine Game,2023.1.3,Win32,60.97560976,,,,,,,,,,,,,,,,,,,,,,,,,,,730,,,,,,,,,,,,,,,,,,9,9,,,634.4243,12,up,1.5684,636.0214,1,0.3,"[3,1,2]",0.543931416,stimuli/card_100_transparent.png,100,12,0,12,0,1,,,,,,,,,,
,,,,614918a6dcc9c2fb0bde6331,B,2024-08-22_11h14.48.862,Slot Machine Game,2023.1.3,Win32,60.97560976,,,,,,,,,,,,,,,,,,,,,,,,,,,730,,,,,,,,,,,,,,,,,,9,9,,,637.3197,13,up,0.8472,638.2009,1,0.3,"[3,1,2]",0.040995223,stimuli/card_0_transparent.png,0,13,0,13,0,1,,,,,,,,,,
,,,,614918a6dcc9c2fb0bde6331,B,2024-08-22_11h14.48.862,Slot Machine Game,2023.1.3,Win32,60.97560976,,,,,,,,,,,,,,,,,,,,,,,,,,,730,,,,,,,,,,,,,,,,,,9,9,,,639.5005,14,left,1.4021,640.9331,1,0.3,"[3,1,2]",0.538217884,stimuli/card_0_transparent.png,0,14,0,14,0,1,,,,,,,,,,
,,,,614918a6dcc9c2fb0bde6331,B,2024-08-22_11h14.48.862,Slot Machine Game,2023.1.3,Win32,60.97560976,,,,,,,,,,,,,,,,,,,,,,,,,,,,,,,,,,642.229,,,,,,,,,,,,,,,,,,,,,,,,,,,,,,,"[740,650,750,550,550,580,1210,170,730]",8,0,8,0,1,,,,
,,,,614918a6dcc9c2fb0bde6331,B,2024-08-22_11h14.48.862,Slot Machine Game,2023.1.3,Win32,60.97560976,,,,,,,,,,,,,,,,,,,,,,,,,,,10,,,,,,,,,,,,,,,,,,10,10,"[10,15]","[[3,1,2],[1,3,2]]",647.2414,0,right,0.6347,647.9073,1.5,0.3,"[3,1,2]",0.445046928,stimuli/card_10_transparent.png,10,0,0,0,0,1,,,,,,,,,,
,,,,614918a6dcc9c2fb0bde6331,B,2024-08-22_11h14.48.862,Slot Machine Game,2023.1.3,Win32,60.97560976,,,,,,,,,,,,,,,,,,,,,,,,,,,20,,,,,,,,,,,,,,,,,,10,10,,,649.7047,1,right,0.6414,650.3732,1,0.3,"[3,1,2]",0.254442651,stimuli/card_10_transparent.png,10,1,0,1,0,1,,,,,,,,,,
,,,,614918a6dcc9c2fb0bde6331,B,2024-08-22_11h14.48.862,Slot Machine Game,2023.1.3,Win32,60.97560976,,,,,,,,,,,,,,,,,,,,,,,,,,,20,,,,,,,,,,,,,,,,,,10,10,,,651.667,2,left,0.6985,652.3997,0.5,0.3,"[3,1,2]",0.481938741,stimuli/card_0_transparent.png,0,2,0,2,0,1,,,,,,,,,,
,,,,614918a6dcc9c2fb0bde6331,B,2024-08-22_11h14.48.862,Slot Machine Game,2023.1.3,Win32,60.97560976,,,,,,,,,,,,,,,,,,,,,,,,,,,120,,,,,,,,,,,,,,,,,,10,10,,,653.1981,3,up,0.6134,653.8478,0.5,0.3,"[3,1,2]",0.293730998,stimuli/card_100_transparent.png,100,3,0,3,0,1,,,,,,,,,,
,,,,614918a6dcc9c2fb0bde6331,B,2024-08-22_11h14.48.862,Slot Machine Game,2023.1.3,Win32,60.97560976,,,,,,,,,,,,,,,,,,,,,,,,,,,220,,,,,,,,,,,,,,,,,,10,10,,,654.6472,4,up,0.9989,655.6631,1.5,0.3,"[3,1,2]",0.958916828,stimuli/card_100_transparent.png,100,4,0,4,0,1,,,,,,,,,,
,,,,614918a6dcc9c2fb0bde6331,B,2024-08-22_11h14.48.862,Slot Machine Game,2023.1.3,Win32,60.97560976,,,,,,,,,,,,,,,,,,,,,,,,,,,230,,,,,,,,,,,,,,,,,,10,10,,,657.4608,5,up,0.6507,658.1435,1.5,0.3,"[3,1,2]",0.183698079,stimuli/card_10_transparent.png,10,5,0,5,0,1,,,,,,,,,,
,,,,614918a6dcc9c2fb0bde6331,B,2024-08-22_11h14.48.862,Slot Machine Game,2023.1.3,Win32,60.97560976,,,,,,,,,,,,,,,,,,,,,,,,,,,240,,,,,,,,,,,,,,,,,,10,10,,,659.9416,6,right,0.5546,660.5088,0.5,0.3,"[3,1,2]",0.247707274,stimuli/card_10_transparent.png,10,6,0,6,0,1,,,,,,,,,,
,,,,614918a6dcc9c2fb0bde6331,B,2024-08-22_11h14.48.862,Slot Machine Game,2023.1.3,Win32,60.97560976,,,,,,,,,,,,,,,,,,,,,,,,,,,340,,,,,,,,,,,,,,,,,,10,10,,,661.307,7,left,0.5514,661.8904,1,0.3,"[3,1,2]",0.071630319,stimuli/card_100_transparent.png,100,7,0,7,0,1,,,,,,,,,,
,,,,614918a6dcc9c2fb0bde6331,B,2024-08-22_11h14.48.862,Slot Machine Game,2023.1.3,Win32,60.97560976,,,,,,,,,,,,,,,,,,,,,,,,,,,340,,,,,,,,,,,,,,,,,,10,10,,,663.1884,8,left,0.7507,663.9717,0.5,0.3,"[3,1,2]",0.6010619,stimuli/card_0_transparent.png,0,8,0,8,0,1,,,,,,,,,,
,,,,614918a6dcc9c2fb0bde6331,B,2024-08-22_11h14.48.862,Slot Machine Game,2023.1.3,Win32,60.97560976,,,,,,,,,,,,,,,,,,,,,,,,,,,440,,,,,,,,,,,,,,,,,,10,10,,,664.7703,9,up,0.6261,665.4221,1.5,0.3,"[3,1,2]",0.348170046,stimuli/card_100_transparent.png,100,9,0,9,0,1,,,,,,,,,,
,,,,614918a6dcc9c2fb0bde6331,B,2024-08-22_11h14.48.862,Slot Machine Game,2023.1.3,Win32,60.97560976,,,,,,,,,,,,,,,,,,,,,,,,,,,450,,,,,,,,,,,,,,,,,,10,10,,,667.2175,10,up,0.507,667.7507,1,0.3,"[1,3,2]",0.152266401,stimuli/card_10_transparent.png,10,10,0,10,0,1,,,,,,,,,,
,,,,614918a6dcc9c2fb0bde6331,B,2024-08-22_11h14.48.862,Slot Machine Game,2023.1.3,Win32,60.97560976,,,,,,,,,,,,,,,,,,,,,,,,,,,460,,,,,,,,,,,,,,,,,,10,10,,,669.0493,11,right,0.5011,669.5826,0.5,0.3,"[1,3,2]",0.374147917,stimuli/card_10_transparent.png,10,11,0,11,0,1,,,,,,,,,,
,,,,614918a6dcc9c2fb0bde6331,B,2024-08-22_11h14.48.862,Slot Machine Game,2023.1.3,Win32,60.97560976,,,,,,,,,,,,,,,,,,,,,,,,,,,460,,,,,,,,,,,,,,,,,,10,10,,,670.3811,12,up,0.9678,671.3809,1.5,0.3,"[1,3,2]",0.464066738,stimuli/card_0_transparent.png,0,12,0,12,0,1,,,,,,,,,,
,,,,614918a6dcc9c2fb0bde6331,B,2024-08-22_11h14.48.862,Slot Machine Game,2023.1.3,Win32,60.97560976,,,,,,,,,,,,,,,,,,,,,,,,,,,560,,,,,,,,,,,,,,,,,,10,10,,,673.1787,13,left,0.6512,673.8619,0.5,0.3,"[1,3,2]",0.216002704,stimuli/card_100_transparent.png,100,13,0,13,0,1,,,,,,,,,,
,,,,614918a6dcc9c2fb0bde6331,B,2024-08-22_11h14.48.862,Slot Machine Game,2023.1.3,Win32,60.97560976,,,,,,,,,,,,,,,,,,,,,,,,,,,660,,,,,,,,,,,,,,,,,,10,10,,,674.6606,14,left,1.0023,675.6941,1.5,0.3,"[1,3,2]",0.219611166,stimuli/card_100_transparent.png,100,14,0,14,0,1,,,,,,,,,,
,,,,614918a6dcc9c2fb0bde6331,B,2024-08-22_11h14.48.862,Slot Machine Game,2023.1.3,Win32,60.97560976,,,,,,,,,,,,,,,,,,,,,,,,,,,,,,,,,,677.4909,,,,,,,,,,,,,,,,,,,,,,,,,,,,,,,"[740,650,750,550,550,580,1210,170,730,660]",9,0,9,0,1,,,,
,,,,614918a6dcc9c2fb0bde6331,B,2024-08-22_11h14.48.862,Slot Machine Game,2023.1.3,Win32,60.97560976,,,,,,,,,,,,,,,,,,,,,,,,,,,,,,,,,,,,,,,,,,,,,,,,,,,,,,,,,,,,,,,,,,,,,,,9,"[740,650,750,550,550,580,1210,170,730,660]",7.4,2024-08-22_11h26.15.699
