practice_trials.thisRepN,practice_trials.thisTrialN,practice_trials.thisN,practice_trials.thisIndex,block.thisRepN,block.thisTrialN,block.thisN,block.thisIndex,main_trials.thisRepN,main_trials.thisTrialN,main_trials.thisN,main_trials.thisIndex,key_resp_practice_instruction.started,text_practice_instruction.started,key_resp_practice_instruction.keys,key_resp_practice_instruction.rt,key_resp_practice_instruction.duration,key_resp.started,text.started,key_resp.keys,key_resp.rt,key_resp.duration,key_resp_practice_reset.started,text_practice_reset.started,key_resp_practice_reset.keys,key_resp_practice_reset.rt,key_resp_practice_reset.duration,key_resp_practice_slots.started,text_practice_slots.started,text_practice_slots_2.started,key_resp_practice_slots.keys,presentationInterval,key_resp_practice_slots.rt,key_resp_practice_slots.duration,polygon_practice_interval.started,polygon_practice_interval.stopped,reward_seq,reward_Img,Cuml_rew,currentTrialReward,text_practice_rewards.started,text_practice_rewards.stopped,key_resp_practice_end.started,text_practice_end.started,key_resp_practice_end.keys,key_resp_practice_end.rt,key_resp_practice_end.duration,movie.started,text_main_instruction.started,key_resp_main_instruction.started,key_resp_main_instruction.keys,key_resp_main_instruction.rt,key_resp_main_instruction.duration,conditions,currentCondition,conditionsAfterRemoval,key_resp_slots_presentation.started,text_slots_presentation.started,text_slots_presentation_2.started,key_resp_slots_presentation.keys,Main_presentationInterval,key_resp_slots_presentation.rt,key_resp_slots_presentation.duration,polygon_selection_interval.started,text_selection_interval.started,polygon_selection_interval.stopped,text_selection_interval.stopped,Main_reward_seq,Random value generated,Main_reward_Img,Main_Cuml_rew,Main_currentTrialReward,text_reward_presentation.started,text_reward_presentation.stopped,text_block_break.started,text_block_break.stopped,text_end_ins.started,text_end_ins.stopped,reward_block_chosen,participant,date,expName,psychopyVersion,frameRate,
,,,,,,,,,,,,42.30136048900022,42.30136048900022,space,6.325150947999646,None,,,,,,,,,,,,,,,,,,,,,,,,,,,,,,,,,,,,,,,,,,,,,,,,,,,,,,,,,,,,,,,test,2023-07-12_15h56.02.394,slotMachine,2023.1.3,59.93826298983191,
,,,,,,,,,,,,,,,,,48.66549257199949,48.66549257199949,space,3.2901694239999415,None,,,,,,,,,,,,,,,,,,,,,,,,,,,,,,,,,,,,,,,,,,,,,,,,,,,,,,,,,,test,2023-07-12_15h56.02.394,slotMachine,2023.1.3,59.93826298983191,
,,,,,,,,,,,,,,,,,,,,,,51.98667919299987,51.98667919299987,space,4.167334599000242,None,,,,,,,,,,,,,,,,,,,,,,,,,,,,,,,,,,,,,,,,,,,,,,,,,,,,,test,2023-07-12_15h56.02.394,slotMachine,2023.1.3,59.93826298983191,
0,0,0,0,,,,,,,,,,,,,,,,,,,,,,,,56.22090869600015,56.22090869600015,56.22090869600015,None,0.5,,,,,,,,,,,,,,,,,,,,,,,,,,,,,,,,,,,,,,,,,,,,,,,,test,2023-07-12_15h56.02.394,slotMachine,2023.1.3,59.93826298983191,
1,0,1,0,,,,,,,,,,,,,,,,,,,,,,,,61.73188577899964,61.73188577899964,61.73188577899964,left,1.0,0.46645851800076343,None,62.25359451799977,63.28227617900029,"[2, 1, 3]",stimuli/card_10_transparent.png,10,10,63.28227617900029,63.59921107599985,,,,,,,,,,,,,,,,,,,,,,,,,,,,,,,,,,,,,,test,2023-07-12_15h56.02.394,slotMachine,2023.1.3,59.93826298983191,
2,0,2,0,,,,,,,,,,,,,,,,,,,,,,,,63.59921107599985,63.59921107599985,63.59921107599985,left,1.0,0.7220273829998405,None,64.36593600699962,65.38471959399976,"[2, 1, 3]",stimuli/card_10_transparent.png,20,10,65.38471959399976,65.70139347500026,,,,,,,,,,,,,,,,,,,,,,,,,,,,,,,,,,,,,,test,2023-07-12_15h56.02.394,slotMachine,2023.1.3,59.93826298983191,
3,0,3,0,,,,,,,,,,,,,,,,,,,,,,,,65.70139347500026,65.70139347500026,65.70139347500026,left,0.5,0.10337735800021619,None,65.85223349700027,66.37188995699944,"[2, 1, 3]",stimuli/card_0_transparent.png,20,0,66.37188995699944,66.69826659799946,,,,,,,,,,,,,,,,,,,,,,,,,,,,,,,,,,,,,,test,2023-07-12_15h56.02.394,slotMachine,2023.1.3,59.93826298983191,
4,0,4,0,,,,,,,,,,,,,,,,,,,,,,,,66.69826659799946,66.69826659799946,66.69826659799946,up,0.5,0.16550898000059533,None,66.90021265499945,67.42222954999943,"[2, 1, 3]",stimuli/card_100_transparent.png,120,100,67.42222954999943,67.75139259600019,,,,,,,,,,,,,,,,,,,,,,,,,,,,,,,,,,,,,,test,2023-07-12_15h56.02.394,slotMachine,2023.1.3,59.93826298983191,
5,0,5,0,,,,,,,,,,,,,,,,,,,,,,,,67.75139259600019,67.75139259600019,67.75139259600019,up,0.5,1.1991236240000944,None,68.98795310700007,69.50245405700025,"[2, 1, 3]",stimuli/card_100_transparent.png,220,100,69.50245405700025,69.8184838090001,,,,,,,,,,,,,,,,,,,,,,,,,,,,,,,,,,,,,,test,2023-07-12_15h56.02.394,slotMachine,2023.1.3,59.93826298983191,
6,0,6,0,,,,,,,,,,,,,,,,,,,,,,,,69.8184838090001,69.8184838090001,69.8184838090001,up,1.5,0.3705027380001411,None,70.23934632300006,71.7679089029998,"[2, 1, 3]",stimuli/card_100_transparent.png,320,100,71.7679089029998,72.08260493099988,,,,,,,,,,,,,,,,,,,,,,,,,,,,,,,,,,,,,,test,2023-07-12_15h56.02.394,slotMachine,2023.1.3,59.93826298983191,
7,0,7,0,,,,,,,,,,,,,,,,,,,,,,,,72.08260493099988,72.08260493099988,72.08260493099988,up,1.5,0.8995899550000104,None,73.01972261900028,74.53372855699945,"[2, 1, 3]",stimuli/card_100_transparent.png,420,100,74.53372855699945,74.84790763599995,,,,,,,,,,,,,,,,,,,,,,,,,,,,,,,,,,,,,,test,2023-07-12_15h56.02.394,slotMachine,2023.1.3,59.93826298983191,
8,0,8,0,,,,,,,,,,,,,,,,,,,,,,,,74.84790763599995,74.84790763599995,74.84790763599995,up,1.0,0.13148524900043412,None,75.01906356099971,76.03618083800029,"[2, 1, 3]",stimuli/card_100_transparent.png,520,100,76.03618083800029,76.3461565890002,,,,,,,,,,,,,,,,,,,,,,,,,,,,,,,,,,,,,,test,2023-07-12_15h56.02.394,slotMachine,2023.1.3,59.93826298983191,
9,0,9,0,,,,,,,,,,,,,,,,,,,,,,,,76.3461565890002,76.3461565890002,76.3461565890002,up,0.5,0.021738035999987915,None,76.40331428199988,76.91481920600017,"[2, 1, 3]",stimuli/card_100_transparent.png,620,100,76.91481920600017,77.22878922499967,,,,,,,,,,,,,,,,,,,,,,,,,,,,,,,,,,,,,,test,2023-07-12_15h56.02.394,slotMachine,2023.1.3,59.93826298983191,
10,0,10,0,,,,,,,,,,,,,,,,,,,,,,,,77.22878922499967,77.22878922499967,77.22878922499967,up,0.5,0.48372212699996453,None,77.74715300699972,78.2676033380003,"[3, 2, 1]",stimuli/card_10_transparent.png,630,10,78.2676033380003,78.5801855740001,,,,,,,,,,,,,,,,,,,,,,,,,,,,,,,,,,,,,,test,2023-07-12_15h56.02.394,slotMachine,2023.1.3,59.93826298983191,
11,0,11,0,,,,,,,,,,,,,,,,,,,,,,,,78.5801855740001,78.5801855740001,78.5801855740001,right,1.0,0.37356755000018893,None,78.99818593999953,80.02102356599971,"[3, 2, 1]",stimuli/card_10_transparent.png,640,10,80.02102356599971,80.35121769199941,,,,,,,,,,,,,,,,,,,,,,,,,,,,,,,,,,,,,,test,2023-07-12_15h56.02.394,slotMachine,2023.1.3,59.93826298983191,
12,0,12,0,,,,,,,,,,,,,,,,,,,,,,,,80.35121769199941,80.35121769199941,80.35121769199941,right,1.5,0.23494013999970775,None,80.64770170199972,82.16851819899966,"[3, 2, 1]",stimuli/card_100_transparent.png,740,100,82.16851819899966,82.48225415500019,,,,,,,,,,,,,,,,,,,,,,,,,,,,,,,,,,,,,,test,2023-07-12_15h56.02.394,slotMachine,2023.1.3,59.93826298983191,
13,0,13,0,,,,,,,,,,,,,,,,,,,,,,,,82.48225415500019,82.48225415500019,82.48225415500019,right,0.5,0.3059401680002338,None,82.83307843199964,83.35232638700018,"[3, 2, 1]",stimuli/card_100_transparent.png,840,100,83.35232638700018,83.66540192899993,,,,,,,,,,,,,,,,,,,,,,,,,,,,,,,,,,,,,,test,2023-07-12_15h56.02.394,slotMachine,2023.1.3,59.93826298983191,
14,0,14,0,,,,,,,,,,,,,,,,,,,,,,,,83.66540192899993,83.66540192899993,83.66540192899993,right,0.5,0.6896223240000836,None,84.40172025099946,84.91898442799993,"[3, 2, 1]",stimuli/card_100_transparent.png,940,100,84.91898442799993,85.2351554349998,,,,,,,,,,,,,,,,,,,,,,,,,,,,,,,,,,,,,,test,2023-07-12_15h56.02.394,slotMachine,2023.1.3,59.93826298983191,
15,0,15,0,,,,,,,,,,,,,,,,,,,,,,,,85.2351554349998,85.2351554349998,85.2351554349998,right,1.0,0.850543794999794,None,86.12021052199998,87.13145080100003,"[3, 2, 1]",stimuli/card_100_transparent.png,1040,100,87.13145080100003,87.44769624499986,,,,,,,,,,,,,,,,,,,,,,,,,,,,,,,,,,,,,,test,2023-07-12_15h56.02.394,slotMachine,2023.1.3,59.93826298983191,
16,0,16,0,,,,,,,,,,,,,,,,,,,,,,,,87.44769624499986,87.44769624499986,87.44769624499986,right,0.5,0.7151546260001851,None,88.20004795800014,88.71313562799969,"[3, 2, 1]",stimuli/card_100_transparent.png,1140,100,88.71313562799969,89.03135229599957,,,,,,,,,,,,,,,,,,,,,,,,,,,,,,,,,,,,,,test,2023-07-12_15h56.02.394,slotMachine,2023.1.3,59.93826298983191,
17,0,17,0,,,,,,,,,,,,,,,,,,,,,,,,89.03135229599957,89.03135229599957,89.03135229599957,right,0.5,0.45056792800005496,None,89.53115580200028,90.04648225599976,"[3, 2, 1]",stimuli/card_100_transparent.png,1240,100,90.04648225599976,90.36222291499962,,,,,,,,,,,,,,,,,,,,,,,,,,,,,,,,,,,,,,test,2023-07-12_15h56.02.394,slotMachine,2023.1.3,59.93826298983191,
18,0,18,0,,,,,,,,,,,,,,,,,,,,,,,,90.36222291499962,90.36222291499962,90.36222291499962,right,1.5,0.22683978600070986,None,90.63101995099987,92.14698365899949,"[3, 2, 1]",stimuli/card_100_transparent.png,1340,100,92.14698365899949,92.46263481699953,,,,,,,,,,,,,,,,,,,,,,,,,,,,,,,,,,,,,,test,2023-07-12_15h56.02.394,slotMachine,2023.1.3,59.93826298983191,
19,0,19,0,,,,,,,,,,,,,,,,,,,,,,,,92.46263481699953,92.46263481699953,92.46263481699953,right,1.5,0.6630373360003432,None,93.16376036400015,94.68171206999978,"[3, 2, 1]",stimuli/card_100_transparent.png,1440,100,94.68171206999978,94.98629791999974,,,,,,,,,,,,,,,,,,,,,,,,,,,,,,,,,,,,,,test,2023-07-12_15h56.02.394,slotMachine,2023.1.3,59.93826298983191,
,,,,,,,,,,,,,,,,,,,,,,,,,,,,,,,,,,,,,,,,,,94.98629791999974,94.98629791999974,space,3.701550325000426,None,,,,,,,,,,,,,,,,,,,,,,,,,,,,,,,,,test,2023-07-12_15h56.02.394,slotMachine,2023.1.3,59.93826298983191,
,,,,,,,,,,,,,,,,,,,,,,,,,,,,,,,,,,,,,,,,,,,,,,,98.75187254499997,223.8159482179999,223.8159482179999,space,14.402987469999971,None,,,,,,,,,,,,,,,,,,,,,,,,,,,test,2023-07-12_15h56.02.394,slotMachine,2023.1.3,59.93826298983191,
,,,,0,0,0,0,0,0,0,0,,,,,,,,,,,,,,,,,,,,,,,,,,,,,,,,,,,,,,,,,,"[(10, 20), (8, 20), (7, 20), (12, 20), (7, 14, 20), (13, 20)]","(10, 20)","[(8, 20), (7, 20), (12, 20), (7, 14, 20), (13, 20)]",238.3079904819997,238.3079904819997,238.3079904819997,None,1.0,,,,,,,,,,,,,,,,,,,test,2023-07-12_15h56.02.394,slotMachine,2023.1.3,59.93826298983191,
,,,,0,0,0,0,1,0,1,0,,,,,,,,,,,,,,,,,,,,,,,,,,,,,,,,,,,,,,,,,,,,,243.8092943820002,243.8092943820002,243.8092943820002,right,1.5,0.0865906779999932,None,243.93722371999957,243.93722371999957,245.47570882800028,245.47570882800028,"[1, 2, 3]",0.3990573158670009,stimuli/card_0_transparent.png,0,0,245.47570882800028,245.7935033019994,,,,,,test,2023-07-12_15h56.02.394,slotMachine,2023.1.3,59.93826298983191,
,,,,0,0,0,0,2,0,2,0,,,,,,,,,,,,,,,,,,,,,,,,,,,,,,,,,,,,,,,,,,,,,245.7935033019994,245.7935033019994,245.7935033019994,right,1.5,0.591352146000645,None,246.41695009999967,246.41695009999967,247.93036427399966,247.93036427399966,"[1, 2, 3]",0.7981406135868383,stimuli/card_0_transparent.png,0,0,247.93036427399966,248.24435171799996,,,,,,test,2023-07-12_15h56.02.394,slotMachine,2023.1.3,59.93826298983191,
,,,,0,0,0,0,3,0,3,0,,,,,,,,,,,,,,,,,,,,,,,,,,,,,,,,,,,,,,,,,,,,,248.24435171799996,248.24435171799996,248.24435171799996,right,1.5,0.9499295440000424,None,249.2296892530003,249.2296892530003,250.75215118100004,250.75215118100004,"[1, 2, 3]",0.08733407213135935,stimuli/card_100_transparent.png,100,100,250.75215118100004,251.08367630799967,,,,,,test,2023-07-12_15h56.02.394,slotMachine,2023.1.3,59.93826298983191,
,,,,0,0,0,0,4,0,4,0,,,,,,,,,,,,,,,,,,,,,,,,,,,,,,,,,,,,,,,,,,,,,251.08367630799967,251.08367630799967,251.08367630799967,up,1.5,2.1932237519995397,None,253.31737345700003,253.31737345700003,254.83176452599946,254.83176452599946,"[1, 2, 3]",0.10754569742562459,stimuli/card_100_transparent.png,200,100,254.83176452599946,255.14816733799944,,,,,,test,2023-07-12_15h56.02.394,slotMachine,2023.1.3,59.93826298983191,
,,,,0,0,0,0,5,0,5,0,,,,,,,,,,,,,,,,,,,,,,,,,,,,,,,,,,,,,,,,,,,,,255.14816733799944,255.14816733799944,255.14816733799944,None,1.0,,,,,,,,,,,,,,,,,,,test,2023-07-12_15h56.02.394,slotMachine,2023.1.3,59.93826298983191,
,,,,0,0,0,0,6,0,6,0,,,,,,,,,,,,,,,,,,,,,,,,,,,,,,,,,,,,,,,,,,,,,260.69401439600006,260.69401439600006,260.69401439600006,up,0.5,1.5930500639997263,None,262.33202030899974,262.33202030899974,262.84689921799963,262.84689921799963,"[1, 2, 3]",0.01513989276617167,stimuli/card_0_transparent.png,200,0,262.84689921799963,263.16176199799975,,,,,,test,2023-07-12_15h56.02.394,slotMachine,2023.1.3,59.93826298983191,
,,,,0,0,0,0,7,0,7,0,,,,,,,,,,,,,,,,,,,,,,,,,,,,,,,,,,,,,,,,,,,,,263.16176199799975,263.16176199799975,263.16176199799975,left,0.5,0.10687916900042183,None,263.3128975919999,263.3128975919999,263.831698897,263.831698897,"[1, 2, 3]",0.7315058676176737,stimuli/card_100_transparent.png,300,100,263.831698897,264.1467273170001,,,,,,test,2023-07-12_15h56.02.394,slotMachine,2023.1.3,59.93826298983191,
,,,,0,0,0,0,8,0,8,0,,,,,,,,,,,,,,,,,,,,,,,,,,,,,,,,,,,,,,,,,,,,,264.1467273170001,264.1467273170001,264.1467273170001,up,1.5,0.7584354290002011,None,264.9493658709998,264.9493658709998,266.4696554309994,266.4696554309994,"[1, 2, 3]",0.21033517011482605,stimuli/card_10_transparent.png,310,10,266.4696554309994,266.7986504949995,,,,,,test,2023-07-12_15h56.02.394,slotMachine,2023.1.3,59.93826298983191,
,,,,0,0,0,0,9,0,9,0,,,,,,,,,,,,,,,,,,,,,,,,,,,,,,,,,,,,,,,,,,,,,266.7986504949995,266.7986504949995,266.7986504949995,up,0.5,0.015449537000677083,None,266.85602234,266.85602234,267.3851101049995,267.3851101049995,"[1, 2, 3]",0.7461576232664152,stimuli/card_10_transparent.png,320,10,267.3851101049995,267.71637965099944,,,,,,test,2023-07-12_15h56.02.394,slotMachine,2023.1.3,59.93826298983191,
,,,,0,0,0,0,10,0,10,0,,,,,,,,,,,,,,,,,,,,,,,,,,,,,,,,,,,,,,,,,,,,,267.71637965099944,267.71637965099944,267.71637965099944,up,1.0,0.8605855810001231,None,268.61947263799993,268.61947263799993,269.6524122789997,269.6524122789997,"[3, 2, 1]",0.084791381863205,stimuli/card_0_transparent.png,320,0,269.6524122789997,269.98242076799943,,,,,,test,2023-07-12_15h56.02.394,slotMachine,2023.1.3,59.93826298983191,
,,,,0,0,0,0,11,0,11,0,,,,,,,,,,,,,,,,,,,,,,,,,,,,,,,,,,,,,,,,,,,,,269.98242076799943,269.98242076799943,269.98242076799943,up,1.0,0.027396167000006244,None,270.053701586,270.053701586,271.0866331750003,271.0866331750003,"[3, 2, 1]",0.1771894912656724,stimuli/card_100_transparent.png,420,100,271.0866331750003,271.4078317450003,,,,,,test,2023-07-12_15h56.02.394,slotMachine,2023.1.3,59.93826298983191,
,,,,0,0,0,0,12,0,12,0,,,,,,,,,,,,,,,,,,,,,,,,,,,,,,,,,,,,,,,,,,,,,271.4078317450003,271.4078317450003,271.4078317450003,up,1.5,0.05198045900033321,None,271.5026289030002,271.5026289030002,273.0389639969999,273.0389639969999,"[3, 2, 1]",0.3987449882941114,stimuli/card_10_transparent.png,430,10,273.0389639969999,273.36774837899975,,,,,,test,2023-07-12_15h56.02.394,slotMachine,2023.1.3,59.93826298983191,
,,,,0,0,0,0,13,0,13,0,,,,,,,,,,,,,,,,,,,,,,,,,,,,,,,,,,,,,,,,,,,,,273.36774837899975,273.36774837899975,273.36774837899975,up,1.5,0.15163022500018997,None,273.5688481899997,273.5688481899997,275.10081193299993,275.10081193299993,"[3, 2, 1]",0.1264960816957289,stimuli/card_100_transparent.png,530,100,275.10081193299993,275.41746378599964,,,,,,test,2023-07-12_15h56.02.394,slotMachine,2023.1.3,59.93826298983191,
,,,,0,0,0,0,14,0,14,0,,,,,,,,,,,,,,,,,,,,,,,,,,,,,,,,,,,,,,,,,,,,,275.41746378599964,275.41746378599964,275.41746378599964,up,1.5,4.019963309000559,None,279.4858195229999,279.4858195229999,281.0167205580001,281.0167205580001,"[3, 2, 1]",0.10502509144882533,stimuli/card_100_transparent.png,630,100,281.0167205580001,281.3325601389997,,,,,,test,2023-07-12_15h56.02.394,slotMachine,2023.1.3,59.93826298983191,
,,,,0,0,0,0,15,0,15,0,,,,,,,,,,,,,,,,,,,,,,,,,,,,,,,,,,,,,,,,,,,,,281.3325601389997,281.3325601389997,281.3325601389997,up,1.5,0.29052003100059665,None,281.66599107099955,281.66599107099955,283.186682218,283.186682218,"[3, 2, 1]",0.7613154323156033,stimuli/card_10_transparent.png,640,10,283.186682218,283.5138780699999,,,,,,test,2023-07-12_15h56.02.394,slotMachine,2023.1.3,59.93826298983191,
,,,,0,0,0,0,16,0,16,0,,,,,,,,,,,,,,,,,,,,,,,,,,,,,,,,,,,,,,,,,,,,,283.5138780699999,283.5138780699999,283.5138780699999,up,1.0,0.10790020900003583,None,283.66771262600014,283.66771262600014,284.6860982219996,284.6860982219996,"[3, 2, 1]",0.32561935582241486,stimuli/card_10_transparent.png,650,10,284.6860982219996,285.0165592200001,,,,,,test,2023-07-12_15h56.02.394,slotMachine,2023.1.3,59.93826298983191,
,,,,0,0,0,0,17,0,17,0,,,,,,,,,,,,,,,,,,,,,,,,,,,,,,,,,,,,,,,,,,,,,285.0165592200001,285.0165592200001,285.0165592200001,up,1.5,2.10110194400022,None,287.1675379449998,287.1675379449998,288.6837181519995,288.6837181519995,"[3, 2, 1]",0.8932778090708218,stimuli/card_10_transparent.png,660,10,288.6837181519995,288.99765677100004,,,,,,test,2023-07-12_15h56.02.394,slotMachine,2023.1.3,59.93826298983191,
,,,,0,0,0,0,18,0,18,0,,,,,,,,,,,,,,,,,,,,,,,,,,,,,,,,,,,,,,,,,,,,,288.99765677100004,288.99765677100004,288.99765677100004,None,0.5,,,,,,,,,,,,,,,,,,,test,2023-07-12_15h56.02.394,slotMachine,2023.1.3,59.93826298983191,
,,,,0,0,0,0,19,0,19,0,,,,,,,,,,,,,,,,,,,,,,,,,,,,,,,,,,,,,,,,,,,,,294.5497809359995,294.5497809359995,294.5497809359995,up,1.5,3.703446669999721,None,298.2988889850003,298.2988889850003,299.8190361039997,299.8190361039997,"[3, 2, 1]",0.29513572661783816,stimuli/card_10_transparent.png,670,10,299.8190361039997,300.1329844619995,,,,,,test,2023-07-12_15h56.02.394,slotMachine,2023.1.3,59.93826298983191,
,,,,0,0,0,0,,,,,,,,,,,,,,,,,,,,,,,,,,,,,,,,,,,,,,,,,,,,,,,,,,,,,,,,,,,,,,,,,,,300.1329844619995,305.1477564979996,,,,test,2023-07-12_15h56.02.394,slotMachine,2023.1.3,59.93826298983191,
,,,,1,0,1,0,0,0,0,0,,,,,,,,,,,,,,,,,,,,,,,,,,,,,,,,,,,,,,,,,,"[(13, 20), (8, 20), (7, 14, 20), (12, 20), (7, 20)]","(13, 20)","[(8, 20), (7, 14, 20), (12, 20), (7, 20)]",305.1477564979996,305.1477564979996,305.1477564979996,up,0.5,0.6769067509994784,None,305.8652465409996,305.8652465409996,306.3828683390002,306.3828683390002,"[3, 2, 1]",0.01533124354970461,stimuli/card_0_transparent.png,0,0,306.3828683390002,306.69278553499953,,,,,,test,2023-07-12_15h56.02.394,slotMachine,2023.1.3,59.93826298983191,
,,,,1,0,1,0,1,0,1,0,,,,,,,,,,,,,,,,,,,,,,,,,,,,,,,,,,,,,,,,,,,,,306.69278553499953,306.69278553499953,306.69278553499953,None,0.5,,,,,,,,,,,,,,,,,,,test,2023-07-12_15h56.02.394,slotMachine,2023.1.3,59.93826298983191,
,,,,1,0,1,0,2,0,2,0,,,,,,,,,,,,,,,,,,,,,,,,,,,,,,,,,,,,,,,,,,,,,312.2401709349997,312.2401709349997,312.2401709349997,up,1.5,0.7096943149999788,None,312.9819370229998,312.9819370229998,314.4997918939998,314.4997918939998,"[3, 2, 1]",0.957160415249187,stimuli/card_10_transparent.png,10,10,314.4997918939998,314.8174010599996,,,,,,test,2023-07-12_15h56.02.394,slotMachine,2023.1.3,59.93826298983191,
,,,,1,0,1,0,3,0,3,0,,,,,,,,,,,,,,,,,,,,,,,,,,,,,,,,,,,,,,,,,,,,,314.8174010599996,314.8174010599996,314.8174010599996,up,1.5,1.892648903999543,None,316.7504215809995,316.7504215809995,318.26783031099967,318.26783031099967,"[3, 2, 1]",0.7301198485033994,stimuli/card_10_transparent.png,20,10,318.26783031099967,318.598239983,,,,,,test,2023-07-12_15h56.02.394,slotMachine,2023.1.3,59.93826298983191,
,,,,1,0,1,0,4,0,4,0,,,,,,,,,,,,,,,,,,,,,,,,,,,,,,,,,,,,,,,,,,,,,318.598239983,318.598239983,318.598239983,up,1.5,0.048893975999817485,None,318.68673785400006,318.68673785400006,320.2158376839998,320.2158376839998,"[3, 2, 1]",0.0796169741833258,stimuli/card_0_transparent.png,20,0,320.2158376839998,320.5311858979994,,,,,,test,2023-07-12_15h56.02.394,slotMachine,2023.1.3,59.93826298983191,
,,,,1,0,1,0,5,0,5,0,,,,,,,,,,,,,,,,,,,,,,,,,,,,,,,,,,,,,,,,,,,,,320.5311858979994,320.5311858979994,320.5311858979994,up,1.5,0.05634841699975368,None,320.63271985699976,320.63271985699976,322.1523666459998,322.1523666459998,"[3, 2, 1]",0.22150189911342777,stimuli/card_10_transparent.png,30,10,322.1523666459998,322.48423987000024,,,,,,test,2023-07-12_15h56.02.394,slotMachine,2023.1.3,59.93826298983191,
,,,,1,0,1,0,6,0,6,0,,,,,,,,,,,,,,,,,,,,,,,,,,,,,,,,,,,,,,,,,,,,,322.48423987000024,322.48423987000024,322.48423987000024,up,1.0,0.015033507999760332,None,322.5449602970002,322.5449602970002,323.56954577600027,323.56954577600027,"[3, 2, 1]",0.1079239551295994,stimuli/card_100_transparent.png,130,100,323.56954577600027,323.89973921899946,,,,,,test,2023-07-12_15h56.02.394,slotMachine,2023.1.3,59.93826298983191,
,,,,1,0,1,0,7,0,7,0,,,,,,,,,,,,,,,,,,,,,,,,,,,,,,,,,,,,,,,,,,,,,323.89973921899946,323.89973921899946,323.89973921899946,up,0.5,0.11959731299975829,None,324.06750321300024,324.06750321300024,324.6043941810003,324.6043941810003,"[3, 2, 1]",0.3613656766211084,stimuli/card_10_transparent.png,140,10,324.6043941810003,324.93331448200024,,,,,,test,2023-07-12_15h56.02.394,slotMachine,2023.1.3,59.93826298983191,
,,,,1,0,1,0,8,0,8,0,,,,,,,,,,,,,,,,,,,,,,,,,,,,,,,,,,,,,,,,,,,,,324.93331448200024,324.93331448200024,324.93331448200024,up,1.5,0.343470287000855,None,325.3193956469995,325.3193956469995,326.85234909500014,326.85234909500014,"[3, 2, 1]",0.8423190504923453,stimuli/card_10_transparent.png,150,10,326.85234909500014,327.1837558070001,,,,,,test,2023-07-12_15h56.02.394,slotMachine,2023.1.3,59.93826298983191,
,,,,1,0,1,0,9,0,9,0,,,,,,,,,,,,,,,,,,,,,,,,,,,,,,,,,,,,,,,,,,,,,327.1837558070001,327.1837558070001,327.1837558070001,up,1.5,0.1333994859996892,None,327.3693571269996,327.3693571269996,328.9008369309995,328.9008369309995,"[3, 2, 1]",0.32660009997887895,stimuli/card_10_transparent.png,160,10,328.9008369309995,329.21646785699977,,,,,,test,2023-07-12_15h56.02.394,slotMachine,2023.1.3,59.93826298983191,
,,,,1,0,1,0,10,0,10,0,,,,,,,,,,,,,,,,,,,,,,,,,,,,,,,,,,,,,,,,,,,,,329.21646785699977,329.21646785699977,329.21646785699977,up,1.5,0.028274039000280027,None,329.2872528839998,329.2872528839998,330.81816007999987,330.81816007999987,"[3, 2, 1]",0.9170823276938981,stimuli/card_10_transparent.png,170,10,330.81816007999987,331.14837597099995,,,,,,test,2023-07-12_15h56.02.394,slotMachine,2023.1.3,59.93826298983191,
,,,,1,0,1,0,11,0,11,0,,,,,,,,,,,,,,,,,,,,,,,,,,,,,,,,,,,,,,,,,,,,,331.14837597099995,331.14837597099995,331.14837597099995,up,1.5,0.5149409500008915,None,331.7004833629999,331.7004833629999,333.216633643,333.216633643,"[3, 2, 1]",0.18617699222559958,stimuli/card_100_transparent.png,270,100,333.216633643,333.5316672979998,,,,,,test,2023-07-12_15h56.02.394,slotMachine,2023.1.3,59.93826298983191,
,,,,1,0,1,0,12,0,12,0,,,,,,,,,,,,,,,,,,,,,,,,,,,,,,,,,,,,,,,,,,,,,333.5316672979998,333.5316672979998,333.5316672979998,up,1.0,0.09276327000043239,None,333.6669662579998,333.6669662579998,334.6861091869996,334.6861091869996,"[3, 2, 1]",0.8408761171670531,stimuli/card_10_transparent.png,280,10,334.6861091869996,335.0178432920002,,,,,,test,2023-07-12_15h56.02.394,slotMachine,2023.1.3,59.93826298983191,
,,,,1,0,1,0,13,0,13,0,,,,,,,,,,,,,,,,,,,,,,,,,,,,,,,,,,,,,,,,,,,,,335.0178432920002,335.0178432920002,335.0178432920002,up,0.5,0.049070660000325006,None,335.1166492100001,335.1166492100001,335.63577313099995,335.63577313099995,"[1, 3, 2]",0.0916190409774722,stimuli/card_100_transparent.png,380,100,335.63577313099995,335.964995673,,,,,,test,2023-07-12_15h56.02.394,slotMachine,2023.1.3,59.93826298983191,
,,,,1,0,1,0,14,0,14,0,,,,,,,,,,,,,,,,,,,,,,,,,,,,,,,,,,,,,,,,,,,,,335.964995673,335.964995673,335.964995673,up,1.5,0.07739360199957446,None,336.0851707519996,336.0851707519996,337.61540517199956,337.61540517199956,"[1, 3, 2]",0.8869683753462201,stimuli/card_0_transparent.png,380,0,337.61540517199956,337.929146253,,,,,,test,2023-07-12_15h56.02.394,slotMachine,2023.1.3,59.93826298983191,
,,,,1,0,1,0,15,0,15,0,,,,,,,,,,,,,,,,,,,,,,,,,,,,,,,,,,,,,,,,,,,,,337.929146253,337.929146253,337.929146253,up,1.0,1.6835017679995872,None,339.6488571489999,339.6488571489999,340.66562555899964,340.66562555899964,"[1, 3, 2]",0.2142788434559889,stimuli/card_0_transparent.png,380,0,340.66562555899964,340.98070685699986,,,,,,test,2023-07-12_15h56.02.394,slotMachine,2023.1.3,59.93826298983191,
,,,,1,0,1,0,16,0,16,0,,,,,,,,,,,,,,,,,,,,,,,,,,,,,,,,,,,,,,,,,,,,,340.98070685699986,340.98070685699986,340.98070685699986,up,0.5,0.06980823100002453,None,341.0973769049997,341.0973769049997,341.6149073360002,341.6149073360002,"[1, 3, 2]",0.9549335849437222,stimuli/card_0_transparent.png,380,0,341.6149073360002,341.92945170300027,,,,,,test,2023-07-12_15h56.02.394,slotMachine,2023.1.3,59.93826298983191,
,,,,1,0,1,0,17,0,17,0,,,,,,,,,,,,,,,,,,,,,,,,,,,,,,,,,,,,,,,,,,,,,341.92945170300027,341.92945170300027,341.92945170300027,up,1.0,2.995834459999969,None,344.96519436000017,344.96519436000017,345.9815241619999,345.9815241619999,"[1, 3, 2]",0.4071303249584235,stimuli/card_0_transparent.png,380,0,345.9815241619999,346.2963255269997,,,,,,test,2023-07-12_15h56.02.394,slotMachine,2023.1.3,59.93826298983191,
,,,,1,0,1,0,18,0,18,0,,,,,,,,,,,,,,,,,,,,,,,,,,,,,,,,,,,,,,,,,,,,,346.2963255269997,346.2963255269997,346.2963255269997,up,0.5,0.15180472700012615,None,346.48207700700004,346.48207700700004,347.00057794500026,347.00057794500026,"[1, 3, 2]",0.8461864165822128,stimuli/card_0_transparent.png,380,0,347.00057794500026,347.33154639999975,,,,,,test,2023-07-12_15h56.02.394,slotMachine,2023.1.3,59.93826298983191,
,,,,1,0,1,0,19,0,19,0,,,,,,,,,,,,,,,,,,,,,,,,,,,,,,,,,,,,,,,,,,,,,347.33154639999975,347.33154639999975,347.33154639999975,up,1.5,0.42020249200049875,None,347.8001820569998,347.8001820569998,349.33268252499965,349.33268252499965,"[1, 3, 2]",0.2617938580002479,stimuli/card_0_transparent.png,380,0,349.33268252499965,349.6323992589996,,,,,,test,2023-07-12_15h56.02.394,slotMachine,2023.1.3,59.93826298983191,
,,,,1,0,1,0,,,,,,,,,,,,,,,,,,,,,,,,,,,,,,,,,,,,,,,,,,,,,,,,,,,,,,,,,,,,,,,,,,,349.6323992589996,354.6496786790003,,,,test,2023-07-12_15h56.02.394,slotMachine,2023.1.3,59.93826298983191,
,,,,2,0,2,0,0,0,0,0,,,,,,,,,,,,,,,,,,,,,,,,,,,,,,,,,,,,,,,,,,"[(12, 20), (7, 20), (8, 20), (7, 14, 20)]","(12, 20)","[(7, 20), (8, 20), (7, 14, 20)]",354.6496786790003,354.6496786790003,354.6496786790003,up,1.0,0.39427344300020195,None,355.082541365,355.082541365,356.09677554100017,356.09677554100017,"[2, 1, 3]",0.3179423352979237,stimuli/card_100_transparent.png,100,100,356.09677554100017,356.4108863379997,,,,,,test,2023-07-12_15h56.02.394,slotMachine,2023.1.3,59.93826298983191,
,,,,2,0,2,0,1,0,1,0,,,,,,,,,,,,,,,,,,,,,,,,,,,,,,,,,,,,,,,,,,,,,356.4108863379997,356.4108863379997,356.4108863379997,up,1.5,0.018013536000580643,None,356.4656778469998,356.4656778469998,357.9783628539999,357.9783628539999,"[2, 1, 3]",0.6996080895694544,stimuli/card_100_transparent.png,200,100,357.9783628539999,358.29246729999977,,,,,,test,2023-07-12_15h56.02.394,slotMachine,2023.1.3,59.93826298983191,
,,,,2,0,2,0,2,0,2,0,,,,,,,,,,,,,,,,,,,,,,,,,,,,,,,,,,,,,,,,,,,,,358.29246729999977,358.29246729999977,358.29246729999977,up,0.5,0.2699547910006004,None,358.5951747909994,358.5951747909994,359.11055152100016,359.11055152100016,"[2, 1, 3]",0.9438486411857887,stimuli/card_100_transparent.png,300,100,359.11055152100016,359.426598518,,,,,,test,2023-07-12_15h56.02.394,slotMachine,2023.1.3,59.93826298983191,
,,,,2,0,2,0,3,0,3,0,,,,,,,,,,,,,,,,,,,,,,,,,,,,,,,,,,,,,,,,,,,,,359.426598518,359.426598518,359.426598518,up,0.5,0.6369510840004295,None,360.0963691730003,360.0963691730003,360.60984824000025,360.60984824000025,"[2, 1, 3]",0.8703791429198714,stimuli/card_100_transparent.png,400,100,360.60984824000025,360.92768499999966,,,,,,test,2023-07-12_15h56.02.394,slotMachine,2023.1.3,59.93826298983191,
,,,,2,0,2,0,4,0,4,0,,,,,,,,,,,,,,,,,,,,,,,,,,,,,,,,,,,,,,,,,,,,,360.92768499999966,360.92768499999966,360.92768499999966,up,0.5,1.327641660000154,None,362.29526049499964,362.29526049499964,362.8103177519997,362.8103177519997,"[2, 1, 3]",0.735196439858548,stimuli/card_100_transparent.png,500,100,362.8103177519997,363.1265805920002,,,,,,test,2023-07-12_15h56.02.394,slotMachine,2023.1.3,59.93826298983191,
,,,,2,0,2,0,5,0,5,0,,,,,,,,,,,,,,,,,,,,,,,,,,,,,,,,,,,,,,,,,,,,,363.1265805920002,363.1265805920002,363.1265805920002,up,0.5,0.004260573999999906,None,363.16875961299957,363.16875961299957,363.6929808289997,363.6929808289997,"[2, 1, 3]",0.8419266907378211,stimuli/card_100_transparent.png,600,100,363.6929808289997,364.0078065790003,,,,,,test,2023-07-12_15h56.02.394,slotMachine,2023.1.3,59.93826298983191,
,,,,2,0,2,0,6,0,6,0,,,,,,,,,,,,,,,,,,,,,,,,,,,,,,,,,,,,,,,,,,,,,364.0078065790003,364.0078065790003,364.0078065790003,up,1.0,0.23187363500073843,None,364.2769176800002,364.2769176800002,365.2925516659998,365.2925516659998,"[2, 1, 3]",0.3263988103390303,stimuli/card_100_transparent.png,700,100,365.2925516659998,365.6099588500001,,,,,,test,2023-07-12_15h56.02.394,slotMachine,2023.1.3,59.93826298983191,
,,,,2,0,2,0,7,0,7,0,,,,,,,,,,,,,,,,,,,,,,,,,,,,,,,,,,,,,,,,,,,,,365.6099588500001,365.6099588500001,365.6099588500001,up,1.5,0.17988415000036184,None,365.8267213150002,365.8267213150002,367.34432628000013,367.34432628000013,"[2, 1, 3]",0.06581230084744083,stimuli/card_0_transparent.png,700,0,367.34432628000013,367.6561104989996,,,,,,test,2023-07-12_15h56.02.394,slotMachine,2023.1.3,59.93826298983191,
,,,,2,0,2,0,8,0,8,0,,,,,,,,,,,,,,,,,,,,,,,,,,,,,,,,,,,,,,,,,,,,,367.6561104989996,367.6561104989996,367.6561104989996,up,1.0,1.2422180880002998,None,368.9265773219995,368.9265773219995,369.98600645199986,369.98600645199986,"[2, 1, 3]",0.17783925928855193,stimuli/card_10_transparent.png,710,10,369.98600645199986,370.3129914049996,,,,,,test,2023-07-12_15h56.02.394,slotMachine,2023.1.3,59.93826298983191,
,,,,2,0,2,0,9,0,9,0,,,,,,,,,,,,,,,,,,,,,,,,,,,,,,,,,,,,,,,,,,,,,370.3129914049996,370.3129914049996,370.3129914049996,left,0.5,0.1603722479994758,None,370.5146558710003,370.5146558710003,371.03652497300027,371.03652497300027,"[2, 1, 3]",0.7708030204127898,stimuli/card_10_transparent.png,720,10,371.03652497300027,371.3640125769998,,,,,,test,2023-07-12_15h56.02.394,slotMachine,2023.1.3,59.93826298983191,
,,,,2,0,2,0,10,0,10,0,,,,,,,,,,,,,,,,,,,,,,,,,,,,,,,,,,,,,,,,,,,,,371.3640125769998,371.3640125769998,371.3640125769998,right,1.0,0.23481507300039084,None,371.6351306710003,371.6351306710003,372.6747260100001,372.6747260100001,"[2, 1, 3]",0.8778970696508738,stimuli/card_0_transparent.png,720,0,372.6747260100001,372.99836105899976,,,,,,test,2023-07-12_15h56.02.394,slotMachine,2023.1.3,59.93826298983191,
,,,,2,0,2,0,11,0,11,0,,,,,,,,,,,,,,,,,,,,,,,,,,,,,,,,,,,,,,,,,,,,,372.99836105899976,372.99836105899976,372.99836105899976,left,1.0,0.2909123509998608,None,373.3316429030001,373.3316429030001,374.3526217210001,374.3526217210001,"[2, 1, 3]",0.12736570833903937,stimuli/card_100_transparent.png,820,100,374.3526217210001,374.69119165699976,,,,,,test,2023-07-12_15h56.02.394,slotMachine,2023.1.3,59.93826298983191,
,,,,2,0,2,0,12,0,12,0,,,,,,,,,,,,,,,,,,,,,,,,,,,,,,,,,,,,,,,,,,,,,374.69119165699976,374.69119165699976,374.69119165699976,left,1.5,0.2315133340007378,None,374.96734065799956,374.96734065799956,376.501385218,376.501385218,"[2, 3, 1]",0.8992514514342681,stimuli/card_10_transparent.png,830,10,376.501385218,376.8322039879995,,,,,,test,2023-07-12_15h56.02.394,slotMachine,2023.1.3,59.93826298983191,
,,,,2,0,2,0,13,0,13,0,,,,,,,,,,,,,,,,,,,,,,,,,,,,,,,,,,,,,,,,,,,,,376.8322039879995,376.8322039879995,376.8322039879995,left,1.5,0.20144197999979951,None,377.0692924089999,377.0692924089999,378.60205107,378.60205107,"[2, 3, 1]",0.532711444915996,stimuli/card_10_transparent.png,840,10,378.60205107,378.93145053399985,,,,,,test,2023-07-12_15h56.02.394,slotMachine,2023.1.3,59.93826298983191,
,,,,2,0,2,0,14,0,14,0,,,,,,,,,,,,,,,,,,,,,,,,,,,,,,,,,,,,,,,,,,,,,378.93145053399985,378.93145053399985,378.93145053399985,right,1.5,0.19510211900069407,None,379.16773826499957,379.16773826499957,380.69906876299956,380.69906876299956,"[2, 3, 1]",0.5866253700684427,stimuli/card_100_transparent.png,940,100,380.69906876299956,381.0166558009996,,,,,,test,2023-07-12_15h56.02.394,slotMachine,2023.1.3,59.93826298983191,
,,,,2,0,2,0,15,0,15,0,,,,,,,,,,,,,,,,,,,,,,,,,,,,,,,,,,,,,,,,,,,,,381.0166558009996,381.0166558009996,381.0166558009996,right,1.0,1.1704778909997913,None,382.2338257829997,382.2338257829997,383.2653607209995,383.2653607209995,"[2, 3, 1]",0.2280743715385054,stimuli/card_100_transparent.png,1040,100,383.2653607209995,383.58039363700027,,,,,,test,2023-07-12_15h56.02.394,slotMachine,2023.1.3,59.93826298983191,
,,,,2,0,2,0,16,0,16,0,,,,,,,,,,,,,,,,,,,,,,,,,,,,,,,,,,,,,,,,,,,,,383.58039363700027,383.58039363700027,383.58039363700027,right,0.5,0.024874613999600115,None,383.6517104200002,383.6517104200002,384.1814400639996,384.1814400639996,"[2, 3, 1]",0.20838673351912196,stimuli/card_100_transparent.png,1140,100,384.1814400639996,384.4948401829997,,,,,,test,2023-07-12_15h56.02.394,slotMachine,2023.1.3,59.93826298983191,
,,,,2,0,2,0,17,0,17,0,,,,,,,,,,,,,,,,,,,,,,,,,,,,,,,,,,,,,,,,,,,,,384.4948401829997,384.4948401829997,384.4948401829997,right,1.0,1.5025742540001374,None,386.03500886599977,386.03500886599977,387.0622173410002,387.0622173410002,"[2, 3, 1]",0.48343068069991446,stimuli/card_100_transparent.png,1240,100,387.0622173410002,387.38055940199956,,,,,,test,2023-07-12_15h56.02.394,slotMachine,2023.1.3,59.93826298983191,
,,,,2,0,2,0,18,0,18,0,,,,,,,,,,,,,,,,,,,,,,,,,,,,,,,,,,,,,,,,,,,,,387.38055940199956,387.38055940199956,387.38055940199956,right,0.5,0.8863540709999143,None,388.31063001300026,388.31063001300026,388.8274706080001,388.8274706080001,"[2, 3, 1]",0.774806025031182,stimuli/card_100_transparent.png,1340,100,388.8274706080001,389.14414312200006,,,,,,test,2023-07-12_15h56.02.394,slotMachine,2023.1.3,59.93826298983191,
,,,,2,0,2,0,19,0,19,0,,,,,,,,,,,,,,,,,,,,,,,,,,,,,,,,,,,,,,,,,,,,,389.14414312200006,389.14414312200006,389.14414312200006,right,1.5,0.714139587000318,None,389.89461691699944,389.89461691699944,391.4093543509998,391.4093543509998,"[2, 3, 1]",0.509112282534829,stimuli/card_100_transparent.png,1440,100,391.4093543509998,391.7150591210002,,,,,,test,2023-07-12_15h56.02.394,slotMachine,2023.1.3,59.93826298983191,
,,,,2,0,2,0,,,,,,,,,,,,,,,,,,,,,,,,,,,,,,,,,,,,,,,,,,,,,,,,,,,,,,,,,,,,,,,,,,,391.7150591210002,396.73083276299985,,,,test,2023-07-12_15h56.02.394,slotMachine,2023.1.3,59.93826298983191,
,,,,3,0,3,0,0,0,0,0,,,,,,,,,,,,,,,,,,,,,,,,,,,,,,,,,,,,,,,,,,"[(7, 20), (8, 20), (7, 14, 20)]","(7, 20)","[(8, 20), (7, 14, 20)]",396.73083276299985,396.73083276299985,396.73083276299985,right,0.5,0.05606063499999436,None,396.8308889919999,396.8308889919999,397.3510366159999,397.3510366159999,"[3, 1, 2]",0.808002976335611,stimuli/card_10_transparent.png,10,10,397.3510366159999,397.6775831799996,,,,,,test,2023-07-12_15h56.02.394,slotMachine,2023.1.3,59.93826298983191,
,,,,3,0,3,0,1,0,1,0,,,,,,,,,,,,,,,,,,,,,,,,,,,,,,,,,,,,,,,,,,,,,397.6775831799996,397.6775831799996,397.6775831799996,right,1.0,1.0934488279999641,None,398.81447519499943,398.81447519499943,399.8309420309997,399.8309420309997,"[3, 1, 2]",0.2602688540215995,stimuli/card_10_transparent.png,20,10,399.8309420309997,400.1447648479998,,,,,,test,2023-07-12_15h56.02.394,slotMachine,2023.1.3,59.93826298983191,
,,,,3,0,3,0,2,0,2,0,,,,,,,,,,,,,,,,,,,,,,,,,,,,,,,,,,,,,,,,,,,,,400.1447648479998,400.1447648479998,400.1447648479998,right,0.5,0.15450141499968595,None,400.3317430830002,400.3317430830002,400.84993317299995,400.84993317299995,"[3, 1, 2]",0.5366506265958383,stimuli/card_10_transparent.png,30,10,400.84993317299995,401.1806817449997,,,,,,test,2023-07-12_15h56.02.394,slotMachine,2023.1.3,59.93826298983191,
,,,,3,0,3,0,3,0,3,0,,,,,,,,,,,,,,,,,,,,,,,,,,,,,,,,,,,,,,,,,,,,,401.1806817449997,401.1806817449997,401.1806817449997,right,1.0,0.1913722390008843,None,401.41441158,401.41441158,402.43065894200026,402.43065894200026,"[3, 1, 2]",0.03743904895340333,stimuli/card_0_transparent.png,30,0,402.43065894200026,402.74558430900015,,,,,,test,2023-07-12_15h56.02.394,slotMachine,2023.1.3,59.93826298983191,
,,,,3,0,3,0,4,0,4,0,,,,,,,,,,,,,,,,,,,,,,,,,,,,,,,,,,,,,,,,,,,,,402.74558430900015,402.74558430900015,402.74558430900015,right,0.5,2.0606145060000927,None,404.84610271600013,404.84610271600013,405.3680412399999,405.3680412399999,"[3, 1, 2]",0.4255129755677577,stimuli/card_10_transparent.png,40,10,405.3680412399999,405.69872056700024,,,,,,test,2023-07-12_15h56.02.394,slotMachine,2023.1.3,59.93826298983191,
,,,,3,0,3,0,5,0,5,0,,,,,,,,,,,,,,,,,,,,,,,,,,,,,,,,,,,,,,,,,,,,,405.69872056700024,405.69872056700024,405.69872056700024,right,0.5,1.8013654159994985,None,407.5497862989996,407.5497862989996,408.0677882279997,408.0677882279997,"[3, 1, 2]",0.6379192923249684,stimuli/card_10_transparent.png,50,10,408.0677882279997,408.39833164799984,,,,,,test,2023-07-12_15h56.02.394,slotMachine,2023.1.3,59.93826298983191,
,,,,3,0,3,0,6,0,6,0,,,,,,,,,,,,,,,,,,,,,,,,,,,,,,,,,,,,,,,,,,,,,408.39833164799984,408.39833164799984,408.39833164799984,right,1.0,0.2752443660001518,None,408.72005203699973,408.72005203699973,409.7515147490003,409.7515147490003,"[3, 1, 2]",0.3244425325260829,stimuli/card_10_transparent.png,60,10,409.7515147490003,410.0826287589998,,,,,,test,2023-07-12_15h56.02.394,slotMachine,2023.1.3,59.93826298983191,
,,,,3,0,3,0,7,0,7,0,,,,,,,,,,,,,,,,,,,,,,,,,,,,,,,,,,,,,,,,,,,,,410.0826287589998,410.0826287589998,410.0826287589998,right,0.5,0.4083525700007158,None,410.53451355800007,410.53451355800007,411.06562926100014,411.06562926100014,"[1, 2, 3]",0.4222279081318385,stimuli/card_0_transparent.png,60,0,411.06562926100014,411.37953248899976,,,,,,test,2023-07-12_15h56.02.394,slotMachine,2023.1.3,59.93826298983191,
,,,,3,0,3,0,8,0,8,0,,,,,,,,,,,,,,,,,,,,,,,,,,,,,,,,,,,,,,,,,,,,,411.37953248899976,411.37953248899976,411.37953248899976,right,1.0,0.441769206000572,None,411.8641924849999,411.8641924849999,412.88428478100013,412.88428478100013,"[1, 2, 3]",0.4377443568939654,stimuli/card_0_transparent.png,60,0,412.88428478100013,413.2138548160001,,,,,,test,2023-07-12_15h56.02.394,slotMachine,2023.1.3,59.93826298983191,
,,,,3,0,3,0,9,0,9,0,,,,,,,,,,,,,,,,,,,,,,,,,,,,,,,,,,,,,,,,,,,,,413.2138548160001,413.2138548160001,413.2138548160001,left,0.5,0.2578136380006981,None,413.51359697299995,413.51359697299995,414.03474420400016,414.03474420400016,"[1, 2, 3]",0.8167432085487725,stimuli/card_100_transparent.png,160,100,414.03474420400016,414.3643228339997,,,,,,test,2023-07-12_15h56.02.394,slotMachine,2023.1.3,59.93826298983191,
,,,,3,0,3,0,10,0,10,0,,,,,,,,,,,,,,,,,,,,,,,,,,,,,,,,,,,,,,,,,,,,,414.3643228339997,414.3643228339997,414.3643228339997,right,0.5,0.710052886000085,None,415.1178247910002,415.1178247910002,415.64880555699983,415.64880555699983,"[1, 2, 3]",0.46442677807381716,stimuli/card_0_transparent.png,160,0,415.64880555699983,415.962401406,,,,,,test,2023-07-12_15h56.02.394,slotMachine,2023.1.3,59.93826298983191,
,,,,3,0,3,0,11,0,11,0,,,,,,,,,,,,,,,,,,,,,,,,,,,,,,,,,,,,,,,,,,,,,415.962401406,415.962401406,415.962401406,left,1.5,3.3526104849997864,None,419.3493326629996,419.3493326629996,420.8647961409997,420.8647961409997,"[1, 2, 3]",0.05034765224628279,stimuli/card_0_transparent.png,160,0,420.8647961409997,421.17851671300014,,,,,,test,2023-07-12_15h56.02.394,slotMachine,2023.1.3,59.93826298983191,
,,,,3,0,3,0,12,0,12,0,,,,,,,,,,,,,,,,,,,,,,,,,,,,,,,,,,,,,,,,,,,,,421.17851671300014,421.17851671300014,421.17851671300014,right,1.0,2.678461892000996,None,423.8983364129999,423.8983364129999,424.91479412900026,424.91479412900026,"[1, 2, 3]",0.06419174327985311,stimuli/card_100_transparent.png,260,100,424.91479412900026,425.2325020930002,,,,,,test,2023-07-12_15h56.02.394,slotMachine,2023.1.3,59.93826298983191,
,,,,3,0,3,0,13,0,13,0,,,,,,,,,,,,,,,,,,,,,,,,,,,,,,,,,,,,,,,,,,,,,425.2325020930002,425.2325020930002,425.2325020930002,right,1.5,3.4790311369997653,None,428.75141145699945,428.75141145699945,430.28074094899966,430.28074094899966,"[1, 2, 3]",0.26674073778106056,stimuli/card_0_transparent.png,260,0,430.28074094899966,430.5962126539998,,,,,,test,2023-07-12_15h56.02.394,slotMachine,2023.1.3,59.93826298983191,
,,,,3,0,3,0,14,0,14,0,,,,,,,,,,,,,,,,,,,,,,,,,,,,,,,,,,,,,,,,,,,,,430.5962126539998,430.5962126539998,430.5962126539998,right,1.0,4.586570227000266,None,435.22977688799983,435.22977688799983,436.24924810099947,436.24924810099947,"[1, 2, 3]",0.7278579301335807,stimuli/card_0_transparent.png,260,0,436.24924810099947,436.5806065879997,,,,,,test,2023-07-12_15h56.02.394,slotMachine,2023.1.3,59.93826298983191,
,,,,3,0,3,0,15,0,15,0,,,,,,,,,,,,,,,,,,,,,,,,,,,,,,,,,,,,,,,,,,,,,436.5806065879997,436.5806065879997,436.5806065879997,right,1.0,1.2106036320001294,None,437.829579317,437.829579317,438.84667175699997,438.84667175699997,"[1, 2, 3]",0.86629599919748,stimuli/card_0_transparent.png,260,0,438.84667175699997,439.1633263859994,,,,,,test,2023-07-12_15h56.02.394,slotMachine,2023.1.3,59.93826298983191,
,,,,3,0,3,0,16,0,16,0,,,,,,,,,,,,,,,,,,,,,,,,,,,,,,,,,,,,,,,,,,,,,439.1633263859994,439.1633263859994,439.1633263859994,right,0.5,0.7624753949994556,None,439.96280951300014,439.96280951300014,440.4825658990003,440.4825658990003,"[1, 2, 3]",0.8137541288783627,stimuli/card_0_transparent.png,260,0,440.4825658990003,440.8103558499997,,,,,,test,2023-07-12_15h56.02.394,slotMachine,2023.1.3,59.93826298983191,
,,,,3,0,3,0,17,0,17,0,,,,,,,,,,,,,,,,,,,,,,,,,,,,,,,,,,,,,,,,,,,,,440.8103558499997,440.8103558499997,440.8103558499997,right,0.5,4.582024457000443,None,445.42973137900026,445.42973137900026,445.94755523999993,445.94755523999993,"[1, 2, 3]",0.8349340809398322,stimuli/card_0_transparent.png,260,0,445.94755523999993,446.2636666090002,,,,,,test,2023-07-12_15h56.02.394,slotMachine,2023.1.3,59.93826298983191,
,,,,3,0,3,0,18,0,18,0,,,,,,,,,,,,,,,,,,,,,,,,,,,,,,,,,,,,,,,,,,,,,446.2636666090002,446.2636666090002,446.2636666090002,right,0.5,1.6111979960005556,None,447.91633312700014,447.91633312700014,448.45238299599987,448.45238299599987,"[1, 2, 3]",0.060235083115379395,stimuli/card_100_transparent.png,360,100,448.45238299599987,448.7832444599999,,,,,,test,2023-07-12_15h56.02.394,slotMachine,2023.1.3,59.93826298983191,
,,,,3,0,3,0,19,0,19,0,,,,,,,,,,,,,,,,,,,,,,,,,,,,,,,,,,,,,,,,,,,,,448.7832444599999,448.7832444599999,448.7832444599999,left,1.0,0.23353585900076723,None,449.0647583459995,449.0647583459995,450.08006030100023,450.08006030100023,"[1, 2, 3]",0.543087864030169,stimuli/card_100_transparent.png,460,100,450.08006030100023,450.3810639889998,,,,,,test,2023-07-12_15h56.02.394,slotMachine,2023.1.3,59.93826298983191,
,,,,3,0,3,0,,,,,,,,,,,,,,,,,,,,,,,,,,,,,,,,,,,,,,,,,,,,,,,,,,,,,,,,,,,,,,,,,,,450.3810639889998,455.39845189300013,,,,test,2023-07-12_15h56.02.394,slotMachine,2023.1.3,59.93826298983191,
,,,,4,0,4,0,0,0,0,0,,,,,,,,,,,,,,,,,,,,,,,,,,,,,,,,,,,,,,,,,,"[(8, 20), (7, 14, 20)]","(8, 20)","[(7, 14, 20)]",455.39845189300013,455.39845189300013,455.39845189300013,left,1.5,0.11251879200062831,None,455.5467637490001,455.5467637490001,457.06195019999996,457.06195019999996,"[1, 3, 2]",0.7991285141698786,stimuli/card_100_transparent.png,100,100,457.06195019999996,457.37506507499984,,,,,,test,2023-07-12_15h56.02.394,slotMachine,2023.1.3,59.93826298983191,
,,,,4,0,4,0,1,0,1,0,,,,,,,,,,,,,,,,,,,,,,,,,,,,,,,,,,,,,,,,,,,,,457.37506507499984,457.37506507499984,457.37506507499984,left,1.0,5.273517159000221,None,,,,,,,,,,,,,,,,,test,2023-07-12_15h56.02.394,slotMachine,2023.1.3,59.93826298983191,
,,,,4,0,4,0,2,0,2,0,,,,,,,,,,,,,,,,,,,,,,,,,,,,,,,,,,,,,,,,,,,,,462.7047409659999,462.7047409659999,462.7047409659999,left,0.5,0.9445956749996185,None,463.6899390990002,463.6899390990002,464.21713171600004,464.21713171600004,"[1, 3, 2]",0.19796491392476512,stimuli/card_10_transparent.png,110,10,464.21713171600004,464.5622683169995,,,,,,test,2023-07-12_15h56.02.394,slotMachine,2023.1.3,59.93826298983191,
,,,,4,0,4,0,3,0,3,0,,,,,,,,,,,,,,,,,,,,,,,,,,,,,,,,,,,,,,,,,,,,,464.5622683169995,464.5622683169995,464.5622683169995,right,1.5,0.499987019999935,None,465.0958776489997,465.0958776489997,466.6172555610001,466.6172555610001,"[1, 3, 2]",0.9537168064756983,stimuli/card_10_transparent.png,120,10,466.6172555610001,466.9457905649997,,,,,,test,2023-07-12_15h56.02.394,slotMachine,2023.1.3,59.93826298983191,
,,,,4,0,4,0,4,0,4,0,,,,,,,,,,,,,,,,,,,,,,,,,,,,,,,,,,,,,,,,,,,,,466.9457905649997,466.9457905649997,466.9457905649997,right,1.5,0.1638229219997811,None,467.1467354189999,467.1467354189999,468.6657529089998,468.6657529089998,"[1, 3, 2]",0.2459894613301301,stimuli/card_10_transparent.png,130,10,468.6657529089998,468.99686619800013,,,,,,test,2023-07-12_15h56.02.394,slotMachine,2023.1.3,59.93826298983191,
,,,,4,0,4,0,5,0,5,0,,,,,,,,,,,,,,,,,,,,,,,,,,,,,,,,,,,,,,,,,,,,,468.99686619800013,468.99686619800013,468.99686619800013,right,1.5,0.4272744909994799,None,469.4650601309995,469.4650601309995,470.9835621000002,470.9835621000002,"[1, 3, 2]",0.36349804664956387,stimuli/card_10_transparent.png,140,10,470.9835621000002,471.3138608290001,,,,,,test,2023-07-12_15h56.02.394,slotMachine,2023.1.3,59.93826298983191,
,,,,4,0,4,0,6,0,6,0,,,,,,,,,,,,,,,,,,,,,,,,,,,,,,,,,,,,,,,,,,,,,471.3138608290001,471.3138608290001,471.3138608290001,right,1.5,1.4215805379999438,None,472.78296228399995,472.78296228399995,474.3165018519994,474.3165018519994,"[1, 3, 2]",0.7406171976781548,stimuli/card_10_transparent.png,150,10,474.3165018519994,474.6487835070002,,,,,,test,2023-07-12_15h56.02.394,slotMachine,2023.1.3,59.93826298983191,
,,,,4,0,4,0,7,0,7,0,,,,,,,,,,,,,,,,,,,,,,,,,,,,,,,,,,,,,,,,,,,,,474.6487835070002,474.6487835070002,474.6487835070002,right,1.0,3.1996698940001806,None,477.9001924989998,477.9001924989998,478.93134390999967,478.93134390999967,"[1, 3, 2]",0.3850882003843723,stimuli/card_10_transparent.png,160,10,478.93134390999967,479.24648591000005,,,,,,test,2023-07-12_15h56.02.394,slotMachine,2023.1.3,59.93826298983191,
,,,,4,0,4,0,8,0,8,0,,,,,,,,,,,,,,,,,,,,,,,,,,,,,,,,,,,,,,,,,,,,,479.24648591000005,479.24648591000005,479.24648591000005,right,0.5,0.8586066409998239,None,480.1507488999996,480.1507488999996,480.6806780070001,480.6806780070001,"[3, 2, 1]",0.9148747678501511,stimuli/card_100_transparent.png,260,100,480.6806780070001,480.9972588800001,,,,,,test,2023-07-12_15h56.02.394,slotMachine,2023.1.3,59.93826298983191,
,,,,4,0,4,0,9,0,9,0,,,,,,,,,,,,,,,,,,,,,,,,,,,,,,,,,,,,,,,,,,,,,480.9972588800001,480.9972588800001,480.9972588800001,right,1.0,3.1405182549997335,None,484.1960226780002,484.1960226780002,485.2118998830001,485.2118998830001,"[3, 2, 1]",0.23194759470908155,stimuli/card_100_transparent.png,360,100,485.2118998830001,485.527024738999,,,,,,test,2023-07-12_15h56.02.394,slotMachine,2023.1.3,59.93826298983191,
,,,,4,0,4,0,10,0,10,0,,,,,,,,,,,,,,,,,,,,,,,,,,,,,,,,,,,,,,,,,,,,,485.527024738999,485.527024738999,485.527024738999,right,0.5,0.05429893700147659,None,485.6140792819997,485.6140792819997,486.12680590199943,486.12680590199943,"[3, 2, 1]",0.22027834444069327,stimuli/card_100_transparent.png,460,100,486.12680590199943,486.4443050839991,,,,,,test,2023-07-12_15h56.02.394,slotMachine,2023.1.3,59.93826298983191,
,,,,4,0,4,0,11,0,11,0,,,,,,,,,,,,,,,,,,,,,,,,,,,,,,,,,,,,,,,,,,,,,486.4443050839991,486.4443050839991,486.4443050839991,right,1.0,1.4688244530016163,None,487.945740184,487.945740184,488.9606133949992,488.9606133949992,"[3, 2, 1]",0.7250061182143163,stimuli/card_100_transparent.png,560,100,488.9606133949992,489.2749745049996,,,,,,test,2023-07-12_15h56.02.394,slotMachine,2023.1.3,59.93826298983191,
,,,,4,0,4,0,12,0,12,0,,,,,,,,,,,,,,,,,,,,,,,,,,,,,,,,,,,,,,,,,,,,,489.2749745049996,489.2749745049996,489.2749745049996,right,0.5,0.3647919989989532,None,489.679736821,489.679736821,490.1924325650007,490.1924325650007,"[3, 2, 1]",0.0004401410734693467,stimuli/card_0_transparent.png,560,0,490.1924325650007,490.5064970680005,,,,,,test,2023-07-12_15h56.02.394,slotMachine,2023.1.3,59.93826298983191,
,,,,4,0,4,0,13,0,13,0,,,,,,,,,,,,,,,,,,,,,,,,,,,,,,,,,,,,,,,,,,,,,490.5064970680005,490.5064970680005,490.5064970680005,right,0.5,0.9506158920003145,None,491.49106850000044,491.49106850000044,492.01361532399915,492.01361532399915,"[3, 2, 1]",0.342959694811906,stimuli/card_100_transparent.png,660,100,492.01361532399915,492.3265103090007,,,,,,test,2023-07-12_15h56.02.394,slotMachine,2023.1.3,59.93826298983191,
,,,,4,0,4,0,14,0,14,0,,,,,,,,,,,,,,,,,,,,,,,,,,,,,,,,,,,,,,,,,,,,,492.3265103090007,492.3265103090007,492.3265103090007,None,1.5,,,,,,,,,,,,,,,,,,,test,2023-07-12_15h56.02.394,slotMachine,2023.1.3,59.93826298983191,
,,,,4,0,4,0,15,0,15,0,,,,,,,,,,,,,,,,,,,,,,,,,,,,,,,,,,,,,,,,,,,,,497.87270573300066,497.87270573300066,497.87270573300066,None,1.5,,,,,,,,,,,,,,,,,,,test,2023-07-12_15h56.02.394,slotMachine,2023.1.3,59.93826298983191,
,,,,4,0,4,0,16,0,16,0,,,,,,,,,,,,,,,,,,,,,,,,,,,,,,,,,,,,,,,,,,,,,503.4033423709998,503.4033423709998,503.4033423709998,right,0.5,1.7867836750001516,None,505.22640946699994,505.22640946699994,505.7457676589993,505.7457676589993,"[3, 2, 1]",0.38078990490662223,stimuli/card_100_transparent.png,760,100,505.7457676589993,506.06070819899924,,,,,,test,2023-07-12_15h56.02.394,slotMachine,2023.1.3,59.93826298983191,
,,,,4,0,4,0,17,0,17,0,,,,,,,,,,,,,,,,,,,,,,,,,,,,,,,,,,,,,,,,,,,,,506.06070819899924,506.06070819899924,506.06070819899924,right,1.0,0.39200546399933955,None,506.49831618900043,506.49831618900043,507.5284717259992,507.5284717259992,"[3, 2, 1]",0.9818091843926916,stimuli/card_100_transparent.png,860,100,507.5284717259992,507.84362097900066,,,,,,test,2023-07-12_15h56.02.394,slotMachine,2023.1.3,59.93826298983191,
,,,,4,0,4,0,18,0,18,0,,,,,,,,,,,,,,,,,,,,,,,,,,,,,,,,,,,,,,,,,,,,,507.84362097900066,507.84362097900066,507.84362097900066,left,1.0,1.3786644610017902,None,509.26242947800074,509.26242947800074,510.2757770950002,510.2757770950002,"[3, 2, 1]",0.5903304176798181,stimuli/card_0_transparent.png,860,0,510.2757770950002,510.5907614779999,,,,,,test,2023-07-12_15h56.02.394,slotMachine,2023.1.3,59.93826298983191,
,,,,4,0,4,0,19,0,19,0,,,,,,,,,,,,,,,,,,,,,,,,,,,,,,,,,,,,,,,,,,,,,510.5907614779999,510.5907614779999,510.5907614779999,right,1.0,0.14578475500002241,None,510.77712594700006,510.77712594700006,511.79431402200044,511.79431402200044,"[3, 2, 1]",0.5402320819730653,stimuli/card_100_transparent.png,960,100,511.79431402200044,512.0969508890003,,,,,,test,2023-07-12_15h56.02.394,slotMachine,2023.1.3,59.93826298983191,
,,,,4,0,4,0,,,,,,,,,,,,,,,,,,,,,,,,,,,,,,,,,,,,,,,,,,,,,,,,,,,,,,,,,,,,,,,,,,,512.0969508890003,517.1084122179991,,,,test,2023-07-12_15h56.02.394,slotMachine,2023.1.3,59.93826298983191,
,,,,5,0,5,0,0,0,0,0,,,,,,,,,,,,,,,,,,,,,,,,,,,,,,,,,,,,,,,,,,"[(7, 14, 20)]","(7, 14, 20)",[],517.1084122179991,517.1084122179991,517.1084122179991,right,1.0,2.88121085000148,None,520.0305623989998,520.0305623989998,521.0495311450004,521.0495311450004,"[2, 3, 1]",0.031007388402238933,stimuli/card_0_transparent.png,0,0,521.0495311450004,521.3736272809992,,,,,,test,2023-07-12_15h56.02.394,slotMachine,2023.1.3,59.93826298983191,
,,,,5,0,5,0,1,0,1,0,,,,,,,,,,,,,,,,,,,,,,,,,,,,,,,,,,,,,,,,,,,,,521.3736272809992,521.3736272809992,521.3736272809992,right,1.0,3.2200504639995415,None,524.6281878170003,524.6281878170003,525.6456616839996,525.6456616839996,"[2, 3, 1]",0.5287313081731598,stimuli/card_100_transparent.png,100,100,525.6456616839996,525.9594669629996,,,,,,test,2023-07-12_15h56.02.394,slotMachine,2023.1.3,59.93826298983191,
,,,,5,0,5,0,2,0,2,0,,,,,,,,,,,,,,,,,,,,,,,,,,,,,,,,,,,,,,,,,,,,,525.9594669629996,525.9594669629996,525.9594669629996,right,1.0,0.16172076199927687,None,526.1611361629994,526.1611361629994,527.1797756049991,527.1797756049991,"[2, 3, 1]",0.05401964453460717,stimuli/card_0_transparent.png,100,0,527.1797756049991,527.4921128819997,,,,,,test,2023-07-12_15h56.02.394,slotMachine,2023.1.3,59.93826298983191,
,,,,5,0,5,0,3,0,3,0,,,,,,,,,,,,,,,,,,,,,,,,,,,,,,,,,,,,,,,,,,,,,527.4921128819997,527.4921128819997,527.4921128819997,right,1.0,0.6686562450004203,None,528.1948846210007,528.1948846210007,529.215618887999,529.215618887999,"[2, 3, 1]",0.112107584172078,stimuli/card_10_transparent.png,110,10,529.215618887999,529.546111744,,,,,,test,2023-07-12_15h56.02.394,slotMachine,2023.1.3,59.93826298983191,
,,,,5,0,5,0,4,0,4,0,,,,,,,,,,,,,,,,,,,,,,,,,,,,,,,,,,,,,,,,,,,,,529.546111744,529.546111744,529.546111744,up,1.5,0.6860352290013907,None,530.2797505360004,530.2797505360004,531.7992617169994,531.7992617169994,"[2, 3, 1]",0.5335762330179769,stimuli/card_0_transparent.png,110,0,531.7992617169994,532.1275375150008,,,,,,test,2023-07-12_15h56.02.394,slotMachine,2023.1.3,59.93826298983191,
,,,,5,0,5,0,5,0,5,0,,,,,,,,,,,,,,,,,,,,,,,,,,,,,,,,,,,,,,,,,,,,,532.1275375150008,532.1275375150008,532.1275375150008,up,1.5,0.17187810599989461,None,532.3471062809995,532.3471062809995,533.862810177,533.862810177,"[2, 3, 1]",0.827577709283397,stimuli/card_0_transparent.png,110,0,533.862810177,534.1758059619997,,,,,,test,2023-07-12_15h56.02.394,slotMachine,2023.1.3,59.93826298983191,
,,,,5,0,5,0,6,0,6,0,,,,,,,,,,,,,,,,,,,,,,,,,,,,,,,,,,,,,,,,,,,,,534.1758059619997,534.1758059619997,534.1758059619997,None,1.0,,,,,,,,,,,,,,,,,,,test,2023-07-12_15h56.02.394,slotMachine,2023.1.3,59.93826298983191,
,,,,5,0,5,0,7,0,7,0,,,,,,,,,,,,,,,,,,,,,,,,,,,,,,,,,,,,,,,,,,,,,539.7335151979996,539.7335151979996,539.7335151979996,up,0.5,0.5631431069987229,None,540.3307167329995,540.3307167329995,540.8475805850003,540.8475805850003,"[2, 1, 3]",0.5639065952173123,stimuli/card_100_transparent.png,210,100,540.8475805850003,541.1795647129993,,,,,,test,2023-07-12_15h56.02.394,slotMachine,2023.1.3,59.93826298983191,
,,,,5,0,5,0,8,0,8,0,,,,,,,,,,,,,,,,,,,,,,,,,,,,,,,,,,,,,,,,,,,,,541.1795647129993,541.1795647129993,541.1795647129993,up,1.0,1.703607351001665,None,542.932352073999,542.932352073999,543.9632246770007,543.9632246770007,"[2, 1, 3]",0.0536854357296247,stimuli/card_0_transparent.png,210,0,543.9632246770007,544.2776359980007,,,,,,test,2023-07-12_15h56.02.394,slotMachine,2023.1.3,59.93826298983191,
,,,,5,0,5,0,9,0,9,0,,,,,,,,,,,,,,,,,,,,,,,,,,,,,,,,,,,,,,,,,,,,,544.2776359980007,544.2776359980007,544.2776359980007,up,1.5,1.9211877520001508,None,546.2471139899999,546.2471139899999,547.7627697039998,547.7627697039998,"[2, 1, 3]",0.8972880529693187,stimuli/card_100_transparent.png,310,100,547.7627697039998,548.0778696499992,,,,,,test,2023-07-12_15h56.02.394,slotMachine,2023.1.3,59.93826298983191,
,,,,5,0,5,0,10,0,10,0,,,,,,,,,,,,,,,,,,,,,,,,,,,,,,,,,,,,,,,,,,,,,548.0778696499992,548.0778696499992,548.0778696499992,up,1.0,2.69906936300049,None,550.8166600350005,550.8166600350005,551.8435645519994,551.8435645519994,"[2, 1, 3]",0.4307929446360732,stimuli/card_100_transparent.png,410,100,551.8435645519994,552.1594848350005,,,,,,test,2023-07-12_15h56.02.394,slotMachine,2023.1.3,59.93826298983191,
,,,,5,0,5,0,11,0,11,0,,,,,,,,,,,,,,,,,,,,,,,,,,,,,,,,,,,,,,,,,,,,,552.1594848350005,552.1594848350005,552.1594848350005,up,1.0,1.4060189660003743,None,553.6127404440003,553.6127404440003,554.6269065589995,554.6269065589995,"[2, 1, 3]",0.5508234808713289,stimuli/card_100_transparent.png,510,100,554.6269065589995,554.9421140730001,,,,,,test,2023-07-12_15h56.02.394,slotMachine,2023.1.3,59.93826298983191,
,,,,5,0,5,0,12,0,12,0,,,,,,,,,,,,,,,,,,,,,,,,,,,,,,,,,,,,,,,,,,,,,554.9421140730001,554.9421140730001,554.9421140730001,up,1.0,0.24272203500095202,None,555.2302111609997,555.2302111609997,556.2442850069992,556.2442850069992,"[2, 1, 3]",0.5026190057477011,stimuli/card_100_transparent.png,610,100,556.2442850069992,556.5580678920005,,,,,,test,2023-07-12_15h56.02.394,slotMachine,2023.1.3,59.93826298983191,
,,,,5,0,5,0,13,0,13,0,,,,,,,,,,,,,,,,,,,,,,,,,,,,,,,,,,,,,,,,,,,,,556.5580678920005,556.5580678920005,556.5580678920005,up,1.0,0.07201217700003326,None,556.6608956449991,556.6608956449991,557.6736937939995,557.6736937939995,"[2, 1, 3]",0.4440094094108855,stimuli/card_100_transparent.png,710,100,557.6736937939995,557.9899341819992,,,,,,test,2023-07-12_15h56.02.394,slotMachine,2023.1.3,59.93826298983191,
,,,,5,0,5,0,14,0,14,0,,,,,,,,,,,,,,,,,,,,,,,,,,,,,,,,,,,,,,,,,,,,,557.9899341819992,557.9899341819992,557.9899341819992,up,1.0,0.4808171409995339,None,558.5083203389995,558.5083203389995,559.5258385459992,559.5258385459992,"[1, 3, 2]",0.3483090527043462,stimuli/card_0_transparent.png,710,0,559.5258385459992,559.8370852340004,,,,,,test,2023-07-12_15h56.02.394,slotMachine,2023.1.3,59.93826298983191,
,,,,5,0,5,0,15,0,15,0,,,,,,,,,,,,,,,,,,,,,,,,,,,,,,,,,,,,,,,,,,,,,559.8370852340004,559.8370852340004,559.8370852340004,up,1.5,0.4667192970000542,None,560.3389072670006,560.3389072670006,561.8579506230008,561.8579506230008,"[1, 3, 2]",0.6509562331046284,stimuli/card_0_transparent.png,710,0,561.8579506230008,562.1752403580003,,,,,,test,2023-07-12_15h56.02.394,slotMachine,2023.1.3,59.93826298983191,
,,,,5,0,5,0,16,0,16,0,,,,,,,,,,,,,,,,,,,,,,,,,,,,,,,,,,,,,,,,,,,,,562.1752403580003,562.1752403580003,562.1752403580003,up,1.5,0.1445947479996903,None,562.3573770840003,562.3573770840003,563.8764132040005,563.8764132040005,"[1, 3, 2]",0.668358678007224,stimuli/card_0_transparent.png,710,0,563.8764132040005,564.1903151159995,,,,,,test,2023-07-12_15h56.02.394,slotMachine,2023.1.3,59.93826298983191,
,,,,5,0,5,0,17,0,17,0,,,,,,,,,,,,,,,,,,,,,,,,,,,,,,,,,,,,,,,,,,,,,564.1903151159995,564.1903151159995,564.1903151159995,up,1.0,1.896195283000452,None,566.1272174830001,566.1272174830001,567.1472679209992,567.1472679209992,"[1, 3, 2]",0.33114434326559605,stimuli/card_0_transparent.png,710,0,567.1472679209992,567.4790735559991,,,,,,test,2023-07-12_15h56.02.394,slotMachine,2023.1.3,59.93826298983191,
,,,,5,0,5,0,18,0,18,0,,,,,,,,,,,,,,,,,,,,,,,,,,,,,,,,,,,,,,,,,,,,,567.4790735559991,567.4790735559991,567.4790735559991,up,1.0,1.1658957270001338,None,568.6789034969997,568.6789034969997,569.6985430989998,569.6985430989998,"[1, 3, 2]",0.8916168141119609,stimuli/card_0_transparent.png,710,0,569.6985430989998,570.0311225180003,,,,,,test,2023-07-12_15h56.02.394,slotMachine,2023.1.3,59.93826298983191,
,,,,5,0,5,0,19,0,19,0,,,,,,,,,,,,,,,,,,,,,,,,,,,,,,,,,,,,,,,,,,,,,570.0311225180003,570.0311225180003,570.0311225180003,up,1.0,1.9389350639985423,None,572.0133851380006,572.0133851380006,573.0325715730005,573.0325715730005,"[1, 3, 2]",0.0990365941336594,stimuli/card_100_transparent.png,810,100,573.0325715730005,573.3461832099993,,,,,,test,2023-07-12_15h56.02.394,slotMachine,2023.1.3,59.93826298983191,
,,,,5,0,5,0,,,,,,,,,,,,,,,,,,,,,,,,,,,,,,,,,,,,,,,,,,,,,,,,,,,,,,,,,,,,,,,,,,,573.3461832099993,578.3463349000003,,,,test,2023-07-12_15h56.02.394,slotMachine,2023.1.3,59.93826298983191,
,,,,,,,,,,,,,,,,,,,,,,,,,,,,,,,,,,,,,,,,,,,,,,,,,,,,,,,,,,,,,,,,,,,,,,,,,,,,578.3463349000003,582.3464403600001,5,,,,,,
