key_resp_welcome_started,key_resp_welcome_keys,key_resp_welcome_rt,key_resp_welcome_duration,prolific_pid,path_id,date,expName,psychopyVersion,OS,frameRate,key_resp_instruction1_started,key_resp_instruction1_keys,key_resp_instruction1_rt,key_resp_instruction1_duration,key_resp_instruction2_started,key_resp_instruction2_keys,key_resp_instruction2_rt,key_resp_instruction2_duration,key_resp_instruction3_started,key_resp_instruction3_keys,key_resp_instruction3_rt,key_resp_instruction3_duration,key_resp_instruction4_started,key_resp_instruction4_keys,key_resp_instruction4_rt,key_resp_instruction4_duration,practiceCondition,practice_reward_seqs,practice_trial_started,practice_trial_num,practice_resp_rt,practice_keypress_time,practice_resp_keys,prac_presentationInterval,practice_reward_seq,reward_img,cumulative_reward,trial_reward,practice_trials.thisRepN,practice_trials.thisTrialN,practice_trials.thisN,practice_trials.thisIndex,practice_trials.ran,block_break_started,practice_end_time,practice_end_keys,practice_end_rt,practice_end_duration,main_instruction_text_started,block_condition,block_order_indices,main_instruction_keys,main_instruction_rt,main_instruction_duration,block_number,block_assignment,current_condition,main_reward_seqs,main_trial_started,main_trial_num,main_trial_keys,main_trial_rt,main_trial_keypress_time,main_presentationInterval,reward_presentation_time,main_reward_seq,reward_rand_val,main_reward_img,current_reward,main_trials.thisRepN,main_trials.thisTrialN,main_trials.thisN,main_trials.thisIndex,main_trials.ran,block_reward,block.thisRepN,block.thisTrialN,block.thisN,block.thisIndex,block.ran,block_reward.length,block_reward_all,reward_amount,date_end_task
0.0006,space,1.9101,,test,B,2024-08-16_12h04.07.794,Slot Machine Game,2023.1.3,MacIntel,59.17159763,,,,,,,,,,,,,,,,,,,,,,,,,,,,,,,,,,,,,,,,,,,,,,,,,,,,,,,,,,,,,,,,,,,,,,,,,,
,,,,test,B,2024-08-16_12h04.07.794,Slot Machine Game,2023.1.3,MacIntel,59.17159763,1.9366,space,0.4379,,,,,,,,,,,,,,,,,,,,,,,,,,,,,,,,,,,,,,,,,,,,,,,,,,,,,,,,,,,,,,,,,,,,,,,
,,,,test,B,2024-08-16_12h04.07.794,Slot Machine Game,2023.1.3,MacIntel,59.17159763,,,,,2.4084,space,0.0946,,,,,,,,,,,,,,,,,,,,,,,,,,,,,,,,,,,,,,,,,,,,,,,,,,,,,,,,,,,,,,,,,,,
,,,,test,B,2024-08-16_12h04.07.794,Slot Machine Game,2023.1.3,MacIntel,59.17159763,,,,,,,,,2.5493,space,0.3744,,,,,,,,,,,,,,,,,,,,,,,,,,,,,,,,,,,,,,,,,,,,,,,,,,,,,,,,,,,,,,,
,,,,test,B,2024-08-16_12h04.07.794,Slot Machine Game,2023.1.3,MacIntel,59.17159763,,,,,,,,,,,,,,,,,,,,,,,,,,,,,,,,,,,,,,,,,,,,,,,,,,,,,,,,,,,,,,,,,,,,,,,,,,
,,,,test,B,2024-08-16_12h04.07.794,Slot Machine Game,2023.1.3,MacIntel,59.17159763,,,,,,,,,,,,,174.0384,space,88.9755,,,,,,,,,,,,,,,,,,,,,,,,,,,,,,,,,,,,,,,,,,,,,,,,,,,,,,,,,,,
,,,,test,B,2024-08-16_12h04.07.794,Slot Machine Game,2023.1.3,MacIntel,59.17159763,,,,,,,,,,,,,,,,,"[9,15]","[[2,1,3],[2,3,1]]",263.0435,0,1.7035,264.7565,up,1.5,"[2,1,3]",stimuli/card_100_transparent.png,100,100,0,0,0,0,1,,,,,,,,,,,,,,,,,,,,,,,,,,,,,,,,,,,,,,,,,
,,,,test,B,2024-08-16_12h04.07.794,Slot Machine Game,2023.1.3,MacIntel,59.17159763,,,,,,,,,,,,,,,,,,,266.5461,1,0.5502,267.1201,up,0.5,"[2,1,3]",stimuli/card_100_transparent.png,200,100,1,0,1,0,1,,,,,,,,,,,,,,,,,,,,,,,,,,,,,,,,,,,,,,,,,
,,,,test,B,2024-08-16_12h04.07.794,Slot Machine Game,2023.1.3,MacIntel,59.17159763,,,,,,,,,,,,,,,,,,,267.9183,2,0.8177,268.7567,up,1,"[2,1,3]",stimuli/card_0_transparent.png,200,0,2,0,2,0,1,,,,,,,,,,,,,,,,,,,,,,,,,,,,,,,,,,,,,,,,,
,,,,test,B,2024-08-16_12h04.07.794,Slot Machine Game,2023.1.3,MacIntel,59.17159763,,,,,,,,,,,,,,,,,,,270.0423,3,0.519,270.5852,right,1,"[2,1,3]",stimuli/card_10_transparent.png,210,10,3,0,3,0,1,,,,,,,,,,,,,,,,,,,,,,,,,,,,,,,,,,,,,,,,,
,,,,test,B,2024-08-16_12h04.07.794,Slot Machine Game,2023.1.3,MacIntel,59.17159763,,,,,,,,,,,,,,,,,,,271.8725,4,1.0388,272.9249,left,1,"[2,1,3]",stimuli/card_10_transparent.png,220,10,4,0,4,0,1,,,,,,,,,,,,,,,,,,,,,,,,,,,,,,,,,,,,,,,,,
,,,,test,B,2024-08-16_12h04.07.794,Slot Machine Game,2023.1.3,MacIntel,59.17159763,,,,,,,,,,,,,,,,,,,274.2181,5,1.081,275.3287,up,0.5,"[2,1,3]",stimuli/card_100_transparent.png,320,100,5,0,5,0,1,,,,,,,,,,,,,,,,,,,,,,,,,,,,,,,,,,,,,,,,,
,,,,test,B,2024-08-16_12h04.07.794,Slot Machine Game,2023.1.3,MacIntel,59.17159763,,,,,,,,,,,,,,,,,,,276.1266,6,0.7329,276.8758,up,1.5,"[2,1,3]",stimuli/card_100_transparent.png,420,100,6,0,6,0,1,,,,,,,,,,,,,,,,,,,,,,,,,,,,,,,,,,,,,,,,,
,,,,test,B,2024-08-16_12h04.07.794,Slot Machine Game,2023.1.3,MacIntel,59.17159763,,,,,,,,,,,,,,,,,,,278.6663,7,1.1248,279.8142,up,0.5,"[2,1,3]",stimuli/card_100_transparent.png,520,100,7,0,7,0,1,,,,,,,,,,,,,,,,,,,,,,,,,,,,,,,,,,,,,,,,,
,,,,test,B,2024-08-16_12h04.07.794,Slot Machine Game,2023.1.3,MacIntel,59.17159763,,,,,,,,,,,,,,,,,,,280.609,8,0.9563,281.5928,up,0.5,"[2,1,3]",stimuli/card_100_transparent.png,620,100,8,0,8,0,1,,,,,,,,,,,,,,,,,,,,,,,,,,,,,,,,,,,,,,,,,
,,,,test,B,2024-08-16_12h04.07.794,Slot Machine Game,2023.1.3,MacIntel,59.17159763,,,,,,,,,,,,,,,,,,,282.3782,9,0.8483,283.2398,up,1.5,"[2,3,1]",stimuli/card_0_transparent.png,620,0,9,0,9,0,1,,,,,,,,,,,,,,,,,,,,,,,,,,,,,,,,,,,,,,,,,
,,,,test,B,2024-08-16_12h04.07.794,Slot Machine Game,2023.1.3,MacIntel,59.17159763,,,,,,,,,,,,,,,,,,,285.032,10,0.8953,285.951,up,1,"[2,3,1]",stimuli/card_0_transparent.png,620,0,10,0,10,0,1,,,,,,,,,,,,,,,,,,,,,,,,,,,,,,,,,,,,,,,,,
,,,,test,B,2024-08-16_12h04.07.794,Slot Machine Game,2023.1.3,MacIntel,59.17159763,,,,,,,,,,,,,,,,,,,287.2384,11,0.6966,287.946,up,1.5,"[2,3,1]",stimuli/card_0_transparent.png,620,0,11,0,11,0,1,,,,,,,,,,,,,,,,,,,,,,,,,,,,,,,,,,,,,,,,,
,,,,test,B,2024-08-16_12h04.07.794,Slot Machine Game,2023.1.3,MacIntel,59.17159763,,,,,,,,,,,,,,,,,,,289.7346,12,0.6341,290.3843,right,0.5,"[2,3,1]",stimuli/card_100_transparent.png,720,100,12,0,12,0,1,,,,,,,,,,,,,,,,,,,,,,,,,,,,,,,,,,,,,,,,,
,,,,test,B,2024-08-16_12h04.07.794,Slot Machine Game,2023.1.3,MacIntel,59.17159763,,,,,,,,,,,,,,,,,,,291.188,13,0.5641,291.7727,right,1,"[2,3,1]",stimuli/card_0_transparent.png,720,0,13,0,13,0,1,,,,,,,,,,,,,,,,,,,,,,,,,,,,,,,,,,,,,,,,,
,,,,test,B,2024-08-16_12h04.07.794,Slot Machine Game,2023.1.3,MacIntel,59.17159763,,,,,,,,,,,,,,,,,,,293.0667,14,0.9322,294.0168,right,0.5,"[2,3,1]",stimuli/card_100_transparent.png,820,100,14,0,14,0,1,,,,,,,,,,,,,,,,,,,,,,,,,,,,,,,,,,,,,,,,,
,,,,test,B,2024-08-16_12h04.07.794,Slot Machine Game,2023.1.3,MacIntel,59.17159763,,,,,,,,,,,,,,,,,"[6,15]","[[1,3,2],[3,1,2]]",299.7953,0,0.5459,300.373,up,1.5,"[1,3,2]",stimuli/card_0_transparent.png,0,0,0,0,0,0,1,294.7943,,,,,,,,,,,,,,,,,,,,,,,,,,,,,,,,,,,,,,,,
,,,,test,B,2024-08-16_12h04.07.794,Slot Machine Game,2023.1.3,MacIntel,59.17159763,,,,,,,,,,,,,,,,,,,302.1708,1,0.8755,303.06,right,1.5,"[1,3,2]",stimuli/card_10_transparent.png,10,10,1,0,1,0,1,,,,,,,,,,,,,,,,,,,,,,,,,,,,,,,,,,,,,,,,,
,,,,test,B,2024-08-16_12h04.07.794,Slot Machine Game,2023.1.3,MacIntel,59.17159763,,,,,,,,,,,,,,,,,,,304.8604,2,0.7266,305.6105,left,1.5,"[1,3,2]",stimuli/card_100_transparent.png,110,100,2,0,2,0,1,,,,,,,,,,,,,,,,,,,,,,,,,,,,,,,,,,,,,,,,,
,,,,test,B,2024-08-16_12h04.07.794,Slot Machine Game,2023.1.3,MacIntel,59.17159763,,,,,,,,,,,,,,,,,,,307.4114,3,0.6196,308.0603,left,1.5,"[1,3,2]",stimuli/card_100_transparent.png,210,100,3,0,3,0,1,,,,,,,,,,,,,,,,,,,,,,,,,,,,,,,,,,,,,,,,,
,,,,test,B,2024-08-16_12h04.07.794,Slot Machine Game,2023.1.3,MacIntel,59.17159763,,,,,,,,,,,,,,,,,,,309.8602,4,0.7571,310.6432,left,1,"[1,3,2]",stimuli/card_0_transparent.png,210,0,4,0,4,0,1,,,,,,,,,,,,,,,,,,,,,,,,,,,,,,,,,,,,,,,,,
,,,,test,B,2024-08-16_12h04.07.794,Slot Machine Game,2023.1.3,MacIntel,59.17159763,,,,,,,,,,,,,,,,,,,311.9245,5,0.9334,312.872,left,0.5,"[1,3,2]",stimuli/card_100_transparent.png,310,100,5,0,5,0,1,,,,,,,,,,,,,,,,,,,,,,,,,,,,,,,,,,,,,,,,,
,,,,test,B,2024-08-16_12h04.07.794,Slot Machine Game,2023.1.3,MacIntel,59.17159763,,,,,,,,,,,,,,,,,,,313.6625,6,0.703,314.3861,left,0.5,"[3,1,2]",stimuli/card_0_transparent.png,310,0,6,0,6,0,1,,,,,,,,,,,,,,,,,,,,,,,,,,,,,,,,,,,,,,,,,
,,,,test,B,2024-08-16_12h04.07.794,Slot Machine Game,2023.1.3,MacIntel,59.17159763,,,,,,,,,,,,,,,,,,,315.1882,7,0.884,316.0852,left,1,"[3,1,2]",stimuli/card_0_transparent.png,310,0,7,0,7,0,1,,,,,,,,,,,,,,,,,,,,,,,,,,,,,,,,,,,,,,,,,
,,,,test,B,2024-08-16_12h04.07.794,Slot Machine Game,2023.1.3,MacIntel,59.17159763,,,,,,,,,,,,,,,,,,,317.37,8,0.9475,318.3337,up,0.5,"[3,1,2]",stimuli/card_100_transparent.png,410,100,8,0,8,0,1,,,,,,,,,,,,,,,,,,,,,,,,,,,,,,,,,,,,,,,,,
,,,,test,B,2024-08-16_12h04.07.794,Slot Machine Game,2023.1.3,MacIntel,59.17159763,,,,,,,,,,,,,,,,,,,319.1285,9,0.7512,319.9099,up,1.5,"[3,1,2]",stimuli/card_100_transparent.png,510,100,9,0,9,0,1,,,,,,,,,,,,,,,,,,,,,,,,,,,,,,,,,,,,,,,,,
,,,,test,B,2024-08-16_12h04.07.794,Slot Machine Game,2023.1.3,MacIntel,59.17159763,,,,,,,,,,,,,,,,,,,321.7037,10,0.7303,322.4486,up,0.5,"[3,1,2]",stimuli/card_100_transparent.png,610,100,10,0,10,0,1,,,,,,,,,,,,,,,,,,,,,,,,,,,,,,,,,,,,,,,,,
,,,,test,B,2024-08-16_12h04.07.794,Slot Machine Game,2023.1.3,MacIntel,59.17159763,,,,,,,,,,,,,,,,,,,323.2345,11,0.5929,323.8413,up,0.5,"[3,1,2]",stimuli/card_100_transparent.png,710,100,11,0,11,0,1,,,,,,,,,,,,,,,,,,,,,,,,,,,,,,,,,,,,,,,,,
,,,,test,B,2024-08-16_12h04.07.794,Slot Machine Game,2023.1.3,MacIntel,59.17159763,,,,,,,,,,,,,,,,,,,324.6297,12,0.745,325.3961,up,1,"[3,1,2]",stimuli/card_100_transparent.png,810,100,12,0,12,0,1,,,,,,,,,,,,,,,,,,,,,,,,,,,,,,,,,,,,,,,,,
,,,,test,B,2024-08-16_12h04.07.794,Slot Machine Game,2023.1.3,MacIntel,59.17159763,,,,,,,,,,,,,,,,,,,326.6894,13,0.6624,327.3733,up,1,"[3,1,2]",stimuli/card_0_transparent.png,810,0,13,0,13,0,1,,,,,,,,,,,,,,,,,,,,,,,,,,,,,,,,,,,,,,,,,
,,,,test,B,2024-08-16_12h04.07.794,Slot Machine Game,2023.1.3,MacIntel,59.17159763,,,,,,,,,,,,,,,,,,,328.6624,14,0.8597,329.5321,up,1.5,"[3,1,2]",stimuli/card_100_transparent.png,910,100,14,0,14,0,1,,,,,,,,,,,,,,,,,,,,,,,,,,,,,,,,,,,,,,,,,
,,,,test,B,2024-08-16_12h04.07.794,Slot Machine Game,2023.1.3,MacIntel,59.17159763,,,,,,,,,,,,,,,,,,,,,,,,,,,,,,,,,,331.3331,336.3264,space,0.7393,,,,,,,,,,,,,,,,,,,,,,,,,,,,,,,,,,,,,
,,,,test,B,2024-08-16_12h04.07.794,Slot Machine Game,2023.1.3,MacIntel,59.17159763,,,,,,,,,,,,,,,,,,,,,,,,,,,,,,,,,,,,,,,337.0972,2,"[2,4,7,0,1,3,9,6,8,5]",space,0.5843,,,,,,,,,,,,,,,,,,,,,,,,,,,,,,,
,,,,test,B,2024-08-16_12h04.07.794,Slot Machine Game,2023.1.3,MacIntel,59.17159763,,,,,,,,,,,,,,,,,,,,,,,,,,,100,,,,,,,,,,,,,,,,,,1,3,"[15,15]","[[3,1,2],[3,1,2]]",337.7175,0,up,0.588,338.3209,1,0.3,"[3,1,2]",0.304862599,stimuli/card_100_transparent.png,100,0,0,0,0,1,,,,,,,,,,
,,,,test,B,2024-08-16_12h04.07.794,Slot Machine Game,2023.1.3,MacIntel,59.17159763,,,,,,,,,,,,,,,,,,,,,,,,,,,200,,,,,,,,,,,,,,,,,,1,3,,,339.6016,1,up,0.7942,340.4152,0.5,0.3,"[3,1,2]",0.405422068,stimuli/card_100_transparent.png,100,1,0,1,0,1,,,,,,,,,,
,,,,test,B,2024-08-16_12h04.07.794,Slot Machine Game,2023.1.3,MacIntel,59.17159763,,,,,,,,,,,,,,,,,,,,,,,,,,,200,,,,,,,,,,,,,,,,,,1,3,,,341.2076,2,up,0.7546,341.9922,1.5,0.3,"[3,1,2]",0.052819206,stimuli/card_0_transparent.png,0,2,0,2,0,1,,,,,,,,,,
,,,,test,B,2024-08-16_12h04.07.794,Slot Machine Game,2023.1.3,MacIntel,59.17159763,,,,,,,,,,,,,,,,,,,,,,,,,,,300,,,,,,,,,,,,,,,,,,1,3,,,343.7759,3,right,0.845,344.6439,1,0.3,"[3,1,2]",0.110901152,stimuli/card_100_transparent.png,100,3,0,3,0,1,,,,,,,,,,
,,,,test,B,2024-08-16_12h04.07.794,Slot Machine Game,2023.1.3,MacIntel,59.17159763,,,,,,,,,,,,,,,,,,,,,,,,,,,310,,,,,,,,,,,,,,,,,,1,3,,,345.9368,4,right,0.5779,346.5462,1,0.3,"[3,1,2]",0.307243613,stimuli/card_10_transparent.png,10,4,0,4,0,1,,,,,,,,,,
,,,,test,B,2024-08-16_12h04.07.794,Slot Machine Game,2023.1.3,MacIntel,59.17159763,,,,,,,,,,,,,,,,,,,,,,,,,,,310,,,,,,,,,,,,,,,,,,1,3,,,347.8412,5,left,0.5259,348.3897,1.5,0.3,"[3,1,2]",0.539944817,stimuli/card_0_transparent.png,0,5,0,5,0,1,,,,,,,,,,
,,,,test,B,2024-08-16_12h04.07.794,Slot Machine Game,2023.1.3,MacIntel,59.17159763,,,,,,,,,,,,,,,,,,,,,,,,,,,320,,,,,,,,,,,,,,,,,,1,3,,,350.183,6,right,0.651,350.8664,1.5,0.3,"[3,1,2]",0.923172183,stimuli/card_10_transparent.png,10,6,0,6,0,1,,,,,,,,,,
,,,,test,B,2024-08-16_12h04.07.794,Slot Machine Game,2023.1.3,MacIntel,59.17159763,,,,,,,,,,,,,,,,,,,,,,,,,,,420,,,,,,,,,,,,,,,,,,1,3,,,352.6579,7,up,0.7447,353.4197,0.5,0.3,"[3,1,2]",0.787823611,stimuli/card_100_transparent.png,100,7,0,7,0,1,,,,,,,,,,
,,,,test,B,2024-08-16_12h04.07.794,Slot Machine Game,2023.1.3,MacIntel,59.17159763,,,,,,,,,,,,,,,,,,,,,,,,,,,520,,,,,,,,,,,,,,,,,,1,3,,,354.2159,8,up,0.685,354.927,1.5,0.3,"[3,1,2]",0.337006031,stimuli/card_100_transparent.png,100,8,0,8,0,1,,,,,,,,,,
,,,,test,B,2024-08-16_12h04.07.794,Slot Machine Game,2023.1.3,MacIntel,59.17159763,,,,,,,,,,,,,,,,,,,,,,,,,,,620,,,,,,,,,,,,,,,,,,1,3,,,356.714,9,up,0.9411,357.6931,0.5,0.3,"[3,1,2]",0.922605595,stimuli/card_100_transparent.png,100,9,0,9,0,1,,,,,,,,,,
,,,,test,B,2024-08-16_12h04.07.794,Slot Machine Game,2023.1.3,MacIntel,59.17159763,,,,,,,,,,,,,,,,,,,,,,,,,,,720,,,,,,,,,,,,,,,,,,1,3,,,358.4879,10,up,0.6803,359.1913,0.5,0.3,"[3,1,2]",0.633585375,stimuli/card_100_transparent.png,100,10,0,10,0,1,,,,,,,,,,
,,,,test,B,2024-08-16_12h04.07.794,Slot Machine Game,2023.1.3,MacIntel,59.17159763,,,,,,,,,,,,,,,,,,,,,,,,,,,820,,,,,,,,,,,,,,,,,,1,3,,,359.9795,11,up,0.8133,360.8143,1,0.3,"[3,1,2]",0.436832345,stimuli/card_100_transparent.png,100,11,0,11,0,1,,,,,,,,,,
,,,,test,B,2024-08-16_12h04.07.794,Slot Machine Game,2023.1.3,MacIntel,59.17159763,,,,,,,,,,,,,,,,,,,,,,,,,,,820,,,,,,,,,,,,,,,,,,1,3,,,362.1093,12,up,0.5272,362.6489,0.5,0.3,"[3,1,2]",0.086664827,stimuli/card_0_transparent.png,0,12,0,12,0,1,,,,,,,,,,
,,,,test,B,2024-08-16_12h04.07.794,Slot Machine Game,2023.1.3,MacIntel,59.17159763,,,,,,,,,,,,,,,,,,,,,,,,,,,920,,,,,,,,,,,,,,,,,,1,3,,,363.4336,13,up,1.501,364.9545,1,0.3,"[3,1,2]",0.209225134,stimuli/card_100_transparent.png,100,13,0,13,0,1,,,,,,,,,,
,,,,test,B,2024-08-16_12h04.07.794,Slot Machine Game,2023.1.3,MacIntel,59.17159763,,,,,,,,,,,,,,,,,,,,,,,,,,,1020,,,,,,,,,,,,,,,,,,1,3,,,366.2404,14,up,0.531,366.8042,1.5,0.3,"[3,1,2]",0.961401241,stimuli/card_100_transparent.png,100,14,0,14,0,1,,,,,,,,,,
,,,,test,B,2024-08-16_12h04.07.794,Slot Machine Game,2023.1.3,MacIntel,59.17159763,,,,,,,,,,,,,,,,,,,,,,,,,,,,,,,,,,368.5908,,,,,,,,,,,,,,,,,,,,,,,,,,,,,,,[1020],0,0,0,0,1,,,,
,,,,test,B,2024-08-16_12h04.07.794,Slot Machine Game,2023.1.3,MacIntel,59.17159763,,,,,,,,,,,,,,,,,,,,,,,,,,,10,,,,,,,,,,,,,,,,,,2,5,"[5,15]","[[1,2,3],[3,1,2]]",373.5996,0,up,0.7979,374.4265,1,0.3,"[1,2,3]",0.766667449,stimuli/card_10_transparent.png,10,0,0,0,0,1,,,,,,,,,,
,,,,test,B,2024-08-16_12h04.07.794,Slot Machine Game,2023.1.3,MacIntel,59.17159763,,,,,,,,,,,,,,,,,,,,,,,,,,,10,,,,,,,,,,,,,,,,,,2,5,,,375.7024,1,right,0.5539,376.2719,1,0.3,"[1,2,3]",0.27210986,stimuli/card_0_transparent.png,0,1,0,1,0,1,,,,,,,,,,
,,,,test,B,2024-08-16_12h04.07.794,Slot Machine Game,2023.1.3,MacIntel,59.17159763,,,,,,,,,,,,,,,,,,,,,,,,,,,20,,,,,,,,,,,,,,,,,,2,5,,,377.5671,2,left,0.8361,378.4221,0.5,0.3,"[1,2,3]",0.190767451,stimuli/card_10_transparent.png,10,2,0,2,0,1,,,,,,,,,,
,,,,test,B,2024-08-16_12h04.07.794,Slot Machine Game,2023.1.3,MacIntel,59.17159763,,,,,,,,,,,,,,,,,,,,,,,,,,,20,,,,,,,,,,,,,,,,,,2,5,,,379.21,3,right,0.8181,380.0436,0.5,0.3,"[1,2,3]",0.929618819,stimuli/card_0_transparent.png,0,3,0,3,0,1,,,,,,,,,,
,,,,test,B,2024-08-16_12h04.07.794,Slot Machine Game,2023.1.3,MacIntel,59.17159763,,,,,,,,,,,,,,,,,,,,,,,,,,,120,,,,,,,,,,,,,,,,,,2,5,,,380.8355,4,left,0.6925,381.5438,1,0.3,"[1,2,3]",0.248989904,stimuli/card_100_transparent.png,100,4,0,4,0,1,,,,,,,,,,
,,,,test,B,2024-08-16_12h04.07.794,Slot Machine Game,2023.1.3,MacIntel,59.17159763,,,,,,,,,,,,,,,,,,,,,,,,,,,120,,,,,,,,,,,,,,,,,,2,5,,,382.837,5,left,0.6509,383.5121,1.5,0.3,"[3,1,2]",0.658255258,stimuli/card_0_transparent.png,0,5,0,5,0,1,,,,,,,,,,
,,,,test,B,2024-08-16_12h04.07.794,Slot Machine Game,2023.1.3,MacIntel,59.17159763,,,,,,,,,,,,,,,,,,,,,,,,,,,220,,,,,,,,,,,,,,,,,,2,5,,,385.2965,6,up,0.6299,385.9485,1,0.3,"[3,1,2]",0.8224342,stimuli/card_100_transparent.png,100,6,0,6,0,1,,,,,,,,,,
,,,,test,B,2024-08-16_12h04.07.794,Slot Machine Game,2023.1.3,MacIntel,59.17159763,,,,,,,,,,,,,,,,,,,,,,,,,,,320,,,,,,,,,,,,,,,,,,2,5,,,387.2434,7,up,0.7667,388.0339,1,0.3,"[3,1,2]",0.247120447,stimuli/card_100_transparent.png,100,7,0,7,0,1,,,,,,,,,,
,,,,test,B,2024-08-16_12h04.07.794,Slot Machine Game,2023.1.3,MacIntel,59.17159763,,,,,,,,,,,,,,,,,,,,,,,,,,,320,,,,,,,,,,,,,,,,,,2,5,,,389.3265,8,up,0.7096,390.0582,0.5,0.3,"[3,1,2]",0.055236841,stimuli/card_0_transparent.png,0,8,0,8,0,1,,,,,,,,,,
,,,,test,B,2024-08-16_12h04.07.794,Slot Machine Game,2023.1.3,MacIntel,59.17159763,,,,,,,,,,,,,,,,,,,,,,,,,,,330,,,,,,,,,,,,,,,,,,2,5,,,390.8537,9,right,0.9502,391.8284,1,0.3,"[3,1,2]",0.776542507,stimuli/card_10_transparent.png,10,9,0,9,0,1,,,,,,,,,,
,,,,test,B,2024-08-16_12h04.07.794,Slot Machine Game,2023.1.3,MacIntel,59.17159763,,,,,,,,,,,,,,,,,,,,,,,,,,,430,,,,,,,,,,,,,,,,,,2,5,,,393.1231,10,left,0.7841,393.9164,1,0.3,"[3,1,2]",0.041150056,stimuli/card_100_transparent.png,100,10,0,10,0,1,,,,,,,,,,
,,,,test,B,2024-08-16_12h04.07.794,Slot Machine Game,2023.1.3,MacIntel,59.17159763,,,,,,,,,,,,,,,,,,,,,,,,,,,430,,,,,,,,,,,,,,,,,,2,5,,,395.2106,11,left,1.0612,396.2791,1,0.3,"[3,1,2]",0.874034132,stimuli/card_0_transparent.png,0,11,0,11,0,1,,,,,,,,,,
,,,,test,B,2024-08-16_12h04.07.794,Slot Machine Game,2023.1.3,MacIntel,59.17159763,,,,,,,,,,,,,,,,,,,,,,,,,,,530,,,,,,,,,,,,,,,,,,2,5,,,397.5653,12,up,0.8746,398.4658,0.5,0.3,"[3,1,2]",0.627234487,stimuli/card_100_transparent.png,100,12,0,12,0,1,,,,,,,,,,
,,,,test,B,2024-08-16_12h04.07.794,Slot Machine Game,2023.1.3,MacIntel,59.17159763,,,,,,,,,,,,,,,,,,,,,,,,,,,630,,,,,,,,,,,,,,,,,,2,5,,,399.2573,13,up,0.6205,399.8857,1,0.3,"[3,1,2]",0.836377999,stimuli/card_100_transparent.png,100,13,0,13,0,1,,,,,,,,,,
,,,,test,B,2024-08-16_12h04.07.794,Slot Machine Game,2023.1.3,MacIntel,59.17159763,,,,,,,,,,,,,,,,,,,,,,,,,,,730,,,,,,,,,,,,,,,,,,2,5,,,401.1753,14,up,0.6451,401.8394,0.5,0.3,"[3,1,2]",0.530163929,stimuli/card_100_transparent.png,100,14,0,14,0,1,,,,,,,,,,
,,,,test,B,2024-08-16_12h04.07.794,Slot Machine Game,2023.1.3,MacIntel,59.17159763,,,,,,,,,,,,,,,,,,,,,,,,,,,,,,,,,,402.6291,,,,,,,,,,,,,,,,,,,,,,,,,,,,,,,"[1020,730]",1,0,1,0,1,,,,
,,,,test,B,2024-08-16_12h04.07.794,Slot Machine Game,2023.1.3,MacIntel,59.17159763,,,,,,,,,,,,,,,,,,,,,,,,,,,0,,,,,,,,,,,,,,,,,,3,8,"[11,15]","[[2,1,3],[1,2,3]]",407.6243,0,up,0.7255,408.3731,1,0.3,"[2,1,3]",0.069169641,stimuli/card_0_transparent.png,0,0,0,0,0,1,,,,,,,,,,
,,,,test,B,2024-08-16_12h04.07.794,Slot Machine Game,2023.1.3,MacIntel,59.17159763,,,,,,,,,,,,,,,,,,,,,,,,,,,0,,,,,,,,,,,,,,,,,,3,8,,,409.6572,1,right,0.5485,410.2297,0.5,0.3,"[2,1,3]",0.801171284,stimuli/card_0_transparent.png,0,1,0,1,0,1,,,,,,,,,,
,,,,test,B,2024-08-16_12h04.07.794,Slot Machine Game,2023.1.3,MacIntel,59.17159763,,,,,,,,,,,,,,,,,,,,,,,,,,,10,,,,,,,,,,,,,,,,,,3,8,,,411.0131,2,left,0.5395,411.5673,1.5,0.3,"[2,1,3]",0.799712531,stimuli/card_10_transparent.png,10,2,0,2,0,1,,,,,,,,,,
,,,,test,B,2024-08-16_12h04.07.794,Slot Machine Game,2023.1.3,MacIntel,59.17159763,,,,,,,,,,,,,,,,,,,,,,,,,,,110,,,,,,,,,,,,,,,,,,3,8,,,413.3529,3,up,0.5187,413.8904,0.5,0.3,"[2,1,3]",0.311266919,stimuli/card_100_transparent.png,100,3,0,3,0,1,,,,,,,,,,
,,,,test,B,2024-08-16_12h04.07.794,Slot Machine Game,2023.1.3,MacIntel,59.17159763,,,,,,,,,,,,,,,,,,,,,,,,,,,210,,,,,,,,,,,,,,,,,,3,8,,,414.6846,4,up,0.6942,415.4016,1.5,0.3,"[2,1,3]",0.344797952,stimuli/card_100_transparent.png,100,4,0,4,0,1,,,,,,,,,,
,,,,test,B,2024-08-16_12h04.07.794,Slot Machine Game,2023.1.3,MacIntel,59.17159763,,,,,,,,,,,,,,,,,,,,,,,,,,,310,,,,,,,,,,,,,,,,,,3,8,,,417.186,5,up,0.5004,417.7078,0.5,0.3,"[2,1,3]",0.875828616,stimuli/card_100_transparent.png,100,5,0,5,0,1,,,,,,,,,,
,,,,test,B,2024-08-16_12h04.07.794,Slot Machine Game,2023.1.3,MacIntel,59.17159763,,,,,,,,,,,,,,,,,,,,,,,,,,,410,,,,,,,,,,,,,,,,,,3,8,,,418.4934,6,up,0.8347,419.3429,1.5,0.3,"[2,1,3]",0.221719197,stimuli/card_100_transparent.png,100,6,0,6,0,1,,,,,,,,,,
,,,,test,B,2024-08-16_12h04.07.794,Slot Machine Game,2023.1.3,MacIntel,59.17159763,,,,,,,,,,,,,,,,,,,,,,,,,,,420,,,,,,,,,,,,,,,,,,3,8,,,421.1411,7,up,0.5335,421.7033,1,0.3,"[2,1,3]",0.148443766,stimuli/card_10_transparent.png,10,7,0,7,0,1,,,,,,,,,,
,,,,test,B,2024-08-16_12h04.07.794,Slot Machine Game,2023.1.3,MacIntel,59.17159763,,,,,,,,,,,,,,,,,,,,,,,,,,,420,,,,,,,,,,,,,,,,,,3,8,,,422.9856,8,right,0.5918,423.6014,1,0.3,"[2,1,3]",0.895590823,stimuli/card_0_transparent.png,0,8,0,8,0,1,,,,,,,,,,
,,,,test,B,2024-08-16_12h04.07.794,Slot Machine Game,2023.1.3,MacIntel,59.17159763,,,,,,,,,,,,,,,,,,,,,,,,,,,430,,,,,,,,,,,,,,,,,,3,8,,,424.898,9,left,0.6021,425.5248,1.5,0.3,"[2,1,3]",0.202088122,stimuli/card_10_transparent.png,10,9,0,9,0,1,,,,,,,,,,
,,,,test,B,2024-08-16_12h04.07.794,Slot Machine Game,2023.1.3,MacIntel,59.17159763,,,,,,,,,,,,,,,,,,,,,,,,,,,530,,,,,,,,,,,,,,,,,,3,8,,,427.3178,10,up,0.6903,428.0304,1,0.3,"[2,1,3]",0.805725261,stimuli/card_100_transparent.png,100,10,0,10,0,1,,,,,,,,,,
,,,,test,B,2024-08-16_12h04.07.794,Slot Machine Game,2023.1.3,MacIntel,59.17159763,,,,,,,,,,,,,,,,,,,,,,,,,,,540,,,,,,,,,,,,,,,,,,3,8,,,429.3186,11,up,0.6049,429.9527,0.5,0.3,"[1,2,3]",0.908471705,stimuli/card_10_transparent.png,10,11,0,11,0,1,,,,,,,,,,
,,,,test,B,2024-08-16_12h04.07.794,Slot Machine Game,2023.1.3,MacIntel,59.17159763,,,,,,,,,,,,,,,,,,,,,,,,,,,640,,,,,,,,,,,,,,,,,,3,8,,,430.7399,12,left,0.7481,431.503,0.5,0.3,"[1,2,3]",0.344705415,stimuli/card_100_transparent.png,100,12,0,12,0,1,,,,,,,,,,
,,,,test,B,2024-08-16_12h04.07.794,Slot Machine Game,2023.1.3,MacIntel,59.17159763,,,,,,,,,,,,,,,,,,,,,,,,,,,740,,,,,,,,,,,,,,,,,,3,8,,,432.2927,13,left,0.6347,432.9532,1.5,0.3,"[1,2,3]",0.869652914,stimuli/card_100_transparent.png,100,13,0,13,0,1,,,,,,,,,,
,,,,test,B,2024-08-16_12h04.07.794,Slot Machine Game,2023.1.3,MacIntel,59.17159763,,,,,,,,,,,,,,,,,,,,,,,,,,,840,,,,,,,,,,,,,,,,,,3,8,,,434.7343,14,left,0.6487,435.4049,0.5,0.3,"[1,2,3]",0.829098364,stimuli/card_100_transparent.png,100,14,0,14,0,1,,,,,,,,,,
,,,,test,B,2024-08-16_12h04.07.794,Slot Machine Game,2023.1.3,MacIntel,59.17159763,,,,,,,,,,,,,,,,,,,,,,,,,,,,,,,,,,436.1896,,,,,,,,,,,,,,,,,,,,,,,,,,,,,,,"[1020,730,840]",2,0,2,0,1,,,,
,,,,test,B,2024-08-16_12h04.07.794,Slot Machine Game,2023.1.3,MacIntel,59.17159763,,,,,,,,,,,,,,,,,,,,,,,,,,,0,,,,,,,,,,,,,,,,,,4,1,"[12,15]","[[2,1,3],[2,3,1]]",441.1928,0,right,0.7814,441.9883,0.5,0.3,"[2,1,3]",0.498453336,stimuli/card_0_transparent.png,0,0,0,0,0,1,,,,,,,,,,
,,,,test,B,2024-08-16_12h04.07.794,Slot Machine Game,2023.1.3,MacIntel,59.17159763,,,,,,,,,,,,,,,,,,,,,,,,,,,100,,,,,,,,,,,,,,,,,,4,1,,,442.776,1,up,0.5123,443.3093,1,0.3,"[2,1,3]",0.704983321,stimuli/card_100_transparent.png,100,1,0,1,0,1,,,,,,,,,,
,,,,test,B,2024-08-16_12h04.07.794,Slot Machine Game,2023.1.3,MacIntel,59.17159763,,,,,,,,,,,,,,,,,,,,,,,,,,,110,,,,,,,,,,,,,,,,,,4,1,,,444.6033,2,left,0.7006,445.3207,1.5,0.3,"[2,1,3]",0.605594145,stimuli/card_10_transparent.png,10,2,0,2,0,1,,,,,,,,,,
,,,,test,B,2024-08-16_12h04.07.794,Slot Machine Game,2023.1.3,MacIntel,59.17159763,,,,,,,,,,,,,,,,,,,,,,,,,,,210,,,,,,,,,,,,,,,,,,4,1,,,447.1211,3,up,0.6106,447.7413,0.5,0.3,"[2,1,3]",0.8335331,stimuli/card_100_transparent.png,100,3,0,3,0,1,,,,,,,,,,
,,,,test,B,2024-08-16_12h04.07.794,Slot Machine Game,2023.1.3,MacIntel,59.17159763,,,,,,,,,,,,,,,,,,,,,,,,,,,310,,,,,,,,,,,,,,,,,,4,1,,,448.5415,4,up,0.6011,449.1725,1,0.3,"[2,1,3]",0.751179011,stimuli/card_100_transparent.png,100,4,0,4,0,1,,,,,,,,,,
,,,,test,B,2024-08-16_12h04.07.794,Slot Machine Game,2023.1.3,MacIntel,59.17159763,,,,,,,,,,,,,,,,,,,,,,,,,,,410,,,,,,,,,,,,,,,,,,4,1,,,450.4708,5,up,0.5527,451.0545,1.5,0.3,"[2,1,3]",0.777639706,stimuli/card_100_transparent.png,100,5,0,5,0,1,,,,,,,,,,
,,,,test,B,2024-08-16_12h04.07.794,Slot Machine Game,2023.1.3,MacIntel,59.17159763,,,,,,,,,,,,,,,,,,,,,,,,,,,410,,,,,,,,,,,,,,,,,,4,1,,,452.8549,6,up,0.7685,453.6534,1.5,0.3,"[2,1,3]",0.060833599,stimuli/card_0_transparent.png,0,6,0,6,0,1,,,,,,,,,,
,,,,test,B,2024-08-16_12h04.07.794,Slot Machine Game,2023.1.3,MacIntel,59.17159763,,,,,,,,,,,,,,,,,,,,,,,,,,,410,,,,,,,,,,,,,,,,,,4,1,,,455.4445,7,up,1.0362,456.507,0.5,0.3,"[2,1,3]",0.034699349,stimuli/card_0_transparent.png,0,7,0,7,0,1,,,,,,,,,,
,,,,test,B,2024-08-16_12h04.07.794,Slot Machine Game,2023.1.3,MacIntel,59.17159763,,,,,,,,,,,,,,,,,,,,,,,,,,,,,,,,,,,,,,,,,,,,,4,1,,,457.3006,8,,,,1.5,0.3,,,,,8,0,8,0,1,,,,,,,,,,
,,,,test,B,2024-08-16_12h04.07.794,Slot Machine Game,2023.1.3,MacIntel,59.17159763,,,,,,,,,,,,,,,,,,,,,,,,,,,510,,,,,,,,,,,,,,,,,,4,1,,,462.8047,9,up,1.5149,464.3365,0.5,0.3,"[2,1,3]",0.274246515,stimuli/card_100_transparent.png,100,9,0,9,0,1,,,,,,,,,,
,,,,test,B,2024-08-16_12h04.07.794,Slot Machine Game,2023.1.3,MacIntel,59.17159763,,,,,,,,,,,,,,,,,,,,,,,,,,,610,,,,,,,,,,,,,,,,,,4,1,,,465.1363,10,up,0.5175,465.6858,1,0.3,"[2,1,3]",0.981919191,stimuli/card_100_transparent.png,100,10,0,10,0,1,,,,,,,,,,
,,,,test,B,2024-08-16_12h04.07.794,Slot Machine Game,2023.1.3,MacIntel,59.17159763,,,,,,,,,,,,,,,,,,,,,,,,,,,710,,,,,,,,,,,,,,,,,,4,1,,,466.9856,11,up,0.67,467.6697,1.5,0.3,"[2,1,3]",0.821055053,stimuli/card_100_transparent.png,100,11,0,11,0,1,,,,,,,,,,
,,,,test,B,2024-08-16_12h04.07.794,Slot Machine Game,2023.1.3,MacIntel,59.17159763,,,,,,,,,,,,,,,,,,,,,,,,,,,720,,,,,,,,,,,,,,,,,,4,1,,,469.472,12,up,0.8001,470.3042,1,0.3,"[2,3,1]",0.110646296,stimuli/card_10_transparent.png,10,12,0,12,0,1,,,,,,,,,,
,,,,test,B,2024-08-16_12h04.07.794,Slot Machine Game,2023.1.3,MacIntel,59.17159763,,,,,,,,,,,,,,,,,,,,,,,,,,,720,,,,,,,,,,,,,,,,,,4,1,,,471.6051,13,left,0.5498,472.187,0.5,0.3,"[2,3,1]",0.045207529,stimuli/card_0_transparent.png,0,13,0,13,0,1,,,,,,,,,,
,,,,test,B,2024-08-16_12h04.07.794,Slot Machine Game,2023.1.3,MacIntel,59.17159763,,,,,,,,,,,,,,,,,,,,,,,,,,,720,,,,,,,,,,,,,,,,,,4,1,,,472.9877,14,up,0.7589,473.7708,0.5,0.3,"[2,3,1]",0.872270099,stimuli/card_0_transparent.png,0,14,0,14,0,1,,,,,,,,,,
,,,,test,B,2024-08-16_12h04.07.794,Slot Machine Game,2023.1.3,MacIntel,59.17159763,,,,,,,,,,,,,,,,,,,,,,,,,,,,,,,,,,474.5714,,,,,,,,,,,,,,,,,,,,,,,,,,,,,,,"[1020,730,840,720]",3,0,3,0,1,,,,
,,,,test,B,2024-08-16_12h04.07.794,Slot Machine Game,2023.1.3,MacIntel,59.17159763,,,,,,,,,,,,,,,,,,,,,,,,,,,10,,,,,,,,,,,,,,,,,,5,2,"[6,15]","[[1,3,2],[3,2,1]]",479.5743,0,right,0.8183,480.4202,1,0.3,"[1,3,2]",0.543388599,stimuli/card_10_transparent.png,10,0,0,0,0,1,,,,,,,,,,
,,,,test,B,2024-08-16_12h04.07.794,Slot Machine Game,2023.1.3,MacIntel,59.17159763,,,,,,,,,,,,,,,,,,,,,,,,,,,10,,,,,,,,,,,,,,,,,,5,2,,,481.7207,1,up,0.713,482.4538,1,0.3,"[1,3,2]",0.820889017,stimuli/card_0_transparent.png,0,1,0,1,0,1,,,,,,,,,,
,,,,test,B,2024-08-16_12h04.07.794,Slot Machine Game,2023.1.3,MacIntel,59.17159763,,,,,,,,,,,,,,,,,,,,,,,,,,,110,,,,,,,,,,,,,,,,,,5,2,,,483.7536,2,left,1.0293,484.8009,0.5,0.3,"[1,3,2]",0.733926592,stimuli/card_100_transparent.png,100,2,0,2,0,1,,,,,,,,,,
,,,,test,B,2024-08-16_12h04.07.794,Slot Machine Game,2023.1.3,MacIntel,59.17159763,,,,,,,,,,,,,,,,,,,,,,,,,,,110,,,,,,,,,,,,,,,,,,5,2,,,485.5887,3,left,0.6792,486.2905,0.5,0.3,"[1,3,2]",0.031413788,stimuli/card_0_transparent.png,0,3,0,3,0,1,,,,,,,,,,
,,,,test,B,2024-08-16_12h04.07.794,Slot Machine Game,2023.1.3,MacIntel,59.17159763,,,,,,,,,,,,,,,,,,,,,,,,,,,110,,,,,,,,,,,,,,,,,,5,2,,,487.0696,4,left,1.0099,488.1013,1.5,0.3,"[1,3,2]",0.018431424,stimuli/card_0_transparent.png,0,4,0,4,0,1,,,,,,,,,,
,,,,test,B,2024-08-16_12h04.07.794,Slot Machine Game,2023.1.3,MacIntel,59.17159763,,,,,,,,,,,,,,,,,,,,,,,,,,,110,,,,,,,,,,,,,,,,,,5,2,,,489.8959,5,up,0.6716,490.5776,1.5,0.3,"[1,3,2]",0.854251382,stimuli/card_0_transparent.png,0,5,0,5,0,1,,,,,,,,,,
,,,,test,B,2024-08-16_12h04.07.794,Slot Machine Game,2023.1.3,MacIntel,59.17159763,,,,,,,,,,,,,,,,,,,,,,,,,,,210,,,,,,,,,,,,,,,,,,5,2,,,492.3718,6,right,0.6457,493.0392,0.5,0.3,"[3,2,1]",0.207324718,stimuli/card_100_transparent.png,100,6,0,6,0,1,,,,,,,,,,
,,,,test,B,2024-08-16_12h04.07.794,Slot Machine Game,2023.1.3,MacIntel,59.17159763,,,,,,,,,,,,,,,,,,,,,,,,,,,310,,,,,,,,,,,,,,,,,,5,2,,,493.8295,7,right,0.8961,494.7596,0.5,0.3,"[3,2,1]",0.215184224,stimuli/card_100_transparent.png,100,7,0,7,0,1,,,,,,,,,,
,,,,test,B,2024-08-16_12h04.07.794,Slot Machine Game,2023.1.3,MacIntel,59.17159763,,,,,,,,,,,,,,,,,,,,,,,,,,,410,,,,,,,,,,,,,,,,,,5,2,,,495.5543,8,right,0.8887,496.4591,1.5,0.3,"[3,2,1]",0.403674929,stimuli/card_100_transparent.png,100,8,0,8,0,1,,,,,,,,,,
,,,,test,B,2024-08-16_12h04.07.794,Slot Machine Game,2023.1.3,MacIntel,59.17159763,,,,,,,,,,,,,,,,,,,,,,,,,,,510,,,,,,,,,,,,,,,,,,5,2,,,498.249,9,right,0.7487,499.0052,1.5,0.3,"[3,2,1]",0.676614421,stimuli/card_100_transparent.png,100,9,0,9,0,1,,,,,,,,,,
,,,,test,B,2024-08-16_12h04.07.794,Slot Machine Game,2023.1.3,MacIntel,59.17159763,,,,,,,,,,,,,,,,,,,,,,,,,,,610,,,,,,,,,,,,,,,,,,5,2,,,500.808,10,right,0.7589,501.5894,0.5,0.3,"[3,2,1]",0.946410817,stimuli/card_100_transparent.png,100,10,0,10,0,1,,,,,,,,,,
,,,,test,B,2024-08-16_12h04.07.794,Slot Machine Game,2023.1.3,MacIntel,59.17159763,,,,,,,,,,,,,,,,,,,,,,,,,,,710,,,,,,,,,,,,,,,,,,5,2,,,502.3794,11,right,0.7612,503.1598,0.5,0.3,"[3,2,1]",0.952497483,stimuli/card_100_transparent.png,100,11,0,11,0,1,,,,,,,,,,
,,,,test,B,2024-08-16_12h04.07.794,Slot Machine Game,2023.1.3,MacIntel,59.17159763,,,,,,,,,,,,,,,,,,,,,,,,,,,810,,,,,,,,,,,,,,,,,,5,2,,,503.942,12,right,0.6154,504.5722,1.5,0.3,"[3,2,1]",0.332986643,stimuli/card_100_transparent.png,100,12,0,12,0,1,,,,,,,,,,
,,,,test,B,2024-08-16_12h04.07.794,Slot Machine Game,2023.1.3,MacIntel,59.17159763,,,,,,,,,,,,,,,,,,,,,,,,,,,910,,,,,,,,,,,,,,,,,,5,2,,,506.3684,13,right,0.8333,507.2249,1,0.3,"[3,2,1]",0.577215603,stimuli/card_100_transparent.png,100,13,0,13,0,1,,,,,,,,,,
,,,,test,B,2024-08-16_12h04.07.794,Slot Machine Game,2023.1.3,MacIntel,59.17159763,,,,,,,,,,,,,,,,,,,,,,,,,,,1010,,,,,,,,,,,,,,,,,,5,2,,,508.5121,14,right,0.5869,509.127,1,0.3,"[3,2,1]",0.382181335,stimuli/card_100_transparent.png,100,14,0,14,0,1,,,,,,,,,,
,,,,test,B,2024-08-16_12h04.07.794,Slot Machine Game,2023.1.3,MacIntel,59.17159763,,,,,,,,,,,,,,,,,,,,,,,,,,,,,,,,,,510.4182,,,,,,,,,,,,,,,,,,,,,,,,,,,,,,,"[1020,730,840,720,1010]",4,0,4,0,1,,,,
,,,,test,B,2024-08-16_12h04.07.794,Slot Machine Game,2023.1.3,MacIntel,59.17159763,,,,,,,,,,,,,,,,,,,,,,,,,,,0,,,,,,,,,,,,,,,,,,6,4,"[7,15]","[[2,3,1],[1,2,3]]",515.4162,0,up,0.5674,515.999,1,0.3,"[2,3,1]",0.655560184,stimuli/card_0_transparent.png,0,0,0,0,0,1,,,,,,,,,,
,,,,test,B,2024-08-16_12h04.07.794,Slot Machine Game,2023.1.3,MacIntel,59.17159763,,,,,,,,,,,,,,,,,,,,,,,,,,,10,,,,,,,,,,,,,,,,,,6,4,,,517.2964,1,left,0.6954,518.0087,1.5,0.3,"[2,3,1]",0.666805958,stimuli/card_10_transparent.png,10,1,0,1,0,1,,,,,,,,,,
,,,,test,B,2024-08-16_12h04.07.794,Slot Machine Game,2023.1.3,MacIntel,59.17159763,,,,,,,,,,,,,,,,,,,,,,,,,,,110,,,,,,,,,,,,,,,,,,6,4,,,519.8058,2,right,0.6792,520.5078,0.5,0.3,"[2,3,1]",0.81876817,stimuli/card_100_transparent.png,100,2,0,2,0,1,,,,,,,,,,
,,,,test,B,2024-08-16_12h04.07.794,Slot Machine Game,2023.1.3,MacIntel,59.17159763,,,,,,,,,,,,,,,,,,,,,,,,,,,210,,,,,,,,,,,,,,,,,,6,4,,,521.3012,3,right,0.7924,522.1176,1.5,0.3,"[2,3,1]",0.294517684,stimuli/card_100_transparent.png,100,3,0,3,0,1,,,,,,,,,,
,,,,test,B,2024-08-16_12h04.07.794,Slot Machine Game,2023.1.3,MacIntel,59.17159763,,,,,,,,,,,,,,,,,,,,,,,,,,,210,,,,,,,,,,,,,,,,,,6,4,,,523.8988,4,right,0.6372,524.5595,0.5,0.3,"[2,3,1]",0.02143412,stimuli/card_0_transparent.png,0,4,0,4,0,1,,,,,,,,,,
,,,,test,B,2024-08-16_12h04.07.794,Slot Machine Game,2023.1.3,MacIntel,59.17159763,,,,,,,,,,,,,,,,,,,,,,,,,,,310,,,,,,,,,,,,,,,,,,6,4,,,525.3533,5,right,1.1852,526.5546,1.5,0.3,"[2,3,1]",0.91820149,stimuli/card_100_transparent.png,100,5,0,5,0,1,,,,,,,,,,
,,,,test,B,2024-08-16_12h04.07.794,Slot Machine Game,2023.1.3,MacIntel,59.17159763,,,,,,,,,,,,,,,,,,,,,,,,,,,310,,,,,,,,,,,,,,,,,,6,4,,,528.3414,6,right,0.8129,529.18,1.5,0.3,"[2,3,1]",0.033082991,stimuli/card_0_transparent.png,0,6,0,6,0,1,,,,,,,,,,
,,,,test,B,2024-08-16_12h04.07.794,Slot Machine Game,2023.1.3,MacIntel,59.17159763,,,,,,,,,,,,,,,,,,,,,,,,,,,310,,,,,,,,,,,,,,,,,,6,4,,,530.9654,7,right,0.6159,531.603,1.5,0.3,"[1,2,3]",0.941086204,stimuli/card_0_transparent.png,0,7,0,7,0,1,,,,,,,,,,
,,,,test,B,2024-08-16_12h04.07.794,Slot Machine Game,2023.1.3,MacIntel,59.17159763,,,,,,,,,,,,,,,,,,,,,,,,,,,320,,,,,,,,,,,,,,,,,,6,4,,,533.3829,8,up,0.5308,533.932,0.5,0.3,"[1,2,3]",0.346839775,stimuli/card_10_transparent.png,10,8,0,8,0,1,,,,,,,,,,
,,,,test,B,2024-08-16_12h04.07.794,Slot Machine Game,2023.1.3,MacIntel,59.17159763,,,,,,,,,,,,,,,,,,,,,,,,,,,330,,,,,,,,,,,,,,,,,,6,4,,,534.7158,9,left,0.7084,535.4446,0.5,0.3,"[1,2,3]",0.106070086,stimuli/card_10_transparent.png,10,9,0,9,0,1,,,,,,,,,,
,,,,test,B,2024-08-16_12h04.07.794,Slot Machine Game,2023.1.3,MacIntel,59.17159763,,,,,,,,,,,,,,,,,,,,,,,,,,,340,,,,,,,,,,,,,,,,,,6,4,,,536.2349,10,up,0.8443,537.093,1.5,0.3,"[1,2,3]",0.439683058,stimuli/card_10_transparent.png,10,10,0,10,0,1,,,,,,,,,,
,,,,test,B,2024-08-16_12h04.07.794,Slot Machine Game,2023.1.3,MacIntel,59.17159763,,,,,,,,,,,,,,,,,,,,,,,,,,,440,,,,,,,,,,,,,,,,,,6,4,,,538.8829,11,left,0.7918,539.6991,1,0.3,"[1,2,3]",0.585631303,stimuli/card_100_transparent.png,100,11,0,11,0,1,,,,,,,,,,
,,,,test,B,2024-08-16_12h04.07.794,Slot Machine Game,2023.1.3,MacIntel,59.17159763,,,,,,,,,,,,,,,,,,,,,,,,,,,440,,,,,,,,,,,,,,,,,,6,4,,,540.9984,12,right,0.6901,541.699,1,0.3,"[1,2,3]",0.289350544,stimuli/card_0_transparent.png,0,12,0,12,0,1,,,,,,,,,,
,,,,test,B,2024-08-16_12h04.07.794,Slot Machine Game,2023.1.3,MacIntel,59.17159763,,,,,,,,,,,,,,,,,,,,,,,,,,,450,,,,,,,,,,,,,,,,,,6,4,,,542.998,13,up,0.8671,543.8974,1,0.3,"[1,2,3]",0.362827969,stimuli/card_10_transparent.png,10,13,0,13,0,1,,,,,,,,,,
,,,,test,B,2024-08-16_12h04.07.794,Slot Machine Game,2023.1.3,MacIntel,59.17159763,,,,,,,,,,,,,,,,,,,,,,,,,,,450,,,,,,,,,,,,,,,,,,6,4,,,545.1953,14,right,1.0549,546.2613,1,0.3,"[1,2,3]",0.879340027,stimuli/card_0_transparent.png,0,14,0,14,0,1,,,,,,,,,,
,,,,test,B,2024-08-16_12h04.07.794,Slot Machine Game,2023.1.3,MacIntel,59.17159763,,,,,,,,,,,,,,,,,,,,,,,,,,,,,,,,,,547.563,,,,,,,,,,,,,,,,,,,,,,,,,,,,,,,"[1020,730,840,720,1010,450]",5,0,5,0,1,,,,
,,,,test,B,2024-08-16_12h04.07.794,Slot Machine Game,2023.1.3,MacIntel,59.17159763,,,,,,,,,,,,,,,,,,,,,,,,,,,0,,,,,,,,,,,,,,,,,,7,10,"[10,15]","[[3,1,2],[1,3,2]]",552.5645,0,left,0.8692,553.4617,1.5,0.3,"[3,1,2]",0.506595102,stimuli/card_0_transparent.png,0,0,0,0,0,1,,,,,,,,,,
,,,,test,B,2024-08-16_12h04.07.794,Slot Machine Game,2023.1.3,MacIntel,59.17159763,,,,,,,,,,,,,,,,,,,,,,,,,,,0,,,,,,,,,,,,,,,,,,7,10,,,555.2623,1,up,0.5169,555.812,1,0.3,"[3,1,2]",0.005577432,stimuli/card_0_transparent.png,0,1,0,1,0,1,,,,,,,,,,
,,,,test,B,2024-08-16_12h04.07.794,Slot Machine Game,2023.1.3,MacIntel,59.17159763,,,,,,,,,,,,,,,,,,,,,,,,,,,10,,,,,,,,,,,,,,,,,,7,10,,,557.1119,2,right,0.6068,557.744,1.5,0.3,"[3,1,2]",0.726187762,stimuli/card_10_transparent.png,10,2,0,2,0,1,,,,,,,,,,
,,,,test,B,2024-08-16_12h04.07.794,Slot Machine Game,2023.1.3,MacIntel,59.17159763,,,,,,,,,,,,,,,,,,,,,,,,,,,110,,,,,,,,,,,,,,,,,,7,10,,,559.5453,3,up,0.7017,560.2777,0.5,0.3,"[3,1,2]",0.426290246,stimuli/card_100_transparent.png,100,3,0,3,0,1,,,,,,,,,,
,,,,test,B,2024-08-16_12h04.07.794,Slot Machine Game,2023.1.3,MacIntel,59.17159763,,,,,,,,,,,,,,,,,,,,,,,,,,,210,,,,,,,,,,,,,,,,,,7,10,,,561.0772,4,up,0.6,561.6948,1.5,0.3,"[3,1,2]",0.985833782,stimuli/card_100_transparent.png,100,4,0,4,0,1,,,,,,,,,,
,,,,test,B,2024-08-16_12h04.07.794,Slot Machine Game,2023.1.3,MacIntel,59.17159763,,,,,,,,,,,,,,,,,,,,,,,,,,,310,,,,,,,,,,,,,,,,,,7,10,,,563.4949,5,up,0.5592,564.0618,1,0.3,"[3,1,2]",0.898703292,stimuli/card_100_transparent.png,100,5,0,5,0,1,,,,,,,,,,
,,,,test,B,2024-08-16_12h04.07.794,Slot Machine Game,2023.1.3,MacIntel,59.17159763,,,,,,,,,,,,,,,,,,,,,,,,,,,410,,,,,,,,,,,,,,,,,,7,10,,,565.3621,6,up,0.5166,565.9118,0.5,0.3,"[3,1,2]",0.683526666,stimuli/card_100_transparent.png,100,6,0,6,0,1,,,,,,,,,,
,,,,test,B,2024-08-16_12h04.07.794,Slot Machine Game,2023.1.3,MacIntel,59.17159763,,,,,,,,,,,,,,,,,,,,,,,,,,,510,,,,,,,,,,,,,,,,,,7,10,,,566.7121,7,up,0.6171,567.3607,1,0.3,"[3,1,2]",0.484312322,stimuli/card_100_transparent.png,100,7,0,7,0,1,,,,,,,,,,
,,,,test,B,2024-08-16_12h04.07.794,Slot Machine Game,2023.1.3,MacIntel,59.17159763,,,,,,,,,,,,,,,,,,,,,,,,,,,520,,,,,,,,,,,,,,,,,,7,10,,,568.6621,8,up,0.6074,569.2948,1,0.3,"[3,1,2]",0.155832884,stimuli/card_10_transparent.png,10,8,0,8,0,1,,,,,,,,,,
,,,,test,B,2024-08-16_12h04.07.794,Slot Machine Game,2023.1.3,MacIntel,59.17159763,,,,,,,,,,,,,,,,,,,,,,,,,,,520,,,,,,,,,,,,,,,,,,7,10,,,570.5953,9,left,0.5593,571.1771,0.5,0.3,"[3,1,2]",0.897449951,stimuli/card_0_transparent.png,0,9,0,9,0,1,,,,,,,,,,
,,,,test,B,2024-08-16_12h04.07.794,Slot Machine Game,2023.1.3,MacIntel,59.17159763,,,,,,,,,,,,,,,,,,,,,,,,,,,520,,,,,,,,,,,,,,,,,,7,10,,,571.9782,10,up,0.5977,572.5943,1,0.3,"[1,3,2]",0.908789107,stimuli/card_0_transparent.png,0,10,0,10,0,1,,,,,,,,,,
,,,,test,B,2024-08-16_12h04.07.794,Slot Machine Game,2023.1.3,MacIntel,59.17159763,,,,,,,,,,,,,,,,,,,,,,,,,,,530,,,,,,,,,,,,,,,,,,7,10,,,573.8948,11,right,0.523,574.427,1,0.3,"[1,3,2]",0.206523214,stimuli/card_10_transparent.png,10,11,0,11,0,1,,,,,,,,,,
,,,,test,B,2024-08-16_12h04.07.794,Slot Machine Game,2023.1.3,MacIntel,59.17159763,,,,,,,,,,,,,,,,,,,,,,,,,,,540,,,,,,,,,,,,,,,,,,7,10,,,575.7289,12,right,0.734,576.4951,1.5,0.3,"[1,3,2]",0.799079784,stimuli/card_10_transparent.png,10,12,0,12,0,1,,,,,,,,,,
,,,,test,B,2024-08-16_12h04.07.794,Slot Machine Game,2023.1.3,MacIntel,59.17159763,,,,,,,,,,,,,,,,,,,,,,,,,,,540,,,,,,,,,,,,,,,,,,7,10,,,578.2937,13,up,0.8827,579.1945,1,0.3,"[1,3,2]",0.347903844,stimuli/card_0_transparent.png,0,13,0,13,0,1,,,,,,,,,,
,,,,test,B,2024-08-16_12h04.07.794,Slot Machine Game,2023.1.3,MacIntel,59.17159763,,,,,,,,,,,,,,,,,,,,,,,,,,,640,,,,,,,,,,,,,,,,,,7,10,,,580.4934,14,left,0.9427,581.4615,1,0.3,"[1,3,2]",0.916277791,stimuli/card_100_transparent.png,100,14,0,14,0,1,,,,,,,,,,
,,,,test,B,2024-08-16_12h04.07.794,Slot Machine Game,2023.1.3,MacIntel,59.17159763,,,,,,,,,,,,,,,,,,,,,,,,,,,,,,,,,,582.7616,,,,,,,,,,,,,,,,,,,,,,,,,,,,,,,"[1020,730,840,720,1010,450,640]",6,0,6,0,1,,,,
,,,,test,B,2024-08-16_12h04.07.794,Slot Machine Game,2023.1.3,MacIntel,59.17159763,,,,,,,,,,,,,,,,,,,,,,,,,,,100,,,,,,,,,,,,,,,,,,8,7,"[9,15]","[[1,3,2],[2,3,1]]",587.7635,0,left,2.4576,590.2436,1.5,0.3,"[1,3,2]",0.30864864,stimuli/card_100_transparent.png,100,0,0,0,0,1,,,,,,,,,,
,,,,test,B,2024-08-16_12h04.07.794,Slot Machine Game,2023.1.3,MacIntel,59.17159763,,,,,,,,,,,,,,,,,,,,,,,,,,,200,,,,,,,,,,,,,,,,,,8,7,,,592.0441,1,left,2.718,594.7942,0.5,0.3,"[1,3,2]",0.882969206,stimuli/card_100_transparent.png,100,1,0,1,0,1,,,,,,,,,,
,,,,test,B,2024-08-16_12h04.07.794,Slot Machine Game,2023.1.3,MacIntel,59.17159763,,,,,,,,,,,,,,,,,,,,,,,,,,,200,,,,,,,,,,,,,,,,,,8,7,,,595.5946,2,left,1.9728,597.5934,1,0.3,"[1,3,2]",0.065516289,stimuli/card_0_transparent.png,0,2,0,2,0,1,,,,,,,,,,
,,,,test,B,2024-08-16_12h04.07.794,Slot Machine Game,2023.1.3,MacIntel,59.17159763,,,,,,,,,,,,,,,,,,,,,,,,,,,210,,,,,,,,,,,,,,,,,,8,7,,,598.8947,3,up,1.9511,600.8766,1,0.3,"[1,3,2]",0.189562593,stimuli/card_10_transparent.png,10,3,0,3,0,1,,,,,,,,,,
,,,,test,B,2024-08-16_12h04.07.794,Slot Machine Game,2023.1.3,MacIntel,59.17159763,,,,,,,,,,,,,,,,,,,,,,,,,,,210,,,,,,,,,,,,,,,,,,8,7,,,602.1612,4,up,0.5136,602.7097,1.5,0.3,"[1,3,2]",0.852573891,stimuli/card_0_transparent.png,0,4,0,4,0,1,,,,,,,,,,
,,,,test,B,2024-08-16_12h04.07.794,Slot Machine Game,2023.1.3,MacIntel,59.17159763,,,,,,,,,,,,,,,,,,,,,,,,,,,210,,,,,,,,,,,,,,,,,,8,7,,,604.4935,5,up,2.8719,607.3944,1.5,0.3,"[1,3,2]",0.455663837,stimuli/card_0_transparent.png,0,5,0,5,0,1,,,,,,,,,,
,,,,test,B,2024-08-16_12h04.07.794,Slot Machine Game,2023.1.3,MacIntel,59.17159763,,,,,,,,,,,,,,,,,,,,,,,,,,,210,,,,,,,,,,,,,,,,,,8,7,,,609.1922,6,up,0.5838,609.7965,0.5,0.3,"[1,3,2]",0.387791521,stimuli/card_0_transparent.png,0,6,0,6,0,1,,,,,,,,,,
,,,,test,B,2024-08-16_12h04.07.794,Slot Machine Game,2023.1.3,MacIntel,59.17159763,,,,,,,,,,,,,,,,,,,,,,,,,,,210,,,,,,,,,,,,,,,,,,8,7,,,610.5981,7,up,0.7296,611.3478,1.5,0.3,"[1,3,2]",0.391911824,stimuli/card_0_transparent.png,0,7,0,7,0,1,,,,,,,,,,
,,,,test,B,2024-08-16_12h04.07.794,Slot Machine Game,2023.1.3,MacIntel,59.17159763,,,,,,,,,,,,,,,,,,,,,,,,,,,210,,,,,,,,,,,,,,,,,,8,7,,,613.1301,8,up,1.5237,614.6816,0.5,0.3,"[1,3,2]",0.551301933,stimuli/card_0_transparent.png,0,8,0,8,0,1,,,,,,,,,,
,,,,test,B,2024-08-16_12h04.07.794,Slot Machine Game,2023.1.3,MacIntel,59.17159763,,,,,,,,,,,,,,,,,,,,,,,,,,,210,,,,,,,,,,,,,,,,,,8,7,,,615.4775,9,up,2.3365,617.8324,1.5,0.3,"[2,3,1]",0.299582963,stimuli/card_0_transparent.png,0,9,0,9,0,1,,,,,,,,,,
,,,,test,B,2024-08-16_12h04.07.794,Slot Machine Game,2023.1.3,MacIntel,59.17159763,,,,,,,,,,,,,,,,,,,,,,,,,,,220,,,,,,,,,,,,,,,,,,8,7,,,619.6225,10,up,0.5372,620.1862,1.5,0.3,"[2,3,1]",0.158618281,stimuli/card_10_transparent.png,10,10,0,10,0,1,,,,,,,,,,
,,,,test,B,2024-08-16_12h04.07.794,Slot Machine Game,2023.1.3,MacIntel,59.17159763,,,,,,,,,,,,,,,,,,,,,,,,,,,230,,,,,,,,,,,,,,,,,,8,7,,,621.9855,11,up,0.5674,622.5856,1.5,0.3,"[2,3,1]",0.192195135,stimuli/card_10_transparent.png,10,11,0,11,0,1,,,,,,,,,,
,,,,test,B,2024-08-16_12h04.07.794,Slot Machine Game,2023.1.3,MacIntel,59.17159763,,,,,,,,,,,,,,,,,,,,,,,,,,,230,,,,,,,,,,,,,,,,,,8,7,,,624.3905,12,up,1.5556,625.9656,1.5,0.3,"[2,3,1]",0.20602118,stimuli/card_0_transparent.png,0,12,0,12,0,1,,,,,,,,,,
,,,,test,B,2024-08-16_12h04.07.794,Slot Machine Game,2023.1.3,MacIntel,59.17159763,,,,,,,,,,,,,,,,,,,,,,,,,,,230,,,,,,,,,,,,,,,,,,8,7,,,627.7573,13,up,0.5378,628.3093,1,0.3,"[2,3,1]",0.675165183,stimuli/card_0_transparent.png,0,13,0,13,0,1,,,,,,,,,,
,,,,test,B,2024-08-16_12h04.07.794,Slot Machine Game,2023.1.3,MacIntel,59.17159763,,,,,,,,,,,,,,,,,,,,,,,,,,,230,,,,,,,,,,,,,,,,,,8,7,,,629.5976,14,up,0.5332,630.1583,1,0.3,"[2,3,1]",0.531065888,stimuli/card_0_transparent.png,0,14,0,14,0,1,,,,,,,,,,
,,,,test,B,2024-08-16_12h04.07.794,Slot Machine Game,2023.1.3,MacIntel,59.17159763,,,,,,,,,,,,,,,,,,,,,,,,,,,,,,,,,,631.462,,,,,,,,,,,,,,,,,,,,,,,,,,,,,,,"[1020,730,840,720,1010,450,640,230]",7,0,7,0,1,,,,
,,,,test,B,2024-08-16_12h04.07.794,Slot Machine Game,2023.1.3,MacIntel,59.17159763,,,,,,,,,,,,,,,,,,,,,,,,,,,10,,,,,,,,,,,,,,,,,,9,9,"[8,15]","[[3,2,1],[3,1,2]]",636.4671,0,up,0.5006,636.9977,1,0.3,"[3,2,1]",0.411961866,stimuli/card_10_transparent.png,10,0,0,0,0,1,,,,,,,,,,
,,,,test,B,2024-08-16_12h04.07.794,Slot Machine Game,2023.1.3,MacIntel,59.17159763,,,,,,,,,,,,,,,,,,,,,,,,,,,110,,,,,,,,,,,,,,,,,,9,9,,,638.2845,1,right,0.6232,638.9321,1.5,0.3,"[3,2,1]",0.321466542,stimuli/card_100_transparent.png,100,1,0,1,0,1,,,,,,,,,,
,,,,test,B,2024-08-16_12h04.07.794,Slot Machine Game,2023.1.3,MacIntel,59.17159763,,,,,,,,,,,,,,,,,,,,,,,,,,,120,,,,,,,,,,,,,,,,,,9,9,,,640.7096,2,right,0.6226,641.3486,1,0.3,"[3,2,1]",0.134206427,stimuli/card_10_transparent.png,10,2,0,2,0,1,,,,,,,,,,
,,,,test,B,2024-08-16_12h04.07.794,Slot Machine Game,2023.1.3,MacIntel,59.17159763,,,,,,,,,,,,,,,,,,,,,,,,,,,220,,,,,,,,,,,,,,,,,,9,9,,,642.6547,3,right,0.5557,643.2303,0.5,0.3,"[3,2,1]",0.807579856,stimuli/card_100_transparent.png,100,3,0,3,0,1,,,,,,,,,,
,,,,test,B,2024-08-16_12h04.07.794,Slot Machine Game,2023.1.3,MacIntel,59.17159763,,,,,,,,,,,,,,,,,,,,,,,,,,,220,,,,,,,,,,,,,,,,,,9,9,,,644.0346,4,right,0.5684,644.623,1.5,0.3,"[3,2,1]",0.021082208,stimuli/card_0_transparent.png,0,4,0,4,0,1,,,,,,,,,,
,,,,test,B,2024-08-16_12h04.07.794,Slot Machine Game,2023.1.3,MacIntel,59.17159763,,,,,,,,,,,,,,,,,,,,,,,,,,,320,,,,,,,,,,,,,,,,,,9,9,,,646.4107,5,right,0.6321,647.0552,1,0.3,"[3,2,1]",0.257102113,stimuli/card_100_transparent.png,100,5,0,5,0,1,,,,,,,,,,
,,,,test,B,2024-08-16_12h04.07.794,Slot Machine Game,2023.1.3,MacIntel,59.17159763,,,,,,,,,,,,,,,,,,,,,,,,,,,420,,,,,,,,,,,,,,,,,,9,9,,,648.3566,6,right,0.5475,648.9275,1,0.3,"[3,2,1]",0.395289003,stimuli/card_100_transparent.png,100,6,0,6,0,1,,,,,,,,,,
,,,,test,B,2024-08-16_12h04.07.794,Slot Machine Game,2023.1.3,MacIntel,59.17159763,,,,,,,,,,,,,,,,,,,,,,,,,,,420,,,,,,,,,,,,,,,,,,9,9,,,650.2161,7,left,0.5007,650.7421,1,0.3,"[3,2,1]",0.923211076,stimuli/card_0_transparent.png,0,7,0,7,0,1,,,,,,,,,,
,,,,test,B,2024-08-16_12h04.07.794,Slot Machine Game,2023.1.3,MacIntel,59.17159763,,,,,,,,,,,,,,,,,,,,,,,,,,,420,,,,,,,,,,,,,,,,,,9,9,,,652.0276,8,left,0.5391,652.5762,0.5,0.3,"[3,1,2]",0.548753431,stimuli/card_0_transparent.png,0,8,0,8,0,1,,,,,,,,,,
,,,,test,B,2024-08-16_12h04.07.794,Slot Machine Game,2023.1.3,MacIntel,59.17159763,,,,,,,,,,,,,,,,,,,,,,,,,,,420,,,,,,,,,,,,,,,,,,9,9,,,653.3729,9,left,0.5215,653.9173,1.5,0.3,"[3,1,2]",0.861982783,stimuli/card_0_transparent.png,0,9,0,9,0,1,,,,,,,,,,
,,,,test,B,2024-08-16_12h04.07.794,Slot Machine Game,2023.1.3,MacIntel,59.17159763,,,,,,,,,,,,,,,,,,,,,,,,,,,420,,,,,,,,,,,,,,,,,,9,9,,,655.698,10,left,0.5177,656.2449,1.5,0.3,"[3,1,2]",0.978577558,stimuli/card_0_transparent.png,0,10,0,10,0,1,,,,,,,,,,
,,,,test,B,2024-08-16_12h04.07.794,Slot Machine Game,2023.1.3,MacIntel,59.17159763,,,,,,,,,,,,,,,,,,,,,,,,,,,420,,,,,,,,,,,,,,,,,,9,9,,,658.0322,11,left,0.5299,658.5831,1.5,0.3,"[3,1,2]",0.831990099,stimuli/card_0_transparent.png,0,11,0,11,0,1,,,,,,,,,,
,,,,test,B,2024-08-16_12h04.07.794,Slot Machine Game,2023.1.3,MacIntel,59.17159763,,,,,,,,,,,,,,,,,,,,,,,,,,,520,,,,,,,,,,,,,,,,,,9,9,,,660.3842,12,up,0.5335,660.9486,1,0.3,"[3,1,2]",0.595477239,stimuli/card_100_transparent.png,100,12,0,12,0,1,,,,,,,,,,
,,,,test,B,2024-08-16_12h04.07.794,Slot Machine Game,2023.1.3,MacIntel,59.17159763,,,,,,,,,,,,,,,,,,,,,,,,,,,620,,,,,,,,,,,,,,,,,,9,9,,,662.2387,13,up,0.6182,662.8747,0.5,0.3,"[3,1,2]",0.819599191,stimuli/card_100_transparent.png,100,13,0,13,0,1,,,,,,,,,,
,,,,test,B,2024-08-16_12h04.07.794,Slot Machine Game,2023.1.3,MacIntel,59.17159763,,,,,,,,,,,,,,,,,,,,,,,,,,,720,,,,,,,,,,,,,,,,,,9,9,,,663.675,14,up,0.6251,664.325,1.5,0.3,"[3,1,2]",0.556877198,stimuli/card_100_transparent.png,100,14,0,14,0,1,,,,,,,,,,
,,,,test,B,2024-08-16_12h04.07.794,Slot Machine Game,2023.1.3,MacIntel,59.17159763,,,,,,,,,,,,,,,,,,,,,,,,,,,,,,,,,,666.1125,,,,,,,,,,,,,,,,,,,,,,,,,,,,,,,"[1020,730,840,720,1010,450,640,230,720]",8,0,8,0,1,,,,
,,,,test,B,2024-08-16_12h04.07.794,Slot Machine Game,2023.1.3,MacIntel,59.17159763,,,,,,,,,,,,,,,,,,,,,,,,,,,0,,,,,,,,,,,,,,,,,,10,6,"[4,10,15]","[[2,3,1],[1,3,2],[3,2,1]]",671.1118,0,up,0.5846,671.7234,1,0.3,"[2,3,1]",0.665012686,stimuli/card_0_transparent.png,0,0,0,0,0,1,,,,,,,,,,
,,,,test,B,2024-08-16_12h04.07.794,Slot Machine Game,2023.1.3,MacIntel,59.17159763,,,,,,,,,,,,,,,,,,,,,,,,,,,10,,,,,,,,,,,,,,,,,,10,6,,,673.0208,1,up,0.6347,673.6884,1.5,0.3,"[2,3,1]",0.106126839,stimuli/card_10_transparent.png,10,1,0,1,0,1,,,,,,,,,,
,,,,test,B,2024-08-16_12h04.07.794,Slot Machine Game,2023.1.3,MacIntel,59.17159763,,,,,,,,,,,,,,,,,,,,,,,,,,,10,,,,,,,,,,,,,,,,,,10,6,,,675.4866,2,left,0.6069,676.1191,1,0.3,"[2,3,1]",0.003437464,stimuli/card_0_transparent.png,0,2,0,2,0,1,,,,,,,,,,
,,,,test,B,2024-08-16_12h04.07.794,Slot Machine Game,2023.1.3,MacIntel,59.17159763,,,,,,,,,,,,,,,,,,,,,,,,,,,20,,,,,,,,,,,,,,,,,,10,6,,,677.4196,3,left,0.5343,677.9849,1,0.3,"[2,3,1]",0.624148728,stimuli/card_10_transparent.png,10,3,0,3,0,1,,,,,,,,,,
,,,,test,B,2024-08-16_12h04.07.794,Slot Machine Game,2023.1.3,MacIntel,59.17159763,,,,,,,,,,,,,,,,,,,,,,,,,,,120,,,,,,,,,,,,,,,,,,10,6,,,679.2864,4,left,0.5507,679.8694,1,0.3,"[1,3,2]",0.58508177,stimuli/card_100_transparent.png,100,4,0,4,0,1,,,,,,,,,,
,,,,test,B,2024-08-16_12h04.07.794,Slot Machine Game,2023.1.3,MacIntel,59.17159763,,,,,,,,,,,,,,,,,,,,,,,,,,,130,,,,,,,,,,,,,,,,,,10,6,,,681.1689,5,left,0.5014,681.6852,1,0.3,"[1,3,2]",0.164658756,stimuli/card_10_transparent.png,10,5,0,5,0,1,,,,,,,,,,
,,,,test,B,2024-08-16_12h04.07.794,Slot Machine Game,2023.1.3,MacIntel,59.17159763,,,,,,,,,,,,,,,,,,,,,,,,,,,140,,,,,,,,,,,,,,,,,,10,6,,,682.9865,6,right,0.5164,683.5362,1.5,0.3,"[1,3,2]",0.622228397,stimuli/card_10_transparent.png,10,6,0,6,0,1,,,,,,,,,,
,,,,test,B,2024-08-16_12h04.07.794,Slot Machine Game,2023.1.3,MacIntel,59.17159763,,,,,,,,,,,,,,,,,,,,,,,,,,,240,,,,,,,,,,,,,,,,,,10,6,,,685.3365,7,up,0.6359,686.0016,1,0.3,"[1,3,2]",0.050663228,stimuli/card_100_transparent.png,100,7,0,7,0,1,,,,,,,,,,
,,,,test,B,2024-08-16_12h04.07.794,Slot Machine Game,2023.1.3,MacIntel,59.17159763,,,,,,,,,,,,,,,,,,,,,,,,,,,240,,,,,,,,,,,,,,,,,,10,6,,,687.303,8,up,0.5348,687.8692,1.5,0.3,"[1,3,2]",0.625140348,stimuli/card_0_transparent.png,0,8,0,8,0,1,,,,,,,,,,
,,,,test,B,2024-08-16_12h04.07.794,Slot Machine Game,2023.1.3,MacIntel,59.17159763,,,,,,,,,,,,,,,,,,,,,,,,,,,240,,,,,,,,,,,,,,,,,,10,6,,,689.6677,9,up,0.5678,690.2528,1.5,0.3,"[1,3,2]",0.854683947,stimuli/card_0_transparent.png,0,9,0,9,0,1,,,,,,,,,,
,,,,test,B,2024-08-16_12h04.07.794,Slot Machine Game,2023.1.3,MacIntel,59.17159763,,,,,,,,,,,,,,,,,,,,,,,,,,,250,,,,,,,,,,,,,,,,,,10,6,,,692.0524,10,up,0.6031,692.6855,1,0.3,"[3,2,1]",0.881924238,stimuli/card_10_transparent.png,10,10,0,10,0,1,,,,,,,,,,
,,,,test,B,2024-08-16_12h04.07.794,Slot Machine Game,2023.1.3,MacIntel,59.17159763,,,,,,,,,,,,,,,,,,,,,,,,,,,350,,,,,,,,,,,,,,,,,,10,6,,,693.9845,11,up,0.5403,694.5357,1,0.3,"[3,2,1]",0.177909102,stimuli/card_100_transparent.png,100,11,0,11,0,1,,,,,,,,,,
,,,,test,B,2024-08-16_12h04.07.794,Slot Machine Game,2023.1.3,MacIntel,59.17159763,,,,,,,,,,,,,,,,,,,,,,,,,,,450,,,,,,,,,,,,,,,,,,10,6,,,695.8356,12,up,0.5683,696.4193,1.5,0.3,"[3,2,1]",0.143177235,stimuli/card_100_transparent.png,100,12,0,12,0,1,,,,,,,,,,
,,,,test,B,2024-08-16_12h04.07.794,Slot Machine Game,2023.1.3,MacIntel,59.17159763,,,,,,,,,,,,,,,,,,,,,,,,,,,460,,,,,,,,,,,,,,,,,,10,6,,,698.2192,13,up,0.6177,698.8692,1,0.3,"[3,2,1]",0.662016291,stimuli/card_10_transparent.png,10,13,0,13,0,1,,,,,,,,,,
,,,,test,B,2024-08-16_12h04.07.794,Slot Machine Game,2023.1.3,MacIntel,59.17159763,,,,,,,,,,,,,,,,,,,,,,,,,,,470,,,,,,,,,,,,,,,,,,10,6,,,700.1692,14,up,0.6006,700.8018,1.5,0.3,"[3,2,1]",0.365902675,stimuli/card_10_transparent.png,10,14,0,14,0,1,,,,,,,,,,
,,,,test,B,2024-08-16_12h04.07.794,Slot Machine Game,2023.1.3,MacIntel,59.17159763,,,,,,,,,,,,,,,,,,,,,,,,,,,,,,,,,,702.6019,,,,,,,,,,,,,,,,,,,,,,,,,,,,,,,"[1020,730,840,720,1010,450,640,230,720,470]",9,0,9,0,1,,,,
,,,,test,B,2024-08-16_12h04.07.794,Slot Machine Game,2023.1.3,MacIntel,59.17159763,,,,,,,,,,,,,,,,,,,,,,,,,,,,,,,,,,,,,,,,,,,,,,,,,,,,,,,,,,,,,,,,,,,,,,,9,"[1020,730,840,720,1010,450,640,230,720,470]",10.1,2024-08-16_12h15.59.600
