key_resp_welcome_started,key_resp_welcome_keys,key_resp_welcome_rt,key_resp_welcome_duration,prolific_id,path_id,date,expName,psychopyVersion,OS,frameRate,key_resp_instruction1_started,key_resp_instruction1_keys,key_resp_instruction1_rt,key_resp_instruction1_duration,key_resp_instruction2_started,key_resp_instruction2_keys,key_resp_instruction2_rt,key_resp_instruction2_duration,key_resp_instruction3_started,key_resp_instruction3_keys,key_resp_instruction3_rt,key_resp_instruction3_duration,key_resp_instruction4_started,key_resp_instruction4_keys,key_resp_instruction4_rt,key_resp_instruction4_duration,practiceCondition,practice_reward_seqs,practice_trial_started,practice_trial_num,practice_resp_rt,practice_resp_duration,practice_resp_keys,prac_presentationInterval,"practice_reward_seq: 2,1,3",reward_img,cumulative_reward,trial_reward,practice_trials.thisRepN,practice_trials.thisTrialN,practice_trials.thisN,practice_trials.thisIndex,practice_trials.ran,"practice_reward_seq: 2,3,1",block_break_started,"practice_reward_seq: 1,3,2","practice_reward_seq: 3,1,2",practice_end_time,practice_end_keys,practice_end_rt,practice_end_duration,main_instruction_text_started,block_condition,block_order_indices,main_instruction_keys,main_instruction_rt,main_instruction_duration,block_number,block_assignment,current_condition,main_reward_seqs,main_trial_started,main_trial_num,main_trial_keys,main_trial_rt,main_trial_duration,main_presentationInterval,reward_presentation_time,main_reward_seq,reward_rand_val,main_reward_img,current_reward,main_trials.thisRepN,main_trials.thisTrialN,main_trials.thisN,main_trials.thisIndex,main_trials.ran,block.thisRepN,block.thisTrialN,block.thisN,block.thisIndex,block.ran
0.0025,space,5.4801,,test,A,2024-05-08_13h01.43.698,Slot Machine Game,2023.1.3,MacIntel,58.47953216,,,,,,,,,,,,,,,,,,,,,,,,,,,,,,,,,,,,,,,,,,,,,,,,,,,,,,,,,,,,,,,,,,,,,,,,
,,,,test,A,2024-05-08_13h01.43.698,Slot Machine Game,2023.1.3,MacIntel,58.47953216,5.5431,space,134.2378,0.0003,,,,,,,,,,,,,,,,,,,,,,,,,,,,,,,,,,,,,,,,,,,,,,,,,,,,,,,,,,,,,,,,,,,,
,,,,test,A,2024-05-08_13h01.43.698,Slot Machine Game,2023.1.3,MacIntel,58.47953216,,,,,139.8004,space,0.0358,,,,,,,,,,,,,,,,,,,,,,,,,,,,,,,,,,,,,,,,,,,,,,,,,,,,,,,,,,,,,,,,,
,,,,test,A,2024-05-08_13h01.43.698,Slot Machine Game,2023.1.3,MacIntel,58.47953216,,,,,,,,,139.8634,space,0.85,,,,,,,,,,,,,,,,,,,,,,,,,,,,,,,,,,,,,,,,,,,,,,,,,,,,,,,,,,,,,
,,,,test,A,2024-05-08_13h01.43.698,Slot Machine Game,2023.1.3,MacIntel,58.47953216,,,,,,,,,,,,,,,,,,,,,,,,,,,,,,,,,,,,,,,,,,,,,,,,,,,,,,,,,,,,,,,,,,,,,,,,
,,,,test,A,2024-05-08_13h01.43.698,Slot Machine Game,2023.1.3,MacIntel,58.47953216,,,,,,,,,,,,,282.56,space,75.271,,,,,,,,,,,,,,,,,,,,,,,,,,,,,,,,,,,,,,,,,,,,,,,,,,,,,,,,,
,,,,test,A,2024-05-08_13h01.43.698,Slot Machine Game,2023.1.3,MacIntel,58.47953216,,,,,,,,,,,,,,,,,"[9,15]","[[2,1,3],[2,3,1]]",357.8608,0,2.1208,,left,1,,stimuli/card_10_transparent.png,10,10,0,0,0,0,1,,,,,,,,,,,,,,,,,,,,,,,,,,,,,,,,,,,,,,,
,,,,test,A,2024-05-08_13h01.43.698,Slot Machine Game,2023.1.3,MacIntel,58.47953216,,,,,,,,,,,,,,,,,,,361.8032,1,0.2238,0.0004,up,0.5,,stimuli/card_100_transparent.png,110,100,1,0,1,0,1,,,,,,,,,,,,,,,,,,,,,,,,,,,,,,,,,,,,,,,
,,,,test,A,2024-05-08_13h01.43.698,Slot Machine Game,2023.1.3,MacIntel,58.47953216,,,,,,,,,,,,,,,,,,,363.338,2,0.0573,,up,0.5,,stimuli/card_10_transparent.png,120,10,2,0,2,0,1,,,,,,,,,,,,,,,,,,,,,,,,,,,,,,,,,,,,,,,
,,,,test,A,2024-05-08_13h01.43.698,Slot Machine Game,2023.1.3,MacIntel,58.47953216,,,,,,,,,,,,,,,,,,,364.7444,3,0.065,,up,1.5,,stimuli/card_100_transparent.png,220,100,3,0,3,0,1,,,,,,,,,,,,,,,,,,,,,,,,,,,,,,,,,,,,,,,
,,,,test,A,2024-05-08_13h01.43.698,Slot Machine Game,2023.1.3,MacIntel,58.47953216,,,,,,,,,,,,,,,,,,,367.1364,4,0.0529,,up,1.5,,stimuli/card_100_transparent.png,320,100,4,0,4,0,1,,,,,,,,,,,,,,,,,,,,,,,,,,,,,,,,,,,,,,,
,,,,test,A,2024-05-08_13h01.43.698,Slot Machine Game,2023.1.3,MacIntel,58.47953216,,,,,,,,,,,,,,,,,,,369.5081,5,0.0159,,up,1.5,,stimuli/card_100_transparent.png,420,100,5,0,5,0,1,,,,,,,,,,,,,,,,,,,,,,,,,,,,,,,,,,,,,,,
,,,,test,A,2024-05-08_13h01.43.698,Slot Machine Game,2023.1.3,MacIntel,58.47953216,,,,,,,,,,,,,,,,,,,371.8393,6,0.179,,up,1.5,,stimuli/card_100_transparent.png,520,100,6,0,6,0,1,,,,,,,,,,,,,,,,,,,,,,,,,,,,,,,,,,,,,,,
,,,,test,A,2024-05-08_13h01.43.698,Slot Machine Game,2023.1.3,MacIntel,58.47953216,,,,,,,,,,,,,,,,,,,374.3265,7,0.002,,up,1.5,,stimuli/card_100_transparent.png,620,100,7,0,7,0,1,,,,,,,,,,,,,,,,,,,,,,,,,,,,,,,,,,,,,,,
,,,,test,A,2024-05-08_13h01.43.698,Slot Machine Game,2023.1.3,MacIntel,58.47953216,,,,,,,,,,,,,,,,,,,376.6444,8,0.0034,,up,1.5,,stimuli/card_0_transparent.png,620,0,8,0,8,0,1,,,,,,,,,,,,,,,,,,,,,,,,,,,,,,,,,,,,,,,
,,,,test,A,2024-05-08_13h01.43.698,Slot Machine Game,2023.1.3,MacIntel,58.47953216,,,,,,,,,,,,,,,,,,,378.9789,9,0.0112,,right,1,,stimuli/card_100_transparent.png,720,100,9,0,9,0,1,,,,,,,,,,,,,,,,,,,,,,,,,,,,,,,,,,,,,,,
,,,,test,A,2024-05-08_13h01.43.698,Slot Machine Game,2023.1.3,MacIntel,58.47953216,,,,,,,,,,,,,,,,,,,380.7977,10,0.1277,,right,0.5,,stimuli/card_100_transparent.png,820,100,10,0,10,0,1,,,,,,,,,,,,,,,,,,,,,,,,,,,,,,,,,,,,,,,
,,,,test,A,2024-05-08_13h01.43.698,Slot Machine Game,2023.1.3,MacIntel,58.47953216,,,,,,,,,,,,,,,,,,,382.2475,11,0.3836,,right,1,,stimuli/card_100_transparent.png,920,100,11,0,11,0,1,,,,,,,,,,,,,,,,,,,,,,,,,,,,,,,,,,,,,,,
,,,,test,A,2024-05-08_13h01.43.698,Slot Machine Game,2023.1.3,MacIntel,58.47953216,,,,,,,,,,,,,,,,,,,384.4259,12,0.0308,,right,1,,stimuli/card_10_transparent.png,930,10,12,0,12,0,1,,,,,,,,,,,,,,,,,,,,,,,,,,,,,,,,,,,,,,,
,,,,test,A,2024-05-08_13h01.43.698,Slot Machine Game,2023.1.3,MacIntel,58.47953216,,,,,,,,,,,,,,,,,,,386.2799,13,0.2202,,right,1,,stimuli/card_100_transparent.png,1030,100,13,0,13,0,1,,,,,,,,,,,,,,,,,,,,,,,,,,,,,,,,,,,,,,,
,,,,test,A,2024-05-08_13h01.43.698,Slot Machine Game,2023.1.3,MacIntel,58.47953216,,,,,,,,,,,,,,,,,,,388.3148,14,0.1102,,right,0.5,,stimuli/card_100_transparent.png,1130,100,14,0,14,0,1,,,,,,,,,,,,,,,,,,,,,,,,,,,,,,,,,,,,,,,
,,,,test,A,2024-05-08_13h01.43.698,Slot Machine Game,2023.1.3,MacIntel,58.47953216,,,,,,,,,,,,,,,,,"[6,15]","[[1,3,2],[3,1,2]]",394.7398,0,0.0893,,left,1.5,,stimuli/card_100_transparent.png,100,100,0,0,0,0,1,,389.7364,,,,,,,,,,,,,,,,,,,,,,,,,,,,,,,,,,,,,
,,,,test,A,2024-05-08_13h01.43.698,Slot Machine Game,2023.1.3,MacIntel,58.47953216,,,,,,,,,,,,,,,,,,,397.1625,1,0.1503,,left,1.5,,stimuli/card_100_transparent.png,200,100,1,0,1,0,1,,,,,,,,,,,,,,,,,,,,,,,,,,,,,,,,,,,,,,,
,,,,test,A,2024-05-08_13h01.43.698,Slot Machine Game,2023.1.3,MacIntel,58.47953216,,,,,,,,,,,,,,,,,,,399.6278,2,0.1123,,left,1,,stimuli/card_0_transparent.png,200,0,2,0,2,0,1,,,,,,,,,,,,,,,,,,,,,,,,,,,,,,,,,,,,,,,
,,,,test,A,2024-05-08_13h01.43.698,Slot Machine Game,2023.1.3,MacIntel,58.47953216,,,,,,,,,,,,,,,,,,,401.5586,3,0.0708,,left,1.5,,stimuli/card_100_transparent.png,300,100,3,0,3,0,1,,,,,,,,,,,,,,,,,,,,,,,,,,,,,,,,,,,,,,,
,,,,test,A,2024-05-08_13h01.43.698,Slot Machine Game,2023.1.3,MacIntel,58.47953216,,,,,,,,,,,,,,,,,,,403.9441,4,0.6176,,left,1.5,,stimuli/card_100_transparent.png,400,100,4,0,4,0,1,,,,,,,,,,,,,,,,,,,,,,,,,,,,,,,,,,,,,,,
,,,,test,A,2024-05-08_13h01.43.698,Slot Machine Game,2023.1.3,MacIntel,58.47953216,,,,,,,,,,,,,,,,,,,406.9621,5,1.1943,,left,1,,stimuli/card_0_transparent.png,400,0,5,0,5,0,1,,,,,,,,,,,,,,,,,,,,,,,,,,,,,,,,,,,,,,,
,,,,test,A,2024-05-08_13h01.43.698,Slot Machine Game,2023.1.3,MacIntel,58.47953216,,,,,,,,,,,,,,,,,,,409.9673,6,0.2503,,left,1.5,,stimuli/card_0_transparent.png,400,0,6,0,6,0,1,,,,,,,,,,,,,,,,,,,,,,,,,,,,,,,,,,,,,,,
,,,,test,A,2024-05-08_13h01.43.698,Slot Machine Game,2023.1.3,MacIntel,58.47953216,,,,,,,,,,,,,,,,,,,412.5482,7,0.1356,,left,1,,stimuli/card_0_transparent.png,400,0,7,0,7,0,1,,,,,,,,,,,,,,,,,,,,,,,,,,,,,,,,,,,,,,,
,,,,test,A,2024-05-08_13h01.43.698,Slot Machine Game,2023.1.3,MacIntel,58.47953216,,,,,,,,,,,,,,,,,,,414.4961,8,0.5857,,left,1,,stimuli/card_0_transparent.png,400,0,8,0,8,0,1,,,,,,,,,,,,,,,,,,,,,,,,,,,,,,,,,,,,,,,
,,,,test,A,2024-05-08_13h01.43.698,Slot Machine Game,2023.1.3,MacIntel,58.47953216,,,,,,,,,,,,,,,,,,,416.902,9,2.7218,,left,0.5,,stimuli/card_0_transparent.png,400,0,9,0,9,0,1,,,,,,,,,,,,,,,,,,,,,,,,,,,,,,,,,,,,,,,
,,,,test,A,2024-05-08_13h01.43.698,Slot Machine Game,2023.1.3,MacIntel,58.47953216,,,,,,,,,,,,,,,,,,,420.937,10,0.0425,,left,1,,stimuli/card_10_transparent.png,410,10,10,0,10,0,1,,,,,,,,,,,,,,,,,,,,,,,,,,,,,,,,,,,,,,,
,,,,test,A,2024-05-08_13h01.43.698,Slot Machine Game,2023.1.3,MacIntel,58.47953216,,,,,,,,,,,,,,,,,,,422.788,11,0.0327,,left,1.5,,stimuli/card_0_transparent.png,410,0,11,0,11,0,1,,,,,,,,,,,,,,,,,,,,,,,,,,,,,,,,,,,,,,,
,,,,test,A,2024-05-08_13h01.43.698,Slot Machine Game,2023.1.3,MacIntel,58.47953216,,,,,,,,,,,,,,,,,,,425.1397,12,0.01,,left,1,,stimuli/card_0_transparent.png,410,0,12,0,12,0,1,,,,,,,,,,,,,,,,,,,,,,,,,,,,,,,,,,,,,,,
,,,,test,A,2024-05-08_13h01.43.698,Slot Machine Game,2023.1.3,MacIntel,58.47953216,,,,,,,,,,,,,,,,,,,426.9562,13,3.4467,,left,1,,stimuli/card_0_transparent.png,410,0,13,0,13,0,1,,,,,,,,,,,,,,,,,,,,,,,,,,,,,,,,,,,,,,,
,,,,test,A,2024-05-08_13h01.43.698,Slot Machine Game,2023.1.3,MacIntel,58.47953216,,,,,,,,,,,,,,,,,,,432.2051,14,0.1441,,left,1,,stimuli/card_0_transparent.png,410,0,14,0,14,0,1,,,,,,,,,,,,,,,,,,,,,,,,,,,,,,,,,,,,,,,
,,,,test,A,2024-05-08_13h01.43.698,Slot Machine Game,2023.1.3,MacIntel,58.47953216,,,,,,,,,,,,,,,,,,,,,,,,,,,,,,,,,,,434.1607,,,439.164,space,7.961,,,,,,,,,,,,,,,,,,,,,,,,,,,,,,,,
,,,,test,A,2024-05-08_13h01.43.698,Slot Machine Game,2023.1.3,MacIntel,58.47953216,,,,,,,,,,,,,,,,,,,,,,,,,,,,,,,,,,,,,,,,,,447.1347,2,"[2,4,8,0,1,3,9,6,8,5]",space,1.1665,,,,,,,,,,,,,,,,,,,,,,,,,,
,,,,test,A,2024-05-08_13h01.43.698,Slot Machine Game,2023.1.3,MacIntel,58.47953216,,,,,,,,,,,,,,,,,,,,,,,,,,,0,,,,,,,,,,,,,,,,,,,,,1,3,"[15,15]","[[3,1,2],[3,1,2]]",448.3235,0,left,0.5331,,1.5,0.3,"[3,1,2]",0.897424369,stimuli/card_0_transparent.png,0,0,0,0,0,1,,,,,
,,,,test,A,2024-05-08_13h01.43.698,Slot Machine Game,2023.1.3,MacIntel,58.47953216,,,,,,,,,,,,,,,,,,,,,,,,,,,0,,,,,,,,,,,,,,,,,,,,,1,3,,,451.2954,1,left,0.9674,0.0004,1,0.3,"[3,1,2]",0.368828482,stimuli/card_0_transparent.png,0,1,0,1,0,1,,,,,
,,,,test,A,2024-05-08_13h01.43.698,Slot Machine Game,2023.1.3,MacIntel,58.47953216,,,,,,,,,,,,,,,,,,,,,,,,,,,0,,,,,,,,,,,,,,,,,,,,,1,3,,,454.0674,2,left,0.0775,,1.5,0.3,"[3,1,2]",0.951624514,stimuli/card_0_transparent.png,0,2,0,2,0,1,,,,,
,,,,test,A,2024-05-08_13h01.43.698,Slot Machine Game,2023.1.3,MacIntel,58.47953216,,,,,,,,,,,,,,,,,,,,,,,,,,,0,,,,,,,,,,,,,,,,,,,,,1,3,,,456.4528,3,left,0.6698,,1,0.3,"[3,1,2]",0.882319994,stimuli/card_0_transparent.png,0,3,0,3,0,1,,,,,
,,,,test,A,2024-05-08_13h01.43.698,Slot Machine Game,2023.1.3,MacIntel,58.47953216,,,,,,,,,,,,,,,,,,,,,,,,,,,0,,,,,,,,,,,,,,,,,,,,,1,3,,,458.9369,4,left,0.3149,,1,0.3,"[3,1,2]",0.348362703,stimuli/card_0_transparent.png,0,4,0,4,0,1,,,,,
,,,,test,A,2024-05-08_13h01.43.698,Slot Machine Game,2023.1.3,MacIntel,58.47953216,,,,,,,,,,,,,,,,,,,,,,,,,,,0,,,,,,,,,,,,,,,,,,,,,1,3,,,461.0554,5,left,0.0809,,1,0.3,"[3,1,2]",0.935373764,stimuli/card_0_transparent.png,0,5,0,5,0,1,,,,,
,,,,test,A,2024-05-08_13h01.43.698,Slot Machine Game,2023.1.3,MacIntel,58.47953216,,,,,,,,,,,,,,,,,,,,,,,,,,,0,,,,,,,,,,,,,,,,,,,,,1,3,,,462.9439,6,left,0.5004,,1,0.3,"[3,1,2]",0.75973538,stimuli/card_0_transparent.png,0,6,0,6,0,1,,,,,
,,,,test,A,2024-05-08_13h01.43.698,Slot Machine Game,2023.1.3,MacIntel,58.47953216,,,,,,,,,,,,,,,,,,,,,,,,,,,0,,,,,,,,,,,,,,,,,,,,,1,3,,,465.2615,7,left,0.1637,,0.5,0.3,"[3,1,2]",0.665897183,stimuli/card_0_transparent.png,0,7,0,7,0,1,,,,,
,,,,test,A,2024-05-08_13h01.43.698,Slot Machine Game,2023.1.3,MacIntel,58.47953216,,,,,,,,,,,,,,,,,,,,,,,,,,,0,,,,,,,,,,,,,,,,,,,,,1,3,,,466.7454,8,left,0.2593,,0.5,0.3,"[3,1,2]",0.818725635,stimuli/card_0_transparent.png,0,8,0,8,0,1,,,,,
,,,,test,A,2024-05-08_13h01.43.698,Slot Machine Game,2023.1.3,MacIntel,58.47953216,,,,,,,,,,,,,,,,,,,,,,,,,,,10,,,,,,,,,,,,,,,,,,,,,1,3,,,468.313,9,left,1.7934,,1,0.3,"[3,1,2]",0.128166721,stimuli/card_10_transparent.png,10,9,0,9,0,1,,,,,
,,,,test,A,2024-05-08_13h01.43.698,Slot Machine Game,2023.1.3,MacIntel,58.47953216,,,,,,,,,,,,,,,,,,,,,,,,,,,10,,,,,,,,,,,,,,,,,,,,,1,3,,,471.9153,10,left,0.477,,1.5,0.3,"[3,1,2]",0.214689692,stimuli/card_0_transparent.png,0,10,0,10,0,1,,,,,
,,,,test,A,2024-05-08_13h01.43.698,Slot Machine Game,2023.1.3,MacIntel,58.47953216,,,,,,,,,,,,,,,,,,,,,,,,,,,20,,,,,,,,,,,,,,,,,,,,,1,3,,,474.7005,11,right,0.0829,,0.5,0.3,"[3,1,2]",0.200628877,stimuli/card_10_transparent.png,10,11,0,11,0,1,,,,,
,,,,test,A,2024-05-08_13h01.43.698,Slot Machine Game,2023.1.3,MacIntel,58.47953216,,,,,,,,,,,,,,,,,,,,,,,,,,,30,,,,,,,,,,,,,,,,,,,,,1,3,,,476.118,12,right,0.0322,,1.5,0.3,"[3,1,2]",0.274330318,stimuli/card_10_transparent.png,10,12,0,12,0,1,,,,,
,,,,test,A,2024-05-08_13h01.43.698,Slot Machine Game,2023.1.3,MacIntel,58.47953216,,,,,,,,,,,,,,,,,,,,,,,,,,,40,,,,,,,,,,,,,,,,,,,,,1,3,,,478.4646,13,right,0.5593,,1.5,0.3,"[3,1,2]",0.616258394,stimuli/card_10_transparent.png,10,13,0,13,0,1,,,,,
,,,,test,A,2024-05-08_13h01.43.698,Slot Machine Game,2023.1.3,MacIntel,58.47953216,,,,,,,,,,,,,,,,,,,,,,,,,,,50,,,,,,,,,,,,,,,,,,,,,1,3,,,481.3335,14,right,0.2341,,1,0.3,"[3,1,2]",0.954200143,stimuli/card_10_transparent.png,10,14,0,14,0,1,,,,,
,,,,test,A,2024-05-08_13h01.43.698,Slot Machine Game,2023.1.3,MacIntel,58.47953216,,,,,,,,,,,,,,,,,,,,,,,,,,,,,,,,,,,483.3681,,,,,,,,,,,,,,,,,,,,,,,,,,,,,,,,,0,0,0,0,1
,,,,test,A,2024-05-08_13h01.43.698,Slot Machine Game,2023.1.3,MacIntel,58.47953216,,,,,,,,,,,,,,,,,,,,,,,,,,,0,,,,,,,,,,,,,,,,,,,,,2,5,"[5,15]","[[1,2,3],[3,1,2]]",488.3618,0,right,0.1274,,0.5,0.3,"[1,2,3]",0.871247667,stimuli/card_0_transparent.png,0,0,0,0,0,1,,,,,
,,,,test,A,2024-05-08_13h01.43.698,Slot Machine Game,2023.1.3,MacIntel,58.47953216,,,,,,,,,,,,,,,,,,,,,,,,,,,0,,,,,,,,,,,,,,,,,,,,,2,5,,,489.8085,1,right,0.2597,,0.5,0.3,"[1,2,3]",0.841311378,stimuli/card_0_transparent.png,0,1,0,1,0,1,,,,,
,,,,test,A,2024-05-08_13h01.43.698,Slot Machine Game,2023.1.3,MacIntel,58.47953216,,,,,,,,,,,,,,,,,,,,,,,,,,,0,,,,,,,,,,,,,,,,,,,,,2,5,,,491.3717,2,right,0.3084,,0.5,0.3,"[1,2,3]",0.825126544,stimuli/card_0_transparent.png,0,2,0,2,0,1,,,,,
,,,,test,A,2024-05-08_13h01.43.698,Slot Machine Game,2023.1.3,MacIntel,58.47953216,,,,,,,,,,,,,,,,,,,,,,,,,,,0,,,,,,,,,,,,,,,,,,,,,2,5,,,492.9895,3,right,0.1417,,1.5,0.3,"[1,2,3]",0.285820883,stimuli/card_0_transparent.png,0,3,0,3,0,1,,,,,
,,,,test,A,2024-05-08_13h01.43.698,Slot Machine Game,2023.1.3,MacIntel,58.47953216,,,,,,,,,,,,,,,,,,,,,,,,,,,10,,,,,,,,,,,,,,,,,,,,,2,5,,,495.4248,4,right,0.4486,,1,0.3,"[1,2,3]",0.197054371,stimuli/card_10_transparent.png,10,4,0,4,0,1,,,,,
,,,,test,A,2024-05-08_13h01.43.698,Slot Machine Game,2023.1.3,MacIntel,58.47953216,,,,,,,,,,,,,,,,,,,,,,,,,,,110,,,,,,,,,,,,,,,,,,,,,2,5,,,497.6921,5,up,0.099,,1,0.3,"[3,1,2]",0.654652353,stimuli/card_100_transparent.png,100,5,0,5,0,1,,,,,
,,,,test,A,2024-05-08_13h01.43.698,Slot Machine Game,2023.1.3,MacIntel,58.47953216,,,,,,,,,,,,,,,,,,,,,,,,,,,120,,,,,,,,,,,,,,,,,,,,,2,5,,,499.5931,6,right,0.0586,,1.5,0.3,"[3,1,2]",0.805170262,stimuli/card_10_transparent.png,10,6,0,6,0,1,,,,,
,,,,test,A,2024-05-08_13h01.43.698,Slot Machine Game,2023.1.3,MacIntel,58.47953216,,,,,,,,,,,,,,,,,,,,,,,,,,,120,,,,,,,,,,,,,,,,,,,,,2,5,,,501.9655,7,right,0.3583,,0.5,0.3,"[3,1,2]",0.035298567,stimuli/card_0_transparent.png,0,7,0,7,0,1,,,,,
,,,,test,A,2024-05-08_13h01.43.698,Slot Machine Game,2023.1.3,MacIntel,58.47953216,,,,,,,,,,,,,,,,,,,,,,,,,,,130,,,,,,,,,,,,,,,,,,,,,2,5,,,503.6325,8,right,0.0252,,0.5,0.3,"[3,1,2]",0.570755184,stimuli/card_10_transparent.png,10,8,0,8,0,1,,,,,
,,,,test,A,2024-05-08_13h01.43.698,Slot Machine Game,2023.1.3,MacIntel,58.47953216,,,,,,,,,,,,,,,,,,,,,,,,,,,140,,,,,,,,,,,,,,,,,,,,,2,5,,,504.9675,9,right,0.0094,,1.5,0.3,"[3,1,2]",0.836922517,stimuli/card_10_transparent.png,10,9,0,9,0,1,,,,,
,,,,test,A,2024-05-08_13h01.43.698,Slot Machine Game,2023.1.3,MacIntel,58.47953216,,,,,,,,,,,,,,,,,,,,,,,,,,,150,,,,,,,,,,,,,,,,,,,,,2,5,,,507.3021,10,right,0.2582,,0.5,0.3,"[3,1,2]",0.554183415,stimuli/card_10_transparent.png,10,10,0,10,0,1,,,,,
,,,,test,A,2024-05-08_13h01.43.698,Slot Machine Game,2023.1.3,MacIntel,58.47953216,,,,,,,,,,,,,,,,,,,,,,,,,,,160,,,,,,,,,,,,,,,,,,,,,2,5,,,508.8856,11,right,0.5656,,1,0.3,"[3,1,2]",0.698291695,stimuli/card_10_transparent.png,10,11,0,11,0,1,,,,,
,,,,test,A,2024-05-08_13h01.43.698,Slot Machine Game,2023.1.3,MacIntel,58.47953216,,,,,,,,,,,,,,,,,,,,,,,,,,,170,,,,,,,,,,,,,,,,,,,,,2,5,,,511.2669,12,right,0.0525,,0.5,0.3,"[3,1,2]",0.875870855,stimuli/card_10_transparent.png,10,12,0,12,0,1,,,,,
,,,,test,A,2024-05-08_13h01.43.698,Slot Machine Game,2023.1.3,MacIntel,58.47953216,,,,,,,,,,,,,,,,,,,,,,,,,,,180,,,,,,,,,,,,,,,,,,,,,2,5,,,512.6386,13,right,0.1162,,1,0.3,"[3,1,2]",0.236295146,stimuli/card_10_transparent.png,10,13,0,13,0,1,,,,,
,,,,test,A,2024-05-08_13h01.43.698,Slot Machine Game,2023.1.3,MacIntel,58.47953216,,,,,,,,,,,,,,,,,,,,,,,,,,,190,,,,,,,,,,,,,,,,,,,,,2,5,,,514.5897,14,right,0.394,,1.5,0.3,"[3,1,2]",0.36163492,stimuli/card_10_transparent.png,10,14,0,14,0,1,,,,,
,,,,test,A,2024-05-08_13h01.43.698,Slot Machine Game,2023.1.3,MacIntel,58.47953216,,,,,,,,,,,,,,,,,,,,,,,,,,,,,,,,,,,517.2872,,,,,,,,,,,,,,,,,,,,,,,,,,,,,,,,,1,0,1,0,1
,,,,test,A,2024-05-08_13h01.43.698,Slot Machine Game,2023.1.3,MacIntel,58.47953216,,,,,,,,,,,,,,,,,,,,,,,,,,,10,,,,,,,,,,,,,,,,,,,,,3,9,"[8,15]","[[3,2,1],[3,1,2]]",522.2812,0,right,0.6022,,0.5,0.3,"[3,2,1]",0.180814533,stimuli/card_10_transparent.png,10,0,0,0,0,1,,,,,
,,,,test,A,2024-05-08_13h01.43.698,Slot Machine Game,2023.1.3,MacIntel,58.47953216,,,,,,,,,,,,,,,,,,,,,,,,,,,10,,,,,,,,,,,,,,,,,,,,,3,9,,,524.1908,1,right,0.1358,,0.5,0.3,"[3,2,1]",0.014942666,stimuli/card_0_transparent.png,0,1,0,1,0,1,,,,,
,,,,test,A,2024-05-08_13h01.43.698,Slot Machine Game,2023.1.3,MacIntel,58.47953216,,,,,,,,,,,,,,,,,,,,,,,,,,,110,,,,,,,,,,,,,,,,,,,,,3,9,,,525.625,2,right,0.4338,,0.5,0.3,"[3,2,1]",0.505518395,stimuli/card_100_transparent.png,100,2,0,2,0,1,,,,,
,,,,test,A,2024-05-08_13h01.43.698,Slot Machine Game,2023.1.3,MacIntel,58.47953216,,,,,,,,,,,,,,,,,,,,,,,,,,,210,,,,,,,,,,,,,,,,,,,,,3,9,,,527.3795,3,right,0.0697,,1.5,0.3,"[3,2,1]",0.527585719,stimuli/card_100_transparent.png,100,3,0,3,0,1,,,,,
,,,,test,A,2024-05-08_13h01.43.698,Slot Machine Game,2023.1.3,MacIntel,58.47953216,,,,,,,,,,,,,,,,,,,,,,,,,,,310,,,,,,,,,,,,,,,,,,,,,3,9,,,529.7641,4,right,0.5103,,1,0.3,"[3,2,1]",0.847705859,stimuli/card_100_transparent.png,100,4,0,4,0,1,,,,,
,,,,test,A,2024-05-08_13h01.43.698,Slot Machine Game,2023.1.3,MacIntel,58.47953216,,,,,,,,,,,,,,,,,,,,,,,,,,,410,,,,,,,,,,,,,,,,,,,,,3,9,,,532.0819,5,right,1.8445,,1.5,0.3,"[3,2,1]",0.562378959,stimuli/card_100_transparent.png,100,5,0,5,0,1,,,,,
,,,,test,A,2024-05-08_13h01.43.698,Slot Machine Game,2023.1.3,MacIntel,58.47953216,,,,,,,,,,,,,,,,,,,,,,,,,,,510,,,,,,,,,,,,,,,,,,,,,3,9,,,536.2343,6,right,0.0342,,1.5,0.3,"[3,2,1]",0.725243435,stimuli/card_100_transparent.png,100,6,0,6,0,1,,,,,
,,,,test,A,2024-05-08_13h01.43.698,Slot Machine Game,2023.1.3,MacIntel,58.47953216,,,,,,,,,,,,,,,,,,,,,,,,,,,520,,,,,,,,,,,,,,,,,,,,,3,9,,,538.5864,7,up,0.1312,,0.5,0.3,"[3,2,1]",0.217158047,stimuli/card_10_transparent.png,10,7,0,7,0,1,,,,,
,,,,test,A,2024-05-08_13h01.43.698,Slot Machine Game,2023.1.3,MacIntel,58.47953216,,,,,,,,,,,,,,,,,,,,,,,,,,,620,,,,,,,,,,,,,,,,,,,,,3,9,,,540.0365,8,up,0.0679,,1,0.3,"[3,1,2]",0.976835203,stimuli/card_100_transparent.png,100,8,0,8,0,1,,,,,
,,,,test,A,2024-05-08_13h01.43.698,Slot Machine Game,2023.1.3,MacIntel,58.47953216,,,,,,,,,,,,,,,,,,,,,,,,,,,720,,,,,,,,,,,,,,,,,,,,,3,9,,,541.921,9,up,0.0211,,0.5,0.3,"[3,1,2]",0.39190227,stimuli/card_100_transparent.png,100,9,0,9,0,1,,,,,
,,,,test,A,2024-05-08_13h01.43.698,Slot Machine Game,2023.1.3,MacIntel,58.47953216,,,,,,,,,,,,,,,,,,,,,,,,,,,820,,,,,,,,,,,,,,,,,,,,,3,9,,,543.255,10,up,0.4447,,1.5,0.3,"[3,1,2]",0.209192037,stimuli/card_100_transparent.png,100,10,0,10,0,1,,,,,
,,,,test,A,2024-05-08_13h01.43.698,Slot Machine Game,2023.1.3,MacIntel,58.47953216,,,,,,,,,,,,,,,,,,,,,,,,,,,920,,,,,,,,,,,,,,,,,,,,,3,9,,,546.007,11,up,0.0826,,1,0.3,"[3,1,2]",0.899708434,stimuli/card_100_transparent.png,100,11,0,11,0,1,,,,,
,,,,test,A,2024-05-08_13h01.43.698,Slot Machine Game,2023.1.3,MacIntel,58.47953216,,,,,,,,,,,,,,,,,,,,,,,,,,,930,,,,,,,,,,,,,,,,,,,,,3,9,,,547.886,12,up,0.0286,,1.5,0.3,"[3,1,2]",0.19220901,stimuli/card_10_transparent.png,10,12,0,12,0,1,,,,,
,,,,test,A,2024-05-08_13h01.43.698,Slot Machine Game,2023.1.3,MacIntel,58.47953216,,,,,,,,,,,,,,,,,,,,,,,,,,,1030,,,,,,,,,,,,,,,,,,,,,3,9,,,550.2222,13,up,0.0072,,1.5,0.3,"[3,1,2]",0.315485804,stimuli/card_100_transparent.png,100,13,0,13,0,1,,,,,
,,,,test,A,2024-05-08_13h01.43.698,Slot Machine Game,2023.1.3,MacIntel,58.47953216,,,,,,,,,,,,,,,,,,,,,,,,,,,1040,,,,,,,,,,,,,,,,,,,,,3,9,,,552.5281,14,up,0.1261,,1,0.3,"[3,1,2]",0.174712172,stimuli/card_10_transparent.png,10,14,0,14,0,1,,,,,
,,,,test,A,2024-05-08_13h01.43.698,Slot Machine Game,2023.1.3,MacIntel,58.47953216,,,,,,,,,,,,,,,,,,,,,,,,,,,,,,,,,,,554.4779,,,,,,,,,,,,,,,,,,,,,,,,,,,,,,,,,2,0,2,0,1
,,,,test,A,2024-05-08_13h01.43.698,Slot Machine Game,2023.1.3,MacIntel,58.47953216,,,,,,,,,,,,,,,,,,,,,,,,,,,0,,,,,,,,,,,,,,,,,,,,,4,1,"[12,15]","[[2,1,3],[2,3,1]]",559.4825,0,right,0.0714,,1.5,0.3,"[2,1,3]",0.634452034,stimuli/card_0_transparent.png,0,0,0,0,0,1,,,,,
,,,,test,A,2024-05-08_13h01.43.698,Slot Machine Game,2023.1.3,MacIntel,58.47953216,,,,,,,,,,,,,,,,,,,,,,,,,,,0,,,,,,,,,,,,,,,,,,,,,4,1,,,561.8819,1,right,0.1433,,1.5,0.3,"[2,1,3]",0.732971413,stimuli/card_0_transparent.png,0,1,0,1,0,1,,,,,
,,,,test,A,2024-05-08_13h01.43.698,Slot Machine Game,2023.1.3,MacIntel,58.47953216,,,,,,,,,,,,,,,,,,,,,,,,,,,0,,,,,,,,,,,,,,,,,,,,,4,1,,,564.3508,2,right,0.1568,,0.5,0.3,"[2,1,3]",0.517419588,stimuli/card_0_transparent.png,0,2,0,2,0,1,,,,,
,,,,test,A,2024-05-08_13h01.43.698,Slot Machine Game,2023.1.3,MacIntel,58.47953216,,,,,,,,,,,,,,,,,,,,,,,,,,,0,,,,,,,,,,,,,,,,,,,,,4,1,,,565.8173,3,right,0.002,,1.5,0.3,"[2,1,3]",0.683191879,stimuli/card_0_transparent.png,0,3,0,3,0,1,,,,,
,,,,test,A,2024-05-08_13h01.43.698,Slot Machine Game,2023.1.3,MacIntel,58.47953216,,,,,,,,,,,,,,,,,,,,,,,,,,,0,,,,,,,,,,,,,,,,,,,,,4,1,,,568.1359,4,right,0.249,,1.5,0.3,"[2,1,3]",0.681465711,stimuli/card_0_transparent.png,0,4,0,4,0,1,,,,,
,,,,test,A,2024-05-08_13h01.43.698,Slot Machine Game,2023.1.3,MacIntel,58.47953216,,,,,,,,,,,,,,,,,,,,,,,,,,,0,,,,,,,,,,,,,,,,,,,,,4,1,,,570.7044,5,right,0.1312,,1.5,0.3,"[2,1,3]",0.541447746,stimuli/card_0_transparent.png,0,5,0,5,0,1,,,,,
,,,,test,A,2024-05-08_13h01.43.698,Slot Machine Game,2023.1.3,MacIntel,58.47953216,,,,,,,,,,,,,,,,,,,,,,,,,,,0,,,,,,,,,,,,,,,,,,,,,4,1,,,573.1724,6,right,0.1237,,0.5,0.3,"[2,1,3]",0.648915178,stimuli/card_0_transparent.png,0,6,0,6,0,1,,,,,
,,,,test,A,2024-05-08_13h01.43.698,Slot Machine Game,2023.1.3,MacIntel,58.47953216,,,,,,,,,,,,,,,,,,,,,,,,,,,100,,,,,,,,,,,,,,,,,,,,,4,1,,,574.6209,7,right,0.4606,,1.5,0.3,"[2,1,3]",0.099150302,stimuli/card_100_transparent.png,100,7,0,7,0,1,,,,,
,,,,test,A,2024-05-08_13h01.43.698,Slot Machine Game,2023.1.3,MacIntel,58.47953216,,,,,,,,,,,,,,,,,,,,,,,,,,,100,,,,,,,,,,,,,,,,,,,,,4,1,,,577.3869,8,right,0.0907,,0.5,0.3,"[2,1,3]",0.49565713,stimuli/card_0_transparent.png,0,8,0,8,0,1,,,,,
,,,,test,A,2024-05-08_13h01.43.698,Slot Machine Game,2023.1.3,MacIntel,58.47953216,,,,,,,,,,,,,,,,,,,,,,,,,,,100,,,,,,,,,,,,,,,,,,,,,4,1,,,578.7918,9,right,0.1701,,1,0.3,"[2,1,3]",0.700509225,stimuli/card_0_transparent.png,0,9,0,9,0,1,,,,,
,,,,test,A,2024-05-08_13h01.43.698,Slot Machine Game,2023.1.3,MacIntel,58.47953216,,,,,,,,,,,,,,,,,,,,,,,,,,,200,,,,,,,,,,,,,,,,,,,,,4,1,,,580.7768,10,up,0.7369,,1.5,0.3,"[2,1,3]",0.7019293,stimuli/card_100_transparent.png,100,10,0,10,0,1,,,,,
,,,,test,A,2024-05-08_13h01.43.698,Slot Machine Game,2023.1.3,MacIntel,58.47953216,,,,,,,,,,,,,,,,,,,,,,,,,,,300,,,,,,,,,,,,,,,,,,,,,4,1,,,583.8624,11,up,0.9179,,1,0.3,"[2,1,3]",0.718654582,stimuli/card_100_transparent.png,100,11,0,11,0,1,,,,,
,,,,test,A,2024-05-08_13h01.43.698,Slot Machine Game,2023.1.3,MacIntel,58.47953216,,,,,,,,,,,,,,,,,,,,,,,,,,,300,,,,,,,,,,,,,,,,,,,,,4,1,,,586.5968,12,up,0.3353,,0.5,0.3,"[2,3,1]",0.968100363,stimuli/card_0_transparent.png,0,12,0,12,0,1,,,,,
,,,,test,A,2024-05-08_13h01.43.698,Slot Machine Game,2023.1.3,MacIntel,58.47953216,,,,,,,,,,,,,,,,,,,,,,,,,,,300,,,,,,,,,,,,,,,,,,,,,4,1,,,588.2644,13,up,2.6326,,0.5,0.3,"[2,3,1]",0.426228121,stimuli/card_0_transparent.png,0,13,0,13,0,1,,,,,
,,,,test,A,2024-05-08_13h01.43.698,Slot Machine Game,2023.1.3,MacIntel,58.47953216,,,,,,,,,,,,,,,,,,,,,,,,,,,400,,,,,,,,,,,,,,,,,,,,,4,1,,,592.2159,14,up,0.0005,,0.5,0.3,"[2,3,1]",0.085651575,stimuli/card_100_transparent.png,100,14,0,14,0,1,,,,,
,,,,test,A,2024-05-08_13h01.43.698,Slot Machine Game,2023.1.3,MacIntel,58.47953216,,,,,,,,,,,,,,,,,,,,,,,,,,,,,,,,,,,593.5496,,,,,,,,,,,,,,,,,,,,,,,,,,,,,,,,,3,0,3,0,1
,,,,test,A,2024-05-08_13h01.43.698,Slot Machine Game,2023.1.3,MacIntel,58.47953216,,,,,,,,,,,,,,,,,,,,,,,,,,,0,,,,,,,,,,,,,,,,,,,,,5,2,"[6,15]","[[1,3,2],[3,2,1]]",598.5418,0,up,1.0158,,1.5,0.3,"[1,3,2]",0.457209767,stimuli/card_0_transparent.png,0,0,0,0,0,1,,,,,
,,,,test,A,2024-05-08_13h01.43.698,Slot Machine Game,2023.1.3,MacIntel,58.47953216,,,,,,,,,,,,,,,,,,,,,,,,,,,0,,,,,,,,,,,,,,,,,,,,,5,2,,,601.8881,1,up,0.0988,,0.5,0.3,"[1,3,2]",0.692453686,stimuli/card_0_transparent.png,0,1,0,1,0,1,,,,,
,,,,test,A,2024-05-08_13h01.43.698,Slot Machine Game,2023.1.3,MacIntel,58.47953216,,,,,,,,,,,,,,,,,,,,,,,,,,,0,,,,,,,,,,,,,,,,,,,,,5,2,,,603.3065,2,up,0.0006,,0.5,0.3,"[1,3,2]",0.966846273,stimuli/card_0_transparent.png,0,2,0,2,0,1,,,,,
,,,,test,A,2024-05-08_13h01.43.698,Slot Machine Game,2023.1.3,MacIntel,58.47953216,,,,,,,,,,,,,,,,,,,,,,,,,,,0,,,,,,,,,,,,,,,,,,,,,5,2,,,604.623,3,up,0.0122,,1,0.3,"[1,3,2]",0.993309184,stimuli/card_0_transparent.png,0,3,0,3,0,1,,,,,
,,,,test,A,2024-05-08_13h01.43.698,Slot Machine Game,2023.1.3,MacIntel,58.47953216,,,,,,,,,,,,,,,,,,,,,,,,,,,10,,,,,,,,,,,,,,,,,,,,,5,2,,,606.459,4,right,0.1368,,1.5,0.3,"[1,3,2]",0.284990486,stimuli/card_10_transparent.png,10,4,0,4,0,1,,,,,
,,,,test,A,2024-05-08_13h01.43.698,Slot Machine Game,2023.1.3,MacIntel,58.47953216,,,,,,,,,,,,,,,,,,,,,,,,,,,110,,,,,,,,,,,,,,,,,,,,,5,2,,,608.9266,5,left,0.1425,,0.5,0.3,"[1,3,2]",0.278905959,stimuli/card_100_transparent.png,100,5,0,5,0,1,,,,,
,,,,test,A,2024-05-08_13h01.43.698,Slot Machine Game,2023.1.3,MacIntel,58.47953216,,,,,,,,,,,,,,,,,,,,,,,,,,,110,,,,,,,,,,,,,,,,,,,,,5,2,,,610.3938,6,left,0.0006,,1.5,0.3,"[3,2,1]",0.506633531,stimuli/card_0_transparent.png,0,6,0,6,0,1,,,,,
,,,,test,A,2024-05-08_13h01.43.698,Slot Machine Game,2023.1.3,MacIntel,58.47953216,,,,,,,,,,,,,,,,,,,,,,,,,,,110,,,,,,,,,,,,,,,,,,,,,5,2,,,612.7287,7,left,0.099,,1.5,0.3,"[3,2,1]",0.574216805,stimuli/card_0_transparent.png,0,7,0,7,0,1,,,,,
,,,,test,A,2024-05-08_13h01.43.698,Slot Machine Game,2023.1.3,MacIntel,58.47953216,,,,,,,,,,,,,,,,,,,,,,,,,,,120,,,,,,,,,,,,,,,,,,,,,5,2,,,615.1622,8,up,0.0597,,1,0.3,"[3,2,1]",0.736704548,stimuli/card_10_transparent.png,10,8,0,8,0,1,,,,,
,,,,test,A,2024-05-08_13h01.43.698,Slot Machine Game,2023.1.3,MacIntel,58.47953216,,,,,,,,,,,,,,,,,,,,,,,,,,,220,,,,,,,,,,,,,,,,,,,,,5,2,,,617.0313,9,up,0.1075,,1.5,0.3,"[3,2,1]",0.110019579,stimuli/card_100_transparent.png,100,9,0,9,0,1,,,,,
,,,,test,A,2024-05-08_13h01.43.698,Slot Machine Game,2023.1.3,MacIntel,58.47953216,,,,,,,,,,,,,,,,,,,,,,,,,,,230,,,,,,,,,,,,,,,,,,,,,5,2,,,619.4501,10,up,0.1311,,1.5,0.3,"[3,2,1]",0.991293213,stimuli/card_10_transparent.png,10,10,0,10,0,1,,,,,
,,,,test,A,2024-05-08_13h01.43.698,Slot Machine Game,2023.1.3,MacIntel,58.47953216,,,,,,,,,,,,,,,,,,,,,,,,,,,240,,,,,,,,,,,,,,,,,,,,,5,2,,,621.8994,11,up,0.1015,,1.5,0.3,"[3,2,1]",0.404669104,stimuli/card_10_transparent.png,10,11,0,11,0,1,,,,,
,,,,test,A,2024-05-08_13h01.43.698,Slot Machine Game,2023.1.3,MacIntel,58.47953216,,,,,,,,,,,,,,,,,,,,,,,,,,,250,,,,,,,,,,,,,,,,,,,,,5,2,,,624.3192,12,up,0.1991,,1.5,0.3,"[3,2,1]",0.495522713,stimuli/card_10_transparent.png,10,12,0,12,0,1,,,,,
,,,,test,A,2024-05-08_13h01.43.698,Slot Machine Game,2023.1.3,MacIntel,58.47953216,,,,,,,,,,,,,,,,,,,,,,,,,,,350,,,,,,,,,,,,,,,,,,,,,5,2,,,626.8373,13,right,0.04,,1.5,0.3,"[3,2,1]",0.921471284,stimuli/card_100_transparent.png,100,13,0,13,0,1,,,,,
,,,,test,A,2024-05-08_13h01.43.698,Slot Machine Game,2023.1.3,MacIntel,58.47953216,,,,,,,,,,,,,,,,,,,,,,,,,,,450,,,,,,,,,,,,,,,,,,,,,5,2,,,629.1887,14,right,0.1172,,1.5,0.3,"[3,2,1]",0.589660728,stimuli/card_100_transparent.png,100,14,0,14,0,1,,,,,
,,,,test,A,2024-05-08_13h01.43.698,Slot Machine Game,2023.1.3,MacIntel,58.47953216,,,,,,,,,,,,,,,,,,,,,,,,,,,,,,,,,,,631.6223,,,,,,,,,,,,,,,,,,,,,,,,,,,,,,,,,4,0,4,0,1
,,,,test,A,2024-05-08_13h01.43.698,Slot Machine Game,2023.1.3,MacIntel,58.47953216,,,,,,,,,,,,,,,,,,,,,,,,,,,100,,,,,,,,,,,,,,,,,,,,,6,4,"[7,15]","[[2,3,1],[1,2,3]]",636.6295,0,right,0.4071,,1,0.3,"[2,3,1]",0.633949192,stimuli/card_100_transparent.png,100,0,0,0,0,1,,,,,
,,,,test,A,2024-05-08_13h01.43.698,Slot Machine Game,2023.1.3,MacIntel,58.47953216,,,,,,,,,,,,,,,,,,,,,,,,,,,100,,,,,,,,,,,,,,,,,,,,,6,4,,,638.9086,1,up,0.0516,,1,0.3,"[2,3,1]",0.329105083,stimuli/card_0_transparent.png,0,1,0,1,0,1,,,,,
,,,,test,A,2024-05-08_13h01.43.698,Slot Machine Game,2023.1.3,MacIntel,58.47953216,,,,,,,,,,,,,,,,,,,,,,,,,,,200,,,,,,,,,,,,,,,,,,,,,6,4,,,640.7785,2,right,0.0125,,1.5,0.3,"[2,3,1]",0.807460463,stimuli/card_100_transparent.png,100,2,0,2,0,1,,,,,
,,,,test,A,2024-05-08_13h01.43.698,Slot Machine Game,2023.1.3,MacIntel,58.47953216,,,,,,,,,,,,,,,,,,,,,,,,,,,210,,,,,,,,,,,,,,,,,,,,,6,4,,,643.0967,3,left,0.1318,,1.5,0.3,"[2,3,1]",0.797024219,stimuli/card_10_transparent.png,10,3,0,3,0,1,,,,,
,,,,test,A,2024-05-08_13h01.43.698,Slot Machine Game,2023.1.3,MacIntel,58.47953216,,,,,,,,,,,,,,,,,,,,,,,,,,,310,,,,,,,,,,,,,,,,,,,,,6,4,,,645.5472,4,right,0.1429,,1,0.3,"[2,3,1]",0.478433146,stimuli/card_100_transparent.png,100,4,0,4,0,1,,,,,
,,,,test,A,2024-05-08_13h01.43.698,Slot Machine Game,2023.1.3,MacIntel,58.47953216,,,,,,,,,,,,,,,,,,,,,,,,,,,410,,,,,,,,,,,,,,,,,,,,,6,4,,,647.5021,5,right,0.3018,,0.5,0.3,"[2,3,1]",0.680635789,stimuli/card_100_transparent.png,100,5,0,5,0,1,,,,,
,,,,test,A,2024-05-08_13h01.43.698,Slot Machine Game,2023.1.3,MacIntel,58.47953216,,,,,,,,,,,,,,,,,,,,,,,,,,,510,,,,,,,,,,,,,,,,,,,,,6,4,,,649.1323,6,right,0.0201,,0.5,0.3,"[2,3,1]",0.511994617,stimuli/card_100_transparent.png,100,6,0,6,0,1,,,,,
,,,,test,A,2024-05-08_13h01.43.698,Slot Machine Game,2023.1.3,MacIntel,58.47953216,,,,,,,,,,,,,,,,,,,,,,,,,,,510,,,,,,,,,,,,,,,,,,,,,6,4,,,650.4652,7,right,0.0615,,0.5,0.3,"[1,2,3]",0.398049592,stimuli/card_0_transparent.png,0,7,0,7,0,1,,,,,
,,,,test,A,2024-05-08_13h01.43.698,Slot Machine Game,2023.1.3,MacIntel,58.47953216,,,,,,,,,,,,,,,,,,,,,,,,,,,510,,,,,,,,,,,,,,,,,,,,,6,4,,,651.8329,8,right,0.1042,,1.5,0.3,"[1,2,3]",0.984811337,stimuli/card_0_transparent.png,0,8,0,8,0,1,,,,,
,,,,test,A,2024-05-08_13h01.43.698,Slot Machine Game,2023.1.3,MacIntel,58.47953216,,,,,,,,,,,,,,,,,,,,,,,,,,,520,,,,,,,,,,,,,,,,,,,,,6,4,,,654.2511,9,up,0.0584,,0.5,0.3,"[1,2,3]",0.736662751,stimuli/card_10_transparent.png,10,9,0,9,0,1,,,,,
,,,,test,A,2024-05-08_13h01.43.698,Slot Machine Game,2023.1.3,MacIntel,58.47953216,,,,,,,,,,,,,,,,,,,,,,,,,,,530,,,,,,,,,,,,,,,,,,,,,6,4,,,655.6182,10,up,0.0775,,1.5,0.3,"[1,2,3]",0.339374342,stimuli/card_10_transparent.png,10,10,0,10,0,1,,,,,
,,,,test,A,2024-05-08_13h01.43.698,Slot Machine Game,2023.1.3,MacIntel,58.47953216,,,,,,,,,,,,,,,,,,,,,,,,,,,530,,,,,,,,,,,,,,,,,,,,,6,4,,,658.0033,11,left,0.0105,,1,0.3,"[1,2,3]",0.057739146,stimuli/card_0_transparent.png,0,11,0,11,0,1,,,,,
,,,,test,A,2024-05-08_13h01.43.698,Slot Machine Game,2023.1.3,MacIntel,58.47953216,,,,,,,,,,,,,,,,,,,,,,,,,,,540,,,,,,,,,,,,,,,,,,,,,6,4,,,659.822,12,up,0.1919,,1.5,0.3,"[1,2,3]",0.490388963,stimuli/card_10_transparent.png,10,12,0,12,0,1,,,,,
,,,,test,A,2024-05-08_13h01.43.698,Slot Machine Game,2023.1.3,MacIntel,58.47953216,,,,,,,,,,,,,,,,,,,,,,,,,,,540,,,,,,,,,,,,,,,,,,,,,6,4,,,662.3223,13,right,0.0005,,0.5,0.3,"[1,2,3]",0.647410723,stimuli/card_0_transparent.png,0,13,0,13,0,1,,,,,
,,,,test,A,2024-05-08_13h01.43.698,Slot Machine Game,2023.1.3,MacIntel,58.47953216,,,,,,,,,,,,,,,,,,,,,,,,,,,550,,,,,,,,,,,,,,,,,,,,,6,4,,,663.6407,14,up,0.1274,,1,0.3,"[1,2,3]",0.310749816,stimuli/card_10_transparent.png,10,14,0,14,0,1,,,,,
,,,,test,A,2024-05-08_13h01.43.698,Slot Machine Game,2023.1.3,MacIntel,58.47953216,,,,,,,,,,,,,,,,,,,,,,,,,,,,,,,,,,,665.5754,,,,,,,,,,,,,,,,,,,,,,,,,,,,,,,,,5,0,5,0,1
,,,,test,A,2024-05-08_13h01.43.698,Slot Machine Game,2023.1.3,MacIntel,58.47953216,,,,,,,,,,,,,,,,,,,,,,,,,,,0,,,,,,,,,,,,,,,,,,,,,7,10,"[10,15]","[[3,1,2],[1,3,2]]",670.5811,0,right,0.2213,,1,0.3,"[3,1,2]",0.083299167,stimuli/card_0_transparent.png,0,0,0,0,0,1,,,,,
,,,,test,A,2024-05-08_13h01.43.698,Slot Machine Game,2023.1.3,MacIntel,58.47953216,,,,,,,,,,,,,,,,,,,,,,,,,,,100,,,,,,,,,,,,,,,,,,,,,7,10,,,672.6299,1,up,0.1244,,1,0.3,"[3,1,2]",0.457807771,stimuli/card_100_transparent.png,100,1,0,1,0,1,,,,,
,,,,test,A,2024-05-08_13h01.43.698,Slot Machine Game,2023.1.3,MacIntel,58.47953216,,,,,,,,,,,,,,,,,,,,,,,,,,,200,,,,,,,,,,,,,,,,,,,,,7,10,,,674.5644,2,up,0.1629,,1.5,0.3,"[3,1,2]",0.333001706,stimuli/card_100_transparent.png,100,2,0,2,0,1,,,,,
,,,,test,A,2024-05-08_13h01.43.698,Slot Machine Game,2023.1.3,MacIntel,58.47953216,,,,,,,,,,,,,,,,,,,,,,,,,,,300,,,,,,,,,,,,,,,,,,,,,7,10,,,677.0473,3,up,0.0475,,0.5,0.3,"[3,1,2]",0.504859517,stimuli/card_100_transparent.png,100,3,0,3,0,1,,,,,
,,,,test,A,2024-05-08_13h01.43.698,Slot Machine Game,2023.1.3,MacIntel,58.47953216,,,,,,,,,,,,,,,,,,,,,,,,,,,400,,,,,,,,,,,,,,,,,,,,,7,10,,,678.9479,4,up,0.019,,1.5,0.3,"[3,1,2]",0.479536081,stimuli/card_100_transparent.png,100,4,0,4,0,1,,,,,
,,,,test,A,2024-05-08_13h01.43.698,Slot Machine Game,2023.1.3,MacIntel,58.47953216,,,,,,,,,,,,,,,,,,,,,,,,,,,410,,,,,,,,,,,,,,,,,,,,,7,10,,,681.2668,5,up,0.1787,,1,0.3,"[3,1,2]",0.186789893,stimuli/card_10_transparent.png,10,5,0,5,0,1,,,,,
,,,,test,A,2024-05-08_13h01.43.698,Slot Machine Game,2023.1.3,MacIntel,58.47953216,,,,,,,,,,,,,,,,,,,,,,,,,,,510,,,,,,,,,,,,,,,,,,,,,7,10,,,683.2512,6,up,0.0495,,1,0.3,"[3,1,2]",0.697260737,stimuli/card_100_transparent.png,100,6,0,6,0,1,,,,,
,,,,test,A,2024-05-08_13h01.43.698,Slot Machine Game,2023.1.3,MacIntel,58.47953216,,,,,,,,,,,,,,,,,,,,,,,,,,,610,,,,,,,,,,,,,,,,,,,,,7,10,,,685.1025,7,up,0.0218,,0.5,0.3,"[3,1,2]",0.842235938,stimuli/card_100_transparent.png,100,7,0,7,0,1,,,,,
,,,,test,A,2024-05-08_13h01.43.698,Slot Machine Game,2023.1.3,MacIntel,58.47953216,,,,,,,,,,,,,,,,,,,,,,,,,,,710,,,,,,,,,,,,,,,,,,,,,7,10,,,686.453,8,up,0.0444,,1,0.3,"[3,1,2]",0.310770182,stimuli/card_100_transparent.png,100,8,0,8,0,1,,,,,
,,,,test,A,2024-05-08_13h01.43.698,Slot Machine Game,2023.1.3,MacIntel,58.47953216,,,,,,,,,,,,,,,,,,,,,,,,,,,710,,,,,,,,,,,,,,,,,,,,,7,10,,,688.3042,9,up,0.1314,,0.5,0.3,"[3,1,2]",0.060341043,stimuli/card_0_transparent.png,0,9,0,9,0,1,,,,,
,,,,test,A,2024-05-08_13h01.43.698,Slot Machine Game,2023.1.3,MacIntel,58.47953216,,,,,,,,,,,,,,,,,,,,,,,,,,,710,,,,,,,,,,,,,,,,,,,,,7,10,,,689.7555,10,up,0.1157,,1,0.3,"[1,3,2]",0.378453723,stimuli/card_0_transparent.png,0,10,0,10,0,1,,,,,
,,,,test,A,2024-05-08_13h01.43.698,Slot Machine Game,2023.1.3,MacIntel,58.47953216,,,,,,,,,,,,,,,,,,,,,,,,,,,810,,,,,,,,,,,,,,,,,,,,,7,10,,,691.6897,11,left,0.0897,,1,0.3,"[1,3,2]",0.211178664,stimuli/card_100_transparent.png,100,11,0,11,0,1,,,,,
,,,,test,A,2024-05-08_13h01.43.698,Slot Machine Game,2023.1.3,MacIntel,58.47953216,,,,,,,,,,,,,,,,,,,,,,,,,,,810,,,,,,,,,,,,,,,,,,,,,7,10,,,693.5895,12,left,0.0028,,1,0.3,"[1,3,2]",0.094519205,stimuli/card_0_transparent.png,0,12,0,12,0,1,,,,,
,,,,test,A,2024-05-08_13h01.43.698,Slot Machine Game,2023.1.3,MacIntel,58.47953216,,,,,,,,,,,,,,,,,,,,,,,,,,,910,,,,,,,,,,,,,,,,,,,,,7,10,,,695.4078,13,left,0.0534,,0.5,0.3,"[1,3,2]",0.399015951,stimuli/card_100_transparent.png,100,13,0,13,0,1,,,,,
,,,,test,A,2024-05-08_13h01.43.698,Slot Machine Game,2023.1.3,MacIntel,58.47953216,,,,,,,,,,,,,,,,,,,,,,,,,,,1010,,,,,,,,,,,,,,,,,,,,,7,10,,,696.7761,14,left,0.0519,,0.5,0.3,"[1,3,2]",0.227872164,stimuli/card_100_transparent.png,100,14,0,14,0,1,,,,,
,,,,test,A,2024-05-08_13h01.43.698,Slot Machine Game,2023.1.3,MacIntel,58.47953216,,,,,,,,,,,,,,,,,,,,,,,,,,,,,,,,,,,698.1419,,,,,,,,,,,,,,,,,,,,,,,,,,,,,,,,,6,0,6,0,1
,,,,test,A,2024-05-08_13h01.43.698,Slot Machine Game,2023.1.3,MacIntel,58.47953216,,,,,,,,,,,,,,,,,,,,,,,,,,,0,,,,,,,,,,,,,,,,,,,,,8,7,"[9,15]","[[1,3,2],[2,3,1]]",703.1501,0,left,0.4148,,1,0.3,"[1,3,2]",0.084484858,stimuli/card_0_transparent.png,0,0,0,0,0,1,,,,,
,,,,test,A,2024-05-08_13h01.43.698,Slot Machine Game,2023.1.3,MacIntel,58.47953216,,,,,,,,,,,,,,,,,,,,,,,,,,,0,,,,,,,,,,,,,,,,,,,,,8,7,,,705.3973,1,up,0.0732,,1.5,0.3,"[1,3,2]",0.229721422,stimuli/card_0_transparent.png,0,1,0,1,0,1,,,,,
,,,,test,A,2024-05-08_13h01.43.698,Slot Machine Game,2023.1.3,MacIntel,58.47953216,,,,,,,,,,,,,,,,,,,,,,,,,,,10,,,,,,,,,,,,,,,,,,,,,8,7,,,707.7832,2,right,0.0339,,1,0.3,"[1,3,2]",0.929952687,stimuli/card_10_transparent.png,10,2,0,2,0,1,,,,,
,,,,test,A,2024-05-08_13h01.43.698,Slot Machine Game,2023.1.3,MacIntel,58.47953216,,,,,,,,,,,,,,,,,,,,,,,,,,,110,,,,,,,,,,,,,,,,,,,,,8,7,,,709.6509,3,left,0.3403,,1.5,0.3,"[1,3,2]",0.372950678,stimuli/card_100_transparent.png,100,3,0,3,0,1,,,,,
,,,,test,A,2024-05-08_13h01.43.698,Slot Machine Game,2023.1.3,MacIntel,58.47953216,,,,,,,,,,,,,,,,,,,,,,,,,,,210,,,,,,,,,,,,,,,,,,,,,8,7,,,712.3175,4,left,0.0422,,0.5,0.3,"[1,3,2]",0.94887656,stimuli/card_100_transparent.png,100,4,0,4,0,1,,,,,
,,,,test,A,2024-05-08_13h01.43.698,Slot Machine Game,2023.1.3,MacIntel,58.47953216,,,,,,,,,,,,,,,,,,,,,,,,,,,210,,,,,,,,,,,,,,,,,,,,,8,7,,,713.6682,5,left,0.2833,,1,0.3,"[1,3,2]",0.046246715,stimuli/card_0_transparent.png,0,5,0,5,0,1,,,,,
,,,,test,A,2024-05-08_13h01.43.698,Slot Machine Game,2023.1.3,MacIntel,58.47953216,,,,,,,,,,,,,,,,,,,,,,,,,,,210,,,,,,,,,,,,,,,,,,,,,8,7,,,715.7714,6,left,0.3298,,1,0.3,"[1,3,2]",0.000705308,stimuli/card_0_transparent.png,0,6,0,6,0,1,,,,,
,,,,test,A,2024-05-08_13h01.43.698,Slot Machine Game,2023.1.3,MacIntel,58.47953216,,,,,,,,,,,,,,,,,,,,,,,,,,,220,,,,,,,,,,,,,,,,,,,,,8,7,,,717.9367,7,right,0.1757,,0.5,0.3,"[1,3,2]",0.475557381,stimuli/card_10_transparent.png,10,7,0,7,0,1,,,,,
,,,,test,A,2024-05-08_13h01.43.698,Slot Machine Game,2023.1.3,MacIntel,58.47953216,,,,,,,,,,,,,,,,,,,,,,,,,,,320,,,,,,,,,,,,,,,,,,,,,8,7,,,719.4217,8,up,0.0943,,0.5,0.3,"[1,3,2]",0.042098784,stimuli/card_100_transparent.png,100,8,0,8,0,1,,,,,
,,,,test,A,2024-05-08_13h01.43.698,Slot Machine Game,2023.1.3,MacIntel,58.47953216,,,,,,,,,,,,,,,,,,,,,,,,,,,420,,,,,,,,,,,,,,,,,,,,,8,7,,,720.823,9,up,0.0271,,1,0.3,"[2,3,1]",0.041161613,stimuli/card_100_transparent.png,100,9,0,9,0,1,,,,,
,,,,test,A,2024-05-08_13h01.43.698,Slot Machine Game,2023.1.3,MacIntel,58.47953216,,,,,,,,,,,,,,,,,,,,,,,,,,,420,,,,,,,,,,,,,,,,,,,,,8,7,,,722.674,10,up,0.1269,,1.5,0.3,"[2,3,1]",0.297308747,stimuli/card_0_transparent.png,0,10,0,10,0,1,,,,,
,,,,test,A,2024-05-08_13h01.43.698,Slot Machine Game,2023.1.3,MacIntel,58.47953216,,,,,,,,,,,,,,,,,,,,,,,,,,,430,,,,,,,,,,,,,,,,,,,,,8,7,,,725.1253,11,up,0.0143,,1,0.3,"[2,3,1]",0.120355816,stimuli/card_10_transparent.png,10,11,0,11,0,1,,,,,
,,,,test,A,2024-05-08_13h01.43.698,Slot Machine Game,2023.1.3,MacIntel,58.47953216,,,,,,,,,,,,,,,,,,,,,,,,,,,530,,,,,,,,,,,,,,,,,,,,,8,7,,,726.9591,12,right,0.0826,,0.5,0.3,"[2,3,1]",0.395237715,stimuli/card_100_transparent.png,100,12,0,12,0,1,,,,,
,,,,test,A,2024-05-08_13h01.43.698,Slot Machine Game,2023.1.3,MacIntel,58.47953216,,,,,,,,,,,,,,,,,,,,,,,,,,,530,,,,,,,,,,,,,,,,,,,,,8,7,,,728.3774,13,right,0.1601,,0.5,0.3,"[2,3,1]",0.09339419,stimuli/card_0_transparent.png,0,13,0,13,0,1,,,,,
,,,,test,A,2024-05-08_13h01.43.698,Slot Machine Game,2023.1.3,MacIntel,58.47953216,,,,,,,,,,,,,,,,,,,,,,,,,,,630,,,,,,,,,,,,,,,,,,,,,8,7,,,729.8619,14,right,0.0371,,1.5,0.3,"[2,3,1]",0.945788783,stimuli/card_100_transparent.png,100,14,0,14,0,1,,,,,
,,,,test,A,2024-05-08_13h01.43.698,Slot Machine Game,2023.1.3,MacIntel,58.47953216,,,,,,,,,,,,,,,,,,,,,,,,,,,,,,,,,,,732.2295,,,,,,,,,,,,,,,,,,,,,,,,,,,,,,,,,7,0,7,0,1
,,,,test,A,2024-05-08_13h01.43.698,Slot Machine Game,2023.1.3,MacIntel,58.47953216,,,,,,,,,,,,,,,,,,,,,,,,,,,10,,,,,,,,,,,,,,,,,,,,,9,9,[15],"[[3,1,2]]",737.235,0,right,0.0669,,0.5,0.3,"[3,1,2]",0.564926051,stimuli/card_10_transparent.png,10,0,0,0,0,1,,,,,
,,,,test,A,2024-05-08_13h01.43.698,Slot Machine Game,2023.1.3,MacIntel,58.47953216,,,,,,,,,,,,,,,,,,,,,,,,,,,110,,,,,,,,,,,,,,,,,,,,,9,9,,,738.6328,1,up,0.0769,,1.5,0.3,"[3,1,2]",0.757178275,stimuli/card_100_transparent.png,100,1,0,1,0,1,,,,,
,,,,test,A,2024-05-08_13h01.43.698,Slot Machine Game,2023.1.3,MacIntel,58.47953216,,,,,,,,,,,,,,,,,,,,,,,,,,,210,,,,,,,,,,,,,,,,,,,,,9,9,,,741.0169,2,up,0.0171,,1.5,0.3,"[3,1,2]",0.766476143,stimuli/card_100_transparent.png,100,2,0,2,0,1,,,,,
,,,,test,A,2024-05-08_13h01.43.698,Slot Machine Game,2023.1.3,MacIntel,58.47953216,,,,,,,,,,,,,,,,,,,,,,,,,,,310,,,,,,,,,,,,,,,,,,,,,9,9,,,743.3516,3,up,0.0098,,1.5,0.3,"[3,1,2]",0.724710544,stimuli/card_100_transparent.png,100,3,0,3,0,1,,,,,
,,,,test,A,2024-05-08_13h01.43.698,Slot Machine Game,2023.1.3,MacIntel,58.47953216,,,,,,,,,,,,,,,,,,,,,,,,,,,320,,,,,,,,,,,,,,,,,,,,,9,9,,,745.6852,4,up,0.085,,0.5,0.3,"[3,1,2]",0.111778936,stimuli/card_10_transparent.png,10,4,0,4,0,1,,,,,
,,,,test,A,2024-05-08_13h01.43.698,Slot Machine Game,2023.1.3,MacIntel,58.47953216,,,,,,,,,,,,,,,,,,,,,,,,,,,420,,,,,,,,,,,,,,,,,,,,,9,9,,,747.087,5,up,0.1937,,0.5,0.3,"[3,1,2]",0.702763749,stimuli/card_100_transparent.png,100,5,0,5,0,1,,,,,
,,,,test,A,2024-05-08_13h01.43.698,Slot Machine Game,2023.1.3,MacIntel,58.47953216,,,,,,,,,,,,,,,,,,,,,,,,,,,520,,,,,,,,,,,,,,,,,,,,,9,9,,,748.5884,6,up,0.1148,,1,0.3,"[3,1,2]",0.785912878,stimuli/card_100_transparent.png,100,6,0,6,0,1,,,,,
,,,,test,A,2024-05-08_13h01.43.698,Slot Machine Game,2023.1.3,MacIntel,58.47953216,,,,,,,,,,,,,,,,,,,,,,,,,,,620,,,,,,,,,,,,,,,,,,,,,9,9,,,750.5235,7,up,0.0348,,1.5,0.3,"[3,1,2]",0.416428478,stimuli/card_100_transparent.png,100,7,0,7,0,1,,,,,
,,,,test,A,2024-05-08_13h01.43.698,Slot Machine Game,2023.1.3,MacIntel,58.47953216,,,,,,,,,,,,,,,,,,,,,,,,,,,720,,,,,,,,,,,,,,,,,,,,,9,9,,,752.8752,8,up,0.1841,,1,0.3,"[3,1,2]",0.792497517,stimuli/card_100_transparent.png,100,8,0,8,0,1,,,,,
,,,,test,A,2024-05-08_13h01.43.698,Slot Machine Game,2023.1.3,MacIntel,58.47953216,,,,,,,,,,,,,,,,,,,,,,,,,,,820,,,,,,,,,,,,,,,,,,,,,9,9,,,754.8929,9,up,0.0886,,0.5,0.3,"[3,1,2]",0.491074593,stimuli/card_100_transparent.png,100,9,0,9,0,1,,,,,
,,,,test,A,2024-05-08_13h01.43.698,Slot Machine Game,2023.1.3,MacIntel,58.47953216,,,,,,,,,,,,,,,,,,,,,,,,,,,920,,,,,,,,,,,,,,,,,,,,,9,9,,,756.3084,10,up,0.132,,1,0.3,"[3,1,2]",0.627163253,stimuli/card_100_transparent.png,100,10,0,10,0,1,,,,,
,,,,test,A,2024-05-08_13h01.43.698,Slot Machine Game,2023.1.3,MacIntel,58.47953216,,,,,,,,,,,,,,,,,,,,,,,,,,,1020,,,,,,,,,,,,,,,,,,,,,9,9,,,758.2611,11,up,0.1242,,1,0.3,"[3,1,2]",0.695277521,stimuli/card_100_transparent.png,100,11,0,11,0,1,,,,,
,,,,test,A,2024-05-08_13h01.43.698,Slot Machine Game,2023.1.3,MacIntel,58.47953216,,,,,,,,,,,,,,,,,,,,,,,,,,,1120,,,,,,,,,,,,,,,,,,,,,9,9,,,760.2118,12,up,0.1767,,1,0.3,"[3,1,2]",0.505806021,stimuli/card_100_transparent.png,100,12,0,12,0,1,,,,,
,,,,test,A,2024-05-08_13h01.43.698,Slot Machine Game,2023.1.3,MacIntel,58.47953216,,,,,,,,,,,,,,,,,,,,,,,,,,,1220,,,,,,,,,,,,,,,,,,,,,9,9,,,762.2111,13,up,0.0157,,1,0.3,"[3,1,2]",0.810050875,stimuli/card_100_transparent.png,100,13,0,13,0,1,,,,,
,,,,test,A,2024-05-08_13h01.43.698,Slot Machine Game,2023.1.3,MacIntel,58.47953216,,,,,,,,,,,,,,,,,,,,,,,,,,,1220,,,,,,,,,,,,,,,,,,,,,9,9,,,764.0473,14,up,0.1584,,0.5,0.3,"[3,1,2]",0.075991488,stimuli/card_0_transparent.png,0,14,0,14,0,1,,,,,
,,,,test,A,2024-05-08_13h01.43.698,Slot Machine Game,2023.1.3,MacIntel,58.47953216,,,,,,,,,,,,,,,,,,,,,,,,,,,,,,,,,,,765.5152,,,,,,,,,,,,,,,,,,,,,,,,,,,,,,,,,8,0,8,0,1
,,,,test,A,2024-05-08_13h01.43.698,Slot Machine Game,2023.1.3,MacIntel,58.47953216,,,,,,,,,,,,,,,,,,,,,,,,,,,0,,,,,,,,,,,,,,,,,,,,,10,6,"[4,10,15]","[[2,3,1],[1,3,2],[3,2,1]]",770.5184,0,up,0.0769,,0.5,0.3,"[2,3,1]",0.365420138,stimuli/card_0_transparent.png,0,0,0,0,0,1,,,,,
,,,,test,A,2024-05-08_13h01.43.698,Slot Machine Game,2023.1.3,MacIntel,58.47953216,,,,,,,,,,,,,,,,,,,,,,,,,,,0,,,,,,,,,,,,,,,,,,,,,10,6,,,771.9173,1,up,0.037,,0.5,0.3,"[2,3,1]",0.927285908,stimuli/card_0_transparent.png,0,1,0,1,0,1,,,,,
,,,,test,A,2024-05-08_13h01.43.698,Slot Machine Game,2023.1.3,MacIntel,58.47953216,,,,,,,,,,,,,,,,,,,,,,,,,,,0,,,,,,,,,,,,,,,,,,,,,10,6,,,773.2682,2,up,0.0677,,0.5,0.3,"[2,3,1]",0.904984978,stimuli/card_0_transparent.png,0,2,0,2,0,1,,,,,
,,,,test,A,2024-05-08_13h01.43.698,Slot Machine Game,2023.1.3,MacIntel,58.47953216,,,,,,,,,,,,,,,,,,,,,,,,,,,10,,,,,,,,,,,,,,,,,,,,,10,6,,,774.6694,3,left,0.0774,,0.5,0.3,"[2,3,1]",0.670853384,stimuli/card_10_transparent.png,10,3,0,3,0,1,,,,,
,,,,test,A,2024-05-08_13h01.43.698,Slot Machine Game,2023.1.3,MacIntel,58.47953216,,,,,,,,,,,,,,,,,,,,,,,,,,,20,,,,,,,,,,,,,,,,,,,,,10,6,,,776.0536,4,left,0.0026,,1,0.3,"[1,3,2]",0.162130955,stimuli/card_10_transparent.png,10,4,0,4,0,1,,,,,
,,,,test,A,2024-05-08_13h01.43.698,Slot Machine Game,2023.1.3,MacIntel,58.47953216,,,,,,,,,,,,,,,,,,,,,,,,,,,,,,,,,,,,,,,,,,,,,,,,10,6,,,777.8702,5,,,,1,0.3,,,,,5,0,5,0,1,,,,,
,,,,test,A,2024-05-08_13h01.43.698,Slot Machine Game,2023.1.3,MacIntel,58.47953216,,,,,,,,,,,,,,,,,,,,,,,,,,,120,,,,,,,,,,,,,,,,,,,,,10,6,,,784.4086,6,left,0.0216,,1,0.3,"[1,3,2]",0.81436325,stimuli/card_100_transparent.png,100,6,0,6,0,1,,,,,
,,,,test,A,2024-05-08_13h01.43.698,Slot Machine Game,2023.1.3,MacIntel,58.47953216,,,,,,,,,,,,,,,,,,,,,,,,,,,220,,,,,,,,,,,,,,,,,,,,,10,6,,,786.2419,7,left,0.1078,,1,0.3,"[1,3,2]",0.924420191,stimuli/card_100_transparent.png,100,7,0,7,0,1,,,,,
,,,,test,A,2024-05-08_13h01.43.698,Slot Machine Game,2023.1.3,MacIntel,58.47953216,,,,,,,,,,,,,,,,,,,,,,,,,,,320,,,,,,,,,,,,,,,,,,,,,10,6,,,788.1619,8,left,0.1428,,1,0.3,"[1,3,2]",0.861352632,stimuli/card_100_transparent.png,100,8,0,8,0,1,,,,,
,,,,test,A,2024-05-08_13h01.43.698,Slot Machine Game,2023.1.3,MacIntel,58.47953216,,,,,,,,,,,,,,,,,,,,,,,,,,,420,,,,,,,,,,,,,,,,,,,,,10,6,,,790.1275,9,left,0.0017,,1.5,0.3,"[1,3,2]",0.771246534,stimuli/card_100_transparent.png,100,9,0,9,0,1,,,,,
,,,,test,A,2024-05-08_13h01.43.698,Slot Machine Game,2023.1.3,MacIntel,58.47953216,,,,,,,,,,,,,,,,,,,,,,,,,,,420,,,,,,,,,,,,,,,,,,,,,10,6,,,792.456,10,left,0.1333,,0.5,0.3,"[3,2,1]",0.949469474,stimuli/card_0_transparent.png,0,10,0,10,0,1,,,,,
,,,,test,A,2024-05-08_13h01.43.698,Slot Machine Game,2023.1.3,MacIntel,58.47953216,,,,,,,,,,,,,,,,,,,,,,,,,,,430,,,,,,,,,,,,,,,,,,,,,10,6,,,793.9136,11,up,0.0207,,1.5,0.3,"[3,2,1]",0.583684872,stimuli/card_10_transparent.png,10,11,0,11,0,1,,,,,
,,,,test,A,2024-05-08_13h01.43.698,Slot Machine Game,2023.1.3,MacIntel,58.47953216,,,,,,,,,,,,,,,,,,,,,,,,,,,530,,,,,,,,,,,,,,,,,,,,,10,6,,,796.2312,12,right,0.0312,,0.5,0.3,"[3,2,1]",0.23965903,stimuli/card_100_transparent.png,100,12,0,12,0,1,,,,,
,,,,test,A,2024-05-08_13h01.43.698,Slot Machine Game,2023.1.3,MacIntel,58.47953216,,,,,,,,,,,,,,,,,,,,,,,,,,,630,,,,,,,,,,,,,,,,,,,,,10,6,,,797.565,13,right,0.1831,,0.5,0.3,"[3,2,1]",0.99133168,stimuli/card_100_transparent.png,100,13,0,13,0,1,,,,,
,,,,test,A,2024-05-08_13h01.43.698,Slot Machine Game,2023.1.3,MacIntel,58.47953216,,,,,,,,,,,,,,,,,,,,,,,,,,,640,,,,,,,,,,,,,,,,,,,,,10,6,,,799.0676,14,right,0.0493,,0.5,0.3,"[3,2,1]",0.1693269,stimuli/card_10_transparent.png,10,14,0,14,0,1,,,,,
,,,,test,A,2024-05-08_13h01.43.698,Slot Machine Game,2023.1.3,MacIntel,58.47953216,,,,,,,,,,,,,,,,,,,,,,,,,,,,,,,,,,,800.4511,,,,,,,,,,,,,,,,,,,,,,,,,,,,,,,,,9,0,9,0,1
