practice_trials.thisRepN,practice_trials.thisTrialN,practice_trials.thisN,practice_trials.thisIndex,text_practice_instruction.started,key_resp_practice_instruction.started,key_resp_practice_instruction.keys,key_resp_practice_instruction.rt,text.started,key_resp.started,key_resp.keys,key_resp.rt,text_practice_reset.started,key_resp_practice_reset.started,key_resp_practice_reset.keys,key_resp_practice_reset.rt,text_practice_slots.started,text_practice_slots_2.started,key_resp_practice_slots.started,key_resp_practice_slots.keys,key_resp_practice_slots.rt,presentationInterval,polygon_practice_interval.started,polygon_practice_interval.stopped,reward_seq,reward_Img,Cuml_rew,currentTrialReward,text_practice_rewards.started,text_practice_rewards.stopped,text_practice_end.started,key_resp_practice_end.started,key_resp_practice_end.keys,key_resp_practice_end.rt,text_main_instruction.started,key_resp_main_instruction.started,participant,date,expName,psychopyVersion,frameRate,
,,,,62.73074900000029,62.73074900000029,space,17.475113700000293,,,,,,,,,,,,,,,,,,,,,,,,,,,,,test,2022-09-22_11h05.14.267,slotMachine,2022.2.4,143.80812544637013,
,,,,,,,,80.21696089999932,80.21696089999932,space,42.528249900000446,,,,,,,,,,,,,,,,,,,,,,,,,test,2022-09-22_11h05.14.267,slotMachine,2022.2.4,143.80812544637013,
,,,,,,,,,,,,122.75180100000034,122.75180100000034,space,13.073796399999992,,,,,,,,,,,,,,,,,,,,,test,2022-09-22_11h05.14.267,slotMachine,2022.2.4,143.80812544637013,
0,0,0,0,,,,,,,,,,,,,135.88167450000037,135.88167450000037,135.88167450000037,right,3.920340099999521,0.5,139.84730109999873,140.37544109999908,"[2, 1, 3]",stimuli/card_0_transparent.png,0,0,140.37544109999908,140.7061692999996,,,,,,,test,2022-09-22_11h05.14.267,slotMachine,2022.2.4,143.80812544637013,
1,0,1,0,,,,,,,,,,,,,140.7061692999996,140.7061692999996,140.7061692999996,down,1.783863000000565,1.0,142.52056540000012,143.5759151000002,"[2, 1, 3]",stimuli/card_10_transparent.png,10,10,143.5759151000002,143.91055269999924,,,,,,,test,2022-09-22_11h05.14.267,slotMachine,2022.2.4,143.80812544637013,
2,0,2,0,,,,,,,,,,,,,143.91055269999924,143.91055269999924,143.91055269999924,left,1.0014996000008978,0.5,144.94769799999995,145.4730724000001,"[2, 1, 3]",stimuli/card_10_transparent.png,20,10,145.4730724000001,145.80025399999977,,,,,,,test,2022-09-22_11h05.14.267,slotMachine,2022.2.4,143.80812544637013,
3,0,3,0,,,,,,,,,,,,,145.80025399999977,145.80025399999977,145.80025399999977,down,2.6185737999985577,1.5,148.46479120000004,150.02721699999893,"[2, 1, 3]",stimuli/card_100_transparent.png,120,100,150.02721699999893,150.3644308999992,,,,,,,test,2022-09-22_11h05.14.267,slotMachine,2022.2.4,143.80812544637013,
4,0,4,0,,,,,,,,,,,,,150.3644308999992,150.3644308999992,150.3644308999992,down,2.1619407999987743,1.5,152.5773165999999,154.11707620000016,"[2, 1, 3]",stimuli/card_100_transparent.png,220,100,154.11707620000016,154.45059459999902,,,,,,,test,2022-09-22_11h05.14.267,slotMachine,2022.2.4,143.80812544637013,
5,0,5,0,,,,,,,,,,,,,154.45059459999902,154.45059459999902,154.45059459999902,down,5.389867699999741,1.0,,,,,,,,,,,,,,,test,2022-09-22_11h05.14.267,slotMachine,2022.2.4,143.80812544637013,
6,0,6,0,,,,,,,,,,,,,159.90428109999993,159.90428109999993,159.90428109999993,down,4.131164100001115,1.5,164.08546709999973,165.6251398000004,"[2, 1, 3]",stimuli/card_100_transparent.png,320,100,165.6251398000004,165.95707570000013,,,,,,,test,2022-09-22_11h05.14.267,slotMachine,2022.2.4,143.80812544637013,
7,0,7,0,,,,,,,,,,,,,165.95707570000013,165.95707570000013,165.95707570000013,None,,1.0,,,,,,,,,,,,,,,test,2022-09-22_11h05.14.267,slotMachine,2022.2.4,143.80812544637013,
8,0,8,0,,,,,,,,,,,,,171.49894359999962,171.49894359999962,171.49894359999962,None,,1.0,,,,,,,,,,,,,,,test,2022-09-22_11h05.14.267,slotMachine,2022.2.4,143.80812544637013,
9,0,9,0,,,,,,,,,,,,,177.005461499999,177.005461499999,177.005461499999,down,2.867379899998923,1.5,179.9248577999988,181.46268359999885,"[2, 1, 3]",stimuli/card_100_transparent.png,420,100,181.46268359999885,181.80727149999984,,,,,,,test,2022-09-22_11h05.14.267,slotMachine,2022.2.4,143.80812544637013,
10,0,10,0,,,,,,,,,,,,,181.80727149999984,181.80727149999984,181.80727149999984,None,,1.0,,,,,,,,,,,,,,,test,2022-09-22_11h05.14.267,slotMachine,2022.2.4,143.80812544637013,
11,0,11,0,,,,,,,,,,,,,187.3378632999993,187.3378632999993,187.3378632999993,right,2.256844800000181,1.0,189.6288468999992,190.65426839999964,"[3, 2, 1]",stimuli/card_100_transparent.png,520,100,190.65426839999964,190.9937536999987,,,,,,,test,2022-09-22_11h05.14.267,slotMachine,2022.2.4,143.80812544637013,
12,0,12,0,,,,,,,,,,,,,190.9937536999987,190.9937536999987,190.9937536999987,down,1.5079905000002327,1.0,192.54753869999877,193.59861629999978,"[3, 2, 1]",stimuli/card_10_transparent.png,530,10,193.59861629999978,193.93588230000023,,,,,,,test,2022-09-22_11h05.14.267,slotMachine,2022.2.4,143.80812544637013,
13,0,13,0,,,,,,,,,,,,,193.93588230000023,193.93588230000023,193.93588230000023,down,0.8429078000008303,0.5,194.83853629999976,195.37511599999925,"[3, 2, 1]",stimuli/card_10_transparent.png,540,10,195.37511599999925,195.72600489999968,,,,,,,test,2022-09-22_11h05.14.267,slotMachine,2022.2.4,143.80812544637013,
14,0,14,0,,,,,,,,,,,,,195.72600489999968,195.72600489999968,195.72600489999968,left,0.806539299999713,1.0,196.58218510000006,197.62617320000027,"[3, 2, 1]",stimuli/card_0_transparent.png,540,0,197.62617320000027,197.97053979999873,,,,,,,test,2022-09-22_11h05.14.267,slotMachine,2022.2.4,143.80812544637013,
15,0,15,0,,,,,,,,,,,,,197.97053979999873,197.97053979999873,197.97053979999873,right,0.2803284999990865,1.5,198.29987970000002,199.8608411999994,"[3, 2, 1]",stimuli/card_100_transparent.png,640,100,199.8608411999994,200.2018692999991,,,,,,,test,2022-09-22_11h05.14.267,slotMachine,2022.2.4,143.80812544637013,
16,0,16,0,,,,,,,,,,,,,200.2018692999991,200.2018692999991,200.2018692999991,down,0.06916009999986272,1.5,200.32138519999899,201.87454889999935,"[3, 2, 1]",stimuli/card_10_transparent.png,650,10,201.87454889999935,202.21899630000007,,,,,,,test,2022-09-22_11h05.14.267,slotMachine,2022.2.4,143.80812544637013,
17,0,17,0,,,,,,,,,,,,,202.21899630000007,202.21899630000007,202.21899630000007,right,0.14324929999929736,1.5,202.40754769999876,203.9563930000004,"[3, 2, 1]",stimuli/card_0_transparent.png,650,0,203.9563930000004,204.29839249999895,,,,,,,test,2022-09-22_11h05.14.267,slotMachine,2022.2.4,143.80812544637013,
18,0,18,0,,,,,,,,,,,,,204.29839249999895,204.29839249999895,204.29839249999895,down,0.708048599999529,1.5,205.05647669999962,206.62216719999924,"[3, 2, 1]",stimuli/card_10_transparent.png,660,10,206.62216719999924,206.97871589999886,,,,,,,test,2022-09-22_11h05.14.267,slotMachine,2022.2.4,143.80812544637013,
19,0,19,0,,,,,,,,,,,,,206.97871589999886,206.97871589999886,206.97871589999886,right,0.09896470000057889,1.5,207.1460189999998,208.71277980000013,"[3, 2, 1]",stimuli/card_100_transparent.png,760,100,208.71277980000013,209.0248663000002,,,,,,,test,2022-09-22_11h05.14.267,slotMachine,2022.2.4,143.80812544637013,
,,,,,,,,,,,,,,,,,,,,,,,,,,,,,,209.0248663000002,209.0248663000002,space,22.18157009999959,,,test,2022-09-22_11h05.14.267,slotMachine,2022.2.4,143.80812544637013,
,,,,,,,,,,,,,,,,,,,,,,,,,,,,,,,,,,231.22715880000032,231.22715880000032,,,,,,
