key_resp_welcome_started,key_resp_welcome_keys,key_resp_welcome_rt,key_resp_welcome_duration,prolific_id,path_id,date,expName,psychopyVersion,OS,frameRate,key_resp_instruction1_started,key_resp_instruction1_keys,key_resp_instruction1_rt,key_resp_instruction1_duration,key_resp_instruction2_started,key_resp_instruction2_keys,key_resp_instruction2_rt,key_resp_instruction2_duration,key_resp_instruction3_started,key_resp_instruction3_keys,key_resp_instruction3_rt,key_resp_instruction3_duration,key_resp_instruction4_started,key_resp_instruction4_keys,key_resp_instruction4_rt,key_resp_instruction4_duration,practiceCondition,practice_reward_seqs,practice_trial_started,practice_trial_num,practice_resp_rt,practice_resp_duration,practice_resp_keys,prac_presentationInterval,"practice_reward_seq: 2,1,3",reward_img,cumulative_reward,trial_reward,practice_trials.thisRepN,practice_trials.thisTrialN,practice_trials.thisN,practice_trials.thisIndex,practice_trials.ran,"practice_reward_seq: 2,3,1",block_break_started,"practice_reward_seq: 1,3,2","practice_reward_seq: 3,1,2",practice_end_time,practice_end_keys,practice_end_rt,practice_end_duration,main_instruction_text_started,block_condition,block_order_indices,main_instruction_keys,main_instruction_rt,main_instruction_duration,block_number,block_assignment,current_condition,main_reward_seqs,main_trial_started,main_trial_num,main_trial_keys,main_trial_rt,main_trial_duration,main_presentationInterval,reward_presentation_time,main_reward_seq,reward_rand_val,main_reward_img,current_reward,main_trials.thisRepN,main_trials.thisTrialN,main_trials.thisN,main_trials.thisIndex,main_trials.ran,block.thisRepN,block.thisTrialN,block.thisN,block.thisIndex,block.ran,reward_amount,date_end_task
0.0011,space,1.5866,0.0005,test,A,2024-05-08_13h27.39.514,Slot Machine Game,2023.1.3,MacIntel,60.97560976,,,,,,,,,,,,,,,,,,,,,,,,,,,,,,,,,,,,,,,,,,,,,,,,,,,,,,,,,,,,,,,,,,,,,,,,,,
,,,,test,A,2024-05-08_13h27.39.514,Slot Machine Game,2023.1.3,MacIntel,60.97560976,1.6026,space,1.051,0.0041,,,,,,,,,,,,,,,,,,,,,,,,,,,,,,,,,,,,,,,,,,,,,,,,,,,,,,,,,,,,,,,,,,,,,,
,,,,test,A,2024-05-08_13h27.39.514,Slot Machine Game,2023.1.3,MacIntel,60.97560976,,,,,2.6768,space,1.2545,,,,,,,,,,,,,,,,,,,,,,,,,,,,,,,,,,,,,,,,,,,,,,,,,,,,,,,,,,,,,,,,,,,
,,,,test,A,2024-05-08_13h27.39.514,Slot Machine Game,2023.1.3,MacIntel,60.97560976,,,,,,,,,3.9608,space,0.5107,,,,,,,,,,,,,,,,,,,,,,,,,,,,,,,,,,,,,,,,,,,,,,,,,,,,,,,,,,,,,,,
,,,,test,A,2024-05-08_13h27.39.514,Slot Machine Game,2023.1.3,MacIntel,60.97560976,,,,,,,,,,,,,,,,,,,,,,,,,,,,,,,,,,,,,,,,,,,,,,,,,,,,,,,,,,,,,,,,,,,,,,,,,,
,,,,test,A,2024-05-08_13h27.39.514,Slot Machine Game,2023.1.3,MacIntel,60.97560976,,,,,,,,,,,,,146.0747,space,121.7255,,,,,,,,,,,,,,,,,,,,,,,,,,,,,,,,,,,,,,,,,,,,,,,,,,,,,,,,,,,
,,,,test,A,2024-05-08_13h27.39.514,Slot Machine Game,2023.1.3,MacIntel,60.97560976,,,,,,,,,,,,,,,,,"[9,15]","[[2,1,3],[2,3,1]]",267.8337,0,2.9019,,left,1.5,,stimuli/card_10_transparent.png,10,10,0,0,0,0,1,,,,,,,,,,,,,,,,,,,,,,,,,,,,,,,,,,,,,,,,,
,,,,test,A,2024-05-08_13h27.39.514,Slot Machine Game,2023.1.3,MacIntel,60.97560976,,,,,,,,,,,,,,,,,,,273.0557,1,,,,0.5,,,,,1,0,1,0,1,,,,,,,,,,,,,,,,,,,,,,,,,,,,,,,,,,,,,,,,,
,,,,test,A,2024-05-08_13h27.39.514,Slot Machine Game,2023.1.3,MacIntel,60.97560976,,,,,,,,,,,,,,,,,,,278.5674,2,,,,1.5,,,,,2,0,2,0,1,,,,,,,,,,,,,,,,,,,,,,,,,,,,,,,,,,,,,,,,,
,,,,test,A,2024-05-08_13h27.39.514,Slot Machine Game,2023.1.3,MacIntel,60.97560976,,,,,,,,,,,,,,,,,,,284.0841,3,,,,1,,,,,3,0,3,0,1,,,,,,,,,,,,,,,,,,,,,,,,,,,,,,,,,,,,,,,,,
,,,,test,A,2024-05-08_13h27.39.514,Slot Machine Game,2023.1.3,MacIntel,60.97560976,,,,,,,,,,,,,,,,,,,289.5913,4,,,,1.5,,,,,4,0,4,0,1,,,,,,,,,,,,,,,,,,,,,,,,,,,,,,,,,,,,,,,,,
,,,,test,A,2024-05-08_13h27.39.514,Slot Machine Game,2023.1.3,MacIntel,60.97560976,,,,,,,,,,,,,,,,,,,295.1081,5,,,,1,,,,,5,0,5,0,1,,,,,,,,,,,,,,,,,,,,,,,,,,,,,,,,,,,,,,,,,
,,,,test,A,2024-05-08_13h27.39.514,Slot Machine Game,2023.1.3,MacIntel,60.97560976,,,,,,,,,,,,,,,,,,,300.6107,6,,,,1.5,,,,,6,0,6,0,1,,,,,,,,,,,,,,,,,,,,,,,,,,,,,,,,,,,,,,,,,
,,,,test,A,2024-05-08_13h27.39.514,Slot Machine Game,2023.1.3,MacIntel,60.97560976,,,,,,,,,,,,,,,,,,,306.1149,7,,,,1,,,,,7,0,7,0,1,,,,,,,,,,,,,,,,,,,,,,,,,,,,,,,,,,,,,,,,,
,,,,test,A,2024-05-08_13h27.39.514,Slot Machine Game,2023.1.3,MacIntel,60.97560976,,,,,,,,,,,,,,,,,,,311.6179,8,,,,1,,,,,8,0,8,0,1,,,,,,,,,,,,,,,,,,,,,,,,,,,,,,,,,,,,,,,,,
,,,,test,A,2024-05-08_13h27.39.514,Slot Machine Game,2023.1.3,MacIntel,60.97560976,,,,,,,,,,,,,,,,,,,317.1215,9,,,,1.5,,,,,9,0,9,0,1,,,,,,,,,,,,,,,,,,,,,,,,,,,,,,,,,,,,,,,,,
,,,,test,A,2024-05-08_13h27.39.514,Slot Machine Game,2023.1.3,MacIntel,60.97560976,,,,,,,,,,,,,,,,,,,322.6245,10,,,,1,,,,,10,0,10,0,1,,,,,,,,,,,,,,,,,,,,,,,,,,,,,,,,,,,,,,,,,
,,,,test,A,2024-05-08_13h27.39.514,Slot Machine Game,2023.1.3,MacIntel,60.97560976,,,,,,,,,,,,,,,,,,,328.1274,11,,,,1,,,,,11,0,11,0,1,,,,,,,,,,,,,,,,,,,,,,,,,,,,,,,,,,,,,,,,,
,,,,test,A,2024-05-08_13h27.39.514,Slot Machine Game,2023.1.3,MacIntel,60.97560976,,,,,,,,,,,,,,,,,,,333.6295,12,,,,1,,,,,12,0,12,0,1,,,,,,,,,,,,,,,,,,,,,,,,,,,,,,,,,,,,,,,,,
,,,,test,A,2024-05-08_13h27.39.514,Slot Machine Game,2023.1.3,MacIntel,60.97560976,,,,,,,,,,,,,,,,,,,339.1342,13,,,,1,,,,,13,0,13,0,1,,,,,,,,,,,,,,,,,,,,,,,,,,,,,,,,,,,,,,,,,
,,,,test,A,2024-05-08_13h27.39.514,Slot Machine Game,2023.1.3,MacIntel,60.97560976,,,,,,,,,,,,,,,,,,,344.6361,14,,,,1,,,,,14,0,14,0,1,,,,,,,,,,,,,,,,,,,,,,,,,,,,,,,,,,,,,,,,,
,,,,test,A,2024-05-08_13h27.39.514,Slot Machine Game,2023.1.3,MacIntel,60.97560976,,,,,,,,,,,,,,,,,"[6,15]","[[1,3,2],[3,1,2]]",355.1436,0,,,,0.5,,,,,0,0,0,0,1,,350.1394,,,,,,,,,,,,,,,,,,,,,,,,,,,,,,,,,,,,,,,
,,,,test,A,2024-05-08_13h27.39.514,Slot Machine Game,2023.1.3,MacIntel,60.97560976,,,,,,,,,,,,,,,,,,,360.6472,1,,,,1,,,,,1,0,1,0,1,,,,,,,,,,,,,,,,,,,,,,,,,,,,,,,,,,,,,,,,,
,,,,test,A,2024-05-08_13h27.39.514,Slot Machine Game,2023.1.3,MacIntel,60.97560976,,,,,,,,,,,,,,,,,,,366.1486,2,,,,1.5,,,,,2,0,2,0,1,,,,,,,,,,,,,,,,,,,,,,,,,,,,,,,,,,,,,,,,,
,,,,test,A,2024-05-08_13h27.39.514,Slot Machine Game,2023.1.3,MacIntel,60.97560976,,,,,,,,,,,,,,,,,,,371.6526,3,,,,1.5,,,,,3,0,3,0,1,,,,,,,,,,,,,,,,,,,,,,,,,,,,,,,,,,,,,,,,,
,,,,test,A,2024-05-08_13h27.39.514,Slot Machine Game,2023.1.3,MacIntel,60.97560976,,,,,,,,,,,,,,,,,,,377.1554,4,,,,1,,,,,4,0,4,0,1,,,,,,,,,,,,,,,,,,,,,,,,,,,,,,,,,,,,,,,,,
,,,,test,A,2024-05-08_13h27.39.514,Slot Machine Game,2023.1.3,MacIntel,60.97560976,,,,,,,,,,,,,,,,,,,382.6586,5,,,,1,,,,,5,0,5,0,1,,,,,,,,,,,,,,,,,,,,,,,,,,,,,,,,,,,,,,,,,
,,,,test,A,2024-05-08_13h27.39.514,Slot Machine Game,2023.1.3,MacIntel,60.97560976,,,,,,,,,,,,,,,,,,,388.1614,6,,,,1.5,,,,,6,0,6,0,1,,,,,,,,,,,,,,,,,,,,,,,,,,,,,,,,,,,,,,,,,
,,,,test,A,2024-05-08_13h27.39.514,Slot Machine Game,2023.1.3,MacIntel,60.97560976,,,,,,,,,,,,,,,,,,,393.6652,7,,,,0.5,,,,,7,0,7,0,1,,,,,,,,,,,,,,,,,,,,,,,,,,,,,,,,,,,,,,,,,
,,,,test,A,2024-05-08_13h27.39.514,Slot Machine Game,2023.1.3,MacIntel,60.97560976,,,,,,,,,,,,,,,,,,,399.1667,8,,,,0.5,,,,,8,0,8,0,1,,,,,,,,,,,,,,,,,,,,,,,,,,,,,,,,,,,,,,,,,
,,,,test,A,2024-05-08_13h27.39.514,Slot Machine Game,2023.1.3,MacIntel,60.97560976,,,,,,,,,,,,,,,,,,,404.6702,9,,,,0.5,,,,,9,0,9,0,1,,,,,,,,,,,,,,,,,,,,,,,,,,,,,,,,,,,,,,,,,
,,,,test,A,2024-05-08_13h27.39.514,Slot Machine Game,2023.1.3,MacIntel,60.97560976,,,,,,,,,,,,,,,,,,,410.1743,10,,,,1,,,,,10,0,10,0,1,,,,,,,,,,,,,,,,,,,,,,,,,,,,,,,,,,,,,,,,,
,,,,test,A,2024-05-08_13h27.39.514,Slot Machine Game,2023.1.3,MacIntel,60.97560976,,,,,,,,,,,,,,,,,,,415.6762,11,,,,1.5,,,,,11,0,11,0,1,,,,,,,,,,,,,,,,,,,,,,,,,,,,,,,,,,,,,,,,,
,,,,test,A,2024-05-08_13h27.39.514,Slot Machine Game,2023.1.3,MacIntel,60.97560976,,,,,,,,,,,,,,,,,,,421.1785,12,,,,1.5,,,,,12,0,12,0,1,,,,,,,,,,,,,,,,,,,,,,,,,,,,,,,,,,,,,,,,,
,,,,test,A,2024-05-08_13h27.39.514,Slot Machine Game,2023.1.3,MacIntel,60.97560976,,,,,,,,,,,,,,,,,,,426.6838,13,,,,0.5,,,,,13,0,13,0,1,,,,,,,,,,,,,,,,,,,,,,,,,,,,,,,,,,,,,,,,,
,,,,test,A,2024-05-08_13h27.39.514,Slot Machine Game,2023.1.3,MacIntel,60.97560976,,,,,,,,,,,,,,,,,,,432.1867,14,,,,0.5,,,,,14,0,14,0,1,,,,,,,,,,,,,,,,,,,,,,,,,,,,,,,,,,,,,,,,,
,,,,test,A,2024-05-08_13h27.39.514,Slot Machine Game,2023.1.3,MacIntel,60.97560976,,,,,,,,,,,,,,,,,,,,,,,,,,,,,,,,,,,437.6896,,,442.692,space,473.0161,,,,,,,,,,,,,,,,,,,,,,,,,,,,,,,,,,
,,,,test,A,2024-05-08_13h27.39.514,Slot Machine Game,2023.1.3,MacIntel,60.97560976,,,,,,,,,,,,,,,,,,,,,,,,,,,,,,,,,,,,,,,,,,915.7237,1,"[0,1,2,3,4,5,6,7,8,9]",space,1.2406,,,,,,,,,,,,,,,,,,,,,,,,,,,,
,,,,test,A,2024-05-08_13h27.39.514,Slot Machine Game,2023.1.3,MacIntel,60.97560976,,,,,,,,,,,,,,,,,,,,,,,,,,,10,,,,,,,,,,,,,,,,,,,,,1,1,"[12,15]","[[2,1,3],[2,3,1]]",916.9941,0,left,0.1235,,1.5,0.3,"[2,1,3]",0.650634209,stimuli/card_10_transparent.png,10,0,0,0,0,1,,,,,,,
,,,,test,A,2024-05-08_13h27.39.514,Slot Machine Game,2023.1.3,MacIntel,60.97560976,,,,,,,,,,,,,,,,,,,,,,,,,,,110,,,,,,,,,,,,,,,,,,,,,1,1,,,919.4412,1,up,0.0557,,1.5,0.3,"[2,1,3]",0.272104509,stimuli/card_100_transparent.png,100,1,0,1,0,1,,,,,,,
,,,,test,A,2024-05-08_13h27.39.514,Slot Machine Game,2023.1.3,MacIntel,60.97560976,,,,,,,,,,,,,,,,,,,,,,,,,,,210,,,,,,,,,,,,,,,,,,,,,1,1,,,921.8097,2,up,0.0198,,0.5,0.3,"[2,1,3]",0.322974454,stimuli/card_100_transparent.png,100,2,0,2,0,1,,,,,,,
,,,,test,A,2024-05-08_13h27.39.514,Slot Machine Game,2023.1.3,MacIntel,60.97560976,,,,,,,,,,,,,,,,,,,,,,,,,,,210,,,,,,,,,,,,,,,,,,,,,1,1,,,923.1433,3,up,0.0849,,0.5,0.3,"[2,1,3]",0.071798257,stimuli/card_0_transparent.png,0,3,0,3,0,1,,,,,,,
,,,,test,A,2024-05-08_13h27.39.514,Slot Machine Game,2023.1.3,MacIntel,60.97560976,,,,,,,,,,,,,,,,,,,,,,,,,,,210,,,,,,,,,,,,,,,,,,,,,1,1,,,924.561,4,up,0.0453,,0.5,0.3,"[2,1,3]",0.022493734,stimuli/card_0_transparent.png,0,4,0,4,0,1,,,,,,,
,,,,test,A,2024-05-08_13h27.39.514,Slot Machine Game,2023.1.3,MacIntel,60.97560976,,,,,,,,,,,,,,,,,,,,,,,,,,,310,,,,,,,,,,,,,,,,,,,,,1,1,,,925.9118,5,left,0.1357,,1.5,0.3,"[2,1,3]",0.148059125,stimuli/card_100_transparent.png,100,5,0,5,0,1,,,,,,,
,,,,test,A,2024-05-08_13h27.39.514,Slot Machine Game,2023.1.3,MacIntel,60.97560976,,,,,,,,,,,,,,,,,,,,,,,,,,,320,,,,,,,,,,,,,,,,,,,,,1,1,,,928.3798,6,left,0.0935,,1,0.3,"[2,1,3]",0.784824536,stimuli/card_10_transparent.png,10,6,0,6,0,1,,,,,,,
,,,,test,A,2024-05-08_13h27.39.514,Slot Machine Game,2023.1.3,MacIntel,60.97560976,,,,,,,,,,,,,,,,,,,,,,,,,,,330,,,,,,,,,,,,,,,,,,,,,1,1,,,930.2973,7,left,0.0616,,1,0.3,"[2,1,3]",0.337867978,stimuli/card_10_transparent.png,10,7,0,7,0,1,,,,,,,
,,,,test,A,2024-05-08_13h27.39.514,Slot Machine Game,2023.1.3,MacIntel,60.97560976,,,,,,,,,,,,,,,,,,,,,,,,,,,340,,,,,,,,,,,,,,,,,,,,,1,1,,,932.1818,8,left,0.0205,,1.5,0.3,"[2,1,3]",0.713088991,stimuli/card_10_transparent.png,10,8,0,8,0,1,,,,,,,
,,,,test,A,2024-05-08_13h27.39.514,Slot Machine Game,2023.1.3,MacIntel,60.97560976,,,,,,,,,,,,,,,,,,,,,,,,,,,350,,,,,,,,,,,,,,,,,,,,,1,1,,,934.4997,9,left,0.1271,,1,0.3,"[2,1,3]",0.839048509,stimuli/card_10_transparent.png,10,9,0,9,0,1,,,,,,,
,,,,test,A,2024-05-08_13h27.39.514,Slot Machine Game,2023.1.3,MacIntel,60.97560976,,,,,,,,,,,,,,,,,,,,,,,,,,,350,,,,,,,,,,,,,,,,,,,,,1,1,,,936.4506,10,right,0.002,,1.5,0.3,"[2,1,3]",0.4203389,stimuli/card_0_transparent.png,0,10,0,10,0,1,,,,,,,
,,,,test,A,2024-05-08_13h27.39.514,Slot Machine Game,2023.1.3,MacIntel,60.97560976,,,,,,,,,,,,,,,,,,,,,,,,,,,450,,,,,,,,,,,,,,,,,,,,,1,1,,,938.7856,11,right,0.0149,,1.5,0.3,"[2,1,3]",0.085129104,stimuli/card_100_transparent.png,100,11,0,11,0,1,,,,,,,
,,,,test,A,2024-05-08_13h27.39.514,Slot Machine Game,2023.1.3,MacIntel,60.97560976,,,,,,,,,,,,,,,,,,,,,,,,,,,450,,,,,,,,,,,,,,,,,,,,,1,1,,,941.1033,12,up,0.0507,,1,0.3,"[2,3,1]",0.899837771,stimuli/card_0_transparent.png,0,12,0,12,0,1,,,,,,,
,,,,test,A,2024-05-08_13h27.39.514,Slot Machine Game,2023.1.3,MacIntel,60.97560976,,,,,,,,,,,,,,,,,,,,,,,,,,,450,,,,,,,,,,,,,,,,,,,,,1,1,,,942.9856,13,up,0.0022,,1,0.3,"[2,3,1]",0.677648293,stimuli/card_0_transparent.png,0,13,0,13,0,1,,,,,,,
,,,,test,A,2024-05-08_13h27.39.514,Slot Machine Game,2023.1.3,MacIntel,60.97560976,,,,,,,,,,,,,,,,,,,,,,,,,,,460,,,,,,,,,,,,,,,,,,,,,1,1,,,944.806,14,up,0.1409,,0.5,0.3,"[2,3,1]",0.125796531,stimuli/card_10_transparent.png,10,14,0,14,0,1,,,,,,,
,,,,test,A,2024-05-08_13h27.39.514,Slot Machine Game,2023.1.3,MacIntel,60.97560976,,,,,,,,,,,,,,,,,,,,,,,,,,,,,,,,,,,946.2562,,,,,,,,,,,,,,,,,,,,,,,,,,,,,,,,,0,0,0,0,1,,
,,,,test,A,2024-05-08_13h27.39.514,Slot Machine Game,2023.1.3,MacIntel,60.97560976,,,,,,,,,,,,,,,,,,,,,,,,,,,100,,,,,,,,,,,,,,,,,,,,,2,2,"[6,15]","[[1,3,2],[3,2,1]]",951.2617,0,left,0.0484,,1.5,0.3,"[1,3,2]",0.331705493,stimuli/card_100_transparent.png,100,0,0,0,0,1,,,,,,,
,,,,test,A,2024-05-08_13h27.39.514,Slot Machine Game,2023.1.3,MacIntel,60.97560976,,,,,,,,,,,,,,,,,,,,,,,,,,,200,,,,,,,,,,,,,,,,,,,,,2,2,,,953.6438,1,left,0.135,,1,0.3,"[1,3,2]",0.936362366,stimuli/card_100_transparent.png,100,1,0,1,0,1,,,,,,,
,,,,test,A,2024-05-08_13h27.39.514,Slot Machine Game,2023.1.3,MacIntel,60.97560976,,,,,,,,,,,,,,,,,,,,,,,,,,,200,,,,,,,,,,,,,,,,,,,,,2,2,,,955.5942,2,up,0.1332,,1,0.3,"[1,3,2]",0.754136835,stimuli/card_0_transparent.png,0,2,0,2,0,1,,,,,,,
,,,,test,A,2024-05-08_13h27.39.514,Slot Machine Game,2023.1.3,MacIntel,60.97560976,,,,,,,,,,,,,,,,,,,,,,,,,,,200,,,,,,,,,,,,,,,,,,,,,2,2,,,957.5455,3,up,0.8602,,1.5,0.3,"[1,3,2]",0.272276327,stimuli/card_0_transparent.png,0,3,0,3,0,1,,,,,,,
,,,,test,A,2024-05-08_13h27.39.514,Slot Machine Game,2023.1.3,MacIntel,60.97560976,,,,,,,,,,,,,,,,,,,,,,,,,,,200,,,,,,,,,,,,,,,,,,,,,2,2,,,960.7144,4,up,0.1341,,1,0.3,"[1,3,2]",0.37523478,stimuli/card_0_transparent.png,0,4,0,4,0,1,,,,,,,
,,,,test,A,2024-05-08_13h27.39.514,Slot Machine Game,2023.1.3,MacIntel,60.97560976,,,,,,,,,,,,,,,,,,,,,,,,,,,200,,,,,,,,,,,,,,,,,,,,,2,2,,,962.6646,5,up,0.1472,,1.5,0.3,"[1,3,2]",0.701593656,stimuli/card_0_transparent.png,0,5,0,5,0,1,,,,,,,
,,,,test,A,2024-05-08_13h27.39.514,Slot Machine Game,2023.1.3,MacIntel,60.97560976,,,,,,,,,,,,,,,,,,,,,,,,,,,210,,,,,,,,,,,,,,,,,,,,,2,2,,,965.1167,6,up,0.0326,,0.5,0.3,"[3,2,1]",0.258628353,stimuli/card_10_transparent.png,10,6,0,6,0,1,,,,,,,
,,,,test,A,2024-05-08_13h27.39.514,Slot Machine Game,2023.1.3,MacIntel,60.97560976,,,,,,,,,,,,,,,,,,,,,,,,,,,310,,,,,,,,,,,,,,,,,,,,,2,2,,,966.4877,7,up,0.0982,,0.5,0.3,"[3,2,1]",0.104603537,stimuli/card_100_transparent.png,100,7,0,7,0,1,,,,,,,
,,,,test,A,2024-05-08_13h27.39.514,Slot Machine Game,2023.1.3,MacIntel,60.97560976,,,,,,,,,,,,,,,,,,,,,,,,,,,310,,,,,,,,,,,,,,,,,,,,,2,2,,,967.9011,8,up,0.1124,,1.5,0.3,"[3,2,1]",0.046691877,stimuli/card_0_transparent.png,0,8,0,8,0,1,,,,,,,
,,,,test,A,2024-05-08_13h27.39.514,Slot Machine Game,2023.1.3,MacIntel,60.97560976,,,,,,,,,,,,,,,,,,,,,,,,,,,320,,,,,,,,,,,,,,,,,,,,,2,2,,,970.319,9,up,0.0901,,1.5,0.3,"[3,2,1]",0.863843568,stimuli/card_10_transparent.png,10,9,0,9,0,1,,,,,,,
,,,,test,A,2024-05-08_13h27.39.514,Slot Machine Game,2023.1.3,MacIntel,60.97560976,,,,,,,,,,,,,,,,,,,,,,,,,,,330,,,,,,,,,,,,,,,,,,,,,2,2,,,972.7216,10,up,0.0315,,1,0.3,"[3,2,1]",0.683758011,stimuli/card_10_transparent.png,10,10,0,10,0,1,,,,,,,
,,,,test,A,2024-05-08_13h27.39.514,Slot Machine Game,2023.1.3,MacIntel,60.97560976,,,,,,,,,,,,,,,,,,,,,,,,,,,340,,,,,,,,,,,,,,,,,,,,,2,2,,,974.5722,11,up,0.0975,,1,0.3,"[3,2,1]",0.830587501,stimuli/card_10_transparent.png,10,11,0,11,0,1,,,,,,,
,,,,test,A,2024-05-08_13h27.39.514,Slot Machine Game,2023.1.3,MacIntel,60.97560976,,,,,,,,,,,,,,,,,,,,,,,,,,,350,,,,,,,,,,,,,,,,,,,,,2,2,,,976.473,12,up,0.1523,,0.5,0.3,"[3,2,1]",0.264297931,stimuli/card_10_transparent.png,10,12,0,12,0,1,,,,,,,
,,,,test,A,2024-05-08_13h27.39.514,Slot Machine Game,2023.1.3,MacIntel,60.97560976,,,,,,,,,,,,,,,,,,,,,,,,,,,450,,,,,,,,,,,,,,,,,,,,,2,2,,,977.9403,13,up,0.0526,,1.5,0.3,"[3,2,1]",0.185934265,stimuli/card_100_transparent.png,100,13,0,13,0,1,,,,,,,
,,,,test,A,2024-05-08_13h27.39.514,Slot Machine Game,2023.1.3,MacIntel,60.97560976,,,,,,,,,,,,,,,,,,,,,,,,,,,460,,,,,,,,,,,,,,,,,,,,,2,2,,,980.2922,14,up,0.0666,,1,0.3,"[3,2,1]",0.271432148,stimuli/card_10_transparent.png,10,14,0,14,0,1,,,,,,,
,,,,test,A,2024-05-08_13h27.39.514,Slot Machine Game,2023.1.3,MacIntel,60.97560976,,,,,,,,,,,,,,,,,,,,,,,,,,,,,,,,,,,982.1767,,,,,,,,,,,,,,,,,,,,,,,,,,,,,,,,,1,0,1,0,1,,
,,,,test,A,2024-05-08_13h27.39.514,Slot Machine Game,2023.1.3,MacIntel,60.97560976,,,,,,,,,,,,,,,,,,,,,,,,,,,100,,,,,,,,,,,,,,,,,,,,,3,3,"[15,15]","[[3,1,2],[3,1,2]]",987.1829,0,up,0.3339,,1.5,0.3,"[3,1,2]",0.995999855,stimuli/card_100_transparent.png,100,0,0,0,0,1,,,,,,,
,,,,test,A,2024-05-08_13h27.39.514,Slot Machine Game,2023.1.3,MacIntel,60.97560976,,,,,,,,,,,,,,,,,,,,,,,,,,,200,,,,,,,,,,,,,,,,,,,,,3,3,,,989.8474,1,up,0.0299,,1,0.3,"[3,1,2]",0.586867092,stimuli/card_100_transparent.png,100,1,0,1,0,1,,,,,,,
,,,,test,A,2024-05-08_13h27.39.514,Slot Machine Game,2023.1.3,MacIntel,60.97560976,,,,,,,,,,,,,,,,,,,,,,,,,,,300,,,,,,,,,,,,,,,,,,,,,3,3,,,991.6818,2,up,0.0401,,1.5,0.3,"[3,1,2]",0.223053511,stimuli/card_100_transparent.png,100,2,0,2,0,1,,,,,,,
,,,,test,A,2024-05-08_13h27.39.514,Slot Machine Game,2023.1.3,MacIntel,60.97560976,,,,,,,,,,,,,,,,,,,,,,,,,,,400,,,,,,,,,,,,,,,,,,,,,3,3,,,994.0498,3,up,0.1344,,1,0.3,"[3,1,2]",0.744005204,stimuli/card_100_transparent.png,100,3,0,3,0,1,,,,,,,
,,,,test,A,2024-05-08_13h27.39.514,Slot Machine Game,2023.1.3,MacIntel,60.97560976,,,,,,,,,,,,,,,,,,,,,,,,,,,410,,,,,,,,,,,,,,,,,,,,,3,3,,,996.0175,4,up,0.0339,,1.5,0.3,"[3,1,2]",0.166272562,stimuli/card_10_transparent.png,10,4,0,4,0,1,,,,,,,
,,,,test,A,2024-05-08_13h27.39.514,Slot Machine Game,2023.1.3,MacIntel,60.97560976,,,,,,,,,,,,,,,,,,,,,,,,,,,510,,,,,,,,,,,,,,,,,,,,,3,3,,,998.3688,5,up,0.0585,,1,0.3,"[3,1,2]",0.851358481,stimuli/card_100_transparent.png,100,5,0,5,0,1,,,,,,,
,,,,test,A,2024-05-08_13h27.39.514,Slot Machine Game,2023.1.3,MacIntel,60.97560976,,,,,,,,,,,,,,,,,,,,,,,,,,,610,,,,,,,,,,,,,,,,,,,,,3,3,,,1000.2532,6,up,0.0407,,0.5,0.3,"[3,1,2]",0.552906446,stimuli/card_100_transparent.png,100,6,0,6,0,1,,,,,,,
,,,,test,A,2024-05-08_13h27.39.514,Slot Machine Game,2023.1.3,MacIntel,60.97560976,,,,,,,,,,,,,,,,,,,,,,,,,,,710,,,,,,,,,,,,,,,,,,,,,3,3,,,1001.6203,7,up,0.1101,,1.5,0.3,"[3,1,2]",0.521681288,stimuli/card_100_transparent.png,100,7,0,7,0,1,,,,,,,
,,,,test,A,2024-05-08_13h27.39.514,Slot Machine Game,2023.1.3,MacIntel,60.97560976,,,,,,,,,,,,,,,,,,,,,,,,,,,810,,,,,,,,,,,,,,,,,,,,,3,3,,,1004.0387,8,up,0.1344,,1,0.3,"[3,1,2]",0.20840277,stimuli/card_100_transparent.png,100,8,0,8,0,1,,,,,,,
,,,,test,A,2024-05-08_13h27.39.514,Slot Machine Game,2023.1.3,MacIntel,60.97560976,,,,,,,,,,,,,,,,,,,,,,,,,,,810,,,,,,,,,,,,,,,,,,,,,3,3,,,1005.9732,9,up,0.8938,,1.5,0.3,"[3,1,2]",0.095202913,stimuli/card_0_transparent.png,0,9,0,9,0,1,,,,,,,
,,,,test,A,2024-05-08_13h27.39.514,Slot Machine Game,2023.1.3,MacIntel,60.97560976,,,,,,,,,,,,,,,,,,,,,,,,,,,910,,,,,,,,,,,,,,,,,,,,,3,3,,,1009.1752,10,up,0.0625,,1.5,0.3,"[3,1,2]",0.743159307,stimuli/card_100_transparent.png,100,10,0,10,0,1,,,,,,,
,,,,test,A,2024-05-08_13h27.39.514,Slot Machine Game,2023.1.3,MacIntel,60.97560976,,,,,,,,,,,,,,,,,,,,,,,,,,,1010,,,,,,,,,,,,,,,,,,,,,3,3,,,1011.5595,11,up,0.0593,,1.5,0.3,"[3,1,2]",0.878563153,stimuli/card_100_transparent.png,100,11,0,11,0,1,,,,,,,
,,,,test,A,2024-05-08_13h27.39.514,Slot Machine Game,2023.1.3,MacIntel,60.97560976,,,,,,,,,,,,,,,,,,,,,,,,,,,1110,,,,,,,,,,,,,,,,,,,,,3,3,,,1013.9443,12,up,0.0526,,0.5,0.3,"[3,1,2]",0.309974179,stimuli/card_100_transparent.png,100,12,0,12,0,1,,,,,,,
,,,,test,A,2024-05-08_13h27.39.514,Slot Machine Game,2023.1.3,MacIntel,60.97560976,,,,,,,,,,,,,,,,,,,,,,,,,,,1210,,,,,,,,,,,,,,,,,,,,,3,3,,,1015.295,13,up,0.0489,,0.5,0.3,"[3,1,2]",0.992719961,stimuli/card_100_transparent.png,100,13,0,13,0,1,,,,,,,
,,,,test,A,2024-05-08_13h27.39.514,Slot Machine Game,2023.1.3,MacIntel,60.97560976,,,,,,,,,,,,,,,,,,,,,,,,,,,1310,,,,,,,,,,,,,,,,,,,,,3,3,,,1016.6461,14,up,0.0859,,1.5,0.3,"[3,1,2]",0.83242689,stimuli/card_100_transparent.png,100,14,0,14,0,1,,,,,,,
,,,,test,A,2024-05-08_13h27.39.514,Slot Machine Game,2023.1.3,MacIntel,60.97560976,,,,,,,,,,,,,,,,,,,,,,,,,,,,,,,,,,,1019.0645,,,,,,,,,,,,,,,,,,,,,,,,,,,,,,,,,2,0,2,0,1,,
,,,,test,A,2024-05-08_13h27.39.514,Slot Machine Game,2023.1.3,MacIntel,60.97560976,,,,,,,,,,,,,,,,,,,,,,,,,,,0,,,,,,,,,,,,,,,,,,,,,4,4,"[7,15]","[[2,3,1],[1,2,3]]",1024.0697,0,up,0.0907,,1.5,0.3,"[2,3,1]",0.221996675,stimuli/card_0_transparent.png,0,0,0,0,0,1,,,,,,,
,,,,test,A,2024-05-08_13h27.39.514,Slot Machine Game,2023.1.3,MacIntel,60.97560976,,,,,,,,,,,,,,,,,,,,,,,,,,,0,,,,,,,,,,,,,,,,,,,,,4,4,,,1026.4681,1,up,0.0773,,1.5,0.3,"[2,3,1]",0.635864666,stimuli/card_0_transparent.png,0,1,0,1,0,1,,,,,,,
,,,,test,A,2024-05-08_13h27.39.514,Slot Machine Game,2023.1.3,MacIntel,60.97560976,,,,,,,,,,,,,,,,,,,,,,,,,,,100,,,,,,,,,,,,,,,,,,,,,4,4,,,1028.8518,2,up,0.0599,,1,0.3,"[2,3,1]",0.067275047,stimuli/card_100_transparent.png,100,2,0,2,0,1,,,,,,,
,,,,test,A,2024-05-08_13h27.39.514,Slot Machine Game,2023.1.3,MacIntel,60.97560976,,,,,,,,,,,,,,,,,,,,,,,,,,,110,,,,,,,,,,,,,,,,,,,,,4,4,,,1030.7206,3,up,0.0455,,0.5,0.3,"[2,3,1]",0.120669136,stimuli/card_10_transparent.png,10,3,0,3,0,1,,,,,,,
,,,,test,A,2024-05-08_13h27.39.514,Slot Machine Game,2023.1.3,MacIntel,60.97560976,,,,,,,,,,,,,,,,,,,,,,,,,,,110,,,,,,,,,,,,,,,,,,,,,4,4,,,1032.0711,4,up,1.2486,,1.5,0.3,"[2,3,1]",0.294183328,stimuli/card_0_transparent.png,0,4,0,4,0,1,,,,,,,
,,,,test,A,2024-05-08_13h27.39.514,Slot Machine Game,2023.1.3,MacIntel,60.97560976,,,,,,,,,,,,,,,,,,,,,,,,,,,110,,,,,,,,,,,,,,,,,,,,,4,4,,,1035.64,5,up,0.0428,,1.5,0.3,"[2,3,1]",0.904947802,stimuli/card_0_transparent.png,0,5,0,5,0,1,,,,,,,
,,,,test,A,2024-05-08_13h27.39.514,Slot Machine Game,2023.1.3,MacIntel,60.97560976,,,,,,,,,,,,,,,,,,,,,,,,,,,210,,,,,,,,,,,,,,,,,,,,,4,4,,,1037.9912,6,up,0.1069,,1.5,0.3,"[2,3,1]",0.048481962,stimuli/card_100_transparent.png,100,6,0,6,0,1,,,,,,,
,,,,test,A,2024-05-08_13h27.39.514,Slot Machine Game,2023.1.3,MacIntel,60.97560976,,,,,,,,,,,,,,,,,,,,,,,,,,,210,,,,,,,,,,,,,,,,,,,,,4,4,,,1040.3995,7,up,0.2372,,1.5,0.3,"[1,2,3]",0.073984129,stimuli/card_0_transparent.png,0,7,0,7,0,1,,,,,,,
,,,,test,A,2024-05-08_13h27.39.514,Slot Machine Game,2023.1.3,MacIntel,60.97560976,,,,,,,,,,,,,,,,,,,,,,,,,,,220,,,,,,,,,,,,,,,,,,,,,4,4,,,1042.9608,8,up,0.2436,,1.5,0.3,"[1,2,3]",0.974280479,stimuli/card_10_transparent.png,10,8,0,8,0,1,,,,,,,
,,,,test,A,2024-05-08_13h27.39.514,Slot Machine Game,2023.1.3,MacIntel,60.97560976,,,,,,,,,,,,,,,,,,,,,,,,,,,220,,,,,,,,,,,,,,,,,,,,,4,4,,,1045.5117,9,up,0.0644,,1,0.3,"[1,2,3]",0.099727814,stimuli/card_0_transparent.png,0,9,0,9,0,1,,,,,,,
,,,,test,A,2024-05-08_13h27.39.514,Slot Machine Game,2023.1.3,MacIntel,60.97560976,,,,,,,,,,,,,,,,,,,,,,,,,,,230,,,,,,,,,,,,,,,,,,,,,4,4,,,1047.3808,10,up,0.1943,,1.5,0.3,"[1,2,3]",0.797666837,stimuli/card_10_transparent.png,10,10,0,10,0,1,,,,,,,
,,,,test,A,2024-05-08_13h27.39.514,Slot Machine Game,2023.1.3,MacIntel,60.97560976,,,,,,,,,,,,,,,,,,,,,,,,,,,330,,,,,,,,,,,,,,,,,,,,,4,4,,,1049.8863,11,up,0.1249,,1,0.3,"[1,2,3]",0.143017,stimuli/card_100_transparent.png,100,11,0,11,0,1,,,,,,,
,,,,test,A,2024-05-08_13h27.39.514,Slot Machine Game,2023.1.3,MacIntel,60.97560976,,,,,,,,,,,,,,,,,,,,,,,,,,,340,,,,,,,,,,,,,,,,,,,,,4,4,,,1051.8317,12,up,0.0218,,1,0.3,"[1,2,3]",0.682964823,stimuli/card_10_transparent.png,10,12,0,12,0,1,,,,,,,
,,,,test,A,2024-05-08_13h27.39.514,Slot Machine Game,2023.1.3,MacIntel,60.97560976,,,,,,,,,,,,,,,,,,,,,,,,,,,440,,,,,,,,,,,,,,,,,,,,,4,4,,,1053.65,13,left,0.411,,1,0.3,"[1,2,3]",0.915693411,stimuli/card_100_transparent.png,100,13,0,13,0,1,,,,,,,
,,,,test,A,2024-05-08_13h27.39.514,Slot Machine Game,2023.1.3,MacIntel,60.97560976,,,,,,,,,,,,,,,,,,,,,,,,,,,540,,,,,,,,,,,,,,,,,,,,,4,4,,,1055.868,14,left,0.0221,,0.5,0.3,"[1,2,3]",0.85510171,stimuli/card_100_transparent.png,100,14,0,14,0,1,,,,,,,
,,,,test,A,2024-05-08_13h27.39.514,Slot Machine Game,2023.1.3,MacIntel,60.97560976,,,,,,,,,,,,,,,,,,,,,,,,,,,,,,,,,,,1057.2017,,,,,,,,,,,,,,,,,,,,,,,,,,,,,,,,,3,0,3,0,1,,
,,,,test,A,2024-05-08_13h27.39.514,Slot Machine Game,2023.1.3,MacIntel,60.97560976,,,,,,,,,,,,,,,,,,,,,,,,,,,100,,,,,,,,,,,,,,,,,,,,,5,5,"[5,15]","[[1,2,3],[3,1,2]]",1062.1912,0,left,0.0448,,0.5,0.3,"[1,2,3]",0.665932689,stimuli/card_100_transparent.png,100,0,0,0,0,1,,,,,,,
,,,,test,A,2024-05-08_13h27.39.514,Slot Machine Game,2023.1.3,MacIntel,60.97560976,,,,,,,,,,,,,,,,,,,,,,,,,,,200,,,,,,,,,,,,,,,,,,,,,5,5,,,1063.5557,1,left,0.0948,,1.5,0.3,"[1,2,3]",0.612520314,stimuli/card_100_transparent.png,100,1,0,1,0,1,,,,,,,
,,,,test,A,2024-05-08_13h27.39.514,Slot Machine Game,2023.1.3,MacIntel,60.97560976,,,,,,,,,,,,,,,,,,,,,,,,,,,300,,,,,,,,,,,,,,,,,,,,,5,5,,,1065.9742,2,left,0.0182,,0.5,0.3,"[1,2,3]",0.768386772,stimuli/card_100_transparent.png,100,2,0,2,0,1,,,,,,,
,,,,test,A,2024-05-08_13h27.39.514,Slot Machine Game,2023.1.3,MacIntel,60.97560976,,,,,,,,,,,,,,,,,,,,,,,,,,,300,,,,,,,,,,,,,,,,,,,,,5,5,,,1067.3067,3,left,1.1486,,0.5,0.3,"[1,2,3]",0.055398197,stimuli/card_0_transparent.png,0,3,0,3,0,1,,,,,,,
,,,,test,A,2024-05-08_13h27.39.514,Slot Machine Game,2023.1.3,MacIntel,60.97560976,,,,,,,,,,,,,,,,,,,,,,,,,,,300,,,,,,,,,,,,,,,,,,,,,5,5,,,1069.7757,4,left,0.2528,,1,0.3,"[1,2,3]",0.052762091,stimuli/card_0_transparent.png,0,4,0,4,0,1,,,,,,,
,,,,test,A,2024-05-08_13h27.39.514,Slot Machine Game,2023.1.3,MacIntel,60.97560976,,,,,,,,,,,,,,,,,,,,,,,,,,,300,,,,,,,,,,,,,,,,,,,,,5,5,,,1071.8597,5,left,0.849,,0.5,0.3,"[3,1,2]",0.463376553,stimuli/card_0_transparent.png,0,5,0,5,0,1,,,,,,,
,,,,test,A,2024-05-08_13h27.39.514,Slot Machine Game,2023.1.3,MacIntel,60.97560976,,,,,,,,,,,,,,,,,,,,,,,,,,,300,,,,,,,,,,,,,,,,,,,,,5,5,,,1074.0288,6,left,0.1535,,1.5,0.3,"[3,1,2]",0.674866841,stimuli/card_0_transparent.png,0,6,0,6,0,1,,,,,,,
,,,,test,A,2024-05-08_13h27.39.514,Slot Machine Game,2023.1.3,MacIntel,60.97560976,,,,,,,,,,,,,,,,,,,,,,,,,,,300,,,,,,,,,,,,,,,,,,,,,5,5,,,1076.4969,7,left,0.0116,,0.5,0.3,"[3,1,2]",0.8165888,stimuli/card_0_transparent.png,0,7,0,7,0,1,,,,,,,
,,,,test,A,2024-05-08_13h27.39.514,Slot Machine Game,2023.1.3,MacIntel,60.97560976,,,,,,,,,,,,,,,,,,,,,,,,,,,300,,,,,,,,,,,,,,,,,,,,,5,5,,,1077.8297,8,left,0.0505,,0.5,0.3,"[3,1,2]",0.624786288,stimuli/card_0_transparent.png,0,8,0,8,0,1,,,,,,,
,,,,test,A,2024-05-08_13h27.39.514,Slot Machine Game,2023.1.3,MacIntel,60.97560976,,,,,,,,,,,,,,,,,,,,,,,,,,,300,,,,,,,,,,,,,,,,,,,,,5,5,,,1079.1977,9,left,0.3413,,1.5,0.3,"[3,1,2]",0.884866446,stimuli/card_0_transparent.png,0,9,0,9,0,1,,,,,,,
,,,,test,A,2024-05-08_13h27.39.514,Slot Machine Game,2023.1.3,MacIntel,60.97560976,,,,,,,,,,,,,,,,,,,,,,,,,,,400,,,,,,,,,,,,,,,,,,,,,5,5,,,1081.8491,10,left,0.6168,,0.5,0.3,"[3,1,2]",0.078378873,stimuli/card_100_transparent.png,100,10,0,10,0,1,,,,,,,
,,,,test,A,2024-05-08_13h27.39.514,Slot Machine Game,2023.1.3,MacIntel,60.97560976,,,,,,,,,,,,,,,,,,,,,,,,,,,400,,,,,,,,,,,,,,,,,,,,,5,5,,,1083.7994,11,left,0.0097,,0.5,0.3,"[3,1,2]",0.387637419,stimuli/card_0_transparent.png,0,11,0,11,0,1,,,,,,,
,,,,test,A,2024-05-08_13h27.39.514,Slot Machine Game,2023.1.3,MacIntel,60.97560976,,,,,,,,,,,,,,,,,,,,,,,,,,,410,,,,,,,,,,,,,,,,,,,,,5,5,,,1085.1166,12,left,0.4244,,0.5,0.3,"[3,1,2]",0.196760931,stimuli/card_10_transparent.png,10,12,0,12,0,1,,,,,,,
,,,,test,A,2024-05-08_13h27.39.514,Slot Machine Game,2023.1.3,MacIntel,60.97560976,,,,,,,,,,,,,,,,,,,,,,,,,,,410,,,,,,,,,,,,,,,,,,,,,5,5,,,1086.8514,13,left,0.3028,,0.5,0.3,"[3,1,2]",0.483403733,stimuli/card_0_transparent.png,0,13,0,13,0,1,,,,,,,
,,,,test,A,2024-05-08_13h27.39.514,Slot Machine Game,2023.1.3,MacIntel,60.97560976,,,,,,,,,,,,,,,,,,,,,,,,,,,410,,,,,,,,,,,,,,,,,,,,,5,5,,,1088.4854,14,left,0.2667,,1.5,0.3,"[3,1,2]",0.59040682,stimuli/card_0_transparent.png,0,14,0,14,0,1,,,,,,,
,,,,test,A,2024-05-08_13h27.39.514,Slot Machine Game,2023.1.3,MacIntel,60.97560976,,,,,,,,,,,,,,,,,,,,,,,,,,,,,,,,,,,1091.0709,,,,,,,,,,,,,,,,,,,,,,,,,,,,,,,,,4,0,4,0,1,,
,,,,test,A,2024-05-08_13h27.39.514,Slot Machine Game,2023.1.3,MacIntel,60.97560976,,,,,,,,,,,,,,,,,,,,,,,,,,,10,,,,,,,,,,,,,,,,,,,,,6,6,"[4,10,15]","[[2,3,1],[1,3,2],[3,2,1]]",1096.0741,0,left,0.0921,,1,0.3,"[2,3,1]",0.215201121,stimuli/card_10_transparent.png,10,0,0,0,0,1,,,,,,,
,,,,test,A,2024-05-08_13h27.39.514,Slot Machine Game,2023.1.3,MacIntel,60.97560976,,,,,,,,,,,,,,,,,,,,,,,,,,,10,,,,,,,,,,,,,,,,,,,,,6,6,,,1097.9916,1,left,0.026,,1,0.3,"[2,3,1]",0.034921456,stimuli/card_0_transparent.png,0,1,0,1,0,1,,,,,,,
,,,,test,A,2024-05-08_13h27.39.514,Slot Machine Game,2023.1.3,MacIntel,60.97560976,,,,,,,,,,,,,,,,,,,,,,,,,,,20,,,,,,,,,,,,,,,,,,,,,6,6,,,1099.826,2,left,0.0187,,1,0.3,"[2,3,1]",0.397043949,stimuli/card_10_transparent.png,10,2,0,2,0,1,,,,,,,
,,,,test,A,2024-05-08_13h27.39.514,Slot Machine Game,2023.1.3,MacIntel,60.97560976,,,,,,,,,,,,,,,,,,,,,,,,,,,30,,,,,,,,,,,,,,,,,,,,,6,6,,,1101.6603,3,left,0.0435,,1.5,0.3,"[2,3,1]",0.868145357,stimuli/card_10_transparent.png,10,3,0,3,0,1,,,,,,,
,,,,test,A,2024-05-08_13h27.39.514,Slot Machine Game,2023.1.3,MacIntel,60.97560976,,,,,,,,,,,,,,,,,,,,,,,,,,,130,,,,,,,,,,,,,,,,,,,,,6,6,,,1104.0117,4,left,0.1633,,1.5,0.3,"[1,3,2]",0.308568585,stimuli/card_100_transparent.png,100,4,0,4,0,1,,,,,,,
,,,,test,A,2024-05-08_13h27.39.514,Slot Machine Game,2023.1.3,MacIntel,60.97560976,,,,,,,,,,,,,,,,,,,,,,,,,,,230,,,,,,,,,,,,,,,,,,,,,6,6,,,1106.4796,5,left,0.0272,,0.5,0.3,"[1,3,2]",0.594563695,stimuli/card_100_transparent.png,100,5,0,5,0,1,,,,,,,
,,,,test,A,2024-05-08_13h27.39.514,Slot Machine Game,2023.1.3,MacIntel,60.97560976,,,,,,,,,,,,,,,,,,,,,,,,,,,330,,,,,,,,,,,,,,,,,,,,,6,6,,,1107.8136,6,left,0.2183,,1,0.3,"[1,3,2]",0.892703306,stimuli/card_100_transparent.png,100,6,0,6,0,1,,,,,,,
,,,,test,A,2024-05-08_13h27.39.514,Slot Machine Game,2023.1.3,MacIntel,60.97560976,,,,,,,,,,,,,,,,,,,,,,,,,,,430,,,,,,,,,,,,,,,,,,,,,6,6,,,1109.8482,7,left,0.2354,,0.5,0.3,"[1,3,2]",0.862305572,stimuli/card_100_transparent.png,100,7,0,7,0,1,,,,,,,
,,,,test,A,2024-05-08_13h27.39.514,Slot Machine Game,2023.1.3,MacIntel,60.97560976,,,,,,,,,,,,,,,,,,,,,,,,,,,530,,,,,,,,,,,,,,,,,,,,,6,6,,,1111.4157,8,left,3.094,,1,0.3,"[1,3,2]",0.854759751,stimuli/card_100_transparent.png,100,8,0,8,0,1,,,,,,,
,,,,test,A,2024-05-08_13h27.39.514,Slot Machine Game,2023.1.3,MacIntel,60.97560976,,,,,,,,,,,,,,,,,,,,,,,,,,,630,,,,,,,,,,,,,,,,,,,,,6,6,,,1116.3178,9,left,0.2065,,1.5,0.3,"[1,3,2]",0.385514891,stimuli/card_100_transparent.png,100,9,0,9,0,1,,,,,,,
,,,,test,A,2024-05-08_13h27.39.514,Slot Machine Game,2023.1.3,MacIntel,60.97560976,,,,,,,,,,,,,,,,,,,,,,,,,,,630,,,,,,,,,,,,,,,,,,,,,6,6,,,1118.8528,10,left,0.3064,,1,0.3,"[3,2,1]",0.546210098,stimuli/card_0_transparent.png,0,10,0,10,0,1,,,,,,,
,,,,test,A,2024-05-08_13h27.39.514,Slot Machine Game,2023.1.3,MacIntel,60.97560976,,,,,,,,,,,,,,,,,,,,,,,,,,,640,,,,,,,,,,,,,,,,,,,,,6,6,,,1120.9545,11,left,0.6143,,1,0.3,"[3,2,1]",0.153520802,stimuli/card_10_transparent.png,10,11,0,11,0,1,,,,,,,
,,,,test,A,2024-05-08_13h27.39.514,Slot Machine Game,2023.1.3,MacIntel,60.97560976,,,,,,,,,,,,,,,,,,,,,,,,,,,640,,,,,,,,,,,,,,,,,,,,,6,6,,,1123.3963,12,left,1.1943,,0.5,0.3,"[3,2,1]",0.847523775,stimuli/card_0_transparent.png,0,12,0,12,0,1,,,,,,,
,,,,test,A,2024-05-08_13h27.39.514,Slot Machine Game,2023.1.3,MacIntel,60.97560976,,,,,,,,,,,,,,,,,,,,,,,,,,,650,,,,,,,,,,,,,,,,,,,,,6,6,,,1125.9081,13,left,0.0081,,1,0.3,"[3,2,1]",0.180985769,stimuli/card_10_transparent.png,10,13,0,13,0,1,,,,,,,
,,,,test,A,2024-05-08_13h27.39.514,Slot Machine Game,2023.1.3,MacIntel,60.97560976,,,,,,,,,,,,,,,,,,,,,,,,,,,750,,,,,,,,,,,,,,,,,,,,,6,6,,,1127.7127,14,up,0.0297,,0.5,0.3,"[3,2,1]",0.15203358,stimuli/card_100_transparent.png,100,14,0,14,0,1,,,,,,,
,,,,test,A,2024-05-08_13h27.39.514,Slot Machine Game,2023.1.3,MacIntel,60.97560976,,,,,,,,,,,,,,,,,,,,,,,,,,,,,,,,,,,1129.0591,,,,,,,,,,,,,,,,,,,,,,,,,,,,,,,,,5,0,5,0,1,,
,,,,test,A,2024-05-08_13h27.39.514,Slot Machine Game,2023.1.3,MacIntel,60.97560976,,,,,,,,,,,,,,,,,,,,,,,,,,,0,,,,,,,,,,,,,,,,,,,,,7,7,"[9,15]","[[1,3,2],[2,3,1]]",1134.0649,0,up,0.0259,,0.5,0.3,"[1,3,2]",0.770012481,stimuli/card_0_transparent.png,0,0,0,0,0,1,,,,,,,
,,,,test,A,2024-05-08_13h27.39.514,Slot Machine Game,2023.1.3,MacIntel,60.97560976,,,,,,,,,,,,,,,,,,,,,,,,,,,0,,,,,,,,,,,,,,,,,,,,,7,7,,,1135.4293,1,up,0.1266,,1.5,0.3,"[1,3,2]",0.322767642,stimuli/card_0_transparent.png,0,1,0,1,0,1,,,,,,,
,,,,test,A,2024-05-08_13h27.39.514,Slot Machine Game,2023.1.3,MacIntel,60.97560976,,,,,,,,,,,,,,,,,,,,,,,,,,,0,,,,,,,,,,,,,,,,,,,,,7,7,,,1137.8808,2,up,0.4204,,0.5,0.3,"[1,3,2]",0.980731831,stimuli/card_0_transparent.png,0,2,0,2,0,1,,,,,,,
,,,,test,A,2024-05-08_13h27.39.514,Slot Machine Game,2023.1.3,MacIntel,60.97560976,,,,,,,,,,,,,,,,,,,,,,,,,,,0,,,,,,,,,,,,,,,,,,,,,7,7,,,1139.6041,3,up,0.052,,1.5,0.3,"[1,3,2]",0.446310448,stimuli/card_0_transparent.png,0,3,0,3,0,1,,,,,,,
,,,,test,A,2024-05-08_13h27.39.514,Slot Machine Game,2023.1.3,MacIntel,60.97560976,,,,,,,,,,,,,,,,,,,,,,,,,,,0,,,,,,,,,,,,,,,,,,,,,7,7,,,1141.9654,4,up,0.0571,,1,0.3,"[1,3,2]",0.560385051,stimuli/card_0_transparent.png,0,4,0,4,0,1,,,,,,,
,,,,test,A,2024-05-08_13h27.39.514,Slot Machine Game,2023.1.3,MacIntel,60.97560976,,,,,,,,,,,,,,,,,,,,,,,,,,,0,,,,,,,,,,,,,,,,,,,,,7,7,,,1143.8167,5,up,0.0112,,1.5,0.3,"[1,3,2]",0.928328593,stimuli/card_0_transparent.png,0,5,0,5,0,1,,,,,,,
,,,,test,A,2024-05-08_13h27.39.514,Slot Machine Game,2023.1.3,MacIntel,60.97560976,,,,,,,,,,,,,,,,,,,,,,,,,,,0,,,,,,,,,,,,,,,,,,,,,7,7,,,1146.1344,6,up,0.1622,,1.5,0.3,"[1,3,2]",0.318649418,stimuli/card_0_transparent.png,0,6,0,6,0,1,,,,,,,
,,,,test,A,2024-05-08_13h27.39.514,Slot Machine Game,2023.1.3,MacIntel,60.97560976,,,,,,,,,,,,,,,,,,,,,,,,,,,10,,,,,,,,,,,,,,,,,,,,,7,7,,,1148.6198,7,up,0.6995,,1.5,0.3,"[1,3,2]",0.104459108,stimuli/card_10_transparent.png,10,7,0,7,0,1,,,,,,,
,,,,test,A,2024-05-08_13h27.39.514,Slot Machine Game,2023.1.3,MacIntel,60.97560976,,,,,,,,,,,,,,,,,,,,,,,,,,,20,,,,,,,,,,,,,,,,,,,,,7,7,,,1151.6409,8,up,1.0288,,0.5,0.3,"[1,3,2]",0.185540339,stimuli/card_10_transparent.png,10,8,0,8,0,1,,,,,,,
,,,,test,A,2024-05-08_13h27.39.514,Slot Machine Game,2023.1.3,MacIntel,60.97560976,,,,,,,,,,,,,,,,,,,,,,,,,,,120,,,,,,,,,,,,,,,,,,,,,7,7,,,1153.9893,9,up,0.0945,,0.5,0.3,"[2,3,1]",0.052070904,stimuli/card_100_transparent.png,100,9,0,9,0,1,,,,,,,
,,,,test,A,2024-05-08_13h27.39.514,Slot Machine Game,2023.1.3,MacIntel,60.97560976,,,,,,,,,,,,,,,,,,,,,,,,,,,220,,,,,,,,,,,,,,,,,,,,,7,7,,,1155.3905,10,up,0.093,,1,0.3,"[2,3,1]",0.010407991,stimuli/card_100_transparent.png,100,10,0,10,0,1,,,,,,,
,,,,test,A,2024-05-08_13h27.39.514,Slot Machine Game,2023.1.3,MacIntel,60.97560976,,,,,,,,,,,,,,,,,,,,,,,,,,,230,,,,,,,,,,,,,,,,,,,,,7,7,,,1157.3076,11,up,0.0941,,0.5,0.3,"[2,3,1]",0.184273604,stimuli/card_10_transparent.png,10,11,0,11,0,1,,,,,,,
,,,,test,A,2024-05-08_13h27.39.514,Slot Machine Game,2023.1.3,MacIntel,60.97560976,,,,,,,,,,,,,,,,,,,,,,,,,,,230,,,,,,,,,,,,,,,,,,,,,7,7,,,1158.7089,12,up,0.269,,1,0.3,"[2,3,1]",0.425735252,stimuli/card_0_transparent.png,0,12,0,12,0,1,,,,,,,
,,,,test,A,2024-05-08_13h27.39.514,Slot Machine Game,2023.1.3,MacIntel,60.97560976,,,,,,,,,,,,,,,,,,,,,,,,,,,,,,,,,,,,,,,,,,,,,,,,7,7,,,1160.7934,13,,,,1,0.3,,,,,13,0,13,0,1,,,,,,,
,,,,test,A,2024-05-08_13h27.39.514,Slot Machine Game,2023.1.3,MacIntel,60.97560976,,,,,,,,,,,,,,,,,,,,,,,,,,,230,,,,,,,,,,,,,,,,,,,,,7,7,,,1166.2993,14,up,0.0402,,1.5,0.3,"[2,3,1]",0.948729231,stimuli/card_0_transparent.png,0,14,0,14,0,1,,,,,,,
,,,,test,A,2024-05-08_13h27.39.514,Slot Machine Game,2023.1.3,MacIntel,60.97560976,,,,,,,,,,,,,,,,,,,,,,,,,,,,,,,,,,,1168.6648,,,,,,,,,,,,,,,,,,,,,,,,,,,,,,,,,6,0,6,0,1,,
,,,,test,A,2024-05-08_13h27.39.514,Slot Machine Game,2023.1.3,MacIntel,60.97560976,,,,,,,,,,,,,,,,,,,,,,,,,,,100,,,,,,,,,,,,,,,,,,,,,8,8,"[11,15]","[[2,1,3],[1,2,3]]",1173.6703,0,up,0.0101,,0.5,0.3,"[2,1,3]",0.52458647,stimuli/card_100_transparent.png,100,0,0,0,0,1,,,,,,,
,,,,test,A,2024-05-08_13h27.39.514,Slot Machine Game,2023.1.3,MacIntel,60.97560976,,,,,,,,,,,,,,,,,,,,,,,,,,,200,,,,,,,,,,,,,,,,,,,,,8,8,,,1175.001,1,up,0.032,,1.5,0.3,"[2,1,3]",0.79864763,stimuli/card_100_transparent.png,100,1,0,1,0,1,,,,,,,
,,,,test,A,2024-05-08_13h27.39.514,Slot Machine Game,2023.1.3,MacIntel,60.97560976,,,,,,,,,,,,,,,,,,,,,,,,,,,200,,,,,,,,,,,,,,,,,,,,,8,8,,,1177.352,2,up,0.0155,,1.5,0.3,"[2,1,3]",0.032181403,stimuli/card_0_transparent.png,0,2,0,2,0,1,,,,,,,
,,,,test,A,2024-05-08_13h27.39.514,Slot Machine Game,2023.1.3,MacIntel,60.97560976,,,,,,,,,,,,,,,,,,,,,,,,,,,200,,,,,,,,,,,,,,,,,,,,,8,8,,,1179.6757,3,up,0.0771,,0.5,0.3,"[2,1,3]",0.092149034,stimuli/card_0_transparent.png,0,3,0,3,0,1,,,,,,,
,,,,test,A,2024-05-08_13h27.39.514,Slot Machine Game,2023.1.3,MacIntel,60.97560976,,,,,,,,,,,,,,,,,,,,,,,,,,,300,,,,,,,,,,,,,,,,,,,,,8,8,,,1181.0715,4,up,0.4951,,0.5,0.3,"[2,1,3]",0.915555448,stimuli/card_100_transparent.png,100,4,0,4,0,1,,,,,,,
,,,,test,A,2024-05-08_13h27.39.514,Slot Machine Game,2023.1.3,MacIntel,60.97560976,,,,,,,,,,,,,,,,,,,,,,,,,,,400,,,,,,,,,,,,,,,,,,,,,8,8,,,1182.8887,5,up,0.067,,1.5,0.3,"[2,1,3]",0.701743083,stimuli/card_100_transparent.png,100,5,0,5,0,1,,,,,,,
,,,,test,A,2024-05-08_13h27.39.514,Slot Machine Game,2023.1.3,MacIntel,60.97560976,,,,,,,,,,,,,,,,,,,,,,,,,,,500,,,,,,,,,,,,,,,,,,,,,8,8,,,1185.273,6,up,0.1518,,1.5,0.3,"[2,1,3]",0.74846013,stimuli/card_100_transparent.png,100,6,0,6,0,1,,,,,,,
,,,,test,A,2024-05-08_13h27.39.514,Slot Machine Game,2023.1.3,MacIntel,60.97560976,,,,,,,,,,,,,,,,,,,,,,,,,,,600,,,,,,,,,,,,,,,,,,,,,8,8,,,1187.7252,7,up,0.1507,,1.5,0.3,"[2,1,3]",0.475010423,stimuli/card_100_transparent.png,100,7,0,7,0,1,,,,,,,
,,,,test,A,2024-05-08_13h27.39.514,Slot Machine Game,2023.1.3,MacIntel,60.97560976,,,,,,,,,,,,,,,,,,,,,,,,,,,700,,,,,,,,,,,,,,,,,,,,,8,8,,,1190.1766,8,up,0.6984,,0.5,0.3,"[2,1,3]",0.305779394,stimuli/card_100_transparent.png,100,8,0,8,0,1,,,,,,,
,,,,test,A,2024-05-08_13h27.39.514,Slot Machine Game,2023.1.3,MacIntel,60.97560976,,,,,,,,,,,,,,,,,,,,,,,,,,,800,,,,,,,,,,,,,,,,,,,,,8,8,,,1192.1959,9,up,0.0155,,1,0.3,"[2,1,3]",0.701851686,stimuli/card_100_transparent.png,100,9,0,9,0,1,,,,,,,
,,,,test,A,2024-05-08_13h27.39.514,Slot Machine Game,2023.1.3,MacIntel,60.97560976,,,,,,,,,,,,,,,,,,,,,,,,,,,900,,,,,,,,,,,,,,,,,,,,,8,8,,,1194.0456,10,up,0.7714,,1,0.3,"[2,1,3]",0.655479381,stimuli/card_100_transparent.png,100,10,0,10,0,1,,,,,,,
,,,,test,A,2024-05-08_13h27.39.514,Slot Machine Game,2023.1.3,MacIntel,60.97560976,,,,,,,,,,,,,,,,,,,,,,,,,,,910,,,,,,,,,,,,,,,,,,,,,8,8,,,1196.6312,11,up,0.6448,,1.5,0.3,"[1,2,3]",0.708732592,stimuli/card_10_transparent.png,10,11,0,11,0,1,,,,,,,
,,,,test,A,2024-05-08_13h27.39.514,Slot Machine Game,2023.1.3,MacIntel,60.97560976,,,,,,,,,,,,,,,,,,,,,,,,,,,920,,,,,,,,,,,,,,,,,,,,,8,8,,,1199.6033,12,up,0.1296,,1,0.3,"[1,2,3]",0.502750562,stimuli/card_10_transparent.png,10,12,0,12,0,1,,,,,,,
,,,,test,A,2024-05-08_13h27.39.514,Slot Machine Game,2023.1.3,MacIntel,60.97560976,,,,,,,,,,,,,,,,,,,,,,,,,,,930,,,,,,,,,,,,,,,,,,,,,8,8,,,1201.5665,13,up,0.119,,0.5,0.3,"[1,2,3]",0.709661254,stimuli/card_10_transparent.png,10,13,0,13,0,1,,,,,,,
,,,,test,A,2024-05-08_13h27.39.514,Slot Machine Game,2023.1.3,MacIntel,60.97560976,,,,,,,,,,,,,,,,,,,,,,,,,,,930,,,,,,,,,,,,,,,,,,,,,8,8,,,1203,14,up,0.1735,,1,0.3,"[1,2,3]",0.06264708,stimuli/card_0_transparent.png,0,14,0,14,0,1,,,,,,,
,,,,test,A,2024-05-08_13h27.39.514,Slot Machine Game,2023.1.3,MacIntel,60.97560976,,,,,,,,,,,,,,,,,,,,,,,,,,,,,,,,,,,1204.9848,,,,,,,,,,,,,,,,,,,,,,,,,,,,,,,,,7,0,7,0,1,,
,,,,test,A,2024-05-08_13h27.39.514,Slot Machine Game,2023.1.3,MacIntel,60.97560976,,,,,,,,,,,,,,,,,,,,,,,,,,,100,,,,,,,,,,,,,,,,,,,,,9,9,"[8,15]","[[3,2,1],[3,1,2]]",1209.9903,0,up,0.975,,1,0.3,"[3,2,1]",0.152493765,stimuli/card_100_transparent.png,100,0,0,0,0,1,,,,,,,
,,,,test,A,2024-05-08_13h27.39.514,Slot Machine Game,2023.1.3,MacIntel,60.97560976,,,,,,,,,,,,,,,,,,,,,,,,,,,110,,,,,,,,,,,,,,,,,,,,,9,9,,,1212.7895,1,up,0.1475,,1.5,0.3,"[3,2,1]",0.271803465,stimuli/card_10_transparent.png,10,1,0,1,0,1,,,,,,,
,,,,test,A,2024-05-08_13h27.39.514,Slot Machine Game,2023.1.3,MacIntel,60.97560976,,,,,,,,,,,,,,,,,,,,,,,,,,,210,,,,,,,,,,,,,,,,,,,,,9,9,,,1215.2756,2,up,0.0506,,1.5,0.3,"[3,2,1]",0.179728212,stimuli/card_100_transparent.png,100,2,0,2,0,1,,,,,,,
,,,,test,A,2024-05-08_13h27.39.514,Slot Machine Game,2023.1.3,MacIntel,60.97560976,,,,,,,,,,,,,,,,,,,,,,,,,,,220,,,,,,,,,,,,,,,,,,,,,9,9,,,1217.6584,3,up,0.0494,,0.5,0.3,"[3,2,1]",0.349523812,stimuli/card_10_transparent.png,10,3,0,3,0,1,,,,,,,
,,,,test,A,2024-05-08_13h27.39.514,Slot Machine Game,2023.1.3,MacIntel,60.97560976,,,,,,,,,,,,,,,,,,,,,,,,,,,230,,,,,,,,,,,,,,,,,,,,,9,9,,,1219.0252,4,up,0.2455,,0.5,0.3,"[3,2,1]",0.525103432,stimuli/card_10_transparent.png,10,4,0,4,0,1,,,,,,,
,,,,test,A,2024-05-08_13h27.39.514,Slot Machine Game,2023.1.3,MacIntel,60.97560976,,,,,,,,,,,,,,,,,,,,,,,,,,,240,,,,,,,,,,,,,,,,,,,,,9,9,,,1220.5791,5,up,0.0735,,1,0.3,"[3,2,1]",0.235933554,stimuli/card_10_transparent.png,10,5,0,5,0,1,,,,,,,
,,,,test,A,2024-05-08_13h27.39.514,Slot Machine Game,2023.1.3,MacIntel,60.97560976,,,,,,,,,,,,,,,,,,,,,,,,,,,250,,,,,,,,,,,,,,,,,,,,,9,9,,,1222.4781,6,up,0.9516,,1,0.3,"[3,2,1]",0.548609349,stimuli/card_10_transparent.png,10,6,0,6,0,1,,,,,,,
,,,,test,A,2024-05-08_13h27.39.514,Slot Machine Game,2023.1.3,MacIntel,60.97560976,,,,,,,,,,,,,,,,,,,,,,,,,,,350,,,,,,,,,,,,,,,,,,,,,9,9,,,1225.2458,7,up,0.0332,,0.5,0.3,"[3,2,1]",0.159453944,stimuli/card_100_transparent.png,100,7,0,7,0,1,,,,,,,
,,,,test,A,2024-05-08_13h27.39.514,Slot Machine Game,2023.1.3,MacIntel,60.97560976,,,,,,,,,,,,,,,,,,,,,,,,,,,450,,,,,,,,,,,,,,,,,,,,,9,9,,,1226.6003,8,up,0.0762,,0.5,0.3,"[3,1,2]",0.754078226,stimuli/card_100_transparent.png,100,8,0,8,0,1,,,,,,,
,,,,test,A,2024-05-08_13h27.39.514,Slot Machine Game,2023.1.3,MacIntel,60.97560976,,,,,,,,,,,,,,,,,,,,,,,,,,,550,,,,,,,,,,,,,,,,,,,,,9,9,,,1227.9977,9,up,0.049,,0.5,0.3,"[3,1,2]",0.296772099,stimuli/card_100_transparent.png,100,9,0,9,0,1,,,,,,,
,,,,test,A,2024-05-08_13h27.39.514,Slot Machine Game,2023.1.3,MacIntel,60.97560976,,,,,,,,,,,,,,,,,,,,,,,,,,,650,,,,,,,,,,,,,,,,,,,,,9,9,,,1229.3537,10,up,0.8812,,1.5,0.3,"[3,1,2]",0.212225049,stimuli/card_100_transparent.png,100,10,0,10,0,1,,,,,,,
,,,,test,A,2024-05-08_13h27.39.514,Slot Machine Game,2023.1.3,MacIntel,60.97560976,,,,,,,,,,,,,,,,,,,,,,,,,,,750,,,,,,,,,,,,,,,,,,,,,9,9,,,1232.5776,11,up,0.2162,,1.5,0.3,"[3,1,2]",0.241180758,stimuli/card_100_transparent.png,100,11,0,11,0,1,,,,,,,
,,,,test,A,2024-05-08_13h27.39.514,Slot Machine Game,2023.1.3,MacIntel,60.97560976,,,,,,,,,,,,,,,,,,,,,,,,,,,850,,,,,,,,,,,,,,,,,,,,,9,9,,,1235.1217,12,up,2.6977,,0.5,0.3,"[3,1,2]",0.680691431,stimuli/card_100_transparent.png,100,12,0,12,0,1,,,,,,,
,,,,test,A,2024-05-08_13h27.39.514,Slot Machine Game,2023.1.3,MacIntel,60.97560976,,,,,,,,,,,,,,,,,,,,,,,,,,,850,,,,,,,,,,,,,,,,,,,,,9,9,,,1239.1542,13,up,3.3974,,0.5,0.3,"[3,1,2]",0.097582896,stimuli/card_0_transparent.png,0,13,0,13,0,1,,,,,,,
,,,,test,A,2024-05-08_13h27.39.514,Slot Machine Game,2023.1.3,MacIntel,60.97560976,,,,,,,,,,,,,,,,,,,,,,,,,,,950,,,,,,,,,,,,,,,,,,,,,9,9,,,1243.8727,14,up,1.3325,,1.5,0.3,"[3,1,2]",0.34644195,stimuli/card_100_transparent.png,100,14,0,14,0,1,,,,,,,
,,,,test,A,2024-05-08_13h27.39.514,Slot Machine Game,2023.1.3,MacIntel,60.97560976,,,,,,,,,,,,,,,,,,,,,,,,,,,,,,,,,,,1247.5247,,,,,,,,,,,,,,,,,,,,,,,,,,,,,,,,,8,0,8,0,1,,
,,,,test,A,2024-05-08_13h27.39.514,Slot Machine Game,2023.1.3,MacIntel,60.97560976,,,,,,,,,,,,,,,,,,,,,,,,,,,100,,,,,,,,,,,,,,,,,,,,,10,10,"[10,15]","[[3,1,2],[1,3,2]]",1252.5303,0,up,0.017,,0.5,0.3,"[3,1,2]",0.849453885,stimuli/card_100_transparent.png,100,0,0,0,0,1,,,,,,,
,,,,test,A,2024-05-08_13h27.39.514,Slot Machine Game,2023.1.3,MacIntel,60.97560976,,,,,,,,,,,,,,,,,,,,,,,,,,,200,,,,,,,,,,,,,,,,,,,,,10,10,,,1253.8827,1,up,0.0161,,0.5,0.3,"[3,1,2]",0.33170099,stimuli/card_100_transparent.png,100,1,0,1,0,1,,,,,,,
,,,,test,A,2024-05-08_13h27.39.514,Slot Machine Game,2023.1.3,MacIntel,60.97560976,,,,,,,,,,,,,,,,,,,,,,,,,,,210,,,,,,,,,,,,,,,,,,,,,10,10,,,1255.2302,2,up,3.6347,,0.5,0.3,"[3,1,2]",0.119360016,stimuli/card_10_transparent.png,10,2,0,2,0,1,,,,,,,
,,,,test,A,2024-05-08_13h27.39.514,Slot Machine Game,2023.1.3,MacIntel,60.97560976,,,,,,,,,,,,,,,,,,,,,,,,,,,310,,,,,,,,,,,,,,,,,,,,,10,10,,,1260.1868,3,up,2.5462,0.0122,1.5,0.3,"[3,1,2]",0.319233957,stimuli/card_100_transparent.png,100,3,0,3,0,1,,,,,,,
,,,,test,A,2024-05-08_13h27.39.514,Slot Machine Game,2023.1.3,MacIntel,60.97560976,,,,,,,,,,,,,,,,,,,,,,,,,,,310,,,,,,,,,,,,,,,,,,,,,10,10,,,1265.0679,4,up,0.0875,,0.5,0.3,"[3,1,2]",0.029436886,stimuli/card_0_transparent.png,0,4,0,4,0,1,,,,,,,
,,,,test,A,2024-05-08_13h27.39.514,Slot Machine Game,2023.1.3,MacIntel,60.97560976,,,,,,,,,,,,,,,,,,,,,,,,,,,320,,,,,,,,,,,,,,,,,,,,,10,10,,,1266.4692,5,up,0.0432,,1,0.3,"[3,1,2]",0.12497873,stimuli/card_10_transparent.png,10,5,0,5,0,1,,,,,,,
,,,,test,A,2024-05-08_13h27.39.514,Slot Machine Game,2023.1.3,MacIntel,60.97560976,,,,,,,,,,,,,,,,,,,,,,,,,,,320,,,,,,,,,,,,,,,,,,,,,10,10,,,1268.3364,6,up,0.2273,,1.5,0.3,"[3,1,2]",0.048300228,stimuli/card_0_transparent.png,0,6,0,6,0,1,,,,,,,
,,,,test,A,2024-05-08_13h27.39.514,Slot Machine Game,2023.1.3,MacIntel,60.97560976,,,,,,,,,,,,,,,,,,,,,,,,,,,420,,,,,,,,,,,,,,,,,,,,,10,10,,,1270.8634,7,up,0.4746,,1.5,0.3,"[3,1,2]",0.352567376,stimuli/card_100_transparent.png,100,7,0,7,0,1,,,,,,,
,,,,test,A,2024-05-08_13h27.39.514,Slot Machine Game,2023.1.3,MacIntel,60.97560976,,,,,,,,,,,,,,,,,,,,,,,,,,,520,,,,,,,,,,,,,,,,,,,,,10,10,,,1273.6456,8,up,0.1547,,0.5,0.3,"[3,1,2]",0.516783469,stimuli/card_100_transparent.png,100,8,0,8,0,1,,,,,,,
,,,,test,A,2024-05-08_13h27.39.514,Slot Machine Game,2023.1.3,MacIntel,60.97560976,,,,,,,,,,,,,,,,,,,,,,,,,,,530,,,,,,,,,,,,,,,,,,,,,10,10,,,1275.1239,9,up,1.1799,,1,0.3,"[3,1,2]",0.187733211,stimuli/card_10_transparent.png,10,9,0,9,0,1,,,,,,,
,,,,test,A,2024-05-08_13h27.39.514,Slot Machine Game,2023.1.3,MacIntel,60.97560976,,,,,,,,,,,,,,,,,,,,,,,,,,,530,,,,,,,,,,,,,,,,,,,,,10,10,,,1278.1288,10,up,0.0156,,1,0.3,"[1,3,2]",0.437248008,stimuli/card_0_transparent.png,0,10,0,10,0,1,,,,,,,
,,,,test,A,2024-05-08_13h27.39.514,Slot Machine Game,2023.1.3,MacIntel,60.97560976,,,,,,,,,,,,,,,,,,,,,,,,,,,530,,,,,,,,,,,,,,,,,,,,,10,10,,,1279.9788,11,up,0.0574,,0.5,0.3,"[1,3,2]",0.664735296,stimuli/card_0_transparent.png,0,11,0,11,0,1,,,,,,,
,,,,test,A,2024-05-08_13h27.39.514,Slot Machine Game,2023.1.3,MacIntel,60.97560976,,,,,,,,,,,,,,,,,,,,,,,,,,,530,,,,,,,,,,,,,,,,,,,,,10,10,,,1281.3629,12,up,0.1481,,0.5,0.3,"[1,3,2]",0.217245442,stimuli/card_0_transparent.png,0,12,0,12,0,1,,,,,,,
,,,,test,A,2024-05-08_13h27.39.514,Slot Machine Game,2023.1.3,MacIntel,60.97560976,,,,,,,,,,,,,,,,,,,,,,,,,,,530,,,,,,,,,,,,,,,,,,,,,10,10,,,1282.8282,13,up,0.0964,,1.5,0.3,"[1,3,2]",0.29253409,stimuli/card_0_transparent.png,0,13,0,13,0,1,,,,,,,
,,,,test,A,2024-05-08_13h27.39.514,Slot Machine Game,2023.1.3,MacIntel,60.97560976,,,,,,,,,,,,,,,,,,,,,,,,,,,630,,,,,,,,,,,,,,,,,,,,,10,10,,,1285.2291,14,up,1.0397,,1,0.3,"[1,3,2]",0.016101928,stimuli/card_100_transparent.png,100,14,0,14,0,1,,,,,,,
,,,,test,A,2024-05-08_13h27.39.514,Slot Machine Game,2023.1.3,MacIntel,60.97560976,,,,,,,,,,,,,,,,,,,,,,,,,,,,,,,,,,,1288.0812,,,,,,,,,,,,,,,,,,,,,,,,,,,,,,,,,9,0,9,0,1,,
,,,,test,A,2024-05-08_13h27.39.514,Slot Machine Game,2023.1.3,MacIntel,60.97560976,,,,,,,,,,,,,,,,,,,,,,,,,,,,,,,,,,,,,,,,,,,,,,,,,,,,,,,,,,,,,,,,,,,,,,,,,8,2024-05-08_13h49.16.644
