key_resp_welcome_started,key_resp_welcome_keys,key_resp_welcome_rt,key_resp_welcome_duration,prolific_id,path_id,date,expName,psychopyVersion,OS,frameRate,key_resp_instruction1_started,key_resp_instruction1_keys,key_resp_instruction1_rt,key_resp_instruction1_duration,key_resp_instruction2_started,key_resp_instruction2_keys,key_resp_instruction2_rt,key_resp_instruction2_duration,key_resp_instruction3_started,key_resp_instruction3_keys,key_resp_instruction3_rt,key_resp_instruction3_duration,key_resp_instruction4_started,key_resp_instruction4_keys,key_resp_instruction4_rt,key_resp_instruction4_duration,practiceCondition,practice_reward_seqs,practice_trial_started,practice_trial_num,practice_resp_rt,practice_resp_duration,practice_resp_keys,prac_presentationInterval,"practice_reward_seq: 2,1,3",reward_img,cumulative_reward,trial_reward,practice_trials.thisRepN,practice_trials.thisTrialN,practice_trials.thisN,practice_trials.thisIndex,practice_trials.ran,"practice_reward_seq: 2,3,1",block_break_started,"practice_reward_seq: 1,3,2","practice_reward_seq: 3,1,2",practice_end_time,practice_end_keys,practice_end_rt,practice_end_duration,main_instruction_text_started,block_condition,block_order_indices,main_instruction_keys,main_instruction_rt,main_instruction_duration,block_number,block_assignment,current_condition,main_reward_seqs,main_trial_started,main_trial_num,main_trial_keys,main_presentationInterval,reward_presentation_time,main_trials.thisRepN,main_trials.thisTrialN,main_trials.thisN,main_trials.thisIndex,main_trials.ran,block.thisRepN,block.thisTrialN,block.thisN,block.thisIndex,block.ran,main_trial_rt,main_trial_duration,main_reward_seq,reward_rand_val,main_reward_img,current_reward
0.0008,space,1.2048,,test,A,2024-04-30_12h06.48.624,Slot Machine Game,2023.1.3,MacIntel,60.24096386,,,,,,,,,,,,,,,,,,,,,,,,,,,,,,,,,,,,,,,,,,,,,,,,,,,,,,,,,,,,,,,,,,,,,,,,
,,,,test,A,2024-04-30_12h06.48.624,Slot Machine Game,2023.1.3,MacIntel,60.24096386,1.2758,space,0.7825,,,,,,,,,,,,,,,,,,,,,,,,,,,,,,,,,,,,,,,,,,,,,,,,,,,,,,,,,,,,,,,,,,,,,
,,,,test,A,2024-04-30_12h06.48.624,Slot Machine Game,2023.1.3,MacIntel,60.24096386,,,,,2.1161,space,14.2265,,,,,,,,,,,,,,,,,,,,,,,,,,,,,,,,,,,,,,,,,,,,,,,,,,,,,,,,,,,,,,,,,
,,,,test,A,2024-04-30_12h06.48.624,Slot Machine Game,2023.1.3,MacIntel,60.24096386,,,,,,,,,16.3978,space,2.6408,,,,,,,,,,,,,,,,,,,,,,,,,,,,,,,,,,,,,,,,,,,,,,,,,,,,,,,,,,,,,
,,,,test,A,2024-04-30_12h06.48.624,Slot Machine Game,2023.1.3,MacIntel,60.24096386,,,,,,,,,,,,,,,,,,,,,,,,,,,,,,,,,,,,,,,,,,,,,,,,,,,,,,,,,,,,,,,,,,,,,,,,
,,,,test,A,2024-04-30_12h06.48.624,Slot Machine Game,2023.1.3,MacIntel,60.24096386,,,,,,,,,,,,,160.9854,space,317.0204,,,,,,,,,,,,,,,,,,,,,,,,,,,,,,,,,,,,,,,,,,,,,,,,,,,,,,,,,
,,,,test,A,2024-04-30_12h06.48.624,Slot Machine Game,2023.1.3,MacIntel,60.24096386,,,,,,,,,,,,,,,,,"[9,15]","[[2,1,3],[2,3,1]]",478.0506,0,1.702,,left,1.5,,stimuli/card_10_transparent.png,10,10,0,0,0,0,1,,,,,,,,,,,,,,,,,,,,,,,,,,,,,,,,,,,,,,,
,,,,test,A,2024-04-30_12h06.48.624,Slot Machine Game,2023.1.3,MacIntel,60.24096386,,,,,,,,,,,,,,,,,,,482.0797,1,1.2249,,up,1.5,,stimuli/card_100_transparent.png,110,100,1,0,1,0,1,,,,,,,,,,,,,,,,,,,,,,,,,,,,,,,,,,,,,,,
,,,,test,A,2024-04-30_12h06.48.624,Slot Machine Game,2023.1.3,MacIntel,60.24096386,,,,,,,,,,,,,,,,,,,485.6285,2,0.3663,,right,0.5,,stimuli/card_0_transparent.png,110,0,2,0,2,0,1,,,,,,,,,,,,,,,,,,,,,,,,,,,,,,,,,,,,,,,
,,,,test,A,2024-04-30_12h06.48.624,Slot Machine Game,2023.1.3,MacIntel,60.24096386,,,,,,,,,,,,,,,,,,,487.3287,3,1.5021,,up,1.5,,stimuli/card_0_transparent.png,110,0,3,0,3,0,1,,,,,,,,,,,,,,,,,,,,,,,,,,,,,,,,,,,,,,,
,,,,test,A,2024-04-30_12h06.48.624,Slot Machine Game,2023.1.3,MacIntel,60.24096386,,,,,,,,,,,,,,,,,,,491.163,4,0.1228,,left,0.5,,stimuli/card_10_transparent.png,120,10,4,0,4,0,1,,,,,,,,,,,,,,,,,,,,,,,,,,,,,,,,,,,,,,,
,,,,test,A,2024-04-30_12h06.48.624,Slot Machine Game,2023.1.3,MacIntel,60.24096386,,,,,,,,,,,,,,,,,,,492.6119,5,1.4477,,left,0.5,,stimuli/card_10_transparent.png,130,10,5,0,5,0,1,,,,,,,,,,,,,,,,,,,,,,,,,,,,,,,,,,,,,,,
,,,,test,A,2024-04-30_12h06.48.624,Slot Machine Game,2023.1.3,MacIntel,60.24096386,,,,,,,,,,,,,,,,,,,495.3952,6,0.4167,,left,1,,stimuli/card_10_transparent.png,140,10,6,0,6,0,1,,,,,,,,,,,,,,,,,,,,,,,,,,,,,,,,,,,,,,,
,,,,test,A,2024-04-30_12h06.48.624,Slot Machine Game,2023.1.3,MacIntel,60.24096386,,,,,,,,,,,,,,,,,,,497.6453,7,0.466,,up,0.5,,stimuli/card_100_transparent.png,240,100,7,0,7,0,1,,,,,,,,,,,,,,,,,,,,,,,,,,,,,,,,,,,,,,,
,,,,test,A,2024-04-30_12h06.48.624,Slot Machine Game,2023.1.3,MacIntel,60.24096386,,,,,,,,,,,,,,,,,,,499.4276,8,0.399,,up,1.5,,stimuli/card_100_transparent.png,340,100,8,0,8,0,1,,,,,,,,,,,,,,,,,,,,,,,,,,,,,,,,,,,,,,,
,,,,test,A,2024-04-30_12h06.48.624,Slot Machine Game,2023.1.3,MacIntel,60.24096386,,,,,,,,,,,,,,,,,,,502.1453,9,0.1072,,up,1.5,,stimuli/card_0_transparent.png,340,0,9,0,9,0,1,,,,,,,,,,,,,,,,,,,,,,,,,,,,,,,,,,,,,,,
,,,,test,A,2024-04-30_12h06.48.624,Slot Machine Game,2023.1.3,MacIntel,60.24096386,,,,,,,,,,,,,,,,,,,504.5776,10,2.034,,up,0.5,,stimuli/card_0_transparent.png,340,0,10,0,10,0,1,,,,,,,,,,,,,,,,,,,,,,,,,,,,,,,,,,,,,,,
,,,,test,A,2024-04-30_12h06.48.624,Slot Machine Game,2023.1.3,MacIntel,60.24096386,,,,,,,,,,,,,,,,,,,507.9452,11,2.1504,,up,0.5,,stimuli/card_0_transparent.png,340,0,11,0,11,0,1,,,,,,,,,,,,,,,,,,,,,,,,,,,,,,,,,,,,,,,
,,,,test,A,2024-04-30_12h06.48.624,Slot Machine Game,2023.1.3,MacIntel,60.24096386,,,,,,,,,,,,,,,,,,,511.4269,12,0.1069,,right,1.5,,stimuli/card_100_transparent.png,440,100,12,0,12,0,1,,,,,,,,,,,,,,,,,,,,,,,,,,,,,,,,,,,,,,,
,,,,test,A,2024-04-30_12h06.48.624,Slot Machine Game,2023.1.3,MacIntel,60.24096386,,,,,,,,,,,,,,,,,,,513.8442,13,0.0325,,right,1.5,,stimuli/card_100_transparent.png,540,100,13,0,13,0,1,,,,,,,,,,,,,,,,,,,,,,,,,,,,,,,,,,,,,,,
,,,,test,A,2024-04-30_12h06.48.624,Slot Machine Game,2023.1.3,MacIntel,60.24096386,,,,,,,,,,,,,,,,,,,516.2101,14,1.9898,,right,0.5,,stimuli/card_100_transparent.png,640,100,14,0,14,0,1,,,,,,,,,,,,,,,,,,,,,,,,,,,,,,,,,,,,,,,
,,,,test,A,2024-04-30_12h06.48.624,Slot Machine Game,2023.1.3,MacIntel,60.24096386,,,,,,,,,,,,,,,,,"[6,15]","[[1,3,2],[3,1,2]]",524.5324,0,0.3161,,right,1.5,,stimuli/card_10_transparent.png,10,10,0,0,0,0,1,,519.5264,,,,,,,,,,,,,,,,,,,,,,,,,,,,,,,,,,,,,
,,,,test,A,2024-04-30_12h06.48.624,Slot Machine Game,2023.1.3,MacIntel,60.24096386,,,,,,,,,,,,,,,,,,,527.1773,1,[],,[],1,,,,,1,0,1,0,1,,,,,,,,,,,,,,,,,,,,,,,,,,,,,,,,,,,,,,,
,,,,test,A,2024-04-30_12h06.48.624,Slot Machine Game,2023.1.3,MacIntel,60.24096386,,,,,,,,,,,,,,,,,,,532.6954,2,[],,[],1.5,,,,,2,0,2,0,1,,,,,,,,,,,,,,,,,,,,,,,,,,,,,,,,,,,,,,,
,,,,test,A,2024-04-30_12h06.48.624,Slot Machine Game,2023.1.3,MacIntel,60.24096386,,,,,,,,,,,,,,,,,,,538.2099,3,[],,[],0.5,,,,,3,0,3,0,1,,,,,,,,,,,,,,,,,,,,,,,,,,,,,,,,,,,,,,,
,,,,test,A,2024-04-30_12h06.48.624,Slot Machine Game,2023.1.3,MacIntel,60.24096386,,,,,,,,,,,,,,,,,,,543.7141,4,[],,[],1,,,,,4,0,4,0,1,,,,,,,,,,,,,,,,,,,,,,,,,,,,,,,,,,,,,,,
,,,,test,A,2024-04-30_12h06.48.624,Slot Machine Game,2023.1.3,MacIntel,60.24096386,,,,,,,,,,,,,,,,,,,549.2283,5,[],,[],1.5,,,,,5,0,5,0,1,,,,,,,,,,,,,,,,,,,,,,,,,,,,,,,,,,,,,,,
,,,,test,A,2024-04-30_12h06.48.624,Slot Machine Game,2023.1.3,MacIntel,60.24096386,,,,,,,,,,,,,,,,,,,554.7459,6,[],,[],1.5,,,,,6,0,6,0,1,,,,,,,,,,,,,,,,,,,,,,,,,,,,,,,,,,,,,,,
,,,,test,A,2024-04-30_12h06.48.624,Slot Machine Game,2023.1.3,MacIntel,60.24096386,,,,,,,,,,,,,,,,,,,560.2609,7,[],,[],1,,,,,7,0,7,0,1,,,,,,,,,,,,,,,,,,,,,,,,,,,,,,,,,,,,,,,
,,,,test,A,2024-04-30_12h06.48.624,Slot Machine Game,2023.1.3,MacIntel,60.24096386,,,,,,,,,,,,,,,,,,,565.7626,8,[],,[],0.5,,,,,8,0,8,0,1,,,,,,,,,,,,,,,,,,,,,,,,,,,,,,,,,,,,,,,
,,,,test,A,2024-04-30_12h06.48.624,Slot Machine Game,2023.1.3,MacIntel,60.24096386,,,,,,,,,,,,,,,,,,,571.2772,9,[],,[],0.5,,,,,9,0,9,0,1,,,,,,,,,,,,,,,,,,,,,,,,,,,,,,,,,,,,,,,
,,,,test,A,2024-04-30_12h06.48.624,Slot Machine Game,2023.1.3,MacIntel,60.24096386,,,,,,,,,,,,,,,,,,,576.7935,10,[],,[],1,,,,,10,0,10,0,1,,,,,,,,,,,,,,,,,,,,,,,,,,,,,,,,,,,,,,,
,,,,test,A,2024-04-30_12h06.48.624,Slot Machine Game,2023.1.3,MacIntel,60.24096386,,,,,,,,,,,,,,,,,,,582.3094,11,[],,[],1,,,,,11,0,11,0,1,,,,,,,,,,,,,,,,,,,,,,,,,,,,,,,,,,,,,,,
,,,,test,A,2024-04-30_12h06.48.624,Slot Machine Game,2023.1.3,MacIntel,60.24096386,,,,,,,,,,,,,,,,,,,587.8262,12,[],,[],1,,,,,12,0,12,0,1,,,,,,,,,,,,,,,,,,,,,,,,,,,,,,,,,,,,,,,
,,,,test,A,2024-04-30_12h06.48.624,Slot Machine Game,2023.1.3,MacIntel,60.24096386,,,,,,,,,,,,,,,,,,,593.3446,13,[],,[],0.5,,,,,13,0,13,0,1,,,,,,,,,,,,,,,,,,,,,,,,,,,,,,,,,,,,,,,
,,,,test,A,2024-04-30_12h06.48.624,Slot Machine Game,2023.1.3,MacIntel,60.24096386,,,,,,,,,,,,,,,,,,,598.8588,14,[],,[],1,,,,,14,0,14,0,1,,,,,,,,,,,,,,,,,,,,,,,,,,,,,,,,,,,,,,,
,,,,test,A,2024-04-30_12h06.48.624,Slot Machine Game,2023.1.3,MacIntel,60.24096386,,,,,,,,,,,,,,,,,,,,,,,,,,,,,,,,,,,604.3735,,,609.3743,space,43.6521,,,,,,,,,,,,,,,,,,,,,,,,,,,,,,,,
,,,,test,A,2024-04-30_12h06.48.624,Slot Machine Game,2023.1.3,MacIntel,60.24096386,,,,,,,,,,,,,,,,,,,,,,,,,,,,,,,,,,,,,,,,,,653.0402,3,"[0,4,6,3,5,7,8,1,9,2]",space,0.1758,,,,,,,,,,,,,,,,,,,,,,,,,,
,,,,test,A,2024-04-30_12h06.48.624,Slot Machine Game,2023.1.3,MacIntel,60.24096386,,,,,,,,,,,,,,,,,,,,,,,,,,,,,,,,,,,,,,,,,,,,,,,,1,1,"[12,15]","[[2,1,3],[2,3,1]]",653.2504,0,,0.5,0.3,0,0,0,0,1,,,,,,,,,,,
,,,,test,A,2024-04-30_12h06.48.624,Slot Machine Game,2023.1.3,MacIntel,60.24096386,,,,,,,,,,,,,,,,,,,,,,,,,,,,,,,,,,,,,,,,,,,,,,,,1,1,,,658.7644,1,,1.5,0.3,1,0,1,0,1,,,,,,,,,,,
,,,,test,A,2024-04-30_12h06.48.624,Slot Machine Game,2023.1.3,MacIntel,60.24096386,,,,,,,,,,,,,,,,,,,,,,,,,,,,,,,,,,,,,,,,,,,,,,,,1,1,,,664.272,2,,0.5,0.3,2,0,2,0,1,,,,,,,,,,,
,,,,test,A,2024-04-30_12h06.48.624,Slot Machine Game,2023.1.3,MacIntel,60.24096386,,,,,,,,,,,,,,,,,,,,,,,,,,,,,,,,,,,,,,,,,,,,,,,,1,1,,,669.7885,3,,0.5,0.3,3,0,3,0,1,,,,,,,,,,,
,,,,test,A,2024-04-30_12h06.48.624,Slot Machine Game,2023.1.3,MacIntel,60.24096386,,,,,,,,,,,,,,,,,,,,,,,,,,,,,,,,,,,,,,,,,,,,,,,,1,1,,,675.3071,4,,0.5,0.3,4,0,4,0,1,,,,,,,,,,,
,,,,test,A,2024-04-30_12h06.48.624,Slot Machine Game,2023.1.3,MacIntel,60.24096386,,,,,,,,,,,,,,,,,,,,,,,,,,,,,,,,,,,,,,,,,,,,,,,,1,1,,,680.8221,5,,1,0.3,5,0,5,0,1,,,,,,,,,,,
,,,,test,A,2024-04-30_12h06.48.624,Slot Machine Game,2023.1.3,MacIntel,60.24096386,,,,,,,,,,,,,,,,,,,,,,,,,,,,,,,,,,,,,,,,,,,,,,,,1,1,,,686.3376,6,,0.5,0.3,6,0,6,0,1,,,,,,,,,,,
,,,,test,A,2024-04-30_12h06.48.624,Slot Machine Game,2023.1.3,MacIntel,60.24096386,,,,,,,,,,,,,,,,,,,,,,,,,,,,,,,,,,,,,,,,,,,,,,,,1,1,,,691.8557,7,,1,0.3,7,0,7,0,1,,,,,,,,,,,
,,,,test,A,2024-04-30_12h06.48.624,Slot Machine Game,2023.1.3,MacIntel,60.24096386,,,,,,,,,,,,,,,,,,,,,,,,,,,,,,,,,,,,,,,,,,,,,,,,1,1,,,697.3719,8,,0.5,0.3,8,0,8,0,1,,,,,,,,,,,
,,,,test,A,2024-04-30_12h06.48.624,Slot Machine Game,2023.1.3,MacIntel,60.24096386,,,,,,,,,,,,,,,,,,,,,,,,,,,,,,,,,,,,,,,,,,,,,,,,1,1,,,702.8864,9,,1.5,0.3,9,0,9,0,1,,,,,,,,,,,
,,,,test,A,2024-04-30_12h06.48.624,Slot Machine Game,2023.1.3,MacIntel,60.24096386,,,,,,,,,,,,,,,,,,,,,,,,,,,,,,,,,,,,,,,,,,,,,,,,1,1,,,708.4049,10,,1,0.3,10,0,10,0,1,,,,,,,,,,,
,,,,test,A,2024-04-30_12h06.48.624,Slot Machine Game,2023.1.3,MacIntel,60.24096386,,,,,,,,,,,,,,,,,,,,,,,,,,,,,,,,,,,,,,,,,,,,,,,,1,1,,,713.9229,11,,0.5,0.3,11,0,11,0,1,,,,,,,,,,,
,,,,test,A,2024-04-30_12h06.48.624,Slot Machine Game,2023.1.3,MacIntel,60.24096386,,,,,,,,,,,,,,,,,,,,,,,,,,,,,,,,,,,,,,,,,,,,,,,,1,1,,,719.4403,12,,0.5,0.3,12,0,12,0,1,,,,,,,,,,,
,,,,test,A,2024-04-30_12h06.48.624,Slot Machine Game,2023.1.3,MacIntel,60.24096386,,,,,,,,,,,,,,,,,,,,,,,,,,,,,,,,,,,,,,,,,,,,,,,,1,1,,,724.9557,13,,1,0.3,13,0,13,0,1,,,,,,,,,,,
,,,,test,A,2024-04-30_12h06.48.624,Slot Machine Game,2023.1.3,MacIntel,60.24096386,,,,,,,,,,,,,,,,,,,,,,,,,,,,,,,,,,,,,,,,,,,,,,,,1,1,,,730.4719,14,,1,0.3,14,0,14,0,1,,,,,,,,,,,
,,,,test,A,2024-04-30_12h06.48.624,Slot Machine Game,2023.1.3,MacIntel,60.24096386,,,,,,,,,,,,,,,,,,,,,,,,,,,,,,,,,,,735.9886,,,,,,,,,,,,,,,,,,,,,,,,,,,0,0,0,0,1,,,,,,
,,,,test,A,2024-04-30_12h06.48.624,Slot Machine Game,2023.1.3,MacIntel,60.24096386,,,,,,,,,,,,,,,,,,,,,,,,,,,,,,,,,,,,,,,,,,,,,,,,2,5,"[5,15]","[[1,2,3],[3,1,2]]",740.9922,0,,0.5,0.3,0,0,0,0,1,,,,,,,,,,,
,,,,test,A,2024-04-30_12h06.48.624,Slot Machine Game,2023.1.3,MacIntel,60.24096386,,,,,,,,,,,,,,,,,,,,,,,,,,,,,,,,,,,,,,,,,,,,,,,,2,5,,,746.5047,1,,1,0.3,1,0,1,0,1,,,,,,,,,,,
,,,,test,A,2024-04-30_12h06.48.624,Slot Machine Game,2023.1.3,MacIntel,60.24096386,,,,,,,,,,,,,,,,,,,,,,,,,,,,,,,,,,,,,,,,,,,,,,,,2,5,,,752.0184,2,,0.5,0.3,2,0,2,0,1,,,,,,,,,,,
,,,,test,A,2024-04-30_12h06.48.624,Slot Machine Game,2023.1.3,MacIntel,60.24096386,,,,,,,,,,,,,,,,,,,,,,,,,,,,,,,,,,,,,,,,,,,,,,,,2,5,,,757.5292,3,,1.5,0.3,3,0,3,0,1,,,,,,,,,,,
,,,,test,A,2024-04-30_12h06.48.624,Slot Machine Game,2023.1.3,MacIntel,60.24096386,,,,,,,,,,,,,,,,,,,,,,,,,,,,,,,,,,,,,,,,,,,,,,,,2,5,,,763.037,4,,1,0.3,4,0,4,0,1,,,,,,,,,,,
,,,,test,A,2024-04-30_12h06.48.624,Slot Machine Game,2023.1.3,MacIntel,60.24096386,,,,,,,,,,,,,,,,,,,,,,,,,,,,,,,,,,,,,,,,,,,,,,,,2,5,,,768.5524,5,,1.5,0.3,5,0,5,0,1,,,,,,,,,,,
,,,,test,A,2024-04-30_12h06.48.624,Slot Machine Game,2023.1.3,MacIntel,60.24096386,,,,,,,,,,,,,,,,,,,,,,,,,,,,,,,,,,,,,,,,,,,,,,,,2,5,,,774.0707,6,,1,0.3,6,0,6,0,1,,,,,,,,,,,
,,,,test,A,2024-04-30_12h06.48.624,Slot Machine Game,2023.1.3,MacIntel,60.24096386,,,,,,,,,,,,,,,,,,,,,,,,,,,,,,,,,,,,,,,,,,,,,,,,2,5,,,779.5853,7,,0.5,0.3,7,0,7,0,1,,,,,,,,,,,
,,,,test,A,2024-04-30_12h06.48.624,Slot Machine Game,2023.1.3,MacIntel,60.24096386,,,,,,,,,,,,,,,,,,,,,,,,,,,,,,,,,,,,,,,,,,,,,,,,2,5,,,785.1016,8,,1.5,0.3,8,0,8,0,1,,,,,,,,,,,
,,,,test,A,2024-04-30_12h06.48.624,Slot Machine Game,2023.1.3,MacIntel,60.24096386,,,,,,,,,,,,,,,,,,,,,,,,,,,,,,,,,,,,,,,,,,,,,,,,2,5,,,790.617,9,,0.5,0.3,9,0,9,0,1,,,,,,,,,,,
,,,,test,A,2024-04-30_12h06.48.624,Slot Machine Game,2023.1.3,MacIntel,60.24096386,,,,,,,,,,,,,,,,,,,,,,,,,,,,,,,,,,,,,,,,,,,,,,,,2,5,,,796.1187,10,,0.5,0.3,10,0,10,0,1,,,,,,,,,,,
,,,,test,A,2024-04-30_12h06.48.624,Slot Machine Game,2023.1.3,MacIntel,60.24096386,,,,,,,,,,,,,,,,,,,,,,,,,,,,,,,,,,,,,,,,,,,,,,,,2,5,,,801.6335,11,,1,0.3,11,0,11,0,1,,,,,,,,,,,
,,,,test,A,2024-04-30_12h06.48.624,Slot Machine Game,2023.1.3,MacIntel,60.24096386,,,,,,,,,,,,,,,,,,,,,,,,,,,,,,,,,,,,,,,,,,,,,,,,2,5,,,807.1515,12,,0.5,0.3,12,0,12,0,1,,,,,,,,,,,
,,,,test,A,2024-04-30_12h06.48.624,Slot Machine Game,2023.1.3,MacIntel,60.24096386,,,,,,,,,,,,,,,,,,,,,,,,,,,,,,,,,,,,,,,,,,,,,,,,2,5,,,812.6651,13,,1.5,0.3,13,0,13,0,1,,,,,,,,,,,
,,,,test,A,2024-04-30_12h06.48.624,Slot Machine Game,2023.1.3,MacIntel,60.24096386,,,,,,,,,,,,,,,,,,,,,,,,,,,,,,,,,,,,,,,,,,,,,,,,2,5,,,818.1675,14,,1,0.3,14,0,14,0,1,,,,,,,,,,,
,,,,test,A,2024-04-30_12h06.48.624,Slot Machine Game,2023.1.3,MacIntel,60.24096386,,,,,,,,,,,,,,,,,,,,,,,,,,,,,,,,,,,823.6827,,,,,,,,,,,,,,,,,,,,,,,,,,,1,0,1,0,1,,,,,,
,,,,test,A,2024-04-30_12h06.48.624,Slot Machine Game,2023.1.3,MacIntel,60.24096386,,,,,,,,,,,,,,,,,,,,,,,,,,,,,,,,,,,,,,,,,,,,,,,,3,7,"[9,15]","[[1,3,2],[2,3,1]]",828.685,0,,0.5,0.3,0,0,0,0,1,,,,,,,,,,,
,,,,test,A,2024-04-30_12h06.48.624,Slot Machine Game,2023.1.3,MacIntel,60.24096386,,,,,,,,,,,,,,,,,,,,,,,,,,,,,,,,,,,,,,,,,,,,,,,,3,7,,,834.1998,1,,1.5,0.3,1,0,1,0,1,,,,,,,,,,,
,,,,test,A,2024-04-30_12h06.48.624,Slot Machine Game,2023.1.3,MacIntel,60.24096386,,,,,,,,,,,,,,,,,,,,,,,,,,,,,,,,,,,,,,,,,,,,,,,,3,7,,,839.7147,2,,1.5,0.3,2,0,2,0,1,,,,,,,,,,,
,,,,test,A,2024-04-30_12h06.48.624,Slot Machine Game,2023.1.3,MacIntel,60.24096386,,,,,,,,,,,,,,,,,,,,,,,,,,,,,,,,,,,,,,,,,,,,,,,,3,7,,,845.216,3,,0.5,0.3,3,0,3,0,1,,,,,,,,,,,
,,,,test,A,2024-04-30_12h06.48.624,Slot Machine Game,2023.1.3,MacIntel,60.24096386,,,,,,,,,,,,,,,,,,,,,,,,,,,,,,,,,,,,,,,,,,,,,,,,3,7,,,850.7309,4,,1,0.3,4,0,4,0,1,,,,,,,,,,,
,,,,test,A,2024-04-30_12h06.48.624,Slot Machine Game,2023.1.3,MacIntel,60.24096386,,,,,,,,,,,,,,,,,,,,,,,,,,,,,,,,,,,,,,,,,,,,,,,,3,7,,,856.2322,5,,1.5,0.3,5,0,5,0,1,,,,,,,,,,,
,,,,test,A,2024-04-30_12h06.48.624,Slot Machine Game,2023.1.3,MacIntel,60.24096386,,,,,,,,,,,,,,,,,,,,,,,,,,,,,,,,,,,,,,,,,,,,,,,,3,7,,,861.7481,6,,0.5,0.3,6,0,6,0,1,,,,,,,,,,,
,,,,test,A,2024-04-30_12h06.48.624,Slot Machine Game,2023.1.3,MacIntel,60.24096386,,,,,,,,,,,,,,,,,,,,,,,,,,,,,,,,,,,,,,,,,,,,,,,,3,7,,,867.2643,7,,1.5,0.3,7,0,7,0,1,,,,,,,,,,,
,,,,test,A,2024-04-30_12h06.48.624,Slot Machine Game,2023.1.3,MacIntel,60.24096386,,,,,,,,,,,,,,,,,,,,,,,,,,,,,,,,,,,,,,,,,,,,,,,,3,7,,,872.7792,8,,1,0.3,8,0,8,0,1,,,,,,,,,,,
,,,,test,A,2024-04-30_12h06.48.624,Slot Machine Game,2023.1.3,MacIntel,60.24096386,,,,,,,,,,,,,,,,,,,,,,,,,,,,,,,,,,,,,,,,,,,,,,,,3,7,,,878.2806,9,,1,0.3,9,0,9,0,1,,,,,,,,,,,
,,,,test,A,2024-04-30_12h06.48.624,Slot Machine Game,2023.1.3,MacIntel,60.24096386,,,,,,,,,,,,,,,,,,,,,,,,,,,,,,,,,,,,,,,,,,,,,,,,3,7,,,883.7966,10,,0.5,0.3,10,0,10,0,1,,,,,,,,,,,
,,,,test,A,2024-04-30_12h06.48.624,Slot Machine Game,2023.1.3,MacIntel,60.24096386,,,,,,,,,,,,,,,,,,,,,,,,,,,,,,,,,,,,,,,,,,,,,,,,3,7,,,889.2985,11,,1,0.3,11,0,11,0,1,,,,,,,,,,,
,,,,test,A,2024-04-30_12h06.48.624,Slot Machine Game,2023.1.3,MacIntel,60.24096386,,,,,,,,,,,,,,,,,,,,,,,,,,,,,,,,,,,,,,,,,,,,,,,,3,7,,,894.8102,12,,1,0.3,12,0,12,0,1,,,,,,,,,,,
,,,,test,A,2024-04-30_12h06.48.624,Slot Machine Game,2023.1.3,MacIntel,60.24096386,,,,,,,,,,,,,,,,,,,,,,,,,,,,,,,,,,,,,,,,,,,,,,,,3,7,,,900.3134,13,,1.5,0.3,13,0,13,0,1,,,,,,,,,,,
,,,,test,A,2024-04-30_12h06.48.624,Slot Machine Game,2023.1.3,MacIntel,60.24096386,,,,,,,,,,,,,,,,,,,,,,,,,,,,,,,,,,,,,,,,,,,,,,,,3,7,,,905.8299,14,,0.5,0.3,14,0,14,0,1,,,,,,,,,,,
,,,,test,A,2024-04-30_12h06.48.624,Slot Machine Game,2023.1.3,MacIntel,60.24096386,,,,,,,,,,,,,,,,,,,,,,,,,,,,,,,,,,,911.347,,,,,,,,,,,,,,,,,,,,,,,,,,,2,0,2,0,1,,,,,,
,,,,test,A,2024-04-30_12h06.48.624,Slot Machine Game,2023.1.3,MacIntel,60.24096386,,,,,,,,,,,,,,,,,,,,,,,,,,,,,,,,,,,,,,,,,,,,,,,,4,4,"[7,15]","[[2,3,1],[1,2,3]]",916.3473,0,,1,0.3,0,0,0,0,1,,,,,,,,,,,
,,,,test,A,2024-04-30_12h06.48.624,Slot Machine Game,2023.1.3,MacIntel,60.24096386,,,,,,,,,,,,,,,,,,,,,,,,,,,,,,,,,,,,,,,,,,,,,,,,4,4,,,921.8483,1,,1.5,0.3,1,0,1,0,1,,,,,,,,,,,
,,,,test,A,2024-04-30_12h06.48.624,Slot Machine Game,2023.1.3,MacIntel,60.24096386,,,,,,,,,,,,,,,,,,,,,,,,,,,,,,,,,,,,,,,,,,,,,,,,4,4,,,927.3632,2,,1.5,0.3,2,0,2,0,1,,,,,,,,,,,
,,,,test,A,2024-04-30_12h06.48.624,Slot Machine Game,2023.1.3,MacIntel,60.24096386,,,,,,,,,,,,,,,,,,,,,,,,,,,,,,,,,,,,,,,,,,,,,,,,4,4,,,932.8805,3,,1,0.3,3,0,3,0,1,,,,,,,,,,,
,,,,test,A,2024-04-30_12h06.48.624,Slot Machine Game,2023.1.3,MacIntel,60.24096386,,,,,,,,,,,,,,,,,,,,,,,,,,,,,,,,,,,,,,,,,,,,,,,,4,4,,,938.3951,4,,1,0.3,4,0,4,0,1,,,,,,,,,,,
,,,,test,A,2024-04-30_12h06.48.624,Slot Machine Game,2023.1.3,MacIntel,60.24096386,,,,,,,,,,,,,,,,,,,,,,,,,,,,,,,,,,,,,,,,,,,,,,,,4,4,,,943.8967,5,,1,0.3,5,0,5,0,1,,,,,,,,,,,
,,,,test,A,2024-04-30_12h06.48.624,Slot Machine Game,2023.1.3,MacIntel,60.24096386,,,,,,,,,,,,,,,,,,,,,,,,,,,,,,,,,,,,,,,,,,,,,,,,4,4,,,949.4108,6,,1.5,0.3,6,0,6,0,1,,,,,,,,,,,
,,,,test,A,2024-04-30_12h06.48.624,Slot Machine Game,2023.1.3,MacIntel,60.24096386,,,,,,,,,,,,,,,,,,,,,,,,,,,,,,,,,,,,,,,,,,,,,,,,4,4,,,954.9282,7,,0.5,0.3,7,0,7,0,1,,,,,,,,,,,
,,,,test,A,2024-04-30_12h06.48.624,Slot Machine Game,2023.1.3,MacIntel,60.24096386,,,,,,,,,,,,,,,,,,,,,,,,,,,,,,,,,,,,,,,,,,,,,,,,4,4,,,960.4288,8,,1,0.3,8,0,8,0,1,,,,,,,,,,,
,,,,test,A,2024-04-30_12h06.48.624,Slot Machine Game,2023.1.3,MacIntel,60.24096386,,,,,,,,,,,,,,,,,,,,,,,,,,,,,,,,,,,,,,,,,,,,,,,,4,4,,,965.9431,9,,1.5,0.3,9,0,9,0,1,,,,,,,,,,,
,,,,test,A,2024-04-30_12h06.48.624,Slot Machine Game,2023.1.3,MacIntel,60.24096386,,,,,,,,,,,,,,,,,,,,,,,,,,,,,,,,,,,,,,,,,,,,,,,,4,4,,,971.4595,10,,0.5,0.3,10,0,10,0,1,,,,,,,,,,,
,,,,test,A,2024-04-30_12h06.48.624,Slot Machine Game,2023.1.3,MacIntel,60.24096386,,,,,,,,,,,,,,,,,,,,,,,,,,,,,,,,,,,,,,,,,,,,,,,,4,4,,,976.9767,11,,1.5,0.3,11,0,11,0,1,,,,,,,,,,,
,,,,test,A,2024-04-30_12h06.48.624,Slot Machine Game,2023.1.3,MacIntel,60.24096386,,,,,,,,,,,,,,,,,,,,,,,,,,,,,,,,,,,,,,,,,,,,,,,,4,4,,,982.4923,12,,1,0.3,12,0,12,0,1,,,,,,,,,,,
,,,,test,A,2024-04-30_12h06.48.624,Slot Machine Game,2023.1.3,MacIntel,60.24096386,,,,,,,,,,,,,,,,,,,,,,,,,,,,,,,,,,,,,,,,,,,,,,,,4,4,,,988.011,13,,0.5,0.3,13,0,13,0,1,,,,,,,,,,,
,,,,test,A,2024-04-30_12h06.48.624,Slot Machine Game,2023.1.3,MacIntel,60.24096386,,,,,,,,,,,,,,,,,,,,,,,,,,,,,,,,,,,,,,,,,,,,,,,,4,4,,,993.5259,14,,1.5,0.3,14,0,14,0,1,,,,,,,,,,,
,,,,test,A,2024-04-30_12h06.48.624,Slot Machine Game,2023.1.3,MacIntel,60.24096386,,,,,,,,,,,,,,,,,,,,,,,,,,,,,,,,,,,999.0284,,,,,,,,,,,,,,,,,,,,,,,,,,,3,0,3,0,1,,,,,,
,,,,test,A,2024-04-30_12h06.48.624,Slot Machine Game,2023.1.3,MacIntel,60.24096386,,,,,,,,,,,,,,,,,,,,,,,,,,,,,,,,,,,,,,,,,,,,,,,,5,6,"[4,10,15]","[[2,3,1],[1,3,2],[3,2,1]]",1004.0288,0,,1,0.3,0,0,0,0,1,,,,,,,,,,,
,,,,test,A,2024-04-30_12h06.48.624,Slot Machine Game,2023.1.3,MacIntel,60.24096386,,,,,,,,,,,,,,,,,,,,,,,,,,,,,,,,,,,,,,,,,,,,,,,,5,6,,,1009.5424,1,,1,0.3,1,0,1,0,1,,,,,,,,,,,
,,,,test,A,2024-04-30_12h06.48.624,Slot Machine Game,2023.1.3,MacIntel,60.24096386,,,,,,,,,,,,,,,,,,,,,,,,,,,,,,,,,,,,,,,,,,,,,,,,5,6,,,1015.0586,2,,1,0.3,2,0,2,0,1,,,,,,,,,,,
,,,,test,A,2024-04-30_12h06.48.624,Slot Machine Game,2023.1.3,MacIntel,60.24096386,,,,,,,,,,,,,,,,,,,,,,,,,,,,,,,,,,,,,,,,,,,,,,,,5,6,,,1020.5756,3,,1.5,0.3,3,0,3,0,1,,,,,,,,,,,
,,,,test,A,2024-04-30_12h06.48.624,Slot Machine Game,2023.1.3,MacIntel,60.24096386,,,,,,,,,,,,,,,,,,,,,,,,,,,,,,,,,,,,,,,,,,,,,,,,5,6,,,1026.0904,4,,0.5,0.3,4,0,4,0,1,,,,,,,,,,,
,,,,test,A,2024-04-30_12h06.48.624,Slot Machine Game,2023.1.3,MacIntel,60.24096386,,,,,,,,,,,,,,,,,,,,,,,,,,,,,,,,,,,,,,,,,,,,,,,,5,6,,,1031.5917,5,,1,0.3,5,0,5,0,1,,,,,,,,,,,
,,,,test,A,2024-04-30_12h06.48.624,Slot Machine Game,2023.1.3,MacIntel,60.24096386,,,,,,,,,,,,,,,,,,,,,,,,,,,,,,,,,,,,,,,,,,,,,,,,5,6,,,1037.1023,6,,1,0.3,6,0,6,0,1,,,,,,,,,,,
,,,,test,A,2024-04-30_12h06.48.624,Slot Machine Game,2023.1.3,MacIntel,60.24096386,,,,,,,,,,,,,,,,,,,,,,,,,,,,,,,,,,,,,,,,,,,,,,,,5,6,,,1042.6065,7,,1,0.3,7,0,7,0,1,,,,,,,,,,,
,,,,test,A,2024-04-30_12h06.48.624,Slot Machine Game,2023.1.3,MacIntel,60.24096386,,,,,,,,,,,,,,,,,,,,,,,,,,,,,,,,,,,,,,,,,,,,,,,,5,6,,,1048.1081,8,,1.5,0.3,8,0,8,0,1,,,,,,,,,,,
,,,,test,A,2024-04-30_12h06.48.624,Slot Machine Game,2023.1.3,MacIntel,60.24096386,,,,,,,,,,,,,,,,,,,,,,,,,,,,,,,,,,,,,,,,,,,,,,,,5,6,,,1053.6241,9,,0.5,0.3,9,0,9,0,1,,,,,,,,,,,
,,,,test,A,2024-04-30_12h06.48.624,Slot Machine Game,2023.1.3,MacIntel,60.24096386,,,,,,,,,,,,,,,,,,,,,,,,,,,,,,,,,,,,,,,,,,,,,,,,5,6,,,1059.1262,10,,1.5,0.3,10,0,10,0,1,,,,,,,,,,,
,,,,test,A,2024-04-30_12h06.48.624,Slot Machine Game,2023.1.3,MacIntel,60.24096386,,,,,,,,,,,,,,,,,,,,,,,,,,,,,,,,,,,,,,,,,,,,,,,,5,6,,,1064.6417,11,,1,0.3,11,0,11,0,1,,,,,,,,,,,
,,,,test,A,2024-04-30_12h06.48.624,Slot Machine Game,2023.1.3,MacIntel,60.24096386,,,,,,,,,,,,,,,,,,,,,,,,,,,,,,,,,,,,,,,,,,,,,,,,5,6,,,1070.1584,12,,1.5,0.3,12,0,12,0,1,,,,,,,,,,,
,,,,test,A,2024-04-30_12h06.48.624,Slot Machine Game,2023.1.3,MacIntel,60.24096386,,,,,,,,,,,,,,,,,,,,,,,,,,,,,,,,,,,,,,,,,,,,,,,,5,6,,,1075.6722,13,,0.5,0.3,13,0,13,0,1,,,,,,,,,,,
,,,,test,A,2024-04-30_12h06.48.624,Slot Machine Game,2023.1.3,MacIntel,60.24096386,,,,,,,,,,,,,,,,,,,,,,,,,,,,,,,,,,,,,,,,,,,,,,,,5,6,,,1081.1902,14,,1.5,0.3,14,0,14,0,1,,,,,,,,,,,
,,,,test,A,2024-04-30_12h06.48.624,Slot Machine Game,2023.1.3,MacIntel,60.24096386,,,,,,,,,,,,,,,,,,,,,,,,,,,,,,,,,,,1086.706,,,,,,,,,,,,,,,,,,,,,,,,,,,4,0,4,0,1,,,,,,
,,,,test,A,2024-04-30_12h06.48.624,Slot Machine Game,2023.1.3,MacIntel,60.24096386,,,,,,,,,,,,,,,,,,,,,,,,,,,,,,,,,,,,,,,,,,,,,,,,6,8,"[11,15]","[[2,1,3],[1,2,3]]",1091.7064,0,,1.5,0.3,0,0,0,0,1,,,,,,,,,,,
,,,,test,A,2024-04-30_12h06.48.624,Slot Machine Game,2023.1.3,MacIntel,60.24096386,,,,,,,,,,,,,,,,,,,,,,,,,,,,,,,,,,,,,,,,,,,,,,,,6,8,,,1097.2226,1,,0.5,0.3,1,0,1,0,1,,,,,,,,,,,
,,,,test,A,2024-04-30_12h06.48.624,Slot Machine Game,2023.1.3,MacIntel,60.24096386,,,,,,,,,,,,,,,,,,,,,,,,,,,,,,,,,,,,,,,,,,,,,,,,6,8,,,1102.739,2,,0.5,0.3,2,0,2,0,1,,,,,,,,,,,
,,,,test,A,2024-04-30_12h06.48.624,Slot Machine Game,2023.1.3,MacIntel,60.24096386,,,,,,,,,,,,,,,,,,,,,,,,,,,,,,,,,,,,,,,,,,,,,,,,6,8,,,1108.2539,3,,0.5,0.3,3,0,3,0,1,,,,,,,,,,,
,,,,test,A,2024-04-30_12h06.48.624,Slot Machine Game,2023.1.3,MacIntel,60.24096386,,,,,,,,,,,,,,,,,,,,,,,,,,,,,,,,,,,,,,,,,,,,,,,,6,8,,,1113.7715,4,,0.5,0.3,4,0,4,0,1,,,,,,,,,,,
,,,,test,A,2024-04-30_12h06.48.624,Slot Machine Game,2023.1.3,MacIntel,60.24096386,,,,,,,,,,,,,,,,,,,,,,,,,,,,,,,,,,,,,,,,,,,,,,,,6,8,,,1119.2877,5,,0.5,0.3,5,0,5,0,1,,,,,,,,,,,
,,,,test,A,2024-04-30_12h06.48.624,Slot Machine Game,2023.1.3,MacIntel,60.24096386,,,,,,,,,,,,,,,,,,,,,,,,,,,,,,,,,,,,,,,,,,,,,,,,6,8,,,1124.8062,6,,1,0.3,6,0,6,0,1,,,,,,,,,,,
,,,,test,A,2024-04-30_12h06.48.624,Slot Machine Game,2023.1.3,MacIntel,60.24096386,,,,,,,,,,,,,,,,,,,,,,,,,,,,,,,,,,,,,,,,,,,,,,,,6,8,,,1130.3205,7,,1,0.3,7,0,7,0,1,,,,,,,,,,,
,,,,test,A,2024-04-30_12h06.48.624,Slot Machine Game,2023.1.3,MacIntel,60.24096386,,,,,,,,,,,,,,,,,,,,,,,,,,,,,,,,,,,,,,,,,,,,,,,,6,8,,,1135.8217,8,,1.5,0.3,8,0,8,0,1,,,,,,,,,,,
,,,,test,A,2024-04-30_12h06.48.624,Slot Machine Game,2023.1.3,MacIntel,60.24096386,,,,,,,,,,,,,,,,,,,,,,,,,,,,,,,,,,,,,,,,,,,,,,,,6,8,,,1141.3372,9,,1.5,0.3,9,0,9,0,1,,,,,,,,,,,
,,,,test,A,2024-04-30_12h06.48.624,Slot Machine Game,2023.1.3,MacIntel,60.24096386,,,,,,,,,,,,,,,,,,,,,,,,,,,,,,,,,,,,,,,,,,,,,,,,6,8,,,1146.8387,10,,1.5,0.3,10,0,10,0,1,,,,,,,,,,,
,,,,test,A,2024-04-30_12h06.48.624,Slot Machine Game,2023.1.3,MacIntel,60.24096386,,,,,,,,,,,,,,,,,,,,,,,,,,,,,,,,,,,,,,,,,,,,,,,,6,8,,,1152.3523,11,,0.5,0.3,11,0,11,0,1,,,,,,,,,,,
,,,,test,A,2024-04-30_12h06.48.624,Slot Machine Game,2023.1.3,MacIntel,60.24096386,,,,,,,,,,,,,,,,,,,,,,,,,,,100,,,,,,,,,,,,,,,,,,,,,6,8,,,2196.9426,12,left,0.5,0.3,12,0,12,0,1,,,,,,4.4205,,"[1,2,3]",0.549666707,stimuli/card_100_transparent.png,100
,,,,test,A,2024-04-30_12h06.48.624,Slot Machine Game,2023.1.3,MacIntel,60.24096386,,,,,,,,,,,,,,,,,,,,,,,,,,,200,,,,,,,,,,,,,,,,,,,,,6,8,,,2202.6787,13,up,0.5,0.3,13,0,13,0,1,,,,,,0.0697,,"[1,2,3]",0.102083424,stimuli/card_100_transparent.png,100
,,,,test,A,2024-04-30_12h06.48.624,Slot Machine Game,2023.1.3,MacIntel,60.24096386,,,,,,,,,,,,,,,,,,,,,,,,,,,,,,,,,,,,,,,,,,,,,,,,6,8,,,2204.0755,14,,0.5,0.3,14,0,14,0,1,,,,,,,,,,,
,,,,test,A,2024-04-30_12h06.48.624,Slot Machine Game,2023.1.3,MacIntel,60.24096386,,,,,,,,,,,,,,,,,,,,,,,,,,,,,,,,,,,2209.5824,,,,,,,,,,,,,,,,,,,,,,,,,,,5,0,5,0,1,,,,,,
,,,,test,A,2024-04-30_12h06.48.624,Slot Machine Game,2023.1.3,MacIntel,60.24096386,,,,,,,,,,,,,,,,,,,,,,,,,,,,,,,,,,,,,,,,,,,,,,,,7,9,"[8,15]","[[3,2,1],[3,1,2]]",2214.5811,0,,1.5,0.3,0,0,0,0,1,,,,,,,,,,,
,,,,test,A,2024-04-30_12h06.48.624,Slot Machine Game,2023.1.3,MacIntel,60.24096386,,,,,,,,,,,,,,,,,,,,,,,,,,,,,,,,,,,,,,,,,,,,,,,,7,9,,,2220.0955,1,,0.5,0.3,1,0,1,0,1,,,,,,,,,,,
,,,,test,A,2024-04-30_12h06.48.624,Slot Machine Game,2023.1.3,MacIntel,60.24096386,,,,,,,,,,,,,,,,,,,,,,,,,,,,,,,,,,,,,,,,,,,,,,,,7,9,,,2225.6185,2,,1.5,0.3,2,0,2,0,1,,,,,,,,,,,
,,,,test,A,2024-04-30_12h06.48.624,Slot Machine Game,2023.1.3,MacIntel,60.24096386,,,,,,,,,,,,,,,,,,,,,,,,,,,,,,,,,,,,,,,,,,,,,,,,7,9,,,2231.1281,3,,1.5,0.3,3,0,3,0,1,,,,,,,,,,,
,,,,test,A,2024-04-30_12h06.48.624,Slot Machine Game,2023.1.3,MacIntel,60.24096386,,,,,,,,,,,,,,,,,,,,,,,,,,,,,,,,,,,,,,,,,,,,,,,,7,9,,,2236.6434,4,,1,0.3,4,0,4,0,1,,,,,,,,,,,
,,,,test,A,2024-04-30_12h06.48.624,Slot Machine Game,2023.1.3,MacIntel,60.24096386,,,,,,,,,,,,,,,,,,,,,,,,,,,,,,,,,,,,,,,,,,,,,,,,7,9,,,2242.1591,5,,1,0.3,5,0,5,0,1,,,,,,,,,,,
,,,,test,A,2024-04-30_12h06.48.624,Slot Machine Game,2023.1.3,MacIntel,60.24096386,,,,,,,,,,,,,,,,,,,,,,,,,,,,,,,,,,,,,,,,,,,,,,,,7,9,,,2247.6749,6,,1.5,0.3,6,0,6,0,1,,,,,,,,,,,
,,,,test,A,2024-04-30_12h06.48.624,Slot Machine Game,2023.1.3,MacIntel,60.24096386,,,,,,,,,,,,,,,,,,,,,,,,,,,,,,,,,,,,,,,,,,,,,,,,7,9,,,2253.1915,7,,1,0.3,7,0,7,0,1,,,,,,,,,,,
,,,,test,A,2024-04-30_12h06.48.624,Slot Machine Game,2023.1.3,MacIntel,60.24096386,,,,,,,,,,,,,,,,,,,,,,,,,,,,,,,,,,,,,,,,,,,,,,,,7,9,,,2258.7095,8,,1,0.3,8,0,8,0,1,,,,,,,,,,,
,,,,test,A,2024-04-30_12h06.48.624,Slot Machine Game,2023.1.3,MacIntel,60.24096386,,,,,,,,,,,,,,,,,,,,,,,,,,,,,,,,,,,,,,,,,,,,,,,,7,9,,,2264.2108,9,,0.5,0.3,9,0,9,0,1,,,,,,,,,,,
,,,,test,A,2024-04-30_12h06.48.624,Slot Machine Game,2023.1.3,MacIntel,60.24096386,,,,,,,,,,,,,,,,,,,,,,,,,,,,,,,,,,,,,,,,,,,,,,,,7,9,,,2269.725,10,,0.5,0.3,10,0,10,0,1,,,,,,,,,,,
,,,,test,A,2024-04-30_12h06.48.624,Slot Machine Game,2023.1.3,MacIntel,60.24096386,,,,,,,,,,,,,,,,,,,,,,,,,,,,,,,,,,,,,,,,,,,,,,,,7,9,,,2275.241,11,,0.5,0.3,11,0,11,0,1,,,,,,,,,,,
,,,,test,A,2024-04-30_12h06.48.624,Slot Machine Game,2023.1.3,MacIntel,60.24096386,,,,,,,,,,,,,,,,,,,,,,,,,,,,,,,,,,,,,,,,,,,,,,,,7,9,,,2280.7577,12,,1,0.3,12,0,12,0,1,,,,,,,,,,,
,,,,test,A,2024-04-30_12h06.48.624,Slot Machine Game,2023.1.3,MacIntel,60.24096386,,,,,,,,,,,,,,,,,,,,,,,,,,,,,,,,,,,,,,,,,,,,,,,,7,9,,,2286.2592,13,,0.5,0.3,13,0,13,0,1,,,,,,,,,,,
,,,,test,A,2024-04-30_12h06.48.624,Slot Machine Game,2023.1.3,MacIntel,60.24096386,,,,,,,,,,,,,,,,,,,,,,,,,,,,,,,,,,,,,,,,,,,,,,,,7,9,,,2291.7732,14,,1,0.3,14,0,14,0,1,,,,,,,,,,,
,,,,test,A,2024-04-30_12h06.48.624,Slot Machine Game,2023.1.3,MacIntel,60.24096386,,,,,,,,,,,,,,,,,,,,,,,,,,,,,,,,,,,2297.2934,,,,,,,,,,,,,,,,,,,,,,,,,,,6,0,6,0,1,,,,,,
,,,,test,A,2024-04-30_12h06.48.624,Slot Machine Game,2023.1.3,MacIntel,60.24096386,,,,,,,,,,,,,,,,,,,,,,,,,,,,,,,,,,,,,,,,,,,,,,,,8,2,"[6,15]","[[1,3,2],[3,2,1]]",2302.2911,0,,0.5,0.3,0,0,0,0,1,,,,,,,,,,,
,,,,test,A,2024-04-30_12h06.48.624,Slot Machine Game,2023.1.3,MacIntel,60.24096386,,,,,,,,,,,,,,,,,,,,,,,,,,,,,,,,,,,,,,,,,,,,,,,,8,2,,,2307.8058,1,,1.5,0.3,1,0,1,0,1,,,,,,,,,,,
,,,,test,A,2024-04-30_12h06.48.624,Slot Machine Game,2023.1.3,MacIntel,60.24096386,,,,,,,,,,,,,,,,,,,,,,,,,,,,,,,,,,,,,,,,,,,,,,,,8,2,,,2313.3071,2,,1,0.3,2,0,2,0,1,,,,,,,,,,,
,,,,test,A,2024-04-30_12h06.48.624,Slot Machine Game,2023.1.3,MacIntel,60.24096386,,,,,,,,,,,,,,,,,,,,,,,,,,,,,,,,,,,,,,,,,,,,,,,,8,2,,,2318.8261,3,,1.5,0.3,3,0,3,0,1,,,,,,,,,,,
,,,,test,A,2024-04-30_12h06.48.624,Slot Machine Game,2023.1.3,MacIntel,60.24096386,,,,,,,,,,,,,,,,,,,,,,,,,,,,,,,,,,,,,,,,,,,,,,,,8,2,,,2324.3385,4,,0.5,0.3,4,0,4,0,1,,,,,,,,,,,
,,,,test,A,2024-04-30_12h06.48.624,Slot Machine Game,2023.1.3,MacIntel,60.24096386,,,,,,,,,,,,,,,,,,,,,,,,,,,,,,,,,,,,,,,,,,,,,,,,8,2,,,2329.8415,5,,0.5,0.3,5,0,5,0,1,,,,,,,,,,,
,,,,test,A,2024-04-30_12h06.48.624,Slot Machine Game,2023.1.3,MacIntel,60.24096386,,,,,,,,,,,,,,,,,,,,,,,,,,,,,,,,,,,,,,,,,,,,,,,,8,2,,,2335.357,6,,0.5,0.3,6,0,6,0,1,,,,,,,,,,,
,,,,test,A,2024-04-30_12h06.48.624,Slot Machine Game,2023.1.3,MacIntel,60.24096386,,,,,,,,,,,,,,,,,,,,,,,,,,,,,,,,,,,,,,,,,,,,,,,,8,2,,,2340.8726,7,,0.5,0.3,7,0,7,0,1,,,,,,,,,,,
,,,,test,A,2024-04-30_12h06.48.624,Slot Machine Game,2023.1.3,MacIntel,60.24096386,,,,,,,,,,,,,,,,,,,,,,,,,,,,,,,,,,,,,,,,,,,,,,,,8,2,,,2346.3883,8,,1.5,0.3,8,0,8,0,1,,,,,,,,,,,
,,,,test,A,2024-04-30_12h06.48.624,Slot Machine Game,2023.1.3,MacIntel,60.24096386,,,,,,,,,,,,,,,,,,,,,,,,,,,,,,,,,,,,,,,,,,,,,,,,8,2,,,2351.8893,9,,1.5,0.3,9,0,9,0,1,,,,,,,,,,,
,,,,test,A,2024-04-30_12h06.48.624,Slot Machine Game,2023.1.3,MacIntel,60.24096386,,,,,,,,,,,,,,,,,,,,,,,,,,,,,,,,,,,,,,,,,,,,,,,,8,2,,,2357.4057,10,,1.5,0.3,10,0,10,0,1,,,,,,,,,,,
,,,,test,A,2024-04-30_12h06.48.624,Slot Machine Game,2023.1.3,MacIntel,60.24096386,,,,,,,,,,,,,,,,,,,,,,,,,,,,,,,,,,,,,,,,,,,,,,,,8,2,,,2362.9063,11,,1.5,0.3,11,0,11,0,1,,,,,,,,,,,
,,,,test,A,2024-04-30_12h06.48.624,Slot Machine Game,2023.1.3,MacIntel,60.24096386,,,,,,,,,,,,,,,,,,,,,,,,,,,,,,,,,,,,,,,,,,,,,,,,8,2,,,2368.4218,12,,1,0.3,12,0,12,0,1,,,,,,,,,,,
,,,,test,A,2024-04-30_12h06.48.624,Slot Machine Game,2023.1.3,MacIntel,60.24096386,,,,,,,,,,,,,,,,,,,,,,,,,,,,,,,,,,,,,,,,,,,,,,,,8,2,,,2373.9381,13,,1,0.3,13,0,13,0,1,,,,,,,,,,,
,,,,test,A,2024-04-30_12h06.48.624,Slot Machine Game,2023.1.3,MacIntel,60.24096386,,,,,,,,,,,,,,,,,,,,,,,,,,,,,,,,,,,,,,,,,,,,,,,,8,2,,,2379.4531,14,,0.5,0.3,14,0,14,0,1,,,,,,,,,,,
,,,,test,A,2024-04-30_12h06.48.624,Slot Machine Game,2023.1.3,MacIntel,60.24096386,,,,,,,,,,,,,,,,,,,,,,,,,,,,,,,,,,,2384.9695,,,,,,,,,,,,,,,,,,,,,,,,,,,7,0,7,0,1,,,,,,
,,,,test,A,2024-04-30_12h06.48.624,Slot Machine Game,2023.1.3,MacIntel,60.24096386,,,,,,,,,,,,,,,,,,,,,,,,,,,,,,,,,,,,,,,,,,,,,,,,9,10,"[10,15]","[[3,1,2],[1,3,2]]",2389.9713,0,,0.5,0.3,0,0,0,0,1,,,,,,,,,,,
,,,,test,A,2024-04-30_12h06.48.624,Slot Machine Game,2023.1.3,MacIntel,60.24096386,,,,,,,,,,,,,,,,,,,,,,,,,,,,,,,,,,,,,,,,,,,,,,,,9,10,,,2395.4886,1,,1.5,0.3,1,0,1,0,1,,,,,,,,,,,
,,,,test,A,2024-04-30_12h06.48.624,Slot Machine Game,2023.1.3,MacIntel,60.24096386,,,,,,,,,,,,,,,,,,,,,,,,,,,,,,,,,,,,,,,,,,,,,,,,9,10,,,2401.0033,2,,1.5,0.3,2,0,2,0,1,,,,,,,,,,,
,,,,test,A,2024-04-30_12h06.48.624,Slot Machine Game,2023.1.3,MacIntel,60.24096386,,,,,,,,,,,,,,,,,,,,,,,,,,,,,,,,,,,,,,,,,,,,,,,,9,10,,,2406.5047,3,,1,0.3,3,0,3,0,1,,,,,,,,,,,
,,,,test,A,2024-04-30_12h06.48.624,Slot Machine Game,2023.1.3,MacIntel,60.24096386,,,,,,,,,,,,,,,,,,,,,,,,,,,,,,,,,,,,,,,,,,,,,,,,9,10,,,2412.021,4,,1,0.3,4,0,4,0,1,,,,,,,,,,,
,,,,test,A,2024-04-30_12h06.48.624,Slot Machine Game,2023.1.3,MacIntel,60.24096386,,,,,,,,,,,,,,,,,,,,,,,,,,,,,,,,,,,,,,,,,,,,,,,,9,10,,,2417.5375,5,,1,0.3,5,0,5,0,1,,,,,,,,,,,
,,,,test,A,2024-04-30_12h06.48.624,Slot Machine Game,2023.1.3,MacIntel,60.24096386,,,,,,,,,,,,,,,,,,,,,,,,,,,,,,,,,,,,,,,,,,,,,,,,9,10,,,2423.0543,6,,1.5,0.3,6,0,6,0,1,,,,,,,,,,,
,,,,test,A,2024-04-30_12h06.48.624,Slot Machine Game,2023.1.3,MacIntel,60.24096386,,,,,,,,,,,,,,,,,,,,,,,,,,,,,,,,,,,,,,,,,,,,,,,,9,10,,,2428.57,7,,1.5,0.3,7,0,7,0,1,,,,,,,,,,,
,,,,test,A,2024-04-30_12h06.48.624,Slot Machine Game,2023.1.3,MacIntel,60.24096386,,,,,,,,,,,,,,,,,,,,,,,,,,,,,,,,,,,,,,,,,,,,,,,,9,10,,,2434.087,8,,0.5,0.3,8,0,8,0,1,,,,,,,,,,,
,,,,test,A,2024-04-30_12h06.48.624,Slot Machine Game,2023.1.3,MacIntel,60.24096386,,,,,,,,,,,,,,,,,,,,,,,,,,,,,,,,,,,,,,,,,,,,,,,,9,10,,,2439.6024,9,,0.5,0.3,9,0,9,0,1,,,,,,,,,,,
,,,,test,A,2024-04-30_12h06.48.624,Slot Machine Game,2023.1.3,MacIntel,60.24096386,,,,,,,,,,,,,,,,,,,,,,,,,,,,,,,,,,,,,,,,,,,,,,,,9,10,,,2445.1201,10,,1,0.3,10,0,10,0,1,,,,,,,,,,,
,,,,test,A,2024-04-30_12h06.48.624,Slot Machine Game,2023.1.3,MacIntel,60.24096386,,,,,,,,,,,,,,,,,,,,,,,,,,,,,,,,,,,,,,,,,,,,,,,,9,10,,,2450.6366,11,,0.5,0.3,11,0,11,0,1,,,,,,,,,,,
,,,,test,A,2024-04-30_12h06.48.624,Slot Machine Game,2023.1.3,MacIntel,60.24096386,,,,,,,,,,,,,,,,,,,,,,,,,,,,,,,,,,,,,,,,,,,,,,,,9,10,,,2456.1505,12,,1,0.3,12,0,12,0,1,,,,,,,,,,,
,,,,test,A,2024-04-30_12h06.48.624,Slot Machine Game,2023.1.3,MacIntel,60.24096386,,,,,,,,,,,,,,,,,,,,,,,,,,,,,,,,,,,,,,,,,,,,,,,,9,10,,,2461.6657,13,,1.5,0.3,13,0,13,0,1,,,,,,,,,,,
,,,,test,A,2024-04-30_12h06.48.624,Slot Machine Game,2023.1.3,MacIntel,60.24096386,,,,,,,,,,,,,,,,,,,,,,,,,,,,,,,,,,,,,,,,,,,,,,,,9,10,,,2467.1672,14,,1.5,0.3,14,0,14,0,1,,,,,,,,,,,
,,,,test,A,2024-04-30_12h06.48.624,Slot Machine Game,2023.1.3,MacIntel,60.24096386,,,,,,,,,,,,,,,,,,,,,,,,,,,,,,,,,,,2472.6836,,,,,,,,,,,,,,,,,,,,,,,,,,,8,0,8,0,1,,,,,,
,,,,test,A,2024-04-30_12h06.48.624,Slot Machine Game,2023.1.3,MacIntel,60.24096386,,,,,,,,,,,,,,,,,,,,,,,,,,,,,,,,,,,,,,,,,,,,,,,,10,3,"[15,15]","[[3,1,2],[3,1,2]]",2477.6841,0,,0.5,0.3,0,0,0,0,1,,,,,,,,,,,
,,,,test,A,2024-04-30_12h06.48.624,Slot Machine Game,2023.1.3,MacIntel,60.24096386,,,,,,,,,,,,,,,,,,,,,,,,,,,,,,,,,,,,,,,,,,,,,,,,10,3,,,2483.2001,1,,1,0.3,1,0,1,0,1,,,,,,,,,,,
,,,,test,A,2024-04-30_12h06.48.624,Slot Machine Game,2023.1.3,MacIntel,60.24096386,,,,,,,,,,,,,,,,,,,,,,,,,,,,,,,,,,,,,,,,,,,,,,,,10,3,,,2488.7173,2,,1,0.3,2,0,2,0,1,,,,,,,,,,,
,,,,test,A,2024-04-30_12h06.48.624,Slot Machine Game,2023.1.3,MacIntel,60.24096386,,,,,,,,,,,,,,,,,,,,,,,,,,,,,,,,,,,,,,,,,,,,,,,,10,3,,,2494.2343,3,,0.5,0.3,3,0,3,0,1,,,,,,,,,,,
,,,,test,A,2024-04-30_12h06.48.624,Slot Machine Game,2023.1.3,MacIntel,60.24096386,,,,,,,,,,,,,,,,,,,,,,,,,,,,,,,,,,,,,,,,,,,,,,,,10,3,,,2499.7503,4,,1.5,0.3,4,0,4,0,1,,,,,,,,,,,
,,,,test,A,2024-04-30_12h06.48.624,Slot Machine Game,2023.1.3,MacIntel,60.24096386,,,,,,,,,,,,,,,,,,,,,,,,,,,,,,,,,,,,,,,,,,,,,,,,10,3,,,2505.2683,5,,1,0.3,5,0,5,0,1,,,,,,,,,,,
,,,,test,A,2024-04-30_12h06.48.624,Slot Machine Game,2023.1.3,MacIntel,60.24096386,,,,,,,,,,,,,,,,,,,,,,,,,,,,,,,,,,,,,,,,,,,,,,,,10,3,,,2510.7845,6,,1.5,0.3,6,0,6,0,1,,,,,,,,,,,
,,,,test,A,2024-04-30_12h06.48.624,Slot Machine Game,2023.1.3,MacIntel,60.24096386,,,,,,,,,,,,,,,,,,,,,,,,,,,,,,,,,,,,,,,,,,,,,,,,10,3,,,2516.301,7,,1.5,0.3,7,0,7,0,1,,,,,,,,,,,
,,,,test,A,2024-04-30_12h06.48.624,Slot Machine Game,2023.1.3,MacIntel,60.24096386,,,,,,,,,,,,,,,,,,,,,,,,,,,,,,,,,,,,,,,,,,,,,,,,10,3,,,2521.8173,8,,1,0.3,8,0,8,0,1,,,,,,,,,,,
,,,,test,A,2024-04-30_12h06.48.624,Slot Machine Game,2023.1.3,MacIntel,60.24096386,,,,,,,,,,,,,,,,,,,,,,,,,,,,,,,,,,,,,,,,,,,,,,,,10,3,,,2527.3344,9,,1,0.3,9,0,9,0,1,,,,,,,,,,,
,,,,test,A,2024-04-30_12h06.48.624,Slot Machine Game,2023.1.3,MacIntel,60.24096386,,,,,,,,,,,,,,,,,,,,,,,,,,,,,,,,,,,,,,,,,,,,,,,,10,3,,,2532.8527,10,,1.5,0.3,10,0,10,0,1,,,,,,,,,,,
,,,,test,A,2024-04-30_12h06.48.624,Slot Machine Game,2023.1.3,MacIntel,60.24096386,,,,,,,,,,,,,,,,,,,,,,,,,,,,,,,,,,,,,,,,,,,,,,,,10,3,,,2538.3653,11,,1.5,0.3,11,0,11,0,1,,,,,,,,,,,
,,,,test,A,2024-04-30_12h06.48.624,Slot Machine Game,2023.1.3,MacIntel,60.24096386,,,,,,,,,,,,,,,,,,,,,,,,,,,10,,,,,,,,,,,,,,,,,,,,,10,3,,,2543.88,12,up,1.5,0.3,12,0,12,0,1,,,,,,0.1487,,"[3,1,2]",0.104489926,stimuli/card_10_transparent.png,10
,,,,test,A,2024-04-30_12h06.48.624,Slot Machine Game,2023.1.3,MacIntel,60.24096386,,,,,,,,,,,,,,,,,,,,,,,,,,,10,,,,,,,,,,,,,,,,,,,,,10,3,,,2546.3472,13,up,1,0.3,13,0,13,0,1,,,,,,0.0151,,"[3,1,2]",0.0511647,stimuli/card_0_transparent.png,0
,,,,test,A,2024-04-30_12h06.48.624,Slot Machine Game,2023.1.3,MacIntel,60.24096386,,,,,,,,,,,,,,,,,,,,,,,,,,,110,,,,,,,,,,,,,,,,,,,,,10,3,,,2548.1635,14,up,1.5,0.3,14,0,14,0,1,,,,,,0.0294,,"[3,1,2]",0.881809713,stimuli/card_100_transparent.png,100
,,,,test,A,2024-04-30_12h06.48.624,Slot Machine Game,2023.1.3,MacIntel,60.24096386,,,,,,,,,,,,,,,,,,,,,,,,,,,,,,,,,,,2550.4964,,,,,,,,,,,,,,,,,,,,,,,,,,,9,0,9,0,1,,,,,,
,,,,test,A,2024-04-30_12h06.48.624,Slot Machine Game,2023.1.3,MacIntel,60.24096386,,,,,,,,,,,,,,,,,,,,,,,,,,,,,,,,,,,,,,,,,,,,,,,,,,,,,,,,,,,,,,,,,,,,,,,,
