key_resp_welcome_started,key_resp_welcome_keys,key_resp_welcome_rt,key_resp_welcome_duration,group_id,path_id,date,expName,psychopyVersion,OS,frameRate,study_id,session_id,prolific_pid,key_resp_instruction1_started,key_resp_instruction1_keys,key_resp_instruction1_rt,key_resp_instruction1_duration,key_resp_instruction2_started,key_resp_instruction2_keys,key_resp_instruction2_rt,key_resp_instruction2_duration,key_resp_instruction3_started,key_resp_instruction3_keys,key_resp_instruction3_rt,key_resp_instruction3_duration,key_resp_instruction4_started,key_resp_instruction4_keys,key_resp_instruction4_rt,key_resp_instruction4_duration,practiceCondition,practice_reward_seqs,practice_trial_started,practice_trial_num,practice_resp_rt,practice_resp_duration,practice_resp_keys,prac_presentationInterval,"practice_reward_seq: 2,1,3",reward_img,cumulative_reward,trial_reward,practice_trials.thisRepN,practice_trials.thisTrialN,practice_trials.thisN,practice_trials.thisIndex,practice_trials.ran,"practice_reward_seq: 2,3,1",block_break_started,"practice_reward_seq: 1,3,2","practice_reward_seq: 3,1,2",practice_end_time,practice_end_keys,practice_end_rt,practice_end_duration,main_instruction_text_started,block_condition,block_order_indices,main_instruction_keys,main_instruction_rt,main_instruction_duration,block_number,block_assignment,current_condition,main_reward_seqs,main_trial_started,main_trial_num,main_trial_keys,main_trial_rt,main_trial_duration,main_presentationInterval,reward_presentation_time,main_reward_seq,reward_rand_val,main_reward_img,current_reward,main_trials.thisRepN,main_trials.thisTrialN,main_trials.thisN,main_trials.thisIndex,main_trials.ran,block.thisRepN,block.thisTrialN,block.thisN,block.thisIndex,block.ran
0.0003,space,25.623,,1A,A,2024-02-16_14h28.10.002,Slot Machine Game,2023.1.3,MacIntel,59.97361161,justicestudyid,justicesessionid,justiceprolificid,,,,,,,,,,,,,,,,,,,,,,,,,,,,,,,,,,,,,,,,,,,,,,,,,,,,,,,,,,,,,,,,,,,,,,,,
,,,,1A,A,2024-02-16_14h28.10.002,Slot Machine Game,2023.1.3,MacIntel,59.97361161,justicestudyid,justicesessionid,justiceprolificid,25.6472,space,12.8198,,,,,,,,,,,,,,,,,,,,,,,,,,,,,,,,,,,,,,,,,,,,,,,,,,,,,,,,,,,,,,,,,,,,,
,,,,1A,A,2024-02-16_14h28.10.002,Slot Machine Game,2023.1.3,MacIntel,59.97361161,justicestudyid,justicesessionid,justiceprolificid,,,,,38.4993,space,18.2406,,,,,,,,,,,,,,,,,,,,,,,,,,,,,,,,,,,,,,,,,,,,,,,,,,,,,,,,,,,,,,,,,
,,,,1A,A,2024-02-16_14h28.10.002,Slot Machine Game,2023.1.3,MacIntel,59.97361161,justicestudyid,justicesessionid,justiceprolificid,,,,,,,,,56.7766,space,13.4106,,,,,,,,,,,,,,,,,,,,,,,,,,,,,,,,,,,,,,,,,,,,,,,,,,,,,,,,,,,,,
,,,,1A,A,2024-02-16_14h28.10.002,Slot Machine Game,2023.1.3,MacIntel,59.97361161,justicestudyid,justicesessionid,justiceprolificid,,,,,,,,,,,,,,,,,,,,,,,,,,,,,,,,,,,,,,,,,,,,,,,,,,,,,,,,,,,,,,,,,,,,,,,,
,,,,1A,A,2024-02-16_14h28.10.002,Slot Machine Game,2023.1.3,MacIntel,59.97361161,justicestudyid,justicesessionid,justiceprolificid,,,,,,,,,,,,,212.0194,space,4.5527,,,,,,,,,,,,,,,,,,,,,,,,,,,,,,,,,,,,,,,,,,,,,,,,,,,,,,,,,
,,,,1A,A,2024-02-16_14h28.10.002,Slot Machine Game,2023.1.3,MacIntel,59.97361161,justicestudyid,justicesessionid,justiceprolificid,,,,,,,,,,,,,,,,,"[9,15]","[[2,1,3],[2,3,1]]",216.6112,0,1.4566,,up,1.5,,stimuli/card_100_transparent.png,100,100,0,0,0,0,1,,,,,,,,,,,,,,,,,,,,,,,,,,,,,,,,,,,,,,,
,,,,1A,A,2024-02-16_14h28.10.002,Slot Machine Game,2023.1.3,MacIntel,59.97361161,justicestudyid,justicesessionid,justiceprolificid,,,,,,,,,,,,,,,,,,,219.9207,1,2.045,,up,1.5,,stimuli/card_100_transparent.png,200,100,1,0,1,0,1,,,,,,,,,,,,,,,,,,,,,,,,,,,,,,,,,,,,,,,
,,,,1A,A,2024-02-16_14h28.10.002,Slot Machine Game,2023.1.3,MacIntel,59.97361161,justicestudyid,justicesessionid,justiceprolificid,,,,,,,,,,,,,,,,,,,223.7896,2,1.5762,,up,1.5,,stimuli/card_100_transparent.png,300,100,2,0,2,0,1,,,,,,,,,,,,,,,,,,,,,,,,,,,,,,,,,,,,,,,
,,,,1A,A,2024-02-16_14h28.10.002,Slot Machine Game,2023.1.3,MacIntel,59.97361161,justicestudyid,justicesessionid,justiceprolificid,,,,,,,,,,,,,,,,,,,227.1881,3,1.4158,,up,1,,stimuli/card_100_transparent.png,400,100,3,0,3,0,1,,,,,,,,,,,,,,,,,,,,,,,,,,,,,,,,,,,,,,,
,,,,1A,A,2024-02-16_14h28.10.002,Slot Machine Game,2023.1.3,MacIntel,59.97361161,justicestudyid,justicesessionid,justiceprolificid,,,,,,,,,,,,,,,,,,,229.9232,4,1.2993,,up,1.5,,stimuli/card_100_transparent.png,500,100,4,0,4,0,1,,,,,,,,,,,,,,,,,,,,,,,,,,,,,,,,,,,,,,,
,,,,1A,A,2024-02-16_14h28.10.002,Slot Machine Game,2023.1.3,MacIntel,59.97361161,justicestudyid,justicesessionid,justiceprolificid,,,,,,,,,,,,,,,,,,,233.0428,5,1.4976,,up,1.5,,stimuli/card_100_transparent.png,600,100,5,0,5,0,1,,,,,,,,,,,,,,,,,,,,,,,,,,,,,,,,,,,,,,,
,,,,1A,A,2024-02-16_14h28.10.002,Slot Machine Game,2023.1.3,MacIntel,59.97361161,justicestudyid,justicesessionid,justiceprolificid,,,,,,,,,,,,,,,,,,,236.3603,6,1.5129,,up,1.5,,stimuli/card_100_transparent.png,700,100,6,0,6,0,1,,,,,,,,,,,,,,,,,,,,,,,,,,,,,,,,,,,,,,,
,,,,1A,A,2024-02-16_14h28.10.002,Slot Machine Game,2023.1.3,MacIntel,59.97361161,justicestudyid,justicesessionid,justiceprolificid,,,,,,,,,,,,,,,,,,,239.6942,7,1.3102,,up,1,,stimuli/card_10_transparent.png,710,10,7,0,7,0,1,,,,,,,,,,,,,,,,,,,,,,,,,,,,,,,,,,,,,,,
,,,,1A,A,2024-02-16_14h28.10.002,Slot Machine Game,2023.1.3,MacIntel,59.97361161,justicestudyid,justicesessionid,justiceprolificid,,,,,,,,,,,,,,,,,,,242.3297,8,3.5589,,up,0.5,,stimuli/card_100_transparent.png,810,100,8,0,8,0,1,,,,,,,,,,,,,,,,,,,,,,,,,,,,,,,,,,,,,,,
,,,,1A,A,2024-02-16_14h28.10.002,Slot Machine Game,2023.1.3,MacIntel,59.97361161,justicestudyid,justicesessionid,justiceprolificid,,,,,,,,,,,,,,,,,,,246.7151,9,1.5638,,up,0.5,,stimuli/card_0_transparent.png,810,0,9,0,9,0,1,,,,,,,,,,,,,,,,,,,,,,,,,,,,,,,,,,,,,,,
,,,,1A,A,2024-02-16_14h28.10.002,Slot Machine Game,2023.1.3,MacIntel,59.97361161,justicestudyid,justicesessionid,justiceprolificid,,,,,,,,,,,,,,,,,,,249.099,10,3.2676,,right,1,,stimuli/card_100_transparent.png,910,100,10,0,10,0,1,,,,,,,,,,,,,,,,,,,,,,,,,,,,,,,,,,,,,,,
,,,,1A,A,2024-02-16_14h28.10.002,Slot Machine Game,2023.1.3,MacIntel,59.97361161,justicestudyid,justicesessionid,justiceprolificid,,,,,,,,,,,,,,,,,,,253.6869,11,1.8795,,right,1.5,,stimuli/card_100_transparent.png,1010,100,11,0,11,0,1,,,,,,,,,,,,,,,,,,,,,,,,,,,,,,,,,,,,,,,
,,,,1A,A,2024-02-16_14h28.10.002,Slot Machine Game,2023.1.3,MacIntel,59.97361161,justicestudyid,justicesessionid,justiceprolificid,,,,,,,,,,,,,,,,,,,257.387,12,3.1507,,right,1.5,,stimuli/card_100_transparent.png,1110,100,12,0,12,0,1,,,,,,,,,,,,,,,,,,,,,,,,,,,,,,,,,,,,,,,
,,,,1A,A,2024-02-16_14h28.10.002,Slot Machine Game,2023.1.3,MacIntel,59.97361161,justicestudyid,justicesessionid,justiceprolificid,,,,,,,,,,,,,,,,,,,262.3559,13,1.195,,right,0.5,,stimuli/card_100_transparent.png,1210,100,13,0,13,0,1,,,,,,,,,,,,,,,,,,,,,,,,,,,,,,,,,,,,,,,
,,,,1A,A,2024-02-16_14h28.10.002,Slot Machine Game,2023.1.3,MacIntel,59.97361161,justicestudyid,justicesessionid,justiceprolificid,,,,,,,,,,,,,,,,,,,264.3753,14,1.3117,,right,1.5,,stimuli/card_100_transparent.png,1310,100,14,0,14,0,1,,,,,,,,,,,,,,,,,,,,,,,,,,,,,,,,,,,,,,,
,,,,1A,A,2024-02-16_14h28.10.002,Slot Machine Game,2023.1.3,MacIntel,59.97361161,justicestudyid,justicesessionid,justiceprolificid,,,,,,,,,,,,,,,,,"[6,15]","[[1,3,2],[3,1,2]]",272.5144,0,4.6616,,left,1.5,,stimuli/card_100_transparent.png,100,100,0,0,0,0,1,,267.5083,,,,,,,,,,,,,,,,,,,,,,,,,,,,,,,,,,,,,
,,,,1A,A,2024-02-16_14h28.10.002,Slot Machine Game,2023.1.3,MacIntel,59.97361161,justicestudyid,justicesessionid,justiceprolificid,,,,,,,,,,,,,,,,,,,278.9965,1,0.8791,,left,1,,stimuli/card_100_transparent.png,200,100,1,0,1,0,1,,,,,,,,,,,,,,,,,,,,,,,,,,,,,,,,,,,,,,,
,,,,1A,A,2024-02-16_14h28.10.002,Slot Machine Game,2023.1.3,MacIntel,59.97361161,justicestudyid,justicesessionid,justiceprolificid,,,,,,,,,,,,,,,,,,,281.1814,2,0.9788,,left,1.5,,stimuli/card_100_transparent.png,300,100,2,0,2,0,1,,,,,,,,,,,,,,,,,,,,,,,,,,,,,,,,,,,,,,,
,,,,1A,A,2024-02-16_14h28.10.002,Slot Machine Game,2023.1.3,MacIntel,59.97361161,justicestudyid,justicesessionid,justiceprolificid,,,,,,,,,,,,,,,,,,,283.9828,3,0.5807,,left,1,,stimuli/card_100_transparent.png,400,100,3,0,3,0,1,,,,,,,,,,,,,,,,,,,,,,,,,,,,,,,,,,,,,,,
,,,,1A,A,2024-02-16_14h28.10.002,Slot Machine Game,2023.1.3,MacIntel,59.97361161,justicestudyid,justicesessionid,justiceprolificid,,,,,,,,,,,,,,,,,,,285.8825,4,0.5467,,left,1,,stimuli/card_10_transparent.png,410,10,4,0,4,0,1,,,,,,,,,,,,,,,,,,,,,,,,,,,,,,,,,,,,,,,
,,,,1A,A,2024-02-16_14h28.10.002,Slot Machine Game,2023.1.3,MacIntel,59.97361161,justicestudyid,justicesessionid,justiceprolificid,,,,,,,,,,,,,,,,,,,287.7498,5,1.4785,,left,1.5,,stimuli/card_100_transparent.png,510,100,5,0,5,0,1,,,,,,,,,,,,,,,,,,,,,,,,,,,,,,,,,,,,,,,
,,,,1A,A,2024-02-16_14h28.10.002,Slot Machine Game,2023.1.3,MacIntel,59.97361161,justicestudyid,justicesessionid,justiceprolificid,,,,,,,,,,,,,,,,,,,291.0528,6,0.9286,,left,1,,stimuli/card_0_transparent.png,510,0,6,0,6,0,1,,,,,,,,,,,,,,,,,,,,,,,,,,,,,,,,,,,,,,,
,,,,1A,A,2024-02-16_14h28.10.002,Slot Machine Game,2023.1.3,MacIntel,59.97361161,justicestudyid,justicesessionid,justiceprolificid,,,,,,,,,,,,,,,,,,,293.3036,7,2.497,,right,0.5,,stimuli/card_10_transparent.png,520,10,7,0,7,0,1,,,,,,,,,,,,,,,,,,,,,,,,,,,,,,,,,,,,,,,
,,,,1A,A,2024-02-16_14h28.10.002,Slot Machine Game,2023.1.3,MacIntel,59.97361161,justicestudyid,justicesessionid,justiceprolificid,,,,,,,,,,,,,,,,,,,296.6207,8,2.2616,,right,1.5,,stimuli/card_100_transparent.png,620,100,8,0,8,0,1,,,,,,,,,,,,,,,,,,,,,,,,,,,,,,,,,,,,,,,
,,,,1A,A,2024-02-16_14h28.10.002,Slot Machine Game,2023.1.3,MacIntel,59.97361161,justicestudyid,justicesessionid,justiceprolificid,,,,,,,,,,,,,,,,,,,300.7085,9,0.7956,,right,1,,stimuli/card_10_transparent.png,630,10,9,0,9,0,1,,,,,,,,,,,,,,,,,,,,,,,,,,,,,,,,,,,,,,,
,,,,1A,A,2024-02-16_14h28.10.002,Slot Machine Game,2023.1.3,MacIntel,59.97361161,justicestudyid,justicesessionid,justiceprolificid,,,,,,,,,,,,,,,,,,,302.8248,10,1.2298,,up,1.5,,stimuli/card_100_transparent.png,730,100,10,0,10,0,1,,,,,,,,,,,,,,,,,,,,,,,,,,,,,,,,,,,,,,,
,,,,1A,A,2024-02-16_14h28.10.002,Slot Machine Game,2023.1.3,MacIntel,59.97361161,justicestudyid,justicesessionid,justiceprolificid,,,,,,,,,,,,,,,,,,,305.8784,11,0.3613,,up,1,,stimuli/card_100_transparent.png,830,100,11,0,11,0,1,,,,,,,,,,,,,,,,,,,,,,,,,,,,,,,,,,,,,,,
,,,,1A,A,2024-02-16_14h28.10.002,Slot Machine Game,2023.1.3,MacIntel,59.97361161,justicestudyid,justicesessionid,justiceprolificid,,,,,,,,,,,,,,,,,,,307.561,12,0.2129,,up,1,,stimuli/card_100_transparent.png,930,100,12,0,12,0,1,,,,,,,,,,,,,,,,,,,,,,,,,,,,,,,,,,,,,,,
,,,,1A,A,2024-02-16_14h28.10.002,Slot Machine Game,2023.1.3,MacIntel,59.97361161,justicestudyid,justicesessionid,justiceprolificid,,,,,,,,,,,,,,,,,,,309.0943,13,0.2137,,up,1.5,,stimuli/card_100_transparent.png,1030,100,13,0,13,0,1,,,,,,,,,,,,,,,,,,,,,,,,,,,,,,,,,,,,,,,
,,,,1A,A,2024-02-16_14h28.10.002,Slot Machine Game,2023.1.3,MacIntel,59.97361161,justicestudyid,justicesessionid,justiceprolificid,,,,,,,,,,,,,,,,,,,311.1299,14,0.2627,,up,1.5,,stimuli/card_100_transparent.png,1130,100,14,0,14,0,1,,,,,,,,,,,,,,,,,,,,,,,,,,,,,,,,,,,,,,,
,,,,1A,A,2024-02-16_14h28.10.002,Slot Machine Game,2023.1.3,MacIntel,59.97361161,justicestudyid,justicesessionid,justiceprolificid,,,,,,,,,,,,,,,,,,,,,,,,,,,,,,,,,,,313.2126,,,318.2183,space,3.0761,,,,,,,,,,,,,,,,,,,,,,,,,,,,,,,,
,,,,1A,A,2024-02-16_14h28.10.002,Slot Machine Game,2023.1.3,MacIntel,59.97361161,justicestudyid,justicesessionid,justiceprolificid,,,,,,,,,,,,,,,,,,,,,,,,,,,,,,,,,,,,,,,,,,321.3186,1,"[0,1,2,3,4,5,6,7,8,9]",space,9.5601,,,,,,,,,,,,,,,,,,,,,,,,,,
,,,,1A,A,2024-02-16_14h28.10.002,Slot Machine Game,2023.1.3,MacIntel,59.97361161,justicestudyid,justicesessionid,justiceprolificid,,,,,,,,,,,,,,,,,,,,,,,,,,,0,,,,,,,,,,,,,,,,,,,,,1,1,"[12,15]","[[2,1,3],[2,3,1]]",330.9122,0,up,1.6672,,1.5,0.3,"[2,1,3]",0.036718796,stimuli/card_0_transparent.png,0,0,0,0,0,1,,,,,
,,,,1A,A,2024-02-16_14h28.10.002,Slot Machine Game,2023.1.3,MacIntel,59.97361161,justicestudyid,justicesessionid,justiceprolificid,,,,,,,,,,,,,,,,,,,,,,,,,,,10,,,,,,,,,,,,,,,,,,,,,1,1,,,334.407,1,left,1.5842,,1.5,0.3,"[2,1,3]",0.334514498,stimuli/card_10_transparent.png,10,1,0,1,0,1,,,,,
,,,,1A,A,2024-02-16_14h28.10.002,Slot Machine Game,2023.1.3,MacIntel,59.97361161,justicestudyid,justicesessionid,justiceprolificid,,,,,,,,,,,,,,,,,,,,,,,,,,,10,,,,,,,,,,,,,,,,,,,,,1,1,,,337.8073,2,right,1.3444,,1,0.3,"[2,1,3]",0.622747015,stimuli/card_0_transparent.png,0,2,0,2,0,1,,,,,
,,,,1A,A,2024-02-16_14h28.10.002,Slot Machine Game,2023.1.3,MacIntel,59.97361161,justicestudyid,justicesessionid,justiceprolificid,,,,,,,,,,,,,,,,,,,,,,,,,,,20,,,,,,,,,,,,,,,,,,,,,1,1,,,340.4757,3,left,1.1348,,0.5,0.3,"[2,1,3]",0.92186371,stimuli/card_10_transparent.png,10,3,0,3,0,1,,,,,
,,,,1A,A,2024-02-16_14h28.10.002,Slot Machine Game,2023.1.3,MacIntel,59.97361161,justicestudyid,justicesessionid,justiceprolificid,,,,,,,,,,,,,,,,,,,,,,,,,,,120,,,,,,,,,,,,,,,,,,,,,1,1,,,342.4258,4,up,1.3796,,1,0.3,"[2,1,3]",0.820945098,stimuli/card_100_transparent.png,100,4,0,4,0,1,,,,,
,,,,1A,A,2024-02-16_14h28.10.002,Slot Machine Game,2023.1.3,MacIntel,59.97361161,justicestudyid,justicesessionid,justiceprolificid,,,,,,,,,,,,,,,,,,,,,,,,,,,120,,,,,,,,,,,,,,,,,,,,,1,1,,,345.1285,5,up,0.5958,,0.5,0.3,"[2,1,3]",0.041492176,stimuli/card_0_transparent.png,0,5,0,5,0,1,,,,,
,,,,1A,A,2024-02-16_14h28.10.002,Slot Machine Game,2023.1.3,MacIntel,59.97361161,justicestudyid,justicesessionid,justiceprolificid,,,,,,,,,,,,,,,,,,,,,,,,,,,220,,,,,,,,,,,,,,,,,,,,,1,1,,,346.5443,6,up,1.6518,,1,0.3,"[2,1,3]",0.289256482,stimuli/card_100_transparent.png,100,6,0,6,0,1,,,,,
,,,,1A,A,2024-02-16_14h28.10.002,Slot Machine Game,2023.1.3,MacIntel,59.97361161,justicestudyid,justicesessionid,justiceprolificid,,,,,,,,,,,,,,,,,,,,,,,,,,,320,,,,,,,,,,,,,,,,,,,,,1,1,,,349.5149,7,up,0.5971,,0.5,0.3,"[2,1,3]",0.465991029,stimuli/card_100_transparent.png,100,7,0,7,0,1,,,,,
,,,,1A,A,2024-02-16_14h28.10.002,Slot Machine Game,2023.1.3,MacIntel,59.97361161,justicestudyid,justicesessionid,justiceprolificid,,,,,,,,,,,,,,,,,,,,,,,,,,,420,,,,,,,,,,,,,,,,,,,,,1,1,,,350.9312,8,up,0.3296,,1.5,0.3,"[2,1,3]",0.471830928,stimuli/card_100_transparent.png,100,8,0,8,0,1,,,,,
,,,,1A,A,2024-02-16_14h28.10.002,Slot Machine Game,2023.1.3,MacIntel,59.97361161,justicestudyid,justicesessionid,justiceprolificid,,,,,,,,,,,,,,,,,,,,,,,,,,,520,,,,,,,,,,,,,,,,,,,,,1,1,,,353.0821,9,up,0.1585,,1,0.3,"[2,1,3]",0.375937754,stimuli/card_100_transparent.png,100,9,0,9,0,1,,,,,
,,,,1A,A,2024-02-16_14h28.10.002,Slot Machine Game,2023.1.3,MacIntel,59.97361161,justicestudyid,justicesessionid,justiceprolificid,,,,,,,,,,,,,,,,,,,,,,,,,,,620,,,,,,,,,,,,,,,,,,,,,1,1,,,354.565,10,up,0.0751,,0.5,0.3,"[2,1,3]",0.683196294,stimuli/card_100_transparent.png,100,10,0,10,0,1,,,,,
,,,,1A,A,2024-02-16_14h28.10.002,Slot Machine Game,2023.1.3,MacIntel,59.97361161,justicestudyid,justicesessionid,justiceprolificid,,,,,,,,,,,,,,,,,,,,,,,,,,,630,,,,,,,,,,,,,,,,,,,,,1,1,,,355.4668,11,up,0.3789,,0.5,0.3,"[2,1,3]",0.199645465,stimuli/card_10_transparent.png,10,11,0,11,0,1,,,,,
,,,,1A,A,2024-02-16_14h28.10.002,Slot Machine Game,2023.1.3,MacIntel,59.97361161,justicestudyid,justicesessionid,justiceprolificid,,,,,,,,,,,,,,,,,,,,,,,,,,,640,,,,,,,,,,,,,,,,,,,,,1,1,,,356.6657,12,up,0.6955,,0.5,0.3,"[2,3,1]",0.190524134,stimuli/card_10_transparent.png,10,12,0,12,0,1,,,,,
,,,,1A,A,2024-02-16_14h28.10.002,Slot Machine Game,2023.1.3,MacIntel,59.97361161,justicestudyid,justicesessionid,justiceprolificid,,,,,,,,,,,,,,,,,,,,,,,,,,,640,,,,,,,,,,,,,,,,,,,,,1,1,,,358.1836,13,up,2.0475,,1.5,0.3,"[2,3,1]",0.448700188,stimuli/card_0_transparent.png,0,13,0,13,0,1,,,,,
,,,,1A,A,2024-02-16_14h28.10.002,Slot Machine Game,2023.1.3,MacIntel,59.97361161,justicestudyid,justicesessionid,justiceprolificid,,,,,,,,,,,,,,,,,,,,,,,,,,,740,,,,,,,,,,,,,,,,,,,,,1,1,,,362.0524,14,right,0.4187,,1.5,0.3,"[2,3,1]",0.94504277,stimuli/card_100_transparent.png,100,14,0,14,0,1,,,,,
,,,,1A,A,2024-02-16_14h28.10.002,Slot Machine Game,2023.1.3,MacIntel,59.97361161,justicestudyid,justicesessionid,justiceprolificid,,,,,,,,,,,,,,,,,,,,,,,,,,,,,,,,,,,364.2891,,,,,,,,,,,,,,,,,,,,,,,,,,,,,,,,,0,0,0,0,1
,,,,1A,A,2024-02-16_14h28.10.002,Slot Machine Game,2023.1.3,MacIntel,59.97361161,justicestudyid,justicesessionid,justiceprolificid,,,,,,,,,,,,,,,,,,,,,,,,,,,0,,,,,,,,,,,,,,,,,,,,,2,2,"[6,15]","[[1,3,2],[3,2,1]]",369.2933,0,up,1.0639,,1.5,0.3,"[1,3,2]",0.360358413,stimuli/card_0_transparent.png,0,0,0,0,0,1,,,,,
,,,,1A,A,2024-02-16_14h28.10.002,Slot Machine Game,2023.1.3,MacIntel,59.97361161,justicestudyid,justicesessionid,justiceprolificid,,,,,,,,,,,,,,,,,,,,,,,,,,,100,,,,,,,,,,,,,,,,,,,,,2,2,,,372.1749,1,left,0.7344,,1.5,0.3,"[1,3,2]",0.431269644,stimuli/card_100_transparent.png,100,1,0,1,0,1,,,,,
,,,,1A,A,2024-02-16_14h28.10.002,Slot Machine Game,2023.1.3,MacIntel,59.97361161,justicestudyid,justicesessionid,justiceprolificid,,,,,,,,,,,,,,,,,,,,,,,,,,,200,,,,,,,,,,,,,,,,,,,,,2,2,,,374.7258,2,left,0.4123,,0.5,0.3,"[1,3,2]",0.67728362,stimuli/card_100_transparent.png,100,2,0,2,0,1,,,,,
,,,,1A,A,2024-02-16_14h28.10.002,Slot Machine Game,2023.1.3,MacIntel,59.97361161,justicestudyid,justicesessionid,justiceprolificid,,,,,,,,,,,,,,,,,,,,,,,,,,,300,,,,,,,,,,,,,,,,,,,,,2,2,,,375.9591,3,left,0.3823,,1.5,0.3,"[1,3,2]",0.542419784,stimuli/card_100_transparent.png,100,3,0,3,0,1,,,,,
,,,,1A,A,2024-02-16_14h28.10.002,Slot Machine Game,2023.1.3,MacIntel,59.97361161,justicestudyid,justicesessionid,justiceprolificid,,,,,,,,,,,,,,,,,,,,,,,,,,,400,,,,,,,,,,,,,,,,,,,,,2,2,,,378.1601,4,left,0.2081,,0.5,0.3,"[1,3,2]",0.942503868,stimuli/card_100_transparent.png,100,4,0,4,0,1,,,,,
,,,,1A,A,2024-02-16_14h28.10.002,Slot Machine Game,2023.1.3,MacIntel,59.97361161,justicestudyid,justicesessionid,justiceprolificid,,,,,,,,,,,,,,,,,,,,,,,,,,,500,,,,,,,,,,,,,,,,,,,,,2,2,,,379.196,5,left,0.3123,,0.5,0.3,"[1,3,2]",0.511327775,stimuli/card_100_transparent.png,100,5,0,5,0,1,,,,,
,,,,1A,A,2024-02-16_14h28.10.002,Slot Machine Game,2023.1.3,MacIntel,59.97361161,justicestudyid,justicesessionid,justiceprolificid,,,,,,,,,,,,,,,,,,,,,,,,,,,510,,,,,,,,,,,,,,,,,,,,,2,2,,,380.3278,6,left,0.2474,,1,0.3,"[3,2,1]",0.185680361,stimuli/card_10_transparent.png,10,6,0,6,0,1,,,,,
,,,,1A,A,2024-02-16_14h28.10.002,Slot Machine Game,2023.1.3,MacIntel,59.97361161,justicestudyid,justicesessionid,justiceprolificid,,,,,,,,,,,,,,,,,,,,,,,,,,,510,,,,,,,,,,,,,,,,,,,,,2,2,,,381.8962,7,left,1.4457,,1.5,0.3,"[3,2,1]",0.454101526,stimuli/card_0_transparent.png,0,7,0,7,0,1,,,,,
,,,,1A,A,2024-02-16_14h28.10.002,Slot Machine Game,2023.1.3,MacIntel,59.97361161,justicestudyid,justicesessionid,justiceprolificid,,,,,,,,,,,,,,,,,,,,,,,,,,,610,,,,,,,,,,,,,,,,,,,,,2,2,,,385.1635,8,right,0.5285,,1,0.3,"[3,2,1]",0.692339463,stimuli/card_100_transparent.png,100,8,0,8,0,1,,,,,
,,,,1A,A,2024-02-16_14h28.10.002,Slot Machine Game,2023.1.3,MacIntel,59.97361161,justicestudyid,justicesessionid,justiceprolificid,,,,,,,,,,,,,,,,,,,,,,,,,,,710,,,,,,,,,,,,,,,,,,,,,2,2,,,387.015,9,right,0.279,,1,0.3,"[3,2,1]",0.462343972,stimuli/card_100_transparent.png,100,9,0,9,0,1,,,,,
,,,,1A,A,2024-02-16_14h28.10.002,Slot Machine Game,2023.1.3,MacIntel,59.97361161,justicestudyid,justicesessionid,justiceprolificid,,,,,,,,,,,,,,,,,,,,,,,,,,,720,,,,,,,,,,,,,,,,,,,,,2,2,,,388.6153,10,right,0.1143,,1.5,0.3,"[3,2,1]",0.127597997,stimuli/card_10_transparent.png,10,10,0,10,0,1,,,,,
,,,,1A,A,2024-02-16_14h28.10.002,Slot Machine Game,2023.1.3,MacIntel,59.97361161,justicestudyid,justicesessionid,justiceprolificid,,,,,,,,,,,,,,,,,,,,,,,,,,,820,,,,,,,,,,,,,,,,,,,,,2,2,,,390.5489,11,right,0.3642,,1.5,0.3,"[3,2,1]",0.899351129,stimuli/card_100_transparent.png,100,11,0,11,0,1,,,,,
,,,,1A,A,2024-02-16_14h28.10.002,Slot Machine Game,2023.1.3,MacIntel,59.97361161,justicestudyid,justicesessionid,justiceprolificid,,,,,,,,,,,,,,,,,,,,,,,,,,,920,,,,,,,,,,,,,,,,,,,,,2,2,,,392.7362,12,right,0.1141,,1,0.3,"[3,2,1]",0.659840239,stimuli/card_100_transparent.png,100,12,0,12,0,1,,,,,
,,,,1A,A,2024-02-16_14h28.10.002,Slot Machine Game,2023.1.3,MacIntel,59.97361161,justicestudyid,justicesessionid,justiceprolificid,,,,,,,,,,,,,,,,,,,,,,,,,,,1020,,,,,,,,,,,,,,,,,,,,,2,2,,,394.1674,13,right,0.096,,1,0.3,"[3,2,1]",0.217906825,stimuli/card_100_transparent.png,100,13,0,13,0,1,,,,,
,,,,1A,A,2024-02-16_14h28.10.002,Slot Machine Game,2023.1.3,MacIntel,59.97361161,justicestudyid,justicesessionid,justiceprolificid,,,,,,,,,,,,,,,,,,,,,,,,,,,1120,,,,,,,,,,,,,,,,,,,,,2,2,,,395.5842,14,right,0.2104,,1.5,0.3,"[3,2,1]",0.900611051,stimuli/card_100_transparent.png,100,14,0,14,0,1,,,,,
,,,,1A,A,2024-02-16_14h28.10.002,Slot Machine Game,2023.1.3,MacIntel,59.97361161,justicestudyid,justicesessionid,justiceprolificid,,,,,,,,,,,,,,,,,,,,,,,,,,,,,,,,,,,397.6187,,,,,,,,,,,,,,,,,,,,,,,,,,,,,,,,,1,0,1,0,1
,,,,1A,A,2024-02-16_14h28.10.002,Slot Machine Game,2023.1.3,MacIntel,59.97361161,justicestudyid,justicesessionid,justiceprolificid,,,,,,,,,,,,,,,,,,,,,,,,,,,100,,,,,,,,,,,,,,,,,,,,,3,3,"[15,15]","[[3,1,2],[3,1,2]]",402.6251,0,up,1.3624,,1.5,0.3,"[3,1,2]",0.528588516,stimuli/card_100_transparent.png,100,0,0,0,0,1,,,,,
,,,,1A,A,2024-02-16_14h28.10.002,Slot Machine Game,2023.1.3,MacIntel,59.97361161,justicestudyid,justicesessionid,justiceprolificid,,,,,,,,,,,,,,,,,,,,,,,,,,,200,,,,,,,,,,,,,,,,,,,,,3,3,,,405.8061,1,up,0.2946,,1,0.3,"[3,1,2]",0.221058023,stimuli/card_100_transparent.png,100,1,0,1,0,1,,,,,
,,,,1A,A,2024-02-16_14h28.10.002,Slot Machine Game,2023.1.3,MacIntel,59.97361161,justicestudyid,justicesessionid,justiceprolificid,,,,,,,,,,,,,,,,,,,,,,,,,,,210,,,,,,,,,,,,,,,,,,,,,3,3,,,407.4264,2,up,0.2275,,1,0.3,"[3,1,2]",0.164433397,stimuli/card_10_transparent.png,10,2,0,2,0,1,,,,,
,,,,1A,A,2024-02-16_14h28.10.002,Slot Machine Game,2023.1.3,MacIntel,59.97361161,justicestudyid,justicesessionid,justiceprolificid,,,,,,,,,,,,,,,,,,,,,,,,,,,310,,,,,,,,,,,,,,,,,,,,,3,3,,,408.9744,3,up,0.5993,,0.5,0.3,"[3,1,2]",0.450005127,stimuli/card_100_transparent.png,100,3,0,3,0,1,,,,,
,,,,1A,A,2024-02-16_14h28.10.002,Slot Machine Game,2023.1.3,MacIntel,59.97361161,justicestudyid,justicesessionid,justiceprolificid,,,,,,,,,,,,,,,,,,,,,,,,,,,410,,,,,,,,,,,,,,,,,,,,,3,3,,,410.3921,4,up,0.4956,,1.5,0.3,"[3,1,2]",0.529424445,stimuli/card_100_transparent.png,100,4,0,4,0,1,,,,,
,,,,1A,A,2024-02-16_14h28.10.002,Slot Machine Game,2023.1.3,MacIntel,59.97361161,justicestudyid,justicesessionid,justiceprolificid,,,,,,,,,,,,,,,,,,,,,,,,,,,510,,,,,,,,,,,,,,,,,,,,,3,3,,,412.7104,5,up,0.2803,,0.5,0.3,"[3,1,2]",0.528972064,stimuli/card_100_transparent.png,100,5,0,5,0,1,,,,,
,,,,1A,A,2024-02-16_14h28.10.002,Slot Machine Game,2023.1.3,MacIntel,59.97361161,justicestudyid,justicesessionid,justiceprolificid,,,,,,,,,,,,,,,,,,,,,,,,,,,610,,,,,,,,,,,,,,,,,,,,,3,3,,,413.8123,6,up,0.3481,,1,0.3,"[3,1,2]",0.385993191,stimuli/card_100_transparent.png,100,6,0,6,0,1,,,,,
,,,,1A,A,2024-02-16_14h28.10.002,Slot Machine Game,2023.1.3,MacIntel,59.97361161,justicestudyid,justicesessionid,justiceprolificid,,,,,,,,,,,,,,,,,,,,,,,,,,,710,,,,,,,,,,,,,,,,,,,,,3,3,,,415.4777,7,up,0.4116,,1.5,0.3,"[3,1,2]",0.309710858,stimuli/card_100_transparent.png,100,7,0,7,0,1,,,,,
,,,,1A,A,2024-02-16_14h28.10.002,Slot Machine Game,2023.1.3,MacIntel,59.97361161,justicestudyid,justicesessionid,justiceprolificid,,,,,,,,,,,,,,,,,,,,,,,,,,,810,,,,,,,,,,,,,,,,,,,,,3,3,,,417.7109,8,up,0.4293,,1.5,0.3,"[3,1,2]",0.436454892,stimuli/card_100_transparent.png,100,8,0,8,0,1,,,,,
,,,,1A,A,2024-02-16_14h28.10.002,Slot Machine Game,2023.1.3,MacIntel,59.97361161,justicestudyid,justicesessionid,justiceprolificid,,,,,,,,,,,,,,,,,,,,,,,,,,,910,,,,,,,,,,,,,,,,,,,,,3,3,,,419.9641,9,up,0.5462,,1,0.3,"[3,1,2]",0.894798151,stimuli/card_100_transparent.png,100,9,0,9,0,1,,,,,
,,,,1A,A,2024-02-16_14h28.10.002,Slot Machine Game,2023.1.3,MacIntel,59.97361161,justicestudyid,justicesessionid,justiceprolificid,,,,,,,,,,,,,,,,,,,,,,,,,,,910,,,,,,,,,,,,,,,,,,,,,3,3,,,421.8318,10,up,0.3301,,1,0.3,"[3,1,2]",0.039310747,stimuli/card_0_transparent.png,0,10,0,10,0,1,,,,,
,,,,1A,A,2024-02-16_14h28.10.002,Slot Machine Game,2023.1.3,MacIntel,59.97361161,justicestudyid,justicesessionid,justiceprolificid,,,,,,,,,,,,,,,,,,,,,,,,,,,920,,,,,,,,,,,,,,,,,,,,,3,3,,,423.4809,11,up,1.019,,1.5,0.3,"[3,1,2]",0.130554544,stimuli/card_10_transparent.png,10,11,0,11,0,1,,,,,
,,,,1A,A,2024-02-16_14h28.10.002,Slot Machine Game,2023.1.3,MacIntel,59.97361161,justicestudyid,justicesessionid,justiceprolificid,,,,,,,,,,,,,,,,,,,,,,,,,,,920,,,,,,,,,,,,,,,,,,,,,3,3,,,426.317,12,up,0.9627,,1,0.3,"[3,1,2]",0.07073828,stimuli/card_0_transparent.png,0,12,0,12,0,1,,,,,
,,,,1A,A,2024-02-16_14h28.10.002,Slot Machine Game,2023.1.3,MacIntel,59.97361161,justicestudyid,justicesessionid,justiceprolificid,,,,,,,,,,,,,,,,,,,,,,,,,,,930,,,,,,,,,,,,,,,,,,,,,3,3,,,428.6001,13,left,0.2504,,1.5,0.3,"[3,1,2]",0.163951943,stimuli/card_10_transparent.png,10,13,0,13,0,1,,,,,
,,,,1A,A,2024-02-16_14h28.10.002,Slot Machine Game,2023.1.3,MacIntel,59.97361161,justicestudyid,justicesessionid,justiceprolificid,,,,,,,,,,,,,,,,,,,,,,,,,,,1030,,,,,,,,,,,,,,,,,,,,,3,3,,,430.6703,14,left,0.3287,,1,0.3,"[3,1,2]",0.075297078,stimuli/card_100_transparent.png,100,14,0,14,0,1,,,,,
,,,,1A,A,2024-02-16_14h28.10.002,Slot Machine Game,2023.1.3,MacIntel,59.97361161,justicestudyid,justicesessionid,justiceprolificid,,,,,,,,,,,,,,,,,,,,,,,,,,,,,,,,,,,432.3196,,,,,,,,,,,,,,,,,,,,,,,,,,,,,,,,,2,0,2,0,1
,,,,1A,A,2024-02-16_14h28.10.002,Slot Machine Game,2023.1.3,MacIntel,59.97361161,justicestudyid,justicesessionid,justiceprolificid,,,,,,,,,,,,,,,,,,,,,,,,,,,100,,,,,,,,,,,,,,,,,,,,,4,4,"[7,15]","[[2,3,1],[1,2,3]]",437.3247,0,right,1.6294,,1.5,0.3,"[2,3,1]",0.933992288,stimuli/card_100_transparent.png,100,0,0,0,0,1,,,,,
,,,,1A,A,2024-02-16_14h28.10.002,Slot Machine Game,2023.1.3,MacIntel,59.97361161,justicestudyid,justicesessionid,justiceprolificid,,,,,,,,,,,,,,,,,,,,,,,,,,,200,,,,,,,,,,,,,,,,,,,,,4,4,,,440.7729,1,right,0.316,,0.5,0.3,"[2,3,1]",0.954893147,stimuli/card_100_transparent.png,100,1,0,1,0,1,,,,,
,,,,1A,A,2024-02-16_14h28.10.002,Slot Machine Game,2023.1.3,MacIntel,59.97361161,justicestudyid,justicesessionid,justiceprolificid,,,,,,,,,,,,,,,,,,,,,,,,,,,300,,,,,,,,,,,,,,,,,,,,,4,4,,,441.9076,2,right,0.6803,,0.5,0.3,"[2,3,1]",0.263736912,stimuli/card_100_transparent.png,100,2,0,2,0,1,,,,,
,,,,1A,A,2024-02-16_14h28.10.002,Slot Machine Game,2023.1.3,MacIntel,59.97361161,justicestudyid,justicesessionid,justiceprolificid,,,,,,,,,,,,,,,,,,,,,,,,,,,400,,,,,,,,,,,,,,,,,,,,,4,4,,,443.3737,3,right,0.4819,,0.5,0.3,"[2,3,1]",0.843386856,stimuli/card_100_transparent.png,100,3,0,3,0,1,,,,,
,,,,1A,A,2024-02-16_14h28.10.002,Slot Machine Game,2023.1.3,MacIntel,59.97361161,justicestudyid,justicesessionid,justiceprolificid,,,,,,,,,,,,,,,,,,,,,,,,,,,410,,,,,,,,,,,,,,,,,,,,,4,4,,,444.6743,4,right,0.8288,,1.5,0.3,"[2,3,1]",0.176607626,stimuli/card_10_transparent.png,10,4,0,4,0,1,,,,,
,,,,1A,A,2024-02-16_14h28.10.002,Slot Machine Game,2023.1.3,MacIntel,59.97361161,justicestudyid,justicesessionid,justiceprolificid,,,,,,,,,,,,,,,,,,,,,,,,,,,510,,,,,,,,,,,,,,,,,,,,,4,4,,,447.3251,5,right,0.6497,,0.5,0.3,"[2,3,1]",0.852747664,stimuli/card_100_transparent.png,100,5,0,5,0,1,,,,,
,,,,1A,A,2024-02-16_14h28.10.002,Slot Machine Game,2023.1.3,MacIntel,59.97361161,justicestudyid,justicesessionid,justiceprolificid,,,,,,,,,,,,,,,,,,,,,,,,,,,510,,,,,,,,,,,,,,,,,,,,,4,4,,,448.7942,6,right,0.5478,,1.5,0.3,"[2,3,1]",0.015622391,stimuli/card_0_transparent.png,0,6,0,6,0,1,,,,,
,,,,1A,A,2024-02-16_14h28.10.002,Slot Machine Game,2023.1.3,MacIntel,59.97361161,justicestudyid,justicesessionid,justiceprolificid,,,,,,,,,,,,,,,,,,,,,,,,,,,510,,,,,,,,,,,,,,,,,,,,,4,4,,,451.1618,7,right,2.5352,,0.5,0.3,"[1,2,3]",0.419807967,stimuli/card_0_transparent.png,0,7,0,7,0,1,,,,,
,,,,1A,A,2024-02-16_14h28.10.002,Slot Machine Game,2023.1.3,MacIntel,59.97361161,justicestudyid,justicesessionid,justiceprolificid,,,,,,,,,,,,,,,,,,,,,,,,,,,610,,,,,,,,,,,,,,,,,,,,,4,4,,,454.5137,8,left,1.3004,,1.5,0.3,"[1,2,3]",0.844522839,stimuli/card_100_transparent.png,100,8,0,8,0,1,,,,,
,,,,1A,A,2024-02-16_14h28.10.002,Slot Machine Game,2023.1.3,MacIntel,59.97361161,justicestudyid,justicesessionid,justiceprolificid,,,,,,,,,,,,,,,,,,,,,,,,,,,620,,,,,,,,,,,,,,,,,,,,,4,4,,,457.6309,9,left,0.3299,,1.5,0.3,"[1,2,3]",0.197383669,stimuli/card_10_transparent.png,10,9,0,9,0,1,,,,,
,,,,1A,A,2024-02-16_14h28.10.002,Slot Machine Game,2023.1.3,MacIntel,59.97361161,justicestudyid,justicesessionid,justiceprolificid,,,,,,,,,,,,,,,,,,,,,,,,,,,720,,,,,,,,,,,,,,,,,,,,,4,4,,,459.7827,10,left,0.4971,,0.5,0.3,"[1,2,3]",0.890455793,stimuli/card_100_transparent.png,100,10,0,10,0,1,,,,,
,,,,1A,A,2024-02-16_14h28.10.002,Slot Machine Game,2023.1.3,MacIntel,59.97361161,justicestudyid,justicesessionid,justiceprolificid,,,,,,,,,,,,,,,,,,,,,,,,,,,820,,,,,,,,,,,,,,,,,,,,,4,4,,,461.1018,11,left,0.2953,,1,0.3,"[1,2,3]",0.996201932,stimuli/card_100_transparent.png,100,11,0,11,0,1,,,,,
,,,,1A,A,2024-02-16_14h28.10.002,Slot Machine Game,2023.1.3,MacIntel,59.97361161,justicestudyid,justicesessionid,justiceprolificid,,,,,,,,,,,,,,,,,,,,,,,,,,,920,,,,,,,,,,,,,,,,,,,,,4,4,,,462.7171,12,left,0.0594,,0.5,0.3,"[1,2,3]",0.209691151,stimuli/card_100_transparent.png,100,12,0,12,0,1,,,,,
,,,,1A,A,2024-02-16_14h28.10.002,Slot Machine Game,2023.1.3,MacIntel,59.97361161,justicestudyid,justicesessionid,justiceprolificid,,,,,,,,,,,,,,,,,,,,,,,,,,,920,,,,,,,,,,,,,,,,,,,,,4,4,,,463.6015,13,left,0.2313,,0.5,0.3,"[1,2,3]",0.041925076,stimuli/card_0_transparent.png,0,13,0,13,0,1,,,,,
,,,,1A,A,2024-02-16_14h28.10.002,Slot Machine Game,2023.1.3,MacIntel,59.97361161,justicestudyid,justicesessionid,justiceprolificid,,,,,,,,,,,,,,,,,,,,,,,,,,,1020,,,,,,,,,,,,,,,,,,,,,4,4,,,464.6534,14,left,0.55,,1.5,0.3,"[1,2,3]",0.564852533,stimuli/card_100_transparent.png,100,14,0,14,0,1,,,,,
,,,,1A,A,2024-02-16_14h28.10.002,Slot Machine Game,2023.1.3,MacIntel,59.97361161,justicestudyid,justicesessionid,justiceprolificid,,,,,,,,,,,,,,,,,,,,,,,,,,,,,,,,,,,467.0201,,,,,,,,,,,,,,,,,,,,,,,,,,,,,,,,,3,0,3,0,1
,,,,1A,A,2024-02-16_14h28.10.002,Slot Machine Game,2023.1.3,MacIntel,59.97361161,justicestudyid,justicesessionid,justiceprolificid,,,,,,,,,,,,,,,,,,,,,,,,,,,10,,,,,,,,,,,,,,,,,,,,,5,5,"[5,15]","[[1,2,3],[3,1,2]]",472.0249,0,up,0.8784,,1,0.3,"[1,2,3]",0.912038091,stimuli/card_10_transparent.png,10,0,0,0,0,1,,,,,
,,,,1A,A,2024-02-16_14h28.10.002,Slot Machine Game,2023.1.3,MacIntel,59.97361161,justicestudyid,justicesessionid,justiceprolificid,,,,,,,,,,,,,,,,,,,,,,,,,,,110,,,,,,,,,,,,,,,,,,,,,5,5,,,474.2218,1,left,1.3802,,0.5,0.3,"[1,2,3]",0.845180273,stimuli/card_100_transparent.png,100,1,0,1,0,1,,,,,
,,,,1A,A,2024-02-16_14h28.10.002,Slot Machine Game,2023.1.3,MacIntel,59.97361161,justicestudyid,justicesessionid,justiceprolificid,,,,,,,,,,,,,,,,,,,,,,,,,,,210,,,,,,,,,,,,,,,,,,,,,5,5,,,476.4228,2,left,0.3281,,1.5,0.3,"[1,2,3]",0.785389055,stimuli/card_100_transparent.png,100,2,0,2,0,1,,,,,
,,,,1A,A,2024-02-16_14h28.10.002,Slot Machine Game,2023.1.3,MacIntel,59.97361161,justicestudyid,justicesessionid,justiceprolificid,,,,,,,,,,,,,,,,,,,,,,,,,,,310,,,,,,,,,,,,,,,,,,,,,5,5,,,478.5751,3,left,0.2461,,0.5,0.3,"[1,2,3]",0.520688088,stimuli/card_100_transparent.png,100,3,0,3,0,1,,,,,
,,,,1A,A,2024-02-16_14h28.10.002,Slot Machine Game,2023.1.3,MacIntel,59.97361161,justicestudyid,justicesessionid,justiceprolificid,,,,,,,,,,,,,,,,,,,,,,,,,,,410,,,,,,,,,,,,,,,,,,,,,5,5,,,479.6409,4,left,0.2124,,1.5,0.3,"[1,2,3]",0.363634722,stimuli/card_100_transparent.png,100,4,0,4,0,1,,,,,
,,,,1A,A,2024-02-16_14h28.10.002,Slot Machine Game,2023.1.3,MacIntel,59.97361161,justicestudyid,justicesessionid,justiceprolificid,,,,,,,,,,,,,,,,,,,,,,,,,,,410,,,,,,,,,,,,,,,,,,,,,5,5,,,481.6751,5,left,0.3158,,0.5,0.3,"[3,1,2]",0.683057678,stimuli/card_0_transparent.png,0,5,0,5,0,1,,,,,
,,,,1A,A,2024-02-16_14h28.10.002,Slot Machine Game,2023.1.3,MacIntel,59.97361161,justicestudyid,justicesessionid,justiceprolificid,,,,,,,,,,,,,,,,,,,,,,,,,,,410,,,,,,,,,,,,,,,,,,,,,5,5,,,482.8103,6,left,0.5844,,1.5,0.3,"[3,1,2]",0.286130449,stimuli/card_0_transparent.png,0,6,0,6,0,1,,,,,
,,,,1A,A,2024-02-16_14h28.10.002,Slot Machine Game,2023.1.3,MacIntel,59.97361161,justicestudyid,justicesessionid,justiceprolificid,,,,,,,,,,,,,,,,,,,,,,,,,,,420,,,,,,,,,,,,,,,,,,,,,5,5,,,485.2112,7,right,0.9338,,0.5,0.3,"[3,1,2]",0.281346565,stimuli/card_10_transparent.png,10,7,0,7,0,1,,,,,
,,,,1A,A,2024-02-16_14h28.10.002,Slot Machine Game,2023.1.3,MacIntel,59.97361161,justicestudyid,justicesessionid,justiceprolificid,,,,,,,,,,,,,,,,,,,,,,,,,,,430,,,,,,,,,,,,,,,,,,,,,5,5,,,486.9625,8,right,0.3614,,0.5,0.3,"[3,1,2]",0.320363918,stimuli/card_10_transparent.png,10,8,0,8,0,1,,,,,
,,,,1A,A,2024-02-16_14h28.10.002,Slot Machine Game,2023.1.3,MacIntel,59.97361161,justicestudyid,justicesessionid,justiceprolificid,,,,,,,,,,,,,,,,,,,,,,,,,,,440,,,,,,,,,,,,,,,,,,,,,5,5,,,488.1449,9,right,0.4446,,0.5,0.3,"[3,1,2]",0.811772656,stimuli/card_10_transparent.png,10,9,0,9,0,1,,,,,
,,,,1A,A,2024-02-16_14h28.10.002,Slot Machine Game,2023.1.3,MacIntel,59.97361161,justicestudyid,justicesessionid,justiceprolificid,,,,,,,,,,,,,,,,,,,,,,,,,,,540,,,,,,,,,,,,,,,,,,,,,5,5,,,489.4124,10,up,0.4137,,0.5,0.3,"[3,1,2]",0.735154322,stimuli/card_100_transparent.png,100,10,0,10,0,1,,,,,
,,,,1A,A,2024-02-16_14h28.10.002,Slot Machine Game,2023.1.3,MacIntel,59.97361161,justicestudyid,justicesessionid,justiceprolificid,,,,,,,,,,,,,,,,,,,,,,,,,,,540,,,,,,,,,,,,,,,,,,,,,5,5,,,490.6492,11,up,0.1463,,1.5,0.3,"[3,1,2]",0.097305426,stimuli/card_0_transparent.png,0,11,0,11,0,1,,,,,
,,,,1A,A,2024-02-16_14h28.10.002,Slot Machine Game,2023.1.3,MacIntel,59.97361161,justicestudyid,justicesessionid,justiceprolificid,,,,,,,,,,,,,,,,,,,,,,,,,,,640,,,,,,,,,,,,,,,,,,,,,5,5,,,492.6147,12,up,0.5854,,1,0.3,"[3,1,2]",0.201684201,stimuli/card_100_transparent.png,100,12,0,12,0,1,,,,,
,,,,1A,A,2024-02-16_14h28.10.002,Slot Machine Game,2023.1.3,MacIntel,59.97361161,justicestudyid,justicesessionid,justiceprolificid,,,,,,,,,,,,,,,,,,,,,,,,,,,740,,,,,,,,,,,,,,,,,,,,,5,5,,,494.516,13,up,0.1444,,1.5,0.3,"[3,1,2]",0.556124137,stimuli/card_100_transparent.png,100,13,0,13,0,1,,,,,
,,,,1A,A,2024-02-16_14h28.10.002,Slot Machine Game,2023.1.3,MacIntel,59.97361161,justicestudyid,justicesessionid,justiceprolificid,,,,,,,,,,,,,,,,,,,,,,,,,,,840,,,,,,,,,,,,,,,,,,,,,5,5,,,496.4829,14,up,0.1131,,1.5,0.3,"[3,1,2]",0.728699684,stimuli/card_100_transparent.png,100,14,0,14,0,1,,,,,
,,,,1A,A,2024-02-16_14h28.10.002,Slot Machine Game,2023.1.3,MacIntel,59.97361161,justicestudyid,justicesessionid,justiceprolificid,,,,,,,,,,,,,,,,,,,,,,,,,,,,,,,,,,,498.4194,,,,,,,,,,,,,,,,,,,,,,,,,,,,,,,,,4,0,4,0,1
,,,,1A,A,2024-02-16_14h28.10.002,Slot Machine Game,2023.1.3,MacIntel,59.97361161,justicestudyid,justicesessionid,justiceprolificid,,,,,,,,,,,,,,,,,,,,,,,,,,,0,,,,,,,,,,,,,,,,,,,,,6,6,"[4,10,15]","[[2,3,1],[1,3,2],[3,2,1]]",503.4233,0,up,0.6465,,1,0.3,"[2,3,1]",0.633483342,stimuli/card_0_transparent.png,0,0,0,0,0,1,,,,,
,,,,1A,A,2024-02-16_14h28.10.002,Slot Machine Game,2023.1.3,MacIntel,59.97361161,justicestudyid,justicesessionid,justiceprolificid,,,,,,,,,,,,,,,,,,,,,,,,,,,100,,,,,,,,,,,,,,,,,,,,,6,6,,,505.3863,1,up,0.835,,0.5,0.3,"[2,3,1]",0.006233769,stimuli/card_100_transparent.png,100,1,0,1,0,1,,,,,
,,,,1A,A,2024-02-16_14h28.10.002,Slot Machine Game,2023.1.3,MacIntel,59.97361161,justicestudyid,justicesessionid,justiceprolificid,,,,,,,,,,,,,,,,,,,,,,,,,,,100,,,,,,,,,,,,,,,,,,,,,6,6,,,507.0374,2,up,0.4615,,1.5,0.3,"[2,3,1]",0.621607695,stimuli/card_0_transparent.png,0,2,0,2,0,1,,,,,
,,,,1A,A,2024-02-16_14h28.10.002,Slot Machine Game,2023.1.3,MacIntel,59.97361161,justicestudyid,justicesessionid,justiceprolificid,,,,,,,,,,,,,,,,,,,,,,,,,,,100,,,,,,,,,,,,,,,,,,,,,6,6,,,509.323,3,up,0.55,,0.5,0.3,"[2,3,1]",0.952143251,stimuli/card_0_transparent.png,0,3,0,3,0,1,,,,,
,,,,1A,A,2024-02-16_14h28.10.002,Slot Machine Game,2023.1.3,MacIntel,59.97361161,justicestudyid,justicesessionid,justiceprolificid,,,,,,,,,,,,,,,,,,,,,,,,,,,100,,,,,,,,,,,,,,,,,,,,,6,6,,,510.6903,4,left,0.7521,,1,0.3,"[1,3,2]",0.073235684,stimuli/card_0_transparent.png,0,4,0,4,0,1,,,,,
,,,,1A,A,2024-02-16_14h28.10.002,Slot Machine Game,2023.1.3,MacIntel,59.97361161,justicestudyid,justicesessionid,justiceprolificid,,,,,,,,,,,,,,,,,,,,,,,,,,,200,,,,,,,,,,,,,,,,,,,,,6,6,,,512.758,5,left,0.2996,,1,0.3,"[1,3,2]",0.630394807,stimuli/card_100_transparent.png,100,5,0,5,0,1,,,,,
,,,,1A,A,2024-02-16_14h28.10.002,Slot Machine Game,2023.1.3,MacIntel,59.97361161,justicestudyid,justicesessionid,justiceprolificid,,,,,,,,,,,,,,,,,,,,,,,,,,,300,,,,,,,,,,,,,,,,,,,,,6,6,,,514.374,6,left,0.2805,,0.5,0.3,"[1,3,2]",0.827751554,stimuli/card_100_transparent.png,100,6,0,6,0,1,,,,,
,,,,1A,A,2024-02-16_14h28.10.002,Slot Machine Game,2023.1.3,MacIntel,59.97361161,justicestudyid,justicesessionid,justiceprolificid,,,,,,,,,,,,,,,,,,,,,,,,,,,300,,,,,,,,,,,,,,,,,,,,,6,6,,,515.4759,7,left,0.2447,,1.5,0.3,"[1,3,2]",0.052776952,stimuli/card_0_transparent.png,0,7,0,7,0,1,,,,,
,,,,1A,A,2024-02-16_14h28.10.002,Slot Machine Game,2023.1.3,MacIntel,59.97361161,justicestudyid,justicesessionid,justiceprolificid,,,,,,,,,,,,,,,,,,,,,,,,,,,310,,,,,,,,,,,,,,,,,,,,,6,6,,,517.5451,8,left,0.3182,,1.5,0.3,"[1,3,2]",0.138178215,stimuli/card_10_transparent.png,10,8,0,8,0,1,,,,,
,,,,1A,A,2024-02-16_14h28.10.002,Slot Machine Game,2023.1.3,MacIntel,59.97361161,justicestudyid,justicesessionid,justiceprolificid,,,,,,,,,,,,,,,,,,,,,,,,,,,410,,,,,,,,,,,,,,,,,,,,,6,6,,,519.6776,9,right,1.0956,,0.5,0.3,"[1,3,2]",0.134033571,stimuli/card_100_transparent.png,100,9,0,9,0,1,,,,,
,,,,1A,A,2024-02-16_14h28.10.002,Slot Machine Game,2023.1.3,MacIntel,59.97361161,justicestudyid,justicesessionid,justiceprolificid,,,,,,,,,,,,,,,,,,,,,,,,,,,510,,,,,,,,,,,,,,,,,,,,,6,6,,,521.594,10,right,0.2621,,1,0.3,"[3,2,1]",0.898563946,stimuli/card_100_transparent.png,100,10,0,10,0,1,,,,,
,,,,1A,A,2024-02-16_14h28.10.002,Slot Machine Game,2023.1.3,MacIntel,59.97361161,justicestudyid,justicesessionid,justiceprolificid,,,,,,,,,,,,,,,,,,,,,,,,,,,610,,,,,,,,,,,,,,,,,,,,,6,6,,,523.1812,11,right,0.2288,,1,0.3,"[3,2,1]",0.207031043,stimuli/card_100_transparent.png,100,11,0,11,0,1,,,,,
,,,,1A,A,2024-02-16_14h28.10.002,Slot Machine Game,2023.1.3,MacIntel,59.97361161,justicestudyid,justicesessionid,justiceprolificid,,,,,,,,,,,,,,,,,,,,,,,,,,,620,,,,,,,,,,,,,,,,,,,,,6,6,,,524.7301,12,right,0.0949,,0.5,0.3,"[3,2,1]",0.162302175,stimuli/card_10_transparent.png,10,12,0,12,0,1,,,,,
,,,,1A,A,2024-02-16_14h28.10.002,Slot Machine Game,2023.1.3,MacIntel,59.97361161,justicestudyid,justicesessionid,justiceprolificid,,,,,,,,,,,,,,,,,,,,,,,,,,,720,,,,,,,,,,,,,,,,,,,,,6,6,,,525.646,13,right,0.3457,,1,0.3,"[3,2,1]",0.795596393,stimuli/card_100_transparent.png,100,13,0,13,0,1,,,,,
,,,,1A,A,2024-02-16_14h28.10.002,Slot Machine Game,2023.1.3,MacIntel,59.97361161,justicestudyid,justicesessionid,justiceprolificid,,,,,,,,,,,,,,,,,,,,,,,,,,,820,,,,,,,,,,,,,,,,,,,,,6,6,,,527.3162,14,right,0.2812,,1.5,0.3,"[3,2,1]",0.920111159,stimuli/card_100_transparent.png,100,14,0,14,0,1,,,,,
,,,,1A,A,2024-02-16_14h28.10.002,Slot Machine Game,2023.1.3,MacIntel,59.97361161,justicestudyid,justicesessionid,justiceprolificid,,,,,,,,,,,,,,,,,,,,,,,,,,,,,,,,,,,529.4154,,,,,,,,,,,,,,,,,,,,,,,,,,,,,,,,,5,0,5,0,1
,,,,1A,A,2024-02-16_14h28.10.002,Slot Machine Game,2023.1.3,MacIntel,59.97361161,justicestudyid,justicesessionid,justiceprolificid,,,,,,,,,,,,,,,,,,,,,,,,,,,10,,,,,,,,,,,,,,,,,,,,,7,7,"[9,15]","[[1,3,2],[2,3,1]]",534.4204,0,right,0.9645,,1,0.3,"[1,3,2]",0.230880941,stimuli/card_10_transparent.png,10,0,0,0,0,1,,,,,
,,,,1A,A,2024-02-16_14h28.10.002,Slot Machine Game,2023.1.3,MacIntel,59.97361161,justicestudyid,justicesessionid,justiceprolificid,,,,,,,,,,,,,,,,,,,,,,,,,,,20,,,,,,,,,,,,,,,,,,,,,7,7,,,536.7039,1,right,0.3289,,0.5,0.3,"[1,3,2]",0.902959811,stimuli/card_10_transparent.png,10,1,0,1,0,1,,,,,
,,,,1A,A,2024-02-16_14h28.10.002,Slot Machine Game,2023.1.3,MacIntel,59.97361161,justicestudyid,justicesessionid,justiceprolificid,,,,,,,,,,,,,,,,,,,,,,,,,,,120,,,,,,,,,,,,,,,,,,,,,7,7,,,537.8522,2,left,0.5654,,1,0.3,"[1,3,2]",0.373285562,stimuli/card_100_transparent.png,100,2,0,2,0,1,,,,,
,,,,1A,A,2024-02-16_14h28.10.002,Slot Machine Game,2023.1.3,MacIntel,59.97361161,justicestudyid,justicesessionid,justiceprolificid,,,,,,,,,,,,,,,,,,,,,,,,,,,220,,,,,,,,,,,,,,,,,,,,,7,7,,,539.7387,3,left,0.3295,,0.5,0.3,"[1,3,2]",0.320863022,stimuli/card_100_transparent.png,100,3,0,3,0,1,,,,,
,,,,1A,A,2024-02-16_14h28.10.002,Slot Machine Game,2023.1.3,MacIntel,59.97361161,justicestudyid,justicesessionid,justiceprolificid,,,,,,,,,,,,,,,,,,,,,,,,,,,230,,,,,,,,,,,,,,,,,,,,,7,7,,,540.8863,4,left,0.2141,,1.5,0.3,"[1,3,2]",0.191803658,stimuli/card_10_transparent.png,10,4,0,4,0,1,,,,,
,,,,1A,A,2024-02-16_14h28.10.002,Slot Machine Game,2023.1.3,MacIntel,59.97361161,justicestudyid,justicesessionid,justiceprolificid,,,,,,,,,,,,,,,,,,,,,,,,,,,330,,,,,,,,,,,,,,,,,,,,,7,7,,,542.9207,5,left,0.5946,,1.5,0.3,"[1,3,2]",0.745031034,stimuli/card_100_transparent.png,100,5,0,5,0,1,,,,,
,,,,1A,A,2024-02-16_14h28.10.002,Slot Machine Game,2023.1.3,MacIntel,59.97361161,justicestudyid,justicesessionid,justiceprolificid,,,,,,,,,,,,,,,,,,,,,,,,,,,430,,,,,,,,,,,,,,,,,,,,,7,7,,,545.3411,6,left,0.1945,,1.5,0.3,"[1,3,2]",0.764642915,stimuli/card_100_transparent.png,100,6,0,6,0,1,,,,,
,,,,1A,A,2024-02-16_14h28.10.002,Slot Machine Game,2023.1.3,MacIntel,59.97361161,justicestudyid,justicesessionid,justiceprolificid,,,,,,,,,,,,,,,,,,,,,,,,,,,430,,,,,,,,,,,,,,,,,,,,,7,7,,,547.3563,7,left,0.0606,,0.5,0.3,"[1,3,2]",0.069875698,stimuli/card_0_transparent.png,0,7,0,7,0,1,,,,,
,,,,1A,A,2024-02-16_14h28.10.002,Slot Machine Game,2023.1.3,MacIntel,59.97361161,justicestudyid,justicesessionid,justiceprolificid,,,,,,,,,,,,,,,,,,,,,,,,,,,430,,,,,,,,,,,,,,,,,,,,,7,7,,,548.2401,8,left,0.8186,,1.5,0.3,"[1,3,2]",0.049582578,stimuli/card_0_transparent.png,0,8,0,8,0,1,,,,,
,,,,1A,A,2024-02-16_14h28.10.002,Slot Machine Game,2023.1.3,MacIntel,59.97361161,justicestudyid,justicesessionid,justiceprolificid,,,,,,,,,,,,,,,,,,,,,,,,,,,430,,,,,,,,,,,,,,,,,,,,,7,7,,,550.8747,9,up,0.1853,,1.5,0.3,"[2,3,1]",0.324511377,stimuli/card_0_transparent.png,0,9,0,9,0,1,,,,,
,,,,1A,A,2024-02-16_14h28.10.002,Slot Machine Game,2023.1.3,MacIntel,59.97361161,justicestudyid,justicesessionid,justiceprolificid,,,,,,,,,,,,,,,,,,,,,,,,,,,530,,,,,,,,,,,,,,,,,,,,,7,7,,,552.8758,10,right,1.1433,,0.5,0.3,"[2,3,1]",0.309367571,stimuli/card_100_transparent.png,100,10,0,10,0,1,,,,,
,,,,1A,A,2024-02-16_14h28.10.002,Slot Machine Game,2023.1.3,MacIntel,59.97361161,justicestudyid,justicesessionid,justiceprolificid,,,,,,,,,,,,,,,,,,,,,,,,,,,630,,,,,,,,,,,,,,,,,,,,,7,7,,,554.8445,11,right,0.2785,,1,0.3,"[2,3,1]",0.742650558,stimuli/card_100_transparent.png,100,11,0,11,0,1,,,,,
,,,,1A,A,2024-02-16_14h28.10.002,Slot Machine Game,2023.1.3,MacIntel,59.97361161,justicestudyid,justicesessionid,justiceprolificid,,,,,,,,,,,,,,,,,,,,,,,,,,,630,,,,,,,,,,,,,,,,,,,,,7,7,,,556.4472,12,right,0.1332,,0.5,0.3,"[2,3,1]",0.019084662,stimuli/card_0_transparent.png,0,12,0,12,0,1,,,,,
,,,,1A,A,2024-02-16_14h28.10.002,Slot Machine Game,2023.1.3,MacIntel,59.97361161,justicestudyid,justicesessionid,justiceprolificid,,,,,,,,,,,,,,,,,,,,,,,,,,,640,,,,,,,,,,,,,,,,,,,,,7,7,,,557.3952,13,right,0.4216,,0.5,0.3,"[2,3,1]",0.169134163,stimuli/card_10_transparent.png,10,13,0,13,0,1,,,,,
,,,,1A,A,2024-02-16_14h28.10.002,Slot Machine Game,2023.1.3,MacIntel,59.97361161,justicestudyid,justicesessionid,justiceprolificid,,,,,,,,,,,,,,,,,,,,,,,,,,,640,,,,,,,,,,,,,,,,,,,,,7,7,,,558.6287,14,up,0.2294,,1.5,0.3,"[2,3,1]",0.805621402,stimuli/card_0_transparent.png,0,14,0,14,0,1,,,,,
,,,,1A,A,2024-02-16_14h28.10.002,Slot Machine Game,2023.1.3,MacIntel,59.97361161,justicestudyid,justicesessionid,justiceprolificid,,,,,,,,,,,,,,,,,,,,,,,,,,,,,,,,,,,560.6792,,,,,,,,,,,,,,,,,,,,,,,,,,,,,,,,,6,0,6,0,1
,,,,1A,A,2024-02-16_14h28.10.002,Slot Machine Game,2023.1.3,MacIntel,59.97361161,justicestudyid,justicesessionid,justiceprolificid,,,,,,,,,,,,,,,,,,,,,,,,,,,10,,,,,,,,,,,,,,,,,,,,,8,8,"[11,15]","[[2,1,3],[1,2,3]]",565.6704,0,left,0.7291,0.0004,1,0.3,"[2,1,3]",0.910790647,stimuli/card_10_transparent.png,10,0,0,0,0,1,,,,,
,,,,1A,A,2024-02-16_14h28.10.002,Slot Machine Game,2023.1.3,MacIntel,59.97361161,justicestudyid,justicesessionid,justiceprolificid,,,,,,,,,,,,,,,,,,,,,,,,,,,10,,,,,,,,,,,,,,,,,,,,,8,8,,,567.719,1,right,0.6798,,0.5,0.3,"[2,1,3]",0.938464566,stimuli/card_0_transparent.png,0,1,0,1,0,1,,,,,
,,,,1A,A,2024-02-16_14h28.10.002,Slot Machine Game,2023.1.3,MacIntel,59.97361161,justicestudyid,justicesessionid,justiceprolificid,,,,,,,,,,,,,,,,,,,,,,,,,,,20,,,,,,,,,,,,,,,,,,,,,8,8,,,569.2181,2,up,0.3493,,0.5,0.3,"[2,1,3]",0.144075258,stimuli/card_10_transparent.png,10,2,0,2,0,1,,,,,
,,,,1A,A,2024-02-16_14h28.10.002,Slot Machine Game,2023.1.3,MacIntel,59.97361161,justicestudyid,justicesessionid,justiceprolificid,,,,,,,,,,,,,,,,,,,,,,,,,,,120,,,,,,,,,,,,,,,,,,,,,8,8,,,570.384,3,up,2.1795,,1.5,0.3,"[2,1,3]",0.742511688,stimuli/card_100_transparent.png,100,3,0,3,0,1,,,,,
,,,,1A,A,2024-02-16_14h28.10.002,Slot Machine Game,2023.1.3,MacIntel,59.97361161,justicestudyid,justicesessionid,justiceprolificid,,,,,,,,,,,,,,,,,,,,,,,,,,,220,,,,,,,,,,,,,,,,,,,,,8,8,,,574.387,4,up,0.3478,,1.5,0.3,"[2,1,3]",0.432679776,stimuli/card_100_transparent.png,100,4,0,4,0,1,,,,,
,,,,1A,A,2024-02-16_14h28.10.002,Slot Machine Game,2023.1.3,MacIntel,59.97361161,justicestudyid,justicesessionid,justiceprolificid,,,,,,,,,,,,,,,,,,,,,,,,,,,320,,,,,,,,,,,,,,,,,,,,,8,8,,,576.5536,5,up,0.0779,,0.5,0.3,"[2,1,3]",0.456740279,stimuli/card_100_transparent.png,100,5,0,5,0,1,,,,,
,,,,1A,A,2024-02-16_14h28.10.002,Slot Machine Game,2023.1.3,MacIntel,59.97361161,justicestudyid,justicesessionid,justiceprolificid,,,,,,,,,,,,,,,,,,,,,,,,,,,420,,,,,,,,,,,,,,,,,,,,,8,8,,,577.4551,6,up,0.0631,,0.5,0.3,"[2,1,3]",0.295664963,stimuli/card_100_transparent.png,100,6,0,6,0,1,,,,,
,,,,1A,A,2024-02-16_14h28.10.002,Slot Machine Game,2023.1.3,MacIntel,59.97361161,justicestudyid,justicesessionid,justiceprolificid,,,,,,,,,,,,,,,,,,,,,,,,,,,520,,,,,,,,,,,,,,,,,,,,,8,8,,,578.338,7,up,0.0453,,1,0.3,"[2,1,3]",0.925660011,stimuli/card_100_transparent.png,100,7,0,7,0,1,,,,,
,,,,1A,A,2024-02-16_14h28.10.002,Slot Machine Game,2023.1.3,MacIntel,59.97361161,justicestudyid,justicesessionid,justiceprolificid,,,,,,,,,,,,,,,,,,,,,,,,,,,530,,,,,,,,,,,,,,,,,,,,,8,8,,,579.7066,8,up,0.0289,,0.5,0.3,"[2,1,3]",0.193544126,stimuli/card_10_transparent.png,10,8,0,8,0,1,,,,,
,,,,1A,A,2024-02-16_14h28.10.002,Slot Machine Game,2023.1.3,MacIntel,59.97361161,justicestudyid,justicesessionid,justiceprolificid,,,,,,,,,,,,,,,,,,,,,,,,,,,630,,,,,,,,,,,,,,,,,,,,,8,8,,,580.5581,9,up,0.5913,,1,0.3,"[2,1,3]",0.886245643,stimuli/card_100_transparent.png,100,9,0,9,0,1,,,,,
,,,,1A,A,2024-02-16_14h28.10.002,Slot Machine Game,2023.1.3,MacIntel,59.97361161,justicestudyid,justicesessionid,justiceprolificid,,,,,,,,,,,,,,,,,,,,,,,,,,,730,,,,,,,,,,,,,,,,,,,,,8,8,,,582.4729,10,up,0.6454,,1.5,0.3,"[2,1,3]",0.579468789,stimuli/card_100_transparent.png,100,10,0,10,0,1,,,,,
,,,,1A,A,2024-02-16_14h28.10.002,Slot Machine Game,2023.1.3,MacIntel,59.97361161,justicestudyid,justicesessionid,justiceprolificid,,,,,,,,,,,,,,,,,,,,,,,,,,,730,,,,,,,,,,,,,,,,,,,,,8,8,,,584.941,11,up,0.1946,,1.5,0.3,"[1,2,3]",0.01245193,stimuli/card_0_transparent.png,0,11,0,11,0,1,,,,,
,,,,1A,A,2024-02-16_14h28.10.002,Slot Machine Game,2023.1.3,MacIntel,59.97361161,justicestudyid,justicesessionid,justiceprolificid,,,,,,,,,,,,,,,,,,,,,,,,,,,740,,,,,,,,,,,,,,,,,,,,,8,8,,,586.9587,12,up,0.3668,,0.5,0.3,"[1,2,3]",0.434030434,stimuli/card_10_transparent.png,10,12,0,12,0,1,,,,,
,,,,1A,A,2024-02-16_14h28.10.002,Slot Machine Game,2023.1.3,MacIntel,59.97361161,justicestudyid,justicesessionid,justiceprolificid,,,,,,,,,,,,,,,,,,,,,,,,,,,750,,,,,,,,,,,,,,,,,,,,,8,8,,,588.1426,13,left,0.5985,,1,0.3,"[1,2,3]",0.17941072,stimuli/card_10_transparent.png,10,13,0,13,0,1,,,,,
,,,,1A,A,2024-02-16_14h28.10.002,Slot Machine Game,2023.1.3,MacIntel,59.97361161,justicestudyid,justicesessionid,justiceprolificid,,,,,,,,,,,,,,,,,,,,,,,,,,,850,,,,,,,,,,,,,,,,,,,,,8,8,,,590.0626,14,left,0.1788,,0.5,0.3,"[1,2,3]",0.283503708,stimuli/card_100_transparent.png,100,14,0,14,0,1,,,,,
,,,,1A,A,2024-02-16_14h28.10.002,Slot Machine Game,2023.1.3,MacIntel,59.97361161,justicestudyid,justicesessionid,justiceprolificid,,,,,,,,,,,,,,,,,,,,,,,,,,,,,,,,,,,591.0613,,,,,,,,,,,,,,,,,,,,,,,,,,,,,,,,,7,0,7,0,1
,,,,1A,A,2024-02-16_14h28.10.002,Slot Machine Game,2023.1.3,MacIntel,59.97361161,justicestudyid,justicesessionid,justiceprolificid,,,,,,,,,,,,,,,,,,,,,,,,,,,0,,,,,,,,,,,,,,,,,,,,,9,9,"[8,15]","[[3,2,1],[3,1,2]]",596.0512,0,up,0.745,,1,0.3,"[3,2,1]",0.07066071,stimuli/card_0_transparent.png,0,0,0,0,0,1,,,,,
,,,,1A,A,2024-02-16_14h28.10.002,Slot Machine Game,2023.1.3,MacIntel,59.97361161,justicestudyid,justicesessionid,justiceprolificid,,,,,,,,,,,,,,,,,,,,,,,,,,,0,,,,,,,,,,,,,,,,,,,,,9,9,,,598.1145,1,left,0.4008,,0.5,0.3,"[3,2,1]",0.577679961,stimuli/card_0_transparent.png,0,1,0,1,0,1,,,,,
,,,,1A,A,2024-02-16_14h28.10.002,Slot Machine Game,2023.1.3,MacIntel,59.97361161,justicestudyid,justicesessionid,justiceprolificid,,,,,,,,,,,,,,,,,,,,,,,,,,,100,,,,,,,,,,,,,,,,,,,,,9,9,,,599.3322,2,right,0.4836,,1.5,0.3,"[3,2,1]",0.948546848,stimuli/card_100_transparent.png,100,2,0,2,0,1,,,,,
,,,,1A,A,2024-02-16_14h28.10.002,Slot Machine Game,2023.1.3,MacIntel,59.97361161,justicestudyid,justicesessionid,justiceprolificid,,,,,,,,,,,,,,,,,,,,,,,,,,,200,,,,,,,,,,,,,,,,,,,,,9,9,,,601.6328,3,right,0.2796,,1.5,0.3,"[3,2,1]",0.918318498,stimuli/card_100_transparent.png,100,3,0,3,0,1,,,,,
,,,,1A,A,2024-02-16_14h28.10.002,Slot Machine Game,2023.1.3,MacIntel,59.97361161,justicestudyid,justicesessionid,justiceprolificid,,,,,,,,,,,,,,,,,,,,,,,,,,,300,,,,,,,,,,,,,,,,,,,,,9,9,,,603.7334,4,right,0.2141,,1.5,0.3,"[3,2,1]",0.476868552,stimuli/card_100_transparent.png,100,4,0,4,0,1,,,,,
,,,,1A,A,2024-02-16_14h28.10.002,Slot Machine Game,2023.1.3,MacIntel,59.97361161,justicestudyid,justicesessionid,justiceprolificid,,,,,,,,,,,,,,,,,,,,,,,,,,,400,,,,,,,,,,,,,,,,,,,,,9,9,,,605.7677,5,right,0.2459,,1.5,0.3,"[3,2,1]",0.292781109,stimuli/card_100_transparent.png,100,5,0,5,0,1,,,,,
,,,,1A,A,2024-02-16_14h28.10.002,Slot Machine Game,2023.1.3,MacIntel,59.97361161,justicestudyid,justicesessionid,justiceprolificid,,,,,,,,,,,,,,,,,,,,,,,,,,,400,,,,,,,,,,,,,,,,,,,,,9,9,,,607.835,6,right,0.2121,,1.5,0.3,"[3,2,1]",0.081585376,stimuli/card_0_transparent.png,0,6,0,6,0,1,,,,,
,,,,1A,A,2024-02-16_14h28.10.002,Slot Machine Game,2023.1.3,MacIntel,59.97361161,justicestudyid,justicesessionid,justiceprolificid,,,,,,,,,,,,,,,,,,,,,,,,,,,410,,,,,,,,,,,,,,,,,,,,,9,9,,,609.8695,7,up,1.1838,,1,0.3,"[3,2,1]",0.575503572,stimuli/card_10_transparent.png,10,7,0,7,0,1,,,,,
,,,,1A,A,2024-02-16_14h28.10.002,Slot Machine Game,2023.1.3,MacIntel,59.97361161,justicestudyid,justicesessionid,justiceprolificid,,,,,,,,,,,,,,,,,,,,,,,,,,,510,,,,,,,,,,,,,,,,,,,,,9,9,,,612.3714,8,up,0.581,,1,0.3,"[3,1,2]",0.625701867,stimuli/card_100_transparent.png,100,8,0,8,0,1,,,,,
,,,,1A,A,2024-02-16_14h28.10.002,Slot Machine Game,2023.1.3,MacIntel,59.97361161,justicestudyid,justicesessionid,justiceprolificid,,,,,,,,,,,,,,,,,,,,,,,,,,,610,,,,,,,,,,,,,,,,,,,,,9,9,,,614.2712,9,up,0.3282,,1.5,0.3,"[3,1,2]",0.749764655,stimuli/card_100_transparent.png,100,9,0,9,0,1,,,,,
,,,,1A,A,2024-02-16_14h28.10.002,Slot Machine Game,2023.1.3,MacIntel,59.97361161,justicestudyid,justicesessionid,justiceprolificid,,,,,,,,,,,,,,,,,,,,,,,,,,,710,,,,,,,,,,,,,,,,,,,,,9,9,,,616.4223,10,up,0.4119,,1,0.3,"[3,1,2]",0.875170825,stimuli/card_100_transparent.png,100,10,0,10,0,1,,,,,
,,,,1A,A,2024-02-16_14h28.10.002,Slot Machine Game,2023.1.3,MacIntel,59.97361161,justicestudyid,justicesessionid,justiceprolificid,,,,,,,,,,,,,,,,,,,,,,,,,,,810,,,,,,,,,,,,,,,,,,,,,9,9,,,618.1598,11,up,0.1802,,0.5,0.3,"[3,1,2]",0.42338213,stimuli/card_100_transparent.png,100,11,0,11,0,1,,,,,
,,,,1A,A,2024-02-16_14h28.10.002,Slot Machine Game,2023.1.3,MacIntel,59.97361161,justicestudyid,justicesessionid,justiceprolificid,,,,,,,,,,,,,,,,,,,,,,,,,,,910,,,,,,,,,,,,,,,,,,,,,9,9,,,619.1583,12,up,0.3814,,0.5,0.3,"[3,1,2]",0.319832019,stimuli/card_100_transparent.png,100,12,0,12,0,1,,,,,
,,,,1A,A,2024-02-16_14h28.10.002,Slot Machine Game,2023.1.3,MacIntel,59.97361161,justicestudyid,justicesessionid,justiceprolificid,,,,,,,,,,,,,,,,,,,,,,,,,,,1010,,,,,,,,,,,,,,,,,,,,,9,9,,,620.3602,13,up,0.3967,,1,0.3,"[3,1,2]",0.647784425,stimuli/card_100_transparent.png,100,13,0,13,0,1,,,,,
,,,,1A,A,2024-02-16_14h28.10.002,Slot Machine Game,2023.1.3,MacIntel,59.97361161,justicestudyid,justicesessionid,justiceprolificid,,,,,,,,,,,,,,,,,,,,,,,,,,,1010,,,,,,,,,,,,,,,,,,,,,9,9,,,622.0765,14,up,0.2125,,1.5,0.3,"[3,1,2]",0.077326179,stimuli/card_0_transparent.png,0,14,0,14,0,1,,,,,
,,,,1A,A,2024-02-16_14h28.10.002,Slot Machine Game,2023.1.3,MacIntel,59.97361161,justicestudyid,justicesessionid,justiceprolificid,,,,,,,,,,,,,,,,,,,,,,,,,,,,,,,,,,,624.096,,,,,,,,,,,,,,,,,,,,,,,,,,,,,,,,,8,0,8,0,1
,,,,1A,A,2024-02-16_14h28.10.002,Slot Machine Game,2023.1.3,MacIntel,59.97361161,justicestudyid,justicesessionid,justiceprolificid,,,,,,,,,,,,,,,,,,,,,,,,,,,0,,,,,,,,,,,,,,,,,,,,,10,10,"[10,15]","[[3,1,2],[1,3,2]]",629.0984,0,left,0.8445,,0.5,0.3,"[3,1,2]",0.966183037,stimuli/card_0_transparent.png,0,0,0,0,0,1,,,,,
,,,,1A,A,2024-02-16_14h28.10.002,Slot Machine Game,2023.1.3,MacIntel,59.97361161,justicestudyid,justicesessionid,justiceprolificid,,,,,,,,,,,,,,,,,,,,,,,,,,,10,,,,,,,,,,,,,,,,,,,,,10,10,,,630.7655,1,right,0.783,,1,0.3,"[3,1,2]",0.916152654,stimuli/card_10_transparent.png,10,1,0,1,0,1,,,,,
,,,,1A,A,2024-02-16_14h28.10.002,Slot Machine Game,2023.1.3,MacIntel,59.97361161,justicestudyid,justicesessionid,justiceprolificid,,,,,,,,,,,,,,,,,,,,,,,,,,,110,,,,,,,,,,,,,,,,,,,,,10,10,,,632.8653,2,up,0.9456,,1,0.3,"[3,1,2]",0.556653714,stimuli/card_100_transparent.png,100,2,0,2,0,1,,,,,
,,,,1A,A,2024-02-16_14h28.10.002,Slot Machine Game,2023.1.3,MacIntel,59.97361161,justicestudyid,justicesessionid,justiceprolificid,,,,,,,,,,,,,,,,,,,,,,,,,,,110,,,,,,,,,,,,,,,,,,,,,10,10,,,635.1348,3,up,0.5291,,1.5,0.3,"[3,1,2]",0.019495052,stimuli/card_0_transparent.png,0,3,0,3,0,1,,,,,
,,,,1A,A,2024-02-16_14h28.10.002,Slot Machine Game,2023.1.3,MacIntel,59.97361161,justicestudyid,justicesessionid,justiceprolificid,,,,,,,,,,,,,,,,,,,,,,,,,,,120,,,,,,,,,,,,,,,,,,,,,10,10,,,637.4851,4,right,0.4862,,0.5,0.3,"[3,1,2]",0.652674783,stimuli/card_10_transparent.png,10,4,0,4,0,1,,,,,
,,,,1A,A,2024-02-16_14h28.10.002,Slot Machine Game,2023.1.3,MacIntel,59.97361161,justicestudyid,justicesessionid,justiceprolificid,,,,,,,,,,,,,,,,,,,,,,,,,,,130,,,,,,,,,,,,,,,,,,,,,10,10,,,638.7845,5,right,0.7632,,0.5,0.3,"[3,1,2]",0.255227318,stimuli/card_10_transparent.png,10,5,0,5,0,1,,,,,
,,,,1A,A,2024-02-16_14h28.10.002,Slot Machine Game,2023.1.3,MacIntel,59.97361161,justicestudyid,justicesessionid,justiceprolificid,,,,,,,,,,,,,,,,,,,,,,,,,,,130,,,,,,,,,,,,,,,,,,,,,10,10,,,640.3699,6,left,0.9913,,0.5,0.3,"[3,1,2]",0.571707828,stimuli/card_0_transparent.png,0,6,0,6,0,1,,,,,
,,,,1A,A,2024-02-16_14h28.10.002,Slot Machine Game,2023.1.3,MacIntel,59.97361161,justicestudyid,justicesessionid,justiceprolificid,,,,,,,,,,,,,,,,,,,,,,,,,,,130,,,,,,,,,,,,,,,,,,,,,10,10,,,642.1872,7,up,0.5702,,1,0.3,"[3,1,2]",0.043443554,stimuli/card_0_transparent.png,0,7,0,7,0,1,,,,,
,,,,1A,A,2024-02-16_14h28.10.002,Slot Machine Game,2023.1.3,MacIntel,59.97361161,justicestudyid,justicesessionid,justiceprolificid,,,,,,,,,,,,,,,,,,,,,,,,,,,130,,,,,,,,,,,,,,,,,,,,,10,10,,,644.0702,8,right,0.3399,,0.5,0.3,"[3,1,2]",0.022959384,stimuli/card_0_transparent.png,0,8,0,8,0,1,,,,,
,,,,1A,A,2024-02-16_14h28.10.002,Slot Machine Game,2023.1.3,MacIntel,59.97361161,justicestudyid,justicesessionid,justiceprolificid,,,,,,,,,,,,,,,,,,,,,,,,,,,230,,,,,,,,,,,,,,,,,,,,,10,10,,,645.2227,9,left,0.5339,,1.5,0.3,"[3,1,2]",0.015931825,stimuli/card_100_transparent.png,100,9,0,9,0,1,,,,,
,,,,1A,A,2024-02-16_14h28.10.002,Slot Machine Game,2023.1.3,MacIntel,59.97361161,justicestudyid,justicesessionid,justiceprolificid,,,,,,,,,,,,,,,,,,,,,,,,,,,330,,,,,,,,,,,,,,,,,,,,,10,10,,,647.5707,10,left,0.3814,,1.5,0.3,"[1,3,2]",0.838502778,stimuli/card_100_transparent.png,100,10,0,10,0,1,,,,,
,,,,1A,A,2024-02-16_14h28.10.002,Slot Machine Game,2023.1.3,MacIntel,59.97361161,justicestudyid,justicesessionid,justiceprolificid,,,,,,,,,,,,,,,,,,,,,,,,,,,340,,,,,,,,,,,,,,,,,,,,,10,10,,,649.7745,11,left,0.0457,,0.5,0.3,"[1,3,2]",0.163809397,stimuli/card_10_transparent.png,10,11,0,11,0,1,,,,,
,,,,1A,A,2024-02-16_14h28.10.002,Slot Machine Game,2023.1.3,MacIntel,59.97361161,justicestudyid,justicesessionid,justiceprolificid,,,,,,,,,,,,,,,,,,,,,,,,,,,440,,,,,,,,,,,,,,,,,,,,,10,10,,,650.642,12,left,0.6808,,1.5,0.3,"[1,3,2]",0.503688497,stimuli/card_100_transparent.png,100,12,0,12,0,1,,,,,
,,,,1A,A,2024-02-16_14h28.10.002,Slot Machine Game,2023.1.3,MacIntel,59.97361161,justicestudyid,justicesessionid,justiceprolificid,,,,,,,,,,,,,,,,,,,,,,,,,,,450,,,,,,,,,,,,,,,,,,,,,10,10,,,653.1419,13,left,0.1814,,0.5,0.3,"[1,3,2]",0.167306031,stimuli/card_10_transparent.png,10,13,0,13,0,1,,,,,
,,,,1A,A,2024-02-16_14h28.10.002,Slot Machine Game,2023.1.3,MacIntel,59.97361161,justicestudyid,justicesessionid,justiceprolificid,,,,,,,,,,,,,,,,,,,,,,,,,,,550,,,,,,,,,,,,,,,,,,,,,10,10,,,654.1432,14,left,1.4471,,1.5,0.3,"[1,3,2]",0.924977192,stimuli/card_100_transparent.png,100,14,0,14,0,1,,,,,
,,,,1A,A,2024-02-16_14h28.10.002,Slot Machine Game,2023.1.3,MacIntel,59.97361161,justicestudyid,justicesessionid,justiceprolificid,,,,,,,,,,,,,,,,,,,,,,,,,,,,,,,,,,,657.4098,,,,,,,,,,,,,,,,,,,,,,,,,,,,,,,,,9,0,9,0,1
,,,,1A,A,2024-02-16_14h28.10.002,Slot Machine Game,2023.1.3,MacIntel,59.97361161,justicestudyid,justicesessionid,justiceprolificid,,,,,,,,,,,,,,,,,,,,,,,,,,,,,,,,,,,,,,,,,,,,,,,,,,,,,,,,,,,,,,,,,,,,,,,,
