key_resp_welcome_started,key_resp_welcome_keys,key_resp_welcome_rt,key_resp_welcome_duration,study_id,path_id,date,expName,psychopyVersion,OS,frameRate,subject_id,session_id,prolific_id,key_resp_instruction1_started,key_resp_instruction1_keys,key_resp_instruction1_rt,key_resp_instruction1_duration,key_resp_instruction2_started,key_resp_instruction2_keys,key_resp_instruction2_rt,key_resp_instruction2_duration,key_resp_instruction3_started,key_resp_instruction3_keys,key_resp_instruction3_rt,key_resp_instruction3_duration,key_resp_instruction4_started,key_resp_instruction4_keys,key_resp_instruction4_rt,key_resp_instruction4_duration,practiceCondition,practice_reward_seqs,practice_trial_started,practice_trial_num,practice_resp_rt,practice_resp_duration,practice_resp_keys,prac_presentationInterval,"practice_reward_seq: 2,1,3",reward_img,cumulative_reward,trial_reward,practice_trials.thisRepN,practice_trials.thisTrialN,practice_trials.thisN,practice_trials.thisIndex,practice_trials.ran,"practice_reward_seq: 2,3,1",block_break_started,"practice_reward_seq: 1,3,2","practice_reward_seq: 3,1,2",practice_end_time,practice_end_keys,practice_end_rt,practice_end_duration,main_instruction_text_started,block_condition,block_order_indices,main_instruction_keys,main_instruction_rt,main_instruction_duration,block_number,block_assignment,current_condition,main_reward_seqs,main_trial_started,main_trial_num,main_trial_keys,main_trial_rt,main_trial_duration,main_presentationInterval,reward_presentation_time,main_reward_seq,reward_rand_val,main_reward_img,current_reward,main_trials.thisRepN,main_trials.thisTrialN,main_trials.thisN,main_trials.thisIndex,main_trials.ran,block.thisRepN,block.thisTrialN,block.thisN,block.thisIndex,block.ran
0.0004,space,1.5331,,1C,B,2024-01-02_10h54.37.394,Slot Machine Game,2023.1.3,MacIntel,60.06006006,sid,session_id,pid,,,,,,,,,,,,,,,,,,,,,,,,,,,,,,,,,,,,,,,,,,,,,,,,,,,,,,,,,,,,,,,,,,,,,,,,
,,,,1C,B,2024-01-02_10h54.37.394,Slot Machine Game,2023.1.3,MacIntel,60.06006006,sid,session_id,pid,1.5489,space,0.5737,,,,,,,,,,,,,,,,,,,,,,,,,,,,,,,,,,,,,,,,,,,,,,,,,,,,,,,,,,,,,,,,,,,,,
,,,,1C,B,2024-01-02_10h54.37.394,Slot Machine Game,2023.1.3,MacIntel,60.06006006,sid,session_id,pid,,,,,2.1328,space,0.3237,,,,,,,,,,,,,,,,,,,,,,,,,,,,,,,,,,,,,,,,,,,,,,,,,,,,,,,,,,,,,,,,,
,,,,1C,B,2024-01-02_10h54.37.394,Slot Machine Game,2023.1.3,MacIntel,60.06006006,sid,session_id,pid,,,,,,,,,2.4826,space,0.451,,,,,,,,,,,,,,,,,,,,,,,,,,,,,,,,,,,,,,,,,,,,,,,,,,,,,,,,,,,,,
,,,,1C,B,2024-01-02_10h54.37.394,Slot Machine Game,2023.1.3,MacIntel,60.06006006,sid,session_id,pid,,,,,,,,,,,,,,,,,,,,,,,,,,,,,,,,,,,,,,,,,,,,,,,,,,,,,,,,,,,,,,,,,,,,,,,,
,,,,1C,B,2024-01-02_10h54.37.394,Slot Machine Game,2023.1.3,MacIntel,60.06006006,sid,session_id,pid,,,,,,,,,,,,,294.2541,space,1.0346,,,,,,,,,,,,,,,,,,,,,,,,,,,,,,,,,,,,,,,,,,,,,,,,,,,,,,,,,
,,,,1C,B,2024-01-02_10h54.37.394,Slot Machine Game,2023.1.3,MacIntel,60.06006006,sid,session_id,pid,,,,,,,,,,,,,,,,,"[9,15]","[[2,1,3],[2,3,1]]",295.3168,0,1.2433,,left,1,,stimuli/card_10_transparent.png,10,10,0,0,0,0,1,,,,,,,,,,,,,,,,,,,,,,,,,,,,,,,,,,,,,,,
,,,,1C,B,2024-01-02_10h54.37.394,Slot Machine Game,2023.1.3,MacIntel,60.06006006,sid,session_id,pid,,,,,,,,,,,,,,,,,,,297.8973,1,0.0546,,up,1.5,,stimuli/card_0_transparent.png,10,0,1,0,1,0,1,,,,,,,,,,,,,,,,,,,,,,,,,,,,,,,,,,,,,,,
,,,,1C,B,2024-01-02_10h54.37.394,Slot Machine Game,2023.1.3,MacIntel,60.06006006,sid,session_id,pid,,,,,,,,,,,,,,,,,,,299.7688,2,0.0105,,up,1,,stimuli/card_100_transparent.png,110,100,2,0,2,0,1,,,,,,,,,,,,,,,,,,,,,,,,,,,,,,,,,,,,,,,
,,,,1C,B,2024-01-02_10h54.37.394,Slot Machine Game,2023.1.3,MacIntel,60.06006006,sid,session_id,pid,,,,,,,,,,,,,,,,,,,301.0842,3,0.1128,,up,0.5,,stimuli/card_100_transparent.png,210,100,3,0,3,0,1,,,,,,,,,,,,,,,,,,,,,,,,,,,,,,,,,,,,,,,
,,,,1C,B,2024-01-02_10h54.37.394,Slot Machine Game,2023.1.3,MacIntel,60.06006006,sid,session_id,pid,,,,,,,,,,,,,,,,,,,302.0186,4,0.2408,,right,1,,stimuli/card_0_transparent.png,210,0,4,0,4,0,1,,,,,,,,,,,,,,,,,,,,,,,,,,,,,,,,,,,,,,,
,,,,1C,B,2024-01-02_10h54.37.394,Slot Machine Game,2023.1.3,MacIntel,60.06006006,sid,session_id,pid,,,,,,,,,,,,,,,,,,,303.5845,5,0.0186,,up,0.5,,stimuli/card_100_transparent.png,310,100,5,0,5,0,1,,,,,,,,,,,,,,,,,,,,,,,,,,,,,,,,,,,,,,,
,,,,1C,B,2024-01-02_10h54.37.394,Slot Machine Game,2023.1.3,MacIntel,60.06006006,sid,session_id,pid,,,,,,,,,,,,,,,,,,,304.4148,6,0.1021,,up,1.5,,stimuli/card_100_transparent.png,410,100,6,0,6,0,1,,,,,,,,,,,,,,,,,,,,,,,,,,,,,,,,,,,,,,,
,,,,1C,B,2024-01-02_10h54.37.394,Slot Machine Game,2023.1.3,MacIntel,60.06006006,sid,session_id,pid,,,,,,,,,,,,,,,,,,,306.3303,7,0.0303,,up,0.5,,stimuli/card_100_transparent.png,510,100,7,0,7,0,1,,,,,,,,,,,,,,,,,,,,,,,,,,,,,,,,,,,,,,,
,,,,1C,B,2024-01-02_10h54.37.394,Slot Machine Game,2023.1.3,MacIntel,60.06006006,sid,session_id,pid,,,,,,,,,,,,,,,,,,,307.1788,8,0.0922,,up,0.5,,stimuli/card_100_transparent.png,610,100,8,0,8,0,1,,,,,,,,,,,,,,,,,,,,,,,,,,,,,,,,,,,,,,,
,,,,1C,B,2024-01-02_10h54.37.394,Slot Machine Game,2023.1.3,MacIntel,60.06006006,sid,session_id,pid,,,,,,,,,,,,,,,,,,,308.1111,9,0.095,,up,1,,stimuli/card_10_transparent.png,620,10,9,0,9,0,1,,,,,,,,,,,,,,,,,,,,,,,,,,,,,,,,,,,,,,,
,,,,1C,B,2024-01-02_10h54.37.394,Slot Machine Game,2023.1.3,MacIntel,60.06006006,sid,session_id,pid,,,,,,,,,,,,,,,,,,,309.5264,10,0.0847,,up,1.5,,stimuli/card_100_transparent.png,720,100,10,0,10,0,1,,,,,,,,,,,,,,,,,,,,,,,,,,,,,,,,,,,,,,,
,,,,1C,B,2024-01-02_10h54.37.394,Slot Machine Game,2023.1.3,MacIntel,60.06006006,sid,session_id,pid,,,,,,,,,,,,,,,,,,,311.418,11,0.0008,,up,1,,stimuli/card_0_transparent.png,720,0,11,0,11,0,1,,,,,,,,,,,,,,,,,,,,,,,,,,,,,,,,,,,,,,,
,,,,1C,B,2024-01-02_10h54.37.394,Slot Machine Game,2023.1.3,MacIntel,60.06006006,sid,session_id,pid,,,,,,,,,,,,,,,,,,,312.7336,12,0.1368,,right,1,,stimuli/card_10_transparent.png,730,10,12,0,12,0,1,,,,,,,,,,,,,,,,,,,,,,,,,,,,,,,,,,,,,,,
,,,,1C,B,2024-01-02_10h54.37.394,Slot Machine Game,2023.1.3,MacIntel,60.06006006,sid,session_id,pid,,,,,,,,,,,,,,,,,,,314.1819,13,0.0009,,right,1,,stimuli/card_100_transparent.png,830,100,13,0,13,0,1,,,,,,,,,,,,,,,,,,,,,,,,,,,,,,,,,,,,,,,
,,,,1C,B,2024-01-02_10h54.37.394,Slot Machine Game,2023.1.3,MacIntel,60.06006006,sid,session_id,pid,,,,,,,,,,,,,,,,,,,315.4945,14,0.076,,up,0.5,,stimuli/card_0_transparent.png,830,0,14,0,14,0,1,,,,,,,,,,,,,,,,,,,,,,,,,,,,,,,,,,,,,,,
,,,,1C,B,2024-01-02_10h54.37.394,Slot Machine Game,2023.1.3,MacIntel,60.06006006,sid,session_id,pid,,,,,,,,,,,,,,,,,"[6,15]","[[1,3,2],[3,1,2]]",321.3698,0,0.8852,,up,1.5,,stimuli/card_0_transparent.png,0,0,0,0,0,0,1,,316.3787,,,,,,,,,,,,,,,,,,,,,,,,,,,,,,,,,,,,,
,,,,1C,B,2024-01-02_10h54.37.394,Slot Machine Game,2023.1.3,MacIntel,60.06006006,sid,session_id,pid,,,,,,,,,,,,,,,,,,,324.0664,1,0.1797,,up,1.5,,stimuli/card_100_transparent.png,100,100,1,0,1,0,1,,,,,,,,,,,,,,,,,,,,,,,,,,,,,,,,,,,,,,,
,,,,1C,B,2024-01-02_10h54.37.394,Slot Machine Game,2023.1.3,MacIntel,60.06006006,sid,session_id,pid,,,,,,,,,,,,,,,,,,,326.0629,2,0.0599,,up,0.5,,stimuli/card_0_transparent.png,100,0,2,0,2,0,1,,,,,,,,,,,,,,,,,,,,,,,,,,,,,,,,,,,,,,,
,,,,1C,B,2024-01-02_10h54.37.394,Slot Machine Game,2023.1.3,MacIntel,60.06006006,sid,session_id,pid,,,,,,,,,,,,,,,,,,,326.9266,3,0.1904,,up,0.5,,stimuli/card_0_transparent.png,100,0,3,0,3,0,1,,,,,,,,,,,,,,,,,,,,,,,,,,,,,,,,,,,,,,,
,,,,1C,B,2024-01-02_10h54.37.394,Slot Machine Game,2023.1.3,MacIntel,60.06006006,sid,session_id,pid,,,,,,,,,,,,,,,,,,,327.9261,4,0.276,,up,0.5,,stimuli/card_100_transparent.png,200,100,4,0,4,0,1,,,,,,,,,,,,,,,,,,,,,,,,,,,,,,,,,,,,,,,
,,,,1C,B,2024-01-02_10h54.37.394,Slot Machine Game,2023.1.3,MacIntel,60.06006006,sid,session_id,pid,,,,,,,,,,,,,,,,,,,329.0088,5,0.1094,,up,1.5,,stimuli/card_10_transparent.png,210,10,5,0,5,0,1,,,,,,,,,,,,,,,,,,,,,,,,,,,,,,,,,,,,,,,
,,,,1C,B,2024-01-02_10h54.37.394,Slot Machine Game,2023.1.3,MacIntel,60.06006006,sid,session_id,pid,,,,,,,,,,,,,,,,,,,330.9172,6,0.0385,,up,1.5,,stimuli/card_100_transparent.png,310,100,6,0,6,0,1,,,,,,,,,,,,,,,,,,,,,,,,,,,,,,,,,,,,,,,
,,,,1C,B,2024-01-02_10h54.37.394,Slot Machine Game,2023.1.3,MacIntel,60.06006006,sid,session_id,pid,,,,,,,,,,,,,,,,,,,332.7661,7,0.0252,,up,0.5,,stimuli/card_100_transparent.png,410,100,7,0,7,0,1,,,,,,,,,,,,,,,,,,,,,,,,,,,,,,,,,,,,,,,
,,,,1C,B,2024-01-02_10h54.37.394,Slot Machine Game,2023.1.3,MacIntel,60.06006006,sid,session_id,pid,,,,,,,,,,,,,,,,,,,333.5988,8,0.1556,,up,1.5,,stimuli/card_10_transparent.png,420,10,8,0,8,0,1,,,,,,,,,,,,,,,,,,,,,,,,,,,,,,,,,,,,,,,
,,,,1C,B,2024-01-02_10h54.37.394,Slot Machine Game,2023.1.3,MacIntel,60.06006006,sid,session_id,pid,,,,,,,,,,,,,,,,,,,335.5637,9,0.1118,,left,1.5,,stimuli/card_0_transparent.png,420,0,9,0,9,0,1,,,,,,,,,,,,,,,,,,,,,,,,,,,,,,,,,,,,,,,
,,,,1C,B,2024-01-02_10h54.37.394,Slot Machine Game,2023.1.3,MacIntel,60.06006006,sid,session_id,pid,,,,,,,,,,,,,,,,,,,337.4945,10,0.2591,,right,1.5,,stimuli/card_10_transparent.png,430,10,10,0,10,0,1,,,,,,,,,,,,,,,,,,,,,,,,,,,,,,,,,,,,,,,
,,,,1C,B,2024-01-02_10h54.37.394,Slot Machine Game,2023.1.3,MacIntel,60.06006006,sid,session_id,pid,,,,,,,,,,,,,,,,,,,339.5599,11,0.0683,,up,0.5,,stimuli/card_100_transparent.png,530,100,11,0,11,0,1,,,,,,,,,,,,,,,,,,,,,,,,,,,,,,,,,,,,,,,
,,,,1C,B,2024-01-02_10h54.37.394,Slot Machine Game,2023.1.3,MacIntel,60.06006006,sid,session_id,pid,,,,,,,,,,,,,,,,,,,340.4361,12,0.1497,,up,1,,stimuli/card_100_transparent.png,630,100,12,0,12,0,1,,,,,,,,,,,,,,,,,,,,,,,,,,,,,,,,,,,,,,,
,,,,1C,B,2024-01-02_10h54.37.394,Slot Machine Game,2023.1.3,MacIntel,60.06006006,sid,session_id,pid,,,,,,,,,,,,,,,,,,,341.8998,13,0.0852,,up,1,,stimuli/card_100_transparent.png,730,100,13,0,13,0,1,,,,,,,,,,,,,,,,,,,,,,,,,,,,,,,,,,,,,,,
,,,,1C,B,2024-01-02_10h54.37.394,Slot Machine Game,2023.1.3,MacIntel,60.06006006,sid,session_id,pid,,,,,,,,,,,,,,,,,,,343.2986,14,0.0148,,up,1,,stimuli/card_100_transparent.png,830,100,14,0,14,0,1,,,,,,,,,,,,,,,,,,,,,,,,,,,,,,,,,,,,,,,
,,,,1C,B,2024-01-02_10h54.37.394,Slot Machine Game,2023.1.3,MacIntel,60.06006006,sid,session_id,pid,,,,,,,,,,,,,,,,,,,,,,,,,,,,,,,,,,,344.6316,,,349.6269,space,0.8264,,,,,,,,,,,,,,,,,,,,,,,,,,,,,,,,
,,,,1C,B,2024-01-02_10h54.37.394,Slot Machine Game,2023.1.3,MacIntel,60.06006006,sid,session_id,pid,,,,,,,,,,,,,,,,,,,,,,,,,,,,,,,,,,,,,,,,,,350.4664,2,"[2,4,8,0,1,3,9,6,8,5]",space,0.5714,,,,,,,,,,,,,,,,,,,,,,,,,,
,,,,1C,B,2024-01-02_10h54.37.394,Slot Machine Game,2023.1.3,MacIntel,60.06006006,sid,session_id,pid,,,,,,,,,,,,,,,,,,,,,,,,,,,0,,,,,,,,,,,,,,,,,,,,,1,3,"[15,15]","[[3,1,2],[3,1,2]]",351.0531,0,left,1.0086,,0.5,0.3,"[3,1,2]",0.257757351,stimuli/card_0_transparent.png,0,0,0,0,0,1,,,,,
,,,,1C,B,2024-01-02_10h54.37.394,Slot Machine Game,2023.1.3,MacIntel,60.06006006,sid,session_id,pid,,,,,,,,,,,,,,,,,,,,,,,,,,,100,,,,,,,,,,,,,,,,,,,,,1,3,,,352.8664,1,up,0.0852,,1,0.3,"[3,1,2]",0.732622181,stimuli/card_100_transparent.png,100,1,0,1,0,1,,,,,
,,,,1C,B,2024-01-02_10h54.37.394,Slot Machine Game,2023.1.3,MacIntel,60.06006006,sid,session_id,pid,,,,,,,,,,,,,,,,,,,,,,,,,,,200,,,,,,,,,,,,,,,,,,,,,1,3,,,354.2633,2,up,0.0209,,1.5,0.3,"[3,1,2]",0.619721596,stimuli/card_100_transparent.png,100,2,0,2,0,1,,,,,
,,,,1C,B,2024-01-02_10h54.37.394,Slot Machine Game,2023.1.3,MacIntel,60.06006006,sid,session_id,pid,,,,,,,,,,,,,,,,,,,,,,,,,,,300,,,,,,,,,,,,,,,,,,,,,1,3,,,356.094,3,up,0.1259,,1.5,0.3,"[3,1,2]",0.985873915,stimuli/card_100_transparent.png,100,3,0,3,0,1,,,,,
,,,,1C,B,2024-01-02_10h54.37.394,Slot Machine Game,2023.1.3,MacIntel,60.06006006,sid,session_id,pid,,,,,,,,,,,,,,,,,,,,,,,,,,,310,,,,,,,,,,,,,,,,,,,,,1,3,,,358.0275,4,up,0.197,,1,0.3,"[3,1,2]",0.194570391,stimuli/card_10_transparent.png,10,4,0,4,0,1,,,,,
,,,,1C,B,2024-01-02_10h54.37.394,Slot Machine Game,2023.1.3,MacIntel,60.06006006,sid,session_id,pid,,,,,,,,,,,,,,,,,,,,,,,,,,,320,,,,,,,,,,,,,,,,,,,,,1,3,,,359.5409,5,up,0.0011,,0.5,0.3,"[3,1,2]",0.154936096,stimuli/card_10_transparent.png,10,5,0,5,0,1,,,,,
,,,,1C,B,2024-01-02_10h54.37.394,Slot Machine Game,2023.1.3,MacIntel,60.06006006,sid,session_id,pid,,,,,,,,,,,,,,,,,,,,,,,,,,,420,,,,,,,,,,,,,,,,,,,,,1,3,,,360.3704,6,up,0.0634,,0.5,0.3,"[3,1,2]",0.405030532,stimuli/card_100_transparent.png,100,6,0,6,0,1,,,,,
,,,,1C,B,2024-01-02_10h54.37.394,Slot Machine Game,2023.1.3,MacIntel,60.06006006,sid,session_id,pid,,,,,,,,,,,,,,,,,,,,,,,,,,,520,,,,,,,,,,,,,,,,,,,,,1,3,,,361.2534,7,up,0.0039,,0.5,0.3,"[3,1,2]",0.570801967,stimuli/card_100_transparent.png,100,7,0,7,0,1,,,,,
,,,,1C,B,2024-01-02_10h54.37.394,Slot Machine Game,2023.1.3,MacIntel,60.06006006,sid,session_id,pid,,,,,,,,,,,,,,,,,,,,,,,,,,,530,,,,,,,,,,,,,,,,,,,,,1,3,,,362.0659,8,up,0.175,,1,0.3,"[3,1,2]",0.152683117,stimuli/card_10_transparent.png,10,8,0,8,0,1,,,,,
,,,,1C,B,2024-01-02_10h54.37.394,Slot Machine Game,2023.1.3,MacIntel,60.06006006,sid,session_id,pid,,,,,,,,,,,,,,,,,,,,,,,,,,,630,,,,,,,,,,,,,,,,,,,,,1,3,,,363.5492,9,up,0.0915,,1.5,0.3,"[3,1,2]",0.497625078,stimuli/card_100_transparent.png,100,9,0,9,0,1,,,,,
,,,,1C,B,2024-01-02_10h54.37.394,Slot Machine Game,2023.1.3,MacIntel,60.06006006,sid,session_id,pid,,,,,,,,,,,,,,,,,,,,,,,,,,,630,,,,,,,,,,,,,,,,,,,,,1,3,,,365.4472,10,up,0.0012,,1.5,0.3,"[3,1,2]",0.017751674,stimuli/card_0_transparent.png,0,10,0,10,0,1,,,,,
,,,,1C,B,2024-01-02_10h54.37.394,Slot Machine Game,2023.1.3,MacIntel,60.06006006,sid,session_id,pid,,,,,,,,,,,,,,,,,,,,,,,,,,,640,,,,,,,,,,,,,,,,,,,,,1,3,,,367.2603,11,up,0.1776,,1,0.3,"[3,1,2]",0.137837446,stimuli/card_10_transparent.png,10,11,0,11,0,1,,,,,
,,,,1C,B,2024-01-02_10h54.37.394,Slot Machine Game,2023.1.3,MacIntel,60.06006006,sid,session_id,pid,,,,,,,,,,,,,,,,,,,,,,,,,,,650,,,,,,,,,,,,,,,,,,,,,1,3,,,368.7448,12,right,0.0012,,0.5,0.3,"[3,1,2]",0.625852908,stimuli/card_10_transparent.png,10,12,0,12,0,1,,,,,
,,,,1C,B,2024-01-02_10h54.37.394,Slot Machine Game,2023.1.3,MacIntel,60.06006006,sid,session_id,pid,,,,,,,,,,,,,,,,,,,,,,,,,,,660,,,,,,,,,,,,,,,,,,,,,1,3,,,369.5611,13,right,0.014,,1.5,0.3,"[3,1,2]",0.200195486,stimuli/card_10_transparent.png,10,13,0,13,0,1,,,,,
,,,,1C,B,2024-01-02_10h54.37.394,Slot Machine Game,2023.1.3,MacIntel,60.06006006,sid,session_id,pid,,,,,,,,,,,,,,,,,,,,,,,,,,,670,,,,,,,,,,,,,,,,,,,,,1,3,,,371.3851,14,right,0.2681,,1.5,0.3,"[3,1,2]",0.667150072,stimuli/card_10_transparent.png,10,14,0,14,0,1,,,,,
,,,,1C,B,2024-01-02_10h54.37.394,Slot Machine Game,2023.1.3,MacIntel,60.06006006,sid,session_id,pid,,,,,,,,,,,,,,,,,,,,,,,,,,,,,,,,,,,373.4649,,,,,,,,,,,,,,,,,,,,,,,,,,,,,,,,,0,0,0,0,1
,,,,1C,B,2024-01-02_10h54.37.394,Slot Machine Game,2023.1.3,MacIntel,60.06006006,sid,session_id,pid,,,,,,,,,,,,,,,,,,,,,,,,,,,0,,,,,,,,,,,,,,,,,,,,,2,5,"[5,15]","[[1,2,3],[3,1,2]]",378.4615,0,up,0.4566,,1.5,0.3,"[1,2,3]",0.04700772,stimuli/card_0_transparent.png,0,0,0,0,0,1,,,,,
,,,,1C,B,2024-01-02_10h54.37.394,Slot Machine Game,2023.1.3,MacIntel,60.06006006,sid,session_id,pid,,,,,,,,,,,,,,,,,,,,,,,,,,,100,,,,,,,,,,,,,,,,,,,,,2,5,,,380.7198,1,up,0.0881,,1.5,0.3,"[1,2,3]",0.144576302,stimuli/card_100_transparent.png,100,1,0,1,0,1,,,,,
,,,,1C,B,2024-01-02_10h54.37.394,Slot Machine Game,2023.1.3,MacIntel,60.06006006,sid,session_id,pid,,,,,,,,,,,,,,,,,,,,,,,,,,,200,,,,,,,,,,,,,,,,,,,,,2,5,,,382.6151,2,up,0.1379,,1,0.3,"[1,2,3]",0.170947037,stimuli/card_100_transparent.png,100,2,0,2,0,1,,,,,
,,,,1C,B,2024-01-02_10h54.37.394,Slot Machine Game,2023.1.3,MacIntel,60.06006006,sid,session_id,pid,,,,,,,,,,,,,,,,,,,,,,,,,,,210,,,,,,,,,,,,,,,,,,,,,2,5,,,384.0662,3,up,0.0884,,1,0.3,"[1,2,3]",0.476585492,stimuli/card_10_transparent.png,10,3,0,3,0,1,,,,,
,,,,1C,B,2024-01-02_10h54.37.394,Slot Machine Game,2023.1.3,MacIntel,60.06006006,sid,session_id,pid,,,,,,,,,,,,,,,,,,,,,,,,,,,210,,,,,,,,,,,,,,,,,,,,,2,5,,,385.463,4,up,0.1698,,1,0.3,"[1,2,3]",0.01257908,stimuli/card_0_transparent.png,0,4,0,4,0,1,,,,,
,,,,1C,B,2024-01-02_10h54.37.394,Slot Machine Game,2023.1.3,MacIntel,60.06006006,sid,session_id,pid,,,,,,,,,,,,,,,,,,,,,,,,,,,310,,,,,,,,,,,,,,,,,,,,,2,5,,,386.9456,5,up,0.0974,,0.5,0.3,"[3,1,2]",0.377481483,stimuli/card_100_transparent.png,100,5,0,5,0,1,,,,,
,,,,1C,B,2024-01-02_10h54.37.394,Slot Machine Game,2023.1.3,MacIntel,60.06006006,sid,session_id,pid,,,,,,,,,,,,,,,,,,,,,,,,,,,410,,,,,,,,,,,,,,,,,,,,,2,5,,,387.844,6,up,0.0922,,1,0.3,"[3,1,2]",0.756677653,stimuli/card_100_transparent.png,100,6,0,6,0,1,,,,,
,,,,1C,B,2024-01-02_10h54.37.394,Slot Machine Game,2023.1.3,MacIntel,60.06006006,sid,session_id,pid,,,,,,,,,,,,,,,,,,,,,,,,,,,410,,,,,,,,,,,,,,,,,,,,,2,5,,,389.2441,7,up,0.206,,1,0.3,"[3,1,2]",0.014858321,stimuli/card_0_transparent.png,0,7,0,7,0,1,,,,,
,,,,1C,B,2024-01-02_10h54.37.394,Slot Machine Game,2023.1.3,MacIntel,60.06006006,sid,session_id,pid,,,,,,,,,,,,,,,,,,,,,,,,,,,420,,,,,,,,,,,,,,,,,,,,,2,5,,,390.7542,8,right,0.0983,,0.5,0.3,"[3,1,2]",0.439501453,stimuli/card_10_transparent.png,10,8,0,8,0,1,,,,,
,,,,1C,B,2024-01-02_10h54.37.394,Slot Machine Game,2023.1.3,MacIntel,60.06006006,sid,session_id,pid,,,,,,,,,,,,,,,,,,,,,,,,,,,430,,,,,,,,,,,,,,,,,,,,,2,5,,,391.6673,9,right,0.3389,,1.5,0.3,"[3,1,2]",0.280236188,stimuli/card_10_transparent.png,10,9,0,9,0,1,,,,,
,,,,1C,B,2024-01-02_10h54.37.394,Slot Machine Game,2023.1.3,MacIntel,60.06006006,sid,session_id,pid,,,,,,,,,,,,,,,,,,,,,,,,,,,440,,,,,,,,,,,,,,,,,,,,,2,5,,,393.8154,10,right,0.1391,,0.5,0.3,"[3,1,2]",0.368397608,stimuli/card_10_transparent.png,10,10,0,10,0,1,,,,,
,,,,1C,B,2024-01-02_10h54.37.394,Slot Machine Game,2023.1.3,MacIntel,60.06006006,sid,session_id,pid,,,,,,,,,,,,,,,,,,,,,,,,,,,450,,,,,,,,,,,,,,,,,,,,,2,5,,,394.7649,11,right,0.0533,,1,0.3,"[3,1,2]",0.779383688,stimuli/card_10_transparent.png,10,11,0,11,0,1,,,,,
,,,,1C,B,2024-01-02_10h54.37.394,Slot Machine Game,2023.1.3,MacIntel,60.06006006,sid,session_id,pid,,,,,,,,,,,,,,,,,,,,,,,,,,,460,,,,,,,,,,,,,,,,,,,,,2,5,,,396.1293,12,right,1.3009,,1.5,0.3,"[3,1,2]",0.959555124,stimuli/card_10_transparent.png,10,12,0,12,0,1,,,,,
,,,,1C,B,2024-01-02_10h54.37.394,Slot Machine Game,2023.1.3,MacIntel,60.06006006,sid,session_id,pid,,,,,,,,,,,,,,,,,,,,,,,,,,,460,,,,,,,,,,,,,,,,,,,,,2,5,,,399.241,13,right,0.4793,,1.5,0.3,"[3,1,2]",0.06133343,stimuli/card_0_transparent.png,0,13,0,13,0,1,,,,,
,,,,1C,B,2024-01-02_10h54.37.394,Slot Machine Game,2023.1.3,MacIntel,60.06006006,sid,session_id,pid,,,,,,,,,,,,,,,,,,,,,,,,,,,470,,,,,,,,,,,,,,,,,,,,,2,5,,,401.5258,14,right,0.5283,,0.5,0.3,"[3,1,2]",0.919349655,stimuli/card_10_transparent.png,10,14,0,14,0,1,,,,,
,,,,1C,B,2024-01-02_10h54.37.394,Slot Machine Game,2023.1.3,MacIntel,60.06006006,sid,session_id,pid,,,,,,,,,,,,,,,,,,,,,,,,,,,,,,,,,,,402.8682,,,,,,,,,,,,,,,,,,,,,,,,,,,,,,,,,1,0,1,0,1
,,,,1C,B,2024-01-02_10h54.37.394,Slot Machine Game,2023.1.3,MacIntel,60.06006006,sid,session_id,pid,,,,,,,,,,,,,,,,,,,,,,,,,,,100,,,,,,,,,,,,,,,,,,,,,3,9,"[8,15]","[[3,2,1],[3,1,2]]",407.8641,0,right,0.6065,,1,0.3,"[3,2,1]",0.25650289,stimuli/card_100_transparent.png,100,0,0,0,0,1,,,,,
,,,,1C,B,2024-01-02_10h54.37.394,Slot Machine Game,2023.1.3,MacIntel,60.06006006,sid,session_id,pid,,,,,,,,,,,,,,,,,,,,,,,,,,,200,,,,,,,,,,,,,,,,,,,,,3,9,,,409.7939,1,right,0.4449,,0.5,0.3,"[3,2,1]",0.676489329,stimuli/card_100_transparent.png,100,1,0,1,0,1,,,,,
,,,,1C,B,2024-01-02_10h54.37.394,Slot Machine Game,2023.1.3,MacIntel,60.06006006,sid,session_id,pid,,,,,,,,,,,,,,,,,,,,,,,,,,,300,,,,,,,,,,,,,,,,,,,,,3,9,,,411.0532,2,right,0.049,,1.5,0.3,"[3,2,1]",0.568381408,stimuli/card_100_transparent.png,100,2,0,2,0,1,,,,,
,,,,1C,B,2024-01-02_10h54.37.394,Slot Machine Game,2023.1.3,MacIntel,60.06006006,sid,session_id,pid,,,,,,,,,,,,,,,,,,,,,,,,,,,310,,,,,,,,,,,,,,,,,,,,,3,9,,,412.9169,3,right,0.128,,1.5,0.3,"[3,2,1]",0.19230464,stimuli/card_10_transparent.png,10,3,0,3,0,1,,,,,
,,,,1C,B,2024-01-02_10h54.37.394,Slot Machine Game,2023.1.3,MacIntel,60.06006006,sid,session_id,pid,,,,,,,,,,,,,,,,,,,,,,,,,,,410,,,,,,,,,,,,,,,,,,,,,3,9,,,414.8656,4,right,0.187,,1,0.3,"[3,2,1]",0.934299187,stimuli/card_100_transparent.png,100,4,0,4,0,1,,,,,
,,,,1C,B,2024-01-02_10h54.37.394,Slot Machine Game,2023.1.3,MacIntel,60.06006006,sid,session_id,pid,,,,,,,,,,,,,,,,,,,,,,,,,,,510,,,,,,,,,,,,,,,,,,,,,3,9,,,416.365,5,right,0.0329,,1.5,0.3,"[3,2,1]",0.228028911,stimuli/card_100_transparent.png,100,5,0,5,0,1,,,,,
,,,,1C,B,2024-01-02_10h54.37.394,Slot Machine Game,2023.1.3,MacIntel,60.06006006,sid,session_id,pid,,,,,,,,,,,,,,,,,,,,,,,,,,,610,,,,,,,,,,,,,,,,,,,,,3,9,,,418.2119,6,right,0.1921,,1,0.3,"[3,2,1]",0.79757123,stimuli/card_100_transparent.png,100,6,0,6,0,1,,,,,
,,,,1C,B,2024-01-02_10h54.37.394,Slot Machine Game,2023.1.3,MacIntel,60.06006006,sid,session_id,pid,,,,,,,,,,,,,,,,,,,,,,,,,,,710,,,,,,,,,,,,,,,,,,,,,3,9,,,419.7263,7,right,0.1338,,0.5,0.3,"[3,2,1]",0.810372379,stimuli/card_100_transparent.png,100,7,0,7,0,1,,,,,
,,,,1C,B,2024-01-02_10h54.37.394,Slot Machine Game,2023.1.3,MacIntel,60.06006006,sid,session_id,pid,,,,,,,,,,,,,,,,,,,,,,,,,,,710,,,,,,,,,,,,,,,,,,,,,3,9,,,420.6688,8,right,0.3128,,0.5,0.3,"[3,1,2]",0.09553702,stimuli/card_0_transparent.png,0,8,0,8,0,1,,,,,
,,,,1C,B,2024-01-02_10h54.37.394,Slot Machine Game,2023.1.3,MacIntel,60.06006006,sid,session_id,pid,,,,,,,,,,,,,,,,,,,,,,,,,,,720,,,,,,,,,,,,,,,,,,,,,3,9,,,421.8011,9,right,0.4291,,1,0.3,"[3,1,2]",0.567322839,stimuli/card_10_transparent.png,10,9,0,9,0,1,,,,,
,,,,1C,B,2024-01-02_10h54.37.394,Slot Machine Game,2023.1.3,MacIntel,60.06006006,sid,session_id,pid,,,,,,,,,,,,,,,,,,,,,,,,,,,720,,,,,,,,,,,,,,,,,,,,,3,9,,,423.5324,10,right,0.9828,,1.5,0.3,"[3,1,2]",0.003959107,stimuli/card_0_transparent.png,0,10,0,10,0,1,,,,,
,,,,1C,B,2024-01-02_10h54.37.394,Slot Machine Game,2023.1.3,MacIntel,60.06006006,sid,session_id,pid,,,,,,,,,,,,,,,,,,,,,,,,,,,730,,,,,,,,,,,,,,,,,,,,,3,9,,,426.3286,11,right,0.4327,,1,0.3,"[3,1,2]",0.714405997,stimuli/card_10_transparent.png,10,11,0,11,0,1,,,,,
,,,,1C,B,2024-01-02_10h54.37.394,Slot Machine Game,2023.1.3,MacIntel,60.06006006,sid,session_id,pid,,,,,,,,,,,,,,,,,,,,,,,,,,,830,,,,,,,,,,,,,,,,,,,,,3,9,,,428.0798,12,left,3.2911,,1.5,0.3,"[3,1,2]",0.071847242,stimuli/card_100_transparent.png,100,12,0,12,0,1,,,,,
,,,,1C,B,2024-01-02_10h54.37.394,Slot Machine Game,2023.1.3,MacIntel,60.06006006,sid,session_id,pid,,,,,,,,,,,,,,,,,,,,,,,,,,,830,,,,,,,,,,,,,,,,,,,,,3,9,,,433.184,13,left,0.1302,,1.5,0.3,"[3,1,2]",0.720781099,stimuli/card_0_transparent.png,0,13,0,13,0,1,,,,,
,,,,1C,B,2024-01-02_10h54.37.394,Slot Machine Game,2023.1.3,MacIntel,60.06006006,sid,session_id,pid,,,,,,,,,,,,,,,,,,,,,,,,,,,830,,,,,,,,,,,,,,,,,,,,,3,9,,,435.1309,14,left,0.3082,,1.5,0.3,"[3,1,2]",0.348595779,stimuli/card_0_transparent.png,0,14,0,14,0,1,,,,,
,,,,1C,B,2024-01-02_10h54.37.394,Slot Machine Game,2023.1.3,MacIntel,60.06006006,sid,session_id,pid,,,,,,,,,,,,,,,,,,,,,,,,,,,,,,,,,,,437.2443,,,,,,,,,,,,,,,,,,,,,,,,,,,,,,,,,2,0,2,0,1
,,,,1C,B,2024-01-02_10h54.37.394,Slot Machine Game,2023.1.3,MacIntel,60.06006006,sid,session_id,pid,,,,,,,,,,,,,,,,,,,,,,,,,,,100,,,,,,,,,,,,,,,,,,,,,4,1,"[12,15]","[[2,1,3],[2,3,1]]",442.2377,0,up,2.8115,,0.5,0.3,"[2,1,3]",0.55878733,stimuli/card_100_transparent.png,100,0,0,0,0,1,,,,,
,,,,1C,B,2024-01-02_10h54.37.394,Slot Machine Game,2023.1.3,MacIntel,60.06006006,sid,session_id,pid,,,,,,,,,,,,,,,,,,,,,,,,,,,200,,,,,,,,,,,,,,,,,,,,,4,1,,,445.8646,1,up,0.0079,,1.5,0.3,"[2,1,3]",0.521844257,stimuli/card_100_transparent.png,100,1,0,1,0,1,,,,,
,,,,1C,B,2024-01-02_10h54.37.394,Slot Machine Game,2023.1.3,MacIntel,60.06006006,sid,session_id,pid,,,,,,,,,,,,,,,,,,,,,,,,,,,200,,,,,,,,,,,,,,,,,,,,,4,1,,,447.6939,2,up,0.2044,,1,0.3,"[2,1,3]",0.033016927,stimuli/card_0_transparent.png,0,2,0,2,0,1,,,,,
,,,,1C,B,2024-01-02_10h54.37.394,Slot Machine Game,2023.1.3,MacIntel,60.06006006,sid,session_id,pid,,,,,,,,,,,,,,,,,,,,,,,,,,,300,,,,,,,,,,,,,,,,,,,,,4,1,,,449.1933,3,up,0.1607,,1,0.3,"[2,1,3]",0.693513657,stimuli/card_100_transparent.png,100,3,0,3,0,1,,,,,
,,,,1C,B,2024-01-02_10h54.37.394,Slot Machine Game,2023.1.3,MacIntel,60.06006006,sid,session_id,pid,,,,,,,,,,,,,,,,,,,,,,,,,,,310,,,,,,,,,,,,,,,,,,,,,4,1,,,450.6527,4,up,0.0877,,0.5,0.3,"[2,1,3]",0.182141602,stimuli/card_10_transparent.png,10,4,0,4,0,1,,,,,
,,,,1C,B,2024-01-02_10h54.37.394,Slot Machine Game,2023.1.3,MacIntel,60.06006006,sid,session_id,pid,,,,,,,,,,,,,,,,,,,,,,,,,,,320,,,,,,,,,,,,,,,,,,,,,4,1,,,451.5512,5,up,0.1076,,0.5,0.3,"[2,1,3]",0.104201091,stimuli/card_10_transparent.png,10,5,0,5,0,1,,,,,
,,,,1C,B,2024-01-02_10h54.37.394,Slot Machine Game,2023.1.3,MacIntel,60.06006006,sid,session_id,pid,,,,,,,,,,,,,,,,,,,,,,,,,,,420,,,,,,,,,,,,,,,,,,,,,4,1,,,452.4673,6,up,0.1379,,1,0.3,"[2,1,3]",0.819406322,stimuli/card_100_transparent.png,100,6,0,6,0,1,,,,,
,,,,1C,B,2024-01-02_10h54.37.394,Slot Machine Game,2023.1.3,MacIntel,60.06006006,sid,session_id,pid,,,,,,,,,,,,,,,,,,,,,,,,,,,430,,,,,,,,,,,,,,,,,,,,,4,1,,,453.9168,7,up,0.087,,1,0.3,"[2,1,3]",0.159991788,stimuli/card_10_transparent.png,10,7,0,7,0,1,,,,,
,,,,1C,B,2024-01-02_10h54.37.394,Slot Machine Game,2023.1.3,MacIntel,60.06006006,sid,session_id,pid,,,,,,,,,,,,,,,,,,,,,,,,,,,530,,,,,,,,,,,,,,,,,,,,,4,1,,,455.3157,8,up,1.1115,,1,0.3,"[2,1,3]",0.559116602,stimuli/card_100_transparent.png,100,8,0,8,0,1,,,,,
,,,,1C,B,2024-01-02_10h54.37.394,Slot Machine Game,2023.1.3,MacIntel,60.06006006,sid,session_id,pid,,,,,,,,,,,,,,,,,,,,,,,,,,,630,,,,,,,,,,,,,,,,,,,,,4,1,,,457.7434,9,up,0.3467,,1.5,0.3,"[2,1,3]",0.38722028,stimuli/card_100_transparent.png,100,9,0,9,0,1,,,,,
,,,,1C,B,2024-01-02_10h54.37.394,Slot Machine Game,2023.1.3,MacIntel,60.06006006,sid,session_id,pid,,,,,,,,,,,,,,,,,,,,,,,,,,,730,,,,,,,,,,,,,,,,,,,,,4,1,,,459.9115,10,up,0.0294,,1.5,0.3,"[2,1,3]",0.907571956,stimuli/card_100_transparent.png,100,10,0,10,0,1,,,,,
,,,,1C,B,2024-01-02_10h54.37.394,Slot Machine Game,2023.1.3,MacIntel,60.06006006,sid,session_id,pid,,,,,,,,,,,,,,,,,,,,,,,,,,,730,,,,,,,,,,,,,,,,,,,,,4,1,,,461.7516,11,up,0.0794,,1.5,0.3,"[2,1,3]",0.044105079,stimuli/card_0_transparent.png,0,11,0,11,0,1,,,,,
,,,,1C,B,2024-01-02_10h54.37.394,Slot Machine Game,2023.1.3,MacIntel,60.06006006,sid,session_id,pid,,,,,,,,,,,,,,,,,,,,,,,,,,,730,,,,,,,,,,,,,,,,,,,,,4,1,,,463.6486,12,up,0.0329,,1.5,0.3,"[2,3,1]",0.220535937,stimuli/card_0_transparent.png,0,12,0,12,0,1,,,,,
,,,,1C,B,2024-01-02_10h54.37.394,Slot Machine Game,2023.1.3,MacIntel,60.06006006,sid,session_id,pid,,,,,,,,,,,,,,,,,,,,,,,,,,,730,,,,,,,,,,,,,,,,,,,,,4,1,,,465.498,13,up,0.2429,,0.5,0.3,"[2,3,1]",0.331814462,stimuli/card_0_transparent.png,0,13,0,13,0,1,,,,,
,,,,1C,B,2024-01-02_10h54.37.394,Slot Machine Game,2023.1.3,MacIntel,60.06006006,sid,session_id,pid,,,,,,,,,,,,,,,,,,,,,,,,,,,730,,,,,,,,,,,,,,,,,,,,,4,1,,,466.5614,14,up,0.1252,,1.5,0.3,"[2,3,1]",0.825976668,stimuli/card_0_transparent.png,0,14,0,14,0,1,,,,,
,,,,1C,B,2024-01-02_10h54.37.394,Slot Machine Game,2023.1.3,MacIntel,60.06006006,sid,session_id,pid,,,,,,,,,,,,,,,,,,,,,,,,,,,,,,,,,,,468.4945,,,,,,,,,,,,,,,,,,,,,,,,,,,,,,,,,3,0,3,0,1
,,,,1C,B,2024-01-02_10h54.37.394,Slot Machine Game,2023.1.3,MacIntel,60.06006006,sid,session_id,pid,,,,,,,,,,,,,,,,,,,,,,,,,,,100,,,,,,,,,,,,,,,,,,,,,5,2,"[6,15]","[[1,3,2],[3,2,1]]",473.4882,0,right,0.6029,,0.5,0.3,"[1,3,2]",0.132596133,stimuli/card_100_transparent.png,100,0,0,0,0,1,,,,,
,,,,1C,B,2024-01-02_10h54.37.394,Slot Machine Game,2023.1.3,MacIntel,60.06006006,sid,session_id,pid,,,,,,,,,,,,,,,,,,,,,,,,,,,100,,,,,,,,,,,,,,,,,,,,,5,2,,,474.9151,1,right,0.0011,,1.5,0.3,"[1,3,2]",0.017080403,stimuli/card_0_transparent.png,0,1,0,1,0,1,,,,,
,,,,1C,B,2024-01-02_10h54.37.394,Slot Machine Game,2023.1.3,MacIntel,60.06006006,sid,session_id,pid,,,,,,,,,,,,,,,,,,,,,,,,,,,110,,,,,,,,,,,,,,,,,,,,,5,2,,,476.7292,2,right,0.0411,,1,0.3,"[1,3,2]",0.380590922,stimuli/card_10_transparent.png,10,2,0,2,0,1,,,,,
,,,,1C,B,2024-01-02_10h54.37.394,Slot Machine Game,2023.1.3,MacIntel,60.06006006,sid,session_id,pid,,,,,,,,,,,,,,,,,,,,,,,,,,,120,,,,,,,,,,,,,,,,,,,,,5,2,,,478.0784,3,right,0.0739,,0.5,0.3,"[1,3,2]",0.380807421,stimuli/card_10_transparent.png,10,3,0,3,0,1,,,,,
,,,,1C,B,2024-01-02_10h54.37.394,Slot Machine Game,2023.1.3,MacIntel,60.06006006,sid,session_id,pid,,,,,,,,,,,,,,,,,,,,,,,,,,,130,,,,,,,,,,,,,,,,,,,,,5,2,,,478.9583,4,right,0.0758,,0.5,0.3,"[1,3,2]",0.585639207,stimuli/card_10_transparent.png,10,4,0,4,0,1,,,,,
,,,,1C,B,2024-01-02_10h54.37.394,Slot Machine Game,2023.1.3,MacIntel,60.06006006,sid,session_id,pid,,,,,,,,,,,,,,,,,,,,,,,,,,,140,,,,,,,,,,,,,,,,,,,,,5,2,,,479.8436,5,right,0.0999,,1.5,0.3,"[1,3,2]",0.234137172,stimuli/card_10_transparent.png,10,5,0,5,0,1,,,,,
,,,,1C,B,2024-01-02_10h54.37.394,Slot Machine Game,2023.1.3,MacIntel,60.06006006,sid,session_id,pid,,,,,,,,,,,,,,,,,,,,,,,,,,,240,,,,,,,,,,,,,,,,,,,,,5,2,,,481.7519,6,right,0.0997,,1.5,0.3,"[3,2,1]",0.381938884,stimuli/card_100_transparent.png,100,6,0,6,0,1,,,,,
,,,,1C,B,2024-01-02_10h54.37.394,Slot Machine Game,2023.1.3,MacIntel,60.06006006,sid,session_id,pid,,,,,,,,,,,,,,,,,,,,,,,,,,,250,,,,,,,,,,,,,,,,,,,,,5,2,,,483.667,7,left,0.1109,,1.5,0.3,"[3,2,1]",0.189654699,stimuli/card_10_transparent.png,10,7,0,7,0,1,,,,,
,,,,1C,B,2024-01-02_10h54.37.394,Slot Machine Game,2023.1.3,MacIntel,60.06006006,sid,session_id,pid,,,,,,,,,,,,,,,,,,,,,,,,,,,350,,,,,,,,,,,,,,,,,,,,,5,2,,,485.5991,8,right,0.1082,,1,0.3,"[3,2,1]",0.575922224,stimuli/card_100_transparent.png,100,8,0,8,0,1,,,,,
,,,,1C,B,2024-01-02_10h54.37.394,Slot Machine Game,2023.1.3,MacIntel,60.06006006,sid,session_id,pid,,,,,,,,,,,,,,,,,,,,,,,,,,,450,,,,,,,,,,,,,,,,,,,,,5,2,,,487.0127,9,right,0.1963,,1,0.3,"[3,2,1]",0.835208438,stimuli/card_100_transparent.png,100,9,0,9,0,1,,,,,
,,,,1C,B,2024-01-02_10h54.37.394,Slot Machine Game,2023.1.3,MacIntel,60.06006006,sid,session_id,pid,,,,,,,,,,,,,,,,,,,,,,,,,,,550,,,,,,,,,,,,,,,,,,,,,5,2,,,488.5284,10,right,0.077,,1.5,0.3,"[3,2,1]",0.371840622,stimuli/card_100_transparent.png,100,10,0,10,0,1,,,,,
,,,,1C,B,2024-01-02_10h54.37.394,Slot Machine Game,2023.1.3,MacIntel,60.06006006,sid,session_id,pid,,,,,,,,,,,,,,,,,,,,,,,,,,,650,,,,,,,,,,,,,,,,,,,,,5,2,,,490.42,11,right,0.1015,,0.5,0.3,"[3,2,1]",0.214292318,stimuli/card_100_transparent.png,100,11,0,11,0,1,,,,,
,,,,1C,B,2024-01-02_10h54.37.394,Slot Machine Game,2023.1.3,MacIntel,60.06006006,sid,session_id,pid,,,,,,,,,,,,,,,,,,,,,,,,,,,750,,,,,,,,,,,,,,,,,,,,,5,2,,,491.3355,12,right,0.486,,1.5,0.3,"[3,2,1]",0.208351466,stimuli/card_100_transparent.png,100,12,0,12,0,1,,,,,
,,,,1C,B,2024-01-02_10h54.37.394,Slot Machine Game,2023.1.3,MacIntel,60.06006006,sid,session_id,pid,,,,,,,,,,,,,,,,,,,,,,,,,,,850,,,,,,,,,,,,,,,,,,,,,5,2,,,493.6343,13,right,0.096,,0.5,0.3,"[3,2,1]",0.339308771,stimuli/card_100_transparent.png,100,13,0,13,0,1,,,,,
,,,,1C,B,2024-01-02_10h54.37.394,Slot Machine Game,2023.1.3,MacIntel,60.06006006,sid,session_id,pid,,,,,,,,,,,,,,,,,,,,,,,,,,,950,,,,,,,,,,,,,,,,,,,,,5,2,,,494.5494,14,right,0.1001,,1.5,0.3,"[3,2,1]",0.580587651,stimuli/card_100_transparent.png,100,14,0,14,0,1,,,,,
,,,,1C,B,2024-01-02_10h54.37.394,Slot Machine Game,2023.1.3,MacIntel,60.06006006,sid,session_id,pid,,,,,,,,,,,,,,,,,,,,,,,,,,,,,,,,,,,496.4627,,,,,,,,,,,,,,,,,,,,,,,,,,,,,,,,,4,0,4,0,1
,,,,1C,B,2024-01-02_10h54.37.394,Slot Machine Game,2023.1.3,MacIntel,60.06006006,sid,session_id,pid,,,,,,,,,,,,,,,,,,,,,,,,,,,100,,,,,,,,,,,,,,,,,,,,,6,4,"[7,15]","[[2,3,1],[1,2,3]]",501.4548,0,right,0.9027,,1,0.3,"[2,3,1]",0.868062509,stimuli/card_100_transparent.png,100,0,0,0,0,1,,,,,
,,,,1C,B,2024-01-02_10h54.37.394,Slot Machine Game,2023.1.3,MacIntel,60.06006006,sid,session_id,pid,,,,,,,,,,,,,,,,,,,,,,,,,,,100,,,,,,,,,,,,,,,,,,,,,6,4,,,503.6689,1,up,0.0516,,1.5,0.3,"[2,3,1]",0.753284802,stimuli/card_0_transparent.png,0,1,0,1,0,1,,,,,
,,,,1C,B,2024-01-02_10h54.37.394,Slot Machine Game,2023.1.3,MacIntel,60.06006006,sid,session_id,pid,,,,,,,,,,,,,,,,,,,,,,,,,,,200,,,,,,,,,,,,,,,,,,,,,6,4,,,505.5299,2,right,0.2659,,0.5,0.3,"[2,3,1]",0.65452723,stimuli/card_100_transparent.png,100,2,0,2,0,1,,,,,
,,,,1C,B,2024-01-02_10h54.37.394,Slot Machine Game,2023.1.3,MacIntel,60.06006006,sid,session_id,pid,,,,,,,,,,,,,,,,,,,,,,,,,,,300,,,,,,,,,,,,,,,,,,,,,6,4,,,506.6141,3,right,0.0833,,0.5,0.3,"[2,3,1]",0.222137769,stimuli/card_100_transparent.png,100,3,0,3,0,1,,,,,
,,,,1C,B,2024-01-02_10h54.37.394,Slot Machine Game,2023.1.3,MacIntel,60.06006006,sid,session_id,pid,,,,,,,,,,,,,,,,,,,,,,,,,,,400,,,,,,,,,,,,,,,,,,,,,6,4,,,507.5132,4,right,0.7383,,1.5,0.3,"[2,3,1]",0.973700549,stimuli/card_100_transparent.png,100,4,0,4,0,1,,,,,
,,,,1C,B,2024-01-02_10h54.37.394,Slot Machine Game,2023.1.3,MacIntel,60.06006006,sid,session_id,pid,,,,,,,,,,,,,,,,,,,,,,,,,,,500,,,,,,,,,,,,,,,,,,,,,6,4,,,510.0614,5,right,0.5067,,1.5,0.3,"[2,3,1]",0.339375071,stimuli/card_100_transparent.png,100,5,0,5,0,1,,,,,
,,,,1C,B,2024-01-02_10h54.37.394,Slot Machine Game,2023.1.3,MacIntel,60.06006006,sid,session_id,pid,,,,,,,,,,,,,,,,,,,,,,,,,,,600,,,,,,,,,,,,,,,,,,,,,6,4,,,512.3834,6,right,0.613,,0.5,0.3,"[2,3,1]",0.694071397,stimuli/card_100_transparent.png,100,6,0,6,0,1,,,,,
,,,,1C,B,2024-01-02_10h54.37.394,Slot Machine Game,2023.1.3,MacIntel,60.06006006,sid,session_id,pid,,,,,,,,,,,,,,,,,,,,,,,,,,,600,,,,,,,,,,,,,,,,,,,,,6,4,,,513.8004,7,right,0.419,,1.5,0.3,"[1,2,3]",0.801045393,stimuli/card_0_transparent.png,0,7,0,7,0,1,,,,,
,,,,1C,B,2024-01-02_10h54.37.394,Slot Machine Game,2023.1.3,MacIntel,60.06006006,sid,session_id,pid,,,,,,,,,,,,,,,,,,,,,,,,,,,600,,,,,,,,,,,,,,,,,,,,,6,4,,,516.0304,8,right,1.5244,,0.5,0.3,"[1,2,3]",0.293299178,stimuli/card_0_transparent.png,0,8,0,8,0,1,,,,,
,,,,1C,B,2024-01-02_10h54.37.394,Slot Machine Game,2023.1.3,MacIntel,60.06006006,sid,session_id,pid,,,,,,,,,,,,,,,,,,,,,,,,,,,600,,,,,,,,,,,,,,,,,,,,,6,4,,,518.3618,9,right,0.1096,,0.5,0.3,"[1,2,3]",0.908754215,stimuli/card_0_transparent.png,0,9,0,9,0,1,,,,,
,,,,1C,B,2024-01-02_10h54.37.394,Slot Machine Game,2023.1.3,MacIntel,60.06006006,sid,session_id,pid,,,,,,,,,,,,,,,,,,,,,,,,,,,600,,,,,,,,,,,,,,,,,,,,,6,4,,,519.2779,10,right,0.3434,,1,0.3,"[1,2,3]",0.83022551,stimuli/card_0_transparent.png,0,10,0,10,0,1,,,,,
,,,,1C,B,2024-01-02_10h54.37.394,Slot Machine Game,2023.1.3,MacIntel,60.06006006,sid,session_id,pid,,,,,,,,,,,,,,,,,,,,,,,,,,,600,,,,,,,,,,,,,,,,,,,,,6,4,,,520.9201,11,right,0.043,,0.5,0.3,"[1,2,3]",0.764677328,stimuli/card_0_transparent.png,0,11,0,11,0,1,,,,,
,,,,1C,B,2024-01-02_10h54.37.394,Slot Machine Game,2023.1.3,MacIntel,60.06006006,sid,session_id,pid,,,,,,,,,,,,,,,,,,,,,,,,,,,600,,,,,,,,,,,,,,,,,,,,,6,4,,,521.7696,12,right,1.2369,,0.5,0.3,"[1,2,3]",0.659217987,stimuli/card_0_transparent.png,0,12,0,12,0,1,,,,,
,,,,1C,B,2024-01-02_10h54.37.394,Slot Machine Game,2023.1.3,MacIntel,60.06006006,sid,session_id,pid,,,,,,,,,,,,,,,,,,,,,,,,,,,600,,,,,,,,,,,,,,,,,,,,,6,4,,,523.8153,13,right,2.1521,,1.5,0.3,"[1,2,3]",0.901431039,stimuli/card_0_transparent.png,0,13,0,13,0,1,,,,,
,,,,1C,B,2024-01-02_10h54.37.394,Slot Machine Game,2023.1.3,MacIntel,60.06006006,sid,session_id,pid,,,,,,,,,,,,,,,,,,,,,,,,,,,610,,,,,,,,,,,,,,,,,,,,,6,4,,,527.779,14,up,0.3906,,1.5,0.3,"[1,2,3]",0.750417465,stimuli/card_10_transparent.png,10,14,0,14,0,1,,,,,
,,,,1C,B,2024-01-02_10h54.37.394,Slot Machine Game,2023.1.3,MacIntel,60.06006006,sid,session_id,pid,,,,,,,,,,,,,,,,,,,,,,,,,,,,,,,,,,,529.9745,,,,,,,,,,,,,,,,,,,,,,,,,,,,,,,,,5,0,5,0,1
,,,,1C,B,2024-01-02_10h54.37.394,Slot Machine Game,2023.1.3,MacIntel,60.06006006,sid,session_id,pid,,,,,,,,,,,,,,,,,,,,,,,,,,,0,,,,,,,,,,,,,,,,,,,,,7,10,"[10,15]","[[3,1,2],[1,3,2]]",534.9668,0,left,0.5075,,1,0.3,"[3,1,2]",0.592846031,stimuli/card_0_transparent.png,0,0,0,0,0,1,,,,,
,,,,1C,B,2024-01-02_10h54.37.394,Slot Machine Game,2023.1.3,MacIntel,60.06006006,sid,session_id,pid,,,,,,,,,,,,,,,,,,,,,,,,,,,100,,,,,,,,,,,,,,,,,,,,,7,10,,,536.7956,1,up,0.0106,,1.5,0.3,"[3,1,2]",0.483154913,stimuli/card_100_transparent.png,100,1,0,1,0,1,,,,,
,,,,1C,B,2024-01-02_10h54.37.394,Slot Machine Game,2023.1.3,MacIntel,60.06006006,sid,session_id,pid,,,,,,,,,,,,,,,,,,,,,,,,,,,200,,,,,,,,,,,,,,,,,,,,,7,10,,,538.6114,2,up,0.3843,,0.5,0.3,"[3,1,2]",0.385985886,stimuli/card_100_transparent.png,100,2,0,2,0,1,,,,,
,,,,1C,B,2024-01-02_10h54.37.394,Slot Machine Game,2023.1.3,MacIntel,60.06006006,sid,session_id,pid,,,,,,,,,,,,,,,,,,,,,,,,,,,300,,,,,,,,,,,,,,,,,,,,,7,10,,,539.8091,3,up,0.0201,,1,0.3,"[3,1,2]",0.501510173,stimuli/card_100_transparent.png,100,3,0,3,0,1,,,,,
,,,,1C,B,2024-01-02_10h54.37.394,Slot Machine Game,2023.1.3,MacIntel,60.06006006,sid,session_id,pid,,,,,,,,,,,,,,,,,,,,,,,,,,,400,,,,,,,,,,,,,,,,,,,,,7,10,,,541.1342,4,up,0.2376,,1.5,0.3,"[3,1,2]",0.271923362,stimuli/card_100_transparent.png,100,4,0,4,0,1,,,,,
,,,,1C,B,2024-01-02_10h54.37.394,Slot Machine Game,2023.1.3,MacIntel,60.06006006,sid,session_id,pid,,,,,,,,,,,,,,,,,,,,,,,,,,,500,,,,,,,,,,,,,,,,,,,,,7,10,,,543.1815,5,up,0.2439,,1.5,0.3,"[3,1,2]",0.971813246,stimuli/card_100_transparent.png,100,5,0,5,0,1,,,,,
,,,,1C,B,2024-01-02_10h54.37.394,Slot Machine Game,2023.1.3,MacIntel,60.06006006,sid,session_id,pid,,,,,,,,,,,,,,,,,,,,,,,,,,,600,,,,,,,,,,,,,,,,,,,,,7,10,,,545.2299,6,up,0.1099,,0.5,0.3,"[3,1,2]",0.696844033,stimuli/card_100_transparent.png,100,6,0,6,0,1,,,,,
,,,,1C,B,2024-01-02_10h54.37.394,Slot Machine Game,2023.1.3,MacIntel,60.06006006,sid,session_id,pid,,,,,,,,,,,,,,,,,,,,,,,,,,,700,,,,,,,,,,,,,,,,,,,,,7,10,,,546.1474,7,up,0.0475,,1.5,0.3,"[3,1,2]",0.63234823,stimuli/card_100_transparent.png,100,7,0,7,0,1,,,,,
,,,,1C,B,2024-01-02_10h54.37.394,Slot Machine Game,2023.1.3,MacIntel,60.06006006,sid,session_id,pid,,,,,,,,,,,,,,,,,,,,,,,,,,,800,,,,,,,,,,,,,,,,,,,,,7,10,,,548.0151,8,up,0.366,,1,0.3,"[3,1,2]",0.475050051,stimuli/card_100_transparent.png,100,8,0,8,0,1,,,,,
,,,,1C,B,2024-01-02_10h54.37.394,Slot Machine Game,2023.1.3,MacIntel,60.06006006,sid,session_id,pid,,,,,,,,,,,,,,,,,,,,,,,,,,,810,,,,,,,,,,,,,,,,,,,,,7,10,,,549.6921,9,right,0.567,,0.5,0.3,"[3,1,2]",0.678365328,stimuli/card_10_transparent.png,10,9,0,9,0,1,,,,,
,,,,1C,B,2024-01-02_10h54.37.394,Slot Machine Game,2023.1.3,MacIntel,60.06006006,sid,session_id,pid,,,,,,,,,,,,,,,,,,,,,,,,,,,910,,,,,,,,,,,,,,,,,,,,,7,10,,,551.0703,10,right,1.0477,,1.5,0.3,"[1,3,2]",0.170888089,stimuli/card_100_transparent.png,100,10,0,10,0,1,,,,,
,,,,1C,B,2024-01-02_10h54.37.394,Slot Machine Game,2023.1.3,MacIntel,60.06006006,sid,session_id,pid,,,,,,,,,,,,,,,,,,,,,,,,,,,920,,,,,,,,,,,,,,,,,,,,,7,10,,,553.9346,11,right,1.4761,,0.5,0.3,"[1,3,2]",0.610814927,stimuli/card_10_transparent.png,10,11,0,11,0,1,,,,,
,,,,1C,B,2024-01-02_10h54.37.394,Slot Machine Game,2023.1.3,MacIntel,60.06006006,sid,session_id,pid,,,,,,,,,,,,,,,,,,,,,,,,,,,930,,,,,,,,,,,,,,,,,,,,,7,10,,,556.229,12,right,0.4217,,1.5,0.3,"[1,3,2]",0.533147893,stimuli/card_10_transparent.png,10,12,0,12,0,1,,,,,
,,,,1C,B,2024-01-02_10h54.37.394,Slot Machine Game,2023.1.3,MacIntel,60.06006006,sid,session_id,pid,,,,,,,,,,,,,,,,,,,,,,,,,,,940,,,,,,,,,,,,,,,,,,,,,7,10,,,558.4623,13,right,0.121,,1,0.3,"[1,3,2]",0.576508012,stimuli/card_10_transparent.png,10,13,0,13,0,1,,,,,
,,,,1C,B,2024-01-02_10h54.37.394,Slot Machine Game,2023.1.3,MacIntel,60.06006006,sid,session_id,pid,,,,,,,,,,,,,,,,,,,,,,,,,,,940,,,,,,,,,,,,,,,,,,,,,7,10,,,559.8926,14,up,0.0753,,1.5,0.3,"[1,3,2]",0.963186581,stimuli/card_0_transparent.png,0,14,0,14,0,1,,,,,
,,,,1C,B,2024-01-02_10h54.37.394,Slot Machine Game,2023.1.3,MacIntel,60.06006006,sid,session_id,pid,,,,,,,,,,,,,,,,,,,,,,,,,,,,,,,,,,,561.7691,,,,,,,,,,,,,,,,,,,,,,,,,,,,,,,,,6,0,6,0,1
,,,,1C,B,2024-01-02_10h54.37.394,Slot Machine Game,2023.1.3,MacIntel,60.06006006,sid,session_id,pid,,,,,,,,,,,,,,,,,,,,,,,,,,,0,,,,,,,,,,,,,,,,,,,,,8,7,"[9,15]","[[1,3,2],[2,3,1]]",566.7649,0,left,0.3721,,0.5,0.3,"[1,3,2]",0.072062573,stimuli/card_0_transparent.png,0,0,0,0,0,1,,,,,
,,,,1C,B,2024-01-02_10h54.37.394,Slot Machine Game,2023.1.3,MacIntel,60.06006006,sid,session_id,pid,,,,,,,,,,,,,,,,,,,,,,,,,,,0,,,,,,,,,,,,,,,,,,,,,8,7,,,567.9448,1,up,0.233,,0.5,0.3,"[1,3,2]",0.744130124,stimuli/card_0_transparent.png,0,1,0,1,0,1,,,,,
,,,,1C,B,2024-01-02_10h54.37.394,Slot Machine Game,2023.1.3,MacIntel,60.06006006,sid,session_id,pid,,,,,,,,,,,,,,,,,,,,,,,,,,,10,,,,,,,,,,,,,,,,,,,,,8,7,,,568.9937,2,right,0.6487,,1.5,0.3,"[1,3,2]",0.825130922,stimuli/card_10_transparent.png,10,2,0,2,0,1,,,,,
,,,,1C,B,2024-01-02_10h54.37.394,Slot Machine Game,2023.1.3,MacIntel,60.06006006,sid,session_id,pid,,,,,,,,,,,,,,,,,,,,,,,,,,,10,,,,,,,,,,,,,,,,,,,,,8,7,,,571.4496,3,up,0.0118,,1,0.3,"[1,3,2]",0.666674354,stimuli/card_0_transparent.png,0,3,0,3,0,1,,,,,
,,,,1C,B,2024-01-02_10h54.37.394,Slot Machine Game,2023.1.3,MacIntel,60.06006006,sid,session_id,pid,,,,,,,,,,,,,,,,,,,,,,,,,,,110,,,,,,,,,,,,,,,,,,,,,8,7,,,572.7675,4,left,0.1717,,0.5,0.3,"[1,3,2]",0.816744377,stimuli/card_100_transparent.png,100,4,0,4,0,1,,,,,
,,,,1C,B,2024-01-02_10h54.37.394,Slot Machine Game,2023.1.3,MacIntel,60.06006006,sid,session_id,pid,,,,,,,,,,,,,,,,,,,,,,,,,,,210,,,,,,,,,,,,,,,,,,,,,8,7,,,573.7476,5,left,0.3056,,0.5,0.3,"[1,3,2]",0.497706369,stimuli/card_100_transparent.png,100,5,0,5,0,1,,,,,
,,,,1C,B,2024-01-02_10h54.37.394,Slot Machine Game,2023.1.3,MacIntel,60.06006006,sid,session_id,pid,,,,,,,,,,,,,,,,,,,,,,,,,,,310,,,,,,,,,,,,,,,,,,,,,8,7,,,574.8636,6,left,0.1781,,1.5,0.3,"[1,3,2]",0.563262705,stimuli/card_100_transparent.png,100,6,0,6,0,1,,,,,
,,,,1C,B,2024-01-02_10h54.37.394,Slot Machine Game,2023.1.3,MacIntel,60.06006006,sid,session_id,pid,,,,,,,,,,,,,,,,,,,,,,,,,,,410,,,,,,,,,,,,,,,,,,,,,8,7,,,576.8631,7,left,0.0493,,1.5,0.3,"[1,3,2]",0.629146329,stimuli/card_100_transparent.png,100,7,0,7,0,1,,,,,
,,,,1C,B,2024-01-02_10h54.37.394,Slot Machine Game,2023.1.3,MacIntel,60.06006006,sid,session_id,pid,,,,,,,,,,,,,,,,,,,,,,,,,,,510,,,,,,,,,,,,,,,,,,,,,8,7,,,578.727,8,left,0.0215,,1,0.3,"[1,3,2]",0.949830741,stimuli/card_100_transparent.png,100,8,0,8,0,1,,,,,
,,,,1C,B,2024-01-02_10h54.37.394,Slot Machine Game,2023.1.3,MacIntel,60.06006006,sid,session_id,pid,,,,,,,,,,,,,,,,,,,,,,,,,,,520,,,,,,,,,,,,,,,,,,,,,8,7,,,580.0599,9,left,0.0081,,1.5,0.3,"[2,3,1]",0.60295115,stimuli/card_10_transparent.png,10,9,0,9,0,1,,,,,
,,,,1C,B,2024-01-02_10h54.37.394,Slot Machine Game,2023.1.3,MacIntel,60.06006006,sid,session_id,pid,,,,,,,,,,,,,,,,,,,,,,,,,,,530,,,,,,,,,,,,,,,,,,,,,8,7,,,581.8855,10,left,0.1255,,1,0.3,"[2,3,1]",0.502815635,stimuli/card_10_transparent.png,10,10,0,10,0,1,,,,,
,,,,1C,B,2024-01-02_10h54.37.394,Slot Machine Game,2023.1.3,MacIntel,60.06006006,sid,session_id,pid,,,,,,,,,,,,,,,,,,,,,,,,,,,530,,,,,,,,,,,,,,,,,,,,,8,7,,,583.3332,11,up,0.0785,,0.5,0.3,"[2,3,1]",0.856194624,stimuli/card_0_transparent.png,0,11,0,11,0,1,,,,,
,,,,1C,B,2024-01-02_10h54.37.394,Slot Machine Game,2023.1.3,MacIntel,60.06006006,sid,session_id,pid,,,,,,,,,,,,,,,,,,,,,,,,,,,630,,,,,,,,,,,,,,,,,,,,,8,7,,,584.2351,12,right,2.1361,,1,0.3,"[2,3,1]",0.506380535,stimuli/card_100_transparent.png,100,12,0,12,0,1,,,,,
,,,,1C,B,2024-01-02_10h54.37.394,Slot Machine Game,2023.1.3,MacIntel,60.06006006,sid,session_id,pid,,,,,,,,,,,,,,,,,,,,,,,,,,,630,,,,,,,,,,,,,,,,,,,,,8,7,,,587.6777,13,up,0.0497,,0.5,0.3,"[2,3,1]",0.832866464,stimuli/card_0_transparent.png,0,13,0,13,0,1,,,,,
,,,,1C,B,2024-01-02_10h54.37.394,Slot Machine Game,2023.1.3,MacIntel,60.06006006,sid,session_id,pid,,,,,,,,,,,,,,,,,,,,,,,,,,,730,,,,,,,,,,,,,,,,,,,,,8,7,,,588.5436,14,right,0.0206,,1,0.3,"[2,3,1]",0.606009579,stimuli/card_100_transparent.png,100,14,0,14,0,1,,,,,
,,,,1C,B,2024-01-02_10h54.37.394,Slot Machine Game,2023.1.3,MacIntel,60.06006006,sid,session_id,pid,,,,,,,,,,,,,,,,,,,,,,,,,,,,,,,,,,,589.8763,,,,,,,,,,,,,,,,,,,,,,,,,,,,,,,,,7,0,7,0,1
,,,,1C,B,2024-01-02_10h54.37.394,Slot Machine Game,2023.1.3,MacIntel,60.06006006,sid,session_id,pid,,,,,,,,,,,,,,,,,,,,,,,,,,,100,,,,,,,,,,,,,,,,,,,,,9,9,[15],"[[3,1,2]]",594.8684,0,right,0.4639,,1.5,0.3,"[3,1,2]",0.174120346,stimuli/card_100_transparent.png,100,0,0,0,0,1,,,,,
,,,,1C,B,2024-01-02_10h54.37.394,Slot Machine Game,2023.1.3,MacIntel,60.06006006,sid,session_id,pid,,,,,,,,,,,,,,,,,,,,,,,,,,,110,,,,,,,,,,,,,,,,,,,,,9,9,,,597.1456,1,right,0.2863,,1,0.3,"[3,1,2]",0.254082218,stimuli/card_10_transparent.png,10,1,0,1,0,1,,,,,
,,,,1C,B,2024-01-02_10h54.37.394,Slot Machine Game,2023.1.3,MacIntel,60.06006006,sid,session_id,pid,,,,,,,,,,,,,,,,,,,,,,,,,,,120,,,,,,,,,,,,,,,,,,,,,9,9,,,598.7432,2,right,0.5224,,1.5,0.3,"[3,1,2]",0.520400066,stimuli/card_10_transparent.png,10,2,0,2,0,1,,,,,
,,,,1C,B,2024-01-02_10h54.37.394,Slot Machine Game,2023.1.3,MacIntel,60.06006006,sid,session_id,pid,,,,,,,,,,,,,,,,,,,,,,,,,,,220,,,,,,,,,,,,,,,,,,,,,9,9,,,601.0707,3,up,0.2526,,0.5,0.3,"[3,1,2]",0.573513769,stimuli/card_100_transparent.png,100,3,0,3,0,1,,,,,
,,,,1C,B,2024-01-02_10h54.37.394,Slot Machine Game,2023.1.3,MacIntel,60.06006006,sid,session_id,pid,,,,,,,,,,,,,,,,,,,,,,,,,,,320,,,,,,,,,,,,,,,,,,,,,9,9,,,602.1325,4,up,0.2478,,0.5,0.3,"[3,1,2]",0.472150547,stimuli/card_100_transparent.png,100,4,0,4,0,1,,,,,
,,,,1C,B,2024-01-02_10h54.37.394,Slot Machine Game,2023.1.3,MacIntel,60.06006006,sid,session_id,pid,,,,,,,,,,,,,,,,,,,,,,,,,,,320,,,,,,,,,,,,,,,,,,,,,9,9,,,603.1986,5,up,0.0855,,0.5,0.3,"[3,1,2]",0.096946042,stimuli/card_0_transparent.png,0,5,0,5,0,1,,,,,
,,,,1C,B,2024-01-02_10h54.37.394,Slot Machine Game,2023.1.3,MacIntel,60.06006006,sid,session_id,pid,,,,,,,,,,,,,,,,,,,,,,,,,,,320,,,,,,,,,,,,,,,,,,,,,9,9,,,604.1019,6,up,0.2484,,1.5,0.3,"[3,1,2]",0.060585496,stimuli/card_0_transparent.png,0,6,0,6,0,1,,,,,
,,,,1C,B,2024-01-02_10h54.37.394,Slot Machine Game,2023.1.3,MacIntel,60.06006006,sid,session_id,pid,,,,,,,,,,,,,,,,,,,,,,,,,,,320,,,,,,,,,,,,,,,,,,,,,9,9,,,606.1658,7,left,0.1208,,1,0.3,"[3,1,2]",0.800564453,stimuli/card_0_transparent.png,0,7,0,7,0,1,,,,,
,,,,1C,B,2024-01-02_10h54.37.394,Slot Machine Game,2023.1.3,MacIntel,60.06006006,sid,session_id,pid,,,,,,,,,,,,,,,,,,,,,,,,,,,330,,,,,,,,,,,,,,,,,,,,,9,9,,,607.5967,8,up,0.1565,,1,0.3,"[3,1,2]",0.193545292,stimuli/card_10_transparent.png,10,8,0,8,0,1,,,,,
,,,,1C,B,2024-01-02_10h54.37.394,Slot Machine Game,2023.1.3,MacIntel,60.06006006,sid,session_id,pid,,,,,,,,,,,,,,,,,,,,,,,,,,,430,,,,,,,,,,,,,,,,,,,,,9,9,,,609.0613,9,right,0.5073,,1.5,0.3,"[3,1,2]",0.12748315,stimuli/card_100_transparent.png,100,9,0,9,0,1,,,,,
,,,,1C,B,2024-01-02_10h54.37.394,Slot Machine Game,2023.1.3,MacIntel,60.06006006,sid,session_id,pid,,,,,,,,,,,,,,,,,,,,,,,,,,,440,,,,,,,,,,,,,,,,,,,,,9,9,,,611.3701,10,right,0.1032,,1.5,0.3,"[3,1,2]",0.782926461,stimuli/card_10_transparent.png,10,10,0,10,0,1,,,,,
,,,,1C,B,2024-01-02_10h54.37.394,Slot Machine Game,2023.1.3,MacIntel,60.06006006,sid,session_id,pid,,,,,,,,,,,,,,,,,,,,,,,,,,,450,,,,,,,,,,,,,,,,,,,,,9,9,,,613.2852,11,right,0.0297,,1,0.3,"[3,1,2]",0.793394011,stimuli/card_10_transparent.png,10,11,0,11,0,1,,,,,
,,,,1C,B,2024-01-02_10h54.37.394,Slot Machine Game,2023.1.3,MacIntel,60.06006006,sid,session_id,pid,,,,,,,,,,,,,,,,,,,,,,,,,,,460,,,,,,,,,,,,,,,,,,,,,9,9,,,614.6308,12,right,0.076,,0.5,0.3,"[3,1,2]",0.2748451,stimuli/card_10_transparent.png,10,12,0,12,0,1,,,,,
,,,,1C,B,2024-01-02_10h54.37.394,Slot Machine Game,2023.1.3,MacIntel,60.06006006,sid,session_id,pid,,,,,,,,,,,,,,,,,,,,,,,,,,,560,,,,,,,,,,,,,,,,,,,,,9,9,,,615.5149,13,right,0.0661,,1,0.3,"[3,1,2]",0.160379502,stimuli/card_100_transparent.png,100,13,0,13,0,1,,,,,
,,,,1C,B,2024-01-02_10h54.37.394,Slot Machine Game,2023.1.3,MacIntel,60.06006006,sid,session_id,pid,,,,,,,,,,,,,,,,,,,,,,,,,,,570,,,,,,,,,,,,,,,,,,,,,9,9,,,616.896,14,right,0.0865,,1.5,0.3,"[3,1,2]",0.478606544,stimuli/card_10_transparent.png,10,14,0,14,0,1,,,,,
,,,,1C,B,2024-01-02_10h54.37.394,Slot Machine Game,2023.1.3,MacIntel,60.06006006,sid,session_id,pid,,,,,,,,,,,,,,,,,,,,,,,,,,,,,,,,,,,618.7933,,,,,,,,,,,,,,,,,,,,,,,,,,,,,,,,,8,0,8,0,1
,,,,1C,B,2024-01-02_10h54.37.394,Slot Machine Game,2023.1.3,MacIntel,60.06006006,sid,session_id,pid,,,,,,,,,,,,,,,,,,,,,,,,,,,100,,,,,,,,,,,,,,,,,,,,,10,6,"[4,10,15]","[[2,3,1],[1,3,2],[3,2,1]]",623.7868,0,right,0.4827,,1,0.3,"[2,3,1]",0.529566337,stimuli/card_100_transparent.png,100,0,0,0,0,1,,,,,
,,,,1C,B,2024-01-02_10h54.37.394,Slot Machine Game,2023.1.3,MacIntel,60.06006006,sid,session_id,pid,,,,,,,,,,,,,,,,,,,,,,,,,,,100,,,,,,,,,,,,,,,,,,,,,10,6,,,625.5834,1,up,2.1942,,1.5,0.3,"[2,3,1]",0.952628202,stimuli/card_0_transparent.png,0,1,0,1,0,1,,,,,
,,,,1C,B,2024-01-02_10h54.37.394,Slot Machine Game,2023.1.3,MacIntel,60.06006006,sid,session_id,pid,,,,,,,,,,,,,,,,,,,,,,,,,,,100,,,,,,,,,,,,,,,,,,,,,10,6,,,629.5865,2,up,0.1089,,1.5,0.3,"[2,3,1]",0.205233234,stimuli/card_0_transparent.png,0,2,0,2,0,1,,,,,
,,,,1C,B,2024-01-02_10h54.37.394,Slot Machine Game,2023.1.3,MacIntel,60.06006006,sid,session_id,pid,,,,,,,,,,,,,,,,,,,,,,,,,,,100,,,,,,,,,,,,,,,,,,,,,10,6,,,631.5479,3,up,0.3985,0.0002,1.5,0.3,"[2,3,1]",0.810307031,stimuli/card_0_transparent.png,0,3,0,3,0,1,,,,,
,,,,1C,B,2024-01-02_10h54.37.394,Slot Machine Game,2023.1.3,MacIntel,60.06006006,sid,session_id,pid,,,,,,,,,,,,,,,,,,,,,,,,,,,100,,,,,,,,,,,,,,,,,,,,,10,6,,,633.8977,4,up,0.1522,,0.5,0.3,"[1,3,2]",0.65478316,stimuli/card_0_transparent.png,0,4,0,4,0,1,,,,,
,,,,1C,B,2024-01-02_10h54.37.394,Slot Machine Game,2023.1.3,MacIntel,60.06006006,sid,session_id,pid,,,,,,,,,,,,,,,,,,,,,,,,,,,110,,,,,,,,,,,,,,,,,,,,,10,6,,,634.8637,5,up,0.218,,0.5,0.3,"[1,3,2]",0.121837563,stimuli/card_10_transparent.png,10,5,0,5,0,1,,,,,
,,,,1C,B,2024-01-02_10h54.37.394,Slot Machine Game,2023.1.3,MacIntel,60.06006006,sid,session_id,pid,,,,,,,,,,,,,,,,,,,,,,,,,,,210,,,,,,,,,,,,,,,,,,,,,10,6,,,635.8977,6,up,0.0389,,1.5,0.3,"[1,3,2]",0.065771793,stimuli/card_100_transparent.png,100,6,0,6,0,1,,,,,
,,,,1C,B,2024-01-02_10h54.37.394,Slot Machine Game,2023.1.3,MacIntel,60.06006006,sid,session_id,pid,,,,,,,,,,,,,,,,,,,,,,,,,,,220,,,,,,,,,,,,,,,,,,,,,10,6,,,637.7462,7,up,0.1512,,0.5,0.3,"[1,3,2]",0.154389762,stimuli/card_10_transparent.png,10,7,0,7,0,1,,,,,
,,,,1C,B,2024-01-02_10h54.37.394,Slot Machine Game,2023.1.3,MacIntel,60.06006006,sid,session_id,pid,,,,,,,,,,,,,,,,,,,,,,,,,,,220,,,,,,,,,,,,,,,,,,,,,10,6,,,638.7132,8,up,0.0353,,0.5,0.3,"[1,3,2]",0.575007504,stimuli/card_0_transparent.png,0,8,0,8,0,1,,,,,
,,,,1C,B,2024-01-02_10h54.37.394,Slot Machine Game,2023.1.3,MacIntel,60.06006006,sid,session_id,pid,,,,,,,,,,,,,,,,,,,,,,,,,,,320,,,,,,,,,,,,,,,,,,,,,10,6,,,639.5628,9,up,0.3016,,1,0.3,"[1,3,2]",0.051131597,stimuli/card_100_transparent.png,100,9,0,9,0,1,,,,,
,,,,1C,B,2024-01-02_10h54.37.394,Slot Machine Game,2023.1.3,MacIntel,60.06006006,sid,session_id,pid,,,,,,,,,,,,,,,,,,,,,,,,,,,420,,,,,,,,,,,,,,,,,,,,,10,6,,,641.1682,10,up,0.0715,,1,0.3,"[3,2,1]",0.194069536,stimuli/card_100_transparent.png,100,10,0,10,0,1,,,,,
,,,,1C,B,2024-01-02_10h54.37.394,Slot Machine Game,2023.1.3,MacIntel,60.06006006,sid,session_id,pid,,,,,,,,,,,,,,,,,,,,,,,,,,,420,,,,,,,,,,,,,,,,,,,,,10,6,,,642.5525,11,up,0.0978,,1.5,0.3,"[3,2,1]",0.065070248,stimuli/card_0_transparent.png,0,11,0,11,0,1,,,,,
,,,,1C,B,2024-01-02_10h54.37.394,Slot Machine Game,2023.1.3,MacIntel,60.06006006,sid,session_id,pid,,,,,,,,,,,,,,,,,,,,,,,,,,,430,,,,,,,,,,,,,,,,,,,,,10,6,,,644.4658,12,up,0.2347,,1,0.3,"[3,2,1]",0.240720714,stimuli/card_10_transparent.png,10,12,0,12,0,1,,,,,
,,,,1C,B,2024-01-02_10h54.37.394,Slot Machine Game,2023.1.3,MacIntel,60.06006006,sid,session_id,pid,,,,,,,,,,,,,,,,,,,,,,,,,,,440,,,,,,,,,,,,,,,,,,,,,10,6,,,646.0618,13,up,0.4235,,1.5,0.3,"[3,2,1]",0.533036959,stimuli/card_10_transparent.png,10,13,0,13,0,1,,,,,
,,,,1C,B,2024-01-02_10h54.37.394,Slot Machine Game,2023.1.3,MacIntel,60.06006006,sid,session_id,pid,,,,,,,,,,,,,,,,,,,,,,,,,,,450,,,,,,,,,,,,,,,,,,,,,10,6,,,648.2933,14,up,0.0539,,0.5,0.3,"[3,2,1]",0.219190236,stimuli/card_10_transparent.png,10,14,0,14,0,1,,,,,
,,,,1C,B,2024-01-02_10h54.37.394,Slot Machine Game,2023.1.3,MacIntel,60.06006006,sid,session_id,pid,,,,,,,,,,,,,,,,,,,,,,,,,,,,,,,,,,,649.1618,,,,,,,,,,,,,,,,,,,,,,,,,,,,,,,,,9,0,9,0,1
,,,,1C,B,2024-01-02_10h54.37.394,Slot Machine Game,2023.1.3,MacIntel,60.06006006,sid,session_id,pid,,,,,,,,,,,,,,,,,,,,,,,,,,,,,,,,,,,,,,,,,,,,,,,,,,,,,,,,,,,,,,,,,,,,,,,,
