participant,date,expName,psychopyVersion,OS,frameRate,key_resp_instruction1.started,key_resp_instruction1.keys,key_resp_instruction1.rt,key_resp_instruction1.duration,key_resp_instruction2.started,key_resp_instruction2.keys,key_resp_instruction2.rt,key_resp_instruction2.duration,key_resp_instruction3.started,key_resp_instruction3.keys,key_resp_instruction3.rt,key_resp_instruction3.duration,practiceCondition,practice_reward_seqs,key_resp_practice_slots.started,key_resp_practice_slots.keys,key_resp_practice_slots.rt,key_resp_practice_slots.duration,presentationInterval,"practice_reward_seq: 2,1,3",reward_Img,Cuml_rew,currentPracticeTrialReward,practice_trials.thisRepN,practice_trials.thisTrialN,practice_trials.thisN,practice_trials.thisIndex,practice_trials.ran,"practice_reward_seq: 2,3,1",text_block_break.started,practice_block.thisRepN,practice_block.thisTrialN,practice_block.thisN,practice_block.thisIndex,practice_block.ran,"practice_reward_seq: 1,3,2","practice_reward_seq: 3,1,2",key_resp_practice_end.started,key_resp_practice_end.keys,key_resp_practice_end.rt,key_resp_practice_end.duration,text_main_instruction.started,BlockCondition,BlockOrderIndices,key_resp_main_instruction.started,key_resp_main_instruction.keys,key_resp_main_instruction.rt,key_resp_main_instruction.duration,currentCondition,main_reward_seqs,key_resp_slots_presentation.started,key_resp_slots_presentation.keys,key_resp_slots_presentation.rt,key_resp_slots_presentation.duration,Main_presentationInterval,rewardPresentationTime,Main_reward_seq,Random value generated,Main_reward_Img,Main_Cumul_Reward,Main_currentTrialReward,main_trials.thisRepN,main_trials.thisTrialN,main_trials.thisN,main_trials.thisIndex,main_trials.ran,block.thisRepN,block.thisTrialN,block.thisN,block.thisIndex,block.ran
Vincenzo Fiore,2023-09-28_12h57.26.541,slotMachine_updated,2023.1.3,Win32,59.46010227,,,,,,,,,,,,,,,,,,,,,,,,,,,,,,,,,,,,,,,,,,,,,,,,,,,,,,,,,,,,,,,,,,,,,,,
Vincenzo Fiore,2023-09-28_12h57.26.541,slotMachine_updated,2023.1.3,Win32,59.46010227,124.9837,down,10.2598,,,,,,,,,,,,,,,,,,,,,,,,,,,,,,,,,,,,,,,,,,,,,,,,,,,,,,,,,,,,,,,,,,,,
Vincenzo Fiore,2023-09-28_12h57.26.541,slotMachine_updated,2023.1.3,Win32,59.46010227,,,,,135.2768,down,5.2719,,,,,,,,,,,,,,,,,,,,,,,,,,,,,,,,,,,,,,,,,,,,,,,,,,,,,,,,,,,,,,,,
Vincenzo Fiore,2023-09-28_12h57.26.541,slotMachine_updated,2023.1.3,Win32,59.46010227,,,,,,,,,140.5838,down,3.4186,,,,,,,,,,,,,,,,,,,,,,,,,,,,,,,,,,,,,,,,,,,,,,,,,,,,,,,,,,,,
Vincenzo Fiore,2023-09-28_12h57.26.541,slotMachine_updated,2023.1.3,Win32,59.46010227,,,,,,,,,,,,,"[9,15]","[[2,1,3],[2,3,1]]",144.0304,up,1.6285,,0.5,,stimuli/card_100_transparent.png,100,100,0,0,0,0,1,,,,,,,,,,,,,,,,,,,,,,,,,,,,,,,,,,,,,,,,,,,
Vincenzo Fiore,2023-09-28_12h57.26.541,slotMachine_updated,2023.1.3,Win32,59.46010227,,,,,,,,,,,,,,,146.4882,,,,0.5,,,,,1,0,1,0,1,,,,,,,,,,,,,,,,,,,,,,,,,,,,,,,,,,,,,,,,,,,
Vincenzo Fiore,2023-09-28_12h57.26.541,slotMachine_updated,2023.1.3,Win32,59.46010227,,,,,,,,,,,,,,,152.0006,up,2.2006,,1.5,,stimuli/card_100_transparent.png,200,100,2,0,2,0,1,,,,,,,,,,,,,,,,,,,,,,,,,,,,,,,,,,,,,,,,,,,
Vincenzo Fiore,2023-09-28_12h57.26.541,slotMachine_updated,2023.1.3,Win32,59.46010227,,,,,,,,,,,,,,,156.014,up,1.6271,,0.5,,stimuli/card_100_transparent.png,300,100,3,0,3,0,1,,,,,,,,,,,,,,,,,,,,,,,,,,,,,,,,,,,,,,,,,,,
Vincenzo Fiore,2023-09-28_12h57.26.541,slotMachine_updated,2023.1.3,Win32,59.46010227,,,,,,,,,,,,,,,158.4513,up,1.4606,,0.5,,stimuli/card_100_transparent.png,400,100,4,0,4,0,1,,,,,,,,,,,,,,,,,,,,,,,,,,,,,,,,,,,,,,,,,,,
Vincenzo Fiore,2023-09-28_12h57.26.541,slotMachine_updated,2023.1.3,Win32,59.46010227,,,,,,,,,,,,,,,160.7353,up,1.2309,,1.5,,stimuli/card_100_transparent.png,500,100,5,0,5,0,1,,,,,,,,,,,,,,,,,,,,,,,,,,,,,,,,,,,,,,,,,,,
Vincenzo Fiore,2023-09-28_12h57.26.541,slotMachine_updated,2023.1.3,Win32,59.46010227,,,,,,,,,,,,,,,163.7882,up,2.5534,,1,,stimuli/card_100_transparent.png,600,100,6,0,6,0,1,,,,,,,,,,,,,,,,,,,,,,,,,,,,,,,,,,,,,,,,,,,
Vincenzo Fiore,2023-09-28_12h57.26.541,slotMachine_updated,2023.1.3,Win32,59.46010227,,,,,,,,,,,,,,,167.6588,up,1.1353,,1,,stimuli/card_0_transparent.png,600,0,7,0,7,0,1,,,,,,,,,,,,,,,,,,,,,,,,,,,,,,,,,,,,,,,,,,,
Vincenzo Fiore,2023-09-28_12h57.26.541,slotMachine_updated,2023.1.3,Win32,59.46010227,,,,,,,,,,,,,,,170.1125,up,0.6681,,1.5,,stimuli/card_100_transparent.png,700,100,8,0,8,0,1,,,,,,,,,,,,,,,,,,,,,,,,,,,,,,,,,,,,,,,,,,,
Vincenzo Fiore,2023-09-28_12h57.26.541,slotMachine_updated,2023.1.3,Win32,59.46010227,,,,,,,,,,,,,,,172.5972,up,0.4812,,1.5,,stimuli/card_0_transparent.png,700,0,9,0,9,0,1,,,,,,,,,,,,,,,,,,,,,,,,,,,,,,,,,,,,,,,,,,,
Vincenzo Fiore,2023-09-28_12h57.26.541,slotMachine_updated,2023.1.3,Win32,59.46010227,,,,,,,,,,,,,,,174.9001,up,0.7489,,1,,stimuli/card_0_transparent.png,700,0,10,0,10,0,1,,,,,,,,,,,,,,,,,,,,,,,,,,,,,,,,,,,,,,,,,,,
Vincenzo Fiore,2023-09-28_12h57.26.541,slotMachine_updated,2023.1.3,Win32,59.46010227,,,,,,,,,,,,,,,176.968,up,0.4089,,1.5,,stimuli/card_0_transparent.png,700,0,11,0,11,0,1,,,,,,,,,,,,,,,,,,,,,,,,,,,,,,,,,,,,,,,,,,,
Vincenzo Fiore,2023-09-28_12h57.26.541,slotMachine_updated,2023.1.3,Win32,59.46010227,,,,,,,,,,,,,,,179.1869,left,0.2377,,0.5,,stimuli/card_0_transparent.png,700,0,12,0,12,0,1,,,,,,,,,,,,,,,,,,,,,,,,,,,,,,,,,,,,,,,,,,,
Vincenzo Fiore,2023-09-28_12h57.26.541,slotMachine_updated,2023.1.3,Win32,59.46010227,,,,,,,,,,,,,,,180.2379,left,0.5598,,0.5,,stimuli/card_100_transparent.png,800,100,13,0,13,0,1,,,,,,,,,,,,,,,,,,,,,,,,,,,,,,,,,,,,,,,,,,,
Vincenzo Fiore,2023-09-28_12h57.26.541,slotMachine_updated,2023.1.3,Win32,59.46010227,,,,,,,,,,,,,,,181.6071,left,0.5307,,1,,stimuli/card_10_transparent.png,810,10,14,0,14,0,1,,,,,,,,,,,,,,,,,,,,,,,,,,,,,,,,,,,,,,,,,,,
Vincenzo Fiore,2023-09-28_12h57.26.541,slotMachine_updated,2023.1.3,Win32,59.46010227,,,,,,,,,,,,,,,,,,,,,,,,,,,,,,183.4593,0,0,0,0,1,,,,,,,,,,,,,,,,,,,,,,,,,,,,,,,,,,,,
Vincenzo Fiore,2023-09-28_12h57.26.541,slotMachine_updated,2023.1.3,Win32,59.46010227,,,,,,,,,,,,,"[6,15]","[[1,3,2],[3,1,2]]",,,,,,,,,,,,,,,,,,,,,,,,,,,,,,,,,,,,,,,,,,,,,,,,,,,,,,,,,
Vincenzo Fiore,2023-09-28_12h57.26.541,slotMachine_updated,2023.1.3,Win32,59.46010227,,,,,,,,,,,,,,,188.4657,right,0.9464,,1,,stimuli/card_10_transparent.png,10,10,0,0,0,0,1,,,,,,,,,,,,,,,,,,,,,,,,,,,,,,,,,,,,,,,,,,,
Vincenzo Fiore,2023-09-28_12h57.26.541,slotMachine_updated,2023.1.3,Win32,59.46010227,,,,,,,,,,,,,,,190.7319,right,0.4675,,0.5,,stimuli/card_10_transparent.png,20,10,1,0,1,0,1,,,,,,,,,,,,,,,,,,,,,,,,,,,,,,,,,,,,,,,,,,,
Vincenzo Fiore,2023-09-28_12h57.26.541,slotMachine_updated,2023.1.3,Win32,59.46010227,,,,,,,,,,,,,,,192.0334,right,0.4262,,1.5,,stimuli/card_10_transparent.png,30,10,2,0,2,0,1,,,,,,,,,,,,,,,,,,,,,,,,,,,,,,,,,,,,,,,,,,,
Vincenzo Fiore,2023-09-28_12h57.26.541,slotMachine_updated,2023.1.3,Win32,59.46010227,,,,,,,,,,,,,,,194.2869,right,0.5256,,0.5,,stimuli/card_10_transparent.png,40,10,3,0,3,0,1,,,,,,,,,,,,,,,,,,,,,,,,,,,,,,,,,,,,,,,,,,,
Vincenzo Fiore,2023-09-28_12h57.26.541,slotMachine_updated,2023.1.3,Win32,59.46010227,,,,,,,,,,,,,,,195.6369,up,1.1202,,1.5,,stimuli/card_100_transparent.png,140,100,4,0,4,0,1,,,,,,,,,,,,,,,,,,,,,,,,,,,,,,,,,,,,,,,,,,,
Vincenzo Fiore,2023-09-28_12h57.26.541,slotMachine_updated,2023.1.3,Win32,59.46010227,,,,,,,,,,,,,,,198.5898,up,0.5661,0.0001,0.5,,stimuli/card_0_transparent.png,140,0,5,0,5,0,1,,,,,,,,,,,,,,,,,,,,,,,,,,,,,,,,,,,,,,,,,,,
Vincenzo Fiore,2023-09-28_12h57.26.541,slotMachine_updated,2023.1.3,Win32,59.46010227,,,,,,,,,,,,,,,199.9744,up,0.5177,,0.5,,stimuli/card_100_transparent.png,240,100,6,0,6,0,1,,,,,,,,,,,,,,,,,,,,,,,,,,,,,,,,,,,,,,,,,,,
Vincenzo Fiore,2023-09-28_12h57.26.541,slotMachine_updated,2023.1.3,Win32,59.46010227,,,,,,,,,,,,,,,201.3257,up,0.4714,,0.5,,stimuli/card_100_transparent.png,340,100,7,0,7,0,1,,,,,,,,,,,,,,,,,,,,,,,,,,,,,,,,,,,,,,,,,,,
Vincenzo Fiore,2023-09-28_12h57.26.541,slotMachine_updated,2023.1.3,Win32,59.46010227,,,,,,,,,,,,,,,202.6155,up,0.4243,,0.5,,stimuli/card_100_transparent.png,440,100,8,0,8,0,1,,,,,,,,,,,,,,,,,,,,,,,,,,,,,,,,,,,,,,,,,,,
Vincenzo Fiore,2023-09-28_12h57.26.541,slotMachine_updated,2023.1.3,Win32,59.46010227,,,,,,,,,,,,,,,203.8613,up,0.4338,,1,,stimuli/card_100_transparent.png,540,100,9,0,9,0,1,,,,,,,,,,,,,,,,,,,,,,,,,,,,,,,,,,,,,,,,,,,
Vincenzo Fiore,2023-09-28_12h57.26.541,slotMachine_updated,2023.1.3,Win32,59.46010227,,,,,,,,,,,,,,,205.6303,up,0.3577,,1.5,,stimuli/card_100_transparent.png,640,100,10,0,10,0,1,,,,,,,,,,,,,,,,,,,,,,,,,,,,,,,,,,,,,,,,,,,
Vincenzo Fiore,2023-09-28_12h57.26.541,slotMachine_updated,2023.1.3,Win32,59.46010227,,,,,,,,,,,,,,,207.8205,up,0.5003,,0.5,,stimuli/card_100_transparent.png,740,100,11,0,11,0,1,,,,,,,,,,,,,,,,,,,,,,,,,,,,,,,,,,,,,,,,,,,
Vincenzo Fiore,2023-09-28_12h57.26.541,slotMachine_updated,2023.1.3,Win32,59.46010227,,,,,,,,,,,,,,,209.1515,up,0.6855,,1,,stimuli/card_100_transparent.png,840,100,12,0,12,0,1,,,,,,,,,,,,,,,,,,,,,,,,,,,,,,,,,,,,,,,,,,,
Vincenzo Fiore,2023-09-28_12h57.26.541,slotMachine_updated,2023.1.3,Win32,59.46010227,,,,,,,,,,,,,,,211.1688,up,1.328,,1,,stimuli/card_100_transparent.png,940,100,13,0,13,0,1,,,,,,,,,,,,,,,,,,,,,,,,,,,,,,,,,,,,,,,,,,,
Vincenzo Fiore,2023-09-28_12h57.26.541,slotMachine_updated,2023.1.3,Win32,59.46010227,,,,,,,,,,,,,,,213.8216,up,0.5005,,0.5,,stimuli/card_10_transparent.png,950,10,14,0,14,0,1,,,,,,,,,,,,,,,,,,,,,,,,,,,,,,,,,,,,,,,,,,,
Vincenzo Fiore,2023-09-28_12h57.26.541,slotMachine_updated,2023.1.3,Win32,59.46010227,,,,,,,,,,,,,,,,,,,,,,,,,,,,,,,,,,,,,,215.1394,space,9.2321,,,,,,,,,,,,,,,,,,,,,,,,,,,,,,,
Vincenzo Fiore,2023-09-28_12h57.26.541,slotMachine_updated,2023.1.3,Win32,59.46010227,,,,,,,,,,,,,,,,,,,,,,,,,,,,,,,,,,,,,,,,,,224.3988,1,"[0,1,2,3,4,5,6,7,8,9]",224.3988,space,1.2258,,,,,,,,,,,,,,,,,,,,,,,,
Vincenzo Fiore,2023-09-28_12h57.26.541,slotMachine_updated,2023.1.3,Win32,59.46010227,,,,,,,,,,,,,,,,,,,,,,,,,,,,,,,,,,,,,,,,,,,,,,,,,"[12,15]","[[2,1,3],[2,3,1]]",225.6573,left,1.3848,,0.5,0.3,"[2,1,3]",0.490742623,stimuli/card_10_transparent.png,10,10,0,0,0,0,1,,,,,
Vincenzo Fiore,2023-09-28_12h57.26.541,slotMachine_updated,2023.1.3,Win32,59.46010227,,,,,,,,,,,,,,,,,,,,,,,,,,,,,,,,,,,,,,,,,,,,,,,,,,,227.8525,left,0.7883,,0.5,0.3,"[2,1,3]",0.660750007,stimuli/card_10_transparent.png,20,10,1,0,1,0,1,,,,,
Vincenzo Fiore,2023-09-28_12h57.26.541,slotMachine_updated,2023.1.3,Win32,59.46010227,,,,,,,,,,,,,,,,,,,,,,,,,,,,,,,,,,,,,,,,,,,,,,,,,,,229.4705,up,1.6268,,0.5,0.3,"[2,1,3]",0.545761602,stimuli/card_100_transparent.png,120,100,2,0,2,0,1,,,,,
Vincenzo Fiore,2023-09-28_12h57.26.541,slotMachine_updated,2023.1.3,Win32,59.46010227,,,,,,,,,,,,,,,,,,,,,,,,,,,,,,,,,,,,,,,,,,,,,,,,,,,231.9244,up,0.5334,,1.5,0.3,"[2,1,3]",0.184626713,stimuli/card_10_transparent.png,130,10,3,0,3,0,1,,,,,
Vincenzo Fiore,2023-09-28_12h57.26.541,slotMachine_updated,2023.1.3,Win32,59.46010227,,,,,,,,,,,,,,,,,,,,,,,,,,,,,,,,,,,,,,,,,,,,,,,,,,,234.2762,up,0.6844,,0.5,0.3,"[2,1,3]",0.747461165,stimuli/card_100_transparent.png,230,100,4,0,4,0,1,,,,,
Vincenzo Fiore,2023-09-28_12h57.26.541,slotMachine_updated,2023.1.3,Win32,59.46010227,,,,,,,,,,,,,,,,,,,,,,,,,,,,,,,,,,,,,,,,,,,,,,,,,,,235.7937,up,0.4947,,1,0.3,"[2,1,3]",0.8810319,stimuli/card_100_transparent.png,330,100,5,0,5,0,1,,,,,
Vincenzo Fiore,2023-09-28_12h57.26.541,slotMachine_updated,2023.1.3,Win32,59.46010227,,,,,,,,,,,,,,,,,,,,,,,,,,,,,,,,,,,,,,,,,,,,,,,,,,,237.6118,up,0.5715,,1,0.3,"[2,1,3]",0.624693263,stimuli/card_100_transparent.png,430,100,6,0,6,0,1,,,,,
Vincenzo Fiore,2023-09-28_12h57.26.541,slotMachine_updated,2023.1.3,Win32,59.46010227,,,,,,,,,,,,,,,,,,,,,,,,,,,,,,,,,,,,,,,,,,,,,,,,,,,239.5138,up,0.6166,,1.5,0.3,"[2,1,3]",0.875074823,stimuli/card_100_transparent.png,530,100,7,0,7,0,1,,,,,
Vincenzo Fiore,2023-09-28_12h57.26.541,slotMachine_updated,2023.1.3,Win32,59.46010227,,,,,,,,,,,,,,,,,,,,,,,,,,,,,,,,,,,,,,,,,,,,,,,,,,,241.9495,up,0.7513,,1.5,0.3,"[2,1,3]",0.461150694,stimuli/card_100_transparent.png,630,100,8,0,8,0,1,,,,,
Vincenzo Fiore,2023-09-28_12h57.26.541,slotMachine_updated,2023.1.3,Win32,59.46010227,,,,,,,,,,,,,,,,,,,,,,,,,,,,,,,,,,,,,,,,,,,,,,,,,,,244.5367,up,0.4096,,0.5,0.3,"[2,1,3]",0.046040107,stimuli/card_0_transparent.png,630,0,9,0,9,0,1,,,,,
Vincenzo Fiore,2023-09-28_12h57.26.541,slotMachine_updated,2023.1.3,Win32,59.46010227,,,,,,,,,,,,,,,,,,,,,,,,,,,,,,,,,,,,,,,,,,,,,,,,,,,245.77,up,0.6671,,0.5,0.3,"[2,1,3]",0.628382176,stimuli/card_100_transparent.png,730,100,10,0,10,0,1,,,,,
Vincenzo Fiore,2023-09-28_12h57.26.541,slotMachine_updated,2023.1.3,Win32,59.46010227,,,,,,,,,,,,,,,,,,,,,,,,,,,,,,,,,,,,,,,,,,,,,,,,,,,247.2728,up,0.3856,,1.5,0.3,"[2,1,3]",0.801536405,stimuli/card_100_transparent.png,830,100,11,0,11,0,1,,,,,
Vincenzo Fiore,2023-09-28_12h57.26.541,slotMachine_updated,2023.1.3,Win32,59.46010227,,,,,,,,,,,,,,,,,,,,,,,,,,,,,,,,,,,,,,,,,,,,,,,,,,,249.4784,up,0.4736,,0.5,0.3,"[2,3,1]",0.030113883,stimuli/card_100_transparent.png,930,100,12,0,12,0,1,,,,,
Vincenzo Fiore,2023-09-28_12h57.26.541,slotMachine_updated,2023.1.3,Win32,59.46010227,,,,,,,,,,,,,,,,,,,,,,,,,,,,,,,,,,,,,,,,,,,,,,,,,,,250.7762,up,0.3858,,0.5,0.3,"[2,3,1]",0.962135061,stimuli/card_0_transparent.png,930,0,13,0,13,0,1,,,,,
Vincenzo Fiore,2023-09-28_12h57.26.541,slotMachine_updated,2023.1.3,Win32,59.46010227,,,,,,,,,,,,,,,,,,,,,,,,,,,,,,,,,,,,,,,,,,,,,,,,,,,252.0001,up,0.4271,,1,0.3,"[2,3,1]",0.93155498,stimuli/card_0_transparent.png,930,0,14,0,14,0,1,,,,,
Vincenzo Fiore,2023-09-28_12h57.26.541,slotMachine_updated,2023.1.3,Win32,59.46010227,,,,,,,,,,,,,,,,,,,,,,,,,,,,,,253.7444,,,,,,,,,,,,,,,,,,,,,,,,,,,,,,,,,,,,,0,0,0,0,1
Vincenzo Fiore,2023-09-28_12h57.26.541,slotMachine_updated,2023.1.3,Win32,59.46010227,,,,,,,,,,,,,,,,,,,,,,,,,,,,,,,,,,,,,,,,,,,,,,,,,"[6,15]","[[1,3,2],[3,2,1]]",258.7387,right,1.5078,,1,0.3,"[1,3,2]",0.088542744,stimuli/card_0_transparent.png,0,0,0,0,0,0,1,,,,,
Vincenzo Fiore,2023-09-28_12h57.26.541,slotMachine_updated,2023.1.3,Win32,59.46010227,,,,,,,,,,,,,,,,,,,,,,,,,,,,,,,,,,,,,,,,,,,,,,,,,,,261.569,right,0.418,,0.5,0.3,"[1,3,2]",0.497543968,stimuli/card_10_transparent.png,10,10,1,0,1,0,1,,,,,
Vincenzo Fiore,2023-09-28_12h57.26.541,slotMachine_updated,2023.1.3,Win32,59.46010227,,,,,,,,,,,,,,,,,,,,,,,,,,,,,,,,,,,,,,,,,,,,,,,,,,,262.8039,right,0.4668,,1.5,0.3,"[1,3,2]",0.251457557,stimuli/card_10_transparent.png,20,10,2,0,2,0,1,,,,,
Vincenzo Fiore,2023-09-28_12h57.26.541,slotMachine_updated,2023.1.3,Win32,59.46010227,,,,,,,,,,,,,,,,,,,,,,,,,,,,,,,,,,,,,,,,,,,,,,,,,,,265.1063,right,0.7342,0.0001,1.5,0.3,"[1,3,2]",0.439377188,stimuli/card_10_transparent.png,30,10,3,0,3,0,1,,,,,
Vincenzo Fiore,2023-09-28_12h57.26.541,slotMachine_updated,2023.1.3,Win32,59.46010227,,,,,,,,,,,,,,,,,,,,,,,,,,,,,,,,,,,,,,,,,,,,,,,,,,,267.6753,right,0.6208,,1.5,0.3,"[1,3,2]",0.376305205,stimuli/card_10_transparent.png,40,10,4,0,4,0,1,,,,,
Vincenzo Fiore,2023-09-28_12h57.26.541,slotMachine_updated,2023.1.3,Win32,59.46010227,,,,,,,,,,,,,,,,,,,,,,,,,,,,,,,,,,,,,,,,,,,,,,,,,,,270.1109,left,1.5614,,1,0.3,"[1,3,2]",0.833064574,stimuli/card_100_transparent.png,140,100,5,0,5,0,1,,,,,
Vincenzo Fiore,2023-09-28_12h57.26.541,slotMachine_updated,2023.1.3,Win32,59.46010227,,,,,,,,,,,,,,,,,,,,,,,,,,,,,,,,,,,,,,,,,,,,,,,,,,,272.9971,left,0.4307,,0.5,0.3,"[3,2,1]",0.631549871,stimuli/card_0_transparent.png,140,0,6,0,6,0,1,,,,,
Vincenzo Fiore,2023-09-28_12h57.26.541,slotMachine_updated,2023.1.3,Win32,59.46010227,,,,,,,,,,,,,,,,,,,,,,,,,,,,,,,,,,,,,,,,,,,,,,,,,,,274.2486,left,0.4704,,0.5,0.3,"[3,2,1]",0.970264848,stimuli/card_0_transparent.png,140,0,7,0,7,0,1,,,,,
Vincenzo Fiore,2023-09-28_12h57.26.541,slotMachine_updated,2023.1.3,Win32,59.46010227,,,,,,,,,,,,,,,,,,,,,,,,,,,,,,,,,,,,,,,,,,,,,,,,,,,275.5546,up,0.6429,,1.5,0.3,"[3,2,1]",0.146471995,stimuli/card_100_transparent.png,240,100,8,0,8,0,1,,,,,
Vincenzo Fiore,2023-09-28_12h57.26.541,slotMachine_updated,2023.1.3,Win32,59.46010227,,,,,,,,,,,,,,,,,,,,,,,,,,,,,,,,,,,,,,,,,,,,,,,,,,,278.019,up,0.3501,,1,0.3,"[3,2,1]",0.480214624,stimuli/card_10_transparent.png,250,10,9,0,9,0,1,,,,,
Vincenzo Fiore,2023-09-28_12h57.26.541,slotMachine_updated,2023.1.3,Win32,59.46010227,,,,,,,,,,,,,,,,,,,,,,,,,,,,,,,,,,,,,,,,,,,,,,,,,,,279.7038,up,0.6179,,1,0.3,"[3,2,1]",0.663921275,stimuli/card_10_transparent.png,260,10,10,0,10,0,1,,,,,
Vincenzo Fiore,2023-09-28_12h57.26.541,slotMachine_updated,2023.1.3,Win32,59.46010227,,,,,,,,,,,,,,,,,,,,,,,,,,,,,,,,,,,,,,,,,,,,,,,,,,,281.6558,up,0.3557,,0.5,0.3,"[3,2,1]",0.706485418,stimuli/card_10_transparent.png,270,10,11,0,11,0,1,,,,,
Vincenzo Fiore,2023-09-28_12h57.26.541,slotMachine_updated,2023.1.3,Win32,59.46010227,,,,,,,,,,,,,,,,,,,,,,,,,,,,,,,,,,,,,,,,,,,,,,,,,,,282.8404,up,0.4738,,1,0.3,"[3,2,1]",0.62166468,stimuli/card_10_transparent.png,280,10,12,0,12,0,1,,,,,
Vincenzo Fiore,2023-09-28_12h57.26.541,slotMachine_updated,2023.1.3,Win32,59.46010227,,,,,,,,,,,,,,,,,,,,,,,,,,,,,,,,,,,,,,,,,,,,,,,,,,,284.6427,right,1.4855,0,1,0.3,"[3,2,1]",0.896633876,stimuli/card_100_transparent.png,380,100,13,0,13,0,1,,,,,
Vincenzo Fiore,2023-09-28_12h57.26.541,slotMachine_updated,2023.1.3,Win32,59.46010227,,,,,,,,,,,,,,,,,,,,,,,,,,,,,,,,,,,,,,,,,,,,,,,,,,,287.4497,right,0.3673,,1,0.3,"[3,2,1]",0.89223081,stimuli/card_100_transparent.png,480,100,14,0,14,0,1,,,,,
Vincenzo Fiore,2023-09-28_12h57.26.541,slotMachine_updated,2023.1.3,Win32,59.46010227,,,,,,,,,,,,,,,,,,,,,,,,,,,,,,289.1306,,,,,,,,,,,,,,,,,,,,,,,,,,,,,,,,,,,,,1,0,1,0,1
Vincenzo Fiore,2023-09-28_12h57.26.541,slotMachine_updated,2023.1.3,Win32,59.46010227,,,,,,,,,,,,,,,,,,,,,,,,,,,,,,,,,,,,,,,,,,,,,,,,,"[15,15]","[[3,1,2],[3,1,2]]",294.1286,up,1.2899,,0.5,0.3,"[3,1,2]",0.190565811,stimuli/card_10_transparent.png,10,10,0,0,0,0,1,,,,,
Vincenzo Fiore,2023-09-28_12h57.26.541,slotMachine_updated,2023.1.3,Win32,59.46010227,,,,,,,,,,,,,,,,,,,,,,,,,,,,,,,,,,,,,,,,,,,,,,,,,,,296.2385,up,0.3746,,1.5,0.3,"[3,1,2]",0.628064809,stimuli/card_100_transparent.png,110,100,1,0,1,0,1,,,,,
Vincenzo Fiore,2023-09-28_12h57.26.541,slotMachine_updated,2023.1.3,Win32,59.46010227,,,,,,,,,,,,,,,,,,,,,,,,,,,,,,,,,,,,,,,,,,,,,,,,,,,298.4409,up,0.4842,,1.5,0.3,"[3,1,2]",0.054557125,stimuli/card_0_transparent.png,110,0,2,0,2,0,1,,,,,
Vincenzo Fiore,2023-09-28_12h57.26.541,slotMachine_updated,2023.1.3,Win32,59.46010227,,,,,,,,,,,,,,,,,,,,,,,,,,,,,,,,,,,,,,,,,,,,,,,,,,,300.7422,up,0.5344,,0.5,0.3,"[3,1,2]",0.926792928,stimuli/card_100_transparent.png,210,100,3,0,3,0,1,,,,,
Vincenzo Fiore,2023-09-28_12h57.26.541,slotMachine_updated,2023.1.3,Win32,59.46010227,,,,,,,,,,,,,,,,,,,,,,,,,,,,,,,,,,,,,,,,,,,,,,,,,,,302.0979,left,0.6382,,1,0.3,"[3,1,2]",0.27825699,stimuli/card_0_transparent.png,210,0,4,0,4,0,1,,,,,
Vincenzo Fiore,2023-09-28_12h57.26.541,slotMachine_updated,2023.1.3,Win32,59.46010227,,,,,,,,,,,,,,,,,,,,,,,,,,,,,,,,,,,,,,,,,,,,,,,,,,,304.0447,up,0.5337,,1.5,0.3,"[3,1,2]",0.46207249,stimuli/card_100_transparent.png,310,100,5,0,5,0,1,,,,,
Vincenzo Fiore,2023-09-28_12h57.26.541,slotMachine_updated,2023.1.3,Win32,59.46010227,,,,,,,,,,,,,,,,,,,,,,,,,,,,,,,,,,,,,,,,,,,,,,,,,,,306.4137,up,0.4069,,0.5,0.3,"[3,1,2]",0.427918596,stimuli/card_100_transparent.png,410,100,6,0,6,0,1,,,,,
Vincenzo Fiore,2023-09-28_12h57.26.541,slotMachine_updated,2023.1.3,Win32,59.46010227,,,,,,,,,,,,,,,,,,,,,,,,,,,,,,,,,,,,,,,,,,,,,,,,,,,307.6484,up,0.3929,,1.5,0.3,"[3,1,2]",0.754451557,stimuli/card_100_transparent.png,510,100,7,0,7,0,1,,,,,
Vincenzo Fiore,2023-09-28_12h57.26.541,slotMachine_updated,2023.1.3,Win32,59.46010227,,,,,,,,,,,,,,,,,,,,,,,,,,,,,,,,,,,,,,,,,,,,,,,,,,,309.8671,up,0.5259,,1.5,0.3,"[3,1,2]",0.31581964,stimuli/card_100_transparent.png,610,100,8,0,8,0,1,,,,,
Vincenzo Fiore,2023-09-28_12h57.26.541,slotMachine_updated,2023.1.3,Win32,59.46010227,,,,,,,,,,,,,,,,,,,,,,,,,,,,,,,,,,,,,,,,,,,,,,,,,,,312.2195,up,0.4082,,1.5,0.3,"[3,1,2]",0.96060146,stimuli/card_100_transparent.png,710,100,9,0,9,0,1,,,,,
Vincenzo Fiore,2023-09-28_12h57.26.541,slotMachine_updated,2023.1.3,Win32,59.46010227,,,,,,,,,,,,,,,,,,,,,,,,,,,,,,,,,,,,,,,,,,,,,,,,,,,314.4552,right,0.4884,,1.5,0.3,"[3,1,2]",0.045525194,stimuli/card_0_transparent.png,710,0,10,0,10,0,1,,,,,
Vincenzo Fiore,2023-09-28_12h57.26.541,slotMachine_updated,2023.1.3,Win32,59.46010227,,,,,,,,,,,,,,,,,,,,,,,,,,,,,,,,,,,,,,,,,,,,,,,,,,,316.7579,,,,1,0.3,,,,,,11,0,11,0,1,,,,,
Vincenzo Fiore,2023-09-28_12h57.26.541,slotMachine_updated,2023.1.3,Win32,59.46010227,,,,,,,,,,,,,,,,,,,,,,,,,,,,,,,,,,,,,,,,,,,,,,,,,,,322.2738,,,,1,0.3,,,,,,12,0,12,0,1,,,,,
Vincenzo Fiore,2023-09-28_12h57.26.541,slotMachine_updated,2023.1.3,Win32,59.46010227,,,,,,,,,,,,,,,,,,,,,,,,,,,,,,,,,,,,,,,,,,,,,,,,,,,327.7989,,,,1.5,0.3,,,,,,13,0,13,0,1,,,,,
Vincenzo Fiore,2023-09-28_12h57.26.541,slotMachine_updated,2023.1.3,Win32,59.46010227,,,,,,,,,,,,,,,,,,,,,,,,,,,,,,,,,,,,,,,,,,,,,,,,,,,333.3183,left,2.8143,,1.5,0.3,"[3,1,2]",0.746466348,stimuli/card_0_transparent.png,710,0,14,0,14,0,1,,,,,
Vincenzo Fiore,2023-09-28_12h57.26.541,slotMachine_updated,2023.1.3,Win32,59.46010227,,,,,,,,,,,,,,,,,,,,,,,,,,,,,,337.9452,,,,,,,,,,,,,,,,,,,,,,,,,,,,,,,,,,,,,2,0,2,0,1
Vincenzo Fiore,2023-09-28_12h57.26.541,slotMachine_updated,2023.1.3,Win32,59.46010227,,,,,,,,,,,,,,,,,,,,,,,,,,,,,,,,,,,,,,,,,,,,,,,,,"[7,15]","[[2,3,1],[1,2,3]]",342.9544,left,0.7454,,1,0.3,"[2,3,1]",0.297334975,stimuli/card_10_transparent.png,10,10,0,0,0,0,1,,,,,
Vincenzo Fiore,2023-09-28_12h57.26.541,slotMachine_updated,2023.1.3,Win32,59.46010227,,,,,,,,,,,,,,,,,,,,,,,,,,,,,,,,,,,,,,,,,,,,,,,,,,,345.019,up,0.3335,,1,0.3,"[2,3,1]",0.529649326,stimuli/card_0_transparent.png,10,0,1,0,1,0,1,,,,,
Vincenzo Fiore,2023-09-28_12h57.26.541,slotMachine_updated,2023.1.3,Win32,59.46010227,,,,,,,,,,,,,,,,,,,,,,,,,,,,,,,,,,,,,,,,,,,,,,,,,,,346.6876,right,0.902,,1,0.3,"[2,3,1]",0.406840837,stimuli/card_100_transparent.png,110,100,2,0,2,0,1,,,,,
Vincenzo Fiore,2023-09-28_12h57.26.541,slotMachine_updated,2023.1.3,Win32,59.46010227,,,,,,,,,,,,,,,,,,,,,,,,,,,,,,,,,,,,,,,,,,,,,,,,,,,348.9064,right,1.1641,,1.5,0.3,"[2,3,1]",0.679465534,stimuli/card_100_transparent.png,210,100,3,0,3,0,1,,,,,
Vincenzo Fiore,2023-09-28_12h57.26.541,slotMachine_updated,2023.1.3,Win32,59.46010227,,,,,,,,,,,,,,,,,,,,,,,,,,,,,,,,,,,,,,,,,,,,,,,,,,,351.8925,right,0.4544,,0.5,0.3,"[2,3,1]",0.284631939,stimuli/card_100_transparent.png,310,100,4,0,4,0,1,,,,,
Vincenzo Fiore,2023-09-28_12h57.26.541,slotMachine_updated,2023.1.3,Win32,59.46010227,,,,,,,,,,,,,,,,,,,,,,,,,,,,,,,,,,,,,,,,,,,,,,,,,,,353.1771,right,0.4717,,1.5,0.3,"[2,3,1]",0.364821632,stimuli/card_100_transparent.png,410,100,5,0,5,0,1,,,,,
Vincenzo Fiore,2023-09-28_12h57.26.541,slotMachine_updated,2023.1.3,Win32,59.46010227,,,,,,,,,,,,,,,,,,,,,,,,,,,,,,,,,,,,,,,,,,,,,,,,,,,355.4793,right,0.8511,,1.5,0.3,"[2,3,1]",0.02687132,stimuli/card_0_transparent.png,410,0,6,0,6,0,1,,,,,
Vincenzo Fiore,2023-09-28_12h57.26.541,slotMachine_updated,2023.1.3,Win32,59.46010227,,,,,,,,,,,,,,,,,,,,,,,,,,,,,,,,,,,,,,,,,,,,,,,,,,,358.1653,up,1.7028,,1,0.3,"[1,2,3]",0.090455974,stimuli/card_0_transparent.png,410,0,7,0,7,0,1,,,,,
Vincenzo Fiore,2023-09-28_12h57.26.541,slotMachine_updated,2023.1.3,Win32,59.46010227,,,,,,,,,,,,,,,,,,,,,,,,,,,,,,,,,,,,,,,,,,,,,,,,,,,361.2016,left,1.4445,,0.5,0.3,"[1,2,3]",0.774758801,stimuli/card_100_transparent.png,510,100,8,0,8,0,1,,,,,
Vincenzo Fiore,2023-09-28_12h57.26.541,slotMachine_updated,2023.1.3,Win32,59.46010227,,,,,,,,,,,,,,,,,,,,,,,,,,,,,,,,,,,,,,,,,,,,,,,,,,,363.4719,left,0.6416,,1,0.3,"[1,2,3]",0.277490607,stimuli/card_100_transparent.png,610,100,9,0,9,0,1,,,,,
Vincenzo Fiore,2023-09-28_12h57.26.541,slotMachine_updated,2023.1.3,Win32,59.46010227,,,,,,,,,,,,,,,,,,,,,,,,,,,,,,,,,,,,,,,,,,,,,,,,,,,365.4394,left,0.4512,,0.5,0.3,"[1,2,3]",0.969408696,stimuli/card_100_transparent.png,710,100,10,0,10,0,1,,,,,
Vincenzo Fiore,2023-09-28_12h57.26.541,slotMachine_updated,2023.1.3,Win32,59.46010227,,,,,,,,,,,,,,,,,,,,,,,,,,,,,,,,,,,,,,,,,,,,,,,,,,,366.725,left,1.0338,,0.5,0.3,"[1,2,3]",0.88965098,stimuli/card_100_transparent.png,810,100,11,0,11,0,1,,,,,
Vincenzo Fiore,2023-09-28_12h57.26.541,slotMachine_updated,2023.1.3,Win32,59.46010227,,,,,,,,,,,,,,,,,,,,,,,,,,,,,,,,,,,,,,,,,,,,,,,,,,,368.5927,left,0.451,,1,0.3,"[1,2,3]",0.606394417,stimuli/card_100_transparent.png,910,100,12,0,12,0,1,,,,,
Vincenzo Fiore,2023-09-28_12h57.26.541,slotMachine_updated,2023.1.3,Win32,59.46010227,,,,,,,,,,,,,,,,,,,,,,,,,,,,,,,,,,,,,,,,,,,,,,,,,,,370.3775,left,0.3941,,1.5,0.3,"[1,2,3]",0.64222203,stimuli/card_100_transparent.png,1010,100,13,0,13,0,1,,,,,
Vincenzo Fiore,2023-09-28_12h57.26.541,slotMachine_updated,2023.1.3,Win32,59.46010227,,,,,,,,,,,,,,,,,,,,,,,,,,,,,,,,,,,,,,,,,,,,,,,,,,,372.5967,left,0.9099,,1.5,0.3,"[1,2,3]",0.044800089,stimuli/card_0_transparent.png,1010,0,14,0,14,0,1,,,,,
Vincenzo Fiore,2023-09-28_12h57.26.541,slotMachine_updated,2023.1.3,Win32,59.46010227,,,,,,,,,,,,,,,,,,,,,,,,,,,,,,375.3324,,,,,,,,,,,,,,,,,,,,,,,,,,,,,,,,,,,,,3,0,3,0,1
Vincenzo Fiore,2023-09-28_12h57.26.541,slotMachine_updated,2023.1.3,Win32,59.46010227,,,,,,,,,,,,,,,,,,,,,,,,,,,,,,,,,,,,,,,,,,,,,,,,,"[5,15]","[[1,2,3],[3,1,2]]",380.3269,left,1.3389,,1.5,0.3,"[1,2,3]",0.246839357,stimuli/card_100_transparent.png,100,100,0,0,0,0,1,,,,,
Vincenzo Fiore,2023-09-28_12h57.26.541,slotMachine_updated,2023.1.3,Win32,59.46010227,,,,,,,,,,,,,,,,,,,,,,,,,,,,,,,,,,,,,,,,,,,,,,,,,,,383.4906,left,0.5936,,0.5,0.3,"[1,2,3]",0.958794691,stimuli/card_100_transparent.png,200,100,1,0,1,0,1,,,,,
Vincenzo Fiore,2023-09-28_12h57.26.541,slotMachine_updated,2023.1.3,Win32,59.46010227,,,,,,,,,,,,,,,,,,,,,,,,,,,,,,,,,,,,,,,,,,,,,,,,,,,384.9088,left,0.5012,,0.5,0.3,"[1,2,3]",0.72433734,stimuli/card_100_transparent.png,300,100,2,0,2,0,1,,,,,
Vincenzo Fiore,2023-09-28_12h57.26.541,slotMachine_updated,2023.1.3,Win32,59.46010227,,,,,,,,,,,,,,,,,,,,,,,,,,,,,,,,,,,,,,,,,,,,,,,,,,,386.2266,left,0.5673,,1.5,0.3,"[1,2,3]",0.066441224,stimuli/card_0_transparent.png,300,0,3,0,3,0,1,,,,,
Vincenzo Fiore,2023-09-28_12h57.26.541,slotMachine_updated,2023.1.3,Win32,59.46010227,,,,,,,,,,,,,,,,,,,,,,,,,,,,,,,,,,,,,,,,,,,,,,,,,,,388.6305,left,2.753,,0.5,0.3,"[1,2,3]",0.047662745,stimuli/card_0_transparent.png,300,0,4,0,4,0,1,,,,,
Vincenzo Fiore,2023-09-28_12h57.26.541,slotMachine_updated,2023.1.3,Win32,59.46010227,,,,,,,,,,,,,,,,,,,,,,,,,,,,,,,,,,,,,,,,,,,,,,,,,,,392.1993,left,1.6523,9.99999E-05,0.5,0.3,"[3,1,2]",0.881690583,stimuli/card_0_transparent.png,300,0,5,0,5,0,1,,,,,
Vincenzo Fiore,2023-09-28_12h57.26.541,slotMachine_updated,2023.1.3,Win32,59.46010227,,,,,,,,,,,,,,,,,,,,,,,,,,,,,,,,,,,,,,,,,,,,,,,,,,,394.6687,right,0.4032,,1,0.3,"[3,1,2]",0.998012127,stimuli/card_10_transparent.png,310,10,6,0,6,0,1,,,,,
Vincenzo Fiore,2023-09-28_12h57.26.541,slotMachine_updated,2023.1.3,Win32,59.46010227,,,,,,,,,,,,,,,,,,,,,,,,,,,,,,,,,,,,,,,,,,,,,,,,,,,396.4048,up,0.467,,1.5,0.3,"[3,1,2]",0.114920162,stimuli/card_10_transparent.png,320,10,7,0,7,0,1,,,,,
Vincenzo Fiore,2023-09-28_12h57.26.541,slotMachine_updated,2023.1.3,Win32,59.46010227,,,,,,,,,,,,,,,,,,,,,,,,,,,,,,,,,,,,,,,,,,,,,,,,,,,398.7059,up,0.6181,,1.5,0.3,"[3,1,2]",0.761545824,stimuli/card_100_transparent.png,420,100,8,0,8,0,1,,,,,
Vincenzo Fiore,2023-09-28_12h57.26.541,slotMachine_updated,2023.1.3,Win32,59.46010227,,,,,,,,,,,,,,,,,,,,,,,,,,,,,,,,,,,,,,,,,,,,,,,,,,,401.1597,up,0.6173,0.0001,0.5,0.3,"[3,1,2]",0.552965523,stimuli/card_100_transparent.png,520,100,9,0,9,0,1,,,,,
Vincenzo Fiore,2023-09-28_12h57.26.541,slotMachine_updated,2023.1.3,Win32,59.46010227,,,,,,,,,,,,,,,,,,,,,,,,,,,,,,,,,,,,,,,,,,,,,,,,,,,402.5935,up,0.5849,,1.5,0.3,"[3,1,2]",0.335471437,stimuli/card_100_transparent.png,620,100,10,0,10,0,1,,,,,
Vincenzo Fiore,2023-09-28_12h57.26.541,slotMachine_updated,2023.1.3,Win32,59.46010227,,,,,,,,,,,,,,,,,,,,,,,,,,,,,,,,,,,,,,,,,,,,,,,,,,,404.9955,up,1.395,,1.5,0.3,"[3,1,2]",0.639026679,stimuli/card_100_transparent.png,720,100,11,0,11,0,1,,,,,
Vincenzo Fiore,2023-09-28_12h57.26.541,slotMachine_updated,2023.1.3,Win32,59.46010227,,,,,,,,,,,,,,,,,,,,,,,,,,,,,,,,,,,,,,,,,,,,,,,,,,,408.2151,up,1.3378,,1,0.3,"[3,1,2]",0.992127759,stimuli/card_100_transparent.png,820,100,12,0,12,0,1,,,,,
Vincenzo Fiore,2023-09-28_12h57.26.541,slotMachine_updated,2023.1.3,Win32,59.46010227,,,,,,,,,,,,,,,,,,,,,,,,,,,,,,,,,,,,,,,,,,,,,,,,,,,410.8859,up,0.7174,,1.5,0.3,"[3,1,2]",0.80615968,stimuli/card_100_transparent.png,920,100,13,0,13,0,1,,,,,
Vincenzo Fiore,2023-09-28_12h57.26.541,slotMachine_updated,2023.1.3,Win32,59.46010227,,,,,,,,,,,,,,,,,,,,,,,,,,,,,,,,,,,,,,,,,,,,,,,,,,,413.4091,up,0.5865,,0.5,0.3,"[3,1,2]",0.696092269,stimuli/card_100_transparent.png,1020,100,14,0,14,0,1,,,,,
Vincenzo Fiore,2023-09-28_12h57.26.541,slotMachine_updated,2023.1.3,Win32,59.46010227,,,,,,,,,,,,,,,,,,,,,,,,,,,,,,414.8218,,,,,,,,,,,,,,,,,,,,,,,,,,,,,,,,,,,,,4,0,4,0,1
Vincenzo Fiore,2023-09-28_12h57.26.541,slotMachine_updated,2023.1.3,Win32,59.46010227,,,,,,,,,,,,,,,,,,,,,,,,,,,,,,,,,,,,,,,,,,,,,,,,,"[4,10,15]","[[2,3,1],[1,3,2],[3,2,1]]",419.8161,right,0.9505,,0.5,0.3,"[2,3,1]",0.884198718,stimuli/card_100_transparent.png,100,100,0,0,0,0,1,,,,,
Vincenzo Fiore,2023-09-28_12h57.26.541,slotMachine_updated,2023.1.3,Win32,59.46010227,,,,,,,,,,,,,,,,,,,,,,,,,,,,,,,,,,,,,,,,,,,,,,,,,,,421.5687,right,3.4132,,1.5,0.3,"[2,3,1]",0.488417075,stimuli/card_100_transparent.png,200,100,1,0,1,0,1,,,,,
Vincenzo Fiore,2023-09-28_12h57.26.541,slotMachine_updated,2023.1.3,Win32,59.46010227,,,,,,,,,,,,,,,,,,,,,,,,,,,,,,,,,,,,,,,,,,,,,,,,,,,426.8054,left,1.5521,,0.5,0.3,"[2,3,1]",0.469775094,stimuli/card_10_transparent.png,210,10,2,0,2,0,1,,,,,
Vincenzo Fiore,2023-09-28_12h57.26.541,slotMachine_updated,2023.1.3,Win32,59.46010227,,,,,,,,,,,,,,,,,,,,,,,,,,,,,,,,,,,,,,,,,,,,,,,,,,,429.1865,up,0.5352,,0.5,0.3,"[2,3,1]",0.782798472,stimuli/card_0_transparent.png,210,0,3,0,3,0,1,,,,,
Vincenzo Fiore,2023-09-28_12h57.26.541,slotMachine_updated,2023.1.3,Win32,59.46010227,,,,,,,,,,,,,,,,,,,,,,,,,,,,,,,,,,,,,,,,,,,,,,,,,,,430.5375,right,0.3756,,0.5,0.3,"[1,3,2]",0.342993585,stimuli/card_10_transparent.png,220,10,4,0,4,0,1,,,,,
Vincenzo Fiore,2023-09-28_12h57.26.541,slotMachine_updated,2023.1.3,Win32,59.46010227,,,,,,,,,,,,,,,,,,,,,,,,,,,,,,,,,,,,,,,,,,,,,,,,,,,431.7223,left,0.3899,,1.5,0.3,"[1,3,2]",0.969000399,stimuli/card_100_transparent.png,320,100,5,0,5,0,1,,,,,
Vincenzo Fiore,2023-09-28_12h57.26.541,slotMachine_updated,2023.1.3,Win32,59.46010227,,,,,,,,,,,,,,,,,,,,,,,,,,,,,,,,,,,,,,,,,,,,,,,,,,,433.9408,left,0.709,,1.5,0.3,"[1,3,2]",0.077929035,stimuli/card_0_transparent.png,320,0,6,0,6,0,1,,,,,
Vincenzo Fiore,2023-09-28_12h57.26.541,slotMachine_updated,2023.1.3,Win32,59.46010227,,,,,,,,,,,,,,,,,,,,,,,,,,,,,,,,,,,,,,,,,,,,,,,,,,,436.4767,left,0.5265,,1,0.3,"[1,3,2]",0.6228454,stimuli/card_100_transparent.png,420,100,7,0,7,0,1,,,,,
Vincenzo Fiore,2023-09-28_12h57.26.541,slotMachine_updated,2023.1.3,Win32,59.46010227,,,,,,,,,,,,,,,,,,,,,,,,,,,,,,,,,,,,,,,,,,,,,,,,,,,438.3286,left,0.8955,,1.5,0.3,"[1,3,2]",0.750534002,stimuli/card_100_transparent.png,520,100,8,0,8,0,1,,,,,
Vincenzo Fiore,2023-09-28_12h57.26.541,slotMachine_updated,2023.1.3,Win32,59.46010227,,,,,,,,,,,,,,,,,,,,,,,,,,,,,,,,,,,,,,,,,,,,,,,,,,,441.055,left,0.7456,,1.5,0.3,"[1,3,2]",0.065881991,stimuli/card_0_transparent.png,520,0,9,0,9,0,1,,,,,
Vincenzo Fiore,2023-09-28_12h57.26.541,slotMachine_updated,2023.1.3,Win32,59.46010227,,,,,,,,,,,,,,,,,,,,,,,,,,,,,,,,,,,,,,,,,,,,,,,,,,,450.6022,,,,1.5,0.3,,,,,,10,0,10,0,1,,,,,
Vincenzo Fiore,2023-09-28_12h57.26.541,slotMachine_updated,2023.1.3,Win32,59.46010227,,,,,,,,,,,,,,,,,,,,,,,,,,,,,,,,,,,,,,,,,,,,,,,,,,,456.1338,,,,1,0.3,,,,,,11,0,11,0,1,,,,,
Vincenzo Fiore,2023-09-28_12h57.26.541,slotMachine_updated,2023.1.3,Win32,59.46010227,,,,,,,,,,,,,,,,,,,,,,,,,,,,,,,,,,,,,,,,,,,,,,,,,,,501.2773,,,,1.5,0.3,,,,,,12,0,12,0,1,,,,,
Vincenzo Fiore,2023-09-28_12h57.26.541,slotMachine_updated,2023.1.3,Win32,59.46010227,,,,,,,,,,,,,,,,,,,,,,,,,,,,,,,,,,,,,,,,,,,,,,,,,,,506.7869,,,,1,0.3,,,,,,13,0,13,0,1,,,,,
Vincenzo Fiore,2023-09-28_12h57.26.541,slotMachine_updated,2023.1.3,Win32,59.46010227,,,,,,,,,,,,,,,,,,,,,,,,,,,,,,,,,,,,,,,,,,,,,,,,,,,538.1778,,,,1,0.3,,,,,,14,0,14,0,1,,,,,
Vincenzo Fiore,2023-09-28_12h57.26.541,slotMachine_updated,2023.1.3,Win32,59.46010227,,,,,,,,,,,,,,,,,,,,,,,,,,,,,,543.6951,,,,,,,,,,,,,,,,,,,,,,,,,,,,,,,,,,,,,5,0,5,0,1
Vincenzo Fiore,2023-09-28_12h57.26.541,slotMachine_updated,2023.1.3,Win32,59.46010227,,,,,,,,,,,,,,,,,,,,,,,,,,,,,,,,,,,,,,,,,,,,,,,,,"[9,15]","[[1,3,2],[2,3,1]]",548.6988,up,1.2349,,1,0.3,"[1,3,2]",0.659193828,stimuli/card_0_transparent.png,0,0,0,0,0,0,1,,,,,
Vincenzo Fiore,2023-09-28_12h57.26.541,slotMachine_updated,2023.1.3,Win32,59.46010227,,,,,,,,,,,,,,,,,,,,,,,,,,,,,,,,,,,,,,,,,,,,,,,,,,,551.2461,,,,0.5,0.3,,,,,,1,0,1,0,1,,,,,
Vincenzo Fiore,2023-09-28_12h57.26.541,slotMachine_updated,2023.1.3,Win32,59.46010227,,,,,,,,,,,,,,,,,,,,,,,,,,,,,,,,,,,,,,,,,,,,,,,,,,,573.2935,,,,1,0.3,,,,,,2,0,2,0,1,,,,,
Vincenzo Fiore,2023-09-28_12h57.26.541,slotMachine_updated,2023.1.3,Win32,59.46010227,,,,,,,,,,,,,,,,,,,,,,,,,,,,,,,,,,,,,,,,,,,,,,,,,,,578.8084,,,,1,0.3,,,,,,3,0,3,0,1,,,,,
Vincenzo Fiore,2023-09-28_12h57.26.541,slotMachine_updated,2023.1.3,Win32,59.46010227,,,,,,,,,,,,,,,,,,,,,,,,,,,,,,,,,,,,,,,,,,,,,,,,,,,608.5076,,,,0.5,0.3,,,,,,4,0,4,0,1,,,,,
Vincenzo Fiore,2023-09-28_12h57.26.541,slotMachine_updated,2023.1.3,Win32,59.46010227,,,,,,,,,,,,,,,,,,,,,,,,,,,,,,,,,,,,,,,,,,,,,,,,,,,775.6026,,,,0.5,0.3,,,,,,5,0,5,0,1,,,,,
Vincenzo Fiore,2023-09-28_12h57.26.541,slotMachine_updated,2023.1.3,Win32,59.46010227,,,,,,,,,,,,,,,,,,,,,,,,,,,,,,,,,,,,,,,,,,,,,,,,,,,789.3257,,,,0.5,0.3,,,,,,6,0,6,0,1,,,,,
Vincenzo Fiore,2023-09-28_12h57.26.541,slotMachine_updated,2023.1.3,Win32,59.46010227,,,,,,,,,,,,,,,,,,,,,,,,,,,,,,,,,,,,,,,,,,,,,,,,,,,794.8405,,,,1,0.3,,,,,,7,0,7,0,1,,,,,
Vincenzo Fiore,2023-09-28_12h57.26.541,slotMachine_updated,2023.1.3,Win32,59.46010227,,,,,,,,,,,,,,,,,,,,,,,,,,,,,,,,,,,,,,,,,,,,,,,,,,,800.3504,,,,1,0.3,,,,,,8,0,8,0,1,,,,,
Vincenzo Fiore,2023-09-28_12h57.26.541,slotMachine_updated,2023.1.3,Win32,59.46010227,,,,,,,,,,,,,,,,,,,,,,,,,,,,,,,,,,,,,,,,,,,,,,,,,,,807.5618,right,3.3822,,0.5,0.3,"[2,3,1]",0.928273899,stimuli/card_100_transparent.png,100,100,9,0,9,0,1,,,,,
Vincenzo Fiore,2023-09-28_12h57.26.541,slotMachine_updated,2023.1.3,Win32,59.46010227,,,,,,,,,,,,,,,,,,,,,,,,,,,,,,,,,,,,,,,,,,,,,,,,,,,811.768,right,3.0958,,1.5,0.3,"[2,3,1]",0.444292697,stimuli/card_100_transparent.png,200,100,10,0,10,0,1,,,,,
Vincenzo Fiore,2023-09-28_12h57.26.541,slotMachine_updated,2023.1.3,Win32,59.46010227,,,,,,,,,,,,,,,,,,,,,,,,,,,,,,,,,,,,,,,,,,,,,,,,,,,816.6895,right,0.5392,,1.5,0.3,"[2,3,1]",0.019099804,stimuli/card_0_transparent.png,200,0,11,0,11,0,1,,,,,
Vincenzo Fiore,2023-09-28_12h57.26.541,slotMachine_updated,2023.1.3,Win32,59.46010227,,,,,,,,,,,,,,,,,,,,,,,,,,,,,,,,,,,,,,,,,,,,,,,,,,,819.0583,right,0.2943,0.0001,1,0.3,"[2,3,1]",0.435288551,stimuli/card_100_transparent.png,300,100,12,0,12,0,1,,,,,
Vincenzo Fiore,2023-09-28_12h57.26.541,slotMachine_updated,2023.1.3,Win32,59.46010227,,,,,,,,,,,,,,,,,,,,,,,,,,,,,,,,,,,,,,,,,,,,,,,,,,,820.6766,right,0.1848,,1,0.3,"[2,3,1]",0.21601796,stimuli/card_100_transparent.png,400,100,13,0,13,0,1,,,,,
Vincenzo Fiore,2023-09-28_12h57.26.541,slotMachine_updated,2023.1.3,Win32,59.46010227,,,,,,,,,,,,,,,,,,,,,,,,,,,,,,,,,,,,,,,,,,,,,,,,,,,822.1947,right,0.0369,,1.5,0.3,"[2,3,1]",0.401300867,stimuli/card_100_transparent.png,500,100,14,0,14,0,1,,,,,
Vincenzo Fiore,2023-09-28_12h57.26.541,slotMachine_updated,2023.1.3,Win32,59.46010227,,,,,,,,,,,,,,,,,,,,,,,,,,,,,,824.0634,,,,,,,,,,,,,,,,,,,,,,,,,,,,,,,,,,,,,6,0,6,0,1
Vincenzo Fiore,2023-09-28_12h57.26.541,slotMachine_updated,2023.1.3,Win32,59.46010227,,,,,,,,,,,,,,,,,,,,,,,,,,,,,,,,,,,,,,,,,,,,,,,,,"[11,15]","[[2,1,3],[1,2,3]]",829.0629,up,0.5729,0.0004,0.5,0.3,"[2,1,3]",0.532446823,stimuli/card_100_transparent.png,100,100,0,0,0,0,1,,,,,
Vincenzo Fiore,2023-09-28_12h57.26.541,slotMachine_updated,2023.1.3,Win32,59.46010227,,,,,,,,,,,,,,,,,,,,,,,,,,,,,,,,,,,,,,,,,,,,,,,,,,,830.3542,up,2.4234,0.004,1,0.3,"[2,1,3]",0.827845914,stimuli/card_100_transparent.png,200,100,1,0,1,0,1,,,,,
Vincenzo Fiore,2023-09-28_12h57.26.541,slotMachine_updated,2023.1.3,Win32,59.46010227,,,,,,,,,,,,,,,,,,,,,,,,,,,,,,,,,,,,,,,,,,,,,,,,,,,834.0733,up,1.1346,,1,0.3,"[2,1,3]",0.95048014,stimuli/card_100_transparent.png,300,100,2,0,2,0,1,,,,,
Vincenzo Fiore,2023-09-28_12h57.26.541,slotMachine_updated,2023.1.3,Win32,59.46010227,,,,,,,,,,,,,,,,,,,,,,,,,,,,,,,,,,,,,,,,,,,,,,,,,,,836.5263,up,0.2228,,1,0.3,"[2,1,3]",0.77594241,stimuli/card_100_transparent.png,400,100,3,0,3,0,1,,,,,
Vincenzo Fiore,2023-09-28_12h57.26.541,slotMachine_updated,2023.1.3,Win32,59.46010227,,,,,,,,,,,,,,,,,,,,,,,,,,,,,,,,,,,,,,,,,,,,,,,,,,,838.061,up,0.3269,,0.5,0.3,"[2,1,3]",0.632889063,stimuli/card_100_transparent.png,500,100,4,0,4,0,1,,,,,
Vincenzo Fiore,2023-09-28_12h57.26.541,slotMachine_updated,2023.1.3,Win32,59.46010227,,,,,,,,,,,,,,,,,,,,,,,,,,,,,,,,,,,,,,,,,,,,,,,,,,,839.2171,up,0.1233,,0.5,0.3,"[2,1,3]",0.910867023,stimuli/card_100_transparent.png,600,100,5,0,5,0,1,,,,,
Vincenzo Fiore,2023-09-28_12h57.26.541,slotMachine_updated,2023.1.3,Win32,59.46010227,,,,,,,,,,,,,,,,,,,,,,,,,,,,,,,,,,,,,,,,,,,,,,,,,,,840.1632,up,0.1364,,1,0.3,"[2,1,3]",0.967397747,stimuli/card_100_transparent.png,700,100,6,0,6,0,1,,,,,
Vincenzo Fiore,2023-09-28_12h57.26.541,slotMachine_updated,2023.1.3,Win32,59.46010227,,,,,,,,,,,,,,,,,,,,,,,,,,,,,,,,,,,,,,,,,,,,,,,,,,,841.6313,up,4.0047,,1,0.3,"[2,1,3]",0.221058562,stimuli/card_100_transparent.png,800,100,7,0,7,0,1,,,,,
Vincenzo Fiore,2023-09-28_12h57.26.541,slotMachine_updated,2023.1.3,Win32,59.46010227,,,,,,,,,,,,,,,,,,,,,,,,,,,,,,,,,,,,,,,,,,,,,,,,,,,846.9693,up,0.2079,,0.5,0.3,"[2,1,3]",0.3243828,stimuli/card_100_transparent.png,900,100,8,0,8,0,1,,,,,
Vincenzo Fiore,2023-09-28_12h57.26.541,slotMachine_updated,2023.1.3,Win32,59.46010227,,,,,,,,,,,,,,,,,,,,,,,,,,,,,,,,,,,,,,,,,,,,,,,,,,,847.987,up,0.2928,,1.5,0.3,"[2,1,3]",0.440490599,stimuli/card_100_transparent.png,1000,100,9,0,9,0,1,,,,,
Vincenzo Fiore,2023-09-28_12h57.26.541,slotMachine_updated,2023.1.3,Win32,59.46010227,,,,,,,,,,,,,,,,,,,,,,,,,,,,,,,,,,,,,,,,,,,,,,,,,,,850.089,up,0.1933,,0.5,0.3,"[2,1,3]",0.968547048,stimuli/card_100_transparent.png,1100,100,10,0,10,0,1,,,,,
Vincenzo Fiore,2023-09-28_12h57.26.541,slotMachine_updated,2023.1.3,Win32,59.46010227,,,,,,,,,,,,,,,,,,,,,,,,,,,,,,,,,,,,,,,,,,,,,,,,,,,851.0907,up,0.1584,,0.5,0.3,"[1,2,3]",0.813334253,stimuli/card_10_transparent.png,1110,10,11,0,11,0,1,,,,,
Vincenzo Fiore,2023-09-28_12h57.26.541,slotMachine_updated,2023.1.3,Win32,59.46010227,,,,,,,,,,,,,,,,,,,,,,,,,,,,,,,,,,,,,,,,,,,,,,,,,,,852.059,up,0.1142,,1.5,0.3,"[1,2,3]",0.949947828,stimuli/card_10_transparent.png,1120,10,12,0,12,0,1,,,,,
Vincenzo Fiore,2023-09-28_12h57.26.541,slotMachine_updated,2023.1.3,Win32,59.46010227,,,,,,,,,,,,,,,,,,,,,,,,,,,,,,,,,,,,,,,,,,,,,,,,,,,853.9941,up,0.3084,,1,0.3,"[1,2,3]",0.979980407,stimuli/card_10_transparent.png,1130,10,13,0,13,0,1,,,,,
Vincenzo Fiore,2023-09-28_12h57.26.541,slotMachine_updated,2023.1.3,Win32,59.46010227,,,,,,,,,,,,,,,,,,,,,,,,,,,,,,,,,,,,,,,,,,,,,,,,,,,855.6281,up,0.1664,,0.5,0.3,"[1,2,3]",0.769534252,stimuli/card_10_transparent.png,1140,10,14,0,14,0,1,,,,,
Vincenzo Fiore,2023-09-28_12h57.26.541,slotMachine_updated,2023.1.3,Win32,59.46010227,,,,,,,,,,,,,,,,,,,,,,,,,,,,,,856.6124,,,,,,,,,,,,,,,,,,,,,,,,,,,,,,,,,,,,,7,0,7,0,1
Vincenzo Fiore,2023-09-28_12h57.26.541,slotMachine_updated,2023.1.3,Win32,59.46010227,,,,,,,,,,,,,,,,,,,,,,,,,,,,,,,,,,,,,,,,,,,,,,,,,"[8,15]","[[3,2,1],[3,1,2]]",861.6065,up,0.5428,,1.5,0.3,"[3,2,1]",0.928281884,stimuli/card_10_transparent.png,10,10,0,0,0,0,1,,,,,
Vincenzo Fiore,2023-09-28_12h57.26.541,slotMachine_updated,2023.1.3,Win32,59.46010227,,,,,,,,,,,,,,,,,,,,,,,,,,,,,,,,,,,,,,,,,,,,,,,,,,,863.9699,up,0.331,,0.5,0.3,"[3,2,1]",0.930013067,stimuli/card_10_transparent.png,20,10,1,0,1,0,1,,,,,
Vincenzo Fiore,2023-09-28_12h57.26.541,slotMachine_updated,2023.1.3,Win32,59.46010227,,,,,,,,,,,,,,,,,,,,,,,,,,,,,,,,,,,,,,,,,,,,,,,,,,,865.1209,up,0.2146,,1,0.3,"[3,2,1]",0.651413695,stimuli/card_10_transparent.png,30,10,2,0,2,0,1,,,,,
Vincenzo Fiore,2023-09-28_12h57.26.541,slotMachine_updated,2023.1.3,Win32,59.46010227,,,,,,,,,,,,,,,,,,,,,,,,,,,,,,,,,,,,,,,,,,,,,,,,,,,866.6556,up,0.0737,,0.5,0.3,"[3,2,1]",0.699167887,stimuli/card_10_transparent.png,40,10,3,0,3,0,1,,,,,
Vincenzo Fiore,2023-09-28_12h57.26.541,slotMachine_updated,2023.1.3,Win32,59.46010227,,,,,,,,,,,,,,,,,,,,,,,,,,,,,,,,,,,,,,,,,,,,,,,,,,,867.5398,up,0.2023,,1,0.3,"[3,2,1]",0.898527011,stimuli/card_10_transparent.png,50,10,4,0,4,0,1,,,,,
Vincenzo Fiore,2023-09-28_12h57.26.541,slotMachine_updated,2023.1.3,Win32,59.46010227,,,,,,,,,,,,,,,,,,,,,,,,,,,,,,,,,,,,,,,,,,,,,,,,,,,869.0585,,,,1,0.3,,,,,,5,0,5,0,1,,,,,
Vincenzo Fiore,2023-09-28_12h57.26.541,slotMachine_updated,2023.1.3,Win32,59.46010227,,,,,,,,,,,,,,,,,,,,,,,,,,,,,,,,,,,,,,,,,,,,,,,,,,,917.6164,,,,1,0.3,,,,,,6,0,6,0,1,,,,,
Vincenzo Fiore,2023-09-28_12h57.26.541,slotMachine_updated,2023.1.3,Win32,59.46010227,,,,,,,,,,,,,,,,,,,,,,,,,,,,,,,,,,,,,,,,,,,,,,,,,,,1005.4683,right,2.5911,,0.5,0.3,"[3,2,1]",0.573404189,stimuli/card_100_transparent.png,150,100,7,0,7,0,1,,,,,
Vincenzo Fiore,2023-09-28_12h57.26.541,slotMachine_updated,2023.1.3,Win32,59.46010227,,,,,,,,,,,,,,,,,,,,,,,,,,,,,,,,,,,,,,,,,,,,,,,,,,,1008.8653,left,0.8169,,1.5,0.3,"[3,1,2]",0.717290987,stimuli/card_0_transparent.png,150,0,8,0,8,0,1,,,,,
Vincenzo Fiore,2023-09-28_12h57.26.541,slotMachine_updated,2023.1.3,Win32,59.46010227,,,,,,,,,,,,,,,,,,,,,,,,,,,,,,,,,,,,,,,,,,,,,,,,,,,1011.5012,left,0.3616,,1.5,0.3,"[3,1,2]",0.59513316,stimuli/card_0_transparent.png,150,0,9,0,9,0,1,,,,,
Vincenzo Fiore,2023-09-28_12h57.26.541,slotMachine_updated,2023.1.3,Win32,59.46010227,,,,,,,,,,,,,,,,,,,,,,,,,,,,,,,,,,,,,,,,,,,,,,,,,,,1013.6701,up,0.7176,,0.5,0.3,"[3,1,2]",0.049991669,stimuli/card_0_transparent.png,150,0,10,0,10,0,1,,,,,
Vincenzo Fiore,2023-09-28_12h57.26.541,slotMachine_updated,2023.1.3,Win32,59.46010227,,,,,,,,,,,,,,,,,,,,,,,,,,,,,,,,,,,,,,,,,,,,,,,,,,,1015.2257,left,0.579,,1,0.3,"[3,1,2]",0.448303122,stimuli/card_0_transparent.png,150,0,11,0,11,0,1,,,,,
Vincenzo Fiore,2023-09-28_12h57.26.541,slotMachine_updated,2023.1.3,Win32,59.46010227,,,,,,,,,,,,,,,,,,,,,,,,,,,,,,,,,,,,,,,,,,,,,,,,,,,1017.1223,right,0.2338,,1,0.3,"[3,1,2]",0.083101363,stimuli/card_0_transparent.png,150,0,12,0,12,0,1,,,,,
Vincenzo Fiore,2023-09-28_12h57.26.541,slotMachine_updated,2023.1.3,Win32,59.46010227,,,,,,,,,,,,,,,,,,,,,,,,,,,,,,,,,,,,,,,,,,,,,,,,,,,1018.6904,right,0.0112,,0.5,0.3,"[3,1,2]",0.429719148,stimuli/card_10_transparent.png,160,10,13,0,13,0,1,,,,,
Vincenzo Fiore,2023-09-28_12h57.26.541,slotMachine_updated,2023.1.3,Win32,59.46010227,,,,,,,,,,,,,,,,,,,,,,,,,,,,,,,,,,,,,,,,,,,,,,,,,,,1019.508,right,0.3027,,1,0.3,"[3,1,2]",0.869804599,stimuli/card_10_transparent.png,170,10,14,0,14,0,1,,,,,
Vincenzo Fiore,2023-09-28_12h57.26.541,slotMachine_updated,2023.1.3,Win32,59.46010227,,,,,,,,,,,,,,,,,,,,,,,,,,,,,,1021.1313,,,,,,,,,,,,,,,,,,,,,,,,,,,,,,,,,,,,,8,0,8,0,1
Vincenzo Fiore,2023-09-28_12h57.26.541,slotMachine_updated,2023.1.3,Win32,59.46010227,,,,,,,,,,,,,,,,,,,,,,,,,,,,,,,,,,,,,,,,,,,,,,,,,"[10,15]","[[3,1,2],[1,3,2]]",1026.1365,up,0.6503,0,0.5,0.3,"[3,1,2]",0.486280028,stimuli/card_100_transparent.png,100,100,0,0,0,0,1,,,,,
Vincenzo Fiore,2023-09-28_12h57.26.541,slotMachine_updated,2023.1.3,Win32,59.46010227,,,,,,,,,,,,,,,,,,,,,,,,,,,,,,,,,,,,,,,,,,,,,,,,,,,1027.5994,up,0.0377,,1,0.3,"[3,1,2]",0.181349142,stimuli/card_10_transparent.png,110,10,1,0,1,0,1,,,,,
Vincenzo Fiore,2023-09-28_12h57.26.541,slotMachine_updated,2023.1.3,Win32,59.46010227,,,,,,,,,,,,,,,,,,,,,,,,,,,,,,,,,,,,,,,,,,,,,,,,,,,1028.9675,up,0.2003,,1.5,0.3,"[3,1,2]",0.426346857,stimuli/card_100_transparent.png,210,100,2,0,2,0,1,,,,,
Vincenzo Fiore,2023-09-28_12h57.26.541,slotMachine_updated,2023.1.3,Win32,59.46010227,,,,,,,,,,,,,,,,,,,,,,,,,,,,,,,,,,,,,,,,,,,,,,,,,,,1031.003,up,0.0504,,1.5,0.3,"[3,1,2]",0.810281984,stimuli/card_100_transparent.png,310,100,3,0,3,0,1,,,,,
Vincenzo Fiore,2023-09-28_12h57.26.541,slotMachine_updated,2023.1.3,Win32,59.46010227,,,,,,,,,,,,,,,,,,,,,,,,,,,,,,,,,,,,,,,,,,,,,,,,,,,1032.8766,up,0.1849,,1,0.3,"[3,1,2]",0.627057576,stimuli/card_100_transparent.png,410,100,4,0,4,0,1,,,,,
Vincenzo Fiore,2023-09-28_12h57.26.541,slotMachine_updated,2023.1.3,Win32,59.46010227,,,,,,,,,,,,,,,,,,,,,,,,,,,,,,,,,,,,,,,,,,,,,,,,,,,1034.3965,up,0.0871,,1,0.3,"[3,1,2]",0.052076333,stimuli/card_0_transparent.png,410,0,5,0,5,0,1,,,,,
Vincenzo Fiore,2023-09-28_12h57.26.541,slotMachine_updated,2023.1.3,Win32,59.46010227,,,,,,,,,,,,,,,,,,,,,,,,,,,,,,,,,,,,,,,,,,,,,,,,,,,1035.8076,up,0.2193,,0.5,0.3,"[3,1,2]",0.197321063,stimuli/card_10_transparent.png,420,10,6,0,6,0,1,,,,,
Vincenzo Fiore,2023-09-28_12h57.26.541,slotMachine_updated,2023.1.3,Win32,59.46010227,,,,,,,,,,,,,,,,,,,,,,,,,,,,,,,,,,,,,,,,,,,,,,,,,,,1036.8586,up,0.5184,,1,0.3,"[3,1,2]",0.765858694,stimuli/card_100_transparent.png,520,100,7,0,7,0,1,,,,,
Vincenzo Fiore,2023-09-28_12h57.26.541,slotMachine_updated,2023.1.3,Win32,59.46010227,,,,,,,,,,,,,,,,,,,,,,,,,,,,,,,,,,,,,,,,,,,,,,,,,,,1038.6991,,,,1.5,0.3,,,,,,8,0,8,0,1,,,,,
Vincenzo Fiore,2023-09-28_12h57.26.541,slotMachine_updated,2023.1.3,Win32,59.46010227,,,,,,,,,,,,,,,,,,,,,,,,,,,,,,,,,,,,,,,,,,,,,,,,,,,1044.2276,up,1.8799,0.0002,0.5,0.3,"[3,1,2]",0.578214558,stimuli/card_100_transparent.png,620,100,9,0,9,0,1,,,,,
Vincenzo Fiore,2023-09-28_12h57.26.541,slotMachine_updated,2023.1.3,Win32,59.46010227,,,,,,,,,,,,,,,,,,,,,,,,,,,,,,,,,,,,,,,,,,,,,,,,,,,1046.9072,up,0.7372,,1,0.3,"[1,3,2]",0.402289917,stimuli/card_0_transparent.png,620,0,10,0,10,0,1,,,,,
Vincenzo Fiore,2023-09-28_12h57.26.541,slotMachine_updated,2023.1.3,Win32,59.46010227,,,,,,,,,,,,,,,,,,,,,,,,,,,,,,,,,,,,,,,,,,,,,,,,,,,1048.9761,up,0.1727,,0.5,0.3,"[1,3,2]",0.454894443,stimuli/card_0_transparent.png,620,0,11,0,11,0,1,,,,,
Vincenzo Fiore,2023-09-28_12h57.26.541,slotMachine_updated,2023.1.3,Win32,59.46010227,,,,,,,,,,,,,,,,,,,,,,,,,,,,,,,,,,,,,,,,,,,,,,,,,,,1049.96,up,0.1562,,0.5,0.3,"[1,3,2]",0.758413742,stimuli/card_0_transparent.png,620,0,12,0,12,0,1,,,,,
Vincenzo Fiore,2023-09-28_12h57.26.541,slotMachine_updated,2023.1.3,Win32,59.46010227,,,,,,,,,,,,,,,,,,,,,,,,,,,,,,,,,,,,,,,,,,,,,,,,,,,1050.9229,up,0.0004,,0.5,0.3,"[1,3,2]",0.321409169,stimuli/card_0_transparent.png,620,0,13,0,13,0,1,,,,,
Vincenzo Fiore,2023-09-28_12h57.26.541,slotMachine_updated,2023.1.3,Win32,59.46010227,,,,,,,,,,,,,,,,,,,,,,,,,,,,,,,,,,,,,,,,,,,,,,,,,,,1051.7414,left,0.0332,,0.5,0.3,"[1,3,2]",0.48164322,stimuli/card_100_transparent.png,720,100,14,0,14,0,1,,,,,
Vincenzo Fiore,2023-09-28_12h57.26.541,slotMachine_updated,2023.1.3,Win32,59.46010227,,,,,,,,,,,,,,,,,,,,,,,,,,,,,,1052.5961,,,,,,,,,,,,,,,,,,,,,,,,,,,,,,,,,,,,,9,0,9,0,1
Vincenzo Fiore,2023-09-28_12h57.26.541,slotMachine_updated,2023.1.3,Win32,59.46010227,,,,,,,,,,,,,,,,,,,,,,,,,,,,,,,,,,,,,,,,,,,,,,,,,,,,,,,,,,,,,,,,,,,,,,,
